gravity.x,gravity.y,gravity.z,userAcceleration.x,userAcceleration.y,userAcceleration.z
0.00797,0.99714,-0.07518,-0.1417,-0.02412,0.01161
0.00146,0.99699,-0.07749,-0.14027,-0.03964,-0.01574
-0.00598,0.99663,-0.08185,-0.09778,-0.03944,-0.03947
-0.01281,0.99628,-0.08522,-0.02457,-0.02402,-0.0067
-0.0248,0.99593,-0.08662,-0.02349,0.0167,-0.02585
-0.02451,0.99559,-0.0905,-0.02871,0.00863,-0.01553
-0.02577,0.99499,-0.09659,-0.01149,-0.05148,0.01991
-0.02181,0.99476,-0.09992,0.00176,-0.06699,-0.00192
-0.0151,0.99467,-0.10196,-0.01583,-0.06067,0.04014
-0.00959,0.99421,-0.10701,-0.08332,0.01563,0.0347
-0.00362,0.99372,-0.11187,-0.08557,0.02292,-0.00672
0.00639,0.99267,-0.12064,-0.05469,-0.02455,-0.00578
0.01785,0.99165,-0.12773,-0.06371,-0.09013,-8e-05
0.02579,0.99066,-0.1339,-0.04514,-0.04139,0.03411
0.03544,0.98939,-0.14091,-0.067,-0.01911,0.07504
0.04329,0.98828,-0.14635,-0.08177,-0.056,0.09223
0.05004,0.98699,-0.15278,-0.07374,-0.00556,-0.04413
0.06025,0.98531,-0.15976,-0.05885,0.03388,-0.08963
0.069,0.98396,-0.16451,0.03142,0.09742,0.00664
0.07495,0.98324,-0.16619,-0.03407,0.11881,0.12067
0.07591,0.98329,-0.16549,-0.26782,0.13509,0.13128
0.07473,0.98335,-0.16563,-0.49519,0.3546,0.06829
0.06824,0.9841,-0.164,-0.53417,0.43811,-0.04124
0.05432,0.98565,-0.15979,-0.47494,0.34003,0.03354
0.03593,0.98886,-0.14441,-0.4469,0.36004,0.28842
0.01263,0.99356,-0.11261,-0.34635,0.51146,0.23827
-0.01696,0.99757,-0.06759,-0.03489,0.48801,-0.10299
-0.04552,0.99886,-0.01413,0.19386,0.29887,-0.26321
-0.068,0.99713,0.03329,0.28938,0.04314,-0.31787
-0.09155,0.99332,0.07019,0.12426,0.04621,0.0318
-0.1228,0.98712,0.10252,0.10023,0.10184,-0.23111
-0.15207,0.98059,0.12377,0.04216,0.19228,-0.52314
-0.18973,0.97204,0.13832,-0.235,0.26044,-0.06801
-0.24239,0.95638,0.16305,-0.34662,0.33516,-0.23679
-0.28789,0.93704,0.19765,-0.03244,0.29025,-0.36252
-0.32197,0.9169,0.23586,0.57912,-0.16897,-0.34873
-0.34895,0.8963,0.27365,0.64109,-0.23513,-0.325
-0.36844,0.87636,0.31023,0.68395,-0.26543,-0.26543
-0.38419,0.8566,0.34444,0.56615,-0.30273,-0.27596
-0.39538,0.83713,0.378,0.35245,-0.32689,-0.31633
-0.39782,0.81976,0.41197,0.29806,-0.33742,-0.35675
-0.39416,0.80529,0.44288,0.19618,-0.14379,-0.16787
-0.39298,0.79487,0.46231,0.08683,-0.09445,-0.04586
-0.398,0.78688,0.47161,-0.0778,0.0452,0.07745
-0.40459,0.77918,0.47872,-0.16873,0.08056,0.08031
-0.40926,0.77327,0.48432,-0.17104,-0.13235,-0.04807
-0.41061,0.77025,0.48797,-0.13434,-0.18448,-0.16137
-0.41138,0.769,0.48929,-0.06103,-0.1566,-0.08145
-0.41343,0.76906,0.48746,-0.18868,-0.09344,-0.02133
-0.42067,0.77077,0.47848,0.01255,-0.13979,-0.04639
-0.42832,0.77863,0.45856,0.34161,-0.21106,-0.02059
-0.42177,0.79933,0.42799,0.60837,-0.33159,-0.01188
-0.39956,0.82697,0.39556,0.15407,0.48023,0.68739
-0.39045,0.83995,0.37686,-0.55979,1.40288,0.75572
-0.38873,0.85367,0.3466,-0.33685,1.13637,-0.53822
-0.37233,0.86705,0.33105,0.30455,-0.11023,-0.11349
-0.35114,0.8866,0.30107,0.4064,-0.16661,-0.31435
-0.31933,0.90869,0.2689,0.3816,-0.01227,-0.57218
-0.28155,0.9283,0.24289,0.15615,0.17815,-0.6951
-0.24906,0.94475,0.21309,0.00577,0.28192,-0.36479
-0.22564,0.95781,0.17797,-0.1104,0.21838,-0.10739
-0.20341,0.96716,0.15237,0.04878,-0.04053,-0.0144
-0.17507,0.97501,0.13673,0.18727,-0.13478,-0.1372
-0.14535,0.98179,0.12234,0.10451,-0.03368,-0.26698
-0.11668,0.98747,0.10622,0.04384,-0.04619,-0.25416
-0.09089,0.99235,0.08351,-0.0642,-0.11911,-0.19396
-0.07183,0.99586,0.05562,-0.07493,-0.2251,-0.14497
-0.06093,0.99766,0.03105,0.00871,-0.31438,0.02499
-0.05106,0.99862,0.0118,0.10625,-0.14885,-0.05593
-0.03698,0.9993,-0.00493,0.00117,0.06309,-0.13556
-0.02121,0.99954,-0.02171,-0.06427,0.01305,-0.00341
-0.00523,0.99928,-0.03764,-0.10701,-0.08537,-0.02591
0.00988,0.99843,-0.05511,-0.20264,-0.05168,-0.07548
0.02351,0.99699,-0.07393,-0.15156,0.01025,0.06841
0.03649,0.9955,-0.08739,-0.19949,0.08286,-0.02386
0.04804,0.9942,-0.09619,-0.21858,0.15088,-0.10959
0.05567,0.99305,-0.10366,-0.16101,0.25736,-0.1256
0.06652,0.99161,-0.11085,-0.22745,0.2733,0.08479
0.07199,0.99076,-0.11489,-0.37738,0.21517,0.07833
0.07024,0.99089,-0.11489,-0.46775,0.06796,0.14216
0.06042,0.99247,-0.10649,-0.48283,0.13709,-0.12029
0.03887,0.99511,-0.09075,-0.36756,0.14359,-0.15632
0.00583,0.99729,-0.07334,-0.1084,0.0677,-0.12484
-0.03894,0.9976,-0.05719,0.09951,0.10683,0.01476
-0.09046,0.99525,-0.03582,0.23362,0.16689,0.26141
-0.14265,0.98977,-0.00171,0.31047,0.40835,0.49707
-0.18932,0.98141,0.03145,0.3485,0.59713,-0.02484
-0.22781,0.97158,0.06434,0.39236,0.5583,-0.16996
-0.26158,0.96016,0.09826,0.33661,0.36688,-0.18658
-0.28963,0.94792,0.1325,0.15546,0.18231,-0.01342
-0.32414,0.93245,0.15956,-0.00714,0.23256,0.03147
-0.36609,0.91222,0.18395,0.1579,-0.00975,-0.05321
-0.40437,0.89051,0.2085,0.2362,-0.07987,-0.07404
-0.43807,0.86833,0.23258,0.32293,-0.12229,-0.08706
-0.46713,0.84517,0.25976,0.3007,-0.25461,-0.19003
-0.48716,0.82224,0.29424,0.40042,-0.35174,-0.27053
-0.49585,0.80283,0.33104,0.46057,-0.38363,-0.3126
-0.49471,0.78992,0.36231,0.56065,-0.47904,-0.27514
-0.48695,0.78457,0.38382,0.5253,-0.46261,-0.26864
-0.47408,0.78675,0.3953,0.46962,-0.44589,-0.2839
-0.45622,0.79546,0.39888,0.21207,-0.43841,-0.24001
-0.43465,0.81084,0.39194,-0.0384,-0.5175,-0.00924
-0.41325,0.83067,0.3731,-0.29341,-0.34724,0.22611
-0.39659,0.84746,0.35287,-0.72105,0.148,0.36218
-0.38846,0.856,0.3411,-0.85478,0.44812,0.44428
-0.38987,0.856,0.33949,-0.42393,0.83533,0.35786
-0.40287,0.85109,0.33666,-0.17113,0.35504,0.10585
-0.42001,0.84776,0.32387,0.04764,0.19701,0.20466
-0.43514,0.85082,0.29455,0.38019,0.92466,0.17091
-0.44034,0.85954,0.25939,0.77577,0.591,-0.21568
-0.43999,0.86774,0.23116,0.83337,0.2311,-0.09079
-0.43492,0.87382,0.21746,0.47645,0.01347,0.19428
-0.42798,0.88131,0.20033,0.38231,-0.03847,-0.28892
-0.41624,0.8924,0.17426,0.36632,-0.24547,-0.45557
-0.39576,0.90767,0.13966,0.49049,-0.2713,-0.57717
-0.3658,0.92492,0.10347,0.47489,0.33901,-0.38622
-0.33421,0.94036,0.06349,0.34407,0.31129,-0.26298
-0.30205,0.95314,0.01713,0.18087,0.1977,-0.1412
-0.27355,0.96137,-0.03056,0.05611,-0.18655,-0.06792
-0.25251,0.96425,-0.08032,0.10954,-0.31611,0.03674
-0.24164,0.96244,-0.12379,0.21143,-0.17414,0.15336
-0.2308,0.96198,-0.14602,0.09185,0.06066,-0.07658
-0.22283,0.96084,-0.1647,-0.05823,0.04708,-0.0967
-0.21476,0.95874,-0.18626,-0.13871,0.02374,-0.0685
-0.20693,0.95597,-0.20808,-0.26984,-0.10068,0.05716
-0.20101,0.95174,-0.23192,-0.24107,-0.26642,0.17243
-0.19576,0.9473,-0.25356,-0.18612,-0.24253,0.18105
-0.19003,0.94414,-0.26926,-0.07584,-0.10707,0.1776
-0.17922,0.9425,-0.28209,-0.06746,-0.04849,0.15788
-0.163,0.94232,-0.29233,-0.11483,0.00848,0.07186
-0.14904,0.94078,-0.3045,-0.1307,0.10222,0.24964
-0.14341,0.93765,-0.31661,-0.06698,0.18877,0.30248
-0.14393,0.93628,-0.32041,-0.18012,0.14876,0.20839
-0.15107,0.93423,-0.32309,-0.2729,0.26348,0.20812
-0.16208,0.93491,-0.31572,-0.08177,0.24521,0.23978
-0.18232,0.93888,-0.29202,0.00586,0.27661,0.30633
-0.21562,0.9404,-0.26297,-0.15733,0.34182,0.14644
-0.25748,0.94032,-0.2225,-0.38917,0.46827,0.18792
-0.30049,0.93542,-0.18625,-0.25003,0.87452,0.35485
-0.33154,0.93185,-0.14746,0.22157,1.01774,0.04021
-0.3519,0.9305,-0.10168,0.49791,0.85734,-0.18893
-0.37515,0.92496,-0.06089,0.58903,0.7806,0.17728
-0.40501,0.91425,-0.01089,0.14835,0.44703,0.16769
-0.43988,0.89692,0.04526,0.17298,0.12341,-0.04928
-0.47448,0.87713,0.07424,0.39608,-0.03451,-0.11266
-0.5107,0.85569,0.08353,0.39473,-0.21136,-0.25777
-0.54586,0.831,0.10715,0.42164,-0.21637,-0.25295
-0.56865,0.809,0.14884,0.50943,-0.51544,-0.34855
-0.57606,0.79455,0.19193,0.60214,-0.98558,-0.20795
-0.56945,0.79042,0.22574,0.60647,-0.97763,-0.18616
-0.5525,0.79657,0.2454,0.57478,-0.70534,-0.13162
-0.52599,0.81245,0.25149,0.44233,-0.66815,-0.03242
-0.48987,0.83764,0.24163,0.32918,-0.71081,0.02275
-0.45378,0.86384,0.21879,-0.33826,-0.32291,0.56246
-0.43429,0.87599,0.20986,-0.90207,0.92685,0.6158
-0.43344,0.86799,0.24233,-0.91829,2.10668,0.69482
-0.45147,0.85017,0.2709,-0.41325,1.9726,0.80832
-0.47415,0.83575,0.27696,0.18466,-0.88801,0.17346
-0.48947,0.83101,0.26427,0.52744,-0.24657,0.01361
-0.48576,0.84578,0.22067,0.44248,0.55491,-0.01678
-0.45475,0.87191,0.18157,1.40251,1.05825,-0.02973
-0.42119,0.88914,0.17895,0.32607,-0.01265,0.19735
-0.40438,0.89961,0.16485,0.07669,-0.23155,-0.32235
-0.39107,0.91088,0.13176,0.28104,-0.0436,-0.69321
-0.36212,0.9283,0.08446,0.31506,-0.04298,-0.68021
-0.31921,0.94702,0.03543,0.29843,-0.00491,-0.56526
-0.26998,0.96282,-0.00924,0.10004,0.13294,-0.14719
-0.22679,0.97255,-0.05206,-0.24883,-0.12627,0.27928
-0.19748,0.97592,-0.09265,-0.16478,-0.38414,0.30869
-0.18284,0.97576,-0.12025,0.20277,-0.56211,0.03926
-0.17751,0.97405,-0.14044,0.35364,-0.34442,-0.07576
-0.17235,0.97075,-0.16712,0.29346,-0.22292,-0.03057
-0.16096,0.96627,-0.20102,0.14297,-0.02999,0.06823
-0.14483,0.96225,-0.23044,-0.03147,-0.07507,0.37099
-0.12517,0.96121,-0.24577,-0.27874,-0.1387,0.35318
-0.10263,0.96223,-0.25214,-0.24607,-0.02659,0.08966
-0.07922,0.96359,-0.25539,-0.20687,0.05344,0.00986
-0.05728,0.96364,-0.26098,-0.20325,-0.02817,0.11825
-0.04361,0.96239,-0.26813,-0.46959,0.1271,0.23592
-0.0402,0.96223,-0.26925,-0.74694,0.09455,-0.05053
-0.04642,0.96015,-0.27561,-0.87268,0.25079,-0.03769
-0.06335,0.9607,-0.27027,-0.63715,0.25811,0.06895
-0.1008,0.96202,-0.25367,-0.53268,0.43474,-0.03607
-0.15893,0.96156,-0.22392,-0.1638,0.72505,0.17434
-0.21571,0.95942,-0.18159,-0.05095,1.01307,0.65855
-0.26109,0.95511,-0.13997,0.26029,1.18321,0.15026
-0.29152,0.95176,-0.09579,0.64143,0.98896,-0.15369
-0.31623,0.947,-0.05641,0.86425,0.65358,0.0516
-0.34378,0.93875,-0.02354,0.65869,0.37486,0.34147
-0.37095,0.92845,0.0195,0.2656,0.15464,-0.00793
-0.40625,0.91123,0.06801,-0.02369,-0.06011,-0.13405
-0.45077,0.88721,0.09831,0.1282,-0.24863,-0.30575
-0.4932,0.86095,0.12457,0.2239,-0.39497,-0.36168
-0.52106,0.83738,0.16521,0.63344,-0.76465,-0.41362
-0.53535,0.81857,0.20819,0.71637,-0.87367,-0.37082
-0.53803,0.80563,0.24795,0.69475,-0.82085,-0.37308
-0.52947,0.80061,0.2805,0.67318,-0.72274,-0.37848
-0.51097,0.80616,0.29835,0.58605,-0.71657,-0.31491
-0.48518,0.82445,0.29134,0.42747,-0.74177,-0.05454
-0.45732,0.85201,0.25481,-0.01602,-0.49038,0.46716
-0.43521,0.87184,0.22471,-0.33355,-0.06829,0.57068
-0.42434,0.87241,0.24257,-0.89106,2.57947,0.85762
-0.43331,0.85457,0.28628,-0.23941,1.51631,0.97298
-0.45246,0.83719,0.30723,0.11102,-0.53751,0.15357
-0.46958,0.8271,0.30887,0.25382,-1.14351,0.07626
-0.48107,0.83242,0.27502,0.309,0.86538,-0.13002
-0.46965,0.85219,0.23066,1.34782,1.8801,-0.6056
-0.44899,0.86372,0.22891,1.48169,1.64599,0.31998
-0.43949,0.87211,0.21512,0.15293,-0.48679,-0.31447
-0.42467,0.88622,0.18513,0.19332,-0.50768,-0.64954
-0.39404,0.90884,0.13692,0.42074,0.02884,-1.03345
-0.34854,0.93369,0.0821,0.47983,0.48431,-0.64789
-0.29519,0.95495,0.03062,0.21934,0.15287,-0.26113
-0.24234,0.97006,-0.01608,-0.20189,0.22469,0.26368
-0.20954,0.9767,-0.04644,-0.31057,-0.23475,0.52784
-0.1934,0.97893,-0.06545,0.16607,-0.53205,0.07967
-0.19143,0.97805,-0.08228,0.49082,-0.56342,-0.05589
-0.18749,0.97624,-0.10862,0.45733,-0.43738,-0.12635
-0.1754,0.97357,-0.14627,0.15795,-0.09477,-0.01538
-0.16122,0.96954,-0.18438,-0.08749,-0.01085,0.30275
-0.1482,0.96691,-0.20767,-0.33849,-0.13956,0.49483
-0.13387,0.96616,-0.22047,-0.40403,-0.20855,0.18426
-0.12343,0.96628,-0.22597,-0.31853,-0.0785,0.06751
-0.11363,0.96576,-0.23321,-0.18773,-0.05257,0.13886
-0.1043,0.96415,-0.24398,-0.07955,0.07874,0.1518
-0.09641,0.9631,-0.25128,-0.17936,0.17824,0.13242
-0.09484,0.96275,-0.25321,-0.61155,0.17067,-0.09925
-0.10433,0.95968,-0.261,-0.64734,0.2658,0.14215
-0.12221,0.95976,-0.25281,-0.39224,0.12752,0.21657
-0.15816,0.96238,-0.22092,-0.26584,0.42006,0.60367
-0.20716,0.96341,-0.17009,-0.38203,0.50881,0.26785
-0.26313,0.95702,-0.12195,-0.2205,0.95414,0.15066
-0.30704,0.9486,-0.07673,0.1955,1.43689,-0.28858
-0.32721,0.944,-0.04244,0.48582,1.09546,-0.22072
-0.34808,0.93733,-0.01592,0.54138,0.73172,0.4648
-0.38112,0.92442,0.01382,0.18094,0.43336,0.31893
-0.42136,0.90538,0.05239,-0.02759,0.09746,-0.10684
-0.45749,0.88453,0.09115,0.2273,-0.27834,-0.28292
-0.48634,0.86578,0.11788,0.38383,-0.4593,-0.25715
-0.5082,0.84849,0.14761,0.56586,-0.44461,-0.33577
-0.52499,0.8307,0.18525,0.64916,-0.53241,-0.35224
-0.53439,0.81554,0.22208,0.69041,-0.72792,-0.33031
-0.53519,0.80527,0.25516,0.54891,-0.75109,-0.34347
-0.52722,0.80157,0.282,0.56826,-0.73405,-0.3911
-0.51066,0.80828,0.2931,0.499,-0.68993,-0.04455
-0.48415,0.82859,0.28114,0.42281,-0.68288,0.0855
-0.45157,0.85621,0.25098,0.25253,-0.64597,0.25231
-0.42497,0.87343,0.23774,-0.61416,0.81686,0.66635
-0.41419,0.87073,0.26508,-0.6961,1.81259,0.52604
-0.42485,0.8543,0.29945,-0.50122,2.36289,1.07132
-0.443,0.84118,0.31012,0.11066,-0.96344,0.19878
-0.45698,0.83574,0.30448,0.35206,0.21468,0.29118
-0.46642,0.84128,0.27331,0.14617,1.28247,0.38361
-0.46266,0.85078,0.24923,1.09391,0.57037,-0.38886
-0.45437,0.85975,0.23317,0.35073,-0.8975,-0.35565
-0.44357,0.87151,0.20906,0.4112,-0.7507,-0.20968
-0.42254,0.8896,0.17338,0.32505,0.0905,-0.91491
-0.38307,0.91648,0.11543,0.26427,0.24132,-1.03212
-0.33593,0.94025,0.05542,0.00097,0.42893,-0.24569
-0.28682,0.95782,0.0175,-0.33591,0.08379,0.21105
-0.25017,0.9682,0.0009,-0.23257,-0.07902,0.12997
-0.22846,0.97324,-0.02466,-0.08935,-0.20189,0.12337
-0.21616,0.9749,-0.05329,0.36785,-0.57596,-0.07032
-0.20562,0.97547,-0.07859,0.48866,-0.36458,-0.0731
-0.19252,0.97523,-0.10887,0.36779,-0.24135,-0.06778
-0.17557,0.97358,-0.14599,0.14156,-0.03193,0.08857
-0.15529,0.97208,-0.17593,-0.00761,-0.07481,0.33963
-0.13225,0.97213,-0.19359,-0.25968,-0.26401,0.38498
-0.10903,0.97266,-0.20503,-0.36093,-0.17399,0.09591
-0.09103,0.97283,-0.21287,-0.28635,-0.02578,0.04845
-0.0755,0.97169,-0.22389,-0.19629,-0.0237,0.18749
-0.06336,0.97059,-0.23224,-0.21797,0.10897,0.2139
-0.05485,0.9715,-0.23058,-0.67581,0.01293,-0.11514
-0.05711,0.96935,-0.23895,-1.12884,0.24739,-0.11848
-0.07118,0.96866,-0.23797,-0.69062,0.17549,0.34362
-0.09786,0.97183,-0.21442,-0.45949,0.21351,0.28992
-0.14818,0.97275,-0.1783,-0.38474,0.48054,0.1901
-0.20743,0.96893,-0.1347,-0.28597,0.78304,0.2969
-0.26225,0.96064,-0.09161,-0.01026,1.2918,-0.14475
-0.29711,0.95359,-0.04885,0.21723,1.38952,-0.34767
-0.32224,0.94653,-0.01542,0.59042,0.79975,0.17543
-0.35408,0.93505,0.01777,0.57953,0.5616,0.33852
-0.38935,0.91943,0.05529,0.33431,0.26462,0.00021
-0.42734,0.89906,0.0952,0.16477,-0.01156,-0.21102
-0.46984,0.87411,0.12317,0.21215,-0.37297,-0.21709
-0.50463,0.84986,0.15191,0.2891,-0.38447,-0.22202
-0.52936,0.82758,0.18676,0.46214,-0.49987,-0.29115
-0.54346,0.80905,0.2238,0.64816,-0.77701,-0.32238
-0.54687,0.79626,0.25867,0.59454,-0.76931,-0.33702
-0.54002,0.79089,0.28787,0.64833,-0.72755,-0.34982
-0.5231,0.79561,0.30555,0.55341,-0.80211,-0.23184
-0.49804,0.81306,0.30146,0.45944,-0.82161,-0.09588
-0.46718,0.84183,0.2703,0.11941,-0.66269,0.3686
-0.44258,0.86503,0.23631,-0.22071,-0.35423,0.56235
-0.42568,0.87082,0.24589,-0.82476,2.15622,0.5304
-0.42995,0.85441,0.29174,-0.4555,2.28479,1.11762
-0.45167,0.83751,0.30751,-0.09795,0.80063,0.60481
-0.47259,0.82581,0.30772,0.51462,-0.19565,0.40138
-0.48249,0.82962,0.28095,0.37967,1.69429,-0.1059
-0.48171,0.83891,0.25333,1.22552,1.03845,-0.69739
-0.47353,0.84719,0.24089,1.02457,-0.3797,0.00357
-0.45912,0.86246,0.21302,0.61133,-0.64061,-0.02625
-0.43498,0.8837,0.17283,0.3992,-0.09543,-0.90509
-0.38725,0.91464,0.1161,0.34945,0.23431,-1.06822
-0.33083,0.94209,0.05494,-0.01787,0.32013,-0.11252
-0.27268,0.96209,0.00617,-0.24928,0.15381,0.08341
-0.22744,0.97355,-0.02157,-0.42787,0.05674,0.30077
-0.20178,0.97815,-0.05015,-0.1088,-0.48208,0.16756
-0.19124,0.97827,-0.08007,0.40331,-0.66684,-0.14645
-0.18412,0.97705,-0.10708,0.45573,-0.56652,-0.12973
-0.17422,0.97424,-0.1432,0.36391,-0.23937,-0.05064
-0.15693,0.97018,-0.18474,0.23951,0.05913,0.20169
-0.13402,0.9692,-0.20664,-0.15022,-0.00401,0.63648
-0.10749,0.96934,-0.22095,-0.49006,-0.2334,0.17145
-0.08647,0.96885,-0.23208,-0.33035,-0.13619,-0.05235
-0.07116,0.967,-0.24463,-0.22276,0.07313,0.14585
-0.05879,0.9656,-0.25332,-0.16631,0.14766,0.30414
-0.04885,0.96668,-0.2513,-0.44326,0.1286,0.1203
-0.04882,0.9659,-0.25425,-0.87102,0.05723,-0.2201
-0.05975,0.96297,-0.2629,-0.68311,0.16101,0.16923
-0.07447,0.9663,-0.24643,-0.41313,0.11003,0.22797
-0.10984,0.96884,-0.22199,-0.40392,0.23273,0.15354
-0.16383,0.96952,-0.18217,-0.36982,0.41788,0.20797
-0.22424,0.96422,-0.14142,-0.18509,1.17011,0.30824
-0.27454,0.95605,-0.10293,0.29443,1.40653,-0.12636
-0.30449,0.95011,-0.06765,0.63562,1.28709,-0.06946
-0.3286,0.94368,-0.03853,0.72504,0.89874,0.2811
-0.35271,0.93569,-0.00866,0.45212,0.40974,0.34155
-0.37792,0.92524,0.03315,0.06644,-0.19722,-0.21081
-0.41824,0.90493,0.0786,0.07737,-0.33811,-0.12262
-0.4603,0.88191,0.10179,0.20349,-0.3863,-0.18879
-0.49512,0.8599,0.12421,0.34172,-0.53225,-0.31981
-0.52076,0.83816,0.16217,0.46467,-0.57145,-0.39664
-0.53615,0.81913,0.20387,0.6781,-0.73289,-0.399
-0.53955,0.80565,0.24456,0.70467,-0.76186,-0.31626
-0.53201,0.80077,0.27519,0.6864,-0.75811,-0.3327
-0.51479,0.80794,0.28675,0.47057,-0.77716,-0.17065
-0.48761,0.82895,0.274,0.25584,-0.7213,0.08997
-0.45891,0.85515,0.24107,0.03922,-0.6126,0.27522
-0.43768,0.87079,0.22398,-0.43078,0.21832,0.69257
-0.42255,0.86857,0.25892,-0.63237,2.72839,1.06728
-0.42748,0.85422,0.29592,-0.30442,2.08017,1.24383
-0.44444,0.84149,0.30718,-0.01666,-0.18379,0.30006
-0.46238,0.8354,0.29718,0.15545,0.51614,0.2489
-0.47796,0.8404,0.25553,0.48141,2.43469,-0.64671
-0.48208,0.84663,0.22542,1.1129,1.85393,-1.09629
-0.47711,0.85421,0.2066,0.73599,-0.78185,-0.22209
-0.46717,0.86356,0.18976,0.70064,-0.28565,-0.23324
-0.44109,0.88467,0.15098,0.57186,-0.18568,-0.77662
-0.39483,0.91433,0.09004,0.29691,0.43357,-0.816
-0.34402,0.93851,0.029,0.14362,0.60917,-0.5373
-0.29179,0.95644,-0.00893,-0.3821,0.1882,0.20335
-0.24993,0.9678,-0.03009,-0.32292,-0.04519,0.12257
-0.2212,0.97357,-0.05681,0.15272,-0.53583,-0.00645
-0.20436,0.97568,-0.07922,0.31197,-0.59164,-0.05878
-0.19234,0.97607,-0.10142,0.45522,-0.54314,-0.08257
-0.1776,0.97484,-0.13472,0.41537,-0.26527,-0.00926
-0.15799,0.97209,-0.17345,0.23777,-0.03001,0.142
-0.13561,0.97112,-0.19633,-0.03408,-0.09206,0.51913
-0.10927,0.97142,-0.21074,-0.42578,-0.2225,0.22217
-0.08829,0.97163,-0.21942,-0.38846,-0.16346,0.04505
-0.07356,0.97116,-0.22681,-0.27887,-0.07891,0.14304
-0.06047,0.96966,-0.23685,-0.34244,0.14871,0.16879
-0.05104,0.96852,-0.24367,-0.50001,0.18558,0.12655
-0.04781,0.9675,-0.24833,-0.73637,0.1307,-0.0039
-0.05854,0.96467,-0.25687,-0.9612,0.25049,0.0874
-0.07989,0.96751,-0.23987,-0.27771,0.11319,0.01117
-0.12018,0.9694,-0.21404,-0.20775,0.43846,0.09786
-0.16912,0.97017,-0.17371,-0.16162,0.59677,0.38543
-0.22295,0.96594,-0.13138,-0.16289,0.89858,0.35312
-0.27045,0.95846,-0.09058,0.24573,1.12834,-0.11702
-0.2997,0.95261,-0.052,0.54665,1.02869,-0.08563
-0.32383,0.94594,-0.01846,0.6926,0.81648,0.14505
-0.35173,0.93597,0.01568,0.47524,0.47965,0.22149
-0.38345,0.92161,0.06004,0.08917,0.1769,-0.11755
-0.41943,0.90166,0.10527,0.10049,-0.10749,-0.13433
-0.45286,0.88172,0.13225,0.24444,-0.32903,-0.1599
-0.48289,0.86108,0.15924,0.32703,-0.3935,-0.31967
-0.5044,0.84099,0.19574,0.56324,-0.59468,-0.44174
-0.51546,0.82488,0.23212,0.69479,-0.92229,-0.32114
-0.51592,0.81598,0.26078,0.67583,-0.93604,-0.29125
-0.50636,0.81608,0.27858,0.64804,-0.90618,-0.28169
-0.48704,0.82691,0.28109,0.36828,-0.83141,-0.02104
-0.45921,0.84848,0.26306,0.34045,-0.85298,-0.003
-0.4311,0.87185,0.23243,0.01239,-0.58133,0.29322
-0.41141,0.88451,0.21998,-0.58356,1.38443,0.64755
-0.40683,0.87442,0.26434,-0.73191,2.86728,0.96062
-0.42306,0.85722,0.29359,-0.23115,1.39107,0.96718
-0.45807,0.8386,0.29482,0.38092,-0.34019,0.10951
-0.47873,0.83613,0.26777,0.18205,0.85816,0.1321
-0.48748,0.83673,0.24951,0.8899,2.59556,-1.11952
-0.48965,0.83662,0.24557,0.79313,-1.23053,-0.17193
-0.47807,0.84669,0.2336,0.6631,-0.7033,0.03311
-0.45332,0.86914,0.19774,0.33961,-0.42584,-0.90628
-0.40838,0.90226,0.13842,0.23905,0.41775,-0.77215
-0.35098,0.93235,0.08677,-0.08785,1.01261,0.01231
-0.2979,0.95246,0.06389,-0.42708,0.31016,0.09785
-0.25906,0.96463,0.04866,-0.28351,0.00451,-0.00984
-0.24241,0.97004,0.01605,0.0192,-0.40832,0.14334
-0.23766,0.97105,-0.02425,0.24448,-0.56992,0.09732
-0.22796,0.97203,-0.05655,0.65278,-0.61625,0.09276
-0.2089,0.97403,-0.08731,0.35048,-0.33795,-0.00535
-0.18619,0.97457,-0.12469,0.03788,0.00555,-0.00443
-0.15929,0.97384,-0.16207,0.1498,-0.03711,0.17428
-0.12919,0.97316,-0.19044,0.05206,-0.26761,0.25944
-0.09729,0.97321,-0.20829,-0.05672,-0.30595,0.32045
-0.07005,0.97346,-0.21785,-0.28893,-0.17371,0.23326
-0.05592,0.97272,-0.22515,-0.37517,-0.05763,0.191
-0.05079,0.97176,-0.23045,-0.4005,0.05049,0.07612
-0.04723,0.97059,-0.23607,-0.54529,0.06332,-0.06263
-0.05171,0.96739,-0.24795,-1.12185,0.47444,0.09892
-0.07115,0.96923,-0.23565,-0.65536,0.26765,0.06804
-0.11504,0.96879,-0.21956,-0.50204,0.61308,-0.02735
-0.17126,0.96906,-0.17772,-0.28707,0.89684,0.31576
-0.22861,0.96524,-0.12669,-0.04904,0.86785,0.48456
-0.27851,0.95754,-0.07453,0.41112,1.3155,-0.29353
-0.30836,0.95088,-0.02729,0.79001,1.25004,-0.37445
-0.33015,0.94392,0.00299,0.82615,0.68832,0.05815
-0.35712,0.93333,0.037,0.47926,0.31428,0.27632
-0.39059,0.91737,0.07661,0.12224,0.22625,0.01706
-0.43261,0.89518,0.10727,0.04006,-0.10379,-0.17633
-0.47187,0.87156,0.13311,0.18196,-0.41451,-0.34684
-0.50182,0.84779,0.17157,0.29674,-0.55312,-0.45978
-0.51861,0.82715,0.21648,0.57835,-0.92909,-0.48937
-0.52502,0.81174,0.25581,0.74972,-1.11321,-0.34197
-0.52241,0.80337,0.2858,0.6921,-0.94244,-0.37149
-0.51176,0.80216,0.30765,0.65623,-0.80933,-0.43596
-0.49532,0.80974,0.31461,0.52216,-0.75766,-0.15677
-0.47634,0.82845,0.29457,0.44947,-0.7454,0.0463
-0.46233,0.85047,0.25091,-0.04836,-0.53714,0.51095
-0.45091,0.86283,0.22849,-0.86249,1.15719,0.50825
-0.4435,0.85922,0.25504,-0.86264,2.24031,0.73347
-0.45406,0.84511,0.28218,-0.26249,1.92687,0.94883
-0.46965,0.82973,0.30162,0.07628,-0.75353,0.22153
-0.48346,0.82339,0.29713,0.17696,-1.01532,0.30811
-0.4918,0.83734,0.23872,-0.10793,0.90269,0.28327
-0.48836,0.85034,0.19601,1.68445,0.9762,-0.46096
-0.48147,0.85279,0.20232,0.60341,-0.74035,0.17201
-0.46609,0.8619,0.19972,0.42957,-0.32992,0.17897
-0.43657,0.8824,0.17544,0.3442,-0.05583,-0.96922
-0.39219,0.91115,0.12642,0.28779,0.43273,-0.73914
-0.34212,0.93695,0.07131,0.19577,0.41654,-0.55126
-0.28778,0.95751,0.01869,-0.06505,0.14583,-0.09808
-0.24148,0.97014,-0.02284,-0.40244,-0.08432,0.44382
-0.21154,0.9763,-0.0456,-0.36551,-0.28121,0.33405
-0.19658,0.97868,-0.0595,0.23627,-0.5596,-0.0949
-0.18737,0.97907,-0.07951,0.431,-0.45137,-0.12789
-0.17548,0.97788,-0.11382,0.48806,-0.29621,0.04566
-0.15573,0.97605,-0.15189,0.34157,-0.04713,0.1706
-0.13441,0.9744,-0.18021,0.04501,-0.07078,0.40259
-0.10947,0.97256,-0.20527,-0.39335,-0.1129,0.33196
-0.09132,0.97029,-0.22404,-0.49136,-0.07404,0.16598
-0.08693,0.96813,-0.23489,-0.43161,-0.16199,0.21084
-0.08566,0.96568,-0.24519,-0.34032,-0.0993,0.22696
-0.08309,0.96505,-0.24856,-0.28887,-0.01993,0.16079
-0.08189,0.96414,-0.25244,-0.82001,0.32643,-0.16417
-0.09459,0.96007,-0.26327,-0.84941,0.49087,0.12408
-0.11669,0.96309,-0.24258,-0.18174,0.15262,0.18355
-0.15973,0.96317,-0.21629,-0.24465,0.55099,0.22171
-0.21409,0.96244,-0.16693,-0.20293,0.63123,0.34711
-0.27,0.95562,-0.11784,-0.02367,0.86202,0.321
-0.31397,0.94691,-0.06914,0.41512,1.29656,-0.2837
-0.33691,0.94124,-0.02365,0.70144,1.06682,-0.25928
-0.35969,0.93303,0.00909,0.71835,0.64814,0.30923
-0.39103,0.91947,0.04085,0.23925,0.36994,0.2435
-0.43085,0.89881,0.08061,-0.02743,0.16386,-0.12517
-0.46842,0.87624,0.1131,0.15323,-0.33461,-0.21628
-0.50236,0.85345,0.13875,0.19742,-0.38728,-0.22081
-0.52949,0.83133,0.1689,0.35024,-0.45996,-0.34407
-0.54691,0.81226,0.20278,0.63061,-0.84319,-0.38088
-0.55365,0.79906,0.23448,0.6703,-0.92386,-0.34857
-0.55094,0.79327,0.25921,0.73222,-0.91506,-0.30906
-0.53928,0.79515,0.27732,0.60716,-0.92796,-0.30558
-0.51892,0.80908,0.27588,0.55688,-0.95503,-0.18065
-0.49194,0.83527,0.24558,0.41,-0.8708,0.06006
-0.46889,0.85772,0.21085,-0.55917,0.2904,0.56735
-0.45245,0.86502,0.21687,-0.68991,1.24563,0.54751
-0.45788,0.84927,0.26285,-0.71204,3.24093,1.10385
-0.47981,0.83071,0.28232,-0.18713,-0.46935,0.2587
-0.49961,0.81806,0.2849,0.1388,-1.02668,0.02057
-0.51062,0.82472,0.24311,0.02057,1.62505,0.00742
-0.51253,0.83676,0.19273,1.18401,1.30985,-0.96681
-0.51358,0.83949,0.17745,0.69754,-0.81354,0.09258
-0.50217,0.84778,0.17055,0.67856,-0.5551,0.1357
-0.47686,0.86557,0.15294,0.31335,-0.12625,-0.90894
-0.43486,0.89421,0.10622,0.31955,0.47763,-0.69931
-0.386,0.92115,0.04992,0.21112,0.6501,-0.51435
-0.336,0.94185,-0.00405,-0.07128,0.31428,-0.08914
-0.29032,0.95609,-0.04008,-0.31005,-0.0271,0.32925
-0.25798,0.96391,-0.06575,-0.15225,-0.30047,0.16862
-0.23819,0.96732,-0.08697,0.2021,-0.47344,-0.01163
-0.22394,0.9688,-0.1062,0.41444,-0.45554,-0.00455
-0.20908,0.96873,-0.1336,0.44133,-0.38098,0.00224
-0.19004,0.96724,-0.16834,0.32153,-0.10121,0.09064
-0.16817,0.96607,-0.19602,0.05641,-0.10702,0.27486
-0.14227,0.96527,-0.21914,-0.22544,-0.23109,0.3205
-0.11768,0.96361,-0.24002,-0.39371,-0.17157,0.18454
-0.10431,0.96164,-0.25371,-0.32724,-0.03989,0.27408
-0.09656,0.95866,-0.26766,-0.31178,0.0296,0.3309
-0.091,0.95675,-0.27631,-0.29283,0.1119,0.29259
-0.08502,0.95691,-0.27764,-0.7334,0.16265,-0.08642
-0.09023,0.95357,-0.28733,-0.93119,0.47517,0.13392
-0.10559,0.95567,-0.27486,-0.67743,0.39612,0.27402
-0.13813,0.95823,-0.25044,-0.10648,0.29641,0.10897
-0.18398,0.95993,-0.21138,-0.14321,0.4989,0.23505
-0.23823,0.95717,-0.16454,-0.29417,0.72134,0.35128
-0.29202,0.94901,-0.11878,0.00317,1.13435,-0.04357
-0.32855,0.9419,-0.06989,0.43864,1.24978,-0.30943
-0.34769,0.93707,-0.03187,0.67414,0.8803,-0.12069
-0.37444,0.92725,0.00149,0.54145,0.40899,0.30488
-0.41382,0.90919,0.04619,0.08164,0.15112,-0.03794
-0.45711,0.88505,0.08795,0.23918,-0.22514,-0.09959
-0.49846,0.85898,0.11698,0.25854,-0.3099,-0.19712
-0.53223,0.83265,0.15304,0.45108,-0.61174,-0.42576
-0.55309,0.81003,0.19477,0.70002,-0.89409,-0.42178
-0.56058,0.79421,0.23446,0.73224,-0.93189,-0.3387
-0.55639,0.78722,0.26593,0.7342,-0.79601,-0.2826
-0.54291,0.78932,0.28675,0.59829,-0.80014,-0.26107
-0.52419,0.80122,0.28857,0.51079,-0.80248,-0.13177
-0.50345,0.82486,0.25721,0.15606,-0.60466,0.3441
-0.48608,0.84872,0.20832,-0.48018,0.04604,0.41106
-0.46944,0.85869,0.2056,-0.85351,1.86551,0.27427
-0.46995,0.84488,0.25558,-0.98809,2.89891,0.74361
-0.4886,0.82641,0.27985,-0.17584,-0.13017,0.40294
-0.50928,0.81399,0.27938,0.31633,-0.69526,0.32718
-0.52326,0.81788,0.23931,0.25706,0.90331,0.11004
-0.52711,0.82405,0.20759,1.07462,0.54132,-0.37044
-0.52244,0.83032,0.19397,0.62344,-0.7405,0.27907
-0.50915,0.84214,0.17765,0.48768,-0.16589,0.31789
-0.47947,0.86444,0.15116,0.38224,-0.03585,-0.79833
-0.42882,0.89748,0.10314,0.36359,0.10197,-0.83552
-0.37835,0.92438,0.04863,-0.0871,0.31784,-0.18268
-0.32806,0.94465,-0.00246,-0.29865,-0.04037,0.21177
-0.28442,0.95821,-0.03053,-0.21343,-0.16039,0.11269
-0.25462,0.96571,-0.05076,0.04583,-0.36738,0.06078
-0.23725,0.96888,-0.07053,0.29142,-0.4563,-0.05074
-0.22607,0.96989,-0.09061,0.3988,-0.44082,-0.00456
-0.21196,0.96975,-0.12106,0.47218,-0.19218,0.06138
-0.19103,0.96904,-0.15642,0.19764,-0.02013,0.19716
-0.16775,0.96815,-0.18587,0.12342,-0.11505,0.19506
-0.14295,0.96671,-0.21224,-0.23409,-0.27887,0.23014
-0.11874,0.9642,-0.2371,-0.30376,-0.08488,0.14245
-0.10295,0.96165,-0.25422,-0.21709,0.04738,0.23674
-0.09107,0.95968,-0.26593,-0.15902,0.11837,0.23488
-0.08076,0.95847,-0.27354,-0.69308,0.2449,-0.05595
-0.07329,0.95863,-0.27506,-0.70055,0.24474,-0.05443
-0.07742,0.95712,-0.27916,-1.08369,0.36904,0.09654
-0.09205,0.9591,-0.2677,-0.38207,0.15583,-0.00958
-0.12381,0.96214,-0.24283,-0.22634,0.23252,0.1314
-0.174,0.964,-0.20104,-0.2055,0.49056,0.39569
-0.23301,0.96078,-0.15039,-0.23001,0.93518,0.21049
-0.28856,0.95192,-0.10287,0.16556,1.29843,-0.38932
-0.3255,0.94389,-0.05579,0.36652,1.31178,-0.45058
-0.35056,0.9363,-0.02127,0.53951,0.88424,0.25896
-0.38612,0.92237,0.01222,0.35786,0.44525,0.31776
-0.42823,0.90215,0.0524,0.15052,0.16494,-0.12233
-0.47089,0.87718,0.09391,0.25571,-0.20408,-0.12097
-0.50871,0.85169,0.12582,0.31767,-0.45484,-0.1951
-0.54209,0.82514,0.15901,0.41017,-0.58085,-0.36098
-0.56493,0.8008,0.19894,0.63402,-0.76659,-0.4452
-0.57648,0.78119,0.23961,0.76833,-0.92033,-0.36916
-0.57675,0.76935,0.2747,0.80815,-0.78341,-0.42441
-0.56599,0.76529,0.30657,0.65655,-0.69109,-0.39532
-0.5473,0.77114,0.32529,0.51615,-0.72454,-0.20888
-0.52477,0.79125,0.31393,0.38379,-0.72083,0.128
-0.50374,0.82027,0.27093,-0.17975,-0.33279,0.48002
-0.48451,0.84145,0.2392,-0.67295,0.70402,0.40077
-0.46805,0.84474,0.25949,-0.6776,2.67332,0.88079
-0.47587,0.82924,0.29311,-0.25059,1.17192,0.68069
-0.49649,0.81159,0.30791,0.02904,-0.65225,0.10096
-0.51334,0.80304,0.30269,-0.03867,-1.06074,0.1913
-0.52431,0.81649,0.24176,0.08688,0.86127,-0.30357
-0.5057,0.84326,0.18215,1.40742,1.77095,-0.79257
-0.48185,0.85317,0.19979,0.09303,-0.33353,-0.04731
-0.46947,0.86103,0.19552,0.17255,-0.17449,-0.10691
-0.45284,0.87493,0.17157,0.29618,-0.23006,-0.38556
-0.41988,0.89791,0.13211,0.40724,-0.31204,-0.78607
-0.37521,0.92304,0.08497,0.28742,0.1837,-0.60569
-0.32515,0.94481,0.04021,-0.01269,0.16579,-0.10283
-0.27271,0.96209,-0.00454,-0.25757,0.16586,0.15476
-0.23588,0.97113,-0.03565,-0.28184,-0.35992,0.27964
-0.21772,0.97477,-0.04914,-0.04292,-0.43177,0.07181
-0.21235,0.97513,-0.06351,0.29839,-0.43839,-0.0632
-0.2073,0.97408,-0.09049,0.51421,-0.44094,-0.11902
-0.19106,0.97311,-0.12863,0.54119,-0.14417,-0.02984
-0.1697,0.97221,-0.16128,0.20019,-0.04502,0.23208
-0.14678,0.97126,-0.18739,-0.36712,-0.15769,0.43979
-0.12321,0.96955,-0.21162,-0.45849,-0.09852,0.20509
-0.1122,0.96801,-0.22443,-0.36474,-0.14704,0.14719
-0.10661,0.96665,-0.23287,-0.09549,0.02354,0.13387
-0.10007,0.96538,-0.24088,-0.06116,0.24946,-0.00558
-0.09104,0.9658,-0.24279,-0.65051,0.24554,-0.20222
-0.09219,0.96229,-0.25594,-0.81355,0.46458,0.2434
-0.10517,0.96324,-0.24718,-0.50734,0.24051,0.47784
-0.13799,0.9638,-0.22812,-0.48882,0.39974,0.02497
-0.1892,0.96378,-0.18798,-0.4625,0.53097,0.40142
-0.24681,0.95916,-0.13818,-0.1536,0.80607,0.49407
-0.29849,0.9502,-0.0896,0.37297,1.22,-0.27262
-0.33087,0.94284,-0.03971,0.6818,1.14247,-0.20425
-0.34944,0.93696,-0.00143,0.77885,0.67358,0.23124
-0.37769,0.92539,0.0316,0.32423,0.32607,0.22908
-0.41246,0.90848,0.06731,0.01053,0.21514,-0.00636
-0.45431,0.88551,0.09737,-0.02128,-0.07537,-0.1239
-0.49584,0.86008,0.12001,0.12454,-0.29212,-0.23141
-0.52914,0.8351,0.15036,0.35091,-0.45659,-0.33034
-0.55266,0.81212,0.18714,0.62586,-0.70937,-0.41762
-0.56603,0.79297,0.22538,0.75129,-0.90369,-0.37324
-0.56976,0.78039,0.2576,0.78061,-0.89991,-0.33431
-0.5642,0.77512,0.28438,0.68912,-0.74156,-0.30352
-0.55117,0.7786,0.29998,0.57252,-0.71119,-0.16728
-0.53278,0.79485,0.29042,0.47253,-0.69328,-0.02414
-0.50966,0.82332,0.24977,0.00292,-0.5151,0.42611
-0.48895,0.84478,0.21741,-0.79007,0.48218,0.37967
-0.47283,0.84712,0.24251,-1.0143,2.57695,0.57759
-0.47932,0.83085,0.28274,-0.49378,1.42422,0.9794
-0.5002,0.81293,0.29825,0.12957,-0.44165,0.38186
-0.51572,0.80796,0.28499,0.42487,0.35225,0.19415
-0.51803,0.82015,0.24289,0.67262,1.96513,-0.73753
-0.51634,0.82479,0.23047,0.74042,-0.07853,-0.01952
-0.5108,0.83059,0.22183,0.60257,-0.31553,0.26491
-0.49467,0.84372,0.20841,0.57203,-0.16285,0.04725
-0.45954,0.8698,0.17966,0.40348,-0.03751,-0.77216
-0.40736,0.90356,0.13279,0.237,0.42879,-0.80302
-0.35139,0.93214,0.08743,0.06471,0.37635,-0.46084
-0.29149,0.95534,0.04868,-0.23212,0.07454,0.12345
-0.24375,0.96944,0.02763,-0.33358,-0.19706,0.14493
-0.21859,0.97578,0.00849,-0.18805,-0.36236,0.07087
-0.20904,0.97779,-0.01534,0.2395,-0.49742,-0.15246
-0.19967,0.97896,-0.042,0.5662,-0.40094,-0.02392
-0.1836,0.98006,-0.07597,0.53344,-0.28759,0.04064
-0.16048,0.98079,-0.11086,0.28185,-0.06644,0.13535
-0.13568,0.98061,-0.14141,-0.12718,-0.25026,0.37028
-0.11027,0.97936,-0.16941,-0.43394,-0.12,0.24909
-0.09166,0.97719,-0.19156,-0.44172,-0.10088,0.15199
-0.08348,0.97548,-0.20366,-0.32538,-0.03176,0.21802
-0.07925,0.97367,-0.21375,-0.11968,0.02383,0.19884
-0.07413,0.97327,-0.21736,-0.34829,0.14213,-0.1422
-0.06979,0.97296,-0.22017,-0.8375,0.60715,-0.19015
-0.07423,0.9689,-0.23604,-0.65346,0.58913,0.62884
-0.08373,0.97141,-0.22215,-0.57414,0.31248,0.13931
-0.10639,0.97481,-0.19603,-0.21009,0.05336,0.10507
-0.14869,0.97528,-0.16349,-0.36761,0.17739,0.23092
-0.20413,0.97186,-0.11754,-0.50384,0.76175,0.1823
-0.26338,0.96197,-0.07241,-0.14992,1.36294,-0.42099
-0.30221,0.95301,-0.02084,0.43489,1.0309,-0.40705
-0.32555,0.94535,0.01804,0.60315,0.75667,0.08451
-0.35646,0.93307,0.04802,0.69778,0.61246,0.25462
-0.40248,0.91195,0.07974,0.50844,0.24485,-0.16411
-0.44982,0.885,0.12018,0.34105,-0.19034,-0.16058
-0.49472,0.85587,0.1508,0.13771,-0.23749,-0.16804
-0.53503,0.82557,0.17935,0.24705,-0.55971,-0.38655
-0.55796,0.80048,0.2189,0.3675,-0.58151,-0.45179
-0.56461,0.78181,0.26456,0.50665,-0.65445,-0.47685
-0.55871,0.77106,0.30546,0.77533,-0.90042,-0.40537
-0.54408,0.76883,0.33597,0.72386,-0.89598,-0.38418
-0.52483,0.77533,0.3513,0.57699,-0.88731,-0.17855
-0.50623,0.78971,0.34654,0.38156,-0.75279,0.12577
-0.49357,0.80673,0.32492,0.10218,-0.29686,0.39807
-0.48958,0.81366,0.31348,-0.39105,0.7748,0.60094
-0.48723,0.80264,0.34407,-0.82254,1.90748,0.73003
-0.48938,0.78654,0.37664,-0.59776,0.66242,0.48395
-0.50298,0.77355,0.38552,-0.20101,-0.47951,0.1256
-0.52563,0.7657,0.3707,0.15692,-0.45515,0.39536
-0.54193,0.78094,0.31056,0.24292,2.18891,-0.61841
-0.53038,0.79487,0.29476,1.3968,0.05588,0.85405
-0.51949,0.79455,0.31435,1.18557,-0.74563,0.20594
-0.51252,0.80597,0.2962,0.45829,-0.28708,-0.28555
-0.50568,0.83506,0.21671,0.49773,-0.03682,-0.80068
-0.46879,0.87495,0.12127,0.53905,0.06701,-0.54276
-0.4152,0.90773,0.06025,-0.12045,0.46911,-0.21881
-0.36485,0.93069,0.02657,-0.14684,0.0301,0.00253
-0.30785,0.95142,0.00503,-0.09263,0.03326,0.049
-0.26194,0.96487,-0.02035,-0.29128,-0.28317,0.01538
-0.23547,0.97048,-0.05211,0.0752,-0.69396,0.03673
-0.22455,0.97123,-0.07933,0.14539,-0.61849,0.04918
-0.21921,0.96982,-0.10676,0.05996,-0.09326,0.02833
-0.21059,0.96664,-0.14583,0.24276,0.07704,0.01441
-0.19299,0.9635,-0.18552,0.33061,0.01924,0.10653
-0.16537,0.96216,-0.21655,0.30603,-0.26548,0.40768
-0.1308,0.96276,-0.23661,-0.04127,-0.07996,0.68692
-0.10275,0.96464,-0.24271,-0.34021,-0.00061,0.36943
-0.08907,0.96511,-0.24624,-0.30076,0.10919,-0.18476
-0.08037,0.96228,-0.25992,-0.52056,0.4632,-0.00978
-0.07643,0.96038,-0.268,-0.88173,0.4414,0.3802
-0.07727,0.96066,-0.26677,-0.76272,0.43766,0.29756
-0.08775,0.96248,-0.25677,-0.5405,0.41664,-0.15139
-0.12074,0.96257,-0.24264,-0.35336,0.4351,0.26159
-0.16728,0.9629,-0.21174,-0.32554,0.36777,0.30169
-0.22242,0.95986,-0.17086,-0.19875,0.79598,0.47703
-0.2768,0.95201,-0.13058,0.15653,1.16997,0.06122
-0.31738,0.94418,-0.08832,0.41958,1.28216,-0.21724
-0.34312,0.93785,-0.0519,0.6994,0.37213,0.15899
-0.36856,0.92935,-0.02154,0.51342,0.19902,0.21949
-0.40287,0.91511,0.0166,0.23877,0.1045,0.03595
-0.44498,0.89409,0.05099,0.26126,-0.10101,-0.0563
-0.4876,0.86949,0.07896,0.33893,-0.35368,-0.23491
-0.52937,0.84121,0.11012,0.37219,-0.61441,-0.398
-0.55976,0.81421,0.15403,0.57891,-0.8794,-0.46318
-0.5772,0.79119,0.20216,0.77495,-0.95152,-0.31555
-0.58237,0.77481,0.24599,0.76222,-0.8719,-0.29038
-0.57715,0.76626,0.28238,0.76752,-0.77076,-0.29764
-0.56264,0.76717,0.30804,0.61075,-0.62619,-0.17251
-0.54197,0.78053,0.31152,0.31124,-0.5088,0.1986
-0.52782,0.80029,0.28448,-0.03979,-0.38312,0.46422
-0.52291,0.81265,0.25722,-0.79956,1.37536,0.35699
-0.51349,0.81412,0.27116,-0.5039,1.99327,0.67183
-0.5124,0.80357,0.30286,-0.08451,1.2291,0.61094
-0.52018,0.79082,0.3225,0.14512,-0.28123,0.10754
-0.53757,0.78315,0.31257,-0.01027,-0.52936,0.30339
-0.55525,0.79624,0.24021,0.30106,1.07333,-0.49076
-0.54555,0.81428,0.19827,1.51472,1.15285,-0.31942
-0.52848,0.82179,0.21298,0.74529,-0.23811,0.4624
-0.50939,0.83485,0.20868,0.3696,-0.14941,0.22928
-0.48376,0.85716,0.17677,0.36395,-0.19689,-0.56987
-0.43702,0.89133,0.12062,0.43613,-0.28584,-0.85434
-0.3797,0.92283,0.06488,0.39315,0.3492,-0.71818
-0.31545,0.9488,0.01629,0.14345,0.21189,-0.39904
-0.25099,0.9676,-0.02735,-0.31429,0.1641,0.07713
-0.20762,0.9761,-0.06418,-0.45154,-0.44271,0.34589
-0.18803,0.97867,-0.08273,-0.09443,-0.55974,0.14105
-0.18626,0.97744,-0.09958,0.24774,-0.62035,0.00472
-0.18149,0.97442,-0.13252,0.52551,-0.24922,-0.08857
-0.16617,0.97056,-0.17437,0.60213,-0.06101,0.04542
-0.14135,0.96834,-0.20576,0.37999,0.10919,0.36303
-0.11078,0.96676,-0.23042,-0.3278,0.11214,0.60612
-0.08621,0.96587,-0.24425,-0.70324,-0.0665,0.30276
-0.08008,0.9666,-0.24346,-0.54073,-0.06323,0.04075
-0.08017,0.96492,-0.25,-0.30528,0.3812,-0.0808
-0.07742,0.96226,-0.26087,-0.4143,0.51363,-0.1372
-0.0823,0.95962,-0.26899,-0.80109,0.50533,0.64143
-0.09424,0.9622,-0.25553,-0.64268,0.28446,0.14956
-0.11857,0.96735,-0.22399,-0.27984,-0.08097,0.03643
-0.16416,0.96905,-0.18436,-0.15806,0.068,0.47319
-0.2241,0.96493,-0.13667,-0.24946,0.88561,0.4586
-0.28907,0.9528,-0.0928,0.1226,1.40024,-0.17499
-0.3289,0.94322,-0.04648,0.36308,1.42443,-0.39352
-0.34618,0.93815,-0.0062,0.73898,0.74021,-0.11869
-0.36807,0.92952,0.02278,0.46211,0.34613,0.37016
-0.4005,0.91448,0.05764,0.11855,0.18907,-0.10569
-0.44171,0.89136,0.10177,0.01201,-0.00916,-0.17298
-0.48388,0.86537,0.13033,0.30692,-0.29964,-0.16901
-0.52088,0.83949,0.15471,0.39861,-0.43396,-0.28908
-0.54987,0.81435,0.18565,0.57099,-0.66907,-0.38361
-0.56645,0.79424,0.21983,0.69484,-0.87549,-0.35947
-0.57011,0.78166,0.25293,0.72682,-0.88572,-0.36249
-0.5606,0.77824,0.28295,0.74896,-0.90982,-0.42064
-0.53861,0.78542,0.30497,0.59783,-0.78046,-0.10878
-0.51055,0.80447,0.30358,0.45852,-0.75646,0.0709
-0.48557,0.83012,0.27408,0.25443,-0.65835,0.30265
-0.47607,0.84467,0.24473,-0.73693,1.60791,0.35936
-0.47251,0.83789,0.27327,-0.76832,2.72798,0.73987
-0.47996,0.81697,0.31969,-0.17232,1.2994,0.84256
-0.50167,0.79775,0.33453,0.11162,-0.94058,-0.05553
-0.52631,0.79274,0.3075,0.11259,0.22827,-0.09947
-0.53154,0.8087,0.25194,0.55501,1.70703,-0.60121
-0.52706,0.81478,0.24154,0.85526,0.46315,0.25979
-0.51925,0.81942,0.24276,0.63294,-0.11658,0.06074
-0.50313,0.83425,0.22558,0.47385,-0.07009,-0.40676
-0.47451,0.86153,0.18056,0.35093,-0.19332,-0.94912
-0.42593,0.89714,0.11714,0.44897,0.11028,-0.79843
-0.36956,0.92722,0.06073,0.27033,0.22894,-0.1408
-0.31246,0.94966,0.02262,0.03658,0.00927,0.0673
-0.26656,0.96381,-0.00012,-0.23655,-0.08491,0.23644
-0.23453,0.97178,-0.02512,-0.07976,-0.31521,0.02646
-0.21633,0.97498,-0.05111,0.09797,-0.41249,-0.01831
-0.20457,0.97573,-0.07813,0.29449,-0.34484,0.058
-0.18978,0.97557,-0.11064,0.18476,-0.18996,0.08679
-0.1694,0.97401,-0.15032,0.18482,-0.1899,0.08918
-0.14778,0.97126,-0.18656,0.07771,-0.28001,0.32743
-0.12391,0.96983,-0.20994,-0.4545,-0.23152,0.5502
-0.10089,0.96875,-0.22659,-0.5525,-0.08168,0.16389
-0.09379,0.96886,-0.22917,-0.22281,0.00078,0.08172
-0.09519,0.96757,-0.23396,-0.10976,0.34568,0.01008
-0.09218,0.96604,-0.24138,-0.5363,0.55454,-0.22933
-0.09193,0.96175,-0.25803,-0.83106,0.5968,0.2555
-0.09899,0.96102,-0.25816,-0.52033,0.4516,0.57763
-0.11347,0.96595,-0.23252,-0.42681,0.46823,-0.17242
-0.1499,0.96708,-0.20563,-0.19815,0.34444,0.13636
-0.19446,0.968,-0.15858,-0.35709,0.42007,0.4882
-0.24471,0.96272,-0.11527,-0.35342,0.82836,0.17724
-0.28916,0.95473,-0.06988,0.18065,0.92649,-0.36407
-0.31541,0.94866,-0.0237,0.49686,0.80757,-0.30882
-0.34071,0.94012,0.0097,0.46851,0.46766,0.1421
-0.37245,0.92721,0.03957,0.24204,0.18151,0.09678
-0.40971,0.90854,0.08181,0.07478,0.08087,-0.19868
-0.45041,0.88416,0.12404,0.23741,-0.13468,-0.04085
-0.48934,0.85848,0.15347,0.42456,-0.39926,-0.26619
-0.52383,0.83159,0.18452,0.55856,-0.58339,-0.39226
-0.54647,0.80787,0.22071,0.7486,-0.87241,-0.41528
-0.55544,0.79049,0.25809,0.77278,-0.92101,-0.36582
-0.55386,0.78054,0.2898,0.71811,-0.84295,-0.37869
-0.5447,0.77824,0.31247,0.52697,-0.49215,-0.20246
-0.53049,0.78434,0.32154,0.51276,-0.49825,-0.21152
-0.51564,0.79895,0.30948,0.08562,-0.29309,0.30762
-0.50424,0.81541,0.28433,-0.38223,0.54285,0.58863
-0.49108,0.82488,0.28003,-0.55452,1.08722,0.43367
-0.47976,0.81827,0.31662,-0.63714,1.72027,0.63954
-0.48508,0.80588,0.33948,-0.4181,0.11795,0.20196
-0.50054,0.79631,0.33961,-0.25657,-0.64502,0.17535
-0.52553,0.7995,0.29089,-0.11141,1.36169,-0.10555
-0.5321,0.80872,0.25066,1.09274,2.288,-0.99979
-0.53012,0.81048,0.24918,0.78595,-0.65403,0.52216
-0.51987,0.8185,0.24453,0.64302,-0.37378,0.60409
-0.49575,0.83803,0.22789,0.47472,-0.24484,-0.91047
-0.44907,0.87545,0.17867,0.4439,-0.12494,-1.0687
-0.39027,0.91217,0.12498,0.38368,0.45039,-0.71246
-0.32672,0.94167,0.08069,-0.10068,0.05844,-0.01805
-0.26743,0.9623,0.04963,-0.48341,-0.10294,0.2944
-0.2282,0.97328,0.02546,-0.35554,-0.34869,0.06098
-0.21001,0.9777,-0.00052,0.1346,-0.51358,-0.05844
-0.20737,0.97798,-0.02324,0.45743,-0.44878,-0.05761
-0.20196,0.97788,-0.0544,0.52667,-0.3476,0.06173
-0.1844,0.97812,-0.09626,0.46602,-0.06144,0.18708
-0.16109,0.97852,-0.12859,0.10903,0.03768,0.34957
-0.13721,0.97906,-0.15036,-0.3828,-0.0617,0.33342
-0.11788,0.97838,-0.16992,-0.48329,-0.35167,0.08337
-0.11339,0.97705,-0.1803,-0.36583,-0.32211,0.06114
-0.11492,0.97533,-0.18848,-0.251,0.20232,-0.00314
-0.11481,0.97327,-0.19892,-0.1924,0.41145,-0.05661
-0.11187,0.97057,-0.21325,-0.74212,0.62231,-0.07384
-0.11719,0.96665,-0.22772,-0.64904,0.52188,0.59027
-0.12608,0.96836,-0.21534,-0.59681,0.40725,-0.07721
-0.15545,0.968,-0.19698,-0.43873,0.38617,-0.10823
-0.19826,0.96639,-0.16362,-0.27516,0.26172,0.2973
-0.24765,0.96142,-0.11972,-0.17394,0.5992,0.52605
-0.29952,0.9507,-0.08035,0.17576,0.99924,-0.08697
-0.33979,0.93961,-0.04083,0.58152,1.21796,-0.3304
-0.3662,0.93051,-0.00658,0.80858,1.15125,-0.20483
-0.39448,0.91864,0.02214,0.47626,0.25576,0.31761
-0.42204,0.90479,0.05676,0.26433,0.03509,-0.11182
-0.4554,0.8853,0.09409,0.08106,-0.25872,-0.12961
-0.49414,0.86083,0.1216,0.18514,-0.34192,-0.21282
-0.5283,0.83559,0.15061,0.31023,-0.54569,-0.36793
-0.55483,0.81016,0.18918,0.54824,-0.71199,-0.4313
-0.56988,0.78841,0.23158,0.75857,-0.86102,-0.37164
-0.576,0.77201,0.26874,0.75149,-0.82419,-0.32094
-0.57323,0.76328,0.298,0.75925,-0.7027,-0.26709
-0.56311,0.76378,0.31549,0.70451,-0.64971,-0.23642
-0.54679,0.77658,0.31294,0.49311,-0.49179,0.05568
-0.52426,0.80151,0.28763,0.00094,-0.35766,0.35259
-0.50791,0.82001,0.26383,-0.92275,0.55931,0.43373
-0.49482,0.82159,0.28309,-0.7688,2.44765,0.64047
-0.49358,0.80471,0.32987,-0.22757,1.62527,1.02385
-0.50728,0.78876,0.34715,0.09989,-0.64212,0.24889
-0.52143,0.7838,0.33728,0.26705,-0.77605,-0.05303
-0.53432,0.79766,0.2797,0.23631,1.22439,-0.36286
-0.52929,0.81624,0.2315,1.29076,1.50121,-0.68566
-0.51688,0.82241,0.23765,0.44055,-0.3588,0.33434
-0.50577,0.83194,0.22818,0.36098,-0.24662,0.28952
-0.48456,0.85037,0.2051,0.30545,-0.21067,-0.45355
-0.44388,0.88156,0.16067,0.38934,0.10987,-0.90216
-0.39205,0.91272,0.11499,0.35298,0.30743,-0.73616
-0.33385,0.93914,0.08092,0.1816,0.27126,-0.45585
-0.27792,0.9595,0.04603,-0.29968,0.08181,0.21607
-0.24028,0.97067,-0.00764,-0.25309,-0.49305,0.48791
-0.22486,0.97347,-0.04229,0.28064,-0.54885,0.04192
-0.22408,0.97257,-0.06235,0.57028,-0.51111,-0.16771
-0.21438,0.97175,-0.09867,0.70956,-0.23352,-0.24392
-0.19158,0.97133,-0.14072,0.35805,0.00051,0.25318
-0.16701,0.97164,-0.16736,-0.27859,-0.0474,0.54935
-0.14026,0.97133,-0.19195,-0.59283,-0.14743,0.27666
-0.12506,0.9704,-0.20658,-0.47574,-0.31459,0.08622
-0.12326,0.96938,-0.21237,-0.45588,-0.05407,0.02055
-0.12984,0.96679,-0.22012,-0.39113,0.26214,0.00532
-0.13475,0.96375,-0.23026,-0.38483,0.34797,-0.09511
-0.13794,0.96027,-0.24257,-0.67934,0.59186,0.01802
-0.14648,0.95548,-0.25611,-0.38437,0.51363,0.57403
-0.15597,0.95707,-0.24431,-0.34324,0.25623,0.18553
-0.17541,0.96117,-0.21303,-0.16018,0.0361,0.15585
-0.21444,0.96131,-0.17291,-0.09285,0.16363,0.4974
-0.26716,0.95573,-0.12328,-0.24232,0.73896,0.19214
-0.32485,0.94249,-0.07859,0.07666,1.33986,-0.20084
-0.36083,0.93191,-0.03648,0.35456,1.4061,-0.31073
-0.37845,0.92562,-0.00092,0.72977,0.75755,-0.00025
-0.40126,0.9156,0.02589,0.54408,0.39382,0.29213
-0.42854,0.90167,0.05769,-0.03552,-0.05911,-0.18949
-0.46305,0.88039,0.10242,-0.10866,-0.1884,-0.11786
-0.50393,0.85349,0.13265,0.16146,-0.38888,-0.15468
-0.53736,0.82789,0.16072,0.37222,-0.49849,-0.39682
-0.56084,0.80402,0.19751,0.63176,-0.65708,-0.45677
-0.57438,0.78339,0.23745,0.73709,-0.72229,-0.48243
-0.57853,0.76869,0.27278,0.80719,-0.71086,-0.34903
-0.57294,0.76228,0.30109,0.79468,-0.72122,-0.32645
-0.55687,0.76746,0.31764,0.73941,-0.74817,-0.28601
-0.5339,0.78717,0.30871,0.17983,-0.55039,0.33318
-0.50948,0.81632,0.2721,-0.13779,-0.33095,0.51913
-0.49219,0.83557,0.24407,-0.56851,0.09411,0.57955
-0.47905,0.83264,0.27789,-0.83793,2.70433,0.84931
-0.48539,0.81585,0.31428,-0.33849,0.88758,0.75229
-0.5072,0.80039,0.31954,0.2927,-0.32647,0.18438
-0.52629,0.80021,0.28754,0.16159,1.13705,-0.10408
-0.53653,0.80696,0.24688,0.87623,1.48575,-0.96576
-0.54085,0.81109,0.22271,0.78876,-0.84735,0.1014
-0.53274,0.82238,0.19969,0.69831,-0.47069,0.27103
-0.50866,0.84173,0.18097,0.50805,-0.13157,-0.30133
-0.46018,0.87512,0.14963,0.39627,0.02926,-0.91098
-0.40286,0.90825,0.11301,0.23001,0.39776,-0.6437
-0.34192,0.93622,0.08106,0.04331,0.17882,-0.24766
-0.28535,0.95735,0.04526,-0.32845,-0.05916,0.21875
-0.24866,0.96857,0.00615,-0.37118,-0.22444,0.30591
-0.23431,0.97181,-0.02593,0.01001,-0.4194,0.1192
-0.23034,0.97187,-0.04896,0.53923,-0.49266,0.03919
-0.22089,0.97205,-0.07954,0.57422,-0.46851,-0.0109
-0.20059,0.9724,-0.11917,0.5135,-0.17743,0.04046
-0.17614,0.97272,-0.15095,0.00894,-0.06677,0.32481
-0.15141,0.97311,-0.17355,-0.25229,-0.07439,0.41406
-0.1299,0.97269,-0.19234,-0.59745,-0.15522,0.08681
-0.12382,0.97196,-0.19991,-0.3899,-0.20862,0.03281
-0.12812,0.97045,-0.20447,-0.1664,0.02314,0.11435
-0.13057,0.96907,-0.20939,-0.18782,0.25146,-0.186
-0.12961,0.96823,-0.21385,-0.64827,0.46089,-0.30223
-0.13461,0.9626,-0.2351,-0.59643,0.61583,0.3498
-0.14318,0.96365,-0.22556,-0.50468,0.31501,0.55319
-0.15778,0.9685,-0.19266,-0.29159,0.02137,-0.00445
-0.1958,0.96891,-0.15126,-0.18942,0.13493,0.56835
-0.25085,0.96283,-0.10019,-0.29055,0.58028,0.30459
-0.3101,0.94915,-0.05423,-0.03464,1.38396,-0.33101
-0.34797,0.93742,-0.01224,0.19101,1.43962,-0.45464
-0.36987,0.92887,0.01968,0.41763,0.65533,-0.03033
-0.39768,0.91635,0.04637,0.36471,0.35187,0.25254
-0.43516,0.89739,0.0729,0.08307,0.0508,-0.07433
-0.47713,0.87184,0.11062,0.03797,-0.28763,-0.16556
-0.51499,0.84517,0.14308,0.32241,-0.40537,-0.15768
-0.5476,0.81898,0.17148,0.42947,-0.51174,-0.32243
-0.57182,0.79459,0.20406,0.56834,-0.52048,-0.38701
-0.58514,0.77439,0.24068,0.65908,-0.58279,-0.46229
-0.58709,0.76166,0.27423,0.79226,-0.67958,-0.39155
-0.5794,0.7575,0.30079,0.76841,-0.6455,-0.37433
-0.56277,0.76363,0.31648,0.6966,-0.65818,-0.34762
-0.5412,0.78213,0.30883,0.21463,-0.49234,0.24449
-0.52115,0.80702,0.27769,-0.02294,-0.30908,0.38734
-0.50665,0.82347,0.25534,-0.3205,0.06753,0.47303
-0.49371,0.81951,0.29094,-0.54875,2.30064,0.71369
-0.49458,0.80269,0.33329,-0.24326,0.98424,0.77746
-0.5165,0.78695,0.33754,0.09331,-0.68082,0.11115
-0.54457,0.78556,0.29383,-0.1202,1.47403,0.02292
-0.55497,0.79109,0.25727,1.03825,1.92202,-0.92778
-0.5547,0.79007,0.26093,0.83496,-0.8442,0.29669
-0.54439,0.79657,0.2629,0.55847,-0.25993,-0.40787
-0.52222,0.82061,0.23212,0.31702,-0.21465,-1.16729
-0.47724,0.8636,0.16258,0.21715,0.32027,-0.90494
-0.41715,0.90347,0.09855,-0.15559,0.71217,-0.27996
-0.36339,0.92975,0.05931,-0.4133,0.44713,0.0563
-0.31981,0.94652,0.04257,-0.28398,-0.16807,0.04752
-0.29105,0.9565,0.01987,-0.17015,-0.2547,0.08717
-0.27693,0.96081,-0.0124,0.14345,-0.43896,0.06138
-0.27141,0.96158,-0.04108,0.67213,-0.52292,0.02791
-0.2608,0.96282,-0.07044,0.64589,-0.43842,0.03231
-0.24258,0.96417,-0.10738,0.48892,-0.1491,0.01208
-0.21798,0.96559,-0.14188,0.21885,-0.13807,0.21123
-0.1878,0.96784,-0.16738,-0.18792,-0.16097,0.37322
-0.15607,0.9701,-0.18583,-0.32873,-0.15739,0.3267
-0.13557,0.97156,-0.19415,-0.26809,-0.11331,0.16824
-0.12532,0.97131,-0.20209,-0.20678,0.09463,0.11761
-0.11462,0.97093,-0.21014,-0.19916,0.16974,0.06428
-0.10292,0.96974,-0.22137,-1.1873,0.42311,-0.15718
-0.10475,0.96631,-0.2351,-0.91014,0.40701,0.33938
-0.12412,0.96698,-0.22258,-0.49658,0.66209,-0.17073
-0.16537,0.96453,-0.20577,-0.20756,0.43136,-0.19296
-0.21849,0.96098,-0.16966,-0.19919,0.54445,0.4647
-0.27508,0.95304,-0.12671,-0.09559,0.83919,0.42229
-0.32457,0.94251,-0.07957,0.38851,1.15816,-0.23918
-0.35628,0.93383,-0.03198,0.94027,0.76853,-0.1194
-0.37595,0.92664,0.00148,0.92587,0.55908,0.13773
-0.40364,0.91414,0.03771,0.67023,0.21852,0.24208
-0.43027,0.89906,0.08093,0.25481,0.01395,-0.19467
-0.46434,0.87757,0.11944,-0.00519,-0.14585,-0.10925
-0.50767,0.84934,0.14455,0.1301,-0.39837,-0.31413
-0.54186,0.82176,0.17633,0.42838,-0.80239,-0.32478
-0.56089,0.79929,0.2157,0.55536,-0.84193,-0.34722
-0.56844,0.78219,0.25506,0.65239,-0.84759,-0.3831
-0.5669,0.77109,0.28989,0.71276,-0.68128,-0.37088
-0.55604,0.76866,0.31618,0.72659,-0.70632,-0.3322
-0.53907,0.77923,0.31971,0.71561,-0.70556,-0.22243
-0.51689,0.80544,0.28999,0.18739,-0.5126,0.38134
-0.49382,0.83525,0.24185,-0.25343,-0.08038,0.45534
-0.48029,0.84384,0.23928,-0.74776,0.72849,0.49525
-0.48255,0.82883,0.28318,-0.94466,2.59941,0.83241
-0.50663,0.80813,0.30043,-0.41592,-0.0102,0.37909
-0.5321,0.79308,0.29646,0.67688,-0.60366,0.34687
-0.54623,0.79452,0.26527,0.54723,1.41375,0.09302
-0.54327,0.80615,0.23446,1.3909,1.67352,-0.74322
-0.53391,0.81434,0.22758,0.42498,-0.88051,-0.13353
-0.52509,0.82578,0.20583,0.52656,-0.28664,-0.1279
-0.50325,0.84534,0.17928,0.46054,-0.05551,-0.61507
-0.45943,0.87794,0.1347,0.36328,0.39164,-0.69366
-0.40946,0.90816,0.08714,0.2115,0.39545,-0.51916
-0.35234,0.93468,0.04715,0.05242,0.16169,-0.12146
-0.29885,0.95415,0.01671,-0.25592,-0.00367,0.17625
-0.26519,0.96411,-0.01269,-0.1584,-0.36917,0.01932
-0.25228,0.96683,-0.03991,0.03156,-0.51964,-0.09475
-0.24745,0.96683,-0.06323,0.53213,-0.4406,0.02859
-0.23828,0.96673,-0.09305,0.5148,-0.22611,-0.05407
-0.21967,0.96671,-0.1312,0.40906,-0.10335,-0.0016
-0.19512,0.96646,-0.16696,0.11265,-0.07859,0.34161
-0.16949,0.96659,-0.19231,-0.146,-0.12737,0.46665
-0.1457,0.96554,-0.21565,-0.49651,-0.1782,0.23834
-0.13432,0.96382,-0.23024,-0.31361,-0.0547,0.09534
-0.13037,0.96205,-0.23971,-0.2246,0.16644,0.26108
-0.12807,0.96063,-0.24654,-0.24568,0.28386,0.1695
-0.12481,0.96213,-0.24233,-0.74779,0.20889,-0.19252
-0.12866,0.96082,-0.24552,-1.01564,0.37369,0.04872
-0.1435,0.95879,-0.24522,-0.37847,0.17862,0.34521
-0.17133,0.96123,-0.21607,-0.28479,0.4317,0.10462
-0.21698,0.95938,-0.18028,-0.20983,0.43954,0.17685
-0.26999,0.95381,-0.13169,-0.18194,0.88995,0.54224
-0.32313,0.94247,-0.08565,0.23747,1.10012,-0.15516
-0.35911,0.93236,-0.04171,0.67576,1.07268,-0.26181
-0.37654,0.92639,-0.00388,0.89148,0.82037,0.15508
-0.39571,0.91793,0.02868,0.76328,0.41287,0.38159
-0.4156,0.90726,0.0644,0.26058,0.03746,-0.23771
-0.43846,0.89264,0.10466,-0.09916,-0.18618,-0.03924
-0.47461,0.87073,0.12871,5e-05,-0.34465,-0.17261
-0.50874,0.84776,0.14997,0.17312,-0.50544,-0.41636
-0.53197,0.82635,0.1848,0.49031,-0.61921,-0.46374
-0.54575,0.80662,0.22696,0.63406,-0.66884,-0.5177
-0.55121,0.79049,0.26698,0.74152,-0.75421,-0.35574
-0.54895,0.78083,0.29825,0.76983,-0.7443,-0.33996
-0.53929,0.78151,0.31371,0.68159,-0.69981,-0.16652
-0.52382,0.79608,0.30309,0.51879,-0.5698,0.04989
-0.50037,0.82295,0.26904,0.14513,-0.38171,0.36087
-0.48144,0.84296,0.24006,-0.7586,0.51245,0.58059
-0.47552,0.83882,0.26506,-1.25794,2.23875,0.60825
-0.48425,0.81959,0.3062,-0.69726,1.21735,1.02378
-0.50539,0.8031,0.3156,0.04969,-0.48662,0.2626
-0.5178,0.79971,0.30389,0.63756,-0.1177,0.14201
-0.52205,0.81252,0.25936,0.43504,1.70342,-0.40292
-0.52003,0.82142,0.23418,1.00068,0.98252,-0.4076
-0.51763,0.8254,0.2253,0.50312,-0.53243,-0.1482
-0.50701,0.8361,0.20945,0.61872,-0.24279,0.15237
-0.48155,0.85631,0.18663,0.36308,-0.24462,-0.89596
-0.43949,0.88672,0.14341,0.38001,-0.01659,-0.8334
-0.38773,0.91675,0.09602,0.32349,0.37832,-0.43906
-0.32776,0.943,0.05771,-0.12764,0.18471,-0.0314
-0.2759,0.96082,0.02629,-0.35062,0.17886,0.20621
-0.24573,0.96932,-0.00531,-0.235,-0.43343,0.04811
-0.23492,0.97156,-0.02972,0.24563,-0.51405,-0.0106
-0.23271,0.97127,-0.04974,0.49926,-0.45114,-0.04497
-0.22334,0.97133,-0.08145,0.43162,-0.22603,-0.09906
-0.20393,0.97186,-0.11785,0.34491,-0.14064,0.14669
-0.17903,0.97283,-0.14678,0.04925,-0.12656,0.32787
-0.15292,0.97345,-0.17034,-0.36994,-0.06347,0.3379
-0.13069,0.97323,-0.18903,-0.28183,-0.10045,0.15706
-0.1203,0.97302,-0.19687,-0.11534,-0.1461,0.16342
-0.11504,0.97285,-0.20082,-0.12241,0.1057,0.06976
-0.10825,0.97307,-0.20348,-0.41671,0.1789,-0.26946
-0.10618,0.97065,-0.21578,-1.0144,0.551,-0.16604
-0.11404,0.966,-0.23202,-0.56789,0.44336,0.86059
-0.1255,0.96997,-0.20834,-0.48429,0.23018,-0.2921
-0.15726,0.97025,-0.18405,-0.31031,0.31799,0.02204
-0.20631,0.96798,-0.14299,-0.24909,0.38618,0.41396
-0.26594,0.95883,-0.09956,-0.16056,0.88632,0.28512
-0.32053,0.94562,-0.05538,0.33591,1.08844,-0.21157
-0.35386,0.93522,-0.0118,0.69168,0.91152,-0.18761
-0.37481,0.92677,0.02447,0.7726,0.66975,0.06441
-0.4008,0.91429,0.0585,0.53892,0.34233,0.13292
-0.42638,0.89931,0.09712,0.1149,0.09241,-0.23249
-0.46271,0.87619,0.13485,-0.14593,-0.07633,-0.05526
-0.50527,0.84874,0.15602,0.12943,-0.30508,-0.2404
-0.53814,0.82253,0.18398,0.27604,-0.43935,-0.3905
-0.55905,0.79947,0.21976,0.61617,-0.68386,-0.41462
-0.5689,0.78133,0.25666,0.76364,-0.83902,-0.33296
-0.56889,0.77021,0.28834,0.79264,-0.80707,-0.33265
-0.56008,0.76782,0.31106,0.76493,-0.78655,-0.33175
-0.54382,0.77604,0.31938,0.55478,-0.76816,-0.17911
-0.52161,0.79786,0.30222,0.3898,-0.72583,0.08035
-0.49676,0.82642,0.26506,0.19193,-0.64486,0.21468
-0.4777,0.84473,0.24132,-0.81376,1.9489,0.49007
-0.46374,0.83798,0.28763,-0.82771,1.95565,0.44376
-0.47401,0.81901,0.32331,-0.29478,0.85004,0.76278
-0.49906,0.80376,0.32388,0.5743,-0.65072,-0.10465
-0.51714,0.80592,0.28819,0.31671,0.5572,-0.17933
-0.52143,0.82308,0.22505,1.14142,1.89929,-1.11729
-0.5123,0.82935,0.22299,0.75751,0.37865,0.86467
-0.50537,0.8353,0.21652,0.4961,-0.23944,-0.11853
-0.48566,0.85054,0.20179,0.38355,-0.15869,-0.54008
-0.4452,0.87968,0.16719,0.31137,-0.15475,-1.02696
-0.39596,0.91015,0.12181,0.2355,0.24726,-0.78673
-0.33878,0.93729,0.08191,0.04731,0.16494,-0.29433
-0.28342,0.95808,0.04176,-0.25236,0.07973,0.13054
-0.24639,0.96917,0.00165,-0.51084,-0.20557,0.44331
-0.23073,0.9726,-0.02864,-0.04237,-0.53967,0.09481
-0.22707,0.97283,-0.04524,0.41367,-0.52625,-0.00774
-0.2207,0.97274,-0.07118,0.6316,-0.40577,-0.09871
-0.20273,0.97281,-0.11198,0.55631,-0.18257,0.02596
-0.17704,0.97383,-0.14254,0.38819,-0.005,0.30182
-0.15234,0.97531,-0.15988,-0.33484,0.01537,0.59169
-0.13354,0.97576,-0.17337,-0.66899,-0.09109,0.14208
-0.12997,0.97524,-0.1789,-0.46729,-0.27328,0.00751
-0.13189,0.97398,-0.18431,-0.26165,-0.20388,0.10614
-0.13148,0.97315,-0.18892,-0.14089,-0.03673,-0.08125
-0.13,0.9726,-0.19275,-0.3886,0.03166,-0.28926
-0.13781,0.96708,-0.21393,-0.906,0.58288,-0.15036
-0.15222,0.96405,-0.21778,-0.34819,0.18994,0.69013
-0.1783,0.96547,-0.18991,-0.39888,0.11744,0.28148
-0.2238,0.96269,-0.15211,-0.39561,0.30043,0.31501
-0.28046,0.95483,-0.09813,-0.17218,0.66086,0.31345
-0.33894,0.93969,-0.04576,0.30969,1.34873,-0.38507
-0.37649,0.92642,-0.00067,0.52154,1.51842,-0.48744
-0.39364,0.91877,0.03003,0.90229,1.03367,0.22754
-0.41727,0.90689,0.0585,0.8462,0.79651,0.38683
-0.44335,0.89186,0.08955,0.23768,0.19241,-0.10942
-0.4738,0.87222,0.12145,-0.08896,-0.17153,-0.0758
-0.51198,0.84793,0.13742,0.0577,-0.37985,-0.16642
-0.54245,0.8253,0.15695,0.22483,-0.47427,-0.33192
-0.56496,0.80333,0.18835,0.56403,-0.69285,-0.37872
-0.57892,0.78421,0.22327,0.7094,-0.88743,-0.39435
-0.5836,0.77145,0.25351,0.69614,-0.89715,-0.37598
-0.57927,0.76673,0.27671,0.67056,-0.85069,-0.35604
-0.56471,0.77275,0.28975,0.57499,-0.81444,-0.27866
-0.53793,0.7935,0.28458,0.48248,-0.77507,-0.06992
-0.50099,0.82624,0.25755,0.19108,-0.53327,0.31458
-0.46829,0.85171,0.23515,-0.58886,0.66088,0.57768
-0.44859,0.8516,0.27119,-1.03873,3.05546,0.73638
-0.45311,0.83401,0.31481,-0.40194,1.33771,0.9121
-0.47555,0.81721,0.32559,0.05198,-0.65314,0.29573
-0.4933,0.81399,0.3067,0.48256,0.21376,0.26548
-0.50042,0.82621,0.25874,0.88598,2.29561,-0.6569
-0.50001,0.83287,0.23729,1.04788,0.13158,-0.37305
-0.49693,0.84113,0.21344,0.27571,-0.71343,-0.30667
-0.48284,0.8533,0.19681,0.45815,-0.19664,-0.04758
-0.44573,0.87777,0.17564,0.38118,-0.12941,-0.71414
-0.39425,0.90824,0.14022,0.24456,0.22738,-0.66749
-0.33841,0.93494,0.10658,0.03318,0.18722,-0.3585
-0.28492,0.95535,0.07827,-0.206,0.02073,-0.05247
-0.24931,0.96745,0.04346,-0.34539,-0.16482,0.15524
-0.23544,0.97188,0.00237,-0.03138,-0.44977,0.01964
-0.22995,0.97281,-0.02754,0.40921,-0.5497,0.07848
-0.2201,0.97401,-0.05348,0.55387,-0.37089,0.06012
-0.2036,0.97516,-0.08724,0.31615,-0.166,0.04313
-0.18192,0.97577,-0.12155,0.05823,-0.07436,0.21236
-0.16206,0.97604,-0.14521,-0.12851,-0.13169,0.35041
-0.14397,0.97577,-0.16473,-0.3426,-0.14301,0.36967
-0.13635,0.97476,-0.17678,-0.33664,-0.22748,0.05303
-0.13622,0.97298,-0.18641,-0.23238,-0.25478,0.15535
-0.13342,0.9715,-0.1959,-0.16134,-0.19746,0.20921
-0.12732,0.97193,-0.19783,-0.49577,0.00835,-0.15037
-0.1262,0.97168,-0.19975,-0.78703,0.2136,-0.23503
-0.13965,0.96769,-0.20994,-0.57788,0.24644,0.30573
-0.16385,0.96904,-0.18469,-0.31061,0.1954,0.41256
-0.2112,0.96654,-0.14558,-0.43825,0.57922,0.31997
-0.27015,0.95852,-0.09088,-0.14843,0.84968,0.26428
-0.32765,0.94401,-0.03854,0.33409,1.32428,-0.53859
-0.36006,0.93289,0.00856,0.54296,1.39353,-0.50008
-0.37393,0.92642,0.04378,0.78174,1.00249,0.12514
-0.40112,0.9129,0.07562,0.73962,0.73679,0.26783
-0.42957,0.89653,0.10819,0.24622,0.20172,-0.0618
-0.46279,0.87528,0.14038,-0.1219,-0.15063,-0.03889
-0.50089,0.85061,0.15991,-0.0555,-0.25573,-0.12042
-0.53061,0.82738,0.1841,0.17369,-0.4506,-0.33453
-0.55176,0.8056,0.21581,0.49371,-0.70432,-0.43691
-0.56132,0.78879,0.25046,0.67359,-0.96735,-0.4529
-0.56062,0.77911,0.2805,0.70007,-0.92418,-0.43802
-0.55086,0.7768,0.30517,0.67911,-0.86225,-0.43211
-0.53284,0.78362,0.31939,0.64992,-0.89872,-0.25871
-0.50967,0.80243,0.31038,0.50938,-0.82587,0.00336
-0.48439,0.83023,0.27583,0.06131,-0.4282,0.26599
-0.46514,0.85053,0.24544,-0.41209,0.67057,0.28931
-0.45352,0.84928,0.27024,-0.5103,2.97074,0.93011
-0.46378,0.83194,0.30459,-0.16832,1.27221,1.0268
-0.4867,0.81334,0.31875,-0.29127,-0.8818,0.17226
-0.50836,0.80728,0.29977,0.04399,0.24599,0.15327
-0.51549,0.81918,0.2514,0.55139,2.80652,-0.7453
-0.52683,0.8143,0.24365,0.90888,0.21225,-0.33916
-0.53014,0.81207,0.24392,0.80432,-0.8247,-0.03584
-0.51405,0.82315,0.24117,0.56822,-0.49552,0.03615
-0.47848,0.85448,0.20226,0.32262,-0.44103,-1.12119
-0.42701,0.89429,0.13384,0.22089,-0.18928,-1.07872
-0.36623,0.927,0.08086,0.10903,0.76851,-0.51967
-0.30928,0.94971,0.04889,-0.27139,0.35974,0.21489
-0.27096,0.96209,0.03112,-0.45634,-0.01847,0.32557
-0.24976,0.96828,0.0073,-0.14042,-0.40424,0.12619
-0.24092,0.97027,-0.02307,0.27399,-0.62722,-0.0577
-0.23318,0.97112,-0.05049,0.53971,-0.55881,-0.10416
-0.21922,0.97246,-0.07915,0.40456,-0.38457,-0.10147
-0.19947,0.97292,-0.11679,0.22714,-0.08751,-0.05581
-0.1752,0.9721,-0.15593,0.1521,-0.05455,0.20449
-0.14964,0.9719,-0.18173,-0.16121,-0.07982,0.61899
-0.12656,0.97277,-0.19418,-0.42056,-0.1751,0.32888
-0.11572,0.97382,-0.19567,-0.25516,-0.26367,0.08027
-0.11188,0.97266,-0.2035,-0.13685,0.02635,0.19828
-0.10539,0.97263,-0.20706,-0.14061,0.08718,0.10539
-0.10111,0.97222,-0.21112,-0.79613,0.12298,-0.20842
-0.11369,0.96989,-0.21538,-0.80209,0.15174,0.06352
-0.14728,0.97048,-0.19098,-0.61186,0.43669,0.31115
-0.20053,0.96841,-0.14823,-0.25396,1.02137,0.21738
-0.25896,0.96126,-0.09441,0.03938,1.01133,0.41419
-0.31212,0.94912,-0.04185,0.58049,1.26497,-0.38269
-0.34488,0.93865,0.00127,0.72406,1.22827,-0.4341
-0.36758,0.92947,0.0311,0.92239,0.60082,0.33331
-0.39124,0.91812,0.06316,0.82304,0.4845,0.47042
-0.41127,0.90607,0.09942,0.10184,0.07528,-0.15179
-0.44437,0.88637,0.12994,-0.0753,-0.12874,-0.07794
-0.48499,0.86208,0.14696,0.1856,-0.38346,-0.293
-0.5166,0.83891,0.17132,0.30397,-0.56051,-0.38645
-0.53693,0.81871,0.20352,0.53567,-0.81798,-0.42179
-0.54538,0.80394,0.23714,0.65346,-0.93309,-0.41892
-0.54402,0.79551,0.26684,0.66601,-0.84283,-0.39181
-0.53479,0.7937,0.28989,0.62351,-0.80685,-0.36538
-0.52142,0.79962,0.29787,0.57424,-0.79741,-0.16776
-0.50535,0.81588,0.28098,0.46987,-0.68679,0.14545
-0.48819,0.83766,0.24496,-0.01947,-0.31568,0.43923
-0.47359,0.85211,0.22273,-0.65623,0.94176,0.47183
-0.46754,0.8453,0.2586,-1.0188,2.88456,0.87319
-0.4816,0.82686,0.29046,-0.45961,0.74349,0.69479
-0.50313,0.8103,0.30046,0.00119,-0.92219,0.18546
-0.52152,0.80618,0.27944,0.52785,0.36954,0.13959
-0.52468,0.82173,0.22241,0.95075,2.61067,-1.11427
-0.52099,0.82714,0.21074,1.25931,0.2842,0.2696
-0.51598,0.83228,0.20267,0.54284,-0.51686,-0.089
-0.50132,0.84373,0.1918,0.43842,-0.26096,-0.38712
-0.46584,0.87248,0.14754,0.42032,-0.20563,-0.99162
-0.4135,0.9065,0.08524,0.41443,0.32314,-0.68149
-0.35468,0.93448,0.03084,0.22542,0.37485,-0.23944
-0.29704,0.95486,-0.00397,-0.20644,0.13198,0.01137
-0.25302,0.96688,-0.03338,-0.48266,0.0413,0.23047
-0.22502,0.97233,-0.06274,-0.30358,-0.39744,0.14376
-0.21235,0.97366,-0.08305,0.21227,-0.68614,-0.04986
-0.20199,0.97344,-0.10775,0.35998,-0.54536,0.01177
-0.18882,0.97161,-0.14256,0.35689,-0.37406,0.02768
-0.17071,0.96935,-0.17671,0.07302,-0.13646,0.24888
-0.15018,0.96776,-0.20221,-0.13563,-0.2169,0.37506
-0.13264,0.9657,-0.2232,-0.49921,-0.1957,0.25611
-0.12831,0.96393,-0.23317,-0.45955,-0.1229,0.08712
-0.12998,0.96122,-0.24322,-0.36378,0.02438,0.25749
-0.13087,0.95857,-0.25302,-0.19594,0.19138,0.15309
-0.12567,0.95956,-0.25189,-0.69742,0.21671,-0.07062
-0.13126,0.95747,-0.25694,-0.89371,0.40457,0.05287
-0.15312,0.95847,-0.24059,-0.36477,0.05967,0.41199
-0.19539,0.95902,-0.20517,-0.21633,0.38967,0.43045
-0.25217,0.95475,-0.15765,-0.22054,0.63535,0.29061
-0.31447,0.94321,-0.10705,0.04419,1.28152,-0.29584
-0.36406,0.92952,-0.05877,0.57289,1.27072,-0.31431
-0.38709,0.92176,-0.02264,0.72521,1.20658,-0.12111
-0.40747,0.91316,0.00978,0.87326,0.82176,0.60638
-0.43686,0.89843,0.04454,0.70944,0.54431,0.34949
-0.46551,0.88061,0.08848,0.01255,-0.09684,-0.02053
-0.50252,0.85713,0.11312,0.12206,-0.27557,-0.19215
-0.53677,0.83316,0.1331,0.22488,-0.3885,-0.38641
-0.5631,0.80886,0.16929,0.54065,-0.66198,-0.4374
-0.57991,0.78824,0.20588,0.74111,-1.02277,-0.31935
-0.58597,0.77588,0.23377,0.72299,-1.10121,-0.2609
-0.58232,0.77202,0.25474,0.6933,-1.07632,-0.31768
-0.56869,0.77965,0.26215,0.69262,-1.05363,-0.21993
-0.54083,0.80416,0.24663,0.60333,-0.9817,-0.07806
-0.50359,0.83608,0.21763,0.01515,-0.36289,0.27315
-0.48251,0.84801,0.21922,-1.21306,1.4443,0.7625
-0.47988,0.83533,0.26822,-1.13201,3.0874,0.92701
-0.49342,0.81972,0.29084,-0.26723,0.30383,0.69634
-0.51465,0.80632,0.29152,0.84441,-0.65411,0.4012
-0.5286,0.81063,0.25193,0.71608,1.51658,-0.09054
-0.5189,0.82091,0.23841,1.58549,2.29322,-0.26766
-0.51147,0.82427,0.24284,0.12377,-0.97103,-0.39306
-0.50473,0.83519,0.21842,0.39007,-0.22421,-0.27313
-0.48213,0.85822,0.1761,0.30645,-0.18685,-0.95911
-0.43815,0.8924,0.10793,0.37278,0.11365,-0.76918
-0.3846,0.92196,0.04549,0.07882,0.30082,-0.29566
-0.32889,0.94433,0.00838,-0.11865,0.23611,0.03865
-0.28443,0.95853,-0.01792,-0.37716,0.06134,0.04506
-0.25993,0.96419,-0.0526,-0.00835,-0.499,0.11578
-0.25427,0.9637,-0.08136,0.30853,-0.6352,0.09545
-0.25226,0.96184,-0.10596,0.54326,-0.65541,0.13795
-0.2426,0.96045,-0.13668,0.5352,-0.24124,0.02968
-0.2227,0.95959,-0.17202,0.37863,-0.16543,-0.02251
-0.20193,0.95838,-0.20182,0.29089,-0.10082,0.04501
-0.18102,0.95706,-0.22641,-0.45193,-0.17162,0.27556
-0.16803,0.95606,-0.24023,-0.44846,-0.10607,0.16643
-0.16116,0.9551,-0.2486,-0.35364,-0.10072,0.15662
-0.15358,0.9541,-0.25712,-0.05948,0.05858,0.15295
-0.14138,0.95557,-0.25864,-0.58339,0.00049,-0.15301
-0.13341,0.95539,-0.2635,-1.21578,0.36733,-0.02082
-0.14479,0.95054,-0.27479,-0.8134,0.13221,0.15237
-0.17973,0.94955,-0.25701,-0.33065,0.30834,0.59876
-0.23868,0.94604,-0.21919,-0.31117,0.79105,0.44351
-0.30402,0.9373,-0.17039,0.07143,1.33379,0.37274
-0.3611,0.92472,-0.12045,0.354,1.69961,-0.02973
-0.38989,0.91781,-0.07494,0.95271,1.31242,-0.14654
-0.40187,0.91479,-0.04062,1.07959,1.01677,0.54132
-0.42355,0.90583,-0.00834,0.99408,0.90465,0.6099
-0.44697,0.89416,0.02623,0.191,0.097,-0.21422
-0.4803,0.87512,0.05897,-0.12952,-0.15927,-0.14101
-0.52338,0.84885,0.07435,0.01231,-0.39777,-0.29271
-0.56067,0.82195,0.10024,0.23218,-0.64582,-0.34598
-0.58109,0.80154,0.14092,0.62638,-1.01892,-0.40905
-0.58791,0.78825,0.18171,0.74091,-1.13056,-0.34456
-0.58561,0.78178,0.21418,0.69865,-0.99925,-0.41972
-0.57632,0.78259,0.23536,0.71316,-0.97434,-0.41529
-0.55736,0.79426,0.24186,0.65702,-0.93547,-0.17541
-0.52885,0.81747,0.22816,0.46812,-0.76274,0.07199
-0.50399,0.8413,0.19548,-0.10856,-0.14405,0.61766
-0.49712,0.84663,0.18994,-0.90061,1.53029,0.79254
-0.50894,0.83017,0.22758,-0.71268,3.01047,0.68763
-0.53574,0.8069,0.24878,-0.05269,0.53906,0.73279
-0.55796,0.79087,0.25141,1.08225,-0.62276,0.55721
-0.56481,0.79252,0.23,0.59545,1.14664,0.54404
-0.55855,0.80575,0.19696,1.05112,1.79432,-0.63893
-0.55455,0.81451,0.17041,0.47764,-0.43631,0.04914
-0.54337,0.82875,0.13388,0.51034,-0.2257,-0.17024
-0.51701,0.85042,0.09736,0.42223,0.05357,-0.4304
-0.46916,0.88173,0.04937,0.28645,0.05812,-0.61432
-0.41094,0.91165,-0.00518,0.19745,0.16628,-0.42444
-0.3501,0.93532,-0.05107,-0.02703,0.0791,-0.06581
-0.29783,0.95057,-0.0878,-0.20643,0.07523,0.12923
-0.26472,0.95615,-0.12528,-0.23639,-0.18962,0.12314
-0.2487,0.95466,-0.16362,0.0598,-0.64393,0.06565
-0.23879,0.9509,-0.19689,0.34501,-0.58386,0.27885
-0.22967,0.94608,-0.22844,0.35165,-0.39517,0.19971
-0.21843,0.93992,-0.26237,0.11302,-0.09667,0.17077
-0.20569,0.93389,-0.29248,0.03371,-0.22385,0.24018
-0.19436,0.92899,-0.31496,-0.26487,-0.39427,0.28518
-0.18717,0.92384,-0.3339,-0.47421,0.10566,0.1963
-0.18444,0.91967,-0.34669,-0.48619,0.29748,0.17846
-0.18241,0.9146,-0.36088,-0.00727,0.29852,0.38888
-0.17944,0.91268,-0.36716,-0.25229,0.00161,0.09852
-0.17501,0.91624,-0.36039,-0.49134,0.15762,0.02811
-0.18389,0.91403,-0.36157,-0.61607,0.29901,-0.02048
-0.20743,0.90988,-0.35929,-0.08705,0.42975,0.6263
-0.24902,0.90679,-0.34017,-0.27739,0.59219,0.844
-0.29628,0.9088,-0.29375,-0.41264,0.78843,0.67025
-0.34048,0.90651,-0.24963,-0.03151,1.23429,0.08337
-0.37506,0.90488,-0.20127,0.42806,1.25468,-0.23374
-0.38575,0.91015,-0.15105,0.70982,1.14658,0.18726
-0.39802,0.91075,-0.11002,0.74452,0.78622,0.59456
-0.42903,0.90127,-0.0604,0.15129,0.10607,-0.00892
-0.46555,0.88501,0.00249,0.35436,-0.18984,-0.03873
-0.50407,0.8632,0.02815,0.2255,-0.32716,-0.179
-0.54691,0.83606,0.04347,0.29625,-0.37817,-0.36049
-0.58391,0.80737,0.08489,0.54363,-0.8655,-0.36825
-0.60205,0.78668,0.13667,0.65159,-1.1643,-0.21674
-0.60281,0.77731,0.18001,0.65804,-1.09988,-0.2925
-0.59077,0.77933,0.20888,0.60903,-0.99208,-0.35974
-0.56639,0.7939,0.22115,0.5524,-1.0022,0.03468
-0.53274,0.8209,0.20569,0.37844,-0.98103,0.17593
-0.49889,0.84874,0.17536,-0.50395,0.14141,0.852
-0.47266,0.86308,0.17797,-0.68532,2.13143,1.01343
-0.4724,0.85473,0.21509,-0.3833,3.15186,1.33012
-0.49852,0.83453,0.23458,0.21693,-0.59254,0.01533
-0.52323,0.81721,0.24166,0.51299,-1.1011,-0.02996
-0.53324,0.81931,0.21065,0.66107,1.65174,-0.09679
-0.52281,0.83425,0.17515,0.90802,0.88274,0.34018
-0.51283,0.84162,0.16932,0.3073,-0.23095,0.13353
-0.50272,0.85278,0.14153,0.42046,-0.1636,-0.23888
-0.47841,0.87235,0.10065,0.16582,-0.02339,-0.7814
-0.43845,0.89756,0.04635,0.14437,0.12686,-0.62725
-0.38748,0.92177,-0.01432,-0.00645,0.21224,-0.11302
-0.3353,0.94013,-0.06105,-0.15321,0.08581,0.26047
-0.29207,0.95271,-0.0838,-0.22323,-0.0074,0.26389
-0.26374,0.95845,-0.10865,-0.03405,-0.26434,0.15023
-0.24933,0.95828,-0.13972,0.27248,-0.59136,0.08635
-0.23729,0.95714,-0.16606,0.42607,-0.50372,0.1407
-0.2197,0.95656,-0.19162,0.38236,-0.45313,0.07486
-0.1999,0.95462,-0.22077,0.07685,-0.0375,0.02494
-0.17896,0.95054,-0.25384,0.00747,-0.10324,0.16137
-0.15711,0.94449,-0.28852,-0.1431,-0.12412,0.33064
-0.13696,0.93923,-0.31477,-0.25116,-0.10111,0.40298
-0.11737,0.93901,-0.32324,-0.22319,-0.07356,0.39866
-0.10166,0.93978,-0.32629,-0.19315,0.12461,0.32022
-0.09023,0.94102,-0.32609,-0.44719,0.12885,0.07352
-0.08217,0.94298,-0.32254,-1.17981,0.30383,0.01416
-0.08996,0.93901,-0.3319,-0.99423,0.23321,0.16529
-0.10956,0.94044,-0.32183,-0.56004,0.13221,0.27094
-0.14597,0.94594,-0.28964,-0.33151,0.6895,0.50092
-0.19533,0.95088,-0.24015,-0.26109,0.76154,0.56698
-0.24949,0.94944,-0.19056,-0.16605,0.94742,0.43279
-0.29936,0.94389,-0.1395,0.35249,1.26417,-0.24942
-0.32531,0.9408,-0.09519,0.56185,0.97648,-0.00265
-0.34213,0.93752,-0.06329,0.40739,0.4647,0.40583
-0.36945,0.92873,-0.03115,-0.1326,0.06174,-0.00162
-0.4069,0.91334,0.01544,-0.17371,-0.06527,-0.02127
-0.449,0.89201,0.05204,0.21007,-0.40892,-0.17975
-0.48563,0.87087,0.07573,0.30817,-0.42585,-0.28438
-0.51718,0.84876,0.11008,0.43472,-0.54287,-0.29849
-0.53826,0.82966,0.1481,0.66658,-0.91798,-0.26193
-0.54807,0.81624,0.18264,0.71932,-0.91227,-0.22162
-0.54859,0.80944,0.20942,0.69608,-0.87332,-0.28153
-0.53878,0.81105,0.22783,0.55966,-0.9348,-0.1747
-0.5186,0.82464,0.22586,0.3707,-0.85774,0.00937
-0.4911,0.84879,0.19587,0.13223,-0.67452,0.20213
-0.46858,0.8682,0.16327,-0.73779,0.87097,0.50914
-0.45334,0.87331,0.17831,-0.65041,2.70078,1.25263
-0.4628,0.8607,0.21214,-0.26187,2.0475,1.31374
-0.48702,0.84603,0.21688,0.17826,-0.82284,0.13694
-0.50711,0.83591,0.20995,0.49614,-0.66964,0.31948
-0.51705,0.83999,0.16452,0.59316,2.11779,-0.68554
-0.51255,0.84865,0.13066,0.93395,-0.032,0.37371
-0.50535,0.85318,0.1292,0.42135,-0.33162,-0.01832
-0.493,0.86233,0.11546,0.42258,-0.15083,-0.40105
-0.45954,0.88415,0.08421,0.33215,-0.23437,-0.93156
-0.40283,0.91472,0.0319,0.28761,0.40212,-0.74023
-0.34372,0.93877,-0.0236,0.09224,0.41909,-0.24895
-0.2842,0.95605,-0.07205,-0.11433,0.25594,0.09875
-0.23694,0.96521,-0.1106,-0.38081,-0.08642,0.43031
-0.20921,0.96789,-0.13936,-0.23568,-0.39417,0.39629
-0.19744,0.96783,-0.15592,0.41227,-0.63875,0.11857
-0.18873,0.96689,-0.17176,0.46044,-0.4839,0.02021
-0.1742,0.96423,-0.19978,0.3658,-0.38608,-0.06843
-0.15215,0.95874,-0.24016,0.14656,-0.0754,0.05997
-0.13296,0.95223,-0.2749,-0.19598,-0.17443,0.49873
-0.11332,0.94711,-0.30022,-0.55536,-0.23634,0.44334
-0.09823,0.9436,-0.31618,-0.48328,-0.0671,0.18533
-0.09226,0.94217,-0.32219,-0.23701,-0.05119,0.28442
-0.08731,0.94038,-0.32874,-0.15654,0.19497,0.28146
-0.08022,0.93881,-0.33495,-0.35342,0.32639,0.10857
-0.07426,0.93774,-0.33931,-0.9737,0.36045,0.15956
-0.08245,0.93339,-0.34926,-0.80474,0.26835,0.21777
-0.10653,0.93674,-0.33343,-0.51165,0.16931,0.19843
-0.15115,0.94078,-0.30346,-0.47476,0.71361,0.42567
-0.2055,0.9449,-0.25482,-0.32986,0.8838,0.68585
-0.25639,0.94475,-0.20424,-0.12325,0.96919,0.5611
-0.29591,0.94256,-0.15497,0.50068,1.16694,-0.21913
-0.31466,0.94294,-0.10883,0.72482,0.88872,0.07325
-0.33311,0.94012,-0.07211,0.36728,0.2202,0.33114
-0.36026,0.9322,-0.03496,0.16977,0.09878,-0.01718
-0.39492,0.91866,0.00968,-0.17685,-0.01826,0.03181
-0.43934,0.89755,0.03723,0.08785,-0.37356,-0.09815
-0.48075,0.87508,0.05587,0.25708,-0.46242,-0.22754
-0.51519,0.85264,0.08701,0.45709,-0.55336,-0.307
-0.53812,0.83341,0.12591,0.65654,-0.91204,-0.25313
-0.54788,0.82094,0.16087,0.66893,-0.95725,-0.23972
-0.54611,0.81643,0.18759,0.67509,-0.9443,-0.25765
-0.53373,0.82095,0.2029,0.53462,-0.91183,-0.08852
-0.51076,0.83633,0.19915,0.49412,-0.89044,0.01293
-0.4806,0.85866,0.17809,-0.2764,-0.26256,0.43231
-0.45586,0.87531,0.16131,-0.66951,1.33847,0.70886
-0.44221,0.8767,0.18932,-0.65291,2.70884,1.16972
-0.45369,0.86175,0.22703,-0.01962,1.68506,1.26746
-0.47933,0.84461,0.23847,0.31929,-1.07787,0.18962
-0.49984,0.83807,0.21863,-0.01467,1.33176,-0.04913
-0.50626,0.84723,0.16092,0.55254,2.0466,-0.75076
-0.50311,0.851,0.15056,0.51988,-0.60988,0.13395
-0.49375,0.85774,0.1431,0.5281,-0.16737,0.23838
-0.46836,0.87409,0.12881,0.28402,-0.17341,-0.82379
-0.41986,0.90398,0.08079,0.2821,0.06666,-0.93027
-0.36181,0.93204,0.01995,0.11483,0.41751,-0.56133
-0.302,0.9526,-0.03662,-0.17006,0.15439,0.02237
-0.24325,0.96661,-0.08054,-0.44798,0.02204,0.37369
-0.20167,0.97315,-0.1109,-0.28385,-0.31321,0.12285
-0.18335,0.97406,-0.13261,0.21847,-0.69594,0.04337
-0.17572,0.97203,-0.15577,0.52497,-0.583,0.03936
-0.16639,0.96822,-0.18671,0.44375,-0.16814,0.11346
-0.14998,0.96236,-0.22664,0.44139,-0.03899,0.13358
-0.12959,0.95718,-0.25886,0.36485,-0.05353,0.29213
-0.10383,0.95514,-0.27735,-0.52923,-0.1487,0.23034
-0.07798,0.95456,-0.28763,-0.51569,-0.18182,0.09333
-0.06329,0.95503,-0.28967,-0.43018,-0.21327,0.10617
-0.05497,0.953,-0.29791,-0.38166,0.19995,0.20797
-0.04483,0.94911,-0.31172,-0.39424,0.22664,0.1425
-0.03511,0.94573,-0.32303,-0.63225,0.2277,0.0622
-0.03909,0.93981,-0.33946,-0.68936,0.23977,0.36279
-0.0611,0.94128,-0.33205,-0.57168,0.29709,0.31904
-0.10324,0.94501,-0.31032,-0.50597,0.34305,-0.00641
-0.1613,0.94698,-0.27786,-0.26454,0.94099,0.82162
-0.21574,0.94904,-0.22974,-0.04142,1.07811,0.57132
-0.26412,0.94787,-0.17829,0.47263,1.19775,-0.25311
-0.29088,0.94825,-0.12728,0.85423,1.02944,-0.06518
-0.30392,0.94925,-0.08087,0.92625,0.67607,0.3202
-0.32898,0.94354,-0.03859,0.23998,0.02896,0.03151
-0.35481,0.93492,0.00409,0.01756,0.03705,-0.06735
-0.39059,0.91974,0.03882,-0.21593,-0.09377,-0.00943
-0.43601,0.89816,0.05647,0.0075,-0.48061,-0.25184
-0.47663,0.87524,0.08229,0.35686,-0.74273,-0.29054
-0.50328,0.85578,0.11976,0.52238,-0.87827,-0.35871
-0.51744,0.84115,0.1572,0.67486,-0.99377,-0.23172
-0.52036,0.8333,0.18659,0.66915,-0.95808,-0.24422
-0.51346,0.83296,0.20624,0.60962,-0.95519,-0.23296
-0.49755,0.84176,0.20946,0.45875,-0.952,0.00624
-0.47267,0.86062,0.18947,0.3474,-0.86692,0.15834
-0.44899,0.87877,0.16174,-0.46445,-0.12183,0.56219
-0.43208,0.88649,0.16564,-0.80112,3.0029,1.12565
-0.44012,0.87319,0.20935,-0.49013,2.73562,1.21745
-0.46608,0.8555,0.22557,-0.01862,-0.77675,0.31952
-0.48743,0.8419,0.23154,0.37558,0.13422,0.47569
-0.50224,0.84085,0.20178,0.2946,2.1821,-0.71765
-0.50304,0.84977,0.15757,1.11986,-0.0184,-0.18753
-0.49735,0.85576,0.14251,0.73192,-0.45313,0.28017
-0.48011,0.86651,0.13654,0.52596,-0.01909,-0.25783
-0.44272,0.88952,0.1129,0.30901,-0.11729,-0.9607
-0.38574,0.92073,0.0588,0.18513,0.25295,-0.84383
-0.32839,0.94452,-0.00496,-0.03907,0.27619,-0.41577
-0.26433,0.96234,-0.06339,-0.13278,0.18684,-0.08348
-0.20775,0.97227,-0.10737,-0.49071,-0.02093,0.47151
-0.17613,0.97519,-0.1341,-0.11833,-0.59834,0.27091
-0.16375,0.97425,-0.15499,0.17726,-0.67426,0.11202
-0.15631,0.97172,-0.17697,0.55531,-0.51329,0.08766
-0.14238,0.96694,-0.21155,0.43838,-0.19684,0.04378
-0.12067,0.96076,-0.24975,0.33054,-0.17096,0.093
-0.09874,0.95558,-0.2777,-0.1517,-0.15138,0.55497
-0.07279,0.95094,-0.30068,-0.63228,-0.16111,0.36463
-0.05288,0.9481,-0.31353,-0.60191,-0.12068,0.10422
-0.05049,0.9467,-0.31813,-0.4828,-0.03578,0.21071
-0.05516,0.94375,-0.32601,-0.37099,0.19794,0.28289
-0.0574,0.94062,-0.33456,-0.39695,0.26879,0.12809
-0.05875,0.93928,-0.33809,-0.93793,0.34707,0.09596
-0.07137,0.93562,-0.34572,-0.52182,0.11054,0.24454
-0.09489,0.94119,-0.32428,-0.42669,0.25164,0.42157
-0.13999,0.94756,-0.28728,-0.36918,0.42242,0.44747
-0.19822,0.95245,-0.2314,-0.27826,1.15557,0.30781
-0.26022,0.94883,-0.17887,0.05337,1.29622,-0.24202
-0.30178,0.9448,-0.12753,0.46819,1.1186,-0.30454
-0.31482,0.9453,-0.08539,0.61732,0.96838,0.05368
-0.33313,0.94157,-0.0496,0.5742,0.69751,0.63491
-0.36386,0.93133,-0.01483,-0.14702,0.19657,-0.02387
-0.40366,0.91455,0.02534,-0.18237,-0.02429,-0.00512
-0.44611,0.89351,0.05121,0.09252,-0.3921,-0.06033
-0.48097,0.87334,0.07703,0.38105,-0.53658,-0.29881
-0.50991,0.85305,0.11087,0.67298,-0.86968,-0.36609
-0.52908,0.8357,0.14719,0.74999,-1.00366,-0.39093
-0.53718,0.82387,0.18073,0.71217,-0.98015,-0.33371
-0.53448,0.8188,0.20951,0.67071,-0.9831,-0.38481
-0.51913,0.82327,0.22963,0.61176,-1.00279,-0.14471
-0.49271,0.84042,0.22564,0.41384,-0.82498,0.11701
-0.45823,0.86677,0.19677,-0.33365,-0.06137,0.58367
-0.43403,0.88201,0.18348,-1.09591,2.26289,0.86608
-0.43336,0.87263,0.22519,-0.56719,2.48267,1.2951
-0.45614,0.85365,0.25142,-0.05512,-0.3607,0.276
-0.48514,0.83732,0.25205,0.76157,-0.72632,0.2546
-0.50219,0.83337,0.23085,0.16008,1.88464,0.05482
-0.50535,0.84265,0.18589,0.57791,2.61452,-0.69407
-0.50528,0.84324,0.18336,0.45919,-1.15657,-0.24429
-0.49766,0.85265,0.15906,0.74821,-0.38542,0.00447
-0.47386,0.87129,0.12767,0.51566,-0.18716,-0.82128
-0.42474,0.90168,0.08105,0.40243,0.16754,-0.86203
-0.35969,0.93255,0.0309,0.14348,0.49671,-0.44942
-0.29045,0.95674,-0.01651,-0.23131,0.14828,0.09369
-0.22036,0.97409,-0.05088,-0.5759,0.09996,0.40419
-0.1731,0.98204,-0.07504,-0.47236,-0.32772,0.18903
-0.15631,0.98211,-0.105,0.04286,-0.71805,-0.0342
-0.15497,0.97872,-0.13449,0.42772,-0.68975,0.04399
-0.14819,0.9743,-0.16962,0.51582,-0.46551,0.07222
-0.13313,0.96838,-0.21097,0.24189,-0.11697,0.13331
-0.11463,0.96148,-0.24981,0.07455,-0.0256,0.4261
-0.09379,0.95537,-0.28011,-0.32867,-0.10178,0.52576
-0.07295,0.95187,-0.29767,-0.48379,-0.13843,0.2322
-0.06247,0.95005,-0.30577,-0.29731,-0.03025,0.19139
-0.05955,0.9479,-0.31295,-0.08825,0.06756,0.31641
-0.05395,0.94623,-0.31896,-0.10066,0.24507,0.23194
-0.04532,0.94688,-0.31838,-0.792,0.15312,-0.12349
-0.0477,0.94331,-0.32845,-1.29806,0.41757,0.07783
-0.06493,0.94137,-0.33106,-0.55865,0.12069,0.36379
-0.0996,0.94742,-0.30407,-0.44646,0.4428,0.28034
-0.15142,0.95311,-0.26202,-0.38594,0.42253,0.29985
-0.20942,0.95521,-0.2091,-0.24258,0.95448,0.50838
-0.26891,0.94983,-0.15969,0.23319,1.36666,-0.25851
-0.30096,0.94676,-0.11431,0.70996,1.18181,0.09487
-0.31136,0.94705,-0.0784,0.79032,1.06052,0.35155
-0.33407,0.94148,-0.04483,0.52264,0.39882,0.4284
-0.36319,0.93167,-0.00894,-0.10094,-0.18816,0.01897
-0.4005,0.91592,0.02592,0.00671,-0.46674,-0.0356
-0.4416,0.89645,0.03685,0.15856,-0.54953,-0.15442
-0.47977,0.87617,0.04625,0.3395,-0.61892,-0.20772
-0.51305,0.85543,0.07078,0.60928,-0.85672,-0.21766
-0.53527,0.8386,0.10115,0.63753,-0.98206,-0.16305
-0.54356,0.82917,0.13044,0.60866,-0.98566,-0.20403
-0.53824,0.82811,0.15658,0.57886,-0.96076,-0.22967
-0.51812,0.83799,0.17126,0.47751,-0.93523,-0.04133
-0.48331,0.85936,0.16704,0.13585,-0.60039,0.27657
-0.44805,0.8806,0.15426,-0.67662,0.62749,0.82722
-0.42798,0.88826,0.1668,-0.84975,3.01941,1.17722
-0.43699,0.87329,0.21539,-0.3448,0.92836,1.03888
-0.46482,0.85462,0.23144,0.05501,-1.26758,0.05526
-0.48525,0.84339,0.23069,0.05441,1.26457,0.38879
-0.4935,0.84775,0.19434,0.73413,2.9346,-0.99613
-0.50076,0.84695,0.17865,0.66373,-0.99912,0.03354
-0.50121,0.84946,0.16491,0.89536,-0.53943,0.50982
-0.4805,0.86227,0.16002,0.40781,-0.2983,-0.99109
-0.43706,0.89107,0.12233,0.31307,-0.10353,-0.92628
-0.37545,0.92512,0.05634,0.14926,0.58295,-0.67353
-0.30891,0.95104,-0.0097,-0.25672,0.51795,-0.03421
-0.24614,0.96767,-0.05508,-0.52086,0.17069,0.25989
-0.20631,0.97538,-0.07783,-0.28315,-0.29202,0.25816
-0.18843,0.97694,-0.1004,-0.03827,-0.46029,0.22551
-0.18353,0.97544,-0.12178,0.61455,-0.61172,0.05188
-0.17403,0.97336,-0.14926,0.68414,-0.5271,0.12387
-0.15532,0.97005,-0.18672,0.40668,-0.10755,0.13174
-0.13112,0.96531,-0.22578,0.27244,-0.10492,0.26087
-0.10308,0.96062,-0.25803,0.10196,-0.22849,0.34311
-0.07176,0.95678,-0.28182,-0.42264,-0.20171,0.34011
-0.04619,0.9544,-0.29493,-0.47578,-0.14709,0.18526
-0.03112,0.95342,-0.30002,-0.47239,-0.10061,0.19298
-0.02413,0.95081,-0.30883,-0.45668,0.32754,0.28782
-0.01629,0.95,-0.31181,-1.19817,0.17911,-0.01363
-0.01569,0.94804,-0.31775,-1.30428,0.27246,0.13507
-0.02857,0.94683,-0.32045,-0.53869,0.21331,0.27301
-0.05477,0.95276,-0.29874,-0.38142,0.24553,0.01496
-0.10332,0.95701,-0.27101,-0.3211,0.47243,0.20303
-0.16085,0.962,-0.22064,-0.41695,1.05303,0.69287
-0.22306,0.95961,-0.17145,-0.00623,1.2531,-0.12228
-0.26859,0.95497,-0.12608,0.43018,1.32595,-0.265
-0.29288,0.95192,-0.08981,0.6503,1.06949,0.01258
-0.32212,0.9449,-0.05839,0.51673,0.41285,0.58149
-0.3525,0.93544,-0.02649,0.17264,0.03882,0.07673
-0.39223,0.91978,0.01282,-0.0548,-0.32874,0.00224
-0.43825,0.89784,0.04277,0.19597,-0.42689,-0.0937
-0.47489,0.87738,0.06851,0.35521,-0.51075,-0.25429
-0.50418,0.85719,0.10495,0.62906,-0.85027,-0.35211
-0.52511,0.83885,0.14349,0.70211,-0.94148,-0.35931
-0.53534,0.82574,0.17767,0.65521,-0.90156,-0.27174
-0.53512,0.81921,0.20625,0.64143,-0.919,-0.26968
-0.52496,0.82145,0.22279,0.60907,-0.9461,-0.20183
-0.50496,0.83618,0.21404,0.42106,-0.82191,0.16953
-0.47557,0.86087,0.1809,-0.35053,-0.08138,0.49829
-0.45097,0.8772,0.16474,-1.02915,1.94375,0.61152
-0.44732,0.86958,0.20914,-1.21391,3.02935,0.9779
-0.46574,0.85003,0.24602,-0.07866,-0.15632,0.57351
-0.49011,0.83395,0.25362,0.681,-1.05553,0.45631
-0.50688,0.8266,0.24453,-0.09932,1.64796,0.51334
-0.5117,0.83454,0.20425,0.98437,2.23352,-1.29104
-0.51553,0.83592,0.18831,0.82358,-0.71992,0.15735
-0.51367,0.83804,0.18393,0.81777,-0.302,0.33078
-0.49492,0.8528,0.1667,0.33961,-0.12397,-0.94226
-0.45493,0.88402,0.10746,0.31616,-0.02114,-0.82391
-0.39508,0.91814,0.03034,0.10783,0.61391,-0.48763
-0.33569,0.94129,-0.0359,-0.25204,0.31128,-0.03524
-0.2821,0.95645,-0.075,-0.33673,-0.02424,0.15107
-0.24105,0.9649,-0.10416,-0.24747,-0.23496,0.20713
-0.2154,0.96772,-0.13085,0.11571,-0.57735,0.06423
-0.20157,0.96801,-0.14941,0.40425,-0.58062,0.15629
-0.18992,0.96661,-0.17202,0.48974,-0.38829,0.14738
-0.17271,0.96389,-0.20269,0.35134,-0.19193,0.1303
-0.14786,0.95975,-0.23877,0.3714,-0.20519,0.17077
-0.11793,0.95572,-0.2696,-0.1546,-0.22945,0.47213
-0.08699,0.95272,-0.29114,-0.58719,-0.25597,0.45199
-0.06357,0.95121,-0.30193,-0.45777,-0.26018,0.1431
-0.05787,0.95077,-0.30445,-0.40673,-0.08889,0.17948
-0.06123,0.94906,-0.30908,-0.33864,0.0882,0.10974
-0.05781,0.94586,-0.31939,-1.06141,0.65889,-0.03284
-0.06106,0.93634,-0.34575,-1.05146,0.69387,0.40129
-0.07376,0.93798,-0.33874,-0.72136,0.46047,0.99544
-0.1066,0.94325,-0.31452,-0.41989,0.36446,0.12529
-0.15884,0.94804,-0.27568,-0.41965,0.5387,0.39502
-0.21807,0.95048,-0.22144,-0.40013,0.84875,0.68856
-0.27485,0.94654,-0.16889,0.3253,1.3955,-0.27436
-0.3084,0.94385,-0.11845,0.72854,1.11207,-0.14365
-0.32194,0.94379,-0.07495,0.81303,0.63324,0.53615
-0.34587,0.93759,-0.03607,0.26481,0.1872,0.15968
-0.37772,0.92592,-0.0008,-0.02715,0.17435,0.00599
-0.42037,0.90668,0.03493,-0.15174,-0.2807,-0.06238
-0.46585,0.88292,0.05854,0.05681,-0.56144,-0.22673
-0.50234,0.85998,0.08987,0.1941,-0.59466,-0.29076
-0.52748,0.83941,0.13096,0.67818,-0.98661,-0.3525
-0.54179,0.82292,0.17106,0.75833,-1.04982,-0.35943
-0.54692,0.81251,0.20177,0.75865,-0.94372,-0.33296
-0.54288,0.80888,0.22582,0.77335,-1.00274,-0.25196
-0.52874,0.81526,0.23621,0.71624,-1.01077,-0.14216
-0.50369,0.83615,0.21712,0.49234,-0.91571,0.12814
-0.47524,0.86124,0.18007,-0.76965,0.55963,0.6866
-0.45761,0.87085,0.17948,-1.05951,2.93686,0.90707
-0.45972,0.85925,0.22438,-0.70074,2.86731,1.18479
-0.48389,0.84152,0.24018,0.04936,-0.62343,0.27955
-0.5077,0.828,0.23801,0.62886,-0.00928,0.29225
-0.52167,0.82791,0.20596,0.40966,2.02019,-0.30453
-0.5197,0.83924,0.15998,0.87233,0.78198,-0.09824
-0.51586,0.84257,0.15484,0.44495,-0.86915,-0.202
-0.50291,0.85305,0.13922,0.52231,-0.21755,0.00066
-0.47269,0.87263,0.12283,0.41856,-0.12095,-0.89615
-0.42081,0.9035,0.08129,0.30985,0.25596,-0.81952
-0.36592,0.9303,0.02545,0.0294,0.40312,-0.40322
-0.30644,0.95146,-0.02852,-0.15424,0.07632,0.02835
-0.25132,0.96543,-0.06911,-0.39324,-0.03724,0.36804
-0.21602,0.97083,-0.10399,-0.23234,-0.40766,0.26661
-0.20049,0.97065,-0.13285,0.3055,-0.59423,0.07659
-0.19259,0.96914,-0.1539,0.59737,-0.36074,0.06742
-0.18112,0.96698,-0.1793,0.52052,-0.18251,0.08427
-0.16286,0.96379,-0.21114,0.40695,-0.08985,0.12384
-0.138,0.96033,-0.24231,-0.18194,-0.26654,0.42423
-0.11264,0.9573,-0.26625,-0.2073,-0.26351,0.44816
-0.0908,0.95428,-0.28477,-0.54506,-0.11328,0.21064
-0.08204,0.9516,-0.29619,-0.45861,0.01428,0.22149
-0.08256,0.94887,-0.30466,-0.39875,0.08083,0.22846
-0.08134,0.94668,-0.31173,-0.3556,0.15906,0.22497
-0.07407,0.94635,-0.31452,-1.07068,0.58433,0.09672
-0.0757,0.94115,-0.3294,-1.00471,0.59451,0.24208
-0.08829,0.94284,-0.32134,-0.67711,0.35973,0.57311
-0.11569,0.94965,-0.29117,-0.31982,0.22798,0.42127
-0.15793,0.95564,-0.24863,-0.31714,0.37438,0.39355
-0.20971,0.95758,-0.19762,-0.27175,0.91203,0.27361
-0.26542,0.95237,-0.15011,0.11306,1.24042,-0.36365
-0.30317,0.9473,-0.10349,0.46726,1.07173,-0.17529
-0.32108,0.94453,-0.06907,0.57553,0.82972,0.12549
-0.34731,0.93698,-0.03806,0.43126,0.44876,0.29368
-0.38429,0.92321,0.00235,-0.06835,0.08045,0.05515
-0.43132,0.90117,0.04309,0.13929,-0.42116,-0.06033
-0.47159,0.87892,0.07142,0.1874,-0.52134,-0.31382
-0.50493,0.85635,0.10815,0.2972,-0.60059,-0.37655
-0.52601,0.83687,0.15155,0.76737,-0.94246,-0.38173
-0.53572,0.82219,0.19238,0.83532,-0.93588,-0.3313
-0.53573,0.81427,0.22352,0.76627,-0.78006,-0.25651
-0.52682,0.81449,0.24303,0.65028,-0.82314,-0.12703
-0.51187,0.82405,0.24275,0.52858,-0.82475,0.01099
-0.49248,0.84364,0.21385,-0.04011,-0.51137,0.42321
-0.47242,0.86514,0.16836,-0.70264,0.60163,0.58974
-0.45546,0.8745,0.16676,-0.97717,2.72276,0.91339
-0.45562,0.8618,0.22298,-0.72728,2.46933,1.12004
-0.47841,0.84362,0.24379,-0.09459,-0.81563,0.16375
-0.50454,0.82944,0.23973,0.27336,0.05429,0.20325
-0.52628,0.82926,0.18803,0.57013,2.20023,-0.96375
-0.52707,0.83893,0.1356,1.28269,0.47526,0.45919
-0.52157,0.84221,0.13654,0.61062,-0.50414,0.20788
-0.50858,0.85105,0.13062,0.45847,-0.16163,-0.34044
-0.47768,0.87199,0.10702,0.41061,-0.18342,-0.93267
-0.42438,0.90371,0.05665,0.35986,0.29679,-0.75103
-0.36321,0.93169,0.00494,0.04961,0.35096,-0.31741
-0.30057,0.95296,-0.03898,-0.32877,0.1056,0.10417
-0.24657,0.96668,-0.06878,-0.52851,-0.03931,0.26208
-0.21307,0.97209,-0.09823,-0.47649,-0.23068,0.24187
-0.20065,0.97174,-0.12437,0.26057,-0.6175,0.06998
-0.1973,0.96959,-0.1448,0.53189,-0.55336,0.0837
-0.18941,0.96659,-0.1727,0.55513,-0.49624,0.05936
-0.1752,0.96215,-0.20875,0.33397,-0.06605,0.11384
-0.15483,0.9572,-0.24452,-0.02026,-0.0782,0.55235
-0.12845,0.95387,-0.27134,-0.32573,-0.06514,0.55456
-0.10169,0.95232,-0.28765,-0.54592,-0.09789,0.2188
-0.08698,0.9521,-0.29315,-0.42076,-0.08574,0.22938
-0.08289,0.95081,-0.29847,-0.32556,0.06982,0.24018
-0.07795,0.9505,-0.30077,-0.28684,0.12486,0.16752
-0.07415,0.94912,-0.30605,-1.09297,0.512,0.06338
-0.08301,0.94132,-0.32715,-0.72398,0.37265,0.35434
-0.09884,0.944,-0.31479,-0.31365,0.25789,0.6785
-0.12924,0.94872,-0.2885,-0.2324,0.29915,0.48027
-0.17156,0.95483,-0.24261,-0.28221,0.35521,0.53294
-0.22287,0.95598,-0.19085,-0.29325,0.5469,0.55376
-0.27872,0.95038,-0.13818,0.12622,1.26654,-0.28786
-0.31309,0.94507,-0.09388,0.41121,1.2372,-0.18885
-0.3334,0.94055,-0.06481,0.48553,0.65106,0.45453
-0.36337,0.93097,-0.03548,0.2928,0.39931,0.2366
-0.40303,0.91518,0.00351,-0.14042,-0.01389,0.0428
-0.44661,0.89382,0.04011,0.18343,-0.52171,-0.1502
-0.48298,0.87285,0.06974,0.27061,-0.53343,-0.29307
-0.5129,0.85171,0.10731,0.43854,-0.62257,-0.35686
-0.53363,0.83251,0.14885,0.83466,-0.97221,-0.37395
-0.54387,0.81832,0.18589,0.83666,-0.79184,-0.27456
-0.5444,0.81117,0.21361,0.7842,-0.74114,-0.27954
-0.53534,0.81264,0.23028,0.60279,-0.82576,-0.13606
-0.52015,0.82343,0.22672,0.35601,-0.76047,0.15884
-0.5017,0.84285,0.1947,-0.05961,-0.46256,0.46825
-0.4846,0.86147,0.15175,-0.55751,0.66728,0.68661
-0.46819,0.86962,0.1567,-1.00031,2.8786,1.20438
-0.47365,0.85672,0.20416,-0.78446,2.45148,1.23943
-0.4956,0.83867,0.22586,-0.03857,-0.97299,0.01531
-0.5119,0.82889,0.22562,0.40802,-0.02348,0.11168
-0.52158,0.83417,0.17919,0.57135,2.13366,-0.66912
-0.51462,0.84872,0.12178,1.34269,1.19887,-0.03183
-0.50939,0.8522,0.11945,0.51207,-0.52031,0.0178
-0.49945,0.85929,0.11029,0.41753,-0.24195,0.04226
-0.47113,0.87734,0.0911,0.40337,-0.2414,-0.7803
-0.41965,0.90671,0.042,0.3669,0.0735,-0.78564
-0.35605,0.93436,-0.01393,0.20176,0.33967,-0.39382
-0.29307,0.95414,-0.06101,-0.17104,0.17904,-0.02398
-0.24018,0.9654,-0.10154,-0.53589,-0.03199,0.44689
-0.20299,0.96867,-0.14305,-0.3215,-0.51817,0.34015
-0.18526,0.967,-0.17488,0.27381,-0.73113,0.13324
-0.17953,0.9644,-0.19417,0.48689,-0.57619,0.018
-0.16994,0.96009,-0.22213,0.51212,-0.34734,0.06475
-0.15169,0.9527,-0.26336,0.38465,0.04311,0.227
-0.12948,0.94856,-0.2889,-0.32615,-0.10751,0.70122
-0.10384,0.94744,-0.3026,-0.73855,-0.17375,0.25382
-0.09293,0.9469,-0.30781,-0.54748,-0.10165,0.08778
-0.09567,0.94524,-0.31205,-0.30462,0.06526,0.32194
-0.10108,0.94141,-0.32175,-0.05575,0.22462,0.19211
-0.0977,0.94156,-0.32237,-0.35614,0.1282,-0.06794
-0.09628,0.93791,-0.33324,-0.97451,0.46825,0.01995
-0.11093,0.93432,-0.33874,-0.53862,0.25546,0.28631
-0.14835,0.93593,-0.31941,-0.39168,0.5409,0.3244
-0.20277,0.9373,-0.28346,-0.34885,0.86185,0.61495
-0.25775,0.93654,-0.23762,-0.17209,0.95162,0.6319
-0.30572,0.93329,-0.18843,0.31512,1.20741,-0.10308
-0.33678,0.9309,-0.14143,0.6973,1.08267,-0.13339
-0.34831,0.93138,-0.10591,0.79032,0.69919,0.2112
-0.36721,0.92726,-0.07306,0.23382,0.11052,0.06409
-0.39182,0.91951,-0.03136,0.00841,0.0474,-0.09884
-0.42567,0.90483,0.0095,-0.15197,-0.13455,-0.07129
-0.46584,0.88439,0.02929,0.17792,-0.56862,-0.28723
-0.50165,0.86331,0.05517,0.51486,-0.75264,-0.26926
-0.52833,0.84396,0.0927,0.63599,-0.85803,-0.32903
-0.54401,0.82888,0.13042,0.67206,-0.9416,-0.25911
-0.54939,0.81954,0.16285,0.71635,-0.92303,-0.30353
-0.54529,0.81744,0.18558,0.73026,-0.96764,-0.18686
-0.53099,0.82674,0.18585,0.67815,-0.81557,0.03933
-0.50553,0.84774,0.16055,0.31684,-0.50746,0.38564
-0.47567,0.86982,0.13097,-0.88059,0.84875,0.87653
-0.46572,0.87316,0.14388,-1.52325,3.1651,0.98874
-0.48065,0.85523,0.19379,-0.94808,2.49587,1.25767
-0.51233,0.83342,0.20721,0.27512,-1.04287,0.31774
-0.53191,0.82288,0.19985,0.67271,0.32183,0.19596
-0.53263,0.83019,0.16462,0.76575,2.42076,-0.52494
-0.51702,0.84387,0.14344,1.19815,2.00591,-0.37218
-0.50834,0.84905,0.14391,0.41791,-0.61121,-0.2801
-0.49634,0.85891,0.12616,0.49674,-0.27108,-0.33801
-0.46734,0.87918,0.09299,0.43554,-0.15936,-0.80652
-0.41599,0.90832,0.04361,0.32981,0.27985,-0.64011
-0.35529,0.93475,-0.00401,-0.02913,0.23069,-0.14803
-0.28988,0.95603,-0.04446,-0.23221,0.18852,0.02869
-0.23311,0.96913,-0.08023,-0.44815,0.16798,0.29546
-0.20032,0.97254,-0.11845,-0.25112,-0.51461,0.21412
-0.19152,0.96987,-0.15057,0.08254,-0.66137,0.10211
-0.18644,0.96635,-0.17722,0.64368,-0.47409,0.07073
-0.1736,0.96221,-0.20979,0.50771,-0.20434,0.1821
-0.15039,0.95737,-0.24662,0.36563,-0.0998,0.17898
-0.12759,0.9542,-0.27058,-0.21218,-0.14636,0.55148
-0.1024,0.95146,-0.29024,-0.60565,-0.17186,0.31475
-0.08604,0.94916,-0.30279,-0.53228,-0.0951,0.09863
-0.08437,0.94728,-0.30909,-0.38676,0.06129,0.27339
-0.08506,0.94367,-0.31978,-0.25929,0.1989,0.2568
-0.08328,0.94262,-0.32331,-0.22385,0.19514,0.20002
-0.08196,0.94212,-0.3251,-0.99374,0.4339,-0.00455
-0.09241,0.93681,-0.3374,-0.62539,0.38954,0.34671
-0.11059,0.943,-0.31389,-0.35689,0.18089,0.34749
-0.14831,0.94902,-0.27816,-0.34235,0.36679,0.4674
-0.19765,0.9544,-0.22372,-0.33714,0.59937,0.51213
-0.25489,0.95171,-0.1711,-0.09222,1.11615,-0.28508
-0.30001,0.94658,-0.11822,0.28663,1.20729,-0.29027
-0.32357,0.94299,-0.07792,0.45014,0.99068,-0.03361
-0.3466,0.9369,-0.04567,0.51081,0.70388,0.40442
-0.38174,0.9242,-0.01172,0.22887,0.35327,0.11669
-0.42306,0.90565,0.02869,-0.09623,-0.09352,0.06979
-0.46394,0.88407,0.05638,0.16717,-0.38109,-0.04131
-0.49689,0.86371,0.08427,0.22782,-0.46793,-0.24402
-0.52403,0.84322,0.11988,0.50194,-0.63777,-0.36387
-0.54194,0.8255,0.15762,0.75782,-0.96346,-0.41655
-0.54959,0.81329,0.19109,0.78025,-0.98141,-0.33416
-0.54731,0.808,0.21814,0.70898,-0.90407,-0.34459
-0.53433,0.81169,0.2359,0.69279,-0.95942,-0.23654
-0.51445,0.82608,0.23006,0.34781,-0.70312,0.25397
-0.49271,0.84757,0.19712,-0.34442,-0.06626,0.62671
-0.4745,0.86396,0.1686,-0.67461,0.66886,0.73951
-0.46259,0.86425,0.19765,-0.5822,2.53087,1.18153
-0.47314,0.85015,0.23104,-0.20425,-0.13474,0.32528
-0.49496,0.83596,0.23701,-0.09497,-0.83685,0.1829
-0.50921,0.83098,0.224,0.12568,0.68402,0.30838
-0.51427,0.84251,0.16032,0.90404,2.66924,-1.2099
-0.50518,0.85358,0.12722,1.40417,2.02757,-0.74697
-0.50179,0.85604,0.1241,0.41413,-0.5642,0.16511
-0.49085,0.86383,0.11345,0.42241,-0.25755,-0.25526
-0.45884,0.88368,0.09259,0.4024,-0.24729,-0.71181
-0.40602,0.91282,0.04365,0.29716,0.22214,-0.77177
-0.34575,0.9383,-0.00697,0.06653,0.24859,-0.40015
-0.28363,0.95758,-0.05086,-0.20484,0.13394,0.03749
-0.23015,0.9684,-0.0961,-0.57405,-0.04516,0.5328
-0.19839,0.97103,-0.13323,-0.19724,-0.57669,0.37833
-0.18876,0.96973,-0.15489,0.34785,-0.56128,0.12422
-0.18703,0.96735,-0.17106,0.53058,-0.38843,0.06301
-0.17832,0.9636,-0.19919,0.50563,-0.24894,0.05982
-0.16023,0.95872,-0.23492,0.19067,-0.1198,0.2131
-0.14109,0.95463,-0.26226,-0.23783,-0.15476,0.43966
-0.12203,0.95071,-0.28504,-0.57234,-0.05795,0.32981
-0.11108,0.94792,-0.29852,-0.53524,-0.04718,0.2166
-0.10951,0.94594,-0.3053,-0.18736,-0.13231,0.28151
-0.10806,0.94365,-0.3128,-0.13549,0.17174,0.24776
-0.10236,0.94293,-0.31687,-0.50003,0.25537,-0.02989
-0.1029,0.94151,-0.3209,-1.05235,0.42322,-0.01742
-0.11808,0.93638,-0.33052,-0.63775,0.21243,0.32106
-0.14178,0.94089,-0.3076,-0.28093,0.04614,0.4055
-0.18242,0.94585,-0.26848,-0.29314,0.30254,0.45758
-0.23391,0.948,-0.21582,-0.27231,0.79973,0.51071
-0.29264,0.94167,-0.16616,-0.17115,1.10296,0.08075
-0.33421,0.93451,-0.12246,0.41041,1.40734,-0.1984
-0.35125,0.93193,-0.09015,0.59422,1.04241,0.21801
-0.37404,0.92528,-0.06283,0.58354,0.66864,0.46306
-0.40873,0.91201,-0.03424,0.10999,0.23283,0.10961
-0.45121,0.89241,0.00134,-0.14261,-0.20456,0.02449
-0.49131,0.87059,0.0261,0.17855,-0.44405,-0.05196
-0.52514,0.84954,0.05008,0.34118,-0.48353,-0.15201
-0.55514,0.82789,0.08013,0.52593,-0.67776,-0.28838
-0.57699,0.80908,0.11167,0.72079,-0.9259,-0.27058
-0.58691,0.79781,0.13798,0.72491,-1.00118,-0.19365
-0.58564,0.79443,0.16093,0.68098,-0.99129,-0.2821
-0.574,0.79943,0.17732,0.55103,-0.90738,-0.28654
-0.54974,0.81684,0.1748,0.4169,-0.71595,0.05465
-0.51346,0.84472,0.15098,0.20283,-0.53704,0.26157
-0.48048,0.86573,0.14017,-0.71301,0.69233,0.61649
-0.47143,0.86184,0.18702,-0.698,2.6173,1.48843
-0.49105,0.84194,0.22364,-0.25909,1.13292,1.16088
-0.51572,0.82686,0.22432,0.20128,-1.15975,0.21371
-0.52682,0.82761,0.19367,0.29846,1.51012,-0.06161
-0.51932,0.84361,0.13649,0.8747,2.55657,-0.51262
-0.51272,0.8495,0.12437,0.19354,-0.80206,0.19538
-0.50993,0.85468,0.09741,0.49941,-0.39638,-0.10278
-0.49654,0.86536,0.06784,0.51897,-0.26355,-0.16638
-0.45858,0.88778,0.03934,0.48876,-0.18957,-0.6776
-0.39958,0.91669,0.00447,0.23427,0.28311,-0.64376
-0.33595,0.9414,-0.03018,-0.07236,0.27732,-0.20164
-0.2728,0.95967,-0.06785,-0.41424,0.13736,0.10353
-0.22164,0.96882,-0.11076,-0.5541,-0.21859,0.32088
-0.19444,0.96982,-0.14709,-0.04863,-0.60721,0.20938
-0.18812,0.9683,-0.16435,0.39369,-0.53652,0.22163
-0.18255,0.9662,-0.18203,0.51371,-0.37065,0.06153
-0.16844,0.96211,-0.2144,0.37609,-0.10708,0.05583
-0.14755,0.95682,-0.25043,0.21274,-0.07087,0.22813
-0.12644,0.95285,-0.27585,-0.22915,-0.12457,0.43242
-0.10497,0.94912,-0.29691,-0.57066,-0.0225,0.28999
-0.09181,0.94702,-0.30776,-0.51313,-0.0502,0.18203
-0.08493,0.94594,-0.31302,-0.18,-0.05951,0.3635
-0.07614,0.94478,-0.31873,-0.29415,0.22489,0.24786
-0.06895,0.9452,-0.31913,-0.80243,0.12853,-0.13154
-0.07376,0.9418,-0.32799,-0.99668,0.24868,-0.10282
-0.08954,0.9413,-0.32548,-0.38042,-0.02577,0.23179
-0.11561,0.94805,-0.29636,-0.26201,0.08262,0.34476
-0.16141,0.95195,-0.26024,-0.22504,0.25192,0.37708
-0.21975,0.95219,-0.21222,-0.25412,1.17211,-0.07138
-0.28164,0.94534,-0.16433,0.03741,1.37381,-0.22373
-0.3214,0.93924,-0.12057,0.43029,1.33912,-0.11697
-0.34109,0.93601,-0.08683,0.57993,1.0219,0.19483
-0.36958,0.92746,-0.05689,0.54961,0.55077,0.49291
-0.40343,0.91456,-0.02852,0.16487,0.09944,0.02072
-0.4423,0.89685,0.00443,-0.0808,-0.21736,0.06258
-0.48204,0.87579,0.02513,0.14041,-0.37153,-0.06569
-0.51876,0.85374,0.04491,0.23346,-0.4029,-0.18307
-0.55187,0.83053,0.07521,0.48851,-0.63743,-0.3233
-0.57457,0.81145,0.10684,0.6956,-1.00795,-0.1998
-0.58473,0.80034,0.13245,0.83465,-1.02732,-0.26178
-0.58458,0.79745,0.14943,0.84657,-1.04459,-0.32352
-0.57189,0.80496,0.15806,0.78449,-0.99731,-0.25081
-0.5445,0.82481,0.15234,0.50976,-0.7011,0.19723
-0.5063,0.85261,0.12925,-0.33798,0.17563,0.51511
-0.48001,0.86908,0.11947,-0.98549,1.24408,0.71027
-0.48364,0.85582,0.18345,-0.63717,2.14883,1.50907
-0.51183,0.83368,0.20736,-0.30843,-0.89333,0.39634
-0.53656,0.81991,0.19959,0.3349,-1.23486,0.23003
-0.54453,0.82356,0.15885,0.57971,1.97804,-0.49181
-0.53008,0.84109,0.10762,1.29771,2.38619,-1.19831
-0.51908,0.84794,0.10745,0.20585,-0.59806,0.0869
-0.51377,0.85203,0.10046,0.36853,-0.30143,0.3425
-0.49493,0.86467,0.08596,0.42493,-0.1304,-0.70437
-0.45232,0.89077,0.0438,0.43252,0.07979,-0.64815
-0.39528,0.91851,-0.00924,0.24744,0.29043,-0.50978
-0.33635,0.94026,-0.05277,-0.03307,0.32586,-0.14247
-0.28282,0.95428,-0.09677,-0.44272,0.15606,0.29949
-0.24082,0.95929,-0.14755,-0.43074,-0.31447,0.45348
-0.21783,0.95891,-0.18174,0.12825,-0.60999,0.25322
-0.20963,0.95645,-0.20312,0.43174,-0.53445,0.14843
-0.19851,0.95318,-0.22812,0.45256,-0.29166,0.09137
-0.18206,0.94812,-0.26061,0.48105,-0.12743,0.05117
-0.15675,0.94457,-0.28846,0.42689,-0.10073,0.26623
-0.1249,0.94385,-0.30585,-0.43859,-0.26956,0.44334
-0.09786,0.94422,-0.31443,-0.42219,-0.28177,0.21353
-0.08054,0.94343,-0.32164,-0.39149,-0.18919,0.20892
-0.07133,0.93997,-0.33372,-0.4538,0.21405,0.25867
-0.06291,0.9387,-0.33893,-0.74594,0.2327,0.01151
-0.06155,0.93532,-0.34842,-1.03907,0.35706,-0.06914
-0.07315,0.93279,-0.35292,-0.54664,0.24495,0.41913
-0.09718,0.93825,-0.33203,-0.47869,0.10861,0.25213
-0.14312,0.94255,-0.30184,-0.33379,0.39343,0.39643
-0.20145,0.94595,-0.25417,-0.25988,0.89638,0.55852
-0.26166,0.94334,-0.20404,0.18613,1.29219,-0.05928
-0.30584,0.93919,-0.15613,0.60497,1.28885,-0.20298
-0.32368,0.93924,-0.11424,0.81641,1.0525,0.17961
-0.34249,0.93645,-0.07591,0.70541,0.7377,0.57652
-0.36989,0.92811,-0.04221,0.23487,0.29576,0.07622
-0.40209,0.91556,-0.0085,-0.21595,0.09364,0.07857
-0.44816,0.89381,0.01569,-0.15603,-0.24683,-0.10794
-0.4888,0.8714,0.04163,0.07468,-0.46068,-0.23752
-0.52157,0.84977,0.07651,0.47171,-0.63103,-0.27642
-0.54489,0.83083,0.11322,0.73782,-0.91533,-0.31242
-0.55734,0.81721,0.14675,0.73749,-0.98975,-0.25728
-0.5594,0.81064,0.173,0.72372,-1.03488,-0.35632
-0.55101,0.81275,0.18929,0.68498,-1.06369,-0.25574
-0.53174,0.82651,0.18474,0.62593,-0.93511,0.03651
-0.50143,0.85141,0.15385,-0.0609,-0.29319,0.4437
-0.4783,0.86849,0.13018,-0.74428,0.38452,0.67836
-0.4722,0.86555,0.16686,-1.16728,2.99662,1.0241
-0.4903,0.84676,0.2064,-0.14588,0.14238,0.63272
-0.52008,0.82748,0.21163,0.71939,-1.07119,0.2096
-0.53583,0.82204,0.19272,0.19063,1.42546,-0.01468
-0.53314,0.8347,0.13792,1.14524,2.28642,-0.60808
-0.52914,0.83847,0.13024,0.50827,-0.86594,0.19769
-0.52455,0.84309,0.11852,0.63452,-0.32014,0.40941
-0.50606,0.85649,0.10163,0.46358,-0.20089,-0.68419
-0.46233,0.88448,0.06273,0.37859,-0.02415,-0.83754
-0.40056,0.9162,0.01131,0.26188,0.27563,-0.71752
-0.3376,0.94054,-0.03757,-0.16207,0.30066,-0.12408
-0.27742,0.95729,-0.08141,-0.4409,0.10878,0.33768
-0.23414,0.96497,-0.11837,-0.46499,-0.2762,0.37194
-0.21589,0.96483,-0.14996,0.09715,-0.59719,0.1516
-0.2117,0.96191,-0.17297,0.52558,-0.53687,0.15856
-0.20391,0.95899,-0.19688,0.62453,-0.37389,0.11518
-0.18666,0.95545,-0.22861,0.41928,-0.06903,0.08283
-0.16357,0.95127,-0.26139,0.07288,-0.16607,0.30203
-0.13838,0.94731,-0.28887,-0.16727,-0.20139,0.37861
-0.11319,0.94378,-0.31057,-0.39619,-0.16353,0.40924
-0.09516,0.94208,-0.32161,-0.34466,-0.10468,0.28744
-0.08562,0.94151,-0.32593,-0.3542,-0.10411,0.29176
-0.08062,0.94067,-0.32961,-0.37493,0.10908,0.09334
-0.07563,0.94038,-0.3316,-0.96026,0.36548,-0.17052
-0.07965,0.93366,-0.34917,-0.95786,0.51319,0.26339
-0.09283,0.93491,-0.34253,-0.43284,0.18748,0.597
-0.119,0.94136,-0.31571,-0.44986,0.27641,0.28573
-0.16349,0.94741,-0.27509,-0.38523,0.42718,0.48626
-0.21758,0.95047,-0.22196,-0.29495,0.81552,0.40168
-0.27765,0.94553,-0.16995,0.16109,1.26102,-0.29149
-0.31881,0.93973,-0.12353,0.50017,1.28302,-0.21766
-0.33654,0.93705,-0.09319,0.65944,1.02926,0.18343
-0.36241,0.92968,-0.06589,0.61467,0.58032,0.4978
-0.39598,0.91751,-0.037,0.08365,0.11122,0.01313
-0.4372,0.89933,-0.00732,-0.07373,-0.23579,0.06039
-0.4758,0.87947,0.01219,0.16572,-0.44069,-0.08624
-0.51013,0.85923,0.03858,0.25916,-0.57728,-0.22739
-0.53931,0.839,0.07229,0.68544,-0.88149,-0.27637
-0.55869,0.8225,0.10653,0.7658,-0.9789,-0.23537
-0.56684,0.81276,0.13453,0.74912,-0.89817,-0.2243
-0.56529,0.80983,0.15688,0.69728,-0.97765,-0.22294
-0.55289,0.81606,0.16837,0.58716,-0.8703,-0.05428
-0.5289,0.83431,0.15555,0.34312,-0.68509,0.24692
-0.49604,0.85935,0.12431,-0.47933,0.22607,0.54639
-0.46931,0.87562,0.11417,-1.05679,2.58632,0.91126
-0.47303,0.86503,0.16721,-1.11837,3.28106,1.14762
-0.49965,0.84396,0.19512,-0.12201,-0.58279,0.40109
-0.5213,0.83033,0.19698,0.60705,-1.04299,0.31486
-0.52974,0.83108,0.16933,0.27248,1.2569,-0.16519
-0.51645,0.8496,0.10699,1.30273,2.54136,-0.99202
-0.49933,0.85994,0.10566,0.41991,-0.34012,0.40098
-0.49537,0.86223,0.10568,0.53007,-0.53187,0.27686
-0.48082,0.87195,0.09228,0.43769,-0.30723,-0.53094
-0.44285,0.89485,0.05585,0.42967,-0.09596,-0.88226
-0.38532,0.92278,0.00125,0.21671,0.29029,-0.56061
-0.32086,0.94588,-0.04857,-0.09926,0.35766,-0.16782
-0.26039,0.96127,-0.0903,-0.48694,0.22605,0.29504
-0.21558,0.96794,-0.12889,-0.56288,-0.27927,0.41442
-0.1925,0.96801,-0.16092,0.00145,-0.63169,0.2405
-0.18588,0.96565,-0.18158,0.46591,-0.54911,0.13203
-0.18058,0.9624,-0.2029,0.63612,-0.32166,0.0624
-0.1662,0.95749,-0.23575,0.57367,-0.10534,0.12848
-0.14194,0.95355,-0.26569,-0.13298,-0.2352,0.44402
-0.11615,0.95103,-0.28645,-0.15877,-0.23267,0.46478
-0.09117,0.94812,-0.30454,-0.57156,-0.20957,0.23882
-0.07906,0.94678,-0.31202,-0.44154,-0.18777,0.23269
-0.07477,0.94547,-0.31702,-0.44725,0.04111,0.22414
-0.07598,0.94273,-0.32477,-0.44861,0.25719,0.13384
-0.07564,0.94022,-0.33207,-0.92075,0.50841,0.16971
-0.0829,0.93495,-0.34495,-0.83697,0.3582,0.41435
-0.09885,0.94046,-0.32521,-0.59056,0.21855,0.62576
-0.13607,0.94495,-0.29757,-0.37347,0.48522,0.34363
-0.19074,0.94886,-0.25156,-0.37429,0.68234,0.50874
-0.2506,0.94721,-0.19995,-0.16784,1.08764,0.26622
-0.30225,0.94143,-0.1495,0.33257,1.28696,-0.36202
-0.33015,0.93783,-0.10708,0.65219,1.06101,-0.09789
-0.34579,0.9351,-0.07752,0.73048,0.71428,0.4391
-0.37421,0.92609,-0.04812,0.42652,0.29009,0.24253
-0.41013,0.91194,-0.01251,-0.07322,-0.0214,0.0372
-0.45277,0.89147,0.01662,0.06385,-0.31148,-0.01669
-0.48976,0.87091,0.04056,0.22957,-0.46209,-0.15311
-0.52191,0.84989,0.07277,0.36543,-0.63483,-0.30375
-0.54401,0.83175,0.11065,0.69382,-0.93407,-0.27925
-0.55451,0.81917,0.1465,0.76055,-0.9791,-0.25159
-0.55397,0.81405,0.17446,0.7424,-0.91634,-0.25107
-0.54384,0.81667,0.19309,0.627,-0.9451,-0.17487
-0.52633,0.82801,0.1933,0.54514,-0.9224,-0.06542
-0.50438,0.8474,0.16583,0.2843,-0.70711,0.31022
-0.48369,0.86581,0.1281,-0.6676,0.832,0.69484
-0.46652,0.87435,0.13366,-0.8255,3.17932,1.20599
-0.47685,0.86011,0.18117,-0.51272,2.50421,1.32272
-0.50575,0.83886,0.20131,0.00543,-1.0924,-0.05537
-0.52769,0.82579,0.19902,0.33409,-0.50423,0.20006
-0.53634,0.83214,0.141,0.44204,1.86157,-0.70616
-0.5178,0.85193,0.07809,1.57185,1.82489,0.27532
-0.50721,0.857,0.09093,0.50276,-0.64289,0.28564
-0.49399,0.86517,0.08628,0.43457,-0.23579,0.24972
-0.46273,0.88398,0.06673,0.52468,-0.19139,-0.74019
-0.40938,0.91221,0.01638,0.45438,0.14734,-0.89232
-0.34639,0.93746,-0.03426,0.20606,0.19209,-0.57916
-0.28163,0.95664,-0.07427,-0.13584,0.15531,-0.11524
-0.21795,0.96853,-0.12017,-0.60347,0.19683,0.31398
-0.16916,0.97054,-0.17155,-0.60071,-0.51183,0.64089
-0.14722,0.96966,-0.19515,0.12973,-0.80183,0.17966
-0.14765,0.96753,-0.20513,0.45576,-0.36556,0.00526
-0.14245,0.96207,-0.23264,0.47114,-0.09696,-0.04269
-0.12871,0.95334,-0.27308,0.41581,-0.00017,0.08453
-0.10968,0.9482,-0.29814,-0.46436,-0.20889,0.40455
-0.08989,0.94358,-0.3187,-0.53924,-0.15685,0.31983
-0.07931,0.94068,-0.32989,-0.5257,-0.08207,0.20693
-0.07503,0.94012,-0.33249,-0.22696,0.19287,0.29642
-0.0704,0.93938,-0.33556,-0.19622,0.20787,0.27076
-0.0604,0.93933,-0.33766,-0.29249,0.17835,0.15625
-0.05925,0.93542,-0.34852,-1.1045,0.50859,0.43824
-0.0687,0.93361,-0.35163,-0.65945,0.31078,0.63843
-0.09572,0.941,-0.32458,-0.44811,0.30235,0.23651
-0.14155,0.94658,-0.28973,-0.33201,0.39659,0.45533
-0.19698,0.95014,-0.24175,-0.16277,0.68135,0.52585
-0.2606,0.9453,-0.19621,0.23147,1.13854,-0.14731
-0.30752,0.93902,-0.15382,0.58355,1.37203,-0.01023
-0.32509,0.93813,-0.1193,0.74951,1.0874,0.16581
-0.34966,0.93277,-0.08756,0.66439,0.54223,0.48577
-0.37763,0.92412,-0.0583,0.25304,0.05815,0.01105
-0.41395,0.90991,-0.02669,-0.16543,-0.19352,0.17545
-0.45665,0.88961,-0.00774,0.06086,-0.42509,-0.02989
-0.49442,0.86914,0.01151,0.17978,-0.57267,-0.17736
-0.52688,0.8488,0.04388,0.46307,-0.78446,-0.2872
-0.54913,0.83188,0.08013,0.68728,-1.07418,-0.18924
-0.55966,0.8213,0.11065,0.66016,-0.96137,-0.17881
-0.55979,0.81743,0.13581,0.70772,-0.84637,-0.21272
-0.54905,0.82247,0.14863,0.67194,-0.86975,-0.13973
-0.52562,0.83947,0.13785,0.54938,-0.80084,0.02138
-0.4898,0.86486,0.11004,0.21968,-0.45794,0.36533
-0.46308,0.88011,0.1047,-1.20735,2.7309,0.97519
-0.47239,0.86733,0.1568,-1.36718,3.46242,0.85596
-0.50539,0.84252,0.18637,-0.27142,-0.8086,0.45874
-0.53245,0.82579,0.18592,0.91334,-0.76471,0.30965
-0.54141,0.82481,0.16298,0.31059,1.98174,-0.02662
-0.53103,0.83728,0.13027,0.93952,2.39599,-0.65226
-0.52253,0.84268,0.12978,0.47706,-0.52651,0.03726
-0.51127,0.85098,0.12011,0.43876,-0.24779,0.07341
-0.48592,0.86912,0.09225,0.3046,-0.10011,-0.78784
-0.4346,0.8997,0.0406,0.29944,0.11822,-0.66382
-0.37026,0.92881,-0.01471,0.13962,0.35684,-0.40802
-0.30535,0.95024,-0.06167,-0.10508,0.11359,-0.07276
-0.24649,0.96484,-0.09118,-0.35658,0.06097,0.31723
-0.20871,0.97061,-0.11979,-0.27371,-0.34724,0.27784
-0.19235,0.96943,-0.15232,0.23584,-0.72155,0.13613
-0.18594,0.9661,-0.17907,0.58609,-0.63363,0.16999
-0.17284,0.9623,-0.20999,0.56533,-0.30765,0.18004
-0.15156,0.95758,-0.24509,0.40853,-0.05966,0.20183
-0.12657,0.95289,-0.27563,0.03347,-0.10774,0.37853
-0.0991,0.94935,-0.29818,-0.42188,-0.2862,0.38681
-0.07366,0.945,-0.31867,-0.55495,-0.23561,0.20649
-0.0609,0.94193,-0.33022,-0.39734,-0.14668,0.31883
-0.05401,0.939,-0.33966,-0.29212,0.15463,0.31283
-0.04845,0.93768,-0.34409,-0.37942,0.19872,0.25457
-0.0426,0.93691,-0.34696,-0.72383,0.22447,-0.01019
-0.0512,0.93058,-0.36249,-0.53349,0.24229,0.54506
-0.0711,0.93579,-0.34532,-0.49738,0.14078,0.21908
-0.1132,0.94126,-0.31813,-0.50401,0.4504,0.12971
-0.1711,0.94755,-0.26993,-0.48306,0.80104,0.54346
-0.23379,0.9482,-0.21504,-0.13748,1.31605,0.25257
-0.28625,0.94399,-0.16411,0.37167,1.51746,-0.33673
-0.30655,0.94378,-0.12372,0.65681,1.19581,-0.10978
-0.32016,0.94303,-0.0905,0.79248,0.73413,0.46626
-0.34725,0.936,-0.05763,0.39911,0.26664,0.35045
-0.37773,0.92564,-0.0226,-0.12458,0.08477,-0.03969
-0.42059,0.90722,0.00707,-0.1284,-0.22091,-0.01161
-0.45944,0.88775,0.0285,0.17673,-0.49584,-0.14421
-0.49369,0.8677,0.05796,0.37814,-0.63427,-0.25829
-0.5204,0.84895,0.09198,0.67517,-1.04862,-0.33113
-0.53552,0.83519,0.12515,0.75479,-1.19599,-0.28933
-0.53903,0.82804,0.15425,0.73534,-1.11168,-0.3277
-0.53245,0.82748,0.17821,0.7011,-1.03225,-0.31634
-0.51682,0.83599,0.18442,0.59134,-0.81927,-0.01371
-0.49231,0.855,0.16309,0.39345,-0.68317,0.15936
-0.46994,0.87175,0.13861,-0.82212,1.14882,0.78476
-0.46094,0.87312,0.15872,-0.86258,2.48308,0.93442
-0.4753,0.85514,0.20695,-0.1841,0.54893,0.99166
-0.50175,0.83678,0.21916,0.16193,-1.22295,0.09066
-0.5167,0.82763,0.2192,0.40188,-0.07666,0.43453
-0.52525,0.83323,0.17274,0.24421,2.42915,-0.66399
-0.51776,0.84718,0.11919,0.93059,2.66866,-1.25853
-0.51912,0.84695,0.11485,0.7825,-0.62889,0.18254
-0.51015,0.85357,0.10563,0.57801,-0.35384,0.06975
-0.48008,0.87368,0.0787,0.45089,-0.3572,-0.95007
-0.42398,0.90545,0.0202,0.37518,0.0856,-0.80968
-0.35418,0.93409,-0.04513,0.12099,0.50625,-0.39218
-0.28195,0.95415,-0.10054,-0.2806,0.24637,-0.00135
-0.21793,0.96599,-0.13917,-0.68664,0.07112,0.44076
-0.17577,0.96992,-0.16837,-0.41656,-0.54953,0.34916
-0.16051,0.96922,-0.18665,0.16877,-0.74518,0.10378
-0.1613,0.96577,-0.20313,0.47931,-0.58549,0.1007
-0.15701,0.9593,-0.23471,0.5985,-0.19365,0.11268
-0.13954,0.95175,-0.2733,0.4993,-0.08063,0.16702
-0.11567,0.94678,-0.30039,-0.09794,-0.22217,0.42612
-0.08903,0.94222,-0.32293,-0.60973,-0.0894,0.26368
-0.06986,0.93882,-0.33724,-0.52087,-0.05396,0.26107
-0.06165,0.93692,-0.34405,-0.39774,-0.01049,0.28661
-0.05932,0.93515,-0.34923,-0.29541,0.19824,0.09381
-0.05119,0.93472,-0.35167,-0.68051,0.20834,-0.23523
-0.05325,0.92778,-0.36931,-1.06625,0.3223,-0.20356
-0.06734,0.92682,-0.3694,-0.56174,0.22781,0.07575
-0.09574,0.93463,-0.34248,-0.47567,0.3175,0.12194
-0.14436,0.94021,-0.30847,-0.28611,0.42247,0.32316
-0.20075,0.94513,-0.25772,-0.34991,1.05778,0.6369
-0.26003,0.94303,-0.20756,0.15339,1.33088,-0.13146
-0.29965,0.94072,-0.15889,0.56396,1.25195,-0.20646
-0.31771,0.94091,-0.11722,0.77256,1.06121,0.16312
-0.34391,0.93539,-0.08227,0.48841,0.474,0.55041
-0.37846,0.92434,-0.04855,0.04866,0.10764,0.04111
-0.4251,0.90501,-0.01559,-0.11709,-0.17776,0.09602
-0.47123,0.88198,0.00693,0.17011,-0.4515,-0.05254
-0.51172,0.85844,0.03489,0.45554,-0.7093,-0.25538
-0.54404,0.83584,0.07341,0.68758,-1.04067,-0.30686
-0.56389,0.81797,0.11378,0.72325,-1.1483,-0.26525
-0.57177,0.80706,0.14739,0.69434,-0.89617,-0.30707
-0.5693,0.8031,0.17583,0.73732,-0.86099,-0.21298
-0.55583,0.80942,0.18945,0.62343,-0.89836,-0.01976
-0.52972,0.82975,0.17582,0.19757,-0.58234,0.26328
-0.50218,0.85146,0.15111,-0.3104,-0.12299,0.53175
-0.48311,0.86109,0.15852,-0.7675,2.73263,1.16595
-0.48562,0.85108,0.19956,-0.15104,1.5272,1.25713
-0.50861,0.83408,0.21358,0.12091,-0.67616,0.30065
-0.52993,0.8209,0.21281,0.08242,0.69767,0.22589
-0.54353,0.82185,0.17069,0.56484,2.21032,-0.92006
-0.54844,0.82558,0.13277,0.85443,-0.39153,0.19254
-0.54362,0.83151,0.11426,0.77618,-0.49773,0.30711
-0.5221,0.8464,0.10498,0.53594,-0.16479,-0.4382
-0.47822,0.87474,0.0783,0.34523,-0.08127,-0.95699
-0.41309,0.91027,0.02749,0.17069,0.48064,-0.78279
-0.35079,0.93594,-0.03102,-0.05206,0.32349,-0.24723
-0.28652,0.95395,-0.08872,-0.21448,0.07858,0.13603
-0.23272,0.96282,-0.13714,-0.41913,-0.19312,0.54583
-0.20259,0.96474,-0.16804,0.0556,-0.61059,0.24654
-0.19207,0.96356,-0.18615,0.46514,-0.62213,0.23617
-0.18258,0.96097,-0.20786,0.63663,-0.41574,0.14201
-0.16152,0.95623,-0.24398,0.47414,-0.00753,0.06088
-0.13616,0.95128,-0.27663,0.02283,-0.20043,0.30126
-0.11055,0.94632,-0.30373,-0.44619,-0.25008,0.38512
-0.08873,0.94045,-0.32814,-0.62989,-0.19613,0.32672
-0.07911,0.93724,-0.33959,-0.36668,0.01328,0.25679
-0.07763,0.93603,-0.34325,-0.36816,0.01449,0.26044
-0.07832,0.93439,-0.34753,-0.23207,0.28738,0.24664
-0.07441,0.93412,-0.34911,-1.06255,0.39535,0.06072
-0.07903,0.93,-0.35896,-1.15808,0.50387,0.28584
-0.09595,0.93122,-0.3516,-0.89984,0.38067,0.46891
-0.12882,0.93832,-0.32088,-0.34784,0.30869,0.3642
-0.17602,0.94473,-0.27659,-0.33938,0.43676,0.43002
-0.23109,0.94689,-0.22358,-0.29156,1.10059,0.38925
-0.28795,0.94175,-0.17374,0.22048,1.3762,-0.31073
-0.31948,0.93863,-0.13003,0.57354,1.12918,-0.08393
-0.33671,0.93669,-0.09609,0.64671,0.95285,0.28183
-0.36672,0.92819,-0.06312,0.42371,0.43893,0.41316
-0.40256,0.91495,-0.02854,-0.01153,0.07845,0.02414
-0.4458,0.89513,0.00117,0.08264,-0.36118,0.05439
-0.48327,0.87524,0.02011,0.25878,-0.54899,-0.09759
-0.51698,0.85458,0.0492,0.37518,-0.63405,-0.27161
-0.54294,0.83507,0.08873,0.74411,-0.97612,-0.30139
-0.55806,0.82002,0.12699,0.75754,-1.02762,-0.2719
-0.56215,0.81201,0.15694,0.73962,-0.89942,-0.22126
-0.55511,0.81256,0.17773,0.73425,-0.88174,-0.1177
-0.53809,0.82366,0.179,0.67587,-0.831,-0.03812
-0.50999,0.84605,0.15521,0.04135,-0.3795,0.42473
-0.48057,0.86792,0.12551,-0.96476,0.99292,0.8721
-0.46628,0.8744,0.13415,-1.07898,2.20331,0.84667
-0.48143,0.85771,0.1804,-0.63679,2.3916,1.25878
-0.51166,0.83589,0.1987,0.13117,-1.04114,0.19987
-0.53235,0.82275,0.19919,0.49014,-0.58467,-0.04122
-0.53827,0.83035,0.14414,0.50813,1.37653,-0.82396
-0.51714,0.85182,0.08345,1.50177,1.56366,0.50659
-0.49637,0.8628,0.0958,0.15722,-0.1683,0.24314
-0.47987,0.87234,0.09349,0.25659,-0.14076,-0.02413
-0.45062,0.88954,0.07522,0.38057,-0.18956,-0.64358
-0.40125,0.91525,0.03627,0.40248,-0.03884,-0.81705
-0.34305,0.93928,-0.00773,0.17172,0.1228,-0.56966
-0.28179,0.95826,-0.04816,-0.0832,0.154,-0.13465
-0.22239,0.97009,-0.09724,-0.4565,0.09436,0.25869
-0.17779,0.97239,-0.15117,-0.4609,-0.56768,0.65176
-0.15783,0.97146,-0.17703,0.18646,-0.62353,0.30322
-0.15339,0.96952,-0.19106,0.48561,-0.51989,0.13781
-0.14035,0.96506,-0.22125,0.49654,-0.20514,0.0231
-0.11802,0.95895,-0.25786,0.37061,-0.10618,0.11831
-0.09671,0.9538,-0.28444,-0.58586,-0.11187,0.41231
-0.07478,0.94921,-0.30563,-0.60779,-0.10727,0.4335
-0.06537,0.94666,-0.31552,-0.59346,-0.07449,0.21637
-0.06773,0.94593,-0.31722,-0.21128,0.14538,0.28591
-0.07065,0.94498,-0.31942,-0.1091,0.18338,0.20006
-0.06729,0.94562,-0.31824,-0.4548,0.12582,-0.08348
-0.06868,0.94254,-0.32695,-1.0434,0.42892,0.03429
-0.08172,0.93768,-0.33774,-0.55572,0.29454,0.54755
-0.10411,0.94459,-0.31131,-0.29846,0.05212,0.29236
-0.14201,0.9506,-0.276,-0.33888,0.09674,0.40306
-0.18961,0.95616,-0.22315,-0.35723,0.50468,0.52481
-0.24997,0.95266,-0.17308,-0.04311,1.25293,-0.30515
-0.3018,0.94447,-0.12992,0.38242,1.52112,-0.21438
-0.32618,0.94012,-0.09883,0.62046,1.26915,0.21247
-0.35242,0.9333,-0.0688,0.5492,0.80418,0.47273
-0.38749,0.92092,-0.0418,0.08242,0.27572,0.11515
-0.43349,0.90104,-0.0144,-0.15055,-0.12554,0.02409
-0.47348,0.88074,0.00995,0.10397,-0.50162,-0.07603
-0.5046,0.86234,0.0418,0.29057,-0.55489,-0.12473
-0.53234,0.84315,0.07552,0.56349,-0.69455,-0.2939
-0.55241,0.82637,0.1093,0.70463,-1.01584,-0.25457
-0.56254,0.81546,0.13623,0.68648,-0.924,-0.22566
-0.5637,0.81109,0.15608,0.70631,-0.98474,-0.21774
-0.55475,0.81466,0.169,0.6021,-0.99345,-0.12234
-0.53455,0.82911,0.16376,0.42954,-0.89,0.09398
-0.50351,0.85314,0.13646,-0.24536,-0.10723,0.5793
-0.47637,0.87235,0.1099,-0.98237,2.31282,0.85457
-0.47468,0.86689,0.15223,-1.33581,3.79083,1.22913
-0.50132,0.84465,0.18769,-0.37423,0.82588,1.06499
-0.52401,0.82814,0.19896,0.02236,-1.13863,0.09627
-0.53859,0.824,0.1759,0.46104,-0.03419,-0.28163
-0.53209,0.84076,0.09996,0.95488,2.24912,-0.89179
-0.50174,0.8619,0.07337,1.13295,1.26637,0.79247
-0.48969,0.8674,0.08839,0.28882,-0.61618,0.21842
-0.47466,0.87653,0.07985,0.33416,-0.27892,-0.15607
-0.44167,0.89564,0.05248,0.54489,-0.11381,-0.73592
-0.38645,0.92227,0.00826,0.46211,0.10831,-0.74581
-0.32457,0.94527,-0.03322,0.18083,0.12634,-0.49513
-0.26061,0.96286,-0.07058,-0.20055,0.13565,-0.05712
-0.20213,0.97156,-0.12335,-0.57897,-0.03409,0.42957
-0.1616,0.97097,-0.17634,-0.35426,-0.68002,0.5958
-0.14985,0.96869,-0.19793,0.24008,-0.6075,0.26733
-0.14915,0.96538,-0.21396,0.45947,-0.21653,0.0291
-0.13987,0.95916,-0.24586,0.43614,-0.10979,0.06846
-0.122,0.95235,-0.27953,0.3476,-0.05315,0.21033
-0.10124,0.94806,-0.30154,-0.59587,-0.10953,0.36681
-0.08107,0.94385,-0.32025,-0.61604,-0.10532,0.38553
-0.07527,0.94261,-0.32529,-0.49583,-0.13347,0.19707
-0.07471,0.94205,-0.32704,-0.19224,0.10779,0.25636
-0.07418,0.9403,-0.33217,-0.13925,0.10347,0.19228
-0.06939,0.93985,-0.33447,-0.30614,0.08057,0.02319
-0.07314,0.9351,-0.34674,-0.84037,0.5855,0.28197
-0.08985,0.93473,-0.34382,-0.51864,0.33716,0.59406
-0.1261,0.94102,-0.31396,-0.48818,0.43712,0.46466
-0.17639,0.94574,-0.27286,-0.24132,0.82957,0.65056
-0.23024,0.94649,-0.22615,-0.0819,1.08938,0.32419
-0.28241,0.94182,-0.18225,0.34029,1.3202,-0.15215
-0.31129,0.93997,-0.13982,0.72119,1.1484,0.11594
-0.32852,0.93869,-0.10456,0.7357,0.80758,0.3411
-0.35329,0.93225,-0.078,0.46096,0.30629,0.32526
-0.38049,0.92334,-0.05152,0.0685,-0.09087,-0.13417
-0.42225,0.90604,-0.02819,-0.17078,-0.29317,0.04024
-0.46741,0.88392,-0.01464,0.06809,-0.51827,-0.16154
-0.50588,0.86251,0.01253,0.32653,-0.71146,-0.23731
-0.53358,0.84422,0.05086,0.66935,-0.94814,-0.27225
-0.55147,0.8295,0.0883,0.7638,-0.97059,-0.13392
-0.5607,0.81941,0.11904,0.78534,-0.85006,-0.18787
-0.55968,0.81678,0.14009,0.77775,-0.85704,-0.17926
-0.54527,0.82647,0.14007,0.60268,-0.69511,0.07293
-0.5149,0.84899,0.11865,0.40002,-0.60191,0.22024
-0.48359,0.86987,0.0972,-1.32439,1.23874,0.79474
-0.47496,0.87149,0.1221,-1.31683,3.01413,1.41284
-0.48886,0.85543,0.17101,-0.28237,0.33974,0.85119
-0.51125,0.83984,0.18243,0.79009,-0.89457,0.02442
-0.52363,0.83569,0.16559,0.39332,1.5029,-0.01837
-0.52087,0.84472,0.123,0.65408,2.36867,-0.6377
-0.52001,0.8471,0.10953,0.6068,-0.89386,0.27753
-0.51227,0.85287,0.10089,0.72048,-0.33889,0.41374
-0.48967,0.86736,0.08885,0.45061,-0.24767,-0.66722
-0.44133,0.89577,0.05303,0.31646,-0.01187,-0.92395
-0.37773,0.92591,-0.00218,0.12908,0.55867,-0.59575
-0.31329,0.94809,-0.05452,-0.20526,0.30631,-0.03514
-0.25233,0.96284,-0.09621,-0.53722,0.00621,0.36055
-0.21023,0.96971,-0.12435,-0.42307,-0.40637,0.32037
-0.19157,0.96986,-0.15055,0.04989,-0.63191,0.17269
-0.18629,0.9667,-0.17541,0.47234,-0.59049,0.14527
-0.17811,0.96292,-0.20262,0.55079,-0.40638,0.17174
-0.16167,0.95827,-0.23575,0.30454,-0.12697,0.18933
-0.13974,0.95318,-0.26818,0.18102,-0.09086,0.32265
-0.11653,0.94816,-0.29566,-0.0427,-0.08394,0.4585
-0.09176,0.94484,-0.31442,-0.51446,-0.07162,0.33193
-0.07707,0.94341,-0.32254,-0.52914,-0.0702,0.34005
-0.07236,0.94241,-0.32652,-0.28148,-0.00618,0.25616
-0.06765,0.94246,-0.3274,-0.67776,0.25691,-0.28324
-0.06596,0.94037,-0.33367,-0.9578,0.52967,-0.17612
-0.07559,0.93227,-0.35375,-0.71001,0.58722,0.55722
-0.09658,0.9373,-0.33487,-0.40386,0.34255,0.16637
-0.13679,0.94034,-0.31151,-0.35873,0.41679,-0.05565
-0.18779,0.9446,-0.2692,-0.47144,0.46587,0.64835
-0.24399,0.94416,-0.2214,-0.12179,0.89638,0.26669
-0.29756,0.93946,-0.16992,0.16739,1.14473,-0.14355
-0.32502,0.9374,-0.12503,0.70413,1.20142,0.05589
-0.34236,0.93531,-0.08935,0.79656,0.80212,0.41077
-0.37038,0.92703,-0.05848,0.67549,0.53451,0.40102
-0.40422,0.91437,-0.02292,0.01056,-0.07423,0.0344
-0.45056,0.89274,0.00199,0.00612,-0.37751,-0.03002
-0.49384,0.86926,0.02246,0.14702,-0.55798,-0.17445
-0.5291,0.84673,0.05562,0.35364,-0.7663,-0.26943
-0.55295,0.82792,0.09373,0.62729,-0.93041,-0.2954
-0.5654,0.81483,0.12792,0.73516,-0.93374,-0.21384
-0.56697,0.80915,0.15431,0.71796,-0.82222,-0.23854
-0.55831,0.81196,0.17026,0.66053,-0.90286,-0.15361
-0.54014,0.82539,0.16425,0.52782,-0.88116,0.08763
-0.51458,0.84704,0.13307,0.08679,-0.59411,0.38172
-0.49024,0.86535,0.104,-0.79378,0.52683,0.66155
-0.47885,0.86753,0.13449,-0.91741,2.94065,1.03354
-0.49433,0.85089,0.1778,-0.17968,0.08348,0.57084
-0.51998,0.83278,0.18993,0.38403,-1.19042,0.03241
-0.53413,0.82768,0.17216,0.35127,0.92675,-0.23623
-0.5285,0.84256,0.10379,1.3054,2.17514,-1.06979
-0.51497,0.85367,0.07779,0.55777,-0.28759,0.8161
-0.5083,0.85802,0.07369,0.41966,-0.47401,0.23497
-0.49221,0.86819,0.06304,0.37184,-0.14902,-0.33454
-0.45479,0.88976,0.03851,0.3969,-0.08782,-0.81064
-0.39864,0.91708,-0.0067,0.1727,0.27776,-0.61105
-0.33895,0.93927,-0.05353,-0.08987,0.27523,-0.2672
-0.2819,0.95393,-0.10266,-0.42033,0.13388,0.13351
-0.23578,0.96007,-0.15051,-0.57725,0.0092,0.409
-0.21211,0.96065,-0.1793,-0.03219,-0.56313,0.33945
-0.20626,0.95821,-0.19821,0.40204,-0.57105,0.2164
-0.19952,0.95486,-0.22007,0.50044,-0.56045,0.11303
-0.18512,0.95003,-0.25133,0.47384,-0.12627,0.04228
-0.16615,0.94398,-0.28512,0.24496,-0.00262,0.34083
-0.14457,0.93945,-0.31068,-0.21171,-0.02061,0.60559
-0.12116,0.93679,-0.32824,-0.40824,-0.10741,0.35586
-0.10512,0.93691,-0.33338,-0.28836,-0.17254,0.28064
-0.09589,0.93664,-0.3369,-0.26873,0.07113,0.23149
-0.08917,0.93542,-0.3421,-0.35509,0.21534,0.11411
-0.08244,0.93456,-0.3461,-1.01696,0.34115,-0.07487
-0.09023,0.92942,-0.35782,-1.09782,0.29905,0.34347
-0.11057,0.93399,-0.33975,-0.43558,0.0985,0.46382
-0.14872,0.93962,-0.30819,-0.32571,0.38833,0.30302
-0.20034,0.94488,-0.25894,-0.25835,0.47898,0.28389
-0.25943,0.94283,-0.20918,-0.04237,1.21127,0.00278
-0.3103,0.93698,-0.16053,0.40762,1.30327,-0.23425
-0.33429,0.93471,-0.12064,0.60278,1.16694,-0.10541
