gravity.x,gravity.y,gravity.z,userAcceleration.x,userAcceleration.y,userAcceleration.z
-0.10555,0.98691,0.12188,0.28783,0.04363,0.0655
-0.11442,0.98534,0.12651,-0.00828,0.11808,-0.13738
-0.12282,0.98399,0.12914,-0.04159,0.15055,-0.10662
-0.134,0.98306,0.12503,0.06828,0.17424,-0.10463
-0.14436,0.98277,0.11539,0.24925,0.37862,-0.16415
-0.14996,0.98365,0.09974,0.17039,0.10534,-0.18241
-0.14909,0.98616,0.07246,0.11845,0.13789,-0.21503
-0.13806,0.98986,0.0334,-0.01642,0.42036,-0.29617
-0.12,0.99261,-0.01787,-0.2539,0.14602,-0.21367
-0.09715,0.99237,-0.07592,-0.45362,0.13811,-0.07965
-0.07293,0.98825,-0.1343,-0.55032,0.19676,-0.02717
-0.04742,0.98139,-0.18605,-0.53677,0.27761,0.06561
-0.02126,0.97404,-0.22537,-0.3692,0.16118,0.11946
0.00455,0.96672,-0.25578,-0.20938,0.14419,0.06628
0.02884,0.95879,-0.28263,-0.07048,0.14802,0.00557
0.04525,0.94929,-0.31111,-0.08091,0.04061,0.03281
0.0536,0.93861,-0.34077,-0.0755,-0.02876,0.01963
0.05984,0.92776,-0.36834,-0.09713,-0.09404,0.18538
0.06664,0.91786,-0.39127,-0.16583,-0.12121,0.24184
0.07068,0.90946,-0.40974,-0.18155,-0.20681,0.26883
0.07192,0.90359,-0.42233,-0.22005,-0.25237,0.35903
0.06946,0.90039,-0.42951,-0.18037,-0.24612,0.35099
0.06401,0.90022,-0.43071,-0.20781,-0.18965,0.38464
0.05908,0.90345,-0.4246,-0.25734,-0.17524,0.23597
0.05469,0.90885,-0.41353,-0.24027,-0.16417,0.17578
0.04791,0.91471,-0.40126,-0.23011,-0.06719,0.05136
0.04016,0.92012,-0.38957,-0.21823,-0.05151,0.00889
0.03346,0.92399,-0.38096,-0.15463,-0.03385,-0.06672
0.02606,0.9255,-0.37784,0.113,0.17875,-0.23359
0.0199,0.92555,-0.37811,0.14746,0.17881,-0.21148
0.02106,0.92548,-0.37821,0.13566,0.16542,-0.20433
0.02892,0.92529,-0.37816,0.11952,0.0337,-0.27341
0.0371,0.9249,-0.37839,0.07389,-0.03484,-0.22991
0.04296,0.92486,-0.37788,0.04185,-0.08501,-0.11271
0.04597,0.92599,-0.37474,0.01049,-0.10764,-0.03052
0.0456,0.92844,-0.36868,-0.0562,0.00496,0.06207
0.03806,0.93184,-0.36087,-0.1275,-0.00346,0.23094
0.02668,0.93614,-0.35062,-0.22251,-0.06797,0.27114
0.01384,0.9415,-0.33672,-0.2974,-0.11551,0.17665
-0.00015,0.94712,-0.32087,-0.37122,-0.15354,0.0176
-0.01495,0.95184,-0.30624,-0.5466,-0.17114,-0.06069
-0.03605,0.95708,-0.28758,-0.71288,0.20996,-0.30823
-0.07153,0.95872,-0.27521,-0.4412,0.27228,-0.41453
-0.10112,0.95664,-0.27316,0.06171,0.42938,-0.02123
-0.11799,0.95615,-0.26805,0.4423,0.24824,0.34874
-0.12509,0.95679,-0.26248,0.20441,0.03628,0.30673
-0.12463,0.95697,-0.26207,-0.12093,-0.03828,0.17766
-0.12569,0.95723,-0.26059,0.06498,-0.18224,0.27033
-0.12546,0.95949,-0.25225,0.12357,-0.15955,0.30651
-0.1256,0.96134,-0.24504,0.05968,-0.03298,0.29247
-0.13424,0.96183,-0.23846,-0.05213,0.14265,0.2207
-0.14938,0.96095,-0.23293,-0.00917,0.19211,0.18864
-0.16484,0.9599,-0.22676,0.04691,0.2278,0.18558
-0.17564,0.95922,-0.22147,-0.11313,0.18161,0.19237
-0.18412,0.959,-0.21545,-0.0789,0.15668,0.18779
-0.19056,0.95917,-0.20899,0.04243,0.02197,0.16627
-0.19527,0.95944,-0.20333,-0.01472,-0.04004,0.12846
-0.20008,0.95911,-0.20018,-0.00351,-0.04244,0.05078
-0.20368,0.95807,-0.20154,0.0853,-0.09677,0.05339
-0.20433,0.95638,-0.20877,0.08115,-0.14931,0.03462
-0.20199,0.95383,-0.22228,0.02594,-0.16257,-0.02369
-0.19733,0.95033,-0.24069,-0.002,-0.1544,-0.02722
-0.19233,0.9458,-0.26168,-0.03128,0.03862,0.15709
-0.18887,0.93992,-0.28439,-0.04607,0.16673,0.19304
-0.18866,0.93074,-0.31324,-0.02641,0.37092,0.14515
-0.18707,0.91808,-0.34947,-0.07425,0.37945,-0.06296
-0.1777,0.90453,-0.38762,-0.11591,0.32124,-0.1082
-0.16205,0.89285,-0.42018,-0.02303,0.22813,-0.2977
-0.1403,0.88533,-0.44329,0.10383,-0.00535,-0.04288
-0.10817,0.87854,-0.46526,0.02336,-0.11888,-0.11155
-0.07305,0.87636,-0.47608,0.03729,-0.11992,-0.0104
-0.03408,0.8769,-0.47947,0.18926,-0.15523,0.28599
0.00366,0.87502,-0.48408,0.0251,0.00993,0.09823
0.03506,0.87929,-0.47499,-0.01269,-0.21221,0.1219
0.0554,0.88741,-0.45763,0.00951,-0.23319,0.25222
0.06459,0.8927,-0.44601,0.02463,-0.12687,0.23217
0.06834,0.89544,-0.43991,-0.09895,0.00384,-0.03452
0.07339,0.8969,-0.4361,-0.3025,0.06482,-0.11658
0.078,0.89768,-0.43369,-0.39227,0.04695,-0.14184
0.07947,0.89792,-0.43293,-0.30227,-0.0647,-0.03511
0.08192,0.89937,-0.42944,-0.06669,-0.07698,0.03227
0.08692,0.90136,-0.42426,-0.1133,-0.0777,0.03123
0.0922,0.9033,-0.41898,-0.12143,-0.01103,-0.03455
0.09692,0.90526,-0.41365,-0.10814,0.00475,-0.07258
0.10014,0.90747,-0.408,-0.05631,0.01287,-0.09837
0.10254,0.90956,-0.40272,-0.03151,-0.01675,-0.1224
0.10531,0.91091,-0.39893,0.01953,-0.06115,-0.12304
0.10706,0.91084,-0.39864,0.05571,-0.06336,-0.09217
0.10942,0.9104,-0.39898,0.04483,-0.05411,-0.07152
0.1116,0.91019,-0.39887,0.0348,-0.0349,-0.07148
0.11363,0.90994,-0.39886,0.03141,-0.03807,-0.05979
0.11694,0.90984,-0.39814,0.0371,-0.05896,-0.02633
0.12052,0.9097,-0.39739,-0.01577,-0.11707,0.0272
0.12379,0.91065,-0.3942,-0.04726,-0.13951,0.02854
0.12527,0.9121,-0.39036,-0.10571,-0.17498,-0.02345
0.12372,0.91483,-0.38441,-0.09884,-0.15621,-0.11818
0.11934,0.91881,-0.37622,-0.06656,-0.13362,-0.15346
0.11504,0.92375,-0.36532,0.02979,-0.04955,-0.17986
0.1138,0.92878,-0.35273,0.18962,0.11744,-0.20781
0.11875,0.93355,-0.3382,0.31102,0.29997,-0.12389
0.12606,0.93797,-0.32298,0.22162,0.33245,-0.01647
0.12781,0.94205,-0.31015,-0.06613,0.29542,-0.08052
0.12548,0.9445,-0.30359,-0.05695,0.21454,-0.27426
0.12821,0.94377,-0.30472,-0.14205,-0.01368,0.06887
0.12883,0.94381,-0.30435,-0.68566,-0.37113,0.27533
0.11366,0.94965,-0.29195,-0.74972,-0.33146,-0.14335
0.08879,0.95863,-0.27045,-0.34517,-0.00715,0.03506
0.07565,0.96765,-0.24069,0.21848,0.44352,0.63118
0.06781,0.97433,-0.21468,0.22455,0.34089,0.41185
0.05839,0.97805,-0.20001,0.07452,0.0438,-0.02131
0.0444,0.98165,-0.18545,-0.03099,-0.08794,0.27195
0.02899,0.9854,-0.16776,0.00705,-0.08904,0.28014
0.01405,0.98804,-0.15356,0.07128,-0.01967,0.23281
0.00112,0.98978,-0.14256,0.11568,0.04217,0.13779
-0.00907,0.99138,-0.1307,0.11662,0.07633,0.1115
-0.01677,0.99296,-0.11719,-0.05745,0.00556,0.04825
-0.02445,0.99422,-0.10455,-0.06573,-0.01347,0.03561
-0.03054,0.99509,-0.09411,-0.04844,0.02377,0.05082
-0.03793,0.99569,-0.08466,0.1078,0.01692,0.06548
-0.04772,0.99584,-0.07764,0.15517,0.01402,0.05628
-0.05752,0.99577,-0.07166,0.16256,0.01936,0.06829
-0.06731,0.99563,-0.0647,0.14356,0.00898,0.10007
-0.07567,0.99557,-0.05581,0.12761,-0.0151,0.05245
-0.08213,0.99563,-0.04432,0.05539,-0.0316,0.02225
-0.08824,0.99559,-0.03181,0.03155,0.00069,0.03772
-0.09515,0.99526,-0.02015,0.05682,0.0039,0.04603
-0.10278,0.99465,-0.01009,0.08815,0.0023,0.03615
-0.11136,0.99378,-0.00087,0.04521,-0.01814,0.03612
-0.11952,0.99279,0.00892,0.12108,0.00892,0.0566
-0.12857,0.99151,0.01938,0.09718,0.01684,-0.003
-0.13758,0.99003,0.03011,0.05117,0.05312,-0.05057
-0.14633,0.98839,0.04072,0.008,0.02064,-0.05209
-0.15232,0.98703,0.05056,0.07687,0.08203,-0.0394
-0.15821,0.9856,0.05962,0.09774,0.07919,-0.12013
-0.1656,0.98408,0.06447,0.13149,0.05524,-0.1743
-0.17538,0.98243,0.06373,0.20318,0.03188,-0.09083
-0.18497,0.98092,0.05986,0.24172,0.09889,-0.03249
-0.19362,0.9797,0.05191,0.21445,0.28703,-0.06471
-0.1994,0.97917,0.03815,0.22282,0.33231,-0.07208
-0.20087,0.9795,0.01527,0.30535,0.27026,-0.09911
-0.19603,0.98044,-0.01752,0.14731,0.23248,-0.10159
-0.18394,0.98114,-0.05931,-0.02593,0.20198,-0.11696
-0.16695,0.97975,-0.11052,-0.35545,0.12749,-0.21566
-0.1511,0.97434,-0.1668,-0.25601,0.19511,-0.02258
-0.1331,0.96505,-0.22576,-0.15889,0.16685,0.14009
-0.10401,0.95516,-0.27722,-0.01959,0.21479,0.37696
-0.06598,0.9484,-0.31014,0.07636,0.15895,0.27512
-0.03056,0.94406,-0.32836,0.10606,0.16608,0.15032
-0.00102,0.94059,-0.33953,0.18423,0.08884,0.30045
0.02822,0.93639,-0.34982,0.22541,0.05073,0.35642
0.05776,0.93232,-0.35698,0.17339,0.01841,0.28948
0.08318,0.92837,-0.36223,-0.00598,-0.01,0.31444
0.10527,0.926,-0.36255,-0.11225,-0.03287,0.22925
0.11925,0.9244,-0.3623,-0.10755,-0.0592,0.26212
0.12696,0.92275,-0.36389,-0.0832,-0.0882,0.38029
0.13453,0.92254,-0.36169,-0.163,-0.07812,0.31051
0.14045,0.92411,-0.35536,-0.17475,-0.0652,0.25319
0.14343,0.92657,-0.34769,-0.46703,-0.02016,0.24033
0.1465,0.92882,-0.34032,-0.38959,-0.05126,0.24307
0.14902,0.92982,-0.33649,-0.27282,-0.09556,0.22848
0.15222,0.93058,-0.33293,-0.23413,-0.06196,0.08569
0.15482,0.9317,-0.32859,-0.19826,-0.03079,0.01095
0.15593,0.93234,-0.32624,-0.04442,0.17217,-0.22218
0.1559,0.93084,-0.33049,0.05129,0.17637,-0.27588
0.15487,0.92671,-0.34238,0.07736,0.1374,-0.24377
0.15222,0.92162,-0.35698,0.05988,-0.0757,-0.0632
0.14928,0.91824,-0.3668,0.06901,-0.17776,0.03149
0.14791,0.91748,-0.36926,0.10501,-0.18724,0.02679
0.14816,0.91889,-0.36563,0.13777,-0.1518,0.02228
0.15223,0.92125,-0.35794,0.28443,-0.10834,0.06948
0.15555,0.92414,-0.34894,0.30696,-0.04914,0.06407
0.15359,0.92825,-0.33876,0.3079,-0.04063,0.12494
0.15114,0.93506,-0.32065,0.33188,0.02913,0.48987
0.15387,0.94595,-0.28547,0.07968,0.58347,0.51733
0.14882,0.95248,-0.26577,-0.09822,1.14319,-0.31827
0.13644,0.94817,-0.28697,-0.7449,0.07525,-0.15154
0.1245,0.94909,-0.28934,-0.92483,-0.54154,-0.10122
0.10805,0.95824,-0.26475,-0.89806,-0.52756,0.31065
0.08664,0.96945,-0.22946,-0.35976,0.09724,0.83925
0.05975,0.97785,-0.20059,-0.04423,0.45813,0.75851
0.0297,0.98219,-0.18552,0.2021,0.65441,0.64123
0.00862,0.98486,-0.17313,0.61752,0.038,0.06246
-0.00608,0.9878,-0.15557,0.01499,-0.0866,0.16862
-0.01723,0.98978,-0.14156,-0.26704,-0.03598,0.30066
-0.02576,0.99124,-0.12948,-0.32769,-0.12982,0.17964
-0.03102,0.99301,-0.11386,-0.05885,0.00513,0.23711
-0.03362,0.99468,-0.09737,0.03335,0.03873,0.25319
-0.03449,0.99606,-0.08159,0.10987,0.04413,0.18794
-0.0361,0.99705,-0.06762,0.09475,0.00293,0.10991
-0.03956,0.99765,-0.05591,0.05199,-0.022,0.09229
-0.0452,0.99788,-0.04675,0.00579,0.0404,0.01226
-0.05258,0.99785,-0.039,0.00322,0.00274,0.0584
-0.05929,0.99782,-0.02883,0.01557,-0.05797,0.09164
-0.0646,0.99779,-0.01553,-0.0061,-0.05737,0.04759
-0.07096,0.99747,-0.00228,-0.03251,-0.02132,0.01581
-0.07819,0.99688,0.01049,-0.04232,0.02337,0.02318
-0.08571,0.99606,0.02266,0.01632,0.03812,0.01201
-0.09375,0.99506,0.03239,0.11148,0.01757,0.00162
-0.10279,0.99384,0.04139,0.12498,0.00725,-0.01818
-0.11187,0.99242,0.05072,0.13153,0.0117,-0.006
-0.11908,0.99102,0.06079,0.09806,0.01841,-0.00865
-0.12514,0.98954,0.07174,0.12504,0.04312,0.00607
-0.1314,0.98782,0.08322,0.11505,0.035,-0.01451
-0.13764,0.98602,0.09391,0.14153,0.10015,0.00624
-0.14527,0.98402,0.1029,0.23005,0.11342,0.0179
-0.15265,0.98206,0.11071,0.26084,0.08435,-0.00988
-0.16055,0.98006,0.11702,0.23253,0.08718,-0.0524
-0.16709,0.97874,0.11889,0.12944,0.19531,-0.04586
-0.17411,0.97808,0.11416,0.13497,0.34156,-0.01275
-0.17878,0.97821,0.10555,0.05562,0.18587,-0.09241
-0.17805,0.98012,0.08744,-0.00136,0.2115,-0.21969
-0.17092,0.98356,0.05826,-0.07414,0.3075,-0.18503
-0.15807,0.9872,0.02111,-0.16241,0.20923,-0.10854
-0.14047,0.9898,-0.02374,-0.29621,0.03439,-0.16402
-0.11983,0.98998,-0.07468,-0.42243,0.19123,-0.09424
-0.09599,0.98679,-0.1305,-0.51099,0.22461,-0.03563
-0.06934,0.9805,-0.18387,-0.58593,0.22692,0.00106
-0.04677,0.97252,-0.22805,-0.53521,0.14442,0.07548
-0.03398,0.96372,-0.26474,-0.18947,0.07382,0.18683
-0.02595,0.95442,-0.29734,-0.01937,0.00367,0.23474
-0.02172,0.94355,-0.33052,0.08286,0.01509,0.18725
-0.01682,0.93278,-0.36006,-0.03693,0.01318,0.18792
-0.01124,0.92335,-0.38379,-0.13634,0.03522,0.18934
-0.00632,0.91514,-0.40308,-0.21296,-0.12773,0.24481
-0.00127,0.90827,-0.41837,-0.27108,-0.19765,0.31248
0.00422,0.9035,-0.42856,-0.25105,-0.18962,0.33667
0.00643,0.90088,-0.43402,-0.22132,-0.1606,0.28825
0.00602,0.90015,-0.43554,-0.16158,-0.23079,0.19542
0.00527,0.90143,-0.43288,-0.19826,-0.23847,0.16564
0.00528,0.90397,-0.42755,-0.16548,-0.22882,0.14029
0.00684,0.9066,-0.42192,-0.21692,-0.15993,-0.01292
0.00447,0.90817,-0.41858,-0.13958,-0.12405,-0.02106
0.00247,0.90902,-0.41674,0.00518,-0.10004,-0.03379
0.00138,0.91023,-0.4141,0.10619,-0.02279,-0.11106
0.00237,0.9122,-0.40973,0.27072,-0.00821,-0.20588
0.01028,0.91415,-0.40524,0.29313,-0.03962,-0.27551
0.0277,0.91629,-0.39955,0.20686,-0.1019,-0.27478
0.05468,0.91939,-0.38953,0.47456,-0.06355,-0.28207
0.08338,0.92443,-0.37211,0.4134,-0.05498,-0.22161
0.11221,0.92993,-0.35019,0.25666,-0.03711,-0.12083
0.14386,0.93435,-0.32603,0.0614,0.0198,-0.00309
0.17393,0.93939,-0.29544,-0.30045,0.15965,0.09907
0.18752,0.94594,-0.26465,-0.70104,0.36286,-0.24611
0.18763,0.94964,-0.25093,-0.72525,0.32416,-0.21139
0.18633,0.95179,-0.24365,-0.75806,0.01095,0.04735
0.182,0.95709,-0.22551,-0.89801,-0.30905,0.29771
0.17221,0.9652,-0.19681,-0.81552,-0.31232,0.40201
0.1555,0.97328,-0.16892,-0.34176,-0.0884,0.73074
0.13628,0.98033,-0.14277,0.49196,0.60718,0.536
0.12958,0.98497,-0.11419,0.42686,0.28383,0.20005
0.13254,0.9876,-0.08407,-0.0042,0.06252,0.15538
0.1363,0.98912,-0.05536,-0.16851,0.058,0.10139
0.13719,0.99011,-0.02909,-0.38914,0.05937,0.11026
0.13395,0.99096,-0.00669,-0.19557,0.04554,0.09941
0.12623,0.9919,0.01426,-0.07355,-0.00668,0.13474
0.11764,0.9923,0.03855,-0.02956,-0.03216,0.09997
0.10612,0.99244,0.06164,-0.04474,-0.0434,0.09177
0.09229,0.99257,0.07927,-0.07379,-0.05975,0.07258
0.0788,0.99232,0.09531,0.01376,-0.00335,0.05319
0.06408,0.99143,0.11383,0.09632,0.0078,-0.03403
0.04921,0.98972,0.13424,0.14766,-0.00858,-0.08149
0.03668,0.98749,0.15335,0.1882,-0.02284,-0.13928
0.02443,0.98467,0.1727,0.20342,-0.04807,-0.27429
0.00949,0.98164,0.19049,0.17521,0.00681,-0.31986
-0.00474,0.97912,0.20319,0.18664,0.15906,-0.28327
-0.01868,0.97665,0.21401,0.25014,0.12145,-0.22701
-0.03263,0.97395,0.22436,0.3088,0.07237,-0.23483
-0.04544,0.97134,0.23329,0.37477,0.0652,-0.25986
-0.05603,0.96938,0.23908,0.34119,0.16827,-0.28815
-0.06394,0.969,0.23864,0.18627,0.21582,-0.36799
-0.06778,0.97028,0.23229,0.10046,0.22162,-0.42203
-0.06967,0.97427,0.21433,0.01411,0.20676,-0.53315
-0.06968,0.98182,0.17653,0.21711,0.21247,-0.47501
-0.05704,0.99065,0.12388,0.19901,0.15104,-0.3892
-0.03023,0.99821,0.05156,-0.08066,0.051,-0.29627
0.00479,0.99924,-0.03857,-0.62339,0.93042,-0.24685
0.03918,0.99257,-0.11516,-0.86114,0.929,0.41387
0.07117,0.98212,-0.17427,-0.89983,0.61618,1.04486
0.11239,0.97068,-0.21248,-0.23832,0.26544,0.02101
0.15796,0.95981,-0.23197,0.09781,0.49971,-0.45661
0.20336,0.94753,-0.24664,0.23937,0.18065,-0.12361
0.24848,0.92927,-0.27332,-0.2006,0.17319,0.09392
0.27845,0.91317,-0.29761,-0.1923,-0.00033,0.16962
0.29611,0.89992,-0.3201,-0.24261,-0.27412,0.22025
0.30501,0.88508,-0.35156,-0.22497,-0.3219,0.24798
0.30947,0.87024,-0.38328,-0.22732,-0.46558,0.42448
0.31132,0.85798,-0.40858,-0.33053,-0.41928,0.43005
0.31209,0.85057,-0.42323,-0.39441,-0.38675,0.38356
0.30893,0.848,-0.43065,-0.47122,-0.35685,0.35913
0.30206,0.85022,-0.43114,-0.47426,-0.43578,0.26242
0.28936,0.85624,-0.42793,-0.34882,-0.59002,0.18151
0.27398,0.86619,-0.4179,-0.30111,-0.56396,-0.0057
0.25925,0.87964,-0.39876,-0.22203,-0.2385,-0.42063
0.25112,0.8932,-0.37299,0.48989,0.94824,-0.74243
0.25072,0.90346,-0.3477,0.75233,1.05341,-0.79799
0.25139,0.90818,-0.33467,0.47664,0.32926,-0.77754
0.25073,0.90823,-0.33504,0.03367,-0.17314,-0.54261
0.25032,0.90604,-0.34121,-0.1467,-0.17058,-0.34008
0.24445,0.90733,-0.34205,-0.1585,0.20677,0.29266
0.23915,0.91682,-0.31974,0.16036,0.17314,0.9074
0.24412,0.92931,-0.27708,-0.01215,0.15708,0.39182
0.26123,0.93025,-0.25765,-0.52795,0.6215,-0.63582
0.26087,0.92783,-0.26661,-0.74488,-0.45781,0.0388
0.25121,0.93712,-0.24227,-0.64999,-0.46628,0.39449
0.23547,0.95095,-0.20061,-0.51524,-0.03159,0.81918
0.21062,0.96317,-0.16712,-0.30776,0.24166,0.71316
0.18363,0.9714,-0.15055,0.23405,0.62527,0.3118
0.16305,0.97729,-0.13534,0.14684,-0.01427,0.05403
0.1466,0.98308,-0.10982,-0.2655,-0.11708,0.20763
0.13234,0.98797,-0.07999,-0.32582,-0.11158,0.2045
0.11892,0.99161,-0.0506,-0.21823,-0.01482,0.19792
0.10715,0.99406,-0.01903,0.0128,-0.00308,0.13965
0.09557,0.99532,0.01405,0.06964,-0.03014,0.12689
0.08334,0.99555,0.04387,0.02718,-0.06226,0.04489
0.06837,0.99538,0.0674,-0.10495,-0.04283,-0.15217
0.05394,0.9946,0.08858,-0.10142,-0.05442,-0.1212
0.03902,0.99324,0.10926,-0.11357,-0.16648,-0.08981
0.02418,0.99138,0.12875,0.00124,-0.11938,-0.07486
0.00827,0.9891,0.14695,0.06402,-0.08177,-0.10646
-0.00882,0.98639,0.16413,0.07594,-0.03319,-0.17373
-0.02733,0.98316,0.18064,0.07213,-0.00755,-0.18801
-0.04754,0.97925,0.19695,0.08703,0.01745,-0.18746
-0.06932,0.97462,0.21284,0.16313,0.23281,-0.16775
-0.09034,0.9693,0.22868,0.27221,0.25615,-0.16352
-0.10998,0.9642,0.24126,0.40355,0.20216,-0.23222
-0.12867,0.96044,0.24694,0.54855,0.27915,-0.34116
-0.14443,0.95818,0.247,0.54764,0.35503,-0.41456
-0.15623,0.958,0.24047,0.43655,0.38191,-0.33033
-0.16432,0.961,0.22242,0.49639,0.54401,-0.34887
-0.16287,0.9681,0.19039,0.5253,0.45253,-0.42726
-0.14193,0.97898,0.14645,0.23431,0.1623,-0.4726
-0.10168,0.99077,0.08956,-0.20287,0.25534,-0.49198
-0.05226,0.99847,0.01761,-0.51898,0.47131,-0.11998
-0.00485,0.99909,-0.04232,-0.75598,0.69479,0.84718
0.03484,0.99537,-0.0895,-0.34801,0.5889,0.10359
0.08219,0.98813,-0.12973,-0.14689,0.531,-0.5477
0.13265,0.97841,-0.15845,-0.0812,0.38547,-0.36184
0.18036,0.96502,-0.19024,-0.16684,0.20549,0.21399
0.22968,0.94933,-0.21451,-0.09942,-0.08312,0.25252
0.27331,0.93341,-0.23244,-0.22341,-0.11556,0.20704
0.30024,0.91699,-0.26263,-0.19762,-0.28773,0.19964
0.31551,0.90164,-0.2958,-0.2175,-0.34344,0.31986
0.32438,0.88769,-0.32677,-0.25331,-0.38361,0.37182
0.32897,0.8763,-0.35195,-0.35345,-0.43697,0.43871
0.32979,0.86815,-0.37088,-0.43838,-0.40538,0.45285
0.32432,0.86471,-0.38351,-0.47172,-0.44122,0.46586
0.31355,0.86627,-0.38892,-0.46348,-0.64094,0.42005
0.29959,0.87275,-0.38541,-0.43451,-0.72641,0.14705
0.28125,0.88461,-0.37196,-0.36615,-0.53244,-0.08026
0.25593,0.90058,-0.35135,0.14106,0.49357,-0.36447
0.23196,0.91557,-0.32852,0.56069,1.23392,-0.80016
0.23561,0.91387,-0.33064,1.12513,1.69817,-1.44224
0.24845,0.90486,-0.34567,-0.05009,-0.37183,-0.54755
0.25913,0.90052,-0.34916,-0.282,-0.54207,-0.2877
0.26406,0.89881,-0.34987,-0.66552,-0.57727,0.12222
0.26023,0.90273,-0.34256,-0.35017,-0.11378,1.36425
0.25697,0.92008,-0.29564,-0.3305,0.5434,0.32657
0.25536,0.9336,-0.25135,0.18535,1.53857,-1.18925
0.26813,0.92405,-0.27245,-0.4641,-0.33068,0.63291
0.26695,0.92611,-0.26655,-0.7135,-0.71642,0.48069
0.25882,0.93639,-0.23703,-0.78702,-0.60536,0.56227
0.24242,0.9502,-0.19583,-0.75583,-0.30328,0.83069
0.21677,0.96122,-0.17048,-0.34694,0.48977,0.50596
0.18346,0.97039,-0.15709,0.27746,0.93821,0.04122
0.16165,0.97797,-0.13206,0.25545,0.06285,0.07252
0.1487,0.98426,-0.0954,-0.24775,-0.1179,0.26965
0.14249,0.98781,-0.06255,-0.44819,-0.07042,0.24312
0.13747,0.98999,-0.03192,-0.31478,-0.12762,0.13348
0.12934,0.99159,0.00016,-0.10472,-0.14235,0.17631
0.11858,0.99245,0.03096,0.0818,-0.0906,0.08146
0.10392,0.99281,0.05927,0.07603,-0.03392,-0.06106
0.08892,0.99235,0.08557,0.00711,-0.06613,-0.15708
0.07384,0.99145,0.10754,-0.00507,-0.11852,-0.09234
0.05708,0.99042,0.12567,0.05418,-0.09188,-0.09847
0.03973,0.98883,0.14362,0.17843,-0.06228,-0.13276
0.02145,0.98648,0.16243,0.22298,-0.05423,-0.17069
0.00212,0.98346,0.18105,0.18535,-0.0255,-0.21721
-0.0198,0.97998,0.19808,0.12085,0.16823,-0.21671
-0.0424,0.97596,0.21374,0.15047,0.21164,-0.21989
-0.06477,0.97142,0.22832,0.15805,0.16429,-0.13881
-0.08732,0.96715,0.2387,0.38173,0.22312,-0.1769
-0.10862,0.9636,0.24424,0.51073,0.34189,-0.25569
-0.12757,0.96093,0.24561,0.55259,0.36172,-0.45491
-0.14317,0.96106,0.23632,0.42842,0.32606,-0.37254
-0.15406,0.96483,0.21296,0.48734,0.43594,-0.32972
-0.15627,0.97242,0.17311,0.55219,0.49619,-0.52955
-0.1372,0.98307,0.12141,0.20299,0.0584,-0.43815
-0.09508,0.9938,0.05749,-0.02653,0.14388,-0.31713
-0.03972,0.99907,-0.01641,-0.30118,0.53873,-0.10678
0.01551,0.99729,-0.0719,-0.63503,0.83047,0.70154
0.06255,0.99117,-0.11686,-0.52951,0.88943,0.71429
0.11271,0.98269,-0.14701,0.01136,0.52264,-0.51732
0.16263,0.9726,-0.16611,0.01094,0.37262,-0.10014
0.21044,0.9591,-0.18927,-0.01308,0.24489,0.17702
0.25881,0.94383,-0.20544,-0.09479,-0.06513,0.26229
0.29957,0.92744,-0.22382,-0.13787,-0.12178,0.17565
0.32444,0.91226,-0.25003,-0.18188,-0.3067,0.21729
0.33617,0.89889,-0.28102,-0.30559,-0.40297,0.40631
0.33987,0.88787,-0.31011,-0.39075,-0.47214,0.42423
0.34014,0.87957,-0.33264,-0.43555,-0.45271,0.4582
0.33747,0.87386,-0.34997,-0.54015,-0.46218,0.49641
0.3328,0.87125,-0.36078,-0.53109,-0.55142,0.46268
0.32491,0.87294,-0.36388,-0.4773,-0.7283,0.43642
0.31361,0.88013,-0.35638,-0.50229,-0.6839,0.29457
0.29724,0.89331,-0.3371,-0.33998,-0.32914,0.01871
0.27766,0.91015,-0.30746,-0.05417,0.43553,-0.29684
0.25479,0.92497,-0.28195,1.21869,1.74948,-1.0996
0.2534,0.92337,-0.2884,0.82868,0.99106,-1.43878
0.27191,0.91455,-0.29942,0.32599,0.09996,-1.05522
0.28746,0.91161,-0.2938,-0.46251,-0.68928,-0.18798
0.29002,0.91153,-0.29154,-0.66488,-0.5219,0.08713
0.28198,0.91725,-0.28129,-0.15849,0.49267,1.34575
0.27464,0.93191,-0.23688,0.37567,1.25271,-0.3289
0.28923,0.92965,-0.22822,-0.4825,1.0234,-1.1256
0.29068,0.92224,-0.25489,-0.98808,-0.34807,-0.2987
0.27475,0.93094,-0.24052,-0.75446,-0.55809,0.82824
0.25598,0.94659,-0.19602,-0.7375,-0.43556,0.95811
0.22837,0.96094,-0.15631,-0.60369,0.16119,0.7917
0.19226,0.97146,-0.13892,-0.11518,0.84191,0.34398
0.15538,0.98102,-0.11593,0.40928,0.05868,-0.0427
0.13494,0.98812,-0.07352,0.13517,-0.17438,0.08336
0.11966,0.99192,-0.04205,-0.27002,-0.10334,0.25667
0.11269,0.99344,-0.01913,-0.30827,-0.23731,0.25994
0.10583,0.99432,0.01069,-0.2465,-0.24615,0.23458
0.09766,0.99417,0.04558,-0.02485,-0.1756,0.15394
0.08681,0.99328,0.07643,0.09534,0.02109,-0.12103
0.07377,0.99194,0.10297,0.06385,-0.02101,-0.34736
0.06047,0.9909,0.12017,-0.08405,-0.06646,-0.16772
0.04641,0.9906,0.1286,-0.01546,-0.12004,0.01044
0.02966,0.99,0.13788,0.08693,-0.12498,-0.02234
0.01154,0.98845,0.15102,0.16844,-0.10824,-0.08569
-0.00858,0.98602,0.16637,0.14296,-0.072,-0.07189
-0.03056,0.98284,0.18188,0.15659,-0.00186,-0.0853
-0.05487,0.97863,0.19815,0.15932,0.19552,-0.14952
-0.07992,0.97312,0.21596,0.16473,0.27159,-0.27785
-0.10406,0.96767,0.22973,0.23826,0.21171,-0.29795
-0.1273,0.96411,0.23298,0.53906,0.26342,-0.23621
-0.14683,0.96202,0.2301,0.91757,0.34132,-0.32991
-0.16325,0.96107,0.22288,0.74683,0.30988,-0.38367
-0.17313,0.96374,0.20305,0.55443,0.5043,-0.46457
-0.17032,0.9704,0.17121,0.45087,0.29757,-0.51328
-0.14748,0.98077,0.12781,0.33356,0.15189,-0.52045
-0.10358,0.99195,0.07278,-0.26333,0.36712,-0.35061
-0.04922,0.99878,0.00138,-0.47013,0.52311,-0.15905
0.00533,0.99851,-0.05424,-0.83149,0.72128,0.71914
0.05501,0.99368,-0.09778,-0.22791,0.62125,-0.31808
0.11007,0.98519,-0.13146,-0.13616,0.50015,-0.55666
0.16613,0.97336,-0.15796,-0.08509,0.42349,-0.30834
0.21965,0.95786,-0.18507,-0.07955,0.15403,0.36696
0.26942,0.94217,-0.19927,-0.05934,-0.08159,0.21064
0.31489,0.92405,-0.21673,-0.17031,-0.10657,0.17269
0.34431,0.90651,-0.24431,-0.27615,-0.34405,0.27875
0.3649,0.89025,-0.27255,-0.29401,-0.36709,0.36133
0.37778,0.8763,-0.29895,-0.35198,-0.47252,0.37436
0.3858,0.86572,-0.31887,-0.46736,-0.4593,0.36462
0.3888,0.85959,-0.33156,-0.55474,-0.51727,0.41396
0.38501,0.85893,-0.33764,-0.53757,-0.66416,0.416
0.37465,0.86431,-0.33555,-0.43544,-0.83155,0.39616
0.35729,0.87571,-0.32476,-0.46544,-0.72842,0.27332
0.33168,0.89252,-0.30561,-0.13934,-0.27791,0.01595
0.30114,0.91114,-0.2813,0.32784,0.81956,-0.60462
0.27659,0.92236,-0.26969,1.98673,1.90721,-1.05649
0.29895,0.91328,-0.27664,0.71413,0.59769,-1.4367
0.31533,0.90436,-0.28757,-0.13771,-0.43829,-0.61044
0.32527,0.9006,-0.28829,-0.70832,-0.73611,0.11233
0.32362,0.9007,-0.28983,-0.59355,-0.45157,1.28872
0.31638,0.91334,-0.25632,-0.35291,0.98302,0.19763
0.30327,0.93172,-0.19977,0.68728,2.32978,-1.39464
0.31799,0.92067,-0.22636,0.11035,1.21193,-0.23073
0.31671,0.91569,-0.2474,-1.08332,-1.1052,0.34252
0.29975,0.92682,-0.22617,-1.05781,-0.84624,0.74956
0.27863,0.94312,-0.18135,-0.97742,-0.63931,0.97467
0.24629,0.95722,-0.15184,-0.78172,0.17786,0.70183
0.19537,0.97049,-0.14133,0.19306,1.26516,0.15558
0.14956,0.98232,-0.11252,0.57356,0.65914,-0.01758
0.13827,0.98855,-0.06034,0.40977,-0.17687,-0.04808
0.12632,0.99148,-0.0317,-0.2678,-0.15578,0.15911
0.11663,0.99299,-0.0191,-0.35903,-0.23661,0.25793
0.11084,0.99383,0.00191,-0.25464,-0.25392,0.38218
0.09993,0.99446,0.03243,0.02117,-0.02432,-0.04226
0.08286,0.99428,0.06732,0.07476,0.01695,-0.18053
0.06487,0.99305,0.09813,0.02093,-0.09684,-0.29169
0.05123,0.99236,0.1122,-0.08399,-0.12805,0.00161
0.0389,0.99163,0.12308,-0.06463,-0.1391,0.02272
0.02502,0.98996,0.13905,0.03184,-0.07407,-0.08589
0.00773,0.98767,0.1563,0.06685,-0.05298,-0.12625
-0.01295,0.98493,0.17243,0.0966,-0.01973,-0.10179
-0.03583,0.9816,0.18753,0.1187,0.16685,-0.14863
-0.05873,0.97732,0.20344,0.17348,0.21249,-0.19416
-0.08178,0.97273,0.217,0.25816,0.10403,-0.25772
-0.1029,0.96967,0.22168,0.59524,0.26937,-0.15609
-0.12067,0.96731,0.22301,0.83485,0.38221,-0.24148
-0.13594,0.96538,0.22258,0.69105,0.33485,-0.33813
-0.14739,0.96636,0.21072,0.55499,0.58002,-0.34785
-0.151,0.97121,0.18422,0.59387,0.58708,-0.4122
-0.13878,0.97944,0.14637,0.54677,0.36751,-0.43461
-0.10316,0.98977,0.09855,0.02233,0.19999,-0.4915
-0.05053,0.99819,0.03235,-0.33449,0.42234,-0.30309
0.00858,0.99946,-0.03152,-0.62995,0.59948,0.11523
0.06281,0.99504,-0.07711,-0.54284,0.74526,0.31577
0.1146,0.98634,-0.1183,-0.36169,0.66711,-0.18446
0.16902,0.9748,-0.14557,-0.1394,0.56876,-0.61117
0.2188,0.96018,-0.17371,-0.06168,0.26928,0.1917
0.26835,0.94319,-0.19591,0.05761,0.06298,0.34358
0.31873,0.92473,-0.20803,-0.19764,-0.03484,0.18455
0.35589,0.90551,-0.23106,-0.25007,-0.28474,0.16433
0.37711,0.88864,-0.26096,-0.27403,-0.30968,0.24645
0.38886,0.87417,-0.29087,-0.34187,-0.4674,0.38778
0.39508,0.86182,-0.31808,-0.43235,-0.51245,0.43911
0.39842,0.85277,-0.3377,-0.47015,-0.46805,0.4648
0.39736,0.84911,-0.348,-0.59118,-0.51058,0.4586
0.39049,0.85137,-0.35026,-0.54563,-0.69504,0.41798
0.37728,0.85982,-0.34403,-0.51372,-0.79804,0.353
0.35719,0.87483,-0.32724,-0.48899,-0.6249,0.07308
0.32855,0.89451,-0.30315,0.11296,0.5857,-0.46349
0.29456,0.91282,-0.28283,1.83612,2.07787,-1.03732
0.28453,0.9146,-0.28729,1.84615,2.07609,-1.03285
0.30704,0.90178,-0.30414,0.28712,-0.21576,-0.86086
0.32552,0.89489,-0.30527,-0.361,-0.70326,-0.28631
0.33763,0.89328,-0.29673,-0.68643,-0.6674,0.03928
0.33339,0.89711,-0.28988,-0.5324,0.51446,1.09183
0.3215,0.91147,-0.25662,-0.27563,0.62093,1.04137
0.33312,0.9124,-0.23782,0.4626,1.47422,-0.43479
0.34233,0.9028,-0.26028,-1.0509,-0.81668,0.21048
0.32538,0.91317,-0.24543,-0.88527,-0.5863,0.80973
0.30317,0.93006,-0.20752,-0.81412,-0.52477,0.85876
0.2731,0.94835,-0.16137,-0.48497,0.55971,0.63339
0.232,0.96282,-0.13837,0.42128,1.03588,0.15172
0.19936,0.9721,-0.12359,0.65551,0.65428,-0.00411
0.17653,0.97902,-0.10171,0.07672,-0.16027,0.08219
0.15912,0.98467,-0.07135,-0.31783,-0.1601,0.25905
0.14751,0.98819,-0.04139,-0.4293,-0.1369,0.25286
0.13759,0.99043,-0.01065,-0.29836,-0.17182,0.20808
0.12607,0.99177,0.02191,0.08037,-0.01967,0.08469
0.11105,0.99237,0.05353,0.15339,0.04599,0.01959
0.08962,0.99265,0.08129,0.23723,-0.0128,-0.15555
0.06889,0.99209,0.10486,0.04807,-0.14276,-0.13504
0.05249,0.99083,0.12441,-0.07512,-0.12661,-0.10806
0.03583,0.98915,0.14245,-0.06827,-0.12466,-0.11213
0.01762,0.98696,0.15995,0.11733,-0.14915,-0.10972
-0.00242,0.9839,0.17868,0.15192,-0.14842,-0.14869
-0.02205,0.98003,0.19757,0.16394,-0.02975,-0.21411
-0.04211,0.97563,0.21531,0.08644,0.18035,-0.19189
-0.06378,0.97118,0.22963,0.09107,0.17442,-0.18661
-0.08639,0.96823,0.23464,0.20259,0.13817,-0.18163
-0.10651,0.96631,0.23426,0.76296,0.35228,-0.20045
-0.12168,0.96432,0.2351,0.92089,0.34811,-0.26306
-0.13468,0.96498,0.22509,0.48252,0.65981,-0.21212
-0.13751,0.96925,0.20403,0.48079,0.69779,-0.33233
-0.12517,0.97713,0.17183,0.43973,0.59162,-0.51481
-0.08872,0.98756,0.12973,0.2031,0.15102,-0.47937
-0.0347,0.99683,0.0715,-0.26056,0.51448,-0.42538
0.02472,0.99967,0.0054,-0.52946,0.50429,-0.20628
0.07863,0.99576,-0.04754,-0.84178,0.69459,0.66719
0.12503,0.98809,-0.08964,-0.37498,0.66485,-0.34398
0.17648,0.977,-0.11969,-0.17758,0.60246,-0.59401
0.22725,0.96205,-0.15102,-0.03075,0.20076,0.09132
0.27853,0.94447,-0.17434,-0.02985,0.07101,0.30148
0.3267,0.92464,-0.19571,-0.19282,-0.03784,0.27586
0.36126,0.90474,-0.22568,-0.25878,-0.24779,0.20816
0.38309,0.88708,-0.25752,-0.2654,-0.27579,0.19609
0.39793,0.87032,-0.29015,-0.34832,-0.33358,0.35622
0.41114,0.85518,-0.31563,-0.3964,-0.47562,0.38693
0.41994,0.84391,-0.33385,-0.4272,-0.45999,0.42177
0.42099,0.83875,-0.34534,-0.53701,-0.51176,0.44547
0.41459,0.84121,-0.34709,-0.51328,-0.67733,0.44377
0.40198,0.85072,-0.33864,-0.50971,-0.83503,0.43212
0.38332,0.86673,-0.31912,-0.56493,-0.7473,0.25349
0.35874,0.88709,-0.29046,-0.20913,-0.30893,-0.14128
0.33017,0.90691,-0.2617,0.26915,0.87882,-0.90914
0.30985,0.91714,-0.25068,2.09375,2.27965,-1.02718
0.33228,0.90826,-0.25426,0.73443,0.5024,-1.45722
0.34516,0.90155,-0.26086,-0.21135,-0.53927,-0.59798
0.35983,0.8967,-0.25777,-0.57112,-0.76456,-0.27482
0.36498,0.89667,-0.25052,-0.89282,-0.04041,1.49564
0.35214,0.91233,-0.20891,-0.5497,0.17962,0.94685
0.34425,0.92243,-0.17492,-0.1295,0.79551,-0.23677
0.36768,0.90802,-0.20074,-0.38209,0.33289,-0.19892
0.36413,0.90939,-0.20101,-0.90363,-0.50623,0.54728
0.34369,0.92281,-0.17401,-0.8832,-0.51965,0.52027
0.31356,0.9404,-0.13159,-0.79251,-0.02859,0.80296
0.2785,0.95501,-0.10193,-0.42034,0.70829,0.52811
0.2432,0.9662,-0.0854,-0.01314,0.88598,0.19008
0.22019,0.97395,-0.05403,0.41243,0.31938,-0.23429
0.19969,0.97974,-0.01525,-0.07292,-0.13609,0.16613
0.18334,0.98296,0.01295,-0.30644,-0.07466,0.22942
0.17031,0.98466,0.03771,-0.27902,-0.18893,0.19639
0.15769,0.9853,0.06556,-0.08538,-0.1936,0.24735
0.1437,0.98477,0.09778,0.10817,-0.01019,0.09288
0.12794,0.98306,0.13122,0.06465,-0.01078,-0.22864
0.11016,0.9815,0.15655,-0.01972,-0.10118,-0.25867
0.09631,0.98051,0.1712,-0.05286,-0.16683,-0.09975
0.08078,0.97934,0.18535,-0.02497,-0.1471,-0.09347
0.06356,0.9776,0.2006,0.09862,-0.13437,-0.16088
0.04433,0.97537,0.21604,0.14247,-0.11625,-0.21137
0.02513,0.97229,0.23238,0.13464,-0.02764,-0.20357
0.0054,0.96894,0.24719,0.14553,0.20646,-0.14733
-0.0166,0.96474,0.26266,0.19143,0.26356,-0.16829
-0.03881,0.96028,0.27629,0.28946,0.21258,-0.21131
-0.0609,0.95677,0.28438,0.54944,0.25077,-0.3051
-0.08114,0.95428,0.28766,0.65872,0.33762,-0.35018
-0.0978,0.95403,0.28329,0.43616,0.37265,-0.27215
-0.11062,0.95718,0.2675,0.50227,0.44205,-0.28531
-0.11485,0.96399,0.23985,0.57731,0.59897,-0.51072
-0.0979,0.97463,0.20123,0.38348,0.17757,-0.58836
-0.05737,0.98674,0.15179,0.19781,0.12933,-0.52785
-0.00216,0.99663,0.08194,-0.38704,0.49263,-0.38529
0.05598,0.99834,0.01275,-0.74759,0.78864,0.73947
0.10305,0.99376,-0.04264,-0.6017,0.7511,0.46349
0.14891,0.98518,-0.0851,-0.40645,0.70077,-0.04194
0.20046,0.97337,-0.1112,-0.11985,0.44729,-0.5368
0.24916,0.95794,-0.14234,-0.23376,0.21468,0.11482
0.29485,0.94076,-0.16737,-0.15405,0.11847,0.34897
0.33854,0.92142,-0.19069,-0.15884,-0.14519,0.24376
0.36829,0.90332,-0.21991,-0.1826,-0.3344,0.1529
0.38538,0.88766,-0.25206,-0.19663,-0.36477,0.21393
0.39544,0.87363,-0.28352,-0.28781,-0.4798,0.34752
0.40288,0.86172,-0.30841,-0.38474,-0.54066,0.40042
0.40767,0.85317,-0.32542,-0.39707,-0.46982,0.42502
0.40674,0.84997,-0.33484,-0.5318,-0.51523,0.42294
0.40077,0.85284,-0.33472,-0.4863,-0.66056,0.3951
0.39025,0.8616,-0.32458,-0.44115,-0.78585,0.34965
0.37247,0.87606,-0.30622,-0.40928,-0.66722,0.0152
0.34588,0.89479,-0.28232,0.17585,0.474,-0.46435
0.31757,0.91146,-0.26149,0.20416,0.45733,-0.48518
0.32059,0.91205,-0.25567,1.82251,2.20892,-1.33349
0.33752,0.90235,-0.26801,0.26799,0.06919,-1.08597
0.34942,0.8961,-0.27366,-0.56522,-0.60341,-0.36018
0.35909,0.89275,-0.2721,-0.96579,0.291,0.71654
0.35479,0.8971,-0.26332,-0.62027,0.33931,1.12134
0.3481,0.90806,-0.23291,0.0032,0.50967,0.15613
0.36146,0.90358,-0.22997,-0.79303,-0.14152,-0.45944
0.35498,0.90527,-0.23339,-0.78194,-0.43884,-0.13729
0.33261,0.91945,-0.20972,-0.59631,-0.14672,0.7501
0.3012,0.93811,-0.17092,-0.54622,-0.00856,0.83152
0.26719,0.95352,-0.1393,-0.14216,0.30291,0.43387
0.24103,0.96349,-0.11649,0.10488,0.41129,0.31668
0.21918,0.97136,-0.09173,0.28554,0.26711,0.02284
0.19699,0.9785,-0.06105,-0.22317,-0.05497,0.1617
0.17492,0.98415,-0.02891,-0.27298,-0.08388,0.14576
0.15649,0.98767,-0.00217,-0.30495,-0.11739,0.15499
0.14227,0.9895,0.02504,-0.08502,-0.25153,0.12558
0.1292,0.98995,0.05735,-0.0221,-0.17539,0.0828
0.11344,0.98973,0.08688,0.04064,-0.00923,-0.127
0.09592,0.98944,0.10861,0.09474,-0.0121,-0.17077
0.07854,0.98882,0.1267,0.11281,-0.11376,-0.15999
0.06292,0.98769,0.14316,-0.04841,-0.11202,-0.07375
0.0491,0.98608,0.15878,-0.03407,-0.08865,-0.07093
0.03256,0.98402,0.17503,0.08478,-0.08483,-0.17591
0.01279,0.9811,0.19304,0.0932,-0.07044,-0.19379
-0.00793,0.97758,0.21039,0.08053,0.00831,-0.19619
-0.02904,0.97347,0.22692,0.15654,0.22012,-0.17377
-0.05034,0.96884,0.2425,0.23326,0.20339,-0.22758
-0.07145,0.96448,0.25427,0.30075,0.16746,-0.26261
-0.09078,0.96126,0.26022,0.62253,0.29501,-0.29591
-0.10644,0.95924,0.26176,0.66575,0.38505,-0.4228
-0.1217,0.95966,0.25343,0.50842,0.36065,-0.43992
-0.13273,0.9639,0.23079,0.57468,0.43495,-0.30396
-0.1324,0.97239,0.19215,0.70899,0.41085,-0.41003
-0.10877,0.98353,0.14427,0.60177,0.19532,-0.39006
-0.05987,0.99465,0.08413,-0.02487,0.23465,-0.43354
-0.00107,0.99993,0.01136,-0.31595,0.50683,-0.17733
0.05484,0.9976,-0.04205,-0.63106,0.78085,0.79541
0.10535,0.9909,-0.08367,-0.55305,0.91494,0.80524
0.15962,0.98037,-0.11564,-0.15072,0.77324,-0.61034
0.2116,0.96745,-0.13878,-0.00047,0.47426,-0.35588
0.26139,0.95032,-0.16897,-0.08822,0.32124,0.04787
0.31036,0.93222,-0.18606,-0.11362,-0.0711,0.2595
0.35416,0.91201,-0.20686,-0.2332,-0.2993,0.15565
0.38111,0.89457,-0.23342,-0.24142,-0.32174,0.18667
0.39646,0.87895,-0.26506,-0.36176,-0.44352,0.37601
0.40569,0.86508,-0.29502,-0.44495,-0.54346,0.3845
0.41095,0.85437,-0.31805,-0.48769,-0.55745,0.40429
0.41046,0.84797,-0.33535,-0.56259,-0.60861,0.44445
0.40421,0.847,-0.34524,-0.52828,-0.71159,0.45003
0.39337,0.85181,-0.34593,-0.48323,-0.79191,0.4423
0.37755,0.86241,-0.33718,-0.46368,-0.63841,0.16848
0.3552,0.87874,-0.31881,-0.01775,-0.10403,-0.09316
0.32831,0.89709,-0.29569,0.10848,0.43251,-0.36054
0.30827,0.90678,-0.28759,1.84537,2.13041,-1.26465
0.32894,0.89764,-0.29333,0.40123,0.09918,-1.10941
0.3423,0.89031,-0.30027,-0.02277,-0.30854,-0.67556
0.35405,0.88715,-0.29597,-0.9938,0.20519,0.83144
0.36032,0.88827,-0.28486,-0.52725,0.27975,1.30796
0.35755,0.89953,-0.251,0.17172,0.33706,0.37763
0.35573,0.90594,-0.22962,-0.04495,1.17391,-0.78585
0.36131,0.89712,-0.2542,-0.75848,-0.39909,0.05026
0.34554,0.90598,-0.24453,-0.69353,-0.39485,0.76007
0.3206,0.92444,-0.20643,-0.69097,-0.19942,0.90751
0.28826,0.94372,-0.16212,-0.63498,-0.00509,0.70301
0.25474,0.95804,-0.13135,-0.09213,0.63551,0.27317
0.22403,0.96826,-0.11076,0.48541,0.50797,-0.05157
0.1979,0.97622,-0.0884,-0.0456,-0.05926,0.19055
0.17332,0.98305,-0.05968,-0.36637,-0.14618,0.25037
0.15116,0.98805,-0.03007,-0.45008,-0.16058,0.17975
0.13224,0.99121,-0.00264,-0.16381,-0.16237,0.14556
0.1162,0.99283,0.02764,0.02491,-0.15107,0.09804
0.09672,0.99344,0.06092,0.25074,-0.05698,-0.00802
0.07618,0.99325,0.08737,0.29739,-0.039,-0.12526
0.05842,0.99256,0.10672,0.20007,-0.07531,-0.15129
0.04414,0.99147,0.12256,0.0451,-0.08522,-0.31137
0.03248,0.99,0.13724,-0.03417,-0.07504,-0.04105
0.02002,0.98824,0.15157,-0.01895,-0.12074,-0.06632
0.00512,0.98576,0.16802,0.05561,-0.09755,-0.11245
-0.01338,0.9825,0.18575,0.07516,0.03723,-0.12632
-0.03336,0.97851,0.20344,0.10172,0.1072,-0.13386
-0.0537,0.97367,0.22151,0.159,0.23725,-0.21164
-0.07401,0.96812,0.23925,0.38725,0.23788,-0.25546
-0.09368,0.96385,0.2494,0.51672,0.25115,-0.25189
-0.11006,0.96135,0.25234,0.71453,0.34804,-0.41886
-0.12629,0.96029,0.24877,0.5639,0.35795,-0.44783
-0.13542,0.96325,0.23192,0.58994,0.57596,-0.23056
-0.1329,0.97004,0.20332,0.58047,0.42942,-0.45354
-0.11036,0.97992,0.16602,0.49925,0.28294,-0.4522
-0.06691,0.99061,0.11913,0.07072,0.25231,-0.48073
-0.01237,0.99864,0.0506,-0.45526,0.47719,-0.05957
0.04187,0.99905,-0.01113,-0.59945,0.57733,0.57079
0.08693,0.99452,-0.05794,-0.41999,0.72258,0.11131
0.13507,0.98608,-0.09689,-0.22924,0.61092,-0.69178
0.18447,0.97487,-0.12484,-0.06562,0.31332,-0.26246
0.2284,0.9601,-0.16132,-0.10354,0.24357,0.16137
0.27342,0.94379,-0.18572,0.00081,-0.08037,0.31421
0.31843,0.92605,-0.20256,-0.22102,-0.23144,0.1844
0.34749,0.90853,-0.23197,-0.2279,-0.34785,0.20402
0.36458,0.89226,-0.26634,-0.26672,-0.42283,0.32751
0.3772,0.87735,-0.29658,-0.31066,-0.5134,0.34555
0.38739,0.8646,-0.31997,-0.32877,-0.48551,0.38183
0.39313,0.85506,-0.33809,-0.45996,-0.45106,0.41219
0.39277,0.85041,-0.35002,-0.48779,-0.56132,0.40018
0.38416,0.85217,-0.35528,-0.44562,-0.65689,0.38207
0.3693,0.85992,-0.35234,-0.43696,-0.76625,0.14484
0.34692,0.87372,-0.34095,0.0969,-0.15532,-0.20864
0.31906,0.89145,-0.32171,0.12475,-0.17306,-0.22788
0.2946,0.90498,-0.30695,1.66513,1.76117,-0.99
0.30494,0.901,-0.30855,0.82659,1.02135,-1.3381
0.31505,0.89521,-0.31517,-0.10547,-0.30535,-0.58504
0.32515,0.89274,-0.31191,-1.0033,0.18386,0.26521
0.32945,0.89264,-0.30765,-1.0299,0.7466,0.82485
0.33225,0.89693,-0.29175,0.25961,0.18898,0.93907
0.34353,0.8976,-0.27621,-0.09278,0.45391,-0.34826
0.34629,0.89166,-0.29157,-0.9228,-0.36516,-0.07072
0.32938,0.90388,-0.27294,-0.62203,-0.24316,0.75623
0.30365,0.92463,-0.22991,-0.4825,0.04004,0.82611
0.26701,0.94485,-0.1896,-0.35236,0.35924,0.587
0.23248,0.95824,-0.16647,0.1512,0.40156,0.21566
0.20334,0.96738,-0.15108,0.21057,0.18695,0.14376
0.17556,0.97612,-0.12792,-0.13149,-0.03883,0.20276
0.15013,0.984,-0.09585,-0.25783,-0.15301,0.21743
0.12892,0.98966,-0.06281,-0.30134,-0.12737,0.24369
0.10987,0.99347,-0.03045,-0.04884,-0.16443,0.08228
0.093,0.99565,0.00272,-0.03197,-0.16662,0.04912
0.0754,0.99647,0.03677,0.10932,-0.13712,0.01532
0.05492,0.99612,0.06862,0.214,-0.05064,-0.0984
0.03473,0.99507,0.09279,0.0275,-0.11325,-0.24142
0.01918,0.99369,0.11043,-0.06471,-0.10342,-0.24567
0.00604,0.99211,0.1252,-0.02309,-0.05752,-0.14915
-0.00779,0.99014,0.13982,0.01777,-0.05833,-0.02692
-0.02445,0.98758,0.15513,0.02177,-0.01435,-0.13679
-0.04403,0.98437,0.17047,0.04438,0.03226,-0.13913
-0.0659,0.9805,0.18513,0.095,0.21161,-0.13458
-0.08619,0.97591,0.20037,0.34346,0.19427,-0.22705
-0.10677,0.97128,0.21259,0.57558,0.25459,-0.22752
-0.12656,0.96839,0.21491,0.88564,0.37254,-0.31265
-0.14188,0.96673,0.21281,0.7899,0.35201,-0.50639
-0.15488,0.96757,0.19952,0.5138,0.35821,-0.32638
-0.15784,0.97235,0.17206,0.61685,0.53026,-0.32752
-0.1443,0.98062,0.13246,0.61499,0.21675,-0.30236
-0.10966,0.99017,0.0867,0.20605,0.20955,-0.45641
-0.05831,0.998,0.02436,-0.22705,0.36906,-0.23703
-0.00177,0.99928,-0.03777,-0.52087,0.73003,0.63054
0.05015,0.99548,-0.08062,-0.56663,0.91427,0.82552
0.10187,0.98735,-0.12144,-0.13518,0.61191,-0.40091
0.15599,0.97577,-0.15341,-0.01822,0.33426,-0.14099
0.20736,0.96131,-0.18132,-0.06872,0.29741,0.10103
0.25714,0.94387,-0.20731,-0.16747,0.27491,0.32595
0.30603,0.92647,-0.21907,-0.10673,-0.0988,0.28467
0.34953,0.90666,-0.23618,-0.17411,-0.32982,0.19319
0.37716,0.88864,-0.26088,-0.1946,-0.30604,0.29043
0.39295,0.87308,-0.28862,-0.28953,-0.42664,0.39688
0.4026,0.85981,-0.31407,-0.41899,-0.44059,0.42053
0.40834,0.84939,-0.33434,-0.51227,-0.44102,0.4645
0.41049,0.84255,-0.34871,-0.59236,-0.52251,0.48169
0.40517,0.84162,-0.35708,-0.5657,-0.65324,0.4922
0.39333,0.84756,-0.35626,-0.54621,-0.75346,0.43493
0.37588,0.8604,-0.34413,-0.51865,-0.59665,0.212
0.35281,0.87904,-0.32062,-0.1516,-0.1104,-0.04253
0.32595,0.89808,-0.29529,0.58338,1.13825,-0.97387
0.31014,0.90313,-0.29692,1.16997,1.15974,-1.35264
0.3315,0.89129,-0.30936,0.02156,-0.34264,-0.59421
0.34529,0.88415,-0.3147,-0.3007,-0.56264,-0.26779
0.35358,0.88193,-0.31174,-0.81845,-0.65108,0.39383
0.35506,0.88556,-0.29952,-0.79279,0.14525,1.37596
0.35348,0.90381,-0.24117,-0.39332,0.55844,0.59331
0.3443,0.91376,-0.21563,1.07252,2.39415,-1.35984
0.3606,0.89724,-0.25477,-0.83314,-0.99755,0.67999
0.35074,0.90147,-0.25363,-0.90589,-0.95699,0.39253
0.33143,0.91781,-0.21855,-0.85052,-0.6405,0.95257
0.30398,0.93766,-0.16844,-0.76299,-0.07972,0.73282
0.26676,0.95364,-0.13926,-0.59982,0.42014,0.59072
0.21908,0.96697,-0.13026,0.41485,0.95128,-0.18494
0.1882,0.97642,-0.10566,0.50239,0.36389,-0.15093
0.17025,0.98288,-0.07033,-0.02942,-0.21077,0.27124
0.15815,0.98638,-0.04504,-0.4314,-0.20995,0.33663
0.15443,0.98782,-0.01844,-0.45132,-0.23909,0.36718
0.14682,0.98898,0.01852,-0.17137,-0.17767,0.13393
0.13347,0.98949,0.05559,0.1596,0.03607,-0.18068
0.11655,0.98952,0.08511,0.1463,0.00332,-0.18372
0.09796,0.98942,0.10689,0.05576,-0.12413,-0.09348
0.08281,0.98905,0.12208,-0.02779,-0.1458,-0.03536
0.06854,0.98822,0.13677,0.08002,-0.09633,-0.0638
0.05269,0.98672,0.15356,0.11718,-0.11198,-0.1508
0.0359,0.98463,0.17085,0.07909,-0.1129,-0.14909
0.01837,0.98212,0.18733,0.03837,0.02998,-0.12176
-0.00153,0.97892,0.20421,0.08893,0.20111,-0.1693
-0.02369,0.97477,0.22191,0.1605,0.18226,-0.22286
-0.04668,0.97089,0.23489,0.34137,0.11315,-0.20256
-0.06741,0.96861,0.23924,0.67249,0.30179,-0.21148
-0.08432,0.9667,0.24156,0.85558,0.36046,-0.33022
-0.09944,0.96599,0.23866,0.48893,0.3695,-0.39429
-0.10962,0.96856,0.22328,0.49869,0.47171,-0.25581
-0.11081,0.97481,0.1935,0.65773,0.50315,-0.46127
-0.09362,0.98397,0.15171,0.5402,0.17524,-0.44976
-0.05534,0.99345,0.09993,0.12435,0.17148,-0.49104
-0.00179,0.99956,0.02943,-0.28943,0.39479,-0.19093
0.05475,0.99792,-0.03389,-0.60115,0.84295,0.7694
0.10498,0.99111,-0.0817,-0.4698,0.86111,0.44626
0.15269,0.9808,-0.12127,-0.18411,0.57181,-0.39572
0.20175,0.96816,-0.14816,0.06569,0.31864,-0.14634
0.24811,0.95183,-0.18013,-0.124,0.29394,0.21384
0.29495,0.93369,-0.203,-0.09577,0.09818,0.34727
0.34369,0.91453,-0.21332,-0.15903,-0.05186,0.18095
0.38008,0.89486,-0.234,-0.20345,-0.26948,0.19534
0.40178,0.87767,-0.26128,-0.19353,-0.27218,0.23682
0.41488,0.86245,-0.28992,-0.30308,-0.38103,0.36107
0.42191,0.84968,-0.31627,-0.41782,-0.42484,0.42943
0.42418,0.84049,-0.33712,-0.53822,-0.41689,0.47718
0.42212,0.83589,-0.35086,-0.60275,-0.53509,0.45714
0.41517,0.83664,-0.35729,-0.56824,-0.61042,0.43491
0.40545,0.84264,-0.35436,-0.49416,-0.74506,0.35068
0.39099,0.85491,-0.34095,-0.3483,-0.37409,-0.11843
0.36694,0.8733,-0.32045,-0.08437,-0.08604,-0.22116
0.33593,0.89219,-0.30191,0.34039,0.95935,-0.6837
0.32088,0.89629,-0.30608,1.04126,1.18183,-1.18652
0.34176,0.88429,-0.31816,0.34635,0.25853,-0.92763
0.36105,0.87652,-0.31834,-0.80859,-0.35553,0.05762
0.37334,0.87395,-0.31115,-0.87331,0.07014,0.24271
0.37267,0.87657,-0.3045,-0.72418,0.34243,0.68839
0.36171,0.88949,-0.27921,-0.01574,0.59992,-0.25186
0.35993,0.89541,-0.26208,0.44514,1.14579,-0.67813
0.36883,0.88646,-0.27955,-0.50718,-0.1243,0.46886
0.35958,0.89611,-0.26016,-0.75559,-0.40441,0.5929
0.34055,0.9135,-0.22255,-0.74921,-0.15271,0.80687
0.30861,0.93525,-0.17337,-0.69263,0.02454,0.6493
0.27057,0.95175,-0.14474,0.07997,0.75705,0.32519
0.23744,0.9627,-0.12971,0.36342,0.33809,0.12843
0.21179,0.9713,-0.10816,-0.1347,-0.05013,0.21583
0.19018,0.9791,-0.07195,-0.43156,-0.09363,0.23012
0.17134,0.9846,-0.03445,-0.43116,-0.15638,0.21462
0.15406,0.98805,0.00272,-0.1664,-0.2062,0.1674
0.13786,0.98957,0.0415,0.09782,-0.14178,0.12212
0.11907,0.98993,0.07647,0.16289,-0.00303,-0.0072
0.09923,0.9896,0.1041,0.22345,0.00874,-0.23383
0.08096,0.98941,0.1204,0.0501,-0.15147,-0.30892
0.06553,0.9895,0.12876,-0.03359,-0.20442,-0.21719
0.05135,0.9889,0.13933,0.03438,-0.10031,-0.09583
0.03603,0.98721,0.1552,0.08619,-0.03359,0.01849
0.0169,0.98472,0.17324,0.10091,-0.01898,-0.10781
-0.00659,0.98149,0.19137,0.08523,0.03026,-0.26753
-0.03276,0.97788,0.20652,0.15694,0.19372,-0.22417
-0.05607,0.97389,0.21995,0.34098,0.30901,-0.21339
-0.0747,0.96948,0.23346,0.50562,0.22353,-0.25539
-0.09094,0.96627,0.2409,0.6559,0.23223,-0.32126
-0.10514,0.96496,0.24035,0.52206,0.3794,-0.36922
-0.11804,0.96567,0.23134,0.46474,0.39955,-0.26401
-0.12476,0.97028,0.20728,0.58845,0.54701,-0.23719
-0.11628,0.97843,0.17069,0.56002,0.20492,-0.42893
-0.08373,0.98851,0.12576,0.32218,0.23605,-0.40032
-0.03175,0.99724,0.06694,-0.15149,0.36879,-0.48438
0.02661,0.99962,-0.0062,-0.55674,0.71115,0.66585
0.07809,0.99514,-0.0598,-0.64027,0.8473,1.02272
0.12425,0.98714,-0.10051,-0.25076,0.70024,-0.01268
0.1782,0.97514,-0.13165,-0.04017,0.47353,-0.50469
0.22883,0.96002,-0.16119,-0.0929,0.35947,-0.0879
0.27466,0.94231,-0.19132,-0.16915,0.19238,0.33286
0.31999,0.92426,-0.20817,-0.10522,-0.08309,0.23809
0.35834,0.90394,-0.23338,-0.22861,-0.18336,0.23048
0.38151,0.88594,-0.26372,-0.2584,-0.32387,0.25087
0.39498,0.86984,-0.29556,-0.32818,-0.49141,0.39059
0.40201,0.85601,-0.32498,-0.43144,-0.46777,0.43389
0.40665,0.84449,-0.3485,-0.54549,-0.51055,0.45638
0.4091,0.83627,-0.36507,-0.57681,-0.52638,0.46726
0.40532,0.8339,-0.3746,-0.54876,-0.60532,0.43051
0.39619,0.83859,-0.37389,-0.44556,-0.78753,0.32138
0.38186,0.85009,-0.36265,-0.44279,-0.64047,0.04424
0.35936,0.86767,-0.34351,-0.20256,-0.44256,-0.07831
0.33145,0.88714,-0.3211,0.89224,1.20081,-0.62772
0.31221,0.89777,-0.31069,1.83269,1.95624,-1.26142
0.32784,0.89104,-0.31394,0.94557,0.90222,-1.45116
0.33796,0.88632,-0.31656,-0.37217,-0.68841,-0.20442
0.34909,0.88454,-0.30938,-0.74179,-0.79764,0.21439
0.35311,0.88849,-0.29307,-0.76235,-0.0739,1.45092
0.33736,0.90769,-0.24954,0.98759,2.03089,-1.26274
0.3339,0.91096,-0.24217,0.50564,1.86396,-1.29577
0.35014,0.89617,-0.27252,-0.56034,-0.0453,0.18624
0.33741,0.90276,-0.26676,-0.7949,-0.48237,1.06126
0.31082,0.92116,-0.23419,-0.74526,-0.40303,1.01052
0.27827,0.94091,-0.19299,-0.59169,0.08206,0.7092
0.23954,0.95595,-0.16958,-0.01896,0.80251,0.45887
0.20315,0.96774,-0.14902,0.65689,0.62727,-0.16914
0.17738,0.97677,-0.12021,-0.04603,-0.15915,0.09863
0.15336,0.98384,-0.09233,-0.35302,-0.11436,0.23355
0.13676,0.98824,-0.0683,-0.41488,-0.2076,0.34149
0.12474,0.99147,-0.03756,-0.35931,-0.28857,0.19287
0.10953,0.99397,-0.00145,-0.02745,-0.23377,0.00676
0.08846,0.9956,0.03055,0.16699,-0.06456,0.06839
0.06698,0.99605,0.05813,0.26714,-0.0403,-0.08274
0.05026,0.99533,0.08231,0.06642,-0.10695,-0.31583
0.03749,0.99429,0.09984,-0.04954,-0.1321,-0.23397
0.02473,0.99297,0.11566,-0.05909,-0.08913,0.01218
0.00969,0.99131,0.13108,-0.01537,-0.03602,-0.00182
-0.00888,0.98884,0.14864,0.02946,0.11811,-0.17142
-0.0308,0.98551,0.16672,0.06492,0.195,-0.18503
-0.0535,0.9816,0.18327,0.1485,0.24254,-0.16452
-0.07536,0.97737,0.1976,0.54553,0.27049,-0.16441
-0.098,0.97422,0.20313,0.7508,0.33211,-0.20835
-0.11528,0.97233,0.20314,1.01561,0.3655,-0.37915
-0.12876,0.97292,0.19191,0.61247,0.46502,-0.16925
-0.13238,0.97719,0.16599,0.63149,0.59375,-0.09299
-0.11855,0.98428,0.13085,0.58321,0.34211,-0.40658
-0.08131,0.99261,0.09,0.05502,0.3025,-0.51257
-0.02696,0.99898,0.03587,-0.21175,0.38296,-0.48648
0.03174,0.99907,-0.0289,-0.52029,0.58296,0.13304
0.08148,0.99379,-0.07567,-0.42959,0.79445,0.43276
0.12686,0.98514,-0.11572,-0.20486,0.5388,-0.38593
0.17885,0.97268,-0.14798,0.01245,0.38192,-0.35833
0.2266,0.95707,-0.1807,-0.08472,0.33077,-0.05183
0.27247,0.93926,-0.20865,-0.11302,0.05297,0.40787
0.31854,0.92167,-0.22146,-0.18645,-0.09464,0.27952
0.35984,0.9014,-0.24079,-0.26633,-0.11835,0.22277
0.38834,0.88247,-0.26536,-0.24358,-0.33166,0.27917
0.40761,0.86555,-0.29097,-0.28525,-0.3663,0.31495
0.4202,0.85041,-0.31657,-0.32753,-0.43611,0.35972
0.42876,0.83806,-0.33734,-0.44546,-0.39628,0.3893
0.43231,0.8293,-0.35406,-0.60124,-0.42697,0.47369
0.43043,0.82527,-0.36557,-0.59244,-0.59114,0.4812
0.42419,0.82716,-0.36858,-0.53135,-0.70411,0.45411
0.4124,0.83537,-0.36342,-0.37283,-0.55712,0.10331
0.39242,0.84999,-0.35144,0.04423,-0.11187,-0.1238
0.36823,0.86781,-0.3336,0.23876,0.35774,-0.37503
0.3579,0.87598,-0.32335,1.73288,1.75054,-1.17291
0.37608,0.86893,-0.32172,0.29353,0.04078,-0.93243
0.38704,0.86329,-0.3239,-0.11003,-0.27041,-0.54391
0.39497,0.86038,-0.32208,-0.86706,0.26174,0.41168
0.39889,0.86118,-0.31503,-0.37434,0.66078,1.20225
0.40198,0.86855,-0.28986,-0.24977,0.33426,0.84612
0.4075,0.86685,-0.28722,-0.88585,-0.33683,-0.42709
0.40269,0.86712,-0.29313,-0.70949,-0.18565,0.59713
0.38458,0.8853,-0.2614,-0.58457,-0.0164,0.85352
0.35663,0.91044,-0.20953,-0.54731,0.38169,0.71203
0.3225,0.93138,-0.16884,-0.20769,0.41066,0.32925
0.2914,0.94448,-0.15173,0.23483,0.28963,0.09157
0.26297,0.95494,-0.13758,0.07295,0.03829,0.27636
0.23496,0.96562,-0.11113,-0.33951,-0.05701,0.23672
0.20673,0.97519,-0.07907,-0.41817,-0.11769,0.22061
0.18211,0.98205,-0.0489,-0.31995,-0.11955,0.2567
0.15892,0.98713,-0.01754,0.03938,-0.14791,0.17106
0.13827,0.99029,0.0141,0.31458,-0.0566,-0.01548
0.11744,0.9921,0.04382,0.23196,0.00602,-0.11343
0.09709,0.99316,0.06466,0.05849,-0.12184,-0.07168
0.08021,0.99369,0.07832,0.02436,-0.13147,-0.116
0.06349,0.99352,0.09413,0.03399,-0.15444,-0.226
0.04963,0.99272,0.10969,0.03356,-0.04962,0.00018
0.03645,0.99141,0.12551,0.05049,-0.06568,-0.01376
0.02131,0.98928,0.14441,0.00404,-0.04549,-0.12816
0.00371,0.98672,0.16232,0.02807,0.07923,-0.14638
-0.01595,0.98381,0.17844,0.05651,0.1593,-0.16266
-0.03416,0.98031,0.19444,0.38188,0.32427,-0.12637
-0.0522,0.97683,0.20749,0.52451,0.31879,-0.12877
-0.06845,0.97432,0.21446,0.67364,0.38521,-0.46774
-0.08606,0.9733,0.21272,0.38387,0.39477,-0.42637
-0.09918,0.9746,0.20074,0.381,0.43881,-0.26954
-0.10455,0.97931,0.17321,0.53034,0.51843,-0.13538
-0.09383,0.98615,0.13667,0.53868,0.09112,-0.39785
-0.062,0.99338,0.09655,0.35737,0.0084,-0.36057
-0.01428,0.99884,0.04585,-0.22039,0.38126,-0.38749
0.0402,0.99899,-0.01977,-0.49676,0.56951,0.38012
0.08662,0.99353,-0.07331,-0.58936,0.75508,0.84832
0.12618,0.98512,-0.11664,-0.21378,0.51354,-0.1797
0.17361,0.97317,-0.15095,-0.20342,0.36893,-0.38715
0.22034,0.95827,-0.18208,-0.17448,0.2523,0.03897
0.26686,0.93994,-0.21279,-0.28549,0.12286,0.31506
0.31134,0.92218,-0.22942,-0.20127,-0.10287,0.29235
0.35141,0.90413,-0.24298,-0.16514,-0.27712,0.19968
0.37961,0.88658,-0.2643,-0.18965,-0.38791,0.21956
0.39845,0.87108,-0.28713,-0.20165,-0.39644,0.29132
0.41111,0.85698,-0.31074,-0.25201,-0.44662,0.34656
0.41887,0.8451,-0.33217,-0.38014,-0.42936,0.36667
0.4211,0.83687,-0.34974,-0.53407,-0.44426,0.43621
0.41706,0.83375,-0.36181,-0.52284,-0.50849,0.44751
0.40842,0.83579,-0.36693,-0.46526,-0.59343,0.42958
0.39688,0.8421,-0.36515,-0.32873,-0.52643,0.17782
0.38072,0.85296,-0.35708,-0.13728,-0.21027,-0.07969
0.36273,0.8669,-0.34189,0.08754,0.02754,-0.22555
0.35242,0.8768,-0.32712,1.67043,1.40845,-0.76295
0.37271,0.87161,-0.31839,0.60846,0.51645,-1.14493
0.38376,0.86552,-0.32184,0.13293,0.03342,-0.81794
0.38912,0.86316,-0.32175,-0.60421,-0.54968,0.0552
0.38811,0.86419,-0.32022,-0.66786,-0.44362,1.12905
0.38964,0.87504,-0.28717,-0.65102,0.3445,1.36531
0.37798,0.89791,-0.22556,0.25886,1.0498,-0.8547
0.37842,0.8947,-0.23726,0.27912,1.68464,-1.35605
0.37911,0.89195,-0.24633,-0.73107,-0.74829,0.2862
0.36204,0.90392,-0.22767,-0.86059,-0.40046,0.66484
0.33007,0.92536,-0.18639,-0.74431,-0.29472,0.82526
0.29118,0.94538,-0.14649,-0.63353,-0.03612,0.60044
0.25555,0.9587,-0.12483,-0.02785,0.62871,0.25752
0.22817,0.96739,-0.10992,0.39549,0.11571,0.0267
0.2045,0.975,-0.08682,0.0383,-0.09972,0.1566
0.17805,0.98231,-0.05788,-0.34633,-0.18272,0.20009
0.15864,0.98689,-0.02949,-0.38208,-0.18839,0.26348
0.1421,0.98984,0.0037,-0.193,-0.16299,0.13749
0.12356,0.99169,0.0355,0.1984,-0.04258,-0.02423
0.10238,0.99277,0.06258,0.22373,-0.02937,-0.04177
0.08185,0.99268,0.08872,0.15655,-0.0822,-0.12073
0.0652,0.99185,0.10941,-0.03528,-0.17315,-0.10204
0.05151,0.9905,0.12742,-0.15601,-0.07987,-0.05367
0.03883,0.98884,0.14377,-0.14332,-0.07821,-0.07003
0.0231,0.98704,0.15872,-0.07753,-0.01916,-0.12058
0.00228,0.98516,0.17155,-0.01305,0.0976,-0.09133
-0.02157,0.98256,0.18463,0.07818,0.18376,-0.09184
-0.04489,0.97898,0.1989,0.36886,0.24206,-0.14947
-0.06677,0.97551,0.20952,0.51993,0.21847,-0.1654
-0.08615,0.97324,0.21297,0.93009,0.36781,-0.29328
-0.10086,0.97252,0.20979,0.7523,0.43382,-0.30673
-0.1116,0.97402,0.19699,0.59515,0.5696,-0.07439
-0.1109,0.97836,0.17463,0.49391,0.49315,-0.11677
-0.09051,0.9852,0.14549,0.35618,0.25198,-0.5438
-0.05173,0.99314,0.10478,0.19293,0.25174,-0.4476
-0.0017,0.99885,0.04777,-0.05636,0.35987,-0.40995
0.05132,0.99859,-0.0125,-0.68728,0.52152,0.53619
0.09685,0.99368,-0.0565,-0.51635,0.65121,0.3795
0.14259,0.98535,-0.09349,-0.29028,0.63764,-0.13254
0.18827,0.974,-0.12595,-0.0058,0.38971,-0.24615
0.23059,0.95967,-0.16078,0.05846,0.19153,0.32567
0.2763,0.94276,-0.18664,0.00954,0.07845,0.39337
0.32162,0.92491,-0.20269,-0.28887,-0.10399,0.20034
0.35562,0.90676,-0.22651,-0.25151,-0.24634,0.22278
0.37824,0.88967,-0.25573,-0.22514,-0.32402,0.26174
0.39553,0.87365,-0.28335,-0.25693,-0.40551,0.31879
0.41093,0.85883,-0.30583,-0.31854,-0.44174,0.34213
0.42345,0.84579,-0.32451,-0.37998,-0.38976,0.38385
0.43031,0.83652,-0.33919,-0.54954,-0.4038,0.41855
0.43031,0.83296,-0.34784,-0.49995,-0.52301,0.41844
0.42389,0.83506,-0.35066,-0.44044,-0.64647,0.36716
0.41137,0.84291,-0.34678,-0.38134,-0.48792,0.1999
0.39577,0.85721,-0.32946,0.12268,-0.08009,-0.14724
0.3818,0.87225,-0.30561,1.23426,0.91068,-0.73091
0.38849,0.87455,-0.29021,1.42291,1.33201,-1.39294
0.39542,0.86953,-0.29588,0.19084,0.06035,-0.73635
0.4013,0.86388,-0.3044,-0.59841,-0.30998,-0.05999
0.41014,0.85888,-0.30674,-0.49556,0.00886,1.37084
0.41812,0.86531,-0.2764,-0.58876,0.25156,0.83077
0.40721,0.87673,-0.25596,-0.49182,0.90262,-0.87559
0.40725,0.87,-0.27791,-0.35819,0.18565,-0.22337
0.3993,0.8796,-0.25857,-0.56199,-0.37184,0.47128
0.3745,0.90019,-0.22225,-0.55939,-0.01155,0.85862
0.33808,0.92339,-0.18175,-0.48636,0.24815,0.59617
0.3025,0.94107,-0.15123,-0.17223,0.23711,0.27284
0.27263,0.95267,-0.13445,0.18616,0.38234,0.14231
0.24156,0.96299,-0.1195,-0.00146,0.12531,0.20391
0.20876,0.97337,-0.09462,-0.22403,-0.09449,0.18944
0.17872,0.98169,-0.06583,-0.29665,-0.17285,0.22099
0.15368,0.98748,-0.03528,-0.19088,-0.20422,0.23627
0.13139,0.99132,-0.00159,0.18256,-0.06801,0.03976
0.10949,0.99354,0.02961,0.17504,0.01695,-0.04792
0.08925,0.99451,0.05436,0.0741,-0.06438,-0.03249
0.07405,0.99453,0.07349,-0.01192,-0.15235,0.02835
0.06024,0.99383,0.09296,-0.221,-0.26663,-0.24299
0.04644,0.99225,0.11515,-0.19248,-0.11055,-0.17693
0.03265,0.99046,0.13376,-0.09205,-0.05281,-0.03789
0.01521,0.98861,0.14962,-0.00658,0.04891,-0.073
-0.00595,0.98643,0.16398,0.05261,0.16054,-0.2397
-0.03042,0.98376,0.17682,0.21629,0.26152,-0.20729
-0.05303,0.9809,0.18708,0.46353,0.28987,-0.09617
-0.07261,0.97794,0.19579,0.74718,0.22876,-0.1078
-0.08989,0.97546,0.20092,0.88282,0.29013,-0.21107
-0.10495,0.97449,0.19832,0.53235,0.44394,-0.38832
-0.11467,0.97607,0.18469,0.48564,0.50147,-0.14186
-0.11561,0.98069,0.15764,0.52583,0.46154,-0.31341
-0.0969,0.98763,0.1232,0.54156,0.27383,-0.40957
-0.05801,0.99507,0.08034,0.17181,0.22996,-0.4533
-0.0063,0.99975,0.02096,-0.27333,0.38576,-0.24382
0.04769,0.99801,-0.04102,-0.44166,0.46076,0.10561
0.09466,0.99175,-0.08628,-0.48225,0.72558,0.55343
0.14346,0.98168,-0.1253,-0.25337,0.57136,-0.2716
0.19311,0.96886,-0.15492,-0.25578,0.51551,-0.36757
0.23733,0.95359,-0.18527,-0.01456,0.22599,0.18029
0.28411,0.93535,-0.2107,-0.12789,-0.03451,0.3172
0.33195,0.91686,-0.22173,-0.17573,-0.01603,0.32823
0.36972,0.89755,-0.24022,-0.13948,-0.36098,0.19904
0.39368,0.88027,-0.26481,-0.20801,-0.39898,0.28101
0.4081,0.86502,-0.29184,-0.25338,-0.42601,0.32147
0.41707,0.85169,-0.31728,-0.39168,-0.42664,0.40996
0.42306,0.84015,-0.33935,-0.47696,-0.35847,0.42322
0.4239,0.83253,-0.35664,-0.52586,-0.39182,0.43404
0.41747,0.8309,-0.36784,-0.46856,-0.49118,0.43577
0.4076,0.83405,-0.37178,-0.35329,-0.64719,0.37286
0.39268,0.84164,-0.37071,-0.26802,-0.49245,0.18759
0.37346,0.85355,-0.36327,-0.03473,-0.13557,-0.00891
0.35594,0.86819,-0.34576,0.42899,0.63011,-0.37067
0.3528,0.87467,-0.33238,1.44093,1.43744,-0.89578
0.37002,0.86787,-0.33146,0.39567,0.34097,-0.96915
0.38584,0.8587,-0.33728,-0.51728,-0.35262,-0.13149
0.3989,0.85199,-0.33909,-0.6281,-0.27852,0.03271
0.39989,0.85375,-0.33343,-0.13423,0.38498,0.91566
0.39912,0.8676,-0.29658,-0.14655,0.35916,0.18711
0.39715,0.87542,-0.2755,-0.33601,0.74069,-0.45016
0.39206,0.8706,-0.2972,-0.92958,0.03456,-0.47166
0.37685,0.88239,-0.28169,-0.60984,-0.3224,0.76057
0.35477,0.9037,-0.2397,-0.55759,-0.18955,0.8458
0.32156,0.92711,-0.19247,-0.32106,0.35267,0.53482
0.28478,0.94463,-0.16298,-0.05146,0.47951,0.37054
0.2517,0.95631,-0.14863,0.3789,0.33321,0.13501
0.22346,0.96594,-0.13042,-0.16656,-0.05566,0.13221
0.19446,0.9754,-0.10368,-0.26973,-0.13556,0.13362
0.16711,0.9831,-0.07455,-0.3748,-0.17584,0.27443
0.14464,0.98855,-0.04284,-0.09512,-0.16651,0.18105
0.12444,0.99217,-0.00991,0.17688,-0.06776,0.09415
0.10467,0.99427,0.02137,0.24786,0.00306,-0.02584
0.08366,0.99533,0.04788,0.13492,-0.03633,0.01244
0.0645,0.99543,0.0703,-0.00823,-0.11792,-0.00413
0.04843,0.99457,0.09193,-0.11911,-0.19146,-0.25674
0.0318,0.99315,0.11229,-0.10473,-0.14208,-0.18501
0.01537,0.99107,0.13236,0.06136,-0.04185,0.06336
-0.00316,0.98867,0.14997,0.04439,-0.00424,-0.03362
-0.02326,0.98561,0.16734,0.06725,0.10793,-0.23984
-0.04544,0.98223,0.182,0.13194,0.22652,-0.26875
-0.06511,0.97864,0.19492,0.34673,0.28767,-0.19485
-0.08367,0.9755,0.20339,0.62863,0.29638,-0.16084
-0.10078,0.97357,0.20489,0.89341,0.31809,-0.26113
-0.11187,0.97337,0.20001,0.82092,0.36435,-0.42837
-0.1189,0.97588,0.183,0.51993,0.46027,-0.18088
-0.11176,0.98194,0.15259,0.45132,0.50372,-0.33531
-0.08419,0.98981,0.11477,0.31983,0.20209,-0.38141
-0.03759,0.99689,0.06908,-0.25762,0.47078,-0.4573
0.01821,0.99982,0.00115,-0.46755,0.50004,-0.11705
0.06969,0.99611,-0.05378,-0.63128,0.55643,0.50373
0.1155,0.98888,-0.09361,-0.40285,0.75868,0.12481
0.17023,0.9769,-0.12914,-0.23263,0.67604,-0.60261
0.22156,0.96159,-0.16196,-0.19276,0.51634,-0.40469
0.27094,0.94249,-0.19569,-0.23537,0.22362,0.26372
0.31774,0.92336,-0.21548,-0.15963,0.00189,0.32588
0.36044,0.90321,-0.23297,-0.26338,-0.1169,0.26994
0.38861,0.8835,-0.26153,-0.31393,-0.35388,0.22716
0.40624,0.86544,-0.2932,-0.3053,-0.46326,0.37569
0.41913,0.84795,-0.32448,-0.35827,-0.4616,0.38454
0.43127,0.83204,-0.34885,-0.39845,-0.39537,0.41117
0.43939,0.82022,-0.36629,-0.48918,-0.34758,0.4029
0.43998,0.81414,-0.37892,-0.55206,-0.40388,0.42589
0.43183,0.81521,-0.38593,-0.48789,-0.59455,0.3906
0.41623,0.82341,-0.38567,-0.48291,-0.71635,0.13806
0.3926,0.83925,-0.37618,-0.32598,-0.63058,-0.05224
0.36239,0.86021,-0.35876,0.20625,-0.16584,-0.26603
0.33838,0.87695,-0.34124,1.79483,1.85773,-0.94246
0.34891,0.87428,-0.33747,1.46275,1.85424,-1.25572
0.3596,0.86654,-0.34609,0.1982,-0.0626,-0.78082
0.37972,0.85792,-0.34608,-0.72217,-0.41954,-0.4772
0.39881,0.85248,-0.33795,-1.02568,-0.04816,0.07141
0.3886,0.86533,-0.31651,-0.7461,0.41435,0.95328
0.37826,0.88008,-0.28698,0.53988,1.07515,-0.61467
0.39278,0.87079,-0.29568,-0.11805,0.90338,-0.33801
0.38971,0.87401,-0.29022,-0.63696,-0.48315,0.38734
0.36974,0.89125,-0.26256,-0.67196,-0.23714,0.74783
0.33928,0.91494,-0.21855,-0.69482,-0.02649,0.75868
0.30298,0.93419,-0.18833,-0.27289,0.4174,0.38651
0.26982,0.94704,-0.17404,0.22104,0.51342,0.22769
0.24372,0.95747,-0.15439,0.03279,0.04594,0.25211
0.22187,0.96729,-0.12287,-0.23971,-0.06519,0.25464
0.20289,0.97532,-0.08701,-0.27653,-0.09573,0.22924
0.18669,0.98105,-0.05164,-0.28454,-0.15813,0.18748
0.17103,0.98513,-0.016,-0.07535,-0.19104,0.0904
0.15254,0.98808,0.01991,0.02626,0.00058,-0.0108
0.13264,0.9899,0.04977,-0.00414,0.01109,0.03258
0.11643,0.9906,0.07167,0.026,-0.0442,-0.07257
0.10107,0.99098,0.08784,-0.03524,-0.18127,-0.21578
0.08753,0.99064,0.10459,-0.05111,-0.19227,-0.17607
0.07442,0.99008,0.11911,0.01187,-0.11852,0.00432
0.05896,0.98938,0.13276,0.05042,-0.06155,-0.01844
0.04235,0.98808,0.14794,0.11215,-0.02689,-0.03893
0.02289,0.98595,0.16537,0.2061,0.05851,-0.12069
0.00181,0.98299,0.18357,0.21166,0.15458,-0.11474
-0.01796,0.97945,0.20081,0.22818,0.15536,-0.11152
-0.03686,0.97582,0.21539,0.40718,0.13809,-0.11813
-0.05512,0.97251,0.22617,0.69625,0.39669,-0.30602
-0.07223,0.97077,0.22881,0.68306,0.43236,-0.40572
-0.08394,0.97152,0.22152,0.47991,0.51799,-0.1195
-0.08896,0.9752,0.2026,0.60617,0.59803,-0.32212
-0.07846,0.9811,0.17682,0.47131,0.45234,-0.50949
-0.0478,0.98893,0.14042,0.20538,0.10682,-0.48375
-0.00187,0.9958,0.09145,-0.02071,0.27077,-0.42074
0.05174,0.99837,0.02348,-0.3723,0.46269,-0.24299
0.1013,0.99421,-0.0356,-0.62263,0.59231,0.69221
0.14363,0.98618,-0.08252,-0.5132,0.69301,0.32163
0.19272,0.97422,-0.11719,-0.25183,0.63807,-0.40569
0.2379,0.95995,-0.1479,-0.04621,0.31265,-0.30498
0.28173,0.94164,-0.1842,-0.20456,0.23233,0.30407
0.32175,0.92352,-0.20873,-0.0152,-0.0188,0.36974
0.35869,0.90357,-0.23426,-0.20053,-0.15138,0.22674
0.38077,0.88481,-0.26854,-0.21533,-0.32409,0.25993
0.39327,0.86754,-0.30446,-0.27073,-0.41325,0.35505
0.40359,0.85141,-0.33497,-0.34563,-0.43435,0.39806
0.41286,0.83701,-0.35908,-0.36877,-0.32818,0.4322
0.41881,0.82551,-0.37831,-0.43471,-0.33384,0.44316
0.41712,0.82001,-0.3919,-0.47196,-0.43138,0.44289
0.40923,0.82159,-0.39688,-0.39412,-0.67197,0.41153
0.39731,0.82966,-0.39216,-0.38367,-0.72824,0.36478
0.38036,0.84497,-0.37595,-0.25185,-0.48225,-0.03428
0.35847,0.86524,-0.3505,-0.01295,-0.27898,-0.21896
0.33482,0.88381,-0.32675,0.69761,0.90341,-0.59977
0.33966,0.88585,-0.31606,1.03814,1.21271,-1.34712
0.35432,0.87834,-0.32086,0.37192,0.22227,-1.01723
0.36733,0.87304,-0.32071,-0.55076,-0.48011,-0.3319
0.37882,0.87151,-0.31136,-0.83771,0.02936,0.73677
0.37302,0.88057,-0.29228,-0.48929,0.32908,0.99165
0.35968,0.89602,-0.26032,-0.33883,0.45541,0.28952
0.37508,0.88885,-0.26316,-0.17528,0.80296,-0.63872
0.37607,0.88592,-0.27148,-0.47697,-0.51237,0.58566
0.35524,0.90015,-0.25202,-0.52232,-0.39442,0.59034
0.32638,0.92004,-0.21675,-0.61119,-0.15411,0.89638
0.29973,0.93621,-0.18347,-0.4574,0.28595,0.51248
0.27373,0.94825,-0.16085,-0.18326,0.52926,0.30703
0.24824,0.9584,-0.14078,0.19272,0.22923,0.09671
0.228,0.96721,-0.11181,-0.19138,-0.02095,0.30052
0.21154,0.97421,-0.07838,-0.30422,-0.07257,0.29048
0.19862,0.9788,-0.04973,-0.46774,-0.15156,0.23319
0.18691,0.98223,-0.01617,-0.26342,-0.16821,0.14643
0.17389,0.98453,0.02103,-0.02315,-0.08399,0.04425
0.15727,0.98608,0.05386,0.11712,0.04655,-0.03556
0.13773,0.98725,0.07966,0.11113,0.01754,-0.06158
0.11948,0.98779,0.09991,-0.02273,-0.18195,-0.11484
0.10413,0.98775,0.11616,-0.07939,-0.13751,-0.13357
0.088,0.98729,0.13226,0.03424,-0.11609,-0.0957
0.07121,0.98619,0.14944,0.06421,-0.12546,-0.08243
0.0541,0.98449,0.16682,0.10039,-0.06992,-0.07409
0.03514,0.98219,0.18452,0.16275,0.02482,-0.13548
0.0137,0.97936,0.2016,0.17088,0.16973,-0.1934
-0.00825,0.9763,0.21621,0.16511,0.19696,-0.20559
-0.02705,0.97386,0.22547,0.27354,0.15975,-0.13125
-0.04236,0.97232,0.22973,0.57521,0.24854,-0.21022
-0.05547,0.97124,0.23149,0.70194,0.32217,-0.37534
-0.06919,0.97198,0.2246,0.37018,0.35496,-0.35639
-0.0782,0.97584,0.20393,0.44745,0.44597,-0.1271
-0.07642,0.9826,0.16919,0.6778,0.52086,-0.37004
-0.05279,0.99059,0.12621,0.27857,0.07355,-0.48569
-0.00698,0.99743,0.07108,0.04357,0.19246,-0.43319
0.05073,0.9987,-0.00232,-0.25864,0.46875,-0.31139
0.10569,0.99233,-0.06392,-0.62258,0.81194,0.8933
0.15158,0.98268,-0.10651,-0.55656,0.84819,0.75589
0.20312,0.96971,-0.1356,-0.19854,0.60335,-0.35894
0.25544,0.95379,-0.15814,0.03629,0.37223,-0.21087
0.30433,0.933,-0.19203,-0.15735,0.35219,0.20747
0.35137,0.91232,-0.21023,-0.11941,-0.1238,0.16446
0.39396,0.89093,-0.22588,-0.21447,-0.13883,0.17043
0.42039,0.87117,-0.25362,-0.2387,-0.27633,0.24009
0.43458,0.85394,-0.2862,-0.31489,-0.3686,0.36924
0.44197,0.83868,-0.31821,-0.37386,-0.3789,0.42097
0.44673,0.82621,-0.34321,-0.49809,-0.46638,0.45157
0.44762,0.81796,-0.36134,-0.57554,-0.41793,0.44687
0.44301,0.81535,-0.37273,-0.58289,-0.4663,0.41442
0.43202,0.81989,-0.37566,-0.48917,-0.5543,0.39675
0.41614,0.83147,-0.36807,-0.44534,-0.58044,0.13795
0.3943,0.84997,-0.34937,-0.28636,-0.43855,-0.03663
0.366,0.87252,-0.32363,0.16186,0.17075,-0.31062
0.33372,0.89043,-0.30943,1.55987,1.49324,-0.70053
0.33679,0.888,-0.31306,0.60745,0.49926,-1.18978
0.35498,0.8762,-0.32597,0.11997,-0.17882,-0.85346
0.37138,0.8688,-0.32748,-0.51175,-0.59129,-0.32072
0.38061,0.86661,-0.32265,-0.88816,0.12463,0.51211
0.37551,0.87299,-0.31124,-0.77416,0.50773,1.17747
0.36749,0.88458,-0.28714,0.0406,0.27559,-0.09093
0.3776,0.87897,-0.29123,-0.37773,0.85807,-0.58962
0.37371,0.87765,-0.30011,-0.5496,-0.34156,0.27065
0.35692,0.89281,-0.27475,-0.62562,-0.24759,0.74363
0.33179,0.9146,-0.23108,-0.62544,-0.10827,0.81433
0.29801,0.93472,-0.19358,-0.42434,0.2604,0.55064
0.26019,0.94858,-0.18023,0.13529,0.64183,0.17766
0.22707,0.95935,-0.16753,0.19231,-0.00522,0.2316
0.2011,0.96938,-0.14087,-0.03107,-0.10297,0.26181
0.17979,0.97771,-0.10839,-0.24891,-0.11623,0.23433
0.16229,0.9835,-0.07978,-0.32238,-0.12045,0.25973
0.14752,0.98786,-0.04858,-0.25886,-0.20976,0.15652
0.13355,0.99093,-0.01395,-0.05994,-0.1506,0.04384
0.11806,0.99288,0.01499,0.12497,-0.03312,-0.03056
0.10198,0.99418,0.03441,0.16107,-0.0442,-0.09112
0.08641,0.99499,0.05009,0.08609,-0.11077,-0.19067
0.07412,0.99531,0.06194,-0.031,-0.11433,-0.11137
0.06086,0.99544,0.07332,0.0358,-0.10156,0.0086
0.0448,0.99537,0.08492,0.10381,-0.08694,-0.01622
0.02536,0.99488,0.09776,0.11742,-0.02182,-0.08484
0.00365,0.99371,0.11182,0.1656,0.01001,-0.062
-0.0186,0.99177,0.12662,0.23195,0.09644,-0.0119
-0.0398,0.98882,0.14364,0.31077,0.12878,-0.09869
-0.05791,0.98493,0.16293,0.33029,0.10753,-0.15785
-0.07473,0.98199,0.17347,0.39535,0.21221,-0.17184
-0.08925,0.98047,0.17521,0.75614,0.32091,-0.21874
-0.09911,0.9799,0.17303,0.67281,0.2962,-0.25491
-0.10608,0.98149,0.15937,0.54535,0.47791,-0.18253
-0.10003,0.98548,0.13708,0.49686,0.57589,-0.24341
-0.07516,0.99158,0.10531,0.39244,0.50009,-0.3785
-0.03656,0.99736,0.06252,0.05057,0.24173,-0.32677
0.01157,0.99992,0.00046,-0.30692,0.3669,-0.25994
0.06116,0.99645,-0.05769,-0.53723,0.4315,0.12396
0.10628,0.98908,-0.10205,-0.41622,0.50183,0.32472
0.1503,0.9793,-0.13551,-0.21607,0.51849,-0.1635
0.19519,0.96767,-0.15966,-0.06769,0.43722,-0.47955
0.2367,0.9527,-0.19058,-0.05188,0.22647,0.2032
0.27533,0.93623,-0.2183,-0.10925,0.03368,0.44276
0.31174,0.92106,-0.23335,0.00083,-0.04775,0.36485
0.34348,0.9045,-0.25276,-0.2193,-0.19329,0.1517
0.36319,0.8889,-0.27917,-0.24588,-0.30812,0.28517
0.37562,0.87405,-0.30811,-0.23295,-0.32272,0.30312
0.38467,0.8608,-0.33323,-0.43971,-0.35185,0.41601
0.39251,0.8494,-0.35276,-0.47411,-0.30701,0.4421
0.39809,0.84056,-0.36738,-0.55808,-0.37196,0.42784
0.39813,0.83602,-0.37756,-0.54329,-0.45759,0.40907
0.39386,0.83686,-0.38015,-0.47414,-0.55572,0.38484
0.38608,0.84405,-0.37217,-0.39768,-0.50808,0.21457
0.3723,0.85795,-0.35399,-0.18377,-0.25721,0.01138
0.35334,0.87532,-0.33008,0.13606,0.35436,-0.35328
0.33329,0.88752,-0.31814,1.57165,1.23422,-0.87418
0.34147,0.88338,-0.32099,0.79386,0.69242,-1.12082
0.35729,0.8768,-0.3218,-0.31303,-0.29912,-0.34645
0.36686,0.87497,-0.31595,-0.67611,-0.24669,-0.02297
0.36863,0.87785,-0.30573,-0.44993,0.44133,0.93612
0.3627,0.88782,-0.28322,-0.50467,0.38933,0.77313
0.36685,0.89035,-0.26961,0.18297,1.05457,-0.77147
0.37796,0.87785,-0.29413,-0.69164,-0.25697,0.04942
0.36724,0.88621,-0.2824,-0.51887,-0.52844,0.41556
0.34595,0.90476,-0.24843,-0.62861,-0.27892,0.86978
0.31804,0.92548,-0.20574,-0.58478,0.03764,0.68721
0.28338,0.94151,-0.1823,0.29214,0.71459,0.05475
0.25167,0.9527,-0.1703,0.47739,0.52262,0.00291
0.22771,0.96216,-0.14959,-7e-05,-0.00165,0.12994
0.20571,0.97149,-0.11781,-0.34364,-0.13408,0.28637
0.18799,0.97837,-0.08616,-0.36987,-0.15301,0.3103
0.1717,0.98357,-0.05561,-0.26873,-0.20963,0.25198
0.15598,0.98745,-0.02426,0.11423,-0.06983,0.05425
0.14155,0.98991,0.0045,0.18333,-0.03567,0.00374
0.12618,0.99162,0.02734,0.12405,-0.07734,0.0457
0.11109,0.99267,0.04731,0.01681,-0.09559,0.02844
0.09388,0.99328,0.06746,-0.14889,-0.17175,-0.08861
0.07511,0.99327,0.08804,-0.10021,-0.12439,-0.10234
0.05447,0.99253,0.10906,0.06552,-0.01491,-0.04618
0.03208,0.99124,0.12802,0.20008,-0.0022,-0.05232
0.00713,0.9895,0.14425,0.23023,0.02983,-0.14453
-0.01767,0.9869,0.16031,0.26447,0.11786,-0.18808
-0.03927,0.98374,0.17521,0.36993,0.19304,-0.27285
-0.05799,0.98097,0.18521,0.43046,0.15521,-0.21675
-0.07404,0.97939,0.18784,0.56661,0.24154,-0.17593
-0.08623,0.97907,0.1843,0.6689,0.30594,-0.26128
-0.09509,0.98074,0.17056,0.44461,0.29673,-0.2227
-0.09393,0.98525,0.14299,0.46825,0.58955,-0.32006
-0.07492,0.99166,0.10477,0.52695,0.4551,-0.37128
-0.03647,0.99755,0.05954,0.16823,0.22343,-0.36505
0.01569,0.99986,-0.00402,-0.19584,0.43752,-0.30133
0.07097,0.99503,-0.06971,-0.37174,0.51467,-0.06983
0.11722,0.98652,-0.11414,-0.45377,0.71821,0.58692
0.16133,0.97564,-0.14858,-0.11181,0.49944,-0.18132
0.21212,0.96207,-0.17151,-0.0832,0.50107,-0.38941
0.26048,0.94565,-0.19465,-0.09841,0.3396,0.02942
0.3049,0.92746,-0.2164,-0.15774,0.15344,0.3355
0.34156,0.91094,-0.23134,-0.09058,0.05992,0.35175
0.37332,0.89318,-0.25068,-0.25304,-0.14796,0.20388
0.39307,0.87728,-0.27543,-0.29127,-0.27636,0.34695
0.40432,0.86258,-0.30408,-0.3534,-0.33988,0.39969
0.41128,0.84973,-0.32983,-0.44468,-0.40126,0.43892
0.41579,0.84005,-0.34845,-0.51951,-0.37905,0.46065
0.41895,0.83329,-0.36069,-0.58781,-0.36591,0.4533
0.41897,0.83023,-0.36765,-0.62148,-0.41773,0.46406
0.41522,0.83191,-0.36811,-0.60623,-0.57604,0.44622
0.4062,0.83998,-0.35977,-0.54946,-0.46603,0.30566
0.39085,0.85497,-0.34094,-0.38987,-0.23235,-0.02954
0.36887,0.87363,-0.31732,-0.03967,0.3146,-0.38907
0.34297,0.88672,-0.30997,1.55243,1.1342,-0.71466
0.35651,0.87926,-0.31589,1.05394,0.86497,-1.03175
0.37884,0.86853,-0.31956,0.15924,-0.28,-0.68535
0.39298,0.863,-0.31748,-0.34288,-0.44826,-0.1424
0.39712,0.86032,-0.31957,-0.65975,0.11735,0.75765
0.3938,0.87032,-0.29571,-0.34287,0.62716,0.40832
0.38521,0.88545,-0.25997,0.24963,0.88143,-0.54129
0.40205,0.87269,-0.27704,0.04517,1.08672,-0.72732
0.40078,0.86901,-0.29013,-0.73059,-0.53954,0.19146
0.38564,0.88037,-0.27608,-0.67059,-0.34038,0.70831
0.36624,0.90021,-0.23554,-0.61589,-0.25043,0.94388
0.3423,0.9187,-0.19699,-0.37263,0.50813,0.34338
0.31307,0.93261,-0.17949,0.21769,0.73667,-0.06035
0.28723,0.9434,-0.16576,0.09847,0.04827,0.15709
0.26501,0.95364,-0.14257,-0.05557,-0.05609,0.26824
0.24592,0.96251,-0.11434,-0.37578,-0.05123,0.311
0.23054,0.96928,-0.08563,-0.38547,-0.04963,0.29893
0.21888,0.97435,-0.05216,-0.29414,-0.07865,0.21064
0.20606,0.97837,-0.01752,0.02287,-0.09263,0.0568
0.19112,0.98145,0.01419,0.10477,-0.02383,-0.00092
0.17473,0.98377,0.0405,0.07275,-0.03217,-0.04179
0.15811,0.98555,0.06063,-0.03574,-0.12735,-0.07231
0.14291,0.98664,0.07813,-0.04777,-0.12934,0.00547
0.12601,0.98737,0.09594,0.07143,-0.10411,-0.03873
0.10744,0.9878,0.11259,0.11555,-0.10127,-0.07403
0.08769,0.98788,0.12796,0.15048,-0.08998,-0.12463
0.06697,0.98766,0.14148,0.13617,-0.03678,-0.10597
0.04541,0.98701,0.15403,0.16144,0.08904,-0.10027
0.02299,0.98572,0.16674,0.26901,0.08589,-0.06077
0.00023,0.98359,0.18034,0.29512,0.06966,-0.0693
-0.02074,0.98092,0.19324,0.33944,0.08715,-0.08481
-0.03891,0.97828,0.20355,0.45404,0.31295,-0.23689
-0.0529,0.97676,0.20763,0.37155,0.37759,-0.43284
-0.06392,0.97792,0.1989,0.37273,0.43504,-0.4306
-0.06875,0.98195,0.17614,0.63131,0.51408,-0.22652
-0.05994,0.98808,0.14169,0.674,0.39187,-0.43241
-0.03045,0.99474,0.09768,0.37424,0.14132,-0.44868
0.01561,0.9991,0.03926,0.01327,0.11655,-0.30397
0.0693,0.99705,-0.03277,-0.41676,0.54436,0.13793
0.11953,0.98858,-0.09172,-0.57967,0.69343,0.69075
0.15925,0.97817,-0.13343,-0.19714,0.54095,0.42212
0.20354,0.96559,-0.16186,0.01002,0.49851,-0.34895
0.24954,0.9508,-0.18356,0.00651,0.39336,-0.30976
0.29369,0.93268,-0.2094,-0.2708,0.27527,0.189
0.33186,0.91537,-0.22791,0.0266,0.02649,0.34769
0.36789,0.89652,-0.24676,-0.13291,-0.06214,0.24647
0.39297,0.87974,-0.26763,-0.1876,-0.24999,0.20708
0.40719,0.86586,-0.29063,-0.24914,-0.30875,0.31573
0.41617,0.85351,-0.31353,-0.33744,-0.40579,0.40041
0.42247,0.84355,-0.33155,-0.43669,-0.38824,0.445
0.42626,0.83673,-0.34376,-0.55361,-0.36586,0.44564
0.42427,0.83442,-0.35176,-0.52414,-0.34348,0.45051
0.41635,0.83691,-0.35527,-0.50276,-0.4563,0.42816
0.40578,0.84408,-0.35051,-0.49632,-0.46608,0.21765
0.39229,0.85671,-0.33488,-0.4706,-0.38236,0.0991
0.37444,0.87353,-0.31102,-0.21521,-0.0355,-0.12545
0.35013,0.88873,-0.29589,1.46641,0.86307,-0.52468
0.34526,0.8914,-0.29357,1.59918,0.8817,-0.77159
0.36052,0.88303,-0.30044,0.28226,-0.01949,-0.75663
0.37361,0.87681,-0.30266,0.07503,-0.15957,-0.5482
0.37791,0.87619,-0.2991,-0.37375,-0.26521,0.1505
0.3773,0.88202,-0.28225,-0.42816,0.52328,1.15618
0.36926,0.89676,-0.24382,-0.44267,0.77284,0.43153
0.37683,0.8936,-0.24386,0.21495,1.16765,-0.70084
0.38819,0.8816,-0.26846,-1.05603,-0.77557,0.33622
0.38308,0.8857,-0.26225,-0.86233,-0.41596,0.60406
0.36251,0.90282,-0.23128,-0.7024,-0.36022,0.80537
0.32906,0.92464,-0.19168,-0.51467,0.15228,0.73872
0.2861,0.94185,-0.17618,-0.0139,0.82285,0.3357
0.24793,0.9537,-0.1702,0.48963,0.48232,-0.09887
0.22385,0.96324,-0.14849,0.03644,-0.08294,0.20917
0.20832,0.97038,-0.12228,-0.25377,-0.14148,0.39781
0.1973,0.97556,-0.0966,-0.38106,-0.07057,0.38526
0.18905,0.97986,-0.06419,-0.29969,-0.13629,0.17273
0.17952,0.98332,-0.02897,-0.14169,-0.08715,0.05529
0.16695,0.98596,0.00196,-0.06351,-0.03773,0.00592
0.14965,0.98834,0.02784,-0.06437,-0.08718,0.00653
0.12818,0.99041,0.05132,-0.08161,-0.07591,0.01475
0.10677,0.99161,0.07281,-0.08214,-0.11657,0.04818
0.08412,0.99205,0.09356,-0.00074,-0.18353,0.02119
0.06056,0.99174,0.11299,0.16773,-0.08134,-0.01235
0.03552,0.99083,0.13028,0.17741,-0.1156,-0.13106
0.01137,0.98881,0.14865,0.15841,-0.05519,-0.16676
-0.01242,0.98597,0.16638,0.16003,0.14158,-0.18423
-0.03555,0.98277,0.18132,0.24966,0.20716,-0.21864
-0.0573,0.97993,0.19086,0.34121,0.17916,-0.22238
-0.07554,0.97862,0.19126,0.59026,0.22055,-0.14342
-0.09247,0.97761,0.18898,0.81958,0.29824,-0.34047
-0.10195,0.97692,0.18765,0.53265,0.39843,-0.42344
-0.10254,0.97954,0.17312,0.28998,0.76626,-0.2418
-0.0941,0.98488,0.14538,0.70622,0.25776,-0.23629
-0.06546,0.99209,0.10705,0.53309,0.27342,-0.37281
-0.01858,0.99822,0.05655,0.06929,0.26353,-0.46678
0.03783,0.9992,-0.01275,-0.46914,0.31861,-0.19001
0.09216,0.99317,-0.07149,-0.63291,0.74702,0.65135
0.13444,0.98475,-0.11032,-0.4125,0.4084,0.46826
0.18048,0.97361,-0.13962,-0.18698,0.78887,-0.41869
0.22665,0.9595,-0.16723,-0.07568,0.59079,-0.31788
0.27049,0.94131,-0.2019,-0.10223,0.1616,0.23703
0.31252,0.92225,-0.22753,-0.05691,-0.01838,0.44725
0.35598,0.90157,-0.24584,-0.20076,-0.08298,0.23398
0.38747,0.88034,-0.27359,-0.31229,-0.34282,0.33126
0.40915,0.85942,-0.30657,-0.3168,-0.32069,0.3594
0.42507,0.84131,-0.33392,-0.29653,-0.37053,0.35414
0.43592,0.82763,-0.35353,-0.38212,-0.31709,0.35408
0.44206,0.81879,-0.36626,-0.44638,-0.26543,0.37024
0.44123,0.81598,-0.37347,-0.48209,-0.3301,0.40661
0.43424,0.81896,-0.37514,-0.48671,-0.45618,0.38396
0.4231,0.82783,-0.36834,-0.45763,-0.43797,0.2571
0.40479,0.84312,-0.35395,-0.30215,-0.41932,0.03365
0.37676,0.86318,-0.3361,0.19383,0.12722,-0.27256
0.35257,0.87871,-0.32178,0.53982,0.42506,-0.345
0.34988,0.88218,-0.31518,1.33953,0.8128,-0.8981
0.36266,0.87555,-0.31918,0.57019,0.42307,-0.94658
0.3677,0.87119,-0.32529,0.16956,-0.02486,-0.78604
0.36999,0.87021,-0.32532,-0.22921,-0.06838,0.21097
0.3687,0.88102,-0.2964,-0.31546,0.36155,1.27505
0.35791,0.89714,-0.25891,-0.54978,0.58739,0.16525
0.36928,0.8839,-0.28696,-0.7213,-0.73227,0.2223
0.36321,0.88187,-0.30061,-0.61279,-0.64896,0.32079
0.34507,0.89492,-0.28291,-0.50546,-0.2947,1.02662
0.31711,0.91655,-0.24367,-0.38815,0.17933,0.82036
0.28427,0.93417,-0.21564,-0.31311,0.31465,0.54526
0.26045,0.94463,-0.19958,0.23224,0.33323,0.07679
0.23813,0.95393,-0.1825,-0.04091,0.07798,0.18667
0.21668,0.96346,-0.15742,-0.15009,0.06731,0.26819
0.19618,0.97236,-0.12659,-0.23362,-0.00828,0.26442
0.17873,0.97922,-0.09577,-0.12976,0.02017,0.15497
0.16617,0.98395,-0.06488,-0.10579,-0.19689,0.24483
0.15729,0.98705,-0.03134,-0.06073,-0.19457,0.17342
0.14484,0.98945,0.00022,-0.10138,-0.07853,0.03392
0.12708,0.99152,0.02701,-0.08524,-0.13358,-0.02695
0.1062,0.99308,0.04994,-0.07548,-0.16548,-0.03905
0.08545,0.99387,0.07008,-0.09685,-0.2513,-0.01313
0.06656,0.99394,0.08736,-0.03628,-0.1465,0.0055
0.0488,0.99363,0.10155,0.01556,-0.12072,0.00844
0.03014,0.9931,0.11331,0.13977,-0.14124,-0.01719
0.00928,0.99228,0.1236,0.10912,-0.03191,-0.08659
-0.01358,0.99082,0.13448,0.14725,0.08792,-0.12195
-0.03657,0.98838,0.14748,0.23768,0.16547,-0.14876
-0.05885,0.9858,0.15725,0.31462,0.27459,-0.14808
-0.07904,0.98367,0.16166,0.49488,0.37685,-0.13648
-0.09399,0.98283,0.15871,0.7885,0.29353,-0.36063
-0.1032,0.98468,0.1405,0.76006,0.26108,-0.3412
-0.10252,0.98892,0.10728,0.82592,0.42336,-0.33488
-0.08109,0.99477,0.06197,0.80257,0.24833,-0.32424
-0.04187,0.99909,0.00745,0.41329,0.18246,-0.43767
0.01107,0.99827,-0.05759,-0.13294,0.4711,-0.32179
0.06546,0.99248,-0.10338,-0.73332,0.86964,0.49589
0.1109,0.98465,-0.13472,-0.49022,0.77777,0.52431
0.16117,0.97408,-0.15866,0.02961,0.51626,-0.45549
0.21296,0.96134,-0.17453,0.11705,0.48244,-0.38213
0.26105,0.94559,-0.19416,0.00024,0.35031,0.06696
0.30483,0.9299,-0.20581,-0.11826,0.15053,0.36424
0.34806,0.91201,-0.21699,-0.22762,-0.03658,0.15976
0.37927,0.89399,-0.23859,-0.36127,-0.18665,0.16643
0.39932,0.87851,-0.2622,-0.34848,-0.25636,0.23924
0.41323,0.86436,-0.28656,-0.35351,-0.30584,0.34512
0.42466,0.85143,-0.30778,-0.36305,-0.53772,0.36956
0.43122,0.8418,-0.32469,-0.41138,-0.52629,0.38363
0.43223,0.83593,-0.33821,-0.48587,-0.47906,0.36445
0.4273,0.83437,-0.34817,-0.57135,-0.54945,0.36365
0.41487,0.83899,-0.35209,-0.57158,-0.61472,0.36566
0.39399,0.85096,-0.34733,-0.51009,-0.56885,0.14043
0.36508,0.86893,-0.33418,-0.32307,-0.42976,-0.01739
0.33261,0.88696,-0.32042,0.71007,0.88929,-0.73403
0.32071,0.89164,-0.31956,1.8089,1.81031,-1.13108
0.33967,0.88341,-0.32279,1.02476,1.1888,-1.33498
0.35107,0.8782,-0.32482,-0.25851,-0.55383,-0.33345
0.35771,0.87411,-0.32858,-0.59649,-0.39435,0.3964
0.35946,0.87992,-0.31068,-0.44376,0.39715,1.62572
0.35404,0.89541,-0.26995,-0.44337,0.81508,0.92404
0.37118,0.87883,-0.29979,-0.3507,1.16675,-0.68434
0.36813,0.87625,-0.3109,-0.85285,-0.85208,0.72342
0.35628,0.89102,-0.28132,-0.78763,-0.66801,0.65785
0.33476,0.91418,-0.22847,-0.74837,-0.31324,0.92702
0.30421,0.93319,-0.19131,-0.54083,0.5182,0.68095
0.26454,0.94803,-0.17676,-0.21394,0.90522,0.4463
0.23987,0.95756,-0.15979,0.39172,0.25327,0.14278
0.21868,0.96718,-0.12938,-0.11322,-0.12158,0.3266
0.20138,0.97494,-0.09447,-0.2566,-0.09849,0.29268
0.1886,0.98017,-0.06075,-0.32279,-0.11127,0.2274
0.17681,0.98387,-0.02682,-0.19545,-0.21022,0.23324
0.16506,0.98624,0.00791,-0.09802,-0.16297,0.12791
0.1494,0.98799,0.03926,-0.01253,-0.06149,0.03413
0.13098,0.98909,0.06736,0.07891,-0.0462,-0.03095
0.11177,0.98974,0.08899,0.0708,-0.08257,-0.03744
0.09197,0.99008,0.10616,0.03871,-0.18902,-0.1146
0.07117,0.99018,0.12026,0.06499,-0.13427,-0.06869
0.05098,0.98965,0.13409,0.12274,-0.11886,-0.07152
0.02917,0.98794,0.152,0.28731,-0.0588,-0.13126
0.00471,0.98531,0.17067,0.36646,0.07606,-0.20028
-0.02017,0.98206,0.18746,0.35877,0.18404,-0.2593
-0.04369,0.97914,0.19841,0.2439,0.14789,-0.29524
-0.06568,0.97741,0.20086,0.34286,0.11027,-0.21894
-0.08512,0.97625,0.19916,0.74285,0.2611,-0.24621
-0.1,0.97607,0.19307,0.80952,0.30817,-0.38286
-0.11038,0.97852,0.17405,0.57449,0.31313,-0.18707
-0.10998,0.98379,0.14159,0.66426,0.46758,-0.2504
-0.08909,0.99099,0.09995,0.67772,0.16871,-0.42054
-0.04605,0.99786,0.04621,0.29591,0.18035,-0.32011
0.01109,0.99962,-0.02508,-0.09484,0.47604,-0.2744
0.06843,0.99483,-0.07494,-0.61645,0.76364,0.52007
0.12205,0.98614,-0.11234,-0.31248,0.90584,0.07573
0.17863,0.97351,-0.1427,-0.19712,0.84247,-0.41886
0.22956,0.9586,-0.16847,-0.08544,0.54821,-0.48946
0.27586,0.94063,-0.19773,-0.1376,0.2974,0.31277
0.32254,0.92229,-0.21291,-0.01159,0.15176,0.38564
0.37267,0.90009,-0.22573,-0.14939,-0.16202,0.16201
0.4062,0.87838,-0.25186,-0.26041,-0.21113,0.19171
0.42599,0.85961,-0.28213,-0.2626,-0.27969,0.39863
0.43565,0.84407,-0.31265,-0.42115,-0.36395,0.44714
0.43995,0.83175,-0.33855,-0.50942,-0.35284,0.50089
0.44111,0.82276,-0.35846,-0.63444,-0.437,0.51528
0.43522,0.81912,-0.37364,-0.60841,-0.47151,0.49994
0.42255,0.82247,-0.38077,-0.61014,-0.66759,0.53789
0.40592,0.83377,-0.37423,-0.63168,-0.73279,0.41728
0.38371,0.85264,-0.35465,-0.53376,-0.49485,0.10933
0.35519,0.87428,-0.33087,-0.03997,0.08742,-0.31519
0.31729,0.89064,-0.3257,1.40028,1.41942,-1.0197
0.32612,0.88264,-0.33851,1.45589,1.58744,-1.31215
0.34617,0.87252,-0.34477,0.23743,-0.31934,-0.61928
0.36304,0.867,-0.34133,-0.08193,-0.63247,-0.31267
0.37019,0.86672,-0.33428,-0.72703,-0.64951,0.84846
0.36748,0.88279,-0.29262,-0.6759,0.13558,1.57213
0.34614,0.90546,-0.24559,0.23563,1.87483,-1.23521
0.36139,0.88974,-0.27885,0.76864,2.1919,-1.02813
0.36531,0.8823,-0.29681,-1.10002,-1.07477,0.52885
0.35096,0.89329,-0.28079,-0.93073,-0.93165,0.5072
0.33245,0.91279,-0.23723,-0.81114,-0.54867,1.03537
0.30737,0.93002,-0.20145,-0.44131,0.59772,0.57584
0.26867,0.94578,-0.18248,-0.07456,1.01723,0.32312
0.24127,0.95737,-0.1588,0.55106,0.62844,-0.16028
0.21936,0.96724,-0.12774,-0.12944,-0.1051,0.37945
0.20308,0.97396,-0.10076,-0.26624,-0.04747,0.38082
0.19122,0.97844,-0.078,-0.40553,-0.0829,0.24814
0.18017,0.98244,-0.04842,-0.35541,-0.1871,0.30654
0.16633,0.98598,-0.01275,-0.2311,-0.2005,0.25107
0.14985,0.98845,0.02209,0.07833,-0.03173,0.04674
0.13023,0.99009,0.05241,0.155,-0.01321,-0.09616
0.11158,0.9909,0.07518,0.06294,-0.1139,-0.10684
0.09405,0.99128,0.09225,0.0225,-0.19451,-0.04565
0.07522,0.99131,0.10783,0.0061,-0.20083,-0.01083
0.05385,0.99075,0.12451,0.1174,-0.16171,-0.06771
0.03281,0.98921,0.14272,0.20075,-0.11612,-0.11679
0.01114,0.98692,0.16075,0.26293,0.14093,-0.10146
-0.01273,0.9835,0.18041,0.28346,0.1675,-0.15041
-0.03757,0.97997,0.19555,0.21391,0.07873,-0.24067
-0.06223,0.97818,0.19817,0.41381,0.14375,-0.15533
-0.08267,0.97737,0.19465,0.62655,0.23814,-0.10893
-0.09803,0.97691,0.18977,0.91295,0.31932,-0.22458
-0.11048,0.97861,0.17351,0.59021,0.28091,-0.18287
-0.11186,0.9829,0.1462,0.62152,0.36402,-0.1741
-0.09534,0.98938,0.10964,0.42464,0.09167,-0.4594
-0.0558,0.99632,0.06491,0.18543,0.13889,-0.34503
-0.00066,0.99999,0.00086,-0.03102,0.33208,-0.22138
0.05849,0.99636,-0.06192,-0.6169,0.80982,0.37362
0.10867,0.98854,-0.10476,-0.77853,0.88878,0.87635
0.16173,0.97699,-0.13903,-0.22533,0.75737,-0.43401
0.22015,0.96144,-0.16477,-0.04849,0.45119,-0.54925
0.27147,0.94222,-0.19624,-0.12819,0.31056,0.19749
0.32076,0.92144,-0.2192,-0.09323,0.17751,0.46543
0.36479,0.90246,-0.22908,0.00918,-0.15881,0.20143
0.40194,0.88015,-0.25254,-0.24243,-0.19953,0.20545
0.42479,0.8598,-0.28336,-0.24045,-0.25381,0.27045
0.4378,0.84232,-0.31437,-0.3747,-0.33725,0.42731
0.44657,0.8278,-0.33959,-0.49105,-0.35409,0.43538
0.45047,0.81802,-0.35765,-0.5693,-0.33369,0.50542
0.45054,0.81299,-0.36885,-0.61518,-0.38428,0.49304
0.4428,0.81506,-0.37363,-0.64281,-0.53663,0.48771
0.43031,0.82428,-0.36795,-0.65401,-0.76674,0.4233
0.41324,0.8413,-0.34849,-0.41537,-0.25696,-0.09165
0.38718,0.86473,-0.31989,-0.38931,-0.28039,-0.12025
0.348,0.88702,-0.30347,-0.09816,0.04336,-0.3802
0.32875,0.88982,-0.31643,2.32602,1.8435,-1.00295
0.35735,0.87516,-0.32617,0.64628,0.40513,-1.06479
0.37857,0.86797,-0.32139,-0.18167,-0.60427,-0.4556
0.39017,0.86475,-0.31619,-0.78717,-0.3504,0.29848
0.38655,0.87132,-0.30229,-0.50033,0.40223,1.08937
0.37333,0.88825,-0.26764,-0.29105,0.74345,0.19056
0.38827,0.88021,-0.27288,0.6611,1.78953,-1.00772
0.38992,0.87659,-0.28205,-0.69482,-0.61766,0.62937
0.37176,0.88945,-0.26582,-0.69362,-0.52711,0.63892
0.34662,0.90926,-0.2304,-0.69713,-0.34644,0.89926
0.3171,0.92831,-0.19412,-0.6401,0.04781,0.84166
0.2801,0.94439,-0.17225,-0.31738,0.60176,0.44204
0.24892,0.95703,-0.14873,0.22661,0.63452,-0.02235
0.22932,0.96658,-0.11459,-0.14777,-0.08164,0.25607
0.21446,0.97319,-0.08301,-0.24937,-0.08252,0.32518
0.20434,0.97728,-0.05618,-0.37326,-0.097,0.30043
0.19563,0.9804,-0.02299,-0.30127,-0.16789,0.28701
0.18437,0.98275,0.01369,-0.12573,-0.11638,0.22696
0.16988,0.98421,0.04948,0.05801,0.03594,0.051
0.15186,0.98525,0.07872,0.07564,-0.12614,-0.12332
0.13442,0.98592,0.09943,0.04659,-0.13718,-0.14774
0.11728,0.9866,0.1134,0.02058,-0.14738,-0.05474
0.10111,0.98686,0.12595,0.07182,-0.17365,0.01235
0.08437,0.9865,0.1403,0.11564,-0.15953,-0.03701
0.06602,0.98544,0.15666,0.19301,-0.0969,-0.1326
0.04508,0.98397,0.1725,0.17233,-0.03143,-0.16186
0.02153,0.98208,0.18716,0.17004,0.03159,-0.15657
-0.00321,0.97957,0.20101,0.27417,0.19712,-0.18647
-0.02769,0.97703,0.21127,0.33239,0.14663,-0.18344
-0.05054,0.97592,0.21214,0.44942,0.09254,-0.12691
-0.06819,0.97498,0.21153,0.83081,0.26492,-0.21723
-0.08152,0.97513,0.20606,0.78477,0.28926,-0.27124
-0.08952,0.9783,0.18684,0.53001,0.21101,-0.27136
-0.08652,0.98394,0.15607,0.72895,0.36155,-0.5083
-0.06156,0.9911,0.11801,0.56712,0.1912,-0.4822
-0.01505,0.99757,0.06793,0.29882,0.16782,-0.41646
0.04307,0.99906,-0.00184,-0.37805,0.69782,-0.23968
0.09932,0.9933,-0.05889,-0.87673,0.9129,0.6972
0.14638,0.9839,-0.10247,-0.62929,0.74788,0.36397
0.19929,0.97066,-0.13452,-0.14877,0.63176,-0.5871
0.25216,0.95406,-0.16178,-0.09429,0.39202,-0.31811
0.3017,0.93389,-0.19187,-0.10869,0.19335,0.30081
0.35067,0.91307,-0.20814,-0.07122,0.10417,0.3958
0.39497,0.89235,-0.2184,0.02591,-0.17319,0.14547
0.4254,0.8717,-0.24322,-0.16317,-0.23717,0.16627
0.44447,0.85347,-0.27209,-0.28029,-0.25654,0.26788
0.45668,0.8369,-0.30171,-0.36525,-0.26493,0.43516
0.46579,0.82279,-0.32564,-0.56691,-0.32174,0.4652
0.47026,0.81343,-0.34231,-0.59862,-0.31453,0.50102
0.47141,0.80892,-0.35129,-0.69361,-0.44517,0.47615
0.46484,0.81215,-0.35261,-0.67274,-0.55125,0.47171
0.45431,0.82232,-0.34261,-0.66707,-0.79109,0.36946
0.43743,0.84019,-0.32051,-0.47994,-0.36435,-0.10887
0.41001,0.8636,-0.29339,-0.22277,-0.08844,-0.247
0.36964,0.88578,-0.28062,0.52707,1.12716,-0.88529
0.36392,0.88379,-0.29403,2.12127,1.77645,-1.15555
0.38406,0.86962,-0.31022,0.37628,0.0766,-0.92795
0.40358,0.86333,-0.30296,-0.33731,-0.522,-0.42584
0.41315,0.86274,-0.2915,-0.9229,0.34789,0.42709
0.40755,0.86852,-0.28208,-0.75135,0.43867,0.80562
0.39879,0.87915,-0.26087,-0.23044,0.60661,0.32602
0.41358,0.87264,-0.2597,-0.06869,0.18329,-0.10807
0.41704,0.87245,-0.25473,-0.56711,-0.4567,0.34096
0.40137,0.8863,-0.23101,-0.56049,-0.26603,0.53077
0.37696,0.90606,-0.19221,-0.65059,0.06972,0.76035
0.34807,0.92474,-0.15393,-0.60192,0.1581,0.58063
0.32084,0.93766,-0.13358,-0.35845,0.44453,0.28628
0.29496,0.94806,-0.119,-0.00286,0.23208,0.18861
0.27342,0.95726,-0.09423,-0.22477,0.04892,0.32044
0.25748,0.96439,-0.06038,-0.44869,0.01226,0.34121
0.24598,0.96891,-0.02629,-0.39002,-0.00735,0.3289
0.23628,0.97164,0.00905,-0.28029,-0.04776,0.27168
0.22431,0.97352,0.04388,-0.02663,-0.06694,0.16556
0.20861,0.97495,0.07705,0.04388,0.04992,0.07215
0.18939,0.97621,0.10546,0.06937,0.05128,-0.01093
0.16914,0.97707,0.1293,0.02857,-0.13652,-0.07666
0.14861,0.97745,0.14997,0.03726,-0.20774,-0.05912
0.12808,0.97758,0.16711,0.05373,-0.19691,-0.05149
0.10677,0.9773,0.18296,0.13176,-0.14336,-0.07892
0.08404,0.97635,0.19916,0.20461,-0.13414,-0.15807
0.05984,0.97479,0.21491,0.25272,-0.12486,-0.21465
0.03438,0.97249,0.23036,0.33296,0.06264,-0.26988
0.00923,0.9695,0.24487,0.33523,0.25379,-0.22335
-0.01562,0.96691,0.25462,0.3453,0.28674,-0.18594
-0.0414,0.96538,0.25751,0.45414,0.16729,-0.26251
-0.06524,0.96414,0.25723,0.62861,0.19605,-0.42451
-0.08188,0.96511,0.24869,0.66069,0.26985,-0.48546
-0.09314,0.96909,0.22843,0.59923,0.18843,-0.23394
-0.09651,0.97644,0.19297,0.7328,0.1232,-0.31778
-0.0775,0.986,0.14762,0.77651,0.11743,-0.51251
-0.03246,0.99449,0.09964,0.38364,0.0826,-0.34912
0.03111,0.99897,0.03292,-0.02571,0.50866,-0.23095
0.09844,0.9948,-0.02581,-0.46801,1.04939,0.32181
0.15428,0.98557,-0.06948,-0.72842,1.24618,0.90369
0.20867,0.97275,-0.10104,-0.12452,0.68354,-0.70296
0.26192,0.9568,-0.12621,-0.03224,0.58068,-0.64835
0.30951,0.9374,-0.15963,-0.13588,0.25676,0.33156
0.36129,0.91519,-0.1786,-0.1382,0.14794,0.4136
0.41426,0.89045,-0.18836,-0.0588,-0.1167,0.2145
0.45036,0.86646,-0.21543,-0.19771,-0.20803,0.25346
0.47002,0.84578,-0.25246,-0.28138,-0.2427,0.354
0.48078,0.82841,-0.28736,-0.42578,-0.28113,0.43177
0.48611,0.81511,-0.31509,-0.56471,-0.31589,0.49489
0.4875,0.80649,-0.33453,-0.73449,-0.38509,0.53371
0.48218,0.804,-0.34797,-0.73529,-0.44269,0.54581
0.46984,0.80884,-0.35358,-0.69354,-0.61221,0.53081
0.45168,0.82248,-0.34569,-0.72101,-0.67938,0.43804
0.42976,0.84352,-0.32214,-0.6881,-0.64279,0.29508
0.39964,0.86747,-0.29626,-0.32733,-0.26257,-0.16727
0.35509,0.88809,-0.29188,1.29469,1.76241,-1.31622
0.34858,0.88406,-0.3113,2.17064,2.16487,-1.01949
0.37457,0.8716,-0.31622,-0.04832,-0.5367,-0.46762
0.40498,0.86152,-0.30622,-0.68094,-0.61703,-0.1083
0.41926,0.85644,-0.30119,-0.93228,-0.23239,0.01045
0.41195,0.86624,-0.28268,-0.24081,0.54677,0.89498
0.40485,0.8813,-0.2437,-0.05421,0.69752,0.58969
0.42251,0.87432,-0.23883,-0.11001,0.78797,-0.31232
0.4274,0.87078,-0.24302,-0.91228,-0.55004,0.50431
0.41486,0.8828,-0.22032,-0.77656,-0.39754,0.66261
0.39531,0.9014,-0.17665,-0.71881,-0.20075,0.80134
0.36629,0.92134,-0.13018,-0.60725,0.26872,0.50027
0.32971,0.93799,-0.10701,-0.14772,0.78794,0.1566
0.30242,0.9489,-0.09012,0.20031,0.3414,0.07126
0.28492,0.95666,-0.06012,-0.36463,-0.03961,0.27476
0.26957,0.96264,-0.02533,-0.46669,-0.05459,0.26087
0.25551,0.96677,0.00781,-0.49846,-0.08472,0.24159
0.24226,0.96939,0.03984,-0.17685,-0.14901,0.227
0.2275,0.97094,0.07422,0.04699,-0.05935,0.18599
0.21044,0.97157,0.10836,0.16141,0.03471,0.03184
0.19322,0.9716,0.13656,0.12276,-0.03822,-0.13964
0.17721,0.97168,0.15628,0.00158,-0.13463,-0.11237
0.16073,0.97192,0.17183,-0.02768,-0.11409,-0.06961
0.14051,0.97247,0.18587,0.00654,-0.11871,-0.01159
0.11827,0.97272,0.19952,0.12839,-0.09301,-0.0457
0.09338,0.97215,0.21492,0.20627,-0.06323,-0.10022
0.06538,0.9706,0.23162,0.308,-0.07183,-0.23865
0.0373,0.96837,0.24669,0.39109,0.13483,-0.23935
0.01234,0.96523,0.2611,0.44063,0.2135,-0.22718
-0.01191,0.96206,0.27255,0.46725,0.15116,-0.17189
-0.0376,0.96108,0.27366,0.57892,0.15823,-0.25468
-0.05847,0.96044,0.27226,0.62982,0.248,-0.3712
-0.0734,0.96241,0.26148,0.5093,0.30867,-0.45639
-0.08059,0.96836,0.23616,0.552,0.29377,-0.22124
-0.07338,0.97654,0.20241,0.69702,0.40116,-0.43009
-0.04079,0.98592,0.16211,0.51547,0.10314,-0.57062
0.01206,0.99414,0.10739,0.07191,0.36412,-0.35957
0.07305,0.99659,0.03811,-0.36295,0.82259,-0.28767
0.12819,0.99156,-0.01909,-0.94207,1.01253,0.58912
0.17272,0.98305,-0.06148,-0.35201,0.69597,-0.32854
0.22126,0.97116,-0.08874,-0.13545,0.58484,-0.70499
0.27095,0.95461,-0.12365,0.04329,0.28202,-0.27559
0.32101,0.93414,-0.15596,-0.17607,0.07469,0.44831
0.36854,0.91413,-0.1689,-0.06497,-0.07759,0.32112
0.40776,0.89276,-0.19156,-0.17905,-0.1919,0.13157
0.43367,0.87299,-0.22317,-0.22471,-0.29693,0.16554
0.45213,0.85453,-0.25563,-0.24667,-0.27026,0.28155
0.46775,0.83719,-0.2834,-0.39913,-0.28955,0.3975
0.47954,0.82345,-0.30325,-0.45378,-0.27023,0.42191
0.48634,0.8143,-0.31684,-0.65936,-0.30044,0.47261
0.48522,0.81218,-0.3239,-0.68663,-0.48152,0.43308
0.47829,0.81703,-0.32201,-0.6803,-0.66184,0.41028
0.46694,0.82927,-0.30704,-0.66805,-0.80769,0.183
0.44886,0.84836,-0.2807,-0.32435,-0.39213,-0.23679
0.41752,0.87295,-0.25227,-0.10531,-0.09569,-0.27109
0.38879,0.88905,-0.24172,2.21247,1.92914,-1.12027
0.4088,0.87801,-0.24893,0.89681,0.805,-1.58533
0.42541,0.86674,-0.26035,0.27832,-0.18593,-1.02677
0.43991,0.85927,-0.26103,-0.92718,-0.31288,0.42219
0.44527,0.8604,-0.24787,-1.00231,0.24382,1.29058
0.43156,0.87682,-0.21199,-0.82631,0.33524,0.3889
0.42836,0.88098,-0.20092,0.73253,1.5182,-0.90615
0.44056,0.8743,-0.2037,-0.60407,-0.53974,0.34091
0.42691,0.88506,-0.18551,-0.58075,-0.40994,0.43371
0.39711,0.90445,-0.15577,-0.57775,-0.02318,0.77704
0.36105,0.92468,-0.12084,-0.42224,0.26304,0.53914
0.32989,0.93922,-0.09496,-0.11192,0.48347,0.10794
0.30478,0.94961,-0.07307,0.02307,0.44249,-0.11266
0.28002,0.95902,-0.04317,-0.24133,-0.00196,0.20353
0.2562,0.96653,-0.01298,-0.36083,-0.03757,0.27509
0.23687,0.97142,0.01476,-0.36222,-0.08492,0.28058
0.21965,0.97443,0.0471,-0.09761,-0.17553,0.17967
0.20208,0.97603,0.08069,0.09814,-0.08142,0.08357
0.18432,0.97662,0.11055,0.15555,-0.01367,-0.02428
0.16549,0.97695,0.13478,0.10342,-0.15789,-0.15572
0.14739,0.97717,0.15299,0.04165,-0.18064,-0.12539
0.12828,0.9774,0.16797,0.01116,-0.15204,-0.11669
0.10722,0.97736,0.18236,0.0445,-0.09014,-0.0931
0.08345,0.97698,0.19631,0.21848,-0.10239,-0.19174
0.05843,0.97575,0.21089,0.2435,-0.10117,-0.20631
0.03183,0.97371,0.22553,0.28629,0.01503,-0.22211
0.00615,0.97064,0.24044,0.34459,0.14635,-0.20478
-0.01879,0.96684,0.25466,0.4085,0.16565,-0.20005
-0.04505,0.96404,0.26189,0.58262,0.24847,-0.24412
-0.0692,0.96261,0.26186,0.81018,0.39011,-0.35943
-0.08817,0.96257,0.25626,0.64984,0.33214,-0.4247
-0.10075,0.96611,0.23761,0.55576,0.20584,-0.22598
-0.10269,0.97314,0.20601,0.75367,0.39148,-0.4776
-0.08252,0.98242,0.1674,0.59322,0.16383,-0.49651
-0.03677,0.99181,0.12227,0.06861,0.31079,-0.47036
0.02299,0.9983,0.05355,-0.56027,0.79148,0.19626
0.08486,0.99637,-0.00555,-0.75875,1.02952,0.75324
0.14115,0.98861,-0.05214,-0.25888,0.95717,-0.45371
0.19915,0.97597,-0.08834,-0.25722,0.54456,-0.57927
0.25404,0.95986,-0.1188,-0.24596,0.35903,-0.29101
0.30235,0.94089,-0.15268,-0.06597,0.18411,0.36096
0.35322,0.91944,-0.1728,-0.05221,-0.16842,0.12212
0.40122,0.89666,-0.1871,-0.1185,-0.27804,0.14883
0.43638,0.87116,-0.22503,-0.27346,-0.34918,0.26467
0.45623,0.8489,-0.26686,-0.29015,-0.36421,0.37097
0.46687,0.83013,-0.30482,-0.36447,-0.35556,0.43536
0.47513,0.81435,-0.3333,-0.52537,-0.30046,0.46468
0.47883,0.80375,-0.35314,-0.59823,-0.30875,0.50289
0.47778,0.79972,-0.36354,-0.6859,-0.38126,0.49628
0.47099,0.80346,-0.36417,-0.67502,-0.76914,0.39339
0.45834,0.81613,-0.35192,-0.65722,-0.76599,0.12847
0.43677,0.83837,-0.32613,-0.58091,-0.61539,-0.04632
0.40453,0.86638,-0.2928,0.40488,0.67071,-0.91072
0.36308,0.88715,-0.28485,2.48887,2.26544,-1.19997
0.38123,0.8755,-0.2969,1.50486,2.03142,-1.3646
0.40608,0.8599,-0.3093,-0.35255,-0.86019,-0.28725
0.43224,0.84559,-0.31329,-1.10694,-0.26003,0.11016
0.43886,0.84613,-0.30242,-1.09835,0.24303,0.52168
0.42615,0.86542,-0.2635,0.65081,1.49536,-1.05843
0.41699,0.87441,-0.24802,0.4388,1.51365,-0.39972
0.42956,0.86435,-0.26147,-0.36778,-0.06111,0.40184
0.41552,0.87475,-0.2493,-0.63668,-0.37659,0.75578
0.38851,0.89489,-0.21958,-0.69401,-0.14863,0.88685
0.35692,0.91691,-0.17853,-0.65155,0.055,0.74181
0.32429,0.93425,-0.14832,-0.23483,0.49511,0.25517
0.29331,0.94746,-0.12762,0.13155,0.44181,0.01618
0.26365,0.95928,-0.10129,0.02314,0.07824,0.19701
0.24091,0.96829,-0.06616,-0.1817,-0.05598,0.25155
0.22527,0.97364,-0.03564,-0.27732,-0.14701,0.22924
0.21265,0.9771,-0.00605,-0.26232,-0.22123,0.22947
0.19904,0.97959,0.02795,-0.13413,-0.18314,0.16315
0.18306,0.98101,0.064,0.00122,-0.02511,0.05284
0.16319,0.98163,0.09879,0.10375,-0.03545,-0.1068
0.14396,0.98166,0.12492,0.05164,-0.12628,-0.19742
0.12616,0.98174,0.14237,-0.02437,-0.16417,-0.17775
0.10683,0.98185,0.15668,-0.00615,-0.13865,-0.04581
0.08587,0.98181,0.16933,0.08052,-0.09905,-0.04464
0.06374,0.98085,0.18403,0.16096,-0.0491,-0.12356
0.04001,0.97877,0.20097,0.22369,0.01071,-0.18634
0.01445,0.97606,0.217,0.25274,0.13564,-0.21814
-0.01025,0.97267,0.23195,0.30113,0.21218,-0.23557
-0.03376,0.96955,0.24252,0.43904,0.20377,-0.22564
-0.05749,0.96818,0.24354,0.7915,0.2839,-0.257
-0.07613,0.96724,0.24217,0.78845,0.32978,-0.40516
-0.09044,0.96904,0.22974,0.61125,0.27494,-0.29475
-0.09418,0.97444,0.20393,0.55843,0.35329,-0.25594
-0.0834,0.98238,0.16723,0.60462,0.13685,-0.49675
-0.04854,0.99094,0.12517,0.19925,0.17813,-0.45357
0.00492,0.99789,0.06473,-0.09652,0.34078,-0.34778
0.06679,0.99776,-0.00204,-0.59764,0.91859,0.62328
0.12404,0.99115,-0.04718,-0.62097,1.07501,0.71303
0.1796,0.97985,-0.08731,-0.21431,0.7835,-0.53681
0.2356,0.96492,-0.1158,-0.16989,0.34631,-0.38969
0.28431,0.94711,-0.14877,-0.15722,0.20022,0.00051
0.33431,0.9249,-0.18108,-0.13902,0.14239,0.46037
0.37907,0.90284,-0.20292,0.06491,-0.11387,0.29676
0.41951,0.87897,-0.22672,-0.16736,-0.24134,0.09131
0.44414,0.85803,-0.25792,-0.1867,-0.28839,0.28648
0.45873,0.84009,-0.28949,-0.35382,-0.30291,0.40817
0.46875,0.82436,-0.31733,-0.43745,-0.30907,0.43898
0.47561,0.81153,-0.33942,-0.66909,-0.32751,0.48757
0.47631,0.80366,-0.35674,-0.70315,-0.43369,0.47954
0.46932,0.80275,-0.36786,-0.6968,-0.51121,0.48145
0.45791,0.80952,-0.3674,-0.68061,-0.79816,0.36363
0.44316,0.82549,-0.34953,-0.62518,-0.6527,0.13282
0.41998,0.84964,-0.31894,-0.10331,-0.21378,-0.17746
0.38807,0.87484,-0.28993,0.64062,1.11352,-0.98012
0.35915,0.88641,-0.29201,2.27782,2.31267,-1.21157
0.38266,0.87176,-0.30595,0.30954,0.08108,-0.7768
0.40387,0.8596,-0.31301,-0.41452,-0.82975,-0.08915
0.42854,0.84934,-0.30818,-0.98643,-0.35024,0.09832
0.4329,0.85175,-0.29514,-1.00166,0.01516,0.56244
0.41659,0.8737,-0.25118,-0.29549,0.68587,0.23544
0.40918,0.8843,-0.22489,1.01115,2.04411,-1.12869
0.42712,0.87109,-0.2424,-0.68949,-0.5209,0.7851
0.4155,0.87786,-0.23814,-0.77163,-0.58369,0.55407
0.38973,0.8966,-0.21026,-0.73764,-0.39115,0.84692
0.35522,0.91981,-0.16659,-0.6307,-0.03531,0.71644
0.31583,0.9391,-0.13538,-0.30664,0.53499,0.43249
0.27956,0.95322,-0.11494,0.32044,0.72198,-0.15038
0.25462,0.96306,-0.08761,-0.0534,0.01582,0.07478
0.23006,0.9714,-0.05869,-0.29501,-0.08322,0.24227
0.21172,0.97672,-0.03438,-0.33676,-0.16711,0.21569
0.19693,0.98038,-0.00779,-0.26298,-0.25811,0.25254
0.18266,0.9829,0.02286,0.02487,-0.21797,0.23208
0.16546,0.98462,0.05605,0.21316,0.06064,-0.00928
0.14602,0.98545,0.08689,0.18572,-0.00828,-0.09026
0.12664,0.98548,0.11306,0.05497,-0.18065,-0.23753
0.10849,0.98524,0.13235,-0.14927,-0.19372,-0.06684
0.09072,0.98507,0.14625,-0.09976,-0.16482,-0.04626
0.06941,0.9846,0.16042,0.09394,-0.12246,-0.06347
0.04654,0.98306,0.17721,0.24626,-0.03714,-0.14901
0.02244,0.98073,0.19406,0.25052,0.03141,-0.19612
-0.0031,0.97771,0.20992,0.18628,0.1797,-0.219
-0.02774,0.97459,0.22224,0.31916,0.20513,-0.21057
-0.05531,0.97307,0.22375,0.79884,0.29628,-0.13837
-0.07912,0.97263,0.21845,1.25698,0.30177,-0.19615
-0.09306,0.97209,0.21533,1.18537,0.24536,-0.35165
-0.09911,0.97499,0.19889,0.55554,0.22081,-0.37247
-0.09034,0.98141,0.16926,0.7467,0.42444,-0.50471
-0.06248,0.98923,0.1323,0.45682,0.2485,-0.52837
-0.01451,0.99656,0.0815,0.1187,0.3106,-0.41176
0.04289,0.99903,0.00976,-0.64271,0.76284,0.22378
0.09913,0.994,-0.04599,-0.74598,1.08432,0.65146
0.14931,0.98443,-0.0927,-0.51046,0.99969,0.16529
0.20169,0.97099,-0.12844,-0.03906,0.45316,-0.48211
0.25415,0.95393,-0.15941,-0.03124,0.2424,0.08165
0.30451,0.93347,-0.18948,-0.24743,0.25827,0.3247
0.35504,0.91288,-0.20147,-0.08322,-0.11919,0.21121
0.40631,0.88842,-0.21359,-0.14006,-0.24791,0.15939
0.4394,0.86566,-0.2399,-0.15246,-0.34184,0.15953
0.45925,0.84737,-0.26654,-0.2575,-0.33133,0.31986
0.46988,0.83283,-0.29256,-0.38004,-0.33619,0.42483
0.47611,0.82147,-0.31386,-0.53978,-0.35072,0.44501
0.47929,0.81378,-0.32868,-0.70541,-0.3967,0.44724
0.47715,0.81144,-0.33747,-0.71404,-0.49412,0.45328
0.46934,0.8154,-0.33887,-0.66291,-0.7374,0.43673
0.45723,0.82672,-0.32782,-0.54899,-0.56554,0.15862
0.43815,0.84615,-0.30338,-0.10529,-0.00997,-0.21385
0.40932,0.86958,-0.2762,0.04962,0.58776,-0.70424
0.37049,0.88719,-0.275,2.19007,1.95293,-0.99661
0.38547,0.87625,-0.28911,0.69384,1.04909,-1.33598
0.40706,0.86355,-0.29762,-0.17034,-0.68544,-0.6048
0.42652,0.8565,-0.29066,-0.94728,-0.84411,0.3428
0.43887,0.8537,-0.28033,-0.90059,0.41464,1.31594
0.42546,0.8696,-0.25053,-0.46611,0.70714,0.89945
0.41385,0.88599,-0.20915,1.50955,1.95252,-1.11329
0.44084,0.86933,-0.22343,-1.00472,-0.83322,0.76748
0.43391,0.87245,-0.22481,-0.93698,-0.87929,0.20581
0.41128,0.89022,-0.1958,-0.83741,-0.60733,0.97229
0.38294,0.91198,-0.14708,-0.74779,0.07912,0.69812
0.34584,0.9319,-0.10931,-0.5472,0.52773,0.42558
0.29424,0.9513,-0.09188,0.15466,1.04448,-0.01542
0.26143,0.96297,-0.06578,0.26009,0.2498,-0.00894
0.23743,0.97105,-0.02589,-0.00063,-0.05491,0.20633
0.21558,0.97644,0.00844,-0.33828,-0.17285,0.25964
0.19798,0.97945,0.03833,-0.13907,-0.25694,0.24516
0.18015,0.98075,0.07523,-0.0803,-0.20576,0.19324
0.16183,0.98042,0.1121,0.04364,-0.01723,-0.11178
0.14377,0.9796,0.14033,0.08817,-0.13913,-0.28447
0.12479,0.97933,0.15917,0.06871,-0.24181,-0.31167
0.10755,0.9797,0.16911,-0.04284,-0.19392,-0.06803
0.09038,0.97999,0.1773,0.01474,-0.16604,-0.03831
0.07003,0.97979,0.18735,0.14698,-0.13025,-0.03479
0.04702,0.97841,0.2012,0.16436,-0.05793,-0.11407
0.02258,0.97606,0.21627,0.2221,0.03488,-0.12916
-0.00447,0.97266,0.23214,0.32634,0.21542,-0.15371
-0.03101,0.96805,0.24881,0.3835,0.17932,-0.22977
-0.05484,0.96381,0.26086,0.42053,0.18089,-0.25421
-0.07494,0.96183,0.26317,0.64053,0.41461,-0.33087
-0.0898,0.96268,0.25528,0.59444,0.27718,-0.36644
-0.10267,0.96646,0.23536,0.61675,0.23697,-0.23598
-0.10493,0.97417,0.19992,0.7218,0.24922,-0.27371
-0.08563,0.98452,0.15291,0.57919,0.13081,-0.51441
-0.04031,0.99372,0.10426,-0.06911,0.39183,-0.50514
0.02371,0.99903,0.03689,-0.60277,0.74999,-0.02032
0.08947,0.99584,-0.01682,-0.76628,1.05811,0.69963
0.14302,0.98795,-0.05906,-0.09951,0.73654,-0.10433
0.19561,0.97656,-0.08972,-0.03335,0.56813,-0.48894
0.25053,0.96163,-0.11171,0.01833,0.53107,-0.15655
0.3062,0.94196,-0.13767,-0.25221,0.4492,0.22971
0.35963,0.92149,-0.14666,-0.11552,0.01882,0.17023
0.41131,0.89845,-0.1536,-0.23712,-0.19939,0.10618
0.44711,0.877,-0.17593,-0.32005,-0.32512,0.15663
0.46978,0.85893,-0.20379,-0.43885,-0.44769,0.33509
0.48637,0.84167,-0.23457,-0.47517,-0.56649,0.39091
0.49651,0.82727,-0.26286,-0.55099,-0.5334,0.36326
0.49976,0.8179,-0.28507,-0.584,-0.49401,0.35021
0.496,0.81521,-0.29901,-0.60308,-0.51188,0.37952
0.48481,0.82011,-0.30393,-0.65746,-0.72306,0.35799
0.46724,0.83286,-0.29669,-0.64087,-0.67563,0.21691
0.44039,0.85287,-0.28045,-0.23916,-0.31843,-0.13542
0.40688,0.87461,-0.26362,0.28426,0.52848,-0.55766
0.37671,0.88974,-0.25776,1.91634,1.86898,-1.22548
0.39654,0.88159,-0.25604,0.96592,0.90661,-1.47191
0.41496,0.87116,-0.26244,-0.48103,-0.63305,-0.0528
0.43125,0.86185,-0.26689,-0.82154,-0.35713,0.17999
0.439,0.85937,-0.2622,-0.72967,0.54021,1.27409
0.43107,0.87255,-0.22982,0.30014,1.07949,-0.79956
0.43757,0.8716,-0.22096,0.03641,1.36941,-0.75008
0.43851,0.86446,-0.24577,-0.85369,-0.72575,0.49949
0.42014,0.87992,-0.22186,-0.70969,-0.30524,0.96482
0.38974,0.90345,-0.17851,-0.67735,-0.21305,0.92508
0.34936,0.9276,-0.1323,-0.3776,0.53304,0.43366
0.30525,0.94621,-0.1072,-0.06671,0.65233,0.20653
0.27192,0.95838,-0.08687,0.31091,0.39426,-0.06229
0.24301,0.96845,-0.05518,-0.18632,-0.12421,0.17688
0.21616,0.97614,-0.02019,-0.28429,-0.16703,0.17853
0.19413,0.98094,0.00805,-0.33913,-0.26818,0.30071
0.17604,0.98369,0.03689,-0.12463,-0.17306,0.08823
0.15698,0.98513,0.0697,0.08658,-0.04713,0.06223
0.13799,0.9852,0.10165,0.11123,-0.00235,0.01212
0.12026,0.98431,0.1291,-0.04215,-0.21824,-0.16791
0.10256,0.9834,0.14967,-0.08582,-0.22798,-0.20742
0.0833,0.98205,0.16917,-0.13667,-0.16818,-0.21486
0.06133,0.98009,0.18882,0.07004,0.0363,-0.01791
0.03637,0.97817,0.20458,0.16376,0.04477,-0.15823
0.00934,0.97547,0.21992,0.23114,0.04927,-0.27108
-0.01914,0.97232,0.23283,0.3749,0.20617,-0.37966
-0.04456,0.96941,0.24134,0.58433,0.20642,-0.27802
-0.06883,0.96765,0.24272,0.73929,0.18175,-0.19917
-0.08803,0.96724,0.23808,1.20648,0.25633,-0.30149
-0.09959,0.968,0.23032,0.53769,0.31963,-0.45804
-0.10081,0.97333,0.20604,0.4387,0.32615,-0.35372
-0.08636,0.98227,0.16637,0.6956,0.32391,-0.45133
-0.04787,0.99116,0.12368,0.25313,0.34505,-0.54153
0.01105,0.99823,0.05834,-0.43051,0.64956,-0.24083
0.07112,0.99744,-0.00695,-0.85698,0.98156,0.71633
0.123,0.9909,-0.05456,-0.77211,1.19269,0.62667
0.17704,0.97937,-0.09735,-0.19203,0.74031,-0.48608
0.23364,0.9632,-0.13287,-0.19974,0.32842,-0.2048
0.28742,0.94359,-0.16437,-0.16026,0.26144,0.18738
0.34159,0.92095,-0.18752,-0.34075,0.1327,0.31162
0.39103,0.89736,-0.2045,-0.21393,-0.37972,0.29655
0.43291,0.86777,-0.24405,-0.25995,-0.37056,0.28134
0.45702,0.8436,-0.28191,-0.22187,-0.40895,0.25231
0.47254,0.82524,-0.30932,-0.22813,-0.29881,0.34114
0.48375,0.81062,-0.32997,-0.47958,-0.33671,0.43974
0.49211,0.79919,-0.34512,-0.56717,-0.32628,0.45944
0.49587,0.79301,-0.35391,-0.67897,-0.35966,0.41369
0.49299,0.79427,-0.35508,-0.69845,-0.72758,0.37039
0.48301,0.80396,-0.34689,-0.68911,-0.78904,0.28871
0.46442,0.82333,-0.32624,-0.60938,-0.63644,0.01807
0.43416,0.84857,-0.30236,0.19592,0.49277,-0.54418
0.39604,0.87043,-0.2924,1.2289,1.31588,-0.73043
0.39986,0.86872,-0.29228,1.62915,1.97449,-1.30989
0.42921,0.85269,-0.29782,-0.20429,-0.58981,-0.4824
0.45507,0.83978,-0.29611,-0.61696,-0.82884,-0.13512
0.46957,0.83378,-0.29038,-1.00831,-0.25115,1.15537
0.46339,0.84712,-0.2601,-0.91742,0.0653,1.42787
0.43866,0.87651,-0.19821,-0.28157,1.23196,-0.61455
0.43939,0.87485,-0.20389,0.04986,0.84581,0.04874
0.45201,0.86419,-0.22102,-0.91611,-0.60374,0.79919
0.43678,0.8737,-0.21417,-0.82831,-0.68412,0.53586
0.41141,0.89347,-0.18014,-0.77447,-0.44147,0.96873
0.38159,0.91441,-0.13501,-0.69813,-0.18665,0.84586
0.34692,0.93203,-0.10471,-0.09736,0.92281,0.26018
0.31074,0.94705,-0.08079,0.29206,0.50128,-0.40342
0.28807,0.95678,-0.03986,-0.29365,-0.02898,0.15457
0.26605,0.96391,-0.00934,-0.35951,-0.07513,0.26265
0.24901,0.96845,0.00937,-0.36668,-0.26467,0.26627
0.23502,0.97127,0.0372,-0.2508,-0.27785,0.22387
0.21857,0.97318,0.07171,0.08108,-0.03214,0.1271
0.1981,0.97429,0.10728,0.19659,0.02464,-0.17813
0.17754,0.97429,0.13871,0.10232,-0.13523,-0.23281
0.15999,0.97414,0.15952,0.08872,-0.20194,-0.26129
0.14304,0.97417,0.17474,-0.06804,-0.12816,-0.0879
0.12432,0.97401,0.18931,-0.01986,-0.11992,-0.08719
0.10236,0.97372,0.20344,0.05857,-0.10977,-0.12239
0.07865,0.97247,0.21934,0.15826,-0.07852,-0.18671
0.05422,0.97028,0.23583,0.25346,0.13516,-0.1726
0.02922,0.96742,0.25146,0.27846,0.13801,-0.18823
0.00637,0.96432,0.26464,0.28666,0.21706,-0.10961
-0.01747,0.9621,0.27213,0.42566,0.24922,-0.23436
-0.04231,0.9604,0.27538,0.60226,0.43672,-0.44896
-0.06193,0.9606,0.27095,0.73187,0.3756,-0.38488
-0.07667,0.96371,0.25567,0.79132,0.28635,-0.17219
-0.08485,0.9694,0.23036,0.81391,0.36114,-0.40889
-0.07359,0.97834,0.19344,0.68863,0.18714,-0.63751
-0.0371,0.9882,0.14854,0.32307,0.14047,-0.48691
0.01629,0.99634,0.08387,-0.11767,0.32484,-0.29472
0.07608,0.99693,0.01845,-0.45544,0.70826,0.36206
0.13125,0.99082,-0.03214,-0.39721,1.02726,0.17125
0.18239,0.98051,-0.07303,-0.31693,0.88287,-0.29027
0.23408,0.96703,-0.10031,-0.24157,0.4843,-0.58352
0.27954,0.95059,-0.13504,-0.11056,0.24454,0.2708
0.32478,0.93122,-0.16533,-0.09152,0.11782,0.41385
0.37114,0.91146,-0.17745,0.01283,-0.14687,0.10926
0.41101,0.88986,-0.19802,-0.17208,-0.255,0.17582
0.43333,0.87167,-0.22894,-0.19514,-0.31099,0.23698
0.44556,0.8565,-0.26055,-0.30742,-0.37117,0.38819
0.45206,0.84449,-0.28719,-0.48057,-0.41162,0.42458
0.45598,0.83544,-0.30679,-0.63475,-0.46596,0.4559
0.45559,0.83011,-0.32149,-0.70006,-0.55385,0.45317
0.44895,0.82998,-0.33102,-0.67728,-0.64416,0.44688
0.43682,0.83663,-0.33049,-0.56646,-0.77247,0.35979
0.42074,0.85021,-0.31641,-0.36567,-0.3314,-0.1436
0.39633,0.87044,-0.29199,0.19347,0.48976,-0.7381
0.36109,0.88768,-0.28571,0.97176,1.19273,-0.92581
0.36384,0.8821,-0.2992,0.92132,1.28093,-1.30935
0.39042,0.86742,-0.30848,0.27534,0.08725,-0.89463
0.41152,0.85819,-0.30685,-0.51677,-0.81603,-0.37574
0.42097,0.85522,-0.30228,-1.18869,-0.15299,1.40321
0.41705,0.86623,-0.27515,-0.87025,0.40693,0.99936
0.39784,0.88733,-0.23317,-0.49146,1.00588,-0.71434
0.40328,0.8817,-0.24486,-0.0274,0.2727,0.16046
0.40586,0.88067,-0.24431,-0.67454,-0.55027,0.41062
0.38425,0.89495,-0.22675,-0.66655,-0.41294,0.75113
0.34956,0.91808,-0.1869,-0.62196,-0.12531,0.84068
0.3122,0.93847,-0.14763,-0.4289,0.16921,0.60161
0.27747,0.95259,-0.12485,-0.22989,0.43783,0.43409
0.24733,0.96379,-0.09968,-0.01044,-0.00695,0.03564
0.22074,0.97327,-0.06332,-0.15805,-0.09116,0.1649
0.19967,0.97925,-0.03439,-0.28723,-0.14466,0.26296
0.18689,0.98233,-0.01012,-0.30481,-0.18873,0.26456
0.17538,0.98426,0.02133,-0.19712,-0.21489,0.1733
0.16138,0.98511,0.05915,-0.00325,-0.08977,0.00712
0.14504,0.98528,0.09042,0.14943,0.01385,-0.16193
0.12796,0.98543,0.11203,0.17857,-0.10441,-0.26825
0.11022,0.98591,0.12579,0.04954,-0.1676,-0.17579
0.09467,0.98605,0.13688,0.03229,-0.12892,0.02696
0.07833,0.9857,0.14914,0.06881,-0.13371,-0.01094
0.05884,0.9843,0.16636,0.12352,-0.10679,-0.14948
0.037,0.98185,0.18597,0.15623,0.01908,-0.18098
0.01279,0.97897,0.20358,0.15081,0.22208,-0.1602
-0.0104,0.97535,0.22041,0.14973,0.21607,-0.23671
-0.03251,0.97199,0.23275,0.30818,0.21188,-0.30198
-0.0527,0.97075,0.23422,0.74142,0.33029,-0.23481
-0.06763,0.96999,0.23353,1.08602,0.37985,-0.3005
-0.08173,0.97113,0.22408,0.70542,0.30727,-0.32232
-0.08934,0.97558,0.20065,0.64302,0.37831,-0.22645
-0.08162,0.98282,0.16549,0.76518,0.33082,-0.48065
-0.05308,0.99097,0.12309,0.58495,0.06935,-0.42075
-0.00603,0.9978,0.06593,-0.0292,0.38023,-0.25003
0.05177,0.99865,-0.00022,-0.28433,0.52655,0.09589
0.10667,0.99317,-0.04712,-0.58638,0.97639,0.86547
0.15723,0.98365,-0.08773,-0.19747,0.77437,-0.41555
0.20936,0.97068,-0.11806,-0.2244,0.60382,-0.55925
0.25562,0.95494,-0.15079,-0.04131,0.26981,0.23266
0.29995,0.93615,-0.18344,-0.09409,0.29467,0.46741
0.34937,0.9162,-0.19625,-0.11239,0.01022,0.29786
0.39639,0.89441,-0.2071,-0.24032,-0.29178,0.16548
0.4265,0.87429,-0.23176,-0.27455,-0.31682,0.23613
0.44673,0.85663,-0.25808,-0.29633,-0.40148,0.32343
0.45671,0.84204,-0.28702,-0.47671,-0.42055,0.42956
0.46129,0.83045,-0.31234,-0.58696,-0.36786,0.50063
0.46186,0.8225,-0.33193,-0.66259,-0.36214,0.49941
0.45796,0.81919,-0.34524,-0.67282,-0.57105,0.43682
0.44877,0.82256,-0.34929,-0.65678,-0.63553,0.33195
0.435,0.83363,-0.34034,-0.63418,-0.62557,0.18276
0.41304,0.85212,-0.32138,-0.05988,-0.11414,-0.14682
0.3858,0.87162,-0.30238,0.06359,0.36006,-0.47608
0.35918,0.88212,-0.30471,1.66027,1.65186,-0.9473
0.37785,0.87143,-0.31279,0.38091,0.0435,-0.84017
0.40336,0.86068,-0.31068,-0.27982,-0.57493,-0.13314
0.42336,0.85409,-0.30215,-0.79304,-0.28797,0.35973
0.42615,0.8579,-0.28706,-0.80146,0.23573,1.28839
0.41074,0.87864,-0.24347,-0.52759,0.59656,0.00432
0.39731,0.88945,-0.22589,0.76528,1.81826,-1.23663
0.40747,0.87941,-0.24618,-0.65718,-0.40722,0.5805
0.3968,0.88674,-0.23714,-0.68817,-0.6139,0.59439
0.37356,0.90437,-0.2063,-0.67771,-0.48154,0.92067
0.34362,0.92506,-0.16178,-0.48985,-0.06235,0.73545
0.31023,0.9414,-0.13232,-0.14549,0.5232,0.45142
0.2726,0.95547,-0.11294,0.54522,0.71598,-0.06673
0.2448,0.96641,-0.07826,0.09409,-0.05981,-0.10374
0.22022,0.97443,-0.0445,-0.28821,-0.1578,0.22374
0.20533,0.97842,-0.023,-0.448,-0.17155,0.35445
0.19517,0.98076,0.00266,-0.42323,-0.25289,0.28373
0.18206,0.98247,0.03996,0.00803,-0.02049,-0.01978
0.16618,0.98323,0.07504,0.11193,0.04591,-0.14186
0.14969,0.98358,0.10075,0.19731,-0.0681,-0.15812
0.13409,0.98406,0.11681,0.01645,-0.14639,-0.05377
0.1193,0.98429,0.13009,-0.03453,-0.09707,-0.02936
0.1032,0.98425,0.14347,-0.0014,-0.07182,3e-05
0.08269,0.98389,0.15848,0.08058,-0.09201,-0.07122
0.0584,0.98264,0.17604,0.14433,-0.07198,-0.1372
0.03177,0.98049,0.19397,0.1996,0.0393,-0.13145
0.00451,0.97751,0.21079,0.23664,0.15675,-0.15369
-0.0199,0.97414,0.22504,0.22607,0.11192,-0.21383
-0.04308,0.97215,0.23035,0.42568,0.13343,-0.22567
-0.06242,0.97133,0.22937,0.80796,0.36494,-0.23144
-0.07816,0.97067,0.22731,0.80419,0.39328,-0.35841
-0.09183,0.97281,0.21261,0.68687,0.3954,-0.33449
-0.09609,0.9776,0.18723,0.68769,0.43405,-0.37128
-0.0808,0.98505,0.15209,0.75637,0.32464,-0.54408
-0.04296,0.99312,0.10891,0.419,0.15994,-0.50084
0.0102,0.999,0.04336,-0.16282,0.38045,-0.06952
0.06914,0.99749,-0.01531,-0.39281,0.56709,0.37946
0.12415,0.99066,-0.05639,-0.25319,0.99801,0.1273
0.18151,0.97895,-0.09329,-0.22074,0.98728,-0.31281
0.23688,0.96403,-0.12048,-0.28411,0.61929,-0.47449
0.28501,0.94628,-0.15271,-0.23084,0.29673,0.31918
0.33166,0.9267,-0.17669,-0.15986,0.15136,0.36999
0.37612,0.90811,-0.18399,-0.04353,-0.0304,0.24449
0.41384,0.88741,-0.20304,-0.24667,-0.37842,0.22767
0.43809,0.86777,-0.23463,-0.29991,-0.39551,0.26562
0.45388,0.85156,-0.26235,-0.33251,-0.44371,0.30466
0.46231,0.83841,-0.28866,-0.46791,-0.41623,0.4602
0.46679,0.82796,-0.31077,-0.60257,-0.40373,0.47696
0.46743,0.82109,-0.3276,-0.67756,-0.43341,0.47502
0.4604,0.82046,-0.33894,-0.68073,-0.66585,0.47175
0.44801,0.82701,-0.33962,-0.68258,-0.73228,0.32077
0.42946,0.84144,-0.32794,-0.68443,-0.68441,0.21254
0.40348,0.8616,-0.30796,0.01567,0.0795,-0.4029
0.36647,0.88021,-0.30155,1.54792,1.45774,-0.98219
0.36452,0.87679,-0.31361,2.25964,2.04981,-0.98566
0.39296,0.86258,-0.31864,0.14705,-0.3732,-0.61363
0.41524,0.85285,-0.31656,-0.55069,-0.71844,-0.04189
0.42587,0.8501,-0.30978,-0.86355,-0.53328,0.29026
0.42324,0.86204,-0.27883,-0.91511,0.52379,1.19259
0.41383,0.87698,-0.24421,0.47846,1.35073,-1.29003
0.43126,0.86264,-0.26433,-0.23994,0.63633,-0.50404
0.42866,0.86226,-0.26971,-0.77369,-0.65155,0.35791
0.40747,0.87968,-0.24519,-0.70988,-0.22778,1.02545
0.37815,0.90398,-0.19955,-0.66076,-0.06944,0.84357
0.34522,0.92436,-0.16241,-0.39371,0.25921,0.48318
0.31448,0.93846,-0.14276,0.43224,0.60541,-0.0407
0.28479,0.95131,-0.1179,0.40178,0.27774,0.03516
0.25844,0.96254,-0.08197,0.00696,-0.10115,0.23713
0.23841,0.97004,-0.0465,-0.24308,-0.1234,0.23242
0.22406,0.97438,-0.01911,-0.26094,-0.20723,0.24257
0.21148,0.97733,0.00978,-0.21136,-0.24747,0.21729
0.19703,0.97934,0.04547,0.01468,-0.05777,-0.03169
0.18098,0.98043,0.07735,0.04959,-0.04949,-0.08658
0.16518,0.9812,0.09975,0.01155,-0.08351,-0.08243
0.14979,0.98162,0.11818,-0.13387,-0.20211,-0.09919
0.13151,0.98181,0.13689,-0.17856,-0.16755,-0.11797
0.1118,0.98174,0.15385,-0.04764,-0.05245,-0.04089
0.08738,0.98155,0.17004,0.15369,-0.05824,-0.13723
0.05928,0.98076,0.18599,0.2049,-0.07986,-0.19307
0.03031,0.97917,0.20073,0.27682,0.06084,-0.21061
0.00269,0.97638,0.21602,0.39856,0.15781,-0.2421
-0.02193,0.97296,0.2299,0.43613,0.11365,-0.25595
-0.04493,0.97072,0.23592,0.75123,0.31161,-0.21784
-0.06461,0.96906,0.23817,0.89893,0.42278,-0.32643
-0.08091,0.96924,0.23239,0.61636,0.30772,-0.41868
-0.08906,0.97292,0.21327,0.60904,0.30162,-0.31899
-0.08641,0.98027,0.17773,0.76225,0.17683,-0.50506
-0.06151,0.98943,0.13126,0.5298,0.1468,-0.41707
-0.01485,0.99734,0.07134,-0.02791,0.51742,-0.14783
0.04541,0.99896,-0.00018,-0.25981,0.70508,0.32227
0.10488,0.99317,-0.05096,-0.52033,0.95074,0.8008
0.15981,0.98271,-0.09344,-0.09234,1.04967,-0.1917
0.21547,0.96849,-0.1249,-0.12399,0.80504,-0.48791
0.26954,0.95127,-0.14976,-0.2084,0.51098,-0.31852
0.3201,0.93087,-0.17611,-0.21846,0.34961,0.31628
0.36968,0.9099,-0.18815,-0.0395,-0.00158,0.24183
0.41611,0.88845,-0.19368,-0.00259,-0.204,0.15899
0.4486,0.86742,-0.21525,-0.2517,-0.29873,0.18371
0.46828,0.84961,-0.24263,-0.34564,-0.33424,0.36809
0.47944,0.83448,-0.27161,-0.42037,-0.39168,0.42639
0.48435,0.82267,-0.29768,-0.65627,-0.475,0.4903
0.48385,0.8147,-0.3196,-0.6827,-0.46695,0.493
0.47964,0.81107,-0.33481,-0.73773,-0.52671,0.4822
0.46918,0.81419,-0.34198,-0.81327,-0.80565,0.46382
0.45353,0.82529,-0.33645,-0.75707,-0.74726,0.28108
0.43187,0.84359,-0.31912,-0.68268,-0.65609,0.08454
0.39916,0.86561,-0.30229,0.24298,0.53604,-0.66612
0.36574,0.87912,-0.30556,2.37768,1.93933,-0.8773
0.39203,0.86549,-0.31183,2.0968,2.18575,-1.20706
0.41247,0.85494,-0.31455,-0.4354,-0.74836,-0.05616
0.42901,0.84769,-0.31204,-0.7931,-0.69335,0.38674
0.43417,0.85032,-0.2974,-0.9471,-0.00561,1.78294
0.42593,0.87113,-0.24435,0.05578,1.63088,-1.64356
0.41708,0.87702,-0.23848,1.09797,2.39102,-1.51588
0.43453,0.85987,-0.26794,-0.80166,-0.4548,0.52101
0.42708,0.8649,-0.2637,-0.85948,-0.67928,0.50602
0.40632,0.88324,-0.23406,-0.78549,-0.28436,0.96259
0.37793,0.90593,-0.19092,-0.70102,-0.06186,0.79037
0.34102,0.92531,-0.1658,-0.28086,0.47502,0.46733
0.30338,0.94129,-0.14808,0.5379,0.50758,-0.0756
0.2763,0.95378,-0.11811,0.20355,0.06367,0.06311
0.25173,0.96398,-0.08582,-0.24544,-0.07378,0.28375
0.23312,0.97071,-0.05805,-0.41442,-0.15145,0.31994
0.22073,0.97493,-0.02794,-0.39841,-0.19888,0.27071
0.20807,0.97807,0.00869,-0.22426,-0.18577,0.11469
0.19075,0.98053,0.04645,0.004,-0.01718,0.05293
0.17001,0.98232,0.07827,0.08048,-0.00806,0.02331
0.1488,0.98352,0.10264,0.07608,-0.18974,-0.08363
0.12757,0.98428,0.12211,0.012,-0.24552,-0.11508
0.10636,0.98438,0.14028,-0.07336,-0.1534,-0.07464
0.08524,0.98389,0.1571,0.0807,-0.06357,-0.03415
0.06191,0.98256,0.1753,0.17729,-0.05162,-0.07515
0.03723,0.98029,0.19401,0.24352,0.0576,-0.23254
0.01176,0.97728,0.21161,0.25208,0.2049,-0.31537
-0.01326,0.97442,0.22431,0.24179,0.17837,-0.31688
-0.03845,0.97276,0.22858,0.55654,0.21012,-0.1726
-0.06281,0.97186,0.22697,1.07487,0.36125,-0.26362
-0.08033,0.97104,0.22495,1.00822,0.33616,-0.4591
-0.09216,0.97285,0.21226,0.55329,0.28899,-0.25004
-0.09416,0.97818,0.18518,0.67046,0.41341,-0.40969
-0.07912,0.98626,0.14496,0.74363,0.15465,-0.46031
-0.04061,0.99425,0.09899,0.34546,0.13136,-0.42794
0.01632,0.99924,0.03518,-0.34941,0.63513,0.14139
0.07933,0.99659,-0.02236,-0.62882,0.92818,0.71521
0.13409,0.989,-0.06233,-0.68248,1.19645,0.88708
0.18852,0.97717,-0.09796,-0.09194,0.80295,-0.55176
0.24547,0.96128,-0.12518,-0.16313,0.5192,-0.36008
0.29874,0.94181,-0.15409,-0.13683,0.4637,-0.072
0.35202,0.91908,-0.17709,-0.33951,0.31491,0.37126
0.40269,0.89708,-0.18186,-0.20909,-0.10881,0.13089
0.4462,0.8735,-0.19467,-0.20077,-0.23652,0.13328
0.4747,0.85242,-0.21916,-0.26208,-0.31926,0.32532
0.49184,0.83434,-0.24891,-0.39679,-0.49424,0.42068
0.50185,0.81809,-0.28082,-0.49648,-0.53585,0.46568
0.505,0.80629,-0.308,-0.66921,-0.50439,0.5096
0.50329,0.79966,-0.32747,-0.77576,-0.57662,0.49237
0.49561,0.79927,-0.3399,-0.83955,-0.83593,0.5525
0.48057,0.80831,-0.34012,-0.77589,-0.83237,0.46585
0.45926,0.82592,-0.32701,-0.63108,-0.72492,0.14821
0.42519,0.85045,-0.30975,-0.04889,-0.12037,-0.34192
0.38044,0.87287,-0.30555,1.68144,1.58422,-1.24145
0.39474,0.863,-0.31527,2.15369,2.61187,-1.4899
0.41718,0.84839,-0.32587,0.19139,-0.43042,-0.65332
0.43591,0.8375,-0.32949,-0.80146,-0.80712,0.09536
0.45016,0.83226,-0.32356,-1.37164,-0.24599,1.82612
0.45136,0.85124,-0.26767,-1.27479,0.07393,0.83861
0.42333,0.87096,-0.24941,1.69408,2.8635,-0.42248
0.44053,0.8573,-0.26638,-0.54232,-0.53676,0.37302
0.44037,0.85946,-0.2596,-0.85686,-0.84934,-0.08598
0.4203,0.87496,-0.24038,-0.8482,-0.19634,1.03675
0.391,0.8998,-0.19358,-0.82818,-0.13498,0.82624
0.35213,0.92243,-0.15846,-0.6034,0.07651,0.51645
0.31391,0.93867,-0.14263,0.1743,0.49425,0.0844
0.27986,0.95239,-0.1209,0.08864,0.14856,0.21322
0.25055,0.96431,-0.08554,-0.04108,-0.02655,0.29506
0.22837,0.9723,-0.04972,-0.39737,-0.15371,0.24179
0.21311,0.97686,-0.01777,-0.38575,-0.27558,0.2491
0.19937,0.97976,0.01761,-0.17688,-0.23238,0.15123
0.18161,0.98186,0.05438,0.19368,-0.02277,-0.04425
0.1621,0.98315,0.08441,0.27573,-0.02082,-0.09453
0.14214,0.98405,0.10686,0.32783,-0.08829,-0.14155
0.12277,0.98471,0.12354,0.0137,-0.23443,-0.14296
0.10767,0.98467,0.13718,-0.0522,-0.07961,-0.03232
0.08995,0.98452,0.15041,0.03657,-0.06658,-0.04782
0.06695,0.98391,0.16562,0.18821,-0.09825,-0.17521
0.04015,0.98257,0.18145,0.16752,-0.00308,-0.21361
0.01439,0.9799,0.19894,0.1808,0.09367,-0.16231
-0.00875,0.97658,0.21495,0.21826,0.16641,-0.12291
-0.0343,0.97385,0.22456,0.44205,0.21109,-0.18682
-0.0585,0.9723,0.22623,0.67569,0.34511,-0.19576
-0.07715,0.97159,0.22371,0.87564,0.39476,-0.3664
-0.09253,0.97365,0.2084,0.65149,0.37022,-0.21035
-0.09929,0.97865,0.17993,0.7503,0.37586,-0.17917
-0.08623,0.98612,0.14184,0.75678,0.1524,-0.52389
-0.04814,0.99405,0.09764,0.26345,0.15709,-0.54162
0.00876,0.99935,0.03488,-0.18317,0.42753,-0.25199
0.07238,0.99701,-0.02682,-0.62089,0.77081,0.48537
0.12857,0.98913,-0.0712,-0.48497,0.99747,0.53948
0.18333,0.97685,-0.11023,-0.23115,0.82537,-0.34361
0.24029,0.96083,-0.138,-0.17186,0.55482,-0.44394
0.29204,0.94134,-0.16906,-0.107,0.34464,0.14741
0.34352,0.91932,-0.19189,-0.15707,0.215,0.45085
0.39348,0.898,-0.19684,-0.01803,-0.13094,0.15635
0.43526,0.87411,-0.21556,-0.20786,-0.26172,0.18486
0.46114,0.85369,-0.24199,-0.2685,-0.31455,0.23201
0.47662,0.83667,-0.26982,-0.38064,-0.41596,0.37753
0.48393,0.82335,-0.29646,-0.51091,-0.49227,0.41988
0.48662,0.81345,-0.31858,-0.60265,-0.44109,0.4802
0.48494,0.80808,-0.33441,-0.73965,-0.51517,0.47241
0.4761,0.8095,-0.34355,-0.69618,-0.61515,0.51735
0.46327,0.81817,-0.34053,-0.61494,-0.81004,0.43866
0.44457,0.83538,-0.32325,-0.57956,-0.64272,0.22364
0.41909,0.85786,-0.29736,-0.0812,-0.11831,-0.1704
0.38458,0.87774,-0.28578,0.95535,1.19924,-0.7709
0.38516,0.8765,-0.28875,2.19375,2.14881,-1.18792
0.41054,0.86239,-0.2962,0.04263,-0.52143,-0.70631
