gravity.x,gravity.y,gravity.z,userAcceleration.x,userAcceleration.y,userAcceleration.z
-0.16011,0.97594,0.14801,-0.00498,-0.0186,-0.35321
-0.15115,0.98091,0.1223,-0.10538,0.05015,-0.31436
-0.1432,0.98475,0.09877,-0.23992,0.13573,-0.34839
-0.1373,0.98734,0.07941,-0.21826,0.04521,-0.14142
-0.1326,0.98913,0.06355,-0.14203,0.04679,-0.11121
-0.1289,0.99045,0.04903,0.03724,0.00592,-0.14019
-0.12528,0.99153,0.03422,0.01667,-0.017,-0.08076
-0.12136,0.99245,0.01743,-0.00727,-0.01646,-0.12193
-0.11668,0.99317,0.00068,-0.04684,-0.03064,-0.14386
-0.11068,0.99377,-0.01277,0.004,0.01265,-0.09144
-0.10453,0.99423,-0.02428,0.03751,0.01932,-0.09466
-0.0974,0.9946,-0.03595,0.06256,-0.00981,-0.09318
-0.0886,0.99495,-0.04726,-0.03198,-0.07705,-0.10441
-0.07899,0.99522,-0.05744,-0.09836,-0.07258,-0.09121
-0.0696,0.99533,-0.06691,-0.20982,-0.03615,-0.07725
-0.0609,0.99515,-0.07721,-0.22088,-0.01088,-0.02319
-0.05255,0.9947,-0.08841,-0.1898,-0.01484,-0.01078
-0.04386,0.99397,-0.10054,-0.13033,-0.01957,0.01064
-0.0342,0.9931,-0.11213,-0.0906,-0.002,0.05474
-0.0231,0.99217,-0.12271,-0.07651,0.06769,0.01318
-0.01024,0.99115,-0.13232,-0.08238,0.09135,0.0116
0.00496,0.98974,-0.14283,-0.10398,0.05467,-0.00747
0.02117,0.98782,-0.15413,0.04808,-0.11087,-0.10535
0.0364,0.98562,-0.16503,0.05074,-0.15657,-0.12131
0.05028,0.98318,-0.17561,-0.10959,-0.1093,-0.09809
0.06185,0.98084,-0.18476,-0.13812,0.09584,0.06679
0.07095,0.97917,-0.19023,-0.03485,0.20708,0.11015
0.07917,0.97797,-0.19313,-0.04227,0.18163,0.0794
0.08796,0.97712,-0.19364,-0.1907,0.1839,0.04059
0.09619,0.97706,-0.19003,-0.38711,0.28129,0.00247
0.10201,0.97775,-0.18329,-0.47316,0.42842,0.01529
0.10574,0.97879,-0.1755,-0.33913,0.33559,0.15934
0.10457,0.98016,-0.16836,-0.20503,0.31354,0.07417
0.10154,0.98176,-0.16071,-0.31206,0.30241,0.10303
0.0978,0.98468,-0.14437,-0.17827,0.26788,0.23186
0.09175,0.98884,-0.1174,-0.08548,0.16883,0.22605
0.08127,0.99343,-0.08063,-0.01067,-0.08434,0.18396
0.06448,0.9973,-0.03512,-0.1204,-0.15251,-0.07623
0.04292,0.99897,0.01483,-0.11,-0.101,-0.20889
0.01833,0.99775,0.06441,-0.08672,0.09746,-0.4147
-0.00839,0.99387,0.11021,-0.19902,0.28477,-0.45369
-0.04034,0.98754,0.15208,-0.27797,0.24524,-0.45943
-0.07751,0.97898,0.18863,-0.11606,0.20716,-0.46006
-0.11332,0.96788,0.2244,-0.01309,0.24301,-0.47868
-0.14259,0.9542,0.26298,0.09082,0.23127,-0.44774
-0.16458,0.93844,0.30373,0.01894,0.07005,-0.31781
-0.18155,0.92206,0.34182,0.03908,0.04693,-0.32209
-0.19643,0.90655,0.3736,0.09431,0.02587,-0.35108
-0.21141,0.89231,0.39885,0.17757,0.00377,-0.39798
-0.22612,0.87917,0.41945,0.2102,-0.01383,-0.41224
-0.23965,0.86796,0.43498,0.24198,-0.06145,-0.43461
-0.24973,0.85988,0.44524,0.30679,-0.15761,-0.45078
-0.25383,0.8554,0.4515,0.33216,-0.19958,-0.45501
-0.25306,0.85426,0.4541,0.348,-0.23154,-0.39787
-0.25107,0.85607,0.45177,0.29932,-0.20728,-0.1982
-0.25017,0.86103,0.44277,0.24852,-0.19597,-0.12155
-0.24738,0.86933,0.42787,0.1124,-0.16353,-0.01419
-0.23828,0.87981,0.41128,-0.17732,-0.02324,0.09435
-0.22166,0.89046,0.39742,-0.28237,0.06166,0.12115
-0.20242,0.89983,0.38643,-0.34401,0.27416,0.02027
-0.18791,0.90602,0.37922,-0.14284,0.39445,-0.00758
-0.18092,0.90784,0.37828,-0.10857,0.22423,0.00624
-0.183,0.90748,0.37813,-0.04485,-0.06205,0.00266
-0.19117,0.90835,0.37195,0.10835,-0.23218,-0.01393
-0.19637,0.91474,0.35313,0.4666,-0.08818,-0.22269
-0.1879,0.92619,0.32692,0.46531,0.0774,-0.16067
-0.16503,0.93707,0.30767,0.261,0.472,0.05403
-0.14438,0.94357,0.29805,-0.32154,0.36097,-0.16364
-0.13756,0.94924,0.28287,-0.28177,0.05201,-0.22934
-0.13259,0.95727,0.257,-0.046,-0.17196,-0.42351
-0.12108,0.96588,0.22894,0.18909,-0.33626,-0.62004
-0.09921,0.97499,0.19887,0.24266,-0.40138,-0.69774
-0.07861,0.9818,0.17289,-0.33537,-0.03565,-0.43737
-0.06794,0.9858,0.15353,-0.52706,0.24839,-0.36632
-0.06334,0.98877,0.13534,-0.32804,0.19134,-0.30012
-0.06051,0.99108,0.11875,0.04458,0.0922,-0.20281
-0.05334,0.99331,0.10243,0.30023,0.04783,-0.12618
-0.04323,0.9952,0.08783,0.20228,0.0093,-0.00779
-0.03298,0.99681,0.07262,0.01635,-0.02979,-0.10018
-0.02125,0.99816,0.05687,-0.11575,-0.07366,-0.3075
-0.00845,0.99909,0.04172,-0.1285,-0.06823,-0.21962
0.00349,0.99964,0.02679,-0.0355,-0.03221,-0.10358
0.01506,0.99982,0.01186,0.03795,-0.05412,-0.08621
0.02713,0.99963,-0.00337,-0.02557,-0.05659,-0.07479
0.04002,0.99904,-0.01808,-0.18918,-0.02072,-0.08462
0.05327,0.99809,-0.03119,-0.2742,0.04549,-0.04037
0.06603,0.99689,-0.04314,-0.18795,0.04212,-0.00696
0.07754,0.99544,-0.05563,-0.13915,-9e-05,-0.02407
0.08918,0.9936,-0.06929,-0.14842,-0.00605,-0.0368
0.10235,0.99123,-0.08358,-0.17115,-0.00452,-0.05284
0.1172,0.98845,-0.09607,-0.25657,0.08819,0.08275
0.13115,0.98597,-0.10322,-0.23536,0.11873,0.1262
0.14336,0.98406,-0.10521,-0.18271,0.10662,0.13199
0.15442,0.98247,-0.10447,-0.36003,0.06638,-0.06772
0.1648,0.98094,-0.10295,-0.40371,0.08643,-0.11611
0.17508,0.97935,-0.10106,-0.39486,0.20612,-0.09268
0.18447,0.97801,-0.09733,-0.39382,0.34922,-0.04229
0.19106,0.97707,-0.09395,-0.45176,0.33476,-0.0448
0.1936,0.9771,-0.08833,-0.57589,0.40524,-0.02521
0.19229,0.97838,-0.07614,-0.49201,0.36123,0.22109
0.18599,0.98113,-0.05288,-0.39174,0.32969,0.21763
0.17368,0.98456,-0.02157,-0.19642,0.17426,0.29528
0.15611,0.9875,0.02187,0.08008,-0.03889,0.02147
0.13802,0.98801,0.06916,0.23277,-0.05387,-0.23892
0.11791,0.9867,0.11192,0.29243,0.0529,-0.62288
0.09538,0.98515,0.1428,-0.19953,0.24796,-0.68853
0.06767,0.98307,0.17028,-0.46021,0.27812,-0.60977
0.0251,0.97959,0.19944,-0.84001,0.28251,-0.51162
-0.02102,0.97361,0.22723,-0.69805,0.1811,-0.4604
-0.0538,0.96604,0.25271,0.08331,0.21427,-0.41944
-0.07618,0.95718,0.2793,0.21209,0.16415,-0.42188
-0.08974,0.94998,0.29913,0.18016,0.00497,-0.40318
-0.10105,0.9416,0.32121,0.13522,-0.0923,-0.28732
-0.1117,0.93416,0.33893,0.11073,-0.09772,-0.26363
-0.12632,0.92767,0.35139,0.08071,-0.09501,-0.22417
-0.14372,0.92232,0.35871,0.0913,-0.06583,-0.21287
-0.15942,0.91889,0.36086,0.16125,-0.06892,-0.26125
-0.17038,0.9173,0.35991,0.31256,-0.13271,-0.3387
-0.17888,0.91703,0.35646,0.38089,-0.16787,-0.34655
-0.18797,0.91835,0.34827,0.33889,-0.18805,-0.27036
-0.19502,0.92193,0.33469,0.18537,-0.1902,-0.14438
-0.19789,0.92775,0.3164,0.03252,-0.19236,0.01912
-0.19322,0.93565,0.29535,-0.11023,-0.20461,0.14214
-0.18113,0.94512,0.27193,-0.31311,-0.1914,0.13959
-0.16746,0.95415,0.24811,-0.29981,-0.06011,-0.09088
-0.1569,0.96095,0.22793,-0.19907,0.05057,-0.08918
-0.15091,0.9653,0.21314,-0.14499,0.25721,0.10409
-0.15246,0.96828,0.19797,-0.43673,0.15843,0.24313
-0.16136,0.97089,0.17704,-0.46075,0.02751,0.15446
-0.17094,0.97399,0.14875,-0.24898,-0.00284,-0.12138
-0.16985,0.97738,0.126,0.04392,0.30765,-0.0452
-0.15919,0.97972,0.12169,0.15722,0.08339,0.1089
-0.15125,0.98106,0.12105,0.54143,-0.29079,-0.02716
-0.1513,0.98284,0.10553,0.5458,-0.48128,-0.20455
-0.14765,0.98629,0.07369,0.51139,-0.63564,-0.35335
-0.13308,0.99055,0.03302,0.03808,0.18967,-0.47483
-0.11385,0.99349,0.00476,-0.13646,0.74373,-0.2975
-0.09919,0.99506,-0.0041,-0.58814,1.24989,-0.0855
-0.09331,0.99561,-0.00695,-0.01143,-0.39289,-0.22715
-0.09292,0.99544,-0.02137,0.14265,-0.46618,-0.27607
-0.08886,0.99501,-0.0453,0.24262,-0.51749,-0.23813
-0.07747,0.99461,-0.06892,-0.04582,0.08615,-0.20557
-0.06518,0.99404,-0.08735,-0.17983,0.32886,-0.1002
-0.05749,0.99303,-0.10288,-0.3422,0.37953,-0.08358
-0.05102,0.99194,-0.116,0.00169,-0.15281,0.09707
-0.04465,0.99052,-0.12993,0.07683,-0.1829,0.13428
-0.03711,0.98883,-0.14437,0.10731,-0.1082,0.15571
-0.02634,0.98719,-0.15736,-0.14312,0.11453,0.16686
-0.01161,0.98578,-0.16766,-0.20703,0.14292,0.18742
0.00469,0.98473,-0.17402,-0.23566,0.09542,0.27721
0.01866,0.98457,-0.17399,-0.22742,-0.17471,0.26519
0.02964,0.98534,-0.16803,-0.28779,-0.188,0.23676
0.03933,0.98615,-0.16112,-0.35877,-0.0852,0.11885
0.04663,0.98689,-0.15454,-0.3985,0.03831,0.10043
0.04521,0.98896,-0.14111,-0.54522,0.22637,0.52036
0.03214,0.99328,-0.11118,-0.48172,0.34017,0.58935
0.00687,0.99804,-0.06221,-0.26195,0.59154,0.62732
-0.02629,0.99965,-0.00016,0.30694,0.82534,0.31098
-0.06112,0.99559,0.07114,0.59423,0.94169,0.13193
-0.09087,0.98555,0.14291,1.36629,0.87629,-0.49954
-0.11558,0.97187,0.20522,0.87793,0.34967,-0.63364
-0.14305,0.95555,0.2578,0.37987,0.25801,-0.48534
-0.18573,0.93776,0.29345,-0.59389,0.33267,0.07235
-0.23895,0.91868,0.31453,-0.30657,0.11072,-0.19618
-0.27232,0.90024,0.33971,-0.00406,-0.02306,-0.27206
-0.28908,0.88389,0.36765,0.18511,-0.37291,-0.50017
-0.29746,0.86947,0.39439,0.08178,-0.5556,-0.53432
-0.30307,0.85702,0.41674,0.07971,-0.54679,-0.48827
-0.30755,0.84762,0.43237,0.14405,-0.4985,-0.47592
-0.30896,0.84137,0.44343,0.24392,-0.43693,-0.38625
-0.30686,0.8393,0.44879,0.31502,-0.41517,-0.37692
-0.3026,0.84151,0.44755,0.46966,-0.41104,-0.40589
-0.29562,0.84667,0.44245,0.37442,-0.51615,-0.3597
-0.28499,0.85587,0.43159,0.25909,-0.49295,-0.31507
-0.27428,0.87047,0.40871,0.0721,-0.42582,-0.17048
-0.26584,0.88979,0.37096,-0.11736,-0.19633,0.35681
-0.25837,0.90883,0.32753,-0.37334,0.28488,0.97719
-0.25408,0.9218,0.2928,-1.12382,0.92532,0.67129
-0.26492,0.92863,0.25972,-1.03219,1.02219,0.56061
-0.28342,0.92838,0.24038,-0.38682,0.58909,0.44887
-0.29682,0.9237,0.24225,0.24662,-0.13514,0.04114
-0.2995,0.91824,0.25911,0.1316,-0.30163,0.01175
-0.2972,0.92062,0.25323,0.03916,-0.34942,-0.19436
-0.29198,0.93314,0.20974,0.23435,-0.4423,-0.67657
-0.27958,0.94751,0.15512,0.38038,-0.30325,-0.55652
-0.25508,0.95893,0.12406,0.33596,0.9542,-0.21525
-0.24671,0.9614,0.12186,0.28506,1.79481,-0.04306
-0.2537,0.96093,0.11066,0.36311,0.09719,0.10525
-0.25524,0.96214,0.09559,0.63877,-0.43115,0.01225
-0.23583,0.97045,0.05111,0.94229,-0.80009,-0.42171
-0.20661,0.97841,0.00497,0.82924,-0.53498,-0.45372
-0.1845,0.98244,-0.0278,0.07807,0.31601,-0.65749
-0.16944,0.98389,-0.0571,-0.70475,0.34752,-0.19467
-0.15711,0.98367,-0.08785,-0.70654,0.05697,-0.10718
-0.13938,0.9842,-0.10922,-0.21107,-0.33816,-0.4488
-0.12187,0.98475,-0.12416,0.02787,-0.39671,-0.37346
-0.10763,0.98411,-0.14119,-0.02385,-0.34743,-0.20049
-0.09562,0.98205,-0.16261,0.0473,-0.19231,0.0508
-0.08279,0.97921,-0.18519,0.10929,0.01386,0.27534
-0.06851,0.97695,-0.2022,-0.0568,0.07033,0.30457
-0.04624,0.97504,-0.21716,-0.07713,0.01571,0.23058
-0.01787,0.97339,-0.22848,-0.125,0.01786,0.14564
0.01475,0.97204,-0.23435,-0.36725,0.21827,0.19311
0.04963,0.9706,-0.23553,-0.44375,0.30053,0.22841
0.07898,0.96908,-0.23376,-0.58702,0.31969,0.27613
0.09461,0.96783,-0.23312,-0.82229,0.1499,0.10995
0.10235,0.96763,-0.23068,-1.02425,0.12822,0.17116
0.1092,0.96838,-0.22429,-0.9161,0.28276,0.4283
0.11223,0.97062,-0.21286,-0.46352,0.31045,0.59797
0.1088,0.9759,-0.18916,-0.29713,0.50332,0.54228
0.09617,0.98404,-0.1497,-0.27108,0.45884,0.51254
0.0771,0.99305,-0.0889,-0.08243,0.13576,0.18625
0.047,0.99874,-0.01753,0.0685,0.27415,-0.06454
-0.00117,0.99938,0.0351,0.38128,0.98737,-0.77313
-0.05406,0.99522,0.08128,0.78374,1.30467,-0.69908
-0.11271,0.98446,0.13467,0.24235,0.67449,-0.54879
-0.17834,0.96635,0.18539,-0.27259,0.52502,-0.05654
-0.24944,0.94115,0.22808,0.1798,0.63727,-0.02217
-0.31116,0.91311,0.26344,0.39696,0.49797,0.01264
-0.34721,0.8886,0.29973,0.35453,-0.15461,-0.24082
-0.37569,0.86792,0.32493,0.29567,-0.41029,-0.44439
-0.39909,0.8478,0.34923,0.31996,-0.46093,-0.57576
-0.41215,0.82937,0.37718,0.32118,-0.58172,-0.57289
-0.41412,0.81451,0.40631,0.31236,-0.57649,-0.57142
-0.40298,0.80639,0.43282,0.3765,-0.6085,-0.57438
-0.38019,0.80561,0.45437,0.65663,-0.62117,-0.64145
-0.35306,0.81138,0.46584,0.73003,-0.65593,-0.61664
-0.33112,0.82337,0.46089,0.74889,-0.65145,-0.46504
-0.31343,0.8436,0.436,0.39712,-0.42714,-0.1465
-0.29471,0.87103,0.39301,0.24045,-0.25784,0.01419
-0.26928,0.8959,0.35335,-0.24552,0.40005,0.70661
-0.24148,0.90712,0.34471,-0.99932,2.02427,2.14646
-0.25413,0.90616,0.33807,-1.02436,1.77896,0.75887
-0.27767,0.90471,0.32311,-0.58538,0.76048,0.28483
-0.29504,0.89906,0.32348,0.32957,-0.60394,-0.31005
-0.29784,0.89843,0.32267,0.44012,-0.52871,-0.82559
-0.28679,0.9165,0.2789,0.51368,-0.23145,-1.30821
-0.26745,0.9375,0.22261,-0.51797,1.54371,-0.36415
-0.2763,0.93845,0.20732,-0.71383,1.49107,0.32988
-0.2897,0.92996,0.22637,-0.12942,0.90791,0.70045
-0.28054,0.932,0.2295,0.92939,-0.46783,-0.54627
-0.26357,0.94282,0.20402,0.90368,-0.96992,-0.50864
-0.23679,0.95971,0.15129,0.9633,-1.06757,-0.37804
-0.21289,0.97232,0.09631,0.43273,-0.43831,-0.57108
-0.19885,0.97834,0.0576,-0.44042,0.82866,-0.14022
-0.18621,0.98225,0.02269,-0.68686,1.0993,0.01831
-0.17321,0.98487,-0.00522,-0.47512,-0.0642,-0.54203
-0.151,0.98826,-0.02303,0.10167,-0.64741,-0.47874
-0.12922,0.99033,-0.05043,0.06846,-0.55386,-0.37307
-0.10811,0.99112,-0.07746,0.0215,-0.35092,-0.11452
-0.08399,0.99106,-0.10363,0.20535,0.12187,0.04699
-0.06472,0.98927,-0.13096,0.14911,0.19769,0.22746
-0.03951,0.98605,-0.16171,0.02456,-0.03301,0.26657
-0.00914,0.98254,-0.18585,-0.09786,0.08898,0.30635
0.02424,0.9796,-0.19946,-0.21281,0.3813,0.38257
0.05608,0.97766,-0.20257,-0.30326,0.23344,0.47239
0.08274,0.97706,-0.19622,-0.71092,0.17639,0.0905
0.10307,0.97733,-0.18493,-0.87665,0.28507,0.03927
0.11764,0.97774,-0.17375,-1.07896,0.33408,0.16745
0.12411,0.97874,-0.16331,-0.65329,0.21067,0.25583
0.11425,0.98281,-0.14501,-0.64314,0.32858,0.31673
0.09233,0.98971,-0.1093,-0.64209,0.35759,0.41517
0.06585,0.99639,-0.05352,-0.11432,0.26838,0.15293
0.03294,0.99944,0.00664,0.08222,0.42091,-0.07846
-0.01464,0.9987,0.04876,0.87404,1.15553,-0.46489
-0.06678,0.99346,0.09258,0.63639,0.67939,-0.50977
-0.12358,0.98176,0.14449,-0.03012,0.56144,0.00528
-0.18435,0.96385,0.1924,-0.09833,0.77459,-0.05186
-0.24643,0.9407,0.23314,0.23053,0.75649,-0.24619
-0.30195,0.91505,0.26741,0.32665,0.13681,-0.18847
-0.3383,0.8907,0.30367,0.22262,-0.21211,-0.37742
-0.3644,0.86844,0.33619,0.20453,-0.30891,-0.43858
-0.3838,0.84762,0.36637,0.26539,-0.51227,-0.60972
-0.39387,0.8279,0.39932,0.30892,-0.61528,-0.58825
-0.39418,0.81159,0.4312,0.32338,-0.6058,-0.59772
-0.38466,0.8018,0.45732,0.40295,-0.67551,-0.63288
-0.36653,0.7992,0.47638,0.65284,-0.69808,-0.68366
-0.34559,0.80395,0.48397,0.6999,-0.69352,-0.66461
-0.32769,0.8164,0.4755,0.71865,-0.62317,-0.577
-0.31324,0.83704,0.4486,0.49838,-0.41404,-0.23769
-0.29697,0.86488,0.40471,0.28031,-0.26178,-0.05476
-0.26876,0.89329,0.36029,-0.15022,0.33038,0.50929
-0.22322,0.90906,0.35182,-1.17192,2.36939,2.35887
-0.23591,0.90393,0.35673,-1.1877,1.97285,0.8645
-0.27163,0.89964,0.34187,-0.56927,0.75852,0.33822
-0.29997,0.89225,0.33751,0.39815,-0.54692,-0.16599
-0.3032,0.8929,0.33287,0.42116,-0.04036,-1.30902
-0.28659,0.91162,0.29464,0.34985,0.33026,-1.7871
-0.26906,0.92986,0.25094,0.00307,1.00354,-1.29685
-0.27595,0.92841,0.2488,0.13558,0.28887,0.55613
-0.27649,0.92296,0.26776,0.72382,0.05559,0.3779
-0.26089,0.92989,0.25931,0.87036,-0.42701,-0.71141
-0.23698,0.94723,0.21586,0.87697,-0.86598,-0.56257
-0.2008,0.96749,0.15375,0.86043,-0.74279,-0.44545
-0.16939,0.98002,0.10427,0.34004,-0.00208,-0.53638
-0.15368,0.98553,0.07148,-0.38553,0.76763,-0.03237
-0.14249,0.98925,0.03303,-0.83151,0.40921,-0.06199
-0.12377,0.99228,0.00804,-0.22406,-0.46757,-0.55789
-0.10043,0.99483,-0.01502,0.01824,-0.59947,-0.40033
-0.07643,0.99598,-0.04681,-0.02794,-0.53994,-0.1561
-0.054,0.9956,-0.07663,0.06997,-0.2022,0.01822
-0.03555,0.99436,-0.09996,0.04426,0.22818,0.12053
-0.01389,0.99234,-0.1228,0.00805,0.245,0.18676
0.01134,0.98945,-0.14446,-0.08724,0.05198,0.23014
0.03881,0.98654,-0.15883,-0.09377,0.21165,0.3501
0.06942,0.98379,-0.16536,-0.11218,0.18658,0.43822
0.09778,0.98132,-0.1657,-0.21798,0.18424,0.42822
0.12115,0.97987,-0.15869,-0.71346,0.30242,0.06654
0.13837,0.97968,-0.14522,-0.88342,0.34189,0.06579
0.14849,0.98056,-0.1283,-0.92054,0.29961,0.27594
0.14428,0.98377,-0.10668,-0.83715,0.31399,0.23733
0.12258,0.98953,-0.07624,-0.79938,0.2217,0.41711
0.09789,0.99484,-0.02664,-0.18669,0.12273,0.27606
0.07395,0.99642,0.04096,0.07828,0.34529,-0.38845
0.03834,0.99552,0.08642,0.47898,1.21632,-1.05831
-0.0122,0.99265,0.12044,0.58048,1.2802,-0.51017
-0.07095,0.98339,0.16708,-0.20174,0.73935,-0.08627
-0.13805,0.96778,0.21057,-0.37789,0.71746,0.1045
-0.2057,0.94738,0.24528,0.32261,0.91607,-0.2998
-0.2719,0.92139,0.27769,0.50847,0.60069,-0.32284
-0.3177,0.89533,0.31216,0.36536,0.1548,-0.22841
-0.34915,0.8709,0.34588,0.16795,-0.30401,-0.40578
-0.37473,0.8477,0.37547,0.2507,-0.42684,-0.50939
-0.39125,0.82793,0.40182,0.377,-0.65924,-0.60279
-0.39533,0.81275,0.42796,0.4013,-0.83675,-0.61137
-0.3862,0.80446,0.45133,0.43179,-0.88341,-0.6587
-0.36545,0.80396,0.46914,0.575,-0.91347,-0.71836
-0.33852,0.81072,0.47764,0.74879,-0.81426,-0.73489
-0.31293,0.82371,0.47284,0.79908,-0.77866,-0.69333
-0.29144,0.84214,0.45372,0.73661,-0.55158,-0.48591
-0.27313,0.86539,0.42012,0.18912,-0.01952,-0.04795
-0.24487,0.89164,0.38082,-0.16797,1.46826,1.58584
-0.19407,0.90819,0.37086,-1.27193,3.14363,2.37972
-0.20756,0.90322,0.37564,-1.14661,1.63025,0.7947
-0.24185,0.90182,0.3581,-0.06278,-0.5621,-0.22851
-0.27519,0.8968,0.34645,0.11168,-0.80651,-0.32858
-0.28938,0.89663,0.33513,0.47983,-0.27241,-1.01487
-0.2755,0.91662,0.28968,0.47864,0.83535,-1.83869
-0.24332,0.9391,0.24266,0.21572,1.58528,-1.53583
-0.24814,0.93621,0.24886,-0.8748,1.52929,-0.02437
-0.26325,0.92789,0.26406,0.41787,-0.12944,0.22578
-0.25803,0.93141,0.25669,1.12469,-0.62519,-0.47292
-0.23447,0.94641,0.2221,0.94891,-0.85036,-0.52647
-0.19717,0.96651,0.16425,0.84507,-0.47921,-0.48539
-0.16167,0.98051,0.11164,0.58527,-0.09455,-0.51028
-0.1466,0.9862,0.07694,-0.1675,0.6767,-0.24099
-0.13643,0.98984,0.04019,-0.8878,0.22066,-0.0794
-0.12075,0.99263,0.0105,-0.49636,-0.30166,-0.43373
-0.09734,0.9952,-0.00991,0.06508,-0.62884,-0.54247
-0.07298,0.99666,-0.03671,0.14126,-0.64586,-0.16138
-0.05047,0.99673,-0.06313,0.13771,-0.58413,-0.01872
-0.02147,0.99603,-0.08637,0.05806,-0.14723,0.02649
0.00395,0.99403,-0.109,-0.19529,0.22023,0.05155
0.0281,0.99075,-0.13276,-0.33515,0.15125,0.10021
0.05413,0.98676,-0.15291,-0.24158,0.18546,0.34035
0.08195,0.98245,-0.16756,-0.30143,0.21373,0.45685
0.1081,0.97855,-0.17536,-0.41729,0.28105,0.52278
0.13025,0.97596,-0.17477,-0.73962,0.32057,0.1943
0.14881,0.97521,-0.16376,-0.8427,0.34863,0.15487
0.16272,0.97582,-0.14593,-0.93889,0.33903,0.2207
0.16626,0.97809,-0.12532,-1.02109,0.32279,0.25725
0.15335,0.98313,-0.09971,-1.02885,0.31422,0.25252
0.12915,0.98974,-0.06115,-0.62957,0.29702,0.35123
0.09494,0.99547,0.00459,0.15283,0.50648,-0.47741
0.05414,0.99684,0.05808,0.35918,0.85591,-0.93391
0.00486,0.99615,0.08749,0.69221,1.26438,-0.68463
-0.04634,0.99072,0.12774,0.13379,0.88464,-0.33461
-0.10548,0.97955,0.17131,-0.34438,0.71086,0.08947
-0.16756,0.96357,0.20845,-0.28871,0.66246,0.02632
-0.22898,0.9426,0.24305,0.42001,0.62413,-0.35952
-0.27723,0.92057,0.27514,0.48291,0.33615,-0.25611
-0.3089,0.9009,0.30489,0.29434,-0.185,-0.42266
-0.33133,0.88204,0.335,0.25742,-0.53206,-0.51737
-0.34664,0.86438,0.36425,0.33424,-0.60846,-0.57696
-0.35245,0.84956,0.39247,0.43391,-0.71862,-0.59649
-0.34726,0.83927,0.41838,0.52316,-0.85503,-0.60231
-0.33051,0.83477,0.44037,0.56027,-0.84594,-0.58478
-0.30758,0.83798,0.45075,0.55989,-0.83162,-0.62191
-0.28755,0.84761,0.44596,0.68135,-0.66867,-0.61118
-0.27228,0.86302,0.42551,0.59031,-0.4171,-0.36582
-0.25722,0.88471,0.38875,0.41736,-0.29555,-0.21421
-0.23553,0.90832,0.34564,0.11008,0.09258,0.06456
-0.18847,0.9209,0.3412,-0.35912,1.74641,2.00977
-0.19303,0.91121,0.36391,-1.5483,3.22653,2.65571
-0.23476,0.90784,0.34743,-0.32986,0.05514,0.19603
-0.27275,0.90384,0.32966,0.23351,-0.7544,-0.20043
-0.28911,0.90146,0.32214,0.41617,-0.67791,-0.40104
-0.27581,0.9166,0.28942,0.43602,0.0494,-1.29019
-0.2476,0.9386,0.24027,-0.40849,1.93006,-1.19594
-0.2552,0.93949,0.22853,-1.1556,1.85766,-0.32988
-0.27337,0.93001,0.24564,-0.12013,-0.06679,0.43281
-0.27068,0.93212,0.24058,1.14029,-0.81608,-0.57196
-0.24794,0.9459,0.20927,0.9935,-1.01355,-0.51741
-0.20092,0.96806,0.14998,0.99207,-0.97764,-0.52251
-0.14514,0.98531,0.08999,0.2703,0.32565,-0.51071
-0.12165,0.99092,0.0573,-0.06501,0.79724,-0.25438
-0.11316,0.99347,0.01467,-0.79407,0.9637,0.20904
-0.09574,0.99521,-0.01974,-0.14941,-0.54369,-0.52619
-0.06923,0.99677,-0.04074,0.11498,-0.62163,-0.48166
-0.04009,0.99697,-0.06666,0.14609,-0.48131,-0.06423
-0.01458,0.99576,-0.09087,0.14063,-0.33977,0.12073
0.01239,0.99376,-0.11088,0.13926,0.15015,0.13353
0.0382,0.98986,-0.13679,-0.37752,0.1895,0.00953
0.05964,0.98424,-0.1665,-0.57326,0.10089,0.18796
0.084,0.97883,-0.18665,-0.51993,0.17905,0.48874
0.11481,0.97441,-0.19323,-0.26736,0.25226,0.53276
0.14137,0.97134,-0.19111,-0.44647,0.30366,0.42423
0.16497,0.96952,-0.18112,-0.76719,0.32717,0.10948
0.1836,0.96935,-0.16328,-1.10817,0.32493,0.27877
0.19379,0.97016,-0.14572,-1.12801,0.27583,0.25546
0.18905,0.9733,-0.13015,-1.00689,0.2248,0.17466
0.16907,0.97974,-0.10732,-0.60271,0.23847,0.44797
0.14116,0.98828,-0.05817,-0.29904,0.1809,0.40659
0.11016,0.99389,0.00722,0.18168,0.50616,-0.28142
0.0677,0.99688,0.0405,0.4907,1.25727,-1.07895
0.01833,0.99773,0.06476,0.46587,1.07734,-0.54225
-0.04075,0.99294,0.11144,0.12607,0.87897,-0.45391
-0.10879,0.98113,0.15986,-0.36928,0.66186,-0.06971
-0.16955,0.96532,0.19853,0.21963,0.73561,-0.28746
-0.22601,0.94565,0.23382,0.48551,0.67014,-0.35961
-0.26659,0.92579,0.26805,0.48754,-0.02625,-0.25849
-0.2921,0.90766,0.30138,0.17131,-0.32456,-0.32155
-0.31221,0.8903,0.33149,0.2178,-0.54046,-0.44719
-0.32484,0.87516,0.35858,0.30475,-0.64875,-0.57999
-0.32967,0.86231,0.38437,0.37546,-0.66451,-0.58069
-0.32631,0.85361,0.40604,0.39622,-0.69437,-0.59341
-0.31592,0.85026,0.42102,0.47983,-0.68877,-0.61593
-0.30196,0.85285,0.42599,0.60848,-0.682,-0.6235
-0.28824,0.86108,0.41889,0.6523,-0.64249,-0.5656
-0.27403,0.8755,0.39801,0.63401,-0.56426,-0.38623
-0.25738,0.89664,0.36026,0.19705,-0.2242,-0.11225
-0.23437,0.91959,0.31532,0.02394,0.01066,0.14214
-0.18193,0.93322,0.30985,-0.59959,1.9105,2.01962
-0.18818,0.92568,0.3282,-1.63534,2.56079,1.11914
-0.22953,0.92293,0.30906,-0.45168,0.24164,0.07647
-0.26825,0.91712,0.29483,0.27868,-0.70593,-0.27835
-0.28718,0.91787,0.27394,0.8379,-0.1572,-1.18927
-0.27031,0.93647,0.2235,0.86306,0.39257,-1.5105
-0.24438,0.94943,0.19713,0.12685,1.43216,-0.7993
-0.25003,0.94545,0.20883,-0.23349,0.28035,0.64802
-0.2555,0.9428,0.21413,0.54133,-0.17285,0.52963
-0.2415,0.9482,0.20637,0.99397,-0.59974,-0.47339
-0.21453,0.96264,0.16526,0.86245,-0.82651,-0.62423
-0.18026,0.97749,0.10965,0.73162,-0.67861,-0.61716
-0.15469,0.98571,0.06671,-0.36893,0.26867,-0.66528
-0.14064,0.98948,0.03384,-0.82303,0.51445,-0.12845
-0.12702,0.99189,-0.00346,-0.78797,-0.06892,-0.16488
-0.10673,0.99393,-0.02669,0.00556,-0.58617,-0.42007
-0.08085,0.99553,-0.04876,0.21782,-0.53878,-0.27852
-0.05417,0.99581,-0.07371,0.27058,-0.3452,-0.13722
-0.03118,0.99423,-0.10262,0.1588,-0.01445,0.05859
-0.00672,0.99115,-0.13255,0.09315,0.09831,0.1702
0.02041,0.98725,-0.15787,-0.001,0.07797,0.34392
0.05223,0.98312,-0.17537,-0.17854,0.08268,0.26482
0.08462,0.97925,-0.18414,-0.24845,0.16296,0.25056
0.11816,0.9759,-0.18348,-0.37834,0.24475,0.20536
0.1499,0.97321,-0.17433,-0.69019,0.29894,0.31681
0.17495,0.97135,-0.16088,-0.81858,0.3268,0.27938
0.1898,0.97084,-0.14645,-0.98466,0.28292,0.13718
0.19318,0.97235,-0.1312,-1.12534,0.44199,0.2051
0.18457,0.97678,-0.10876,-1.11697,0.5608,0.20398
0.16767,0.98324,-0.07155,-0.76656,0.51837,0.30941
0.14262,0.98968,-0.01404,-0.02867,0.51443,-0.10298
0.10773,0.99344,0.03824,0.28418,0.70901,-0.55991
0.05844,0.99603,0.06721,0.72115,0.91656,-0.69709
0.0062,0.99451,0.10449,0.25336,0.64359,-0.40169
-0.04984,0.98813,0.14535,-0.41504,0.60172,-0.0487
-0.10746,0.9781,0.17828,-0.4118,0.61823,-0.08166
-0.16653,0.96284,0.2126,0.07014,0.61696,-0.27818
-0.22024,0.94326,0.24852,0.48469,0.13389,-0.15268
-0.25773,0.92429,0.28155,0.44055,-0.00356,-0.29905
-0.28364,0.90677,0.31196,0.2882,-0.28352,-0.4254
-0.30347,0.89016,0.33988,0.25403,-0.47512,-0.47976
-0.31683,0.87482,0.36649,0.32029,-0.59967,-0.55289
-0.31984,0.86131,0.39478,0.43475,-0.68591,-0.65058
-0.31221,0.85073,0.42283,0.36679,-0.67573,-0.55654
-0.29756,0.84763,0.4393,0.43655,-0.68468,-0.58256
-0.28159,0.85041,0.44442,0.5496,-0.74824,-0.62101
-0.26736,0.85889,0.43683,0.65274,-0.6066,-0.39655
-0.25546,0.87399,0.41338,0.61958,-0.57792,-0.27651
-0.24441,0.89475,0.37374,0.30507,-0.36713,-0.0087
-0.22454,0.91594,0.33262,-0.38543,0.9304,1.2406
-0.18297,0.9261,0.32993,-1.33269,2.15336,1.90907
-0.19903,0.92371,0.32733,-0.86979,0.88623,0.36993
-0.23093,0.92256,0.30912,0.01413,-0.32788,-0.08328
-0.26038,0.9181,0.29882,0.26879,-0.55551,-0.23454
-0.2647,0.92239,0.28132,0.44904,-0.2416,-0.54408
-0.24589,0.93947,0.23862,0.24676,0.97626,-1.40961
-0.23776,0.94817,0.2108,-0.18207,1.17168,-0.93344
-0.24808,0.94417,0.21678,0.14414,0.10017,0.58001
-0.25268,0.94165,0.22236,1.1592,-0.44591,-0.08172
-0.23437,0.94895,0.21108,1.16763,-0.64569,-0.50084
-0.19783,0.96659,0.163,0.72675,-0.66927,-0.69196
-0.14632,0.98427,0.09903,0.50145,-0.35417,-0.65422
-0.11101,0.99192,0.06142,-0.16419,0.58863,-0.50134
-0.09327,0.99518,0.03026,-1.09203,0.46512,0.17633
-0.07533,0.99715,-0.00511,-0.77261,-0.17929,-0.0654
-0.04759,0.99845,-0.02884,-0.00586,-0.59034,-0.43648
-0.01774,0.99851,-0.05152,0.20922,-0.63397,-0.29248
0.00861,0.99694,-0.07771,0.18653,-0.56901,-0.10259
0.0313,0.99435,-0.10148,0.16177,-0.21911,0.24598
0.0568,0.99115,-0.12,-0.09732,0.32938,0.01608
0.08209,0.98649,-0.14175,-0.26323,0.36847,0.00273
0.10508,0.98105,-0.16282,-0.52109,0.11719,0.11918
0.13113,0.97579,-0.17505,-0.25792,0.12434,0.34743
0.16144,0.97147,-0.17372,-0.25809,0.15634,0.44343
0.19006,0.96805,-0.16357,-0.54022,0.31704,0.42453
0.21275,0.96549,-0.15024,-0.97476,0.32049,-0.03433
0.22825,0.96416,-0.1353,-1.10309,0.2979,0.04894
0.23657,0.96424,-0.11951,-1.17582,0.32397,0.29027
0.235,0.96691,-0.09928,-1.0552,0.47535,0.17054
0.22142,0.9723,-0.0748,-0.75052,0.35425,0.08812
0.19648,0.97985,-0.03588,-0.53051,0.27596,0.06962
0.16057,0.98682,0.02017,-0.08496,0.42638,-0.12065
0.11094,0.99229,0.05527,0.72468,1.12,-0.61322
0.05786,0.9949,0.08264,0.77775,1.11739,-0.64059
0.00323,0.99282,0.11958,-0.06334,0.51904,-0.14296
-0.05641,0.98629,0.1551,-0.32889,0.58781,-0.09089
-0.11849,0.9754,0.1859,-0.10362,0.66306,-0.2544
-0.18094,0.95909,0.21773,0.20876,0.50719,-0.37354
-0.23131,0.94063,0.24843,0.28682,-0.04347,-0.33979
-0.26787,0.92286,0.27671,0.26735,-0.17041,-0.43166
-0.2952,0.90527,0.30552,0.2425,-0.41249,-0.45752
-0.3154,0.88864,0.33293,0.33501,-0.62016,-0.48766
-0.32774,0.87376,0.35935,0.39034,-0.63311,-0.50665
-0.32979,0.86245,0.38395,0.44724,-0.68162,-0.55938
-0.32264,0.85563,0.40472,0.4799,-0.73586,-0.54747
-0.30866,0.85589,0.41496,0.51689,-0.75709,-0.56864
-0.2941,0.86261,0.41159,0.52753,-0.76279,-0.53221
-0.28031,0.87624,0.39196,0.47662,-0.50147,-0.27633
-0.26521,0.89702,0.35357,0.38787,-0.41039,-0.14201
-0.2408,0.91962,0.31034,-0.47594,0.55894,0.82815
-0.19666,0.93507,0.29491,-0.9075,0.99633,1.39398
-0.18142,0.93833,0.2943,-1.21254,1.81373,1.65872
-0.20417,0.93823,0.27936,-0.28993,0.6837,0.39483
-0.23016,0.93598,0.26638,0.33055,-0.33966,-0.04179
-0.24923,0.93267,0.26079,0.40287,-0.47965,-0.23155
-0.24288,0.94267,0.22886,0.68592,0.40298,-1.75065
-0.21999,0.95837,0.18202,0.11362,1.03224,-1.40955
-0.22445,0.96097,0.16176,-0.8576,0.80972,0.28906
-0.23852,0.95674,0.16662,0.82542,-0.30005,0.16093
-0.23264,0.9594,0.15944,0.86422,-0.44586,-0.32179
-0.2033,0.97038,0.13049,0.72593,-0.86012,-0.59068
-0.15325,0.98545,0.07347,0.60241,-0.39857,-0.55841
-0.10394,0.99433,0.02236,0.21321,0.08684,-0.62618
-0.07677,0.99697,-0.01223,-0.52783,0.69982,-0.14002
-0.06184,0.99699,-0.04685,-0.65957,-0.1338,-0.17611
-0.03789,0.99647,-0.07486,-0.24416,-0.42584,-0.41925
-0.01128,0.99563,-0.09272,0.11356,-0.67651,-0.4004
0.01717,0.99322,-0.11499,0.08428,-0.47117,0.14653
0.04372,0.98987,-0.1351,0.03689,-0.26993,0.29292
0.06881,0.98565,-0.15416,-0.07783,0.18975,0.06982
0.08957,0.97964,-0.17968,-0.46007,0.14788,-0.02167
0.11067,0.97294,-0.20283,-0.41028,0.07229,0.43722
0.14049,0.96678,-0.21352,-0.24689,0.18472,0.56667
0.17059,0.96222,-0.21221,-0.12881,0.21433,0.5061
0.1974,0.9591,-0.20287,-0.69439,0.43006,0.20469
0.22014,0.95782,-0.1847,-0.81911,0.49126,0.068
0.23536,0.95802,-0.16374,-1.08639,0.41738,0.1618
0.24077,0.95926,-0.14779,-1.1947,0.27171,0.36671
0.23388,0.96356,-0.12983,-1.10001,0.31552,0.36123
0.21709,0.97094,-0.10078,-0.85004,0.30012,0.38331
0.19148,0.98037,-0.04695,-0.4508,0.1808,0.36678
0.15774,0.98733,0.01698,-0.02255,0.35162,-0.31131
0.11085,0.99273,0.04693,0.41029,1.16265,-1.01034
0.05924,0.99564,0.07206,0.5581,1.20378,-0.52027
-0.00232,0.9935,0.11385,-0.17192,0.79961,-0.17143
-0.07114,0.98589,0.15151,-0.42352,0.63227,0.07507
-0.13777,0.97316,0.18435,0.382,0.68042,-0.35045
-0.19791,0.95542,0.21907,0.49175,0.43586,-0.34832
-0.24234,0.93755,0.24954,0.42644,-0.02755,-0.20928
-0.27549,0.92039,0.27747,0.1489,-0.43607,-0.38483
-0.30355,0.90272,0.30489,0.18938,-0.50602,-0.45023
-0.32367,0.88638,0.331,0.32587,-0.60251,-0.57732
-0.33367,0.87243,0.35711,0.43273,-0.68188,-0.59299
-0.3315,0.86264,0.38204,0.45345,-0.73964,-0.6192
-0.31861,0.85853,0.40177,0.63936,-0.84186,-0.62702
-0.30165,0.86095,0.40961,0.63289,-0.81528,-0.60709
-0.28406,0.87043,0.40207,0.58735,-0.67596,-0.42046
-0.26608,0.88788,0.37533,0.16355,-0.33226,0.00981
-0.24466,0.91142,0.33084,0.00178,-0.10129,0.24524
-0.21183,0.93182,0.29469,-0.67762,1.09218,1.35296
-0.18435,0.93562,0.30104,-1.49359,2.5544,1.37843
-0.20617,0.93374,0.29261,-0.49656,0.74736,0.37286
-0.23444,0.93112,0.27938,-0.04363,0.15216,0.10218
-0.24876,0.93022,0.26983,0.63076,0.48405,-0.23382
-0.23328,0.9394,0.25121,0.39967,1.08338,-1.28175
-0.23348,0.94566,0.22632,0.07387,0.67396,-1.59192
-0.25553,0.94699,0.1947,-0.06216,-0.5974,-0.33891
-0.26238,0.94608,0.18999,0.91322,-0.52719,0.69434
-0.23729,0.95325,0.18709,0.96587,0.32538,-0.43641
-0.19467,0.96942,0.14944,0.26097,-0.29681,-0.42561
-0.15502,0.9827,0.10137,0.30399,-0.20631,-0.37015
-0.11553,0.9923,0.04464,0.0546,0.07574,-0.55896
-0.09856,0.99505,0.01238,-0.59256,0.12949,-0.05186
-0.08188,0.99657,-0.01208,-0.67656,-0.05722,0.08717
-0.0571,0.99759,-0.03934,-0.3428,-0.45028,-0.14197
-0.02962,0.99745,-0.06488,-0.00343,-0.60333,-0.28238
0.0003,0.99592,-0.09029,-0.03237,-0.52535,-0.2255
0.02993,0.99271,-0.11676,-0.10912,-0.27159,-0.1891
0.05741,0.98817,-0.14222,-0.14206,0.12591,-0.03881
0.0809,0.98295,-0.16515,-0.37506,0.30151,0.26195
0.10348,0.97691,-0.1869,-0.40649,0.00864,0.42268
0.12888,0.9709,-0.20183,-0.22913,-0.06247,0.56188
0.15669,0.96534,-0.20873,-0.17708,0.11115,0.32464
0.18823,0.96051,-0.20491,-0.31912,0.24055,0.24429
0.21928,0.95677,-0.19107,-0.64274,0.48319,0.15732
0.23985,0.95521,-0.1733,-1.05998,0.49916,0.23048
0.24881,0.95558,-0.15801,-1.28657,0.31079,0.22109
0.25005,0.9576,-0.1431,-1.09798,0.28631,0.29487
0.24212,0.96282,-0.11978,-0.92105,0.53992,0.16376
0.22407,0.97067,-0.08715,-0.66896,0.36846,0.24105
0.19548,0.98012,-0.03386,-0.3747,0.18658,0.23276
0.15659,0.98735,0.02488,0.32547,0.76407,-0.72658
0.10367,0.99337,0.04961,0.62046,1.15912,-0.95709
0.04825,0.99578,0.07811,0.53055,1.01368,-0.43123
-0.01453,0.99276,0.1192,-0.48642,0.62384,0.15353
-0.0807,0.98505,0.15219,-0.48126,0.57978,0.06198
-0.14275,0.9725,0.18404,0.07784,0.65702,-0.23819
-0.19783,0.95604,0.21644,0.40396,0.07055,-0.12359
-0.23745,0.94023,0.24408,0.34972,-0.05663,-0.2217
-0.26538,0.92502,0.27187,0.21181,-0.30687,-0.40595
-0.28707,0.90968,0.30011,0.2144,-0.59857,-0.47411
-0.30119,0.89546,0.32777,0.30165,-0.68451,-0.52714
-0.3053,0.88368,0.35481,0.41434,-0.81893,-0.61157
-0.2992,0.87529,0.37993,0.48226,-0.83088,-0.64589
-0.28595,0.87129,0.39887,0.53536,-0.85926,-0.62593
-0.26995,0.87381,0.40445,0.57749,-0.69168,-0.53575
-0.25446,0.88236,0.39584,0.51865,-0.60995,-0.41029
-0.24013,0.89809,0.36846,0.36306,-0.44453,-0.09869
-0.22566,0.91936,0.32225,-0.05313,0.25475,0.61624
-0.20165,0.93848,0.28033,-0.29258,1.0037,1.46422
-0.17331,0.94324,0.28331,-1.22163,2.17578,2.12493
-0.19663,0.94029,0.27784,-0.93722,0.72049,0.36421
-0.22804,0.93765,0.26232,0.00034,-0.40594,-0.06005
-0.24927,0.934,0.25593,0.27873,-0.63168,-0.18611
-0.24576,0.94051,0.2346,0.56185,-0.07198,-1.08862
-0.22452,0.95661,0.18572,0.5374,0.3542,-1.56252
-0.21551,0.9643,0.15385,-0.5645,1.29325,-0.15239
-0.23142,0.9593,0.16182,-0.26128,0.56162,0.52475
-0.23312,0.95853,0.16396,0.51782,0.13484,0.67757
-0.2144,0.96537,0.14863,0.84122,-0.81612,-0.49713
-0.17483,0.97929,0.10207,0.77085,-0.74341,-0.55799
-0.12396,0.9915,0.03937,0.24857,-0.10033,-0.63202
-0.09271,0.99568,0.00535,-0.15347,0.3055,-0.58747
-0.07856,0.99665,-0.02263,-0.8426,0.77932,0.1331
-0.06305,0.9966,-0.05305,-0.40976,-0.34325,-0.17341
-0.03829,0.99655,-0.07361,-0.08655,-0.48622,-0.32198
-0.00641,0.99569,-0.09254,0.07645,-0.54269,-0.28954
0.02576,0.99308,-0.11458,0.10029,-0.36221,-0.06664
0.05446,0.98874,-0.13942,0.07332,-0.22761,0.03952
0.08791,0.983,-0.16118,-0.07303,0.10643,0.1683
0.12303,0.97594,-0.18002,-0.33513,0.27151,0.23971
0.15546,0.96753,-0.19928,-0.48435,0.02119,0.31998
0.18523,0.95966,-0.2115,-0.45204,0.01294,0.27919
0.21347,0.95426,-0.20934,-0.3968,0.108,0.3921
0.23669,0.95135,-0.19726,-0.57677,0.43157,0.35158
0.25699,0.94986,-0.1781,-0.83059,0.44986,0.11267
0.27616,0.94811,-0.15756,-1.14748,0.43313,0.20637
0.29048,0.9468,-0.13851,-1.164,0.49802,0.2239
0.2892,0.95038,-0.11462,-1.05196,0.65429,0.04486
0.26791,0.95937,-0.08846,-0.97354,0.48023,0.16221
0.23178,0.97164,-0.04681,-0.77073,0.32075,0.17378
0.18255,0.98319,0.00346,-0.09239,0.35525,-0.02873
0.12488,0.9915,0.03662,0.8023,1.21755,-0.45157
0.07224,0.99536,0.0635,0.77151,1.02687,-0.3935
0.01915,0.99526,0.09531,-0.18947,0.34398,0.04519
-0.04405,0.99068,0.12887,-0.37334,0.38412,0.11717
-0.11456,0.97997,0.16289,-0.10853,0.54501,-0.21464
-0.17481,0.96572,0.19192,0.25075,0.1358,-0.21589
-0.22355,0.94958,0.21984,0.36001,-0.01919,-0.28047
-0.25882,0.934,0.2463,0.18837,-0.43551,-0.42067
-0.28477,0.91929,0.27168,0.22056,-0.59979,-0.45039
-0.30447,0.90502,0.29705,0.29989,-0.5881,-0.49865
-0.31535,0.89206,0.32371,0.44304,-0.57948,-0.60384
-0.31678,0.8818,0.34941,0.48159,-0.72933,-0.49777
-0.31079,0.87696,0.36653,0.53224,-0.76074,-0.51556
-0.30036,0.87849,0.37155,0.56511,-0.80309,-0.49023
-0.28746,0.88673,0.36204,0.52372,-0.59469,-0.23951
-0.2719,0.90313,0.3323,0.42414,-0.51768,-0.10554
-0.24965,0.92544,0.28502,0.0479,-0.20637,0.18817
-0.21177,0.9443,0.2519,-1.00344,1.28062,1.64099
-0.17701,0.9491,0.26054,-1.3681,1.9966,1.77605
-0.18644,0.94858,0.25582,-1.2104,2.07687,1.21573
-0.20939,0.94785,0.24027,-0.00393,-0.14665,-0.00107
-0.2276,0.94481,0.23565,0.32989,-0.58051,-0.28127
-0.231,0.9493,0.21322,0.40289,-0.45672,-0.70793
-0.20909,0.96428,0.16261,0.61098,0.93321,-1.34133
-0.19836,0.97054,0.1368,-0.59656,1.48901,-0.0214
-0.21306,0.96676,0.14138,-0.41319,0.28254,0.39027
-0.2125,0.96749,0.13714,0.97736,-0.46258,-0.36702
-0.19468,0.97372,0.11816,0.84539,-0.75799,-0.50305
-0.15125,0.98596,0.07077,0.77462,-0.78569,-0.45786
-0.09918,0.99473,0.02612,0.46331,-0.37636,-0.41238
-0.06153,0.99803,-0.01254,-0.55754,0.62226,-0.13115
-0.04562,0.99803,-0.04298,-0.85003,0.61213,0.18507
-0.0281,0.99679,-0.07501,-0.82693,-0.10764,0.07623
0.00049,0.99559,-0.09382,-0.1163,-0.51588,-0.44732
0.0307,0.9936,-0.10869,0.07467,-0.63047,-0.25277
0.05773,0.9901,-0.12796,0.06642,-0.4415,0.03266
0.08452,0.985,-0.15043,0.07326,-0.16936,0.08963
0.11432,0.97871,-0.17047,-0.10264,0.1046,0.0834
0.14664,0.97106,-0.18851,-0.33321,0.15168,0.0618
0.17789,0.96243,-0.20513,-0.49174,0.07004,0.29886
0.20984,0.95372,-0.21537,-0.4892,0.20671,0.40496
0.24358,0.94525,-0.21718,-0.43807,0.30038,0.38754
0.27296,0.93861,-0.21096,-0.80266,0.46251,0.34963
0.29528,0.93425,-0.19996,-0.96835,0.54603,0.26339
0.31004,0.93295,-0.18299,-1.15513,0.67286,0.25958
0.31708,0.9346,-0.1612,-1.15102,0.5092,0.52016
0.31179,0.94056,-0.13464,-1.15159,0.44046,0.4602
0.29662,0.95005,-0.097,-0.54647,0.02784,0.20002
0.27337,0.9611,-0.03928,-0.35058,0.04768,0.08167
0.23842,0.97079,0.02675,-0.12756,0.50342,-0.78466
0.19101,0.98021,0.05192,0.35837,1.48809,-0.83399
0.13909,0.98794,0.06801,-0.2155,1.01117,-0.53441
0.06933,0.99284,0.09733,-0.56245,0.75739,-0.20054
-0.00432,0.99169,0.12857,-0.25107,0.68319,-0.1564
-0.07039,0.98495,0.15787,0.36189,0.79607,-0.45639
-0.12832,0.97318,0.19093,0.53064,0.51655,-0.37119
-0.17309,0.95991,0.22046,0.37681,-0.08272,-0.31247
-0.20749,0.94541,0.2513,0.12578,-0.33307,-0.40511
-0.2368,0.92966,0.28225,0.21574,-0.5104,-0.50588
-0.26039,0.91421,0.31051,0.50182,-0.79447,-0.64006
-0.28199,0.89674,0.34109,0.46113,-0.88676,-0.58065
-0.2879,0.88563,0.36439,0.36804,-0.73141,-0.5064
-0.27838,0.88351,0.37671,0.60143,-0.85206,-0.55662
-0.26518,0.88705,0.37791,0.60649,-0.85486,-0.50784
-0.25248,0.89592,0.36549,0.55389,-0.73427,-0.30378
-0.23958,0.9106,0.33676,0.06011,-0.41055,0.12324
-0.22697,0.92898,0.29236,-0.09481,-0.24817,0.2707
-0.19916,0.94372,0.26406,-0.54712,0.76117,1.23196
-0.1704,0.94528,0.27821,-1.43444,2.46567,1.76862
-0.17839,0.94794,0.26381,-1.36775,2.11981,0.96891
-0.19845,0.94944,0.24329,-0.07382,-0.2575,-0.03842
-0.21824,0.94842,0.22994,0.09701,-0.40241,-1.15392
-0.21873,0.95732,0.18894,0.55958,0.59987,-1.70357
-0.19737,0.9696,0.14465,0.40602,1.24885,-1.23103
-0.19315,0.9695,0.1509,-0.56071,1.20139,0.10798
-0.19907,0.96779,0.15412,1.08808,-0.66714,0.35862
-0.19264,0.97145,0.13847,1.20201,-1.03023,-0.12637
-0.16237,0.98296,0.08614,0.88771,-1.20133,-0.47075
-0.10846,0.99381,0.02409,0.74164,-0.71741,-0.48264
-0.02858,0.99872,-0.04182,0.19382,0.1534,-0.59517
0.00291,0.99773,-0.06722,-0.62156,1.08892,-0.22951
0.02197,0.99523,-0.09503,-0.97856,-0.18041,0.17966
0.0516,0.9916,-0.11862,-0.53036,-0.50962,-0.11066
0.08235,0.98695,-0.13841,-0.17655,-0.69382,-0.28716
0.11552,0.98013,-0.16124,-0.28087,-0.50857,-0.15605
0.14476,0.97264,-0.18172,-0.25207,-0.34041,-0.17021
0.16991,0.96344,-0.20716,-0.12549,0.15958,0.07593
0.19248,0.95164,-0.23943,0.07072,0.44562,0.35662
0.21582,0.93947,-0.2661,-0.11154,0.16038,0.60627
0.24576,0.9292,-0.27602,-0.14951,0.24202,0.58063
0.27924,0.92046,-0.27344,-0.43787,0.40334,0.30715
0.31255,0.91425,-0.2578,-0.88102,0.50177,0.28004
0.33852,0.91052,-0.23741,-1.63963,0.56997,0.20746
0.35168,0.90995,-0.21981,-1.73324,0.44875,0.20303
0.35489,0.91266,-0.20274,-1.53609,0.42633,0.35995
0.34764,0.91953,-0.1833,-0.87528,0.60311,0.27656
0.32539,0.93261,-0.15605,-0.62369,0.34532,0.27233
0.29306,0.94931,-0.11367,-0.3058,0.15184,0.42944
0.24636,0.96749,-0.05718,0.25425,0.64791,-0.66983
0.18674,0.98199,-0.02867,0.47198,0.94089,-0.58736
0.12767,0.99179,-0.00663,0.47365,1.10871,-0.32158
0.06476,0.99754,0.0268,-0.46536,0.55672,0.25042
-0.00239,0.99816,0.06063,-0.24418,0.52151,0.00567
-0.06927,0.99335,0.09195,0.19468,0.46737,-0.3141
-0.13094,0.98338,0.12577,0.38944,-0.03837,-0.19457
-0.1799,0.97135,0.15528,0.3354,-0.27673,-0.28974
-0.21885,0.9585,0.18272,0.19589,-0.59459,-0.34745
-0.25246,0.94461,0.2097,0.2769,-0.66973,-0.36256
-0.28072,0.9309,0.23373,0.33089,-0.67115,-0.40364
-0.30097,0.91823,0.25742,0.35205,-0.71306,-0.42232
-0.311,0.90869,0.27851,0.45329,-0.77438,-0.418
-0.3101,0.90403,0.29422,0.50246,-0.76217,-0.45535
-0.30174,0.90438,0.30175,0.59101,-0.69027,-0.4592
-0.28901,0.91003,0.29717,0.51228,-0.63486,-0.28724
-0.27161,0.92201,0.27592,-0.03664,-0.32952,0.4247
-0.2477,0.93587,0.25059,-0.35666,-0.15662,0.78744
-0.21872,0.94618,0.23855,-1.1228,0.83422,1.61301
-0.21097,0.95242,0.21997,-1.11561,2.22405,1.61201
-0.22637,0.95545,0.18942,-0.39581,0.64544,0.39649
-0.24132,0.95332,0.18149,0.23512,-0.34634,-0.29717
-0.24503,0.95395,0.17305,0.44013,0.00983,-1.51142
-0.22317,0.9664,0.12755,0.50088,0.34311,-1.48389
-0.2048,0.97484,0.08803,-0.02242,0.45023,-0.62688
-0.20392,0.97583,0.07852,-0.20738,0.51225,0.11171
-0.20354,0.97712,0.06171,0.79154,-0.07296,0.43521
-0.18894,0.98125,0.03796,0.95908,-0.44871,0.02137
-0.14833,0.98891,-0.00697,0.61689,-0.78586,-0.21998
-0.08807,0.99453,-0.05621,0.43765,-0.41761,-0.4446
-0.03218,0.99532,-0.09108,-0.02925,0.22373,-0.57505
0.0035,0.99299,-0.11814,-0.95614,0.44286,0.06703
0.02927,0.98885,-0.14599,-1.02642,0.02903,0.12717
0.05922,0.98463,-0.1643,-0.4737,-0.43621,-0.27764
0.08411,0.97998,-0.18048,-0.23689,-0.56098,-0.22424
0.10528,0.97417,-0.19978,-0.24459,-0.50106,-0.06368
0.12355,0.96817,-0.21766,-0.16086,-0.27455,0.23518
0.14403,0.96098,-0.23615,0.16648,0.57005,0.24515
0.16448,0.95252,-0.25623,0.11794,0.58914,0.22375
0.19129,0.94449,-0.26713,-0.28321,0.09256,0.37978
0.22811,0.93832,-0.25986,-0.33207,0.02522,0.36457
0.26953,0.93299,-0.23849,-0.64389,-0.00733,0.34713
0.30596,0.92779,-0.21351,-1.27199,0.56845,0.21363
0.33404,0.92339,-0.18915,-1.37742,0.6369,0.20436
0.35173,0.92141,-0.16516,-1.37711,0.46662,0.34731
0.35855,0.92266,-0.14192,-1.38951,0.52166,0.44868
0.35097,0.92939,-0.11424,-1.40297,0.44842,0.38162
0.33519,0.93895,-0.07759,-0.87877,0.19881,0.10389
0.30869,0.9507,-0.02966,-0.33942,0.44171,-0.42648
0.26458,0.96432,0.00967,-0.10435,0.73815,-0.61341
0.21089,0.97723,0.02333,0.24998,1.19394,-0.36286
0.15141,0.988,0.03033,-0.63892,0.49005,0.11681
0.08144,0.99563,0.0456,-0.67847,0.50885,0.09747
0.0146,0.99769,0.06638,-0.14448,0.59419,0.01932
-0.04115,0.99487,0.09244,0.49329,0.43534,-0.35597
-0.09335,0.98772,0.12525,0.45907,0.14546,-0.24975
-0.14032,0.97806,0.15397,0.28981,-0.10759,-0.20012
-0.18269,0.96628,0.18147,0.15552,-0.37749,-0.42267
-0.21936,0.9526,0.21078,0.12485,-0.4391,-0.41435
-0.24743,0.93896,0.23902,0.18223,-0.52342,-0.36199
-0.26564,0.92665,0.266,0.26232,-0.63631,-0.36657
-0.27248,0.91722,0.29064,0.37755,-0.6423,-0.4146
-0.27113,0.91106,0.31058,0.48314,-0.66944,-0.45792
-0.26392,0.9094,0.32146,0.57147,-0.68636,-0.48574
-0.25727,0.91158,0.32069,0.62865,-0.69258,-0.34691
-0.25136,0.91815,0.30631,0.59033,-0.66448,-0.20854
-0.2445,0.93057,0.27251,0.31962,-0.54579,0.15453
-0.23345,0.94622,0.22397,-0.22641,0.11692,1.12399
-0.19643,0.96014,0.19886,-0.43134,1.18509,1.86981
-0.17083,0.96495,0.19924,-1.63824,2.23943,1.34435
-0.17948,0.96777,0.17663,-0.48003,0.21541,0.17719
-0.19529,0.96723,0.16228,-0.13813,0.22523,-0.11089
-0.19648,0.97005,0.14285,-0.01525,1.15662,-1.39434
-0.19935,0.97265,0.11917,-0.14986,-0.11151,-1.12638
-0.22405,0.96882,0.10578,0.05174,-0.66166,-0.57104
-0.2342,0.96636,0.10628,1.02427,-1.13201,1.18873
-0.21052,0.97207,0.10375,1.0061,-0.71967,-0.37508
-0.16976,0.9843,0.04839,0.66038,-0.55235,-0.75261
-0.10425,0.9945,-0.00985,0.60287,-0.02665,-0.28865
-0.04297,0.99791,-0.04819,0.03923,0.97764,-0.6374
-0.01689,0.99704,-0.07498,-0.43914,1.06489,-0.47023
-0.00494,0.99515,-0.0983,-0.74315,-0.46414,0.0069
0.02599,0.99296,-0.11552,-0.51667,-0.48918,-0.07514
0.05738,0.99035,-0.12616,-0.40559,-0.61739,-0.1834
0.09211,0.986,-0.13899,-0.24036,-0.47659,-0.27695
0.12424,0.97985,-0.15641,-0.17097,-0.28962,-0.28428
0.14716,0.97213,-0.18249,-0.03615,0.13158,-0.01327
0.17078,0.96255,-0.21053,0.16694,0.37645,0.24511
0.19636,0.95195,-0.23503,0.01026,0.02294,0.34027
0.22869,0.93956,-0.25482,-0.31638,-0.16941,0.79205
0.26352,0.9276,-0.26481,-0.57486,0.34349,0.46707
0.30212,0.91725,-0.25954,-0.58768,0.58664,0.30439
0.34005,0.90941,-0.23945,-0.83818,0.87906,0.21702
0.36992,0.90385,-0.21496,-1.40915,0.57657,0.52504
0.3897,0.90144,-0.18851,-1.51559,0.55452,0.47107
0.39421,0.9046,-0.16219,-1.55818,0.47088,0.21032
0.38082,0.91436,-0.13755,-1.12899,0.34026,0.19938
0.35467,0.9293,-0.10299,-0.84044,0.24486,0.16603
0.31774,0.94666,-0.05357,-0.46587,0.47439,0.00156
0.26515,0.96406,-0.01709,0.46049,1.25289,-0.66433
0.20878,0.97788,-0.01279,0.63397,1.12846,-0.4783
0.14808,0.98898,0.00037,0.32047,0.81614,-0.41334
0.07758,0.99668,0.0248,-0.69499,0.43174,0.29516
0.00778,0.99884,0.04743,-0.16351,0.48126,-0.09287
-0.05479,0.99569,0.07478,0.26327,0.41316,-0.39927
-0.11095,0.9884,0.10375,0.47228,0.06269,-0.19749
-0.15898,0.97871,0.12979,0.12239,-0.37759,-0.35501
-0.20258,0.96654,0.15738,0.11988,-0.47127,-0.31171
-0.24254,0.95299,0.18158,0.24657,-0.57555,-0.33945
-0.27509,0.93944,0.20442,0.41246,-0.73408,-0.37833
-0.29735,0.9272,0.22776,0.45938,-0.75328,-0.41346
-0.30756,0.91841,0.24884,0.52175,-0.78331,-0.43264
-0.30763,0.91461,0.2624,0.62226,-0.81067,-0.41853
-0.30105,0.91688,0.2621,0.63043,-0.78832,-0.34687
-0.28825,0.92638,0.24234,0.56793,-0.61892,-0.11954
-0.26796,0.94209,0.20166,-0.01316,-0.31891,0.27198
-0.23699,0.95904,0.15517,-0.14634,-0.171,0.40043
-0.18846,0.97011,0.15285,-0.55182,1.066,1.74004
-0.17875,0.97177,0.15398,-1.55413,2.61497,1.32969
-0.19678,0.9716,0.1314,-0.68498,0.72507,0.31377
-0.21792,0.96853,0.12025,0.0844,-0.40571,0.07511
-0.22984,0.96766,0.10398,0.35704,-0.52462,-1.12008
-0.21045,0.97601,0.05572,0.50731,-0.24844,-1.27807
-0.17959,0.98354,0.01971,0.3228,0.66526,-1.22024
-0.17762,0.98394,0.01802,-0.30923,0.91739,0.84237
-0.18484,0.9826,0.01791,0.47975,0.1924,0.76328
-0.1765,0.9843,-0.00181,1.14954,-0.87976,-0.3258
-0.13769,0.98905,-0.05318,1.02601,-0.89221,-0.34006
0.03581,0.98848,-0.14703,0.80537,-0.67952,-0.26233
0.13897,0.97124,-0.19335,-0.27978,0.55437,-0.46637
0.17326,0.9618,-0.21193,-1.17457,0.84284,0.37703
0.20312,0.95223,-0.22803,-1.32514,-0.01643,0.01024
0.2377,0.94277,-0.23386,-0.37802,-0.65773,-0.40604
0.27067,0.93215,-0.24051,-0.45043,-0.66898,-0.2749
0.30058,0.92005,-0.25131,-0.48167,-0.57299,0.06379
0.32071,0.9098,-0.26347,-0.3389,0.12924,0.25988
0.33696,0.89681,-0.28671,-0.31047,0.50682,0.19335
0.34751,0.88145,-0.31983,-0.44733,0.76267,0.23143
0.36865,0.8646,-0.34143,-0.23222,0.16069,0.84444
0.4047,0.84994,-0.33737,-0.07554,0.1674,0.75313
0.44814,0.83696,-0.31412,-0.31562,0.25559,0.36862
0.48975,0.82438,-0.28381,-1.20269,0.74085,0.1867
0.51897,0.81486,-0.25821,-1.5379,0.83742,0.07603
0.53048,0.81181,-0.24402,-1.9792,0.41959,0.22941
0.53809,0.81263,-0.22381,-1.20806,0.57284,0.33279
0.53582,0.81974,-0.20228,-1.13948,0.64179,0.31613
0.52113,0.83272,-0.18711,-1.08895,0.63044,0.27122
0.49682,0.85273,-0.1613,-0.69157,0.2956,0.25589
0.46418,0.87825,-0.11494,-0.44805,0.68356,-0.0208
0.41669,0.90581,-0.07666,-0.1102,1.00467,-0.29253
0.36191,0.92972,-0.06817,0.4462,1.22472,-0.42429
0.30563,0.95053,-0.0556,-0.35804,0.44089,0.10348
0.23881,0.97028,-0.03903,-0.55682,0.4747,0.28363
0.16913,0.98538,-0.02045,-0.43047,0.58859,0.11809
0.10363,0.99459,0.0075,0.1307,0.33242,-0.13339
0.04633,0.9982,0.03799,0.26815,0.1271,-0.03276
-0.00188,0.99796,0.06386,0.12787,-0.18918,-0.22236
-0.04515,0.99508,0.0882,-0.01059,-0.43301,-0.27002
-0.08359,0.99048,0.10939,-0.02221,-0.59554,-0.29623
-0.11419,0.98503,0.12914,0.08772,-0.70279,-0.34485
-0.13509,0.97964,0.14852,0.25172,-0.78245,-0.34064
-0.14661,0.97535,0.16493,0.33665,-0.78589,-0.3737
-0.15028,0.97345,0.17265,0.45504,-0.82733,-0.38174
-0.15036,0.97429,0.16781,0.338,-0.84436,-0.27798
-0.14446,0.97813,0.14962,0.27671,-0.74234,-0.16539
-0.13057,0.9847,0.11541,0.18397,-0.61782,0.13935
-0.10897,0.99116,0.07572,-0.2562,-0.14423,0.56859
-0.079,0.99521,0.05759,-0.52215,0.23875,1.13517
-0.05237,0.99673,0.06146,-1.58209,2.4581,1.69635
-0.05382,0.99745,0.04682,-0.68841,0.73401,0.57444
-0.0696,0.99719,0.02768,-0.26232,0.14563,0.3172
-0.08311,0.99621,0.02544,0.15135,-0.68874,-0.06878
-0.08034,0.99672,0.0093,0.2143,-0.79252,-0.84748
-0.04793,0.99795,-0.04229,0.18005,-0.59882,-1.10146
-0.01219,0.99606,-0.08783,-0.45238,0.82079,0.01976
-0.00571,0.99634,-0.08525,-0.97563,2.05148,0.25091
-0.01801,0.99545,-0.09353,-0.59221,1.06654,0.75269
-0.01987,0.99375,-0.10984,0.89804,-1.04797,0.07887
0.015,0.99006,-0.13986,1.08876,-1.27302,-0.00326
0.0833,0.98112,-0.17454,0.86125,-1.04988,-0.16561
0.14892,0.96728,-0.20539,-0.50723,0.68048,-0.45184
0.1882,0.95773,-0.21755,-0.86213,0.93745,-0.00459
0.21637,0.94789,-0.23386,-1.44699,0.39835,0.32424
0.2485,0.93796,-0.24181,-0.34417,-0.53281,-0.43024
0.28067,0.92613,-0.25202,-0.28361,-0.54312,-0.34438
0.30896,0.91243,-0.26835,-0.34299,-0.51534,0.12176
0.33353,0.89799,-0.287,-0.13262,0.01091,0.42124
0.35862,0.88185,-0.30615,-0.14497,0.21077,0.40093
0.37996,0.86599,-0.32511,-0.41661,0.29008,0.27285
0.40633,0.84936,-0.33688,-0.52257,0.28771,0.44798
0.43963,0.8333,-0.33516,-0.49966,0.36157,0.48851
0.47514,0.81973,-0.31983,-0.5088,0.45186,0.4992
0.50691,0.81064,-0.2931,-0.92775,0.50533,0.31524
0.53255,0.80517,-0.26096,-1.16831,0.53654,0.21249
0.54908,0.80293,-0.232,-1.57255,0.53208,0.16886
0.55794,0.80355,-0.20739,-1.70369,0.32542,0.17871
0.55894,0.80794,-0.18661,-1.54571,0.59993,0.19125
0.54689,0.81922,-0.17259,-1.42726,0.72437,0.15967
0.52363,0.83804,-0.15327,-0.95312,0.45387,0.14785
0.48995,0.86456,-0.1117,-0.33224,0.73527,0.07472
0.44199,0.89366,-0.07755,0.00905,1.01961,-0.22154
0.38817,0.919,-0.06905,0.18023,0.86678,-0.2263
0.33073,0.94196,-0.05769,-0.14997,0.62756,-0.06036
0.26364,0.96346,-0.0474,-0.59745,0.5991,0.27959
0.19124,0.98071,-0.04052,-0.53844,0.60934,0.07416
0.11928,0.99266,-0.02001,-0.12415,0.55626,-0.12448
0.05559,0.99844,0.00498,0.09523,0.0985,-0.08686
0.00191,0.99967,0.02547,0.12324,-0.12626,-0.20119
-0.04327,0.99806,0.04474,0.0182,-0.48836,-0.23054
-0.08212,0.99465,0.06259,0.05861,-0.56884,-0.24991
-0.11212,0.99036,0.08133,0.14237,-0.71462,-0.23604
-0.13039,0.98654,0.09869,0.22164,-0.80612,-0.18001
-0.13901,0.98425,0.10917,0.26663,-0.84667,-0.20512
-0.14055,0.98423,0.10737,0.32842,-0.91735,-0.28429
-0.13751,0.98609,0.09332,0.39993,-0.8785,-0.26769
-0.12632,0.98974,0.0668,0.35513,-0.67345,-0.00528
-0.10168,0.99445,0.02711,0.02247,-0.15425,0.52885
-0.06471,0.99787,-0.00807,-0.28181,0.10403,0.86378
-0.02926,0.99933,-0.02186,-0.98722,0.95118,1.8188
-0.02808,0.99938,-0.0213,-1.31927,2.36502,1.84828
-0.04527,0.99853,-0.02967,-0.50357,0.52907,0.81513
-0.05885,0.99748,-0.03972,-0.08989,-0.0131,0.47318
-0.06302,0.99719,-0.04059,0.25359,-0.8197,-0.65121
-0.04136,0.99643,-0.07355,0.52297,-0.42592,-1.27577
0.00071,0.9919,-0.12699,0.51275,0.01685,-1.12458
0.01082,0.98964,-0.14316,-1.30716,1.98451,0.08948
-0.00753,0.98952,-0.14422,-0.70055,0.44576,0.82203
-0.00677,0.98838,-0.15183,0.04142,-0.1369,0.4106
0.01301,0.98493,-0.17249,0.86064,-1.06314,-0.21104
0.0784,0.9742,-0.21165,0.81093,-0.94594,-0.18032
0.15596,0.95976,-0.23353,0.29164,-0.17486,-0.34819
0.1965,0.94926,-0.24556,-0.83946,0.76401,0.35298
0.21788,0.93993,-0.2628,-1.14598,0.80209,0.44136
0.24528,0.93004,-0.27361,-0.93815,-0.16155,-0.10339
0.27732,0.92013,-0.27652,-0.23917,-0.41375,-0.18838
0.31062,0.90671,-0.28529,-0.27573,-0.40958,0.07908
0.34096,0.89251,-0.29525,-0.24644,-0.41054,0.39763
0.36772,0.8792,-0.30297,-0.33172,-0.09483,0.13671
0.38835,0.86489,-0.31806,-0.78884,0.23016,0.16403
0.40655,0.84993,-0.33517,-0.88026,0.46805,0.2351
0.43314,0.83449,-0.34062,-0.60292,0.51854,0.46487
0.46751,0.82011,-0.32993,-0.30717,0.40697,0.66619
0.50086,0.80737,-0.3119,-0.54441,0.45805,0.61754
0.53092,0.79791,-0.2854,-1.10871,0.57264,0.30467
0.55295,0.79229,-0.25793,-1.67003,0.5223,0.18708
0.56609,0.79094,-0.2323,-1.74784,0.45803,0.35429
0.5721,0.7939,-0.20599,-1.44082,0.54824,0.44588
0.56357,0.80424,-0.18865,-1.45327,0.55444,0.39319
0.54582,0.82083,-0.16826,-1.24211,0.39227,0.44939
0.52182,0.8445,-0.1205,-0.79779,0.31002,0.1601
0.48548,0.87104,-0.07479,-0.17429,1.1884,-0.62609
0.43418,0.89832,-0.06712,0.12278,1.40626,-0.54426
0.37578,0.92487,-0.05831,-0.09115,0.98537,-0.17028
0.30207,0.9518,-0.05315,-0.83721,0.52638,0.19047
0.22262,0.97364,-0.04957,-0.71022,0.49846,0.06208
0.14833,0.98835,-0.03417,-0.17274,0.57788,-0.1878
0.08526,0.9963,-0.01085,0.08579,0.16584,0.03587
0.03288,0.99941,0.01022,0.13979,0.04387,-0.12952
-0.01328,0.99937,0.03286,-0.02363,-0.39608,-0.22598
-0.05311,0.99712,0.0541,0.07036,-0.65101,-0.23907
-0.08487,0.99368,0.07344,0.22834,-0.85451,-0.26288
-0.10932,0.98977,0.09171,0.27418,-0.93097,-0.21273
-0.12468,0.98681,0.10321,0.2935,-0.89628,-0.23753
-0.12975,0.98591,0.10557,0.34097,-0.93487,-0.32601
-0.12726,0.98696,0.09857,0.52138,-0.81469,-0.20665
-0.12004,0.98947,0.08083,0.51518,-0.72846,-0.0531
-0.10469,0.99341,0.04668,0.33963,-0.54982,0.10649
-0.08438,0.99642,-0.00501,-0.16036,-0.01789,0.63003
-0.04903,0.99755,-0.04998,-0.05444,1.02336,1.79586
-0.0198,0.9995,-0.02472,-1.35081,2.74408,3.08744
-0.04635,0.99856,-0.02707,-1.2521,0.46142,0.6232
-0.09181,0.99485,-0.04297,-0.17458,-0.72742,0.15685
-0.10605,0.99258,-0.05945,0.00461,-1.00615,0.00198
-0.08456,0.99213,-0.0924,0.76519,0.62505,-1.02901
-0.02791,0.99134,-0.12834,0.54384,1.15687,-0.97456
-0.0098,0.99092,-0.13408,-0.0713,1.69995,-0.56404
-0.0384,0.99003,-0.13551,-0.55963,0.0187,0.99773
-0.04172,0.98926,-0.14011,0.8742,-0.54678,0.10697
-0.01667,0.98517,-0.17075,0.97085,-0.69791,-0.31323
0.08593,0.96827,-0.23466,0.76177,-0.94636,-0.20286
0.16196,0.9533,-0.25494,0.20378,-0.28833,-0.29401
0.20758,0.94182,-0.26435,-0.22851,0.1602,-0.2763
0.23466,0.9315,-0.27794,-1.29948,0.98266,0.54976
0.26504,0.91908,-0.29163,-0.74689,-0.33274,-0.12924
0.29581,0.90724,-0.29903,-0.45087,-0.46722,-0.2698
0.32477,0.89332,-0.31064,-0.36966,-0.54448,-0.19734
0.35312,0.87801,-0.32313,-0.44847,-0.35857,0.14105
0.38263,0.86114,-0.33471,-0.42388,-0.15211,0.19721
0.40814,0.84188,-0.35309,-0.37748,0.28485,0.31125
0.42349,0.82068,-0.38358,-0.63882,0.45985,0.52871
0.4427,0.80017,-0.40465,-0.64549,0.43181,0.63869
0.47619,0.78216,-0.40184,-0.46898,0.40483,0.68464
0.51362,0.76928,-0.38,-0.32699,0.40358,0.60816
0.54758,0.75934,-0.3515,-0.9387,0.61789,0.47081
0.57105,0.75424,-0.32408,-1.39069,0.73845,0.20373
0.58368,0.7548,-0.29932,-1.72003,0.48242,0.45777
0.59079,0.76026,-0.27013,-1.63206,0.54764,0.51445
0.58205,0.7755,-0.24457,-1.2972,0.74838,0.34515
0.55998,0.79922,-0.21833,-0.90642,0.27857,0.25875
0.53376,0.82938,-0.16499,-0.74386,0.22523,0.38255
0.49615,0.86093,-0.11244,-0.35446,0.58089,-0.24216
0.43959,0.89156,-0.10902,0.27638,1.3819,-0.38287
0.37511,0.92103,-0.10487,-0.0409,1.05271,-0.20638
0.29624,0.95035,-0.09525,-1.015,0.59991,0.30068
0.2152,0.97248,-0.08932,-0.44556,0.71836,-0.00379
0.14626,0.98681,-0.06939,-0.16928,0.71673,-0.08795
0.08707,0.99519,-0.04481,0.14745,0.01936,0.1918
0.03856,0.99895,-0.02464,0.11711,-0.195,-0.08855
-0.00353,0.99998,-0.00582,-0.07719,-0.6041,-0.14609
-0.04177,0.99908,0.00967,0.01542,-0.82624,-0.15755
-0.07245,0.99709,0.02364,0.06934,-0.85476,-0.17258
-0.0921,0.99511,0.03574,0.14582,-0.88897,-0.22294
-0.10209,0.99378,0.0444,0.29178,-0.90836,-0.26691
-0.10499,0.99335,0.04725,0.34585,-0.89238,-0.27742
-0.10255,0.9938,0.0429,0.41552,-0.80409,-0.19291
-0.09373,0.99516,0.02962,0.38135,-0.6052,0.18788
-0.07531,0.99716,0.0023,0.23974,-0.50883,0.37441
-0.05184,0.99792,-0.03838,-0.14837,-0.18301,0.60257
-0.02282,0.99745,-0.06762,-1.66219,2.28282,2.69903
-0.00553,0.99791,-0.06431,-1.93432,2.59033,1.83442
-0.0203,0.9966,-0.07988,-1.49419,1.64207,0.97549
-0.03839,0.99483,-0.09399,-0.04743,-0.46413,0.20529
-0.04986,0.99433,-0.09392,0.05576,-0.69446,-0.14777
-0.02643,0.9926,-0.11856,0.18838,-0.49107,-0.64354
0.01561,0.98725,-0.15839,0.25553,0.88186,-1.0632
0.01848,0.98543,-0.16909,-1.09227,1.66908,0.5111
0.00129,0.98619,-0.16561,-0.26248,0.22104,0.87178
-0.00272,0.98441,-0.17587,0.98502,-0.98284,-0.12512
0.01881,0.97846,-0.20559,0.83536,-1.16025,-0.26916
0.11537,0.95767,-0.26373,0.63495,-0.92998,-0.2943
0.19367,0.94065,-0.2787,0.06944,-0.13439,-0.35503
0.24076,0.92702,-0.28752,-1.15607,1.28119,0.36296
0.26594,0.91605,-0.3002,-1.46922,1.10235,0.66341
0.29752,0.90471,-0.30492,-1.01849,-0.20771,0.25415
0.33152,0.89181,-0.30783,-0.33848,-0.46127,-0.2202
0.36545,0.8755,-0.31615,-0.36884,-0.49293,-0.16051
0.39759,0.85804,-0.32511,-0.48023,-0.42522,0.0022
0.42956,0.83896,-0.33412,-0.4101,-0.14197,0.17112
0.45984,0.81737,-0.34705,-0.34613,0.23277,0.35611
0.48387,0.79346,-0.36917,-0.57587,0.39526,0.37328
0.50959,0.77007,-0.3838,-0.73199,0.48517,0.66602
0.54537,0.74925,-0.37575,-0.64967,0.58314,0.74747
0.58188,0.73367,-0.35091,-0.59292,0.64298,0.68218
0.61314,0.72311,-0.31808,-1.40375,0.70126,0.3964
0.63722,0.71794,-0.28019,-1.59201,0.76377,0.23403
0.65062,0.71807,-0.24712,-1.80363,0.66169,0.18456
0.65105,0.72443,-0.22658,-1.76404,0.66017,0.33077
0.63487,0.74166,-0.21652,-1.33302,0.69426,0.37617
0.60757,0.7687,-0.1999,-0.65903,0.41761,0.39707
0.57496,0.80361,-0.15373,-0.55848,0.53678,0.15716
0.53263,0.83743,-0.12257,0.05335,1.23507,-0.79641
0.48271,0.86626,-0.12876,0.23529,1.13482,-0.38222
0.42443,0.89728,-0.12139,-0.61288,0.62746,0.12367
0.34975,0.92967,-0.11574,-1.07019,0.55852,0.32865
0.27444,0.95514,-0.11128,-0.37561,0.61917,-0.16403
0.2078,0.97383,-0.09205,-0.13541,0.46147,-0.1296
0.1511,0.98607,-0.06955,0.15759,0.06813,0.04215
0.10252,0.99334,-0.05254,0.00127,-0.37335,-0.12132
0.05805,0.99761,-0.03745,0.03986,-0.45954,-0.1641
0.01651,0.99955,-0.02494,0.06488,-0.64007,-0.19368
-0.01796,0.99973,-0.01475,0.10867,-0.83698,-0.18184
-0.04243,0.99908,-0.00665,0.13566,-0.87473,-0.18226
-0.05758,0.99834,-0.00188,0.20171,-0.92092,-0.18086
-0.06468,0.9979,-0.00201,0.41284,-0.92397,-0.22098
-0.06468,0.99786,-0.00937,0.46184,-0.88916,-0.15447
-0.05549,0.99807,-0.02803,0.46236,-0.76581,0.08383
-0.0354,0.99736,-0.06334,-0.00113,-0.38588,0.54454
-0.00781,0.99383,-0.11062,-0.18623,-0.10043,0.97776
0.03654,0.991,-0.12877,-1.57403,2.44244,2.99464
0.03677,0.99221,-0.11902,-1.80005,1.96171,1.05243
0.01791,0.98998,-0.14008,-0.35179,-0.48886,0.19132
-0.00484,0.98828,-0.15255,-0.12479,-0.84909,0.15278
-0.01145,0.98685,-0.1612,0.23472,-0.34889,-0.88141
0.02824,0.98004,-0.19677,0.21236,1.08053,-1.23711
0.06904,0.9711,-0.22845,-0.38384,1.95958,-0.61151
0.04812,0.97268,-0.22709,-1.38012,1.33338,0.85485
0.02728,0.97537,-0.21886,1.0098,-0.8176,0.08312
0.02208,0.97071,-0.23922,1.14395,-1.06887,-0.26422
0.06415,0.95582,-0.28686,0.92169,-1.1213,-0.21873
0.17331,0.92495,-0.33829,0.63162,-0.736,-0.35657
0.24753,0.90269,-0.35197,-0.1767,0.28369,-0.51991
0.28138,0.88506,-0.37079,-1.11949,1.45455,0.53473
0.3059,0.86877,-0.38943,-1.04409,-0.13301,0.32552
0.34204,0.85436,-0.39126,-0.44902,-0.34943,-0.02716
0.37883,0.83765,-0.39349,-0.17175,-0.47106,-0.1791
0.41452,0.81703,-0.40078,-0.16993,-0.42243,0.2282
0.44543,0.79983,-0.40232,-0.25346,-0.33793,0.43934
0.48016,0.78445,-0.39254,-0.42014,0.2048,0.55683
0.50424,0.76521,-0.40024,-0.9375,0.4054,0.02486
0.51582,0.74426,-0.42427,-1.14847,0.35889,0.11406
0.54011,0.72652,-0.4248,-1.16523,0.35034,0.54039
0.58227,0.71401,-0.38877,-0.43136,0.50683,0.90338
0.61141,0.70522,-0.35894,-0.58393,0.54713,0.64752
0.63791,0.69648,-0.32861,-1.50691,0.70729,0.13353
0.6558,0.69427,-0.2965,-1.71108,0.69893,0.24651
0.66413,0.69829,-0.26706,-1.87403,0.48256,0.48752
0.66072,0.70855,-0.2478,-1.45088,0.54018,0.54589
0.64443,0.72757,-0.23527,-1.17879,0.50578,0.50724
0.62495,0.75595,-0.19489,-0.54641,0.51422,0.23355
0.59557,0.78881,-0.1519,-0.02317,1.31045,-0.70099
0.54551,0.82414,-0.15235,0.08856,1.22199,-0.34982
0.49082,0.85833,-0.14954,-0.1102,1.11255,-0.03058
0.42154,0.89474,-0.14746,-0.91992,0.86087,0.26335
0.34815,0.92522,-0.1509,-0.69609,0.80162,0.01768
0.27536,0.95044,-0.14436,-0.19252,0.76036,-0.09594
0.21217,0.96952,-0.12251,0.07026,0.07637,0.29541
0.1572,0.98175,-0.10704,0.06393,-0.05281,0.13313
0.10955,0.9895,-0.09434,-0.06119,-0.39347,-0.03814
0.06546,0.99444,-0.0825,-0.0322,-0.7337,-0.132
0.02731,0.99696,-0.0729,0.02585,-0.83223,-0.16265
-0.00124,0.99793,-0.06433,0.12368,-0.91617,-0.1411
-0.0194,0.99813,-0.05805,0.23533,-1.07428,-0.16459
-0.02988,0.99792,-0.05708,0.29246,-1.09907,-0.16272
-0.03323,0.99734,-0.06488,0.4436,-0.9962,-0.15682
-0.02826,0.99625,-0.0818,0.40574,-0.75441,0.11944
-0.00925,0.99389,-0.11003,0.12383,-0.52321,0.3802
0.01921,0.98867,-0.14886,-0.06179,-0.27906,0.5831
0.05844,0.98111,-0.1844,-0.44519,1.13513,1.87445
0.07687,0.98369,-0.16259,-2.23135,3.14727,2.28485
0.05427,0.98471,-0.16556,-1.10666,0.42191,0.6563
0.02868,0.98283,-0.18227,-0.10969,-0.92309,0.17111
0.00917,0.98128,-0.19239,0.0997,-0.61712,-0.18096
0.03028,0.97552,-0.2178,0.22663,-0.14899,-0.68854
0.08527,0.9637,-0.253,0.00893,0.99963,-1.1175
0.10218,0.95778,-0.26873,-0.95858,1.7365,0.25305
0.08023,0.9613,-0.26355,-0.4431,0.56917,1.34368
0.07523,0.9603,-0.26863,0.72025,-0.18962,0.20801
0.09569,0.94988,-0.29762,0.86084,-1.12154,0.08779
0.16457,0.92743,-0.33584,0.85002,-1.10597,0.10018
0.29157,0.88311,-0.36756,0.16047,-0.43705,-0.30838
0.34624,0.86212,-0.36996,-1.2376,0.85911,0.04893
0.37284,0.84656,-0.3799,-1.65526,1.10945,0.51305
0.40395,0.83027,-0.38403,-1.58305,0.18618,0.47398
0.43328,0.81507,-0.38463,-0.28264,-0.45006,-0.26718
0.46165,0.79356,-0.39642,-0.2761,-0.45083,-0.17487
0.48861,0.7687,-0.41274,-0.37183,-0.31649,0.2485
0.51125,0.74718,-0.42467,-0.37721,0.04995,0.41061
0.53036,0.72424,-0.44067,-0.41384,0.21784,0.38449
0.54491,0.70061,-0.46067,-0.77931,0.74821,0.58206
0.56981,0.67912,-0.46272,-0.72922,0.76581,0.66312
0.60687,0.66057,-0.44199,-0.51544,0.43871,0.70469
0.64297,0.64768,-0.40877,-1.12092,0.4998,0.54085
0.67615,0.63658,-0.37093,-1.36655,0.6443,0.34624
0.70179,0.62912,-0.33422,-1.714,0.84187,0.22836
0.71668,0.62728,-0.30479,-1.73507,0.668,0.46004
0.7222,0.63331,-0.27812,-1.63243,0.77278,0.41036
0.71229,0.65013,-0.26453,-1.50466,0.776,0.40219
0.69399,0.6772,-0.24451,-0.78357,0.61377,0.2814
0.67521,0.71128,-0.19535,-0.55517,0.81792,-0.01003
0.64138,0.74809,-0.17031,0.22552,1.41047,-0.65847
0.59416,0.78616,-0.17006,0.10225,0.99445,-0.24805
0.53292,0.82853,-0.17184,-0.33662,0.71589,0.00724
0.46693,0.86816,-0.16813,-1.06072,0.66977,0.25786
0.39861,0.9019,-0.16641,-0.52206,0.69512,-0.0304
0.33249,0.93058,-0.15318,-0.30561,0.56035,-0.05953
0.27178,0.95263,-0.13652,-0.10877,0.08042,0.17029
0.21551,0.96828,-0.12647,-0.1461,-0.28831,-0.00381
0.16277,0.97955,-0.11824,-0.11076,-0.4135,-0.11289
0.11201,0.98726,-0.11298,-0.13342,-0.60909,-0.14441
0.06826,0.99178,-0.10826,-0.10339,-0.77419,-0.1326
0.0366,0.99397,-0.10338,0.00434,-0.8388,-0.13974
0.01585,0.99478,-0.10083,0.08745,-0.87016,-0.14617
0.00298,0.99441,-0.10557,0.24191,-0.91862,-0.15654
-0.00272,0.99277,-0.11999,0.47592,-0.89008,0.00184
0.00165,0.98938,-0.14531,0.46102,-0.84711,0.1335
0.02229,0.98231,-0.18595,0.27749,-0.72304,0.3113
0.05497,0.96922,-0.23997,-0.31327,0.09158,1.44281
0.09582,0.95743,-0.27231,-0.75866,1.32866,2.8185
0.10142,0.96324,-0.24876,-2.49153,2.83641,1.80587
0.08793,0.96075,-0.26311,-0.44737,-0.09742,0.36348
0.06344,0.95901,-0.27616,-0.06968,-0.52692,0.30407
0.05046,0.95965,-0.27665,0.46396,0.41041,-0.34358
0.09731,0.9532,-0.28626,-0.05989,1.46926,-1.38685
0.12082,0.94615,-0.30034,-0.50201,1.47922,-0.83189
0.09438,0.94518,-0.31262,-0.75449,-0.05922,0.50907
0.08478,0.94706,-0.30967,0.99466,-0.32581,-0.09335
0.10907,0.93678,-0.33249,0.74461,-0.34703,-0.48532
0.17061,0.91282,-0.37102,0.41937,-0.67438,-0.13114
0.25746,0.88154,-0.39574,-0.03482,0.06839,-0.11586
0.3251,0.85559,-0.40284,-0.47657,0.61376,-0.09341
0.36094,0.83486,-0.4156,-1.27654,1.18204,0.60486
0.39861,0.81271,-0.42499,-0.92297,-0.27202,0.13261
0.43983,0.79,-0.42714,-0.58279,-0.40385,-0.27089
0.47735,0.76076,-0.43975,-0.39819,-0.44826,0.28724
0.51444,0.72917,-0.45129,-0.55411,-0.47182,0.73075
0.54706,0.70434,-0.45236,-0.53069,0.27061,0.81606
0.56944,0.68217,-0.45866,-0.90534,0.98561,0.21179
0.57844,0.66421,-0.47353,-1.15104,0.66669,0.26443
0.60039,0.64686,-0.47022,-0.99596,0.41381,0.55272
0.64008,0.63532,-0.43206,-0.61313,0.49653,0.84661
0.67025,0.62975,-0.39266,-0.85662,0.4687,0.74992
0.69362,0.62688,-0.35483,-1.38975,0.46731,0.35492
0.71009,0.62844,-0.31753,-1.84668,0.58599,0.30422
0.71589,0.63586,-0.2884,-1.88903,0.53943,0.59393
0.71983,0.64736,-0.25056,-1.42921,0.6763,0.61308
0.71309,0.66367,-0.22593,-1.10986,0.64319,0.25321
0.69684,0.68569,-0.21032,-1.0099,0.57158,0.18831
0.67784,0.71676,-0.16369,-0.69018,0.77406,0.21703
0.6504,0.75002,-0.12018,-0.05525,1.42588,-0.71882
0.60777,0.78517,-0.11888,0.17479,1.12566,-0.33794
0.54884,0.82642,-0.12569,-0.17038,0.8944,-0.04884
0.47994,0.8665,-0.13724,-1.15383,0.71329,0.40558
0.41044,0.90067,-0.14263,-1.00734,0.65838,0.32789
0.35212,0.92793,-0.12229,-0.05625,0.53571,0.01955
0.2969,0.94933,-0.10304,0.01766,-0.08909,0.22925
0.24654,0.9648,-0.09148,-0.17647,-0.36572,0.00351
0.20087,0.97637,-0.07965,-0.19944,-0.45713,-0.05414
0.15681,0.98508,-0.07097,-0.22641,-0.59103,-0.07268
0.12045,0.99039,-0.06793,-0.12265,-0.76175,-0.05267
0.09604,0.99307,-0.06771,-0.07596,-0.82709,-0.0666
0.08365,0.99404,-0.0699,-0.06011,-0.97919,-0.16417
0.08125,0.99365,-0.07786,0.15935,-1.02676,-0.18644
0.08722,0.99175,-0.09393,0.25474,-0.97983,-0.12629
0.10468,0.98737,-0.11896,0.28961,-0.76585,0.06221
0.13374,0.979,-0.15388,-0.00587,-0.53443,0.3168
0.16425,0.96657,-0.1969,-0.33969,-0.14204,0.81942
0.19897,0.95398,-0.22437,-1.6128,1.88126,2.57343
0.19728,0.95731,-0.21125,-2.21067,2.69875,1.42185
0.1715,0.96129,-0.21566,-0.85639,0.26059,0.69141
0.14062,0.96664,-0.21407,-0.10706,-0.5768,0.3265
0.14202,0.96651,-0.21376,0.51342,0.33098,-1.04915
0.19655,0.95364,-0.22791,0.41609,0.71096,-1.21137
0.21311,0.94407,-0.25162,-0.09652,0.89812,0.30447
0.19453,0.94632,-0.25814,-0.27669,-0.01082,0.82902
0.20274,0.94384,-0.2609,0.13072,0.13536,0.25488
0.23098,0.93275,-0.27681,0.02225,-0.23719,-0.24297
0.28185,0.91067,-0.30205,0.12256,-0.57431,-0.23539
0.34782,0.88121,-0.32013,-0.15887,-0.08457,-0.18727
0.39727,0.8568,-0.32873,-1.04611,0.77236,0.40588
0.42757,0.83773,-0.33971,-1.19417,0.58918,0.41897
0.45536,0.81839,-0.35056,-0.82958,-0.16931,0.0743
0.48189,0.80048,-0.35638,-0.26957,-0.33701,-0.23119
0.50731,0.7796,-0.36723,-0.28616,-0.26425,-0.02
0.53206,0.75768,-0.37794,-0.40108,-0.14445,0.54858
0.55918,0.73807,-0.3776,-0.53148,0.39162,0.3235
0.58152,0.72099,-0.37684,-0.66435,0.32273,0.25363
0.59912,0.70521,-0.37912,-0.97283,0.29152,0.28065
0.62139,0.69255,-0.36639,-1.01549,0.60598,0.46596
0.6518,0.68141,-0.33291,-0.9109,0.46881,0.54865
0.68045,0.67136,-0.2937,-0.8598,0.36077,0.54653
0.70531,0.66141,-0.25508,-1.26234,0.47558,0.11056
0.72454,0.65304,-0.22043,-1.3864,0.53132,0.03989
0.73605,0.64751,-0.19737,-1.61871,0.49581,0.15999
0.74114,0.64673,-0.18013,-1.52818,0.68446,0.38405
0.73908,0.65172,-0.17038,-1.49886,0.76202,0.41203
0.72858,0.66534,-0.16277,-1.29613,0.69402,0.41205
0.71477,0.68703,-0.13073,-0.7217,0.67884,0.25209
0.69546,0.7147,-0.0745,-0.50541,0.95742,-0.11498
0.66182,0.74761,-0.05547,0.13585,1.43481,-0.76518
0.62186,0.78131,-0.05335,0.04247,0.92591,-0.31031
0.57167,0.81894,-0.05032,-0.70262,0.63623,0.11421
0.5156,0.85529,-0.05137,-1.10505,0.70454,0.294
0.45709,0.88798,-0.05061,-0.72464,0.67741,0.09061
0.40501,0.91391,-0.02699,-0.27031,0.13168,-0.02973
0.35658,0.93417,-0.01347,-0.21471,-0.06921,0.16084
0.31347,0.94956,-0.0087,-0.29586,-0.2845,-0.02398
0.2736,0.96181,-0.0074,-0.30673,-0.53944,-0.20261
0.23763,0.97132,-0.00845,-0.2641,-0.60911,-0.21599
0.20935,0.97778,-0.01073,-0.23091,-0.72719,-0.21923
0.19217,0.98126,-0.01381,-0.18388,-0.83344,-0.19663
0.18455,0.98261,-0.02053,-0.03701,-0.90163,-0.21259
0.18318,0.98248,-0.03426,0.088,-0.93449,-0.20386
0.18658,0.98099,-0.05338,0.21882,-0.78244,-0.1083
0.19529,0.97758,-0.07868,0.14707,-0.66431,0.12949
0.2129,0.97046,-0.11352,-0.09367,-0.43286,0.39907
0.2348,0.95972,-0.15432,-0.63869,0.76144,1.44718
0.26205,0.94874,-0.17671,-1.40329,1.97077,2.39562
0.25453,0.95297,-0.16454,-1.57018,0.79507,0.9933
0.23779,0.95678,-0.16742,-0.71902,-0.24821,0.46417
0.21928,0.96092,-0.16895,-0.40584,-0.51318,0.24984
0.21469,0.96128,-0.17274,0.03817,-0.40588,0.17826
0.24648,0.95103,-0.18651,-0.17992,0.74024,-1.2128
0.27341,0.93801,-0.21303,-0.96967,1.30347,-0.57782
0.25501,0.93909,-0.23041,-0.4094,-0.00848,1.00978
0.23857,0.9471,-0.21469,0.46787,-0.10542,1.07431
0.23534,0.94564,-0.22446,0.8415,-0.38559,-0.28639
0.26218,0.93028,-0.25659,0.5861,-1.01913,-0.30915
0.39524,0.84548,-0.3591,0.30804,-0.64699,-0.34879
0.47136,0.80373,-0.3631,-0.47025,0.49913,-0.3947
0.51699,0.77776,-0.35751,-1.8164,1.43487,0.63978
0.54232,0.75767,-0.36307,-1.85542,0.26899,0.55345
0.57642,0.73745,-0.35201,-0.76155,-0.38949,-0.13555
0.60872,0.71506,-0.34373,-0.38201,-0.40603,-0.19755
0.637,0.68778,-0.34812,-0.47489,-0.32137,0.08422
0.65944,0.66624,-0.34823,-0.6799,-0.05051,0.59033
0.68048,0.64957,-0.33913,-0.82141,0.73733,0.2804
0.69199,0.63484,-0.34369,-0.96523,0.71994,0.12989
0.70321,0.61942,-0.34902,-1.17163,0.39992,0.13171
0.72478,0.60601,-0.32779,-0.79869,0.48527,0.64614
0.75112,0.59432,-0.28741,-0.71591,0.57362,0.70276
0.77461,0.58389,-0.24302,-0.80389,0.55271,0.39442
0.79535,0.57359,-0.19599,-1.34387,0.50252,-0.08266
0.80946,0.56516,-0.15928,-1.55537,0.57075,-0.07129
0.81591,0.56259,-0.13335,-1.97076,0.57605,0.13683
0.81803,0.56407,-0.11251,-1.83436,0.69852,0.18729
0.81309,0.57289,-0.10338,-1.63534,0.94129,0.50819
0.80177,0.59027,-0.09348,-1.48221,0.77253,0.64163
0.78589,0.61574,-0.05685,-1.00818,0.56017,0.36453
0.76473,0.64434,0.00434,-0.21314,1.08015,-0.5888
0.73214,0.68076,0.02303,0.00998,1.58976,-0.91925
0.69381,0.72004,0.01291,0.03412,1.54314,-0.3862
0.64663,0.76274,0.00981,-1.44398,0.71776,0.33803
0.58349,0.81212,0.0009,-1.44943,0.53647,0.41095
0.52111,0.85347,0.00593,-0.65189,0.74275,0.0446
0.46933,0.88273,0.02289,-0.34666,0.10032,0.06968
0.42855,0.90314,0.02618,-0.4107,-0.12964,0.04653
0.39435,0.91866,0.02342,-0.4751,-0.45595,-0.16408
0.3626,0.93181,0.01562,-0.4244,-0.61684,-0.20549
0.33358,0.94272,0.00298,-0.36086,-0.67111,-0.21688
0.31037,0.95055,-0.01159,-0.29903,-0.70674,-0.19663
0.2959,0.95477,-0.02938,-0.13284,-0.84451,-0.17119
0.28873,0.95587,-0.05428,-0.04945,-0.84706,-0.1485
0.28794,0.95395,-0.08404,0.06614,-0.94668,-0.14675
0.29491,0.9487,-0.114,0.14614,-0.63239,0.08002
0.31246,0.93837,-0.14776,0.08811,-0.55711,0.207
0.33996,0.9205,-0.19264,-0.31982,0.71137,1.4155
0.36981,0.89722,-0.24132,-1.18817,1.96777,2.61521
0.38871,0.89131,-0.2334,-2.67378,2.79137,2.72057
0.37614,0.90042,-0.21854,-1.59074,0.15349,0.43712
0.3595,0.90719,-0.21854,-0.68422,-0.69204,0.07309
0.34542,0.91189,-0.2217,-0.36207,-0.77759,0.01322
0.36898,0.89877,-0.23677,0.10203,0.48598,-0.77356
0.41847,0.87096,-0.25751,-0.44623,1.71931,-0.79566
0.42157,0.86389,-0.27564,-1.07233,2.10067,-0.08927
0.39423,0.87753,-0.27299,-0.23116,0.00875,1.18689
0.38114,0.88255,-0.27541,0.70009,-0.37576,0.17145
0.39326,0.86989,-0.29772,0.68097,-0.59744,-0.13136
0.58733,0.67874,-0.44086,0.20208,-0.67329,-0.16354
0.65991,0.6228,-0.42029,-0.05293,-0.30169,-0.21785
0.70764,0.58862,-0.39087,-1.25807,1.26106,-0.04508
0.73285,0.56671,-0.37653,-1.92318,0.50626,0.40688
0.76018,0.54929,-0.34699,-1.32313,-0.04645,0.01255
0.78744,0.52972,-0.31518,-0.55673,-0.20109,-0.32784
0.811,0.50448,-0.29626,-0.53488,-0.07542,0.1378
0.8287,0.48179,-0.28484,-0.67678,0.03726,0.22684
0.84562,0.45844,-0.27343,-0.91546,0.45018,0.10177
0.85806,0.43845,-0.26739,-1.21091,0.6962,0.11826
0.87119,0.42115,-0.25232,-1.28047,0.66152,0.18544
0.89019,0.40089,-0.21644,-1.10871,0.73847,0.33598
0.90919,0.3806,-0.16889,-0.97517,0.77848,0.36303
0.92454,0.36055,-0.12343,-1.31998,0.79903,0.1498
0.9366,0.34277,-0.07272,-1.46712,0.82679,-0.00694
0.9437,0.32943,-0.03018,-1.74721,0.90695,0.03564
0.94632,0.32321,0.00339,-1.87828,0.88865,0.05684
0.94637,0.32208,0.02526,-1.84158,1.00304,0.07584
0.94447,0.32718,0.03044,-1.7512,1.20901,0.11258
0.93924,0.34182,0.03132,-1.29723,0.99872,0.2026
0.92863,0.36666,0.05663,-1.12985,0.96532,0.33392
0.91114,0.40059,0.09673,-0.57575,1.21852,-0.18435
0.89199,0.44246,0.09266,0.06057,1.41487,-0.58189
0.871,0.48418,0.08327,-0.28954,1.18037,-0.34276
0.8441,0.53132,0.07209,-1.12132,0.9488,0.0714
0.80958,0.584,0.05929,-1.36308,0.88309,0.07518
0.77122,0.63449,0.05144,-1.10078,0.82982,-0.00924
0.73245,0.67809,0.06094,-0.74272,0.59631,-0.14029
0.69671,0.71557,0.05054,-0.71249,0.04616,0.0179
0.66494,0.74598,0.03694,-0.65374,-0.09495,-0.08247
0.63462,0.77257,0.01996,-0.55727,-0.35231,-0.2802
0.60549,0.79585,-0.0011,-0.74018,-0.43115,-0.13072
0.58215,0.81268,-0.02563,-0.70348,-0.4603,-0.13447
0.56489,0.82346,-0.05302,-0.60196,-0.61182,-0.19978
0.55297,0.82879,-0.08558,-0.3712,-0.69366,-0.12725
0.54419,0.83005,-0.12192,-0.22097,-0.69793,-0.08267
0.54004,0.8269,-0.15684,-0.26329,-0.51644,0.15952
0.5449,0.81724,-0.18759,-0.29236,-0.44826,0.32302
0.56231,0.79761,-0.21823,-0.53147,-0.08321,0.64193
0.58341,0.77027,-0.25751,-1.18706,1.50693,2.07551
0.6114,0.73583,-0.2911,-2.27468,2.6887,2.59289
0.61575,0.73962,-0.27168,-2.58561,2.64821,1.85905
0.60476,0.75353,-0.25781,-1.11225,0.16489,0.61646
0.58808,0.76983,-0.24802,-0.54911,-0.50081,0.31911
0.58463,0.77376,-0.24394,-0.4164,-0.4205,0.23646
0.6189,0.7495,-0.23498,-0.39853,0.65898,-1.36968
0.64934,0.71946,-0.24645,-0.93092,1.40156,-0.76393
0.64187,0.71887,-0.26687,-1.51402,1.38548,0.02397
0.62806,0.73093,-0.26701,0.14677,0.22833,0.16842
0.63024,0.72157,-0.28657,0.1604,0.0081,-0.52861
0.65847,0.68857,-0.30378,0.084,-0.62677,-0.39238
0.71212,0.63673,-0.29575,-0.42666,0.10084,-0.12773
0.75968,0.59502,-0.26238,-0.8718,0.67448,-0.13746
0.78282,0.57396,-0.24034,-1.52643,1.39044,0.37
0.79887,0.56055,-0.21814,-1.25003,0.05291,0.07265
0.81567,0.54707,-0.18816,-0.88686,-0.10554,-0.22717
0.83293,0.52622,-0.17122,-0.67244,-0.14916,-0.34099
0.85337,0.49661,-0.15858,-0.69869,0.02056,-0.06033
0.8707,0.47185,-0.1387,-0.83837,0.43901,0.02246
0.88566,0.44843,-0.12053,-0.89493,0.67338,-0.04909
0.89672,0.42755,-0.11444,-1.16375,0.82038,-0.0021
0.90715,0.40585,-0.1112,-1.37247,0.5774,0.15821
0.91829,0.38514,-0.09171,-1.30447,0.62563,0.17727
0.92862,0.36633,-0.05882,-1.11194,0.75711,0.32423
0.93673,0.3492,-0.02439,-1.32867,0.77252,0.0929
0.94316,0.33222,0.00882,-1.43094,0.77086,0.02412
0.94719,0.31766,0.04382,-1.60401,0.88742,-0.099
0.9486,0.30747,0.07505,-1.76207,1.11633,0.05668
0.94732,0.30515,0.09725,-1.6987,1.09717,0.05632
0.94366,0.31451,0.10289,-1.69127,1.13692,-0.00409
0.93733,0.33267,0.10362,-1.25153,0.8764,-0.00275
0.92407,0.35793,0.13409,-0.95369,0.82069,0.0014
0.90753,0.38998,0.15591,-0.33947,1.15191,-0.50612
0.88948,0.43607,0.1366,-0.13005,1.56052,-0.22963
0.86704,0.48259,0.1239,-0.56109,1.30364,-0.11142
0.8369,0.53576,0.1121,-1.18188,1.07649,0.07018
0.79806,0.59152,0.11486,-0.98103,1.00355,-0.162
0.75636,0.63853,0.14214,-0.87974,0.87151,-0.22426
0.71971,0.67707,0.15362,-0.81092,0.36256,-0.07359
0.69154,0.70693,0.14838,-0.82986,-0.04659,-0.19695
0.66732,0.73155,0.13967,-0.68243,-0.2899,-0.28214
0.64565,0.75362,0.12328,-0.62015,-0.49541,-0.25808
0.62686,0.77269,0.09997,-0.60052,-0.5652,-0.23514
0.61388,0.78602,0.07288,-0.53297,-0.64972,-0.26355
0.60772,0.79308,0.04122,-0.40937,-0.74744,-0.25407
0.60703,0.79467,0.00479,-0.35712,-0.75801,-0.18364
0.61014,0.79169,-0.03084,-0.37053,-0.70664,-0.06181
0.61918,0.78288,-0.06088,-0.56631,-0.34889,0.30504
0.63937,0.76424,-0.0845,-0.66375,-0.13729,0.46986
0.66427,0.73878,-0.11379,-1.08419,0.40946,0.78698
0.68603,0.71079,-0.15538,-2.85447,2.80071,1.99581
0.68821,0.70934,-0.15234,-2.47332,2.42732,1.46108
0.66945,0.72978,-0.13878,-1.7914,1.22577,1.05702
0.6464,0.74948,-0.14302,-0.56403,-0.31208,0.3561
0.63668,0.75713,-0.14627,-0.07157,0.08111,-0.02153
0.66567,0.73374,-0.13608,-0.04555,0.6573,-0.69285
0.69273,0.71115,-0.11998,-1.23489,0.87982,0.1765
0.68395,0.71837,-0.12713,-1.42856,0.54758,0.18484
0.67932,0.72216,-0.13043,-0.59303,0.02386,0.69734
0.68827,0.71148,-0.14173,-0.44437,-0.38677,-0.50981
0.71283,0.68274,-0.16046,-0.50749,-0.45647,-0.48741
0.75324,0.63833,-0.15862,-0.52522,-0.30911,-0.40481
0.79156,0.59655,-0.13253,-0.70213,0.44824,-0.22344
0.81525,0.57001,-0.10226,-1.2246,1.27855,0.30208
0.82712,0.55552,-0.0853,-1.3685,0.81271,0.39838
0.83885,0.54072,-0.06283,-1.08937,0.07626,0.19166
0.85336,0.51981,-0.03963,-0.72309,-0.07783,-0.46012
0.86961,0.49301,-0.02686,-0.81196,-0.0226,-0.49769
0.88393,0.46748,-0.01142,-0.9345,0.12109,-0.35087
0.89343,0.4491,0.00939,-1.04176,0.44653,-0.02641
0.90322,0.42859,0.02226,-1.03834,0.73332,-0.04048
0.91362,0.40632,0.01419,-1.17955,0.74641,0.01372
0.92332,0.38397,0.00722,-1.19703,0.65039,0.06059
0.93174,0.36247,0.02207,-1.14266,0.73371,0.11444
0.93809,0.34175,0.05647,-1.01539,0.87752,0.20665
0.94194,0.32261,0.09316,-1.39744,1.04188,0.02703
0.9437,0.30693,0.12337,-1.56742,1.06928,-0.08046
0.94316,0.29645,0.15022,-1.83707,0.99641,-0.17341
0.94012,0.29085,0.17772,-1.84327,1.06856,-0.0531
0.93666,0.29248,0.19269,-1.79865,1.27746,-0.18097
0.93294,0.30369,0.19338,-1.61128,1.33861,-0.09562
0.92203,0.32274,0.2138,-1.07142,0.88097,-0.0778
0.90415,0.34883,0.24666,-0.82044,1.00101,-0.30886
0.89218,0.38831,0.23074,-0.1313,1.58282,-0.90652
0.88029,0.4303,0.19984,-0.74778,1.15736,-0.39663
0.86096,0.4813,0.16461,-1.40433,1.01919,0.10755
0.82982,0.541,0.13677,-1.02996,1.04646,-0.21351
0.7943,0.59317,0.13129,-0.82863,0.91737,-0.29043
0.75962,0.63468,0.14198,-0.69869,0.39898,-0.16185
0.73236,0.66838,0.13009,-0.75137,0.02922,-0.25222
0.70878,0.69639,0.11259,-0.71932,-0.08721,-0.22291
0.68627,0.7213,0.09355,-0.67637,-0.24826,-0.23262
0.66551,0.74283,0.07282,-0.61322,-0.47882,-0.21497
0.64943,0.75876,0.0503,-0.57762,-0.52513,-0.19025
0.63843,0.76927,0.02508,-0.4826,-0.62387,-0.20355
0.63231,0.7747,-0.00514,-0.32232,-0.71656,-0.19273
0.63039,0.77549,-0.0351,-0.26759,-0.71627,-0.12559
0.63428,0.77073,-0.06055,-0.29143,-0.54861,0.05536
0.647,0.75825,-0.08027,-0.54843,-0.23848,0.47337
0.66886,0.73671,-0.09946,-0.76371,-0.01109,0.60384
0.69448,0.70705,-0.13336,-1.12719,0.83069,1.54711
0.71522,0.6792,-0.16478,-3.07176,2.67816,2.21739
0.70902,0.68956,-0.14761,-2.02546,1.25746,0.81384
0.69519,0.70375,-0.14648,-1.48282,0.50335,0.52007
0.6801,0.71763,-0.14991,-0.65813,-0.27355,0.12939
0.68477,0.71404,-0.14574,-0.4097,0.22695,-0.71277
0.71459,0.68564,-0.13873,-0.37963,0.74893,-0.84192
0.72405,0.67498,-0.14197,-1.44318,0.72833,0.18351
0.70881,0.68522,-0.16752,-0.43024,0.02826,0.92587
0.70253,0.68717,-0.18508,-0.01704,-0.02662,0.20176
0.71794,0.6642,-0.20832,-0.10847,-0.09902,-0.51179
0.75789,0.61725,-0.21118,-0.17588,-0.13173,-0.15761
0.79698,0.5734,-0.18981,-0.35217,0.15301,-0.17114
0.82359,0.54324,-0.16309,-0.99857,0.85619,-0.07591
0.83588,0.52983,-0.14345,-1.61217,0.69717,0.28714
0.84816,0.5181,-0.11046,-1.46931,0.31527,0.15427
0.86182,0.50164,-0.07498,-0.98882,0.03646,-0.29973
0.87644,0.47784,-0.05933,-0.83843,0.01541,-0.40616
0.89137,0.45077,-0.04753,-0.93971,0.04276,-0.29909
0.90385,0.42684,-0.02946,-0.9851,0.27525,-0.088
0.91401,0.40554,-0.01082,-0.98677,0.8957,0.00632
0.92343,0.3837,-0.00705,-1.06462,0.85786,0.00193
0.93273,0.36009,-0.01865,-1.2315,0.56232,-0.04989
0.94103,0.33799,-0.01488,-1.17736,0.83363,0.16362
0.94797,0.3178,0.01897,-1.09743,0.95125,0.29712
0.95228,0.29942,0.0593,-1.02589,0.85857,0.27305
0.95499,0.28235,0.09093,-1.5561,1.05833,-0.07054
0.95479,0.26882,0.12695,-1.68865,1.10588,-0.22874
0.95274,0.25908,0.15865,-1.88464,1.02525,-0.18622
0.9489,0.25687,0.18334,-1.87442,1.15629,-0.10216
0.94598,0.26592,0.1855,-1.84541,1.25715,-0.19473
0.94133,0.2834,0.18325,-1.57243,1.07684,-0.02856
0.9283,0.30861,0.2074,-0.79706,1.04886,-0.2838
0.91361,0.34684,0.21217,-0.44088,1.2999,-0.64033
0.90161,0.39156,0.18376,0.05888,1.74299,-0.69912
0.88662,0.43521,0.15652,-1.15443,1.08698,-0.00677
0.86208,0.49059,0.12699,-1.42118,1.008,0.17524
0.83005,0.54683,0.10954,-1.36635,0.99097,-0.03077
0.79577,0.59425,0.11667,-0.80989,0.78818,-0.26647
0.76439,0.63401,0.1172,-0.66864,0.30984,-0.07705
0.73808,0.66722,0.10023,-0.72658,-0.05695,-0.26013
0.71427,0.69574,0.07595,-0.69379,-0.19299,-0.24137
0.69101,0.72128,0.04761,-0.64815,-0.3556,-0.26353
0.67029,0.74188,0.01832,-0.6049,-0.47312,-0.20844
0.65468,0.75583,-0.01065,-0.57053,-0.52876,-0.20538
0.64255,0.76492,-0.04502,-0.50336,-0.60621,-0.15728
0.63382,0.76892,-0.08384,-0.30288,-0.70245,-0.10755
0.63004,0.76756,-0.11793,-0.23307,-0.64681,-0.01724
0.63526,0.75882,-0.14365,-0.29197,-0.49712,0.20168
0.6526,0.73967,-0.16431,-0.67118,-0.0933,0.5609
0.67616,0.71135,-0.19181,-0.79902,0.20712,0.73654
0.70411,0.67086,-0.23274,-1.55566,2.47641,2.56878
0.70325,0.67313,-0.22877,-2.61109,2.49687,1.74557
0.69097,0.68995,-0.21571,-1.56995,0.36437,0.67294
0.67833,0.70352,-0.21197,-1.12672,-0.13719,0.38444
0.67378,0.71003,-0.20465,-0.66174,-0.48579,-0.20502
0.699,0.68899,-0.19154,-0.35986,0.2498,-1.04769
0.73186,0.65538,-0.18669,-0.47892,1.19078,-0.96187
0.73203,0.64961,-0.20525,-1.6274,1.94345,0.26352
0.71165,0.66419,-0.22891,-1.05395,0.66813,1.14373
0.70782,0.66082,-0.24962,-0.45736,0.24578,0.31388
0.72429,0.63674,-0.26451,0.11788,-0.52594,-0.17864
0.76882,0.58817,-0.25094,-0.05544,-0.15664,-0.19034
0.79507,0.55768,-0.23846,-0.41227,0.25714,-0.28987
0.81638,0.53296,-0.22245,-1.22499,0.95679,0.23186
0.83195,0.51622,-0.20341,-1.63751,0.67278,0.30775
0.849,0.50048,-0.16948,-1.32907,0.28312,-0.07041
0.86513,0.47994,-0.14564,-0.77471,0.02656,-0.43065
0.8817,0.45408,-0.12813,-0.75615,0.0392,-0.04747
0.89693,0.42986,-0.1036,-0.78307,0.09375,0.05073
0.91188,0.40437,-0.07046,-0.78987,0.47173,0.09543
0.92353,0.38143,-0.04016,-1.15959,0.74023,-0.18854
0.93372,0.35666,-0.03101,-1.35195,0.72396,-0.23466
0.94224,0.33367,-0.02905,-1.61836,0.65517,-0.05503
0.95068,0.31014,0.00343,-1.35199,0.83613,0.26339
0.95606,0.28877,0.05063,-1.17197,0.97551,0.30534
0.95951,0.26866,0.08465,-1.16605,1.05957,0.06707
0.96157,0.25086,0.1116,-1.7643,1.04453,-0.21899
0.96193,0.23959,0.13147,-1.90593,1.11571,-0.21169
0.96103,0.23314,0.14856,-2.0444,1.02288,0.00276
0.96104,0.23419,0.14683,-1.73458,1.28696,-0.0946
0.96004,0.24705,0.13153,-1.6315,1.23507,-0.04112
0.95289,0.26981,0.13855,-0.81219,1.0507,-0.33308
0.94073,0.30346,0.15147,-0.46534,1.35775,-0.70714
0.92827,0.35325,0.11635,0.03379,1.88632,-0.71686
0.91143,0.40353,0.08032,-1.11491,1.24713,0.07797
0.88521,0.46312,0.04379,-1.34383,1.11978,0.24619
0.84893,0.5283,0.01485,-1.20437,1.08811,0.01075
0.81028,0.58579,0.0172,-0.72243,0.70688,0.00413
0.77286,0.63394,0.02845,-0.60755,0.40676,0.0919
0.74074,0.67151,0.0195,-0.75842,0.1063,-0.18315
0.71233,0.70184,0.00176,-0.79612,-0.30257,-0.18594
0.68396,0.72919,-0.02196,-0.7418,-0.39664,-0.17796
0.6579,0.75157,-0.04808,-0.67383,-0.49739,-0.15032
0.63743,0.7669,-0.07441,-0.54606,-0.62834,-0.15734
0.62139,0.77623,-0.10655,-0.47258,-0.70097,-0.10982
0.60876,0.77997,-0.14508,-0.34532,-0.74775,-0.06425
0.6013,0.77843,-0.18024,-0.20716,-0.5783,0.0915
0.60377,0.7705,-0.20441,-0.26762,-0.47352,0.21785
0.62159,0.75202,-0.21929,-0.45745,-0.24602,0.44617
0.65042,0.72212,-0.23557,-1.09575,0.72371,1.01326
0.67538,0.68524,-0.27261,-1.55619,1.54583,1.74303
0.67408,0.67868,-0.29157,-2.28361,2.2321,2.42346
0.66678,0.69042,-0.28056,-1.52076,0.8256,1.18211
0.65701,0.69975,-0.28053,-0.95196,-0.02079,0.53528
0.65115,0.70437,-0.28261,-0.79548,-0.27925,0.2421
0.67031,0.69029,-0.27235,-0.37479,0.73469,-1.05767
0.70526,0.66077,-0.25689,-0.69089,1.46351,-0.81329
0.70954,0.65627,-0.25662,-1.15284,1.27304,-0.26051
0.69523,0.66841,-0.26435,-0.287,0.36534,1.22465
0.69112,0.66496,-0.28316,-0.01984,0.00698,-0.36274
0.70473,0.63839,-0.30954,-0.25568,-0.3353,-0.19107
0.74639,0.59115,-0.30569,-0.23093,-0.38232,0.04872
0.79575,0.54504,-0.26403,-0.72189,0.54652,-0.19422
0.82579,0.51654,-0.2264,-1.09537,0.89289,-0.13998
0.84139,0.50119,-0.20216,-1.77295,1.15162,0.34939
0.85721,0.48601,-0.17029,-1.31642,0.07746,-0.06935
0.87142,0.4684,-0.14571,-1.0096,-0.02941,-0.34148
0.88538,0.44462,-0.13572,-0.89296,-0.0682,-0.24658
0.89905,0.42032,-0.12267,-0.94551,0.1355,-0.15498
0.91148,0.39675,-0.10865,-0.95684,0.33316,-0.14408
0.92415,0.36901,-0.09892,-0.91283,0.80604,-0.01736
0.93583,0.33781,-0.10056,-0.98046,0.74134,0.24155
0.94695,0.30399,-0.10427,-1.0333,0.63895,0.21558
0.95693,0.27524,-0.09236,-1.11028,0.67973,0.18709
0.96603,0.25148,-0.05955,-1.1128,1.06871,0.24499
0.97298,0.23018,-0.01801,-1.22652,1.0983,0.15407
0.97723,0.21131,0.01933,-1.84344,1.08815,-0.03425
0.97899,0.1943,0.06185,-1.88172,1.10019,-0.19963
0.97866,0.18267,0.09409,-1.97256,1.16295,-0.24272
0.97747,0.18489,0.10186,-2.07303,1.42166,-0.28815
0.97525,0.20401,0.08525,-1.89136,1.26029,-0.18482
0.96937,0.23408,0.07433,-1.41768,0.98432,0.14371
0.95753,0.27566,0.0845,-0.45064,1.24462,-0.31468
0.94233,0.32883,0.06225,-0.14985,1.60186,-0.70387
0.92414,0.38204,0.00195,0.03376,1.82993,-0.85233
0.90013,0.43289,-0.0487,-1.39543,1.08402,0.38925
0.8632,0.49673,-0.09029,-1.62034,1.04156,0.33028
0.81985,0.56092,-0.11496,-1.21615,1.00834,-0.13782
0.78353,0.61226,-0.1059,-0.3793,0.42317,0.00302
0.75082,0.65136,-0.10956,-0.30972,0.26683,-0.01453
0.71941,0.68244,-0.12932,-0.62018,-0.06849,-0.02879
0.68882,0.70901,-0.15113,-0.70502,-0.35055,0.06397
0.65917,0.73171,-0.17351,-0.60406,-0.43933,0.10045
0.63331,0.74888,-0.19517,-0.47369,-0.54355,0.07389
0.6122,0.75898,-0.22173,-0.4561,-0.65253,0.04398
0.59491,0.76296,-0.25293,-0.42047,-0.70647,0.08865
0.58365,0.76104,-0.28314,-0.33368,-0.70249,0.14941
0.58191,0.7529,-0.30744,-0.30676,-0.39173,0.31087
0.59289,0.7375,-0.32338,-0.36436,-0.29579,0.42935
0.61234,0.71659,-0.33398,-0.66994,0.00622,0.75359
0.633,0.69364,-0.34376,-1.05979,0.72807,1.51198
0.64472,0.67815,-0.35277,-2.37144,2.38824,2.36797
0.64286,0.68631,-0.34017,-2.12805,1.33658,1.29636
0.6401,0.69517,-0.32712,-0.91801,-0.11772,0.43222
0.63213,0.70488,-0.32182,-0.66806,-0.25041,0.18986
0.63865,0.69657,-0.32697,-0.61514,-0.05657,-0.1163
0.67129,0.65933,-0.33862,-0.88813,1.27303,-1.08511
0.68666,0.63444,-0.35494,-1.26065,1.66074,-0.59674
0.67465,0.64116,-0.36572,-1.47331,1.16499,0.58648
0.66382,0.64403,-0.38022,0.15707,0.40103,1.24675
0.66468,0.6257,-0.4083,0.26844,-0.58711,-0.00054
0.70759,0.57857,-0.40568,0.18717,-0.6785,0.02701
0.80886,0.46621,-0.35832,-0.02171,-0.26681,-0.0844
0.84745,0.43088,-0.31012,-1.10671,1.09855,-0.38609
0.87602,0.40384,-0.26365,-1.39802,1.47687,-0.14052
0.89863,0.38459,-0.2111,-1.92759,1.16987,0.42358
0.91889,0.36227,-0.15623,-1.16498,0.10419,-0.48422
0.93339,0.33167,-0.13702,-0.9097,0.02293,-0.67086
0.94701,0.29636,-0.12385,-1.05114,0.04402,-0.55959
0.95642,0.27184,-0.10662,-1.18997,0.30601,0.03594
0.96377,0.24885,-0.09603,-1.16926,0.62829,0.06427
0.96765,0.22917,-0.10553,-1.27751,0.88801,0.28657
0.97311,0.20837,-0.09813,-1.24103,0.78236,0.34354
0.98001,0.1886,-0.06328,-1.00739,0.80792,0.34076
0.98521,0.17024,-0.01934,-1.26514,1.16312,0.13406
0.98772,0.15378,0.02743,-1.48649,1.20935,0.01556
0.98725,0.13963,0.07643,-1.77238,1.23512,-0.13278
0.98434,0.13012,0.11892,-1.85833,1.21995,-0.09181
0.9807,0.13064,0.14549,-1.94568,1.07241,-0.05155
0.97916,0.144,0.14317,-1.84003,1.16346,0.02805
0.97706,0.16381,0.13608,-1.44522,0.93101,0.34978
0.96996,0.18603,0.15673,-1.13105,1.01659,0.19187
0.9617,0.20988,0.17629,-0.6615,1.60262,-0.99971
0.9593,0.24996,0.13139,-0.23924,2.13348,-1.19673
0.95161,0.29544,0.08461,-0.68375,1.74522,-0.33725
0.93194,0.35958,0.04675,-1.20068,1.46421,-0.16268
0.90407,0.42716,0.01407,-1.35435,1.09257,0.07159
0.87445,0.48509,0.00517,-0.62045,1.20148,-0.17698
0.84565,0.5337,0.00598,-0.45169,0.96488,-0.16026
0.81954,0.57296,-0.00782,-0.67053,0.21364,0.02155
0.79512,0.60606,-0.02202,-0.82477,-0.07949,-0.03614
0.77095,0.63589,-0.03572,-0.80779,-0.21449,-0.05963
0.74882,0.66042,-0.05582,-0.68034,-0.46473,-0.11462
0.73051,0.67781,-0.08318,-0.67079,-0.60797,-0.0933
0.71711,0.68702,-0.11731,-0.65796,-0.66816,-0.06238
0.70805,0.68894,-0.15499,-0.50252,-0.78101,0.00166
0.7034,0.68452,-0.19145,-0.43912,-0.63493,0.11891
0.70604,0.6726,-0.22161,-0.46788,-0.52583,0.22558
0.71984,0.6507,-0.2417,-0.55037,-0.29556,0.54471
0.73901,0.62199,-0.25883,-1.10077,0.69921,1.14786
0.75731,0.58838,-0.28335,-1.57005,1.71191,1.77166
0.76268,0.58616,-0.27338,-2.95575,3.19188,1.6489
0.7508,0.60881,-0.25622,-1.21545,0.34465,0.67591
0.73145,0.6345,-0.2498,-0.87499,-0.14943,0.49975
0.7241,0.64589,-0.24188,-0.62322,-0.31468,0.24846
0.75633,0.6177,-0.21545,-0.40608,1.35331,-1.20802
0.7841,0.58536,-0.20624,-0.71606,1.66215,-0.92209
0.77889,0.58528,-0.22534,-1.65001,1.20004,0.39465
0.77489,0.58692,-0.23467,0.04065,0.09667,0.56481
0.7816,0.56751,-0.25888,0.07515,-0.05876,-0.10402
0.81417,0.51785,-0.26259,-0.26031,-0.36086,-0.19087
0.8611,0.45839,-0.21995,-0.46326,0.13645,-0.30895
0.8936,0.41592,-0.16879,-0.76074,0.56325,-0.41939
0.90785,0.39553,-0.13916,-1.54547,1.2436,-0.16841
0.91771,0.38211,-0.10863,-1.75056,0.57056,0.30138
0.9293,0.36275,-0.06932,-1.39233,0.27864,0.03245
0.94001,0.33729,-0.05125,-0.86186,0.078,-0.35423
0.95061,0.30783,-0.03974,-0.91815,0.16019,-0.27578
0.95911,0.28215,-0.02218,-1.01626,0.4048,-0.12459
0.96669,0.25594,-0.00264,-1.13182,1.08395,-0.01512
0.97321,0.22987,0.00429,-1.25692,1.09053,0.05673
0.97891,0.2043,-0.0023,-1.43362,0.79181,0.18678
0.98374,0.17948,0.0061,-1.26772,0.86082,0.2782
0.9871,0.15643,0.03413,-1.23179,0.94452,0.21893
0.98849,0.13527,0.06771,-1.33549,1.17678,0.14525
0.9878,0.11606,0.10381,-1.53506,1.32393,-0.03368
0.98483,0.10087,0.14121,-1.6041,1.23345,-0.2195
0.98317,0.09296,0.15727,-1.94119,1.11166,-0.0774
0.98372,0.09906,0.14992,-2.06989,1.09991,0.01933
0.98436,0.11487,0.13353,-1.88366,1.14552,0.23509
0.97986,0.13752,0.14478,-1.17769,1.10952,0.16667
0.97535,0.164,0.1476,-0.50348,1.94753,-1.30779
0.97362,0.2115,0.08563,-0.31969,2.15222,-1.13496
0.96418,0.26412,0.02439,-0.30265,2.10087,-0.5902
0.94397,0.32968,-0.01521,-1.45036,1.34132,0.157
0.91588,0.39927,-0.04184,-1.24727,1.24322,0.20111
0.88536,0.46182,-0.05346,-0.85039,1.2703,0.08689
0.85503,0.51554,-0.05605,-0.52341,0.73695,-0.00066
0.82497,0.56041,-0.07332,-0.8365,0.12577,0.08921
0.79591,0.59896,-0.08815,-0.81997,-0.05015,0.04188
0.76667,0.63335,-0.10528,-0.74983,-0.28479,-0.04714
0.73939,0.66121,-0.12692,-0.67199,-0.5637,-0.03085
0.71621,0.68081,-0.15344,-0.64588,-0.64921,-0.00372
0.69718,0.69184,-0.18787,-0.58179,-0.66413,-0.04134
0.68168,0.69387,-0.23208,-0.43458,-0.63536,-0.04936
0.67174,0.68754,-0.27579,-0.42635,-0.63056,0.02237
0.67402,0.67266,-0.30532,-0.5246,-0.42372,0.26049
0.69505,0.64668,-0.31418,-0.56406,0.03008,0.71633
0.72949,0.60973,-0.30996,-0.62959,0.31379,0.7678
0.74814,0.58132,-0.31993,-0.93077,0.92379,1.20311
0.74464,0.57637,-0.33661,-1.59247,2.20079,2.36181
0.7473,0.58583,-0.31359,-2.30055,1.87262,1.49409
0.74631,0.59935,-0.28949,-1.6544,0.34509,0.7088
0.74003,0.61092,-0.28132,-1.23185,-0.49435,0.10452
0.7502,0.60293,-0.27144,-1.08371,-0.44454,-0.48625
0.77922,0.56327,-0.27483,-0.68973,0.42711,-1.13407
0.7959,0.53149,-0.28993,-1.3794,2.65618,0.43277
0.78387,0.54465,-0.29819,-1.37392,2.20633,0.77649
0.76426,0.55317,-0.33154,-0.02663,0.31956,0.91183
0.75962,0.53912,-0.36375,0.21523,-0.53751,0.08931
0.79914,0.49188,-0.3456,0.07478,-0.51583,0.04032
0.8444,0.4421,-0.30253,-0.4209,0.1782,-0.23635
0.88381,0.39988,-0.24286,-1.20374,1.09089,-0.4052
0.90534,0.37265,-0.2037,-1.65967,1.50125,-0.17173
0.92115,0.35343,-0.163,-2.08721,0.54157,0.32248
0.93643,0.32983,-0.11962,-1.60005,0.23674,-0.0819
0.94753,0.30269,-0.10278,-0.9809,-0.02599,-0.53847
0.95737,0.27333,-0.09348,-1.05432,0.18926,-0.01832
0.9653,0.24889,-0.079,-1.03346,0.37725,0.13428
0.97302,0.22271,-0.06025,-0.91501,1.02608,0.14238
0.97831,0.1974,-0.06272,-1.27109,0.89801,0.10273
0.98257,0.17033,-0.07449,-1.34664,0.73924,0.16382
0.98765,0.14606,-0.05673,-1.16781,0.83045,0.18452
0.99207,0.12507,-0.01265,-1.04848,1.17462,0.22335
0.99379,0.10614,0.03333,-1.1847,1.27466,0.18374
0.99284,0.09059,0.07785,-1.54834,1.21004,-0.02974
0.99061,0.07773,0.11246,-2.04884,1.15677,-0.12346
0.98817,0.0708,0.13601,-2.15282,1.21147,-0.04412
0.98605,0.07091,0.15059,-2.01944,1.34253,0.06886
0.98611,0.08101,0.14498,-1.43126,1.31563,0.1407
0.9847,0.1022,0.14117,-1.25533,1.17944,0.10622
0.97899,0.13216,0.15526,-0.85981,1.14022,-0.31397
0.97445,0.17686,0.13845,-0.31344,2.07381,-0.73744
0.96746,0.23175,0.10157,-0.40842,2.01695,-0.37252
0.95445,0.2916,0.06314,-1.18605,1.40746,-0.10186
0.93292,0.35908,0.02679,-1.30409,1.16617,0.05526
0.90497,0.42531,0.01192,-0.96887,1.20158,-0.08928
0.87734,0.47972,0.01243,-0.8676,0.9668,-0.09596
0.85138,0.52446,-0.00984,-0.74037,0.46918,0.05377
0.82593,0.56297,-0.03004,-0.74685,-0.04063,-0.10759
0.79879,0.59939,-0.05167,-0.72549,-0.14022,-0.10847
0.77136,0.63188,-0.07573,-0.68546,-0.29123,-0.1219
0.74652,0.65709,-0.10465,-0.64671,-0.42578,-0.10033
0.72711,0.67273,-0.13692,-0.63521,-0.51997,0.00375
0.71419,0.67792,-0.17421,-0.55756,-0.60256,0.03865
0.70796,0.67372,-0.21186,-0.48479,-0.72804,-0.00911
0.71051,0.66102,-0.24131,-0.42138,-0.67886,0.03848
0.72517,0.63643,-0.26284,-0.4534,-0.46324,0.25207
0.74814,0.59922,-0.28498,-0.96844,0.2156,0.92642
0.76356,0.56022,-0.32114,-1.39207,0.6191,1.30692
0.75672,0.54897,-0.35498,-2.19161,2.66919,2.83514
0.7522,0.56508,-0.33895,-1.41086,1.12798,0.9845
0.74535,0.58049,-0.32785,-0.90949,0.43558,0.59601
0.74599,0.59325,-0.3026,-0.62982,-0.11835,0.2666
0.77798,0.56939,-0.26559,-0.44831,0.99581,-1.29788
0.80047,0.53947,-0.26119,-0.61949,1.13801,-1.10406
0.79372,0.54096,-0.27814,-1.91741,0.53443,0.40957
0.79251,0.5482,-0.26723,-1.30862,0.25266,1.28362
0.80113,0.52953,-0.2789,-0.1933,0.27913,-0.59985
0.82102,0.48338,-0.30377,-0.45868,-0.20155,0.00981
0.86174,0.4219,-0.2818,-0.3336,0.1856,-0.00755
0.88694,0.39621,-0.23738,-0.71997,0.82845,-0.187
0.90469,0.37033,-0.21069,-1.67935,1.06354,0.49699
0.9172,0.35007,-0.19026,-1.69091,0.70698,0.37039
0.93204,0.32693,-0.15626,-1.17716,0.22639,-0.11652
0.94505,0.30082,-0.12799,-0.90581,0.15388,-0.27625
0.95652,0.27323,-0.1021,-0.92511,0.22362,-0.21574
0.96545,0.25032,-0.07243,-0.96597,0.36888,0.05914
0.97359,0.22459,-0.04103,-0.94399,1.05468,-0.02864
0.98031,0.19611,-0.02311,-1.10772,1.03118,-0.19862
0.98547,0.1669,-0.03153,-1.47441,0.76934,-0.13623
0.9896,0.14115,-0.02781,-1.46395,0.86282,0.22645
0.99291,0.11766,0.01657,-1.2572,0.99113,0.27051
0.99384,0.09621,0.05503,-1.13152,1.13789,0.22585
0.99405,0.07533,0.07872,-1.63545,1.24945,-0.13459
0.99276,0.05816,0.10514,-1.73986,1.25431,-0.21442
0.99016,0.04424,0.13278,-1.8947,1.26614,-0.00307
0.98712,0.0368,0.1557,-1.83537,1.26672,-0.13822
0.98785,0.0413,0.14984,-1.82633,1.28576,-0.12825
0.98907,0.05783,0.13561,-1.69215,1.24499,-0.04292
0.98569,0.08652,0.14465,-1.20411,1.2182,0.00936
0.9814,0.129,0.1422,-0.26402,2.03686,-0.82308
0.97826,0.18524,0.09325,-0.10886,2.06041,-0.70069
0.96964,0.24061,0.04359,-0.75529,1.5659,-0.23141
0.95163,0.307,-0.01268,-1.36503,1.30137,0.21888
0.92497,0.3762,-0.05386,-1.19302,1.20896,0.10095
0.89717,0.43741,-0.06132,-0.78708,1.15306,-0.06721
0.86833,0.49207,-0.06224,-0.71125,0.47516,0.18491
0.83996,0.53725,-0.07633,-0.753,0.30063,0.09563
0.81195,0.57543,-0.09805,-0.85018,-0.05008,-0.12775
0.78251,0.60948,-0.12735,-0.8023,-0.33325,-0.08007
0.75377,0.63713,-0.16093,-0.73015,-0.42082,-0.03002
0.72849,0.65585,-0.19788,-0.6693,-0.49223,0.00766
0.7069,0.66587,-0.23858,-0.48946,-0.61934,0.01789
0.6886,0.66789,-0.28241,-0.38843,-0.61178,0.05946
0.67652,0.66261,-0.32134,-0.25012,-0.59465,0.12345
0.67639,0.64898,-0.3483,-0.26598,-0.35284,0.43838
0.69349,0.62192,-0.3637,-0.38989,-0.24675,0.54591
0.71723,0.58242,-0.38258,-0.80246,0.18554,0.86192
0.73501,0.53392,-0.41795,-2.45964,3.04265,3.10556
0.74175,0.53751,-0.40111,-3.10999,3.45601,2.42507
0.74454,0.55448,-0.37177,-1.32826,0.39937,0.71976
0.73389,0.57422,-0.36288,-0.7653,-0.46805,0.47857
0.73241,0.5843,-0.34952,-0.67791,-0.58869,0.21773
0.76953,0.55233,-0.32054,-0.17053,0.52495,-1.2072
0.808,0.49726,-0.31602,-0.37329,2.09553,-0.30336
0.79534,0.48929,-0.35781,-1.56864,2.85258,0.76708
0.78502,0.50573,-0.35774,-0.97379,0.22956,0.7778
0.78819,0.49949,-0.35954,0.07967,-0.24716,-0.00701
0.80754,0.46294,-0.36548,0.15842,-0.3248,-0.07167
0.85807,0.38787,-0.33657,-0.39425,0.33305,-0.23885
0.89872,0.33386,-0.28432,-0.88835,0.82327,-0.30832
0.91759,0.30456,-0.25548,-1.73523,1.35555,0.41871
0.93284,0.28282,-0.22321,-1.59042,0.49411,-0.10048
0.94631,0.25876,-0.19374,-1.11674,0.27138,-0.40331
0.95726,0.22939,-0.17614,-0.84023,0.18197,-0.33957
0.96698,0.20144,-0.15609,-0.87412,0.27947,0.23307
0.9754,0.17912,-0.12853,-0.91901,0.43219,0.27856
0.98299,0.15274,-0.10202,-0.96353,0.9729,0.14381
0.98758,0.12425,-0.09617,-1.38884,1.06516,-0.18676
0.99016,0.09689,-0.10101,-1.53924,1.00273,-0.01197
0.99522,0.07033,-0.06779,-1.37769,0.9936,0.33587
0.9988,0.0465,-0.01523,-1.08099,1.08532,0.32884
0.99952,0.02668,0.01584,-1.42441,1.26658,0.16351
0.99881,0.01462,0.0466,-1.79358,1.32859,-0.13095
0.99731,0.00934,0.07265,-2.04639,1.30492,0.03399
0.99513,0.0095,0.09807,-1.87608,1.31865,0.11289
0.99493,0.0184,0.09886,-1.83482,1.33908,0.00933
0.99572,0.03949,0.08352,-1.59033,1.30476,-0.0681
0.99287,0.0702,0.09632,-0.84944,1.45304,-0.19382
0.98859,0.11385,0.09862,-0.51502,1.84367,-0.74808
0.9837,0.17139,0.05437,-0.4142,1.77581,-0.4076
0.97223,0.23402,0.00056,-1.36399,1.39627,0.27376
0.95096,0.30497,-0.05172,-1.52287,1.30959,0.38075
0.92443,0.37061,-0.08985,-1.21108,1.28132,0.08939
0.89949,0.4265,-0.09499,-0.66769,0.87569,-0.04941
0.87251,0.47745,-0.10378,-0.62503,0.58609,0.14406
0.84514,0.52028,-0.1227,-0.76487,0.30147,0.12131
0.81691,0.55699,-0.14972,-0.88652,-0.09831,-0.01926
0.78828,0.58784,-0.18182,-0.8099,-0.24366,0.00754
0.76214,0.61079,-0.21467,-0.66574,-0.44027,-0.0148
0.74039,0.6249,-0.24764,-0.58151,-0.69117,0.02137
0.72305,0.63041,-0.28245,-0.52746,-0.7476,0.05644
0.70971,0.62827,-0.31874,-0.41327,-0.77436,0.11235
0.70381,0.61824,-0.34989,-0.44033,-0.4882,0.2922
0.7129,0.59704,-0.36784,-0.53235,-0.21859,0.57643
0.73807,0.56253,-0.37259,-1.07529,0.53052,1.03131
0.75856,0.52222,-0.38971,-1.44289,1.18791,1.56432
0.75677,0.50034,-0.42065,-3.14856,3.41337,2.54111
0.75448,0.5207,-0.39955,-1.73957,1.40152,1.27105
0.7416,0.54049,-0.39738,-0.89402,-0.00017,0.74709
0.72334,0.5604,-0.40339,-0.70937,-0.32288,0.66206
0.73087,0.55626,-0.39548,-0.32447,-0.08317,-0.72131
0.77792,0.50881,-0.36872,-0.14137,0.96678,-0.98679
0.80969,0.46399,-0.35932,-0.79112,2.45315,0.6738
0.78779,0.477,-0.38969,-1.81376,1.3087,1.02526
0.78838,0.48318,-0.38079,-0.74556,0.14166,0.52069
0.7969,0.46714,-0.38304,-0.40343,-0.0157,0.0042
0.82721,0.41997,-0.37329,-0.17478,-0.3423,-0.04682
0.87286,0.355,-0.33479,-0.38493,0.12119,-0.11251
0.90233,0.30989,-0.29962,-1.08095,0.94418,-0.05246
0.91812,0.28403,-0.27639,-1.70054,1.25005,0.44666
0.93293,0.26474,-0.24402,-1.59561,0.80775,0.34908
0.94707,0.246,-0.20627,-0.9648,0.19449,-0.17744
0.95648,0.22135,-0.19012,-0.75655,0.25011,-0.25215
0.96405,0.19434,-0.18122,-0.87648,0.37333,-0.07642
0.97189,0.16985,-0.16305,-1.07676,0.53707,0.14562
0.9797,0.14192,-0.14157,-1.04438,0.92648,0.06167
0.98513,0.11145,-0.13076,-1.1036,0.97969,0.13262
0.98978,0.07957,-0.11831,-1.14553,0.96947,0.16953
0.99464,0.04936,-0.0909,-1.23734,1.15599,0.20745
0.99836,0.02258,-0.05253,-1.33914,1.17281,0.19253
0.99989,-9e-05,-0.01503,-1.44926,1.1722,0.12416
0.99974,-0.01798,0.01433,-1.71955,1.30851,0.07218
0.99859,-0.03049,0.04345,-1.82656,1.26564,0.07041
0.99673,-0.03731,0.07163,-1.75624,1.2379,0.06416
0.99632,-0.03382,0.07881,-1.79075,1.42498,0.08321
0.99754,-0.02006,0.06717,-1.62576,1.31179,0.09124
0.9975,0.00246,0.07057,-1.33097,1.22142,0.0635
0.99576,0.03603,0.08464,-0.8517,1.31218,-0.38235
0.99468,0.08785,0.05384,-0.29584,2.13167,-0.5246
0.98919,0.1463,0.00994,-0.57556,1.9822,-0.25383
0.97637,0.21219,-0.04092,-1.38801,1.48629,0.12323
0.95496,0.28332,-0.0882,-1.18827,1.2617,0.11223
0.93098,0.34737,-0.11233,-0.93699,1.23747,0.01972
0.9068,0.40468,-0.11814,-0.69444,0.81453,0.01415
0.88078,0.45329,-0.13691,-0.77541,0.27309,0.12811
0.85485,0.49469,-0.15657,-0.78878,0.11142,-0.01218
0.82429,0.53344,-0.18972,-0.55564,-0.70893,-0.43294
0.79291,0.56773,-0.22131,-0.84568,-0.09599,0.12081
0.76265,0.59315,-0.25794,-0.79694,-0.24168,0.21826
0.73798,0.60661,-0.29566,-0.61595,-0.36131,0.12176
0.7178,0.60947,-0.33661,-0.53161,-0.41646,0.12393
0.7041,0.60302,-0.37498,-0.38013,-0.47751,0.10276
0.70061,0.589,-0.40278,-0.33384,-0.40095,0.43454
0.71029,0.56497,-0.41988,-0.45664,-0.25491,0.59568
0.72654,0.53022,-0.43704,-0.8863,0.22969,0.92189
0.73696,0.48705,-0.4687,-2.83507,3.35656,3.25616
0.73483,0.48148,-0.4777,-2.97015,3.39497,2.36122
0.73481,0.49973,-0.45861,-2.20246,2.03257,1.59428
0.72835,0.5168,-0.44991,-0.90143,-0.11438,0.47588
0.71897,0.53343,-0.44557,-0.45885,-0.18619,0.36202
0.74274,0.51538,-0.42745,-0.32533,0.08958,0.10313
0.78508,0.47078,-0.40252,-0.73486,1.33321,-0.3019
0.79321,0.45023,-0.41001,-1.42425,1.51501,0.55987
0.77991,0.46281,-0.42137,-1.39372,0.80937,1.27392
0.78084,0.46038,-0.4223,-0.13025,0.10255,-0.249
0.79562,0.43125,-0.42546,-0.20199,-0.07911,-0.3059
0.83793,0.3688,-0.40231,-0.1564,-0.20965,-0.13755
0.82401,0.3831,-0.41742,-0.72164,0.82957,-0.05774
0.85479,0.34476,-0.38791,-1.16905,1.3084,0.11957
0.87431,0.31763,-0.367,-1.79973,1.55264,0.57657
0.89682,0.29096,-0.33325,-1.53125,0.46088,0.38871
0.91812,0.26321,-0.29627,-0.75375,0.09331,-0.3198
0.93253,0.23094,-0.27758,-0.7239,0.1387,-0.3198
0.94434,0.20128,-0.2602,-0.81795,0.28601,0.00329
0.95797,0.17655,-0.22611,-1.00103,0.82421,0.30212
0.96942,0.15034,-0.19396,-1.0076,1.06725,0.10116
0.97294,0.12374,-0.19512,-1.25151,1.01663,-0.03625
0.97539,0.1002,-0.19643,-1.4765,0.92574,0.27628
0.98441,0.079,-0.15713,-1.37537,0.99348,0.38616
0.99255,0.06122,-0.10537,-1.0651,1.07761,0.53397
0.99682,0.04324,-0.06696,-1.40559,1.19472,0.15762
0.99925,0.02712,-0.0278,-1.53579,1.2496,-0.01176
0.99988,0.01521,0.00229,-1.81633,1.33256,-0.11173
0.99967,0.01047,0.02324,-2.06126,1.2118,0.09671
0.99955,0.01403,0.02656,-2.01824,1.34322,0.10964
0.99954,0.02986,0.00586,-1.85575,1.58733,0.09582
0.9983,0.05819,-0.00323,-1.19438,1.11448,0.16101
0.99484,0.10032,0.01521,-0.99221,1.1223,-0.02153
0.98786,0.15532,-0.003,-0.43452,1.61809,-0.52434
0.97636,0.21027,-0.04997,-0.1843,2.09296,-0.40053
0.95721,0.27173,-0.09959,-1.09002,1.44997,-0.02335
0.92714,0.34488,-0.14655,-1.6945,1.16403,0.37385
0.89275,0.41541,-0.17444,-1.00348,1.18528,-0.02084
0.86211,0.47502,-0.17643,-0.81372,1.03221,-0.06565
0.82932,0.52514,-0.19092,-0.61601,0.53858,0.22369
0.79471,0.56694,-0.21685,-0.80897,0.0029,-0.00179
0.75616,0.60406,-0.25168,-0.7904,-0.15813,0.07277
0.71693,0.6355,-0.28662,-0.70039,-0.33684,0.06932
0.68024,0.65959,-0.3197,-0.60738,-0.47989,0.11672
0.64584,0.67586,-0.35513,-0.54529,-0.51474,0.14713
0.61331,0.68297,-0.39674,-0.29761,-0.55139,0.16174
0.58764,0.68108,-0.43681,-0.17512,-0.55794,0.21348
0.57745,0.67078,-0.46542,-0.08353,-0.42719,0.37238
0.58843,0.64914,-0.48205,-0.43654,-0.21314,0.78745
0.61534,0.61217,-0.49659,-0.6602,0.04976,0.95245
0.64058,0.56647,-0.51843,-0.88423,0.77517,1.73311
0.6377,0.54712,-0.54222,-2.68195,3.29129,3.36501
0.6431,0.56169,-0.5205,-2.02883,1.50499,1.25279
0.65127,0.56837,-0.5028,-1.46978,0.68905,0.82083
0.64037,0.60686,-0.47081,-0.46817,0.40686,0.3271
0.67089,0.59058,-0.44846,-0.48766,1.38731,-0.47187
0.68768,0.57676,-0.44096,-0.81454,1.36711,-0.79035
0.68063,0.57789,-0.45031,-0.9735,-0.13564,1.18144
0.67471,0.58353,-0.45195,-0.28015,-0.27559,1.77287
0.66959,0.56584,-0.48111,0.2611,-0.08775,-0.13964
0.70419,0.50979,-0.49421,-0.2521,-0.07525,0.05349
0.7565,0.45266,-0.47202,-0.2905,0.25798,0.05371
0.80944,0.40342,-0.42669,-0.66814,1.15931,0.02341
0.83773,0.37834,-0.39378,-1.75204,1.16383,0.68488
0.86077,0.35652,-0.36326,-1.78187,0.67018,0.66932
0.88704,0.33103,-0.32184,-1.24252,0.17834,0.21416
0.90689,0.30504,-0.29069,-0.91347,0.07849,-0.32365
0.92294,0.27787,-0.2664,-0.93222,0.13724,-0.35487
0.93724,0.25637,-0.23634,-0.96399,0.30487,-0.05487
0.95168,0.23623,-0.19623,-1.06604,0.54813,0.34495
0.96039,0.20901,-0.18429,-1.05478,1.0816,-0.0457
0.96194,0.17866,-0.20677,-1.21447,0.87037,-0.00908
0.96666,0.15013,-0.20741,-1.43079,0.67008,0.2755
0.97886,0.12215,-0.16408,-0.9928,0.91536,0.4579
0.98786,0.09568,-0.12241,-0.98499,0.98784,0.26287
0.99357,0.07354,-0.08611,-1.30747,1.33834,0.17603
0.99712,0.05831,-0.0485,-1.86132,1.35881,-0.01832
0.99854,0.04993,-0.02048,-2.03931,1.28138,0.03028
0.99881,0.04867,0.00161,-2.04487,1.18174,0.01648
0.99831,0.05746,0.00875,-1.90532,1.53304,-0.03092
0.99693,0.0782,-0.00416,-1.84774,1.59904,-0.00196
0.99392,0.1095,-0.01142,-1.41569,1.17698,0.2311
0.98813,0.15354,-0.00494,-0.58238,1.1291,-0.07699
0.97784,0.20682,-0.03244,-0.21846,1.37479,-0.38332
0.96373,0.25567,-0.07658,-0.00636,1.95875,-0.33954
0.94493,0.30867,-0.1088,-1.26295,1.24552,0.32389
0.9177,0.37403,-0.13389,-1.44196,1.11857,0.46346
0.88749,0.43833,-0.14224,-1.24177,0.96405,0.15388
0.85827,0.49566,-0.13306,-0.85471,0.64869,0.01787
0.82745,0.54361,-0.14074,-0.78745,0.42236,0.10323
0.79919,0.58009,-0.15749,-0.87644,-0.0945,0.00886
0.7715,0.61042,-0.17935,-0.84585,-0.18902,0.02946
0.74291,0.63689,-0.20606,-0.76046,-0.27811,0.02487
0.71455,0.65844,-0.2364,-0.64188,-0.35436,0.02937
0.68894,0.67266,-0.26999,-0.56984,-0.42205,0.04585
0.66571,0.68018,-0.30689,-0.43943,-0.55123,0.08042
0.64619,0.68109,-0.34433,-0.23277,-0.54786,0.19234
0.63489,0.67557,-0.37485,-0.2318,-0.48137,0.30144
0.63795,0.66085,-0.39535,-0.40087,-0.37586,0.52312
0.65319,0.63492,-0.41259,-0.85988,0.18811,1.05683
0.66745,0.60034,-0.44057,-1.01241,0.75008,1.56547
0.67798,0.57506,-0.45789,-2.89487,2.96948,2.68219
0.68382,0.58818,-0.43178,-1.98585,1.56853,1.33169
0.67951,0.60278,-0.41824,-1.01068,0.20465,0.70752
0.66717,0.61707,-0.41726,-0.68065,-0.20523,0.42403
0.67304,0.60364,-0.42735,-0.54293,-0.03307,0.23328
0.71087,0.55681,-0.42967,-0.55259,0.7395,-0.62025
0.73897,0.51786,-0.43099,-1.03241,1.61454,-0.15338
0.74244,0.51791,-0.42491,-1.77468,1.78599,0.51553
0.74131,0.52607,-0.41679,-0.67231,0.31622,0.87925
0.73895,0.51812,-0.4307,0.05542,-0.13535,0.31425
0.76256,0.47216,-0.44222,0.11158,-0.50152,-0.00178
0.81695,0.40216,-0.41336,-0.13114,-0.27002,-0.1083
0.86085,0.35172,-0.36774,-0.76695,0.64793,-0.20387
0.88925,0.31838,-0.32844,-1.37529,1.51281,0.139
0.91041,0.29447,-0.29057,-1.67825,0.62922,0.32725
0.92964,0.27062,-0.25007,-1.3456,0.37525,0.02227
0.9418,0.24654,-0.22852,-0.94158,0.27124,-0.40829
0.95191,0.22336,-0.20972,-1.12862,0.33308,-0.01187
0.96256,0.20656,-0.17552,-1.15742,0.37724,0.09164
0.97218,0.18614,-0.14216,-1.04227,0.65308,0.08761
0.97792,0.16313,-0.13062,-1.08539,1.04758,-0.09483
0.98285,0.13945,-0.12067,-1.21266,1.05594,0.05654
0.99007,0.11426,-0.08191,-1.14939,0.86803,0.37085
0.99544,0.08993,-0.0317,-1.04342,1.07241,0.06724
0.99753,0.06889,0.01351,-1.24311,1.24513,0.03465
0.99678,0.05444,0.05893,-1.63551,1.22736,-0.15628
0.99473,0.04518,0.092,-2.12715,1.16692,-0.00686
0.99246,0.04169,0.11522,-2.15241,1.27383,0.03241
0.99062,0.04209,0.12996,-1.73888,1.39019,0.06437
0.99074,0.04775,0.12708,-1.7302,1.36573,0.24399
0.99101,0.05916,0.11996,-1.59279,1.21,0.24574
0.98597,0.07827,0.14742,-1.23417,0.97509,0.00222
0.97047,0.16528,0.1757,-0.72203,1.3147,-0.87371
0.96733,0.21459,0.13499,-0.48601,1.81373,-0.94403
0.95949,0.27183,0.07403,-0.99633,1.71837,-0.27049
0.94015,0.34035,0.01658,-1.64364,1.2605,0.11823
0.91113,0.41118,-0.02786,-1.47994,1.12782,0.12318
0.87966,0.47434,-0.03471,-0.63035,1.08299,-0.10561
0.84811,0.52808,-0.04284,-0.53308,0.52639,0.20165
0.81914,0.57071,-0.05746,-0.72513,0.04521,0.17198
0.79094,0.60737,-0.07431,-0.88835,-0.23844,-0.119
0.76201,0.64022,-0.09723,-0.82619,-0.30933,-0.13577
0.73437,0.66673,-0.12717,-0.75164,-0.42136,-0.13899
0.70381,0.69112,-0.16436,-1.27813,0.05523,0.19486
0.68534,0.69886,-0.20472,-0.87171,-0.18027,0.03479
0.6728,0.69715,-0.24763,-0.52356,-0.48224,-0.04087
0.66848,0.68744,-0.28383,-0.12589,-0.36292,0.05231
0.67669,0.66971,-0.30592,-0.10596,-0.29768,0.17966
0.69666,0.64186,-0.32044,-0.34248,-0.16981,0.44631
0.71295,0.60979,-0.34621,-1.00115,0.6598,1.38138
0.71736,0.58032,-0.3855,-1.47928,1.69681,2.49666
0.71777,0.58638,-0.37545,-2.66435,2.87916,3.32446
0.72446,0.59722,-0.3442,-1.52462,0.61466,0.85585
0.71505,0.61532,-0.3318,-0.9706,-0.21272,0.43937
0.71676,0.61753,-0.3239,-0.81241,-0.19432,0.36742
0.7481,0.58831,-0.30699,-0.40545,0.90127,-0.68199
0.77546,0.55457,-0.30186,-1.00996,1.77018,-0.95415
0.76573,0.56058,-0.31528,-1.53725,1.95907,-0.24213
0.75881,0.5728,-0.31002,-0.85986,0.02891,0.8024
0.75456,0.56625,-0.33166,0.08403,-0.22857,-0.11131
0.77097,0.52774,-0.35652,-0.08324,-0.35683,-0.16387
0.82025,0.45897,-0.34138,-0.16558,-0.3756,-0.18898
0.86011,0.41181,-0.30104,-0.84314,1.0505,-0.18536
0.8877,0.37633,-0.26528,-1.18137,1.56719,0.03464
0.90391,0.35395,-0.24014,-1.80076,1.37125,0.4326
0.92213,0.32522,-0.20954,-1.11017,0.09812,-0.19463
0.93738,0.29385,-0.18698,-0.9307,0.09267,-0.42287
0.94955,0.26264,-0.17138,-0.90294,0.16153,-0.25224
0.96009,0.23696,-0.14856,-1.07273,0.52723,0.35153
0.96933,0.21237,-0.12368,-1.02295,0.84322,0.25875
0.97427,0.19301,-0.1164,-1.07786,1.16383,-0.03421
0.97783,0.17635,-0.1129,-1.49195,0.71279,-0.04851
0.98365,0.15999,-0.08269,-1.43235,0.71388,0.03217
0.98912,0.14295,-0.03476,-1.1311,0.81792,0.16301
0.99215,0.1249,0.00532,-1.13594,0.88127,0.27155
0.99345,0.10622,0.04219,-1.23632,1.02335,0.17703
0.99303,0.09288,0.07263,-1.51231,1.36357,-0.19324
0.99182,0.08732,0.09305,-1.90213,1.34383,0.00059
0.99029,0.085,0.11001,-1.88458,1.22325,0.02888
0.99007,0.08721,0.11023,-1.74616,1.45548,0.21811
0.99071,0.09693,0.09534,-1.56968,1.36703,0.16632
0.98884,0.11625,0.09316,-1.24525,1.04327,0.05819
0.97821,0.17028,0.11875,-0.74536,1.07642,-0.44221
0.96993,0.20661,0.12865,-0.49704,1.40121,-0.74199
0.96327,0.25056,0.09658,-0.25909,2.14687,-0.58991
0.95149,0.30118,0.06293,-1.10347,1.55369,-0.25659
0.93056,0.36492,0.02971,-1.58346,1.11205,0.26107
0.90319,0.42912,0.01074,-1.08518,0.98576,-0.05948
0.87376,0.48619,0.01273,-0.78286,0.63328,-0.0755
0.84555,0.53385,0.0072,-0.77435,0.38713,0.09358
0.82122,0.57052,-0.01019,-0.8596,0.02059,-0.08405
0.79668,0.60324,-0.03751,-0.84644,-0.26172,-0.1413
0.77103,0.63272,-0.07192,-0.76955,-0.31076,-0.16601
0.7452,0.65713,-0.11342,-0.71856,-0.37139,-0.13077
0.72063,0.67469,-0.15966,-0.60925,-0.48497,-0.05657
0.69905,0.68426,-0.20763,-0.52428,-0.51861,-0.01593
0.68248,0.6846,-0.25602,-0.3856,-0.517,0.03594
0.67498,0.67608,-0.2955,-0.10601,-0.31144,0.18092
0.67893,0.65903,-0.32362,-0.14664,-0.28037,0.30438
0.69494,0.63066,-0.34545,-0.48909,-0.06564,0.54487
0.70926,0.59848,-0.37251,-0.95493,1.20792,2.12789
0.70364,0.58423,-0.40444,-2.18964,2.87094,3.27226
0.69184,0.60752,-0.39022,-3.15287,3.3082,2.61649
0.68868,0.62031,-0.37541,-1.00473,-0.22738,0.51793
0.68361,0.63428,-0.36106,-0.67678,-0.64286,0.38327
0.68379,0.63821,-0.35372,-0.69664,-0.64686,0.05146
0.70814,0.61236,-0.3515,-0.40568,0.1047,-0.60034
0.74688,0.56573,-0.34946,-0.53889,1.74417,0.0255
0.76638,0.53878,-0.34983,-1.14585,3.08079,0.19604
0.74508,0.54755,-0.38085,-1.54176,1.64465,1.15131
0.73119,0.54906,-0.40485,-0.28767,-0.01599,0.02056
0.74327,0.52248,-0.41781,0.02741,-0.30601,-0.11584
0.78588,0.471,-0.4007,0.11714,-0.32563,0.1702
0.83012,0.42385,-0.36228,-0.72685,0.50352,-0.00375
0.85821,0.39173,-0.33169,-1.16957,0.83833,0.11163
0.8831,0.36806,-0.29097,-1.82385,1.27434,0.37776
0.90635,0.35049,-0.23599,-1.30077,0.38823,-0.05286
0.92469,0.32744,-0.19426,-1.01525,0.27739,-0.30565
0.93792,0.29813,-0.17728,-0.82229,0.16588,-0.2366
0.94889,0.27484,-0.15514,-1.07171,0.27866,-0.03625
0.95729,0.25794,-0.13064,-1.11146,0.37827,-0.04769
0.96411,0.23975,-0.11405,-1.09749,0.72728,0.03968
0.96972,0.22048,-0.10505,-1.2259,1.06529,0.09609
0.97612,0.195,-0.09576,-1.18905,0.88116,0.10316
0.98329,0.16914,-0.06727,-1.1048,0.81898,0.21328
0.98888,0.1463,-0.02681,-1.17954,0.9353,0.17299
0.99173,0.12708,0.01796,-1.37491,1.14581,-0.0081
0.99235,0.11068,0.05463,-1.82614,1.19598,-0.06682
0.99194,0.09757,0.08086,-1.90595,1.20318,-0.0366
0.99085,0.08892,0.10153,-1.76629,1.20951,0.00623
0.9901,0.08829,0.10909,-1.84061,1.38566,0.08711
0.99013,0.09636,0.10173,-1.77965,1.38873,0.15965
0.98796,0.11379,0.10484,-1.35595,1.23134,0.32164
0.98122,0.13988,0.13283,-0.70856,1.11611,-0.54677
0.9754,0.17648,0.13212,-0.52619,1.25114,-0.83369
0.96957,0.22371,0.09945,-0.34696,1.72564,-0.50785
0.95869,0.2753,0.07161,-1.09484,1.66939,-0.13379
0.94048,0.33757,0.03935,-1.37743,1.46405,0.1501
0.91758,0.39737,0.01219,-1.29068,1.03865,0.05983
0.89368,0.44871,-0.00011,-0.75346,0.8129,-0.10253
0.86809,0.49634,-0.00863,-0.74843,0.55593,-0.01235
0.84412,0.53524,-0.03124,-0.77159,0.25923,0.05377
0.82021,0.56923,-0.05686,-0.81583,-0.09452,-0.05541
0.79522,0.60002,-0.08716,-0.78363,-0.16102,-0.07392
0.77074,0.62571,-0.12018,-0.75237,-0.29951,-0.0863
0.74831,0.64487,-0.15546,-0.68771,-0.50025,-0.0429
0.72918,0.65627,-0.19389,-0.62749,-0.55303,-0.00162
0.71357,0.66046,-0.23368,-0.52857,-0.58183,0.06647
0.70393,0.65843,-0.26636,-0.41368,-0.55731,0.0994
0.70367,0.64946,-0.28817,-0.47377,-0.27181,0.34115
0.71624,0.63035,-0.29943,-0.54432,-0.14849,0.49591
0.73558,0.60195,-0.31077,-0.83107,0.31452,0.80057
0.74952,0.57005,-0.33654,-1.75251,2.08759,2.30686
0.75229,0.56407,-0.34042,-2.5033,2.72817,2.40618
0.74383,0.58562,-0.32212,-2.07705,1.22651,1.2046
0.73163,0.60529,-0.3136,-1.18791,0.12135,0.67334
0.72197,0.61764,-0.31191,-0.75978,-0.26986,0.44971
0.73077,0.60879,-0.30878,-0.737,-0.21849,-0.05898
0.76493,0.57331,-0.2936,-0.59989,0.58631,-0.80543
0.79411,0.53841,-0.28198,-0.68462,1.00961,-0.56215
0.79317,0.53981,-0.28194,-1.33834,1.70413,1.09361
0.78125,0.54482,-0.30466,-0.47766,0.22462,0.28839
0.78072,0.5344,-0.32387,-0.32112,-0.13244,-0.05625
0.80467,0.50053,-0.31935,-0.14985,-0.2521,0.05046
0.84859,0.45133,-0.27603,-0.38134,0.10819,-0.15687
0.8609,0.44324,-0.24977,-0.60413,0.36526,-0.22034
0.88429,0.41172,-0.22027,-1.30433,1.10508,-0.10955
0.90125,0.38893,-0.19098,-1.86421,0.81906,0.31666
0.91917,0.36342,-0.15183,-1.59258,0.44422,0.11912
0.93355,0.33421,-0.1296,-0.87062,0.14458,-0.26787
0.94608,0.30478,-0.1097,-0.92532,0.18629,-0.20444
0.95652,0.27931,-0.08393,-0.97386,0.30069,-0.11221
0.96491,0.25593,-0.05871,-1.04679,0.66133,0.10524
0.97172,0.23289,-0.03909,-1.16679,0.77819,0.0997
0.97737,0.2087,-0.03458,-1.34414,0.92253,0.00163
0.98195,0.18561,-0.03624,-1.27595,0.95381,0.0688
0.98631,0.16423,-0.01486,-1.20811,0.99238,0.21439
0.98895,0.14496,0.03122,-1.04784,1.09657,0.37625
0.98896,0.1263,0.07753,-1.45896,1.13371,-0.02291
0.98754,0.10865,0.11382,-1.65026,1.11034,-0.19545
0.98679,0.09523,0.13103,-1.99926,1.16086,-0.27795
0.98664,0.08883,0.13656,-2.02567,1.12755,0.06945
0.98622,0.0881,0.14002,-1.83978,1.27993,0.03886
0.98733,0.09665,0.12585,-1.59219,1.34983,0.1531
0.98612,0.11441,0.12033,-1.00303,1.09383,0.05926
0.97923,0.14076,0.14595,-0.80394,1.18746,-0.16752
0.97337,0.18048,0.14134,-0.32361,1.64264,-0.9278
0.96815,0.22738,0.10481,-0.75831,1.55788,-0.37329
0.95609,0.28732,0.05785,-1.27202,1.37977,-0.05114
0.93395,0.357,0.01686,-1.69956,1.17956,0.11413
0.90722,0.42036,-0.01582,-0.98823,1.21787,-0.14617
0.8806,0.47324,-0.02431,-0.80122,0.8166,-0.0917
0.85273,0.52061,-0.04265,-0.73679,0.59339,0.09258
0.82467,0.56152,-0.06785,-0.72278,0.33052,-0.0378
0.79631,0.59703,-0.09715,-0.74083,-0.07939,-0.06169
0.76776,0.6271,-0.13148,-0.67874,-0.24148,-0.04987
0.74145,0.64947,-0.16864,-0.61657,-0.46787,-0.0345
0.71977,0.66315,-0.20534,-0.55022,-0.65111,0.0003
0.70351,0.66863,-0.24085,-0.51436,-0.68846,0.03306
0.69341,0.6669,-0.2728,-0.45512,-0.70427,0.05759
0.69036,0.65906,-0.29839,-0.3625,-0.45601,0.2317
0.69777,0.64276,-0.31617,-0.36484,-0.35736,0.34662
0.71632,0.61662,-0.32659,-0.50369,-0.0802,0.59089
0.73396,0.58752,-0.34077,-1.07235,0.87363,1.39389
0.74449,0.55813,-0.36637,-1.5454,2.17632,2.2817
0.73981,0.57137,-0.35526,-2.81687,2.99688,1.82192
0.73164,0.5898,-0.34181,-1.30073,0.08997,0.71404
0.71975,0.60968,-0.33205,-1.10183,-0.24882,0.49051
0.71152,0.62113,-0.32854,-0.91661,-0.53084,0.32427
0.72862,0.60081,-0.32886,-0.62054,0.11581,-0.91795
0.76079,0.55703,-0.33303,-0.57296,0.65296,-1.03427
0.78085,0.53643,-0.32018,-1.03858,2.45781,0.38373
0.76255,0.54877,-0.34259,-0.37748,0.66058,1.24641
0.74832,0.54844,-0.37313,-0.07238,-0.01045,0.38938
0.76352,0.51794,-0.3857,-0.01276,-0.56776,0.04552
0.81478,0.46017,-0.35266,-0.09384,-0.13713,-0.05095
0.85603,0.41543,-0.30762,-0.41576,0.21618,-0.19909
0.88228,0.38045,-0.27722,-1.66481,1.38586,0.15771
0.89803,0.36101,-0.25144,-2.1881,1.21869,0.524
0.91579,0.34404,-0.20729,-1.92715,0.60074,0.41904
0.92948,0.323,-0.17817,-0.82266,0.02357,-0.26362
0.93792,0.29925,-0.17539,-0.85158,0.05533,-0.23385
0.94557,0.27727,-0.17033,-0.98528,0.24014,-0.12876
0.95432,0.25599,-0.15409,-0.99097,0.73456,0.06564
0.96301,0.23152,-0.13787,-0.96329,0.95514,0.16839
0.96905,0.203,-0.14049,-1.01421,1.01079,0.1866
0.97453,0.17238,-0.14343,-1.0206,0.82736,0.21978
0.98231,0.14321,-0.12065,-1.00996,0.93893,0.24942
0.9899,0.11482,-0.08313,-1.03421,1.05205,0.328
0.99489,0.09036,-0.04508,-1.47771,1.16825,0.17261
0.9974,0.07121,-0.01069,-1.63656,1.23925,0.05845
0.99823,0.05737,0.01562,-1.89413,1.28799,-0.0559
0.99811,0.04807,0.03826,-1.80529,1.32605,0.16331
0.99733,0.04819,0.05482,-1.7444,1.4346,0.08305
0.99709,0.06002,0.04693,-1.73548,1.44834,0.00651
0.99572,0.08207,0.04237,-1.33774,1.05063,0.15961
0.99126,0.11503,0.06461,-0.8933,1.32171,-0.40421
0.9856,0.16015,0.05423,-0.56675,1.63234,-0.71045
0.9772,0.21199,0.01164,-0.23573,1.87267,-0.47343
0.96247,0.26928,-0.03383,-1.27726,1.19146,0.18455
0.93893,0.33548,-0.07659,-1.4805,1.09067,0.26105
0.91035,0.39972,-0.1072,-1.28622,1.10797,0.13442
0.88275,0.45743,-0.1073,-0.89523,0.76255,-0.06328
0.85352,0.50744,-0.11836,-0.80275,0.51451,0.09251
0.82347,0.54914,-0.14263,-0.78404,0.2889,0.04961
0.79296,0.58495,-0.17042,-0.81835,-0.05823,0.02074
0.76007,0.61707,-0.20375,-0.76985,-0.15992,0.04364
0.72808,0.64331,-0.23675,-0.68472,-0.31177,0.07288
0.69945,0.66194,-0.26945,-0.53818,-0.45758,0.06085
0.6738,0.67288,-0.30532,-0.4849,-0.50243,0.11138
0.65298,0.67657,-0.34039,-0.39106,-0.54637,0.16719
0.64059,0.67406,-0.36782,-0.32856,-0.47128,0.27925
0.64057,0.66404,-0.38565,-0.35247,-0.38639,0.37791
0.65472,0.64274,-0.39777,-0.47901,-0.24421,0.57604
0.67122,0.61286,-0.41698,-0.9847,0.29373,1.25954
0.6813,0.57538,-0.45251,-1.09379,0.76155,1.84721
0.68719,0.56213,-0.4602,-2.87014,2.54619,2.42989
0.6886,0.57279,-0.44468,-1.68879,0.94867,0.85868
0.67701,0.5927,-0.4363,-1.19255,0.34515,0.7548
0.66452,0.60469,-0.43906,-0.39842,-0.01037,0.55828
0.68325,0.58623,-0.43532,-0.30714,0.35162,-0.19093
0.7193,0.54747,-0.42766,-0.56411,0.65041,-0.70041
0.73459,0.52672,-0.42771,-1.62366,1.60072,0.17553
0.73207,0.53369,-0.42337,-0.97313,0.84572,0.96747
0.72308,0.53628,-0.43539,0.03507,0.07976,0.58132
0.72666,0.51396,-0.45587,0.11052,-0.53522,0.00885
0.76921,0.45789,-0.44571,0.0331,-0.46255,0.01404
0.82227,0.40043,-0.40438,-0.49114,0.15441,-0.14355
0.85873,0.36024,-0.36443,-1.58201,1.62531,0.21167
0.88128,0.33529,-0.33304,-1.87532,1.79987,0.42479
0.90148,0.31626,-0.29548,-1.72962,0.60968,0.49227
0.91971,0.29441,-0.25972,-0.76021,0.18402,-0.27998
0.93061,0.26847,-0.24879,-0.74277,0.1773,-0.29223
0.94064,0.24102,-0.23895,-0.9041,0.24878,-0.03127
0.95278,0.21509,-0.21437,-0.97893,0.65339,0.07777
0.96375,0.18687,-0.19044,-0.97411,0.83297,0.08189
0.97033,0.15834,-0.18272,-1.19637,0.94342,0.14167
0.97486,0.12906,-0.18164,-1.38247,0.85678,0.28731
0.9814,0.09939,-0.16424,-1.28018,0.81329,0.29191
0.98839,0.07204,-0.13381,-1.0836,0.9336,0.32351
0.99399,0.04876,-0.09798,-1.31724,1.34279,0.17255
0.99779,0.02956,-0.05959,-1.62077,1.32903,0.04231
0.99947,0.01362,-0.02943,-1.72828,1.29772,-0.00782
0.99995,0.00321,-0.00961,-1.93395,1.29113,0.0949
1.0,0.00092,0.00153,-1.82609,1.33302,0.10785
0.99994,0.01015,-0.00338,-1.84887,1.48733,0.1335
0.99926,0.03298,-0.01967,-1.60186,1.48275,0.16106
0.99764,0.06671,-0.01623,-1.02433,0.9531,0.19474
0.9942,0.10755,0.00121,-0.83215,0.99663,-0.09133
0.98719,0.15724,-0.02709,-0.28914,1.81931,-0.66334
0.97487,0.2113,-0.07052,-0.36356,2.10958,-0.28023
0.95304,0.27929,-0.11713,-1.36211,1.40875,0.19351
0.92406,0.35212,-0.14876,-1.28264,1.05247,0.16904
0.89517,0.41652,-0.1587,-0.91487,1.05777,-0.04893
0.86603,0.47391,-0.15936,-0.86081,0.8173,0.00427
0.83497,0.5213,-0.17625,-0.80178,0.39279,0.20688
0.80264,0.56125,-0.20192,-0.83927,-0.00312,0.06256
0.76762,0.59661,-0.23413,-0.79539,-0.11253,0.07558
0.73006,0.62704,-0.27171,-0.68906,-0.27877,0.06557
0.69358,0.64977,-0.31106,-0.62213,-0.43217,0.14164
0.66066,0.66397,-0.35025,-0.55044,-0.49243,0.17119
0.63152,0.66957,-0.39097,-0.43002,-0.5562,0.18212
0.61071,0.66717,-0.42652,-0.24221,-0.53668,0.21137
0.60268,0.65797,-0.45151,-0.17787,-0.45992,0.29288
0.61178,0.63896,-0.46632,-0.42653,-0.15266,0.7302
0.63351,0.60849,-0.47791,-0.63035,0.1102,0.97108
0.65397,0.56991,-0.49752,-0.94953,0.82909,1.78022
0.65525,0.54585,-0.5222,-3.10275,3.30481,2.99613
0.6521,0.56047,-0.51053,-2.28935,1.44596,1.25813
0.65437,0.56624,-0.50116,-1.72853,0.6103,0.94123
0.65195,0.57564,-0.49356,-0.82722,-0.46712,0.42462
0.66786,0.56482,-0.4847,-0.59523,-0.27611,-0.38434
0.70732,0.51677,-0.48233,-0.42242,0.0753,-0.62494
0.72965,0.475,-0.49193,-0.87877,1.91145,0.30765
0.71942,0.48409,-0.49809,-1.82026,2.31973,1.16803
0.70095,0.49748,-0.51105,-1.03156,1.11174,1.45852
0.69006,0.48678,-0.53559,0.2094,-0.44201,-0.00342
0.71957,0.43519,-0.54113,0.43982,-0.67002,0.28233
0.78597,0.3662,-0.49814,0.02064,-0.22168,-0.11112
0.81246,0.33388,-0.47794,-1.28584,1.17363,-0.04092
0.83525,0.30632,-0.45665,-1.77228,1.59548,0.40259
0.85834,0.2845,-0.42697,-2.21119,1.37122,0.75176
0.88337,0.2614,-0.38901,-0.84293,0.17197,-0.10697
0.89719,0.23276,-0.37532,-0.73415,0.13704,-0.22041
0.90581,0.19951,-0.37378,-0.82672,0.21665,-0.04834
