gravity.x,gravity.y,gravity.z,userAcceleration.x,userAcceleration.y,userAcceleration.z
0.06974,0.9974,-0.018,-0.00408,0.68639,0.08805
0.05579,0.99842,0.00683,-0.02237,0.64401,0.03626
0.04641,0.99875,0.01831,-0.04826,0.47284,-0.11752
0.04649,0.99873,0.01951,-0.03974,-0.15229,-0.34933
0.04738,0.99866,0.02086,-0.09192,-0.28976,0.1058
0.04698,0.99839,0.03178,-0.18778,-0.24627,0.301
0.04423,0.99814,0.04194,-0.22028,-0.16817,0.27193
0.03945,0.99817,0.04585,-0.14127,0.07871,0.02464
0.0328,0.99816,0.05096,0.00615,0.08656,0.03518
0.02551,0.99797,0.05824,0.03036,0.05317,0.02982
0.02088,0.99767,0.06496,-0.02454,-0.01058,0.0958
0.0195,0.99731,0.07059,-0.03211,0.01319,0.06004
0.01987,0.9969,0.07607,-0.011,0.01802,0.05587
0.02199,0.99632,0.08276,0.06848,-0.00841,0.08482
0.02185,0.99578,0.08912,0.04056,0.01203,0.08931
0.02013,0.99551,0.09247,0.01184,0.00921,0.08536
0.01789,0.99496,0.09859,-0.05513,-0.03789,0.13034
0.01912,0.99402,0.10751,-0.07086,-0.03812,0.09211
0.0187,0.99291,0.11738,-0.06576,-0.0298,0.07378
0.01825,0.99123,0.13087,-0.062,0.00476,0.02051
0.01464,0.98954,0.14353,-0.05394,0.01989,-0.04082
0.01137,0.9879,0.15467,-0.03324,0.00285,-0.0509
0.00652,0.98613,0.16585,0.00213,0.00478,-0.0467
0.00319,0.98481,0.1736,0.03793,0.0252,-0.05613
0.00062,0.9837,0.17983,0.08156,-0.01549,-0.02355
-1e-05,0.98228,0.18742,0.081,-0.00191,-0.04744
0.00016,0.98106,0.19369,0.09308,0.04044,-0.04478
0.00095,0.97992,0.19937,0.10203,0.03993,-0.07019
0.00311,0.97852,0.20612,0.05012,0.00387,-0.0645
0.00548,0.97703,0.21303,0.01978,-0.00622,-0.04808
0.00815,0.9753,0.22074,0.03232,-0.00908,-0.01589
0.01088,0.97377,0.22727,0.02244,0.0457,-0.07511
0.01088,0.97257,0.23233,-0.05806,0.11172,-0.09872
0.00891,0.9713,0.23769,-0.0988,0.06381,-0.08872
0.00526,0.97007,0.24275,-0.07197,0.00747,-0.06877
0.00017,0.96907,0.24677,0.01951,-0.0023,-0.03711
-0.00632,0.96793,0.25112,0.11817,0.00218,-0.03064
-0.01311,0.96667,0.25565,0.17111,0.00284,-0.0405
-0.01827,0.96524,0.26071,0.12553,0.07193,-0.07051
-0.0225,0.96375,0.26584,0.09559,0.07962,-0.08091
-0.02746,0.96203,0.27154,0.03184,0.07052,-0.10203
-0.03493,0.9603,0.27677,0.0029,0.02908,-0.11083
-0.04485,0.95855,0.28137,0.02686,0.02111,-0.10368
-0.05557,0.95673,0.2856,0.14559,0.01295,-0.12854
-0.06561,0.95487,0.28968,0.19339,0.00079,-0.1027
-0.07488,0.95308,0.29329,0.16876,0.01021,-0.09636
-0.08417,0.9513,0.29655,0.11432,0.07937,-0.137
-0.0956,0.94926,0.2996,0.09725,0.11039,-0.14161
-0.10881,0.94685,0.30268,0.12819,0.13353,-0.19496
-0.12333,0.94411,0.30568,0.22958,0.14675,-0.16713
-0.1383,0.94127,0.308,0.27071,0.15357,-0.19055
-0.15244,0.93885,0.30874,0.32576,0.13536,-0.31363
-0.16491,0.9374,0.30673,0.32818,0.14032,-0.36549
-0.17613,0.93702,0.3016,0.3076,0.17086,-0.38838
-0.18544,0.93785,0.29332,0.27649,0.23212,-0.4679
-0.19205,0.93991,0.28227,0.24268,0.19916,-0.4463
-0.19689,0.94386,0.26522,0.25275,0.21504,-0.3041
-0.1985,0.95005,0.24081,0.25808,0.25213,-0.29158
-0.19719,0.95799,0.20822,0.10988,0.16753,-0.1844
-0.19421,0.96697,0.16502,0.01005,0.15189,-0.16297
-0.18782,0.97511,0.11781,-0.06041,0.15142,-0.12398
-0.17982,0.9812,0.06998,-0.23457,0.24089,0.09631
-0.17287,0.98465,0.02397,-0.24307,0.17925,0.29437
-0.16434,0.98613,-0.02326,-0.27631,0.07702,0.33164
-0.15001,0.98644,-0.06646,-0.02973,0.10363,0.12103
-0.13476,0.9861,-0.0971,0.08706,0.13452,0.03565
-0.11837,0.98574,-0.11954,0.14289,0.16739,0.06424
-0.10117,0.98444,-0.14368,0.20029,0.02998,0.15185
-0.08545,0.98186,-0.16925,0.04225,-0.17555,0.22928
-0.07307,0.97788,-0.19595,0.00851,-0.201,0.20822
-0.06478,0.97323,-0.22052,0.01686,-0.17725,0.17317
-0.05858,0.96869,-0.24126,0.0212,-0.10103,0.15827
-0.05119,0.9652,-0.25643,-0.04152,-0.02854,0.16674
-0.04326,0.96301,-0.26595,-0.18704,-0.07312,0.28076
-0.03622,0.96138,-0.27282,-0.24241,-0.15489,0.30612
-0.02961,0.95974,-0.27931,-0.15418,-0.15045,0.20127
-0.02134,0.95867,-0.2837,-0.0713,-0.19294,0.08807
-0.01153,0.95865,-0.28436,-0.04849,-0.2259,0.06783
-0.00323,0.95937,-0.2821,-0.03241,-0.26614,0.1102
0.00317,0.96103,-0.27641,0.02489,-0.20652,0.07727
0.00917,0.96356,-0.26733,0.04976,-0.05702,-0.04608
0.01252,0.96669,-0.25563,0.03551,-0.01938,-0.07962
0.01231,0.96945,-0.24497,0.01935,0.03292,-0.15948
0.01153,0.97163,-0.23622,-0.02462,0.04888,-0.31654
0.01268,0.97377,-0.22718,-0.03153,0.05396,-0.35587
0.01516,0.97621,-0.21629,-0.05013,0.10108,-0.32196
0.01778,0.97896,-0.20324,-0.15061,0.17337,-0.19445
0.01992,0.98101,-0.19292,-0.1822,0.15829,-0.20876
0.01995,0.98189,-0.18837,-0.26104,-0.07199,-0.03424
0.01773,0.98309,-0.18225,-0.28854,-0.06515,-0.00804
0.01347,0.98586,-0.16702,-0.306,-0.07701,0.05937
0.00737,0.98967,-0.14316,-0.28585,0.13333,0.35574
-0.00299,0.99346,-0.11414,-0.26412,0.59035,0.1653
-0.01466,0.99514,-0.09732,-0.04903,0.43819,-0.08916
-0.01955,0.99555,-0.09219,0.1834,-0.38841,0.47469
-0.02029,0.99723,-0.07149,0.11762,-0.44405,0.75565
-0.02042,0.9991,-0.03719,0.15518,-0.25834,0.58752
-0.02397,0.99968,-0.00762,0.34515,0.05528,0.16231
-0.026,0.99963,0.00683,0.31661,0.28976,-0.05649
-0.0291,0.99926,0.02497,0.14672,0.11709,-0.00353
-0.03644,0.9982,0.04764,-0.03987,-0.0348,0.08976
-0.04083,0.99688,0.06749,-0.13559,-0.07587,0.0289
-0.04011,0.99547,0.08618,-0.1119,-0.0565,0.01222
-0.0416,0.99351,0.10585,0.07997,0.06747,6e-05
-0.04335,0.99164,0.12152,0.11204,0.08502,-0.0241
-0.04448,0.9899,0.13455,0.13492,0.09028,-0.05951
-0.04561,0.98841,0.14473,0.08034,0.00692,-0.05097
-0.04759,0.98718,0.15236,0.0565,-0.04063,0.05866
-0.05155,0.98557,0.1612,0.07366,-0.03872,0.09799
-0.05563,0.98363,0.17135,0.12959,0.0073,0.10578
-0.06117,0.98113,0.18338,0.05879,-0.00683,0.05655
-0.06908,0.97781,0.19773,0.03621,0.00357,0.0492
-0.07742,0.97397,0.21304,0.01085,0.02466,0.02585
-0.08579,0.96979,0.22833,0.04685,0.06971,-0.11968
-0.09352,0.96568,0.24231,0.08956,0.06402,-0.19325
-0.10126,0.96184,0.25418,0.11764,0.05554,-0.19289
-0.10927,0.95858,0.26301,0.15192,0.10819,-0.16529
-0.1178,0.95628,0.26768,0.2037,0.13264,-0.15664
-0.12637,0.95486,0.26882,0.18025,0.12761,-0.16338
-0.13415,0.95417,0.26749,0.09709,0.12084,-0.18523
-0.14202,0.95391,0.26434,0.1142,0.08993,-0.20239
-0.15,0.95408,0.25928,0.22663,0.05908,-0.24297
-0.15775,0.95475,0.25213,0.30795,0.03563,-0.26451
-0.16567,0.95594,0.24233,0.32097,0.06663,-0.28937
-0.1728,0.95781,0.22964,0.27,0.12887,-0.31719
-0.17866,0.96092,0.21144,0.16887,0.19732,-0.33626
-0.18769,0.96465,0.18495,0.05325,0.21505,-0.268
-0.19741,0.9694,0.1459,-0.03315,0.25811,-0.15538
-0.20465,0.97383,0.0988,-0.00105,0.1682,-0.03203
-0.20517,0.97743,0.05031,0.0499,0.13912,0.04846
-0.20017,0.97975,0.00312,0.16301,0.19528,0.22014
-0.19626,0.97972,-0.04031,0.07971,0.16779,0.37421
-0.18935,0.97849,-0.08189,0.03719,0.15071,0.3855
-0.17784,0.97691,-0.11837,0.1302,0.1288,0.26256
-0.16267,0.9758,-0.14608,0.15791,0.09747,0.24558
-0.14838,0.97429,-0.16955,0.09837,0.0837,0.20477
-0.13573,0.9724,-0.18978,0.05109,-0.03526,0.24247
-0.12438,0.96988,-0.20942,0.03002,-0.10097,0.2885
-0.11235,0.9671,-0.22825,0.08557,-0.10079,0.30166
-0.09904,0.96432,-0.24549,0.06515,-0.05528,0.27642
-0.08448,0.96179,-0.26043,0.05658,-0.02014,0.29549
-0.07088,0.95931,-0.2733,-0.00255,0.05189,0.34063
-0.05892,0.95753,-0.28225,-0.14851,-0.01339,0.36837
-0.04996,0.95621,-0.28836,-0.3047,-0.12334,0.32538
-0.04199,0.95534,-0.29249,-0.27971,-0.17953,0.20166
-0.03161,0.95625,-0.29084,-0.16392,-0.2059,0.09705
-0.02047,0.95906,-0.28246,-0.14119,-0.1528,0.00953
-0.01287,0.9627,-0.27026,-0.02244,0.00163,0.10043
-0.01007,0.96571,-0.25944,-0.00775,0.06643,0.21712
-0.00928,0.96824,-0.24985,0.00251,0.02793,0.18824
-0.0085,0.97084,-0.23959,0.0179,-0.00971,0.13909
-0.00424,0.97411,-0.22601,0.00711,-0.0655,-0.08202
0.00477,0.97805,-0.20829,-0.03185,-0.05944,-0.17275
0.01523,0.98158,-0.19041,-0.04735,-0.04064,-0.19899
0.02265,0.98394,-0.17702,-0.04594,0.05527,-0.1802
0.02524,0.98532,-0.16883,0.0292,0.05643,-0.15214
0.02499,0.98655,-0.16152,0.04771,0.02752,-0.13343
0.025,0.98835,-0.15013,0.04028,-0.05581,-0.13222
0.02484,0.99021,-0.13734,-0.01744,-0.12726,-0.17797
0.02578,0.99194,-0.12407,-0.04678,-0.16335,-0.16638
0.02549,0.99328,-0.11291,-0.10508,-0.16539,0.01682
0.02125,0.99537,-0.09372,-0.17238,-0.085,0.3148
0.01177,0.99816,-0.05946,-0.26475,0.22096,0.5172
-0.00515,0.99963,-0.02653,-0.25928,0.57411,0.09811
-0.01484,0.99972,-0.01815,-0.1072,0.32206,-0.29537
-0.02215,0.99971,-0.00918,-0.10707,-0.04519,0.24718
-0.03488,0.99935,0.00913,-0.15317,-0.248,0.61262
-0.04835,0.99846,0.02686,-0.0437,-0.21244,0.46703
-0.05747,0.99767,0.0367,0.22263,0.01161,0.14747
-0.05988,0.99715,0.04578,0.32149,0.0995,0.06647
-0.06181,0.99636,0.05859,0.01936,0.00441,0.11643
-0.06354,0.99557,0.0693,-0.04573,-0.01881,0.07587
-0.06709,0.99458,0.07938,-0.1149,-0.02195,0.01264
-0.07229,0.99308,0.09246,0.0984,0.03234,0.01377
-0.07787,0.99129,0.10621,0.15537,0.05518,0.01743
-0.08336,0.98954,0.11768,0.18613,0.07656,-0.00106
-0.08928,0.9877,0.12834,0.11223,0.05547,0.01664
-0.0965,0.98567,0.13831,0.11083,0.00732,0.0112
-0.09967,0.98376,0.14922,0.15976,-0.01117,0.10603
-0.10611,0.98139,0.16004,0.13978,0.00859,0.07118
-0.11066,0.97914,0.17037,0.03118,0.02835,0.00194
-0.11241,0.97676,0.18247,-0.04752,0.02489,-0.00246
-0.11938,0.97386,0.19321,0.00759,0.03563,-0.0454
-0.12564,0.97092,0.20374,0.10033,0.06878,-0.08148
-0.13391,0.96789,0.2127,0.16546,0.03755,-0.08119
-0.142,0.96462,0.22211,0.2197,0.03866,-0.06041
-0.14781,0.9617,0.2308,0.21007,0.08989,-0.08092
-0.15132,0.95942,0.23792,0.11377,0.08297,-0.12452
-0.15427,0.9577,0.2429,0.04654,0.10648,-0.13096
-0.15776,0.95652,0.24531,0.02121,0.11186,-0.14735
-0.16318,0.95563,0.24521,0.03717,0.10621,-0.17762
-0.17,0.95512,0.24256,0.07968,0.10517,-0.23797
-0.17761,0.95504,0.23737,0.12272,0.07296,-0.22963
-0.18565,0.95577,0.22808,0.1799,0.07209,-0.24489
-0.19171,0.95786,0.21384,0.26168,0.22831,-0.29749
-0.19611,0.96122,0.19387,0.24505,0.31164,-0.28788
-0.1988,0.9662,0.16408,0.13788,0.18211,-0.29075
-0.19963,0.9723,0.12157,-0.03859,0.09556,-0.18852
-0.2002,0.97734,0.06875,-0.05134,0.08669,0.0315
-0.19741,0.98022,0.01364,0.01849,0.20667,0.02162
-0.19214,0.98059,-0.03898,0.04716,0.20099,0.29679
-0.18786,0.9783,-0.08734,0.14335,0.146,0.39384
-0.17693,0.97526,-0.13248,0.24355,0.08161,0.34083
-0.16051,0.97183,-0.17255,0.24672,0.2081,0.24504
-0.14234,0.96876,-0.20305,0.1988,0.22602,0.20584
-0.12635,0.96588,-0.22604,0.15708,0.05049,0.20515
-0.11226,0.96226,-0.24786,0.09221,-0.11035,0.28653
-0.10128,0.95772,-0.26926,0.12499,-0.12186,0.34261
-0.09237,0.95303,-0.28843,0.17309,-0.09482,0.34075
-0.08141,0.94937,-0.3034,0.15725,-0.02405,0.32957
-0.0693,0.94652,-0.3151,0.09388,0.0715,0.39573
-0.05906,0.94392,-0.32485,0.00312,0.08611,0.41713
-0.05182,0.94189,-0.33189,-0.13337,-0.02836,0.40366
-0.04466,0.94058,-0.33662,-0.28621,-0.10708,0.31078
-0.03362,0.94043,-0.3383,-0.24596,-0.08722,0.13098
-0.02033,0.94191,-0.33522,-0.11741,-0.09087,0.11478
-0.00895,0.9439,-0.33011,-0.14045,-0.10593,0.13805
-0.00277,0.94606,-0.32396,-0.14562,-0.09244,0.26096
-0.00165,0.94831,-0.31733,-0.12317,-0.0774,0.3782
-0.00229,0.95089,-0.30951,-0.13929,-0.10509,0.33813
-0.00242,0.95454,-0.29806,-0.11341,-0.13458,0.21567
7e-05,0.95964,-0.28123,-0.09101,-0.12399,0.07247
0.00672,0.96575,-0.25939,-0.10946,-0.0766,-0.04195
0.01545,0.97192,-0.23477,-0.09123,-0.01054,-0.17592
0.02264,0.97722,-0.21098,-0.07055,0.04139,-0.25385
0.0251,0.98108,-0.19194,0.11464,0.26481,-0.44034
0.0251,0.98328,-0.18033,0.35856,0.38183,-0.46291
0.02877,0.98376,-0.17715,0.26697,0.26841,-0.38207
0.0331,0.98321,-0.1794,-0.02778,-0.18579,-0.19927
0.03616,0.98316,-0.17913,-0.13542,-0.17275,-0.02471
0.03755,0.98488,-0.16911,-0.21536,-0.10271,0.16098
0.03578,0.98852,-0.14674,-0.43571,0.28313,0.77317
0.02299,0.99234,-0.12138,-0.53847,0.87764,-0.29052
0.00478,0.99211,-0.12522,-0.36597,0.35493,-0.31849
-0.00296,0.99201,-0.1261,0.05649,-0.55243,0.90604
-0.00437,0.9951,-0.09876,0.18633,-0.32077,0.57081
-0.0046,0.99749,-0.07064,0.24013,-0.11699,0.3061
-0.00514,0.99854,-0.05365,0.24795,0.08082,0.15317
-0.00705,0.9994,-0.03365,0.06482,0.2213,0.13618
-0.00937,0.99989,-0.01091,-0.16834,0.00822,0.12289
-0.00935,0.99992,0.0077,-0.30176,-0.05543,0.0983
-0.00831,0.99961,0.02646,-0.5208,-0.14895,0.11908
-0.00601,0.99901,0.04393,-0.2734,-0.0956,0.12564
-0.00808,0.9982,0.05937,-0.12036,-0.04172,0.08368
-0.0112,0.99714,0.07465,0.14616,0.12761,0.13994
-0.00887,0.99586,0.09041,0.15126,-0.0054,0.04035
-0.00529,0.9943,0.10643,0.02289,0.02851,0.09064
-0.00215,0.99251,0.12213,0.03233,-0.00458,0.10171
-0.00261,0.99049,0.13754,0.07178,-0.21969,0.08338
-0.00338,0.98838,0.15191,0.01957,-0.06839,0.0355
-0.00618,0.98617,0.16559,-0.13199,0.08109,-0.03788
-0.01068,0.98308,0.18283,-0.11803,-0.03404,0.00213
-0.01487,0.97923,0.20218,-0.1028,-0.01719,0.03337
-0.02068,0.97521,0.22031,-0.08712,0.00717,-0.03704
-0.02924,0.97095,0.23745,-0.04403,0.0377,-0.1
-0.03977,0.96633,0.25421,0.03859,0.05572,-0.15764
-0.05147,0.96174,0.26908,0.07529,0.05821,-0.1455
-0.06321,0.95801,0.27968,-0.06162,0.10829,-0.20912
-0.07443,0.95484,0.28764,-0.00557,0.10378,-0.21003
-0.08457,0.9522,0.29354,0.2095,0.15144,-0.16523
-0.09411,0.95017,0.29716,0.29253,0.13326,-0.30309
-0.10329,0.94881,0.29846,0.24047,0.11404,-0.31274
-0.11157,0.94809,0.29777,0.14597,0.1664,-0.31554
-0.11796,0.94883,0.29293,0.07846,0.29498,-0.37511
-0.12168,0.95133,0.28313,0.05495,0.3003,-0.39403
-0.12358,0.95663,0.26379,-0.10579,0.3187,-0.32517
-0.12354,0.965,0.23131,-0.10583,0.31033,-0.29269
-0.1227,0.97495,0.1855,-0.16596,0.12372,-0.19341
-0.11579,0.98454,0.13138,-0.19231,0.20978,-0.28125
-0.10418,0.99158,0.07692,-0.28988,0.28723,-0.07932
-0.09702,0.99498,0.02448,-0.41933,0.23133,0.26656
-0.08902,0.99562,-0.02831,-0.37359,0.0966,0.21073
-0.07758,0.99377,-0.08002,-0.37278,0.10772,0.10083
-0.06809,0.98926,-0.12928,-0.31573,0.23109,0.16569
-0.06303,0.98277,-0.17373,-0.15606,0.14902,0.25554
-0.05617,0.97465,-0.21656,-0.01669,-0.00567,0.24254
-0.04571,0.96558,-0.25606,-0.00241,-0.07182,0.25588
-0.03718,0.95568,-0.29204,-0.04957,-0.17911,0.30814
-0.02894,0.9451,-0.32548,-0.10189,-0.23719,0.29003
-0.01877,0.93517,-0.35369,-0.07872,-0.25556,0.28094
-0.01173,0.92707,-0.37471,-0.137,-0.30439,0.33569
-0.00879,0.92107,-0.3893,-0.16708,-0.34223,0.40169
-0.00811,0.91796,-0.39659,-0.17147,-0.36608,0.40947
-0.00624,0.91796,-0.39663,-0.14411,-0.37909,0.35918
-0.0006,0.92092,-0.38974,-0.02487,-0.35995,0.25356
0.00845,0.92635,-0.37656,0.06632,-0.3535,0.14106
0.01946,0.93358,-0.35783,0.09222,-0.35411,0.00148
0.03101,0.94261,-0.33243,0.06651,-0.27695,-0.2082
0.04584,0.95167,-0.30366,-0.04259,-0.03366,-0.62271
0.05653,0.95799,-0.28118,-0.12393,0.46274,-0.9611
0.05373,0.96132,-0.27013,0.00936,0.88643,-0.86901
0.0508,0.96153,-0.26995,-0.05945,0.5345,-0.62907
0.04874,0.95928,-0.2782,-0.36591,-0.23859,-0.0417
0.04776,0.95631,-0.28842,-0.46948,-0.38658,0.05964
0.04837,0.95723,-0.28525,-0.53647,-0.42055,0.08682
0.04346,0.9637,-0.26342,-0.59094,-0.1253,0.40054
0.03321,0.97288,-0.22889,-0.64749,0.90484,0.52465
0.03031,0.97798,-0.20649,-0.35613,1.34603,-0.14417
0.02815,0.9765,-0.21364,0.03401,0.06465,0.49855
0.0289,0.97918,-0.20092,-0.08297,-0.64396,0.63594
0.03781,0.98614,-0.16152,-0.05316,-0.50961,0.38143
0.04283,0.99304,-0.10972,0.1729,0.05314,0.37745
0.04506,0.99716,-0.0602,0.22997,0.4003,0.55488
0.04585,0.99871,-0.02158,0.13857,0.24818,0.28746
0.04069,0.99912,0.00998,0.0133,0.07358,-0.03973
0.02804,0.99882,0.03954,-0.25274,-0.06445,-0.17173
0.01808,0.9971,0.07393,-0.40516,-0.18292,0.09131
0.01543,0.99376,0.11046,-0.19132,-0.1822,0.27234
0.00923,0.98992,0.14128,0.00554,-0.12591,0.19788
0.00178,0.9865,0.16374,0.21737,0.04091,0.00818
-0.0058,0.98308,0.18308,0.17312,0.08774,-0.15556
-0.01183,0.97915,0.20278,-0.00044,-0.06373,-0.12833
-0.01959,0.975,0.22131,0.01156,-0.05516,-0.07279
-0.03148,0.97031,0.2398,0.11403,-0.0009,-0.04404
-0.04708,0.96478,0.2588,0.14403,0.02665,-0.16
-0.06587,0.95828,0.27812,0.08939,0.07582,-0.19613
-0.08685,0.95057,0.29808,-0.02879,0.16994,-0.20603
-0.10808,0.94228,0.31688,0.10985,0.12365,-0.35098
-0.13014,0.93421,0.33213,0.21688,0.13425,-0.34889
-0.15257,0.92754,0.34114,0.24015,0.30834,-0.44729
-0.17191,0.9235,0.3429,0.18228,0.30469,-0.5031
-0.18719,0.92209,0.33866,0.25241,0.25734,-0.38478
-0.19918,0.92298,0.32927,0.20658,0.25723,-0.59252
-0.21022,0.92532,0.31556,0.12345,0.18378,-0.56205
-0.22303,0.93001,0.29209,0.07131,0.15185,-0.47082
-0.23447,0.93822,0.25447,0.1717,0.26069,-0.47734
-0.24104,0.94872,0.20451,0.31279,0.1,-0.15024
-0.23193,0.96121,0.14927,0.35455,0.31174,-0.15003
-0.2087,0.97294,0.0991,0.10566,0.56762,0.19543
-0.18341,0.98166,0.05196,-0.13643,0.68451,0.2976
-0.16183,0.98681,0.00368,-0.27173,0.54278,0.27296
-0.14024,0.98905,-0.0459,-0.41213,0.30896,0.14318
-0.11542,0.98915,-0.09079,-0.41198,0.25032,0.06151
-0.09187,0.98846,-0.12038,-0.19923,0.10848,0.15859
-0.06659,0.98694,-0.14664,0.02188,-0.10041,0.31376
-0.04001,0.98334,-0.1773,0.05344,-0.19402,0.3438
-0.0195,0.97704,-0.21216,0.10702,-0.19243,0.31804
-0.00745,0.96849,-0.24892,0.07807,-0.18616,0.35767
0.001,0.9594,-0.28204,-0.0268,-0.20607,0.39955
0.00625,0.95074,-0.30991,-0.14999,-0.23445,0.40966
0.0092,0.94373,-0.33059,-0.2257,-0.25328,0.48927
0.01132,0.93889,-0.34404,-0.33217,-0.41111,0.56463
0.01492,0.93659,-0.35011,-0.35876,-0.44625,0.54681
0.02148,0.93637,-0.35035,-0.3648,-0.44842,0.44654
0.03239,0.93854,-0.34364,-0.30427,-0.43846,0.1778
0.04256,0.94279,-0.33064,-0.25989,-0.42616,0.14827
0.04944,0.94971,-0.3092,-0.1949,-0.3671,0.00091
0.05399,0.95805,-0.28147,0.00199,-0.15193,-0.31402
0.05254,0.96406,-0.26043,-0.27068,0.25103,-0.90721
0.0392,0.9656,-0.25705,0.00828,1.12205,-1.12497
0.03819,0.9636,-0.26457,0.11334,0.6039,-0.38083
0.04514,0.95985,-0.27686,-0.02507,0.14281,-0.28148
0.04897,0.95559,-0.29058,-0.26104,-0.30168,-0.18183
0.04769,0.95588,-0.28985,-0.39289,0.12531,-0.04755
0.03209,0.96186,-0.27163,-0.43344,0.7482,0.61609
0.02265,0.96229,-0.27108,-0.24566,0.6959,0.65314
0.01953,0.95939,-0.28139,-0.35957,-0.50488,1.02471
0.02067,0.96541,-0.25992,-0.45347,-0.98942,0.5421
0.02029,0.97746,-0.21013,-0.29841,-0.64939,0.37969
0.01886,0.98919,-0.14538,0.27698,0.74677,0.74351
0.02051,0.99583,-0.08883,0.37277,0.91739,0.72042
0.01979,0.99826,-0.0555,0.17273,0.00684,0.0091
0.01036,0.9995,-0.02975,0.04729,-0.08045,-0.08408
-0.00753,0.99997,-0.00047,-0.31346,-0.18924,-0.0649
-0.02109,0.99923,0.03277,-0.45688,-0.17585,0.1794
-0.02641,0.99755,0.06477,-0.35851,-0.11868,0.21551
-0.03399,0.99498,0.09406,0.06376,-0.03345,0.08849
-0.04441,0.99188,0.11913,0.25597,-0.01042,-0.05134
-0.05303,0.98883,0.13928,0.28021,-0.01231,-0.08953
-0.0592,0.98554,0.15872,0.03399,-0.03606,-0.08673
-0.06427,0.98186,0.17833,0.03219,-0.09267,0.06448
-0.07132,0.9776,0.19798,0.11602,-0.07956,0.02836
-0.08117,0.97235,0.21895,0.09752,-0.00856,-0.11378
-0.09403,0.96612,0.24031,-0.03596,0.06444,-0.18042
-0.11005,0.95885,0.26167,-0.11356,0.08718,-0.22662
-0.1285,0.95086,0.28168,0.05689,0.07734,-0.28339
-0.14706,0.94315,0.29805,0.25025,0.19557,-0.27275
-0.1654,0.93668,0.30863,0.26859,0.20203,-0.28334
-0.18113,0.93206,0.31376,0.2066,0.27522,-0.31835
-0.19421,0.92938,0.31388,0.28551,0.26154,-0.25241
-0.20604,0.92755,0.31175,0.33864,0.3058,-0.32394
-0.21631,0.92638,0.30824,0.30986,0.31228,-0.40288
-0.22598,0.92629,0.30151,0.18194,0.33526,-0.41634
-0.23475,0.92872,0.28698,0.1322,0.3913,-0.48863
-0.24258,0.93511,0.25829,0.0982,0.31707,-0.31257
-0.24525,0.94569,0.21332,0.07368,0.11971,-0.18768
-0.2387,0.95775,0.1604,0.08291,0.17044,-0.12432
-0.22118,0.9695,0.10557,-0.00093,0.27234,0.00137
-0.20028,0.97827,0.05347,-0.21237,0.4666,0.25886
-0.18224,0.98325,0.00137,-0.35739,0.49913,0.22721
-0.16444,0.98496,-0.05295,-0.40567,0.29792,0.22053
-0.14222,0.98449,-0.1027,-0.39655,0.2003,0.0823
-0.12237,0.98218,-0.14263,-0.24311,0.21423,0.26103
-0.10182,0.97864,-0.17859,0.01317,0.05209,0.30031
-0.0781,0.97328,-0.21591,0.08941,-0.11845,0.32968
-0.05847,0.96566,-0.25314,0.06094,-0.19352,0.32346
-0.04767,0.95628,-0.28851,0.02501,-0.22801,0.39137
-0.04102,0.94603,-0.32145,0.00251,-0.28325,0.41552
-0.03757,0.93628,-0.34923,-0.15505,-0.34993,0.40898
-0.03612,0.92832,-0.37001,-0.20987,-0.35099,0.46983
-0.03547,0.92255,-0.38423,-0.27653,-0.37556,0.51895
-0.03308,0.92035,-0.38968,-0.28627,-0.44738,0.51621
-0.02718,0.92239,-0.38531,-0.25996,-0.477,0.45491
-0.01797,0.92764,-0.37303,-0.14504,-0.43529,0.31979
-0.00689,0.93512,-0.35424,-0.01192,-0.39475,0.05288
0.00261,0.94492,-0.32728,-0.04739,-0.35109,-0.05129
0.00816,0.95581,-0.29386,-0.23689,0.00266,-0.56876
0.00667,0.96337,-0.26808,-0.28443,0.24465,-0.83916
-0.00409,0.9649,-0.26258,-0.0097,1.41045,-0.88796
-0.00998,0.96239,-0.27148,0.27452,0.87401,-0.57659
-0.01048,0.9574,-0.28855,0.01077,0.32545,-0.28933
-0.00623,0.95299,-0.30293,-0.41773,-0.36167,-0.06856
-0.00049,0.95334,-0.30188,-0.41019,-0.07463,-0.18237
-0.00449,0.95896,-0.28348,-0.17303,0.47053,0.41115
-0.00977,0.9644,-0.26427,-0.05662,0.76516,0.71603
-0.00294,0.96202,-0.27293,-0.29917,-0.06792,0.77747
0.00405,0.9628,-0.27015,-0.39295,-0.93549,0.69869
0.01195,0.97369,-0.22753,-0.40482,-0.84544,0.26201
0.00969,0.98479,-0.17344,0.07032,0.43364,0.62438
-0.00151,0.99288,-0.11907,0.22766,0.67399,0.59256
-0.00809,0.99705,-0.07626,0.2861,0.64091,0.57835
-0.01428,0.99834,-0.0558,0.25748,0.06514,-0.049
-0.02782,0.99904,-0.03383,0.03736,-0.09231,-0.10268
-0.04593,0.99894,-0.00194,-0.08555,-0.13196,-0.02666
-0.05651,0.99799,0.0284,-0.24363,-0.12262,0.17729
-0.06289,0.99657,0.05362,-0.03573,-0.0179,0.02419
-0.07317,0.99392,0.08213,0.03983,0.03623,-0.03226
-0.08313,0.99047,0.1097,0.16267,-0.0802,-0.01958
-0.09276,0.98673,0.13324,0.03248,-0.11066,-0.03504
-0.10205,0.98255,0.15544,0.0124,-0.07395,-0.02229
-0.11195,0.97765,0.17792,0.02656,-0.05298,0.01007
-0.12249,0.97188,0.20109,0.09367,-0.02237,-0.07766
-0.13383,0.96528,0.22431,0.08326,0.04145,-0.13626
-0.14765,0.95749,0.2478,-0.02961,0.09296,-0.18826
-0.1646,0.9486,0.27026,-0.11575,0.11696,-0.25469
-0.18325,0.93967,0.28883,-0.02719,0.11673,-0.33081
-0.20226,0.9317,0.30169,0.25452,0.21448,-0.26801
-0.22065,0.92544,0.30799,0.38566,0.33219,-0.33184
-0.23566,0.92169,0.30812,0.33046,0.25088,-0.31916
-0.24843,0.91976,0.3038,0.39695,0.27492,-0.35342
-0.2579,0.91939,0.29697,0.37565,0.35009,-0.44866
-0.26571,0.92049,0.28649,0.28721,0.37245,-0.35848
-0.26978,0.92524,0.26671,0.15396,0.51881,-0.49386
-0.27177,0.9344,0.23026,0.01751,0.41092,-0.33063
-0.26945,0.9462,0.17911,-0.0534,0.17907,-0.22333
-0.25915,0.9583,0.12038,0.01658,0.0954,-0.11285
-0.24061,0.96835,0.06627,-0.07831,0.38344,0.30517
-0.22203,0.97494,0.01362,-0.17692,0.4811,0.22161
-0.20359,0.9783,-0.03821,-0.27193,0.4685,0.17877
-0.18143,0.97946,-0.08787,-0.37666,0.19311,0.1261
-0.15823,0.97889,-0.12932,-0.3631,0.17171,0.16593
-0.13504,0.97765,-0.16111,-0.05107,0.08273,0.31826
-0.10845,0.97515,-0.19313,0.06915,-0.00781,0.35492
-0.0823,0.96989,-0.22919,0.16041,-0.18315,0.295
-0.06383,0.9624,-0.26402,0.12269,-0.20886,0.35382
-0.05282,0.95327,-0.29746,0.07685,-0.22431,0.42579
-0.04703,0.94268,-0.33035,-0.10072,-0.28503,0.42842
-0.04539,0.93309,-0.35675,-0.20599,-0.32465,0.47072
-0.04649,0.92548,-0.37593,-0.24805,-0.34586,0.50781
-0.04744,0.92101,-0.38663,-0.25765,-0.45569,0.52217
-0.04544,0.92096,-0.387,-0.23047,-0.48179,0.47194
-0.04077,0.92511,-0.37749,-0.20898,-0.47229,0.42908
-0.03444,0.93254,-0.3594,-0.01988,-0.38382,0.20734
-0.02676,0.94257,-0.33292,-0.03485,-0.29786,0.01428
-0.01885,0.95432,-0.29819,-0.12751,-0.24477,-0.13594
-0.01342,0.9636,-0.267,-0.32902,0.29036,-0.96208
-0.01879,0.96555,-0.25953,-0.43503,1.45311,-1.19581
-0.02541,0.96039,-0.27747,0.51121,1.34593,-0.81412
-0.02714,0.9517,-0.30582,0.01744,-0.11075,-0.21128
-0.02853,0.94559,-0.3241,-0.37336,-0.8718,0.02112
-0.02452,0.94533,-0.32518,-0.17863,-0.6256,0.13855
-0.0237,0.95317,-0.30149,-0.06813,-0.40439,0.61916
-0.03032,0.96937,-0.2437,-0.19411,0.19065,1.55999
-0.03286,0.97846,-0.20379,-0.55157,2.19117,-1.25019
-0.04371,0.97098,-0.23511,-0.46067,1.05195,-0.19403
-0.05402,0.97265,-0.2259,-0.05867,-0.96964,1.29922
-0.04578,0.9827,-0.17945,-0.26574,-0.77229,0.16323
-0.04759,0.99009,-0.13208,-0.22117,-0.30027,0.30591
-0.06204,0.99477,-0.08104,0.03216,0.45733,0.60883
-0.06898,0.99666,-0.04346,0.18605,0.53543,0.4086
-0.07537,0.99687,-0.02359,0.25521,0.26247,-0.07644
-0.08623,0.99626,-0.00462,0.09961,-0.04814,-0.24054
-0.09464,0.99523,0.02339,-0.1515,-0.16631,0.17859
-0.0992,0.99374,0.05125,-0.0602,-0.1681,0.31829
-0.10523,0.9916,0.07505,0.06718,-0.12629,0.06767
-0.11301,0.98869,0.09856,0.08158,-0.10107,-0.15885
-0.12101,0.98504,0.12265,0.09516,-0.12172,-0.13487
-0.12979,0.98085,0.14517,0.05505,-0.13154,0.02819
-0.13975,0.97586,0.16777,0.03714,-0.07198,0.05383
-0.15228,0.96962,0.19139,0.08738,-0.01518,-0.06753
-0.16655,0.96196,0.21649,0.10398,0.0027,-0.18027
-0.182,0.9533,0.24097,0.05482,0.10198,-0.23329
-0.19827,0.94434,0.26245,0.01631,0.09881,-0.3347
-0.21473,0.93589,0.27924,0.03596,0.18619,-0.35616
-0.23118,0.92872,0.28986,0.20619,0.325,-0.33391
-0.24653,0.92364,0.29342,0.36395,0.3072,-0.29214
-0.258,0.92121,0.29118,0.4782,0.35835,-0.29404
-0.26549,0.92034,0.28718,0.42347,0.41362,-0.37778
-0.27058,0.92028,0.28258,0.24301,0.35882,-0.44913
-0.27642,0.92169,0.27216,0.13028,0.48379,-0.53546
-0.28225,0.92582,0.25132,0.15701,0.47318,-0.52679
-0.28825,0.93317,0.21467,0.14875,0.35663,-0.31571
-0.28777,0.94351,0.16418,0.04664,0.04271,-0.19227
-0.27689,0.95475,0.10845,0.02305,0.0497,-0.07813
-0.25541,0.9651,0.05765,0.01083,0.28845,0.28714
-0.23209,0.97265,0.00772,-0.21698,0.60599,0.14573
-0.20846,0.97719,-0.04035,-0.28579,0.39464,0.1375
-0.18275,0.97904,-0.08985,-0.34171,0.23953,0.14997
-0.15916,0.979,-0.12731,-0.40055,0.32727,0.1402
-0.13884,0.97835,-0.1534,-0.17441,0.08752,0.33992
-0.11365,0.97528,-0.18946,0.05132,-0.13371,0.38839
-0.09071,0.96831,-0.23265,0.13713,-0.23504,0.33816
-0.07671,0.9581,-0.27595,0.10759,-0.30425,0.38241
-0.0688,0.94636,-0.31568,0.03637,-0.3227,0.40592
-0.06787,0.93478,-0.34866,-0.10524,-0.31071,0.43916
-0.07014,0.92495,-0.37353,-0.17066,-0.30621,0.47061
-0.07345,0.91707,-0.39188,-0.25688,-0.34482,0.54856
-0.0749,0.91251,-0.40212,-0.23931,-0.45032,0.55068
-0.07169,0.91244,-0.40287,-0.2293,-0.52378,0.46939
-0.06486,0.91673,-0.3942,-0.13874,-0.50923,0.34318
-0.05584,0.92476,-0.37642,-0.01153,-0.46776,0.17992
-0.04387,0.93651,-0.34786,-0.12202,-0.25039,-0.24492
-0.03139,0.94965,-0.3117,-0.235,-0.13548,-0.55054
-0.02422,0.95787,-0.28615,-0.45195,0.40678,-1.26306
-0.03505,0.95956,-0.27929,-0.26805,1.66729,-1.09539
-0.04,0.95497,-0.29396,0.32422,1.13102,-0.44532
-0.04233,0.94588,-0.32173,-0.11069,-0.16637,-0.05305
-0.03936,0.93998,-0.33894,-0.50917,-0.66031,-0.11174
-0.03487,0.94251,-0.33233,-0.45753,-0.4462,-0.08837
-0.04166,0.9544,-0.29559,-0.12124,0.08559,0.77357
-0.04727,0.96454,-0.25962,-0.45946,1.12835,0.32864
-0.04694,0.96081,-0.27317,-0.55458,0.94017,0.16533
-0.05637,0.96158,-0.26864,-0.30291,-0.60666,0.73731
-0.05654,0.97318,-0.22295,0.03791,-0.60238,0.52214
-0.05232,0.98457,-0.16693,0.15431,-0.21152,0.64489
-0.04722,0.9929,-0.10908,0.30792,0.4805,0.67364
-0.0484,0.99641,-0.06937,0.1733,0.23724,0.1128
-0.06068,0.9975,-0.03591,0.11593,0.11519,-0.02412
-0.08011,0.99676,-0.00559,-0.22177,-0.11093,-0.04124
-0.09484,0.99514,0.02616,-0.30963,-0.13573,0.03225
-0.10304,0.99283,0.06042,-0.2635,-0.19083,0.22173
-0.11222,0.98959,0.08995,0.0952,-0.14725,0.12648
-0.12095,0.98561,0.118,0.18524,-0.09437,-0.04999
-0.12738,0.98118,0.14501,0.20688,-0.09181,-0.15984
-0.13334,0.97659,0.16874,-0.00842,-0.06513,-0.09148
-0.14032,0.97156,0.19065,-0.03493,-0.05601,-0.05552
-0.14957,0.96542,0.21345,0.04457,-0.0099,-0.0771
-0.16202,0.95765,0.23797,0.10126,0.0966,-0.14309
-0.17817,0.94825,0.26279,-0.0599,0.16177,-0.18823
-0.1966,0.93786,0.28589,-0.10352,0.12363,-0.29985
-0.21567,0.92803,0.30368,0.15787,0.22337,-0.24824
-0.23352,0.92004,0.31461,0.39349,0.37266,-0.36632
-0.24879,0.91473,0.31835,0.39219,0.38161,-0.36961
-0.25966,0.91212,0.31715,0.30374,0.30709,-0.36045
-0.26751,0.91135,0.3128,0.21602,0.37968,-0.46835
-0.27404,0.91199,0.30521,0.09389,0.35475,-0.3918
-0.28099,0.91573,0.28717,-0.00049,0.51161,-0.51851
-0.28752,0.92311,0.2553,0.00361,0.39061,-0.48596
-0.29302,0.93403,0.2042,0.08521,0.13056,-0.23405
-0.28778,0.94655,0.14559,0.17922,0.09903,-0.12719
-0.27058,0.9585,0.08971,0.02484,0.35057,0.25325
-0.25041,0.96741,0.03743,-0.09678,0.48416,0.2777
-0.23243,0.9725,-0.01384,-0.21744,0.55229,0.12067
-0.21199,0.97511,-0.06475,-0.32365,0.27006,0.08782
-0.19027,0.97599,-0.10596,-0.36783,0.25355,0.25282
-0.17483,0.97548,-0.13366,-0.28434,0.17989,0.31011
-0.15668,0.97394,-0.16395,-0.16565,-0.07904,0.3417
-0.13336,0.97026,-0.20196,0.03082,-0.11501,0.36439
-0.11397,0.96329,-0.24304,0.11026,-0.18401,0.34865
-0.10059,0.95379,-0.28312,0.07381,-0.22944,0.4094
-0.09116,0.94345,-0.31871,-0.00274,-0.33136,0.42912
-0.08743,0.93378,-0.34698,-0.12683,-0.39226,0.48278
-0.08906,0.92494,-0.36952,-0.20046,-0.41291,0.56837
-0.0921,0.91829,-0.38502,-0.17597,-0.48685,0.58979
-0.09321,0.9159,-0.39042,-0.14742,-0.52186,0.55805
-0.09071,0.91841,-0.38506,-0.13561,-0.52367,0.40333
-0.08604,0.92505,-0.36996,-0.04326,-0.42596,0.23564
-0.07846,0.93555,-0.34436,-0.00542,-0.32295,0.08359
-0.06855,0.948,-0.31078,-0.11793,-0.13495,-0.23486
-0.05979,0.95767,-0.28156,-0.43008,0.19959,-0.92263
-0.06086,0.96046,-0.27165,-0.51515,1.2011,-1.26385
-0.06287,0.95688,-0.28355,0.22478,1.43272,-0.76987
-0.06454,0.94944,-0.30723,0.02496,0.10003,-0.20969
-0.06547,0.94373,-0.32414,-0.38366,-0.62382,-0.03538
-0.06278,0.94391,-0.32416,-0.41232,-0.53096,-0.13098
-0.06958,0.95096,-0.30137,-0.16869,0.21588,0.76587
-0.08532,0.96027,-0.26566,-0.32677,0.67843,0.82404
-0.08984,0.95931,-0.26764,-0.43761,0.6433,0.42635
-0.09552,0.95867,-0.26798,-0.04506,-0.5947,0.7085
-0.09466,0.96866,-0.22959,0.00129,-0.44948,0.50005
-0.09092,0.97948,-0.1798,0.04631,-0.1356,0.5991
-0.09291,0.98774,-0.12541,0.06696,0.15342,0.58391
-0.0982,0.99217,-0.07699,0.1589,0.43727,0.36852
-0.1083,0.99313,-0.04415,0.13054,0.15269,0.0312
-0.12007,0.99259,-0.01835,0.08378,0.0668,-0.113
-0.12753,0.99175,0.0123,-0.26662,-0.12367,0.10408
-0.12852,0.99061,0.04647,-0.07239,-0.11568,0.18679
-0.13232,0.98816,0.07746,0.01149,-0.08918,0.17521
-0.13876,0.98474,0.10497,0.16221,-0.06469,0.00356
-0.14571,0.98081,0.12942,0.20326,-0.07543,-0.18744
-0.15318,0.97642,0.15205,0.15458,-0.05764,-0.19332
-0.16177,0.97096,0.17622,0.02335,-0.06516,-0.00889
-0.17213,0.96464,0.19953,0.03037,0.0156,-0.10213
-0.18488,0.9574,0.22178,0.00664,0.04163,-0.17206
-0.19963,0.94905,0.24376,-0.08325,0.07182,-0.19589
-0.21633,0.93963,0.26509,-0.07116,0.1059,-0.25136
-0.2332,0.92984,0.28459,0.14618,0.13109,-0.2837
-0.24991,0.92114,0.29835,0.30634,0.25736,-0.28516
-0.26464,0.91463,0.30561,0.25221,0.27657,-0.32795
-0.27638,0.91063,0.30715,0.20462,0.22791,-0.27656
-0.28579,0.90842,0.30508,0.26084,0.29495,-0.29768
-0.29379,0.90752,0.30011,0.22042,0.32441,-0.43374
-0.30125,0.90816,0.29063,0.11385,0.28163,-0.41528
-0.30953,0.91166,0.27026,0.1328,0.36745,-0.41861
-0.31768,0.91807,0.23706,0.17864,0.32609,-0.37207
-0.32118,0.92795,0.18903,0.20224,0.18697,-0.15388
-0.31286,0.93999,0.13608,0.23436,0.24574,-0.0026
-0.29424,0.95182,0.08623,0.05495,0.35139,0.17932
-0.27395,0.96105,0.03635,-0.2071,0.57719,0.26132
-0.25597,0.96659,-0.01297,-0.33657,0.51115,0.19565
-0.23596,0.96977,-0.06211,-0.30877,0.17893,0.07975
-0.21532,0.97125,-0.10141,-0.26138,0.19223,0.11449
-0.19778,0.97118,-0.13293,-0.10758,0.12792,0.30697
-0.17674,0.97023,-0.16553,0.13801,-0.07713,0.37022
-0.15267,0.96678,-0.20496,0.13035,-0.10364,0.35092
-0.1337,0.96085,-0.24263,0.14934,-0.09553,0.34273
-0.11919,0.95303,-0.27841,0.07662,-0.19612,0.50072
-0.11022,0.9428,-0.31458,0.03255,-0.22727,0.52335
-0.1069,0.93145,-0.34779,-0.13698,-0.29139,0.46
-0.1067,0.92194,-0.37232,-0.21916,-0.38445,0.54482
-0.10705,0.91531,-0.38823,-0.22653,-0.43771,0.57943
-0.10599,0.91252,-0.39504,-0.19468,-0.52688,0.50746
-0.10032,0.91445,-0.39204,-0.19375,-0.52876,0.42627
-0.09196,0.92029,-0.38027,-0.12842,-0.51495,0.26325
-0.08202,0.92957,-0.35939,-0.11352,-0.33539,-0.13028
-0.07198,0.94107,-0.33043,-0.14551,-0.23117,-0.29576
-0.06392,0.95059,-0.30376,-0.22434,-0.04036,-0.50978
-0.06705,0.95423,-0.29143,-0.35971,1.30492,-0.94012
-0.07457,0.95038,-0.30199,0.18404,1.46817,-0.7926
-0.07432,0.94259,-0.32555,0.17523,0.66598,-0.43557
-0.07419,0.93639,-0.34301,-0.36673,-0.67784,-0.10268
-0.06899,0.93635,-0.34419,-0.45792,-0.50255,-0.15766
-0.06921,0.9435,-0.32404,-0.49232,-0.21795,-0.11035
-0.08548,0.95366,-0.28844,-0.20162,0.51522,1.07308
-0.09775,0.95593,-0.2768,-0.31703,0.6754,1.0025
-0.10095,0.95299,-0.28565,-0.24495,-0.19378,0.76589
-0.10088,0.9603,-0.26005,-0.07369,-0.74404,0.55593
-0.09705,0.97313,-0.20876,0.19218,-0.00194,0.71378
-0.09147,0.98374,-0.1545,0.25275,0.32575,0.61071
-0.08842,0.99034,-0.10674,0.25877,0.47367,0.43487
-0.09198,0.99303,-0.07351,0.16561,0.13031,0.06834
-0.10462,0.99358,-0.04282,0.02422,-0.06023,-0.05496
-0.11491,0.99331,-0.01015,-0.33953,-0.07345,0.07104
-0.11638,0.99296,0.02144,-0.21282,-0.09843,0.10036
-0.12223,0.99102,0.05389,-0.03164,-0.12153,0.09626
-0.12768,0.98793,0.08754,0.12543,-0.09067,0.10929
-0.13437,0.98395,0.11733,0.20492,-0.06132,-0.03209
-0.14182,0.97933,0.14409,0.12426,-0.05824,-0.19575
-0.15129,0.97363,0.17066,0.10795,-0.08133,-0.16763
-0.16248,0.96671,0.19759,0.05138,-0.04795,-0.01571
-0.17558,0.95848,0.22462,0.08348,0.0692,-0.13962
-0.19096,0.94887,0.25128,0.12323,0.17697,-0.26032
-0.20732,0.93853,0.27596,0.0235,0.14384,-0.34796
-0.22332,0.92909,0.29477,-0.09547,0.1409,-0.33763
-0.23964,0.92145,0.30573,0.05598,0.28123,-0.28829
-0.2553,0.91595,0.30955,0.3068,0.33504,-0.29716
-0.26787,0.9128,0.30824,0.38482,0.31226,-0.23069
-0.27535,0.9122,0.30339,0.34113,0.35262,-0.34752
-0.27978,0.91345,0.29547,0.0703,0.31705,-0.38014
-0.28448,0.91698,0.27963,0.05525,0.35748,-0.39674
-0.28941,0.92388,0.25029,0.14235,0.47719,-0.42378
-0.29222,0.93414,0.20482,0.13346,0.21477,-0.27926
-0.28577,0.9463,0.15104,0.08292,0.13275,-0.1961
-0.27011,0.95797,0.09646,-0.0599,0.25828,0.27823
-0.25394,0.96625,0.04287,-0.14509,0.41546,0.35349
-0.24076,0.9705,-0.01216,-0.24912,0.60259,0.06964
-0.22284,0.97273,-0.06408,-0.34948,0.29159,0.13633
-0.20115,0.97379,-0.10603,-0.34986,0.24508,0.15851
-0.18371,0.97334,-0.13728,-0.34294,0.23336,0.35493
-0.16412,0.97151,-0.17089,-0.17193,0.03689,0.37107
-0.14005,0.9672,-0.21186,0.12836,-0.12445,0.30312
-0.12009,0.95982,-0.25357,0.17822,-0.15581,0.31749
-0.10493,0.95056,-0.29223,0.14616,-0.32564,0.41669
-0.09575,0.93993,-0.32764,0.08852,-0.34975,0.45051
-0.09299,0.9292,-0.35767,-0.07315,-0.3616,0.47095
-0.09436,0.92005,-0.38023,-0.24071,-0.42309,0.60441
-0.09594,0.91344,-0.39548,-0.22787,-0.49452,0.60167
-0.09496,0.91061,-0.4022,-0.16894,-0.53124,0.50161
-0.09046,0.9116,-0.40098,-0.07581,-0.50988,0.32738
-0.08203,0.91622,-0.39216,0.00452,-0.46025,0.08538
-0.06958,0.92513,-0.37319,-0.07573,-0.35311,-0.15853
-0.05419,0.93556,-0.34897,-0.22111,-0.07026,-0.58191
-0.04582,0.94195,-0.3326,-0.45615,0.52522,-0.95994
-0.05586,0.94256,-0.32929,-0.41583,1.00208,-0.94982
-0.06738,0.93747,-0.34146,0.1337,0.71271,-0.36156
-0.0762,0.93088,-0.35727,-0.12827,0.02467,-0.07193
-0.0808,0.92708,-0.36603,-0.42875,-0.1143,-0.14918
-0.08118,0.9299,-0.35872,-0.69384,0.3432,-0.15449
-0.08825,0.93457,-0.34464,-0.60093,0.56647,0.28884
-0.0938,0.93307,-0.34721,-0.39736,0.01924,1.12729
-0.10117,0.93358,-0.34377,-0.28859,-0.88254,1.11844
-0.10649,0.94462,-0.31038,-0.10227,-0.85929,0.52891
-0.10582,0.962,-0.25169,0.30658,-0.13265,0.54364
-0.0935,0.97698,-0.19167,0.51957,0.76453,0.83415
-0.08748,0.98544,-0.1457,0.28232,0.30422,0.16742
-0.08929,0.98989,-0.11011,0.22823,0.13298,0.04294
-0.09799,0.99244,-0.07379,0.02853,-0.04386,0.02028
-0.10739,0.99363,-0.03371,-0.30927,-0.07092,0.1277
-0.10773,0.99417,0.00079,-0.3027,-0.12194,0.06775
-0.11549,0.99277,0.03219,-0.20607,-0.17591,0.00247
-0.1242,0.99013,0.06481,0.0978,-0.0005,0.13878
-0.13222,0.98664,0.09497,0.17965,0.00896,0.12375
-0.13912,0.98265,0.12253,0.24342,-0.0674,-0.0952
-0.14667,0.97803,0.14801,0.13789,-0.09269,-0.23636
-0.15673,0.97203,0.17485,-0.00531,-0.1085,-0.05648
-0.17034,0.96445,0.20199,0.10199,0.06423,-0.16305
-0.18667,0.95537,0.22887,0.11833,0.0733,-0.18993
-0.20493,0.94547,0.25311,0.06115,0.16241,-0.29899
-0.22247,0.93577,0.27352,-0.01485,0.16859,-0.28974
-0.24049,0.9269,0.28807,0.09332,0.2543,-0.28248
-0.25774,0.9199,0.29551,0.32526,0.37119,-0.29192
-0.27207,0.9155,0.29633,0.36744,0.3475,-0.23679
-0.2818,0.9134,0.2937,0.37201,0.37263,-0.39635
-0.28896,0.9127,0.28887,0.22981,0.33513,-0.49503
-0.29638,0.91346,0.27877,0.05322,0.23768,-0.48936
-0.30646,0.9169,0.25564,0.07213,0.32422,-0.45673
-0.31622,0.92363,0.21653,0.20975,0.3557,-0.38093
-0.31915,0.93373,0.16203,0.31402,0.14108,-0.14543
-0.30603,0.94616,0.1053,0.30829,0.22251,0.02055
-0.28206,0.95797,0.05209,-0.08892,0.5119,0.26651
-0.25897,0.96587,0.0005,-0.34813,0.66598,0.06371
-0.24027,0.96932,-0.05153,-0.34797,0.50716,0.15287
-0.21865,0.97035,-0.10293,-0.31221,0.34685,0.16976
-0.20072,0.96983,-0.13831,-0.29706,0.20727,0.36395
-0.18519,0.96773,-0.17081,-0.17873,0.02212,0.4657
-0.1607,0.96416,-0.21105,0.13382,-0.16979,0.34914
-0.13717,0.9573,-0.25444,0.21499,-0.30595,0.3476
-0.12276,0.9469,-0.29713,0.22018,-0.34702,0.45996
-0.11372,0.93596,-0.33321,0.10106,-0.37582,0.50712
-0.11079,0.92497,-0.36352,-0.08573,-0.35331,0.54641
-0.11303,0.9151,-0.38704,-0.20926,-0.35672,0.63411
-0.11762,0.90725,-0.40379,-0.21857,-0.373,0.68725
-0.12006,0.90275,-0.41305,-0.2257,-0.55755,0.59766
-0.11754,0.90254,-0.41425,-0.19322,-0.60664,0.37482
-0.10675,0.90742,-0.40642,-0.14488,-0.58197,0.23656
-0.09158,0.91648,-0.38944,-0.07846,-0.30115,-0.06379
-0.07496,0.92876,-0.36299,-0.19605,0.25451,-0.66695
-0.0595,0.93981,-0.33644,-0.31062,0.48588,-0.88992
-0.05876,0.9452,-0.32113,-0.15399,1.33617,-0.94736
-0.06779,0.94239,-0.32755,0.12145,0.76441,-0.55038
-0.07385,0.93539,-0.34579,-0.07962,-0.1024,-0.13147
-0.07819,0.93017,-0.35867,-0.27449,-0.45256,-0.16693
-0.07611,0.92954,-0.36075,-0.56778,0.02926,-0.34951
-0.08134,0.93508,-0.34496,-0.32786,0.76292,0.6021
-0.09952,0.94104,-0.32331,-0.19867,0.88552,1.23551
-0.10391,0.93493,-0.33925,-0.22896,-0.77807,0.71949
-0.09744,0.93725,-0.33473,-0.28876,-0.99159,0.34864
-0.09416,0.95166,-0.29234,-0.09978,-0.74141,0.65673
-0.09266,0.96896,-0.22916,0.20555,0.01825,1.01195
-0.08806,0.98275,-0.16258,0.28702,0.78807,0.56036
-0.09067,0.98987,-0.10912,0.29189,0.5447,0.20888
-0.09965,0.99231,-0.07324,0.03011,0.01741,-0.00504
-0.10887,0.99316,-0.04192,-0.09157,-0.10795,-0.03358
-0.1119,0.99367,-0.00852,-0.26321,-0.20842,0.10412
-0.11781,0.99266,0.02693,-0.16078,-0.22407,0.138
-0.12737,0.99013,0.0583,0.00725,-0.0979,0.12493
-0.1362,0.98691,0.0862,0.14307,0.01175,-0.00953
-0.14336,0.9831,0.11374,0.10602,-0.0913,-0.09003
-0.14875,0.97895,0.13965,-0.08749,-0.08182,-0.04939
-0.15682,0.97355,0.16608,-0.00198,-0.08839,-0.02753
-0.1692,0.96694,0.19068,0.06813,-0.03787,-0.07381
-0.18529,0.9588,0.21528,0.14116,0.04731,-0.13055
-0.2027,0.94946,0.23961,-0.0179,0.12938,-0.17995
-0.21963,0.93946,0.26294,-0.01803,0.12615,-0.25995
-0.23645,0.92969,0.28238,0.17646,0.20249,-0.34722
-0.25434,0.9209,0.29534,0.30572,0.36774,-0.33335
-0.26954,0.91478,0.30083,0.26186,0.33774,-0.33778
-0.27985,0.91168,0.30081,0.25122,0.28237,-0.31366
-0.287,0.91053,0.29756,0.24974,0.33644,-0.47654
-0.29302,0.91098,0.29021,0.1566,0.31261,-0.53821
-0.30032,0.9135,0.27441,0.04074,0.21053,-0.4325
-0.30976,0.91939,0.24238,0.2379,0.4197,-0.45412
-0.3157,0.9281,0.19733,0.30657,0.17819,-0.20639
-0.31151,0.93973,0.14087,0.29291,0.18648,-0.11218
-0.29283,0.95214,0.08752,-0.02686,0.38504,0.26847
-0.2679,0.96276,0.03589,-0.28601,0.7306,0.18117
-0.24593,0.96912,-0.01712,-0.32969,0.76489,0.10356
-0.22431,0.972,-0.06987,-0.33299,0.3965,0.18898
-0.20091,0.97233,-0.11914,-0.35669,0.35764,0.15625
-0.18291,0.97164,-0.1498,-0.29771,0.16917,0.41131
-0.16155,0.96942,-0.18465,0.02229,-0.0477,0.41763
-0.13205,0.9652,-0.22568,0.1652,-0.1361,0.3013
-0.10929,0.95726,-0.26775,0.17983,-0.2562,0.42352
-0.0962,0.94587,-0.30994,0.15432,-0.35027,0.47101
-0.09038,0.9334,-0.34725,-0.00134,-0.37767,0.53433
-0.09162,0.92108,-0.37842,-0.16286,-0.42554,0.60781
-0.09676,0.90996,-0.40322,-0.21111,-0.44286,0.6641
-0.10217,0.90165,-0.4202,-0.23415,-0.49621,0.66282
-0.10451,0.89775,-0.4279,-0.24106,-0.54859,0.56312
-0.10152,0.89853,-0.427,-0.17105,-0.53166,0.3785
-0.0924,0.90342,-0.41866,-0.04379,-0.46742,0.13819
-0.07828,0.91295,-0.40048,-0.09315,-0.31711,-0.07964
-0.06156,0.92636,-0.37155,-0.27019,-0.0058,-0.49735
-0.04901,0.93678,-0.34646,-0.56091,0.45969,-1.06938
-0.05496,0.93939,-0.33839,-0.078,1.78145,-1.1132
-0.06506,0.93328,-0.35319,0.12348,0.86972,-0.47957
-0.07144,0.92408,-0.37545,-0.11258,-0.2783,-0.11705
-0.07137,0.91866,-0.38852,-0.35284,-0.71116,-0.15387
-0.06669,0.92095,-0.38392,-0.56486,-0.08141,-0.21721
-0.08051,0.93074,-0.35668,-0.17648,0.68483,1.09388
-0.0964,0.9391,-0.32982,-0.0928,0.79795,1.15509
-0.0919,0.93505,-0.34236,-0.43833,-0.16358,0.92619
-0.08629,0.93983,-0.33053,-0.37152,-0.92323,0.23298
-0.08522,0.95594,-0.28089,-0.07959,-0.70141,0.5756
-0.07918,0.97413,-0.21161,0.39435,0.42414,0.8346
-0.0641,0.98717,-0.14613,0.35068,0.65411,0.51714
-0.06436,0.99365,-0.09212,0.21988,0.39773,0.18401
-0.07527,0.99572,-0.05332,-0.06893,0.06334,0.01604
-0.08574,0.99608,-0.02141,-0.26011,-0.10348,0.01113
-0.0902,0.99587,0.00953,-0.27053,-0.15587,0.0398
-0.09795,0.99436,0.04037,-0.14265,-0.13218,0.17743
-0.10635,0.99171,0.07189,0.07112,-0.05374,0.13426
-0.11436,0.98834,0.10044,0.13247,-0.05341,0.02639
-0.12201,0.9842,0.12823,0.07513,-0.07259,-0.00513
-0.13174,0.97903,0.15531,0.08486,-0.06742,-0.03222
-0.14348,0.97222,0.18486,-0.01491,-0.06946,0.0081
-0.15915,0.96389,0.21345,0.05765,0.03678,-0.13396
-0.17854,0.954,0.24078,0.10557,0.0655,-0.17564
-0.19928,0.94354,0.26453,0.07014,0.18899,-0.30395
-0.2182,0.93311,0.28576,0.14964,0.21221,-0.31001
-0.23624,0.92353,0.30208,0.24545,0.37301,-0.32516
-0.25396,0.91575,0.31124,0.25359,0.38022,-0.33972
-0.26763,0.9106,0.31487,0.20565,0.30297,-0.32714
-0.27638,0.9082,0.31424,0.25576,0.29588,-0.35255
-0.28388,0.90756,0.30937,0.16947,0.31943,-0.50523
-0.29147,0.90878,0.29854,0.05422,0.28018,-0.39686
-0.30114,0.91323,0.27438,0.14578,0.3066,-0.51623
-0.3066,0.92182,0.23709,0.31862,0.33531,-0.23276
-0.30296,0.93465,0.18606,0.378,0.3587,-0.07001
-0.28619,0.94895,0.13249,0.02661,0.35903,0.02867
-0.26273,0.96173,0.07766,-0.35644,0.52408,0.24552
-0.24273,0.9698,0.02351,-0.34945,0.54911,0.13754
-0.22677,0.97341,-0.03199,-0.2908,0.33115,0.12688
-0.20693,0.97477,-0.08356,-0.32808,0.32472,0.06899
-0.18941,0.97437,-0.12124,-0.41406,0.2591,0.30999
-0.17276,0.97189,-0.15987,-0.14517,0.00614,0.42098
-0.1489,0.9677,-0.2034,0.07288,-0.11293,0.36987
-0.12592,0.96008,-0.24976,0.15993,-0.14842,0.39107
-0.10811,0.94931,-0.29513,0.1827,-0.19823,0.46401
-0.09713,0.93619,-0.33777,0.09285,-0.29043,0.49855
-0.09156,0.92256,-0.37481,-0.07586,-0.33077,0.50466
-0.09263,0.90943,-0.40539,-0.20992,-0.39657,0.57318
-0.09796,0.89809,-0.42874,-0.20196,-0.47114,0.63087
-0.10248,0.89078,-0.44271,-0.1671,-0.55274,0.60926
-0.10404,0.88828,-0.44735,-0.10129,-0.57811,0.44446
-0.10254,0.89061,-0.44303,-0.05331,-0.55222,0.35098
-0.09655,0.89803,-0.42919,-0.00554,-0.52225,0.22295
-0.08666,0.91136,-0.40236,-0.07641,-0.31375,-0.13269
-0.07396,0.92641,-0.36915,-0.30065,0.03749,-0.66814
-0.06741,0.93536,-0.3472,-0.54182,0.80563,-1.1102
-0.07762,0.93566,-0.34425,-0.01268,1.92239,-1.01653
-0.08211,0.92834,-0.36253,0.08736,0.46274,-0.34672
-0.08693,0.91977,-0.3827,-0.16717,-0.44458,-0.00108
-0.08899,0.91554,-0.39225,-0.31576,-0.82818,-0.24343
-0.09128,0.91821,-0.38542,-0.33509,-0.40492,-0.0496
-0.10195,0.93229,-0.34702,0.03235,0.40324,1.79577
-0.11181,0.94698,-0.30119,-0.3876,0.9237,1.01747
-0.10001,0.94494,-0.31154,-0.64314,1.18376,-0.05851
-0.10789,0.94556,-0.30701,-0.03127,-0.92017,0.66932
-0.10226,0.96061,-0.25835,0.00224,-0.88171,0.57376
-0.09502,0.97528,-0.19944,0.0811,-0.37111,0.75174
-0.0911,0.98648,-0.13617,0.18731,0.55556,0.51996
-0.0972,0.99192,-0.08143,0.17561,0.53393,0.37015
-0.10724,0.99322,-0.04463,0.10069,0.25959,0.07056
-0.11322,0.99339,-0.01848,-0.04624,-0.03436,-0.03238
-0.1181,0.99291,0.01209,-0.13271,-0.11772,0.08743
-0.12203,0.99144,0.0462,-0.08075,-0.15587,0.169
-0.12649,0.98907,0.07558,0.04233,-0.07929,0.11365
-0.13277,0.98604,0.10035,0.07427,-0.04845,-0.05465
-0.13849,0.98239,0.12533,0.05267,-0.03288,-0.0894
-0.14694,0.97752,0.15106,-0.04083,-0.23326,-0.03324
-0.15834,0.97146,0.17651,0.01223,-0.20291,-0.05595
-0.17312,0.96476,0.19808,0.09229,-0.10613,-0.08122
-0.19017,0.95712,0.21846,0.04573,0.17064,-0.15341
-0.20887,0.94808,0.23974,-0.0962,0.15413,-0.18668
-0.22662,0.93823,0.26139,-0.06426,0.11952,-0.22939
-0.24541,0.9285,0.27862,0.36229,0.29349,-0.28285
-0.2641,0.92004,0.28939,0.40171,0.36585,-0.31455
-0.27867,0.9143,0.29386,0.21922,0.27425,-0.31433
-0.28822,0.91141,0.29363,0.19081,0.26579,-0.33387
-0.29673,0.90982,0.29007,0.22854,0.32419,-0.4555
-0.30512,0.90958,0.282,0.12826,0.30155,-0.46639
-0.31535,0.91189,0.26263,0.14898,0.29178,-0.35182
-0.32284,0.91816,0.22959,0.22987,0.38448,-0.36628
-0.32473,0.92799,0.18262,0.33171,0.2996,-0.17186
-0.31494,0.94023,0.12942,0.26007,0.32311,-0.00119
-0.2957,0.95208,0.07791,-0.07208,0.42452,0.21909
-0.27555,0.96093,0.02564,-0.29318,0.74445,0.21392
-0.2587,0.96559,-0.02608,-0.30597,0.51096,0.1206
-0.23836,0.96806,-0.07752,-0.28575,0.24214,0.14499
-0.21447,0.96923,-0.12074,-0.28001,0.23932,0.16232
-0.19503,0.96912,-0.15081,-0.20133,0.2075,0.38792
-0.17299,0.96713,-0.18633,0.00825,-0.04067,0.46186
-0.14531,0.96224,-0.23013,0.1207,-0.14017,0.36747
-0.12432,0.9536,-0.27418,0.13266,-0.17227,0.44964
-0.11156,0.94199,-0.31653,0.14907,-0.23877,0.48868
-0.1048,0.92951,-0.35357,0.04667,-0.2607,0.52939
-0.10326,0.91682,-0.3857,-0.08926,-0.27528,0.55024
-0.10511,0.90506,-0.41207,-0.19266,-0.31598,0.62591
-0.10827,0.89543,-0.43181,-0.23985,-0.43814,0.64815
-0.11084,0.88943,-0.44341,-0.23446,-0.5494,0.51079
-0.1094,0.88785,-0.44692,-0.1849,-0.52996,0.4141
-0.10292,0.89147,-0.44122,-0.06157,-0.48806,0.15962
-0.09279,0.89986,-0.42618,-0.11606,-0.39156,-0.01947
-0.08288,0.91241,-0.40078,-0.11776,-0.05966,-0.36505
-0.07499,0.92467,-0.37328,-0.37923,0.35789,-0.85506
-0.07975,0.93112,-0.35587,-0.23428,1.65899,-0.9891
-0.09115,0.92839,-0.36023,0.09948,1.84598,-0.85257
-0.09263,0.91915,-0.38284,-0.08172,-0.19575,-0.22341
-0.09283,0.91118,-0.40139,-0.21526,-0.74236,-0.09429
-0.08914,0.91005,-0.40478,-0.33208,-0.65774,-0.20867
-0.09156,0.91746,-0.38712,-0.21315,0.41475,0.78742
-0.11055,0.9308,-0.34837,-0.23085,0.98062,1.29137
-0.11599,0.93121,-0.3455,-0.5751,0.58219,0.62352
-0.11103,0.92775,-0.35628,-0.16911,-0.76701,0.59417
-0.10455,0.93919,-0.32708,0.0076,-0.5763,0.66645
-0.09784,0.95747,-0.27141,0.16919,-0.23252,0.87265
-0.08736,0.97373,-0.21022,0.22525,0.08094,0.87716
-0.07946,0.98495,-0.15343,0.1809,0.47071,0.30206
-0.08837,0.99037,-0.10643,0.1374,0.33864,0.10402
-0.1038,0.99219,-0.06893,0.02249,0.10597,0.06699
-0.11346,0.99282,-0.03764,-0.08443,-0.05274,0.08027
-0.11597,0.99322,-0.00644,-0.03846,-0.17893,0.12642
-0.12215,0.99212,0.02729,0.00394,-0.09927,0.15604
-0.12973,0.98995,0.05606,0.09375,0.01582,0.02667
-0.13686,0.9873,0.08046,0.14445,-0.09494,-0.14527
-0.14404,0.98411,0.10363,0.00978,-0.13928,-0.04301
-0.15188,0.98003,0.12819,-0.02167,-0.15337,0.00637
-0.16352,0.97501,0.15027,0.0261,-0.02799,0.00574
-0.17765,0.96906,0.17124,0.07693,0.06089,-0.04313
-0.19294,0.962,0.1931,0.0326,-0.01532,-0.1153
-0.20861,0.95423,0.21424,-0.09203,0.02322,-0.11414
-0.22566,0.94546,0.23484,-0.05315,0.10476,-0.12404
-0.24321,0.9357,0.25549,0.1958,0.18832,-0.24174
-0.26072,0.92599,0.27302,0.32679,0.28282,-0.23931
-0.27652,0.9182,0.28357,0.25446,0.30655,-0.27925
-0.28879,0.91293,0.2883,0.22192,0.33127,-0.23369
-0.29934,0.90924,0.28923,0.28223,0.36469,-0.26251
-0.30799,0.90665,0.28824,0.28373,0.39732,-0.43018
-0.31535,0.90503,0.28536,0.21918,0.34141,-0.48928
-0.32463,0.90493,0.2751,0.18893,0.26064,-0.52237
-0.33446,0.90887,0.24912,0.28386,0.20807,-0.43483
-0.33824,0.91752,0.20907,0.37656,0.22884,-0.32561
-0.3307,0.93043,0.15781,0.38614,0.20633,-0.08883
-0.30885,0.94525,0.1053,0.28177,0.32944,-0.00785
-0.28261,0.95775,0.05296,-0.40963,0.71313,0.32322
-0.26166,0.96514,0.0002,-0.40838,0.62552,0.16081
-0.24017,0.96912,-0.05565,-0.3165,0.40539,0.02592
-0.2152,0.97105,-0.10352,-0.38514,0.41493,0.22124
-0.19352,0.97126,-0.1385,-0.35828,0.34863,0.3895
-0.16958,0.96906,-0.17929,-0.00708,-0.04921,0.43424
-0.13942,0.96378,-0.22729,0.15259,-0.09768,0.31648
-0.11444,0.95386,-0.27753,0.22111,-0.21346,0.42529
-0.0993,0.93956,-0.32764,0.1237,-0.30945,0.52731
-0.09158,0.92253,-0.37487,-0.08298,-0.32607,0.55555
-0.09134,0.90543,-0.41453,-0.18299,-0.32724,0.60496
-0.09616,0.89081,-0.44406,-0.26596,-0.47886,0.68844
-0.10034,0.88016,-0.46393,-0.20246,-0.5628,0.64827
-0.10143,0.87384,-0.47551,-0.09755,-0.61343,0.52692
-0.09934,0.87223,-0.47889,-0.00089,-0.58773,0.26852
-0.09392,0.87589,-0.47326,0.02076,-0.45545,0.02422
-0.08465,0.88594,-0.45599,-0.04034,-0.36175,-0.12927
-0.0691,0.89678,-0.43703,-0.38259,0.19795,-0.8855
-0.06684,0.90146,-0.42765,-0.34948,1.29764,-1.00618
-0.08442,0.89682,-0.43425,-0.1354,1.65993,-0.89565
-0.09968,0.88622,-0.4524,-0.30129,0.24922,-0.16894
-0.11036,0.8758,-0.46988,-0.22558,-0.47966,-0.00322
-0.11067,0.87082,-0.47896,-0.31171,-0.8095,-0.33052
-0.1123,0.87012,-0.47986,-0.30874,-0.56783,0.11138
-0.11934,0.88711,-0.44584,0.03608,0.38631,2.16891
-0.12153,0.91382,-0.38749,-0.85882,2.14496,0.56923
-0.1055,0.91227,-0.39576,-0.52621,0.7489,0.51679
-0.1095,0.91371,-0.39131,0.20815,-1.27774,0.74527
-0.09534,0.93471,-0.34236,0.0871,-0.80658,0.81714
-0.07116,0.95831,-0.27669,0.10722,-0.43626,0.97812
-0.0484,0.97759,-0.20482,0.16114,-0.03591,0.76369
-0.04077,0.98927,-0.14023,0.1184,0.56762,0.09285
-0.05494,0.99501,-0.08312,0.01621,0.31151,0.05336
-0.07499,0.9962,-0.04394,0.03221,0.28689,0.15371
-0.08955,0.99584,-0.01603,0.03716,0.03507,0.1118
-0.09924,0.99498,0.01195,-0.03996,-0.09817,0.08708
-0.10404,0.99355,0.0447,-0.00878,-0.08193,0.0647
-0.10695,0.99143,0.07485,0.00517,-0.07502,0.03792
-0.11312,0.98853,0.09988,0.04517,-0.08918,-0.14349
-0.12153,0.98443,0.12689,0.0278,-0.10801,-0.06471
-0.13242,0.97867,0.15699,-0.01615,-0.08586,0.02407
-0.14669,0.97137,0.18679,-0.01504,-0.11087,-0.01649
-0.16475,0.96263,0.21489,0.06553,-0.01611,-0.13609
-0.18663,0.95213,0.24205,0.09153,0.0783,-0.11899
-0.20664,0.9407,0.26899,-0.00084,0.17727,-0.35831
-0.22484,0.92943,0.29253,0.16408,0.41844,-0.31746
-0.24641,0.91871,0.30858,0.2747,0.50591,-0.35376
-0.2634,0.91071,0.31811,0.29026,0.56326,-0.43185
-0.2749,0.90607,0.32161,0.20506,0.51456,-0.4974
-0.28395,0.90486,0.31711,0.21109,0.36941,-0.50959
-0.29419,0.906,0.30427,0.18977,0.2798,-0.46654
-0.30377,0.9113,0.27791,0.44213,0.35197,-0.36666
-0.30382,0.9219,0.24031,0.42096,0.42316,-0.35347
-0.29222,0.93652,0.19367,0.27977,0.3694,0.01646
-0.27124,0.95213,0.14091,-0.2502,0.39072,0.03067
-0.24705,0.96528,0.08471,-0.42166,0.47411,0.16806
-0.22793,0.9732,0.02997,-0.38295,0.4589,0.17123
-0.21272,0.97676,-0.02572,-0.28676,0.16531,0.06062
-0.19186,0.97829,-0.07821,-0.3141,0.1382,0.05875
-0.16866,0.97859,-0.1179,-0.28534,0.23688,0.24136
-0.14613,0.97771,-0.15069,-0.13715,0.07718,0.47729
-0.11948,0.97424,-0.1912,-0.03107,-0.14642,0.66734
-0.08605,0.9684,-0.23405,-0.04548,-0.29292,-0.33279
-0.05747,0.95879,-0.27822,-0.07003,-0.11588,-0.00118
-0.0517,0.94286,-0.32912,-0.06493,-0.06843,0.54678
-0.04942,0.92634,-0.37342,0.05419,-0.26852,0.49657
-0.05184,0.9098,-0.41179,-0.11647,-0.35595,0.59113
-0.05826,0.8944,-0.44343,-0.21214,-0.42752,0.64082
-0.06652,0.88233,-0.46589,-0.23524,-0.47395,0.6977
-0.07653,0.87375,-0.48029,-0.16834,-0.49836,0.61776
-0.08548,0.86999,-0.48559,-0.08347,-0.47598,0.42728
-0.08953,0.87265,-0.48005,0.00974,-0.47399,0.20544
-0.08723,0.88271,-0.46174,-0.05724,-0.38985,-0.00991
-0.08114,0.89762,-0.43321,-0.20046,-0.09364,-0.46806
-0.07461,0.90921,-0.40958,-0.28718,0.12001,-0.79843
-0.08269,0.91246,-0.4007,-0.19816,1.54486,-0.90201
-0.09351,0.90623,-0.4123,-0.06092,0.29644,-0.25234
-0.10054,0.89501,-0.43456,-0.14725,-0.15862,-0.13248
-0.10682,0.88632,-0.45057,-0.27435,-0.82324,-0.06199
-0.10437,0.88655,-0.45068,-0.32546,-0.77045,-0.11742
-0.1031,0.89582,-0.43227,-0.39697,-0.53219,0.04152
-0.11517,0.91502,-0.38659,-0.29305,-0.09924,1.53269
-0.13074,0.93369,-0.33335,-0.50348,1.80734,-0.32298
-0.12248,0.93464,-0.33381,-0.22423,1.62289,0.01492
-0.12788,0.93945,-0.31791,0.34283,-0.54652,1.16732
-0.11927,0.95404,-0.27489,0.33966,-0.77843,0.6364
-0.10084,0.96928,-0.2243,0.25743,-0.25573,0.52764
-0.09492,0.98145,-0.16652,0.18392,0.00628,0.49761
-0.10731,0.98741,-0.11614,-0.08956,0.14237,0.29657
-0.13093,0.98818,-0.07959,-0.09737,0.17675,0.0386
-0.15417,0.98653,-0.05447,-0.24759,0.12263,-0.08591
-0.16692,0.98556,-0.02787,-0.14614,-0.00558,0.05006
-0.1763,0.9843,0.00621,0.06456,-0.07943,0.13423
-0.18433,0.9821,0.03843,0.26391,-0.08816,0.22357
-0.19068,0.97965,0.06251,0.26165,-0.03887,0.04965
-0.1949,0.97738,0.08197,0.16719,0.01489,-0.11487
-0.19833,0.97448,0.10504,-0.06434,-0.07009,-0.00541
-0.20415,0.96991,0.13252,-0.09722,-0.07913,0.0082
-0.21569,0.9638,0.15666,-0.02001,-0.03006,-0.00046
-0.23137,0.95605,0.18005,0.0085,0.06304,-0.07996
-0.24891,0.94711,0.20249,-0.03376,0.09475,-0.11686
-0.26631,0.93777,0.22281,-0.03501,0.18473,-0.23112
-0.28204,0.92894,0.23976,0.38298,0.34857,-0.22461
-0.29773,0.92146,0.24948,0.4349,0.43119,-0.22955
-0.30924,0.91639,0.25409,0.10843,0.39112,-0.36086
-0.31714,0.91349,0.2548,0.10811,0.37646,-0.24665
-0.32667,0.91138,0.25027,0.30777,0.36584,-0.33596
-0.33631,0.90997,0.24253,0.36709,0.34307,-0.35427
-0.3452,0.91075,0.22657,0.47475,0.37039,-0.2911
-0.34948,0.91522,0.2005,0.49093,0.31494,-0.38241
-0.348,0.92343,0.16172,0.35031,0.26056,-0.3081
-0.33913,0.93376,0.11423,0.23322,0.27405,0.09492
-0.32408,0.94396,0.06238,0.12535,0.25601,0.14881
-0.30659,0.95176,0.01129,-0.13613,0.32577,0.41765
-0.28934,0.95638,-0.03987,-0.11499,0.40832,0.27205
-0.27071,0.95843,-0.09,-0.09555,0.36316,0.18849
-0.24786,0.96052,-0.12625,-0.08211,0.33817,0.20773
-0.22291,0.96209,-0.15709,-0.10799,0.28253,0.4661
-0.19408,0.96213,-0.19135,-0.07739,0.19232,0.52842
-0.16536,0.95809,-0.23389,0.12819,0.01626,0.49683
-0.14133,0.94833,-0.28403,0.2339,-0.1676,0.40285
-0.12459,0.93533,-0.33108,0.23392,-0.24797,0.46701
-0.11517,0.92134,-0.37129,0.14329,-0.23706,0.49262
-0.11522,0.90761,-0.40367,-0.0487,-0.1863,0.61839
-0.12092,0.89514,-0.42906,-0.21605,-0.20396,0.64013
-0.1278,0.88459,-0.44851,-0.27427,-0.24594,0.6296
-0.13196,0.87672,-0.46254,-0.32228,-0.30108,0.57544
-0.12982,0.87336,-0.46943,-0.27462,-0.43721,0.38324
-0.12649,0.87313,-0.47077,-0.24958,-0.46904,0.34261
-0.12698,0.87482,-0.46749,-0.03057,-0.48951,0.28207
-0.12969,0.88093,-0.45511,0.0942,-0.28105,0.08625
-0.12966,0.89024,-0.43663,0.09237,-0.14352,-0.10739
-0.12916,0.89745,-0.42177,-0.08512,0.55034,-0.73648
-0.13227,0.89813,-0.41935,0.02915,1.18378,-0.90645
-0.12938,0.89376,-0.42945,0.09456,0.57561,-0.40795
-0.12685,0.88955,-0.43886,0.01489,-0.1444,-0.15016
-0.12865,0.88828,-0.44091,-0.09727,-0.42892,-0.1066
-0.13045,0.89277,-0.43119,-0.41235,0.04677,-0.0574
-0.13595,0.9019,-0.40997,-0.43174,0.51976,0.46979
-0.14435,0.90862,-0.39186,-0.55002,0.70248,0.79967
-0.15011,0.90715,-0.39311,-0.55077,0.21891,0.8098
-0.14932,0.91162,-0.38292,-0.07343,-0.76024,0.93605
-0.14111,0.92921,-0.34152,-0.06408,-0.78651,0.47363
-0.12825,0.95022,-0.28394,0.27918,-0.10947,0.74474
-0.11273,0.96765,-0.22566,0.39537,0.5108,0.79896
-0.10811,0.97787,-0.17904,0.24985,0.41452,0.31588
-0.12121,0.98222,-0.1433,0.14805,0.02952,0.02956
-0.14171,0.98389,-0.10885,0.03989,-0.07113,0.01867
-0.16104,0.98396,-0.07651,-0.23674,-0.04152,0.15757
-0.17106,0.98421,-0.04518,-0.16359,-0.04416,0.14902
-0.18325,0.98295,-0.01396,0.13873,0.00966,0.0579
-0.19176,0.98132,0.0143,0.2322,0.09389,-0.01399
-0.19672,0.97949,0.04333,0.1717,0.00274,-0.01359
-0.19983,0.97734,0.06961,0.15398,-0.0472,-0.0013
-0.20443,0.97451,0.09229,0.04728,-0.10595,-0.05124
-0.21244,0.9701,0.11728,-0.07772,-0.09583,0.08102
-0.22316,0.96388,0.1453,-0.06583,-0.03945,0.01237
-0.23659,0.95603,0.17324,0.05608,0.17596,-0.0631
-0.25223,0.94691,0.19926,0.07499,0.20745,-0.21097
-0.2671,0.93803,0.22073,0.01451,0.21849,-0.29518
-0.28336,0.92993,0.23432,0.15435,0.31845,-0.17595
-0.29732,0.92365,0.24172,0.43935,0.42181,-0.26391
-0.30746,0.9196,0.24448,0.36891,0.37938,-0.18992
-0.31494,0.9175,0.24286,0.31546,0.35663,-0.32112
-0.32116,0.91642,0.23874,0.19621,0.36906,-0.37097
-0.32804,0.91662,0.22839,0.23113,0.41652,-0.2447
-0.33259,0.92019,0.20642,0.35944,0.29205,-0.33687
-0.33221,0.92774,0.16998,0.2857,0.27878,-0.24756
-0.32108,0.93907,0.12255,0.18362,0.25662,-0.01121
-0.30226,0.95062,0.07018,-0.10592,0.23598,0.01682
-0.28109,0.95953,0.0164,-0.26313,0.26676,0.13137
-0.2638,0.96385,-0.03698,-0.32748,0.47369,0.28324
-0.24838,0.96437,-0.09097,-0.2411,0.39652,0.20347
-0.22893,0.96384,-0.13632,-0.2879,0.25719,0.22549
-0.20797,0.96318,-0.17034,-0.32546,0.26934,0.35882
-0.18623,0.96014,-0.20838,-0.26734,0.22937,0.45863
-0.15883,0.95436,-0.25287,0.04735,-0.0311,0.45299
-0.13347,0.94468,-0.29959,0.11429,-0.05632,0.47507
-0.11586,0.93078,-0.34671,0.1184,-0.14059,0.53575
-0.10563,0.9154,-0.38842,0.09909,-0.31368,0.48417
-0.10098,0.9002,-0.42359,-0.0869,-0.31454,0.50492
-0.10129,0.88614,-0.4522,-0.19911,-0.30542,0.58791
-0.10522,0.87435,-0.47375,-0.20879,-0.34134,0.63836
-0.10736,0.86681,-0.48692,-0.23555,-0.42695,0.5959
-0.10616,0.86417,-0.49186,-0.17397,-0.46584,0.53907
-0.10301,0.86555,-0.4901,-0.06393,-0.4474,0.38897
-0.09738,0.87082,-0.48185,0.00732,-0.45826,0.19938
-0.08951,0.88179,-0.46305,-0.06257,-0.39322,-0.04788
-0.08085,0.89553,-0.43758,-0.17617,-0.13416,-0.36487
-0.07935,0.90361,-0.42093,-0.26472,0.51766,-0.8237
-0.09431,0.90306,-0.41901,-0.12455,1.59944,-0.91006
-0.10367,0.89547,-0.43285,0.0894,1.06014,-0.43253
-0.10523,0.88824,-0.44715,-0.16183,-0.1067,-0.1931
-0.10286,0.88632,-0.45149,-0.22595,-0.65719,-0.11417
-0.10032,0.89213,-0.44048,-0.29912,-0.58267,-0.05673
-0.10524,0.90496,-0.41226,-0.27394,-0.41366,0.45117
-0.11652,0.92672,-0.3572,-0.01422,-0.16079,1.52826
-0.11721,0.94234,-0.31343,-0.23389,0.23524,1.48637
-0.10159,0.94164,-0.32088,-0.43086,1.66491,-0.61842
-0.10703,0.94567,-0.30698,0.05655,-0.36507,0.91791
-0.09865,0.9597,-0.26311,0.05718,-0.98538,0.60652
-0.0865,0.97285,-0.21462,-0.04253,-0.57352,0.36472
-0.08616,0.98422,-0.15448,0.05901,0.04514,0.45519
-0.09974,0.99031,-0.09648,0.04761,0.35208,0.52786
-0.1162,0.99132,-0.06122,0.09849,0.23799,0.18508
-0.12529,0.99128,-0.04061,0.18048,0.05922,0.0252
-0.13155,0.99118,-0.01492,-0.00098,-0.09748,0.1465
-0.13387,0.99086,0.01584,-0.04867,-0.15776,0.20674
-0.13552,0.98975,0.04469,-0.03584,-0.13906,0.14921
-0.14164,0.98758,0.06778,0.01064,-0.08443,-0.03137
-0.15019,0.98439,0.09159,0.05559,-0.08096,0.03765
-0.15893,0.98008,0.11896,0.01184,-0.04177,0.08029
-0.16968,0.97465,0.14571,-0.05552,-0.04533,-0.0183
-0.18276,0.96801,0.1718,-0.01429,0.01146,-0.0833
-0.19975,0.95987,0.19676,0.05546,0.09808,-0.13255
-0.21835,0.95059,0.22059,0.047,0.15892,-0.18445
-0.23613,0.94095,0.24252,0.15405,0.22976,-0.22478
-0.25439,0.93203,0.25802,0.24218,0.32182,-0.24673
-0.26969,0.92488,0.26801,0.25985,0.43413,-0.26536
-0.27935,0.9203,0.2738,0.14776,0.40068,-0.28317
-0.28769,0.91783,0.27348,0.16427,0.39094,-0.32089
-0.29647,0.91687,0.26724,0.19569,0.4198,-0.42808
-0.30594,0.91717,0.25528,0.16127,0.40087,-0.38269
-0.31323,0.92112,0.23106,0.21584,0.40392,-0.33459
-0.31476,0.92891,0.19495,0.38561,0.19468,-0.36738
-0.30652,0.94073,0.14503,0.29965,0.19954,-0.12164
-0.28783,0.95323,0.09209,0.02828,0.24172,-0.03807
-0.26644,0.96321,0.03465,-0.33145,0.36488,0.21289
-0.24971,0.96811,-0.01955,-0.41294,0.53862,0.38445
-0.23465,0.96929,-0.07343,-0.23227,0.35534,0.09482
-0.21137,0.96987,-0.12102,-0.23403,0.29932,0.07187
-0.18476,0.97053,-0.15463,-0.27726,0.32168,0.13956
-0.16115,0.96842,-0.19018,-0.29267,0.16401,0.45948
-0.13291,0.96366,-0.23169,-0.12323,-0.08365,0.47772
-0.10765,0.95366,-0.28092,-0.04109,-0.09909,0.47692
-0.09002,0.93941,-0.33074,0.2037,-0.30972,0.43557
-0.07939,0.92346,-0.37537,0.16515,-0.30652,0.51141
-0.07482,0.9073,-0.41375,-0.02072,-0.31622,0.53002
-0.07497,0.89216,-0.44544,-0.17373,-0.30478,0.59275
-0.0787,0.8793,-0.46971,-0.22969,-0.40469,0.6705
-0.08102,0.87107,-0.48441,-0.1595,-0.47182,0.67117
-0.07985,0.86802,-0.49006,-0.12053,-0.53068,0.58094
-0.07833,0.87011,-0.48658,-0.11717,-0.53631,0.49769
-0.07879,0.87725,-0.47351,-0.02923,-0.48435,0.20415
-0.0741,0.89027,-0.44934,-0.10051,-0.34183,-0.16445
-0.06402,0.90082,-0.42943,-0.22318,0.21533,-0.83116
-0.06868,0.90432,-0.42126,-0.47467,0.98442,-1.0799
-0.08374,0.89982,-0.42813,-0.01734,1.45124,-0.87018
-0.09018,0.89301,-0.4409,-0.10904,0.46625,-0.1577
-0.0938,0.88576,-0.45454,-0.18054,-0.15741,0.00945
-0.09427,0.88273,-0.46031,-0.11136,-0.64903,-0.21985
-0.10025,0.88548,-0.45373,-0.20734,-0.73049,-0.06628
-0.10466,0.90847,-0.4046,0.13013,-0.5818,2.03642
-0.10837,0.93803,-0.32914,-0.1622,-0.02545,1.82907
-0.08169,0.9425,-0.32404,-0.7756,2.0026,-0.35657
-0.09616,0.93831,-0.33212,-0.1485,-0.34183,1.32385
-0.09959,0.95114,-0.29221,0.08726,-1.0259,1.16598
-0.0866,0.96506,-0.24727,-0.00044,-0.75697,0.41456
-0.0791,0.97924,-0.18658,0.02698,0.0962,0.61236
-0.08124,0.98959,-0.11869,0.01965,0.36425,0.54922
-0.09304,0.9929,-0.07391,0.1206,0.35883,0.29221
-0.10746,0.99287,-0.05132,0.19123,0.15068,-0.07756
-0.12079,0.99218,-0.03116,0.10405,-0.03542,-0.02258
-0.13005,0.99149,-0.00348,-0.06297,-0.14713,0.14834
-0.13388,0.99069,0.02426,-0.05411,-0.1527,0.10495
-0.13921,0.98901,0.04945,-0.04818,-0.10396,-0.0255
-0.14709,0.98628,0.07471,0.05116,-0.07565,-0.01587
-0.15556,0.98267,0.10068,0.11264,-0.06212,0.03691
-0.16546,0.97821,0.12528,-0.03503,-0.0464,0.01348
-0.17761,0.97258,0.15001,-0.09779,-0.10283,-0.04993
-0.19317,0.96546,0.17474,-0.00024,0.01162,-0.09236
-0.212,0.9568,0.19886,-0.001,0.15008,-0.18806
-0.23181,0.947,0.22229,0.01079,0.14202,-0.24101
-0.2523,0.93695,0.24172,0.23962,0.22499,-0.14915
-0.2724,0.92778,0.25493,0.32486,0.47221,-0.32017
-0.28689,0.9212,0.26276,0.23358,0.46031,-0.30153
-0.29636,0.9173,0.2659,0.17788,0.44709,-0.26648
-0.30438,0.91546,0.26316,0.29592,0.4688,-0.23321
-0.31173,0.91516,0.25547,0.27919,0.59199,-0.1808
-0.31258,0.91888,0.24066,0.24998,0.66622,-0.2161
-0.30698,0.92765,0.21257,0.07027,0.401,-0.33032
-0.29722,0.93938,0.17087,0.09902,0.24594,-0.29523
-0.28459,0.95132,0.11821,0.14597,0.08424,-0.07083
-0.2687,0.96137,0.05947,-0.19176,0.12181,0.0615
-0.2521,0.96768,0.0033,-0.28874,0.25276,0.21897
-0.23687,0.97021,-0.05062,-0.31945,0.32789,0.30616
-0.21824,0.97097,-0.09779,-0.23794,0.1948,0.16159
-0.19636,0.97137,-0.13367,-0.15119,0.23072,0.21781
-0.17632,0.96919,-0.17195,-0.15487,0.28631,0.46031
-0.15672,0.96273,-0.22037,-0.12551,0.14272,0.50995
-0.13352,0.95238,-0.2741,-0.04106,-0.05782,0.38325
-0.11368,0.93998,-0.3217,0.0752,-0.08563,0.39156
-0.09957,0.92589,-0.3644,0.09494,-0.25533,0.48393
-0.09023,0.91085,-0.40274,0.06618,-0.30695,0.47162
-0.08769,0.89628,-0.43471,-0.09,-0.37393,0.557
-0.09118,0.88307,-0.46028,-0.11964,-0.39139,0.59431
-0.09586,0.87299,-0.47821,-0.14994,-0.41041,0.62051
-0.09948,0.86665,-0.48889,-0.16957,-0.44747,0.52203
-0.10148,0.86436,-0.49251,-0.12946,-0.45563,0.45
-0.10265,0.86676,-0.48804,-0.06105,-0.49544,0.25824
-0.10229,0.87466,-0.4738,-0.05379,-0.40228,-0.04561
-0.09954,0.88643,-0.45202,-0.1125,-0.30829,-0.20855
-0.09699,0.89454,-0.43632,-0.24391,0.0185,-0.60088
-0.10816,0.89663,-0.42936,-0.21835,1.06285,-0.71165
-0.12272,0.89254,-0.43394,-0.16048,1.24417,-0.65812
-0.12806,0.88632,-0.44499,-0.12407,0.22729,-0.20917
-0.13127,0.88119,-0.45416,-0.12442,-0.33151,-0.12701
-0.1316,0.88135,-0.45376,-0.18504,-0.69624,-0.49593
-0.13283,0.88733,-0.44157,-0.1838,-0.70223,-0.50812
-0.136,0.90939,-0.39306,0.08552,-0.40387,1.77343
-0.14266,0.93406,-0.32736,-0.50355,0.91176,0.84388
-0.12086,0.935,-0.3334,-0.62818,2.2522,-0.84179
-0.1345,0.93575,-0.32597,0.09609,-0.34435,1.23387
-0.13563,0.9497,-0.28223,0.22071,-0.999,0.68959
-0.12609,0.9631,-0.23772,0.1175,-0.56181,0.56206
-0.12546,0.97583,-0.17886,0.06882,0.0294,0.60507
-0.13775,0.98282,-0.12271,0.04164,0.4197,0.4903
-0.15603,0.98374,-0.08883,-0.02828,0.38536,0.22018
-0.1671,0.98336,-0.07102,0.15127,0.21897,-0.08369
-0.17776,0.98291,-0.04754,0.0187,-0.09303,-0.00955
-0.18135,0.98334,-0.01113,-0.02936,-0.12168,0.08586
-0.18198,0.98302,0.02288,0.04786,-0.19736,0.29655
-0.18564,0.98134,0.04987,0.04186,-0.13954,-0.08245
-0.19299,0.9783,0.07514,0.02713,-0.09522,-0.15234
-0.20217,0.97389,0.10317,0.01666,-0.09054,-0.00741
-0.21371,0.9682,0.12996,0.10076,-0.10277,-0.00394
-0.22669,0.96132,0.15634,0.14003,-0.0558,-0.0641
-0.24099,0.95333,0.18179,0.15081,0.01597,-0.12958
-0.25663,0.94425,0.20614,-0.05839,0.14802,-0.23027
-0.27271,0.93481,0.22741,-0.05976,0.16757,-0.28831
-0.2912,0.92579,0.24099,0.07933,0.23528,-0.25099
-0.30817,0.9185,0.24771,0.42117,0.47104,-0.28888
-0.32015,0.91381,0.24984,0.41331,0.40505,-0.25711
-0.32806,0.9113,0.24874,0.41933,0.37631,-0.26549
-0.33473,0.90995,0.24476,0.23165,0.45597,-0.43878
-0.34272,0.91017,0.23258,0.1291,0.36482,-0.35244
-0.35015,0.91385,0.20552,0.34169,0.41578,-0.45093
-0.35163,0.92165,0.164,0.40588,0.35747,-0.30572
-0.33991,0.93376,0.11191,0.26622,0.27361,0.02891
-0.31733,0.94634,0.06101,-0.14042,0.37753,0.17731
-0.29289,0.95607,0.01122,-0.39067,0.59485,0.34777
-0.27411,0.9609,-0.03875,-0.38379,0.59536,0.29662
-0.25427,0.96292,-0.09007,-0.16433,0.26366,0.14925
-0.23436,0.96385,-0.12665,-0.24397,0.31175,0.20768
-0.21426,0.96358,-0.15998,-0.37064,0.25321,0.41535
-0.18838,0.96139,-0.20055,-0.07923,-0.02418,0.46635
-0.15894,0.95631,-0.24534,-0.00639,-0.06784,0.4649
-0.13536,0.94638,-0.2933,0.09287,-0.08967,0.51996
-0.11899,0.9327,-0.34043,0.17347,-0.19441,0.56032
-0.10873,0.91753,-0.38249,0.08466,-0.25742,0.5773
-0.10642,0.90138,-0.41973,-0.01651,-0.29742,0.60465
-0.11211,0.88524,-0.4514,-0.18037,-0.33303,0.67628
-0.12082,0.8728,-0.47288,-0.22234,-0.43127,0.73098
-0.12872,0.86534,-0.48435,-0.17829,-0.57334,0.69584
-0.13276,0.8644,-0.48494,-0.11635,-0.60334,0.53761
-0.13311,0.86962,-0.47543,-0.01445,-0.55424,0.34245
-0.12783,0.88088,-0.45574,0.02041,-0.42586,0.06175
-0.11609,0.89714,-0.42621,-0.20055,-0.14845,-0.43892
-0.10459,0.90906,-0.4033,-0.46583,0.38494,-1.11819
-0.11295,0.91095,-0.39673,-0.33526,1.87436,-1.12523
-0.12132,0.90269,-0.41281,0.30597,1.25873,-0.42183
-0.12577,0.89168,-0.43483,-0.12386,-0.57117,0.04892
-0.125,0.88451,-0.44945,-0.20577,-0.86628,-0.04761
-0.12215,0.88553,-0.44822,-0.30433,-0.70467,-0.29017
-0.12916,0.9007,-0.41479,-0.1492,-0.1165,0.96975
-0.14555,0.92136,-0.36041,-0.16498,0.87201,1.60948
-0.13927,0.91628,-0.37552,-0.73842,1.63601,-0.0024
-0.14842,0.91575,-0.3733,-0.17621,-0.47019,0.7979
-0.14733,0.93204,-0.33104,-0.09528,-0.90953,0.45743
-0.13687,0.95169,-0.27485,0.14351,-0.49838,0.91109
-0.12218,0.96965,-0.21171,0.2599,0.59266,0.59282
-0.11584,0.98037,-0.15948,0.23234,0.6007,0.36906
-0.12586,0.98474,-0.12015,0.15409,0.39322,0.23615
-0.1385,0.9861,-0.09172,-0.00441,0.10924,0.0562
-0.14513,0.9872,-0.06592,-0.10138,-0.07555,0.08389
-0.15095,0.98791,-0.03489,-0.09829,-0.19875,0.1087
-0.15541,0.98784,-0.00263,0.03741,-0.15806,0.14237
-0.15953,0.9868,0.02751,0.21107,-0.08345,0.1136
-0.16297,0.98518,0.05334,0.22109,-0.07291,0.0329
-0.16544,0.98311,0.07804,0.01688,-0.07912,-0.06941
-0.16986,0.97997,0.1038,-0.17836,-0.13747,0.05024
-0.17992,0.97509,0.12961,-0.09471,-0.09982,0.02791
-0.195,0.96824,0.15641,0.0704,0.06075,-0.09568
-0.21263,0.95956,0.18441,0.07198,0.14213,-0.12215
-0.23094,0.95005,0.20986,0.00073,0.14718,-0.22958
-0.24925,0.94071,0.23004,0.18396,0.2554,-0.21794
-0.26786,0.9323,0.24298,0.32679,0.41722,-0.30728
-0.28228,0.92634,0.24936,0.28164,0.35596,-0.20881
-0.29175,0.92293,0.25112,0.32472,0.33533,-0.22468
-0.29923,0.92103,0.24928,0.33742,0.37765,-0.33231
-0.30673,0.91988,0.24436,0.18297,0.52611,-0.32842
-0.31183,0.92109,0.23308,0.14716,0.52091,-0.38434
-0.31491,0.92599,0.2082,0.12922,0.45029,-0.32114
-0.31257,0.93529,0.16584,0.17203,0.16879,-0.21165
-0.30186,0.94665,0.1127,0.14815,0.11612,-0.06946
-0.28376,0.95721,0.05656,-0.11083,0.15875,0.11437
-0.26484,0.96428,0.00144,-0.35224,0.55394,0.25398
-0.24853,0.96717,-0.05292,-0.34673,0.46963,0.12697
-0.2289,0.96777,-0.10488,-0.32637,0.22732,0.0924
-0.20634,0.96779,-0.1442,-0.43243,0.2175,0.33595
-0.18496,0.96675,-0.17654,-0.45936,0.22016,0.46325
-0.16095,0.96272,-0.21737,-0.06004,-0.07004,0.44176
-0.13605,0.95499,-0.26357,0.10523,-0.08995,0.3757
-0.11598,0.94347,-0.31047,0.11782,-0.18812,0.47011
-0.10104,0.92954,-0.35458,0.07666,-0.29639,0.47258
-0.09199,0.91466,-0.39361,0.01212,-0.31131,0.50831
-0.08987,0.9001,-0.4263,-0.10097,-0.35381,0.5959
-0.09377,0.88635,-0.4534,-0.13651,-0.38216,0.64609
-0.10068,0.87493,-0.47366,-0.16998,-0.48187,0.64564
-0.10709,0.86848,-0.484,-0.13754,-0.52875,0.58909
-0.10984,0.86785,-0.48451,-0.06946,-0.49777,0.43892
-0.11042,0.87352,-0.47409,0.07407,-0.45599,0.25169
-0.1088,0.88534,-0.45203,0.06588,-0.34757,0.00499
-0.09853,0.90195,-0.42043,-0.22227,-0.04931,-0.50588
-0.08321,0.91464,-0.39561,-0.58526,0.67173,-1.26788
-0.08297,0.91836,-0.38693,-0.38382,2.13346,-1.08374
-0.09225,0.90982,-0.4046,0.30003,0.85019,-0.35384
-0.10234,0.89653,-0.43099,-0.05328,-0.43536,0.03165
-0.11053,0.88685,-0.44864,-0.33182,-0.97905,0.14306
-0.10766,0.88825,-0.44656,-0.46246,-0.62779,0.14517
-0.11115,0.90213,-0.41688,-0.17735,-0.18254,0.96513
-0.12042,0.92573,-0.35849,-0.30183,0.60008,1.2947
-0.10967,0.93731,-0.33077,-0.55514,1.77772,-0.5618
-0.10381,0.93218,-0.34677,0.0152,-0.12845,1.11818
-0.10809,0.94184,-0.31817,0.16217,-1.00929,0.7864
-0.09637,0.95761,-0.27144,0.0751,-0.59665,0.39076
-0.08588,0.97163,-0.22033,0.04895,0.13863,0.6739
-0.08493,0.98382,-0.15767,0.01007,0.35691,0.58001
-0.09336,0.9896,-0.10935,-0.03178,0.25743,0.29425
-0.1087,0.99103,-0.07763,-0.03371,0.13896,0.03783
-0.11905,0.9914,-0.05424,-0.02156,0.00207,0.02952
-0.12848,0.99131,-0.02774,-0.08569,-0.1186,0.14375
-0.13501,0.99083,0.00204,0.03586,-0.07083,0.18383
-0.13902,0.98973,0.03292,0.14225,-0.07428,0.12611
-0.14395,0.9878,0.05924,0.17218,-0.04967,-0.06613
-0.14972,0.98514,0.08407,0.07142,-0.06335,0.04192
-0.15806,0.98136,0.10916,0.00503,-0.07693,0.06315
-0.17011,0.97638,0.13312,0.06588,-0.01891,-0.06974
-0.18419,0.9702,0.15737,0.11766,0.07329,-0.11104
-0.20011,0.96301,0.18039,0.10595,0.10138,-0.1615
-0.21615,0.95532,0.20154,-0.06687,0.07424,-0.20203
-0.23234,0.94746,0.21981,0.11821,0.20003,-0.18345
-0.25115,0.93957,0.23261,0.24318,0.29114,-0.20475
-0.26862,0.93301,0.23939,0.2755,0.28965,-0.2229
-0.28054,0.9289,0.24171,0.28211,0.2836,-0.20344
-0.28821,0.92674,0.24097,0.2849,0.36352,-0.32754
-0.29539,0.92546,0.23714,0.08382,0.31958,-0.42815
-0.30323,0.92501,0.22887,0.00309,0.30259,-0.36862
-0.31269,0.92654,0.2091,0.13139,0.40806,-0.4604
-0.32106,0.93075,0.17495,0.37977,0.21775,-0.15015
-0.32073,0.93886,0.12512,0.42556,0.13727,-0.05373
-0.30575,0.94939,0.07171,0.19113,0.28968,0.04671
-0.28035,0.95967,0.0204,-0.23736,0.59917,0.26946
-0.2559,0.96628,-0.02836,-0.33442,0.65474,0.2296
-0.23356,0.96933,-0.07641,-0.23081,0.3583,0.18545
-0.20768,0.97071,-0.12073,-0.29446,0.31579,0.12264
-0.18142,0.97223,-0.14775,-0.40352,0.26855,0.42771
-0.15856,0.97035,-0.1824,-0.00909,-0.04983,0.39676
-0.1335,0.96524,-0.22465,0.01752,-0.07228,0.43666
-0.1092,0.95607,-0.272,0.15564,-0.18824,0.3439
-0.09197,0.94328,-0.31898,0.09853,-0.27826,0.44578
-0.0829,0.92895,-0.36078,0.03262,-0.31237,0.50323
-0.07993,0.91435,-0.39695,-0.03092,-0.33105,0.51087
-0.0847,0.89955,-0.42852,-0.20511,-0.30692,0.59001
-0.09295,0.88588,-0.4545,-0.25376,-0.40582,0.63928
-0.0997,0.87608,-0.47173,-0.24379,-0.44182,0.66878
-0.10352,0.87127,-0.47975,-0.19182,-0.48893,0.53578
-0.10303,0.87139,-0.47963,-0.14453,-0.44999,0.43121
-0.101,0.87527,-0.47296,-0.09586,-0.40214,0.32879
-0.09661,0.88488,-0.45567,-0.01063,-0.2958,-0.04866
-0.08994,0.8986,-0.42944,-0.14715,-0.03626,-0.47933
-0.08223,0.9091,-0.40837,-0.36299,0.58875,-1.01657
-0.09035,0.91142,-0.40142,-0.20576,1.6595,-1.00283
-0.09935,0.90492,-0.41381,0.10928,0.79871,-0.36052
-0.10189,0.89706,-0.42998,-0.05591,-0.22673,-0.02436
-0.102,0.89214,-0.44009,-0.28554,-0.67232,-0.01488
-0.09912,0.89489,-0.43514,-0.39662,-0.54869,-0.08307
-0.10743,0.90563,-0.41023,-0.29736,0.20163,1.31392
-0.12441,0.92093,-0.36932,-0.43098,0.47436,1.18925
-0.12582,0.92695,-0.35343,-0.52136,1.12986,-0.0556
-0.12716,0.92708,-0.35263,0.20086,-0.64784,0.90532
-0.12706,0.93932,-0.31863,0.10423,-0.59331,0.43184
-0.11471,0.95574,-0.2709,0.16703,-0.30813,0.46327
-0.10177,0.97077,-0.21735,0.2026,0.33461,0.57219
-0.0957,0.9816,-0.16521,0.18358,0.30722,0.40403
-0.10197,0.98695,-0.12455,0.04941,0.12538,0.25689
-0.11521,0.98895,-0.09325,-0.12492,0.08657,0.05869
-0.12507,0.9899,-0.06656,-0.17663,0.02917,0.07191
-0.13119,0.99057,-0.03924,-0.09942,-0.16565,0.13291
-0.13806,0.99037,-0.00931,0.02362,-0.12413,0.16016
-0.14535,0.98917,0.01984,0.09727,-0.08791,0.12739
-0.15198,0.98729,0.0463,0.17158,-0.05563,-0.01183
-0.15796,0.98487,0.07112,0.08081,-0.11158,-0.02318
-0.16441,0.98169,0.09604,-0.0078,-0.14016,0.06886
-0.17428,0.97718,0.12136,0.04476,-0.08979,0.03545
-0.187,0.97137,0.14643,0.13141,0.02802,-0.06368
-0.20169,0.96418,0.17221,4e-05,0.15209,-0.15892
-0.21845,0.95594,0.19605,-0.21903,0.09178,-0.27919
-0.23684,0.94718,0.21618,-0.0802,0.11175,-0.23133
-0.25739,0.93824,0.23117,0.4026,0.3914,-0.19313
-0.27784,0.93051,0.23862,0.48971,0.43856,-0.29045
-0.29234,0.92579,0.23965,0.29492,0.35492,-0.2951
-0.30033,0.92375,0.23763,0.25918,0.35639,-0.37567
-0.308,0.92285,0.23121,0.20555,0.3145,-0.43023
-0.31649,0.92339,0.21718,0.18461,0.45103,-0.33724
-0.32582,0.9259,0.19111,0.27098,0.30956,-0.30708
-0.33193,0.93143,0.14911,0.30571,0.21195,-0.13708
-0.3272,0.94024,0.09417,0.31068,0.15514,-0.06221
-0.31006,0.9499,0.03915,-0.03762,0.41306,0.31251
-0.28788,0.95759,-0.01141,-0.20332,0.52547,0.31883
-0.26967,0.961,-0.06119,-0.29492,0.61353,0.25018
-0.25225,0.96119,-0.11165,-0.23404,0.35493,0.20913
-0.22966,0.95998,-0.16025,-0.28101,0.30145,0.2372
-0.20802,0.9595,-0.18993,-0.37367,0.32621,0.30745
-0.18602,0.95796,-0.21837,-0.0937,0.00338,0.44763
-0.1597,0.95371,-0.25479,0.08761,-0.08628,0.43104
-0.13375,0.94586,-0.29572,0.13274,-0.07621,0.43618
-0.11343,0.93424,-0.3381,0.20753,-0.23772,0.43202
-0.09995,0.92169,-0.37481,0.13942,-0.30914,0.53233
-0.0959,0.90811,-0.40759,0.08672,-0.34274,0.55211
-0.10061,0.89459,-0.43539,-0.18351,-0.39438,0.60765
-0.10884,0.88302,-0.45653,-0.2396,-0.41287,0.66268
-0.11646,0.87577,-0.46846,-0.28715,-0.46004,0.6525
-0.12086,0.87354,-0.47149,-0.30509,-0.48203,0.58838
-0.12189,0.87628,-0.46612,-0.22294,-0.48498,0.42746
-0.12153,0.88262,-0.45408,-0.07888,-0.3887,0.15925
-0.11622,0.89398,-0.43276,-0.0998,-0.29829,0.02001
-0.10708,0.90778,-0.40554,-0.20977,-0.02933,-0.41511
-0.10125,0.91673,-0.38644,-0.4309,1.1244,-1.10701
-0.1092,0.9161,-0.38578,-0.12537,1.75422,-1.07792
-0.11492,0.90898,-0.40066,0.28553,0.9122,-0.39306
-0.11781,0.90107,-0.41735,-0.03125,-0.60508,0.02748
-0.11713,0.89629,-0.42771,-0.19261,-0.81014,-0.17872
-0.11337,0.8993,-0.42238,-0.39522,-0.44556,0.10735
-0.12082,0.91548,-0.38379,-0.13576,0.05959,1.34393
-0.13616,0.93029,-0.3406,-0.50225,1.04092,0.92527
-0.13024,0.92457,-0.35804,-0.55462,1.44738,-0.0631
-0.14111,0.92484,-0.35318,0.03656,-0.95162,0.73894
-0.13586,0.93973,-0.31375,0.02171,-0.69049,0.68576
-0.12576,0.95578,-0.26582,0.04032,-0.39465,0.74914
-0.1199,0.97085,-0.20752,0.08793,0.48129,0.55009
-0.12235,0.98101,-0.15043,0.11911,0.47248,0.42025
-0.12943,0.98525,-0.11186,0.10375,0.19714,0.11369
-0.13515,0.98704,-0.08643,0.07622,-0.05625,0.04539
-0.14354,0.98771,-0.06175,-0.07739,-0.19033,0.13117
-0.15027,0.98806,-0.0337,-0.08074,-0.21754,0.14618
-0.15526,0.98786,-0.00269,0.0299,-0.15563,0.11321
-0.16281,0.9863,0.02602,0.09094,-0.08883,-0.04181
-0.17198,0.98376,0.05123,0.11885,-0.08062,-0.12566
-0.18161,0.98049,0.07507,0.1373,-0.07815,0.03727
-0.19231,0.97634,0.09876,0.14852,-0.0664,0.09897
-0.20417,0.97101,0.12423,0.19282,-0.04954,0.03874
-0.21723,0.96443,0.15054,0.12949,0.10393,-0.08881
-0.23138,0.95665,0.17678,-0.10689,0.12155,-0.22102
-0.2467,0.94813,0.2004,-0.22994,0.08799,-0.31545
-0.26392,0.93951,0.21827,0.13732,0.27056,-0.18225
-0.2837,0.93117,0.22894,0.47285,0.35759,-0.24888
-0.29998,0.92546,0.2313,0.43662,0.32432,-0.24848
-0.31003,0.92255,0.2297,0.37291,0.31039,-0.28865
-0.31649,0.92144,0.2253,0.16091,0.29365,-0.43636
-0.32264,0.92158,0.21582,0.13718,0.3141,-0.35822
-0.32952,0.92358,0.19591,0.15846,0.42288,-0.29169
-0.33605,0.92767,0.16272,0.27746,0.41193,-0.26547
-0.33573,0.93521,0.11245,0.30083,0.25748,-0.10076
-0.32277,0.94473,0.05732,0.1863,0.18966,0.07793
-0.30105,0.95358,0.00519,-0.12624,0.6292,0.31204
-0.27932,0.95912,-0.04519,-0.2501,0.75129,0.25654
-0.26,0.96088,-0.0953,-0.29313,0.70061,0.24538
-0.23689,0.96042,-0.14651,-0.39066,0.25877,0.23839
-0.21495,0.95838,-0.18784,-0.47104,0.27837,0.23664
-0.19545,0.95725,-0.21321,-0.47488,0.23259,0.33805
-0.16943,0.95414,-0.24679,0.02154,-0.08061,0.51892
-0.14127,0.94715,-0.28798,0.16171,-0.12663,0.46171
-0.12166,0.93563,-0.33134,0.17522,-0.18137,0.48378
-0.10917,0.92307,-0.36879,0.13337,-0.32758,0.51192
-0.10317,0.91117,-0.39888,0.09149,-0.34446,0.51978
-0.10465,0.8996,-0.42397,-0.08906,-0.42399,0.58776
-0.11151,0.88898,-0.44415,-0.12161,-0.42555,0.63927
-0.12159,0.88087,-0.45746,-0.16586,-0.47757,0.68301
-0.12914,0.87866,-0.45964,-0.29463,-0.54152,0.6403
-0.13282,0.88192,-0.45229,-0.27058,-0.50919,0.57535
-0.13339,0.88971,-0.43659,-0.1603,-0.4561,0.39796
-0.13271,0.90103,-0.41293,-0.05681,-0.13353,0.08765
-0.12817,0.91451,-0.38371,-0.23924,0.15875,-0.51713
-0.11841,0.92596,-0.35855,-0.3316,0.42642,-0.87282
-0.11753,0.92776,-0.35415,-0.13209,2.10786,-1.12348
-0.12059,0.91787,-0.3781,0.19289,0.38616,-0.42391
-0.12267,0.90663,-0.40368,0.02397,-0.23172,-0.18554
-0.12364,0.90095,-0.41592,-0.23476,-0.94779,-0.02651
-0.1209,0.90424,-0.40954,-0.18206,-0.43738,0.15097
-0.12985,0.91893,-0.37242,0.03946,-0.08311,0.72557
-0.14381,0.93594,-0.32144,-0.30485,1.40938,0.61737
-0.13197,0.93258,-0.33597,-0.4944,1.67392,-0.20421
-0.13545,0.92898,-0.34445,-0.27749,-0.82625,0.8242
-0.13256,0.94241,-0.30705,-0.2298,-0.97503,0.60498
-0.12732,0.95704,-0.26047,-0.05096,-0.30047,0.81358
-0.12411,0.97126,-0.20304,0.13656,0.2896,0.71313
-0.12266,0.98171,-0.14555,0.29377,0.58811,0.46494
-0.12724,0.98616,-0.10625,0.20195,0.27338,0.20403
-0.13253,0.98811,-0.07781,0.09282,0.10266,0.0143
-0.13437,0.9896,-0.05128,-0.05199,-0.10138,0.13798
-0.13797,0.99018,-0.02219,-0.08219,-0.17077,0.21173
-0.14276,0.98973,0.00529,-0.04788,-0.19185,0.16694
-0.15022,0.98823,0.02875,0.10015,-0.11956,-0.01667
-0.15849,0.98598,0.05196,0.13431,-0.09398,0.0031
-0.16646,0.98312,0.07583,0.05971,-0.0951,0.05419
-0.17645,0.97903,0.10168,0.01756,-0.09294,0.12803
-0.18962,0.97352,0.12757,0.11492,-0.00207,-0.08552
-0.20576,0.96662,0.15261,0.10074,0.041,-0.14266
-0.22411,0.95818,0.1779,0.07211,0.08931,-0.15293
-0.24293,0.94887,0.2015,0.03581,0.09455,-0.24674
-0.26104,0.93945,0.22199,0.1769,0.20063,-0.27895
-0.27913,0.93055,0.23695,0.24369,0.2853,-0.26745
-0.29475,0.92385,0.24412,0.29626,0.25692,-0.2619
-0.30523,0.91976,0.24669,0.36405,0.24795,-0.2474
-0.31228,0.91791,0.24475,0.41201,0.35017,-0.38867
-0.3171,0.91813,0.23763,0.12601,0.30009,-0.5089
-0.32121,0.92059,0.22206,-0.03029,0.26804,-0.42314
-0.32914,0.92487,0.19043,0.07824,0.45836,-0.46092
-0.33446,0.9314,0.14357,0.3262,0.27333,-0.11739
-0.32771,0.94082,0.08628,0.33694,0.217,-0.08837
-0.30841,0.95068,0.03266,0.03255,0.59348,0.41035
-0.28443,0.95852,-0.01813,-0.21179,0.80484,0.37799
-0.26001,0.96328,-0.06682,-0.28907,0.72426,0.20131
-0.23018,0.96659,-0.11272,-0.29653,0.37248,0.11997
-0.1999,0.96844,-0.14881,-0.4127,0.3183,0.17195
-0.17234,0.9695,-0.17422,-0.5719,0.24162,0.44809
-0.14382,0.96717,-0.20947,-0.04131,-0.09582,0.48011
-0.11341,0.96129,-0.25109,0.03003,-0.10916,0.47622
-0.0917,0.95003,-0.29837,0.13782,-0.27397,0.40188
-0.08231,0.9362,-0.34166,0.14048,-0.2849,0.5605
-0.08192,0.9216,-0.37939,0.07612,-0.31015,0.56891
-0.08675,0.90707,-0.41192,-0.14681,-0.36949,0.57146
-0.09542,0.8932,-0.43941,-0.27474,-0.44906,0.62727
-0.10297,0.88277,-0.45837,-0.30993,-0.53463,0.66843
-0.10915,0.8776,-0.4668,-0.29391,-0.59883,0.64754
-0.1122,0.87843,-0.4645,-0.19662,-0.54413,0.50808
-0.11364,0.88412,-0.45321,0.0085,-0.44043,0.33911
-0.11251,0.89388,-0.43395,0.09948,-0.25496,0.05926
-0.10393,0.90865,-0.40441,-0.15136,-0.00789,-0.60728
-0.09283,0.92032,-0.37997,-0.35136,0.56321,-1.19325
-0.09219,0.92408,-0.37089,-0.11753,1.72858,-1.0732
-0.09729,0.92057,-0.37825,0.25935,0.69196,-0.36854
-0.10036,0.91235,-0.39692,-0.05744,-0.24863,-0.03758
-0.10219,0.90388,-0.41539,-0.32501,-0.73469,-0.1688
-0.09745,0.90288,-0.41869,-0.48022,-0.26257,-0.08823
-0.10527,0.91299,-0.39416,-0.24144,0.41221,1.25155
-0.12884,0.92553,-0.35606,-0.26824,0.69742,1.52888
-0.13035,0.91896,-0.37218,-0.46024,0.70156,0.44124
-0.13639,0.91913,-0.36958,-0.00184,-0.84262,0.63679
-0.13148,0.93436,-0.33116,0.07107,-0.76688,0.67297
-0.11637,0.95242,-0.28166,0.12741,-0.45654,0.76326
-0.10501,0.96917,-0.22286,0.14679,0.56199,0.47983
-0.10201,0.98113,-0.16419,0.11813,0.50237,0.45413
-0.10669,0.98749,-0.11603,0.1017,0.36752,0.37102
-0.10852,0.99049,-0.08445,-0.01279,-0.07736,0.02198
-0.11143,0.99197,-0.05974,-0.08718,-0.17908,0.02655
-0.11963,0.99229,-0.03213,-0.16733,-0.24822,0.17448
-0.12619,0.992,0.00033,-0.04288,-0.13558,0.25512
-0.13304,0.99064,0.03015,0.06712,-0.07594,0.12456
-0.14025,0.98836,0.05873,0.07848,-0.05665,-0.07717
-0.14755,0.98526,0.08643,-0.01749,-0.09978,-0.02812
-0.1578,0.9811,0.11191,-0.05611,-0.13352,0.01205
-0.17238,0.97574,0.13488,0.05478,-0.08789,-0.03913
-0.18878,0.96905,0.159,0.16779,0.02239,-0.10672
-0.20569,0.96132,0.18313,0.15546,0.04561,-0.09454
-0.22268,0.95283,0.20614,0.13929,0.11548,-0.19656
-0.23984,0.94418,0.22578,0.19418,0.21472,-0.22652
-0.25621,0.93618,0.24061,0.21571,0.31469,-0.27803
-0.27022,0.9302,0.24837,0.1718,0.22949,-0.2481
-0.28137,0.92622,0.25083,0.25702,0.27426,-0.27798
-0.28975,0.92385,0.25004,0.24736,0.28381,-0.37442
-0.29746,0.92273,0.24506,0.13077,0.23248,-0.31948
-0.30395,0.92425,0.23096,0.1268,0.39698,-0.35421
-0.30789,0.92912,0.20472,0.16881,0.50473,-0.30488
-0.30806,0.9376,0.16119,0.10976,0.23476,-0.23922
-0.29975,0.94811,0.10593,0.04389,0.13965,0.02986
-0.28103,0.95834,0.05074,-0.09987,0.34169,0.24826
-0.25793,0.96614,-0.00422,-0.29306,0.72584,0.20989
-0.23428,0.97042,-0.05801,-0.31564,0.54735,0.13034
-0.20564,0.97282,-0.10634,-0.27827,0.33354,0.11486
-0.17458,0.97402,-0.14417,-0.36574,0.33271,0.18095
-0.14744,0.97401,-0.17192,-0.32745,0.26174,0.48425
-0.12101,0.97046,-0.20869,-0.08344,-0.00067,0.45228
-0.09216,0.96332,-0.25199,-0.00896,-0.12358,0.35347
-0.071,0.95225,-0.29691,0.04886,-0.2017,0.41261
-0.06252,0.93839,-0.33987,0.04538,-0.306,0.54473
-0.06176,0.92321,-0.37927,-0.05727,-0.39474,0.50774
-0.06668,0.9081,-0.41339,-0.19907,-0.42249,0.5394
-0.07401,0.89438,-0.44113,-0.23921,-0.426,0.58596
-0.0818,0.88307,-0.46204,-0.29422,-0.51564,0.65429
-0.08778,0.87656,-0.47321,-0.27107,-0.56949,0.6314
-0.09085,0.87584,-0.47396,-0.17932,-0.50444,0.5218
-0.09046,0.8802,-0.46589,-0.0171,-0.40356,0.33726
-0.08625,0.88907,-0.44956,0.03281,-0.12544,0.01322
-0.07656,0.90302,-0.42272,-0.17277,-0.16074,-0.31386
-0.0661,0.91675,-0.39394,-0.31222,0.03444,-0.64635
-0.0653,0.92379,-0.37728,0.01437,1.66401,-0.97463
-0.07082,0.92211,-0.38037,0.29331,1.36948,-0.71378
-0.07433,0.91495,-0.39663,0.00793,0.06371,-0.12905
-0.07594,0.90803,-0.41194,-0.1011,-0.61217,0.01997
-0.07001,0.90679,-0.41572,-0.26092,-0.75698,-0.1735
-0.06668,0.91562,-0.39645,-0.4567,-0.29146,0.40742
-0.08156,0.93222,-0.35255,-0.72473,0.71586,0.95125
-0.09832,0.94141,-0.3226,-0.79668,1.44507,0.0713
-0.1007,0.94106,-0.32287,0.00784,0.58474,0.78025
-0.10564,0.9462,-0.30583,0.07405,-0.77593,0.58059
-0.09366,0.95985,-0.2644,0.11918,-0.62301,0.64103
-0.07635,0.97552,-0.20619,0.22068,0.24163,0.58893
-0.06507,0.98648,-0.15031,0.12223,0.30591,0.34395
-0.0644,0.99235,-0.10519,0.00464,0.20393,0.16501
-0.06996,0.99541,-0.06515,-0.20865,0.01358,0.06934
-0.07462,0.99665,-0.03304,-0.27713,-0.12583,0.11927
-0.07872,0.99688,-0.00102,-0.19102,-0.19587,0.24119
-0.08501,0.99585,0.03222,-0.00515,-0.17053,0.28173
-0.09198,0.99385,0.0614,0.10483,-0.01602,0.15556
-0.09906,0.99146,0.08465,0.10002,0.01466,-0.07043
-0.1036,0.98823,0.11242,-0.04368,-0.0934,-0.01442
-0.11028,0.984,0.13983,-0.12678,-0.13715,-0.02121
-0.12214,0.97882,0.16421,-0.06501,-0.05853,-0.0958
-0.13871,0.97213,0.18895,0.16369,0.03172,-0.0965
-0.15734,0.96441,0.21244,0.15578,0.12913,-0.05715
-0.17693,0.95583,0.23465,0.03337,0.15567,-0.21151
-0.1956,0.94688,0.25522,0.11857,0.10859,-0.25686
-0.21396,0.93806,0.27246,0.21577,0.26108,-0.25958
-0.23215,0.93054,0.28316,0.18369,0.31359,-0.35155
-0.24573,0.92576,0.28732,0.1519,0.27504,-0.29948
-0.25575,0.92339,0.28619,0.25083,0.31922,-0.3925
-0.26325,0.9233,0.27963,0.1896,0.30226,-0.5024
-0.26969,0.9254,0.26623,0.04813,0.3024,-0.44449
-0.27535,0.93094,0.23982,0.0463,0.43482,-0.46839
-0.27865,0.9399,0.19726,0.24777,0.31692,-0.17498
-0.27277,0.95161,0.14142,0.24596,0.27045,-0.14783
-0.25503,0.96337,0.08274,-0.12734,0.4711,0.17877
-0.23321,0.97209,0.025,-0.26758,0.62528,0.28247
-0.2145,0.9762,-0.03169,-0.34098,0.60336,0.16146
-0.19307,0.97741,-0.08584,-0.40934,0.34528,0.15922
-0.16564,0.97763,-0.12955,-0.44082,0.30106,0.20628
-0.14316,0.97577,-0.16539,-0.53015,0.31523,0.34192
-0.11767,0.9726,-0.20048,-0.05266,-0.04445,0.41052
-0.09006,0.96554,-0.24413,-0.08028,-0.0374,0.45416
-0.06815,0.95389,-0.2923,0.13333,-0.28985,0.38535
-0.05686,0.93924,-0.33849,0.07285,-0.32643,0.51957
-0.0536,0.9234,-0.38006,0.01437,-0.37776,0.49425
-0.05758,0.90841,-0.41407,-0.12423,-0.40789,0.55861
-0.06552,0.89466,-0.4419,-0.21193,-0.4261,0.6118
-0.07553,0.88298,-0.46329,-0.19525,-0.46939,0.68307
-0.0847,0.87528,-0.47613,-0.17511,-0.56083,0.64578
-0.08968,0.874,-0.47756,-0.1313,-0.59188,0.55245
-0.09097,0.87901,-0.46802,-0.03871,-0.51483,0.34618
-0.09019,0.8895,-0.44794,0.10366,-0.39114,0.1314
-0.08146,0.9062,-0.41491,-0.15589,-0.24235,-0.33419
-0.068,0.92095,-0.38367,-0.45843,0.28556,-1.08154
-0.06513,0.92658,-0.37039,-0.15302,2.03889,-0.96606
-0.07247,0.92293,-0.37807,0.28592,1.58836,-0.58386
-0.07848,0.91194,-0.40273,-0.01798,0.07558,-0.07011
-0.08332,0.90158,-0.42451,-0.36804,-0.79183,-0.16473
-0.08128,0.89884,-0.43065,-0.3656,-0.65222,-0.3011
-0.085,0.90655,-0.41343,0.01634,0.24494,1.01811
-0.09665,0.92518,-0.367,-0.3835,1.1767,0.95208
-0.09275,0.92689,-0.36366,-0.61584,0.63788,0.62077
-0.09251,0.92235,-0.3751,-0.23364,-0.93829,0.4931
-0.09137,0.93515,-0.34223,-0.10588,-0.93935,0.57205
-0.08467,0.95445,-0.28608,0.1721,-0.17681,0.99194
-0.07211,0.97265,-0.22074,0.27983,0.68532,0.70615
-0.06166,0.98497,-0.16127,0.29778,0.56024,0.27846
-0.06587,0.99098,-0.11658,0.10688,0.12774,0.13715
-0.0759,0.99375,-0.08178,-0.11883,-0.024,0.10571
-0.08439,0.99509,-0.05142,-0.29596,-0.10624,0.17662
-0.08868,0.99586,-0.01919,-0.18551,-0.19082,0.19482
-0.09702,0.99519,0.01229,-0.06914,-0.15326,0.15107
-0.10754,0.99331,0.04167,0.05114,-0.07284,0.18315
-0.11762,0.99029,0.07387,0.12018,-0.0934,0.07726
-0.12603,0.98611,0.10804,0.0402,-0.12158,0.01859
-0.13703,0.98087,0.13816,-0.10438,-0.08329,-0.01784
-0.1515,0.9742,0.16719,-0.05405,-0.04099,-0.0968
-0.16913,0.966,0.19548,0.02297,0.01999,-0.14691
-0.1887,0.95647,0.22257,0.05246,0.17496,-0.23339
-0.2082,0.94615,0.24786,0.02976,0.1935,-0.31805
-0.22693,0.93613,0.26858,0.12993,0.23959,-0.28885
-0.24686,0.9273,0.28132,0.27235,0.38839,-0.39715
-0.26373,0.92097,0.28675,0.36936,0.28335,-0.29687
-0.27535,0.91799,0.28539,0.4381,0.27441,-0.3303
-0.28281,0.91767,0.27906,0.45273,0.32113,-0.39038
-0.28858,0.91899,0.26861,0.0374,0.22626,-0.46194
-0.29442,0.92325,0.24676,0.01639,0.16068,-0.35899
-0.30157,0.93044,0.2081,0.04843,0.16871,-0.39256
-0.30081,0.94073,0.15653,0.33092,0.24536,-0.05225
-0.28472,0.95344,0.09927,0.22774,0.31626,0.09757
-0.25673,0.96545,0.04452,-0.00217,0.44985,0.22289
-0.22736,0.97376,-0.0088,-0.4953,0.72706,0.19023
-0.20217,0.97744,-0.0609,-0.48527,0.45777,0.18773
-0.17385,0.97861,-0.10986,-0.46665,0.34761,0.21661
-0.14429,0.97886,-0.14488,-0.57176,0.25025,0.35918
-0.119,0.97684,-0.17775,-0.40466,0.0227,0.48967
-0.0897,0.97123,-0.22054,-0.19066,-0.12699,0.51994
-0.06409,0.96058,-0.27049,0.05596,-0.27845,0.45697
-0.05036,0.94605,-0.32007,0.13909,-0.21068,0.46304
-0.04748,0.93067,-0.36275,0.1405,-0.1942,0.55765
-0.04895,0.91525,-0.39987,-0.08576,-0.3165,0.56119
-0.05433,0.9,-0.43248,-0.13204,-0.35321,0.56436
-0.06385,0.88638,-0.45852,-0.19387,-0.40849,0.65068
-0.0729,0.87746,-0.47407,-0.29439,-0.55821,0.70838
-0.0769,0.87623,-0.4757,-0.34818,-0.65057,0.70478
-0.07671,0.88099,-0.46686,-0.21677,-0.59856,0.5327
-0.07346,0.89041,-0.44918,0.02368,-0.45176,0.3117
-0.06419,0.9052,-0.42009,-0.08241,-0.19431,-0.04904
-0.04952,0.92039,-0.38783,-0.3287,0.18723,-0.79051
-0.04302,0.9275,-0.37131,-0.55832,1.50531,-1.18855
-0.0511,0.92525,-0.37588,-0.06592,1.6517,-0.8997
-0.05433,0.9175,-0.394,-0.0416,0.25514,-0.30931
-0.05346,0.91065,-0.40969,-0.33251,-0.54685,-0.08734
-0.04786,0.90893,-0.41417,-0.44382,-0.46064,-0.29903
-0.05086,0.91543,-0.39924,-0.55259,-0.17342,-0.27391
-0.06848,0.92619,-0.37077,-0.15995,0.77385,1.45832
-0.07372,0.92292,-0.37784,-0.33775,-0.14054,1.06249
-0.06987,0.92486,-0.37382,-0.26482,-0.83701,0.28053
-0.06218,0.94077,-0.33328,-0.29623,-0.71953,0.28704
-0.05158,0.96299,-0.26454,0.23511,0.17022,1.07559
-0.03362,0.97984,-0.1969,0.30056,0.73197,0.46786
-0.02641,0.989,-0.14547,0.2297,0.3369,0.25651
-0.02933,0.9942,-0.10339,0.09197,0.15745,0.22424
-0.03553,0.99727,-0.06452,-0.32313,-0.05094,0.02408
-0.03614,0.99891,-0.02921,-0.45858,-0.1023,0.01101
-0.03802,0.99925,0.00547,-0.38156,-0.11827,0.12844
-0.04639,0.99822,0.03724,-0.06168,-0.13802,0.17933
-0.05573,0.99612,0.06787,0.09481,-0.03892,0.18113
-0.06221,0.99298,0.10049,0.14723,-0.0231,0.14928
-0.07011,0.98873,0.13216,0.09467,-0.06966,-0.04024
-0.08215,0.98354,0.16082,-0.06348,-0.09762,-0.10276
-0.09801,0.97732,0.18762,-0.02438,-0.1404,-0.09803
-0.11722,0.96959,0.21474,0.10514,0.01693,-0.15614
-0.13786,0.9603,0.24247,0.15901,0.181,-0.21804
-0.15862,0.95065,0.26659,0.06422,0.12026,-0.29134
-0.17764,0.9416,0.28602,0.09481,0.22175,-0.28876
-0.1957,0.93336,0.30084,0.18566,0.42609,-0.33131
-0.21258,0.92683,0.30945,0.17738,0.35848,-0.31994
-0.22565,0.92304,0.31152,0.23269,0.33426,-0.35152
-0.23508,0.92177,0.30829,0.26098,0.36807,-0.43272
-0.24234,0.9225,0.30039,0.11158,0.32885,-0.56523
-0.24776,0.92599,0.28482,-0.03198,0.26123,-0.45396
-0.25441,0.93309,0.25413,-0.03344,0.27502,-0.53454
-0.2602,0.94315,0.20675,0.16472,0.05632,-0.14929
-0.2549,0.95536,0.14927,0.22316,0.11078,-0.13523
-0.23606,0.96733,0.09232,0.15476,0.39151,0.16012
-0.21227,0.97649,0.03714,-0.20504,0.77075,0.36698
-0.19003,0.98165,-0.01507,-0.31771,0.64468,0.20831
-0.16321,0.98452,-0.06366,-0.37469,0.48682,0.13423
-0.13579,0.98537,-0.10293,-0.49892,0.38582,0.16994
-0.1132,0.984,-0.1375,-0.6968,0.21097,0.46834
-0.08772,0.97993,-0.17894,-0.30849,-0.09883,0.47832
-0.06389,0.97141,-0.22861,0.03017,-0.14077,0.41478
-0.04502,0.95873,-0.2807,0.18966,-0.20045,0.38794
-0.03469,0.94371,-0.32892,0.14719,-0.18761,0.42552
-0.0307,0.92836,-0.37039,-0.06183,-0.30681,0.5441
-0.03209,0.91316,-0.40632,-0.17468,-0.37801,0.57839
-0.03818,0.89936,-0.43553,-0.32013,-0.55405,0.63769
-0.04313,0.88928,-0.4553,-0.29714,-0.58574,0.64336
-0.04721,0.8844,-0.46433,-0.24915,-0.62002,0.65739
-0.04904,0.88518,-0.46264,-0.12014,-0.58266,0.44861
-0.05037,0.89104,-0.45111,0.01853,-0.48606,0.29119
-0.04913,0.90174,-0.42946,0.05411,-0.25053,-0.06719
-0.03948,0.91654,-0.39798,-0.27062,0.03447,-0.76068
-0.02979,0.92697,-0.37394,-0.62706,0.89527,-1.29454
-0.03639,0.92872,-0.36898,-0.14043,2.04727,-1.03457
-0.04207,0.92095,-0.38739,0.07483,0.38209,-0.31637
-0.0469,0.9112,-0.40927,-0.24666,-0.38991,0.15391
-0.04651,0.90488,-0.42311,-0.5363,-0.43788,-0.17624
-0.04769,0.9073,-0.41775,-0.71686,0.22194,-0.16233
-0.06526,0.91634,-0.39504,-0.06154,0.74512,1.02812
-0.07063,0.92055,-0.38418,-0.32337,0.33486,1.26885
-0.06648,0.92113,-0.38352,-0.36823,-0.73544,0.96235
-0.05844,0.93154,-0.35889,-0.355,-0.80769,0.15796
-0.05154,0.95092,-0.30508,0.19834,-0.18954,0.90597
-0.03586,0.97165,-0.23367,0.33201,0.52607,0.90422
-0.01968,0.98378,-0.17824,0.22073,0.57764,0.29912
-0.01813,0.99099,-0.13265,0.11623,0.10762,0.10054
-0.02351,0.99575,-0.08886,-0.11632,-0.17267,0.08435
-0.03326,0.99866,-0.03933,-0.30944,-0.07071,0.17451
-0.04024,0.99917,0.00278,-0.32211,-0.11197,0.16562
-0.04842,0.99822,0.03445,-0.13296,-0.09743,0.0931
-0.06289,0.9961,0.06166,-0.0093,-0.03382,0.05144
-0.07465,0.99316,0.08964,0.16388,0.01111,0.02731
-0.08272,0.98913,0.12144,0.1324,-0.08033,0.03121
-0.09258,0.98436,0.14976,-0.00379,-0.16223,-0.16208
-0.10543,0.97819,0.17887,-0.05558,-0.18391,-0.16072
-0.12192,0.97076,0.20669,-0.03218,-0.06247,-0.07316
-0.14116,0.96172,0.23481,0.08598,0.09646,-0.16845
-0.16329,0.95057,0.26403,0.10003,0.15848,-0.19384
-0.18562,0.93906,0.28928,0.00993,0.18837,-0.26404
-0.20771,0.9282,0.30866,0.03202,0.19923,-0.28342
-0.22858,0.919,0.32117,0.28242,0.52884,-0.40443
-0.24607,0.9125,0.32675,0.23194,0.41174,-0.26891
-0.25871,0.9091,0.32646,0.28996,0.40078,-0.37204
-0.26786,0.90807,0.3219,0.24907,0.43352,-0.49188
-0.27573,0.90958,0.31082,0.12879,0.38977,-0.40539
-0.28165,0.91536,0.28768,0.11127,0.47185,-0.53501
-0.2852,0.92567,0.24851,0.19006,0.40511,-0.34544
-0.2802,0.94014,0.19387,0.275,0.19172,-0.18151
-0.26201,0.95541,0.13608,0.13155,0.19826,0.03992
-0.23825,0.968,0.07864,-0.23523,0.37609,0.28267
-0.21887,0.97548,0.02274,-0.41265,0.66365,0.15953
-0.20133,0.97893,-0.03374,-0.34527,0.38986,0.04313
-0.17647,0.98097,-0.08083,-0.31209,0.27025,0.20383
-0.1519,0.9811,-0.11978,-0.40319,0.29667,0.36688
-0.12713,0.9787,-0.16113,-0.34644,0.12244,0.49175
-0.09653,0.97307,-0.20926,0.03641,-0.11063,0.37265
-0.06901,0.96317,-0.25983,0.13069,-0.10693,0.39558
-0.04997,0.94986,-0.30862,0.19799,-0.27373,0.49195
-0.03819,0.9348,-0.35309,0.00793,-0.36948,0.50673
-0.03367,0.91936,-0.39195,-0.17192,-0.39995,0.59491
-0.03703,0.9046,-0.42464,-0.25269,-0.42977,0.70809
-0.04429,0.89135,-0.45112,-0.27103,-0.48085,0.74542
-0.05197,0.88213,-0.46812,-0.26799,-0.56472,0.67802
-0.05566,0.87964,-0.47236,-0.2488,-0.58431,0.54728
-0.0557,0.88323,-0.4656,-0.12008,-0.54493,0.32708
-0.05216,0.89211,-0.44877,-0.00338,-0.25732,0.0905
-0.04202,0.90613,-0.42089,-0.32114,-0.07338,-0.57623
-0.02941,0.91798,-0.39551,-0.59954,0.57836,-1.30175
-0.03571,0.92069,-0.38864,-0.30205,1.89018,-1.08904
-0.04526,0.91424,-0.40262,0.14083,0.74494,-0.32525
-0.05166,0.90404,-0.4243,-0.12178,-0.36655,0.05235
-0.0523,0.89677,-0.43937,-0.35777,-0.85867,-0.40238
-0.04962,0.8978,-0.43757,-0.38798,-0.58936,0.37747
-0.04854,0.91688,-0.39618,-0.23272,-0.02014,1.89511
-0.06063,0.93343,-0.35357,-1.05375,1.64303,-0.14408
-0.06396,0.92858,-0.36556,-0.18604,0.84973,0.92759
-0.07374,0.93314,-0.35186,0.07255,-0.94879,0.67252
-0.06525,0.94622,-0.31685,0.04787,-0.55768,0.96294
-0.05109,0.96504,-0.25704,0.07905,-0.19,0.8982
-0.0384,0.98136,-0.18827,0.16653,0.71866,0.60631
-0.03175,0.99106,-0.12945,0.09884,0.3738,0.3071
-0.03436,0.996,-0.08228,0.02069,0.17515,0.16977
-0.03919,0.99811,-0.04698,-0.05996,0.02036,0.05624
-0.04567,0.99882,-0.0157,-0.43022,-0.23074,0.1771
-0.05677,0.99825,0.01573,-0.41912,-0.23017,0.14567
-0.06954,0.99649,0.04625,-0.08369,-0.14621,0.16887
-0.08068,0.99373,0.07719,0.21441,-0.0192,0.02167
-0.08877,0.98989,0.11049,0.22694,-0.04855,-0.00474
-0.09676,0.9853,0.1407,0.21558,-0.07523,-0.03975
-0.10885,0.97977,0.16784,-0.05463,-0.13487,-0.13371
-0.12545,0.97243,0.19652,-0.03803,-0.12753,-0.16238
-0.14505,0.9633,0.22577,0.10527,0.0531,-0.13948
-0.16645,0.9527,0.25423,0.08441,0.15843,-0.32562
-0.18808,0.94186,0.27838,0.02844,0.15145,-0.33389
-0.20928,0.93174,0.2967,0.04203,0.30772,-0.35009
-0.22975,0.92349,0.30717,0.18442,0.44161,-0.41195
-0.24621,0.91813,0.31046,0.27003,0.424,-0.36459
-0.25652,0.91591,0.30866,0.31101,0.39723,-0.43234
-0.26436,0.91639,0.30051,0.17646,0.41329,-0.58497
-0.2723,0.91929,0.28411,0.01092,0.25238,-0.54647
-0.28284,0.92601,0.24995,0.14113,0.26028,-0.49864
-0.29005,0.93609,0.19896,0.44221,0.21927,-0.1017
-0.28278,0.94888,0.14011,0.50562,0.23815,0.0019
-0.25885,0.96227,0.08373,-0.0287,0.48974,0.17958
-0.22827,0.97315,0.02919,-0.28394,0.70128,0.34177
-0.20343,0.97876,-0.02478,-0.46137,0.79431,0.24037
-0.1772,0.98116,-0.07675,-0.30649,0.46964,0.23878
-0.14908,0.98169,-0.1185,-0.34776,0.46997,0.26617
-0.1238,0.98025,-0.15418,-0.49682,0.23808,0.39144
-0.09336,0.97664,-0.19351,-0.12388,-0.05812,0.44309
-0.06311,0.96841,-0.2412,0.05864,-0.16377,0.47724
-0.04266,0.95485,-0.29399,0.23167,-0.30273,0.42804
-0.03273,0.9393,-0.34152,0.17454,-0.35194,0.48488
-0.03143,0.92309,-0.38329,0.00884,-0.36391,0.60085
-0.03789,0.90624,-0.42105,-0.12577,-0.388,0.65341
-0.04947,0.8902,-0.45286,-0.27359,-0.43499,0.6735
-0.05953,0.87857,-0.47388,-0.35826,-0.51919,0.73566
-0.06637,0.87292,-0.48331,-0.36524,-0.58256,0.67125
-0.06794,0.87389,-0.48134,-0.33107,-0.54018,0.52977
-0.06647,0.88,-0.47028,-0.19905,-0.48912,0.30634
-0.06388,0.88969,-0.45206,-0.04871,-0.30747,0.14836
-0.05407,0.90435,-0.42334,-0.11949,-0.14245,-0.33411
-0.03705,0.91746,-0.39608,-0.31949,0.26062,-0.89618
-0.03282,0.92262,-0.38428,-0.45827,0.73418,-1.18369
-0.04074,0.91709,-0.39658,0.37727,1.365,-0.62232
-0.04197,0.90799,-0.41686,-0.03599,-0.48929,0.00576
-0.03905,0.90117,-0.43168,-0.17242,-0.80385,-0.19164
-0.03465,0.9002,-0.43408,-0.23344,-0.80352,-0.10858
-0.02547,0.91492,-0.40281,-0.51953,0.05718,2.10935
-0.04071,0.93681,-0.34745,-0.89771,0.77877,1.39434
-0.04412,0.937,-0.34649,-1.14474,2.23922,-0.78383
-0.06271,0.93513,-0.34869,-0.14344,-0.38632,1.14654
-0.06526,0.94743,-0.3132,-0.02149,-1.00339,0.62049
-0.05276,0.96613,-0.25256,0.02751,-0.89092,0.82442
-0.03974,0.9833,-0.17753,0.21837,0.67486,0.62638
-0.03338,0.99295,-0.11366,0.26063,0.6912,0.47133
-0.03237,0.99719,-0.06742,0.19109,0.4939,0.30567
-0.03232,0.99896,-0.03166,-0.19753,-0.14444,-0.06138
-0.03676,0.99931,0.00171,-0.28384,-0.18916,-0.01437
-0.04479,0.99846,0.03241,-0.32936,-0.22946,0.05961
-0.0539,0.99656,0.06273,-0.01409,-0.23664,0.19036
-0.06369,0.99355,0.09367,0.09292,-0.16564,0.10322
-0.0723,0.98957,0.12447,0.14353,-0.04641,-0.078
-0.08295,0.98499,0.15128,-0.03379,-0.12358,-0.11426
-0.09639,0.9793,0.17789,-0.10127,-0.12658,-0.1222
-0.11274,0.97184,0.20686,0.08845,0.04048,-0.12416
-0.13226,0.96268,0.23604,0.15765,0.14714,-0.18645
-0.15407,0.95219,0.26376,0.11923,0.20138,-0.27746
-0.17491,0.94162,0.2876,0.00649,0.16998,-0.28777
-0.19465,0.93228,0.30485,0.12367,0.27245,-0.28564
-0.214,0.9245,0.31538,0.26703,0.44185,-0.45254
-0.23016,0.91937,0.31897,0.25815,0.32892,-0.3015
-0.24069,0.91705,0.31786,0.24526,0.35377,-0.45383
-0.24912,0.91649,0.31298,0.18305,0.33312,-0.46836
-0.25649,0.91813,0.30201,-0.00268,0.27155,-0.42419
-0.26477,0.92359,0.2772,0.07495,0.38381,-0.48998
-0.26869,0.93378,0.23629,0.17142,0.39168,-0.36567
-0.26216,0.94739,0.18354,0.32155,0.30426,-0.12359
-0.24214,0.9617,0.12833,-0.03075,0.32913,0.09412
-0.21661,0.97351,0.07293,-0.37235,0.6015,0.26458
-0.19499,0.98062,0.01834,-0.41176,0.59848,0.11134
-0.17098,0.98467,-0.03407,-0.33842,0.41763,0.14572
-0.14377,0.98656,-0.07744,-0.44844,0.35101,0.28435
-0.12535,0.98474,-0.12059,-0.57544,0.26091,0.39456
-0.1053,0.98086,-0.16373,-0.32128,-0.02265,0.44146
-0.07947,0.97372,-0.21337,-0.0959,-0.10972,0.46462
-0.05931,0.96174,-0.26743,0.11547,-0.24168,0.42375
-0.0492,0.94662,-0.31855,0.1379,-0.29107,0.54275
-0.04549,0.92994,-0.36487,0.0045,-0.37328,0.52469
-0.04714,0.9132,-0.40476,-0.07346,-0.3751,0.55512
-0.05321,0.89789,-0.43698,-0.26973,-0.39929,0.74025
-0.06254,0.88402,-0.46322,-0.2604,-0.38543,0.76649
-0.0719,0.87408,-0.48042,-0.23684,-0.57467,0.70226
-0.07622,0.87125,-0.48486,-0.11621,-0.63955,0.49548
-0.07653,0.87587,-0.47643,-0.04612,-0.61174,0.41991
-0.0746,0.88706,-0.45556,-0.01644,-0.52207,0.32634
-0.06464,0.90363,-0.42339,-0.48967,0.10469,-0.95408
-0.0497,0.91624,-0.39752,-0.47937,0.5808,-1.19156
-0.05297,0.91922,-0.39016,-0.67306,1.7456,-1.152
-0.06051,0.91243,-0.40471,0.17747,1.08818,-0.49461
-0.06825,0.90236,-0.42553,-0.08526,-0.1427,0.00379
-0.06844,0.89543,-0.43989,-0.37106,-0.67381,0.08132
-0.06331,0.8989,-0.43354,-0.64174,-0.42212,-0.22081
-0.07238,0.91106,-0.40584,-0.3748,0.19494,0.31435
-0.08357,0.92437,-0.3722,-0.13338,0.6964,1.37967
-0.08262,0.92466,-0.37169,-0.51927,0.47537,0.80664
-0.0784,0.93176,-0.35449,-0.14622,-0.63761,0.6798
-0.07041,0.94863,-0.30841,-0.10256,-0.59832,0.34208
-0.05455,0.96864,-0.24235,0.24411,0.02098,1.00682
-0.0351,0.98248,-0.18298,0.32941,0.59324,0.64891
-0.02863,0.99001,-0.13799,0.11914,0.07997,0.18698
-0.03358,0.995,-0.09391,0.02943,-0.05291,0.09347
-0.04519,0.99783,-0.04754,-0.1549,-0.10635,0.0671
-0.05547,0.99843,-0.00593,-0.39079,-0.10368,0.11843
-0.06301,0.99764,0.02685,-0.26691,-0.10543,0.08112
-0.0776,0.9955,0.05412,-0.14986,-0.07814,0.02523
-0.08881,0.99231,0.086,0.18108,-0.06276,0.03538
-0.09488,0.98826,0.11965,0.20686,-0.05054,0.01165
-0.1028,0.98374,0.1472,0.04596,-0.09752,-0.14144
-0.11426,0.97848,0.1717,-0.02369,-0.03984,-0.074
-0.12897,0.97168,0.19791,0.09673,-0.02443,-0.04548
-0.14522,0.96326,0.22585,0.16557,0.05145,-0.11472
-0.16368,0.95292,0.25519,0.04313,0.16651,-0.19471
-0.18433,0.94153,0.28198,-0.21525,0.14894,-0.36553
-0.20524,0.93082,0.30235,-0.09778,0.24727,-0.32584
-0.22643,0.92143,0.3157,0.28815,0.48251,-0.37448
-0.2454,0.91473,0.32096,0.4009,0.42869,-0.31947
-0.2584,0.9115,0.31994,0.34603,0.37723,-0.35442
-0.26647,0.91088,0.31504,0.19389,0.3818,-0.47914
-0.27341,0.91209,0.30546,0.05028,0.31536,-0.36889
-0.28013,0.91702,0.28385,0.10636,0.46021,-0.48386
-0.28364,0.92687,0.2458,0.1584,0.49439,-0.47966
-0.2805,0.94073,0.19055,0.25975,0.19573,-0.20262
-0.26436,0.95538,0.13163,0.13086,0.17235,0.1241
-0.24073,0.96777,0.07376,-0.03316,0.21215,0.29023
-0.21872,0.97564,0.01648,-0.3181,0.61522,-0.03146
-0.1965,0.97975,-0.03796,-0.34032,0.6111,0.02298
-0.16642,0.98273,-0.08077,-0.32008,0.45163,0.29464
-0.14404,0.98215,-0.12087,-0.52885,0.36021,0.45949
-0.12125,0.9788,-0.16498,-0.377,0.04659,0.48036
-0.09547,0.97119,-0.21832,-0.05779,-0.05358,0.45572
-0.07407,0.95914,-0.27304,0.22653,-0.26031,0.37836
-0.0638,0.94406,-0.32353,0.25291,-0.32827,0.49436
-0.06013,0.92814,-0.36733,0.05906,-0.39306,0.53154
-0.06061,0.9127,-0.4041,-0.09049,-0.38994,0.59519
-0.06704,0.89831,-0.43419,-0.21596,-0.40603,0.64921
-0.07634,0.88592,-0.4575,-0.25003,-0.42381,0.78129
-0.08395,0.8775,-0.47215,-0.24062,-0.50313,0.74325
-0.0874,0.87484,-0.47646,-0.17975,-0.57794,0.62912
-0.0863,0.87814,-0.47054,-0.09425,-0.59407,0.42346
-0.08077,0.88732,-0.454,0.03058,-0.40647,0.15956
-0.06636,0.90261,-0.42529,-0.14149,-0.16797,-0.27444
-0.04775,0.91572,-0.39895,-0.60525,0.72224,-1.21521
-0.04909,0.9201,-0.38856,-0.6288,1.46381,-1.20911
-0.05763,0.91326,-0.40327,0.07008,1.475,-0.66408
-0.06305,0.90227,-0.42653,-0.17434,-0.39755,0.02412
-0.06855,0.89461,-0.44154,-0.43342,-0.68036,-0.12804
-0.06891,0.89741,-0.43577,-0.66609,-0.0483,0.0855
-0.0787,0.91128,-0.40417,-0.23595,0.65386,1.35749
-0.08522,0.9201,-0.38228,-0.68306,0.96555,0.6793
-0.08756,0.91656,-0.39018,-0.24023,-0.45263,0.98233
-0.09049,0.926,-0.3665,-0.08668,-0.81429,0.46065
-0.08138,0.94589,-0.3141,0.29086,-0.31938,0.93407
-0.06113,0.96708,-0.24697,0.3064,0.357,0.85969
-0.04183,0.98055,-0.19169,0.17695,0.60745,0.30285
-0.03757,0.98862,-0.14557,0.08385,0.10873,0.11453
-0.04196,0.99396,-0.10128,-0.0935,-0.10559,0.08216
-0.05335,0.997,-0.05595,-0.29963,-0.00638,0.18405
-0.06185,0.9979,-0.0183,-0.25152,-0.05195,0.11237
-0.07068,0.99738,0.01425,-0.10479,-0.14114,0.064
-0.08308,0.99543,0.04678,0.04425,-0.16096,0.10389
-0.09276,0.99251,0.07929,0.1198,-0.10506,0.15054
-0.10047,0.98863,0.11174,0.13335,-0.11205,-0.04321
-0.11083,0.98358,0.14233,0.01876,-0.17441,-0.18745
-0.12432,0.9771,0.17261,-0.09098,-0.1377,-0.07828
-0.14091,0.96935,0.20117,0.04022,-0.01225,-0.16928
-0.15968,0.9599,0.23035,0.10871,0.0813,-0.23501
-0.18065,0.94913,0.25786,0.05778,0.23787,-0.34914
-0.1994,0.93906,0.27996,-0.02894,0.22943,-0.34852
-0.21764,0.93019,0.29556,0.13495,0.40659,-0.34961
-0.23551,0.92321,0.30362,0.36741,0.47034,-0.29689
-0.24827,0.91899,0.30625,0.4197,0.43689,-0.29575
-0.25554,0.9178,0.30384,0.25349,0.39147,-0.48454
-0.26077,0.91892,0.2959,-0.01524,0.31331,-0.53212
-0.26852,0.92318,0.27498,-0.00882,0.31082,-0.39935
-0.27631,0.93183,0.23519,0.1639,0.44486,-0.41896
-0.27619,0.94419,0.17946,0.33742,0.19154,-0.15695
-0.26007,0.95797,0.12094,0.21184,0.24274,0.16829
-0.23433,0.97006,0.0636,-0.1299,0.51492,0.35286
-0.21017,0.97763,0.00608,-0.33576,0.84553,0.19241
-0.18788,0.98087,-0.05066,-0.32819,0.57731,0.0982
-0.16129,0.98205,-0.09773,-0.38186,0.44349,0.21359
-0.13757,0.98126,-0.13487,-0.53371,0.16533,0.45252
-0.10867,0.97867,-0.17426,-0.35433,0.02676,0.47565
-0.07823,0.97213,-0.22096,-0.14475,-0.0453,0.47909
-0.05341,0.96051,-0.27304,0.1627,-0.31693,0.44528
-0.03843,0.94532,-0.32385,0.16123,-0.32737,0.46147
-0.03237,0.9295,-0.36737,-0.00401,-0.32232,0.61072
-0.03245,0.9131,-0.40642,-0.17135,-0.3996,0.68793
-0.03841,0.89703,-0.44028,-0.28014,-0.46711,0.6993
-0.04662,0.88347,-0.46615,-0.27909,-0.53156,0.72599
-0.05363,0.87516,-0.48084,-0.26978,-0.6093,0.68899
-0.05758,0.87347,-0.48345,-0.22148,-0.64135,0.55479
-0.05939,0.87823,-0.47452,-0.02745,-0.59798,0.31418
-0.05777,0.89025,-0.45179,0.00285,-0.30419,0.03838
-0.04903,0.90711,-0.41801,-0.34901,0.07148,-0.72958
-0.03814,0.91959,-0.391,-0.56167,1.00232,-1.27907
-0.04525,0.92111,-0.38664,-0.70707,1.73847,-1.34418
-0.05216,0.91174,-0.40742,0.04768,0.35124,-0.29547
-0.05683,0.9005,-0.43112,-0.25908,-0.51828,0.10177
-0.05651,0.89341,-0.44566,-0.55747,-0.6124,-0.34014
-0.05418,0.89579,-0.44115,-0.63774,-0.00852,0.16814
-0.06929,0.91132,-0.40581,-0.10942,0.57347,1.6931
-0.07874,0.91519,-0.39523,-0.56108,0.94566,0.61055
-0.08384,0.91254,-0.40027,-0.13931,-0.47576,0.84701
-0.0823,0.92505,-0.3708,-0.12673,-0.72604,0.46234
-0.07064,0.94752,-0.31176,0.36354,-0.31354,1.07795
-0.04746,0.96891,-0.24277,0.24725,0.42319,0.7428
-0.03249,0.98249,-0.1834,0.19918,0.63084,0.25342
-0.03395,0.99076,-0.13125,0.05806,0.13839,0.17271
-0.04178,0.99565,-0.08309,-0.0952,0.01289,0.15623
-0.04572,0.99786,-0.04644,-0.2172,-0.00679,0.10926
-0.0511,0.9986,-0.01225,-0.3362,-0.18787,0.11359
-0.06297,0.9978,0.01982,-0.20905,-0.18508,0.12111
-0.07629,0.99587,0.04904,-0.15224,-0.15122,0.13113
-0.08661,0.99295,0.08077,0.05936,-0.12561,0.04006
-0.09481,0.9889,0.11425,0.06755,-0.12156,0.00659
-0.10512,0.9836,0.14644,-0.00416,-0.13572,-0.03241
-0.11975,0.97684,0.17724,-0.03847,-0.13535,-0.08477
-0.13891,0.96868,0.20574,0.05959,-0.02244,-0.1167
-0.16058,0.9586,0.2351,0.07598,0.12943,-0.21363
-0.18275,0.94762,0.26189,-0.01998,0.18644,-0.31469
-0.20384,0.93703,0.28353,0.07849,0.27008,-0.30472
-0.22481,0.92797,0.29714,0.31383,0.45592,-0.41004
-0.24264,0.92154,0.30307,0.32855,0.44912,-0.33896
-0.25313,0.91832,0.30427,0.33646,0.39635,-0.36689
-0.25961,0.91806,0.29954,0.30209,0.37806,-0.49589
-0.26572,0.92007,0.2878,0.15717,0.37488,-0.47436
-0.27161,0.92598,0.26222,0.1089,0.45581,-0.47757
-0.27469,0.93627,0.21889,0.20715,0.44338,-0.34137
-0.26787,0.94962,0.16261,0.22007,0.27311,-0.15738
-0.2483,0.96312,0.1035,0.04505,0.25322,0.20911
-0.2238,0.97361,0.04431,-0.33357,0.69236,0.30519
-0.20304,0.97904,-0.01486,-0.39435,0.75495,0.1598
-0.17911,0.98139,-0.0691,-0.34511,0.48694,0.09214
-0.15162,0.98201,-0.11242,-0.42929,0.36307,0.34389
-0.12623,0.98026,-0.1521,-0.46486,0.18425,0.47112
-0.09511,0.97607,-0.19547,-0.18115,-0.06149,0.50735
-0.06297,0.96729,-0.2457,0.025,-0.21024,0.47825
-0.03828,0.95324,-0.29974,0.2038,-0.31309,0.46104
-0.02761,0.93634,-0.34998,0.1205,-0.40691,0.55699
-0.02327,0.91879,-0.39403,-0.04773,-0.42552,0.57344
-0.02568,0.90176,-0.43146,-0.18364,-0.43263,0.62143
-0.03282,0.88645,-0.46165,-0.2718,-0.45209,0.6901
-0.04128,0.87443,-0.48338,-0.28579,-0.51437,0.72027
-0.04875,0.86794,-0.49426,-0.27876,-0.59618,0.6622
-0.0545,0.86789,-0.49374,-0.19561,-0.62574,0.53834
-0.05966,0.87407,-0.48211,-0.05803,-0.498,0.35708
-0.06196,0.88579,-0.45992,0.04222,-0.25598,-0.00836
-0.05398,0.90192,-0.42849,-0.31305,0.05853,-0.73406
-0.04444,0.91322,-0.40501,-0.65182,0.84812,-1.22148
-0.05096,0.9144,-0.40157,-0.40609,2.24643,-1.0543
-0.05457,0.9052,-0.42146,0.13429,0.50948,-0.28554
-0.06067,0.89395,-0.44403,-0.11726,-0.56901,0.10975
-0.06052,0.88859,-0.45468,-0.59715,-0.59843,-0.04813
-0.05683,0.89553,-0.44133,-0.61857,-0.29447,0.20583
-0.06678,0.91492,-0.39805,-0.19748,0.33625,1.28729
-0.07391,0.92856,-0.36372,-0.66688,1.18469,0.65797
-0.07471,0.92549,-0.37131,-0.49762,0.45946,0.7385
-0.07676,0.93415,-0.3485,-0.09362,-0.44901,0.91283
-0.0675,0.95292,-0.29557,0.32795,-0.34591,0.987
-0.04849,0.97209,-0.2295,0.30895,-0.36508,0.92093
-0.0344,0.98494,-0.16937,0.219,0.46361,0.49331
-0.03475,0.9925,-0.11705,-0.00263,0.16368,0.23093
-0.04626,0.99633,-0.07184,-0.07641,0.06008,0.17609
-0.05726,0.99765,-0.03716,-0.18476,0.0334,0.1178
-0.06631,0.99777,-0.00582,-0.30416,-0.20283,0.08829
-0.07857,0.99654,0.02666,-0.23439,-0.22629,0.11891
-0.09091,0.99382,0.06345,-0.12819,-0.20332,0.15411
-0.09971,0.98987,0.10092,0.23779,-0.07639,-0.02215
-0.10909,0.98523,0.13184,0.23157,-0.08811,-0.18038
-0.1199,0.98045,0.15594,-0.01307,-0.09893,-0.22212
-0.13284,0.97427,0.18196,-0.06826,-0.10208,-0.06087
-0.14868,0.96645,0.20935,0.15309,0.01992,-0.07177
-0.16686,0.95675,0.23822,0.23281,0.18569,-0.16575
-0.18822,0.94568,0.265,0.00071,0.16908,-0.29797
-0.20957,0.93517,0.28549,-0.2326,0.17427,-0.27482
-0.23175,0.92546,0.29964,0.35758,0.55114,-0.36499
-0.25255,0.91783,0.30621,0.52192,0.51863,-0.28776
-0.26571,0.91391,0.3068,0.48104,0.48451,-0.38411
-0.2728,0.91317,0.30277,0.13223,0.46321,-0.49163
-0.27924,0.91465,0.29226,0.06466,0.43867,-0.38179
-0.28436,0.91995,0.26982,0.09643,0.47931,-0.46286
-0.28685,0.9298,0.23055,0.28423,0.26841,-0.25996
-0.27992,0.9437,0.17621,0.29646,0.17239,-0.16895
-0.26027,0.95815,0.11905,0.10443,0.13929,0.06353
-0.23603,0.96977,0.06165,-0.32056,0.53227,0.33877
-0.21694,0.97615,0.00604,-0.38303,0.68652,0.2699
-0.19846,0.97882,-0.05001,-0.2302,0.34235,0.09499
-0.17164,0.9804,-0.09657,-0.32266,0.37851,0.34535
-0.14817,0.97915,-0.13888,-0.56738,0.31927,0.45623
-0.122,0.97601,-0.18025,-0.32147,0.03548,0.50264
-0.08968,0.96901,-0.23012,-0.05627,-0.08577,0.48506
-0.06385,0.95595,-0.28647,0.2445,-0.21559,0.41379
-0.05034,0.9393,-0.33937,0.28026,-0.34896,0.51784
-0.04521,0.92081,-0.38736,0.06588,-0.348,0.60513
-0.0457,0.90197,-0.42935,-0.16998,-0.44517,0.636
-0.05324,0.88431,-0.46385,-0.25523,-0.46312,0.7468
-0.06486,0.86954,-0.48956,-0.27228,-0.49673,0.80915
-0.07535,0.85954,-0.50548,-0.24708,-0.5433,0.76217
-0.07959,0.8561,-0.51063,-0.25065,-0.58181,0.69981
-0.07947,0.86051,-0.50319,-0.08745,-0.61672,0.33871
-0.076,0.87335,-0.48111,-0.03912,-0.3484,0.10163
-0.06496,0.89074,-0.44983,-0.09471,-0.14614,-0.15881
-0.05046,0.90304,-0.42656,-0.64716,0.79927,-1.4384
-0.05774,0.90585,-0.41962,-0.35976,2.01834,-1.09997
-0.06678,0.89923,-0.43232,0.19217,0.57615,-0.25553
-0.07496,0.88964,-0.45045,-0.05902,-0.42718,0.11865
-0.07787,0.88355,-0.46181,-0.5232,-0.48778,-0.10547
-0.07869,0.88917,-0.45075,-0.47697,-0.24961,0.49612
-0.08782,0.91113,-0.40264,-0.15207,-0.02838,1.37482
-0.08726,0.91741,-0.38822,-0.70667,1.22219,0.35787
-0.08845,0.91505,-0.39351,-0.14989,0.02699,1.01461
-0.08371,0.9294,-0.35943,0.06904,-0.6559,0.81527
-0.06723,0.95057,-0.30312,0.17148,-0.32937,1.09411
-0.05046,0.97038,-0.23619,0.13764,0.02299,0.8157
-0.04293,0.98392,-0.17328,0.11974,0.43888,0.55263
-0.04925,0.99202,-0.11591,-0.02144,0.21937,0.26012
-0.05741,0.99576,-0.07165,-0.09136,0.10789,0.18686
-0.06236,0.99733,-0.03766,-0.24001,-0.18474,0.00463
-0.07152,0.99742,-0.00299,-0.25872,-0.20839,0.01236
-0.08238,0.99612,0.0305,-0.1779,-0.1571,0.11128
-0.0935,0.99355,0.06395,0.11416,-0.13019,0.19209
-0.10367,0.98985,0.09705,0.20163,-0.14389,0.07988
-0.11363,0.98564,0.12482,0.09305,-0.08576,-0.14812
-0.12557,0.9805,0.15106,-0.1015,-0.07735,-0.02055
-0.13954,0.97384,0.17925,0.03492,-0.06091,-0.0091
-0.15703,0.96535,0.20833,0.11918,0.1696,-0.13843
-0.17906,0.95442,0.23872,-0.0228,0.22381,-0.31729
-0.20182,0.94317,0.26395,-0.0793,0.18997,-0.30971
-0.22356,0.93316,0.2814,0.23329,0.45108,-0.31629
-0.24375,0.92493,0.29164,0.39881,0.51614,-0.36508
-0.25907,0.91947,0.29565,0.3565,0.40348,-0.3173
-0.26824,0.91703,0.29507,0.23891,0.45266,-0.4275
-0.27575,0.9165,0.28976,0.05446,0.40739,-0.51815
-0.28469,0.9176,0.27737,0.0812,0.36161,-0.37873
-0.29376,0.92275,0.24939,0.2609,0.34194,-0.5039
-0.298,0.93236,0.2046,0.38359,0.22612,-0.23113
-0.28984,0.94541,0.14888,0.29388,0.20547,0.01014
-0.26833,0.95884,0.09272,-0.09666,0.34289,0.22581
-0.24258,0.96936,0.03823,-0.50967,0.68391,0.3685
-0.22243,0.97482,-0.01521,-0.43218,0.56052,0.09835
-0.20006,0.97731,-0.06932,-0.26642,0.28918,0.13233
-0.17334,0.9784,-0.11251,-0.30014,0.4034,0.30635
-0.15143,0.97655,-0.15295,-0.31624,0.08697,0.50172
-0.124,0.9723,-0.19805,-0.17489,-0.06638,0.54219
-0.09335,0.96362,-0.25038,0.0703,-0.17838,0.48271
-0.07098,0.94987,-0.30445,0.30307,-0.28169,0.45884
-0.06027,0.93364,-0.35307,0.25094,-0.27611,0.58876
-0.05459,0.9166,-0.39603,0.1791,-0.28709,0.6456
-0.05325,0.89962,-0.4334,-0.24201,-0.4182,0.6336
-0.05802,0.88362,-0.46457,-0.23724,-0.40221,0.66477
-0.06688,0.87033,-0.48789,-0.2762,-0.4409,0.77933
-0.07355,0.86334,-0.49922,-0.24126,-0.63505,0.64444
-0.07449,0.86451,-0.49705,-0.21075,-0.64944,0.55789
-0.07148,0.87254,-0.48326,-0.14878,-0.62537,0.44988
-0.06551,0.88577,-0.45945,-0.12178,-0.21327,-0.13486
-0.0535,0.90244,-0.42746,-0.24635,-0.04047,-0.49884
-0.04127,0.9127,-0.40652,-0.32617,0.25,-0.97888
-0.05188,0.91319,-0.4042,-0.34018,2.01845,-1.13601
-0.06144,0.90401,-0.42305,0.1612,0.9125,-0.32848
-0.06602,0.89389,-0.44338,-0.07314,-0.35255,-0.00805
-0.06106,0.88965,-0.45252,-0.3663,-0.68038,-0.24968
-0.06071,0.8975,-0.4368,-0.61974,-0.13001,0.10288
-0.07847,0.91459,-0.39667,-0.02517,0.61184,1.59515
-0.08275,0.91458,-0.39582,-0.76381,0.5457,0.76814
-0.08132,0.9125,-0.40088,-0.57813,-0.21469,0.74878
-0.07851,0.92735,-0.36584,-0.21672,-0.80612,0.56819
-0.07292,0.9505,-0.30202,0.28266,-0.22944,1.26206
-0.05581,0.97079,-0.23331,0.29682,0.17826,1.04683
-0.04301,0.98349,-0.17574,0.24725,0.50988,0.25746
-0.04758,0.99106,-0.12453,0.08579,0.11834,0.1886
-0.05745,0.99499,-0.08167,-0.00339,0.02886,0.12947
-0.06571,0.99675,-0.04636,-0.2844,-0.12677,0.06014
-0.07344,0.9972,-0.01316,-0.25839,-0.16056,0.0427
-0.08401,0.99624,0.02064,-0.17252,-0.11745,0.08595
-0.0943,0.99395,0.05611,0.13735,-0.04958,0.15527
-0.10466,0.99041,0.09001,0.20641,-0.07465,0.0812
-0.11526,0.98633,0.11768,0.14994,-0.09988,-0.21611
-0.12715,0.98132,0.14428,-0.04796,-0.08578,-0.03362
-0.14121,0.97458,0.17384,0.03163,-0.01802,-0.09884
-0.15807,0.96665,0.20142,0.12649,0.08058,-0.16853
-0.17774,0.95749,0.22714,0.01847,0.15396,-0.29176
-0.19742,0.94825,0.24861,-0.11657,0.1202,-0.21966
-0.21674,0.93939,0.26558,0.16473,0.32775,-0.24661
-0.23542,0.93159,0.27692,0.32035,0.39557,-0.28423
-0.25092,0.92601,0.28197,0.26293,0.27921,-0.20627
-0.26053,0.92309,0.28284,0.27793,0.25486,-0.28342
-0.26893,0.92166,0.27962,0.1065,0.36286,-0.44272
-0.2763,0.92177,0.27196,-0.05796,0.30044,-0.34813
-0.28473,0.92531,0.25038,-0.00575,0.28114,-0.26265
-0.29037,0.93313,0.21196,0.23852,0.38835,-0.30507
-0.28653,0.94473,0.15924,0.30019,0.31795,-0.06375
-0.26982,0.95725,0.10413,0.08648,0.30029,0.13081
-0.2447,0.96828,0.05021,-0.35247,0.51159,0.26188
-0.22132,0.97518,-0.0039,-0.38047,0.54371,0.10462
-0.19909,0.97827,-0.0576,-0.33723,0.36541,0.14497
-0.17273,0.97976,-0.10107,-0.32964,0.25814,0.16563
-0.14929,0.97881,-0.14008,-0.37371,0.20537,0.49567
-0.12356,0.97574,-0.18064,-0.25272,0.09962,0.54275
-0.09427,0.9687,-0.22959,-0.14012,-0.00012,0.58698
-0.07142,0.95642,-0.28307,0.19249,-0.21204,0.44161
-0.0615,0.9406,-0.33386,0.14398,-0.22837,0.5715
-0.05797,0.92337,-0.37948,0.1199,-0.25888,0.59051
-0.06157,0.90526,-0.42036,-0.17897,-0.34271,0.63854
-0.06841,0.88808,-0.45455,-0.2419,-0.35343,0.65508
-0.07677,0.87368,-0.48039,-0.26475,-0.36936,0.68176
-0.08363,0.86471,-0.49525,-0.28948,-0.55649,0.73695
-0.08613,0.86222,-0.49915,-0.19115,-0.57583,0.60986
-0.083,0.86588,-0.4933,-0.11373,-0.54423,0.51127
-0.07373,0.87469,-0.47903,-0.0447,-0.32888,0.13689
-0.06311,0.88773,-0.45601,-0.13585,-0.11041,-0.30719
-0.04842,0.90255,-0.42784,-0.41897,0.25805,-0.90128
-0.04725,0.91039,-0.41102,-0.53421,1.51034,-1.15261
-0.05706,0.90603,-0.41933,-0.04805,2.11132,-0.99887
-0.06379,0.89439,-0.4427,-0.03786,-0.05374,-0.13225
-0.06887,0.88354,-0.46326,-0.09392,-0.82512,0.04684
-0.06582,0.88128,-0.46797,-0.15295,-1.02564,-0.17485
-0.06438,0.89011,-0.45116,-0.15672,-0.59105,0.74437
-0.07204,0.91571,-0.39531,-0.0947,-0.12032,2.10477
-0.07239,0.93811,-0.33867,-0.42595,0.6628,1.62214
-0.0554,0.93675,-0.34555,-0.75945,1.67801,0.00528
-0.06614,0.93919,-0.33695,-0.01207,-0.7362,1.01676
-0.0598,0.95387,-0.29416,0.00545,-1.07138,0.6171
-0.05002,0.96971,-0.23906,0.00951,-0.40879,0.83661
-0.04071,0.98464,-0.16972,0.15351,0.35841,0.59674
-0.03758,0.99373,-0.10516,0.18196,0.55403,0.38315
-0.04314,0.99761,-0.05367,0.12714,0.17959,0.19135
-0.05051,0.99856,-0.01755,-0.01539,-0.00727,0.11399
-0.0608,0.99807,0.01118,-0.20535,-0.15542,0.05414
-0.07099,0.99675,0.0376,-0.2537,-0.21109,0.03023
-0.08129,0.99448,0.06612,-0.02842,-0.10286,0.08154
-0.09031,0.9914,0.09459,0.08081,-0.07771,0.02503
-0.09891,0.98752,0.12241,0.18242,-0.10758,-0.02277
-0.10937,0.9826,0.15002,-0.05314,-0.11372,-0.06735
-0.12305,0.97658,0.17639,-0.05093,-0.10945,-0.05229
-0.13969,0.96909,0.20328,0.03158,-0.08102,-0.05867
-0.16133,0.95938,0.23136,-0.0697,0.21897,-0.2638
-0.18473,0.94821,0.25832,-0.04631,0.23013,-0.29076
-0.20756,0.93718,0.2803,0.13425,0.26522,-0.28433
-0.2295,0.92779,0.29412,0.35811,0.54601,-0.37709
-0.24833,0.92102,0.30002,0.31229,0.47552,-0.32599
-0.25988,0.9173,0.30163,0.28608,0.40627,-0.33822
-0.26864,0.9162,0.29727,0.04989,0.36613,-0.52001
-0.27817,0.91757,0.28399,0.0502,0.28684,-0.4773
-0.28784,0.92273,0.25627,0.08032,0.28831,-0.38266
-0.29194,0.93254,0.2124,0.42501,0.24494,-0.16957
-0.28556,0.9457,0.15514,0.41863,0.23177,-0.11231
-0.26535,0.95911,0.09828,0.1771,0.31165,0.20024
-0.23919,0.97009,0.04112,-0.24948,0.61094,0.43409
-0.21705,0.97604,-0.01477,-0.34942,0.69514,0.10522
-0.19468,0.97833,-0.07028,-0.25314,0.47751,0.12315
-0.17115,0.97797,-0.11939,-0.31524,0.47413,0.5326
-0.15593,0.9742,-0.16312,-0.51935,0.32417,0.45599
-0.13007,0.96958,-0.2073,-0.31851,-0.00915,0.43417
-0.10205,0.96071,-0.25806,-0.13828,-0.11368,0.50076
-0.08349,0.94691,-0.31045,0.17536,-0.31704,0.46865
-0.07159,0.93083,-0.35834,0.13977,-0.37167,0.60289
-0.06398,0.9131,-0.40266,0.00383,-0.33438,0.62031
-0.06428,0.89546,-0.44045,-0.0764,-0.32614,0.70279
-0.07031,0.87917,-0.47127,-0.27001,-0.44886,0.76609
-0.07802,0.86595,-0.494,-0.26048,-0.51052,0.75961
-0.08293,0.85848,-0.50608,-0.24393,-0.52585,0.7501
-0.08432,0.85785,-0.50691,-0.15953,-0.62974,0.58844
-0.08237,0.86441,-0.49598,-0.1458,-0.61389,0.47773
-0.07698,0.87785,-0.47269,-0.00393,-0.29069,-0.01715
-0.06495,0.89537,-0.44054,-0.38863,0.11093,-0.8328
-0.05572,0.90767,-0.41594,-0.27041,0.53041,-1.04269
-0.0644,0.9096,-0.41044,-0.76852,1.8351,-1.28905
-0.0693,0.90184,-0.42647,-0.00082,0.36031,-0.31119
-0.07233,0.89244,-0.44531,-0.12312,-0.23378,-0.1293
-0.07003,0.8876,-0.45524,-0.51119,-0.61364,-0.31807
-0.07231,0.8925,-0.4452,-0.54208,0.08394,-0.017
-0.09165,0.9086,-0.40747,0.29606,0.80513,1.98051
-0.08794,0.91431,-0.39532,-0.35241,0.70597,1.04695
-0.07823,0.91508,-0.39559,-0.46628,-0.62915,0.77462
-0.06779,0.92945,-0.36264,-0.4596,-0.8566,0.10037
-0.06295,0.95201,-0.29948,0.23011,-0.42343,1.12226
-0.04673,0.97069,-0.23571,0.21421,0.22954,0.80839
-0.03488,0.98296,-0.18039,0.16223,0.56731,0.19156
-0.04187,0.99092,-0.12769,0.12417,0.17983,0.12467
-0.05613,0.99528,-0.07904,0.00802,-0.02004,0.24856
-0.0683,0.99683,-0.04047,-0.16028,-0.05289,0.22942
-0.07566,0.99708,-0.00937,-0.1569,-0.11101,0.0659
-0.08597,0.99599,0.02415,-0.04286,-0.10433,0.0707
-0.09748,0.9936,0.05683,0.06794,-0.0462,0.11857
-0.10748,0.9904,0.08672,0.17318,-0.10695,0.01602
-0.11726,0.98603,0.1182,0.03999,-0.18642,0.03748
-0.1299,0.97944,0.15423,-0.12651,-0.07826,0.06053
