gravity.x,gravity.y,gravity.z,userAcceleration.x,userAcceleration.y,userAcceleration.z
-0.13977,0.98999,0.01974,0.0917,0.41588,0.09369
-0.15232,0.98776,0.0336,0.36741,0.00457,-0.10608
-0.16161,0.98534,0.05473,0.17209,-0.21748,-0.16339
-0.16806,0.98247,0.08068,0.00496,-0.23757,-0.01908
-0.17461,0.9787,0.10792,-0.04029,-0.24146,0.0152
-0.18278,0.97414,0.13282,-0.09078,-0.28585,-0.03463
-0.19362,0.96874,0.15507,-0.0321,-0.21114,-0.27467
-0.20836,0.9621,0.17591,-0.02461,-0.16813,-0.23618
-0.22628,0.95429,0.19529,-0.01857,-0.12784,-0.17507
-0.24642,0.94574,0.2118,0.00402,0.00628,-0.13455
-0.26763,0.93625,0.22761,0.06939,0.14308,-0.07714
-0.28695,0.92549,0.24723,0.12574,0.18014,-0.00628
-0.30181,0.91501,0.26769,0.35366,0.32338,-0.15704
-0.31189,0.9069,0.28329,0.38713,0.38562,-0.52861
-0.31925,0.90283,0.28806,0.39354,0.39111,-0.43643
-0.32581,0.90233,0.28223,0.29493,0.24829,0.07971
-0.32856,0.90399,0.27358,0.41217,0.22299,-0.15489
-0.32826,0.90672,0.26476,0.47822,0.25726,-0.33356
-0.32046,0.91536,0.24377,0.37131,0.5538,-0.16566
-0.29918,0.93083,0.20986,0.22475,0.64497,-0.21005
-0.2711,0.94909,0.16041,0.19667,0.62672,-0.16061
-0.24021,0.96521,0.10332,-0.5813,0.50449,0.16609
-0.20943,0.97659,0.04916,-0.87763,0.47811,0.05186
-0.17655,0.98429,-0.00059,-0.89176,0.44241,-0.02371
-0.14597,0.98851,-0.03919,-0.83886,0.30966,-0.11742
-0.12225,0.99015,-0.06827,-0.61376,0.07945,-0.11851
-0.10815,0.98963,-0.09451,-0.37256,-0.09399,0.06068
-0.09116,0.98911,-0.11557,0.01713,-0.06304,0.23753
-0.05405,0.9884,-0.14192,0.30948,-0.02675,0.22038
-0.0107,0.9853,-0.17047,0.13909,-0.17667,0.10627
0.02793,0.98084,-0.19279,-0.0634,-0.38828,0.16692
0.05752,0.97454,-0.21673,-0.26219,-0.51752,0.3795
0.08004,0.96583,-0.2465,-0.28884,-0.53021,0.42185
0.09796,0.95504,-0.27982,-0.27297,-0.5189,0.34034
0.1126,0.94355,-0.3115,-0.30824,-0.58006,0.11334
0.12107,0.93421,-0.33556,-0.35637,-0.61579,0.11285
0.11903,0.93031,-0.34692,-0.4395,-0.72177,0.06991
0.1075,0.93278,-0.34404,-0.31009,-0.57888,-0.12564
0.08902,0.93994,-0.32953,-0.20764,-0.47404,-0.1795
0.06501,0.95016,-0.30489,-0.02256,-0.23689,-0.32659
0.0378,0.96188,-0.27086,0.04456,-0.15514,-0.44653
0.00882,0.97101,-0.23888,0.22614,0.21211,-0.81895
-0.02296,0.97475,-0.2221,0.54414,1.0761,-0.71622
-0.04248,0.9731,-0.22642,0.58977,1.29373,-0.46109
-0.03731,0.97045,-0.23839,0.45627,0.96117,-0.16373
-0.01925,0.96741,-0.25247,0.27485,-0.04561,-0.43624
0.0016,0.96454,-0.26393,0.29619,-0.2513,-0.40384
0.01118,0.96507,-0.26175,-0.53109,0.48708,-0.07518
-0.02008,0.97023,-0.24136,-1.89284,1.20175,0.63646
-0.03285,0.97528,-0.2185,-1.69567,0.50256,0.5149
-0.00498,0.97683,-0.21395,-0.89251,-0.15385,0.16598
0.00924,0.97772,-0.2097,-0.1937,-0.74504,-0.11746
0.01321,0.98295,-0.18338,-0.25801,-1.00874,0.23663
0.00372,0.99362,-0.11272,-0.276,-0.91246,0.4105
-0.02412,0.99968,-0.00729,-0.67881,-0.4672,0.53985
-0.0613,0.99504,0.07829,-0.5728,-0.19805,0.3808
-0.08992,0.98837,0.12264,-0.18223,0.03759,0.2978
-0.11347,0.98314,0.14342,0.17145,-0.01333,0.31922
-0.12419,0.98023,0.15402,0.33592,0.01813,-0.05941
-0.12905,0.97553,0.178,0.42485,-0.01412,-0.32271
-0.13258,0.96956,0.20585,-0.05652,-0.08664,-0.22383
-0.13381,0.96398,0.22985,-0.14117,-0.07528,-0.29372
-0.13787,0.95778,0.25228,-0.12943,-0.11635,-0.3355
-0.14858,0.95104,0.27102,-0.12493,-0.16487,-0.34254
-0.16607,0.94371,0.28608,-0.1303,-0.18319,-0.14927
-0.18817,0.93447,0.30226,-0.02939,-0.0929,0.00449
-0.21161,0.92301,0.32136,0.11614,0.10372,-0.02088
-0.2316,0.90999,0.34392,0.29668,0.26675,-0.19284
-0.24766,0.8981,0.36343,0.53461,0.35579,-0.41451
-0.26404,0.88727,0.3782,0.5092,0.49512,-0.42547
-0.27608,0.87961,0.38739,0.37694,0.4592,-0.24241
-0.28346,0.87667,0.38872,0.31442,0.33457,-0.14097
-0.28546,0.87731,0.38581,0.40121,0.26489,-0.40092
-0.28513,0.88041,0.37893,0.4841,0.31707,-0.69691
-0.28263,0.88993,0.35796,0.31675,0.44433,-0.195
-0.27011,0.9071,0.32282,-0.0129,0.53089,0.05473
-0.24686,0.9292,0.27505,-0.06788,0.4572,-0.43711
-0.21902,0.95295,0.20958,-0.23609,0.61837,-0.39571
-0.19281,0.96797,0.16078,-0.53981,0.7666,0.34223
-0.16424,0.9795,0.11661,-0.87549,0.65911,0.07394
-0.13519,0.98771,0.0784,-0.9607,0.60482,-0.03322
-0.1113,0.99281,0.04403,-0.86542,0.33525,-0.22435
-0.09108,0.99581,0.00829,-0.39815,-0.13651,0.11647
-0.07133,0.99691,-0.033,-0.15491,-0.17189,0.16628
-0.04596,0.99616,-0.07456,-0.0573,-0.28597,0.10598
-0.01697,0.99318,-0.11538,-0.1705,-0.46838,0.26481
0.01035,0.98728,-0.15863,-0.22548,-0.49508,0.27825
0.03235,0.98023,-0.1952,-0.2537,-0.53998,0.38922
0.05168,0.97095,-0.23362,-0.23792,-0.5393,0.42107
0.06721,0.9582,-0.27811,-0.11875,-0.57175,0.321
0.07423,0.94249,-0.32588,-0.22619,-0.60131,0.16493
0.07145,0.92882,-0.36358,-0.30825,-0.64044,0.18212
0.0612,0.92253,-0.38104,-0.39146,-0.86461,0.14634
0.04257,0.92535,-0.37673,-0.19018,-0.84318,-0.07963
0.0125,0.93643,-0.35062,0.04599,-0.50502,-0.36604
-0.02174,0.95196,-0.30544,0.20745,-0.01642,-0.83079
-0.04552,0.95999,-0.27631,0.52565,0.91284,-1.66433
-0.06185,0.9593,-0.27553,0.38941,1.26114,-1.33646
-0.06959,0.95718,-0.28101,-0.28057,1.38828,-0.26172
-0.05524,0.9538,-0.29532,0.04822,0.24076,-0.59519
-0.03179,0.94983,-0.31115,0.31196,-0.36539,-0.65855
-0.0132,0.94591,-0.32416,0.19444,-0.38355,-0.53268
-0.01802,0.94573,-0.32446,-1.10586,1.50877,0.17769
-0.03603,0.9486,-0.31441,-1.93013,0.6363,0.79668
-0.01582,0.95263,-0.30373,-1.39227,0.21142,0.77419
-0.00082,0.95972,-0.28095,-0.38816,-0.70362,0.07334
0.00774,0.9717,-0.23608,-0.2867,-0.81895,0.24195
0.003,0.98953,-0.14428,-0.24521,-0.82532,0.41749
-0.02795,0.99926,-0.02628,-0.47672,-0.57251,0.71566
-0.07218,0.99526,0.06522,-0.37649,-0.03127,0.11963
-0.11367,0.98648,0.11808,-0.335,-0.02249,0.06677
-0.1448,0.9774,0.15401,-0.08982,0.22855,0.61383
-0.16278,0.97265,0.16568,0.47724,0.0958,-0.02855
-0.17163,0.96776,0.18432,0.48609,0.10069,-0.04719
-0.1779,0.96028,0.21498,0.23709,-0.0918,-0.22593
-0.18295,0.95251,0.24341,0.02377,-0.20138,-0.16813
-0.18858,0.94412,0.27033,-0.07855,-0.27552,-0.31742
-0.19812,0.93599,0.291,-0.11183,-0.24508,-0.35525
-0.21402,0.92713,0.30761,-0.10288,-0.11683,-0.28785
-0.2358,0.91589,0.32488,-0.05032,-0.0014,-0.24584
-0.26004,0.90245,0.34346,0.01149,0.1179,-0.28274
-0.28127,0.88857,0.36239,0.20119,0.19819,-0.24722
-0.29616,0.87734,0.37757,0.46506,0.26009,-0.19559
-0.30845,0.86896,0.38701,0.54574,0.4552,-0.27748
-0.31831,0.86359,0.39101,0.4261,0.53671,-0.16925
-0.32078,0.86244,0.39154,0.44453,0.42701,-0.24196
-0.31816,0.86529,0.38736,0.4238,0.25649,-0.40513
-0.31103,0.87393,0.37351,0.18367,0.47101,-0.07553
-0.29629,0.89084,0.34442,0.0722,0.59815,0.05996
-0.27138,0.91195,0.30772,-0.06189,0.7876,-0.14061
-0.2438,0.93711,0.24976,-0.38276,0.71399,-0.4821
-0.22255,0.95713,0.1854,-0.55415,0.73115,-0.10997
-0.20103,0.97063,0.13212,-0.88016,0.50187,-0.05974
-0.17529,0.98101,0.08299,-0.92636,0.36699,-0.16714
-0.15293,0.98734,0.0422,-0.60412,0.0974,-0.2223
-0.13325,0.99106,0.00691,-0.41418,-0.1194,0.04367
-0.11684,0.9927,-0.03001,-0.16735,-0.11918,0.31853
-0.08845,0.99373,-0.06839,0.22996,-0.02924,0.21619
-0.05255,0.99222,-0.11287,0.03061,-0.22005,0.10309
-0.01733,0.98794,-0.15385,-0.23001,-0.41005,0.3285
0.01468,0.98103,-0.19331,-0.2914,-0.53794,0.34357
0.04,0.97004,-0.23964,-0.31201,-0.5989,0.38021
0.0586,0.95646,-0.28591,-0.27465,-0.65301,0.312
0.0699,0.9425,-0.32681,-0.33876,-0.63961,0.20935
0.0752,0.9294,-0.36133,-0.38014,-0.59517,0.1837
0.0722,0.9187,-0.38829,-0.40187,-0.63668,0.20915
0.06107,0.91391,-0.4013,-0.34186,-0.73978,0.13311
0.04076,0.91762,-0.39536,-0.08895,-0.72537,-0.03579
0.01311,0.93079,-0.36532,0.08644,-0.51877,-0.25244
-0.01764,0.94894,-0.31496,0.13493,-0.17068,-0.62061
-0.04144,0.9623,-0.2688,0.12099,0.76432,-1.28145
-0.06268,0.96642,-0.24922,0.08156,1.02498,-1.02669
-0.08294,0.96642,-0.2432,0.05875,1.24085,-0.67423
-0.08061,0.96427,-0.25236,0.23184,0.64199,-0.46472
-0.05912,0.96181,-0.26724,0.30805,0.20863,-0.66402
-0.04185,0.95664,-0.28827,-0.14255,0.76379,-0.64468
-0.0537,0.95062,-0.30568,-0.89021,2.11769,0.24924
-0.05327,0.94943,-0.30942,-0.74975,-0.46887,1.05791
-0.02155,0.95762,-0.28723,-0.78147,-0.47706,1.03572
0.00174,0.9636,-0.26736,-0.69096,-1.09847,-0.18935
0.01979,0.96925,-0.24528,-0.56761,-0.90281,0.34184
0.0154,0.98356,-0.17991,-0.4668,-0.63946,0.55602
-0.02134,0.99679,-0.0772,-0.55196,-0.5044,0.53661
-0.07598,0.99702,0.01368,-0.51985,-0.30183,0.19949
-0.12937,0.98864,0.07654,-0.15461,0.20728,0.09105
-0.1711,0.97698,0.12743,-0.06915,0.28524,0.34018
-0.19255,0.96822,0.15963,0.23369,0.26619,0.67175
-0.19824,0.96438,0.17515,0.47588,0.10417,0.32169
-0.20438,0.95953,0.19373,0.26982,-0.20584,-0.28118
-0.21097,0.95296,0.21762,-0.05696,-0.1595,-0.10763
-0.21594,0.94524,0.24472,-0.06305,-0.15586,-0.20042
-0.22418,0.93663,0.2692,-0.00734,-0.1616,-0.40642
-0.23833,0.92691,0.28988,0.06205,-0.08292,-0.42198
-0.2577,0.91637,0.30637,0.06659,-0.04543,-0.34176
-0.27885,0.90458,0.32246,0.06985,0.0659,-0.10836
-0.29644,0.89204,0.34115,0.26147,0.22333,-0.0664
-0.30835,0.87987,0.36159,0.34488,0.28215,-0.20069
-0.3151,0.87086,0.37725,0.50979,0.59698,-0.38278
-0.32164,0.86585,0.38322,0.4352,0.58769,-0.2248
-0.3257,0.86498,0.38175,0.40653,0.53895,-0.12071
-0.32377,0.86791,0.3767,0.40131,0.3624,-0.5481
-0.31851,0.87453,0.36572,0.38638,0.32605,-0.61424
-0.3115,0.88835,0.33735,0.20397,0.40639,-0.26646
-0.29349,0.90838,0.29784,-0.15735,0.50465,-0.35407
-0.2681,0.93198,0.244,-0.23539,0.4676,-0.48696
-0.24202,0.95325,0.18096,-0.38579,0.51401,-0.3184
-0.2206,0.96707,0.12695,-0.64231,0.7248,0.37644
-0.19353,0.97803,0.07746,-0.63705,0.62674,0.19444
-0.16925,0.98501,0.03333,-0.76251,0.38502,-0.08298
-0.1466,0.9892,-0.00046,-0.56445,0.09129,-0.10945
-0.12594,0.99129,-0.03858,-0.58511,0.0892,-0.07133
-0.1,0.9921,-0.07569,-0.12372,-0.03516,0.06544
-0.06702,0.99166,-0.11005,0.01868,-0.36869,0.08062
-0.03351,0.98882,-0.14533,-0.15558,-0.52615,0.19337
-0.00447,0.98394,-0.17844,-0.21059,-0.60265,0.40869
0.01947,0.97668,-0.2138,-0.24993,-0.61001,0.46949
0.03679,0.96585,-0.25649,-0.26725,-0.59918,0.51218
0.05271,0.95207,-0.30131,-0.23142,-0.50918,0.32281
0.06293,0.9376,-0.34196,-0.30212,-0.58122,0.22217
0.06297,0.92514,-0.37436,-0.41374,-0.6514,0.15453
0.05476,0.91854,-0.39151,-0.38935,-0.76489,0.08988
0.03667,0.92074,-0.38845,-0.1916,-0.76963,-0.08096
0.00987,0.93156,-0.36345,0.1048,-0.30327,-0.49698
-0.02084,0.94687,-0.32093,0.13551,-0.31858,-0.53949
-0.0454,0.95689,-0.28687,0.67267,1.05911,-1.34431
-0.06792,0.95913,-0.27469,0.40749,1.26519,-0.94472
-0.08831,0.95795,-0.27301,0.07897,1.36775,-0.55745
-0.08385,0.95328,-0.29023,-0.05401,0.55438,-0.48979
-0.07231,0.94661,-0.31415,-0.17188,0.48628,-0.71862
-0.08017,0.93942,-0.33325,-0.76401,1.45139,-0.59218
-0.088,0.93545,-0.34234,-1.07671,0.92033,0.86631
-0.05533,0.94275,-0.32887,-0.427,-0.84478,0.84962
-0.02973,0.95803,-0.28512,-0.37816,-1.08909,0.26459
-0.01243,0.97038,-0.24127,-0.29532,-0.9011,0.22436
-0.01191,0.98319,-0.18217,-0.46775,-0.68159,0.67937
-0.04828,0.99524,-0.08462,-0.54635,-0.54891,0.64759
-0.09436,0.99554,-0.00137,-0.37245,-0.27953,0.18614
-0.14418,0.98834,0.04897,-0.10209,0.18163,0.00372
-0.18587,0.97935,0.0795,-0.02396,0.32126,-0.00101
-0.21301,0.97074,0.11084,0.31919,0.13361,0.46007
-0.22372,0.96644,0.12627,0.49435,0.06464,0.07594
-0.23222,0.96066,0.15233,0.32091,-0.08909,-0.14767
-0.2383,0.95467,0.1784,-0.07663,-0.15959,-0.01896
-0.24349,0.94834,0.20339,-0.12025,-0.1607,-0.13817
-0.24907,0.9411,0.2287,-0.10081,-0.13278,-0.30859
-0.2573,0.93242,0.25374,0.11295,-0.04693,-0.43188
-0.26954,0.92337,0.27336,0.11273,-0.03847,-0.35133
-0.28593,0.91387,0.28825,-0.01002,0.00495,-0.06979
-0.30226,0.90347,0.30395,0.00323,0.10294,-0.08737
-0.31789,0.8914,0.32304,0.12593,0.23986,-0.29746
-0.33274,0.87911,0.34126,0.27053,0.39773,-0.45486
-0.34329,0.86925,0.35574,0.3963,0.50121,-0.38238
-0.34858,0.86336,0.36482,0.52414,0.51328,-0.22634
-0.35136,0.86285,0.36336,0.57446,0.47817,-0.30306
-0.35097,0.86567,0.35697,0.49166,0.44072,-0.60677
-0.34511,0.87418,0.34162,0.38093,0.33351,-0.64445
-0.33554,0.88985,0.30915,0.06323,0.38145,-0.19973
-0.31874,0.91138,0.26037,-0.21225,0.33217,-0.1002
-0.2942,0.9353,0.1966,-0.20439,0.26939,-0.21811
-0.26433,0.95635,0.12458,-0.35198,0.71562,0.06141
-0.23835,0.9684,0.07348,-0.42054,0.79215,0.4174
-0.21554,0.97616,0.02542,-0.59123,0.80368,0.29961
-0.1934,0.98097,-0.01706,-0.68153,0.60944,0.02312
-0.1649,0.98473,-0.05574,-0.33623,0.3724,-0.06148
-0.12895,0.98628,-0.10307,-0.07079,0.25502,0.08369
-0.08828,0.98505,-0.14795,-0.07581,0.07445,0.15277
-0.04847,0.97938,-0.19615,-0.33207,-0.41253,0.16714
-0.01217,0.97037,-0.24133,-0.39303,-0.59726,0.42958
0.01727,0.96075,-0.27687,-0.37207,-0.6412,0.42531
0.04123,0.9496,-0.31073,-0.21622,-0.62029,0.43738
0.05641,0.93565,-0.3484,-0.25116,-0.56342,0.40349
0.06377,0.91928,-0.38841,-0.29447,-0.54896,0.40846
0.06314,0.90268,-0.42565,-0.38857,-0.63351,0.37936
0.05319,0.89034,-0.45218,-0.3415,-0.81983,0.21439
0.03331,0.88537,-0.46369,-0.2305,-0.84831,0.12513
0.006,0.89095,-0.45406,0.03615,-0.69576,-0.16339
-0.02814,0.90534,-0.42374,0.34242,-0.32061,-0.67101
-0.06103,0.91709,-0.39398,0.64346,0.33485,-1.32883
-0.08052,0.91777,-0.38886,0.27749,0.96878,-1.02068
-0.10252,0.91434,-0.39175,-0.47099,1.10957,-0.17913
-0.11677,0.90945,-0.39907,-0.38011,0.78027,-0.30438
-0.11837,0.90363,-0.41164,0.03103,0.08566,-0.51556
-0.11137,0.89836,-0.4249,0.01941,0.17154,-0.9991
-0.10498,0.89279,-0.43806,-0.31352,0.90935,-1.02213
-0.09667,0.89566,-0.43411,-0.97075,1.63472,0.32755
-0.08028,0.90826,-0.41063,-0.30697,-0.73561,1.15836
-0.06527,0.92436,-0.3759,-0.45181,-0.8563,0.55939
-0.04982,0.93266,-0.35731,-0.40532,-0.61711,-0.05526
-0.04037,0.9438,-0.32805,-0.27923,-0.59366,0.28426
-0.05753,0.96969,-0.23748,-0.3829,-0.48891,0.88908
-0.08953,0.98758,-0.12909,-0.29491,-0.42101,0.66582
-0.12872,0.99049,-0.04864,-0.1373,-0.30357,0.31933
-0.16696,0.98584,-0.01543,-0.12454,0.41784,-0.06105
-0.20314,0.97901,0.01653,-0.0255,0.41175,0.54848
-0.22544,0.97365,0.03448,0.29411,0.24487,0.17571
-0.23608,0.97057,0.04747,0.39969,-0.10668,-0.16755
-0.24474,0.9668,0.07346,0.13447,-0.2311,-0.03898
-0.24948,0.96285,0.10333,-0.11232,-0.31649,-0.01634
-0.25509,0.95758,0.13407,-0.24444,-0.32418,0.05218
-0.26356,0.95075,0.16315,-0.18956,-0.2858,0.01023
-0.2747,0.94228,0.19142,-0.10802,-0.1269,-0.21287
-0.28826,0.93305,0.21521,-0.04673,0.02637,-0.41314
-0.30323,0.9234,0.23534,0.04064,0.21548,-0.23581
-0.31952,0.9119,0.25758,0.10921,0.25026,-0.15872
-0.335,0.89972,0.27978,0.17635,0.27347,-0.16383
-0.34716,0.88886,0.29902,0.40129,0.41252,-0.42216
-0.35838,0.88065,0.30985,0.50888,0.51758,-0.33768
-0.36687,0.87655,0.31155,0.52628,0.53493,-0.25753
-0.36901,0.87659,0.3089,0.5402,0.49517,-0.40285
-0.36454,0.88207,0.29844,0.23249,0.66226,-0.10823
-0.35132,0.89694,0.26848,0.0132,0.70768,0.20993
-0.32259,0.91862,0.22819,-0.08586,0.41842,0.08937
-0.28668,0.9404,0.1829,-0.20041,0.32406,-0.34647
-0.25206,0.96016,0.1207,-0.23503,0.30431,-0.28427
-0.22369,0.97251,0.06468,-0.64118,0.66532,0.16901
-0.19824,0.98001,0.01653,-0.75394,0.39431,0.06258
-0.17388,0.98445,-0.02499,-0.76464,0.2811,0.04933
-0.14991,0.98682,-0.06089,-0.62696,0.11828,0.14037
-0.12384,0.98698,-0.10261,-0.20521,-0.01832,0.21252
-0.09341,0.98427,-0.14994,-0.08155,-0.09788,0.23424
-0.05542,0.97731,-0.20445,0.00914,-0.21354,0.04231
-0.01684,0.96693,-0.25448,-0.1928,-0.40792,0.27582
0.02075,0.95668,-0.29041,-0.30192,-0.4871,0.45337
0.05595,0.94412,-0.32483,-0.38149,-0.60299,0.4729
0.08418,0.92768,-0.36377,-0.41286,-0.53455,0.32069
0.10554,0.90858,-0.40415,-0.46925,-0.49409,0.33054
0.11782,0.89094,-0.43858,-0.54184,-0.52511,0.31882
0.11932,0.87928,-0.46111,-0.365,-0.65255,0.15366
0.11204,0.8774,-0.46649,-0.24766,-0.61429,0.10254
0.09805,0.8862,-0.45281,-0.06945,-0.44324,-0.07882
0.07452,0.90243,-0.42433,0.39241,0.02863,-0.80131
0.04815,0.91505,-0.40046,0.66394,0.32508,-1.04458
0.02627,0.92007,-0.39088,0.2117,0.81702,-0.30956
0.00576,0.91978,-0.3924,0.03696,0.6986,-0.29453
-0.0043,0.91488,-0.40371,-0.00098,0.14401,-0.47002
-0.00404,0.91182,-0.41058,0.30952,-0.31096,-0.77373
0.00054,0.90962,-0.41545,0.18793,-0.08804,-0.66668
-0.01026,0.91338,-0.40698,-1.75355,1.03257,0.06611
-0.02432,0.92247,-0.3853,-1.16417,0.2256,0.65685
-0.00608,0.93193,-0.36258,-0.45303,-0.48073,0.23322
0.00228,0.94523,-0.32639,-0.37299,-0.59519,0.07495
0.00376,0.96237,-0.27172,-0.22527,-0.58752,0.68785
-0.01164,0.98602,-0.16622,-0.4635,-0.4272,0.87929
-0.04416,0.99796,-0.046,-0.51347,-0.43936,0.78892
-0.07879,0.99629,0.03478,-0.25826,-0.29237,0.1503
-0.11055,0.99234,0.05514,-0.03257,-0.04942,0.01809
-0.1446,0.98665,0.07495,-0.0526,-0.02757,0.21202
-0.16977,0.97952,0.10824,0.1035,-0.02634,0.4945
-0.18107,0.97502,0.12866,0.26845,-0.00155,0.10115
-0.18941,0.9698,0.15364,0.04679,-0.02519,-0.04499
-0.1957,0.96397,0.1802,-0.10067,-0.07484,-0.16721
-0.20216,0.95792,0.20375,-0.07219,-0.07368,-0.3351
-0.21159,0.95095,0.22566,-0.00962,-0.06387,-0.39195
-0.22492,0.94395,0.24161,-0.02363,-0.05593,-0.04837
-0.24091,0.93618,0.25598,-0.03196,-0.06782,0.05724
-0.25682,0.92695,0.27352,-0.02012,-0.04649,0.10267
-0.27013,0.9166,0.29476,0.03212,0.24029,-0.2533
-0.28007,0.90642,0.31617,0.20039,0.38504,-0.54159
-0.28734,0.89971,0.32856,0.25596,0.39483,-0.43154
-0.29407,0.89494,0.33557,0.30335,0.44593,-0.17475
-0.29941,0.89234,0.33776,0.33587,0.41442,-0.25617
-0.30074,0.89232,0.33663,0.33916,0.37579,-0.35899
-0.29859,0.89466,0.33231,0.34496,0.2846,-0.57047
-0.29294,0.90164,0.31817,0.14227,0.36734,-0.22998
-0.2827,0.9146,0.28913,-0.02295,0.41222,-0.06288
-0.26329,0.93246,0.24737,-0.16532,0.30557,-0.08675
-0.23742,0.95193,0.19357,-0.23328,0.24004,-0.16123
-0.2098,0.96891,0.13116,-0.3067,0.44279,-0.20173
-0.18824,0.97954,0.07119,-0.48298,0.59723,0.08311
-0.17146,0.985,0.01946,-0.66659,0.60529,0.15935
-0.15348,0.98792,-0.02142,-0.65239,0.41453,0.19771
-0.1327,0.98946,-0.05788,-0.37618,0.27311,0.23296
-0.10306,0.98838,-0.11171,0.02461,0.25564,0.01895
-0.0685,0.98395,-0.1648,0.00862,0.09657,0.10728
-0.03659,0.97673,-0.21134,-0.13808,-0.2362,0.19884
-0.00512,0.96668,-0.25593,-0.32758,-0.51064,0.34916
0.02355,0.95509,-0.29539,-0.37241,-0.59576,0.38215
0.04978,0.94243,-0.33068,-0.22637,-0.58723,0.41363
0.07159,0.92853,-0.36428,-0.2693,-0.54626,0.42681
0.08612,0.91257,-0.39975,-0.34407,-0.51456,0.44339
0.09237,0.89555,-0.43526,-0.49468,-0.53105,0.42924
0.09048,0.8841,-0.45846,-0.50512,-0.60602,0.39723
0.08098,0.88232,-0.46363,-0.45083,-0.76126,0.2125
0.06225,0.89046,-0.45077,-0.02022,-0.3601,-0.2099
0.03785,0.90658,-0.42033,0.15171,-0.20738,-0.39782
0.00888,0.92509,-0.37963,0.32094,-0.03088,-0.6377
-0.01449,0.93518,-0.35388,0.40339,0.8374,-0.92205
-0.03292,0.93599,-0.35049,0.09106,1.06725,-0.5217
-0.04244,0.93096,-0.36264,0.03285,1.08359,-0.43556
-0.04062,0.92436,-0.37935,0.39824,0.29596,-0.45063
-0.03392,0.92129,-0.3874,0.37657,-0.1439,-0.48371
-0.02947,0.91969,-0.39154,0.16282,0.07833,-0.41249
-0.04673,0.92381,-0.37999,-1.44654,1.60048,0.00543
-0.05054,0.92691,-0.37186,-1.11283,0.07405,0.74872
-0.02644,0.93363,-0.35726,-0.46375,-0.76421,0.38734
-0.01405,0.94597,-0.32396,-0.63705,-0.95457,0.03342
-0.00459,0.95632,-0.2923,-0.43137,-0.70664,0.30829
-0.0138,0.97498,-0.22187,-0.37609,-0.44927,0.77348
-0.19631,0.9775,0.07715,-0.32168,-0.33183,0.54376
-0.25239,0.95514,0.15492,-0.25809,-0.28078,0.00127
-0.3,0.93534,0.18743,0.17475,0.07407,-0.27325
-0.33749,0.92071,0.19593,0.41279,0.12125,-0.15685
-0.36657,0.90279,0.22497,0.50659,-0.02748,0.08491
-0.38637,0.88593,0.25661,0.31718,0.01832,0.18835
-0.3955,0.87451,0.28072,0.11831,0.06315,0.16989
-0.39386,0.86723,0.30461,0.16367,0.11367,-0.34787
-0.39091,0.8599,0.32828,0.24171,0.13842,-0.49106
-0.3938,0.84881,0.35275,0.35336,0.13777,-0.5772
-0.40186,0.835,0.37588,0.22115,-0.01442,-0.28758
-0.4118,0.82343,0.39037,0.12805,-0.00498,-0.16179
-0.41945,0.81259,0.40466,0.02674,0.0018,-0.14229
-0.42487,0.80105,0.42167,0.02193,0.31606,-0.38703
-0.4313,0.78804,0.43928,0.03201,0.41087,-0.48924
-0.43766,0.77429,0.45708,0.13295,0.46878,-0.52332
-0.44103,0.7644,0.4703,0.48874,0.46275,-0.54659
-0.44958,0.75657,0.47485,0.51034,0.48022,-0.44984
-0.46094,0.75348,0.46882,0.57551,0.4555,-0.2225
-0.46458,0.75386,0.46461,0.62184,0.50873,-0.54141
-0.46057,0.75851,0.46102,0.63089,0.50908,-0.7204
-0.4554,0.77404,0.43986,0.41543,0.62234,-0.44761
-0.44209,0.80119,0.4033,0.00137,0.60828,-0.1021
-0.41915,0.8339,0.35906,-0.04666,0.4255,-0.32034
-0.39213,0.86861,0.30292,-0.41662,0.80792,-0.08889
-0.36692,0.89487,0.25412,-0.48349,0.68527,0.16115
-0.34484,0.91545,0.20746,-0.54193,0.65346,0.18832
-0.32392,0.93235,0.1606,-0.58119,0.32236,-0.10039
-0.30144,0.94551,0.12303,-0.40263,0.12892,-0.12889
-0.27824,0.95651,0.08761,-0.24492,0.0666,-0.01425
-0.25245,0.96643,0.04778,0.21098,-0.07762,-0.08613
-0.21855,0.97581,0.00475,0.19775,-0.14691,-0.05218
-0.18055,0.98298,-0.03399,0.102,-0.24537,0.02427
-0.14076,0.98761,-0.06943,-0.13582,-0.52791,0.15589
-0.10105,0.98975,-0.10088,-0.21856,-0.60528,0.20433
-0.06446,0.98881,-0.13453,-0.19182,-0.60319,0.20019
-0.0341,0.98429,-0.17324,-0.17817,-0.53298,0.11403
-0.01111,0.97781,-0.20921,-0.2606,-0.53893,0.08174
0.00151,0.97176,-0.23598,-0.3082,-0.59804,0.12023
0.00123,0.96789,-0.25137,-0.32837,-0.74319,-0.0392
-0.00963,0.96721,-0.2538,-0.18981,-0.64191,-0.21513
-0.02736,0.97014,-0.24099,-0.09029,-0.53981,-0.28724
-0.04869,0.9764,-0.21044,0.12933,-0.24174,-0.57852
-0.07167,0.98321,-0.16784,0.32762,0.08004,-0.96693
-0.09463,0.98655,-0.13326,0.50738,0.54522,-1.07517
-0.1159,0.986,-0.11987,0.44381,0.95715,-0.80673
-0.11924,0.98452,-0.12843,0.46769,1.02097,-0.53159
-0.10133,0.98516,-0.13851,0.62878,0.32509,-0.58225
-0.0759,0.98726,-0.13983,0.71994,-0.31653,-0.57915
-0.05825,0.98965,-0.13116,0.17197,-0.21018,-0.19676
-0.07018,0.99165,-0.10818,-0.89175,1.01595,-0.23181
-0.10431,0.99195,-0.07182,-2.07848,1.06954,0.63977
-0.08476,0.9948,-0.05647,-0.71274,-0.31032,0.04772
-0.06243,0.99698,-0.04626,-0.38505,-0.70305,-0.571
-0.05852,0.99769,-0.03443,-0.41632,-0.85684,-0.36731
-0.07121,0.99746,0.00128,-0.35033,-0.79607,0.29999
-0.10629,0.9909,0.08261,-0.37278,-0.67092,0.27733
-0.1638,0.9708,0.17526,-0.55004,-0.4791,0.12166
-0.2289,0.94269,0.24276,-0.19754,0.01997,-0.06993
-0.28052,0.9177,0.28131,-0.02502,0.10641,0.01475
-0.31661,0.89317,0.31939,0.16153,-0.05693,0.54664
-0.33386,0.87721,0.34503,0.52865,0.26223,0.30536
-0.33216,0.87203,0.35949,0.57975,0.28825,-0.14034
-0.32077,0.86658,0.38229,0.42294,0.27742,-0.63146
-0.31284,0.85778,0.40785,0.2697,0.14385,-0.63653
-0.31679,0.84578,0.42931,0.18685,0.08252,-0.52269
-0.32668,0.83525,0.4423,0.00304,-0.051,-0.32951
-0.3379,0.82599,0.45119,-0.12959,-0.04199,-0.15384
-0.34836,0.81432,0.46424,-0.13281,0.01679,-0.16606
-0.35871,0.79965,0.48154,0.01698,0.34325,-0.40161
-0.36777,0.78306,0.50157,0.16107,0.40721,-0.55087
-0.37621,0.76893,0.51693,0.429,0.53158,-0.53669
-0.38493,0.75817,0.52632,0.62605,0.5468,-0.3873
-0.39648,0.75119,0.52775,0.57705,0.54486,-0.32044
-0.40241,0.74975,0.5253,0.56598,0.53302,-0.51614
-0.40276,0.75126,0.52288,0.47365,0.47164,-0.7329
-0.40199,0.75952,0.5114,0.37038,0.51497,-0.53233
-0.3968,0.77849,0.48632,0.19599,0.61057,-0.26759
-0.37971,0.80782,0.45083,-0.15918,0.63725,-0.25023
-0.35597,0.83968,0.41015,-0.23591,0.4718,-0.60437
-0.33332,0.87382,0.35402,-0.32521,0.62389,-0.58464
-0.31801,0.9013,0.29417,-0.48706,0.66476,0.02671
-0.30367,0.92184,0.24082,-0.64716,0.60419,-0.01078
-0.28938,0.93685,0.1964,-0.68921,0.25334,-0.03353
-0.27271,0.94839,0.16185,-0.5256,-0.09269,-0.06688
-0.25221,0.96114,0.11222,-0.18715,-0.15278,-0.15746
-0.22913,0.97196,0.05284,-2e-05,-0.05831,-0.00856
-0.19944,0.97991,-9e-05,0.15775,-0.14654,-0.0908
-0.1653,0.98513,-0.04675,0.06314,-0.32489,-0.07493
-0.12839,0.9886,-0.07872,-0.02685,-0.38757,0.22822
-0.08832,0.99053,-0.10508,-0.03467,-0.46069,0.20631
-0.05185,0.98904,-0.13826,-0.1064,-0.47242,0.27736
-0.0238,0.98309,-0.18156,-0.20828,-0.47465,0.27261
-0.00523,0.974,-0.2265,-0.36106,-0.51262,0.25272
0.00133,0.96603,-0.25842,-0.42293,-0.6528,0.18558
-0.00267,0.96246,-0.2714,-0.34318,-0.76178,0.00819
-0.01543,0.96348,-0.26732,-0.0465,-0.66783,-0.19856
-0.03525,0.96938,-0.24304,0.17728,-0.43221,-0.51444
-0.05715,0.97779,-0.20165,0.53304,-0.09084,-1.04584
-0.07385,0.98278,-0.16936,0.6668,0.32065,-1.26791
-0.08724,0.98393,-0.15583,-0.02264,0.70248,-0.67979
-0.09193,0.98334,-0.15684,-0.0812,0.77291,-0.58243
-0.08559,0.9822,-0.16722,0.21434,0.42575,-0.65985
-0.07581,0.98237,-0.17091,0.64186,-0.46229,-0.7569
-0.06348,0.98311,-0.17166,0.62634,-0.45409,-0.59288
-0.05568,0.98527,-0.16169,-0.15613,0.11095,-0.33777
-0.09001,0.98619,-0.139,-2.01374,1.17485,0.38229
-0.11315,0.98619,-0.12098,-1.99059,1.17486,0.36426
-0.10429,0.98721,-0.12059,-0.46814,-0.24823,-0.00676
-0.10255,0.98896,-0.10697,-0.22249,-0.72495,-0.15216
-0.11177,0.99175,-0.06268,-0.16532,-0.79188,0.12767
-0.13575,0.99056,0.0189,-0.30137,-0.57974,0.41407
-0.17551,0.97832,0.10992,-0.5446,-0.33263,0.21029
-0.21819,0.95855,0.18326,-0.37038,-0.33153,-0.19063
-0.25855,0.93874,0.22784,0.05109,-0.13506,-0.27447
-0.29539,0.91987,0.25803,0.20774,-0.01776,0.22151
-0.31685,0.90445,0.2856,0.29801,0.07643,0.29485
-0.32432,0.89269,0.31291,0.61178,0.18578,0.11273
-0.32821,0.88036,0.34241,0.23624,0.02318,-0.22169
-0.32947,0.86857,0.37019,0.1303,-0.02379,-0.30088
-0.33065,0.85703,0.39517,-0.00352,-0.02864,-0.54302
-0.3377,0.84476,0.41514,0.04868,0.00331,-0.61826
-0.35161,0.83215,0.42884,0.08469,0.03645,-0.52265
-0.36878,0.81864,0.44026,0.10393,0.02337,-0.12081
-0.38324,0.80355,0.45545,0.13394,0.09985,-0.11144
-0.39049,0.78854,0.4751,0.34067,0.31052,-0.45701
-0.39482,0.77533,0.49293,0.48453,0.38579,-0.53393
-0.4008,0.76505,0.50404,0.58079,0.52621,-0.39853
-0.40828,0.75762,0.50923,0.50778,0.64154,-0.22458
-0.41235,0.7547,0.5103,0.46308,0.60004,-0.31617
-0.40953,0.75453,0.51281,0.46301,0.5047,-0.61422
-0.4051,0.75812,0.51102,0.43511,0.49548,-0.73479
-0.40119,0.76815,0.49899,0.38234,0.53034,-0.57508
-0.39505,0.78851,0.47137,0.04857,0.78228,-0.25865
-0.37978,0.81736,0.43324,-0.08754,0.50388,-0.43083
-0.36375,0.85141,0.37788,-0.22605,0.29572,-0.45965
-0.34313,0.8809,0.326,-0.43069,0.41523,-0.07524
-0.32648,0.90284,0.27979,-0.54298,0.67321,0.03694
-0.31744,0.9192,0.23305,-0.56406,0.56812,-0.03464
-0.30886,0.93122,0.19349,-0.44194,0.3702,0.02993
-0.2933,0.94261,0.15958,-0.27962,0.22677,-0.00772
-0.27081,0.95529,0.11869,0.11351,0.20708,-0.32707
-0.24489,0.96677,0.07341,0.12016,0.03085,-0.23036
-0.21622,0.97576,0.03368,0.00795,-0.10211,-0.09424
-0.18276,0.98315,-0.00394,-0.06155,-0.39547,0.03092
-0.14635,0.98849,-0.03836,-0.10336,-0.58155,0.23974
-0.11008,0.99143,-0.0704,-0.09749,-0.62665,0.29373
-0.07923,0.99086,-0.10915,-0.11139,-0.62201,0.24164
-0.05489,0.98625,-0.15585,-0.18086,-0.58722,0.0585
-0.0388,0.97936,-0.19838,-0.24554,-0.586,0.02972
-0.03125,0.9736,-0.2261,-0.31336,-0.76701,0.03018
-0.03605,0.9712,-0.23551,-0.15705,-0.81898,-0.06642
-0.05369,0.97225,-0.22769,-0.0143,-0.77731,-0.15051
-0.07993,0.97607,-0.20223,0.2053,-0.54864,-0.37977
-0.10891,0.98113,-0.15978,0.60641,0.04169,-1.12603
-0.13421,0.98294,-0.12576,0.71576,0.38626,-1.52875
-0.15981,0.97959,-0.12194,0.25575,1.0318,-1.25008
-0.17133,0.97606,-0.13398,0.00102,1.27042,-0.8304
-0.15726,0.97602,-0.15048,0.33968,0.54209,-0.65637
-0.13253,0.97639,-0.17057,0.63226,-0.24872,-0.63439
-0.1094,0.97633,-0.18657,-0.54669,0.37021,-0.615
-0.11408,0.97825,-0.17326,-0.9587,0.90211,-0.23635
-0.12659,0.979,-0.15978,-1.37842,0.34078,0.29165
-0.11348,0.98081,-0.15856,-0.67165,-0.29586,-0.20841
-0.10604,0.98255,-0.15281,-0.50507,-0.43514,-0.24049
-0.11302,0.98737,-0.11102,-0.26163,-0.66985,0.18265
-0.13166,0.99095,-0.02633,-0.08467,-0.67134,0.60195
-0.16805,0.98338,0.06872,-0.19432,-0.44976,0.5626
-0.21229,0.96684,0.14195,0.04522,0.05048,-0.30099
-0.25241,0.94979,0.1849,0.13359,0.13374,-0.33372
-0.28874,0.93295,0.215,0.13292,0.11174,-0.19803
-0.31256,0.91783,0.24473,0.25207,0.02902,0.33817
-0.32144,0.90921,0.26461,0.41053,0.04266,0.23431
-0.32496,0.9005,0.28896,0.12993,-0.16297,-0.24869
-0.32801,0.88999,0.31676,-0.01038,-0.2021,-0.31169
-0.33471,0.87754,0.34335,-0.02851,-0.14068,-0.31826
-0.34458,0.86353,0.36821,0.01678,-0.0546,-0.4052
-0.35679,0.84842,0.391,0.11604,0.05731,-0.39465
-0.37108,0.83425,0.40782,0.1535,0.10233,-0.38472
-0.38748,0.81887,0.42346,0.1834,0.12985,-0.32022
-0.40387,0.80097,0.44196,0.26214,0.20847,-0.22603
-0.41589,0.78427,0.46038,0.38417,0.33285,-0.30209
-0.42219,0.77084,0.47703,0.60444,0.46762,-0.4973
-0.43093,0.75984,0.48676,0.55401,0.6802,-0.40078
-0.43908,0.75393,0.48867,0.50072,0.64603,-0.20765
-0.44101,0.75226,0.4895,0.50314,0.49243,-0.46292
-0.43739,0.75384,0.49033,0.46386,0.46616,-0.76151
-0.43441,0.76049,0.48263,0.41169,0.51545,-0.61413
-0.43015,0.77517,0.46269,0.2298,0.73963,-0.23964
-0.41419,0.80079,0.43264,0.02486,0.72202,-0.21337
-0.39336,0.8329,0.38928,-0.04309,0.46278,-0.52936
-0.37507,0.86906,0.32256,-0.0922,0.44397,-0.80446
-0.35927,0.8959,0.2613,-0.40518,0.68129,0.10247
-0.34693,0.91501,0.20591,-0.5843,0.63016,0.11944
-0.33631,0.92962,0.15067,-0.62901,0.4547,0.12342
-0.32111,0.93931,0.12077,-0.41481,0.04151,0.31565
-0.29873,0.95036,0.08703,0.33441,0.19825,-0.36433
-0.26867,0.96262,0.03436,0.33585,0.21817,-0.29522
-0.23717,0.97143,-0.00868,0.16792,-0.06593,-0.01842
-0.20408,0.97776,-0.04845,0.01503,-0.3346,-0.00081
-0.16821,0.98222,-0.08338,-0.08453,-0.38496,0.19156
-0.1311,0.9848,-0.11389,-0.10416,-0.47046,0.24066
-0.09687,0.98438,-0.14701,-0.12731,-0.56318,0.25966
-0.06927,0.98024,-0.1853,-0.19573,-0.57625,0.19151
-0.04904,0.97421,-0.22023,-0.31193,-0.56526,0.13404
-0.0363,0.96862,-0.24588,-0.31226,-0.63337,0.12247
-0.03542,0.96536,-0.25851,-0.30349,-0.66767,0.09738
-0.04646,0.96503,-0.25799,-0.17663,-0.69908,-0.03139
-0.06664,0.9678,-0.24273,0.10837,-0.48112,-0.31626
-0.09278,0.97347,-0.20914,0.20981,-0.37617,-0.48144
-0.1201,0.97924,-0.16331,0.32355,-0.08452,-0.88235
-0.14812,0.97985,-0.13402,0.42834,0.71681,-1.21035
-0.17487,0.97593,-0.13033,0.36343,0.98901,-0.99906
-0.17535,0.97345,-0.14713,0.46797,0.99954,-0.59777
-0.15165,0.97498,-0.16256,0.61779,0.50694,-0.50787
-0.12144,0.97707,-0.17488,0.7051,-0.37302,-0.48231
-0.09751,0.97956,-0.17593,-0.37252,0.00219,-0.32669
-0.10517,0.9825,-0.15373,-1.08935,0.86976,0.0261
-0.12948,0.98238,-0.13475,-1.44154,0.77648,0.28867
-0.12133,0.98341,-0.13487,-0.77895,-0.0091,-0.17635
-0.11358,0.98456,-0.13318,-0.35465,-0.5084,-0.05505
-0.118,0.98901,-0.08911,-0.25772,-0.6916,0.16672
-0.13811,0.99037,-0.0097,-0.15713,-0.66409,0.58143
-0.17678,0.98123,0.07703,-0.31647,-0.39067,0.34274
-0.22362,0.96342,0.14771,-0.24898,-0.32038,-0.05164
-0.26453,0.94566,0.18906,0.16951,0.02748,-0.30958
-0.2977,0.92887,0.22041,0.08942,0.01462,0.07756
-0.31486,0.91424,0.25502,0.19218,-0.03687,0.44402
-0.31547,0.90625,0.28142,0.41059,-0.0964,-0.10668
-0.31217,0.89754,0.31139,0.12204,0.00149,-0.43005
-0.31182,0.88742,0.33948,-0.02242,-0.00381,-0.47752
-0.31461,0.87688,0.36346,-0.04377,0.01402,-0.54584
-0.31967,0.86578,0.385,0.09951,0.02196,-0.59505
-0.33036,0.85334,0.40333,0.204,0.07997,-0.41592
-0.34547,0.83984,0.41871,0.20181,0.06333,-0.22111
-0.35956,0.82545,0.43513,0.14673,0.0574,-0.26577
-0.37024,0.8106,0.4537,0.12688,0.14176,-0.39733
-0.37843,0.7975,0.46988,0.19099,0.27732,-0.42283
-0.38337,0.7869,0.48354,0.28912,0.40112,-0.38998
-0.3862,0.77847,0.49481,0.41717,0.48076,-0.32693
-0.39211,0.77229,0.49981,0.46856,0.55879,-0.29306
-0.39337,0.7703,0.5019,0.50497,0.60412,-0.52601
-0.38934,0.77349,0.50013,0.49943,0.64317,-0.65251
-0.38044,0.78604,0.48725,0.29046,0.77065,-0.34536
-0.35933,0.81042,0.46271,-0.00946,0.75234,-0.16629
-0.33249,0.84014,0.42851,-0.14215,0.7102,-0.40649
-0.30763,0.87358,0.37713,-0.19168,0.48137,-0.79377
-0.28898,0.90837,0.30226,-0.72387,0.73439,-0.23309
-0.27713,0.92989,0.24188,-0.80671,0.66862,0.06281
-0.26832,0.94463,0.18887,-0.75693,0.48893,0.1319
-0.2574,0.95494,0.14779,-0.49713,-0.06576,0.2055
-0.24224,0.96411,0.10869,-0.43496,-0.14477,0.09471
-0.22048,0.97436,0.04487,0.03272,-0.05796,-0.17787
-0.19485,0.98074,-0.01355,0.25393,-0.09993,-0.16243
-0.16555,0.98444,-0.05898,0.18343,-0.20126,-0.06313
-0.13308,0.98652,-0.09521,0.04252,-0.42935,0.12935
-0.10035,0.986,-0.13315,-0.05886,-0.58219,0.26175
-0.07049,0.98188,-0.17593,-0.06177,-0.59259,0.3091
-0.04763,0.97498,-0.21713,-0.11204,-0.61713,0.24064
-0.02996,0.96743,-0.25138,-0.26842,-0.59919,0.1799
-0.02028,0.96009,-0.27896,-0.31578,-0.60752,0.1593
-0.02067,0.95659,-0.29071,-0.3503,-0.74204,0.1208
-0.03332,0.95779,-0.28554,-0.11149,-0.833,-0.09251
-0.05542,0.96385,-0.26062,0.02983,-0.74055,-0.19087
-0.0826,0.97352,-0.21317,0.26126,-0.47411,-0.45109
-0.10811,0.98104,-0.16084,0.57599,0.35125,-1.44981
-0.1293,0.98097,-0.14486,0.52144,0.77477,-1.60949
-0.15084,0.97775,-0.14576,-0.15331,1.13313,-0.49958
-0.14404,0.97592,-0.16378,-0.09102,0.9626,-0.47007
-0.12433,0.9749,-0.18472,0.24863,0.23282,-0.70687
-0.10493,0.97328,-0.20425,0.20039,-0.26185,-0.8066
-0.09497,0.97293,-0.21068,-0.75979,0.99382,-0.89601
-0.11171,0.97275,-0.2032,-1.095,1.61185,-0.27825
-0.10359,0.97594,-0.19185,-0.71062,-0.35625,0.65653
-0.08859,0.98067,-0.1745,-0.57586,-0.77078,-0.16324
-0.08201,0.98578,-0.14666,-0.51146,-0.70369,-0.29613
-0.09422,0.99188,-0.08538,-0.22683,-0.68062,0.60847
-0.12932,0.9915,0.01413,-0.39113,-0.44852,0.67716
-0.17614,0.97911,0.10159,-0.40557,-0.38037,0.37484
-0.22063,0.96293,0.15524,0.08499,-0.17484,-0.1501
-0.26167,0.94883,0.17678,0.3539,0.14491,-0.33302
-0.29898,0.93202,0.20481,0.30601,0.0713,0.00907
-0.32257,0.91809,0.23034,0.36279,0.13035,-0.01406
-0.33304,0.90757,0.25576,0.31892,-0.01992,-0.14321
-0.33812,0.89724,0.28398,0.14543,-0.10749,-0.12643
-0.3415,0.88594,0.31381,0.04057,-0.13036,-0.03952
-0.34608,0.87317,0.34322,0.00167,-0.09688,-0.23384
-0.35089,0.86014,0.37019,0.1561,0.00647,-0.52263
-0.35655,0.84692,0.39447,0.32371,0.14883,-0.74138
-0.36714,0.83416,0.41157,0.30192,0.1342,-0.59306
-0.38369,0.81987,0.42497,0.25514,0.09624,-0.34327
-0.39969,0.80358,0.44103,0.14056,0.08717,-0.06837
-0.40884,0.78867,0.45917,0.14001,0.23006,-0.34974
-0.41246,0.77659,0.47622,0.19429,0.3277,-0.53551
-0.41676,0.76793,0.4864,0.45125,0.53268,-0.55899
-0.42442,0.76308,0.48741,0.65799,0.50985,-0.23084
-0.42883,0.76201,0.48522,0.64626,0.49789,-0.18215
-0.42497,0.76529,0.48345,0.63776,0.60136,-0.74201
-0.41731,0.77903,0.46793,0.27121,0.75777,-0.21629
-0.39818,0.80383,0.44194,0.11264,0.74054,-0.06688
-0.3734,0.83391,0.40641,-0.13925,0.52571,-0.52844
-0.34909,0.86987,0.34851,-0.37459,0.54186,-0.6929
-0.32506,0.90009,0.29013,-0.56208,0.60465,-0.31301
-0.30716,0.92138,0.23815,-0.74754,0.82456,0.18932
-0.29483,0.9367,0.18884,-0.81169,0.55387,0.00352
-0.27947,0.94814,0.1514,-0.82705,0.54243,0.04095
-0.25827,0.9592,0.11508,-0.40815,-0.05581,-0.22917
-0.2355,0.9692,0.07208,0.18092,-0.07323,-0.30102
-0.21129,0.97674,0.03651,0.16352,-0.03469,-0.07394
-0.17955,0.98373,0.00579,0.19566,-0.13211,-0.0048
-0.13986,0.99,-0.01846,0.03352,-0.28564,0.14671
-0.09721,0.99423,-0.04532,-0.09148,-0.49956,0.2757
-0.05771,0.99466,-0.08559,-0.11415,-0.64386,0.39938
-0.02699,0.99023,-0.13682,-0.14933,-0.73309,0.18002
-0.00553,0.98308,-0.18309,-0.21371,-0.74503,0.1282
0.00735,0.97626,-0.21649,-0.29208,-0.76218,0.02716
0.00889,0.97222,-0.23391,-0.28129,-0.80745,-0.01419
-0.00401,0.97205,-0.23475,-0.24964,-0.84075,-0.05959
-0.02791,0.97567,-0.21746,-0.06779,-0.79264,-0.17447
-0.05871,0.98314,-0.17317,0.23216,-0.49786,-0.53006
-0.09184,0.9897,-0.1098,0.32561,-0.29628,-0.81984
-0.12269,0.9898,-0.07234,0.58149,0.92001,-1.46437
-0.14858,0.98608,-0.07463,0.30947,1.31977,-1.02089
-0.13929,0.98599,-0.09182,0.05178,1.65095,-0.49781
-0.10704,0.98808,-0.11062,0.45069,0.06833,-0.6595
-0.0765,0.98808,-0.13356,0.12933,-0.06079,-0.79591
-0.07506,0.98603,-0.14871,-0.40399,0.52151,-0.88414
-0.0917,0.98403,-0.15259,-1.48002,1.24893,0.80339
-0.07124,0.98564,-0.15309,-0.59451,-0.6239,0.60551
-0.05287,0.99093,-0.12355,-0.47029,-1.01879,0.27005
-0.04413,0.99464,-0.09351,-0.48369,-0.84709,-0.26524
-0.05871,0.9978,-0.03095,-0.41114,-0.71545,0.46741
-0.17994,0.97091,0.15797,-0.37798,-0.50053,0.52262
-0.2446,0.94086,0.23442,-0.42625,-0.20151,0.14772
-0.30295,0.91117,0.27927,-0.15959,-0.08001,-0.21111
-0.35552,0.88366,0.30456,0.36652,0.22411,-0.36378
-0.39019,0.85562,0.34012,0.32308,0.13068,0.067
-0.40805,0.83765,0.36311,0.49016,0.07005,0.13705
-0.41744,0.82418,0.38271,0.32156,-0.00944,0.00854
-0.41973,0.81191,0.40574,0.07621,-0.05875,-0.20708
-0.41779,0.80033,0.43002,-0.04981,-0.06664,-0.46823
-0.41562,0.7877,0.45473,0.12081,0.11882,-0.60729
-0.41723,0.7743,0.4758,0.33534,0.21464,-0.71199
-0.42687,0.76015,0.48986,0.33679,0.17046,-0.41674
-0.44343,0.74454,0.49902,0.28872,0.14164,-0.33112
-0.45968,0.72692,0.51019,0.24477,0.12837,-0.27917
-0.47228,0.70803,0.52502,0.28913,0.31115,-0.40101
-0.47923,0.69034,0.542,0.35347,0.38397,-0.4564
-0.47992,0.67738,0.55752,0.51364,0.51495,-0.57435
-0.48014,0.66972,0.56652,0.72673,0.62655,-0.31245
-0.48469,0.66519,0.56797,0.69629,0.62686,-0.26043
-0.48248,0.66492,0.57017,0.58643,0.60107,-0.5406
-0.47703,0.67093,0.56771,0.47448,0.6142,-0.88003
-0.47283,0.68699,0.5518,0.42725,0.62298,-0.72238
-0.4646,0.7147,0.52282,0.12093,0.85991,-0.26962
-0.4508,0.7519,0.48106,-0.08504,0.49308,-0.61509
-0.43759,0.79406,0.42189,-0.18554,0.40328,-0.64255
-0.41989,0.82865,0.37019,-0.36731,0.45741,-0.14111
-0.40738,0.85444,0.32246,-0.48572,0.80453,-0.00924
-0.40175,0.87233,0.27863,-0.54678,0.74444,-0.08449
-0.39581,0.88619,0.24085,-0.53553,0.54942,-0.19185
-0.381,0.90127,0.20627,0.06249,0.30342,-0.01326
-0.35273,0.92082,0.16634,0.30678,0.32759,-0.15331
-0.31959,0.93948,0.12347,0.22297,0.03237,-0.19632
-0.28333,0.95525,0.08499,0.04828,-0.34287,-0.06296
-0.24579,0.96807,0.04933,-0.04836,-0.44919,0.0467
-0.20875,0.9778,0.01832,-0.03176,-0.66661,0.21946
-0.174,0.98461,-0.01653,-0.03661,-0.68805,0.24495
-0.14387,0.988,-0.0562,0.012,-0.65901,0.1862
-0.12135,0.98826,-0.09282,-0.1645,-0.71957,-0.02189
-0.10562,0.987,-0.12116,-0.21231,-0.72075,-0.02152
-0.10148,0.9854,-0.13673,-0.23733,-0.7397,-0.03267
-0.11225,0.9843,-0.13619,-0.11083,-0.83452,-0.16992
-0.13225,0.98402,-0.11919,0.01651,-0.788,-0.25295
-0.15837,0.98441,-0.07645,0.25643,-0.62402,-0.41989
-0.18848,0.982,-0.01261,0.62583,0.209,-1.32518
-0.21815,0.97544,0.03041,0.56156,1.18449,-1.38903
-0.24107,0.97015,0.02654,0.32325,1.7201,-1.19436
-0.22905,0.97336,0.00974,0.38144,0.65043,-0.73271
-0.19151,0.98148,-0.00447,0.67966,-0.47278,-0.79354
-0.15454,0.98784,-0.01684,0.56476,-0.73586,-0.83136
-0.15257,0.98826,-0.0079,-0.99873,1.49509,-0.35753
-0.18422,0.98287,0.00475,-1.26509,1.09693,0.66949
-0.18213,0.98327,-0.00282,-1.25541,0.62408,0.55948
-0.16294,0.98664,0.0001,-0.47123,-0.81685,-0.49326
-0.15563,0.98769,0.01562,-0.32159,-0.80292,0.12288
-0.16674,0.98326,0.07352,-0.22492,-0.80512,0.39814
-0.19992,0.96658,0.1605,-0.41519,-0.44401,0.35385
-0.25033,0.9397,0.23304,-0.4035,-0.31184,-0.23635
-0.30861,0.91264,0.26806,0.20149,0.12974,-0.40072
-0.36484,0.88108,0.301,0.16234,-0.01,0.02975
-0.40635,0.8456,0.34617,0.27979,-0.00323,0.5369
-0.42245,0.82862,0.36733,0.65127,0.02708,0.34358
-0.42547,0.82048,0.38182,0.3619,-0.07695,-0.31074
-0.42365,0.80649,0.41242,0.18963,-0.02112,-0.50932
-0.41991,0.79107,0.44485,0.13187,0.08264,-0.66961
-0.42074,0.77687,0.46845,0.16421,0.11816,-0.64721
-0.43154,0.76198,0.48287,0.24365,0.0968,-0.42611
-0.44807,0.74555,0.49334,0.27859,0.12342,-0.3816
-0.46456,0.72718,0.50536,0.31971,0.21364,-0.36368
-0.47477,0.70829,0.52242,0.42237,0.35021,-0.42736
-0.47862,0.69368,0.53827,0.64545,0.42081,-0.52609
-0.48304,0.68246,0.54857,0.68037,0.6462,-0.35634
-0.48818,0.67473,0.55356,0.62237,0.73424,-0.26536
-0.49068,0.67213,0.55451,0.57916,0.70623,-0.42407
-0.48803,0.67406,0.5545,0.48144,0.56906,-0.7457
-0.48314,0.683,0.5478,0.32744,0.5114,-0.5965
-0.4786,0.70176,0.52771,0.202,0.65674,-0.40213
-0.46653,0.73089,0.49814,-0.03878,0.80167,-0.52926
-0.45342,0.77177,0.44584,-0.06701,0.62544,-0.48111
-0.43863,0.81054,0.3881,-0.23347,0.57399,-0.19692
-0.4237,0.84078,0.33701,-0.50641,0.71655,-0.01555
-0.41294,0.86367,0.28905,-0.54255,0.7192,-0.12917
-0.4059,0.88174,0.24038,-0.60036,0.6563,-0.19614
-0.39538,0.89633,0.20065,-0.19683,0.36992,-0.09477
-0.3761,0.91119,0.16818,0.40445,0.25689,-0.29847
-0.34943,0.92821,0.12774,0.37778,0.23986,-0.25803
-0.31821,0.9439,0.08831,0.08878,-0.12842,-0.00637
-0.28406,0.95744,0.05114,-0.03933,-0.43837,0.00773
-0.24888,0.96835,0.01897,-0.07269,-0.48387,0.16371
-0.21367,0.97686,-0.00924,-0.02746,-0.54899,0.23878
-0.1801,0.98289,-0.03862,0.06105,-0.59101,0.15597
-0.15125,0.98598,-0.07042,0.05806,-0.63756,0.09363
-0.12913,0.98667,-0.09902,-0.03745,-0.74902,-0.02076
-0.11583,0.98622,-0.1181,-0.16769,-0.82553,-0.08644
-0.11538,0.98584,-0.1217,-0.17184,-0.88267,-0.12187
-0.12698,0.98577,-0.11017,0.12394,-0.66512,-0.39337
-0.14686,0.98577,-0.08176,0.18798,-0.55636,-0.45454
-0.17438,0.98425,-0.02915,0.277,-0.18023,-0.77212
-0.20605,0.97811,0.02898,0.41975,0.56045,-1.32568
-0.24081,0.96891,0.05672,0.4947,1.0496,-1.48782
-0.25749,0.96518,0.04614,0.25021,1.87592,-1.17781
-0.23282,0.9721,0.02871,0.88116,0.31257,-0.69572
-0.19444,0.98083,0.01268,0.92587,-0.57439,-0.5466
-0.1668,0.9859,0.01306,0.43951,-0.52257,-0.31245
-0.18207,0.98224,0.04539,-1.10536,1.49471,0.00794
-0.2085,0.97625,0.0589,-1.20635,1.04914,0.53931
-0.19187,0.97985,0.05557,-1.02703,0.39752,0.05797
-0.1686,0.98343,0.06668,-0.26705,-0.8471,-0.52515
-0.16178,0.98282,0.08885,-0.33825,-0.84836,0.13695
-0.17303,0.9741,0.14557,-0.28588,-0.79621,0.30632
-0.20556,0.95337,0.22097,-0.46837,-0.65109,-0.02288
-0.25783,0.92495,0.27927,-0.3715,-0.36724,-0.54907
-0.31162,0.89958,0.30601,-0.0713,-0.12364,-0.47189
-0.36373,0.86795,0.33817,0.07388,0.12623,-0.04531
-0.39971,0.83293,0.38269,0.06138,0.15812,0.19289
-0.41003,0.81371,0.41201,0.3077,0.21542,0.49966
-0.40884,0.80439,0.43104,0.38812,-0.02156,-0.46892
-0.40798,0.79418,0.45037,0.279,0.03389,-0.63438
-0.40923,0.78046,0.47266,0.21536,0.09994,-0.75606
-0.41592,0.76573,0.49058,0.23072,0.14948,-0.51431
-0.42651,0.75196,0.50264,0.18302,0.14701,-0.4091
-0.4409,0.73651,0.51299,0.19742,0.16246,-0.41945
-0.45627,0.71877,0.52458,0.18391,0.16172,-0.44603
-0.46699,0.70203,0.53766,0.31949,0.27914,-0.40208
-0.47284,0.68741,0.55127,0.65902,0.40944,-0.51445
-0.47982,0.67519,0.56026,0.77761,0.63435,-0.56779
-0.48765,0.66879,0.56118,0.76577,0.73055,-0.34953
-0.49001,0.66949,0.55828,0.67161,0.7194,-0.52145
-0.4856,0.67637,0.55382,0.62784,0.61929,-0.83226
-0.47826,0.6953,0.53649,0.20885,0.81869,-0.27941
-0.46097,0.72668,0.50935,0.05232,0.80518,-0.32416
-0.44134,0.76789,0.46428,-0.14405,0.70292,-0.7038
-0.42219,0.80822,0.41053,-0.47183,0.64914,-0.0674
-0.40325,0.84102,0.36066,-0.46101,0.78915,-0.01407
-0.39234,0.86396,0.31564,-0.54964,0.79319,-0.15666
-0.3865,0.88111,0.2725,-0.54402,0.51376,-0.30991
-0.37815,0.89615,0.23218,-0.34542,0.33624,-0.26856
-0.36433,0.91134,0.19163,-0.05832,0.19765,-0.22427
-0.3469,0.92568,0.15095,0.28608,0.01871,-0.13822
-0.32372,0.93975,0.1099,0.17194,-0.0362,0.01972
-0.29314,0.95342,0.0711,0.0748,-0.25332,-0.04261
-0.25833,0.96522,0.04015,-0.03643,-0.46777,0.0561
-0.21934,0.97554,0.01467,-0.12126,-0.59492,0.25315
-0.181,0.98333,-0.0172,-0.06438,-0.63775,0.3028
-0.14862,0.98737,-0.05483,0.07229,-0.68749,0.02129
-0.12348,0.98837,-0.08874,0.01381,-0.72307,-0.05042
-0.10602,0.98785,-0.11361,-0.10152,-0.79202,-0.08765
-0.10179,0.98688,-0.12535,-0.13204,-0.90532,-0.21308
-0.11324,0.98665,-0.11702,-0.05076,-0.90001,-0.26832
-0.13559,0.98713,-0.08474,0.30132,-0.5444,-0.53684
-0.1645,0.98599,-0.02749,0.40983,-0.32643,-0.82027
-0.1954,0.98015,0.03365,0.57186,-0.0162,-1.27502
-0.22689,0.97268,0.04915,0.46743,1.4798,-1.28096
-0.24096,0.96999,0.03242,0.18162,1.97131,-0.65649
-0.21544,0.97639,0.01598,0.30713,1.32595,-0.55637
-0.17506,0.98456,-0.00197,0.36204,-0.13881,-0.88961
-0.14922,0.98863,-0.01832,-0.91452,0.92413,-1.04163
-0.16478,0.98607,-0.02259,-1.2015,1.57673,-0.5259
-0.15974,0.98642,-0.03823,-0.63582,-0.32738,0.65789
-0.14093,0.9897,-0.02514,-0.63602,-0.97499,-0.15151
-0.13266,0.99115,-0.00367,-0.69544,-0.99747,-0.38841
-0.14244,0.98892,0.0419,-0.35375,-0.61311,0.4283
-0.18219,0.97436,0.13199,-0.47141,-0.41278,0.57757
-0.23751,0.94754,0.21393,-0.3816,-0.28761,0.1662
-0.29158,0.91858,0.2668,0.26663,0.23721,-0.3233
-0.34395,0.89187,0.29372,0.37049,0.26653,-0.25384
-0.38404,0.86187,0.33118,0.28875,0.04897,0.00312
-0.40717,0.83862,0.36185,0.42629,-0.00198,-0.12017
-0.42139,0.82108,0.38504,0.39477,-0.07185,-0.07923
-0.43292,0.80475,0.40613,0.21292,-0.00788,-0.10273
-0.44079,0.7885,0.42892,0.16904,0.00798,-0.27002
-0.44606,0.7719,0.45298,0.28398,0.11983,-0.51217
-0.45233,0.75489,0.47492,0.38456,0.1863,-0.64406
-0.46343,0.73889,0.48916,0.38903,0.20316,-0.65565
-0.47988,0.7223,0.498,0.31783,0.1991,-0.44688
-0.49667,0.70344,0.50842,0.31654,0.19678,-0.28672
-0.50863,0.68449,0.52227,0.39169,0.29951,-0.32983
-0.51282,0.66878,0.53829,0.5656,0.48569,-0.54834
-0.51436,0.65653,0.55173,0.8365,0.66293,-0.57849
-0.52058,0.64915,0.55462,0.7757,0.70013,-0.31638
-0.52182,0.64886,0.55379,0.62532,0.64906,-0.64917
-0.51781,0.65514,0.55014,0.58234,0.59971,-0.80363
-0.51382,0.6714,0.53404,0.44834,0.60004,-0.69104
-0.50485,0.69911,0.50634,-0.00222,0.87389,-0.35962
-0.48788,0.73711,0.46758,-0.02454,0.77802,-0.51891
-0.47036,0.77935,0.41398,-0.11937,0.51548,-0.40404
-0.45184,0.81617,0.36014,-0.42456,0.72758,-0.18618
-0.44072,0.84279,0.30898,-0.6091,0.81352,-0.17622
-0.43339,0.86227,0.26203,-0.69782,0.78223,-0.26217
-0.42669,0.87824,0.21595,-0.37142,0.31387,-0.12704
-0.41319,0.89375,0.17461,-0.08365,0.24892,-0.09085
-0.39327,0.91022,0.12978,0.36031,0.26347,-0.20154
-0.36654,0.92624,0.08798,0.24044,-0.04496,-0.0753
-0.33119,0.94217,0.05127,0.18144,-0.21803,-0.08877
-0.29225,0.95615,0.01898,0.06429,-0.44743,-0.02001
-0.25455,0.96703,-0.00783,-0.05989,-0.60283,0.35026
-0.21928,0.97479,-0.04121,-0.03581,-0.63618,0.38957
-0.19002,0.97836,-0.08191,0.04443,-0.6518,0.31718
-0.17074,0.97813,-0.11879,0.04189,-0.73203,0.05271
-0.15931,0.97673,-0.14358,-0.00118,-0.74478,0.03663
-0.15782,0.97581,-0.15127,-0.06166,-0.87236,0.01127
-0.16769,0.9756,-0.14172,0.0022,-0.953,-0.35359
-0.18949,0.97587,-0.10854,0.0907,-0.88289,-0.42785
-0.22042,0.97437,-0.04498,0.36061,-0.38638,-0.90786
-0.25588,0.96635,0.02621,0.55489,-0.03636,-1.29315
-0.29183,0.95562,0.04021,0.51718,1.93099,-1.48245
-0.30013,0.95369,0.02012,0.12664,2.07793,-0.73657
-0.26819,0.9633,0.01163,0.64711,0.15058,-0.59839
-0.22368,0.97465,-0.00368,0.64036,-0.45654,-0.66451
-0.20725,0.97827,-0.00596,-0.72718,0.69959,-0.82175
-0.24169,0.97035,0.0,-1.24305,1.41223,0.48221
-0.25205,0.96759,-0.01542,-1.4645,1.01929,0.57513
-0.22874,0.97348,-0.00319,-0.25031,-0.81005,-0.20404
-0.21662,0.97604,0.02062,-0.14078,-0.99026,-0.28336
-0.22584,0.97165,0.07001,-0.06427,-0.8576,0.14261
-0.26828,0.94934,0.16366,-0.35148,-0.44229,0.50239
-0.3176,0.91898,0.23369,-0.34112,-0.31682,0.31749
-0.36382,0.89201,0.26825,0.19531,0.20235,-0.45757
-0.41082,0.86384,0.29157,0.3239,0.17588,-0.21543
-0.44735,0.83192,0.32831,0.23876,0.05815,0.19429
-0.46542,0.81044,0.35576,0.39957,0.09882,0.1528
-0.47474,0.79581,0.3759,0.37382,-0.06733,-0.10725
-0.48255,0.78373,0.39104,0.28098,-0.01539,-0.26223
-0.48874,0.76931,0.41145,0.28787,0.04128,-0.35885
-0.49466,0.7529,0.4341,0.34442,0.13192,-0.54575
-0.50509,0.73731,0.44862,0.35787,0.16592,-0.48151
-0.51991,0.72096,0.45816,0.35069,0.18636,-0.45578
-0.53554,0.70261,0.46854,0.32427,0.22773,-0.36371
-0.54832,0.68285,0.48275,0.43007,0.32276,-0.28609
-0.55621,0.66461,0.49891,0.53779,0.37736,-0.35292
-0.55853,0.65114,0.51388,0.90646,0.62634,-0.51948
-0.56416,0.64265,0.51839,0.80643,0.73666,-0.21904
-0.56884,0.64007,0.51647,0.76043,0.74815,-0.22978
-0.56706,0.64215,0.51584,0.66435,0.68965,-0.55953
-0.56392,0.65046,0.50882,0.53346,0.57044,-0.73143
-0.56038,0.66688,0.49116,0.44394,0.62053,-0.65359
-0.55037,0.69398,0.46419,0.20137,0.74054,-0.48865
-0.53593,0.73231,0.42011,-0.0439,0.56089,-0.34176
-0.51954,0.77008,0.37021,-0.18069,0.46466,-0.0734
-0.50109,0.8019,0.32538,-0.41646,0.78964,-0.10464
-0.48985,0.82478,0.28247,-0.56882,0.86638,-0.21176
-0.48413,0.844,0.23085,-0.64107,0.78461,-0.28398
-0.47725,0.86052,0.17813,-0.40837,0.40634,-0.21361
-0.46632,0.8749,0.13079,0.04047,0.0838,-0.07286
-0.44954,0.88897,0.08743,0.29538,0.07619,-0.05565
-0.42516,0.90435,0.03721,0.40893,-0.07061,-0.07485
-0.39439,0.91891,-0.00803,0.23122,-0.34545,-0.01646
-0.36064,0.93154,-0.04661,0.19746,-0.35808,0.02212
-0.32817,0.94152,-0.07645,0.07997,-0.53791,0.36638
-0.2982,0.9485,-0.10684,0.12956,-0.54851,0.43016
-0.27496,0.95086,-0.14233,0.29147,-0.52005,0.20132
-0.25906,0.95025,-0.17295,0.2122,-0.58502,0.02696
-0.24998,0.94917,-0.19125,0.0603,-0.67111,-0.03693
-0.25036,0.94906,-0.19133,-0.01488,-0.81002,-0.09449
-0.26326,0.94938,-0.17136,0.13344,-0.77424,-0.22372
-0.28714,0.94938,-0.12743,0.37723,-0.58991,-0.44826
-0.31479,0.94722,-0.06065,0.62938,-0.29169,-0.87067
-0.34236,0.93956,-0.00474,0.8508,0.38437,-1.65056
-0.37264,0.92797,0.00096,0.40508,1.2344,-1.36382
-0.3827,0.92379,-0.0123,0.14584,1.63395,-0.98687
-0.36109,0.93232,-0.01989,0.66384,0.56901,-0.74792
-0.33237,0.94264,-0.03108,0.94608,-0.45904,-0.63788
-0.3095,0.95005,-0.0403,0.50683,-0.44052,-0.48389
-0.32657,0.94483,-0.0256,-1.10446,1.35482,0.05516
-0.3473,0.9373,-0.02909,-1.36669,0.87942,0.44181
-0.33505,0.94198,-0.02023,-0.82875,0.19175,0.30368
-0.32848,0.94446,-0.01004,-0.11113,-0.65795,-0.37079
-0.33384,0.9423,0.02481,-0.01641,-0.681,0.42539
-0.35404,0.93078,0.09114,0.022,-0.66248,0.60151
-0.38727,0.90922,0.1528,-0.13906,-0.27635,0.21822
-0.42789,0.88355,0.1904,0.30236,0.07074,-0.41522
-0.47108,0.85585,0.21358,0.38059,0.12832,-0.21872
-0.51095,0.82287,0.24864,0.30242,-0.00303,0.17267
-0.53922,0.79608,0.27476,0.47439,0.095,0.20379
-0.55535,0.77758,0.29489,0.49051,0.1135,0.18366
-0.56496,0.76388,0.31194,0.39163,0.05336,-0.03512
-0.5702,0.75066,0.33374,0.41184,0.17022,-0.44107
-0.57384,0.73555,0.36011,0.41548,0.18534,-0.46744
-0.58214,0.71974,0.37826,0.47338,0.19199,-0.58476
-0.59657,0.70378,0.38574,0.44875,0.17896,-0.40886
-0.61366,0.68598,0.39097,0.40786,0.1763,-0.27605
-0.62793,0.66689,0.40119,0.43729,0.21688,-0.21814
-0.63518,0.65011,0.41701,0.64052,0.39853,-0.32863
-0.6363,0.63667,0.43562,0.75471,0.50624,-0.4391
-0.63983,0.62547,0.44655,1.01118,0.68955,-0.41733
-0.64601,0.62038,0.44474,0.82802,0.80952,-0.17537
-0.6457,0.62055,0.44496,0.77569,0.75709,-0.34258
-0.64108,0.62772,0.44158,0.67768,0.60654,-0.58036
-0.63181,0.64693,0.42697,0.32764,0.88719,-0.16602
-0.61262,0.67871,0.40504,0.22193,0.89931,-0.04292
-0.58833,0.71597,0.37584,-0.04908,0.92168,-0.37137
-0.57016,0.75903,0.31431,-0.05538,0.65191,-0.76211
-0.55785,0.79152,0.2496,-0.31393,0.80702,-0.2942
-0.54704,0.81583,0.18753,-0.53009,0.71626,0.07808
-0.54006,0.83231,0.12488,-0.57842,0.63443,-0.01128
-0.5339,0.84246,0.07211,-0.41184,0.31662,-0.09019
-0.52366,0.85153,0.02581,0.5594,0.15825,-0.09564
-0.50537,0.86248,-0.02694,0.53052,0.2152,0.06141
-0.47935,0.87444,-0.07467,0.53947,0.05268,0.11196
-0.44975,0.8854,-0.11744,0.41324,-0.18705,0.19801
-0.4167,0.89626,-0.15191,0.23996,-0.36725,0.27478
-0.38518,0.90549,-0.1781,0.13353,-0.4687,0.43608
-0.35634,0.91199,-0.2032,0.19602,-0.55935,0.40306
-0.33217,0.9152,-0.22821,0.15748,-0.62737,0.24579
-0.31479,0.91636,-0.24736,0.07666,-0.64314,0.11738
-0.30533,0.9177,-0.25415,-0.01528,-0.71093,0.09385
-0.30481,0.91971,-0.24744,-0.0039,-0.78517,-0.06032
-0.3151,0.92159,-0.22668,0.19982,-0.71773,-0.24779
-0.33412,0.92326,-0.18963,0.46928,-0.55964,-0.35574
-0.35976,0.92384,-0.13074,0.61468,-0.34649,-0.65396
-0.38938,0.9184,-0.0702,0.78333,0.19997,-1.2631
-0.42405,0.90452,-0.04492,0.7841,0.98551,-1.3401
-0.44402,0.89432,-0.05514,0.37537,1.69501,-1.03108
-0.43163,0.89998,-0.06102,0.48032,0.88333,-0.70721
-0.40859,0.91023,-0.06738,0.53684,0.25376,-0.86132
-0.40159,0.91242,-0.07881,-0.97544,2.23254,-0.27702
-0.40777,0.90905,-0.08574,-0.96926,2.23591,-0.27008
-0.38265,0.91992,-0.08557,-0.11859,-0.5544,0.77187
-0.36307,0.93037,-0.05093,-0.36852,-1.35136,-0.49244
-0.34984,0.93572,-0.04516,-0.38176,-1.35671,-0.49821
-0.36555,0.93079,-0.00166,-0.0978,-0.64988,0.5998
-0.40844,0.90936,0.07906,-0.24269,-0.31089,0.46297
-0.45539,0.88184,0.12241,-0.11319,-0.20281,-0.05294
-0.49856,0.85805,0.12322,0.48698,0.36067,-0.33982
-0.54153,0.82844,0.14295,0.36972,0.09612,0.24782
-0.57362,0.79879,0.18135,0.40494,0.10419,0.24479
-0.59308,0.77844,0.20564,0.56073,0.14958,0.31057
-0.60348,0.76404,0.22813,0.55563,0.0258,0.13426
-0.60943,0.75101,0.25411,0.45569,0.02923,-0.04123
-0.61439,0.73548,0.28567,0.42975,0.04199,-0.23782
-0.61797,0.71908,0.31786,0.52572,0.17142,-0.54802
-0.62377,0.70309,0.34142,0.51684,0.20496,-0.56841
-0.6337,0.68782,0.35403,0.46298,0.23342,-0.43634
-0.64697,0.67074,0.36268,0.42305,0.27977,-0.1714
-0.66058,0.65105,0.37386,0.4383,0.33703,-0.13602
-0.66954,0.63221,0.38991,0.51352,0.43644,-0.24769
-0.6738,0.61703,0.40653,0.92796,0.56589,-0.55262
-0.68078,0.60542,0.41231,0.95483,0.59908,-0.41996
-0.68527,0.60079,0.41164,0.92575,0.72138,-0.03797
-0.68176,0.60154,0.41636,0.87881,0.73387,-0.29085
-0.67461,0.61006,0.41561,0.77997,0.69559,-0.76012
-0.66518,0.63228,0.39719,0.36277,0.82831,-0.13839
-0.64652,0.66664,0.37096,0.20047,0.84997,-0.03075
-0.62421,0.70947,0.32713,0.04587,0.68415,-0.35448
-0.60188,0.75314,0.26554,-0.30324,1.0311,0.03173
-0.58252,0.78285,0.21866,-0.39203,1.0641,0.19896
-0.56945,0.80485,0.16717,-0.43707,0.94707,0.21941
-0.55929,0.82237,0.10444,-0.67195,0.71411,-0.21682
-0.54603,0.83588,0.05627,-0.22428,0.29774,-0.01515
-0.52753,0.84937,0.01663,0.36307,0.15759,-0.05549
-0.50226,0.86416,-0.03094,0.47609,0.06134,-0.04753
-0.47316,0.87792,-0.0733,0.29848,-0.10387,0.13367
-0.44024,0.89146,-0.10714,0.23687,-0.34723,0.1367
-0.40768,0.9035,-0.13223,0.14699,-0.47963,0.36402
-0.37763,0.91319,-0.15323,0.13631,-0.53766,0.46748
-0.35042,0.91958,-0.1777,0.27971,-0.60449,0.44526
-0.33148,0.9207,-0.20601,0.34624,-0.7041,0.26634
-0.31925,0.91956,-0.22912,0.1823,-0.72154,0.08599
-0.31452,0.91871,-0.23887,0.05069,-0.80958,0.04278
-0.32203,0.9178,-0.23224,0.00648,-0.8896,-0.11325
-0.34202,0.91693,-0.20558,0.18638,-0.8235,-0.24516
-0.37074,0.91596,-0.15352,0.48886,-0.54868,-0.44909
-0.40232,0.91122,-0.08842,0.73333,-0.05697,-1.05465
-0.42879,0.90138,-0.0605,0.86542,0.87561,-1.76413
-0.45097,0.8901,-0.06587,0.34787,1.67543,-1.00899
-0.44548,0.89222,-0.07409,0.38626,1.30285,-0.57575
-0.4203,0.90419,-0.07608,0.95996,-0.3542,-0.6847
-0.38951,0.91738,-0.0819,0.91543,-0.56664,-0.6163
-0.38005,0.92186,-0.0757,-0.28514,0.40205,-0.64732
-0.40783,0.91032,-0.07064,-1.05071,1.77515,0.24356
-0.41452,0.90683,-0.07635,-1.40865,1.05191,0.52407
-0.39445,0.91607,-0.07222,-0.15755,-0.72571,-0.37737
-0.38625,0.92052,-0.05879,-0.05552,-0.78377,0.14923
-0.39394,0.91908,-0.00992,0.101,-0.89412,0.58387
-0.42074,0.9043,0.07219,-0.08481,-0.43009,0.53536
-0.46026,0.87908,0.12399,-0.12488,-0.19459,-0.28906
-0.50226,0.85233,0.14582,0.14507,-0.02491,-0.3567
-0.54291,0.82423,0.16091,0.40869,0.1586,-0.20957
-0.5795,0.79215,0.19154,0.34327,0.08461,0.39811
-0.59921,0.77119,0.21497,0.43928,0.14571,0.54388
-0.60556,0.75961,0.23724,0.74322,0.07159,0.26091
-0.60869,0.74706,0.26721,0.56792,0.16569,-0.40693
-0.61098,0.73413,0.29624,0.60695,0.26695,-0.64301
-0.61735,0.72068,0.31542,0.50821,0.18749,-0.25721
-0.62869,0.70756,0.32264,0.45731,0.19119,-0.21687
-0.64243,0.69343,0.32625,0.4066,0.2018,-0.25346
-0.65617,0.67657,0.3342,0.39752,0.21692,-0.32162
-0.66847,0.65895,0.34487,0.5016,0.31794,-0.174
-0.67534,0.64384,0.3597,0.60143,0.36692,-0.16009
-0.67745,0.63032,0.37916,1.03881,0.59124,-0.28502
-0.68037,0.62006,0.39067,1.03183,0.75871,-0.21252
-0.68098,0.6182,0.39255,0.94317,0.74536,-0.19976
-0.67646,0.62278,0.39312,0.74313,0.66614,-0.55898
-0.67033,0.63394,0.38573,0.62744,0.61428,-0.58817
-0.6613,0.65508,0.36546,0.526,0.6857,-0.40275
-0.64484,0.68589,0.33725,0.23555,0.73075,-0.30498
-0.62661,0.72493,0.28609,0.23006,0.61826,-0.42281
-0.60484,0.76089,0.23498,0.03706,0.61409,-0.22005
-0.58735,0.78865,0.18181,-0.38722,0.96573,0.10624
-0.5729,0.80938,0.1292,-0.5429,0.90565,0.04961
-0.55837,0.82612,0.0758,-0.59661,0.69596,-0.04712
-0.54233,0.83938,0.03629,-0.16586,0.31191,0.00694
-0.5226,0.85258,0.00018,0.33528,0.21973,-0.11279
-0.4959,0.86735,-0.04221,0.55537,0.15003,-0.01983
-0.46456,0.88158,-0.08369,0.29551,-0.2415,0.14058
-0.43136,0.89422,-0.11961,0.1756,-0.42565,0.17149
-0.39881,0.90497,-0.14827,0.0821,-0.49684,0.28996
-0.36962,0.91357,-0.16964,0.04799,-0.59291,0.46123
-0.34518,0.91815,-0.19456,0.23056,-0.58497,0.29914
-0.32761,0.9184,-0.22185,0.24735,-0.5768,0.22816
-0.31581,0.91725,-0.24274,0.13946,-0.63882,0.14612
-0.31247,0.91578,-0.25241,0.05214,-0.74931,0.094
-0.32232,0.91367,-0.24762,0.07405,-0.80439,-0.00045
-0.34347,0.91171,-0.22542,0.24004,-0.79809,-0.16668
-0.37232,0.91086,-0.17808,0.51949,-0.45648,-0.60343
-0.40449,0.90775,-0.11123,0.61367,-0.18746,-0.9832
-0.43614,0.89678,-0.07455,0.96222,0.68862,-1.70378
-0.46068,0.88345,-0.08534,0.46961,1.92819,-1.144
-0.44911,0.88826,-0.09635,0.15207,1.68476,-0.47596
-0.41726,0.90339,-0.09892,0.55037,0.3267,-0.70714
-0.38297,0.91737,-0.10847,0.53263,-0.56473,-0.65652
-0.37211,0.92225,-0.10479,0.05822,-0.11616,-0.76155
-0.40086,0.91095,-0.09742,-0.85982,1.14315,-0.04903
-0.41099,0.90547,-0.1059,-0.85483,0.39129,0.28661
-0.40239,0.90984,-0.1014,-0.3721,-0.14557,-0.00673
-0.4009,0.9124,-0.08246,0.08154,-0.50118,0.03234
-0.40598,0.91309,-0.03798,0.29031,-0.47663,0.59384
-0.42452,0.90511,0.02343,0.20425,-0.378,0.58283
-0.45104,0.88474,0.11747,0.10864,-0.08144,0.38434
-0.47792,0.8652,0.15173,0.25937,-0.12724,-0.37376
-0.5035,0.84585,0.17616,0.46543,-0.07685,-0.43416
-0.53266,0.82224,0.20047,0.50562,-0.05942,-0.17393
-0.55992,0.7982,0.22217,0.44255,-0.06546,-0.07225
-0.58315,0.77577,0.24106,0.38854,0.10263,-0.0012
-0.59678,0.75862,0.26144,0.31646,0.1567,0.14704
-0.60391,0.74516,0.28291,0.39088,0.12226,-0.09599
-0.60983,0.7302,0.30809,0.42299,0.14671,-0.27499
-0.61665,0.71473,0.33001,0.53929,0.22118,-0.54206
-0.62681,0.69987,0.34248,0.57711,0.24072,-0.53773
-0.64127,0.68377,0.3482,0.52039,0.23065,-0.38459
-0.65722,0.66521,0.35433,0.41946,0.24513,-0.09272
-0.66966,0.6462,0.36603,0.46402,0.3543,-0.11328
-0.6769,0.62833,0.38343,0.53278,0.45499,-0.24492
-0.68126,0.61349,0.39939,0.74712,0.58101,-0.42161
-0.68699,0.60411,0.40386,0.80105,0.61532,-0.29726
-0.69256,0.59881,0.40223,0.747,0.65998,-0.15345
-0.69199,0.5975,0.40514,0.76273,0.64677,-0.47515
-0.6881,0.60186,0.40531,0.76379,0.68096,-0.62219
-0.68255,0.61579,0.39361,0.72169,0.78918,-0.34088
-0.67102,0.63999,0.37435,0.38068,0.85875,-0.27741
-0.65369,0.67433,0.34345,0.32905,0.79118,-0.36501
-0.63674,0.71537,0.28776,0.2606,0.6715,-0.54802
-0.62017,0.74882,0.2338,-0.27782,0.83341,-0.04272
-0.60553,0.77439,0.18343,-0.3311,0.8493,0.38992
-0.5925,0.79391,0.13659,-0.38512,0.7474,0.28678
-0.57747,0.81134,0.09089,-0.21833,0.34747,-0.21554
-0.56148,0.82591,0.05115,0.02299,0.17607,-0.07584
-0.54193,0.84026,0.01636,0.25843,0.12782,-0.03732
-0.51768,0.85527,-0.02295,0.5012,0.18393,0.08589
-0.48719,0.87106,-0.06245,0.39903,-0.05461,0.0499
-0.45432,0.88593,-0.09343,0.30695,-0.17813,0.0726
-0.42157,0.89945,-0.11519,0.11134,-0.44346,0.33887
-0.39038,0.91036,-0.13728,0.13564,-0.50687,0.34882
-0.36301,0.91705,-0.16507,0.13341,-0.51431,0.31988
-0.34111,0.9204,-0.19107,0.14997,-0.55806,0.09435
-0.3258,0.92203,-0.20908,0.08642,-0.62976,-0.00162
-0.32138,0.9219,-0.21637,0.03102,-0.72326,0.03976
-0.33056,0.92006,-0.21029,0.08609,-0.77435,-0.07004
-0.35033,0.91788,-0.18644,0.27512,-0.67788,-0.22081
-0.37625,0.91597,-0.13944,0.51408,-0.5026,-0.45719
-0.40415,0.91164,-0.07467,0.70216,-0.19881,-0.84084
-0.43078,0.90195,-0.0301,0.78529,0.84104,-1.54188
-0.45578,0.88975,-0.02457,0.54407,1.25861,-1.18742
-0.45281,0.89102,-0.03245,0.1651,1.59313,-0.68429
-0.42679,0.90359,-0.03709,0.7281,0.06287,-0.79891
-0.39253,0.91867,-0.04446,0.86126,-0.33076,-0.76521
-0.37572,0.92587,-0.0399,-0.15527,0.4807,-0.82044
-0.39386,0.9188,-0.02615,-0.87735,1.48072,-0.0691
-0.40371,0.91445,-0.02813,-1.04791,1.13921,0.42636
-0.38714,0.92155,-0.02941,-0.28449,-0.44467,-0.16001
-0.37423,0.92712,-0.0199,-0.15277,-0.65278,-0.34537
-0.37795,0.92566,0.01775,0.01738,-0.80728,0.00856
-0.40233,0.91169,0.0834,-0.03294,-0.57315,0.51326
-0.4426,0.88603,0.13804,-0.06959,-0.43386,0.45796
-0.48515,0.85776,0.16992,0.18905,0.0538,-0.29314
-0.52645,0.83072,0.18099,0.44692,0.29634,-0.28963
-0.56118,0.80045,0.2106,0.36848,0.22999,-0.13893
-0.58215,0.77877,0.23371,0.45348,0.17916,0.28305
-0.59081,0.76539,0.25518,0.66105,0.1693,0.12444
-0.59507,0.75314,0.28047,0.55392,0.08835,-0.20308
-0.59935,0.7392,0.30718,0.46603,0.074,-0.28926
-0.60537,0.72418,0.33028,0.42046,0.12614,-0.3839
-0.61272,0.7085,0.35015,0.47773,0.16202,-0.39008
-0.62192,0.69366,0.3634,0.43375,0.1932,-0.38491
-0.63335,0.67808,0.37292,0.3861,0.23586,-0.33462
-0.64578,0.66039,0.38321,0.38615,0.27878,-0.28104
-0.65712,0.64175,0.39542,0.44564,0.35114,-0.18722
-0.6629,0.62507,0.41214,0.59432,0.43769,-0.33913
-0.66328,0.61315,0.42907,0.82222,0.59805,-0.56991
-0.6671,0.60586,0.43348,0.94388,0.71651,-0.29119
-0.67135,0.60427,0.42912,0.78985,0.68618,-0.30364
-0.66804,0.60777,0.42934,0.78038,0.65199,-0.51514
-0.66306,0.61833,0.42192,0.76321,0.62339,-0.67845
-0.65347,0.64078,0.40296,0.50022,0.72376,-0.34165
-0.63612,0.67372,0.37611,0.33515,0.73107,-0.47114
-0.62024,0.71451,0.3237,0.21399,0.70088,-0.58759
-0.6045,0.75017,0.26801,-0.33326,0.80663,0.12109
-0.5895,0.77769,0.21838,-0.34701,0.89589,0.19437
-0.57895,0.79662,0.17383,-0.44029,0.83079,0.01088
-0.56734,0.8133,0.1291,-0.14725,0.4717,-0.24337
-0.55267,0.82902,0.08528,0.16927,0.3275,-0.09643
-0.53296,0.84482,0.0472,0.36324,0.26338,-0.09167
-0.50635,0.86231,0.00543,0.51141,0.1636,0.03717
-0.47568,0.87901,-0.03266,0.3412,-0.19792,0.05126
-0.44241,0.89435,-0.06638,0.30794,-0.21326,0.08497
-0.4102,0.90784,-0.08691,0.14911,-0.43391,0.1972
-0.37925,0.91989,-0.09986,0.14492,-0.474,0.22809
-0.35023,0.92951,-0.11553,0.15545,-0.47671,0.23673
-0.32772,0.93519,-0.1342,0.24413,-0.48233,0.12408
-0.31015,0.93874,-0.15026,0.04211,-0.49364,0.00141
-0.29961,0.94057,-0.1599,-0.02377,-0.54324,0.00156
-0.3002,0.94032,-0.16027,-0.08004,-0.70988,-0.04756
-0.3107,0.93885,-0.14841,0.15622,-0.76403,-0.25783
-0.32966,0.9368,-0.11715,0.26663,-0.67624,-0.35117
-0.35324,0.93336,-0.06373,0.4971,-0.44503,-0.59277
-0.37667,0.92635,-0.00186,0.82798,0.18196,-1.32334
-0.40305,0.9149,0.02263,0.94026,0.60877,-1.45344
-0.41798,0.90837,0.01259,0.50233,1.81317,-0.88414
-0.39731,0.91768,0.00168,0.52038,1.5869,-0.70238
-0.36081,0.93264,-0.00235,0.79127,0.33344,-0.70404
-0.33572,0.94187,-0.01326,0.14593,-0.02343,-0.67679
-0.34222,0.9396,-0.00641,-0.79974,1.34745,-0.36583
-0.35407,0.93517,-0.00979,-0.91856,1.31697,0.28637
-0.34304,0.93929,-0.00732,-0.39358,-0.38206,0.00697
-0.33489,0.94224,0.00489,-0.23747,-0.71705,-0.44465
-0.33755,0.94094,0.02627,-0.14124,-0.60256,-0.26359
-0.35574,0.93108,0.08087,-0.0676,-0.49564,0.49869
-0.38867,0.91055,0.14086,-0.10999,-0.36764,0.54379
-0.43011,0.8835,0.18556,-0.16895,-0.12848,-0.24925
-0.46821,0.85747,0.21338,0.3894,0.16942,-0.42118
-0.50587,0.8298,0.23565,0.5319,0.14573,-0.11454
-0.53601,0.80326,0.25973,0.50357,0.11425,0.13469
-0.55686,0.78195,0.2801,0.52774,0.14521,0.20475
-0.56885,0.76586,0.29979,0.38496,0.0038,0.13484
-0.57449,0.75192,0.32339,0.32641,-0.01738,-0.06159
-0.5809,0.73558,0.34853,0.39252,0.05734,-0.39905
-0.5905,0.71622,0.37194,0.45508,0.1786,-0.57747
-0.60146,0.69903,0.38678,0.44094,0.22979,-0.54729
-0.61354,0.68327,0.39586,0.42334,0.21454,-0.38095
-0.62749,0.6649,0.40518,0.43663,0.26039,-0.19439
-0.64,0.64396,0.4192,0.47899,0.30386,-0.23101
-0.64731,0.6243,0.4373,0.59305,0.39959,-0.36644
-0.64934,0.60938,0.45499,0.7914,0.68234,-0.45074
-0.65173,0.59934,0.4648,0.83263,0.75656,-0.35536
-0.65686,0.59384,0.46464,0.83429,0.79417,-0.14457
-0.65595,0.59301,0.46698,0.74297,0.65518,-0.57013
-0.65051,0.59937,0.46647,0.71451,0.63403,-0.64852
-0.64343,0.61549,0.45515,0.58779,0.71459,-0.47981
-0.62906,0.64443,0.43473,0.25574,0.87263,-0.13165
-0.60989,0.68084,0.40558,0.16432,0.81124,-0.34441
-0.59303,0.72518,0.34989,0.14917,0.63006,-0.73835
-0.57826,0.76428,0.28546,-0.34587,0.87096,-0.035
-0.56737,0.79106,0.22872,-0.44097,0.84182,0.19286
-0.55956,0.81198,0.16605,-0.53863,0.70474,0.00915
-0.55004,0.82737,0.11365,-0.22114,0.25036,-0.01445
-0.53746,0.83981,0.07652,-0.05513,0.18308,0.05258
-0.52025,0.8536,0.02658,0.55766,0.24342,-0.11493
-0.49653,0.86765,-0.02535,0.53475,0.149,0.04656
-0.46709,0.88134,-0.07119,0.45771,-0.04169,0.03812
-0.43526,0.89409,-0.10562,0.24566,-0.26732,0.17458
-0.40266,0.90588,-0.13132,0.14375,-0.49478,0.2607
-0.37268,0.91458,-0.15699,0.12715,-0.53485,0.29457
-0.34849,0.91892,-0.18478,0.19767,-0.60363,0.14788
-0.32996,0.92056,-0.20905,0.10485,-0.61064,0.06358
-0.31749,0.92073,-0.22683,0.01795,-0.60874,0.08723
-0.3158,0.91963,-0.23355,-0.02555,-0.70265,0.09097
-0.32625,0.91812,-0.22498,0.05635,-0.73439,0.04656
-0.34568,0.91704,-0.19888,0.25359,-0.75067,-0.1099
-0.36951,0.91648,-0.1534,0.65992,-0.34898,-0.62728
-0.39239,0.91487,-0.09507,0.99384,0.02163,-1.15414
-0.40892,0.91019,-0.06587,1.11665,0.2939,-1.45622
-0.42635,0.90225,-0.06459,-0.18049,1.25254,-0.73103
-0.42793,0.90113,-0.06964,-0.12612,1.10098,-0.61686
-0.41014,0.90915,-0.07242,0.15031,0.6727,-0.71674
-0.39081,0.91689,-0.08116,0.48719,-0.08849,-0.97325
-0.38461,0.91786,-0.09801,-0.32964,1.17151,-1.15506
-0.39994,0.91003,-0.10903,-0.73696,1.73335,-0.40745
-0.39574,0.912,-0.10795,-0.41208,-0.45056,0.72996
-0.38639,0.91805,-0.08886,-0.34524,-0.93138,-0.1132
-0.38437,0.92053,-0.06993,-0.02179,-0.58908,-0.28789
-0.40398,0.9146,-0.0177,0.10552,-0.40175,0.60222
-0.44226,0.89513,0.05614,-0.14363,-0.20386,0.77011
-0.48309,0.86837,0.11207,-0.1232,-0.09614,0.24961
-0.51596,0.84601,0.1344,0.46444,0.24306,-0.27048
-0.54764,0.82283,0.15178,0.5853,0.30293,-0.21753
-0.57521,0.79842,0.17794,0.4944,0.14484,0.04064
-0.59418,0.77919,0.19953,0.5611,0.18678,0.07177
-0.60481,0.76461,0.22265,0.55798,0.10517,0.14491
-0.61289,0.75074,0.24647,0.49671,0.02024,0.10565
-0.62109,0.73621,0.26877,0.37524,0.00573,-0.06092
-0.62941,0.72023,0.29174,0.37012,0.11661,-0.30145
-0.6375,0.70398,0.31306,0.4278,0.18628,-0.43531
-0.64696,0.68856,0.32761,0.48089,0.23136,-0.52091
-0.65974,0.67253,0.33533,0.44853,0.2466,-0.20266
-0.6741,0.65354,0.3442,0.46289,0.26559,-0.21152
-0.68547,0.6337,0.35855,0.52724,0.31668,-0.1563
-0.69122,0.61629,0.37736,0.76884,0.49789,-0.41717
-0.69493,0.60182,0.39357,0.85084,0.65427,-0.43374
-0.69986,0.59244,0.39901,0.90328,0.85141,-0.29213
-0.70305,0.58883,0.39876,0.78487,0.77612,-0.29944
-0.70038,0.59125,0.39987,0.75253,0.6978,-0.46139
-0.69608,0.59967,0.3948,0.65705,0.60543,-0.60528
-0.69026,0.61513,0.381,0.46078,0.83339,-0.22748
-0.67747,0.6427,0.35772,0.37652,0.86433,-0.037
-0.65888,0.67982,0.32206,0.25901,0.74304,-0.23554
-0.64004,0.72229,0.262,0.1809,0.5603,-0.67893
-0.62431,0.75804,0.1887,-0.00851,0.70396,-0.37516
-0.61107,0.78138,0.12663,-0.38697,0.86246,0.24481
-0.59832,0.79875,0.06331,-0.4358,0.74477,0.17636
-0.58422,0.81136,0.01927,-0.32033,0.39536,0.1714
-0.56783,0.82283,-0.0229,0.58464,0.41796,-0.15322
-0.54521,0.83428,-0.082,0.55545,0.39091,-0.13603
-0.51955,0.8441,-0.13256,0.48581,0.20888,-0.08642
-0.49029,0.85352,-0.17638,0.2863,-0.29769,0.12882
-0.46321,0.86171,-0.20709,0.24307,-0.31235,0.25896
-0.43717,0.86926,-0.23081,0.28367,-0.36587,0.34769
-0.41218,0.8749,-0.25428,0.24339,-0.46293,0.39157
-0.39469,0.87631,-0.27622,0.25388,-0.54178,0.35189
-0.38352,0.87651,-0.29095,0.07383,-0.61804,0.30044
-0.3792,0.87663,-0.29619,0.07064,-0.64167,0.31241
-0.38521,0.87593,-0.29046,0.12366,-0.75984,0.13998
-0.40037,0.87511,-0.27181,0.30493,-0.77013,-0.1371
-0.4214,0.87736,-0.22949,0.50914,-0.67467,-0.35785
-0.44746,0.87928,-0.16324,0.69547,-0.21301,-0.89714
-0.47278,0.87428,-0.11004,1.05663,0.54509,-1.53052
-0.4971,0.86184,-0.10061,0.58906,1.37686,-1.04551
-0.50237,0.85845,-0.10341,-0.04026,1.51361,-0.62865
-0.48237,0.86954,-0.10588,0.34257,0.47895,-0.78389
-0.45664,0.88334,-0.1058,0.8814,-0.34264,-0.84905
-0.44122,0.89033,-0.11237,0.5853,-0.10165,-0.77631
-0.45772,0.883,-0.10394,0.05368,0.63648,-0.89592
-0.47428,0.87404,-0.10545,-1.10332,1.17623,0.60329
-0.45873,0.88259,-0.10299,-0.12539,-0.61661,-0.03982
-0.44728,0.88947,-0.0937,-0.04245,-0.77961,-0.4202
-0.44698,0.89182,-0.0698,0.13739,-0.59586,0.00345
-0.46866,0.88338,0.00228,-0.08427,-0.43942,0.76576
-0.50249,0.86257,0.05903,-0.13682,-0.40457,0.67819
-0.53705,0.83854,0.09181,-0.02431,-0.19067,-0.17894
-0.57087,0.81477,0.10125,0.52999,0.21301,-0.32878
-0.60713,0.78446,0.12653,0.4308,0.12537,-0.16672
-0.63551,0.75528,0.16025,0.34751,0.22148,0.36821
-0.64443,0.74091,0.1891,0.95168,0.36895,0.07611
-0.64671,0.72893,0.22457,0.97005,0.17862,-0.14098
-0.65086,0.71541,0.25409,0.68676,0.12215,-0.12692
-0.65542,0.70192,0.27882,0.3812,0.05366,-0.35186
-0.65993,0.68801,0.30188,0.35089,0.07235,-0.44853
-0.66796,0.67266,0.31837,0.36472,0.12475,-0.44716
-0.67989,0.65529,0.32916,0.36338,0.22884,-0.2668
-0.69344,0.63468,0.34106,0.40894,0.27456,-0.22031
-0.70581,0.61267,0.35561,0.65436,0.52422,-0.25225
-0.71314,0.59401,0.37227,0.73955,0.60605,-0.37769
-0.71776,0.58048,0.38453,0.9582,0.7365,-0.48994
-0.72419,0.57174,0.38556,0.89575,0.79596,-0.12126
-0.72732,0.56968,0.38271,0.87271,0.80706,-0.01393
-0.72412,0.57158,0.38593,0.83755,0.74718,-0.56327
-0.7185,0.58099,0.38237,0.70182,0.77722,-0.4712
-0.70577,0.60378,0.3706,0.59111,0.84921,-0.26795
-0.68516,0.637,0.35326,0.30755,0.90859,-0.142
-0.6635,0.67526,0.32217,0.17894,0.72916,-0.57176
-0.64525,0.71867,0.25915,0.07555,0.64186,-0.70445
-0.63286,0.75037,0.19089,-0.2614,0.86554,0.04277
-0.62129,0.77281,0.12947,-0.39824,0.78365,0.14908
-0.6093,0.78987,0.06975,-0.31241,0.4937,0.05362
-0.59737,0.80149,0.02771,-0.16089,0.19299,0.17291
-0.5807,0.81408,-0.008,0.2502,0.07977,-0.04899
-0.55662,0.82912,-0.05229,0.60516,0.22957,-0.01055
-0.52719,0.84451,-0.09421,0.58685,0.02953,-0.01877
-0.49706,0.85843,-0.12659,0.40556,-0.14641,0.19136
-0.46688,0.87153,-0.14985,0.28617,-0.36386,0.28466
-0.43762,0.88243,-0.17266,0.1317,-0.50993,0.37725
-0.41141,0.89028,-0.19533,0.15179,-0.57422,0.19875
-0.39055,0.89565,-0.21281,0.11735,-0.57029,0.10458
-0.37417,0.90066,-0.22094,0.07972,-0.57317,0.05105
-0.36381,0.90476,-0.22147,0.04618,-0.56416,0.04803
-0.36478,0.90609,-0.21432,0.17852,-0.68386,-0.09217
-0.37513,0.90601,-0.19603,0.30537,-0.66597,-0.16765
-0.39241,0.90586,-0.15951,0.64382,-0.40287,-0.51647
-0.41439,0.9042,-0.10344,0.77099,-0.0722,-1.03324
-0.43688,0.89795,-0.05309,0.82407,0.21133,-1.43756
-0.462,0.88618,-0.03528,0.43171,1.20211,-0.9803
-0.47359,0.87992,-0.03801,0.2585,1.41986,-0.80481
-0.45568,0.88905,-0.0441,0.43142,0.90526,-0.78039
-0.42754,0.90285,-0.04551,0.70701,-0.2811,-0.82475
-0.40928,0.91052,-0.0587,-0.2597,0.9171,-1.02895
-0.42317,0.90409,-0.05957,-0.68253,1.68357,-0.60686
-0.42199,0.9045,-0.06176,-1.06585,0.65652,0.69697
-0.40632,0.91224,-0.05212,-0.24337,-0.84011,-0.28615
-0.39675,0.91695,-0.04233,-0.16279,-0.79772,-0.50714
-0.40049,0.91616,-0.01624,0.1146,-0.59678,-0.05836
-0.42082,0.90441,0.07042,0.13174,-0.22289,0.62449
-0.4546,0.88226,0.12226,0.11485,-0.12915,0.53827
-0.48646,0.85993,0.15451,0.05812,-0.02535,0.13123
-0.51361,0.83927,0.17839,0.59937,0.19387,-0.43632
-0.54408,0.81476,0.20034,0.7072,0.28291,-0.33802
-0.56899,0.7921,0.221,0.52437,0.13665,-0.14368
-0.58405,0.77295,0.24785,0.45914,-0.07257,-0.09981
-0.59732,0.75425,0.27259,0.33692,-0.02293,0.04566
-0.60748,0.7367,0.29706,0.32083,0.01201,-0.0145
-0.61558,0.71794,0.32499,0.35778,0.0239,-0.0742
-0.62287,0.69679,0.35569,0.45084,0.17728,-0.45162
-0.63016,0.6764,0.3813,0.44725,0.22196,-0.56466
-0.64008,0.65768,0.39718,0.41181,0.2461,-0.52523
-0.65441,0.63746,0.40668,0.41753,0.25637,-0.35117
-0.67014,0.61556,0.41473,0.46199,0.30748,-0.13032
-0.68173,0.59418,0.42685,0.51628,0.56373,-0.21226
-0.6851,0.57652,0.44526,0.67051,0.75285,-0.52865
-0.68876,0.56583,0.45326,0.83899,0.79958,-0.17585
-0.69538,0.5612,0.44889,0.81169,0.77429,-0.09175
-0.69366,0.56042,0.45251,0.82405,0.78872,-0.17851
-0.68685,0.5656,0.45644,0.89495,0.78708,-0.88835
-0.68179,0.58297,0.44195,0.70101,0.87103,-0.47808
-0.67077,0.61106,0.42033,0.49075,0.95791,-0.20431
-0.65598,0.64874,0.38579,0.19353,0.67586,-0.41089
-0.64116,0.69232,0.33107,0.03181,0.51721,-0.46944
-0.62219,0.72931,0.28458,-0.11432,0.5384,-0.28034
-0.60815,0.7569,0.2393,-0.29363,0.78738,0.1236
-0.60007,0.77711,0.18978,-0.34434,0.67844,0.00022
-0.59059,0.79374,0.14558,-0.33445,0.63199,-0.04824
-0.5759,0.81012,0.10977,0.04436,0.36316,-0.06631
-0.55406,0.82952,0.07003,0.6409,0.32643,-0.16849
-0.52707,0.84942,0.02597,0.61391,0.30654,-0.12443
-0.49655,0.86793,-0.0113,0.32265,-0.25496,-0.0289
-0.46422,0.88467,-0.04306,0.16627,-0.32971,0.27908
-0.42992,0.90047,-0.06578,0.13196,-0.3455,0.30181
-0.39689,0.9137,-0.08732,0.10629,-0.56546,0.2801
-0.36889,0.92272,-0.11186,0.18414,-0.59145,0.19485
-0.34638,0.92845,-0.13416,0.16399,-0.55252,0.05343
-0.33078,0.93169,-0.15011,0.07774,-0.60377,0.07907
-0.32857,0.93152,-0.15594,0.0351,-0.69072,-0.03381
-0.33936,0.92891,-0.14821,0.14054,-0.7843,-0.16801
-0.3583,0.92572,-0.12109,0.37861,-0.70337,-0.42282
-0.38111,0.92196,-0.06894,0.6169,-0.38648,-0.8269
-0.40421,0.91465,-0.00439,0.67628,-0.17407,-1.11303
-0.431,0.90184,0.03047,0.87122,0.51561,-1.50663
-0.45331,0.89082,0.03092,0.30061,1.65722,-0.87485
-0.44092,0.89728,0.02179,0.22846,1.56733,-0.74849
-0.4065,0.91348,0.01753,0.75852,-0.06494,-0.84837
-0.37344,0.9276,0.01014,0.52843,-0.12555,-0.87537
-0.37404,0.92737,0.00843,-0.05279,0.62077,-0.96723
-0.39319,0.91942,0.00802,-1.14589,1.10809,0.59406
-0.37726,0.9261,0.00475,-0.26886,-0.4631,0.41466
-0.36146,0.93214,0.02172,-0.24688,-0.96249,-0.52005
-0.35468,0.93452,0.02964,-0.11222,-0.62832,-0.25215
-0.36671,0.92761,0.07114,-0.10019,-0.62141,-0.29364
-0.4111,0.89835,0.15479,-0.1796,-0.33779,0.48833
-0.46239,0.86364,0.20079,-0.16213,-0.16569,-0.14996
-0.51203,0.82924,0.22402,0.14336,0.02272,-0.31901
-0.5632,0.78997,0.2424,0.38103,0.26167,-0.23899
-0.6006,0.74937,0.2788,0.34149,0.30895,0.25119
-0.61489,0.72951,0.29954,0.60094,0.34819,0.35059
-0.61445,0.7191,0.32456,0.74647,0.21611,-0.10201
-0.6127,0.70402,0.35911,0.58291,0.03448,-0.25314
-0.61191,0.68815,0.3899,0.45415,0.09594,-0.3442
-0.61196,0.67147,0.41788,0.42422,0.16893,-0.54679
-0.61453,0.6543,0.44073,0.42867,0.18584,-0.60865
-0.62155,0.63873,0.45355,0.39897,0.19829,-0.53892
-0.63336,0.62268,0.45949,0.38128,0.26718,-0.40936
-0.64636,0.60336,0.46709,0.39177,0.33565,-0.30588
-0.65709,0.58229,0.47872,0.46769,0.44802,-0.33013
-0.66384,0.56287,0.49245,0.64559,0.54626,-0.49118
-0.66938,0.54799,0.50163,0.89593,0.70547,-0.50567
-0.67631,0.53904,0.50203,0.86581,0.73645,-0.29783
-0.67868,0.53774,0.50023,0.8399,0.72552,-0.15716
-0.67468,0.54136,0.50174,0.76095,0.76932,-0.74356
-0.67036,0.55604,0.49136,0.53661,0.92318,-0.44511
-0.65891,0.58712,0.47025,0.38348,0.98245,-0.22745
-0.64097,0.62878,0.44022,0.20893,0.82665,-0.36661
-0.6224,0.67602,0.39449,-0.10473,0.74865,-0.43715
-0.6033,0.71782,0.34751,-0.24053,0.77127,-0.26812
-0.59033,0.75052,0.29705,-0.37165,1.01752,-0.07729
-0.58412,0.77465,0.24231,-0.47912,0.77692,-0.23387
-0.57634,0.79376,0.19435,-0.38159,0.54904,-0.15897
-0.56058,0.81317,0.15653,-0.05321,0.27599,-0.26921
-0.53756,0.83508,0.11695,0.58794,0.17612,-0.26987
-0.51132,0.85616,0.0744,0.51083,0.09145,-0.10179
-0.47966,0.87674,0.03543,0.35922,-0.11897,0.00609
-0.44502,0.89551,0.00394,0.1743,-0.42912,0.17417
-0.41004,0.91184,-0.02043,0.11787,-0.51883,0.22834
-0.37615,0.92527,-0.04877,0.09353,-0.6259,0.25711
-0.35031,0.93303,-0.08211,0.26808,-0.63184,0.11251
-0.33238,0.93675,-0.10964,0.25316,-0.60164,0.05763
-0.32019,0.93852,-0.12906,0.17281,-0.59837,-0.01514
-0.31673,0.93872,-0.136,-0.01266,-0.66728,-0.0654
-0.32417,0.93753,-0.12631,-0.02469,-0.74744,-0.11666
-0.34071,0.93501,-0.09831,0.39533,-0.62662,-0.46926
-0.36224,0.9307,-0.05086,0.52732,-0.42925,-0.69482
-0.3825,0.92391,0.00948,0.65132,-0.19888,-0.95296
-0.39891,0.91631,0.03523,0.89802,0.74773,-1.55366
-0.41505,0.90941,0.0266,0.63592,1.10689,-1.47762
-0.40811,0.91275,0.01824,-0.06445,1.43427,-0.97187
-0.38172,0.92417,0.01404,0.22687,0.05523,-0.89833
-0.35688,0.93414,0.00455,0.24374,-0.39445,-1.07255
-0.34333,0.93898,-0.02085,-0.05212,0.12181,-1.1641
-0.34917,0.93646,-0.03347,-0.82391,1.35994,0.05459
-0.35381,0.935,-0.02423,-0.21453,-0.15694,1.00595
-0.35227,0.9359,0.00083,-0.29597,-0.56598,0.55717
-0.35424,0.93505,0.01414,-0.02509,-0.25719,0.11845
-0.38224,0.9208,0.07764,0.01702,-0.27607,0.62254
-0.42292,0.89401,0.14795,-0.01354,-0.23419,0.60605
-0.46669,0.85879,0.21139,-0.07871,-0.18824,0.12728
-0.50892,0.82421,0.24835,0.43212,-0.10552,-0.32656
-0.55381,0.79392,0.25096,0.62292,0.0458,-0.41047
-0.59008,0.76163,0.26781,0.48626,0.22389,-0.21784
-0.60692,0.73931,0.29165,0.6009,0.36524,0.02075
-0.60627,0.72847,0.31902,0.68934,0.30332,-0.0327
-0.60662,0.7135,0.35063,0.61402,0.05094,-0.31138
-0.61261,0.69572,0.37507,0.45604,0.11594,-0.2559
-0.61835,0.67815,0.39718,0.39028,0.15315,-0.27042
-0.62287,0.66,0.42005,0.41745,0.22109,-0.42771
-0.6296,0.64108,0.43888,0.49439,0.27103,-0.51858
-0.63876,0.62329,0.45111,0.50355,0.28882,-0.5308
-0.64871,0.60607,0.46028,0.38851,0.2621,-0.33295
-0.65959,0.58673,0.46978,0.37916,0.29938,-0.32144
-0.66917,0.56506,0.48261,0.38875,0.32104,-0.33426
-0.67474,0.54434,0.49842,0.55001,0.52763,-0.46842
-0.67791,0.52714,0.5124,0.75597,0.66368,-0.51269
-0.68248,0.51506,0.51859,0.92144,0.82459,-0.32913
-0.68514,0.50964,0.52044,0.89619,0.91544,-0.22301
-0.68012,0.51155,0.52512,0.85985,0.85077,-0.57689
-0.67328,0.52375,0.5219,0.80341,0.74465,-0.91289
-0.66383,0.55405,0.50235,0.50574,0.87878,-0.30728
-0.64886,0.5945,0.47493,-0.02782,0.8703,-0.45401
-0.63452,0.64043,0.4327,-0.02771,0.73317,-0.55956
-0.6203,0.68538,0.38142,-0.02827,0.68196,-0.54967
-0.60921,0.71686,0.33907,-0.22261,0.94257,0.04224
-0.6051,0.74298,0.28606,-0.23378,0.88978,0.05265
-0.60117,0.76421,0.23362,-0.30435,0.70691,-0.17512
-0.58912,0.78399,0.1957,0.05096,0.29351,-0.28609
-0.57229,0.80449,0.15898,0.16764,0.25581,-0.24167
-0.55208,0.82599,0.11379,0.39217,0.07498,0.023
-0.53023,0.8448,0.07191,0.29424,-0.06529,0.10891
-0.50251,0.86392,0.03361,0.19872,-0.27491,-0.06694
-0.4706,0.88233,0.00536,0.06814,-0.38649,0.09015
-0.43431,0.90067,-0.01322,0.06512,-0.4356,0.11411
-0.39934,0.91622,-0.03269,0.20703,-0.42269,0.21611
-0.3693,0.92751,-0.05778,0.24502,-0.46876,0.1302
-0.34687,0.93435,-0.0817,0.16726,-0.48728,0.06495
-0.33153,0.93821,-0.09926,-0.06591,-0.6247,-0.02773
-0.32745,0.93904,-0.10481,-0.0172,-0.74902,-0.0488
-0.33586,0.9372,-0.09407,0.15909,-0.8792,-0.20415
-0.35484,0.93271,-0.06436,0.4064,-0.67439,-0.42134
-0.37779,0.92578,-0.01453,0.63107,-0.22699,-1.02099
-0.39734,0.91686,0.03855,0.75955,0.00431,-1.51567
-0.41471,0.90838,0.05344,0.90014,0.4417,-1.91054
-0.42933,0.90132,0.05745,0.35699,1.3202,-0.90476
-0.41691,0.90731,0.05444,0.35029,0.9263,-0.64756
-0.38792,0.92012,0.05382,0.38569,0.46417,-0.79718
-0.35785,0.93289,0.0407,-0.09654,0.3103,-1.29197
-0.34303,0.9392,0.01525,-0.54471,1.09965,-1.57216
-0.35263,0.93576,0.00302,-0.78255,1.82807,-0.94862
-0.3486,0.93727,0.00256,-0.2476,-0.72175,0.50046
-0.33564,0.94178,0.02004,-0.37974,-0.8873,-0.4582
-0.33423,0.94175,0.03731,-0.26291,-0.70959,-0.55183
-0.36389,0.92659,0.09496,-0.09104,-0.38718,0.64206
-0.41302,0.89673,0.15901,-0.26843,-0.18639,0.58243
-0.46526,0.85689,0.222,0.03041,-0.02702,-0.01616
-0.51106,0.81858,0.2622,0.58636,0.26881,-0.40821
-0.55471,0.78696,0.27017,0.55824,0.32753,-0.31422
-0.59003,0.75494,0.28624,0.41082,0.4515,0.14642
-0.60307,0.73613,0.30728,0.66345,0.42943,0.06264
-0.59763,0.73014,0.33125,0.73228,-0.00378,-0.32658
-0.59327,0.72024,0.35956,0.47352,-0.12193,-0.29393
-0.59332,0.70779,0.3834,0.26419,-0.05017,-0.29863
-0.59505,0.69303,0.40696,0.14289,0.01929,-0.38783
-0.5988,0.67534,0.43052,0.26735,0.1331,-0.45687
-0.6067,0.65512,0.45026,0.36502,0.19504,-0.48105
-0.61755,0.63551,0.46342,0.44101,0.22321,-0.49207
-0.63121,0.61566,0.47173,0.46401,0.32477,-0.44323
-0.64654,0.59354,0.47927,0.50244,0.36066,-0.2905
-0.65971,0.56972,0.4901,0.62683,0.45464,-0.29448
-0.66767,0.54704,0.50494,0.70145,0.55474,-0.44986
-0.67252,0.5287,0.51788,0.7917,0.78255,-0.55685
-0.67806,0.5164,0.52303,0.79109,0.90932,-0.32714
-0.68414,0.50985,0.52154,0.78822,0.7903,-0.36946
-0.6857,0.5083,0.521,0.84783,0.7343,-0.7015
-0.68394,0.51416,0.51755,0.83755,0.83653,-0.84133
-0.68105,0.53167,0.5035,0.72076,0.98899,-0.39383
-0.6683,0.56408,0.48496,0.41066,1.02912,-0.26186
-0.65449,0.60716,0.45056,0.042,0.76997,-0.64806
-0.6414,0.6514,0.40531,-0.07812,0.68205,-0.46188
-0.62714,0.69067,0.3601,-0.13969,0.73379,-0.04644
-0.61944,0.72134,0.30978,-0.29023,0.885,-0.14796
-0.61649,0.74506,0.25462,-0.33608,0.77029,-0.19611
-0.61086,0.76349,0.20963,-0.08713,0.43468,-0.13996
-0.59791,0.78225,0.1749,0.34331,0.15438,-0.33573
-0.57658,0.80566,0.13587,0.50779,0.1313,-0.38164
-0.55318,0.82768,0.09453,0.45423,0.11383,-0.16767
-0.52482,0.849,0.06128,0.38361,-0.15995,-0.12532
-0.49192,0.87001,0.033,0.28271,-0.20479,0.00022
-0.4553,0.89022,0.01426,0.18318,-0.34632,0.13978
-0.41714,0.90883,-0.00396,0.18326,-0.50815,0.19929
-0.38374,0.92299,-0.02898,0.20087,-0.54412,0.00223
-0.35857,0.9319,-0.05465,0.0588,-0.56851,-0.11635
-0.33923,0.93795,-0.07196,0.0519,-0.56415,-0.07157
-0.33148,0.94001,-0.08059,0.0148,-0.61581,-0.06519
-0.33658,0.93855,-0.07643,0.23828,-0.74777,-0.21169
-0.35183,0.93448,-0.05443,0.35368,-0.7155,-0.29387
-0.37223,0.92807,-0.01091,0.60951,-0.38828,-0.72982
-0.39196,0.91847,0.05272,0.8032,-0.08169,-1.2757
-0.40987,0.90622,0.10375,0.94586,0.61366,-1.75176
-0.4305,0.89515,0.11565,0.54996,1.31342,-1.10143
-0.43127,0.89566,0.10858,0.39091,1.21249,-0.79808
-0.40332,0.90915,0.10379,0.70276,0.25373,-0.96971
-0.365,0.92586,0.09775,0.82015,-0.18516,-0.9339
-0.34358,0.93453,0.09272,-0.47442,0.99372,-0.7492
-0.36924,0.9234,0.1048,-0.82093,1.61146,-0.1427
-0.38256,0.91902,0.09515,-1.08344,0.38607,0.46864
-0.36053,0.92813,0.09274,-0.16926,-0.7563,-0.61152
-0.34651,0.93366,0.09063,0.11011,-0.68016,-0.35539
-0.35257,0.9268,0.1294,0.0775,-0.76824,0.23285
-0.38632,0.89932,0.20491,-0.18272,-0.38353,0.51874
-0.43857,0.85973,0.26177,-0.21908,-0.12297,-0.28039
-0.49362,0.81933,0.29162,0.36787,0.30773,-0.57008
-0.54626,0.77851,0.30905,0.3768,0.31009,0.07725
-0.58179,0.73535,0.34754,0.57843,0.22348,0.24751
-0.59784,0.71066,0.37089,0.73057,0.16256,0.17376
-0.59759,0.70165,0.38803,0.63531,-0.15057,-0.17306
-0.5968,0.69054,0.40865,0.21086,-0.00293,-0.42667
-0.59677,0.67346,0.43625,0.17719,0.04457,-0.42913
-0.59611,0.65411,0.46561,0.29923,0.20201,-0.57541
-0.60283,0.63202,0.48698,0.42003,0.29081,-0.5038
-0.61523,0.61001,0.49938,0.48679,0.33019,-0.51073
-0.62917,0.58791,0.50843,0.57798,0.42396,-0.46289
-0.64166,0.56545,0.5182,0.62874,0.44224,-0.32524
-0.64931,0.54512,0.53033,0.67575,0.44303,-0.31562
-0.65188,0.5292,0.54314,0.75298,0.50435,-0.45703
-0.65483,0.51754,0.55078,0.68475,0.82081,-0.41291
-0.66131,0.50996,0.5501,0.65779,0.87371,-0.31549
-0.66573,0.50736,0.54717,0.6579,0.76423,-0.36754
-0.6639,0.50949,0.5474,0.68011,0.78293,-0.76499
-0.65974,0.51884,0.54365,0.68656,0.8362,-0.70246
-0.65044,0.5404,0.53376,0.56574,1.00271,-0.41589
-0.63374,0.57647,0.51581,0.41282,0.93876,-0.6628
-0.62174,0.62457,0.4726,0.27505,0.90644,-0.76072
-0.60993,0.67133,0.42107,-0.08683,0.73476,-0.35552
-0.5981,0.71342,0.36511,-0.38099,0.93834,-0.02284
-0.59044,0.74687,0.30589,-0.41001,0.88918,-0.05581
-0.58733,0.7705,0.24773,-0.41879,0.49149,-0.21995
-0.57909,0.78924,0.20433,-0.21857,0.28741,-0.08391
-0.56297,0.80938,0.16725,0.20573,0.12679,-0.2645
-0.5429,0.83093,0.12173,0.44581,0.08642,-0.17287
-0.51775,0.8517,0.08095,0.42194,-0.09896,-0.17782
-0.48817,0.87144,0.04787,0.3051,-0.26412,-0.03011
-0.45273,0.89126,0.02647,0.28183,-0.31815,0.08672
-0.41277,0.9108,0.00848,0.24691,-0.38904,0.14392
-0.37704,0.92609,-0.01442,0.34294,-0.54844,0.15017
-0.35038,0.93573,-0.04056,0.21111,-0.61443,0.04151
-0.32908,0.94232,-0.0612,0.04969,-0.66751,-0.07036
-0.31488,0.94637,-0.07234,-0.02861,-0.72088,-0.10547
-0.31415,0.94666,-0.07173,0.04922,-0.8664,-0.24813
-0.32647,0.94349,-0.05702,0.20359,-0.80695,-0.34353
-0.34677,0.93772,-0.02065,0.35988,-0.66439,-0.49466
-0.36947,0.92844,0.03871,0.89481,-0.09131,-1.24328
-0.38986,0.91718,0.0824,1.25093,0.74228,-1.72141
-0.40893,0.90827,0.08843,0.97257,1.06924,-1.50558
-0.40989,0.90846,0.08176,0.14576,1.19409,-0.74521
-0.38445,0.9202,0.07372,0.50204,0.3046,-0.92508
-0.35128,0.93383,0.06758,0.64916,-0.14474,-0.87689
-0.32742,0.94316,0.05692,-0.18005,0.17729,-0.98818
-0.33395,0.94057,0.06172,-0.993,1.52197,-0.5394
-0.35754,0.93204,0.05885,-1.11198,1.26913,-0.01456
-0.3508,0.93467,0.05777,-0.38304,-0.43696,-0.11548
-0.34694,0.93536,0.06875,0.052,-0.58829,-0.28273
-0.36073,0.92703,0.10243,0.06579,-0.57995,-0.3164
-0.40001,0.89948,0.17589,-0.15584,-0.31973,0.61173
-0.45021,0.86,0.24024,-0.09168,-0.12556,-0.01841
-0.49929,0.82052,0.27831,-0.04259,-0.08608,-0.05648
-0.54205,0.79013,0.28616,0.49783,0.22188,-0.40414
-0.58062,0.75763,0.29813,0.52726,0.1683,-0.04491
-0.61105,0.72517,0.31741,0.57841,0.23415,-0.00677
-0.62707,0.70334,0.3348,0.66757,0.21635,0.01652
-0.63411,0.68724,0.35442,0.38968,0.092,-0.13304
-0.63596,0.67222,0.37905,0.39153,0.10702,-0.15767
-0.63975,0.65313,0.40515,0.28501,0.07966,-0.31038
-0.64478,0.63261,0.42902,0.43679,0.24169,-0.64279
-0.65074,0.61272,0.44845,0.5007,0.28986,-0.68966
-0.6609,0.59472,0.45773,0.52505,0.34333,-0.56395
-0.67553,0.57493,0.46164,0.54783,0.37278,-0.18139
-0.69079,0.55162,0.46746,0.56392,0.42952,-0.1559
-0.69991,0.52812,0.48084,0.61252,0.55048,-0.2817
-0.70113,0.50923,0.4991,0.85694,0.80093,-0.56647
-0.70108,0.49702,0.51133,0.92476,0.87085,-0.53872
-0.70256,0.49142,0.5147,0.91672,0.87413,-0.22822
-0.70226,0.49159,0.51495,0.83322,0.85215,-0.2997
-0.69678,0.49647,0.51771,0.74027,0.75836,-0.73264
-0.6913,0.50971,0.51215,0.572,0.79612,-0.59054
-0.68393,0.53529,0.49569,0.44988,0.87982,-0.31532
-0.6692,0.57305,0.47306,0.17135,0.77443,-0.4208
-0.65507,0.61942,0.43267,0.21148,0.55949,-0.7757
-0.64302,0.67227,0.36684,0.00562,0.76744,-0.55111
-0.63362,0.71044,0.30626,-0.23904,0.8586,0.25478
-0.62878,0.73487,0.25415,-0.39255,0.81711,0.12658
-0.62632,0.75362,0.19944,-0.33709,0.64494,-0.22817
-0.6176,0.77192,0.15068,0.20142,0.54662,-0.09143
-0.59743,0.79499,0.10518,0.70812,0.56423,-0.2209
-0.56734,0.82139,0.05871,0.52775,0.31188,-0.09943
-0.53341,0.84565,0.01873,0.38547,-0.13578,-0.13168
-0.49941,0.86626,-0.01331,0.19889,-0.35429,0.03096
-0.46569,0.88438,-0.03185,0.11095,-0.49943,0.26949
-0.43192,0.9006,-0.04864,0.17536,-0.56137,0.27626
-0.40322,0.91243,-0.06987,0.33527,-0.64546,0.13865
-0.38145,0.91998,-0.09014,0.24464,-0.68771,0.02819
-0.36436,0.92545,-0.10387,0.07409,-0.76058,0.02543
-0.35625,0.92796,-0.10943,0.01514,-0.90013,-0.14843
-0.3606,0.92696,-0.10347,0.1064,-0.89506,-0.23166
-0.37651,0.92294,-0.08019,0.3159,-0.74232,-0.37178
-0.40039,0.91583,-0.03078,0.50328,-0.48228,-0.64791
-0.4281,0.90285,0.03997,1.00271,0.5266,-1.67005
-0.45575,0.88575,0.08801,1.06442,1.10485,-1.73373
-0.48172,0.87185,0.08845,0.54447,2.06747,-1.04798
-0.47096,0.87893,0.07537,0.45115,1.49616,-0.71001
-0.43209,0.89918,0.0691,0.79322,0.16419,-0.87896
-0.38704,0.91996,0.06218,1.14232,-0.78447,-0.84258
-0.35283,0.93303,0.07047,0.08435,-0.31339,-0.19456
-0.35957,0.92683,0.1081,-0.42285,0.33066,0.1634
-0.42428,0.89546,0.13464,-2.41341,1.29887,-0.78217
-0.44666,0.8883,0.10689,-0.56832,0.50639,-0.6379
-0.43182,0.89705,0.09398,0.09681,-0.15706,-0.39522
-0.43145,0.89261,0.13079,0.49631,-0.7368,0.24624
-0.44528,0.87553,0.18756,0.44905,-0.53443,0.38006
-0.47809,0.84548,0.23788,0.2963,-0.30326,0.27691
-0.52018,0.81061,0.26895,-0.00534,-0.03995,-0.00587
-0.55871,0.77736,0.28906,0.33851,0.19278,-0.46931
-0.59009,0.74935,0.30044,0.35968,0.25283,-0.37298
-0.60676,0.72491,0.3261,0.3311,0.31664,0.23297
-0.60288,0.71354,0.35693,0.84511,0.23879,-0.38801
-0.59401,0.69921,0.39781,0.80295,0.14086,-0.52951
-0.59342,0.68455,0.42337,0.40325,0.07353,-0.47938
-0.59696,0.66975,0.44167,0.25427,0.07212,-0.49908
-0.6027,0.65252,0.45931,0.27265,0.08715,-0.49806
-0.61355,0.6332,0.47182,0.32064,0.1495,-0.41295
-0.62579,0.61218,0.48335,0.36372,0.20946,-0.46258
-0.63794,0.58863,0.49654,0.41905,0.38938,-0.54461
-0.64886,0.56563,0.50897,0.68405,0.51792,-0.32871
-0.6554,0.54697,0.52084,0.79721,0.59184,-0.37375
-0.65932,0.53305,0.53024,0.86473,0.69619,-0.45552
-0.66554,0.52506,0.53045,0.77418,0.87587,-0.42109
-0.66912,0.52459,0.52638,0.76823,0.75985,-0.48468
-0.66776,0.53011,0.52256,0.75956,0.74012,-0.54814
-0.66275,0.54602,0.51248,0.58845,0.97406,-0.36271
-0.64788,0.5761,0.49836,0.39777,1.02495,-0.19723
-0.62628,0.6168,0.47679,0.20913,1.00843,-0.73149
-0.61049,0.66462,0.4308,-0.10443,0.83541,-0.71301
-0.59768,0.70876,0.37474,-0.33895,0.74387,-0.14535
-0.58852,0.74404,0.31631,-0.27567,0.73293,-0.09954
-0.58481,0.76994,0.25534,-0.19313,0.5349,-0.23502
-0.58239,0.78779,0.20052,-0.06062,0.23453,-0.1815
-0.57561,0.80204,0.1594,0.20801,0.05342,-0.19718
-0.56468,0.81689,0.11763,0.51986,0.18914,-0.3212
-0.54777,0.83343,0.0731,0.55904,0.26091,0.00185
-0.51969,0.8535,0.03822,0.55922,0.05335,-0.06262
-0.48513,0.87436,0.0123,0.36567,-0.14737,0.01761
-0.44836,0.89385,-0.00143,0.20909,-0.31811,0.12829
-0.41346,0.91042,-0.01371,0.15402,-0.48259,0.19466
-0.38329,0.92313,-0.03039,0.15325,-0.57202,0.16386
-0.35961,0.93185,-0.04831,0.14905,-0.61484,-0.04508
-0.34122,0.93803,-0.0606,0.06805,-0.61304,-0.17051
-0.32828,0.9424,-0.0642,-0.00729,-0.69703,-0.16378
-0.32608,0.9436,-0.05744,0.07803,-0.86605,-0.30435
-0.33411,0.94188,-0.03497,0.21276,-0.81012,-0.37179
-0.35213,0.9359,0.01016,0.44031,-0.53422,-0.60188
-0.37441,0.92439,0.07293,0.82729,0.12489,-1.38795
-0.39767,0.91036,0.11446,0.92256,0.57682,-1.72582
-0.42289,0.8982,0.12002,0.51892,1.34962,-1.30575
-0.42609,0.89696,0.11797,0.43758,1.47456,-0.72491
-0.40018,0.90966,0.11123,0.74903,0.68716,-0.88229
-0.36498,0.9245,0.11,0.79248,-0.17723,-0.92857
-0.34364,0.93312,0.1058,-0.31537,0.8409,-0.95737
-0.35564,0.92795,0.11148,-0.51638,1.56903,-0.77195
-0.36602,0.92536,0.09865,-0.69471,0.96957,0.56705
-0.34197,0.93435,0.10024,-0.30755,-0.78571,-0.13648
-0.31835,0.93982,0.12408,-0.41142,-1.18306,-0.62488
-0.3142,0.93917,0.13872,-0.02681,-0.67592,-0.12172
-0.33995,0.92304,0.1801,-0.18677,-0.43848,0.35535
-0.39589,0.88635,0.24012,-0.24896,-0.27947,0.30807
-0.45442,0.84673,0.27669,0.02041,0.18231,-0.18347
-0.49692,0.81382,0.30127,0.57402,0.53074,-0.36364
-0.52433,0.7904,0.31677,0.6759,0.52306,-0.40016
-0.53625,0.76961,0.34661,0.91754,0.16452,-0.34058
-0.54502,0.75143,0.37189,0.67272,-0.0339,-0.30944
-0.55643,0.73169,0.39373,0.52092,-0.01675,-0.20971
-0.56424,0.71246,0.41718,0.27158,-0.02163,-0.06424
-0.56935,0.69193,0.44393,0.21368,-0.03167,-0.3089
-0.57519,0.6679,0.4723,0.23263,0.02163,-0.48652
-0.58144,0.64525,0.49556,0.37945,0.2055,-0.76724
-0.59115,0.62329,0.51191,0.38763,0.29856,-0.69374
-0.60821,0.59798,0.52201,0.4004,0.3705,-0.53242
-0.62816,0.57181,0.52768,0.46424,0.38671,-0.15006
-0.64123,0.54956,0.53555,0.55894,0.57978,-0.42352
-0.64261,0.52981,0.55349,0.60581,0.70565,-0.64112
-0.64402,0.51724,0.56365,0.88142,0.78944,-0.48447
-0.65081,0.51237,0.56029,0.89137,0.81748,-0.27013
-0.65047,0.51049,0.56239,0.83364,0.87118,-0.59032
-0.6461,0.51525,0.5631,0.74549,0.83358,-0.72964
-0.64,0.53552,0.55102,0.42082,0.99871,-0.3726
-0.62713,0.56886,0.53207,0.18294,0.97102,-0.2922
-0.60973,0.60751,0.50908,0.10557,0.78319,-0.52743
-0.59537,0.6551,0.46517,0.07059,0.59095,-0.81197
-0.58594,0.70126,0.40608,-0.30439,0.85155,-0.5262
-0.58303,0.73364,0.34906,-0.48128,0.82599,-0.21776
-0.58319,0.75764,0.29303,-0.4491,0.63529,-0.1604
-0.58156,0.77626,0.24333,-0.18536,0.31783,-0.03116
-0.56952,0.7965,0.20306,0.19028,0.2441,-0.38382
-0.55031,0.81939,0.16051,0.61585,0.18188,-0.39782
-0.52784,0.84098,0.11894,0.57947,0.10242,-0.14713
-0.49824,0.863,0.08362,0.46507,-0.09545,-0.12059
-0.46296,0.88444,0.05867,0.26965,-0.36214,0.05187
-0.4234,0.90509,0.03936,0.2256,-0.45262,0.14921
-0.38443,0.92298,0.0182,0.22217,-0.59729,0.22833
-0.3507,0.93645,-0.00797,0.16692,-0.66988,-0.01534
-0.32339,0.94578,-0.03019,0.07326,-0.67013,-0.09212
-0.30145,0.95262,-0.04044,0.00181,-0.70444,-0.15727
-0.28953,0.95639,-0.03864,0.01256,-0.81227,-0.26247
-0.29247,0.95598,-0.02392,0.09708,-0.79176,-0.3321
-0.30657,0.95181,0.00843,0.49502,-0.51602,-0.54503
-0.32626,0.94318,0.06295,0.65039,-0.38998,-0.73999
-0.34619,0.92942,0.12777,0.82285,0.03335,-1.30082
-0.36652,0.91611,0.16252,0.58145,1.17003,-1.51613
-0.38635,0.90713,0.16687,0.19766,1.47571,-0.8828
-0.37421,0.91448,0.15394,0.21607,1.19342,-0.81885
-0.3377,0.93066,0.14084,0.70391,-0.30657,-1.00032
-0.29761,0.94536,0.13313,0.86052,-0.88394,-0.544
-0.2702,0.95172,0.14568,0.48767,-0.71539,-0.39585
-0.29303,0.93838,0.18325,-1.6158,1.4641,0.04098
-0.37157,0.90385,0.2121,-2.34752,1.61226,-0.03556
-0.37031,0.90956,0.18859,-0.26574,0.19128,-0.32273
-0.34961,0.91723,0.19094,0.39229,-0.6614,-0.3852
-0.34584,0.90863,0.23408,0.51703,-1.07809,0.0353
-0.37184,0.88188,0.28986,0.46837,-0.83345,0.09975
-0.42442,0.8371,0.34514,-0.19378,0.04867,0.00218
-0.47312,0.79876,0.37168,0.26816,0.19756,-0.47675
-0.51166,0.76439,0.39231,0.42228,0.31651,-0.3644
-0.54338,0.73283,0.40951,0.4098,0.04714,-0.06473
-0.55931,0.70786,0.4314,0.46891,0.03918,-0.05761
-0.56395,0.69033,0.45322,0.48686,0.00525,-0.18205
-0.56363,0.67313,0.47877,0.37823,-0.08024,-0.47262
-0.56498,0.6532,0.50412,0.36849,0.07665,-0.66399
-0.5739,0.63109,0.52188,0.34844,0.17284,-0.68054
-0.59066,0.60696,0.53172,0.28511,0.21041,-0.53688
-0.61086,0.57995,0.53898,0.32723,0.30402,-0.60955
-0.62913,0.55196,0.5473,0.37304,0.4064,-0.58961
-0.64163,0.52835,0.55601,0.63039,0.4989,-0.28549
-0.64454,0.50977,0.56983,0.86887,0.76158,-0.34136
-0.64097,0.49523,0.58643,1.07283,0.97377,-0.48131
-0.64261,0.49019,0.58886,1.0468,1.02571,-0.43377
-0.64224,0.49058,0.58895,0.8726,0.86722,-0.64208
-0.63695,0.4999,0.58685,0.75031,0.73556,-0.74076
-0.62793,0.52465,0.57484,0.48325,0.98881,-0.54004
-0.61108,0.56176,0.55768,0.23202,1.13258,-0.3382
-0.5939,0.60833,0.52652,-0.00609,1.06284,-0.64306
-0.57985,0.65672,0.48217,-0.30942,0.77065,-0.55323
-0.56967,0.7002,0.43034,-0.6761,0.98371,-0.27256
-0.56349,0.73354,0.38,-0.6373,0.86809,-0.27715
-0.56437,0.75809,0.32678,-0.28502,0.38792,-0.40945
-0.56419,0.7779,0.27672,-0.00308,0.22728,-0.29656
-0.55638,0.79806,0.23141,0.17927,0.13729,-0.21106
-0.54359,0.81902,0.1836,0.64384,0.10049,-0.11477
-0.52562,0.8402,0.13337,0.55422,-0.04637,-0.13088
-0.49849,0.86222,0.08992,0.48551,-0.14464,-0.10408
-0.46365,0.88412,0.058,0.29231,-0.27021,0.07666
-0.42499,0.90449,0.03584,0.18579,-0.44581,0.28264
-0.38765,0.92175,0.01,0.1893,-0.49809,0.28741
-0.35785,0.93358,-0.01943,0.29938,-0.61839,0.13058
-0.3354,0.94109,-0.04304,0.13728,-0.73728,-0.04092
-0.31937,0.94606,-0.05446,0.06146,-0.8216,-0.03238
-0.31411,0.94799,-0.05141,0.03715,-0.94084,-0.20547
-0.32113,0.94654,-0.03061,0.26869,-0.86672,-0.53975
-0.33739,0.94123,0.01571,0.39421,-0.77723,-0.63283
-0.36039,0.9285,0.08946,0.70354,-0.08253,-1.3377
-0.38405,0.91094,0.15067,0.87009,0.89795,-1.97834
-0.4111,0.89738,0.16035,0.66629,1.41358,-1.62736
-0.41512,0.89709,0.15137,0.08174,1.45339,-0.77712
-0.38161,0.9132,0.14297,0.60184,0.16221,-0.98125
-0.33715,0.93192,0.13358,0.81112,-0.35894,-1.02351
-0.31288,0.94115,0.12785,-0.07338,0.19388,-0.71721
-0.3425,0.92851,0.14338,-1.34382,1.22954,0.10103
-0.37336,0.91596,0.14702,-1.72455,1.01399,0.45324
-0.36389,0.9194,0.14933,-0.30559,-0.341,-0.46914
-0.35688,0.92128,0.15455,0.05352,-0.60487,-0.47557
-0.36567,0.91005,0.19518,0.16891,-0.70848,-0.0621
-0.3996,0.87861,0.26146,-0.12519,-0.42372,0.39652
-0.45524,0.83412,0.31144,-0.16146,-0.20685,-0.06513
-0.50688,0.79409,0.33541,0.02665,-0.02175,-0.54135
-0.54994,0.75885,0.34888,0.35012,0.24793,-0.30402
-0.58088,0.72032,0.37911,0.22848,0.21048,0.33367
-0.58991,0.69998,0.40255,0.56276,0.35058,0.13906
-0.58275,0.68696,0.43415,0.84446,0.17596,-0.44686
-0.58272,0.66957,0.46055,0.60876,0.14778,-0.49391
-0.59027,0.649,0.47999,0.46424,0.17798,-0.49651
-0.60003,0.62849,0.49493,0.37278,0.21002,-0.52868
-0.61215,0.60879,0.50462,0.35974,0.17148,-0.42961
-0.6268,0.58732,0.51202,0.34722,0.18256,-0.44583
-0.64148,0.56371,0.52033,0.40691,0.3069,-0.48097
-0.65231,0.53941,0.53247,0.62856,0.55079,-0.43135
-0.65793,0.51722,0.54737,0.76636,0.62333,-0.4392
-0.66079,0.50033,0.55948,1.05774,0.8362,-0.49826
-0.66556,0.48911,0.56374,0.84794,0.99304,-0.36707
-0.66837,0.48587,0.56322,0.8158,0.97383,-0.43747
-0.66764,0.48817,0.56209,0.7111,0.78124,-0.79419
-0.66609,0.49976,0.55368,0.56834,0.94763,-0.50148
-0.65905,0.52701,0.53657,0.4577,1.0388,-0.2567
-0.64238,0.56667,0.51597,0.21432,0.92092,-0.59791
-0.62896,0.61585,0.47449,0.21834,0.71641,-1.18137
-0.62186,0.66906,0.407,0.21124,0.6632,-1.11388
-0.62026,0.7035,0.34695,-0.26075,0.94007,0.20109
-0.62067,0.72801,0.29113,-0.5311,0.80386,-0.19511
-0.62066,0.74822,0.23442,-0.52192,0.6455,-0.31531
-0.61366,0.76793,0.1836,-0.05379,0.38266,-0.24652
-0.59798,0.78883,0.14202,0.6423,0.32478,-0.19709
-0.57531,0.81218,0.09688,0.60879,0.29555,-0.06895
-0.54709,0.83531,0.05442,0.53634,-0.00697,-0.12273
-0.5151,0.85683,0.0226,0.31027,-0.3116,0.11946
-0.47921,0.87769,0.00411,0.22997,-0.39875,0.20595
-0.44164,0.8971,-0.01326,0.2972,-0.59062,0.23684
-0.40802,0.91229,-0.03524,0.28712,-0.64423,0.15699
-0.38152,0.92271,-0.05522,0.2262,-0.66638,0.06703
-0.35978,0.93064,-0.06688,-0.01336,-0.77329,-0.1371
-0.34729,0.93531,-0.06774,-0.02324,-0.83732,-0.21054
-0.34867,0.93571,-0.05357,0.05172,-0.86457,-0.31899
-0.36068,0.93245,-0.02106,0.44046,-0.65878,-0.53025
-0.37901,0.92476,0.03431,0.57451,-0.55083,-0.6552
-0.40048,0.9107,0.10124,0.71726,-0.15775,-1.09241
-0.42382,0.89583,0.13368,0.37426,1.45166,-1.2881
-0.4465,0.88502,0.13179,0.1438,1.74129,-1.13259
-0.43432,0.89236,0.12274,0.20813,1.59107,-0.99738
-0.39855,0.90894,0.12241,0.92704,-0.27439,-0.8627
-0.36759,0.92315,0.1126,0.52618,-0.14025,-0.8219
-0.37418,0.92052,0.11235,-0.18148,0.66987,-0.76668
-0.40597,0.90628,0.11768,-1.32004,1.08883,0.47021
-0.40153,0.90858,0.11518,-0.49174,-0.16643,-0.13236
-0.38962,0.91287,0.1219,-0.15387,-0.5659,-0.54488
-0.394,0.90814,0.14158,0.09125,-0.61996,-0.08242
-0.41458,0.88875,0.19557,0.16719,-0.42851,0.41918
-0.45005,0.85553,0.25598,0.16382,-0.16481,0.28432
-0.49054,0.82241,0.28812,0.14603,0.05279,-0.16802
-0.52854,0.79143,0.30707,0.37491,0.14458,-0.4387
-0.56122,0.75998,0.3278,0.58127,0.1293,-0.26334
-0.58754,0.73012,0.34888,0.55971,0.03163,-0.14462
-0.60453,0.70622,0.36851,0.42441,-0.07338,-0.16989
-0.61772,0.68158,0.39226,0.32271,-0.0535,-0.05468
-0.62921,0.65751,0.41447,0.30772,0.03694,-0.18182
-0.63985,0.63452,0.43356,0.50496,0.35253,-0.57571
-0.6491,0.61166,0.45226,0.56098,0.39859,-0.65517
-0.65976,0.59029,0.46506,0.5497,0.36086,-0.60484
-0.67463,0.56848,0.47086,0.47639,0.31984,-0.40291
-0.69146,0.54295,0.47654,0.45891,0.32404,-0.30274
-0.70342,0.51908,0.48554,0.53322,0.49376,-0.20762
-0.7018,0.49966,0.50776,0.946,0.8598,-0.50889
-0.69164,0.48475,0.5354,1.07532,0.94297,-0.6293
-0.69081,0.4788,0.54179,1.13708,0.99454,-0.44833
-0.69026,0.47994,0.54148,0.77238,0.8789,-0.6137
-0.68205,0.48844,0.54426,0.68987,0.78943,-0.78793
-0.67505,0.50858,0.53447,0.36154,0.93916,-0.49699
-0.66815,0.54003,0.5118,0.05264,1.0281,-0.2473
-0.65434,0.57998,0.48524,0.01293,0.8532,-0.43293
-0.6408,0.62927,0.43976,0.17925,0.52306,-0.6217
-0.63007,0.67722,0.37998,-0.16301,0.98424,-0.25148
-0.62543,0.70878,0.3263,-0.3532,1.0616,-0.05237
-0.62434,0.73264,0.27101,-0.5113,0.90822,-0.07753
-0.6224,0.75224,0.21622,-0.18756,0.47263,-0.07358
-0.61091,0.77153,0.17757,-0.10082,0.39835,-0.0142
-0.59191,0.79499,0.13282,0.55734,0.31568,-0.19576
-0.56611,0.81965,0.08773,0.63786,0.0996,-0.14729
-0.53646,0.84261,0.04717,0.52672,-0.06941,-0.11771
-0.50411,0.86341,0.01986,0.32002,-0.28106,0.09409
-0.46889,0.88325,0.00225,0.19304,-0.55966,0.27684
-0.43398,0.90073,-0.01878,0.19225,-0.62729,0.37096
-0.40422,0.91368,-0.04234,0.23931,-0.73868,-0.01911
-0.38116,0.92248,-0.06117,0.14102,-0.70482,-0.09856
-0.36424,0.92874,-0.06914,0.07795,-0.74269,-0.08071
-0.35989,0.9307,-0.06533,0.07655,-0.84902,-0.30103
-0.36895,0.92821,-0.04801,0.16226,-0.81149,-0.37821
-0.3864,0.92226,-0.01157,0.35853,-0.60451,-0.50404
-0.40996,0.9106,0.05229,0.7752,0.12472,-1.24577
-0.43535,0.89222,0.12004,0.99199,0.56484,-1.6239
-0.46342,0.87502,0.13997,1.0571,1.05701,-1.7098
-0.47123,0.87334,0.12338,0.33538,1.92879,-0.94517
-0.44073,0.89044,0.11346,0.45358,1.25548,-0.84024
-0.39665,0.91166,0.10742,0.80676,0.0269,-0.95118
-0.36907,0.92421,0.09809,0.30822,-0.0728,-0.60946
-0.38744,0.91597,0.10431,-1.01682,1.29228,-0.13701
-0.40414,0.90779,0.11218,-1.52561,1.24733,0.22343
-0.39067,0.91284,0.1187,-0.35669,-0.56818,-0.34925
-0.38393,0.91576,0.11826,-0.13319,-0.59805,-0.67137
-0.39539,0.90778,0.14003,0.00699,-0.5483,-0.34259
-0.42851,0.88264,0.19318,0.07567,-0.5226,0.52601
-0.48538,0.84063,0.2403,-0.1607,-0.28145,0.48672
-0.54397,0.79443,0.27013,-0.16643,-0.03622,0.2282
-0.59025,0.75456,0.28678,0.52835,0.42481,-0.33628
-0.62311,0.71674,0.31308,0.51548,0.36956,0.10623
-0.63283,0.69372,0.34391,0.84325,0.53197,0.03804
-0.62874,0.68214,0.37333,1.08763,0.30269,-0.45623
-0.62975,0.66819,0.39616,0.68851,0.12841,-0.39187
-0.63471,0.65332,0.41269,0.38059,0.09138,-0.30206
-0.64175,0.63606,0.42848,0.19402,0.1014,-0.3768
-0.64905,0.61722,0.44471,0.24445,0.15584,-0.45794
-0.65876,0.59663,0.45834,0.25415,0.17643,-0.47157
-0.66957,0.57477,0.47043,0.45752,0.3148,-0.3695
-0.67816,0.5516,0.48562,0.56174,0.4028,-0.28564
-0.6824,0.52915,0.50432,0.56597,0.42526,-0.30434
-0.68455,0.50837,0.52245,0.8155,0.57679,-0.46107
-0.68739,0.49191,0.53434,0.81141,0.91748,-0.63488
-0.69269,0.48418,0.53457,0.81671,0.92522,-0.63511
-0.69621,0.48307,0.53098,0.80886,0.88243,-0.40792
-0.69563,0.48736,0.52781,0.79927,0.91018,-0.83174
-0.69373,0.50456,0.51396,0.68795,0.93915,-0.60351
-0.68496,0.537,0.49241,0.38172,1.02776,-0.15105
-0.67172,0.57656,0.46516,0.19424,0.83139,-0.49504
-0.66037,0.62704,0.4132,0.22098,0.65529,-0.74139
-0.65091,0.67508,0.34725,-0.01954,0.81549,-0.61647
-0.64778,0.7075,0.28253,-0.34757,0.94191,-0.03384
-0.6464,0.73173,0.2162,-0.42898,0.87273,-0.0077
-0.63901,0.75067,0.1678,0.20073,0.29473,-0.12953
-0.62329,0.76976,0.13777,0.54597,0.32938,-0.35583
-0.59939,0.79517,0.09183,0.60075,0.43905,-0.40259
-0.56852,0.82077,0.05591,0.44804,-0.03712,-0.09289
-0.53427,0.84486,0.02756,0.35234,-0.14284,0.05975
-0.49886,0.86665,0.00737,0.28981,-0.25763,0.17508
-0.46245,0.8866,-0.00857,0.21013,-0.52224,0.26458
-0.42863,0.90303,-0.02847,0.22857,-0.62244,0.31164
-0.40105,0.91473,-0.04928,0.21663,-0.7229,0.06426
-0.37846,0.92341,-0.06387,0.13139,-0.71557,-0.05748
-0.36217,0.92961,-0.06821,0.10014,-0.7876,-0.13083
-0.35654,0.93232,-0.06053,0.09355,-0.8084,-0.26477
-0.36237,0.93113,-0.0411,0.23198,-0.68635,-0.40803
-0.37581,0.92667,-0.00671,0.42745,-0.52956,-0.49295
-0.39491,0.91744,0.04841,0.63751,-0.27056,-0.78737
-0.41743,0.90207,0.10965,0.92135,0.32875,-1.38288
-0.44269,0.88593,0.13839,0.91479,1.21528,-1.42289
-0.45342,0.88179,0.12984,0.67706,1.6167,-1.21603
-0.42673,0.89666,0.11791,0.56129,0.98713,-1.02051
-0.38598,0.91602,0.10917,0.7976,-0.27332,-0.88602
-0.36539,0.92603,0.09461,0.55558,-0.23409,-0.7789
-0.38085,0.91924,0.09972,-0.95149,1.33758,-0.15041
-0.37887,0.91952,0.10456,-0.80841,0.04892,0.35499
-0.36951,0.92156,0.11911,-0.44986,-0.48476,0.02473
-0.37066,0.92092,0.12045,-0.23998,-0.5445,-0.53804
-0.39359,0.90568,0.15759,0.02726,-0.43325,0.51994
-0.45441,0.79955,0.39272,0.03171,-0.20351,0.29164
-0.51472,0.7397,0.43348,-0.0082,-0.08206,0.1624
-0.56455,0.69164,0.45045,0.64242,0.50725,-0.60171
-0.60555,0.6514,0.45715,0.65293,0.58476,-0.50059
-0.63223,0.61156,0.47569,0.60934,0.45533,-0.13336
-0.64763,0.58254,0.49116,0.44769,-0.03429,-0.34501
-0.65401,0.55877,0.50996,0.36284,-0.06128,-0.37813
-0.65825,0.53371,0.53091,0.24579,0.04031,-0.29264
-0.66164,0.50809,0.55143,0.41558,0.36437,-0.48479
-0.66492,0.48089,0.57151,0.49115,0.47041,-0.63431
-0.66919,0.4549,0.58759,0.6112,0.53424,-0.74849
-0.67831,0.43119,0.59495,0.57088,0.49656,-0.62217
-0.69246,0.40528,0.59686,0.55091,0.52024,-0.54472
-0.70596,0.37659,0.59983,0.51526,0.58863,-0.4028
-0.71065,0.3513,0.60956,0.62216,0.82144,-0.47025
-0.70342,0.3321,0.62842,0.72226,0.90644,-0.64978
-0.69764,0.32011,0.64096,1.00564,0.94437,-0.81587
-0.70031,0.31419,0.64097,0.98312,1.07322,-0.33027
-0.6987,0.31376,0.64294,0.88457,1.09848,-0.48388
-0.69452,0.31976,0.64451,0.70981,0.98731,-0.93202
-0.69175,0.34136,0.63636,0.60937,1.00684,-0.78381
-0.68495,0.38049,0.62135,0.16473,1.21218,-0.28689
-0.67331,0.42961,0.60174,0.08235,0.87006,-0.69126
-0.66594,0.49016,0.56238,0.10987,0.6871,-0.81181
-0.663,0.55125,0.50651,-0.17767,1.00591,-0.52322
-0.66855,0.58917,0.45379,-0.35616,1.02405,-0.15127
-0.68041,0.61632,0.39647,-0.33642,0.82509,-0.1881
-0.68616,0.63873,0.34815,-0.14027,0.5286,-0.15972
-0.67547,0.66681,0.31482,0.26169,0.43558,-0.37559
-0.65781,0.70147,0.27426,0.67249,0.46068,-0.4541
-0.63596,0.73473,0.23608,0.66994,0.23633,-0.27544
-0.61002,0.76617,0.20212,0.50365,-0.08041,-0.21689
-0.57922,0.79528,0.17896,0.36163,-0.25602,-0.00269
-0.54409,0.82375,0.15936,0.26998,-0.37214,0.08493
-0.5077,0.85021,0.1392,0.28443,-0.4925,0.13013
-0.47458,0.87236,0.11732,0.29588,-0.58269,-0.04335
-0.44435,0.89022,0.10031,0.18319,-0.63601,-0.15296
-0.41992,0.90283,0.0926,0.06593,-0.7931,-0.23372
-0.4088,0.90753,0.09634,0.05481,-0.7978,-0.23745
-0.41006,0.90455,0.11682,0.18496,-0.9115,-0.47266
-0.42079,0.89221,0.164,0.58131,-0.63319,-0.77054
-0.43554,0.86951,0.23293,1.0014,0.16449,-1.65973
-0.4526,0.84588,0.28219,1.01846,0.18811,-1.70899
-0.47136,0.83512,0.28355,0.5356,1.53726,-1.55344
-0.4616,0.84285,0.27663,0.15968,1.53712,-1.00945
-0.4223,0.86335,0.27622,0.7103,0.30716,-1.2116
-0.39062,0.8831,0.25992,0.44554,0.3693,-1.33592
-0.39731,0.88443,0.2448,-0.91436,2.25792,-0.86541
-0.39653,0.88621,0.23956,-0.90376,0.53817,0.32465
-0.3819,0.88773,0.25708,-0.29004,-1.08283,0.18405
-0.36897,0.88687,0.27806,-0.31942,-0.85189,-0.94116
-0.38499,0.877,0.2875,-0.30339,-0.84201,-0.9506
-0.43999,0.82695,0.35009,-0.03638,-0.26012,0.34508
-0.51059,0.75592,0.40973,-0.07683,-0.05986,0.30592
-0.58205,0.68668,0.43552,0.13326,0.1148,-0.17217
-0.64091,0.63876,0.4257,0.76861,0.65135,-0.60485
-0.68067,0.59172,0.43191,0.66743,0.52566,-0.21043
-0.7001,0.55533,0.44885,0.65754,0.49699,-0.15822
-0.70104,0.53276,0.47404,0.77292,0.48637,-0.00828
-0.69312,0.51751,0.50177,0.60794,0.25604,-0.14732
-0.68598,0.50148,0.52721,0.5362,0.20583,-0.24483
-0.68141,0.4816,0.55114,0.42027,0.20154,-0.48479
-0.67651,0.46121,0.57412,0.46123,0.2832,-0.88276
-0.67634,0.44267,0.58873,0.43708,0.40113,-0.78771
-0.68589,0.42304,0.59211,0.38624,0.46882,-0.43058
-0.69906,0.40087,0.59213,0.40165,0.50271,-0.33241
-0.70881,0.37711,0.59613,0.44375,0.65434,-0.45703
-0.71082,0.35308,0.60833,0.64249,0.75778,-0.68566
-0.71061,0.33462,0.61892,0.91048,0.89263,-0.67405
-0.71403,0.32245,0.62145,0.99045,1.07599,-0.35015
-0.71613,0.31808,0.62128,0.91709,1.11997,-0.38709
-0.71425,0.31929,0.62282,0.85507,1.08135,-0.59525
-0.71225,0.32934,0.61987,0.68681,0.95119,-0.97234
-0.71153,0.35379,0.60709,0.41412,1.17746,-0.48627
-0.70836,0.3936,0.58592,0.28909,1.16585,-0.52153
-0.70307,0.44582,0.55403,0.24106,1.04955,-0.53648
-0.69941,0.50184,0.5089,0.03902,0.79656,-0.42124
-0.69609,0.5485,0.46327,-0.10859,0.93634,-0.2595
-0.69827,0.58477,0.41287,-0.17685,1.00428,-0.26084
-0.70516,0.61137,0.35913,-0.30069,0.8263,-0.42211
-0.70643,0.63357,0.31551,0.01182,0.55523,-0.30579
-0.69369,0.6596,0.28935,0.20072,0.52511,-0.17927
-0.67524,0.69416,0.24937,0.86036,0.30756,-0.50792
-0.65598,0.72406,0.21313,0.65265,0.14747,-0.31977
-0.63274,0.75246,0.18289,0.56513,0.01292,-0.3113
-0.60481,0.7808,0.15672,0.33653,-0.16165,-0.10927
-0.57277,0.80766,0.14008,0.27065,-0.29962,0.06276
-0.53959,0.83272,0.12418,0.26015,-0.36002,0.09093
-0.50926,0.85397,0.10676,0.2956,-0.52581,-0.08312
-0.4833,0.87056,0.09248,0.14197,-0.5594,-0.14284
-0.46358,0.88188,0.08591,0.12226,-0.57072,-0.13628
-0.45534,0.88572,0.09035,0.13322,-0.77735,-0.28329
-0.45735,0.88225,0.11165,0.3096,-0.80039,-0.51299
-0.46741,0.87045,0.15443,0.54228,-0.56573,-0.81882
-0.48159,0.84979,0.21432,0.80029,-0.16438,-1.26676
-0.49771,0.82939,0.25376,1.0245,0.92166,-1.9793
-0.51604,0.81621,0.25982,0.82626,1.28316,-1.61334
-0.51047,0.8212,0.25504,0.57206,1.03878,-0.89112
-0.47888,0.8405,0.25346,0.84419,0.09688,-1.00509
-0.43839,0.86212,0.25408,0.93351,-0.35842,-0.97057
-0.40983,0.8741,0.26075,0.59655,-0.35738,-0.81879
-0.42608,0.85766,0.28787,-1.03292,1.41806,-0.09756
-0.48322,0.82533,0.29212,-1.51773,1.43107,0.02995
-0.48762,0.83005,0.27065,-0.36259,0.01724,-0.56994
-0.4774,0.83699,0.26746,0.18972,-0.6297,-0.66147
-0.48131,0.8261,0.29309,0.3741,-0.7069,-0.49384
-0.51428,0.78768,0.33922,0.35672,-0.59191,0.24391
-0.57628,0.72267,0.38163,-0.04846,-0.14475,0.20978
-0.64528,0.65599,0.39152,-0.04944,0.16674,-0.36055
-0.69414,0.6036,0.39221,0.47045,0.47464,-0.48004
-0.72085,0.56415,0.40263,0.51664,0.51905,-0.00194
-0.72405,0.5382,0.43139,0.81337,0.60659,0.0019
-0.71357,0.51774,0.47199,1.08873,0.44259,-0.34369
-0.71169,0.49335,0.5001,0.88738,0.3302,-0.34837
-0.71506,0.47348,0.51431,0.42668,0.25512,-0.44006
-0.71746,0.45307,0.52913,0.34455,0.2891,-0.60905
-0.72241,0.43154,0.54027,0.45176,0.36808,-0.66573
-0.73245,0.40956,0.54386,0.49496,0.48229,-0.52816
-0.74472,0.38526,0.54494,0.52944,0.56713,-0.32712
-0.75236,0.35952,0.55199,0.60081,0.67311,-0.34414
-0.75423,0.33607,0.5641,0.78285,0.79644,-0.5523
-0.75385,0.3194,0.57419,1.03815,0.98283,-0.73111
-0.75589,0.3092,0.57709,1.07319,1.17321,-0.46173
-0.75853,0.30678,0.57491,0.97378,1.21049,-0.29717
-0.7564,0.3108,0.57556,0.84746,1.07353,-0.90936
-0.75348,0.32359,0.57233,0.79407,0.9828,-0.97481
-0.75116,0.35087,0.55915,0.72183,0.94768,-0.82247
-0.74324,0.39394,0.54075,0.35556,1.01045,-0.3536
-0.73372,0.44795,0.51088,0.33086,0.73131,-0.66508
-0.72745,0.51019,0.45883,0.33859,0.63352,-0.74144
-0.723,0.55545,0.41079,0.05899,0.98322,0.02729
-0.72487,0.58894,0.35738,-0.31181,1.06402,-0.25339
-0.72777,0.61635,0.30076,-0.34022,0.96054,-0.30042
-0.72173,0.63829,0.26776,0.38457,0.65589,-0.09544
-0.70339,0.66718,0.24519,0.87557,0.6125,-0.35349
-0.67893,0.70451,0.20668,0.69762,0.49558,-0.29911
-0.64905,0.74008,0.17611,0.46947,-0.12811,-0.22141
-0.61647,0.77355,0.14692,0.28606,-0.25684,0.01524
-0.58043,0.80393,0.12962,0.25002,-0.28722,0.03254
-0.54071,0.83307,0.11668,0.23676,-0.51604,0.16852
-0.50406,0.85769,0.10141,0.34563,-0.65375,-0.11448
-0.47314,0.87654,0.08843,0.31471,-0.67259,-0.10149
-0.44626,0.89135,0.07965,0.13011,-0.63285,-0.20749
-0.43074,0.89929,0.07578,-0.02346,-0.73491,-0.35907
-0.42932,0.89927,0.08367,0.04173,-0.73006,-0.47749
-0.43726,0.89244,0.11117,0.30846,-0.5989,-0.67677
-0.44968,0.87823,0.16278,0.6868,-0.23247,-0.97122
-0.46182,0.85805,0.22465,0.78507,-0.01104,-1.22435
-0.47623,0.83967,0.26107,0.88589,0.57943,-1.56887
-0.49061,0.82873,0.26928,0.43028,1.24876,-1.05229
-0.48086,0.83675,0.26195,0.38537,1.26214,-1.04977
-0.44946,0.85409,0.26173,0.99718,0.09081,-1.24046
-0.4181,0.86907,0.26442,1.00155,-0.21327,-1.02453
-0.41233,0.87139,0.26582,0.33016,0.30738,-0.92888
-0.44533,0.85093,0.27856,-1.41165,1.34037,0.02855
-0.45804,0.84597,0.273,-1.43774,0.7636,0.12586
-0.4524,0.84912,0.27264,-0.40031,-0.49814,-0.53535
-0.46189,0.84191,0.27899,0.02177,-0.56997,-0.52869
-0.49455,0.8112,0.31205,0.20246,-0.5661,0.24859
-0.55105,0.75263,0.36039,0.20671,-0.36282,0.29854
-0.62482,0.68286,0.37856,-0.00648,0.02686,0.09121
-0.68604,0.6252,0.37213,0.2316,0.23877,-0.30925
-0.72842,0.57693,0.36953,0.58401,0.55069,-0.19341
-0.74545,0.5374,0.39435,0.72671,0.47479,0.22891
-0.74687,0.51705,0.41814,0.97693,0.45538,-0.03857
-0.74429,0.49655,0.44662,0.92727,0.33314,-0.33665
-0.74309,0.47517,0.47121,0.67517,0.36402,-0.2954
-0.74253,0.45573,0.49087,0.57798,0.36394,-0.47481
-0.74332,0.43567,0.50761,0.57059,0.40479,-0.6159
-0.74694,0.41748,0.51749,0.52926,0.42811,-0.66066
-0.75409,0.39781,0.52259,0.47624,0.51329,-0.47838
-0.76116,0.3744,0.52959,0.53702,0.52465,-0.34372
-0.76321,0.35056,0.54279,0.68551,0.68155,-0.37853
-0.7589,0.32992,0.56145,0.96059,0.87051,-0.60244
-0.75761,0.31251,0.57303,1.20205,1.05028,-0.60428
-0.75766,0.3042,0.57742,1.0691,1.1505,-0.38639
-0.75418,0.30526,0.5814,0.8046,1.03774,-0.66389
-0.7501,0.31111,0.58358,0.73092,0.96398,-0.79427
-0.74532,0.32671,0.58117,0.65119,0.90372,-0.73406
-0.73786,0.35698,0.57283,0.37404,1.11781,-0.25343
-0.72559,0.40384,0.55717,0.26479,0.98317,-0.39494
-0.71572,0.46065,0.52492,0.19598,0.69943,-0.67641
-0.71206,0.52086,0.47083,-0.04566,1.20725,-0.29642
-0.71611,0.56104,0.41524,-0.10777,1.24849,0.01058
-0.72294,0.59511,0.35101,-0.4587,1.15143,-0.27743
-0.72738,0.62219,0.2895,-0.2151,0.66218,-0.193
-0.71955,0.64505,0.25721,-0.1157,0.5023,-0.06753
-0.69924,0.68035,0.21954,0.46448,0.35984,-0.29819
-0.67536,0.71634,0.17535,0.66867,0.15458,-0.18882
-0.64673,0.75038,0.13663,0.62447,-0.06383,-0.23838
-0.61563,0.78034,0.10989,0.54487,-0.35041,-0.04661
-0.58356,0.80688,0.09162,0.45804,-0.45717,0.16414
-0.55041,0.83174,0.07254,0.50674,-0.50247,0.21313
-0.52192,0.85114,0.05616,0.48246,-0.53974,0.01945
-0.49639,0.86678,0.04787,0.24165,-0.58401,-0.03322
-0.47472,0.87912,0.04233,0.12285,-0.62271,-0.11493
-0.46258,0.88538,0.04616,0.16291,-0.89558,-0.42674
-0.46286,0.88391,0.06678,0.28149,-0.85991,-0.50175
-0.47448,0.87313,0.11185,0.43064,-0.76036,-0.6123
-0.49258,0.85206,0.17709,1.09857,0.34777,-1.81052
-0.51218,0.82813,0.22775,1.17938,0.91978,-2.15663
-0.53646,0.81039,0.23553,0.91686,1.41382,-1.92521
-0.53879,0.80959,0.23296,0.22029,1.61178,-0.91168
-0.50612,0.83085,0.23137,0.60997,0.41097,-1.07755
-0.46511,0.85443,0.23155,0.76374,-0.16462,-1.13452
-0.44588,0.86726,0.22146,-0.00662,0.67235,-1.21153
-0.46422,0.8565,0.22562,-0.71855,1.11623,0.01143
-0.47536,0.84878,0.23151,-0.94419,0.53541,0.42043
-0.47704,0.8456,0.23958,-0.34427,-0.54505,-0.54396
-0.48403,0.84256,0.23624,-0.02586,-0.36528,-0.67452
-0.51128,0.82033,0.25622,0.18572,-0.33132,0.13276
-0.55556,0.76472,0.32643,0.11664,-0.23422,0.53238
-0.61038,0.70795,0.35531,0.12898,-0.06951,0.26389
-0.65818,0.65903,0.36398,0.43279,0.20952,-0.37486
-0.69713,0.61896,0.36181,0.713,0.50432,-0.50009
-0.72588,0.57802,0.37281,0.70084,0.49519,-0.24844
-0.74217,0.54708,0.38714,0.6964,0.47326,-0.15779
-0.74596,0.52597,0.40853,0.75257,0.27623,-0.23658
-0.74521,0.50665,0.43355,0.56696,0.17581,-0.32872
-0.74391,0.48633,0.45834,0.52213,0.16218,-0.38119
-0.74436,0.46382,0.48042,0.58742,0.3726,-0.57292
-0.74958,0.43672,0.4974,0.68178,0.49527,-0.63954
-0.76021,0.40831,0.50534,0.66424,0.50381,-0.58124
-0.77281,0.37952,0.50865,0.57077,0.53654,-0.45836
-0.78461,0.34982,0.51188,0.58604,0.65944,-0.3304
-0.79018,0.32327,0.52069,0.65837,0.74764,-0.32467
-0.78594,0.30188,0.5396,1.01905,0.93773,-0.57712
-0.78075,0.2864,0.55534,1.1653,1.12241,-0.55551
-0.78296,0.2791,0.55595,1.16751,1.12972,-0.55611
-0.78438,0.28068,0.55314,0.93686,1.21237,-0.53203
-0.78237,0.29297,0.5496,0.81205,0.99565,-0.83778
-0.78089,0.32167,0.53549,0.81056,0.96695,-0.82366
-0.77334,0.36661,0.51724,0.3295,1.20385,-0.22844
-0.76156,0.4224,0.49154,0.32427,0.77652,-0.62986
-0.75269,0.48598,0.44416,0.27252,0.75723,-0.72848
-0.74838,0.5335,0.3941,-0.06058,1.18823,-0.28384
-0.75069,0.56692,0.33921,-0.2964,1.13521,-0.24104
-0.75471,0.59432,0.27784,-0.33481,1.00452,-0.26047
-0.74707,0.62049,0.23848,-0.06569,0.67104,-0.08784
-0.7301,0.65072,0.20861,0.68173,0.51549,-0.37513
-0.70738,0.68339,0.18053,0.70051,0.41306,-0.27041
-0.67828,0.7184,0.1544,0.57885,-0.07068,-0.15055
-0.64695,0.75106,0.13178,0.43917,-0.14887,0.0339
-0.60952,0.78321,0.12277,0.3081,-0.27193,0.11256
-0.56843,0.81414,0.11857,0.30071,-0.49614,0.24176
-0.52916,0.84131,0.11041,0.29405,-0.5808,0.14638
-0.49544,0.86248,0.10328,0.34941,-0.67947,-0.05132
-0.46885,0.87744,0.10143,0.15234,-0.85769,-0.28118
-0.45459,0.88415,0.10783,0.14628,-0.89787,-0.38383
-0.45362,0.88223,0.1261,0.23621,-0.79901,-0.5739
-0.4606,0.87355,0.15735,0.40988,-0.58241,-0.70489
-0.47342,0.85541,0.21011,0.50108,-0.3487,-0.77705
-0.49215,0.82464,0.27884,0.68019,0.15256,-1.23233
-0.51609,0.79317,0.32331,0.84384,1.13142,-1.70159
-0.53091,0.78604,0.31667,0.70471,1.79297,-1.70813
-0.50734,0.80403,0.31006,0.6689,2.13652,-1.37548
-0.46457,0.82915,0.31094,1.13247,-0.26917,-1.01862
-0.43165,0.85091,0.29938,0.52067,0.01872,-0.80554
-0.44484,0.83775,0.31668,-0.32855,0.75018,-0.8386
-0.48246,0.81708,0.31561,-1.24302,1.15225,0.36771
-0.47548,0.82443,0.30697,-0.45468,-0.16717,-0.28368
-0.4603,0.83178,0.31028,-0.093,-0.53803,-0.70818
-0.47005,0.82021,0.32606,-0.03514,-0.51781,-0.29537
-0.4984,0.78615,0.36546,0.20229,-0.21268,0.17996
-0.54107,0.73841,0.40248,0.24496,-0.16494,0.14295
-0.58001,0.70023,0.41626,0.25931,0.24297,-0.14788
-0.61187,0.66033,0.43541,0.60203,0.37553,-0.40786
-0.63137,0.62508,0.45896,0.62153,0.41078,-0.4314
-0.64655,0.59555,0.47675,0.66628,0.05562,-0.61709
-0.66255,0.56531,0.49138,0.55524,0.13162,-0.44976
-0.67852,0.53324,0.50524,0.37263,0.17556,-0.2141
-0.69434,0.50269,0.51497,0.36406,0.2188,-0.25916
-0.70781,0.47399,0.52377,0.42571,0.36377,-0.43704
-0.71844,0.4462,0.53362,0.56946,0.47629,-0.60477
-0.72919,0.41949,0.54065,0.61635,0.47403,-0.57709
-0.74217,0.39238,0.54335,0.63586,0.55386,-0.58052
-0.75331,0.36501,0.54708,0.63526,0.53958,-0.37327
-0.75654,0.34354,0.55644,0.72224,0.67245,-0.22052
-0.74848,0.32503,0.57805,1.01445,1.02307,-0.71771
-0.74318,0.31213,0.59183,1.11163,1.08893,-0.78338
-0.74814,0.30909,0.58716,0.98753,1.18245,-0.32054
-0.74703,0.31252,0.58675,0.9192,1.10981,-0.77168
-0.74429,0.32356,0.58424,0.89137,1.03395,-0.93454
-0.74054,0.35116,0.57297,0.64157,1.09595,-0.64253
-0.73113,0.39337,0.55741,0.35802,1.08382,-0.57241
-0.72538,0.44408,0.52594,0.27108,0.98841,-0.55098
-0.71857,0.49426,0.48925,-0.16573,0.93062,-0.34583
-0.71175,0.5393,0.45007,-0.17341,1.01519,-0.25775
-0.71134,0.57299,0.40703,-0.1137,0.98194,-0.31346
-0.71398,0.59911,0.36235,-0.07629,0.75678,-0.37239
-0.70983,0.62418,0.32641,0.02069,0.58842,-0.28088
-0.69833,0.65139,0.2967,0.33613,0.47483,-0.36213
-0.6833,0.68117,0.26288,0.68998,0.31048,-0.30884
-0.66296,0.71264,0.22942,0.58177,0.11053,-0.12747
-0.63627,0.7447,0.20144,0.48673,-0.14413,-0.23445
-0.60575,0.77437,0.1828,0.33636,-0.25253,0.01599
-0.57048,0.80336,0.1708,0.30503,-0.35895,0.07331
-0.53325,0.83126,0.157,0.28201,-0.46469,0.05328
-0.49937,0.85448,0.14313,0.30804,-0.52688,-0.13924
-0.47089,0.87196,0.13397,0.27057,-0.5336,-0.21014
-0.44882,0.88368,0.13293,0.14091,-0.5473,-0.33557
-0.43783,0.88765,0.14278,0.16763,-0.68216,-0.46364
-0.43974,0.88271,0.16568,0.30533,-0.68526,-0.67784
-0.44992,0.86808,0.20975,0.47725,-0.48698,-0.82548
-0.4645,0.8422,0.27374,0.65226,-0.0992,-1.18805
-0.48057,0.8127,0.32949,0.92419,0.58778,-1.82627
-0.50146,0.79451,0.34249,0.79548,1.64821,-1.63148
-0.4991,0.80013,0.33269,0.50655,1.74575,-1.11308
-0.4648,0.82211,0.32877,0.79806,0.36795,-1.11283
-0.42284,0.84609,0.32456,0.92109,-0.11243,-1.03666
-0.40316,0.85329,0.33069,0.03125,0.48808,-0.88921
-0.4282,0.82911,0.35949,-0.83555,1.81762,-0.23525
-0.4411,0.82326,0.35731,-1.09285,1.41159,0.47041
-0.42504,0.83205,0.35642,-0.2495,-0.46694,-0.76663
-0.41416,0.8383,0.35457,-0.04977,-0.73352,-1.01459
-0.42904,0.81993,0.379,0.00158,-0.72547,-0.59189
-0.47365,0.76897,0.42935,-0.03306,-0.59418,0.16718
-0.54517,0.70328,0.45628,-0.14328,-0.16931,0.01175
-0.61401,0.64381,0.45662,-0.12063,0.03956,-0.37319
-0.66166,0.59081,0.46168,0.29569,0.47945,-0.35845
-0.68519,0.54487,0.48335,0.44247,0.58039,0.35021
-0.68355,0.52115,0.51104,0.44083,0.60411,0.32252
-0.66767,0.50024,0.55134,1.05776,0.38283,-0.58546
-0.65952,0.47751,0.58054,0.71198,0.40216,-0.62218
-0.65602,0.45733,0.60041,0.70848,0.42234,-0.64205
-0.65754,0.43704,0.61371,0.48452,0.38302,-0.68293
-0.66344,0.41812,0.6205,0.37676,0.37772,-0.56038
-0.67207,0.3979,0.6245,0.30077,0.46291,-0.60936
-0.68144,0.37448,0.62882,0.37989,0.54733,-0.55326
-0.68595,0.35089,0.63746,0.61486,0.76517,-0.45391
-0.68464,0.32959,0.6501,0.71194,0.82907,-0.52413
-0.68079,0.31274,0.66235,1.06767,0.88458,-0.68254
-0.682,0.30264,0.66579,0.91353,1.01983,-0.48278
-0.68321,0.30134,0.66515,0.81123,1.00671,-0.42383
-0.68216,0.30469,0.6647,0.66397,0.93828,-0.68104
-0.68277,0.31546,0.65902,0.53345,0.9041,-0.89384
-0.68427,0.33882,0.64574,0.46558,0.94776,-0.66686
-0.68432,0.37378,0.62609,0.20527,1.16035,-0.41362
-0.68527,0.42319,0.59271,0.36109,0.89097,-0.72534
