gravity.x,gravity.y,gravity.z,userAcceleration.x,userAcceleration.y,userAcceleration.z
-0.00837,0.94707,-0.32092,-0.19538,-0.4133,0.11741
-0.00572,0.9357,-0.35276,-0.07361,-0.33812,0.15169
-0.00139,0.92684,-0.37546,-0.07811,-0.34856,0.27467
0.00175,0.92053,-0.39067,-0.03903,-0.32606,0.29912
0.00384,0.91584,-0.40151,-0.06732,-0.3667,0.28754
0.00271,0.91261,-0.40882,-0.24242,-0.43356,0.34586
-0.00067,0.91186,-0.4105,-0.23697,-0.46244,0.36625
-0.00454,0.91438,-0.40482,-0.15834,-0.50192,0.29535
-0.00761,0.92005,-0.39172,-0.02396,-0.39076,0.12849
-0.00711,0.92882,-0.37045,-0.00159,-0.32725,0.06407
-3e-05,0.93979,-0.34175,0.01491,-0.18355,-0.17846
0.01771,0.94977,-0.31243,-0.1752,0.16767,-0.87277
0.04626,0.95779,-0.28372,-0.20061,0.37993,-1.14985
0.06801,0.9632,-0.26002,-0.10779,0.86684,-1.21976
0.07294,0.96368,-0.2569,-0.12929,0.66181,-0.43623
0.07463,0.96106,-0.26607,-0.32797,-0.05084,-0.08765
0.08005,0.95452,-0.28721,-0.51151,-0.63707,-0.05979
0.0874,0.95229,-0.29239,-0.6476,-0.79517,-0.05273
0.09168,0.95742,-0.27373,-0.6479,0.08211,0.36677
0.07465,0.9702,-0.2305,-0.16907,0.96321,0.86046
0.0516,0.98,-0.1922,-0.03306,1.31535,0.5671
0.06014,0.97989,-0.19023,0.04055,0.18113,0.83568
0.07928,0.9818,-0.17258,-0.12572,-0.52619,0.52316
0.10121,0.9849,-0.14048,-0.12375,-0.25952,0.24865
0.10586,0.98976,-0.09571,-0.0671,-0.07102,0.30126
0.09996,0.99386,-0.04747,-0.17961,0.1006,0.1779
0.08891,0.996,-0.00827,-0.31594,-0.01039,0.03238
0.06654,0.99747,0.02481,-0.42202,-0.08127,-0.06464
0.04581,0.99743,0.05512,-0.82802,0.01828,0.02483
0.05474,0.99449,0.08935,-0.10988,-0.13999,0.03622
0.06193,0.98982,0.12812,0.04161,-0.16652,0.14271
0.06525,0.98464,0.16191,0.41537,0.12105,0.32788
0.06275,0.98065,0.18542,0.24954,0.20909,-0.16775
0.05393,0.97738,0.2045,0.05727,0.17726,-0.4453
0.04632,0.97201,0.23031,-0.37293,0.05449,-0.18076
0.03875,0.96564,0.25699,-0.16381,-0.05482,-0.06145
0.02714,0.96022,0.27792,-0.02827,-0.04654,-0.12483
0.01312,0.95535,0.29518,0.24663,0.01956,-0.25984
-0.00043,0.95027,0.31142,0.15445,-0.08748,-0.2134
-0.01517,0.94557,0.32505,0.1692,-0.08278,-0.22703
-0.03363,0.94035,0.33853,-0.01893,0.1164,-0.32848
-0.05713,0.9336,0.35372,-0.06936,0.22355,-0.31603
-0.08263,0.92585,0.36874,-0.07542,0.22581,-0.31042
-0.10486,0.91868,0.38083,-0.05206,0.18261,-0.29096
-0.12455,0.91335,0.38764,0.09484,0.23319,-0.33889
-0.14395,0.91007,0.38865,-0.00534,0.22256,-0.59348
-0.16288,0.90877,0.38418,-0.21862,0.26524,-0.58015
-0.18235,0.91035,0.37149,-0.15604,0.59093,-0.38996
-0.19926,0.91723,0.34492,-0.04697,0.7678,-0.32495
-0.20732,0.9312,0.2998,-0.07736,0.53592,-0.3094
-0.20611,0.94896,0.2387,-0.53194,0.45954,-0.41564
-0.20082,0.96461,0.17087,-0.71521,0.47858,-0.23947
-0.19475,0.97561,0.10127,-1.00116,0.72672,0.01749
-0.18195,0.98275,0.03304,-0.55264,0.5367,0.30545
-0.17,0.98454,-0.04209,-0.36728,0.46375,0.41461
-0.15894,0.97856,-0.13095,-0.30234,0.42729,0.0553
-0.14328,0.96355,-0.22592,0.10987,0.36679,0.21955
-0.12833,0.93604,-0.32765,0.19724,0.35141,0.32161
-0.1222,0.89385,-0.43139,0.22078,0.34439,0.15472
-0.13299,0.83924,-0.52724,-0.0417,0.29256,0.32339
-0.14672,0.77699,-0.61218,-0.36954,0.09041,0.33721
-0.15256,0.70718,-0.69038,-0.23919,-0.24076,0.49157
-0.16484,0.63125,-0.75786,-0.0163,-0.28357,0.53815
-0.1798,0.55789,-0.8102,0.15696,-0.42778,0.58619
-0.19312,0.49061,-0.84971,0.53036,-0.38285,0.60277
-0.20531,0.43155,-0.87841,0.28885,-0.55743,0.52942
-0.21792,0.38359,-0.89743,0.33512,-0.46009,0.55496
-0.2301,0.34476,-0.91005,0.22224,-0.42948,0.47515
-0.24196,0.31526,-0.91764,0.04269,-0.5668,0.29829
-0.24953,0.29686,-0.92174,0.04778,-0.55352,0.23806
-0.24886,0.29111,-0.92375,0.19558,-0.34617,-0.07883
-0.24833,0.29451,-0.92282,0.31439,-0.28025,-0.17087
-0.25533,0.3057,-0.91725,0.34667,-0.24621,-0.21864
-0.26616,0.32669,-0.90688,0.21452,-0.21681,-0.6757
-0.2723,0.35351,-0.89492,-0.19984,0.17919,-1.20893
-0.27359,0.37607,-0.88528,-0.4528,0.52189,-0.93105
-0.28511,0.39968,-0.87118,-0.07271,-0.4383,0.50963
-0.28429,0.43831,-0.85268,-0.50432,-0.58234,0.30144
-0.29138,0.47821,-0.8285,-0.06748,-0.36319,0.27644
-0.27249,0.52541,-0.80603,-0.50576,0.35938,0.40329
-0.24772,0.57435,-0.78023,-0.73313,0.23784,0.2998
-0.2282,0.61918,-0.75136,-0.28364,0.25973,0.24466
-0.21002,0.66196,-0.71951,-0.16823,0.07438,0.29499
-0.18805,0.70432,-0.68452,-0.20036,0.01341,0.3439
-0.16437,0.74661,-0.64464,-0.12584,-0.03267,0.35432
-0.13726,0.78802,-0.60015,-0.03787,0.0264,0.23002
-0.1072,0.82833,-0.54988,0.12797,0.26191,0.1926
-0.07816,0.86588,-0.49411,0.12836,0.25246,0.12249
-0.05772,0.89609,-0.4401,0.18401,0.12495,0.04615
-0.05575,0.91827,-0.39199,0.24145,-0.0439,0.03437
-0.06704,0.93554,-0.3468,0.12751,-0.0825,0.00705
-0.08534,0.94974,-0.30118,-0.03287,-0.14139,0.0641
-0.10825,0.96001,-0.2582,-0.14274,-0.03081,0.05112
-0.12992,0.96684,-0.21985,-0.03492,0.0472,-0.03617
-0.14791,0.97191,-0.18305,0.08083,0.10754,-0.06634
-0.15937,0.97611,-0.14767,0.1456,-0.07225,-0.22718
-0.16906,0.97849,-0.11824,0.17072,-0.12987,-0.30348
-0.17808,0.97964,-0.09266,0.21901,-0.09358,-0.34974
-0.18682,0.98007,-0.06747,0.40541,-0.03107,-0.20961
-0.19708,0.97921,-0.04803,0.35645,-0.06121,-0.18534
-0.20602,0.97791,-0.03526,0.16021,-0.22156,-0.17142
-0.21168,0.97695,-0.02733,0.20281,-0.42831,-0.23874
-0.21353,0.97682,-0.01471,0.40836,-0.38663,-0.00887
-0.21242,0.97718,0.00163,0.52676,-0.34282,0.07506
-0.21319,0.97679,0.0205,-0.07952,0.22533,-0.04696
-0.21826,0.97479,0.04636,-0.42502,0.58555,0.18436
-0.23194,0.96985,0.0748,-0.59532,0.74419,0.04755
-0.24901,0.96265,0.10621,-0.59603,0.73624,0.1225
-0.26258,0.95408,0.14411,-0.05991,1.16803,0.11306
-0.27119,0.94454,0.18518,0.24027,0.95283,-0.04721
-0.27177,0.93559,0.2254,0.21762,0.63471,-0.1808
-0.26921,0.92749,0.25939,0.06996,0.46779,-0.26958
-0.26878,0.92166,0.27982,-0.13091,0.51781,-0.7007
-0.26661,0.92143,0.28264,-0.02574,0.49825,-0.83289
-0.25506,0.93007,0.26438,0.31626,0.46511,-0.58067
-0.23997,0.94338,0.22901,0.07301,0.31549,-0.38115
-0.22774,0.95738,0.17762,-0.04689,0.24124,-0.09031
-0.2174,0.96957,0.11251,-0.12245,0.21942,0.00486
-0.21142,0.97677,0.03475,-0.20046,0.56108,-0.06597
-0.20328,0.97811,-0.04451,-0.09003,0.41159,0.19789
-0.18665,0.97489,-0.12147,0.14179,0.37109,0.45679
-0.16197,0.9648,-0.20719,0.54753,0.2934,0.33364
-0.13791,0.94493,-0.29679,0.03712,0.01184,0.0949
-0.12043,0.9161,-0.38243,-0.16425,0.0297,0.05793
-0.10664,0.88035,-0.46217,-0.21193,0.02112,0.04825
-0.09896,0.83974,-0.53389,-0.09205,-0.02872,0.21748
-0.09625,0.79408,-0.60014,-0.05423,-0.02368,0.30457
-0.1017,0.74107,-0.66368,0.04911,0.00138,0.45302
-0.11434,0.68092,-0.72338,0.05895,-0.03567,0.47808
-0.13335,0.61814,-0.77467,0.03627,-0.06924,0.54991
-0.1568,0.55393,-0.81766,0.04311,-0.34809,0.69204
-0.18224,0.49275,-0.85087,0.06085,-0.43747,0.71804
-0.20431,0.43986,-0.87452,0.13733,-0.55047,0.74425
-0.22138,0.39676,-0.89082,0.19895,-0.46494,0.65736
-0.23509,0.36314,-0.90159,0.06112,-0.46253,0.6285
-0.2483,0.3393,-0.90732,0.17272,-0.39938,0.53077
-0.25873,0.32605,-0.90926,0.20192,-0.42978,0.34358
-0.26704,0.32228,-0.9082,0.38468,-0.29125,0.25061
-0.27116,0.32604,-0.90563,0.19125,-0.4986,-0.03095
-0.27442,0.33628,-0.90089,0.51749,-0.23207,-0.06986
-0.27755,0.35407,-0.89308,0.44903,-0.18951,-0.82146
-0.27919,0.37828,-0.88259,0.31542,0.06425,-1.19081
-0.28328,0.40511,-0.86928,0.25639,1.03847,-0.92269
-0.29682,0.43379,-0.85072,-0.63307,-0.09402,0.48712
-0.29368,0.47081,-0.83192,-0.63072,-0.32643,0.38273
-0.29009,0.51414,-0.80716,-0.05279,-0.12986,-0.2046
-0.27435,0.56489,-0.77822,-0.15343,0.34882,0.10314
-0.24314,0.6174,-0.74813,-0.30485,0.38509,0.16457
-0.21916,0.66534,-0.71364,-0.10599,0.1257,0.31551
-0.1939,0.71123,-0.67568,-0.13631,-0.0026,0.30007
-0.16377,0.75684,-0.63274,-0.22846,-0.12296,0.32291
-0.13134,0.80115,-0.58388,-0.17794,-0.10855,0.25293
-0.1012,0.84172,-0.53035,-0.13333,-0.06024,0.16566
-0.08116,0.87587,-0.47566,-0.00591,0.17617,0.13809
-0.07046,0.90394,-0.42181,0.0494,0.12626,0.06999
-0.0647,0.92649,-0.37072,0.09254,0.05006,-0.01851
-0.06894,0.94337,-0.32451,0.1735,-0.05443,0.04359
-0.08565,0.95548,-0.28235,0.24043,-0.10366,0.08045
-0.10649,0.9645,-0.24164,0.27853,-0.00158,0.10742
-0.12592,0.9714,-0.20127,0.28905,0.18315,0.0926
-0.14263,0.97594,-0.16492,0.23597,0.18941,0.08117
-0.16021,0.97786,-0.13461,0.0192,0.07329,-0.05474
-0.17515,0.97861,-0.10789,-0.10278,-0.12517,-0.19832
-0.18893,0.97866,-0.08076,-0.13152,-0.10621,-0.25907
-0.20219,0.97787,-0.05375,0.0501,0.00594,-0.22098
-0.21039,0.97725,-0.02676,0.18,-0.05166,-0.1732
-0.21718,0.97612,-0.00446,0.17511,-0.18995,-0.18563
-0.22382,0.97455,0.01221,0.28097,-0.23342,-0.0926
-0.22967,0.97295,0.02484,0.41732,-0.20578,-0.02397
-0.23249,0.97194,0.0358,0.30529,-0.24995,-0.07056
-0.23254,0.97131,0.04967,0.20793,-0.25215,-0.04338
-0.23291,0.97026,0.06588,0.11314,-0.22627,-0.02146
-0.23655,0.9682,0.08136,-0.17889,0.00369,-0.05139
-0.244,0.96435,0.10237,-0.32261,0.2117,0.07233
-0.25623,0.9589,0.12188,-0.40658,0.58841,-0.06681
-0.26963,0.95227,0.14311,-0.22715,0.70874,0.14484
-0.28046,0.94502,0.16813,0.1171,0.81323,0.25343
-0.28698,0.93794,0.19468,0.27682,0.85176,-0.01205
-0.28806,0.93079,0.22503,0.06392,0.66004,-0.16635
-0.28561,0.92397,0.25434,-0.13631,0.82433,-0.34864
-0.28487,0.91812,0.27549,-0.21141,0.72853,-0.41885
-0.28855,0.9143,0.28425,0.09177,0.27673,-0.83381
-0.28369,0.91925,0.27293,0.70684,0.58148,-0.89479
-0.26362,0.93427,0.24006,0.68678,0.56646,-0.86192
-0.23326,0.952,0.1982,0.49076,0.47522,-0.26434
-0.20812,0.96664,0.14928,-0.2758,0.06253,0.23053
-0.19052,0.97774,0.08781,-0.42443,0.14565,0.1858
-0.18497,0.98264,0.01425,-0.60105,0.49525,-0.09034
-0.18319,0.98122,-0.06041,-0.18311,0.34927,0.06731
-0.17363,0.97553,-0.13488,0.07152,0.44616,0.16258
-0.15367,0.96452,-0.21466,0.35301,0.53882,0.31413
-0.13058,0.94474,-0.3007,0.0226,0.27314,0.14368
-0.11345,0.91776,-0.38057,-0.086,0.21454,0.26916
-0.09839,0.88231,-0.46027,-0.23324,0.07918,0.39299
-0.08942,0.83746,-0.53912,-0.23788,-0.07633,0.14784
-0.09299,0.7852,-0.61221,-0.12949,-0.07578,0.33859
-0.10309,0.7258,-0.68014,-0.0338,-0.06148,0.59103
-0.11531,0.661,-0.74147,-0.0133,-0.05578,0.71039
-0.12959,0.59352,-0.79432,-0.0786,-0.24343,0.78839
-0.14615,0.52854,-0.83624,0.23592,-0.66992,0.8052
-0.16193,0.46931,-0.86806,0.29897,-0.58322,0.80258
-0.17654,0.41986,-0.89025,0.18762,-0.55319,0.72285
-0.19115,0.38231,-0.90405,0.16357,-0.52893,0.69331
-0.2052,0.35717,-0.91122,0.17219,-0.50731,0.52743
-0.21889,0.34508,-0.91269,0.1847,-0.43859,0.40367
-0.23195,0.34503,-0.90948,0.27241,-0.42671,0.13932
-0.24302,0.3529,-0.90355,0.39387,-0.32942,-0.04854
-0.25203,0.36719,-0.89535,0.51708,-0.27118,-0.1522
-0.25815,0.38747,-0.885,0.50441,-0.2195,-0.45709
-0.25893,0.41253,-0.87337,0.20856,0.15145,-1.16604
-0.2459,0.4352,-0.8661,0.02918,0.60908,-1.3589
-0.24936,0.4577,-0.85342,-0.30095,-0.27461,0.87375
-0.25915,0.49004,-0.83229,-0.65055,-0.49213,0.51857
-0.25916,0.5279,-0.8088,-0.48111,-0.42654,0.04362
-0.24923,0.57055,-0.78254,-0.07,0.47396,0.17132
-0.21308,0.619,-0.75593,-0.5276,0.54437,0.28987
-0.18363,0.66528,-0.72366,-0.45553,0.44622,0.28082
-0.15746,0.70836,-0.68806,-0.10824,0.14266,0.27
-0.12678,0.75164,-0.64727,-0.16845,-0.01637,0.31484
-0.09324,0.79404,-0.60068,-0.20198,-0.05876,0.26825
-0.06173,0.83302,-0.54979,-0.09246,0.03641,0.29253
-0.03252,0.8677,-0.49602,-0.02094,0.13916,0.17357
-0.00777,0.89787,-0.44019,-0.01156,0.12479,0.15575
0.0122,0.92417,-0.38179,0.03965,-0.06267,0.08831
0.02284,0.94666,-0.32143,-0.08417,-0.21871,0.06368
0.02448,0.96542,-0.25953,-0.1025,-0.23019,0.0757
0.01551,0.98006,-0.19808,0.08659,-0.02466,0.10501
0.00204,0.99,-0.14102,0.34812,0.23291,0.2096
-0.01179,0.99557,-0.09325,0.41667,0.22503,0.1424
-0.02831,0.99777,-0.06049,0.29307,0.10207,0.01947
-0.04507,0.99841,-0.03387,-0.0236,-0.27409,-0.17485
-0.06122,0.99809,-0.00786,-0.06943,-0.27133,-0.27325
-0.07572,0.99691,0.021,-0.19347,-0.1577,-0.22772
-0.08942,0.99435,0.05709,-0.00063,0.00343,-0.15917
-0.10325,0.99017,0.09437,0.11165,0.06605,-0.16744
-0.11791,0.98555,0.12158,0.38466,0.16807,0.00399
-0.13634,0.98105,0.13767,0.22411,-0.01601,-0.11774
-0.15258,0.97652,0.15207,0.14805,-0.06197,-0.11476
-0.16691,0.97217,0.16437,0.03272,-0.07296,-0.06215
-0.17964,0.96842,0.17286,0.00523,0.02614,-0.109
-0.18928,0.96514,0.18078,0.06719,0.01393,-0.11289
-0.19826,0.96082,0.19368,0.15421,0.01423,-0.17995
-0.20824,0.95537,0.20951,0.34662,0.25636,-0.08561
-0.21913,0.94947,0.22468,0.30133,0.31948,-0.07825
-0.22985,0.94368,0.23799,0.08784,0.29313,-0.18759
-0.23947,0.93883,0.24747,-0.02411,0.42971,-0.41269
-0.24942,0.93502,0.25204,-0.01982,0.42523,-0.41056
-0.25904,0.9304,0.2593,-0.01284,0.22775,-0.20112
-0.26794,0.92519,0.26876,0.01263,0.26625,-0.02087
-0.27636,0.92141,0.27319,0.19716,0.32414,0.10529
-0.28353,0.91968,0.27165,-0.06633,0.1649,-0.35277
-0.29064,0.92155,0.25742,-0.18934,0.26236,-0.46671
-0.29515,0.92491,0.23965,-0.22596,0.30764,-0.44811
-0.2962,0.93066,0.2148,0.03068,0.07613,-0.47236
-0.28974,0.94009,0.17967,0.17573,0.09193,-0.3614
-0.27283,0.95233,0.1365,0.28161,0.14718,-0.04284
-0.25031,0.96419,0.08759,-0.11033,0.12286,0.08975
-0.23066,0.97244,0.03405,-0.26391,0.13296,0.03034
-0.21866,0.97557,-0.02119,-0.5647,0.13104,-0.08832
-0.20877,0.9752,-0.07343,-0.7742,-0.08919,0.34485
-0.19921,0.97413,-0.1067,-0.78376,-0.08811,0.37812
-0.19025,0.97247,-0.13453,-0.29314,-0.13301,0.815
-0.17926,0.96527,-0.19002,-0.29396,-0.0042,-0.31716
-0.16787,0.95338,-0.25077,-0.35966,0.00818,-0.12197
-0.1599,0.9411,-0.29793,-0.23254,-0.06842,0.30371
-0.14773,0.92768,-0.34289,-0.04375,-0.2353,0.3262
-0.13592,0.91276,-0.38521,0.09452,-0.23953,0.22009
-0.12907,0.89715,-0.42245,0.1314,-0.25639,0.19996
-0.12987,0.88208,-0.45284,0.09516,-0.32605,0.27244
-0.14069,0.8684,-0.47549,0.06946,-0.43105,0.36625
-0.15434,0.85794,-0.49001,0.07893,-0.44333,0.3722
-0.16751,0.85133,-0.49717,0.02275,-0.41549,0.31646
-0.17957,0.84887,-0.49717,-0.0889,-0.38839,0.353
-0.19306,0.84998,-0.49017,-0.09625,-0.35973,0.42404
-0.20422,0.85415,-0.47824,0.03264,-0.31822,0.41345
-0.20787,0.86183,-0.46263,0.1511,-0.25891,0.22067
-0.20727,0.87311,-0.44127,0.24685,-0.22357,0.06012
-0.20479,0.88756,-0.41267,0.27641,-0.13284,-0.09865
-0.19924,0.90315,-0.3803,0.09226,0.2033,-0.59697
-0.18415,0.91577,-0.35699,-0.0302,0.36308,-0.82717
-0.16363,0.92562,-0.34125,-0.04614,0.60885,-0.84432
-0.15502,0.93228,-0.32684,-0.2099,0.39453,-0.59255
-0.14987,0.93456,-0.3227,-0.1359,0.24516,-0.47434
-0.14656,0.93579,-0.32066,-0.21492,-0.05723,-0.09379
-0.14638,0.93697,-0.31727,-0.45978,-0.19425,-0.05498
-0.1501,0.93889,-0.30976,-0.51251,-0.13521,-0.07164
-0.15427,0.94333,-0.29381,-0.35281,0.25716,0.13709
-0.15675,0.94932,-0.27244,-0.05602,0.52566,0.49522
-0.15223,0.95215,-0.26499,-0.05126,0.36921,0.58906
-0.14187,0.95459,-0.26198,0.07981,-0.25982,0.79471
-0.12418,0.9618,-0.24397,0.22402,-0.3677,0.58673
-0.10162,0.97112,-0.21585,0.25294,-0.15824,0.48715
-0.0787,0.97962,-0.18479,0.23086,0.28459,0.37231
-0.06967,0.98599,-0.15153,0.0949,0.16527,0.35264
-0.07472,0.98994,-0.12016,-0.2827,-0.04247,0.24929
-0.07332,0.99292,-0.09339,-0.38159,0.04464,0.19805
-0.06122,0.99582,-0.06769,-0.28745,0.04792,0.2258
-0.04732,0.998,-0.04178,-0.0395,-0.10907,0.34642
-0.0368,0.99913,-0.0196,0.06156,-0.024,0.22108
-0.02966,0.99955,-0.0022,0.09085,0.03121,0.18658
-0.02385,0.99961,0.01449,0.12685,0.08323,0.17226
-0.0186,0.99935,0.03068,0.18376,0.11483,0.06416
-0.01457,0.99884,0.0459,0.13643,0.06644,-0.06721
-0.0124,0.99772,0.06623,0.16713,0.04888,-0.08761
-0.01083,0.99585,0.09032,0.20654,0.08392,0.04618
-0.01127,0.99386,0.11002,0.29049,0.10672,0.00346
-0.01653,0.99223,0.12329,0.28232,0.0952,-0.05701
-0.02506,0.99067,0.1339,-0.00819,0.01375,-0.21012
-0.03555,0.98876,0.14521,-0.21419,-0.11059,-0.1413
-0.04487,0.98662,0.1567,-0.2036,-0.11626,-0.06878
-0.05552,0.9841,0.16869,0.02628,0.01755,-0.00945
-0.06668,0.98147,0.17961,0.12576,0.06427,-0.0617
-0.07654,0.9785,0.19151,0.12851,0.08131,-0.10021
-0.08599,0.9749,0.20533,-0.01362,0.14691,-0.14261
-0.09597,0.97153,0.21661,-0.09228,0.15817,-0.22257
-0.10562,0.96854,0.22532,-0.05174,0.25581,-0.26905
-0.11362,0.96564,0.23373,0.04399,0.39571,-0.27693
-0.11985,0.9636,0.23899,0.05012,0.58529,-0.30762
-0.12624,0.96333,0.23677,-0.02514,0.71436,-0.37531
-0.13103,0.96553,0.22491,-0.01166,0.68268,-0.28475
-0.13351,0.97109,0.1979,-0.22165,0.51643,-0.38384
-0.13203,0.97961,0.15144,-0.45685,0.39774,-0.6145
-0.12365,0.98815,0.09096,-0.40282,0.44331,-0.3528
-0.10732,0.99385,0.02739,-0.33558,0.61696,0.17792
-0.08598,0.9959,-0.02796,-0.41398,0.49358,0.58005
-0.06374,0.99468,-0.0809,-0.33509,0.48219,0.62775
-0.04324,0.98905,-0.14112,-0.31682,0.45042,0.11871
-0.02328,0.977,-0.21196,-0.32515,0.47652,0.02207
0.00088,0.9562,-0.29272,-0.16258,0.42268,-0.11057
0.02224,0.92617,-0.37644,-0.01575,0.11147,0.27616
0.03371,0.88723,-0.4601,-0.05759,-0.03658,0.32488
0.03607,0.84115,-0.5396,-0.21428,-0.05069,0.41117
0.03069,0.78544,-0.61818,-0.31245,0.12385,0.21913
0.01593,0.72076,-0.693,-0.24807,0.14123,0.34361
-0.00425,0.64873,-0.76101,-0.11772,0.097,0.50782
-0.02461,0.57385,-0.81859,-0.00429,-0.00568,0.54245
-0.04416,0.4982,-0.86594,-0.02699,-0.07475,0.60114
-0.06465,0.42428,-0.90322,-0.01367,-0.24035,0.63837
-0.08184,0.35629,-0.93078,0.06052,-0.24125,0.7469
-0.09402,0.29813,-0.94988,0.13592,-0.28096,0.70512
-0.10454,0.25253,-0.96193,-0.05692,-0.54221,0.70094
-0.12112,0.22014,-0.96792,-0.01947,-0.33641,0.6854
-0.13231,0.20126,-0.97056,0.07237,-0.32644,0.48477
-0.1383,0.1943,-0.97114,0.29829,-0.22125,0.33709
-0.14025,0.19787,-0.97014,0.24665,-0.33454,0.22005
-0.14828,0.20792,-0.96684,0.34463,-0.2251,0.0413
-0.15051,0.2255,-0.96255,0.3814,-0.1893,-0.15063
-0.15338,0.25008,-0.956,0.39139,-0.22217,-0.46136
-0.16187,0.28646,-0.94432,0.06972,-0.14425,-1.14045
-0.16353,0.32542,-0.93132,-0.58595,1.13425,-1.29347
-0.16296,0.3491,-0.92281,-0.29484,0.91659,0.22763
-0.18369,0.37981,-0.90664,-0.16688,-0.00799,0.93058
-0.18631,0.41825,-0.88902,-0.39825,-0.55875,0.00161
-0.18602,0.46082,-0.86778,0.09067,0.21038,0.31889
-0.15434,0.51059,-0.84586,-0.41616,0.22432,0.23168
-0.12656,0.55831,-0.81992,-0.16281,0.38508,0.2071
-0.10287,0.6024,-0.79154,-0.02097,0.34726,0.26262
-0.07817,0.64606,-0.75927,-0.00531,0.25029,0.30706
-0.04858,0.68915,-0.72299,-0.10482,0.03717,0.40243
-0.01625,0.73103,-0.68215,-0.10438,-0.00464,0.3554
0.01697,0.77075,-0.63691,-0.10262,0.03156,0.29264
0.04556,0.80623,-0.58985,-0.03089,0.27999,0.19616
0.06621,0.83866,-0.54062,0.00452,0.18586,0.19899
0.07838,0.86729,-0.49159,-0.00766,0.15723,0.14996
0.08371,0.89275,-0.44271,-0.03923,-0.02692,0.22237
0.07598,0.91493,-0.3964,0.03913,0.04073,0.2015
0.05565,0.93324,-0.35491,0.05947,0.02242,0.16001
0.03238,0.94843,-0.31533,-0.03101,0.07948,0.2023
0.01175,0.95987,-0.28021,-0.03926,-0.05746,0.06684
-0.00827,0.96813,-0.25032,-0.117,-0.07657,-0.05695
-0.02251,0.97557,-0.21853,-0.13737,-0.07351,-0.17844
-0.03244,0.98223,-0.18485,-0.02296,-0.00655,-0.17384
-0.04256,0.98743,-0.15222,0.04904,0.00467,-0.19228
-0.05015,0.99108,-0.12343,0.18637,-0.01072,-0.22949
-0.05729,0.99349,-0.09846,0.2337,-0.10979,-0.08644
-0.06605,0.99452,-0.08096,0.1723,-0.09284,-0.08959
-0.07575,0.9943,-0.07497,0.04668,-0.08254,-0.13971
-0.08729,0.99342,-0.07408,-0.03319,-0.11401,-0.23727
-0.09837,0.99268,-0.07002,0.00709,-0.09424,-0.204
-0.10503,0.99272,-0.0589,0.17692,-0.0643,0.18162
-0.11006,0.99273,-0.04873,0.19462,-0.12165,0.03268
-0.11568,0.99259,-0.03711,0.0132,-0.02148,-0.03646
-0.1225,0.9923,-0.01816,-0.26758,0.66819,0.37341
-0.13117,0.99133,0.00781,-0.42172,0.86648,0.37438
-0.14312,0.98872,0.04415,-0.21279,0.95785,0.24627
-0.14955,0.98514,0.08446,-0.05845,0.93922,0.07145
-0.1502,0.98088,0.1237,-0.17544,0.81698,-0.18313
-0.14942,0.97625,0.15688,-0.24244,0.61334,-0.26153
-0.15243,0.9715,0.18149,-0.17808,0.33405,-0.34592
-0.1571,0.96841,0.19363,-0.00574,0.31862,-0.55222
-0.15645,0.9702,0.18503,0.14024,0.32953,-0.69466
-0.14775,0.97665,0.15594,0.31357,0.29012,-0.55295
-0.1355,0.98405,0.11519,0.05687,0.16208,-0.29012
-0.12177,0.99055,0.06315,-0.20158,0.0778,0.00415
-0.1071,0.99425,0.00122,-0.35636,0.15683,0.17091
-0.09588,0.99323,-0.0656,-0.47466,0.24588,0.15486
-0.0911,0.9871,-0.13162,-0.37988,0.33188,0.27638
-0.08432,0.97648,-0.19844,-0.1131,0.30644,0.37902
-0.06778,0.95999,-0.27169,0.0771,0.26066,0.12365
-0.04297,0.93733,-0.34577,0.1103,0.30486,-0.02699
-0.02455,0.9091,-0.41586,0.09691,0.21632,0.25032
-0.01186,0.87593,-0.48229,-0.07828,0.11455,0.38288
-0.00357,0.83527,-0.54982,-0.25853,0.14098,0.21422
-0.00389,0.78769,-0.61606,-0.21947,0.07898,0.25997
-0.01639,0.73346,-0.67954,-0.20214,0.09682,0.38071
-0.03474,0.67326,-0.73859,-0.2275,0.07963,0.47893
-0.05352,0.60913,-0.79126,-0.25956,0.00731,0.49057
-0.07089,0.54268,-0.83694,-0.04236,-0.07813,0.59012
-0.08857,0.47627,-0.87483,0.04943,-0.06918,0.65653
-0.10605,0.412,-0.90499,0.14467,-0.36696,0.76851
-0.12477,0.35261,-0.92742,0.21319,-0.48304,0.7497
-0.14173,0.30157,-0.94285,0.18999,-0.43286,0.72985
-0.15708,0.26003,-0.95274,0.01957,-0.36356,0.6349
-0.17154,0.23064,-0.9578,-0.02194,-0.42362,0.57622
-0.18399,0.21382,-0.95939,0.00938,-0.42985,0.50509
-0.19293,0.20894,-0.95871,0.02132,-0.37155,0.36452
-0.19874,0.21502,-0.95617,0.24397,-0.25053,0.17297
-0.20687,0.22919,-0.95114,0.2521,-0.2647,0.16794
-0.21304,0.25112,-0.94422,0.33489,-0.14756,-0.05117
-0.21434,0.28069,-0.93556,0.11558,-0.11626,-0.96796
-0.20687,0.31387,-0.92665,0.00369,0.27274,-1.43078
-0.19142,0.33998,-0.92075,-0.25257,0.96967,-0.32237
-0.2168,0.36397,-0.90583,-0.27772,-0.30383,0.74489
-0.22128,0.39919,-0.88977,-0.50365,-0.60001,0.46659
-0.22948,0.43895,-0.86872,0.45465,-0.15733,0.19551
-0.20159,0.48837,-0.84903,-0.61949,0.45647,0.25909
-0.17029,0.53795,-0.8256,-0.59112,0.46437,0.39832
-0.14126,0.5847,-0.79886,0.08955,0.33382,0.32599
-0.11486,0.62946,-0.7685,0.0144,0.17227,0.36419
-0.08444,0.67328,-0.73455,-0.1088,0.03095,0.31937
-0.05346,0.71532,-0.69675,-0.14739,-0.0291,0.35817
-0.02392,0.75572,-0.65445,-0.13823,-0.01102,0.31939
0.00274,0.79199,-0.61052,-0.12925,0.17592,0.21309
0.02336,0.82551,-0.5639,-0.04568,0.1221,0.18395
0.03995,0.85569,-0.51595,-0.03502,-0.01518,0.13378
0.04931,0.88262,-0.46748,-0.05108,-0.11271,0.07359
0.05168,0.90647,-0.41908,0.00063,-0.03941,0.15923
0.04569,0.92727,-0.37159,0.08209,0.09467,0.21677
0.03329,0.94378,-0.32889,0.20249,0.23305,0.26768
0.01766,0.9564,-0.29151,0.12912,0.10674,0.20024
0.00214,0.96654,-0.25648,0.07464,0.07017,0.15991
-0.01124,0.97407,-0.22597,-0.07159,0.00602,-0.03375
-0.0242,0.9804,-0.19548,-0.2702,-0.0285,-0.08511
-0.03336,0.98624,-0.16189,-0.22909,-0.00434,-0.1045
-0.04406,0.9899,-0.13475,-0.02297,0.09839,-0.14046
-0.05496,0.9924,-0.11003,0.08195,0.15799,-0.10008
-0.06164,0.99448,-0.08488,0.07749,-0.01857,-0.03007
-0.0692,0.99532,-0.06735,0.02379,-0.15826,-0.00778
-0.07746,0.99525,-0.05895,-0.02053,-0.21587,-0.0658
-0.08544,0.99487,-0.05418,0.01411,-0.23713,-0.06435
-0.09275,0.99454,-0.04783,0.06505,-0.22971,-0.04007
-0.09914,0.99432,-0.03869,0.17952,-0.16429,-0.01497
-0.10438,0.99416,-0.02743,0.17144,-0.10083,0.13485
-0.10966,0.99384,-0.01608,0.17673,-0.10051,0.1235
-0.11618,0.99321,-0.00498,-0.17192,0.16051,0.08528
-0.12346,0.99229,0.01101,-0.12172,0.30146,0.26842
-0.13287,0.99067,0.03004,-0.21433,0.43651,0.20611
-0.14405,0.98829,0.0502,-0.45621,0.65107,0.23095
-0.15247,0.98536,0.07626,0.02222,0.80168,0.2303
-0.15815,0.98201,0.10315,0.01922,0.58313,0.10376
-0.16097,0.97814,0.13163,-0.0523,0.42375,-0.02508
-0.16128,0.97398,0.1592,0.03015,0.46309,-0.12734
-0.16121,0.9702,0.18088,0.03406,0.42227,-0.18358
-0.16317,0.96736,0.19386,-0.04014,0.21202,-0.26523
-0.16236,0.96743,0.19421,0.0832,0.25975,-0.62823
-0.15204,0.9727,0.17533,0.16289,0.30212,-0.71215
-0.13423,0.98117,0.13882,0.27715,0.34552,-0.57333
-0.11451,0.98858,0.09794,-0.0161,0.24598,-0.1793
-0.09655,0.99383,0.05451,-0.41041,0.18668,0.18379
-0.08221,0.99661,-0.00049,-0.71547,0.06036,0.34934
-0.07552,0.99519,-0.06237,-0.75561,0.32583,0.0908
-0.07099,0.99014,-0.12073,-0.6734,0.17485,0.22345
-0.06113,0.9818,-0.1798,-0.02556,0.28247,0.19249
-0.04605,0.96761,-0.24821,0.00795,0.24097,0.11604
-0.0241,0.948,-0.31735,-0.00838,0.11545,0.02763
-0.00522,0.92496,-0.38001,-0.02983,0.03771,0.27503
0.00503,0.89786,-0.44024,-0.04005,-0.0401,0.38173
0.01014,0.8667,-0.49873,-0.15122,-0.09062,0.27716
0.0084,0.83223,-0.55437,-0.20174,-0.02676,0.21102
-0.00398,0.79416,-0.60769,-0.15607,-0.13689,0.40547
-0.02575,0.75379,-0.65661,-0.05761,-0.24618,0.59542
-0.04238,0.71333,-0.69954,-0.18768,-0.40089,0.62754
-0.05421,0.67359,-0.73711,-0.15205,-0.24736,0.44086
-0.06901,0.63528,-0.76919,-0.08659,-0.20106,0.40463
-0.08891,0.60009,-0.79497,-0.03784,-0.37985,0.57873
-0.10308,0.57199,-0.81376,0.09132,-0.38071,0.55021
-0.11325,0.55488,-0.82419,0.01357,-0.3942,0.51928
-0.12026,0.54728,-0.82826,-0.04087,-0.37093,0.47392
-0.12807,0.54749,-0.82695,0.03372,-0.34317,0.32367
-0.13867,0.55527,-0.82002,0.06536,-0.28237,0.35919
-0.14681,0.56894,-0.80917,0.2313,-0.15351,0.19222
-0.15346,0.58599,-0.79565,0.2591,-0.14065,0.1263
-0.15558,0.60376,-0.78183,0.21264,-0.15566,0.05175
-0.14627,0.62265,-0.76871,0.05895,-0.19428,-0.1107
-0.12543,0.64455,-0.7542,0.05241,-0.14481,-0.26603
-0.10138,0.66835,-0.7369,-0.0329,-0.10747,-0.45887
-0.08399,0.68917,-0.71971,-0.23744,0.28939,-1.05434
-0.07644,0.70265,-0.70742,-0.93926,1.26854,-0.12089
-0.08209,0.70879,-0.70062,-0.49112,0.50213,0.42901
-0.09712,0.72623,-0.68055,-0.20817,-0.67972,-0.03031
-0.09015,0.75013,-0.65512,0.29863,-0.32069,0.40432
-0.07605,0.7759,-0.62626,0.43818,-0.0587,0.73961
-0.04476,0.8031,-0.59415,-0.07835,0.41859,0.40432
-0.01141,0.82744,-0.56144,-0.52665,0.19771,0.06963
0.00116,0.85144,-0.52444,-0.4297,0.18219,0.22972
0.00687,0.87189,-0.48966,-0.36708,0.13512,0.43837
0.01887,0.89329,-0.44909,-0.21598,-0.0698,0.38779
0.03789,0.91483,-0.40205,-0.00682,0.078,0.3495
0.06095,0.93452,-0.35064,0.09944,0.25786,0.29807
0.08551,0.95119,-0.29651,0.209,0.35836,0.24188
0.1055,0.96334,-0.24665,0.20001,0.25442,0.24795
0.11423,0.9715,-0.20769,0.07894,-0.00629,0.22002
0.11462,0.97816,-0.17337,-0.28573,-0.1847,0.06915
0.11083,0.9837,-0.14159,-0.38529,-0.20107,0.02117
0.11005,0.98785,-0.10968,-0.37052,-0.1306,0.0231
0.11321,0.99059,-0.07686,-0.16167,-0.05674,0.06819
0.11734,0.99204,-0.04551,-0.14203,-0.00868,0.0404
0.12102,0.99253,-0.01515,-0.21305,0.0243,0.00679
0.12516,0.99202,0.01472,-0.22706,0.06036,-0.00808
0.12841,0.99075,0.04381,-0.25049,-0.07635,-0.08896
0.12898,0.98898,0.07267,-0.19311,-0.08408,-0.0846
0.12798,0.98639,0.10318,-0.11694,0.03737,-0.03647
0.12554,0.98299,0.13397,0.05715,0.13702,0.04599
0.12106,0.97932,0.16204,0.01831,0.02484,-0.07071
0.11242,0.97598,0.18656,-0.09627,-0.04559,-0.18504
0.10031,0.97216,0.21173,-0.2005,-0.13792,-0.17319
0.08667,0.96794,0.23572,-0.06758,-0.08406,-0.22611
0.07156,0.96332,0.25862,0.10131,0.07875,-0.15438
0.05657,0.95778,0.28184,0.0935,0.26563,-0.19842
0.04173,0.95313,0.29964,-0.07495,0.14271,-0.36142
0.02777,0.94962,0.31215,-0.16072,0.11077,-0.42215
0.01625,0.94755,0.31916,-0.16536,0.06534,-0.42141
0.00665,0.94718,0.32062,0.04643,0.17257,-0.37837
-0.00194,0.94862,0.3164,-0.03302,0.16146,-0.50019
-0.00933,0.95257,0.30416,-0.10005,0.19206,-0.5358
-0.01277,0.95933,0.28197,-0.16149,0.36368,-0.48065
-0.01346,0.96896,0.24684,-0.29103,0.43671,-0.32875
-0.0144,0.98041,0.19638,-0.44123,0.41587,-0.24229
-0.01762,0.99049,0.13637,-0.89237,0.38333,0.44839
-0.02824,0.9961,0.08353,-0.34789,0.36666,0.51124
-0.03333,0.99861,0.04067,-0.3428,0.36415,0.55411
-0.02713,0.99962,-0.00322,-0.18558,0.56776,-0.10089
-0.02141,0.99823,-0.05545,-0.34172,-0.05601,0.10855
-0.01999,0.99418,-0.10581,-0.34313,-0.05197,0.15891
-0.01618,0.9881,-0.15295,-0.10175,-0.43664,0.28822
-0.01388,0.98005,-0.19827,-0.05707,-0.3826,0.2601
-0.01444,0.97083,-0.23932,-0.02647,-0.33634,0.19284
-0.01628,0.96113,-0.27559,-0.10538,-0.27868,0.13892
-0.01781,0.95209,-0.30528,-0.14364,-0.19128,0.13156
-0.02045,0.94484,-0.32688,-0.13107,-0.19461,0.17921
-0.02399,0.93964,-0.34132,-0.15785,-0.26897,0.28644
-0.02852,0.93613,-0.35049,-0.20929,-0.34368,0.31698
-0.03364,0.93445,-0.35448,-0.1648,-0.35564,0.26935
-0.03642,0.93518,-0.35228,-0.07611,-0.36014,0.16698
-0.03485,0.93869,-0.34297,0.00107,-0.32553,0.01873
-0.03054,0.94452,-0.32701,0.0134,-0.31217,-0.0046
-0.0254,0.95194,-0.30523,0.08179,-0.29568,-0.02948
-0.01805,0.95992,-0.27968,0.19594,-0.13827,-0.14855
-0.00615,0.96719,-0.25397,0.18209,-0.08213,-0.26586
0.013,0.97256,-0.23227,0.11963,0.11477,-0.56344
0.03565,0.97596,-0.21498,-0.12704,0.47115,-0.9339
0.04834,0.97851,-0.20043,-0.32283,0.54297,-0.78909
0.05457,0.97992,-0.19176,-0.28534,0.39096,-0.55666
0.0583,0.97941,-0.19328,-0.33337,0.17137,-0.47008
0.05904,0.97723,-0.20378,-0.35477,-0.26831,-0.22551
0.05953,0.97685,-0.20546,-0.40202,-0.52987,0.02194
0.05554,0.98113,-0.18519,-0.23872,-0.14879,0.35273
0.04538,0.98923,-0.13912,-0.12433,0.27293,0.69855
0.03439,0.99584,-0.08432,-0.16513,1.20433,0.31864
0.02564,0.99595,-0.08616,-0.31579,0.59471,-0.04392
0.01969,0.9941,-0.10661,-0.40722,-0.38273,0.39558
0.0345,0.99657,-0.07515,-0.13411,-0.87438,0.41284
0.04748,0.99816,-0.0375,0.01903,0.00259,0.00779
0.04795,0.99876,-0.01293,0.07388,0.35626,0.05091
0.0441,0.99882,0.02022,-0.1023,0.25869,0.23563
0.04078,0.99792,0.04986,-0.24727,0.06339,0.09359
0.04071,0.99711,0.06402,-0.27713,-0.01394,0.04398
0.04238,0.99652,0.07168,-0.08994,-0.13548,0.03852
0.04352,0.99539,0.08546,0.12693,-0.05667,0.06907
0.0437,0.99367,0.10346,0.21206,-0.00382,0.05418
0.04027,0.99174,0.12174,0.06509,0.10447,-0.14069
0.03515,0.98935,0.1412,-0.0076,0.12211,-0.21371
0.02874,0.98656,0.16084,0.12203,0.10666,-0.16858
0.02131,0.98381,0.17789,0.25965,0.13653,-0.15181
0.01398,0.98074,0.19477,0.23354,0.07994,-0.30119
0.00529,0.97816,0.20777,0.08977,0.01363,-0.29087
-0.00256,0.97688,0.21375,-0.03963,-0.04632,-0.27513
-0.0095,0.97625,0.21644,-0.05909,-0.02542,-0.22802
-0.01608,0.9759,0.21759,-0.00073,0.02637,-0.1965
-0.02199,0.97571,0.21792,0.08107,0.06048,-0.17816
-0.02757,0.97611,0.21551,-0.00322,0.01213,-0.27315
-0.03299,0.9777,0.20741,-0.03268,0.00229,-0.30525
-0.03965,0.9795,0.19747,-0.00663,-0.02592,-0.20258
-0.04808,0.9807,0.18948,0.00693,-0.04329,-0.11625
-0.05783,0.98082,0.1861,0.00128,-0.07036,0.05339
-0.06875,0.97962,0.18868,-0.0745,0.02941,0.14563
-0.08245,0.97775,0.19289,-0.08945,0.32123,-0.02422
-0.09563,0.97405,0.20514,0.15409,0.41279,0.22339
-0.10716,0.968,0.22692,0.24429,0.42646,0.25877
-0.11568,0.96057,0.2528,-0.1125,0.72398,0.00225
-0.12383,0.95059,0.28468,-0.16279,0.7632,-0.11343
-0.13275,0.93996,0.31438,-0.05244,0.85631,-0.2549
-0.13878,0.93187,0.3352,0.08646,0.62818,-0.45679
-0.14211,0.92839,0.34335,0.02473,0.69492,-0.52228
-0.14475,0.92959,0.33898,-0.09428,0.58279,-0.58715
-0.1403,0.9365,0.32136,0.17866,0.30204,-0.51593
-0.12812,0.94725,0.29376,0.17374,0.25418,-0.41841
-0.11386,0.9593,0.25839,-0.01735,0.19829,-0.1289
-0.10444,0.97078,0.21604,-0.08616,0.1911,-0.03989
-0.09836,0.98165,0.16332,-0.20688,0.30817,-0.03978
-0.09179,0.99072,0.10016,-0.08422,0.59681,0.05953
-0.08008,0.99619,0.03439,-0.0375,0.52215,0.15253
-0.05992,0.99766,-0.03294,-0.02713,0.44277,0.18211
-0.0424,0.99385,-0.10232,-0.09426,0.08654,0.17783
-0.02994,0.98491,-0.17044,-0.09014,-0.02413,0.20744
-0.02287,0.96966,-0.24338,0.01881,0.03348,0.2175
-0.02074,0.94803,-0.31751,-0.03747,0.04827,0.05874
-0.02239,0.92147,-0.38781,-0.1714,-0.10361,0.0474
-0.02966,0.88957,-0.45583,-0.09448,-0.09323,0.1926
-0.04143,0.85152,-0.52268,-0.07223,-0.14348,0.28054
-0.05754,0.80582,-0.58936,0.00653,-0.03714,0.27698
-0.07626,0.75359,-0.65291,0.07383,0.08943,0.35585
-0.09724,0.69452,-0.71287,0.12724,-0.08446,0.49553
-0.12143,0.63133,-0.76595,0.15912,-0.20138,0.4859
-0.14801,0.56687,-0.8104,0.11946,-0.32288,0.5742
-0.17659,0.50386,-0.84554,0.09846,-0.5377,0.59344
-0.20465,0.44781,-0.87039,0.20553,-0.49778,0.61536
-0.22588,0.40024,-0.88814,0.23547,-0.34427,0.62806
-0.24207,0.36129,-0.90049,0.17382,-0.53008,0.59453
-0.2549,0.33395,-0.90747,0.13637,-0.52879,0.46135
-0.26274,0.31828,-0.91086,0.16681,-0.53948,0.2805
-0.26998,0.31309,-0.91054,0.52683,-0.28248,0.24941
-0.27654,0.31592,-0.90759,0.35168,-0.4426,0.12339
-0.27998,0.32626,-0.90286,0.33305,-0.42825,-0.11311
-0.28184,0.34458,-0.89545,0.24606,-0.37385,-0.75395
-0.28405,0.36617,-0.88613,-0.29636,0.51409,-1.03762
-0.29603,0.38523,-0.87405,-0.16201,0.69304,-0.61001
-0.32182,0.4101,-0.85337,-0.00586,0.40622,0.19212
-0.3355,0.43998,-0.83298,-0.24896,-0.23572,-0.10208
-0.33951,0.47823,-0.80995,-0.11505,0.01782,-0.10692
-0.32412,0.52479,-0.78711,-0.1292,0.43473,0.24952
-0.30505,0.57155,-0.76176,-0.21373,0.25444,0.23279
-0.28592,0.61524,-0.73466,-0.09843,0.20254,0.19441
-0.25979,0.6591,-0.70576,-0.06261,0.09322,0.27273
-0.22795,0.70333,-0.67332,-0.07485,-0.01742,0.33535
-0.19297,0.74563,-0.6378,-0.10377,-0.03122,0.28903
-0.15611,0.7848,-0.59976,-0.02686,0.06027,0.22317
-0.11945,0.82084,-0.55852,0.09872,0.17096,0.08648
-0.08761,0.85296,-0.51458,0.1446,0.13409,0.09174
-0.06328,0.88144,-0.46804,0.21761,0.00052,0.10782
-0.04688,0.9061,-0.42045,0.1687,-0.24178,0.03975
-0.03892,0.92815,-0.37017,0.14616,-0.23102,0.07198
-0.0419,0.94683,-0.31899,0.20351,0.03401,0.13648
-0.05206,0.96182,-0.26869,0.18953,0.11141,0.09994
-0.06557,0.97245,-0.22368,0.20157,0.20707,0.04909
-0.07942,0.9794,-0.18562,0.09654,0.07815,0.05482
-0.09271,0.98363,-0.15447,-0.00867,-0.08572,-0.02382
-0.10452,0.9865,-0.12608,-0.07075,-0.08458,-0.1227
-0.11297,0.98939,-0.09137,-0.13576,0.04106,-0.08502
-0.12311,0.99063,-0.05909,-0.06531,0.08121,-0.10988
-0.13657,0.99001,-0.0349,-0.04406,0.08013,-0.16197
-0.1478,0.98892,-0.01348,0.12905,0.08582,-0.20208
-0.15546,0.98782,0.00626,0.23508,-0.04676,-0.13189
-0.16186,0.9866,0.02021,0.20213,-0.10925,-0.11087
-0.16775,0.98547,0.02632,0.1373,-0.23929,-0.16543
-0.17338,0.98448,0.0271,0.13023,-0.22718,-0.28318
-0.17777,0.98358,0.03104,0.15978,-0.22957,-0.27544
-0.18104,0.98262,0.04086,0.25641,-0.1545,-0.08596
-0.1845,0.98154,0.05028,0.24238,-0.12484,0.08389
-0.19086,0.97994,0.05734,0.10408,-0.11484,-0.16082
-0.19853,0.97764,0.06932,-0.03306,0.05741,0.05318
-0.20425,0.975,0.08741,-0.02905,0.31649,0.03456
-0.20964,0.97152,0.11041,0.05234,0.74364,0.27441
-0.21514,0.96687,0.13735,0.00467,0.99123,0.17069
-0.21806,0.96117,0.16909,-0.11721,0.85519,0.24065
-0.21811,0.9545,0.20337,-0.17198,0.78341,0.05265
-0.2167,0.9475,0.23509,-0.11057,0.56835,-0.17361
-0.21429,0.94088,0.26234,0.07526,0.41577,-0.20862
-0.21357,0.93502,0.28304,-3e-05,0.38904,-0.28604
-0.21526,0.93215,0.29112,-0.04142,0.26489,-0.58457
-0.20907,0.93612,0.28276,0.14626,0.26895,-0.74682
-0.20068,0.94459,0.25975,0.22253,0.28847,-0.7379
-0.18806,0.95618,0.22436,0.25552,0.25282,-0.49907
-0.17108,0.96869,0.1799,0.06366,0.13265,0.03902
-0.15568,0.9794,0.1286,-0.14708,0.10612,0.2154
-0.14973,0.98603,0.0729,-0.36588,0.16749,0.18959
-0.15045,0.98855,0.01113,-0.21447,0.39428,-0.01546
-0.14752,0.98757,-0.05409,-0.0721,0.41706,0.0645
-0.13862,0.98239,-0.12523,0.1646,0.38843,0.02239
-0.12666,0.97086,-0.20341,0.21816,0.22414,0.00497
-0.1163,0.95404,-0.27618,0.15616,0.1823,0.21263
-0.10992,0.9316,-0.34645,-0.06552,0.12402,0.29539
-0.10755,0.90125,-0.41974,-0.2456,0.20262,-0.02089
-0.11165,0.86357,-0.49171,-0.19494,0.21161,0.07109
-0.12142,0.81903,-0.56075,-0.12968,0.09836,0.20786
-0.13424,0.76837,-0.62577,-0.0896,-0.04482,0.39905
-0.14864,0.71027,-0.68805,-0.03311,-0.00477,0.39815
-0.16446,0.64609,-0.74533,0.0738,0.04817,0.53189
-0.18106,0.57999,-0.79425,0.15596,-0.05135,0.59974
-0.19962,0.51395,-0.83427,0.20253,-0.41651,0.70097
-0.22069,0.4511,-0.86476,0.24971,-0.64287,0.71257
-0.23831,0.39673,-0.88646,0.17885,-0.57971,0.73668
-0.25178,0.35404,-0.9007,0.13989,-0.53688,0.66364
-0.26124,0.32297,-0.90964,0.23893,-0.45578,0.46813
-0.26809,0.30629,-0.91341,0.0647,-0.6239,0.32611
-0.2757,0.30218,-0.91251,0.24293,-0.41308,0.33881
-0.28382,0.3063,-0.90864,0.69804,-0.17907,0.17355
-0.28947,0.31462,-0.904,0.54222,-0.2768,-0.07035
-0.29407,0.3272,-0.89803,0.55797,-0.28561,-0.18533
-0.29529,0.34869,-0.88951,0.30168,-0.35831,-0.76146
-0.29803,0.37664,-0.87711,-0.11038,0.23463,-1.2003
-0.29697,0.40151,-0.86637,-0.37565,0.80429,-0.88146
-0.31528,0.42567,-0.84817,-0.32874,0.10167,0.4494
-0.31976,0.45728,-0.82985,-0.24871,-0.50651,0.3215
-0.31954,0.49774,-0.80632,0.08149,-0.43952,0.16063
-0.29517,0.54364,-0.7857,-0.07331,0.32972,0.09257
-0.26596,0.59028,-0.76212,-0.3876,0.3942,0.25097
-0.23753,0.63446,-0.73555,-0.37009,0.3898,0.15765
-0.21165,0.67619,-0.70567,0.06821,0.21012,0.19083
-0.18124,0.71742,-0.67265,-0.01382,-0.07297,0.24107
-0.14796,0.75696,-0.63648,-0.0471,-0.11251,0.2049
-0.11607,0.79353,-0.59736,-0.0239,0.08245,0.24464
-0.08689,0.82649,-0.5562,-0.03066,0.11487,0.15184
-0.0651,0.85527,-0.51408,-0.00924,0.13086,0.11724
-0.04616,0.88205,-0.46887,-0.00303,0.04553,0.12467
-0.02908,0.90632,-0.42158,-0.00747,-0.11082,0.08719
-0.02053,0.92785,-0.37237,0.01023,-0.17001,0.05966
-0.01942,0.94679,-0.32126,0.06451,-0.05194,0.05367
-0.02358,0.96262,-0.2698,0.18661,0.13511,0.05964
-0.03273,0.97405,-0.22396,0.24854,0.18599,0.09169
-0.04541,0.98112,-0.18798,0.23557,0.1001,-0.00852
-0.05813,0.98569,-0.15818,0.11524,-0.11915,-0.08504
-0.07029,0.98887,-0.1311,0.08909,-0.14253,-0.10014
-0.08394,0.99069,-0.10715,0.00754,-0.02211,-0.22975
-0.0955,0.99238,-0.07786,-0.04219,-0.07769,-0.14539
-0.10882,0.99287,-0.0485,-0.00225,-0.11552,-0.14181
-0.1231,0.99212,-0.0233,0.11675,-0.01604,-0.11888
-0.13128,0.99134,0.00063,0.34852,0.11321,-0.10994
-0.13569,0.99047,0.02344,0.32876,0.02458,-0.09709
-0.14097,0.98923,0.03927,0.01231,-0.12528,-0.07446
-0.14767,0.98794,0.04641,-0.04926,-0.19986,-0.14158
-0.15313,0.9869,0.05067,0.02568,-0.17422,-0.27272
-0.15704,0.98603,0.05537,0.20422,-0.1159,-0.19712
-0.15863,0.98535,0.06249,0.23854,-0.12996,-0.12467
-0.16054,0.98455,0.06987,0.16922,-0.09556,-0.0459
-0.16561,0.98343,0.07371,0.13224,-0.03686,-0.11709
-0.17189,0.982,0.07826,0.07025,-0.01714,-0.12397
-0.17899,0.97993,0.08767,-0.09388,0.04416,0.11329
-0.18846,0.97695,0.10019,-0.09506,0.21261,0.21171
-0.19955,0.97288,0.1169,0.00547,0.3837,0.1091
-0.20986,0.96792,0.13811,0.28969,1.06656,0.0503
-0.2204,0.96159,0.16359,-0.23526,0.92548,0.18367
-0.22804,0.95414,0.1939,-0.45738,0.9099,0.10224
-0.23397,0.94685,0.22073,-0.43473,0.71231,0.05141
-0.2409,0.93992,0.24188,0.01348,0.26598,-0.27312
-0.24978,0.93317,0.25845,0.14903,0.2401,-0.40783
-0.26316,0.9269,0.26757,0.22367,0.24589,-0.44136
-0.2732,0.92538,0.26273,0.28465,0.20669,-0.52339
-0.27207,0.93118,0.24262,0.47933,0.09337,-0.51595
-0.26491,0.94072,0.21178,0.351,0.0859,-0.40351
-0.25957,0.94974,0.17495,0.13631,0.03036,-0.32563
-0.25329,0.95829,0.13234,-0.13011,0.02187,-0.24048
-0.24543,0.96568,0.0849,-0.28118,0.12224,-0.08976
-0.23535,0.97123,0.03613,-0.31468,0.21118,-0.05102
-0.22432,0.97445,-0.01047,-0.1586,0.18735,0.1056
-0.21386,0.97519,-0.05714,0.04538,0.09963,0.26494
-0.19948,0.97426,-0.10492,0.1377,0.18614,0.33113
-0.18165,0.97048,-0.15861,-0.05139,0.14222,-0.04702
-0.16676,0.961,-0.2206,-0.10594,0.04402,-0.06416
-0.158,0.94544,-0.2849,-0.11045,-0.06313,-0.01492
-0.15363,0.92538,-0.34651,-0.02676,0.04768,0.05119
-0.15176,0.90235,-0.40341,0.00688,0.04111,0.27055
-0.15332,0.87533,-0.45857,-0.12608,-0.08337,0.32895
-0.15774,0.84348,-0.51347,-0.11708,-0.05608,0.15271
-0.16509,0.80882,-0.5644,-0.05456,-0.07039,0.29423
-0.18122,0.77077,-0.61079,0.0946,-0.18012,0.40973
-0.19836,0.72967,-0.65439,0.03997,-0.33725,0.34959
-0.21423,0.68935,-0.69202,0.03641,-0.35783,0.41362
-0.23149,0.65231,-0.72174,0.09141,-0.4465,0.46025
-0.24554,0.62185,-0.74365,0.19383,-0.48891,0.44641
-0.25725,0.59901,-0.75829,0.15381,-0.51639,0.46137
-0.26575,0.58473,-0.76646,0.12815,-0.50825,0.44804
-0.27536,0.57955,-0.76701,0.22943,-0.49599,0.23713
-0.28943,0.58315,-0.75905,0.20246,-0.46766,0.19271
-0.30688,0.59271,-0.74466,0.26872,-0.32612,0.21365
-0.32079,0.60839,-0.72592,0.35295,-0.19594,0.00346
-0.32505,0.62752,-0.7075,0.27413,-0.2196,-0.10141
-0.32131,0.64853,-0.69005,0.15563,-0.16388,-0.22829
-0.31051,0.66968,-0.67462,0.17686,-0.04823,-0.27652
-0.29161,0.69234,-0.66002,0.17787,-0.05905,-0.37801
-0.26508,0.71552,-0.64634,-0.11123,0.05962,-0.49833
-0.23877,0.73198,-0.63812,-1.06865,1.23201,-1.08364
-0.23944,0.74381,-0.62403,-0.00694,1.10067,-0.08401
-0.23816,0.76494,-0.59846,0.27953,-0.69473,1.03059
-0.22184,0.78511,-0.57826,0.11631,-0.46355,0.12742
-0.21846,0.80666,-0.54915,0.09202,0.04853,0.54955
-0.18837,0.83224,-0.52144,-0.55312,0.58306,0.14447
-0.16795,0.85666,-0.48777,-0.31559,0.62413,0.19912
-0.14519,0.88162,-0.44907,0.10602,0.30996,0.28803
-0.11452,0.90543,-0.40875,0.14949,-0.00409,0.22141
-0.08215,0.92769,-0.3642,0.16025,0.0103,0.20494
-0.05647,0.947,-0.31622,0.14056,0.02412,0.1266
-0.04447,0.96256,-0.26739,0.02495,-0.01633,0.14573
-0.03829,0.97421,-0.22233,-0.09216,-0.08243,0.1244
-0.03624,0.98213,-0.18465,-0.16014,-0.17433,0.04252
-0.03742,0.98774,-0.15153,-0.15078,-0.18115,-0.06871
-0.03818,0.99278,-0.11367,-0.03683,-0.06947,-0.05685
-0.03799,0.99679,-0.07049,0.1089,0.02165,0.09549
-0.03502,0.99891,-0.03083,0.28832,0.04559,0.11236
-0.03438,0.9994,-0.00255,0.20786,0.03151,0.06116
-0.03861,0.9991,0.0174,-0.00213,0.05989,-0.03315
-0.04033,0.99855,0.03541,-0.13774,-0.01226,-0.14161
-0.0391,0.99765,0.05618,-0.15692,-0.01595,-0.11639
-0.03936,0.99595,0.08071,-0.16501,-0.0338,-0.00576
-0.04112,0.99358,0.10531,-0.12881,-0.03292,0.01575
-0.0447,0.99093,0.12667,-0.06479,0.02237,0.0251
-0.05085,0.98798,0.14598,0.06386,0.0332,0.01089
-0.05768,0.98471,0.16435,0.15091,0.01975,-0.05075
-0.06596,0.98103,0.18227,-0.0089,-0.04811,-0.04016
-0.07635,0.97715,0.19833,-0.07096,-0.03408,-0.10379
-0.08992,0.97313,0.21193,-0.20538,-0.01746,-0.17016
-0.10556,0.96859,0.22514,-0.1264,-0.01069,-0.26843
-0.12228,0.96324,0.23919,-0.02567,0.03828,-0.24626
-0.1391,0.95792,0.25105,0.12616,0.20571,-0.12498
-0.15492,0.95402,0.25658,0.13308,0.21119,-0.16875
-0.16752,0.95157,0.25776,0.10357,0.11441,-0.26521
-0.17804,0.94968,0.25768,0.23439,0.09665,-0.25757
-0.187,0.94848,0.25574,0.32883,0.12715,-0.3002
-0.19647,0.94798,0.25044,0.24829,0.12126,-0.42317
-0.2059,0.94812,0.24221,0.12324,0.21222,-0.3695
-0.21421,0.94987,0.22771,0.06353,0.21465,-0.46049
-0.22145,0.95352,0.20431,-0.02966,0.24249,-0.28219
-0.22822,0.95915,0.16716,-0.1322,0.22141,-0.14334
-0.23341,0.96534,0.11672,-0.22247,0.15343,-0.02491
-0.23502,0.97025,0.05808,-0.3045,0.26037,0.1541
-0.23064,0.97303,0.00261,-0.50018,0.40609,0.26976
-0.22027,0.97448,-0.04318,-0.29795,0.14909,0.1185
-0.20054,0.97646,-0.07935,-0.17866,0.15278,0.08311
-0.18027,0.97724,-0.11182,-0.15324,0.17952,0.08302
-0.16369,0.97546,-0.14724,-0.23563,0.07312,0.26902
-0.1468,0.97166,-0.18525,-0.169,-0.02913,0.32179
-0.13595,0.96513,-0.22371,-0.05006,-0.22112,0.24061
-0.12911,0.95701,-0.25974,-0.04555,-0.21767,0.2403
-0.12568,0.94853,-0.29069,-0.04922,-0.21022,0.26093
-0.12136,0.94046,-0.31751,-0.13585,-0.14898,0.20467
-0.11509,0.93301,-0.34094,-0.14772,-0.13526,0.18154
-0.10861,0.92687,-0.35933,-0.17395,-0.13222,0.19136
-0.10189,0.92253,-0.37223,-0.17463,-0.24252,0.327
-0.09566,0.9195,-0.38128,-0.14882,-0.25157,0.3299
-0.08909,0.91809,-0.38623,-0.11569,-0.27716,0.27037
-0.08214,0.91865,-0.38642,-0.04649,-0.27148,0.21115
-0.07628,0.92117,-0.3816,-0.02069,-0.25316,0.20252
-0.07196,0.92543,-0.37202,0.00711,-0.22967,0.1865
-0.06828,0.93124,-0.35794,0.04097,-0.20117,0.18496
-0.06232,0.93834,-0.34006,0.07654,-0.15431,0.10654
-0.05151,0.94627,-0.31924,0.06063,-0.10496,-0.06386
-0.03796,0.95417,-0.29682,0.04998,0.03256,-0.32969
-0.02357,0.96073,-0.27648,0.07779,0.2832,-0.52909
-0.00877,0.96468,-0.26328,0.022,0.66421,-0.7095
0.00344,0.96452,-0.26397,-0.07651,0.71678,-0.66581
0.01147,0.96307,-0.26899,-0.26518,0.25653,-0.31544
0.01382,0.96025,-0.27878,-0.43056,-0.21732,-0.15744
0.01675,0.95872,-0.28386,-0.48676,-0.44616,0.18072
0.02167,0.96238,-0.27084,-0.50776,-0.32908,0.39251
0.02139,0.97115,-0.23752,-0.30442,0.24317,0.84185
0.01871,0.97998,-0.19821,-0.01748,0.88071,0.69258
0.02562,0.97882,-0.20308,0.11255,0.05275,0.33855
0.03146,0.97631,-0.21405,0.02422,-0.59356,0.63336
0.04235,0.98129,-0.18781,0.05377,-0.77994,0.63215
0.05381,0.98582,-0.15893,0.19117,0.37728,0.21624
0.06279,0.98877,-0.13557,0.22019,0.45986,0.3043
0.07574,0.99143,-0.10646,0.06996,0.18953,0.28298
0.08264,0.9931,-0.08318,-0.1771,-0.03891,0.19083
0.08299,0.99416,-0.06886,-0.2321,-0.04261,0.193
0.08569,0.99477,-0.05559,-0.18163,-0.06264,0.25257
0.08807,0.99532,-0.03967,0.11732,-0.01349,0.16728
0.08811,0.99588,-0.02142,0.17707,0.05478,0.08692
0.08744,0.99617,-0.00073,0.10655,0.1592,-0.04105
0.08749,0.99597,0.01955,0.16634,0.20366,-0.09322
0.08618,0.99574,0.0328,0.21788,0.16401,-0.1069
0.08443,0.9957,0.03802,0.28686,0.13173,-0.10567
0.08569,0.99541,0.04259,0.10664,-0.03624,-0.23049
0.08646,0.99534,0.04254,0.01796,-0.10551,-0.2437
0.08492,0.99569,0.03713,-0.09995,-0.10783,-0.22131
0.08194,0.9962,0.02941,-0.10014,-0.07251,-0.16656
0.07822,0.99675,0.01904,-0.03313,-0.05286,-0.19231
0.07355,0.99728,0.00398,0.06953,-0.05955,-0.0271
0.07015,0.9975,-0.00791,0.07347,-0.11222,0.07219
0.06655,0.99772,-0.01102,0.06814,-0.18951,0.23991
0.05912,0.99823,-0.00521,-0.08784,-0.14747,0.1527
0.04583,0.99892,0.00653,-0.08813,0.22491,0.18257
0.02917,0.99915,0.02904,-0.15316,0.38005,0.09268
0.01065,0.99845,0.05467,-0.13663,0.61113,-0.06544
-0.00362,0.99638,0.08489,-0.19221,0.72391,-0.00336
-0.01583,0.99319,0.11543,-0.23734,0.8424,-0.01239
-0.02781,0.98918,0.144,0.01983,0.71619,-0.15823
-0.04097,0.98485,0.16847,0.07819,0.53839,-0.20432
-0.05249,0.98123,0.18554,-0.0269,0.39139,-0.25161
-0.06173,0.97914,0.19355,-0.27168,0.12826,-0.24548
-0.06875,0.9788,0.19291,-0.21993,0.15288,-0.46461
-0.07204,0.9808,0.18123,-0.15657,0.20762,-0.53168
-0.06871,0.98556,0.15473,0.02867,0.21592,-0.54319
-0.05855,0.99158,0.11549,-0.03703,0.11999,-0.22284
-0.04985,0.9961,0.07271,-0.17612,0.09083,-0.06693
-0.0463,0.99864,0.02408,-0.4067,0.14805,-0.20499
-0.04288,0.99856,-0.03227,-0.29654,0.29191,-0.23622
-0.03363,0.99569,-0.08641,-0.14928,0.45838,-0.18118
-0.01586,0.98998,-0.14033,-0.00664,0.57367,0.11404
0.0038,0.97934,-0.20216,0.08412,0.58932,0.34623
0.01652,0.96226,-0.27161,0.00802,0.53298,0.288
0.02122,0.93977,-0.34114,-0.10723,0.42157,0.23256
0.01931,0.91177,-0.41024,-0.13725,0.39342,0.33697
0.01325,0.87585,-0.4824,-0.20093,0.33614,0.36109
0.00838,0.83362,-0.55228,-0.29071,0.05501,0.13437
0.00659,0.78969,-0.61347,-0.21507,0.11805,0.25698
0.00272,0.74163,-0.6708,-0.16688,0.16902,0.38789
-0.01393,0.68362,-0.72971,0.13304,0.28083,0.64682
-0.03469,0.61731,-0.78596,0.0338,0.13085,0.5828
-0.06162,0.54549,-0.83585,0.00134,0.02215,0.56647
-0.09669,0.4714,-0.8766,0.0431,-0.11928,0.69745
-0.1333,0.39712,-0.90803,0.02753,-0.45021,0.72303
-0.16358,0.3301,-0.92966,0.07558,-0.36608,0.7774
-0.18437,0.27288,-0.94422,0.22242,-0.12984,0.81134
-0.2012,0.22393,-0.95361,0.17917,-0.20606,0.81192
-0.2145,0.18462,-0.95912,0.08994,-0.28628,0.76307
-0.22321,0.15673,-0.96209,0.16457,-0.27703,0.62002
-0.22934,0.14081,-0.96311,0.51722,-0.0265,0.5279
-0.23346,0.13478,-0.96298,0.28369,-0.14813,0.40495
-0.2358,0.13588,-0.96225,0.28279,-0.14899,0.27541
-0.23755,0.1425,-0.96086,0.21822,-0.18201,-0.07782
-0.23832,0.15194,-0.95923,0.26273,-0.12987,-0.19539
-0.2379,0.16133,-0.9578,0.21283,-0.03064,-0.22048
-0.24099,0.17165,-0.95523,0.02912,-0.15926,-0.36812
-0.24585,0.18547,-0.9514,-0.02687,-0.12668,-0.66462
-0.24868,0.19909,-0.9479,-0.18873,0.25748,-1.39707
-0.27113,0.21733,-0.93769,0.49523,0.20815,-0.76539
-0.3069,0.24633,-0.91931,-0.04417,-0.15705,-0.20548
-0.31742,0.29169,-0.90231,-0.70415,-0.11825,0.22134
-0.31804,0.34342,-0.88369,-0.0709,0.58863,-0.22967
-0.29727,0.39889,-0.86747,0.18008,0.67313,0.29019
-0.26291,0.45236,-0.8522,-0.21856,0.29717,0.21905
-0.22891,0.50125,-0.83447,-0.06489,0.21614,0.27388
-0.19027,0.55239,-0.81158,-0.02253,0.11796,0.3574
-0.14972,0.60494,-0.78207,-0.1261,0.05823,0.48653
-0.11136,0.65619,-0.74634,-0.14246,0.1019,0.56087
-0.07283,0.70669,-0.70376,-0.15508,0.23238,0.47731
-0.04014,0.75359,-0.65612,-0.13169,0.32925,0.38843
-0.01187,0.79485,-0.60669,0.00025,0.33969,0.34615
0.01036,0.82959,-0.55827,0.08966,0.15117,0.29175
0.02181,0.85927,-0.51106,0.07295,-0.02425,0.24116
0.02691,0.88466,-0.46545,0.0657,0.02336,0.18619
0.02585,0.90587,-0.42276,0.04241,0.05087,0.20613
0.01972,0.9236,-0.38284,0.06199,0.03465,0.20625
0.01284,0.93834,-0.34546,0.04399,-0.03675,0.21479
0.0048,0.94974,-0.31299,0.05442,0.0099,0.09702
-0.00499,0.95838,-0.28546,-0.05738,-0.00042,-0.03369
-0.01111,0.96564,-0.25965,-0.09439,-0.06717,-0.11538
-0.01508,0.97199,-0.23453,-0.09546,-0.13396,-0.17781
-0.01715,0.97782,-0.20875,-0.0322,-0.12476,-0.12522
-0.01858,0.98261,-0.18476,0.13865,-0.09735,-0.10154
-0.02114,0.98622,-0.16407,0.17712,-0.09851,-0.10789
-0.02461,0.98884,-0.14694,0.2207,-0.13686,-0.05365
-0.03025,0.99087,-0.1314,0.11003,-0.19919,-0.08684
-0.03738,0.99246,-0.11671,0.08344,-0.1803,-0.13987
-0.04297,0.99412,-0.09942,0.08454,-0.14179,-0.10961
-0.04707,0.99598,-0.07619,-0.00851,-0.09767,0.05444
-0.05412,0.99708,-0.05388,-0.12637,0.04136,0.06338
-0.06356,0.99744,-0.03272,-0.14262,0.13537,0.09187
-0.0736,0.99724,-0.00946,-0.27782,0.27693,0.19504
-0.08215,0.9965,0.01523,-0.14893,0.59886,0.25186
-0.08671,0.9954,0.04077,0.1806,0.78509,0.33818
-0.09049,0.99337,0.07085,-0.12217,0.50089,0.16356
-0.09129,0.9902,0.10568,-0.13747,0.61811,0.20434
-0.08927,0.98622,0.13927,0.08269,0.65887,-0.02582
-0.08428,0.98209,0.16848,0.13569,0.41976,-0.17399
-0.07876,0.97857,0.19026,-0.08504,0.49239,-0.24041
-0.07665,0.97682,0.19986,-0.23236,0.45514,-0.40562
-0.07239,0.97928,0.18913,0.03063,0.39967,-0.75051
-0.06508,0.98595,0.15385,0.04995,0.34876,-0.82557
-0.05186,0.9929,0.10702,0.15812,0.27124,-0.68956
-0.03234,0.99781,0.0577,0.08758,0.24358,0.1301
-0.01185,0.99988,0.00992,-0.08065,0.22673,0.47672
-0.00375,0.99912,-0.0417,-0.47378,0.23995,0.75501
-0.01494,0.99438,-0.10485,-0.53945,0.34983,0.34166
-0.03069,0.98379,-0.17666,-0.52184,0.33223,0.29954
-0.03882,0.96656,-0.25347,-0.29332,0.43087,0.17419
-0.03832,0.94265,-0.33158,0.10057,0.35098,0.11786
-0.0388,0.9133,-0.40544,0.17631,0.29287,0.20766
-0.04427,0.87935,-0.47411,0.1711,0.06833,0.44087
-0.05295,0.83861,-0.54216,-0.12221,0.14456,0.53868
-0.06412,0.78981,-0.60999,-0.30686,0.16869,0.43514
-0.08611,0.73216,-0.67567,-0.23414,0.02773,0.33811
-0.11657,0.66697,-0.7359,-0.15265,0.00992,0.36422
-0.14771,0.59995,-0.78629,0.09068,0.07364,0.59221
-0.1751,0.53004,-0.8297,0.1352,-0.00442,0.59166
-0.20374,0.45893,-0.8648,0.19032,-0.01378,0.59771
-0.23606,0.38979,-0.89013,0.29619,-0.2335,0.6329
-0.26778,0.32544,-0.90685,0.22782,-0.21552,0.68185
-0.29548,0.26783,-0.91704,0.18716,-0.25923,0.70401
-0.31485,0.2189,-0.92355,0.02427,-0.4031,0.59178
-0.32846,0.18069,-0.92707,0.00309,-0.31221,0.63973
-0.33418,0.15459,-0.92974,0.00075,-0.42174,0.529
-0.33403,0.14081,-0.93198,-0.15457,-0.51868,0.28884
-0.33508,0.13846,-0.93196,0.14979,-0.42478,0.17127
-0.3331,0.14134,-0.93224,0.35005,-0.38484,0.20255
-0.33069,0.14961,-0.93181,0.49797,-0.28709,0.04336
-0.33026,0.16505,-0.92935,0.39014,-0.17505,-0.22623
-0.33532,0.18703,-0.92335,0.25607,-0.19102,-0.35387
-0.34162,0.21419,-0.91511,0.10062,-0.24991,-0.60671
-0.34233,0.23876,-0.90874,-0.41091,0.85296,-1.42715
-0.36246,0.25941,-0.89517,-0.48691,0.34862,-0.56373
-0.39077,0.28607,-0.87491,-0.09451,-0.06571,-0.01472
-0.39597,0.32519,-0.85876,-0.30029,-0.49885,0.55645
-0.38683,0.37496,-0.84248,-0.29216,-0.05514,0.01765
-0.35655,0.42768,-0.83064,-0.07309,0.45174,0.30798
-0.31804,0.48051,-0.81729,-0.45574,0.32304,0.30233
-0.28231,0.52741,-0.80134,-0.12368,0.38195,0.22436
-0.24156,0.57371,-0.78263,0.10397,0.22614,0.28197
-0.19764,0.62099,-0.75849,0.01521,0.08619,0.36678
-0.15645,0.66634,-0.72905,-0.10322,0.07282,0.36364
-0.12222,0.70833,-0.69522,-0.15757,0.11456,0.37451
-0.09329,0.74644,-0.65888,-0.1814,0.25037,0.26264
-0.06752,0.78151,-0.62023,-0.1156,0.30223,0.25928
-0.04157,0.81424,-0.57904,0.00381,0.21292,0.26503
-0.01975,0.84386,-0.53621,0.08005,0.04636,0.19606
-0.00469,0.87093,-0.49138,0.14524,-0.05811,0.15102
0.00539,0.89567,-0.44469,0.19316,-0.02389,0.16042
0.00883,0.91669,-0.39951,0.26931,0.05242,0.16096
0.00477,0.93399,-0.35727,0.10662,0.02676,0.19864
-0.00472,0.94725,-0.32045,0.01535,-0.0296,0.1323
-0.01584,0.95761,-0.28763,-0.12231,-0.10185,0.0667
-0.02527,0.96639,-0.25583,-0.0886,0.09008,-0.05811
-0.03014,0.9751,-0.21971,-0.06877,0.15503,-0.01421
-0.03605,0.9818,-0.18649,0.00031,0.07567,0.08453
-0.0469,0.98584,-0.161,-0.08854,-0.07652,-0.03943
-0.0546,0.98913,-0.13656,-0.0138,0.00123,-0.14942
-0.05605,0.99238,-0.10972,0.11447,0.1148,-0.0409
-0.05515,0.99481,-0.08545,0.23492,0.05816,-0.00986
-0.05819,0.99599,-0.06802,0.0525,-0.17982,-0.07589
-0.06225,0.99655,-0.05485,0.0159,-0.16147,-0.12735
-0.06511,0.9969,-0.04412,0.02505,-0.12384,-0.10212
-0.06765,0.99712,-0.03431,-0.04478,-0.11049,-0.06207
-0.07272,0.99706,-0.02403,-0.01995,-0.12048,0.02871
-0.07902,0.99675,-0.01585,0.03056,-0.12832,0.04818
-0.08666,0.9962,-0.00812,-0.00481,-0.17299,0.01708
-0.09524,0.99545,0.00224,0.06042,-0.12349,0.128
-0.10359,0.99449,0.01614,-0.09891,0.00991,0.213
-0.11317,0.99309,0.03099,-0.16529,0.27178,0.18036
-0.12256,0.9913,0.04808,-0.22061,0.55851,0.36466
-0.13291,0.98891,0.06626,0.01402,0.84425,0.30448
-0.14162,0.98625,0.08523,0.10825,0.72228,0.23993
-0.14545,0.98357,0.10692,0.06641,0.37693,0.11502
-0.14564,0.98097,0.12842,0.03504,0.33292,0.01851
-0.14084,0.97854,0.15044,0.02494,0.34381,-0.03342
-0.13364,0.97628,0.17038,-0.06279,0.44383,-0.11516
-0.12971,0.97424,0.18446,-0.27406,0.31786,-0.20729
-0.12689,0.97375,0.18899,-0.28974,0.23045,-0.29905
-0.12299,0.97658,0.17653,-0.10106,0.18599,-0.41959
-0.11744,0.98167,0.15013,0.00527,0.11983,-0.44142
-0.10599,0.98744,0.11715,0.04926,0.03436,-0.38109
-0.08568,0.99322,0.07855,0.073,0.0803,-0.20901
-0.06059,0.99748,0.03685,-0.13581,0.3134,0.23039
-0.03975,0.99921,-0.00266,-0.25404,0.29997,0.38096
-0.02517,0.99886,-0.04052,-0.36122,0.12492,0.45364
-0.01699,0.99595,-0.08833,-0.24579,0.07151,0.37304
-0.00802,0.98925,-0.14599,-0.1359,0.15635,0.11379
0.00575,0.97888,-0.20437,-0.04837,0.22693,0.12374
0.0173,0.96466,-0.26293,-0.10657,0.06129,0.17563
0.02145,0.94613,-0.32309,-0.14607,0.01023,0.19414
0.01753,0.92307,-0.38422,-0.27344,-0.05885,0.25303
0.00531,0.89642,-0.44316,-0.44533,-0.01456,0.28258
-0.01277,0.86642,-0.49915,-0.41957,0.03144,0.30785
-0.02903,0.83318,-0.55224,-0.39084,-0.00059,0.28138
-0.04294,0.79606,-0.6037,-0.21478,-0.06676,0.25064
-0.0528,0.75772,-0.65044,-0.17565,-0.09015,0.37366
-0.06552,0.71692,-0.69407,-0.01324,-0.12517,0.47416
-0.08498,0.6729,-0.73483,0.07225,-0.03799,0.41785
-0.1094,0.62831,-0.77023,0.09688,-0.06332,0.41859
-0.14007,0.58532,-0.79861,0.21459,-0.17691,0.46885
-0.16948,0.54649,-0.82014,0.20381,-0.36187,0.46226
-0.19438,0.51584,-0.83435,0.05446,-0.40026,0.39117
-0.21617,0.49526,-0.84142,-0.05716,-0.40334,0.38631
-0.23176,0.48535,-0.84304,-0.06532,-0.40452,0.34779
-0.24174,0.48653,-0.83955,-0.06145,-0.28126,0.31462
-0.25038,0.49428,-0.83246,0.04568,-0.22394,0.31308
-0.25574,0.50819,-0.8224,0.06229,-0.25847,0.13709
-0.2548,0.52797,-0.81014,-0.0258,-0.24736,0.15285
-0.24446,0.55121,-0.79776,-0.00426,-0.17439,0.03358
-0.22655,0.57773,-0.78415,0.00101,-0.13749,-0.04473
-0.20601,0.60692,-0.7676,-0.00739,-0.10416,-0.15321
-0.18426,0.63092,-0.75365,-0.2987,0.57393,-1.3833
-0.16936,0.63728,-0.7518,-0.81717,1.05197,-0.25855
-0.18434,0.65748,-0.73057,0.06285,0.56809,0.42263
-0.15993,0.68334,-0.71236,-0.6012,-0.52836,-0.19048
-0.1523,0.70799,-0.68961,0.47106,-0.38004,0.11093
-0.11651,0.73966,-0.66281,0.87968,-0.11886,0.70128
-0.06537,0.77072,-0.63381,-0.60316,0.63439,0.01602
-0.03687,0.80092,-0.59763,-0.24011,0.55429,0.37495
-0.01082,0.82724,-0.56174,-0.17203,0.31429,0.36587
0.01496,0.85129,-0.52449,-0.18577,-0.08456,0.25288
0.03829,0.87472,-0.48311,-0.09083,-0.02117,0.24147
0.05723,0.89631,-0.43973,-0.11156,0.003,0.24107
0.07433,0.91494,-0.39669,-0.07228,0.08798,0.2351
0.08791,0.93041,-0.35583,0.0057,0.06032,0.16899
0.09907,0.94295,-0.31785,-0.12519,-0.04964,0.16881
0.11257,0.95367,-0.27901,-0.15153,-0.08343,-0.03128
0.12945,0.96311,-0.23592,0.06896,-0.12607,0.1223
0.14919,0.97041,-0.18985,0.1268,-0.13525,0.10833
0.16423,0.97514,-0.14877,0.16676,-0.02558,0.09021
0.16637,0.97879,-0.11956,0.07873,0.08034,0.11065
0.16121,0.98204,-0.09798,-0.04732,0.06659,0.07806
0.15769,0.98473,-0.07371,-0.22982,0.04374,-0.02237
0.15835,0.98635,-0.04514,-0.42221,-0.01809,-0.02612
0.16244,0.98664,-0.01235,-0.36488,-0.06638,-0.02551
0.16337,0.98638,0.0192,-0.20497,-0.09305,0.01295
0.16193,0.9856,0.04869,-0.05797,-0.01841,0.09957
0.15979,0.98416,0.07673,0.06067,0.07312,0.12001
0.15521,0.98256,0.10243,-0.0418,0.02617,0.00951
0.14938,0.98051,0.12759,-0.19294,-0.13717,-0.15913
0.14163,0.97808,0.15262,-0.18038,-0.18604,-0.18893
0.13236,0.9752,0.1774,-0.07,-0.05733,-0.09608
0.12251,0.97191,0.20095,0.11429,0.12457,-0.05205
0.11087,0.96883,0.22152,0.09877,0.14662,-0.13622
0.09814,0.96615,0.23857,-0.04867,0.18126,-0.2821
0.08757,0.96387,0.25157,0.05929,0.12807,-0.18971
0.08097,0.96217,0.26014,0.13999,0.16807,-0.15136
0.0753,0.96185,0.263,0.05636,0.17449,-0.3263
0.06849,0.96259,0.26217,-0.1443,0.20126,-0.33549
0.0632,0.9649,0.25489,-0.20226,0.24445,-0.38371
0.05944,0.96953,0.23765,-0.30905,0.40163,-0.34516
0.05406,0.9767,0.20767,-0.35795,0.39726,-0.26926
0.04393,0.98566,0.1629,-0.48898,0.27189,-0.14723
0.02979,0.99373,0.10775,-0.65522,0.28618,0.14254
0.0186,0.9981,0.05872,-0.61784,0.27831,0.42486
0.01444,0.99971,0.01903,-0.49935,0.22287,0.50372
0.01992,0.9997,-0.01457,-0.02628,0.22607,0.25969
0.02754,0.99808,-0.05539,-0.08735,0.20957,0.10297
0.03024,0.99464,-0.09883,-0.15348,0.17175,0.16116
0.0283,0.98944,-0.14218,-0.14529,-0.21394,0.24107
0.02713,0.98242,-0.18469,-0.10198,-0.20219,0.2604
0.02558,0.97409,-0.2247,-0.08628,-0.19534,0.21905
0.02389,0.96522,-0.26035,-0.13413,-0.18247,0.15638
0.02118,0.95686,-0.28977,-0.17612,-0.10127,0.20499
0.01706,0.94862,-0.31594,-0.21983,-0.08816,0.22924
0.01424,0.94172,-0.33609,-0.30777,-0.14527,0.27805
0.011,0.93703,-0.34907,-0.34943,-0.20243,0.30099
0.00879,0.93455,-0.35573,-0.25633,-0.24055,0.29375
0.00977,0.93361,-0.35815,-0.16996,-0.27648,0.21079
0.01462,0.93408,-0.35676,-0.11197,-0.27632,0.09309
0.02049,0.93603,-0.35131,-0.08902,-0.26218,0.07993
0.02433,0.93975,-0.34099,-0.04322,-0.2629,0.08609
0.02629,0.94528,-0.3252,0.02063,-0.27682,0.05629
0.02848,0.95227,-0.30394,0.07127,-0.24298,-0.03081
0.03312,0.95965,-0.27922,0.0538,-0.15379,-0.2124
0.04079,0.96601,-0.25525,0.00165,-0.03733,-0.41942
0.0523,0.97075,-0.23432,-0.05445,0.09767,-0.56976
0.06101,0.974,-0.21819,-0.195,0.36994,-0.63541
0.06176,0.97552,-0.21106,-0.38247,0.59571,-0.63001
0.06077,0.97625,-0.20796,-0.38308,0.43335,-0.47819
0.05838,0.97696,-0.20527,-0.38123,-0.11302,-0.19121
0.0576,0.97803,-0.20034,-0.42181,-0.56189,-0.00361
0.05503,0.98148,-0.18347,-0.50054,-0.64629,0.07826
0.05303,0.98759,-0.14782,-0.42325,-0.51771,0.18976
0.05346,0.99464,-0.08845,0.09928,1.0035,0.86273
0.05156,0.99848,-0.0195,0.09547,1.59503,1.0023
0.04195,0.99911,0.00377,-0.14141,0.87455,0.0569
0.05704,0.99837,-0.00321,0.12173,-0.23854,-0.12899
0.08033,0.99675,0.00552,0.14269,-0.48183,0.04505
0.09883,0.99459,0.03202,-0.18071,-0.562,0.54356
0.1052,0.99236,0.06441,-0.31235,-0.39504,0.56407
0.10073,0.99086,0.08974,-0.42502,-0.06624,0.33084
0.09204,0.99012,0.10581,-0.20064,0.29831,-0.18462
0.08529,0.98956,0.11616,-0.01055,0.18756,-0.17253
0.08732,0.98679,0.13645,0.04035,-0.0064,0.057
0.09495,0.98132,0.16732,-0.0732,-0.02273,0.41113
0.1018,0.97579,0.19358,-0.05387,-0.02983,0.39294
0.10344,0.97384,0.20233,0.04557,-0.04879,0.30042
0.10305,0.97329,0.20513,0.26642,0.06658,-0.12807
0.10129,0.9708,0.21744,0.0703,0.08317,-0.15728
0.09871,0.96619,0.23815,-0.04845,0.07977,-0.12931
0.09213,0.96139,0.2593,-0.10533,0.03361,-0.02378
0.07975,0.95796,0.27558,0.00995,0.06918,-0.18514
0.0651,0.95544,0.28789,0.09611,0.08845,-0.24263
0.05017,0.95284,0.29928,0.29884,0.08177,-0.14915
0.03515,0.95022,0.30957,0.19892,-0.01318,-0.15113
0.02143,0.94844,0.31621,0.09536,-0.01877,-0.15805
0.00988,0.94696,0.3212,-0.04802,-0.01414,-0.16614
-0.00094,0.94488,0.32741,0.03422,0.00213,-0.15914
-0.01287,0.94182,0.33586,0.089,0.00897,-0.13971
-0.02537,0.93796,0.34581,0.10848,0.05971,-0.14543
-0.03759,0.93394,0.35545,0.0858,0.08924,-0.1898
-0.04829,0.92986,0.36472,0.08395,0.12167,-0.21232
-0.05787,0.92579,0.37357,0.07272,0.16579,-0.27457
-0.06738,0.92196,0.38136,0.02615,0.22124,-0.34109
-0.07655,0.91809,0.38891,0.03734,0.33193,-0.34177
-0.08526,0.91514,0.394,0.09182,0.49918,-0.47354
-0.09482,0.914,0.39446,0.09987,0.60406,-0.47144
-0.1049,0.91576,0.38778,0.22534,0.59588,-0.25183
-0.11579,0.92222,0.3689,0.11857,0.46379,-0.35133
-0.12357,0.93367,0.33614,-0.11395,0.57604,-0.65359
-0.12371,0.94723,0.29571,-0.16897,0.55894,-0.47207
-0.12415,0.96185,0.24377,-0.12832,0.45415,-0.04422
-0.12402,0.97558,0.18127,-0.11107,0.41706,0.22624
-0.11884,0.98538,0.12207,-0.15575,0.37017,0.28772
-0.10899,0.99141,0.07231,-0.12598,0.26389,0.17981
-0.09736,0.99494,0.02462,0.11268,0.25182,-0.01578
-0.08618,0.99594,-0.02578,0.15469,0.31395,-0.03234
-0.0748,0.99361,-0.08453,0.28454,0.37143,0.0971
-0.06384,0.98653,-0.15057,0.30111,0.22524,0.22334
-0.05962,0.97309,-0.22255,0.09156,0.04958,0.13333
-0.06421,0.95246,-0.29781,-0.09842,-0.00127,0.02689
-0.0733,0.92639,-0.36935,-0.24269,0.02002,0.11917
-0.08316,0.89467,-0.43891,-0.05695,0.117,0.10789
-0.09484,0.85737,-0.50588,0.08605,0.10285,0.26398
-0.11081,0.81233,-0.57257,0.12163,0.12992,0.25388
-0.13266,0.76106,-0.63497,0.10982,0.16875,0.33297
-0.15791,0.70402,-0.6924,0.00096,0.0756,0.32389
-0.188,0.64283,-0.74258,0.02371,-0.1052,0.32376
-0.21921,0.58105,-0.78379,0.01857,-0.10659,0.43308
-0.25092,0.52025,-0.81632,-0.04481,-0.26781,0.50429
-0.27944,0.46341,-0.84093,0.04315,-0.41008,0.53568
-0.30293,0.41272,-0.85901,0.13872,-0.28405,0.5191
-0.32081,0.37076,-0.87156,0.12067,-0.38901,0.57545
-0.33547,0.3392,-0.87886,0.26272,-0.29202,0.63454
-0.34434,0.31806,-0.88333,0.02031,-0.46261,0.4342
-0.35082,0.30813,-0.8843,0.11013,-0.38101,0.34217
-0.3538,0.30968,-0.88256,0.09773,-0.33591,0.36988
-0.35533,0.31938,-0.87848,0.20909,-0.25829,0.31667
-0.35128,0.33447,-0.87449,0.09971,-0.18537,0.01183
-0.3419,0.35169,-0.87145,0.23558,-0.14658,-0.09978
-0.32929,0.36804,-0.86955,0.14128,-0.18194,-0.28351
-0.31338,0.37624,-0.87191,0.05572,0.43327,-1.05612
-0.29787,0.37356,-0.87848,0.00296,0.35563,-1.04297
-0.3034,0.37289,-0.87687,-0.12687,-0.06739,-0.67011
-0.33032,0.389,-0.85998,0.22166,-0.25074,0.24903
-0.34458,0.41867,-0.84023,-0.32794,-0.38073,0.20217
-0.3439,0.45775,-0.81988,-0.41626,0.13852,-0.46474
-0.33357,0.49907,-0.79979,-0.08032,0.25601,-0.17772
-0.3113,0.54223,-0.78043,-0.32504,0.07992,0.27307
-0.29607,0.58296,-0.75664,0.01136,0.07007,0.15059
-0.2792,0.62219,-0.73138,0.07005,0.03835,0.09236
-0.24767,0.66335,-0.70613,-0.16022,-0.0566,0.18692
-0.20704,0.70458,-0.67875,-0.19162,-0.0598,0.2064
-0.16174,0.74296,-0.64949,-0.08083,-0.07585,0.26151
-0.11311,0.7786,-0.61725,-0.02168,-0.05589,0.29713
-0.06551,0.8123,-0.57954,0.00394,3e-05,0.28819
-0.02685,0.84251,-0.53801,-0.09641,0.0949,0.16705
0.00102,0.86953,-0.49388,-0.1423,0.1319,0.18373
0.01963,0.89404,-0.44756,-0.05885,0.02445,0.12914
0.02856,0.91468,-0.40316,0.039,-0.04965,0.03463
0.03402,0.93291,-0.3585,0.10795,-0.01488,0.04724
0.03507,0.94917,-0.31279,0.21975,0.03474,0.05826
0.03099,0.96225,-0.27038,0.36857,0.05076,0.0795
0.02419,0.97238,-0.23215,0.40773,0.06597,0.02622
0.01642,0.97998,-0.19838,0.27403,-0.02048,-0.0134
0.009,0.98567,-0.16842,0.12613,-0.11224,-0.03018
0.00292,0.98997,-0.14124,0.02079,-0.15142,-0.08839
-0.00299,0.99361,-0.1128,-0.1365,-0.14386,-0.16751
-0.01002,0.99667,-0.08083,-0.1499,-0.07485,-0.17721
-0.02207,0.99838,-0.05238,-0.07364,0.05786,-0.19915
-0.035,0.99897,-0.02877,0.07069,0.16331,-0.16459
-0.04353,0.99901,-0.00858,0.09318,0.08064,-0.15764
-0.0518,0.99863,0.00734,-0.00706,-0.1041,-0.18057
-0.06216,0.99791,0.01716,0.01448,-0.1384,-0.25074
-0.07126,0.99711,0.02609,0.16995,-0.15947,-0.21497
-0.07767,0.99643,0.03309,0.1922,-0.08244,-0.14838
-0.08274,0.99592,0.03594,0.1318,-0.10533,-0.16629
-0.08911,0.99539,0.03527,0.12983,-0.20027,-0.1903
-0.09509,0.9949,0.03352,0.15888,-0.23018,-0.16173
-0.09793,0.99451,0.03679,0.21606,-0.29535,-0.04045
-0.09985,0.994,0.04455,0.10652,-0.08252,-0.04669
-0.1022,0.99327,0.05443,0.11287,0.02637,-0.07573
-0.10384,0.99207,0.07074,-0.01336,0.26826,0.22238
-0.10834,0.99003,0.08993,-0.18735,0.4847,0.09507
-0.11466,0.98715,0.11129,-0.18072,0.63036,0.10853
-0.11849,0.9834,0.13741,0.31671,0.84863,0.07264
-0.12022,0.97762,0.17263,0.12632,0.75448,0.09298
-0.12029,0.9693,0.21441,-0.01087,0.92344,-0.02447
-0.11514,0.9602,0.25448,-0.08846,0.90155,-0.2038
-0.11057,0.95164,0.2866,-0.24273,0.54097,-0.42925
-0.11113,0.94454,0.309,-0.26219,0.50219,-0.53358
-0.11432,0.94053,0.31987,0.06377,0.28646,-0.62572
-0.11457,0.9429,0.31273,0.3756,0.26336,-0.82243
-0.10614,0.95208,0.28684,0.52414,0.19181,-0.77713
-0.09107,0.96442,0.24816,0.42708,0.16244,-0.50136
-0.07237,0.97573,0.20663,0.24926,0.16778,-0.04831
-0.05091,0.98559,0.16127,-0.0541,0.16074,0.3797
-0.03624,0.99325,0.11012,-0.24756,0.22966,0.30099
-0.03583,0.99816,0.0489,-0.39751,0.28569,0.20414
-0.04281,0.99881,-0.02333,-0.36791,0.20563,0.07469
-0.04349,0.99393,-0.10105,-0.06753,0.25798,0.00422
-0.03963,0.9835,-0.17651,0.16446,0.141,-0.00853
-0.03904,0.96752,-0.24976,0.20979,0.02815,0.07047
-0.04564,0.94677,-0.31866,0.0742,-0.06466,0.25564
-0.05897,0.92079,-0.38558,-0.2166,-0.00785,0.12461
-0.07036,0.88954,-0.4514,-0.24761,0.0695,0.06361
-0.08595,0.85426,-0.51268,-0.23534,0.08334,0.03763
-0.10364,0.81571,-0.56911,0.02573,-0.11437,0.20949
-0.11978,0.77233,-0.62383,0.22025,0.02455,0.37456
-0.13976,0.72299,-0.67657,0.28647,0.07584,0.37654
-0.16782,0.66594,-0.72688,0.24457,0.10186,0.34948
-0.20299,0.60346,-0.77112,0.10295,-0.21909,0.35173
-0.24311,0.5401,-0.80572,0.10567,-0.21826,0.40727
-0.28234,0.47874,-0.83132,0.05543,-0.17435,0.42599
-0.31397,0.42245,-0.85027,0.05803,-0.15191,0.48546
-0.33879,0.37157,-0.86439,0.20909,-0.2296,0.48469
-0.35665,0.32794,-0.87479,0.25383,-0.26031,0.55185
-0.36766,0.29375,-0.88235,0.16295,-0.34407,0.56748
-0.37352,0.26903,-0.88775,0.19664,-0.33394,0.36638
-0.37629,0.25445,-0.89087,0.20748,-0.3683,0.28257
-0.37798,0.24984,-0.89147,0.23566,-0.35089,0.28456
-0.37971,0.2517,-0.89021,0.27526,-0.2957,0.17015
-0.38125,0.2592,-0.88739,0.3253,-0.2899,0.05611
-0.3782,0.27114,-0.88512,0.23784,-0.3132,-0.03938
-0.37099,0.28535,-0.88371,0.26282,-0.34516,-0.0631
-0.36219,0.30494,-0.88081,0.14446,-0.38987,-0.22969
-0.35251,0.3258,-0.87726,-0.0274,0.09628,-0.98643
-0.34399,0.33884,-0.8757,-0.28038,0.72224,-1.23534
-0.36541,0.35465,-0.86064,0.09044,0.26284,-0.68018
-0.39456,0.38108,-0.83612,-0.21998,-0.61152,0.58622
-0.39343,0.41868,-0.81848,-0.50268,-0.14625,-0.08854
-0.39109,0.46288,-0.79548,0.33263,0.51046,-0.1352
-0.36932,0.50919,-0.77738,0.15452,0.46186,0.25164
-0.34343,0.55414,-0.75827,-0.11045,0.23585,0.21717
-0.32014,0.5954,-0.73689,0.03683,0.16333,0.05417
-0.28986,0.63683,-0.71445,0.01642,0.06802,0.22575
-0.25198,0.6792,-0.68934,-0.04499,-0.03345,0.2806
-0.21253,0.7196,-0.66107,-0.05074,-0.07387,0.25335
-0.17529,0.75713,-0.62931,-0.05681,-0.063,0.21743
-0.13975,0.79127,-0.59528,-0.00859,0.06037,0.17252
-0.10795,0.82196,-0.55922,0.10518,0.16548,0.1791
-0.07879,0.85061,-0.51986,0.10144,0.13567,0.16558
-0.05565,0.87654,-0.47811,0.11962,0.07892,0.11235
-0.04046,0.89961,-0.43481,0.09251,-0.07565,0.04343
-0.02934,0.92073,-0.38909,0.0821,-0.11905,0.07009
-0.02216,0.93943,-0.34202,0.08054,-0.12342,0.03404
-0.02112,0.95535,-0.29473,0.14362,-0.06576,0.06264
-0.02331,0.9684,-0.24831,0.22755,-0.05096,0.0667
-0.02527,0.97836,-0.20534,0.24213,-0.05129,0.02222
-0.02593,0.986,-0.16472,0.12859,-0.07337,-0.00774
-0.0279,0.99128,-0.12874,-0.01507,-0.07592,-0.09803
-0.03391,0.99468,-0.09725,-0.09956,-0.07184,-0.16023
-0.04089,0.99721,-0.06248,-0.25267,-0.01097,-0.21127
-0.052,0.99818,-0.03062,-0.14262,-0.01676,-0.24575
-0.06363,0.99797,-0.00258,0.11417,0.12921,-0.13973
-0.07136,0.99718,0.02323,0.26365,0.09764,-0.17707
-0.0751,0.99607,0.04701,0.24197,0.09172,-0.15089
-0.07725,0.9949,0.06489,0.17416,0.04061,-0.06282
-0.0815,0.99407,0.07193,-0.04071,-0.07157,-0.12603
-0.08725,0.99359,0.07179,-0.17412,-0.14658,-0.21736
-0.09498,0.99295,0.07097,-0.06417,-0.17309,-0.22292
-0.10229,0.99205,0.07331,0.08494,-0.14032,-0.28844
-0.10582,0.99127,0.07858,0.2331,-0.1044,-0.09129
-0.10821,0.99056,0.08419,0.33874,-0.14702,0.06359
-0.11335,0.98973,0.08712,0.17085,-0.15918,-0.01652
-0.1192,0.98844,0.09365,-0.11862,-0.07568,0.11319
-0.12542,0.98639,0.10634,-0.13782,0.0306,0.36722
-0.13279,0.98358,0.12221,0.00994,0.38401,0.0335
-0.13889,0.97972,0.14438,0.27805,0.76832,0.20549
-0.13949,0.97513,0.17223,0.25881,0.8042,0.20811
-0.13554,0.96929,0.2052,0.00821,0.78448,0.14073
-0.12963,0.96205,0.24009,-0.20538,0.94348,-0.06062
-0.12619,0.95416,0.27138,-0.21403,0.76874,-0.19953
-0.12725,0.94641,0.29684,-0.19285,0.58197,-0.39617
-0.13656,0.93967,0.31365,-0.12861,0.4221,-0.61037
-0.14699,0.93784,0.3144,0.17708,0.27121,-0.79504
-0.15007,0.94327,0.29619,0.51754,0.19963,-0.84129
-0.14355,0.95467,0.26077,0.53146,0.12509,-0.73015
-0.13089,0.96754,0.21617,0.51112,0.07533,-0.58626
-0.1123,0.97929,0.16847,0.20419,0.20104,0.09145
-0.09492,0.9884,0.11855,-0.25213,0.20084,0.36358
-0.08826,0.99395,0.0653,-0.38345,0.21381,0.35044
-0.09155,0.9958,0.0021,-0.28467,0.27494,0.08933
-0.09329,0.99333,-0.06775,-0.16095,0.26119,0.00235
-0.08818,0.98653,-0.13777,-0.0229,0.2927,0.01973
-0.08093,0.97474,-0.20815,0.09771,0.17025,-0.02438
-0.07972,0.9572,-0.27823,-0.02062,0.12706,0.11693
-0.08281,0.93453,-0.34612,-0.03036,0.13704,0.20174
-0.08982,0.90597,-0.41371,-0.08189,0.22826,0.20703
-0.10295,0.87051,-0.48126,-0.1244,0.18933,0.22401
-0.12175,0.82747,-0.54815,-0.20429,0.07355,0.12246
-0.14136,0.77806,-0.61209,-0.00449,0.02091,0.45054
-0.16334,0.72095,-0.67346,0.04856,0.07754,0.53978
-0.18827,0.65852,-0.72863,0.07872,0.12795,0.45143
-0.21577,0.59501,-0.77422,0.14297,-0.08486,0.55444
-0.24539,0.53197,-0.81043,0.18423,-0.14857,0.6107
-0.2754,0.47225,-0.83734,0.33663,-0.30496,0.59184
-0.30399,0.41883,-0.85567,0.25919,-0.44077,0.72185
-0.32477,0.37582,-0.86792,0.22828,-0.44973,0.72664
-0.33691,0.34333,-0.87671,0.15551,-0.42367,0.71507
-0.34503,0.32135,-0.88187,0.15206,-0.54213,0.59746
-0.34792,0.31028,-0.88469,0.17707,-0.50754,0.43387
-0.34637,0.30989,-0.88544,0.14861,-0.50508,0.19929
-0.34705,0.3175,-0.88247,0.41478,-0.34598,0.03965
-0.34791,0.33063,-0.87729,0.44435,-0.34373,-0.13523
-0.34594,0.34895,-0.87095,0.40021,-0.35411,-0.26487
-0.34085,0.3733,-0.86283,0.23842,-0.32053,-0.50055
-0.333,0.39685,-0.85535,-0.28541,0.36633,-1.4874
-0.32238,0.40341,-0.85635,-0.21576,1.18506,-1.09499
-0.35392,0.41521,-0.83806,0.30982,-0.11684,0.22439
-0.36834,0.44484,-0.81636,-0.17246,-0.58777,0.49564
-0.36548,0.47963,-0.79774,-0.0912,-0.01193,-0.18304
-0.34025,0.51747,-0.78515,-0.17785,0.4502,0.39811
-0.31543,0.55735,-0.76802,-0.36836,0.32409,0.30353
-0.29073,0.59419,-0.74994,-0.06797,0.27412,0.09033
-0.2609,0.63226,-0.72951,0.01351,0.01373,0.20831
-0.22771,0.67187,-0.7048,-0.08945,-0.10972,0.25233
-0.19268,0.71106,-0.67622,-0.05638,-0.0992,0.22324
-0.1533,0.7489,-0.64471,-0.09418,0.01569,0.23717
-0.11306,0.78479,-0.60936,-0.01092,0.21479,0.22691
-0.07561,0.81779,-0.57052,0.05643,0.20795,0.17334
-0.04242,0.84797,-0.52835,0.1298,0.09315,0.12991
-0.01612,0.87446,-0.48482,0.1204,-0.03642,0.0898
0.00453,0.89771,-0.44056,0.09204,-0.09792,0.06077
0.01867,0.91801,-0.39611,0.04374,-0.11839,0.08419
0.03037,0.93619,-0.35018,-0.03213,-0.14948,0.05176
0.04143,0.95256,-0.30152,-0.02381,-0.07654,0.00642
0.04936,0.9666,-0.25148,-0.03991,-0.02922,0.03354
0.05636,0.97735,-0.20398,-0.04462,0.03377,0.03844
0.06058,0.98503,-0.16141,-0.03659,0.03863,0.03745
0.0622,0.99028,-0.12441,0.01727,-0.00122,0.07834
0.06134,0.99371,-0.09364,-0.04544,-0.18195,0.03506
0.0588,0.99616,-0.06483,-0.0488,-0.16445,-0.02511
0.05663,0.99778,-0.03513,-0.09111,-0.06992,-0.05143
0.05853,0.99828,-0.00243,-0.01547,-0.03843,-0.04129
0.06329,0.9975,0.03154,0.03107,0.01238,0.00206
0.06527,0.99599,0.06116,-0.00543,-0.03832,-0.02263
0.06469,0.9941,0.08705,-0.01289,-0.01845,-0.05018
0.06075,0.99205,0.11023,-0.0294,0.00376,-0.0778
0.05572,0.98951,0.13325,-0.05395,-0.05073,-0.11049
0.05019,0.98637,0.15672,-0.02475,-0.0754,-0.06651
0.04538,0.9826,0.18007,0.00034,-0.10957,-0.05356
0.03878,0.97842,0.20295,0.02747,-0.01258,0.01293
0.02954,0.97408,0.22427,-0.00981,-0.00556,-0.05665
0.01654,0.9698,0.24333,-0.09545,-0.04809,-0.14273
0.00047,0.96514,0.26173,-0.16455,-0.02462,-0.14578
-0.01729,0.95984,0.28,0.03039,0.01481,-0.0793
-0.03391,0.95537,0.29344,0.11846,0.05618,-0.13458
-0.04822,0.95221,0.3016,0.16722,0.05473,-0.29036
-0.05866,0.94947,0.30831,0.27844,0.11339,-0.18575
-0.06711,0.94793,0.31131,0.31284,0.12409,-0.19457
-0.07605,0.94766,0.3101,0.19023,0.19362,-0.38178
-0.08359,0.9485,0.30556,0.13174,0.31603,-0.40692
-0.08759,0.95072,0.29742,0.11555,0.32266,-0.40623
-0.09085,0.95498,0.2824,0.04232,0.45763,-0.28944
-0.09623,0.96182,0.25619,-0.12278,0.37231,-0.19932
-0.10467,0.971,0.21496,-0.31461,0.19116,-0.10929
-0.11514,0.98023,0.16092,-0.47659,0.27142,0.03754
-0.12172,0.98665,0.10814,-0.47708,0.39448,0.33612
-0.12435,0.99042,0.05995,-0.19055,0.25366,0.35563
-0.11636,0.99305,0.01758,0.01263,0.1695,0.15345
-0.10047,0.99467,-0.02307,-0.16855,0.22406,0.12533
-0.08791,0.99395,-0.06578,-0.23301,0.14647,0.20162
-0.08128,0.99062,-0.10981,-0.10658,-0.06742,0.34842
-0.07766,0.98446,-0.1575,0.01039,-0.20408,0.29429
-0.07378,0.9764,-0.20297,0.08075,-0.20247,0.20372
-0.07308,0.9675,-0.24206,0.10325,-0.18186,0.24786
-0.07502,0.95792,-0.27707,0.04545,-0.18848,0.22929
-0.07775,0.94795,-0.30876,-0.05023,-0.16226,0.166
-0.08143,0.93904,-0.33402,-0.14456,-0.18023,0.20815
-0.08609,0.93212,-0.35177,-0.11734,-0.16963,0.3349
-0.08928,0.9266,-0.3653,-0.07879,-0.17931,0.34093
-0.0878,0.92262,-0.37558,-0.10459,-0.21901,0.27313
-0.08299,0.92041,-0.38205,-0.07722,-0.27967,0.20944
-0.07602,0.92005,-0.38435,0.02923,-0.25362,0.19558
-0.06926,0.92136,-0.38248,0.074,-0.24535,0.16448
-0.06256,0.92441,-0.37624,0.1517,-0.26063,0.13318
-0.05415,0.92945,-0.36494,0.21522,-0.26623,0.06341
-0.04361,0.9364,-0.34822,0.23869,-0.25541,-0.05006
-0.03221,0.94453,-0.32683,0.15594,-0.16469,-0.30884
-0.01932,0.95271,-0.30327,0.12419,-0.09623,-0.40335
-0.00412,0.95981,-0.28062,0.0138,0.36595,-0.65176
0.00539,0.96409,-0.26553,-0.07978,0.56156,-0.75399
0.00815,0.96526,-0.26117,-0.21154,0.6159,-0.59479
0.00655,0.96639,-0.25699,-0.2665,0.05511,-0.1813
0.004,0.96694,-0.25495,-0.37007,-0.23757,0.0618
0.00365,0.96914,-0.24648,-0.44536,-0.25326,0.15415
0.00099,0.97557,-0.21967,-0.33949,0.17107,0.67873
-0.00047,0.9848,-0.17368,-0.11112,0.55406,1.05119
-0.00066,0.99099,-0.13391,0.00903,0.67832,0.64603
0.0049,0.99227,-0.12401,0.20618,0.14592,-0.01897
0.01799,0.99223,-0.1231,0.20491,-0.54496,0.20741
0.03033,0.99391,-0.10587,0.10657,-0.635,0.37162
0.03503,0.99677,-0.07227,-0.14803,-0.16335,0.55359
0.03121,0.99884,-0.03653,-0.17888,0.14273,0.41027
0.03001,0.99943,-0.01534,-0.16989,0.24952,0.18747
0.03587,0.99924,-0.01477,-0.07043,0.28553,-0.36121
0.04751,0.99884,-0.00781,-0.10815,0.11528,-0.30417
0.06358,0.99781,0.01784,-0.20236,-0.10275,0.26266
0.07786,0.99614,0.04041,-0.03508,-0.14758,0.55097
0.08424,0.99542,0.04504,0.1888,-0.13745,0.24273
0.08604,0.99532,0.04385,0.24301,-0.05958,0.02748
0.09008,0.99441,0.05498,0.03683,0.0523,-0.0192
0.09567,0.99272,0.07313,-0.038,0.02899,0.15945
0.09685,0.9915,0.08684,-0.02223,0.00134,0.16128
0.09414,0.99095,0.0957,0.12042,0.10303,-0.04057
0.09246,0.9897,0.1093,0.15593,0.1088,-0.14952
0.09055,0.98796,0.1254,0.19781,0.06209,-0.09848
0.08661,0.98633,0.14019,0.1399,-0.01147,0.00672
0.0814,0.98482,0.15326,0.07564,-0.09814,0.04596
0.07502,0.98371,0.16333,-0.03518,-0.0884,0.00053
0.06631,0.98275,0.17261,-0.11552,-0.00615,-0.05157
0.05665,0.98138,0.18353,-0.0991,0.02547,-0.08256
0.04673,0.97966,0.19514,0.04182,0.07712,-0.1143
0.03707,0.97781,0.20618,0.06449,0.05205,-0.055
0.02796,0.97585,0.21663,0.048,-0.01999,-0.00361
0.01868,0.97385,0.22642,0.02647,0.00128,-0.01443
0.01015,0.97172,0.23589,-0.00124,0.12494,-0.1034
0.00288,0.96866,0.24837,-0.06558,0.20952,-0.13168
-0.00477,0.96481,0.26288,-0.07987,0.25964,-0.10539
-0.01268,0.96135,0.27503,0.01009,0.4,-0.26591
-0.02032,0.95904,0.28252,0.11222,0.62409,-0.29137
-0.02753,0.95855,0.28359,0.15027,0.65655,-0.1959
-0.03453,0.96152,0.27253,0.14988,0.59176,-0.13844
-0.03963,0.96819,0.24705,-0.30048,0.46197,-0.39822
-0.0423,0.97725,0.20779,-0.3533,0.43492,-0.2577
-0.04515,0.9866,0.15678,-0.33669,0.31115,0.00165
-0.04313,0.99395,0.10095,-0.2925,0.26372,0.18384
-0.03475,0.99831,0.04659,-0.23784,0.28593,0.27527
-0.02118,0.99977,-0.00313,-0.26194,0.34375,0.19555
-0.00276,0.99867,-0.05146,-0.28159,0.43311,0.12574
0.0191,0.99448,-0.10318,-0.25305,0.50786,0.22165
0.04176,0.98523,-0.16607,-0.02196,0.55306,0.37535
0.05947,0.9687,-0.24101,0.01592,0.24906,0.32564
0.06338,0.94273,-0.32746,-0.03644,0.11302,0.28213
0.05991,0.90882,-0.41286,-0.31849,-0.10235,-0.0082
0.05428,0.87257,-0.48546,-0.31285,-0.0661,0.06439
0.04466,0.8306,-0.55507,-0.19743,0.10321,0.40201
0.03155,0.77667,-0.62912,0.00532,0.33989,0.2731
0.01723,0.71588,-0.69801,0.04597,0.34987,0.30341
-0.00712,0.65056,-0.75942,0.09654,0.20915,0.32332
-0.03926,0.58141,-0.81266,0.00107,-0.05139,0.6256
-0.07836,0.50938,-0.85697,-0.09463,-0.19688,0.68879
-0.12133,0.4374,-0.89105,-0.04184,-0.20157,0.63444
-0.1585,0.3701,-0.91537,-0.01487,-0.22755,0.61368
-0.18741,0.31153,-0.93157,0.01684,-0.30337,0.59715
-0.20807,0.26516,-0.94149,0.09951,-0.26797,0.67263
-0.2221,0.2301,-0.94748,-0.03307,-0.42372,0.63759
-0.23177,0.20809,-0.95025,0.07659,-0.29454,0.51738
-0.23666,0.19797,-0.95121,0.08491,-0.32031,0.43571
-0.23843,0.19805,-0.95075,0.17572,-0.27579,0.35709
-0.23668,0.20636,-0.94942,0.16286,-0.31593,0.19368
-0.23415,0.22269,-0.94635,0.22434,-0.21653,-0.01205
-0.23029,0.24533,-0.94169,0.20393,-0.21053,-0.25164
-0.22483,0.2693,-0.93644,0.10948,-0.04114,-0.91758
-0.21517,0.2883,-0.93305,-0.22895,0.83572,-1.576
-0.23932,0.3084,-0.92066,-0.03865,0.22772,0.094
-0.26181,0.33937,-0.90349,-0.18332,-0.23022,0.38109
-0.26472,0.37579,-0.88809,-0.50552,-0.45323,0.54533
-0.25427,0.42043,-0.87097,-0.23079,0.17277,0.03819
-0.2285,0.46843,-0.85344,-0.13676,0.55073,0.25847
-0.20039,0.51536,-0.83321,-0.41571,0.35978,0.37998
-0.17458,0.55894,-0.81062,-0.17173,0.22866,0.23692
-0.14526,0.60152,-0.78554,-0.1141,0.04201,0.23797
-0.11004,0.64366,-0.75736,-0.12437,-0.10944,0.30671
-0.07261,0.68497,-0.72494,-0.129,-0.11855,0.28193
-0.03394,0.72467,-0.68825,-0.08413,0.02511,0.34803
0.00269,0.76151,-0.64814,-0.0654,0.16979,0.184
0.03372,0.79502,-0.60564,-0.00828,0.21253,0.19962
0.0607,0.82606,-0.5603,0.00542,0.0771,0.24211
0.08261,0.85503,-0.51196,-0.0121,-0.02307,0.19154
0.09563,0.88146,-0.46246,-0.00223,-0.07074,0.11417
0.09762,0.90502,-0.41401,0.0362,0.01032,0.10806
0.09249,0.92537,-0.36759,0.08172,0.03474,0.16192
0.08203,0.94205,-0.32527,0.18567,0.10859,0.15906
0.07126,0.95462,-0.28918,0.11439,-0.00752,0.12985
0.06464,0.96422,-0.2571,0.04446,-0.06812,0.04255
0.06012,0.97293,-0.22313,-0.10974,-0.0927,-0.16629
0.05577,0.98078,-0.18697,-0.1962,-0.0355,-0.1001
0.04872,0.98685,-0.15414,-0.11744,-0.01646,-0.1446
0.04044,0.99161,-0.12275,0.02103,0.05412,-0.11372
0.03565,0.99493,-0.09404,0.02583,0.0508,-0.14243
0.03117,0.99696,-0.0714,0.08283,-0.04714,-0.12988
0.02634,0.99802,-0.05706,0.03927,-0.02926,-0.12737
0.02261,0.99845,-0.05087,-0.0165,-0.0307,-0.0952
0.01879,0.99853,-0.05078,-0.22312,-0.17302,-0.15892
0.0106,0.99845,-0.05454,-0.15849,-0.20674,-0.22739
0.00185,0.99837,-0.05698,-0.03005,-0.18418,-0.1776
-0.00345,0.9985,-0.05459,0.27431,-0.19418,0.23701
-0.00883,0.99851,-0.05384,0.11618,-0.27153,0.10633
-0.0142,0.99884,-0.04597,-0.06464,-0.21045,0.03664
-0.02016,0.99941,-0.02776,-0.17685,0.07759,0.40941
-0.02978,0.99954,-0.00614,-0.27119,0.40984,0.27048
-0.03824,0.99905,0.02086,-0.20035,0.77364,0.39933
-0.043,0.99759,0.05436,0.12845,1.01667,0.25477
-0.04461,0.99474,0.09217,0.19013,0.74999,0.07751
-0.03821,0.9905,0.13208,0.06005,0.85677,0.07738
-0.02721,0.98553,0.16731,-0.17033,0.90693,0.01637
-0.02517,0.98075,0.1936,-0.50553,0.60476,-0.2439
-0.03081,0.97724,0.20987,-0.5325,0.57563,-0.46046
-0.03816,0.97673,0.21102,-0.03727,0.32556,-0.60222
-0.03826,0.98176,0.18624,0.38074,0.28774,-0.73035
-0.03133,0.98888,0.14538,0.45155,0.23138,-0.72302
-0.02105,0.9949,0.09862,0.38102,0.11496,-0.42144
-0.00737,0.99883,0.04772,0.24792,0.1817,0.13042
0.00374,0.99997,-0.00653,-0.32747,0.26039,0.28842
0.00352,0.99755,-0.0699,-0.39268,0.30849,0.27585
-0.00597,0.98937,-0.14528,-0.28603,0.36894,0.27848
-0.00988,0.97413,-0.22574,-0.12748,0.30278,0.16712
-0.00566,0.95234,-0.30499,0.15127,0.37657,0.16443
0.0014,0.9232,-0.38432,0.27232,0.35769,0.33216
0.00407,0.88622,-0.46324,0.10596,0.31412,0.35899
0.00143,0.84108,-0.54091,-0.099,0.21114,0.36264
-0.00871,0.78677,-0.61718,-0.16788,0.08634,0.38012
-0.02452,0.72515,-0.68815,-0.20932,0.14202,0.30555
-0.04667,0.65674,-0.75267,-0.04824,0.24394,0.48123
-0.06991,0.58142,-0.8106,-0.00769,0.23394,0.52985
-0.09292,0.50395,-0.85872,0.03628,0.05271,0.6147
-0.11782,0.42727,-0.89642,0.08013,-0.12035,0.74958
-0.14399,0.3536,-0.92425,0.11289,-0.18917,0.88462
-0.16654,0.28689,-0.94338,0.19826,-0.29803,0.91208
-0.1881,0.22987,-0.95487,0.1541,-0.44652,0.86372
-0.20844,0.18483,-0.96041,0.08874,-0.36405,0.84875
-0.22484,0.15462,-0.96205,0.01622,-0.37044,0.70926
-0.23612,0.13878,-0.96176,0.00574,-0.3047,0.56546
-0.24219,0.13442,-0.96087,-0.00771,-0.33951,0.2635
-0.24477,0.13834,-0.95966,0.15441,-0.2619,0.23784
-0.24468,0.1491,-0.95807,0.29499,-0.23688,-0.01433
-0.24768,0.16615,-0.95449,0.45766,-0.11416,-0.25219
-0.25902,0.19012,-0.94698,0.51489,-0.13271,-0.25523
-0.27161,0.22827,-0.93495,0.429,-0.24009,-0.31519
-0.27435,0.27532,-0.92138,-1.14663,1.68964,-1.35299
-0.26546,0.29714,-0.91719,-1.15552,1.66783,-1.35718
-0.30037,0.32409,-0.89707,-0.03071,0.65389,0.20719
-0.29489,0.36489,-0.88312,0.25043,-0.24294,0.22867
-0.29423,0.41203,-0.86236,0.52281,0.12163,0.34679
-0.265,0.46368,-0.84545,-0.31511,0.55166,0.38471
-0.23933,0.51407,-0.82368,-0.46411,0.48023,0.37167
-0.20984,0.55983,-0.80159,-0.31841,0.33552,0.21372
-0.17731,0.60472,-0.77645,0.05579,-0.01445,0.31893
-0.13286,0.65004,-0.74819,0.01849,-0.13974,0.3149
-0.08541,0.69408,-0.71481,0.00199,-0.15121,0.32025
-0.04269,0.73467,-0.67708,0.06584,0.15503,0.31168
-0.00567,0.77165,-0.63602,0.07095,0.3311,0.26672
0.0249,0.80526,-0.5924,0.05504,0.21303,0.24352
0.04892,0.83584,-0.54679,0.00741,-0.0563,0.21427
0.06536,0.86326,-0.50051,-0.02768,-0.14332,0.17708
0.07437,0.88834,-0.45312,-0.02674,-0.05958,0.22338
0.07615,0.91105,-0.40519,0.08408,0.04862,0.22219
0.07225,0.92975,-0.36103,0.18835,0.15555,0.2419
0.06409,0.9444,-0.3225,0.09465,0.06589,0.19538
0.05485,0.95624,-0.2874,0.01331,-0.04108,0.08127
0.04608,0.96539,-0.25671,-0.07542,-0.04701,-0.03159
0.03753,0.97283,-0.22846,-0.17628,-0.05386,-0.18647
0.0349,0.98078,-0.19195,-0.05593,-0.06095,-0.08817
0.03247,0.98735,-0.15516,0.0832,0.03644,-0.06071
0.0277,0.99184,-0.12444,0.13453,0.10588,-0.03978
0.02364,0.99486,-0.09842,0.03236,0.01219,-0.09343
0.01922,0.99696,-0.0755,-0.00335,-0.0735,-0.03471
0.01194,0.99826,-0.05774,-0.0762,-0.06315,-0.07242
0.00447,0.999,-0.04442,-0.05228,-0.03094,-0.04817
-0.00236,0.99928,-0.03781,-0.06306,-0.00673,-0.04425
-0.00953,0.99931,-0.03582,-0.1775,-0.00361,-0.21991
-0.01761,0.9992,-0.03575,-0.0146,-0.01124,-0.13692
-0.02431,0.99903,-0.03673,0.07628,-0.02324,-0.11504
-0.03007,0.999,-0.03294,0.14904,-0.10358,0.29905
-0.03715,0.99893,-0.02747,0.03734,-0.16307,0.22611
-0.0467,0.99872,-0.01896,-0.0682,-0.08892,0.08779
-0.05623,0.99841,0.00148,-0.09159,0.13681,0.41838
-0.06819,0.99734,0.0258,-0.1642,0.52572,0.21377
-0.08235,0.99523,0.05216,-0.02236,0.90017,0.26994
-0.09252,0.9923,0.08235,0.03622,0.80617,0.10306
-0.09738,0.98865,0.11442,-0.20591,0.63434,0.04344
-0.09781,0.98464,0.14462,-0.09904,0.75789,-0.03315
-0.09628,0.98069,0.1702,0.01006,0.54887,-0.18292
-0.09434,0.97747,0.18881,-0.02084,0.30809,-0.13156
-0.09384,0.97612,0.19591,-0.04906,0.23119,-0.36042
-0.09282,0.97778,0.18795,0.01282,0.24424,-0.50494
-0.08669,0.98318,0.1607,0.17875,0.26546,-0.62606
-0.075,0.98967,0.12218,0.04465,0.18467,-0.35491
-0.06143,0.9951,0.07738,-0.00589,0.19292,-0.16388
-0.04545,0.99869,0.0233,-0.10608,0.27447,0.27211
-0.03493,0.99869,-0.03722,-0.51166,0.22943,0.39664
-0.03672,0.99422,-0.10081,-0.48562,0.25368,0.40536
-0.04512,0.98416,-0.17143,-0.48871,0.23381,0.26015
-0.04642,0.96814,-0.24607,-0.13595,0.4834,0.10938
-0.04293,0.94637,-0.3202,-0.02284,0.37731,0.2404
-0.03492,0.91877,-0.39324,0.0382,0.16813,0.30321
-0.02856,0.88599,-0.46282,0.00664,0.1701,0.23267
-0.02607,0.84609,-0.5324,-0.149,0.18978,0.18749
-0.03506,0.79907,-0.60022,-0.07919,0.13431,0.13208
-0.05868,0.74674,-0.66252,0.02874,0.07824,0.37764
-0.08704,0.68964,-0.7189,-0.03663,0.06024,0.54549
-0.11922,0.62484,-0.77159,-0.07736,0.06859,0.44031
-0.15352,0.55522,-0.81742,-0.03082,0.02808,0.5123
-0.19084,0.48451,-0.85371,0.05052,-0.11406,0.63299
-0.22723,0.41548,-0.88076,0.17619,-0.16589,0.67126
-0.25972,0.34996,-0.90004,0.13196,-0.39789,0.67844
-0.2847,0.29243,-0.91292,0.23077,-0.47319,0.62879
-0.30209,0.2458,-0.92104,0.21054,-0.39609,0.64147
-0.31442,0.21031,-0.92569,0.26347,-0.37367,0.64806
-0.32435,0.18553,-0.92756,0.20597,-0.39445,0.62913
-0.32924,0.17173,-0.9285,0.09179,-0.40308,0.57146
-0.32925,0.16749,-0.92927,-0.02227,-0.44396,0.4288
-0.32856,0.17119,-0.92884,0.13416,-0.2227,0.28553
-0.32375,0.17905,-0.92904,0.17532,-0.20097,0.23747
-0.31359,0.1886,-0.93064,0.19042,-0.14672,0.04925
-0.30215,0.20152,-0.93172,0.01249,-0.13093,-0.38028
-0.2912,0.21702,-0.93172,-0.10283,0.05062,-0.86857
-0.27161,0.22188,-0.93648,-0.4012,1.0326,-1.73111
-0.26451,0.21489,-0.94014,-0.08446,0.60416,-0.77381
-0.30339,0.22001,-0.92712,0.17338,-0.45446,0.30319
-0.32645,0.24579,-0.9127,-0.02195,-0.40984,0.30006
-0.32803,0.27986,-0.90226,-0.65271,-0.07977,-0.35827
-0.32027,0.32325,-0.89047,-0.08461,0.56215,0.08145
-0.29903,0.37064,-0.87932,-0.20007,0.44891,0.24562
-0.28708,0.41388,-0.86388,-0.13356,0.32808,0.29376
-0.27536,0.45567,-0.84649,-0.00116,0.1695,0.22216
-0.25371,0.50106,-0.82739,-0.12878,0.09127,0.32419
-0.22101,0.54783,-0.80687,-0.25154,0.1291,0.3929
-0.18218,0.59322,-0.78416,-0.15704,0.11735,0.34936
-0.14081,0.63606,-0.75869,-0.08264,0.12525,0.34954
-0.09661,0.67682,-0.72978,-0.06936,0.13827,0.32171
-0.05084,0.71573,-0.69652,-0.00788,0.12979,0.26558
-0.00964,0.75213,-0.65894,0.03372,0.08736,0.20988
0.02527,0.78547,-0.61838,0.00214,0.05318,0.16736
0.05157,0.81499,-0.57717,-0.02636,-0.0526,0.15191
0.06996,0.84184,-0.53517,-0.10567,-0.16902,0.16194
0.08875,0.86723,-0.48993,-0.13326,-0.20038,0.13776
0.10918,0.89081,-0.44106,-0.11965,-0.0876,0.14765
0.12641,0.91105,-0.39244,0.01663,0.05139,0.17151
0.13769,0.92796,-0.34629,0.02811,0.13092,0.2445
0.14477,0.94194,-0.30298,0.09068,0.11802,0.16818
0.14545,0.95252,-0.26746,0.09235,0.01214,0.12757
0.144,0.96085,-0.23671,0.06678,-0.05277,0.09564
0.14153,0.96803,-0.20707,-0.08665,-0.12219,0.0073
0.14011,0.97446,-0.17549,-0.08139,-0.10539,-0.00282
0.14021,0.97991,-0.14178,-0.06344,-0.09338,0.02264
0.13988,0.98422,-0.10832,-0.01789,-0.05017,0.01032
0.13806,0.98753,-0.07556,-0.04323,-0.00417,0.05183
0.1355,0.98979,-0.04418,-0.06499,-0.04281,0.03247
0.13285,0.99102,-0.01503,-0.16137,-0.03469,-0.04376
0.12841,0.99162,0.0137,-0.17111,-0.01762,-0.0829
0.12205,0.99161,0.04257,-0.14437,-0.02981,-0.08908
0.11402,0.99089,0.07164,-0.03867,-0.02159,-0.09887
0.10525,0.98936,0.10043,0.05945,-0.10865,-0.06573
0.0962,0.9872,0.12718,-0.02511,0.129,-0.15393
0.08521,0.98516,0.14897,-0.04341,0.1493,-0.24298
0.07872,0.98273,0.16745,0.07687,0.01906,-0.25269
0.07601,0.98009,0.18341,0.19842,0.0242,-0.15375
0.0728,0.97861,0.19239,0.24266,0.02751,-0.20861
0.0698,0.97837,0.19472,0.20939,0.03417,-0.2509
0.06735,0.97911,0.19183,-0.16314,0.09935,-0.45559
0.06561,0.98035,0.18599,-0.27169,0.14184,-0.43593
0.06392,0.98262,0.17426,-0.28519,0.24175,-0.25336
0.06257,0.98612,0.15379,-0.23134,0.52675,0.01615
0.0616,0.99038,0.12389,-0.14782,0.66634,0.04124
0.06489,0.9942,0.08571,-0.2002,0.67754,0.02002
0.07264,0.99637,0.04431,-0.64126,0.28418,0.07091
0.07711,0.99702,0.00142,-0.71267,0.06711,0.45177
0.0754,0.99614,-0.04478,-0.52996,-0.0501,0.4998
0.07285,0.99308,-0.09203,-0.42756,-0.00303,0.24286
0.07195,0.98803,-0.13646,-0.42051,0.04513,0.15057
0.06831,0.98247,-0.17343,-0.28563,-0.05056,0.17733
0.06388,0.97625,-0.20699,-0.09554,-0.06164,0.36619
0.06059,0.96755,-0.24529,-0.02931,-0.08123,0.22904
0.06028,0.95785,-0.28088,-0.09638,-0.13546,0.106
0.06024,0.9481,-0.31222,-0.11752,-0.13911,0.12374
0.0586,0.93894,-0.33905,-0.12718,-0.15748,0.14488
0.05693,0.93122,-0.35998,-0.09183,-0.21322,0.20784
0.05424,0.92523,-0.37551,-0.10333,-0.24674,0.22111
0.05219,0.92129,-0.38535,-0.16698,-0.28917,0.20054
0.05289,0.91994,-0.38847,-0.20073,-0.29808,0.16994
0.05682,0.92114,-0.38506,-0.19564,-0.31135,0.14021
0.06262,0.92451,-0.37597,-0.14343,-0.32985,0.11851
0.06852,0.92971,-0.36187,-0.08596,-0.33829,0.07547
0.07471,0.93625,-0.3433,-0.02359,-0.30911,0.03003
0.0844,0.94365,-0.31998,0.0228,-0.26526,-0.08535
0.0983,0.9509,-0.29345,0.00102,-0.07192,-0.33318
0.11523,0.95685,-0.26675,-0.04243,0.05949,-0.44809
0.12929,0.96157,-0.24219,-0.09942,0.57621,-0.65837
0.13862,0.9643,-0.22564,-0.05944,0.66977,-0.59139
0.14518,0.96488,-0.21891,-0.22639,0.12994,-0.36278
0.14886,0.96436,-0.21871,-0.34207,-0.29519,-0.18998
0.15376,0.96465,-0.21403,-0.38722,-0.48186,-0.08465
0.15892,0.96777,-0.19534,-0.38635,-0.53395,0.03086
0.1603,0.97538,-0.15141,-0.18911,0.53847,0.76064
0.1523,0.98444,-0.08765,-0.16504,1.42111,0.97787
0.13091,0.99029,-0.04669,-0.23143,1.33025,0.50068
0.12098,0.9907,-0.06223,-0.342,-0.23898,-0.09431
0.13401,0.98852,-0.06969,-0.29573,-0.95727,0.35648
0.14512,0.98873,-0.03676,-0.32759,-0.79229,0.73779
0.14555,0.98928,0.01142,-0.16935,-0.08001,0.52099
0.13837,0.9892,0.0483,0.03855,0.58178,0.05625
0.13654,0.98869,0.062,0.118,0.60489,-0.34549
0.14059,0.98709,0.07665,-0.07269,0.01321,-0.04046
0.15111,0.98202,0.11314,-0.34518,-0.10101,0.38848
0.16191,0.97585,0.14664,-0.09366,-0.15338,0.15884
0.16751,0.97367,0.15462,0.07781,-0.08895,0.02917
0.16778,0.97424,0.15068,0.24591,-0.0006,-0.10405
0.16761,0.97152,0.1675,-0.09016,0.03035,0.03442
0.16889,0.96651,0.1932,-0.30196,-0.03357,0.20011
0.16947,0.96238,0.21236,-0.23705,-0.07687,0.08081
0.16523,0.96007,0.22573,-0.0933,0.01005,-0.06927
0.15932,0.95767,0.23973,-0.04754,0.02664,-0.07495
0.1528,0.95463,0.25557,-0.00642,0.05644,-0.099
0.14557,0.95122,0.272,0.02946,-0.00809,-0.13551
0.13769,0.94782,0.28752,0.0552,-0.05501,-0.13633
0.12912,0.94482,0.30107,0.08292,0.02053,-0.20076
0.1185,0.942,0.31399,0.06984,0.10241,-0.24998
0.10575,0.93907,0.32702,0.02183,0.12536,-0.2948
0.09071,0.93575,0.34078,-0.07063,0.05627,-0.25632
0.07315,0.93243,0.35386,-0.10492,0.05895,-0.27325
0.05444,0.92977,0.36408,-0.0987,0.10759,-0.36553
0.03785,0.92764,0.37153,0.1375,0.11021,-0.33665
0.0242,0.92665,0.37513,0.18375,0.16176,-0.37103
0.01173,0.92665,0.37573,0.13693,0.16919,-0.39639
-0.00088,0.9277,0.3733,-0.15549,0.22505,-0.4747
-0.01321,0.93073,0.36546,-0.19538,0.24988,-0.49481
-0.02369,0.93664,0.34947,-0.16894,0.36658,-0.51077
-0.03206,0.94629,0.32171,-0.07226,0.37984,-0.4688
-0.03834,0.9595,0.27906,-0.06135,0.3224,-0.1955
-0.04388,0.97457,0.21974,-0.15622,0.35855,-0.14667
-0.04407,0.98708,0.15403,-0.37524,0.68588,0.04612
-0.04164,0.99429,0.09819,-0.36032,0.58467,0.14805
-0.03328,0.99813,0.05109,-0.17421,0.48024,0.3192
-0.01906,0.9998,-0.00435,-0.25361,0.46573,0.16495
-0.00677,0.99738,-0.07203,-0.33514,0.36928,0.17157
-0.0003,0.98967,-0.14335,-0.20676,-0.03076,0.1053
0.00017,0.97682,-0.21403,0.03892,-0.07218,0.10368
-0.00426,0.95933,-0.28223,0.10381,-0.05407,0.06254
-0.01326,0.93797,-0.34645,-0.08302,-0.11398,0.06862
-0.03108,0.91267,-0.4075,-0.09861,-0.0466,0.12792
-0.05572,0.88409,-0.46397,-0.24764,-0.03273,0.23944
-0.07896,0.85322,-0.51554,-0.26016,-0.04827,0.24289
-0.0964,0.82187,-0.56145,-0.20358,-0.13483,0.18862
-0.10963,0.79,-0.60322,-0.07456,-0.17144,0.18292
-0.12057,0.75877,-0.6401,0.11624,-0.19303,0.16158
-0.13065,0.72995,-0.67089,0.16886,-0.21062,0.19843
-0.14091,0.704,-0.69608,0.22228,-0.31209,0.08052
-0.15293,0.6817,-0.71547,0.2227,-0.3199,0.07008
-0.16763,0.66481,-0.72796,0.2254,-0.343,0.07493
-0.18404,0.65424,-0.73355,0.1874,-0.3402,-0.01884
-0.19905,0.65016,-0.73326,0.08575,-0.35815,-0.05283
-0.20859,0.65113,-0.72974,0.05737,-0.36079,-0.01974
-0.20971,0.65605,-0.72499,-0.12179,-0.41145,0.03836
-0.20471,0.66538,-0.71789,-0.11683,-0.38931,0.02104
-0.19562,0.68039,-0.70625,-0.11353,-0.35439,-0.0222
-0.18613,0.70152,-0.68791,-0.42251,-0.36999,0.1436
-0.17849,0.72726,-0.66274,-0.60014,-0.22271,0.10404
-0.16397,0.74753,-0.64366,-1.01205,0.65542,-0.81766
-0.16366,0.75569,-0.63414,0.37681,0.46193,0.36498
-0.17289,0.77144,-0.61236,0.54317,-0.20287,0.61714
-0.15429,0.79348,-0.58871,0.03524,-0.53968,0.22934
-0.14004,0.81393,-0.56382,0.1658,-0.22641,0.40995
-0.12095,0.83758,-0.53275,0.1193,0.06157,0.44699
-0.09124,0.86194,-0.49872,-0.08924,0.72787,0.11888
-0.06548,0.88499,-0.46097,0.11883,0.70114,0.16907
-0.04032,0.90589,-0.42159,0.23238,0.18524,0.10235
-0.01428,0.92401,-0.38208,0.26569,-0.18248,0.11453
0.01028,0.94033,-0.3401,0.25335,-0.22126,0.07982
0.02634,0.95406,-0.29846,0.21831,-0.15169,0.04553
0.0332,0.96621,-0.25558,0.08627,0.04355,0.00539
0.03384,0.97669,-0.21197,-0.0677,0.02893,0.05498
0.03407,0.98426,-0.17337,-0.09062,0.02903,0.05017
0.03165,0.98939,-0.14174,-0.06905,-0.08314,-0.05839
0.02625,0.99313,-0.11401,-0.0607,-0.10868,-0.10573
0.01892,0.99623,-0.08463,-0.06335,-0.0831,-0.13145
0.01243,0.99861,-0.05104,-0.03507,0.05819,-0.10443
0.00559,0.99981,-0.01817,0.07622,0.19876,-0.0369
-0.00163,0.99996,0.00785,0.09153,0.16961,-0.16682
-0.00491,0.9995,0.03107,0.08027,0.09263,-0.25364
-0.003,0.99843,0.05585,0.08368,0.06572,-0.20508
-0.00244,0.99723,0.0742,0.06774,-0.00282,-0.11189
-0.00441,0.99653,0.08305,0.0231,0.00474,-0.18995
-0.00747,0.99629,0.08567,-0.01637,-0.0025,-0.23238
-0.01275,0.99649,0.08267,-0.11244,-0.12224,-0.27618
-0.01975,0.99704,0.07425,-0.0916,-0.20019,-0.26999
-0.02712,0.99764,0.06306,-0.00211,-0.22829,-0.02044
-0.03501,0.99809,0.05073,0.17309,-0.23547,0.00528
-0.04349,0.99817,0.04196,0.20268,-0.24801,0.09154
-0.05117,0.99777,0.04272,0.19358,-0.28422,0.14369
-0.05846,0.99693,0.05192,-0.01893,-0.08186,0.17263
-0.06383,0.99545,0.07062,-0.05914,0.23979,0.21461
-0.06716,0.99344,0.09246,0.0497,0.72593,-0.04991
-0.0691,0.99052,0.11865,-0.01605,1.27945,0.109
-0.07278,0.98615,0.14902,0.10064,1.11063,0.0033
-0.07749,0.98045,0.18081,-0.12437,0.77927,-0.02738
-0.07869,0.97423,0.21137,-0.04016,0.76556,-0.18192
-0.07828,0.96806,0.23814,0.01397,0.49725,-0.28847
-0.07804,0.9624,0.26014,0.08665,0.36516,-0.33671
-0.08008,0.95917,0.27121,0.088,0.35612,-0.54296
-0.08219,0.95888,0.27164,0.14054,0.22635,-0.74536
-0.07684,0.96391,0.25487,0.26179,0.23529,-0.7366
-0.06986,0.97281,0.22077,0.18526,0.1336,-0.54329
-0.06507,0.98212,0.1766,0.13367,0.0535,-0.2945
-0.06159,0.99018,0.12549,0.06348,0.0697,-0.04154
-0.05971,0.99577,0.06975,-0.10229,0.22411,0.02876
-0.05944,0.99816,0.01164,-0.23188,0.3632,0.07263
-0.06044,0.99687,-0.05085,-0.20009,0.34853,0.23068
-0.05809,0.99135,-0.11767,0.10504,0.18858,0.22968
-0.05589,0.98087,-0.18645,0.23753,0.1602,0.15412
-0.05614,0.96488,-0.25661,0.24764,0.15338,-0.10365
-0.05944,0.94455,-0.32293,0.11746,0.00684,0.12946
-0.06782,0.91985,-0.38635,-0.00063,-0.0174,0.1926
-0.08145,0.88971,-0.44919,-0.08785,0.08125,0.11417
-0.09959,0.85319,-0.512,-0.06121,0.16823,0.13261
-0.11859,0.80998,-0.57434,-0.1396,-0.01814,0.16608
-0.13865,0.76101,-0.63375,-0.09427,0.05924,0.32791
-0.16116,0.70517,-0.69047,0.04856,0.068,0.4122
-0.1848,0.64429,-0.74211,0.09038,-0.05535,0.42175
-0.2119,0.58045,-0.78624,0.15184,-0.04777,0.43736
-0.24305,0.51511,-0.82195,0.17577,-0.28297,0.4942
-0.27637,0.45124,-0.84853,0.20416,-0.45899,0.58499
-0.30549,0.39313,-0.86725,0.25208,-0.38553,0.60297
-0.33005,0.34226,-0.87973,0.30186,-0.19,0.64509
-0.35257,0.29766,-0.88718,0.12038,-0.41706,0.68741
-0.37033,0.26247,-0.89105,0.12004,-0.36159,0.57276
-0.38237,0.23805,-0.89282,-0.00954,-0.52638,0.53661
-0.38767,0.22599,-0.89366,0.18011,-0.37212,0.24022
-0.38672,0.22703,-0.89381,0.21202,-0.37323,0.10712
-0.38371,0.23876,-0.89205,0.25392,-0.35346,0.06465
-0.37754,0.25939,-0.88892,0.40752,-0.25923,-0.12585
-0.36767,0.2909,-0.88329,0.2512,-0.33427,-0.3745
-0.35355,0.32926,-0.87555,-0.09902,0.03735,-1.42326
-0.33766,0.35841,-0.87036,-0.28504,1.39712,-1.47821
-0.35264,0.38195,-0.85425,-0.18164,0.86786,-1.02317
-0.37703,0.4118,-0.82962,-0.05222,-0.57548,0.88022
-0.38167,0.4511,-0.80675,-0.33298,-0.65917,0.31839
-0.37256,0.49665,-0.78393,-0.10381,0.15817,-0.03204
-0.3474,0.54431,-0.76357,-0.26891,0.40565,0.35135
-0.319,0.5891,-0.74243,-0.3143,0.31019,0.20921
-0.29561,0.6297,-0.71839,0.23535,0.19307,0.19157
-0.2678,0.66966,-0.69271,0.16494,0.07352,0.21839
-0.23219,0.70864,-0.66627,-0.03774,-0.13119,0.22718
-0.19667,0.74497,-0.63744,-0.08507,-0.17863,0.25323
-0.16379,0.77854,-0.60584,-0.08011,-0.10832,0.22818
-0.13315,0.80982,-0.57137,-0.09044,-0.06314,0.18778
-0.10875,0.83847,-0.53398,-0.02481,0.12212,0.12782
-0.08943,0.86455,-0.49452,0.05294,0.1286,0.10893
-0.07468,0.88801,-0.45372,0.04274,0.08295,0.1259
-0.06549,0.90766,-0.41456,0.14021,0.06953,0.05655
-0.06359,0.92419,-0.37659,0.19553,0.09618,0.04062
-0.06721,0.93825,-0.33937,0.19111,0.08608,0.04094
-0.07576,0.94936,-0.30492,0.11054,0.02383,-0.00943
-0.0861,0.9588,-0.27071,0.11755,-0.03926,-0.00023
-0.09462,0.96685,-0.23715,0.16162,-0.04986,-0.00073
-0.10121,0.97337,-0.20566,0.20423,-0.02531,-0.00488
-0.10764,0.97829,-0.1771,0.19501,0.01213,-0.01812
-0.11321,0.98239,-0.14865,0.12271,-0.07711,-0.14524
-0.11661,0.98604,-0.11885,0.0253,-0.07101,-0.1858
-0.1194,0.9888,-0.08951,0.0003,-0.05969,-0.17169
-0.11946,0.99089,-0.06207,0.08682,-0.03966,-0.18812
-0.11954,0.99205,-0.03912,0.07543,-0.04564,-0.20432
-0.11996,0.9926,-0.01844,0.03884,-0.09142,-0.1992
-0.12108,0.99264,-0.00084,4e-05,-0.12187,-0.17404
-0.12283,0.99236,0.01116,0.00719,-0.13993,-0.19227
-0.12318,0.99217,0.02056,0.10331,-0.16548,-0.2005
-0.12273,0.99205,0.02773,0.21374,-0.15303,-0.1355
-0.12259,0.99193,0.0321,0.17047,-0.17918,-0.12875
-0.12316,0.99178,0.03466,0.14871,-0.19943,-0.15626
-0.12278,0.99169,0.03843,0.12228,-0.25462,-0.18602
-0.12177,0.99143,0.04716,0.13712,-0.20631,-0.03186
-0.12014,0.99087,0.06108,0.10515,-0.12954,0.0831
-0.11788,0.99001,0.07724,-0.06309,0.1399,0.0905
-0.1146,0.98896,0.09387,-0.06525,0.26703,0.03222
-0.10984,0.98719,0.11571,0.10541,0.69992,0.21542
-0.10534,0.98479,0.13814,0.17283,1.1748,-0.0074
-0.10043,0.98122,0.16464,0.08449,1.08726,0.01614
-0.09495,0.97563,0.19777,-0.20726,0.98456,0.15642
-0.08878,0.96902,0.23045,-0.28523,0.84168,-0.01316
-0.08652,0.96137,0.26128,-0.15286,0.53159,-0.22246
-0.08768,0.95387,0.28712,-0.06465,0.6558,-0.49284
-0.09198,0.94814,0.30424,0.17125,0.37845,-0.60679
-0.09268,0.94709,0.30728,0.33008,0.25823,-0.70966
-0.08366,0.9522,0.29376,0.5468,0.22942,-0.77299
-0.07189,0.96202,0.26332,0.47402,0.0878,-0.62178
-0.06299,0.97261,0.22373,0.2438,0.04752,-0.27268
-0.05347,0.98299,0.17569,0.13998,0.045,-0.07593
-0.04848,0.99128,0.12251,0.03977,0.15539,0.08268
-0.05024,0.99662,0.06483,-0.21132,0.25952,0.04161
-0.05637,0.9984,0.00031,-0.25093,0.22379,0.13452
-0.06216,0.99565,-0.06931,0.11883,0.24042,0.17143
-0.06773,0.98759,-0.14167,0.38752,0.31118,0.05741
-0.07291,0.97435,-0.21286,0.3288,0.25244,-0.00791
-0.07975,0.9563,-0.28129,0.07358,0.15932,0.10206
-0.09395,0.93184,-0.35049,-0.03931,0.12462,0.18199
-0.113,0.90073,-0.41941,-0.06821,0.0724,0.14493
-0.13226,0.86394,-0.48591,-0.02523,0.03953,0.14693
-0.15209,0.82199,-0.54882,-0.10852,0.00466,0.16189
-0.1695,0.77451,-0.60943,-0.07148,0.01599,0.32906
-0.18614,0.71944,-0.66915,0.07897,0.0121,0.41036
-0.20602,0.65949,-0.72293,0.2158,0.1047,0.45034
-0.22616,0.59842,-0.7686,0.23694,0.0594,0.54185
-0.24861,0.5366,-0.80639,0.23481,-0.11551,0.52517
-0.27251,0.47906,-0.83441,0.3107,-0.20115,0.58316
-0.29537,0.42899,-0.85365,0.23986,-0.4852,0.57985
-0.31706,0.38883,-0.86503,0.21206,-0.42423,0.68388
-0.33354,0.35778,-0.8722,0.20048,-0.40034,0.68567
-0.34186,0.33656,-0.87742,0.1354,-0.48951,0.56586
-0.34385,0.32483,-0.88105,0.12155,-0.53271,0.47393
-0.34029,0.32241,-0.88332,0.2201,-0.44063,0.31853
-0.33364,0.32851,-0.88361,0.25782,-0.41699,0.12613
-0.32889,0.34022,-0.88096,0.39307,-0.35796,0.01389
-0.32141,0.35916,-0.87618,0.5035,-0.3056,-0.18158
-0.31485,0.38742,-0.86647,0.45386,-0.30558,-0.52975
-0.31177,0.42059,-0.852,0.25256,0.23069,-1.33185
-0.31103,0.44305,-0.84081,-0.27208,1.64162,-1.26808
-0.33656,0.46572,-0.81843,-0.22229,0.37037,0.19964
-0.33585,0.49886,-0.79896,-0.46155,-0.63111,0.72667
-0.32778,0.53607,-0.77793,0.18655,-0.35669,-0.10793
-0.2973,0.57837,-0.75967,0.0792,0.34375,0.19092
-0.27097,0.61914,-0.73705,-0.59457,0.40132,0.31927
-0.24358,0.657,-0.71345,-0.29722,0.25189,0.22357
-0.20819,0.6942,-0.68901,0.00054,0.06443,0.16317
-0.16672,0.73149,-0.66116,-0.05824,-0.09408,0.25991
-0.12675,0.76645,-0.62968,-0.087,-0.09771,0.19004
-0.09164,0.79894,-0.59438,-0.03064,0.06187,0.23026
-0.06074,0.82879,-0.55624,-0.02375,0.14818,0.08473
-0.03575,0.85576,-0.51614,-0.065,0.12364,0.14422
-0.01289,0.88028,-0.47429,-0.03842,-0.02093,0.1479
0.00325,0.90226,-0.43116,-0.02253,-0.15428,0.10974
0.01179,0.92217,-0.38661,0.05182,-0.12567,0.09883
0.01714,0.9401,-0.34046,0.19244,0.05323,0.10747
0.02061,0.95547,-0.29435,0.35003,0.21652,0.14002
0.01818,0.96668,-0.25532,0.33512,0.16863,0.09801
0.00928,0.97404,-0.22618,0.17435,0.0468,0.00961
-0.00182,0.97954,-0.20123,-0.07073,-0.17824,-0.16078
-0.01148,0.98471,-0.17379,-0.19035,-0.23322,-0.13845
-0.0205,0.98948,-0.1432,-0.13842,-0.12476,-0.07833
-0.02899,0.99331,-0.1117,-0.10321,0.07918,-0.16366
-0.03213,0.99658,-0.07612,-0.03176,0.13698,-0.18702
-0.03497,0.9983,-0.04663,0.21473,0.07124,-0.08534
-0.04213,0.99876,-0.02636,0.23729,-0.01702,-0.14432
-0.05054,0.99868,-0.00903,0.12582,-0.00992,-0.1835
-0.05726,0.99832,0.008,0.08058,-0.03873,-0.17725
-0.06263,0.99778,0.02262,0.06711,-0.07903,-0.17048
-0.06687,0.99716,0.03453,-0.00108,-0.11235,-0.15943
-0.07027,0.99654,0.04436,0.02677,-0.14626,-0.17785
-0.07381,0.99588,0.05261,0.11041,-0.12618,-0.11363
-0.07892,0.99522,0.05738,0.09656,-0.1088,-0.13432
-0.08579,0.99466,0.0573,0.03728,-0.07993,-0.21416
-0.09176,0.994,0.05949,0.02413,-0.12394,-0.12357
-0.0968,0.99313,0.06569,0.10349,-0.14488,0.12366
-0.10137,0.99207,0.07425,0.13699,-0.14705,0.16777
-0.10524,0.9906,0.08731,0.13149,0.04869,0.10587
-0.10923,0.98849,0.10464,-0.12364,0.45205,0.08878
-0.11297,0.98582,0.12402,0.0388,0.89871,0.15654
-0.11428,0.98276,0.14531,0.31417,0.78302,0.00533
-0.1131,0.97883,0.17054,0.00732,0.62697,0.09917
-0.10955,0.97405,0.19804,-0.1576,0.83302,0.04746
-0.10605,0.9687,0.22444,-0.13903,0.70162,-0.0927
-0.10361,0.96291,0.24911,-0.06562,0.3417,-0.25367
-0.10469,0.95726,0.26959,-0.00371,0.28636,-0.25839
-0.10851,0.95344,0.28137,0.01416,0.16408,-0.40597
-0.11221,0.9528,0.28208,0.01876,0.13278,-0.49706
-0.11123,0.95687,0.26837,0.11152,0.13999,-0.63518
-0.10426,0.96516,0.23998,0.26716,0.08748,-0.70086
-0.0915,0.97475,0.20368,0.28201,-0.01277,-0.38009
-0.07479,0.98297,0.16782,0.2223,0.00444,-0.14553
-0.05989,0.98974,0.1297,0.10665,0.02023,0.05667
-0.04922,0.99511,0.08555,-0.22433,0.06507,0.30239
-0.04152,0.99842,0.0378,-0.28063,0.03723,0.13536
-0.03434,0.99933,-0.01222,-0.23776,-0.03829,0.13617
-0.02693,0.99765,-0.06288,-0.13739,-0.02384,0.15119
-0.01837,0.99376,-0.11001,-0.09784,0.00499,0.21212
-0.01254,0.9879,-0.15455,-0.09122,-0.01589,0.16891
-0.01278,0.97994,-0.19888,-0.09938,-0.04944,0.17908
-0.01895,0.96985,-0.24297,-0.11338,-0.08586,0.18204
-0.02771,0.95852,-0.28365,-0.18184,-0.1765,0.13758
-0.0381,0.94735,-0.31792,-0.26738,-0.23089,0.19747
-0.04967,0.93612,-0.34814,-0.22668,-0.24386,0.19601
-0.06118,0.92525,-0.37438,-0.21325,-0.26879,0.19966
-0.07165,0.91526,-0.39642,-0.15412,-0.30667,0.22793
-0.08096,0.90642,-0.41453,-0.1258,-0.31618,0.23904
-0.08953,0.89912,-0.42843,0.01734,-0.29819,0.26227
-0.09752,0.89313,-0.43909,0.09403,-0.29195,0.27305
-0.10705,0.88843,-0.44636,0.14461,-0.27396,0.27015
-0.11904,0.88494,-0.45024,0.13169,-0.34151,0.26165
-0.1304,0.88337,-0.45017,0.10971,-0.4181,0.25527
-0.14093,0.88375,-0.44623,0.10369,-0.39161,0.23099
-0.1494,0.88626,-0.43843,0.10138,-0.345,0.1661
-0.15519,0.89136,-0.4259,0.11771,-0.29262,0.09196
-0.15982,0.89893,-0.4079,0.16929,-0.26416,-0.02559
-0.1651,0.90882,-0.38312,0.20746,-0.23289,-0.13246
-0.17157,0.92048,-0.35111,0.22305,-0.10929,-0.29673
-0.17595,0.93252,-0.31534,0.21533,-0.04097,-0.38075
-0.17302,0.94338,-0.28301,-0.01717,0.21321,-0.41681
-0.1673,0.95172,-0.25737,-0.2014,0.34471,-0.49036
-0.16236,0.95622,-0.24348,-0.30198,0.33701,-0.55422
-0.15884,0.95767,-0.24007,-0.19701,0.30793,-0.46487
-0.15913,0.95837,-0.23707,-0.17216,-0.03886,-0.23994
-0.16662,0.95734,-0.23608,-0.29803,-0.27295,-0.07032
-0.17876,0.95813,-0.22365,-0.53168,-0.29317,0.00986
-0.18662,0.96332,-0.19284,-0.25532,0.20998,0.1395
-0.1805,0.97269,-0.14592,0.17125,0.56042,0.39653
-0.16161,0.98118,-0.10567,0.10375,0.57072,0.27648
-0.14331,0.98499,-0.0962,0.05745,0.14761,-0.09696
-0.12407,0.98783,-0.09378,0.05588,-0.30078,0.0269
-0.09778,0.99234,-0.0754,0.03076,-0.5676,0.16599
-0.07858,0.99596,-0.04326,-0.09181,-0.20257,0.45461
-0.06949,0.9975,-0.01281,-0.11937,-0.02536,0.38407
-0.06281,0.998,0.00677,-0.085,0.13378,0.25842
-0.05661,0.99825,0.01708,-0.01333,0.10338,0.01107
-0.04812,0.99853,0.02457,-0.18276,-0.04559,0.00982
-0.03634,0.99865,0.03694,-0.23849,-0.14936,0.09283
-0.0232,0.99819,0.05544,-0.10222,-0.07102,0.17727
-0.01184,0.99723,0.07341,0.03002,0.03514,0.20547
-0.00129,0.99623,0.08664,0.05392,0.03447,0.15064
0.00916,0.99515,0.09788,0.03657,0.00193,0.167
0.0194,0.99365,0.11081,-0.04944,-0.02738,0.1923
0.02821,0.99193,0.12355,-0.06111,-0.04587,0.27179
0.03539,0.99036,0.13389,-0.0047,-0.00988,0.24952
0.04069,0.98891,0.1428,0.04131,-0.01798,0.16847
0.04606,0.9869,0.15457,0.05355,-0.02326,0.13586
0.05096,0.98421,0.16949,0.00915,-0.02698,0.15564
0.05494,0.98145,0.18364,0.01551,-0.03804,0.08003
0.05638,0.97928,0.19448,0.07163,-0.00394,-0.01191
0.05644,0.97744,0.20352,0.09901,0.00274,-0.03645
0.0562,0.9754,0.21315,0.18877,-0.02503,0.0211
0.0554,0.97321,0.22309,0.19839,-0.06748,0.00865
0.05285,0.97104,0.23296,0.17895,-0.06462,-0.01006
0.0476,0.96872,0.24352,0.15277,-0.06346,-0.02865
0.03967,0.96605,0.25527,0.04759,-0.02826,-0.03311
0.02862,0.9632,0.26724,0.04847,0.07122,-0.04012
0.01642,0.96025,0.27861,0.06113,0.04655,-0.09424
0.00396,0.95771,0.28768,0.04696,-0.00937,-0.14147
-0.00837,0.95559,0.29456,0.11491,0.02161,-0.17432
-0.0204,0.95381,0.29969,0.19447,0.11904,-0.20219
-0.03158,0.95253,0.30279,0.1793,0.10198,-0.27975
-0.04273,0.95179,0.30374,0.1108,0.09353,-0.3377
-0.05431,0.95201,0.30117,0.07924,0.09539,-0.38712
-0.06566,0.95338,0.29451,0.04808,0.17668,-0.38069
-0.07285,0.95685,0.28129,0.10264,0.26332,-0.35892
-0.07495,0.96337,0.25744,0.08173,0.25483,-0.32093
-0.07158,0.97271,0.22066,0.03874,0.24973,-0.19681
-0.06336,0.98307,0.17191,-0.05174,0.29362,0.02399
-0.05219,0.99232,0.11212,-0.12449,0.41579,0.042
-0.0384,0.99773,0.05512,-0.21784,0.57764,0.10421
-0.02328,0.99964,0.01293,-0.3924,0.48388,0.22158
-0.00809,0.99946,-0.0317,-0.45464,0.45573,0.25041
0.00315,0.99618,-0.08724,-0.54429,0.42812,0.29311
0.00816,0.98908,-0.14712,-0.49241,0.19389,0.40987
0.00667,0.97782,-0.20931,-0.30478,0.07562,0.33271
-0.00196,0.96218,-0.27241,-0.26578,0.08603,0.3457
-0.01224,0.94269,-0.33343,-0.3656,0.16667,0.16174
-0.02366,0.91963,-0.39207,-0.41231,0.20797,0.20751
-0.03618,0.89295,-0.44868,-0.28146,0.13045,0.39987
-0.04838,0.85858,-0.51039,-0.17061,0.26384,0.31152
-0.05857,0.81838,-0.57168,-0.09844,0.26638,0.32026
-0.06679,0.77502,-0.62839,0.27855,0.13318,0.21179
-0.0771,0.73168,-0.67727,0.33537,0.11885,0.24229
-0.09462,0.68904,-0.71852,0.38575,0.02636,0.32053
-0.11831,0.64987,-0.75078,0.35627,-0.28239,0.27836
-0.14673,0.61565,-0.77424,0.28586,-0.3104,0.33419
-0.17449,0.58827,-0.78961,0.17809,-0.46195,0.31547
-0.19708,0.57091,-0.79701,0.16751,-0.47951,0.28097
-0.21371,0.56431,-0.79742,0.12768,-0.3657,0.24548
-0.22041,0.56703,-0.79366,0.01232,-0.34516,0.13823
-0.21645,0.57576,-0.78845,-0.08781,-0.31199,-0.01052
-0.20191,0.58784,-0.78337,-0.17338,-0.33514,-0.18462
-0.19044,0.60491,-0.77318,-0.01726,-0.33324,-0.14396
-0.18412,0.62872,-0.75552,-0.01998,-0.19305,-0.25803
-0.17055,0.65072,-0.73991,-0.67209,0.46767,-0.3186
-0.15572,0.66731,-0.72831,-0.42526,0.82774,0.10101
-0.15289,0.68743,-0.70998,-0.07401,0.51039,0.3663
-0.1375,0.71031,-0.69033,-0.11361,-0.26091,0.26502
-0.11335,0.73672,-0.66663,0.08421,-0.28399,0.4649
-0.07949,0.76575,-0.63821,-0.04545,0.20203,0.42501
-0.04719,0.79461,-0.60527,-0.02738,0.73761,0.35587
-0.02041,0.82129,-0.57014,0.07039,0.66835,0.29814
4e-05,0.84548,-0.534,0.08325,0.17763,0.2477
0.02117,0.8672,-0.49751,0.1133,-0.0785,0.23223
0.04535,0.88792,-0.45775,0.13102,-0.09675,0.24436
0.0685,0.90662,-0.41634,0.14397,0.0126,0.1431
0.08541,0.92385,-0.37311,0.08378,0.06886,0.17111
0.09806,0.93882,-0.33013,0.05321,0.05448,0.14639
0.10415,0.95071,-0.29204,0.00457,0.01079,0.13761
0.10475,0.96018,-0.25899,-0.03803,-0.13556,0.14972
0.10339,0.96778,-0.22958,-0.00369,-0.11532,0.0601
0.10191,0.97473,-0.19879,-0.00115,-0.09515,0.02941
0.09888,0.98098,-0.16699,-0.19682,0.05092,-0.07945
0.09397,0.98636,-0.13508,-0.2192,0.11338,-0.08593
0.0903,0.99036,-0.10495,-0.24909,0.13142,-0.06952
0.08778,0.99299,-0.07906,0.07837,0.08054,-0.06741
0.08546,0.99466,-0.0577,0.16198,0.10452,-0.04032
0.08649,0.9955,-0.03853,0.21831,0.13296,-0.02508
0.08765,0.99586,-0.0239,-0.07681,-0.02499,0.00469
0.08403,0.99631,-0.01731,-0.15626,-0.02058,-0.03049
0.07938,0.99673,-0.01497,-0.24832,0.03341,-0.14769
0.07569,0.99703,-0.01396,-0.18659,0.02511,-0.15344
0.07077,0.99737,-0.01508,-0.0522,-0.06134,-0.14239
0.06648,0.9976,-0.01909,0.08043,-0.12435,-0.06457
0.06165,0.99778,-0.02488,0.04096,-0.13937,-0.02071
0.05543,0.99794,-0.03209,-0.04333,-0.14147,0.00654
0.04837,0.99809,-0.03825,-0.15008,-0.13167,0.0755
0.04063,0.99849,-0.03696,-0.07763,-0.13079,0.21106
0.03128,0.99903,-0.03087,0.0556,-0.16683,0.31813
0.02333,0.99954,-0.01937,-0.04785,0.06849,0.27004
0.01805,0.99982,-0.00508,-0.06312,0.2865,0.24778
0.01696,0.99976,0.01339,0.24152,0.82218,0.18376
0.01688,0.99911,0.03839,0.03418,0.84602,0.14829
0.01692,0.99734,0.07087,-0.11893,0.73176,0.21151
0.01887,0.99424,0.10543,-0.24886,0.92925,0.11099
0.02227,0.99013,0.13837,-0.16453,0.52683,-0.11677
0.02012,0.98586,0.16632,-0.28127,0.4371,-0.31517
0.01373,0.98272,0.18454,-0.17386,0.41443,-0.54952
0.00754,0.98186,0.18943,0.0627,0.23419,-0.674
0.01014,0.98453,0.1749,0.33242,0.19595,-0.69633
0.01878,0.98974,0.14163,0.31763,0.10681,-0.55795
0.02738,0.9946,0.1,0.10832,-0.03097,-0.18727
0.03671,0.99802,0.05089,0.01812,0.00291,0.10275
0.04306,0.99906,-0.00279,-0.19382,0.13317,0.11202
0.04447,0.99718,-0.06037,-0.30549,0.39724,0.12079
0.03909,0.99169,-0.12252,-0.4326,0.32514,0.30361
0.03501,0.98163,-0.18752,-0.17208,0.30444,0.30613
0.03325,0.96627,-0.25535,0.09489,0.22463,0.22509
0.03049,0.94539,-0.32449,0.04912,0.19668,0.1379
0.02356,0.91895,-0.39365,0.00583,0.19357,0.11759
0.01305,0.888,-0.45966,-0.06559,0.20678,0.32533
-0.00042,0.85179,-0.52387,-0.22849,0.1639,0.26063
-0.0185,0.80967,-0.58659,-0.27217,0.11736,0.17315
-0.03665,0.76258,-0.64585,-0.19999,0.13175,0.17168
-0.05442,0.70972,-0.70237,-0.03155,0.11296,0.42074
-0.07307,0.65009,-0.75633,0.03143,0.1446,0.40186
-0.09384,0.58559,-0.80515,0.05521,0.18135,0.35255
-0.12027,0.51818,-0.84677,0.24557,0.00774,0.4558
-0.15202,0.45037,-0.87981,0.35272,0.01152,0.51472
-0.18542,0.3829,-0.90499,0.41308,-0.00119,0.60142
-0.21495,0.31946,-0.9229,0.13104,-0.13958,0.69461
-0.23749,0.26394,-0.93484,0.04004,-0.28099,0.65503
-0.25327,0.21828,-0.94245,0.06676,-0.21206,0.65535
-0.26162,0.18326,-0.94761,0.03658,-0.3156,0.68315
-0.2637,0.15969,-0.95129,0.086,-0.38865,0.60846
-0.26225,0.14772,-0.95363,0.13011,-0.38595,0.57802
-0.2642,0.14656,-0.95327,0.26547,-0.34196,0.2573
-0.26924,0.15433,-0.95063,0.28608,-0.31813,0.1516
-0.27429,0.16926,-0.94663,0.33277,-0.24831,0.01508
-0.27857,0.19086,-0.94126,0.34721,-0.21922,-0.08581
-0.2826,0.2231,-0.93293,0.29789,-0.25137,-0.2025
-0.28826,0.26602,-0.91986,-0.41223,0.39243,-1.44301
-0.27325,0.28945,-0.91736,-0.8669,1.47474,-1.86198
-0.30898,0.30626,-0.90041,-0.17675,0.98489,-0.3412
-0.31612,0.33827,-0.88636,-0.50058,-0.65409,0.46834
-0.32168,0.37987,-0.86731,-0.19202,-0.53804,0.05913
-0.30367,0.42527,-0.8526,0.46464,0.42523,-0.03461
-0.27322,0.47386,-0.83714,-0.63112,0.48509,0.52847
-0.25041,0.51599,-0.81917,-0.55702,0.37945,0.33528
-0.2253,0.55661,-0.79964,0.02588,0.14181,0.26863
-0.1903,0.5992,-0.77765,-0.08224,-0.05296,0.33474
-0.15348,0.64064,-0.75234,-0.0655,-0.08439,0.34726
-0.11769,0.67984,-0.72386,-0.01757,0.08237,0.34158
-0.08385,0.71628,-0.69276,-0.0148,0.27232,0.24088
-0.05601,0.74979,-0.6593,0.02608,0.27011,0.18187
-0.03285,0.78075,-0.62398,0.03175,0.09122,0.24663
-0.0101,0.80949,-0.58705,0.09213,-0.04177,0.22949
0.0097,0.83679,-0.54744,0.12484,-0.09405,0.16815
0.02439,0.86265,-0.50521,0.16215,-0.01752,0.16964
0.03655,0.88605,-0.46214,0.21337,0.0729,0.1461
0.04091,0.90607,-0.42114,0.15144,0.04101,0.13012
0.03934,0.92269,-0.38352,0.0937,-0.01265,0.08299
0.03589,0.93713,-0.34712,0.01612,-0.04649,0.0786
0.0312,0.94877,-0.31441,-0.06762,-0.11105,0.01939
0.0247,0.95789,-0.28605,-0.0686,-0.08437,-0.06405
0.01999,0.9669,-0.25435,-0.14796,0.01024,-0.09991
0.01938,0.97578,-0.21787,-0.15135,0.05671,-0.09951
0.01513,0.98228,-0.18678,-0.0969,0.03579,-0.13407
0.00978,0.98742,-0.1578,0.0525,0.01838,-0.10697
0.0052,0.99142,-0.13053,0.11643,0.01959,-0.09784
0.00097,0.99406,-0.10875,0.0936,0.08865,-0.05549
-0.00339,0.99547,-0.09492,-0.01054,0.00161,-0.07645
-0.00715,0.99605,-0.08845,-0.09869,-0.06525,-0.17043
-0.01129,0.99625,-0.08575,-0.03766,-0.09663,-0.18159
-0.0161,0.99629,-0.08447,-0.0162,-0.08856,-0.1211
-0.02275,0.99585,-0.08805,0.00184,-0.14232,-0.08349
-0.03061,0.99542,-0.09048,0.05031,-0.16778,0.01638
-0.03529,0.99546,-0.08831,0.11856,-0.22697,0.16491
-0.03821,0.99595,-0.08136,0.03278,-0.2222,0.20762
-0.04082,0.99666,-0.07058,0.01956,-0.12214,0.2065
-0.04387,0.99755,-0.05436,-0.22723,0.16436,0.2105
-0.04855,0.99828,-0.0327,-0.22127,0.3493,0.44084
-0.05496,0.99845,-0.00765,-0.3943,0.67881,0.2855
-0.05966,0.99805,0.01821,0.11554,1.05794,0.23488
-0.0604,0.99702,0.0478,0.23248,0.74698,0.07552
-0.05772,0.99517,0.07928,-0.04349,0.77903,0.03709
-0.04835,0.99264,0.11092,-0.0836,0.70049,-0.0503
-0.03759,0.98945,0.13989,0.10661,0.30625,-0.11662
-0.0295,0.98645,0.16135,-0.01118,0.413,-0.24675
-0.02533,0.98511,0.16997,-0.08332,0.29017,-0.43639
-0.0189,0.98637,0.16339,0.02088,0.23114,-0.70731
-0.00964,0.99015,0.13961,0.12961,0.2602,-0.61904
0.00466,0.99484,0.10125,0.35297,0.16034,-0.48271
0.02508,0.99826,0.05324,0.29667,0.1295,0.05925
0.0465,0.99891,0.00233,0.01341,0.14008,0.46215
0.05226,0.99726,-0.0523,-0.36066,0.14413,0.30113
0.04522,0.99239,-0.11447,-0.54923,0.24169,0.23538
0.03365,0.98288,-0.18112,-0.3705,0.29085,0.17915
0.02434,0.96809,-0.24941,-0.01395,0.28832,0.15031
0.02267,0.94787,-0.31784,0.21709,0.28298,0.09319
0.02235,0.92353,-0.38285,0.27482,0.21456,0.20287
0.01356,0.89483,-0.44619,-0.01517,0.06808,0.3121
-0.00329,0.86013,-0.51007,-0.24718,0.06866,0.27191
-0.02588,0.81993,-0.57188,-0.26307,0.14268,0.21911
-0.04922,0.77598,-0.62883,-0.25671,0.08138,0.27224
-0.06961,0.72813,-0.68189,-0.19911,0.09404,0.30535
-0.08355,0.67588,-0.73226,-0.05279,0.15207,0.39681
-0.09788,0.61736,-0.78057,0.09143,0.17149,0.4976
-0.1167,0.55366,-0.82452,0.24533,0.18378,0.51161
-0.1414,0.48755,-0.86157,0.21414,0.11553,0.52514
-0.17253,0.42185,-0.8901,0.14896,-0.14065,0.58492
-0.20323,0.36035,-0.91041,0.19015,-0.17349,0.61665
-0.23163,0.30547,-0.9236,0.24618,-0.16361,0.69915
-0.25478,0.25925,-0.9316,0.12005,-0.23944,0.68738
-0.27215,0.22329,-0.93599,0.10018,-0.1985,0.71165
-0.28139,0.1967,-0.93921,0.03306,-0.22266,0.63704
-0.28272,0.17973,-0.94221,0.03462,-0.32825,0.55469
-0.2759,0.17293,-0.9455,0.05495,-0.34626,0.44335
-0.26554,0.17572,-0.94795,0.17516,-0.34697,0.28097
-0.25754,0.18755,-0.94789,0.33739,-0.33452,0.09662
-0.25102,0.20734,-0.94552,0.29936,-0.28328,-0.0847
-0.2428,0.22842,-0.9428,0.19169,-0.03196,-0.76316
-0.23504,0.23954,-0.942,-0.21784,0.95484,-1.52668
-0.26287,0.24983,-0.93192,-0.04371,0.64171,-0.99435
-0.30076,0.275,-0.91319,0.00211,-0.13982,0.06599
-0.31706,0.31248,-0.89545,-0.5035,-0.55169,0.63175
-0.31576,0.35862,-0.87846,-0.19512,-0.03868,-0.14054
-0.29223,0.40782,-0.86503,-0.06388,0.50484,0.26675
-0.26345,0.45698,-0.84956,-0.32803,0.34581,0.32132
-0.23975,0.50013,-0.8321,-0.00677,0.23141,0.10926
-0.20869,0.54273,-0.81356,-0.06746,0.07943,0.29325
-0.17219,0.58692,-0.79112,-0.20975,-0.00204,0.43615
-0.1339,0.63051,-0.76454,-0.22028,0.06341,0.36778
-0.09676,0.67204,-0.73416,-0.13556,0.19737,0.39823
-0.0603,0.71191,-0.69967,-0.08725,0.30957,0.32537
-0.0292,0.74831,-0.6627,-0.05993,0.26011,0.1618
-0.00525,0.78094,-0.62459,0.00462,0.1121,0.2113
0.01646,0.81149,-0.58413,0.04673,-0.02387,0.22524
0.03697,0.83989,-0.54148,0.12863,-0.09757,0.21562
0.05403,0.86625,-0.49667,0.19148,-0.01972,0.17445
0.06653,0.89047,-0.45014,0.2114,0.0447,0.1705
0.0725,0.91175,-0.40429,0.1973,0.09399,0.14559
0.07028,0.92822,-0.36532,0.16608,0.10474,0.13417
0.06136,0.94089,-0.33311,0.03843,0.03227,0.10345
0.04951,0.95081,-0.30577,-0.10299,-0.03863,0.04648
0.0393,0.95939,-0.27932,-0.16535,-0.05021,0.0769
0.02945,0.96752,-0.25107,-0.2489,-0.00166,0.0025
0.02617,0.97623,-0.21514,-0.17875,-0.0032,0.02191
0.02678,0.98333,-0.17983,-0.01132,0.00842,0.06644
0.02437,0.98807,-0.15206,0.1632,0.07614,0.06553
0.01897,0.99108,-0.13191,0.18125,0.07632,-0.06183
0.01663,0.99325,-0.11472,0.08374,0.05608,0.00087
0.01517,0.99454,-0.10322,0.01335,0.00107,-0.00509
0.01367,0.99507,-0.09822,-0.14854,-0.1634,-0.07462
0.01192,0.99539,-0.09513,-0.14655,-0.18948,-0.09194
0.00923,0.99572,-0.09195,-0.08398,-0.17644,-0.07865
0.00692,0.99605,-0.08853,0.14187,-0.19008,0.05314
0.00401,0.9962,-0.08693,0.13792,-0.21947,0.02789
-0.00014,0.99637,-0.08511,0.07962,-0.27078,0.05907
-0.00363,0.9967,-0.08101,-0.01968,-0.23387,0.09934
-0.00756,0.99722,-0.07404,-0.20795,-0.0955,0.11648
-0.01167,0.99799,-0.0622,-0.15705,0.00904,0.25414
-0.01642,0.99873,-0.04745,-0.12608,0.14543,0.3733
-0.02252,0.99917,-0.03381,-0.23059,0.41029,0.26955
-0.02661,0.99947,-0.01832,-0.13334,0.8343,0.1712
-0.03081,0.99952,0.00047,0.24704,0.86425,0.30423
-0.03511,0.99913,0.02217,0.05411,0.56265,0.07858
-0.03454,0.99818,0.04938,-0.09771,0.63718,0.33017
-0.03107,0.99641,0.07865,-0.0213,0.62343,0.16433
-0.02481,0.99377,0.10857,0.02612,0.41178,0.05502
-0.0211,0.99047,0.13608,-0.05164,0.38507,-0.06111
-0.02373,0.98703,0.15873,-0.327,0.32181,-0.17959
-0.02778,0.98521,0.16902,-0.28907,0.1863,-0.41461
-0.03352,0.98579,0.16457,-0.01077,0.1091,-0.44574
-0.03844,0.98865,0.14519,0.06177,0.03816,-0.43771
-0.03831,0.99263,0.11494,0.1469,-0.07119,-0.39367
-0.03188,0.99627,0.08014,0.18751,-0.08768,-0.1293
-0.02167,0.99877,0.04439,0.02817,-0.05343,0.06036
-0.01136,0.99989,0.00891,-0.09829,0.01589,0.22031
-0.00302,0.99962,-0.02701,-0.21738,-0.01974,0.19378
0.00342,0.99789,-0.06482,-0.2121,-0.02793,0.12549
0.00916,0.99444,-0.10486,-0.12607,-0.04147,0.12536
0.01528,0.98939,-0.14448,-0.04239,-0.07067,0.27882
0.01946,0.98304,-0.18233,-0.01724,-0.06144,0.40059
0.01888,0.97539,-0.21967,-0.01564,-0.04841,0.43679
0.01213,0.96545,-0.26028,-0.22018,-0.06013,0.17305
0.00272,0.95373,-0.30063,-0.34875,-0.109,0.10036
-0.00726,0.94182,-0.33603,-0.41158,-0.18745,0.18441
-0.01801,0.93031,-0.36632,-0.33476,-0.21637,0.27156
-0.02675,0.91945,-0.39227,-0.20309,-0.21282,0.29555
-0.0323,0.90915,-0.4152,-0.14238,-0.21033,0.24329
-0.03574,0.89982,-0.43479,-0.13038,-0.23624,0.25116
-0.03805,0.8919,-0.45062,-0.11261,-0.26386,0.28778
-0.04185,0.88529,-0.46315,-0.07076,-0.25405,0.32291
-0.04763,0.88025,-0.47211,-0.05533,-0.26663,0.33888
-0.05444,0.87768,-0.47614,-0.02017,-0.28396,0.39883
-0.06184,0.87714,-0.47623,-0.00884,-0.29798,0.36667
-0.06758,0.87871,-0.47254,0.01967,-0.30122,0.31182
-0.07319,0.88252,-0.46453,0.069,-0.2646,0.25701
-0.07888,0.88896,-0.45113,0.09724,-0.24933,0.2078
-0.08624,0.89799,-0.43147,0.11068,-0.2243,0.14777
-0.09278,0.90921,-0.40585,0.07096,-0.29393,0.09689
