gravity.x,gravity.y,gravity.z,userAcceleration.x,userAcceleration.y,userAcceleration.z
0.06928,0.55596,-0.82831,-0.1753,-0.29925,-0.02961
0.096,0.57478,-0.81265,-0.05477,-0.22661,-0.22238
0.11614,0.59348,-0.79643,0.14457,-0.24661,-0.37877
0.13458,0.61355,-0.7781,0.14153,-0.28358,-0.46653
0.15674,0.63895,-0.75311,-0.08671,-0.3837,-0.27837
0.18292,0.67328,-0.7164,-0.33742,-0.31394,0.09842
0.20071,0.70694,-0.67819,-0.02929,0.68966,-1.03783
0.20382,0.72457,-0.65837,0.38107,1.27231,0.68419
0.21827,0.74056,-0.63555,-0.57141,0.14989,0.49889
0.24066,0.76133,-0.60204,-1.05758,-0.75782,0.28609
0.27253,0.7804,-0.56276,-0.07929,0.51778,0.44058
0.31184,0.80271,-0.50834,-0.14858,0.72372,0.04795
0.34676,0.82019,-0.45502,-0.20032,0.7746,0.01887
0.37638,0.83686,-0.3975,-0.1071,0.19883,0.24547
0.39962,0.85245,-0.33709,-0.10599,0.15054,0.22413
0.41487,0.86687,-0.27643,-0.12011,0.1172,0.22702
0.42141,0.88083,-0.21576,-0.07253,0.06438,0.15251
0.42019,0.89485,-0.15059,-0.05827,-0.06512,0.14891
0.40499,0.91063,-0.08201,-0.01484,-0.12683,0.20632
0.37522,0.92661,-0.02456,0.12043,0.07318,0.1658
0.3473,0.93769,0.01031,0.3539,0.07781,0.00489
0.32666,0.9443,0.03972,0.38816,-0.09915,-0.22589
0.31447,0.9454,0.08551,0.20065,-0.31901,-0.39288
0.31709,0.94026,0.12393,0.01098,-0.28053,-0.36706
0.32966,0.93133,0.15473,-0.07043,-0.14089,-0.17139
0.33424,0.92448,0.18331,-0.34139,-0.22752,-0.27574
0.33374,0.91987,0.20603,-0.27984,-0.05626,-0.24997
0.32676,0.91828,0.22358,-0.1896,0.10069,-0.27343
0.31368,0.91937,0.23739,0.03318,0.07825,-0.26246
0.29893,0.92201,0.24603,0.118,-0.06105,-0.22331
0.28571,0.9234,0.2563,0.05307,0.01999,-0.25293
0.27258,0.92355,0.26971,0.08376,0.12788,-0.42339
0.2591,0.92406,0.28102,0.23441,0.07263,-0.23643
0.24593,0.92599,0.28646,0.26175,0.10508,-0.23289
0.23818,0.9272,0.28906,0.33041,0.09321,-0.2182
0.23548,0.92852,0.28704,0.39776,0.05135,-0.09055
0.23264,0.92918,0.28723,0.35382,0.08886,-0.20978
0.23218,0.92924,0.28742,0.17722,0.20512,-0.38573
0.23203,0.93017,0.28449,-0.02033,0.26554,-0.46832
0.23121,0.9333,0.27474,-0.06524,0.26975,-0.47356
0.23413,0.9388,0.25265,0.11163,0.27617,-0.2516
0.24443,0.94596,0.21306,0.18643,0.18102,-0.11142
0.26534,0.95031,0.16276,0.13525,0.17739,-0.19766
0.28979,0.95114,0.10654,-0.34655,0.42533,-0.28663
0.30529,0.9512,0.04483,-0.53016,0.76841,0.38152
0.3064,0.95161,-0.0236,-0.59272,0.86242,0.39945
0.29172,0.95228,-0.08979,-0.71579,0.91779,0.12528
0.25152,0.95664,-0.14685,-0.95527,0.27796,0.14891
0.20912,0.95533,-0.20884,-0.90411,0.09684,0.34681
0.18395,0.94476,-0.27127,0.05398,-0.20379,0.25086
0.16528,0.93169,-0.32348,0.27582,-0.26215,0.29123
0.1565,0.9189,-0.36212,0.46624,-0.27202,0.34479
0.15469,0.90812,-0.38908,0.23667,-0.44239,0.38527
0.14074,0.89899,-0.41474,-0.12084,-0.45345,0.44541
0.12163,0.89161,-0.43616,-0.20062,-0.43967,0.45785
0.10835,0.88612,-0.45061,-0.25865,-0.49719,0.23851
0.10723,0.88446,-0.45412,-0.25004,-0.44606,0.11904
0.1152,0.88685,-0.44746,-0.17413,-0.32521,0.04045
0.1306,0.89089,-0.43503,-0.0186,-0.24,0.0052
0.15471,0.89402,-0.42046,-0.04463,-0.26373,-0.05753
0.18655,0.89634,-0.40221,-0.12568,-0.30151,-0.26482
0.21744,0.8997,-0.3785,-0.2182,-0.21321,-0.53595
0.23878,0.90462,-0.35305,-0.16465,-0.03208,-0.66583
0.25011,0.90968,-0.33154,-0.06299,0.13579,-0.71308
0.25516,0.91276,-0.31899,-0.05586,0.31922,-0.66838
0.2556,0.91324,-0.31728,-0.17133,0.13445,-0.67499
0.2537,0.91312,-0.31914,-0.45334,-0.03282,-0.53532
0.25459,0.91476,-0.31369,-0.52324,0.2304,-0.31183
0.25656,0.92,-0.29628,-0.36808,0.51061,0.38107
0.26473,0.92731,-0.2646,-0.03727,1.25732,0.57605
0.28035,0.92378,-0.26082,-0.25679,0.06322,0.50421
0.29783,0.91894,-0.25854,-0.73992,-0.68568,0.80455
0.30597,0.92018,-0.24423,-0.51321,-0.31558,0.00822
0.30087,0.93017,-0.21038,-0.34237,-0.07871,0.67536
0.28762,0.94231,-0.17125,-0.16557,0.04774,0.81019
0.26881,0.95507,-0.1248,0.00623,0.44027,0.74566
0.27179,0.95913,-0.07877,0.30287,0.55169,0.43864
0.2898,0.95639,-0.03632,0.59229,0.23669,-0.17814
0.30329,0.95279,0.01426,0.54983,0.12648,-0.20277
0.30272,0.95173,0.0506,0.49634,-0.19877,-0.21841
0.30118,0.95034,0.07837,0.18762,-0.20528,-0.23451
0.30529,0.94702,0.09975,0.10386,-0.19835,-0.17331
0.31166,0.94256,0.12017,0.14851,-0.02102,-0.12842
0.31575,0.93803,0.14282,0.30793,-0.07406,-0.27851
0.32033,0.93252,0.16672,0.24517,-0.06419,-0.2847
0.32416,0.92626,0.19225,-0.05161,0.108,-0.52294
0.32491,0.92334,0.20462,-0.33889,-0.09506,-0.39018
0.32532,0.92214,0.20931,0.07171,-0.03419,-0.2548
0.32141,0.92224,0.21487,0.21856,-0.07773,-0.20084
0.31453,0.92328,0.2205,-0.0121,-0.07684,-0.22868
0.30615,0.92459,0.2267,0.00097,-0.06258,-0.23775
0.29727,0.92604,0.23256,0.09511,-0.03146,-0.20164
0.28554,0.92796,0.23947,0.1008,0.06459,-0.22732
0.27085,0.93062,0.24613,0.10141,0.10846,-0.26855
0.25516,0.93352,0.25183,0.18033,0.24314,-0.21782
0.23848,0.93668,0.25643,0.21825,0.4597,-0.18875
0.2238,0.93995,0.25769,0.43591,0.53994,-0.09975
0.21368,0.94223,0.25796,0.34729,0.55983,-0.19644
0.20844,0.94392,0.25605,0.22889,0.53466,-0.28928
0.20909,0.94699,0.24392,0.31739,0.37115,-0.26909
0.20915,0.95348,0.21707,0.1782,0.32589,-0.31781
0.2124,0.96115,0.17628,0.0341,0.44811,-0.3542
0.22312,0.9675,0.11895,0.03988,0.45248,-0.27275
0.23926,0.96989,0.04541,0.06781,0.38832,0.15466
0.25344,0.96681,-0.03232,-0.09478,0.5839,0.20478
0.26496,0.95889,-0.1016,-0.14231,0.66947,0.17682
0.26676,0.94995,-0.16258,-0.38372,0.76061,0.07464
0.25713,0.9396,-0.22588,-0.29726,0.45963,0.05407
0.25184,0.92158,-0.2954,-0.19154,0.39711,0.29245
0.25798,0.89616,-0.36103,0.20642,0.02672,0.32472
0.26561,0.86542,-0.42485,0.22948,-0.11151,0.37436
0.26328,0.83325,-0.48618,0.08618,-0.12604,0.54341
0.24936,0.80004,-0.54567,-0.156,-0.52648,0.62955
0.21777,0.76909,-0.6009,-0.16708,-0.68611,0.61327
0.18358,0.74211,-0.64464,-0.20789,-0.7141,0.62801
0.14551,0.71917,-0.67943,-0.14291,-0.36723,0.50253
0.10636,0.69929,-0.70688,-0.16054,-0.27132,0.49721
0.07246,0.6835,-0.72634,-0.17106,-0.27712,0.47527
0.04921,0.67386,-0.73722,-0.22249,-0.23103,0.31513
0.03631,0.67153,-0.74008,-0.24759,-0.24972,0.33919
0.03789,0.67636,-0.73559,-0.22005,-0.34024,0.23816
0.05386,0.68552,-0.72606,-0.16637,-0.29349,-0.03232
0.06777,0.69822,-0.71266,-0.07267,-0.26127,-0.07335
0.07876,0.71522,-0.69445,0.11847,-0.1782,-0.09347
0.09573,0.73395,-0.67242,0.22657,-0.07773,-0.25824
0.1235,0.74972,-0.65013,0.23744,0.43247,-0.5871
0.14624,0.76107,-0.63197,0.19707,0.75701,-0.7304
0.15826,0.7731,-0.61423,-0.09937,0.26194,-0.01802
0.16957,0.79028,-0.58882,-0.37607,-0.03915,-0.06966
0.16986,0.81221,-0.55808,-0.36847,-0.23673,0.59295
0.18269,0.83666,-0.51635,-0.10543,0.13142,0.59838
0.20539,0.8596,-0.46787,0.11805,0.62241,0.36634
0.22126,0.87715,-0.4262,0.11004,0.58636,0.0288
0.22554,0.89363,-0.38802,0.10274,0.10978,0.2924
0.22863,0.90897,-0.34856,0.23275,-0.1209,0.28618
0.22832,0.92346,-0.30837,0.25445,-0.12587,0.26682
0.223,0.93734,-0.2677,0.17155,-0.05785,0.19426
0.21513,0.94903,-0.23034,0.29865,0.09215,-0.04701
0.20898,0.95792,-0.19677,0.25919,0.15536,-0.19431
0.20038,0.96614,-0.16255,0.28293,-0.03622,-0.16936
0.18981,0.97328,-0.12924,0.39949,-0.31518,-0.15372
0.18761,0.97737,-0.09776,0.41608,-0.40606,0.01855
0.19559,0.97852,-0.06504,0.24244,-0.35203,0.14057
0.21024,0.97733,-0.02495,0.02318,-0.2656,-0.07513
0.22181,0.97498,0.0147,-0.4999,-0.13626,-0.2647
0.22482,0.97342,0.04368,-0.19755,-0.01663,-0.26164
0.22121,0.97302,0.06554,0.00937,0.01043,-0.23896
0.21586,0.97284,0.08356,0.30503,-0.03533,-0.144
0.21085,0.97266,0.09728,0.26118,0.01249,-0.1323
0.20639,0.97279,0.10527,0.30234,-0.03669,-0.06859
0.20353,0.97284,0.11028,0.26342,0.03821,-0.11288
0.20171,0.97247,0.11664,0.25663,0.02116,-0.17046
0.20052,0.97163,0.12539,0.22438,0.02909,-0.15047
0.19714,0.97125,0.13347,0.16477,0.06129,-0.10953
0.19158,0.972,0.13606,-0.04784,0.31981,-0.01973
0.18542,0.9737,0.13236,0.06322,0.47976,-0.00993
0.18011,0.97582,0.12382,0.20214,0.45964,0.01378
0.17736,0.97782,0.11143,0.28431,0.46512,-0.00416
0.17635,0.97973,0.09503,0.10159,0.44108,-0.14253
0.17531,0.98193,0.07123,0.04881,0.38506,-0.22651
0.17323,0.98425,0.03525,0.01238,0.30358,-0.28545
0.16997,0.9853,-0.01685,0.03911,0.37064,-0.22781
0.16724,0.98217,-0.08582,0.04207,0.39844,-0.1354
0.16701,0.97316,-0.1583,-0.09882,0.55401,-0.11467
0.17329,0.95941,-0.2225,-0.05832,0.46293,-0.04061
0.17891,0.94365,-0.27842,-0.03141,0.38684,0.14517
0.18789,0.92442,-0.33187,0.01059,0.20085,0.2566
0.1969,0.9024,-0.38329,0.17066,0.03791,0.20621
0.2003,0.87914,-0.43243,0.16725,0.06117,0.25535
0.19538,0.85405,-0.48211,-0.07639,-0.11642,0.33033
0.18192,0.82607,-0.5334,-0.20174,-0.23802,0.45787
0.15459,0.79854,-0.58175,-0.12848,-0.29419,0.41134
0.12233,0.77077,-0.62526,-0.03766,-0.37311,0.29289
0.08842,0.74347,-0.6629,-0.08824,-0.29078,0.44425
0.04614,0.71767,-0.69485,-0.0579,-0.23238,0.50438
0.00355,0.69397,-0.71999,-0.05521,-0.2836,0.34864
-0.03364,0.67357,-0.73836,-0.10742,-0.33558,0.28992
-0.061,0.65767,-0.75083,-0.04937,-0.27712,0.28487
-0.08085,0.64786,-0.75745,-0.06719,-0.2649,0.27588
-0.09297,0.6428,-0.76038,-0.10353,-0.22031,0.24895
-0.09678,0.64277,-0.75992,-0.14522,-0.24032,0.17276
-0.09222,0.64794,-0.75609,-0.19082,-0.24861,0.13381
-0.08204,0.65699,-0.74942,-0.11683,-0.19026,-0.00673
-0.07041,0.66822,-0.74062,-0.07113,-0.20084,-0.09631
-0.06078,0.68017,-0.73053,0.11838,-0.2763,-0.21665
-0.05152,0.69327,-0.71884,0.0804,-0.29642,-0.32958
-0.03897,0.70638,-0.70676,0.08897,-0.24927,-0.51379
-0.02496,0.71255,-0.70118,-0.09327,0.52016,-0.69107
-0.02315,0.71686,-0.69683,-0.14511,0.35663,-0.32584
-0.01469,0.72665,-0.68685,-0.33228,-0.12022,-0.25856
-0.01187,0.7414,-0.67096,-0.10026,-0.20707,0.11418
-0.00714,0.76069,-0.64908,0.08356,-0.10767,0.30417
0.01509,0.78131,-0.62396,-0.23407,0.51571,0.04045
0.0332,0.79789,-0.60188,-0.0011,0.64775,0.11427
0.04935,0.81207,-0.58147,0.23133,0.2848,0.15739
0.06781,0.8261,-0.55943,0.22913,0.0142,0.21977
0.094,0.84147,-0.53207,0.27701,0.0431,0.25903
0.12551,0.85785,-0.49833,0.29478,0.18868,0.35438
0.15843,0.8751,-0.45727,0.3133,0.16134,0.32698
0.18927,0.89251,-0.4094,0.176,0.22019,0.17734
0.20343,0.90792,-0.36647,0.12375,0.16346,0.14606
0.20019,0.92234,-0.33048,0.09687,0.0478,0.16062
0.19057,0.93663,-0.29396,0.15077,-0.02206,0.04792
0.1765,0.94928,-0.26023,0.18503,-0.02321,0.00842
0.16282,0.95957,-0.22961,0.21875,-0.00829,-0.01973
0.15056,0.96756,-0.20289,0.21958,-0.17533,0.04221
0.14301,0.97417,-0.17473,0.26171,-0.29134,0.01968
0.14447,0.97891,-0.14446,0.30897,-0.33952,-0.04141
0.15815,0.981,-0.11233,0.30274,-0.26514,0.06391
0.17855,0.98077,-0.0788,0.06408,-0.2519,-0.1116
0.19868,0.97902,-0.04532,-0.06733,-0.1768,-0.15747
0.21255,0.977,-0.0171,-0.11487,-0.04618,-0.13924
0.22002,0.97548,0.00531,-0.17825,0.0298,-0.1441
0.22216,0.9747,0.02468,-0.13395,0.01304,-0.17393
0.22136,0.9743,0.04165,0.03606,-0.00755,-0.17311
0.22048,0.97365,0.05815,0.20675,0.02479,-0.09294
0.2197,0.9727,0.07473,0.17216,-0.00168,-0.0006
0.21839,0.97156,0.09152,0.08773,-0.04929,0.07554
0.2159,0.9704,0.10821,0.11729,-0.10269,0.09331
0.21237,0.9691,0.1255,0.14112,-0.12466,-0.01711
0.20928,0.96742,0.14247,0.11975,-0.05041,-0.14526
0.20525,0.96627,0.15554,0.04982,-0.00596,-0.16473
0.20338,0.9648,0.16673,0.05048,-0.00737,-0.17555
0.20755,0.96273,0.17342,0.09339,0.07179,-0.0736
0.21343,0.9629,0.16515,0.10821,0.19738,-0.04731
0.20819,0.96348,0.16842,0.13177,0.202,-0.06032
0.20365,0.96421,0.16981,0.17532,0.22847,-0.08869
0.20161,0.9651,0.16712,0.35196,0.44994,0.02011
0.20375,0.96603,0.15895,0.4518,0.48694,0.04134
0.20643,0.9664,0.15319,0.38027,0.49766,-0.04135
0.20641,0.96707,0.14889,0.19719,0.38828,-0.34009
0.19955,0.97008,0.13828,0.26702,0.36142,-0.29517
0.19006,0.97451,0.11915,0.39028,0.32779,-0.23216
0.18371,0.97888,0.08968,0.39181,0.32645,-0.1623
0.18081,0.9824,0.04698,0.26971,0.24382,-0.19247
0.17945,0.98372,-0.00988,0.17598,0.32588,-0.17522
0.17794,0.98112,-0.07573,0.17912,0.40508,-0.08721
0.17908,0.97313,-0.14473,0.02554,0.45436,0.22254
0.18418,0.9594,-0.21362,-0.10489,0.46188,0.16065
0.18838,0.94218,-0.27715,-0.2357,0.33662,0.28585
0.18897,0.92412,-0.33211,-0.21166,0.14983,0.36238
0.18685,0.90324,-0.38632,0.08079,0.11632,0.11836
0.1899,0.87576,-0.44383,0.21627,0.03003,0.11312
0.18749,0.84785,-0.49599,0.23233,-0.17181,0.34822
0.17914,0.81836,-0.54608,-0.09361,-0.4499,0.44159
0.16587,0.78696,-0.59428,-0.12943,-0.42376,0.53682
0.14531,0.75772,-0.63619,-0.13844,-0.2948,0.65038
0.11685,0.73176,-0.67147,-0.13435,-0.37121,0.61938
0.08275,0.70773,-0.70162,-0.15941,-0.21604,0.42016
0.04281,0.68415,-0.72808,-0.17181,-0.2241,0.42166
0.00461,0.6634,-0.74825,-0.25026,-0.34083,0.35782
-0.02444,0.64932,-0.76013,-0.11025,-0.26203,0.37248
-0.03887,0.64215,-0.7656,-0.03536,-0.18887,0.33142
-0.04153,0.64155,-0.76596,-0.07383,-0.1957,0.22317
-0.03397,0.64617,-0.76244,-0.11311,-0.27489,0.10851
-0.02017,0.65577,-0.75469,-0.16542,-0.28566,0.08698
-0.00109,0.66857,-0.74365,-0.11098,-0.26259,0.05122
0.02079,0.68476,-0.72847,0.09717,-0.19026,-0.25316
0.04297,0.70464,-0.70826,0.15922,-0.22174,-0.3441
0.07105,0.72718,-0.68276,0.1773,-0.24823,-0.2196
0.10737,0.74643,-0.65674,5e-05,0.52308,-0.57486
0.1233,0.76271,-0.63487,0.4311,1.13165,-0.65172
0.13851,0.77737,-0.6136,0.156,0.63142,0.50131
0.15638,0.79419,-0.5872,-0.41137,-0.26807,0.22914
0.18431,0.81138,-0.5547,-0.18186,-0.02329,0.461
0.21741,0.83288,-0.50895,0.05886,0.35102,0.33856
0.24861,0.85161,-0.46147,0.01998,0.45492,0.30354
0.26747,0.86827,-0.41782,0.02321,0.27777,0.28432
0.27463,0.8848,-0.37644,0.10677,-0.00536,0.3182
0.2727,0.90115,-0.337,0.15671,-0.06043,0.22994
0.26874,0.91718,-0.29422,0.13989,-0.07413,0.15288
0.2607,0.93164,-0.25313,0.10498,-0.04117,0.07381
0.25006,0.94376,-0.21631,0.2143,0.05925,-0.13131
0.2423,0.95308,-0.18147,0.21755,-0.02315,-0.1292
0.23169,0.96153,-0.14758,0.24441,-0.21125,-0.08129
0.22262,0.96793,-0.11643,0.24087,-0.34075,-0.07802
0.22337,0.97098,-0.08547,0.26121,-0.30449,-0.01594
0.23295,0.97121,-0.04993,0.15305,-0.27647,0.15332
0.24612,0.96921,-0.00725,0.0113,-0.22457,-0.28616
0.25716,0.96598,0.02721,-0.31451,-0.07545,-0.18149
0.2594,0.96413,0.05633,-0.00595,0.0741,-0.14584
0.25583,0.96326,0.08171,0.06426,0.02328,-0.14243
0.25035,0.96304,0.09933,0.11461,-0.04334,-0.09875
0.24407,0.96281,0.11588,0.04836,-0.02912,-0.06086
0.23773,0.96186,0.13531,0.17771,0.17986,-0.08473
0.23459,0.96015,0.15189,0.30596,0.16787,-0.11286
0.22972,0.96001,0.15999,0.19425,0.1036,-0.28275
0.22494,0.96042,0.16431,0.13863,0.00145,-0.09908
0.22195,0.96073,0.16654,0.15103,0.00737,-0.06343
0.21859,0.96127,0.16787,0.0949,0.09551,-0.10675
0.21393,0.96217,0.16869,0.08438,0.15135,-0.09481
0.21004,0.96286,0.16962,0.08189,0.2064,-0.05204
0.20626,0.96405,0.16754,0.14335,0.4273,-0.03604
0.20205,0.96603,0.16113,0.30233,0.56522,0.01601
0.19837,0.96838,0.15126,0.40966,0.6268,0.03865
0.19787,0.96994,0.14161,0.29116,0.53788,-0.13242
0.199,0.97198,0.12505,0.159,0.43689,-0.37722
0.19985,0.97542,0.09275,0.10958,0.36445,-0.42669
0.20083,0.97882,0.03977,0.18602,0.36983,-0.34995
0.20234,0.97869,-0.03496,0.23992,0.49979,-0.2619
0.20608,0.97067,-0.12384,0.35662,0.54044,0.00806
0.21348,0.95444,-0.2085,0.26943,0.52216,0.25899
0.21781,0.93697,-0.27322,-0.09844,0.35158,0.56554
0.2216,0.91787,-0.32926,0.03174,0.29078,0.59189
0.23828,0.89081,-0.38687,0.03994,0.16718,0.26381
0.24943,0.85868,-0.44772,-0.05929,-0.10669,0.21436
0.24247,0.82655,-0.50795,-0.085,-0.22898,0.44671
0.22427,0.78965,-0.5711,-0.09875,-0.39649,0.6471
0.20126,0.75326,-0.62618,-0.15353,-0.64268,0.70876
0.17835,0.722,-0.66851,-0.2892,-0.54796,0.49656
0.14983,0.6941,-0.70411,-0.10598,-0.30471,0.49006
0.11058,0.66906,-0.73494,-0.05803,-0.36078,0.58035
0.07591,0.64983,-0.75628,-0.19006,-0.34771,0.48508
0.05089,0.63833,-0.76808,-0.24077,-0.21783,0.43283
0.03531,0.63343,-0.773,-0.17308,-0.16872,0.37434
0.03224,0.63519,-0.77168,-0.17689,-0.25602,0.29868
0.0434,0.6424,-0.76514,-0.12809,-0.29348,0.05257
0.05828,0.65465,-0.75368,-0.02522,-0.32665,-0.09208
0.07289,0.67377,-0.73534,0.06103,-0.33777,-0.14263
0.09555,0.69881,-0.7089,0.22299,-0.32572,-0.23661
0.13011,0.72875,-0.67231,0.03647,-0.24683,0.04546
0.16379,0.75818,-0.63114,-0.16431,-0.04953,0.08707
0.18387,0.78066,-0.59729,1.20221,1.7403,0.0573
0.21046,0.79709,-0.56599,0.59276,1.35899,0.92097
0.23308,0.81182,-0.53537,-0.69744,-0.2806,-0.19696
0.2572,0.826,-0.50157,-0.2234,-0.03758,0.72181
0.2784,0.8481,-0.45079,-0.12006,0.01237,0.60142
0.29424,0.87202,-0.39116,-0.01987,0.28138,0.22893
0.29437,0.89221,-0.3425,0.07387,0.25838,0.33942
0.27986,0.91116,-0.30243,0.19838,0.13292,0.30501
0.25734,0.92958,-0.26392,0.36421,0.04473,0.21842
0.23358,0.94484,-0.22959,0.30887,0.06202,-0.02631
0.21602,0.95598,-0.19857,0.26835,-0.0338,-0.0881
0.20629,0.96466,-0.16394,0.31605,-0.21113,-0.08185
0.20708,0.97021,-0.12572,0.29863,-0.42285,0.00446
0.21407,0.97311,-0.08501,0.22465,-0.46849,0.07817
0.22369,0.97368,-0.04363,0.09664,-0.48976,0.09881
0.23495,0.972,-0.00198,-0.30868,-0.25716,-0.30065
0.23919,0.97037,0.03414,-0.49055,-0.1714,-0.13493
0.23323,0.97036,0.06324,-0.09143,-0.00828,-0.23684
0.22454,0.97065,0.08617,0.20997,0.06569,-0.28863
0.21719,0.97077,0.10217,0.25756,0.06987,-0.18984
0.20999,0.97065,0.11721,0.33659,0.0682,-0.21569
0.20623,0.96951,0.13233,0.41802,0.12639,-0.14177
0.2036,0.96889,0.14071,0.33998,0.14172,-0.28645
0.2021,0.96896,0.14234,0.24866,0.05248,-0.16424
0.20104,0.96903,0.14341,0.19216,0.05228,-0.02871
0.19905,0.96941,0.14362,0.09009,0.06941,0.04714
0.19631,0.97025,0.14167,-0.02036,0.13752,0.00647
0.19379,0.9713,0.1379,0.0251,0.39824,-0.00193
0.19161,0.9729,0.12941,0.28298,0.69493,0.09898
0.18836,0.97527,0.11557,0.2803,0.70365,0.06488
0.18743,0.9774,0.09778,0.02986,0.40841,-0.36014
0.1898,0.97928,0.07061,0.05092,0.27161,-0.43039
0.19226,0.9809,0.02939,0.10614,0.23634,-0.41204
0.19321,0.98077,-0.02741,0.05563,0.36462,-0.20372
0.18881,0.97698,-0.09926,0.05496,0.75863,-0.13182
0.1843,0.96689,-0.17651,0.00131,0.81056,-0.10161
0.18362,0.95175,-0.24589,-0.0432,0.43795,0.12259
0.18677,0.93319,-0.30703,-0.01529,0.23073,0.4009
0.19299,0.91279,-0.35996,-0.02912,0.14932,0.43816
0.20509,0.88931,-0.40873,0.18393,0.15915,0.19843
0.21986,0.86177,-0.45718,-0.0162,-0.09471,0.34419
0.2211,0.83292,-0.50731,-0.01744,-0.06586,0.39432
0.21397,0.80156,-0.55832,-0.26332,-0.34285,0.47166
0.19621,0.77003,-0.60708,-0.25869,-0.42006,0.5291
0.16751,0.73837,-0.65326,-0.15485,-0.40074,0.48428
0.13584,0.70892,-0.69208,-0.06365,-0.24424,0.42983
0.10115,0.67997,-0.72623,-0.00653,-0.2682,0.41824
0.06359,0.6534,-0.75434,-0.04349,-0.28828,0.41588
0.02866,0.6325,-0.77403,-0.12505,-0.28934,0.39054
0.00235,0.61786,-0.78628,-0.14431,-0.14173,0.39852
-0.01739,0.60833,-0.79349,-0.09769,-0.14077,0.35024
-0.02619,0.60403,-0.79653,-0.14019,-0.22575,0.24447
-0.0228,0.60675,-0.79457,-0.16678,-0.22298,0.16557
-0.01166,0.61468,-0.78869,-0.12632,-0.20825,0.1219
0.00248,0.62563,-0.78012,-0.1037,-0.25606,0.08749
0.01888,0.63969,-0.7684,-0.00897,-0.28405,-0.01202
0.03916,0.65762,-0.75233,0.07046,-0.23916,-0.24266
0.06204,0.68007,-0.73051,0.04618,-0.23119,-0.34729
0.08799,0.70715,-0.70156,-0.05652,0.14899,-0.17736
0.11606,0.73513,-0.66791,0.00851,0.60408,-0.73103
0.13123,0.75559,-0.64177,0.75544,1.40877,-0.90494
0.14456,0.77136,-0.61977,-0.55783,-0.29286,0.39067
0.1664,0.79179,-0.58769,-0.71606,-0.68311,0.07376
0.19281,0.81049,-0.55311,0.02478,0.16992,0.73667
0.22658,0.83093,-0.50815,0.08287,0.31066,0.52566
0.26445,0.84872,-0.45797,-0.04616,0.49381,0.19581
0.29208,0.86497,-0.40805,-0.13564,0.14168,0.37795
0.30969,0.88154,-0.35634,-0.15135,0.03165,0.36387
0.31639,0.8973,-0.30782,-0.04501,-0.12207,0.42958
0.31917,0.91046,-0.26305,0.18022,-0.08047,0.27706
0.31617,0.92313,-0.21876,0.20945,-0.02776,0.16427
0.29754,0.93799,-0.17787,0.36033,0.09788,-0.05633
0.27889,0.94965,-0.14277,0.3744,0.09845,-0.09365
0.26486,0.95819,-0.10826,0.29442,-0.18519,-0.15159
0.25379,0.96389,-0.08068,0.38189,-0.27755,-0.09896
0.25246,0.96599,-0.0558,0.28654,-0.35952,0.23738
0.26101,0.96493,-0.02784,0.10738,-0.26114,0.2107
0.2751,0.96136,0.01044,-0.23602,-0.13834,-0.25188
0.28542,0.9571,0.0499,-0.39758,-0.06895,-0.23462
0.28696,0.95484,0.077,-0.21393,-0.02523,-0.21819
0.28158,0.95476,0.09561,0.01236,0.0264,-0.18267
0.27395,0.9559,0.10581,0.18389,-0.06148,-0.03234
0.26669,0.95705,0.11373,0.07482,-0.0739,-0.18034
0.26066,0.95715,0.12616,0.12026,-0.02279,-0.2086
0.25727,0.95591,0.14159,0.36053,-0.04453,-0.03729
0.25214,0.95513,0.15539,0.14413,-0.04009,-0.1005
0.24623,0.955,0.16533,0.07998,-0.03845,-0.11691
0.24759,0.95375,0.17042,0.12892,0.03354,-0.08277
0.25696,0.9504,0.17521,0.0353,0.15775,-0.06065
0.25134,0.95075,0.18134,0.01301,0.3456,-0.0627
0.2456,0.95152,0.18515,0.11271,0.53801,-0.02998
0.24059,0.9528,0.18517,0.30418,0.48116,0.11469
0.23631,0.95455,0.1816,0.19941,0.47188,-0.01535
0.23231,0.95625,0.17781,0.05848,0.42211,-0.10341
0.22933,0.95812,0.17149,0.08261,0.37883,-0.06764
0.22561,0.9615,0.1569,0.03083,0.41411,-0.14032
0.22555,0.96556,0.12967,0.15324,0.4003,-0.22439
0.23028,0.96902,0.08922,0.22323,0.20131,-0.3371
0.24056,0.97003,0.03411,0.16546,0.12849,-0.30379
0.25271,0.96709,-0.02938,-0.01583,0.23232,-0.10283
0.25994,0.96171,-0.0868,-0.21975,0.39366,0.22678
0.26542,0.95493,-0.13286,-0.40711,0.3456,0.35218
0.26969,0.94667,-0.17629,-0.48702,0.15346,0.41465
0.26885,0.93813,-0.21822,-0.51581,-0.11369,0.29547
0.25877,0.93188,-0.25422,-0.45924,-0.19206,0.25458
0.24529,0.92415,-0.29286,-0.11698,-0.13128,-0.30771
0.23763,0.90954,-0.34099,-0.13654,-0.07956,0.4013
0.24052,0.89585,-0.37363,-0.11106,-0.16117,0.50777
0.24467,0.88233,-0.40204,-0.27477,-0.29561,0.20535
0.24566,0.86677,-0.43401,-0.24331,-0.27862,0.28154
0.24382,0.85324,-0.46101,-0.21886,-0.27597,0.36898
0.23963,0.84128,-0.48458,-0.0991,-0.34899,0.39066
0.23368,0.83027,-0.50601,-0.11086,-0.353,0.38931
0.22879,0.82232,-0.52101,-0.14537,-0.38384,0.44465
0.22489,0.81812,-0.52925,-0.1909,-0.41056,0.44094
0.22506,0.81802,-0.52933,-0.16357,-0.37697,0.31654
0.23093,0.82132,-0.52164,-0.1314,-0.33012,0.25226
0.24023,0.82676,-0.50868,0.00356,-0.2288,0.03378
0.25144,0.83414,-0.4909,0.03219,-0.25385,-0.06095
0.26581,0.84414,-0.46559,0.0945,-0.29529,-0.24899
0.28273,0.857,-0.43082,0.18792,-0.20559,-0.45712
0.29608,0.87133,-0.3913,0.30986,-0.14807,-0.52794
0.31047,0.88265,-0.3529,0.67499,0.37051,-0.60713
0.33106,0.88741,-0.32076,0.44659,0.33964,-0.81607
0.34689,0.88661,-0.30592,0.27558,0.25003,-0.78786
0.3565,0.88613,-0.29612,-0.15487,0.3591,-0.40746
0.36596,0.88769,-0.27942,-0.44849,0.9488,0.33139
0.37348,0.8908,-0.25883,-0.75634,1.47343,0.16082
0.37773,0.88697,-0.26571,-1.17317,-0.2826,0.55625
0.39672,0.87685,-0.27154,-0.95671,-0.72686,0.25775
0.41079,0.87714,-0.24874,-0.54339,-0.27315,0.64384
0.41144,0.88795,-0.20555,-0.40866,0.14333,0.92283
0.39928,0.90217,-0.16328,-0.20111,0.37433,0.79772
0.37892,0.91715,-0.12351,0.0083,0.39114,0.60424
0.37942,0.92082,-0.09017,0.23219,0.3628,0.46043
0.40081,0.91366,-0.06766,0.43851,0.16297,-0.03451
0.41238,0.9107,-0.02358,0.24591,0.07882,0.04737
0.41154,0.91134,0.00934,0.11229,0.05805,0.03646
0.4128,0.91,0.03868,-0.03513,-0.04812,0.07161
0.41194,0.90894,0.06414,-0.03307,-0.0944,0.09608
0.40509,0.9105,0.08295,0.07418,-0.05494,0.03449
0.39367,0.9136,0.10175,0.12517,-0.01112,-0.07068
0.38167,0.91651,0.11969,0.112,-0.06087,-0.13681
0.37389,0.91764,0.13468,0.17834,-0.10721,-0.21276
0.36986,0.91756,0.14586,0.173,-0.09564,-0.25261
0.3669,0.91766,0.15256,0.16893,-0.04319,-0.30064
0.36205,0.91859,0.15843,0.17155,-0.05139,-0.25639
0.35628,0.91997,0.16343,0.14905,-0.0791,-0.21545
0.3493,0.92185,0.16787,0.0888,-0.04894,-0.21646
0.34051,0.92424,0.17269,0.04891,-0.02753,-0.20324
0.33047,0.92686,0.17805,0.0909,-0.00058,-0.21139
0.32044,0.92951,0.18254,0.16331,-0.00655,-0.20516
0.31854,0.93118,0.17726,0.23514,0.00989,-0.20468
0.31904,0.93266,0.16835,0.33862,0.01715,-0.18618
0.32134,0.93389,0.1568,0.33403,0.06315,-0.09969
0.32299,0.93385,0.15362,0.29617,0.05631,-0.16276
0.32613,0.93265,0.15422,0.01953,0.14397,-0.47372
0.33169,0.93196,0.14637,-0.07777,0.31987,-0.28277
0.34091,0.93253,0.11899,-0.03396,0.31128,-0.13396
0.35466,0.93201,0.0746,-0.03674,0.4252,0.03637
0.37126,0.9282,0.02433,-0.42084,0.6651,-0.4878
0.38587,0.92196,-0.03289,-0.55215,0.76499,-0.4355
0.39326,0.9145,-0.09506,-0.55923,0.94998,0.18047
0.3954,0.90616,-0.15011,-0.89431,0.78789,0.22004
0.38755,0.897,-0.21257,-0.50747,0.51161,0.31545
0.37985,0.87972,-0.286,0.07394,0.32209,0.34434
0.37664,0.85369,-0.35966,0.36274,0.25083,0.28835
0.38056,0.81837,-0.43063,0.35551,0.09175,0.25773
0.37416,0.78032,-0.50111,-0.05174,-0.23391,0.17644
0.3479,0.74462,-0.56966,-0.29759,-0.1718,0.3689
0.31047,0.71442,-0.62706,-0.34906,-0.04688,0.34797
0.27297,0.68549,-0.67497,-0.18935,-0.03728,0.33513
0.2347,0.65644,-0.71693,-0.15108,-0.00823,0.37709
0.19773,0.62785,-0.7528,-0.02299,0.03942,0.2141
0.16764,0.60246,-0.78034,-0.18549,-0.22412,0.26837
0.14446,0.58257,-0.79984,-0.17127,-0.22823,0.37091
0.12688,0.56792,-0.81324,-0.15982,-0.19286,0.40968
0.11492,0.55834,-0.82161,-0.3119,-0.2266,0.31882
0.10896,0.5535,-0.82569,-0.31585,-0.20562,0.28889
0.10703,0.55296,-0.8263,-0.26618,-0.15423,0.26741
0.10874,0.55555,-0.82434,-0.19696,-0.20014,0.24051
0.11709,0.56118,-0.81937,-0.17655,-0.22889,0.08805
0.13429,0.56963,-0.81086,-0.14942,-0.17241,-0.08309
0.14988,0.57994,-0.80075,-0.08638,-0.13722,-0.0979
0.16124,0.59177,-0.78982,-0.04996,-0.17063,-0.14269
0.17512,0.60572,-0.77617,-0.05131,-0.26128,-0.33179
0.19551,0.62346,-0.75702,-0.20131,-0.11197,-0.57787
0.22119,0.63749,-0.73803,0.14685,1.27324,-1.52914
0.21723,0.63948,-0.73748,0.0717,0.03216,0.41124
0.2208,0.65684,-0.72098,-0.7171,-0.24642,-0.14501
0.23404,0.68172,-0.69317,0.02133,0.43667,0.84629
0.24817,0.7044,-0.66501,0.08769,0.55566,0.60144
0.28426,0.72621,-0.62594,-0.16561,0.79414,0.26893
0.31661,0.74706,-0.58452,-0.08826,0.35641,0.41403
0.35333,0.76809,-0.53404,0.03424,0.24653,0.44028
0.39309,0.78842,-0.47314,0.01856,0.31637,0.37414
0.42178,0.80809,-0.41119,0.03868,0.21605,0.29129
0.43934,0.82462,-0.35635,0.05808,0.09395,0.18936
0.44276,0.84209,-0.30798,-0.07941,-0.04961,0.21709
0.43474,0.86265,-0.25852,-0.00571,-0.26392,0.14867
0.416,0.88444,-0.21143,0.1048,-0.18272,0.05598
0.38682,0.9076,-0.16316,-0.11139,0.01232,0.11677
0.37049,0.92062,-0.12325,0.28702,-0.04016,-0.16833
0.36367,0.92717,-0.08993,0.31617,-0.1386,-0.17749
0.36446,0.92967,-0.05358,0.22017,-0.26865,-0.04365
0.37442,0.92713,-0.01514,0.12116,-0.27311,-0.16691
0.38689,0.92169,0.02839,-0.04538,-0.21474,-0.21319
0.39624,0.9157,0.06695,-0.42973,-0.03486,-0.38116
0.39554,0.9136,0.09416,-0.18912,-0.01265,-0.28136
0.38744,0.91512,0.11151,0.21284,0.08587,-0.26235
0.38008,0.91755,0.11675,0.14695,0.04296,-0.30073
0.37388,0.91959,0.1207,0.11399,0.02753,-0.35442
0.36991,0.92021,0.12792,0.21728,-0.02425,-0.26815
0.36793,0.91984,0.13607,0.23341,-0.02223,-0.14182
0.36518,0.92,0.14223,0.07027,0.04748,-0.07282
0.36123,0.92062,0.1482,0.01306,0.07537,-0.03402
0.35582,0.9218,0.15383,-0.22389,0.37555,0.10627
0.35118,0.92314,0.15643,-0.25419,0.57222,0.03467
0.34689,0.92518,0.15397,-0.17035,0.65266,-0.01277
0.3407,0.92859,0.14711,0.34099,0.64386,-0.03274
0.33649,0.93196,0.13498,0.34148,0.55832,-0.03622
0.33765,0.93356,0.12019,0.24079,0.5269,-0.03941
0.33905,0.93591,0.0954,-0.12862,0.26993,-0.37843
0.33946,0.93868,0.0604,-0.10409,0.35817,-0.4368
0.33927,0.94063,0.01005,-0.04983,0.41853,-0.46647
0.33922,0.93844,-0.06525,0.12016,0.51577,-0.26028
0.33955,0.92864,-0.1494,0.19657,0.45786,0.10506
0.34018,0.91515,-0.21629,0.14412,0.37393,0.29152
0.33947,0.90131,-0.26906,-0.21682,0.25563,0.47084
0.34096,0.88263,-0.32359,-0.25572,0.11753,0.36564
0.34748,0.85643,-0.3818,-0.25175,0.02543,0.30253
0.33982,0.83051,-0.44134,-0.2087,-0.12497,0.22757
0.32171,0.79781,-0.50989,-0.07583,-0.16154,0.28581
0.29627,0.76234,-0.57537,-0.07373,-0.23907,0.56413
0.26645,0.72976,-0.62964,-0.1187,-0.41517,0.54243
0.23199,0.69913,-0.67631,-0.22172,-0.40477,0.52725
0.18274,0.67031,-0.71923,-0.182,-0.30049,0.53756
0.13477,0.64606,-0.75129,-0.17082,-0.33519,0.45822
0.10265,0.62816,-0.77128,-0.29077,-0.27139,0.37045
0.08604,0.62001,-0.77986,-0.29581,-0.19838,0.28665
0.08181,0.62061,-0.77984,-0.29831,-0.15611,0.32835
0.08257,0.62756,-0.77418,-0.2671,-0.27233,0.39343
0.09795,0.63904,-0.76291,-0.1662,-0.32657,0.11846
0.12592,0.65381,-0.7461,-0.18708,-0.29098,-0.2351
0.14936,0.67274,-0.72465,0.03359,-0.24271,-0.51669
0.16719,0.69698,-0.69733,0.3956,-0.21997,-0.51646
0.19632,0.7193,-0.66638,0.01204,0.2601,0.01877
0.22289,0.73982,-0.63481,-0.13227,0.8297,-0.7588
0.23131,0.76024,-0.60706,0.24323,1.03175,0.0991
0.25299,0.77805,-0.57501,-0.26848,0.31775,0.60691
0.27824,0.79552,-0.53826,-0.29054,0.12177,0.57409
0.31163,0.8151,-0.48837,-0.19601,0.15472,0.6222
0.34659,0.83734,-0.42277,-0.06006,0.27289,0.31515
0.37269,0.85734,-0.35505,-0.10206,0.27381,0.32243
0.37811,0.87628,-0.2986,0.0975,0.0438,0.30877
0.37012,0.89312,-0.25561,0.31909,0.00071,0.17588
0.35156,0.90964,-0.22126,0.33932,0.00995,0.07901
0.32571,0.92735,-0.18419,0.31847,-0.02653,-0.09233
0.30494,0.94069,-0.1487,0.16779,-0.19989,-0.13082
0.29256,0.94946,-0.11367,0.18356,-0.35803,-0.11224
0.29015,0.95371,-0.07899,0.31654,-0.44112,-0.04377
0.2959,0.95419,-0.04422,0.23384,-0.40246,0.0645
0.30557,0.95211,-0.00954,0.00792,-0.30781,-0.09176
0.31876,0.9474,0.02845,-0.5739,-0.00024,-0.3221
0.32623,0.94325,0.06197,-0.2642,0.00524,-0.17494
0.32244,0.94281,0.08439,0.03038,0.04266,-0.12292
0.31682,0.94299,0.10191,0.20949,0.07474,-0.12624
0.31034,0.94346,0.11642,0.1413,0.10744,-0.1271
0.30457,0.94371,0.12899,0.07522,0.15859,-0.17013
0.30245,0.94265,0.14115,0.15412,0.16392,-0.14243
0.30308,0.94139,0.14807,0.24319,0.08097,-0.20725
0.30217,0.9417,0.14791,0.17656,-0.04084,-0.23247
0.30134,0.94203,0.14753,0.16982,-0.03984,-0.17794
0.29932,0.94256,0.14826,0.07893,0.08564,-0.06062
0.29596,0.94381,0.14701,0.03566,0.16211,-0.01501
0.29156,0.94577,0.1432,-0.0031,0.18097,-0.00427
0.28822,0.94754,0.13817,0.03961,0.29964,0.00844
0.28687,0.94895,0.13106,0.29505,0.62176,0.14079
0.28494,0.95055,0.12348,0.26836,0.67619,0.10963
0.28258,0.95216,0.11627,0.03521,0.49908,-0.13984
0.28032,0.95447,0.10193,0.00629,0.30197,-0.38239
0.28026,0.95702,0.07452,0.04362,0.2071,-0.42483
0.28206,0.95894,0.02956,0.01712,0.36437,-0.40411
0.28143,0.95906,-0.03136,0.04052,0.46109,-0.11687
0.27881,0.95482,-0.10284,0.01971,0.55728,0.04527
0.27851,0.94462,-0.17355,-0.06872,0.39864,-0.05254
0.28096,0.93031,-0.23573,-0.17081,0.31845,0.11519
0.28736,0.91332,-0.28855,-0.19166,0.2509,0.14692
0.29407,0.89353,-0.33931,-0.14413,0.14828,0.29263
0.30693,0.8682,-0.38988,0.09221,0.13158,0.24189
0.31991,0.84086,-0.43658,-0.05037,-0.04174,0.23888
0.32433,0.8128,-0.4839,-0.12843,-0.07589,0.38397
0.31714,0.78124,-0.53766,-0.30501,-0.35744,0.44772
0.30166,0.74963,-0.58911,-0.28521,-0.37178,0.48291
0.28316,0.72002,-0.63355,-0.25107,-0.27057,0.45585
0.26073,0.69249,-0.67266,-0.20424,-0.14254,0.4462
0.23,0.66658,-0.70906,-0.17618,-0.13943,0.45957
0.195,0.64223,-0.74129,-0.35316,-0.21164,0.33285
0.16471,0.62048,-0.76673,-0.34837,-0.2333,0.34765
0.14275,0.60369,-0.78433,-0.3264,-0.21652,0.36525
0.13218,0.59404,-0.7935,-0.21478,-0.14632,0.29401
0.13414,0.59071,-0.79565,-0.24638,-0.12871,0.23777
0.14167,0.59406,-0.79185,-0.24632,-0.17374,0.15943
0.15326,0.60309,-0.78281,-0.23782,-0.24352,0.08077
0.1697,0.61712,-0.76835,-0.12809,-0.2261,-0.15201
0.19038,0.63491,-0.74876,0.04288,-0.19767,-0.37663
0.20958,0.65606,-0.72503,0.12488,-0.18732,-0.38136
0.23093,0.67894,-0.69693,0.06765,0.07807,-0.26484
0.25978,0.69843,-0.66686,0.19168,0.8414,-0.66129
0.28111,0.71272,-0.64265,0.11827,0.74202,0.11134
0.30157,0.72874,-0.61481,-0.74666,-0.02465,0.18083
0.31435,0.7482,-0.58427,-0.52938,-0.16284,0.44116
0.33489,0.76947,-0.54383,-0.04419,0.22898,0.57755
0.36588,0.79508,-0.48371,0.18368,0.64806,0.15287
0.39101,0.81715,-0.42352,-0.06266,0.52636,0.28487
0.39969,0.83721,-0.37325,-0.05626,0.12394,0.29781
0.40336,0.85525,-0.32535,0.03565,0.02975,0.38626
0.405,0.87152,-0.27645,0.12343,0.08602,0.32809
0.39921,0.88875,-0.22527,0.11926,0.19258,0.05968
0.38231,0.90655,-0.17889,0.1626,0.17986,-0.08587
0.36414,0.92023,-0.14343,0.20731,0.09782,-0.1485
0.34814,0.93095,-0.11015,0.17608,-0.2102,-0.20079
0.33692,0.93789,-0.08265,0.24004,-0.38208,-0.05056
0.3372,0.93973,-0.05646,0.21756,-0.41517,0.06105
0.34602,0.93793,-0.02334,0.03718,-0.36025,0.03415
0.35607,0.93427,0.01871,-0.24669,-0.3138,-0.09707
0.36139,0.93042,0.06081,-0.6298,-0.20749,-0.27909
0.35856,0.92904,0.09114,-0.35272,-0.11915,-0.17914
0.35095,0.92961,0.11247,0.13763,0.05336,-0.1321
0.34157,0.93049,0.13233,0.21442,0.083,-0.13145
0.33171,0.93175,0.14766,0.04931,0.12873,-0.1839
0.32464,0.93182,0.16221,0.06238,0.25797,-0.34741
0.32259,0.93032,0.17444,0.19803,0.27503,-0.30189
0.31921,0.93,0.18217,0.2004,0.07959,-0.15977
0.31586,0.9307,0.18441,0.0586,0.03199,-0.08691
0.31474,0.93118,0.18391,0.07519,-0.00472,-0.10432
0.31332,0.93161,0.18418,0.1061,-0.00571,-0.15493
0.31029,0.93179,0.18834,0.09491,0.11067,-0.11042
0.30628,0.9321,0.19332,-0.03051,0.25499,-0.07756
0.30231,0.93329,0.19384,-0.06105,0.38043,-0.06271
0.29866,0.93565,0.18802,0.14441,0.5237,0.06525
0.29523,0.93871,0.17789,0.2571,0.64954,0.11079
0.29537,0.94092,0.16559,0.14838,0.63733,-0.08812
0.29668,0.94382,0.14551,0.09878,0.54704,-0.37255
0.29677,0.9484,0.11164,0.06178,0.30806,-0.42225
0.29708,0.95284,0.0619,0.11736,0.34056,-0.28677
0.29941,0.95411,-0.00374,0.10862,0.39077,-0.23935
0.30324,0.94924,-0.08357,0.11304,0.46801,-0.12149
0.30538,0.93799,-0.16406,0.00112,0.59586,0.00607
0.30708,0.92449,-0.22586,-0.10164,0.35304,0.14776
0.31396,0.90871,-0.27507,-0.13951,0.31509,0.32282
0.31726,0.89066,-0.32567,-0.29129,0.16622,0.50107
0.32486,0.8669,-0.37807,-0.02136,0.05053,0.0878
0.32954,0.84032,-0.43043,-0.04103,-0.097,0.31189
0.32734,0.81045,-0.48581,-0.18374,-0.28414,0.48562
0.31404,0.77703,-0.54553,-0.25195,-0.30596,0.62256
0.28878,0.74501,-0.6013,-0.23079,-0.43575,0.50501
0.25866,0.7151,-0.6494,-0.22944,-0.35234,0.49779
0.21784,0.68652,-0.6937,-0.17606,-0.30599,0.50927
0.17123,0.66024,-0.73127,-0.25987,-0.25621,0.46462
0.13316,0.63652,-0.75967,-0.36925,-0.31367,0.39913
0.10593,0.6186,-0.77853,-0.35436,-0.33519,0.39568
0.09195,0.60863,-0.78811,-0.17983,-0.13077,0.33314
0.08943,0.60582,-0.79056,-0.20977,-0.19447,0.2916
0.09645,0.60874,-0.78749,-0.23145,-0.20923,0.24106
0.11216,0.61719,-0.77877,-0.21876,-0.25951,-0.00011
0.13254,0.63058,-0.76472,-0.14637,-0.2559,-0.12485
0.15306,0.64795,-0.74614,0.02831,-0.23372,-0.32435
0.1727,0.66912,-0.72281,0.14446,-0.28008,-0.4003
0.19625,0.69297,-0.69374,-0.09405,0.46157,-0.33608
0.22128,0.71288,-0.66545,-0.11145,0.82287,-0.79751
0.23032,0.73059,-0.6428,0.11181,1.0051,-0.72862
0.24614,0.74906,-0.61507,-0.50246,0.14708,0.36867
0.26383,0.76878,-0.58255,-0.52651,-0.00543,0.33769
0.29319,0.79036,-0.53793,-0.36349,0.07573,0.56401
0.32929,0.81536,-0.47619,0.12231,0.53883,0.29811
0.3613,0.83703,-0.4109,-0.1081,0.42707,0.33384
0.37742,0.85566,-0.35411,-0.1245,0.18732,0.2944
0.38029,0.87307,-0.30514,-0.04976,-0.09208,0.27726
0.37238,0.88946,-0.26494,0.25628,-0.0012,0.22143
0.35846,0.90564,-0.22654,0.25769,0.07967,0.17064
0.34185,0.92179,-0.18286,0.29794,0.11227,0.03899
0.32551,0.93438,-0.14483,0.3084,0.02938,-0.12894
0.31129,0.94406,-0.10887,0.25817,-0.17994,-0.18442
0.30225,0.94993,-0.07915,0.29673,-0.41459,-0.15967
0.30496,0.95101,-0.05064,0.31691,-0.40591,-0.01886
0.31608,0.94859,-0.01614,0.11377,-0.31863,0.08584
0.32969,0.94376,0.02485,-0.30101,-0.17498,-0.14785
0.33674,0.93956,0.06185,-0.5875,-0.07189,-0.25845
0.33615,0.93761,0.08876,-0.39717,-0.03029,-0.22296
0.33188,0.93706,0.10845,0.00045,0.01262,-0.13441
0.32538,0.93715,0.12602,0.12425,-0.03532,-0.09214
0.31749,0.93784,0.14014,0.12931,-0.00478,-0.04743
0.30982,0.93796,0.15567,0.07412,0.10427,-0.13127
0.30729,0.93602,0.17155,0.23368,0.16354,-0.10811
0.30413,0.93508,0.182,0.21908,0.17782,-0.25937
0.30031,0.93486,0.18933,0.14155,0.07215,-0.28577
0.29781,0.93471,0.19398,0.14572,0.08832,-0.24533
0.29296,0.93559,0.19708,0.03993,0.19986,-0.11878
0.28626,0.93758,0.19746,0.01591,0.28999,-0.07773
0.28065,0.93964,0.1957,0.07374,0.34292,-0.02569
0.2762,0.942,0.19061,0.4651,0.61328,0.13582
0.27299,0.94466,0.18189,0.2407,0.62445,0.044
0.27602,0.94602,0.16989,-0.02879,0.63255,-0.13896
0.28349,0.94795,0.14499,-0.13658,0.31112,-0.40751
0.28935,0.95148,0.10462,-0.06432,0.25608,-0.37956
0.29465,0.9544,0.04793,0.0124,0.38323,-0.28577
0.30054,0.95352,-0.0218,0.06239,0.48859,-0.10961
0.30608,0.94709,-0.09663,0.12612,0.67761,0.10281
0.30995,0.93678,-0.16239,-0.084,0.49605,0.13085
0.31131,0.92487,-0.21838,-0.16159,0.37873,0.25061
0.3152,0.91055,-0.26748,-0.34576,0.1727,0.31468
0.31812,0.89401,-0.3155,-0.09934,0.08199,0.16916
0.32672,0.87031,-0.36852,-0.03273,0.13364,0.07956
0.33213,0.84309,-0.42296,-0.01521,-0.04354,0.28039
0.33178,0.81441,-0.47608,-0.2199,-0.26018,0.48224
0.32477,0.78172,-0.53239,-0.30312,-0.33834,0.54309
0.30483,0.74934,-0.58785,-0.31284,-0.42221,0.60695
0.27861,0.71917,-0.63653,-0.19804,-0.38029,0.47497
0.24234,0.69141,-0.6806,-0.1396,-0.31594,0.44264
0.19836,0.66367,-0.72124,-0.21339,-0.18368,0.3774
0.1558,0.63733,-0.75467,-0.28707,-0.22909,0.38666
0.12324,0.61463,-0.77913,-0.26042,-0.22051,0.37015
0.105,0.5996,-0.79338,-0.1892,-0.12351,0.31485
0.09892,0.59214,-0.79974,-0.15762,-0.16623,0.24693
0.10167,0.59181,-0.79964,-0.16463,-0.18846,0.1989
0.10908,0.59751,-0.79441,-0.2334,-0.22045,0.16384
0.11873,0.60853,-0.7846,-0.20144,-0.29722,0.20368
0.13671,0.62397,-0.7694,-0.20965,-0.34101,0.11132
0.15757,0.64066,-0.75149,-0.03355,-0.24165,-0.30027
0.17227,0.66034,-0.73094,0.12496,-0.22536,-0.48371
0.18826,0.68431,-0.70447,0.02531,-0.26637,-0.27397
0.21564,0.71071,-0.66962,-0.19142,0.21958,-0.54826
0.23096,0.72514,-0.64871,0.71991,1.70252,-1.17152
0.23302,0.74173,-0.62892,-0.08969,0.29132,0.79395
0.24729,0.76503,-0.59462,-0.75983,-0.47482,-0.27621
0.26963,0.785,-0.55773,-0.28698,0.04262,0.81925
0.29831,0.80908,-0.50636,-0.17809,0.34699,0.17776
0.32961,0.82775,-0.45407,-0.22283,0.36754,0.13615
0.35697,0.84518,-0.39779,-0.17137,0.10467,0.34194
0.37944,0.86256,-0.33468,-0.17928,0.06666,0.38342
0.39203,0.87918,-0.27081,-0.13395,-0.01291,0.40273
0.39427,0.89373,-0.21399,0.20393,0.08875,0.27158
0.38484,0.90668,-0.17271,0.30998,0.17175,0.10673
0.36731,0.91908,-0.14274,0.35818,0.20859,-0.10465
0.35084,0.92996,-0.10988,0.2387,0.01143,-0.11096
0.34102,0.9369,-0.077,0.0986,-0.10842,-0.14448
0.34214,0.93832,-0.04989,0.04865,-0.31671,-0.13392
0.35008,0.93637,-0.02558,0.11772,-0.19296,-0.04553
0.35979,0.93302,0.00345,0.00703,-0.17623,-0.00222
0.37007,0.92834,0.03503,-0.1686,-0.11028,-0.15617
0.37896,0.92322,0.0637,-0.33627,-0.02041,-0.19414
0.38299,0.91953,0.0882,-0.26861,-0.09146,-0.19152
0.38358,0.9175,0.10515,-0.08678,-0.00435,-0.2464
0.3822,0.91678,0.11588,0.08107,0.01521,-0.23559
0.37967,0.91651,0.12591,0.08586,-0.03384,-0.16175
0.37796,0.91586,0.13542,-0.01983,-0.01437,-0.0719
0.37736,0.91485,0.14365,0.03629,-0.07345,0.04008
0.37586,0.91429,0.15099,0.0275,-0.04783,-0.0525
0.37122,0.9149,0.1586,-0.02966,-0.01837,-0.12538
0.36429,0.91621,0.16686,0.04654,-0.00207,-0.04414
0.3577,0.91667,0.17822,0.04707,-0.0113,-0.07087
0.35535,0.91593,0.18652,0.02678,-0.03434,-0.21773
0.3487,0.91625,0.19722,0.03114,0.01866,-0.18318
0.3432,0.91658,0.20517,-0.04254,0.17841,-0.06935
0.33418,0.91719,0.21698,-0.06728,0.2867,-0.17812
0.32391,0.91814,0.22826,-0.01127,0.38849,-0.1723
0.31145,0.92024,0.23695,0.05037,0.44418,-0.15759
0.29796,0.92317,0.24284,0.3526,0.45837,0.13549
0.28729,0.92555,0.24661,0.02677,0.53302,-0.10586
0.28307,0.92636,0.24844,-0.0501,0.53499,-0.16383
0.27856,0.9284,0.2459,0.04166,0.38191,-0.06425
0.27135,0.93395,0.23259,-0.15352,0.34377,-0.23618
0.27037,0.94094,0.20377,-0.15302,0.37061,-0.2507
0.27644,0.94782,0.15877,0.16699,0.25038,-0.29911
0.28567,0.95238,0.10656,0.18604,0.11088,-0.12708
0.29702,0.95337,0.05342,0.14289,0.07777,-0.00311
0.30575,0.9521,0.00314,-0.20051,0.13069,0.0347
0.3099,0.94971,-0.0449,-0.32768,0.24295,0.10823
0.30985,0.94626,-0.09266,-0.37038,0.27762,0.12653
0.30677,0.94109,-0.14224,-0.48868,0.14191,0.20266
0.30276,0.93442,-0.1876,-0.28172,-0.17525,0.16894
0.29637,0.92677,-0.23078,-0.20247,-0.22199,0.14573
0.29253,0.91778,-0.26853,-0.07153,-0.13024,0.03733
0.29554,0.90712,-0.29965,-0.19321,-0.158,0.22914
0.29779,0.89694,-0.32684,-0.26798,-0.14521,0.27922
0.29799,0.88675,-0.35336,-0.31487,-0.14017,0.33319
0.30119,0.87519,-0.37858,-0.31559,-0.18128,0.23003
0.30481,0.86445,-0.39976,-0.24745,-0.23645,0.2389
0.30587,0.85566,-0.41747,-0.20214,-0.31573,0.29419
0.30439,0.84908,-0.43175,-0.17987,-0.33786,0.33985
0.30368,0.84447,-0.44118,-0.21966,-0.3351,0.34755
0.3038,0.84295,-0.44401,-0.24655,-0.37172,0.32865
0.30623,0.84422,-0.4399,-0.26618,-0.35296,0.2705
0.31177,0.84758,-0.42943,-0.20857,-0.31566,0.1769
0.31718,0.85269,-0.4151,-0.14894,-0.26744,0.11095
0.32234,0.8596,-0.39645,-0.10138,-0.2771,0.07165
0.32836,0.86883,-0.37055,-0.02491,-0.33014,0.01139
0.33562,0.87978,-0.33665,0.08561,-0.35197,-0.18753
0.34199,0.89149,-0.29713,0.25566,-0.19531,-0.40782
0.35188,0.90046,-0.25564,0.4418,0.07122,-0.60895
0.37401,0.90109,-0.21945,0.76227,0.4789,-0.86831
0.39531,0.89617,-0.20149,0.15022,0.38071,-0.96309
0.40488,0.89271,-0.19782,-0.11553,0.17327,-0.87556
0.40543,0.89296,-0.19556,-0.38295,0.14175,-0.57252
0.40168,0.89704,-0.1843,-0.67858,0.25454,0.15357
0.40363,0.90092,-0.15943,-0.7056,0.5313,0.29087
0.40146,0.9028,-0.15417,-0.42272,0.892,0.67604
0.40772,0.89945,-0.15733,-0.46789,0.02243,0.92789
0.4148,0.89736,-0.15063,-0.72379,-0.43479,0.17625
0.41785,0.90026,-0.12215,-0.43078,-0.12527,0.45554
0.41221,0.90709,-0.08527,-0.3684,0.02373,0.49109
0.39831,0.91552,-0.05632,-0.22839,0.30018,0.479
0.38503,0.92221,-0.03559,-0.15594,0.31518,0.39768
0.37806,0.92562,-0.01701,-0.07472,0.2366,0.34111
0.37401,0.9272,0.02055,0.14812,0.02069,0.02164
0.37409,0.92537,0.0611,0.0138,0.048,-0.04883
0.37673,0.92162,0.09319,-0.12725,0.00686,0.03479
0.37847,0.91762,0.12137,-0.13681,-0.02858,0.07224
0.37763,0.91509,0.14143,0.10796,-0.05539,-0.04101
0.3779,0.91263,0.15585,0.16361,-0.03319,-0.07306
0.374,0.91137,0.17181,0.20481,-0.04731,-0.06918
0.36953,0.91084,0.18388,0.12609,-0.00845,-0.14041
0.36513,0.91021,0.1954,0.09035,0.00148,-0.17777
0.36131,0.90946,0.20574,0.12397,-0.01867,-0.19443
0.35716,0.90909,0.21445,0.1272,-0.03337,-0.21128
0.35116,0.90958,0.22216,0.10211,-0.02685,-0.32183
0.34507,0.9104,0.22822,0.06194,-0.0423,-0.29022
0.33821,0.9115,0.23405,0.12472,-0.07979,-0.17387
0.32887,0.91269,0.24257,0.09083,0.00104,-0.18611
0.31706,0.91374,0.25406,0.0613,0.02567,-0.24532
0.30301,0.91492,0.26664,0.11145,0.03578,-0.33596
0.28779,0.91716,0.27566,0.28045,0.05255,-0.28901
0.27418,0.91964,0.28122,0.33275,0.01974,-0.24544
0.2637,0.92156,0.28493,0.44569,-0.00353,-0.27083
0.25528,0.92311,0.28756,0.54935,0.00488,-0.28034
0.25216,0.92266,0.29175,0.41906,0.05458,-0.26927
0.25103,0.92,0.30098,0.11034,0.13488,-0.61917
0.25364,0.91934,0.30081,-0.03692,0.21424,-0.52702
0.26213,0.92173,0.28581,0.10466,0.31417,-0.03037
0.27879,0.92545,0.25654,0.05344,0.56315,-0.07562
0.30681,0.92739,0.21402,-0.31525,0.52125,-0.5743
0.3322,0.932,0.14496,-0.56567,0.52945,-0.25456
0.33936,0.93847,0.06405,-0.53534,0.68949,0.20533
0.32792,0.94463,-0.01185,-0.54725,1.14878,0.18036
0.30166,0.94924,-0.0891,-0.60299,1.03182,0.14177
0.27975,0.94751,-0.15482,-0.65644,0.55728,0.30805
0.26693,0.93753,-0.22314,-0.52739,0.42936,0.51623
0.24471,0.91961,-0.30731,-0.06854,0.34387,0.48553
0.22945,0.89192,-0.38966,0.58695,0.27346,0.22032
0.2373,0.85776,-0.45599,0.65944,0.23326,0.14738
0.22755,0.82153,-0.52279,0.422,-0.08957,0.3102
0.18769,0.78252,-0.59366,-0.16868,-0.448,0.37165
0.14415,0.75042,-0.64505,-0.155,-0.41816,0.38902
0.1003,0.72125,-0.68537,0.13485,-0.12617,0.16334
0.05357,0.6919,-0.72,0.0388,-0.21436,0.15193
0.01101,0.66267,-0.74883,-0.02248,-0.34636,0.16068
-0.02298,0.63875,-0.76907,-0.04759,-0.36446,0.26352
-0.04928,0.62209,-0.78139,-0.07376,-0.40096,0.40473
-0.06903,0.61067,-0.78887,-0.12949,-0.42807,0.40391
-0.08025,0.60341,-0.79338,-0.19574,-0.40161,0.32929
-0.08412,0.60131,-0.79457,-0.18543,-0.40391,0.14922
-0.08013,0.60355,-0.79329,-0.14027,-0.33916,0.00695
-0.07402,0.60873,-0.78992,-0.10393,-0.33218,-0.03044
-0.06798,0.61766,-0.7835,-0.04635,-0.33329,-0.13932
-0.05829,0.63041,-0.77407,-0.08968,-0.34861,-0.18584
-0.04281,0.64813,-0.76032,-0.19041,-0.31714,-0.36463
-0.02043,0.67042,-0.7417,-0.2995,0.50978,-0.77133
-0.00423,0.68678,-0.72686,-0.09872,1.39161,-1.25964
-0.01623,0.69583,-0.71803,0.20524,0.61158,-0.25577
-0.00597,0.71326,-0.70088,-0.45692,-0.30499,0.47235
0.01992,0.74299,-0.66901,0.02267,0.04947,0.72169
0.059,0.76784,-0.63792,0.19014,0.47752,0.46641
0.10681,0.78726,-0.6073,-0.02749,0.69252,0.0723
0.14527,0.80492,-0.57533,-0.04145,0.41169,0.21264
0.18409,0.82382,-0.53612,-0.00591,0.09238,0.32441
0.223,0.84285,-0.48976,0.04929,0.04379,0.45592
0.25547,0.86164,-0.43853,0.06472,-0.00605,0.34844
0.27488,0.87923,-0.3891,0.22837,-0.06839,0.19745
0.28269,0.89573,-0.34316,0.26904,-0.09225,0.18642
0.28135,0.91328,-0.29454,0.25381,-0.16397,0.13937
0.26845,0.93082,-0.248,0.23123,-0.16013,0.04153
0.25294,0.94521,-0.20639,0.15116,0.0572,-0.07614
0.24261,0.95463,-0.1727,0.24399,-0.08687,-0.0742
0.23931,0.96061,-0.14129,0.31024,-0.24816,-0.08155
0.24666,0.96343,-0.10468,0.31938,-0.22718,-0.06603
0.26009,0.96333,-0.06597,0.17863,-0.17057,0.05257
0.27713,0.96049,-0.02582,-0.33023,-0.16985,-0.27463
0.28787,0.95764,0.00724,-0.51114,-0.05395,-0.2942
0.28925,0.95681,0.02896,-0.18106,-0.12539,-0.20549
0.28651,0.95697,0.04598,0.14307,-0.04834,-0.14708
0.28141,0.9574,0.0648,0.23904,-0.02784,-0.10683
0.27581,0.958,0.07856,0.22953,-0.04888,-0.07407
0.27056,0.95878,0.08678,0.2623,0.05849,-0.03136
0.26532,0.95946,0.09507,0.25073,-0.00872,-0.1694
0.26186,0.95928,0.1059,0.25836,-0.02814,-0.11009
0.25776,0.95873,0.11995,0.11992,0.1083,-0.02663
0.25071,0.95874,0.13403,-0.02295,0.26042,0.06255
0.24056,0.95975,0.14492,-0.05895,0.40173,-0.01215
0.22949,0.96102,0.15415,-0.03351,0.38056,-0.09837
0.21916,0.96239,0.16054,0.19478,0.32031,-0.06191
0.21079,0.96375,0.16355,0.42275,0.46176,0.14825
0.20653,0.96473,0.16323,0.21371,0.46351,0.07117
0.20631,0.96623,0.15436,-0.04501,0.44318,-0.29543
0.20696,0.96987,0.12849,0.02676,0.30239,-0.43704
0.20643,0.97495,0.08276,0.09887,0.30376,-0.47754
0.20453,0.97867,0.01931,0.13958,0.45541,-0.32201
0.2047,0.97723,-0.05592,0.19172,0.53408,0.06441
0.20685,0.96892,-0.13564,0.06407,0.60259,0.30733
0.20577,0.9565,-0.20681,-0.10057,0.3921,0.17917
0.20148,0.9417,-0.26944,-0.03764,0.19822,0.16742
0.19884,0.92369,-0.32752,0.07783,0.16437,0.24854
0.20461,0.90068,-0.38329,0.16937,0.0923,0.2731
0.21066,0.87351,-0.43886,0.03389,-0.14712,0.43314
0.20246,0.84414,-0.49643,-0.05192,-0.275,0.47279
0.18424,0.81184,-0.55405,-0.06281,-0.40811,0.52231
0.15831,0.77895,-0.60677,-0.05827,-0.35694,0.51465
0.12502,0.74875,-0.65095,-0.13603,-0.45693,0.49528
0.08776,0.72103,-0.68732,-0.07931,-0.3552,0.38706
0.05024,0.69592,-0.71636,-0.17829,-0.45222,0.42349
0.0189,0.67551,-0.73711,-0.21577,-0.39707,0.43926
-0.00245,0.66173,-0.74974,-0.16302,-0.24675,0.31844
-0.01349,0.65511,-0.75542,-0.12117,-0.23111,0.29456
-0.01665,0.65575,-0.75479,-0.11331,-0.24677,0.27214
-0.01267,0.66135,-0.74997,-0.11868,-0.36266,0.10592
-0.00303,0.67158,-0.74092,-0.07729,-0.40024,-0.05461
0.01128,0.68536,-0.72812,-0.04043,-0.37144,-0.16931
0.02637,0.70273,-0.71097,0.22322,-0.2563,-0.57829
0.04146,0.72276,-0.68985,0.24229,0.11775,-0.50684
0.0637,0.73665,-0.67327,0.04673,0.56369,-0.45984
0.07627,0.75097,-0.65592,0.04175,0.59383,-0.23826
0.08576,0.77048,-0.63167,-0.26876,0.17242,0.16818
0.09304,0.79221,-0.60311,-0.2463,0.00982,0.21114
0.11462,0.81298,-0.5709,-0.05618,0.1556,0.22802
0.13706,0.83467,-0.53342,-0.03641,0.40732,0.3117
0.15556,0.85485,-0.49501,0.00859,0.25826,0.42652
0.17496,0.87444,-0.45249,0.08102,0.17065,0.43316
0.19539,0.89354,-0.40425,0.02579,0.07639,0.50741
0.20561,0.91147,-0.35629,0.13712,0.00479,0.3986
0.20094,0.9298,-0.30836,0.38613,0.15374,0.32381
0.19546,0.94494,-0.26247,0.58623,0.31098,0.09505
0.19781,0.9545,-0.22318,0.45808,0.18515,-0.07934
0.19646,0.96316,-0.18365,0.24202,-0.22958,-0.09598
0.20094,0.96884,-0.14478,0.16116,-0.41945,0.01156
0.21203,0.97132,-0.10757,0.21075,-0.35759,0.01597
0.225,0.97187,-0.06964,0.02009,-0.34847,0.04242
0.23887,0.97053,-0.03185,-0.16724,-0.3276,-0.15235
0.25109,0.96796,0.00125,-0.2832,-0.19765,-0.19614
0.25717,0.96587,0.03091,-0.21696,0.01705,-0.23897
0.25642,0.96497,0.0555,0.04337,-0.02003,-0.21479
0.25269,0.96456,0.076,0.13467,-0.08049,-0.16644
0.24867,0.96397,0.09444,0.26369,-0.16601,-0.02071
0.2442,0.96352,0.10958,0.25466,-0.02293,0.00242
0.2388,0.9633,0.12259,0.15559,0.02785,-0.10112
0.23646,0.96162,0.13921,0.17373,0.06211,-0.2782
0.23566,0.95937,0.15515,0.27229,-0.00522,-0.19061
0.23247,0.95816,0.16696,0.14221,0.00662,-0.16353
0.2309,0.95778,0.17129,0.12162,0.04536,-0.18896
0.22899,0.95862,0.16916,0.17932,0.12343,-0.13178
0.22265,0.95984,0.1707,0.19578,0.26701,-0.02675
0.21589,0.96115,0.172,0.25549,0.48613,0.09774
0.2099,0.96227,0.17312,0.40883,0.65691,0.187
0.20642,0.96367,0.16951,0.18229,0.58434,-0.03753
0.20864,0.96509,0.15834,0.11492,0.57556,-0.10461
0.21025,0.96791,0.1376,0.12863,0.37036,-0.26401
0.20947,0.97196,0.10685,0.10662,0.32601,-0.28358
0.20989,0.97591,0.05959,0.15101,0.3183,-0.19008
0.20982,0.97772,-0.00522,0.1166,0.35936,-0.15041
0.20788,0.97477,-0.08134,0.14163,0.38235,-0.1325
0.2077,0.96493,-0.16054,0.06375,0.51285,0.0406
0.20368,0.95117,-0.23191,0.05035,0.4904,0.0837
0.1982,0.93477,-0.29482,-0.02579,0.29263,0.28951
0.19203,0.91567,-0.35308,-0.02095,0.11376,0.51166
0.18642,0.89279,-0.41009,0.02695,0.02794,0.16441
0.1892,0.86673,-0.4615,0.07709,0.02142,0.19157
0.18484,0.83996,-0.5102,0.02588,-0.26104,0.51238
0.17025,0.80898,-0.56264,-0.00834,-0.41167,0.47855
0.14885,0.77849,-0.60976,-0.01468,-0.42712,0.55127
0.12178,0.74939,-0.65084,-0.15771,-0.42816,0.52861
0.08715,0.72255,-0.68581,-0.14379,-0.38521,0.51006
0.04421,0.69701,-0.7157,-0.03333,-0.35403,0.48229
0.00201,0.67419,-0.73856,-0.15543,-0.2767,0.42634
-0.02891,0.65593,-0.75427,-0.23561,-0.32669,0.3784
-0.04612,0.64461,-0.76312,-0.19008,-0.25209,0.33784
-0.0499,0.6406,-0.76625,-0.10005,-0.19987,0.24585
-0.04296,0.64391,-0.76389,-0.10718,-0.23073,0.20783
-0.02952,0.65323,-0.75659,-0.15589,-0.27981,0.11546
-0.0114,0.66705,-0.74492,-0.13537,-0.3085,0.02466
0.01003,0.68456,-0.72889,-0.00533,-0.26559,-0.21215
0.03132,0.70464,-0.70887,0.23185,-0.21219,-0.53145
0.05253,0.72424,-0.68754,0.31925,0.31638,-0.68328
0.07718,0.73665,-0.67186,-0.00981,0.63656,-0.21421
0.09208,0.75562,-0.6485,-0.05368,0.36496,-0.11403
0.11328,0.77698,-0.61925,-0.14675,0.51765,0.28305
0.13874,0.7954,-0.58999,-0.07116,0.26255,0.23456
0.17494,0.81087,-0.55847,-0.14788,0.29397,0.20512
0.20533,0.82894,-0.52029,-0.03251,0.17756,0.29683
0.23144,0.84809,-0.47663,0.10788,0.15046,0.44979
0.25633,0.86697,-0.42739,0.09295,0.0815,0.40001
0.27235,0.88586,-0.37561,0.1745,-0.03263,0.27695
0.27545,0.90344,-0.32851,0.3074,-0.0188,0.26842
0.27155,0.91918,-0.28526,0.27963,-0.08162,0.20921
0.2551,0.93569,-0.24374,0.26645,-0.10746,0.12083
0.23763,0.9491,-0.20673,0.25812,0.15949,-0.15337
0.22688,0.95815,-0.17459,0.25162,-0.01488,-0.08501
0.21714,0.9658,-0.14171,0.26627,-0.32369,-0.11144
0.21743,0.97026,-0.10641,0.2868,-0.38775,0.0692
0.22756,0.97128,-0.06955,0.22898,-0.30172,0.01355
0.24009,0.97024,-0.03149,0.00567,-0.24563,0.03758
0.25201,0.9677,0.00603,-0.59465,-0.0886,-0.17577
0.25522,0.96613,0.03817,-0.48356,-0.07888,-0.21059
0.25084,0.96607,0.06155,0.02747,-0.00408,-0.09586
0.2438,0.96659,0.0792,0.29815,0.04707,-0.13916
0.23742,0.96677,0.09476,0.19941,-0.03734,-0.14117
0.23127,0.96679,0.10882,0.34234,0.01541,-0.17173
0.22811,0.96581,0.12314,0.39617,0.04615,-0.12623
0.22609,0.96464,0.13548,0.32785,0.0956,-0.15826
0.22335,0.96468,0.13964,0.24689,0.07017,-0.26343
0.22187,0.9649,0.14051,0.31253,0.08248,-0.2114
0.21803,0.96567,0.14124,0.24879,0.1881,-0.0337
0.21198,0.96716,0.1402,-0.01118,0.35683,0.17569
0.20565,0.9691,0.13616,-0.0371,0.45951,0.18816
0.19943,0.97146,0.1284,0.13352,0.65937,0.02256
0.1943,0.97426,0.11432,0.37055,0.54738,0.01417
0.19305,0.97618,0.09904,0.11825,0.38936,-0.16532
0.192,0.97849,0.07544,0.03548,0.31407,-0.25034
0.19112,0.98079,0.03912,0.06405,0.1949,-0.44558
0.19231,0.98116,-0.01824,0.06286,0.19453,-0.38822
0.19296,0.97692,-0.09162,0.06191,0.41686,-0.31111
0.19373,0.96624,-0.16983,0.21049,0.54148,0.13551
0.19604,0.95144,-0.23735,0.17572,0.41111,0.19406
0.20545,0.93394,-0.29249,-0.02543,0.31628,0.33047
0.21758,0.91498,-0.33982,-0.19023,0.16672,0.35322
0.22993,0.89297,-0.38696,-0.09866,0.15188,0.3995
0.24797,0.86465,-0.43692,0.02997,-8e-05,0.13316
0.25587,0.83447,-0.48804,0.00617,-0.1469,0.31157
0.24882,0.80305,-0.54149,-0.19627,-0.38794,0.51539
0.23325,0.76933,-0.59474,-0.19059,-0.37057,0.60579
0.20746,0.73637,-0.64398,-0.13211,-0.37105,0.53732
0.1755,0.70815,-0.6839,-0.05276,-0.43471,0.46624
0.13959,0.68119,-0.71867,-0.14117,-0.27917,0.36253
0.10364,0.65628,-0.74736,-0.28376,-0.3644,0.37596
0.07511,0.63538,-0.76854,-0.22025,-0.25518,0.35483
0.05601,0.62091,-0.78187,-0.10496,-0.20545,0.31699
0.04679,0.61343,-0.78836,-0.07623,-0.19906,0.23383
0.04519,0.61293,-0.78884,-0.06153,-0.21765,0.20892
0.04907,0.61865,-0.78413,-0.12143,-0.26231,0.13064
0.05777,0.62882,-0.7754,-0.12871,-0.31223,0.0814
0.07157,0.64303,-0.76249,-0.0172,-0.28693,-0.04734
0.08812,0.66117,-0.74504,0.11156,-0.28062,-0.25952
0.105,0.683,-0.72283,0.11978,-0.28902,-0.28745
0.12638,0.70993,-0.69284,-0.05549,0.03209,-0.14572
0.15041,0.73574,-0.66035,-0.02472,0.673,-0.88009
0.15716,0.74729,-0.64565,1.0617,1.54039,-0.54741
0.16873,0.76479,-0.62179,-0.36997,0.04002,0.54797
0.18243,0.78396,-0.5934,-0.67997,-0.30516,0.01456
0.20821,0.80429,-0.55657,-0.008,0.1617,0.73024
0.24557,0.82777,-0.50448,0.14913,0.52734,0.10073
0.27432,0.84671,-0.45588,-0.02964,0.49716,0.19633
0.28997,0.86537,-0.40872,-0.07232,0.14951,0.39176
0.30007,0.88274,-0.36156,-0.03731,-0.03742,0.39328
0.29983,0.9003,-0.31554,0.00419,-0.08751,0.33306
0.29242,0.91694,-0.27148,0.2173,-0.0491,0.28085
0.27507,0.93297,-0.23215,0.27568,0.1038,0.05472
0.25732,0.94567,-0.19873,0.27762,0.14564,-0.09537
0.24441,0.95579,-0.16348,0.24724,-0.0099,-0.10195
0.23588,0.963,-0.13036,0.29828,-0.38614,-0.0619
0.23752,0.96638,-0.09844,0.35493,-0.36772,0.01964
0.25226,0.9658,-0.05985,-0.09416,-0.28915,-0.00024
0.26963,0.96283,-0.01597,-0.25227,-0.23616,-0.31521
0.28265,0.95895,0.02296,-0.43471,-0.14896,-0.29128
0.28503,0.95713,0.05147,-0.2263,-0.00843,-0.26373
0.2796,0.95733,0.07311,0.12001,-0.04317,-0.14112
0.27207,0.9579,0.09165,0.1725,-0.02263,-0.02973
0.26492,0.95868,0.10369,0.06954,-0.01939,-0.0371
0.25906,0.95895,0.1153,0.05645,0.07753,-0.08326
0.25728,0.95747,0.13057,0.25562,0.21852,-0.23004
0.25672,0.95609,0.14138,0.259,0.02246,-0.19518
0.2544,0.95572,0.14788,0.10845,0.00146,-0.06655
0.25181,0.95573,0.15224,0.07992,0.01486,-0.0495
0.2493,0.9558,0.15585,0.1174,0.07793,-0.0872
0.24454,0.95627,0.16047,0.10925,0.16916,-0.09169
0.23784,0.95708,0.16561,0.07678,0.23703,-0.09473
0.23128,0.95871,0.16545,0.11851,0.50639,0.04203
0.22552,0.96147,0.15718,0.28753,0.56975,0.12826
0.2225,0.96406,0.1452,0.29622,0.55671,0.02395
0.22273,0.96581,0.13266,0.21279,0.47917,-0.22453
0.22228,0.96831,0.11385,0.23368,0.32693,-0.3276
0.21932,0.97208,0.08343,0.16894,0.24928,-0.33988
0.21725,0.97537,0.03806,0.1774,0.32686,-0.24302
0.21581,0.97616,-0.02306,0.19677,0.36763,-0.19587
0.21485,0.9716,-0.09911,0.19765,0.38863,-0.0756
0.21467,0.95957,-0.18206,0.13726,0.41452,0.16989
0.2106,0.94505,-0.25006,0.03728,0.22576,0.21935
0.20842,0.92844,-0.30751,-0.00276,0.29124,0.2016
0.20892,0.90733,-0.36484,0.20276,0.26876,0.30632
0.21904,0.88045,-0.42051,0.06206,0.06343,0.23241
0.22062,0.85383,-0.47149,-0.04127,0.02113,0.36506
0.20865,0.8256,-0.52426,-0.13459,-0.19233,0.52364
0.18759,0.79317,-0.57939,-0.14254,-0.28572,0.54006
0.15782,0.76116,-0.62908,0.01713,-0.40619,0.51277
0.12314,0.73073,-0.67146,0.05116,-0.25469,0.48363
0.07817,0.70178,-0.70809,-0.00508,-0.23405,0.50739
0.02745,0.6727,-0.73941,-0.13203,-0.26677,0.53039
-0.01393,0.64711,-0.76227,-0.24486,-0.32236,0.42847
-0.0394,0.62862,-0.77671,-0.26449,-0.35476,0.40078
-0.05192,0.61827,-0.78425,-0.0802,-0.20879,0.34769
-0.05563,0.61514,-0.78646,-0.04085,-0.20701,0.33029
-0.05304,0.61823,-0.78421,-0.07365,-0.29103,0.27989
-0.04189,0.62721,-0.77773,-0.15315,-0.36852,0.16165
-0.02379,0.64073,-0.7674,-0.09707,-0.34024,0.00478
-0.00596,0.6577,-0.75326,0.01779,-0.29053,-0.22157
0.01163,0.67806,-0.73491,0.18272,-0.31863,-0.48848
0.03708,0.70277,-0.71045,-0.11731,-0.21199,0.02971
0.06715,0.72675,-0.68361,-0.27766,0.15895,-0.31272
0.08819,0.74816,-0.65763,0.87872,1.92605,0.51606
0.11175,0.76574,-0.63337,-0.43112,0.06069,0.02241
0.13185,0.78175,-0.6095,-0.42547,-0.36958,0.36327
0.16173,0.80137,-0.57589,-0.02063,0.11638,0.4538
0.19297,0.82752,-0.52723,0.17843,0.46423,0.29062
0.22041,0.85064,-0.47731,0.12108,0.41039,0.3332
0.24099,0.87183,-0.42643,0.07833,0.30098,0.34198
0.25185,0.89181,-0.37582,0.05227,-0.03702,0.36468
0.25164,0.9102,-0.32897,0.2952,-0.0935,0.33194
0.24441,0.92641,-0.2864,0.38337,-0.05448,0.26225
0.23573,0.94023,-0.24575,0.41651,0.01953,0.02772
0.22887,0.95109,-0.20745,0.36204,0.00675,-0.07193
0.22241,0.96019,-0.169,0.2815,-0.10849,-0.11931
0.22324,0.96568,-0.13274,0.13233,-0.37225,-0.06541
0.23053,0.96803,-0.09885,0.21659,-0.31564,0.06893
0.23941,0.9688,-0.06406,0.1212,-0.31776,0.10883
0.25227,0.96723,-0.02866,-0.20952,-0.13549,-0.09059
0.26417,0.96447,0.00338,-0.28541,0.0373,-0.19025
0.26821,0.96291,0.02942,-0.25553,0.03434,-0.18451
0.26598,0.96263,0.05096,0.0581,-0.03256,-0.11012
0.26307,0.96221,0.07031,0.15377,-0.00042,-0.11677
0.25977,0.96188,0.08543,0.12467,-0.05655,-0.10904
0.25717,0.96152,0.09669,0.13748,0.03896,0.00384
0.25439,0.96088,0.10953,0.15881,-0.05081,-0.08185
0.25269,0.95929,0.12616,0.10191,-0.00091,-0.10867
0.24974,0.95799,0.14103,0.14301,-0.03567,-0.15329
0.24618,0.95708,0.15295,0.20606,-0.03987,-0.14263
0.24518,0.95593,0.16151,0.19382,-0.03216,-0.14561
0.24479,0.95502,0.16739,0.16083,0.02147,-0.17604
0.24378,0.95478,0.17016,0.07357,0.18247,-0.0662
0.23917,0.9553,0.17377,0.05881,0.30463,-0.04702
0.23201,0.95673,0.17562,0.0751,0.43786,0.07135
0.22192,0.9589,0.1768,0.22728,0.51351,0.05443
0.21557,0.96146,0.17065,0.63186,0.78033,0.19872
0.21344,0.96363,0.16079,0.3609,0.671,0.05912
0.2169,0.96497,0.14762,-0.01827,0.6589,-0.27236
0.2187,0.96892,0.11558,-0.02672,0.32072,-0.47318
0.21962,0.97344,0.06471,0.04849,0.31823,-0.51768
0.22028,0.97542,-0.00631,0.10873,0.35288,-0.27584
0.22148,0.97094,-0.09069,0.18273,0.43014,-0.10871
0.22624,0.95803,-0.17606,0.21598,0.56173,0.295
0.22668,0.94153,-0.24926,-0.06097,0.16741,0.3426
0.22801,0.92364,-0.30808,-0.07844,0.2254,0.38826
0.23516,0.90293,-0.35974,-0.05961,0.16866,0.48233
0.24631,0.87638,-0.41386,-0.16433,0.12473,0.43842
0.25449,0.84688,-0.46694,-0.11951,0.02703,0.24546
0.24751,0.81263,-0.52761,-0.01592,-0.21354,0.34697
0.23722,0.77372,-0.58743,-0.04059,-0.20183,0.45305
0.2189,0.73639,-0.64016,-0.14755,-0.30013,0.57792
0.18736,0.7004,-0.68872,-0.08954,-0.27117,0.46261
0.13539,0.66562,-0.7339,0.0093,-0.23206,0.49072
0.07706,0.63288,-0.77041,-0.2028,-0.30944,0.50255
0.02504,0.60475,-0.79602,-0.23834,-0.31888,0.53667
-0.01352,0.58201,-0.81307,-0.15414,-0.20042,0.53499
-0.03645,0.56497,-0.82431,-0.11634,-0.25486,0.47699
-0.04603,0.55523,-0.83042,-0.05477,-0.3054,0.40514
-0.04561,0.55318,-0.83181,-0.0102,-0.27122,0.34673
-0.04235,0.55751,-0.82909,0.00663,-0.28697,0.35402
-0.03151,0.56794,-0.82247,0.01097,-0.28862,0.03793
-0.01021,0.58126,-0.81366,0.03229,-0.25527,-0.02909
0.01018,0.59528,-0.80346,0.06848,-0.25667,-0.0478
0.02935,0.61059,-0.79141,0.1276,-0.21424,-0.24927
0.04883,0.62612,-0.77819,0.09637,-0.0391,-0.62795
0.06552,0.63567,-0.76917,0.08798,0.15299,-0.8446
0.06547,0.63267,-0.77165,0.38742,0.93588,-1.10708
0.05309,0.64037,-0.76623,0.48482,0.36648,-0.2808
0.06787,0.66254,-0.74594,-0.65542,-0.27988,0.34106
0.0801,0.69032,-0.71905,-0.36694,0.31642,0.16638
0.10559,0.71121,-0.695,-0.26556,0.66859,0.32626
0.13972,0.73051,-0.66845,-0.43859,0.44716,0.11822
0.17144,0.75031,-0.63847,-0.17567,0.19236,0.48219
0.21675,0.77105,-0.59875,-0.03348,0.26274,0.42223
0.26893,0.79017,-0.55073,0.08758,0.29829,0.37169
0.31806,0.80722,-0.49722,0.13882,0.17604,0.192
0.35682,0.82271,-0.44252,-0.00502,0.05043,0.23136
0.38635,0.83832,-0.38465,-0.1403,-0.05115,0.23873
0.40643,0.85363,-0.32577,-0.16238,-0.10026,0.23353
0.41591,0.86901,-0.26804,-0.1284,-0.13475,0.19236
0.41229,0.88493,-0.21659,0.00517,-0.18265,0.22808
0.39719,0.90044,-0.17733,0.09843,-0.15181,0.21101
0.3781,0.91473,-0.1425,0.29408,0.06789,0.03256
0.36058,0.92592,-0.11245,0.33435,0.06831,-0.09697
0.34646,0.9341,-0.08613,0.17812,0.0644,-0.22721
0.33538,0.94,-0.06263,0.13551,-0.05414,-0.20477
0.33218,0.94235,-0.04043,0.07433,-0.21962,-0.05788
0.33357,0.94255,-0.01844,0.06966,-0.20634,0.0124
0.33631,0.94174,0.00485,0.07316,-0.22538,0.05886
0.33872,0.9403,0.03328,-0.02772,-0.08079,-0.23462
0.33821,0.93933,0.05726,-0.07316,-0.02485,-0.2165
0.33395,0.93986,0.07173,-0.08515,-0.04119,-0.18067
0.32589,0.94175,0.0831,-0.08364,-0.02024,-0.10125
0.3142,0.94457,0.09523,0.07696,0.00518,-0.23698
0.30268,0.94709,0.10675,0.13526,-0.00613,-0.24536
0.2923,0.94925,0.11615,0.09823,-0.04655,-0.23655
0.2832,0.95155,0.1198,0.16456,0.00687,-0.19249
0.2795,0.95335,0.11405,0.18876,0.02096,-0.14516
0.28271,0.95386,0.10116,0.20132,-0.13194,0.01998
0.28782,0.95384,0.08576,0.47629,-0.35552,0.04113
0.29113,0.95405,0.07096,0.37461,-0.15705,0.0135
0.29307,0.9542,0.06014,0.27186,-0.06899,-0.10413
0.30091,0.95242,0.04844,0.24718,0.41751,-0.23414
0.31538,0.94845,0.03112,0.23987,0.57051,-0.27312
0.3331,0.94289,0.00183,-0.07065,0.68202,-0.37613
0.34824,0.93647,-0.04181,-0.4574,0.60822,-0.10342
0.35131,0.93167,-0.09255,-0.58848,0.65965,0.16289
0.34208,0.92951,-0.1378,-0.63854,0.62525,0.15447
0.33011,0.9268,-0.17909,-0.78241,0.38309,0.01451
0.31952,0.92131,-0.22159,-0.66582,0.21026,0.34318
0.30116,0.91387,-0.2723,-0.49359,0.07946,0.43166
0.27827,0.90468,-0.32268,0.07593,0.05887,0.17421
0.26268,0.89542,-0.35947,0.20695,0.06372,0.19737
0.26299,0.88453,-0.38528,0.03959,-0.03664,0.1764
0.26489,0.87378,-0.40785,-0.10782,-0.08174,0.27621
0.26073,0.86404,-0.43064,-0.2043,-0.24345,0.25399
0.24836,0.85542,-0.45451,-0.19087,-0.25032,0.24057
0.23362,0.84913,-0.47372,-0.17461,-0.21422,0.17257
0.22212,0.84607,-0.48459,-0.18951,-0.19017,0.16198
0.21683,0.84518,-0.48852,-0.1759,-0.19275,0.12473
0.2165,0.84566,-0.48783,-0.16729,-0.23961,0.07734
0.21979,0.84754,-0.48308,-0.10898,-0.27326,0.04111
0.22707,0.85038,-0.47464,-0.06046,-0.24995,0.00133
0.23699,0.85358,-0.46394,-0.05505,-0.22404,-0.02379
0.2486,0.8571,-0.45119,-0.10344,-0.22515,-0.05759
0.26077,0.8615,-0.43568,-0.13593,-0.24801,-0.13873
0.27114,0.86652,-0.41906,-0.14422,-0.13921,-0.25208
0.28005,0.87097,-0.40371,-0.08106,0.14231,-0.4472
0.28908,0.87431,-0.3899,-0.08966,0.24793,-0.54707
0.29714,0.875,-0.38221,-0.16021,0.3294,-0.66378
0.30533,0.87254,-0.38138,-0.26395,0.14539,-0.58444
0.31047,0.87065,-0.38154,-0.34832,-0.06708,-0.44251
0.30623,0.87171,-0.38254,-0.31952,-0.27207,-0.33909
0.29789,0.87611,-0.37907,-0.28437,0.0953,-0.03672
0.30226,0.88661,-0.35008,-0.2706,0.20788,0.55447
0.33001,0.8931,-0.30573,-0.00165,2.8249,-0.9115
0.33567,0.88398,-0.32543,-0.24128,1.51672,0.13662
0.33062,0.87864,-0.34449,-0.62162,-1.00044,1.40141
0.33585,0.8804,-0.3348,-0.20513,-0.7439,0.22065
0.34795,0.89292,-0.28568,-0.11445,-0.34765,0.65107
0.35556,0.90259,-0.24271,-0.05492,0.09463,0.86544
0.364,0.90855,-0.20503,0.27908,0.77347,0.44212
0.38453,0.90727,-0.17028,0.42602,0.85994,-0.09247
0.39621,0.90818,-0.13501,0.27314,0.19084,-0.25493
0.40081,0.90995,-0.1065,-0.22039,0.04311,0.27418
0.40956,0.90865,-0.08131,-0.20152,-0.01056,0.26246
0.41896,0.90645,-0.05298,-0.15146,-0.03484,0.17142
0.42602,0.90445,-0.02159,0.03411,-0.06295,0.00252
0.42775,0.90386,0.00777,0.01005,-0.08091,-0.05274
0.42678,0.90379,0.03184,0.03712,-0.05687,-0.11235
0.42393,0.90431,0.04995,0.17836,0.06967,-0.09014
0.42342,0.90341,0.06754,0.22524,0.03093,-0.14609
0.4264,0.90015,0.08894,0.19048,-0.04268,-0.09388
0.43357,0.89461,0.10809,0.02082,-0.10349,-0.10972
0.44078,0.88806,0.1306,-0.22316,0.06368,-0.2843
0.44215,0.88455,0.14856,-0.32765,-0.03335,-0.16658
0.44211,0.88279,0.15878,-0.04292,-0.0113,-0.11958
0.44212,0.88127,0.16699,0.05866,-0.00139,-0.1591
0.43896,0.88124,0.17531,0.00668,0.00222,-0.24129
0.43431,0.88209,0.18247,0.01924,-0.06504,-0.17928
0.42781,0.88353,0.19065,0.09732,-0.03688,-0.16487
0.42181,0.88423,0.2005,0.10035,-0.00992,-0.11661
0.41613,0.88449,0.21097,-0.04865,-0.00055,-0.12386
0.41077,0.88552,0.21704,-0.11521,0.06251,-0.10857
0.40698,0.88651,0.22015,-0.06993,0.11897,-0.11189
0.401,0.8883,0.22387,0.01218,0.16808,-0.11946
0.38903,0.89203,0.23004,0.05555,0.22569,-0.15228
0.37655,0.89526,0.23815,0.09717,0.27614,-0.17806
0.36544,0.89797,0.24514,0.30676,0.48649,0.01798
0.35768,0.90002,0.24903,0.08355,0.54617,-0.23477
0.35499,0.90146,0.24765,0.15491,0.37339,-0.30838
0.34899,0.90542,0.24168,0.41073,0.34127,-0.11433
0.34121,0.91188,0.22814,0.063,0.39693,-0.17048
0.34005,0.91834,0.20252,-0.12551,0.38321,-0.15541
0.34438,0.9246,0.16283,-0.0879,0.36395,-0.1612
0.35006,0.92984,0.11335,0.0156,0.30451,-0.01194
0.35712,0.93218,0.05908,-0.0044,0.2367,0.08237
0.36537,0.93086,0.00032,-0.16717,0.30048,0.09549
0.37134,0.92647,-0.06126,-0.28502,0.53265,0.11385
0.36811,0.92172,-0.12217,-0.42182,0.67244,0.18203
0.35846,0.91558,-0.18222,-0.41849,0.59278,0.16624
0.35303,0.90171,-0.24955,-0.36596,0.34606,0.11677
0.34962,0.88187,-0.31634,-0.07552,0.20763,0.3272
0.35397,0.85647,-0.37571,0.08727,-0.0164,0.24047
0.37076,0.82331,-0.42975,0.06828,-0.02049,0.14191
0.37054,0.79016,-0.48821,-0.08221,-0.05467,0.32366
0.3539,0.75621,-0.55037,-0.12392,-0.1715,0.33107
0.33122,0.72425,-0.60477,-0.18664,-0.14523,0.41124
0.29983,0.69674,-0.65165,-0.19946,-0.27284,0.47117
0.26252,0.67107,-0.69336,-0.16947,-0.22493,0.39571
0.22241,0.64596,-0.73026,-0.13903,-0.21076,0.39902
0.18073,0.62326,-0.76084,-0.17409,-0.18982,0.45472
0.14463,0.60523,-0.7828,-0.26798,-0.29096,0.3922
0.11797,0.59266,-0.79677,-0.21853,-0.25017,0.38834
0.09977,0.58667,-0.80366,-0.21172,-0.20442,0.35828
0.09065,0.58596,-0.80525,-0.29096,-0.19641,0.31108
0.08942,0.58929,-0.80296,-0.24123,-0.1785,0.24914
0.09409,0.59564,-0.79772,-0.24466,-0.16806,0.17414
0.10021,0.60388,-0.79075,-0.12183,-0.1503,0.07137
0.1075,0.61284,-0.78286,-0.06465,-0.1564,0.0406
0.11875,0.6236,-0.77267,-0.05949,-0.16688,0.04273
0.13664,0.63785,-0.75794,-0.15242,-0.16,0.04835
0.15994,0.65633,-0.73732,-0.19344,-0.17355,-0.02202
0.18603,0.67776,-0.71136,-0.17491,0.0745,-0.35837
0.20559,0.69319,-0.69081,0.04811,1.02394,-1.12131
0.20665,0.69877,-0.68484,0.2345,0.97373,-0.17845
0.20853,0.70796,-0.67476,-0.3777,-0.11019,0.0649
0.20951,0.72944,-0.65117,-0.63334,-0.29806,-0.07241
0.21459,0.75469,-0.62,-0.09931,0.06282,0.62387
0.2451,0.78248,-0.57241,0.11163,0.686,0.11315
0.27022,0.80503,-0.52811,-0.06383,0.82787,0.14694
0.28075,0.82392,-0.49227,-0.1544,0.19819,0.25001
0.29517,0.84323,-0.44927,0.01761,-0.09112,0.3784
0.31815,0.86262,-0.39327,0.07444,-0.06075,0.42943
0.33647,0.88232,-0.32909,0.02434,-0.01214,0.34949
0.34438,0.89942,-0.26913,0.19749,0.0395,0.23062
0.34058,0.91283,-0.22525,0.22833,0.07489,0.06669
0.3286,0.92568,-0.18744,0.15534,-0.00481,-0.0295
0.3174,0.93647,-0.14921,0.0923,-0.03341,-0.08919
0.31115,0.94348,-0.1141,0.08378,-0.17418,-0.14959
0.31311,0.94612,-0.08254,0.10933,-0.33567,-0.1077
0.31987,0.94596,-0.05314,0.1302,-0.40399,-0.05093
0.33361,0.94252,-0.0186,0.02695,-0.32619,-0.0426
0.34973,0.93667,0.01836,-0.19386,-0.08181,-0.12604
0.35907,0.93206,0.04831,-0.34739,0.05766,-0.28737
0.36113,0.92997,0.0688,-0.27301,0.11274,-0.27132
0.3604,0.92894,0.08469,-0.03058,0.04085,-0.18474
0.35836,0.92816,0.10046,0.09204,0.04338,-0.11385
0.35545,0.92779,0.11337,0.05647,0.00515,-0.04231
0.35294,0.92755,0.12276,0.04982,-0.00737,-0.01642
0.35107,0.92695,0.13232,0.07352,0.00518,-0.02722
0.34892,0.92594,0.14448,0.04758,-0.05649,-0.14177
0.347,0.92474,0.1563,0.08664,-0.02948,-0.19791
0.3461,0.92364,0.16461,0.16857,0.02265,-0.27925
0.34387,0.9232,0.17156,0.12191,0.06413,-0.19505
0.33989,0.92363,0.17714,0.09595,0.13485,-0.17424
0.33601,0.9247,0.17891,-0.03024,0.3345,-0.04463
0.33018,0.92654,0.18027,0.09306,0.52779,0.05795
0.32409,0.92914,0.17792,0.24111,0.63133,0.10703
0.31739,0.93203,0.17484,0.14655,0.67727,-0.01821
0.31541,0.93349,0.1706,0.12735,0.53911,-0.20541
0.31254,0.93725,0.15449,0.08863,0.29865,-0.32043
0.30777,0.94262,0.12936,0.10475,0.29969,-0.30416
0.30484,0.94805,0.09086,0.00379,0.37691,-0.28632
0.30463,0.95181,0.03527,-0.00032,0.34769,-0.2651
0.30471,0.95184,-0.0337,-0.00153,0.34627,-0.17635
0.30473,0.94642,-0.1069,0.04848,0.44192,0.12095
0.3045,0.93675,-0.17255,-0.10903,0.44876,0.25281
0.30235,0.9258,-0.22689,-0.28317,0.32958,0.3203
0.30543,0.91154,-0.27533,-0.34362,0.22463,0.31108
0.3099,0.89321,-0.32578,-0.44786,0.07473,0.20678
0.31342,0.87122,-0.37781,-0.23397,-0.08428,0.28165
0.32008,0.844,-0.43036,0.03112,0.01242,0.31558
0.32214,0.81269,-0.48554,-0.02455,-0.2572,0.43314
0.31376,0.78049,-0.54073,-0.04201,-0.33415,0.47559
0.28952,0.74882,-0.59619,-0.1043,-0.351,0.52286
0.25132,0.71853,-0.6485,-0.11314,-0.18172,0.56529
0.20391,0.69089,-0.6936,-0.13511,-0.14765,0.52689
0.15333,0.66507,-0.73087,-0.27868,-0.15575,0.34282
0.10761,0.6416,-0.75945,-0.25015,-0.16533,0.26749
0.07335,0.62227,-0.77936,-0.29277,-0.27371,0.27948
0.05237,0.60998,-0.79069,-0.21124,-0.16761,0.31899
0.04542,0.60517,-0.7948,-0.18841,-0.13767,0.31543
0.05017,0.60685,-0.79323,-0.23922,-0.20913,0.24693
0.06392,0.61471,-0.78616,-0.26178,-0.2653,0.12266
0.08085,0.62777,-0.77419,-0.26358,-0.28623,0.09513
0.09981,0.64511,-0.75754,-0.15724,-0.26492,-0.07066
0.11969,0.665,-0.73718,-0.00299,-0.24118,-0.27804
0.14143,0.68536,-0.71434,0.11853,-0.22932,-0.44794
0.16531,0.69973,-0.69502,0.04428,0.55409,-0.41503
0.17543,0.70886,-0.68319,-0.1226,0.81943,-0.22009
0.18561,0.72259,-0.66589,-0.36758,0.12627,0.05892
0.20136,0.7449,-0.63606,-0.30305,-0.25059,0.28469
0.23073,0.7699,-0.59498,0.04063,0.42616,0.03953
0.27119,0.79416,-0.54384,0.09619,0.802,0.08039
0.29764,0.81389,-0.49898,-0.06832,0.4633,0.28311
0.3105,0.83081,-0.46189,-0.07501,-0.0876,0.32964
0.32721,0.84788,-0.41717,-0.0473,-0.15708,0.31943
0.34281,0.86632,-0.36326,0.01815,-0.04952,0.41595
0.34747,0.88571,-0.30785,0.24164,0.06862,0.31558
0.34009,0.90485,-0.25608,0.49498,0.24507,0.03738
0.32843,0.92088,-0.21001,0.46111,0.30644,-0.09808
0.32361,0.92957,-0.17654,0.05157,0.06547,0.03805
0.3264,0.93484,-0.1397,0.17523,-0.01273,-0.08547
0.32721,0.93876,-0.10799,0.06047,-0.27811,-0.21032
0.33465,0.93894,-0.07989,0.21367,-0.26432,0.06584
0.34781,0.93635,-0.04762,0.20051,-0.26173,0.03357
0.36251,0.93189,-0.01288,-0.12268,-0.22681,0.04768
0.37603,0.92637,0.02044,-0.4912,-0.10589,-0.15156
0.38046,0.92355,0.04779,-0.35435,-0.16771,-0.17836
0.3828,0.92124,0.06904,-0.17717,-0.11394,-0.17588
0.38294,0.91936,0.09013,-0.01055,-0.03474,-0.1368
0.37963,0.91849,0.11066,-0.03228,0.00015,-0.1092
0.37482,0.91835,0.127,-0.05387,0.01274,0.04455
0.36988,0.91826,0.14128,-0.00225,-0.00027,-0.03886
0.36691,0.91658,0.15885,0.12848,0.0373,-0.16587
0.36289,0.91487,0.17693,0.18193,0.08588,-0.11301
0.35672,0.91401,0.19317,0.11127,0.12532,-0.12434
0.35203,0.91319,0.2053,0.0761,0.22173,-0.25463
0.34918,0.91328,0.20972,0.06788,0.31591,-0.22115
0.34262,0.91589,0.20915,0.07379,0.39918,-0.0625
0.33085,0.92003,0.20991,0.06703,0.48497,-0.02065
0.31957,0.92416,0.20925,0.25882,0.50627,-0.07271
0.31491,0.92777,0.20014,0.58106,0.63441,0.14491
0.31583,0.93008,0.18758,0.31426,0.58571,-0.04787
0.32211,0.93158,0.16846,-0.11026,0.41195,-0.38671
0.32656,0.93599,0.1314,-0.16225,0.28597,-0.41533
0.32721,0.94178,0.0773,-0.08565,0.25148,-0.32857
0.32814,0.94459,0.00774,-0.01261,0.33722,-0.12059
0.33125,0.94086,-0.07097,0.07889,0.37204,0.07107
0.3349,0.93055,-0.148,0.09796,0.49077,0.28151
0.33463,0.91799,-0.21287,-0.01976,0.3786,0.25958
0.33526,0.90318,-0.26805,-0.11605,0.20521,0.18185
0.33497,0.88515,-0.32293,-0.12716,0.25564,0.35458
0.34347,0.85952,-0.37847,-0.03517,0.06563,0.09524
0.34812,0.83049,-0.43485,-0.08678,-0.04442,0.24077
0.34646,0.79915,-0.49125,-0.10155,-0.06021,0.42698
0.34055,0.76558,-0.54581,-0.1711,-0.242,0.52395
0.32454,0.73324,-0.59752,-0.2296,-0.30118,0.53111
0.29828,0.70191,-0.6468,-0.19065,-0.26499,0.55755
0.26127,0.67256,-0.69238,-0.24298,-0.19797,0.45748
0.21682,0.64643,-0.73151,-0.26512,-0.23348,0.41764
0.17137,0.62262,-0.76352,-0.2749,-0.21662,0.42344
0.13448,0.60239,-0.78679,-0.30448,-0.23208,0.31889
0.11097,0.58758,-0.80152,-0.1893,-0.16308,0.37113
0.10041,0.58006,-0.80836,-0.15357,-0.18251,0.38458
0.10345,0.58016,-0.80791,-0.17492,-0.24738,0.29526
0.1156,0.58697,-0.80131,-0.25546,-0.18769,0.1398
0.1294,0.59876,-0.79041,-0.26206,-0.25024,0.15491
0.14706,0.61465,-0.77497,-0.21568,-0.27893,0.09848
0.16829,0.63383,-0.75494,0.00225,-0.24813,-0.24349
0.19057,0.65612,-0.7302,0.0076,-0.27573,-0.35066
0.21943,0.6804,-0.69921,-0.07037,-0.23072,-0.07367
0.24289,0.70239,-0.66906,-0.14274,1.00368,-1.23873
0.26051,0.71887,-0.64449,0.81562,1.49897,0.51819
0.27847,0.73648,-0.61647,-0.52506,0.11966,-0.03058
0.29249,0.75191,-0.59083,-0.39758,-0.31694,0.44864
0.31341,0.77522,-0.54845,-0.02241,0.04452,0.35947
0.33675,0.80186,-0.49357,0.12834,0.36544,0.34186
0.35604,0.82564,-0.43766,0.04787,0.38048,0.30003
0.36656,0.84732,-0.38428,-0.01333,0.18776,0.33478
0.37079,0.86615,-0.33508,0.05969,0.02383,0.28786
0.36706,0.88324,-0.29179,0.53521,0.10298,0.0269
0.35356,0.90011,-0.25454,0.4706,0.18535,-0.04017
0.34146,0.91207,-0.22699,0.00594,0.04521,0.18265
0.34526,0.91787,-0.1957,-0.24216,-0.22335,0.12177
0.36155,0.91972,-0.15292,-0.10131,-0.18519,-0.0389
0.37191,0.92119,-0.11434,-0.18148,-0.18707,-0.14808
0.37772,0.92202,-0.08479,-0.0952,-0.16981,-0.04114
0.38119,0.92262,-0.0588,-0.12699,-0.23652,0.0971
0.38688,0.92171,-0.02757,-0.06708,-0.16034,-0.04893
0.3928,0.91961,0.00083,-0.13733,-0.07406,-0.17052
0.39659,0.91763,0.02558,-0.19393,-0.01948,-0.19179
0.39518,0.91735,0.04785,-0.07614,0.01381,-0.17552
0.39233,0.91732,0.06764,0.00612,-0.00491,-0.13229
0.38984,0.91698,0.08457,0.05054,-0.0161,-0.0402
0.38629,0.9168,0.10119,0.05789,-0.02256,-0.00468
0.38357,0.91592,0.1181,0.02744,-0.09912,0.00364
0.38228,0.91423,0.13424,-0.03557,-0.02471,-0.01447
0.38142,0.91237,0.14861,-0.03274,0.08373,-0.103
0.37832,0.91188,0.15917,0.02585,0.07901,-0.25235
0.3749,0.91217,0.16543,0.0548,0.05784,-0.2585
0.36981,0.91388,0.16746,0.0804,-0.01399,-0.09536
0.3632,0.9166,0.16708,0.07292,0.02789,-0.03371
0.35769,0.91893,0.16617,0.04389,0.06052,-0.0222
0.35429,0.92016,0.16661,0.02538,0.15168,0.03396
0.34947,0.92129,0.17053,0.03035,0.27951,0.07168
0.34398,0.92315,0.17161,0.06457,0.35007,0.05893
0.33791,0.92625,0.16692,0.29881,0.44881,0.14949
0.33396,0.92891,0.15991,0.1887,0.51522,0.14851
0.3331,0.93033,0.15332,0.04666,0.51063,0.06803
0.33456,0.93182,0.14055,-0.09652,0.35805,-0.12447
0.33443,0.93467,0.12056,-0.04287,0.32926,-0.19725
0.33359,0.9382,0.09205,-0.00672,0.33702,-0.22077
0.33556,0.94071,0.04951,0.05717,0.29632,-0.32017
0.33764,0.94124,-0.00704,0.10238,0.30726,-0.29851
0.33497,0.93958,-0.07051,0.08026,0.29917,-0.20854
0.32895,0.93418,-0.13813,0.06705,0.42342,0.04144
0.32414,0.92441,-0.20094,-0.07303,0.39454,-0.00128
0.32003,0.91279,-0.25374,-0.1607,0.20472,0.14981
0.31855,0.89932,-0.29958,-0.21421,0.19088,0.21555
0.31712,0.88255,-0.34718,-0.09869,0.0297,0.37795
0.32075,0.85845,-0.40021,0.16481,-0.08077,0.2228
0.32552,0.82962,-0.4536,0.08173,-0.12963,0.22689
0.3318,0.79946,-0.50076,-0.07637,-0.11889,0.36715
0.32741,0.76804,-0.55038,-0.14656,-0.16988,0.41514
0.31274,0.7354,-0.60114,-0.15543,-0.14934,0.44295
0.28806,0.70352,-0.64967,-0.05891,-0.16911,0.50319
0.25056,0.67272,-0.69618,-0.12541,-0.1453,0.42319
0.21071,0.64546,-0.73415,-0.11588,-0.10181,0.39734
0.16917,0.62109,-0.76526,-0.1818,-0.03819,0.31529
0.13037,0.59784,-0.79094,-0.23463,-0.05879,0.30205
0.10178,0.57758,-0.80996,-0.2331,-0.06257,0.35098
0.08406,0.5625,-0.82251,-0.14763,-0.11769,0.3434
0.07376,0.55301,-0.8299,-0.14089,-0.14966,0.3418
0.06874,0.54912,-0.83291,-0.17009,-0.19541,0.34212
0.07064,0.55034,-0.83195,-0.18437,-0.17721,0.2651
0.07736,0.55468,-0.82846,-0.12789,-0.13613,0.15819
0.08757,0.56129,-0.82297,-0.12223,-0.19002,0.13025
0.10459,0.5714,-0.81398,-0.11741,-0.19633,0.06291
0.12607,0.58556,-0.80076,-0.09035,-0.14922,-0.01195
0.14998,0.60285,-0.78363,-0.07381,-0.11489,-0.13827
0.17625,0.62257,-0.76245,-0.10255,-0.16617,-0.19887
0.20531,0.64766,-0.73374,-0.23667,-0.16124,-0.00956
0.22737,0.67232,-0.70447,-0.20077,0.62863,-0.76475
0.23681,0.68879,-0.68519,1.04996,1.43792,0.03945
0.25929,0.70187,-0.66343,0.32825,0.96253,0.57382
0.27274,0.72243,-0.63537,-0.55894,-0.13796,0.1519
0.2947,0.74283,-0.60112,-0.05813,0.15802,0.6584
0.32538,0.7685,-0.55093,-0.00472,0.20277,0.42448
0.3571,0.79046,-0.49763,-0.11193,0.36714,0.30329
0.37841,0.81301,-0.4425,-0.15773,0.16596,0.34668
0.38868,0.83383,-0.39199,-0.15441,0.07442,0.39501
0.39429,0.85282,-0.34237,0.04358,-0.05474,0.36183
0.38905,0.87138,-0.29888,0.28318,0.05181,0.24616
0.37453,0.89043,-0.25854,0.16052,0.11102,0.14378
0.36546,0.90531,-0.2164,0.07057,0.14147,-0.04062
0.36393,0.91439,-0.1773,0.02397,-0.07251,-0.01446
0.36467,0.9202,-0.14225,0.02096,-0.24738,-0.02992
0.36683,0.92317,-0.11482,-0.0142,-0.28501,-0.03999
0.37316,0.9237,-0.08672,0.00619,-0.15624,-0.02063
0.3824,0.92229,-0.05593,-0.00071,-0.12124,0.0203
0.39534,0.91825,-0.02259,-0.1561,-0.04469,-0.22677
0.40415,0.91466,0.00666,-0.33457,-0.01794,-0.21903
0.40668,0.91315,0.02726,-0.15424,-0.00785,-0.1863
0.40503,0.91316,0.04538,-0.05175,-0.01622,-0.18141
0.40167,0.91375,0.06076,0.06764,-0.02427,-0.0487
0.39819,0.91429,0.07423,0.00672,0.01028,-0.05116
0.3945,0.91492,0.08522,-0.03596,-0.00777,-0.03795
0.39173,0.9151,0.09549,-0.02526,-0.00143,-0.02867
0.38901,0.91511,0.10593,-0.01468,0.04012,-0.12748
0.38602,0.91506,0.11673,0.02018,0.02465,-0.12616
0.38074,0.91606,0.12586,0.03135,-0.00728,-0.14315
0.37572,0.917,0.1339,0.03427,-0.06284,-0.17415
0.37023,0.91871,0.1374,0.03469,0.02052,-0.08746
0.36364,0.92085,0.14063,0.02332,0.05863,-0.04897
0.35979,0.92249,0.13975,-0.00086,0.04751,-0.02589
0.35697,0.92313,0.14274,-0.01202,0.11123,0.05571
0.35267,0.92372,0.14946,-0.02456,0.18863,0.07331
0.34853,0.92511,0.15055,0.19567,0.48687,0.12126
0.3443,0.92697,0.14887,0.25409,0.70999,0.18832
0.34135,0.92837,0.14688,0.03815,0.72058,0.05064
0.34081,0.92998,0.13774,0.02926,0.71662,-0.10396
0.33721,0.93384,0.11923,0.10445,0.50427,-0.1994
0.33467,0.93767,0.09352,0.07309,0.367,-0.23958
0.3364,0.94029,0.05177,0.02849,0.31104,-0.22931
0.3391,0.94071,-0.00725,0.01768,0.28332,-0.1495
0.33807,0.93798,-0.0767,0.01855,0.29124,-0.17196
0.33812,0.92904,-0.15012,0.02557,0.3644,0.01421
0.33949,0.91558,-0.21552,-0.01273,0.47189,0.08483
0.33842,0.90033,-0.27361,-0.19978,0.2504,0.20246
0.33617,0.88254,-0.3288,-0.11505,0.16785,0.3642
0.33473,0.85953,-0.38621,-0.0238,0.10602,0.433
0.33902,0.83117,-0.4407,0.06061,0.04327,0.2377
0.33865,0.80157,-0.49274,-0.02514,0.02405,0.41005
0.3311,0.76848,-0.54754,-0.14503,-0.15416,0.44921
0.30957,0.7333,-0.60533,-0.31531,-0.26265,0.5295
0.27911,0.69875,-0.65866,-0.2675,-0.25039,0.59737
0.23835,0.66628,-0.70658,-0.06562,-0.22753,0.51117
0.19123,0.63467,-0.74874,-0.18464,-0.23704,0.40154
0.14272,0.60517,-0.7832,-0.19445,-0.24505,0.41299
0.10293,0.57928,-0.8086,-0.21526,-0.18228,0.42824
0.07471,0.55941,-0.82552,-0.20585,-0.11638,0.42274
0.05958,0.54643,-0.83538,-0.18809,-0.12328,0.33729
0.05658,0.54065,-0.83934,-0.201,-0.1008,0.3253
0.05978,0.5418,-0.83837,-0.2277,-0.0774,0.30413
0.06862,0.5492,-0.83286,-0.21154,-0.18521,0.21235
0.08563,0.56232,-0.82247,-0.22652,-0.22682,0.0423
0.10636,0.57862,-0.80863,-0.11809,-0.18516,-0.0337
0.12752,0.59672,-0.79225,0.04893,-0.18555,-0.1385
0.15263,0.61911,-0.77033,0.16861,-0.21734,-0.35223
0.18562,0.6436,-0.74251,-0.02426,-0.11524,-0.05599
0.22027,0.66522,-0.71341,-0.39186,0.60686,-0.63778
0.23378,0.68717,-0.68785,0.66391,0.82009,-0.48589
0.25997,0.70343,-0.66151,0.37658,0.78697,0.53918
0.28734,0.7214,-0.63009,-0.75566,-0.15493,-0.03669
0.3106,0.73747,-0.59971,-0.35632,0.04311,0.42135
0.33778,0.75921,-0.55632,-0.05648,0.19959,0.38217
0.37203,0.78137,-0.50104,0.02227,0.43503,0.28436
0.40264,0.80387,-0.43779,-0.11063,0.40673,0.40164
0.41636,0.82685,-0.37808,-0.11648,0.32777,0.33389
0.42042,0.84675,-0.32596,0.01402,0.19816,0.23313
0.41667,0.86485,-0.28001,-0.00554,0.10814,0.17407
0.4033,0.88446,-0.23466,-0.00915,0.05475,0.11281
0.38935,0.90013,-0.19534,0.08031,0.12726,-0.007
0.37959,0.91124,-0.15978,0.22967,0.06227,-0.01176
0.37215,0.91917,-0.12889,0.21756,-0.25549,-0.08409
0.37283,0.92249,-0.09999,0.20273,-0.33916,0.09436
0.38358,0.92131,-0.06345,0.16561,-0.42402,0.12787
0.39763,0.91735,-0.01829,0.01657,-0.34147,0.11443
0.40825,0.91237,0.02989,-0.65438,-0.16476,-0.40898
0.40793,0.91091,0.06178,-0.63521,-0.07221,-0.26668
0.40351,0.91099,0.08525,-0.1633,0.13983,-0.23773
0.39732,0.91165,0.10497,0.04002,0.03827,-0.12757
0.39086,0.91244,0.12108,0.07546,-0.12835,-0.05263
0.38711,0.9121,0.13491,0.00401,-0.07907,-0.00788
0.38624,0.91048,0.14771,0.16274,0.11276,-0.15518
0.38413,0.9099,0.15655,0.05926,0.10565,-0.25312
0.38175,0.90989,0.16232,0.01373,0.04573,-0.17605
0.37913,0.90986,0.1685,0.08028,-0.00246,-0.03688
0.37595,0.91013,0.17406,0.04918,-0.03884,-0.02097
0.37138,0.9115,0.17669,0.0297,0.06596,-0.03196
0.36556,0.91316,0.18022,0.02006,0.21185,-0.04646
0.36066,0.91367,0.18737,-0.03267,0.28008,-0.03173
0.35458,0.91499,0.19245,0.07758,0.46968,0.00447
0.34768,0.9174,0.19356,0.20544,0.47302,0.09103
0.34256,0.91972,0.19169,0.09877,0.44674,0.14012
0.33869,0.92179,0.18861,-0.06267,0.45916,-0.03727
0.33154,0.92546,0.18322,-0.05544,0.3582,-0.02957
0.32417,0.93015,0.17234,-0.12201,0.36735,-0.04458
0.32076,0.93511,0.15053,-0.05361,0.44348,-0.19414
0.32169,0.93998,0.11375,-0.01267,0.35612,-0.22909
0.32742,0.94266,0.06452,0.03758,0.11616,-0.2482
0.33467,0.94229,0.00821,-0.08769,0.10671,0.09435
0.33987,0.93925,-0.04776,-0.18752,0.18843,0.19401
0.34244,0.93386,-0.10304,-0.36986,0.38772,0.18674
0.34114,0.92695,-0.15613,-0.58224,0.41833,0.14164
0.33557,0.91987,-0.20304,-0.55932,0.16059,0.47281
0.33005,0.91275,-0.24069,-0.56359,-0.10274,0.45088
0.32475,0.90412,-0.27766,-0.4084,-0.18404,-0.01422
0.31574,0.8888,-0.33216,-0.27933,-0.01239,-0.09983
0.30471,0.87354,-0.37957,-0.14239,-0.01456,0.27055
0.30352,0.85894,-0.41241,-0.13906,-0.1201,0.44911
0.30348,0.84488,-0.44052,-0.30019,-0.22293,0.33835
0.29585,0.83161,-0.46999,-0.33796,-0.21181,0.33608
0.28205,0.81985,-0.49829,-0.20697,-0.28068,0.3575
0.26844,0.81102,-0.51978,-0.09719,-0.45433,0.38433
0.25637,0.80599,-0.53352,-0.15697,-0.49885,0.38444
0.24891,0.80512,-0.53835,-0.15074,-0.46034,0.38831
0.24894,0.80829,-0.53356,-0.11665,-0.42168,0.34247
0.25592,0.81485,-0.52011,-0.13211,-0.38112,0.22966
0.26895,0.82345,-0.49958,-0.1244,-0.29469,0.12077
0.28397,0.83326,-0.47437,-0.09195,-0.25138,-0.0074
0.29963,0.84415,-0.44456,-0.08299,-0.25891,-0.07754
0.31647,0.85605,-0.40867,-0.06567,-0.25864,-0.17573
0.33139,0.86883,-0.36783,0.0697,-0.07013,-0.62548
0.34535,0.8789,-0.32901,0.37259,0.15676,-0.96741
0.36271,0.8825,-0.29937,0.59032,0.31017,-0.90583
0.37463,0.88265,-0.28382,0.16997,0.24375,-0.7214
0.38123,0.88162,-0.27821,-0.22532,0.18482,-0.50231
0.3842,0.88335,-0.26847,-0.39514,0.41597,-0.18205
0.38784,0.88884,-0.24399,-0.64025,0.65788,-0.04216
0.38949,0.89306,-0.22521,-0.60232,1.4562,-0.35326
0.39361,0.88274,-0.25657,-0.70191,0.11839,0.44645
0.40402,0.87623,-0.26265,-0.78854,-0.95888,0.85037
0.40668,0.88093,-0.24202,-0.67012,-0.56614,0.25264
0.40191,0.8945,-0.19576,-0.15569,0.04024,0.69769
0.39018,0.90799,-0.15266,-0.24866,0.16301,0.73005
0.3785,0.91718,-0.12449,-0.1344,0.48509,0.51245
0.37851,0.92064,-0.09562,0.23943,0.33418,-0.02863
0.38496,0.92103,-0.05908,0.25394,0.21471,-0.18136
0.38849,0.92104,-0.02712,-0.00033,0.13947,-0.01443
0.39379,0.91919,-0.00119,-0.17948,0.02904,0.1594
0.4012,0.9156,0.02658,-0.20821,-0.00986,0.18556
0.40559,0.9123,0.05645,-0.18605,0.01275,0.11351
0.40454,0.91048,0.08573,-0.08635,0.02822,-0.01049
0.4007,0.90927,0.11249,-0.043,0.02099,-0.05011
0.39632,0.90817,0.13464,0.02458,0.0484,-0.04906
0.38811,0.90873,0.15348,0.03792,0.03438,-0.06396
0.37743,0.90993,0.17192,0.05036,-0.00539,-0.07554
0.36793,0.9105,0.18868,0.1383,-0.06177,-0.15263
0.36073,0.91002,0.20422,0.20252,-0.04425,-0.233
0.35528,0.90954,0.21563,0.20109,-0.03216,-0.27726
0.3497,0.9103,0.22144,0.12558,-0.01246,-0.30457
0.34473,0.9115,0.22431,0.08582,-0.00583,-0.29952
0.33984,0.9127,0.22684,0.086,-0.024,-0.27751
0.33315,0.91383,0.23218,0.08331,-0.04464,-0.22565
0.32509,0.91489,0.23932,0.08906,-0.06912,-0.27925
0.31748,0.91587,0.24568,0.04095,-0.04873,-0.29384
0.31018,0.91684,0.25133,0.10101,0.02616,-0.29096
0.30311,0.91794,0.2559,0.17296,0.07541,-0.24991
0.30028,0.91947,0.25373,0.14447,0.05578,-0.24527
0.29764,0.9216,0.24906,0.21017,0.03614,-0.20799
0.29503,0.92462,0.24085,0.3076,0.06497,-0.16088
0.29441,0.92571,0.2374,0.35437,0.10998,-0.39124
0.29357,0.9257,0.23849,0.06086,0.1544,-0.60487
0.2951,0.9264,0.23381,-0.05302,0.27701,-0.53496
0.29409,0.93048,0.21837,0.02246,0.26329,-0.25208
0.29793,0.93554,0.1897,0.26724,0.28541,-0.18272
0.30836,0.93917,0.15117,0.20911,0.2824,0.034
0.32247,0.94106,0.10202,-0.11387,0.47977,-0.16107
0.3329,0.94178,0.04697,-0.53661,0.49482,-0.53824
0.33256,0.94301,-0.01107,-0.58312,0.62862,0.01736
0.32907,0.94198,-0.06604,-0.70763,0.6644,-0.02815
0.32715,0.93615,-0.12873,-0.58499,0.46187,0.36114
0.32481,0.92382,-0.20258,0.00126,0.3596,0.16393
0.32311,0.90284,-0.28367,0.54353,0.27206,0.09105
0.33,0.87448,-0.3555,0.52018,0.19799,0.06127
0.33076,0.84303,-0.42413,0.16561,0.05763,0.04723
0.30901,0.81215,-0.49489,-0.23276,-0.13811,0.15617
0.27268,0.78274,-0.55942,-0.3296,-0.16476,0.18894
0.22968,0.75496,-0.61423,-0.17292,-0.30693,0.189
0.18576,0.72859,-0.65927,-0.02899,-0.18394,0.16066
0.14634,0.70243,-0.69654,-0.02241,-0.30231,0.1819
0.11087,0.67991,-0.72486,-0.11405,-0.38754,0.2307
0.0803,0.66133,-0.74578,-0.14484,-0.33804,0.32246
0.05537,0.64616,-0.76119,-0.14384,-0.32625,0.33153
0.0368,0.63473,-0.77186,-0.16678,-0.3534,0.32323
0.02363,0.62685,-0.77878,-0.24389,-0.32962,0.27895
0.0168,0.62205,-0.7828,-0.25273,-0.37891,0.23069
0.01968,0.62119,-0.78341,-0.17208,-0.35406,0.12569
0.03184,0.62366,-0.78104,-0.16517,-0.30713,-0.05497
0.04336,0.62809,-0.77693,-0.08339,-0.24792,-0.08127
0.05205,0.63476,-0.77095,-0.04861,-0.30157,-0.12262
0.06255,0.64458,-0.76197,-0.10951,-0.34509,-0.19089
0.08021,0.65859,-0.74821,-0.21875,-0.35013,-0.35548
0.10325,0.6781,-0.72768,-0.30887,0.46086,-0.93402
0.1174,0.69306,-0.71125,-0.14182,1.22685,-1.19555
0.10934,0.69893,-0.70678,0.22838,0.11583,-0.01914
0.11974,0.71241,-0.69147,-0.66123,-0.32169,0.65944
0.14245,0.73776,-0.65985,-0.47354,-0.2485,0.51383
0.16374,0.76281,-0.62554,0.34257,0.59577,0.53164
0.2076,0.78544,-0.58307,0.11288,0.90166,0.07085
0.24659,0.80322,-0.54224,0.03619,0.64665,0.09848
0.27837,0.81908,-0.5016,-0.06246,-0.00892,0.25759
0.31313,0.83445,-0.45346,-0.05309,-0.04227,0.3081
0.34484,0.84943,-0.39943,-0.09406,-0.03024,0.28563
0.36536,0.86326,-0.34826,-0.00402,-0.08993,0.13671
0.37416,0.87692,-0.30167,0.10966,-0.05032,0.04383
0.37334,0.89182,-0.25545,0.11166,-0.03858,0.03595
0.36064,0.9084,-0.21148,0.06878,-0.11205,0.13615
0.33469,0.92661,-0.17136,0.08508,-0.0565,0.12408
0.3071,0.94184,-0.13644,0.13188,0.05188,0.00846
0.29052,0.95067,-0.10866,0.37582,0.02859,-0.13229
0.27834,0.95725,-0.07867,0.45558,-0.09745,-0.15155
0.27691,0.9597,-0.04778,0.38869,-0.20871,0.06046
0.29045,0.95674,-0.01622,0.09574,-0.10907,0.07957
0.30627,0.95166,0.02291,-0.3899,-0.02737,-0.42292
0.31419,0.94811,0.04845,-0.43025,-0.09313,-0.14411
0.31088,0.94787,0.06986,-0.28439,-0.17735,-0.0997
0.30754,0.9474,0.0885,0.0841,-0.00044,-0.17577
0.30215,0.94738,0.10564,0.12708,0.05418,-0.11548
0.29659,0.94741,0.12011,0.16677,0.01609,-0.14613
0.29163,0.94714,0.13364,0.12302,-0.03164,-0.152
0.2869,0.94677,0.1459,0.11362,-0.03216,-0.16499
0.2808,0.9468,0.15717,0.14921,-0.09092,-0.13538
0.27526,0.9465,0.16835,0.10276,-0.08121,-0.09448
0.27265,0.9461,0.17471,0.10426,-0.10855,-0.15614
0.26979,0.94612,0.17904,0.11351,-0.02795,-0.1524
0.2672,0.9462,0.18242,0.11773,-0.04995,-0.11327
0.2634,0.94658,0.18594,0.13841,-0.02512,-0.07727
0.25775,0.94709,0.19121,0.14583,0.00649,-0.09394
0.25627,0.94765,0.19044,0.1819,0.05716,-0.10224
0.25174,0.94818,0.19382,0.21173,0.41028,-0.07347
0.24426,0.94842,0.20203,0.23728,0.44817,-0.06424
0.23973,0.9486,0.20654,0.11722,0.2885,0.08752
0.23584,0.94918,0.20835,0.01797,0.28503,0.02909
0.23602,0.94913,0.20839,0.44158,0.80345,0.01365
0.23367,0.95041,0.20518,0.11102,0.72021,-0.30444
0.22555,0.9538,0.19844,0.0598,0.6089,-0.29811
0.22045,0.95964,0.17454,0.11329,0.41086,-0.38402
0.22342,0.96635,0.12741,0.14958,0.22672,-0.28702
0.23105,0.97055,0.06804,0.13651,0.23706,-0.18684
0.2371,0.97143,0.00902,0.05068,0.23964,0.02855
0.23998,0.96935,-0.05243,-0.15567,0.43733,0.00737
0.23833,0.96367,-0.1205,-0.33757,0.52845,-0.06645
0.2337,0.95444,-0.18551,-0.37897,0.42822,0.0286
0.23223,0.94305,-0.23816,-0.32493,0.22277,0.43023
0.23985,0.92615,-0.29104,-0.24801,0.10321,0.25561
0.24493,0.9043,-0.34962,-0.18339,0.04574,0.24342
0.24947,0.87734,-0.4099,0.11423,-0.03521,0.1156
0.24916,0.8475,-0.46867,0.15144,-0.05845,0.2958
0.24406,0.81902,-0.51926,0.01824,-0.32908,0.46001
0.23713,0.79084,-0.56421,-0.25335,-0.27535,0.526
0.21105,0.7607,-0.61383,-0.20963,-0.25394,0.49504
0.17302,0.73147,-0.65955,-0.15573,-0.4109,0.46312
0.13087,0.70476,-0.69726,-0.17203,-0.30677,0.36485
0.09176,0.68051,-0.72696,-0.19677,-0.32184,0.27054
0.06101,0.66007,-0.74872,-0.17271,-0.31125,0.31745
0.03826,0.6462,-0.7622,-0.09769,-0.28678,0.30763
0.02679,0.63938,-0.76842,-0.10138,-0.22874,0.23502
0.02331,0.63987,-0.76813,-0.17431,-0.21218,0.2223
0.0248,0.64663,-0.7624,-0.21727,-0.27523,0.18852
0.03261,0.65831,-0.75204,-0.22941,-0.30382,0.1551
0.04627,0.67191,-0.73918,-0.16755,-0.25776,0.07186
0.06244,0.68686,-0.72409,0.03602,-0.21252,-0.15103
0.08103,0.70472,-0.70484,0.19551,-0.19344,-0.46639
0.10569,0.72129,-0.68452,0.24562,0.34936,-0.90148
0.1277,0.72744,-0.67418,0.20204,0.88728,-1.08886
0.13287,0.73814,-0.66143,-0.54662,-0.07717,-0.12252
0.14028,0.75882,-0.636,-0.46308,-0.13907,-0.19095
0.14232,0.78034,-0.60894,-0.14606,-0.00943,0.26565
0.16617,0.80125,-0.57479,-0.03435,0.65796,0.06726
0.1865,0.81968,-0.54161,-0.21807,0.49043,0.17326
0.2044,0.83733,-0.50703,-0.03976,0.03265,0.34262
0.22881,0.85533,-0.46481,0.02697,0.00508,0.30013
0.25675,0.87372,-0.41315,0.00471,0.08435,0.36279
0.27928,0.89256,-0.35401,-0.03246,0.06668,0.32629
0.29275,0.90895,-0.29681,0.10113,-0.04623,0.26119
0.29429,0.92225,-0.25066,0.22538,-0.11138,0.23994
0.28232,0.93517,-0.21388,0.30479,-0.03952,0.10979
0.26359,0.94822,-0.17714,0.33715,0.00461,0.01211
0.25008,0.95762,-0.14285,0.26802,0.1103,-0.18575
0.2404,0.96429,-0.11106,0.29,-0.28804,-0.09765
0.23912,0.96758,-0.08121,0.38825,-0.30636,-0.07607
0.24421,0.96843,-0.04995,0.32454,-0.36822,0.1064
0.25664,0.9664,-0.01398,-0.16849,-0.22508,-0.00176
0.27319,0.96157,0.02692,-0.31249,-0.12602,-0.23995
0.2828,0.9572,0.06148,-0.52851,0.02001,-0.24353
0.28428,0.9547,0.08777,-0.1579,0.01676,-0.17613
0.28169,0.95351,0.10701,-0.00592,0.00525,-0.16462
0.27587,0.95311,0.12432,0.17475,-0.02428,-0.15288
0.27099,0.95251,0.13879,0.19575,0.01659,0.01145
0.26505,0.95284,0.1477,0.21879,0.04295,-0.09465
0.26063,0.95196,0.16068,0.24369,-0.02551,-0.21155
0.26134,0.94922,0.17508,0.23974,0.01217,-0.22775
0.26045,0.94761,0.18485,0.12984,0.05399,-0.21109
0.25862,0.94718,0.18958,0.16244,0.042,-0.13395
0.25427,0.94747,0.19399,0.16378,0.11169,-0.04916
0.24714,0.94842,0.19851,0.0866,0.33071,-0.04047
0.23838,0.94992,0.20201,0.11515,0.48496,-0.03605
0.22974,0.95177,0.20328,0.40147,0.60052,0.11858
0.22228,0.95388,0.20169,0.22351,0.53895,0.11424
0.22082,0.95473,0.19924,0.04908,0.50301,-0.07007
0.22354,0.9562,0.18893,-0.07664,0.36364,-0.30421
0.22318,0.96022,0.16774,0.0146,0.39228,-0.31836
0.22014,0.96656,0.13144,0.11329,0.35078,-0.31831
0.22116,0.97193,0.08013,0.12955,0.30192,-0.32844
0.22652,0.97386,0.01604,0.16057,0.33233,-0.18632
0.23019,0.97151,-0.0563,0.15197,0.39783,0.09282
0.23172,0.96427,-0.12838,-0.02793,0.46294,0.21801
0.23026,0.95423,-0.19081,-0.16391,0.37422,0.0802
0.22928,0.94115,-0.24831,-0.29286,0.22131,0.34201
0.22991,0.92446,-0.30414,-0.27863,0.09595,0.21489
0.2307,0.90316,-0.36204,-0.04915,0.04621,0.2276
0.23618,0.87676,-0.41893,0.11926,0.04934,0.28919
0.23574,0.84715,-0.47618,-0.00562,-0.17641,0.42282
0.22572,0.81417,-0.53495,-0.15519,-0.34238,0.37336
0.20988,0.78169,-0.58729,-0.07155,-0.31936,0.44013
0.18015,0.75102,-0.63523,0.03404,-0.23797,0.55988
0.13505,0.72008,-0.68062,-0.12611,-0.30783,0.50287
0.08344,0.69017,-0.71882,-0.22027,-0.30163,0.40107
0.03776,0.6627,-0.74793,-0.23811,-0.32992,0.32334
0.00264,0.63966,-0.76865,-0.21347,-0.2543,0.37262
-0.01872,0.62281,-0.78215,-0.10732,-0.25582,0.36346
-0.02722,0.61329,-0.78938,-0.10752,-0.27585,0.29675
-0.02614,0.61249,-0.79004,-0.13832,-0.25004,0.2762
-0.01937,0.61889,-0.78523,-0.14025,-0.24629,0.24399
-0.00742,0.63063,-0.77605,-0.14506,-0.34854,0.12869
0.01302,0.64689,-0.76247,-0.1252,-0.35461,0.04071
0.03828,0.66687,-0.74419,-0.03361,-0.33291,-0.16614
0.0618,0.69109,-0.72012,0.19745,-0.27486,-0.50298
0.08337,0.71755,-0.69149,0.20668,-0.14356,-0.51653
0.10842,0.73518,-0.66914,0.41081,1.70032,-1.39159
0.11196,0.74016,-0.66304,-0.08791,0.25748,0.54347
0.11806,0.75467,-0.64538,-0.74728,-0.64824,-0.2065
0.12516,0.77509,-0.61932,-0.33213,-0.40236,0.03999
0.15303,0.79472,-0.58737,0.03024,0.66344,0.07174
0.18243,0.81649,-0.54777,-0.17976,0.80801,-0.14647
0.20024,0.83398,-0.51418,-0.01901,0.02607,0.46385
0.21889,0.85229,-0.47506,0.14018,-0.06439,0.30158
0.24208,0.87143,-0.4266,0.11511,0.01087,0.32328
0.26148,0.8904,-0.37256,0.1177,0.0558,0.25901
0.27261,0.90619,-0.32326,0.18856,0.01127,0.17166
0.26644,0.92174,-0.28176,0.34547,-0.04967,0.02717
0.24601,0.93901,-0.24026,0.01588,-0.0802,0.23231
0.23882,0.94998,-0.20123,0.24627,0.16356,-0.07136
0.23166,0.95903,-0.163,0.31319,-0.03492,-0.05661
0.22558,0.96563,-0.12908,0.30665,-0.26953,-0.04719
0.22969,0.96871,-0.09393,0.26068,-0.34829,0.08926
0.24834,0.96723,-0.05264,-0.14633,-0.23512,-0.01592
0.27081,0.96258,-0.00908,-0.3415,-0.19311,-0.18144
0.28702,0.95737,0.03219,-0.58502,-0.08077,-0.30352
0.29141,0.9546,0.06163,-0.26162,-0.03445,-0.2736
0.29059,0.95328,0.08236,0.0708,0.03912,-0.22162
0.2854,0.95315,0.10012,0.17691,-0.06213,-0.16887
0.28026,0.95296,0.11528,0.13551,-0.09429,-0.07808
0.27474,0.95321,0.12599,0.20542,-0.04263,-0.06804
0.27094,0.95304,0.13518,0.21101,-0.00863,-0.09008
0.26888,0.95194,0.14657,0.22707,0.0272,-0.13985
0.26682,0.9506,0.15854,0.2266,-0.01779,-0.22049
0.26614,0.94898,0.16908,0.1736,0.03427,-0.21207
0.26555,0.94757,0.17767,0.03134,0.18025,-0.13144
0.2614,0.94768,0.18316,-0.034,0.22237,-0.07789
0.25404,0.94929,0.18517,0.01988,0.44591,0.07879
0.24388,0.9516,0.18693,0.26351,0.57631,0.10503
0.2351,0.95388,0.18658,0.46855,0.56766,0.21918
0.23105,0.9554,0.18384,0.21685,0.56715,-0.04538
0.23223,0.95659,0.176,-0.04802,0.33392,-0.31631
0.23374,0.95954,0.15693,-0.07508,0.31237,-0.33849
0.23332,0.96453,0.12339,-0.02963,0.33767,-0.33378
0.23475,0.96954,0.06975,-0.00506,0.27431,-0.26346
0.2382,0.9712,-0.00056,0.02927,0.34166,-0.07108
0.24084,0.96728,-0.07962,0.12182,0.50608,0.07343
0.24435,0.95671,-0.15807,0.03072,0.48945,0.10842
0.24344,0.94329,-0.22567,-0.08295,0.32373,0.15757
0.24571,0.92756,-0.28151,-0.05368,0.21716,0.39169
0.25032,0.90898,-0.3333,-0.01254,0.03569,0.27976
0.26121,0.88482,-0.38582,-0.00106,-0.00132,0.09951
0.27275,0.8583,-0.43464,-0.00287,-0.06027,0.22314
0.27662,0.83015,-0.48407,-0.05171,-0.18794,0.38263
0.27135,0.79945,-0.53595,-0.18903,-0.30148,0.56677
0.25472,0.76825,-0.58729,-0.2057,-0.36705,0.50417
0.2341,0.73815,-0.63271,-0.17511,-0.3229,0.44741
0.20154,0.7111,-0.67358,-0.11243,-0.35114,0.40005
0.15883,0.6852,-0.71082,-0.15128,-0.30296,0.38352
0.11714,0.6621,-0.7402,-0.22752,-0.32563,0.39285
0.0846,0.64396,-0.76036,-0.2374,-0.29057,0.34601
0.06374,0.631,-0.77315,-0.1422,-0.23431,0.31533
0.05158,0.62406,-0.77967,-0.09036,-0.23629,0.31408
0.04844,0.62395,-0.77996,-0.12327,-0.26816,0.23187
0.05338,0.63098,-0.77396,-0.17602,-0.24884,0.13882
0.06463,0.64289,-0.76323,-0.16125,-0.31397,0.11214
0.08177,0.6582,-0.74839,-0.081,-0.31488,-0.03259
0.10236,0.67722,-0.72862,0.03732,-0.28812,-0.2007
0.12365,0.70031,-0.70305,0.14194,-0.21934,-0.36151
0.14965,0.72232,-0.67517,0.16334,0.45453,-0.52054
0.17598,0.73528,-0.65451,0.15997,0.98638,-0.9702
0.18706,0.74484,-0.64048,0.06273,0.5451,0.22115
0.19825,0.76265,-0.61567,-0.61438,-0.29865,-0.20594
0.20473,0.78289,-0.5875,-0.31378,-0.23595,0.10186
0.22238,0.80627,-0.54815,-0.06978,0.5604,0.08089
0.24507,0.82861,-0.50332,-0.17464,0.48065,0.09308
0.26227,0.84765,-0.46118,-0.15515,0.09197,0.36469
0.27797,0.8658,-0.41607,-0.02347,-0.03836,0.37255
0.2923,0.88318,-0.36681,0.04945,-0.07324,0.37859
0.29955,0.89924,-0.31878,0.21738,-0.05638,0.28482
0.29939,0.9134,-0.27578,0.25184,-0.01684,0.18835
0.29036,0.92812,-0.23298,0.26071,0.0424,0.08922
0.27793,0.94102,-0.19294,0.32277,0.14533,-0.06162
0.27011,0.94973,-0.15824,0.22201,0.0577,-0.08597
0.26262,0.95678,-0.12483,0.18404,-0.20629,-0.11449
0.25978,0.96113,-0.09343,0.24413,-0.28988,-0.03107
0.26749,0.96167,-0.06024,0.11178,-0.33029,0.15407
0.2814,0.95927,-0.02443,-0.09013,-0.18025,-0.0788
0.29363,0.95585,0.01096,-0.53908,-0.06431,-0.26616
0.29815,0.95373,0.03859,-0.47176,-0.02354,-0.32944
0.29507,0.95367,0.05855,0.02138,-0.00093,-0.19026
0.29016,0.95397,0.07566,0.29636,-0.06886,-0.067
0.28587,0.95382,0.0921,0.21079,-0.12081,-0.09518
0.28148,0.9537,0.10582,0.11563,-0.04599,-0.11807
0.27731,0.95359,0.11722,0.23084,0.00535,-0.17056
0.27316,0.95349,0.12733,0.24248,-0.058,-0.1687
0.26904,0.95324,0.13759,0.16483,-0.00298,-0.14368
0.26649,0.9527,0.14602,0.12416,-0.01055,-0.15407
0.26411,0.95229,0.15286,0.09614,-0.01615,-0.10664
0.26382,0.95234,0.15307,-0.07463,0.29383,0.07718
0.25611,0.95363,0.15807,-0.01132,0.57053,0.0453
0.24868,0.95557,0.1582,0.17451,0.64758,0.05308
0.24119,0.95807,0.15462,0.22281,0.65065,0.14666
0.23599,0.95959,0.15321,-0.04021,0.56517,-0.05465
0.23471,0.96083,0.14732,-0.03636,0.37423,-0.23112
0.23086,0.96443,0.12869,0.01713,0.38217,-0.32236
0.22883,0.96871,0.09596,0.05433,0.36216,-0.2861
0.23103,0.97178,0.04748,0.07489,0.29836,-0.30311
0.23421,0.97208,-0.01371,0.03439,0.35714,-0.16645
0.23611,0.968,-0.08493,0.04881,0.51209,0.04358
0.23625,0.95864,-0.15868,-0.14991,0.45229,0.00356
0.23528,0.94581,-0.22377,-0.18566,0.32442,0.0912
0.23624,0.93019,-0.28092,-0.13627,0.24443,0.2279
0.23811,0.91177,-0.33461,0.02977,0.13073,0.29431
0.2441,0.88802,-0.38964,0.1902,-0.0032,0.30925
0.25578,0.86179,-0.43804,0.06624,-0.0639,0.37832
0.25678,0.83374,-0.48881,-0.23933,-0.35022,0.38331
0.23853,0.80224,-0.54727,-0.23432,-0.33358,0.4196
0.2078,0.77002,-0.60322,-0.09087,-0.34591,0.44154
0.17065,0.73697,-0.65402,-0.05625,-0.36747,0.4243
0.12658,0.70567,-0.69714,-0.01218,-0.33617,0.46741
0.08149,0.67582,-0.73255,-0.14757,-0.28843,0.42722
0.04289,0.65052,-0.75828,-0.18625,-0.30781,0.35436
0.01277,0.63018,-0.77634,-0.14276,-0.26737,0.34217
-0.00588,0.61607,-0.78767,-0.12492,-0.24342,0.33582
-0.01344,0.60974,-0.79248,-0.16114,-0.28655,0.31162
-0.01254,0.61045,-0.79195,-0.15037,-0.2283,0.26444
-0.00552,0.61686,-0.78705,-0.17054,-0.24465,0.20916
0.00671,0.62824,-0.77799,-0.14645,-0.28356,0.0915
0.02334,0.64287,-0.76562,-0.10957,-0.22453,-0.04297
0.04071,0.66031,-0.74989,0.01043,-0.12779,-0.20553
0.0603,0.68156,-0.72927,0.09058,-0.07722,-0.51933
0.08505,0.70273,-0.70635,0.12076,0.17381,-0.67843
0.10988,0.71631,-0.68907,0.25432,0.81075,-0.34334
0.11473,0.7345,-0.66884,0.15879,0.60442,0.22249
0.1256,0.75796,-0.64009,-0.73569,-0.02414,-0.02749
0.1323,0.7792,-0.61264,-0.04776,-0.01379,0.61794
0.1502,0.80065,-0.57999,-0.07882,0.11114,0.28953
0.17193,0.8212,-0.54411,-0.15493,0.33694,0.19722
0.19659,0.84086,-0.50428,0.13787,0.17394,0.42619
0.22813,0.86069,-0.45514,0.19809,0.18751,0.45159
0.26472,0.8793,-0.3959,0.08422,0.15248,0.41574
0.29547,0.89478,-0.33473,0.00237,-0.08064,0.2759
0.31289,0.90737,-0.28067,0.09069,-0.20761,0.22032
0.31694,0.9179,-0.23872,0.26273,-0.09802,0.1089
0.30261,0.93051,-0.20631,0.133,0.07198,0.08168
0.28273,0.94373,-0.17156,0.20795,0.17169,0.00112
0.26477,0.95402,-0.14047,0.27935,0.04285,-0.09514
0.25184,0.96112,-0.11321,0.35627,-0.2761,-0.00032
0.24998,0.96447,-0.08544,0.33494,-0.33608,0.15193
0.25791,0.96485,-0.05037,0.07609,-0.2956,0.22333
0.27719,0.96079,-0.00477,-0.2381,-0.0765,-0.19908
0.29281,0.95551,0.03542,-0.46909,0.01399,-0.30553
0.29963,0.95195,0.06315,-0.29371,-0.01294,-0.2556
0.29859,0.95061,0.08466,0.08875,-0.00468,-0.16211
0.29472,0.95004,0.10265,0.25562,-0.04503,-0.13033
0.28999,0.94954,0.11945,0.22861,-0.12387,-0.10924
0.28608,0.94889,0.13326,0.20155,-0.0821,-0.13623
0.2841,0.94809,0.1428,0.22719,-0.01378,-0.1311
0.28231,0.94773,0.14862,0.21546,-0.02307,-0.1365
0.27868,0.94793,0.15411,0.1749,-0.01049,-0.178
0.27731,0.94783,0.15715,0.04996,0.0738,-0.17998
0.27346,0.94798,0.16287,0.05381,0.07365,-0.1857
0.27041,0.9486,0.16437,-0.01235,0.28845,-0.07004
0.2618,0.95054,0.1671,0.35949,0.66719,-0.06639
0.2525,0.95404,0.16133,0.45534,0.74978,0.13545
0.2525,0.95561,0.15174,0.46097,0.67,0.19613
0.25569,0.95731,0.13478,0.22102,0.52498,-0.12112
0.2559,0.96069,0.10752,0.03217,0.39888,-0.4125
0.25549,0.96441,0.06797,0.18278,0.3673,-0.33397
0.2548,0.9669,0.01294,0.28806,0.4285,-0.24222
0.25217,0.9662,-0.0533,0.31202,0.48973,-0.03304
0.24939,0.96107,-0.1189,0.17143,0.49106,0.14356
0.2441,0.95406,-0.17368,0.0144,0.28498,0.37363
0.24233,0.94464,-0.22118,-0.05211,0.25187,0.41327
0.24657,0.93227,-0.2647,-0.23982,0.0773,0.03947
0.24027,0.91734,-0.3174,-0.20708,0.03659,0.09575
0.22432,0.89971,-0.37442,0.25369,-0.01317,0.16398
0.21576,0.87677,-0.42977,0.10992,-0.21283,0.3044
0.20637,0.85285,-0.47964,-0.00941,-0.22553,0.4504
0.18629,0.82964,-0.52629,-0.12039,-0.34661,0.56004
0.15794,0.80776,-0.56795,-0.2002,-0.20101,0.44834
0.11724,0.78556,-0.60758,-0.176,-0.15225,0.48856
0.07345,0.7621,-0.64328,0.18644,-0.19981,0.44827
0.02342,0.73917,-0.67311,0.18754,-0.17399,0.4714
-0.03248,0.71486,-0.69851,0.08108,-0.11557,0.4504
-0.08677,0.69252,-0.71615,-0.17566,-0.07698,0.45051
-0.1361,0.67246,-0.72751,-0.11944,-0.11801,0.39582
-0.1747,0.65622,-0.73406,-0.04594,-0.17629,0.38035
-0.20548,0.64548,-0.73562,-0.01516,-0.16554,0.3819
-0.22907,0.64105,-0.73251,-0.23692,-0.00433,0.28195
-0.24588,0.64042,-0.7276,-0.19832,-0.01053,0.21779
-0.2549,0.64302,-0.72218,-0.09949,-0.14575,0.19806
-0.25756,0.64906,-0.71581,-0.05578,-0.23454,0.10833
-0.25274,0.65758,-0.70972,-0.07215,-0.23343,0.0387
-0.24489,0.66612,-0.70449,-0.09894,-0.1691,0.09889
-0.23638,0.67401,-0.69988,-0.03351,-0.18363,0.08608
-0.22418,0.68288,-0.69528,-0.08695,-0.19714,-0.09932
-0.20874,0.69434,-0.6887,-0.15696,-0.24146,-0.1295
-0.18967,0.70749,-0.68079,-0.52929,0.3555,-1.08262
-0.18657,0.70575,-0.68344,0.16509,1.00988,-0.08842
-0.20264,0.71283,-0.67142,0.2293,0.42517,0.10681
-0.19912,0.72258,-0.66199,-0.47788,-0.31857,0.21614
-0.19213,0.74153,-0.64282,-0.22354,0.27434,-0.04961
-0.16247,0.76135,-0.62764,-0.08478,0.49229,0.12252
-0.13032,0.77736,-0.6154,0.26192,0.35147,-0.01134
-0.09181,0.79312,-0.6021,0.08303,0.26131,0.148
-0.05187,0.80945,-0.58489,-0.05171,0.05071,0.18555
-0.00341,0.82531,-0.56466,0.01522,0.01067,0.22634
0.05576,0.84062,-0.53873,0.03848,0.04037,0.25272
0.11484,0.85779,-0.501,0.00817,0.06225,0.29993
0.16623,0.87597,-0.45281,0.00468,-0.01051,0.25626
0.20961,0.8924,-0.3996,0.01629,0.07693,0.18685
0.24409,0.90605,-0.34564,0.02886,0.02551,0.17723
0.2668,0.91758,-0.29472,0.05088,-0.05866,0.20919
0.2781,0.92824,-0.24702,0.07443,-0.05946,0.21542
0.27649,0.93894,-0.20479,0.15582,-0.02049,0.16562
0.26926,0.94761,-0.17181,0.15051,0.03141,0.17765
0.26065,0.9545,-0.1448,0.13553,-0.05459,0.09744
0.2557,0.95975,-0.11613,0.12623,-0.07898,0.02397
0.25322,0.96354,-0.08635,0.12103,-0.06267,-0.1528
0.25229,0.96584,-0.05908,0.12329,-0.07872,-0.14354
0.25452,0.96643,-0.03474,0.12542,-0.08118,0.1667
0.25936,0.96574,-0.00735,0.01957,-0.13254,0.08148
0.26354,0.96434,0.02415,0.00091,-0.13253,-0.10301
0.26491,0.96275,0.05402,-0.02321,-0.07746,-0.23482
0.26222,0.9619,0.07725,-0.04556,-0.04392,-0.1695
0.25485,0.96218,0.09614,-0.02508,-0.05451,-0.15098
0.2448,0.96305,0.11224,0.10646,-0.05795,-0.23909
0.23417,0.96375,0.12776,0.2745,-0.08137,-0.24283
0.22595,0.96407,0.13964,0.33867,-0.04051,-0.12882
0.21893,0.96503,0.14408,0.327,-0.07208,-0.15839
0.21371,0.9665,0.14207,0.38513,-0.1201,-0.15658
0.2101,0.96882,0.13126,0.54629,-0.11715,-0.07261
0.20793,0.97091,0.11862,0.45144,-0.07037,-0.00189
0.21439,0.97117,0.10413,0.22291,0.26914,0.00516
0.23183,0.96895,0.08587,0.11761,0.72978,-0.19583
0.25245,0.9655,0.06379,-0.45845,0.64126,-0.53492
0.27146,0.96205,0.02756,-0.56247,0.52536,-0.18505
0.28586,0.95779,-0.03005,-0.64786,0.69702,0.15957
0.29279,0.95193,-0.0899,-0.70675,0.7874,0.33093
0.29193,0.94689,-0.13479,-0.70171,0.49716,-0.02749
0.29003,0.9412,-0.17321,-0.72575,0.25759,0.15833
0.29081,0.93215,-0.21568,-0.45951,0.15916,0.24819
0.286,0.92148,-0.26279,-0.16868,-0.05091,0.35486
0.28024,0.91066,-0.30355,0.17206,-0.19196,0.32212
0.27725,0.90034,-0.33542,0.19443,-0.18309,0.28685
0.28259,0.88959,-0.35883,-0.03378,-0.19756,0.24337
0.28386,0.88141,-0.37752,-0.25717,-0.25623,0.29569
0.27687,0.87543,-0.39618,-0.23462,-0.27396,0.27784
0.26877,0.87097,-0.4113,-0.19183,-0.29005,0.23857
0.26398,0.86861,-0.41931,-0.08045,-0.23476,0.09898
0.26204,0.86864,-0.42047,-0.05873,-0.23732,0.05247
0.26369,0.86997,-0.41666,-0.05524,-0.21125,0.005
0.26933,0.87237,-0.40795,-0.07614,-0.20229,-0.13302
0.27882,0.87477,-0.39627,-0.11769,-0.20085,-0.1464
0.29218,0.87643,-0.38274,-0.15206,-0.20402,-0.13896
0.30668,0.87788,-0.36778,-0.15879,-0.18912,-0.11268
0.3196,0.87975,-0.35198,-0.13546,-0.18163,-0.12774
0.32871,0.88255,-0.33624,-0.10691,-0.08392,-0.20609
0.33248,0.88697,-0.3205,0.02669,0.08095,-0.36348
0.3313,0.89136,-0.30937,0.1246,0.13609,-0.53939
0.32898,0.89308,-0.30687,0.0619,0.07367,-0.68827
0.32827,0.89326,-0.30709,-0.11219,0.13641,-0.60027
0.32665,0.89505,-0.30359,-0.27077,0.41269,-0.41873
0.3202,0.89917,-0.29824,-0.07672,0.86538,-0.42042
0.31351,0.90184,-0.29729,0.13434,0.69447,-0.27345
0.31627,0.89683,-0.3093,0.12537,-0.10148,0.20562
0.3345,0.88724,-0.31765,-0.94724,-0.78978,0.51747
0.35341,0.88813,-0.29378,-0.93575,-0.40397,0.17177
0.35932,0.89447,-0.26608,-0.32743,0.36487,0.2482
0.36512,0.9007,-0.23539,0.05538,0.21952,0.79271
0.36708,0.90711,-0.20588,-0.15959,0.04685,0.61149
0.36772,0.91213,-0.18107,-0.35855,-0.04801,0.25798
0.36686,0.91814,-0.14972,-0.20312,0.20341,0.40037
0.37037,0.92204,-0.11248,-0.10135,0.24759,0.31312
0.37758,0.92288,-0.07559,-0.07983,0.13825,0.27858
0.37901,0.92444,-0.04168,-0.03456,0.13299,0.24714
0.37748,0.92593,-0.0121,0.02003,0.11681,0.19964
0.37755,0.92588,0.01328,0.21467,-0.00204,0.1459
0.37838,0.92475,0.04067,0.18386,-0.0284,0.07505
0.37622,0.92399,0.06844,0.12364,-0.03097,0.05642
0.3701,0.92417,0.09445,-0.04729,-0.02525,0.00232
0.36352,0.9244,0.11538,-5e-05,-0.01454,-0.05811
0.35732,0.92455,0.13232,0.03014,-0.01117,-0.08495
0.35136,0.92451,0.14767,0.14464,-0.05485,-0.18394
0.34768,0.92351,0.16193,0.18665,0.01751,-0.22398
0.34372,0.92282,0.17389,0.20552,0.0183,-0.23958
0.33693,0.92319,0.18489,0.23704,-0.01666,-0.2507
0.32935,0.92416,0.19348,0.25446,-0.06224,-0.22906
0.32302,0.92497,0.20018,0.22621,-0.09193,-0.22017
0.31793,0.92546,0.20594,0.14469,-0.07634,-0.23257
0.3143,0.92544,0.21156,0.10234,-0.05,-0.18427
0.31083,0.92508,0.21814,0.05821,-0.03915,-0.16278
0.30646,0.9244,0.22703,0.04344,-0.0241,-0.17082
0.30401,0.92325,0.23486,0.04932,0.02292,-0.22571
0.29837,0.92335,0.24161,0.08307,0.06875,-0.25032
0.29058,0.924,0.24851,0.12087,0.06484,-0.25149
0.28381,0.92545,0.25095,0.15154,0.05287,-0.28722
0.27835,0.9264,0.25354,0.19556,0.11886,-0.31906
0.27412,0.9268,0.25666,0.2327,0.18,-0.34501
0.26844,0.92677,0.26269,0.27579,0.17367,-0.41553
0.26316,0.92726,0.2663,0.10476,0.17392,-0.56792
0.26326,0.9285,0.26184,0.11159,0.26872,-0.32021
0.26448,0.93348,0.24218,0.37761,0.28245,-0.23166
0.27602,0.93982,0.20132,0.28265,0.28357,-0.07769
0.30218,0.94193,0.14641,-0.10458,0.3101,-0.14319
0.32793,0.94121,0.08104,-0.43978,0.57474,-0.27229
0.33798,0.94103,0.0145,-0.43155,0.67117,-0.00647
0.33684,0.94027,-0.04911,-0.28244,0.75776,0.18719
0.3396,0.93345,-0.11545,-0.19139,0.72959,0.02785
0.3379,0.92279,-0.18511,-0.26878,0.51981,0.35195
0.32102,0.90873,-0.26673,0.06869,0.45905,0.33681
0.30594,0.88425,-0.35284,0.48916,0.38118,0.11082
0.30826,0.84735,-0.4324,0.53888,0.3906,0.10272
0.30689,0.80547,-0.50698,0.39533,0.33858,0.2969
0.28703,0.76232,-0.58006,-0.00849,0.07725,0.57876
0.24961,0.72015,-0.64736,-0.17322,-0.15838,0.36063
0.20485,0.68253,-0.70156,-0.22203,-0.10729,0.40287
0.15462,0.64862,-0.74524,-0.06845,-0.021,0.44491
0.09508,0.61755,-0.78076,-0.00562,0.03303,0.39842
0.0464,0.58852,-0.80715,-0.05225,-0.02705,0.42651
0.00671,0.56674,-0.82387,-0.13998,-0.18846,0.49971
-0.02191,0.55145,-0.83392,-0.15319,-0.28234,0.56512
-0.0393,0.54372,-0.83834,-0.16691,-0.23905,0.51994
-0.04669,0.54432,-0.83758,-0.18558,-0.26163,0.45541
-0.04538,0.55184,-0.83271,-0.18698,-0.27511,0.41309
-0.03195,0.56473,-0.82465,-0.15946,-0.24347,0.20094
-0.01121,0.58138,-0.81355,-0.10543,-0.17783,0.10733
0.01213,0.60237,-0.79812,-0.10063,-0.16607,0.06553
0.03746,0.62614,-0.77881,-0.07087,-0.14164,-0.0637
0.06736,0.65172,-0.75545,-0.0953,-0.19308,-0.16178
0.10548,0.68032,-0.72529,-0.18905,-0.3019,0.31202
0.14782,0.71478,-0.68354,-0.49003,0.57747,-1.10624
0.16443,0.72652,-0.66717,1.78887,2.56092,-0.8584
0.17249,0.73671,-0.65383,-0.29435,-0.16666,1.24172
0.20093,0.75591,-0.62307,-1.29712,-0.77343,-0.70317
0.21981,0.76638,-0.60361,0.2296,0.04551,1.23953
0.26313,0.78613,-0.55925,0.21395,0.41642,-0.16347
0.30447,0.80177,-0.51424,-0.04367,0.81082,0.24397
0.33155,0.81962,-0.46722,-0.07892,0.24311,0.42162
0.35293,0.8358,-0.42055,0.10639,0.01065,0.33901
0.37417,0.84992,-0.37098,0.1103,0.04068,0.24946
0.38801,0.86343,-0.32238,0.08353,0.01261,0.21705
0.39376,0.87775,-0.27292,0.0073,-0.07314,0.18541
0.38361,0.89582,-0.22433,-0.0142,-0.13493,0.15533
0.36083,0.91515,-0.17965,0.05709,0.00353,-0.00913
0.33946,0.92953,-0.14396,0.24236,0.18993,-0.12449
0.32464,0.93825,-0.11954,0.40035,-0.02687,-0.04242
0.32009,0.94288,-0.0922,0.32631,-0.28878,0.14538
0.32956,0.94237,-0.05754,0.26075,-0.28286,0.15385
0.34702,0.93778,-0.01149,-0.19822,-0.14322,-0.28217
0.35829,0.93316,0.02877,-0.68745,-0.07615,-0.28997
0.35584,0.93302,0.05324,-0.31378,-0.16512,-0.15017
0.34984,0.93413,0.07064,0.04538,0.01115,-0.17315
0.342,0.93595,0.08379,0.10885,-0.04419,-0.1441
0.33532,0.9375,0.09288,0.08985,-0.02997,-0.11513
0.32843,0.9392,0.10005,0.11698,-0.00358,-0.10423
0.32293,0.94004,0.10968,0.27639,-0.0344,-0.08913
0.31821,0.94034,0.12038,0.26964,0.07029,-0.11911
0.31188,0.94093,0.13174,0.19325,0.16689,-0.23379
0.30562,0.94126,0.14351,0.19848,0.16369,-0.25691
0.29846,0.94186,0.15425,-0.13044,0.46699,-0.1149
0.28984,0.9436,0.15999,-0.15066,0.50167,-0.11591
0.28125,0.94643,0.15855,-0.05001,0.54685,-0.11732
0.27074,0.95082,0.15039,0.36346,0.67702,0.22849
0.26392,0.9544,0.13942,0.07836,0.5307,0.06825
0.26406,0.9578,0.1134,-0.09266,0.43519,-0.12735
0.26544,0.96129,0.07382,-0.02928,0.24504,-0.47599
0.26927,0.96279,0.02246,0.04645,0.13711,-0.37391
0.2732,0.96121,-0.03753,0.0573,0.18997,-0.24558
0.27552,0.95548,-0.10553,0.03971,0.47018,0.19648
0.2744,0.94556,-0.17494,-0.07896,0.43899,0.10572
0.27307,0.9319,-0.23871,-0.13855,0.26091,0.18718
0.27438,0.91576,-0.29339,-0.26716,0.21732,0.35422
0.27508,0.89744,-0.34484,-0.24133,0.06218,0.35724
0.28122,0.87294,-0.3986,-0.01256,0.06793,0.20304
0.28421,0.8453,-0.45241,0.01117,0.07146,0.24112
0.27803,0.81544,-0.50769,-0.06709,-0.12624,0.33034
0.26251,0.78537,-0.5606,-0.12678,-0.25656,0.40226
0.24139,0.75623,-0.60815,-0.08817,-0.21906,0.45806
0.21206,0.7275,-0.65251,-0.04347,-0.19294,0.49397
0.17068,0.70018,-0.69326,-0.17142,-0.34649,0.36741
0.12372,0.67669,-0.7258,-0.15577,-0.30689,0.40279
0.08055,0.65746,-0.74917,-0.17211,-0.23059,0.39169
0.04471,0.64167,-0.76567,-0.19534,-0.27561,0.37773
0.02072,0.63016,-0.77618,-0.17513,-0.25227,0.34189
0.01127,0.62547,-0.78016,-0.18357,-0.25537,0.30908
0.01377,0.62649,-0.7793,-0.1527,-0.1947,0.23189
0.02164,0.63125,-0.77527,-0.12775,-0.24656,0.20132
0.03402,0.63996,-0.76765,-0.14292,-0.29473,0.12814
0.05227,0.65173,-0.75664,-0.04264,-0.23829,-0.10217
0.07068,0.66641,-0.74222,-0.00186,-0.18831,-0.21107
0.08884,0.68432,-0.72374,0.04884,-0.19762,-0.32754
0.11417,0.70266,-0.7023,-0.00724,0.30525,-0.45906
0.13229,0.71618,-0.68526,0.04276,0.84426,-0.75456
0.13656,0.72933,-0.67039,0.18147,0.73501,-0.61208
0.14523,0.74651,-0.64933,-0.13083,0.11598,0.13049
0.16096,0.76734,-0.6207,-0.26914,0.09008,0.30417
0.18485,0.78761,-0.58779,-0.18025,0.29375,0.30388
0.21337,0.8083,-0.54874,-0.18299,0.45533,0.34242
0.24158,0.827,-0.50764,-0.10374,0.24818,0.37525
0.26705,0.84642,-0.46071,-0.08246,0.1507,0.37358
0.29024,0.86641,-0.40631,-0.01662,0.13164,0.4303
0.30788,0.8848,-0.34976,-0.02068,0.05002,0.38994
0.31157,0.90174,-0.29962,0.10005,-0.04732,0.28113
0.30467,0.9169,-0.25778,0.24977,-0.04469,0.14832
0.29332,0.9311,-0.2168,0.23927,0.01208,0.03233
0.28452,0.94185,-0.17875,0.23581,0.05241,-0.13296
0.27869,0.9496,-0.14342,0.18676,-0.13596,-0.07831
0.27446,0.95547,-0.10831,0.21603,-0.29293,-0.16522
0.27597,0.95801,-0.07769,0.29839,-0.35991,-0.00975
0.28565,0.95733,-0.04353,0.29966,-0.28463,0.10627
0.29963,0.95403,-0.00483,-0.27931,-0.12304,-0.30423
0.31228,0.94956,0.02831,-0.41802,0.0094,-0.33359
0.31595,0.94732,0.05244,-0.36205,-0.03726,-0.25979
0.31381,0.94672,0.07229,0.12804,0.03314,-0.13708
0.30995,0.94652,0.08951,0.15793,0.02821,-0.13341
0.30574,0.9464,0.10406,0.15658,0.01141,-0.15953
0.30231,0.94635,0.11409,0.12488,-0.00808,-0.14216
0.29904,0.94672,0.11952,0.13955,-0.03719,-0.0722
0.29669,0.94673,0.12513,0.16896,0.03217,-0.16453
0.29505,0.94608,0.13366,0.22363,0.01187,-0.26403
0.2951,0.94486,0.14191,0.16271,0.04407,-0.25096
0.29334,0.94455,0.14752,0.02038,0.11772,-0.18226
0.28825,0.94617,0.14719,-0.04415,0.26987,-0.02654
0.28126,0.94901,0.14227,0.01036,0.43436,0.0725
0.27313,0.95231,0.13593,0.29892,0.61486,0.09683
0.26556,0.95539,0.12916,0.47942,0.55244,0.17231
0.26208,0.9569,0.12504,0.20921,0.52642,0.13936
0.26184,0.95782,0.11833,-0.02443,0.38148,-0.13886
0.26156,0.95967,0.10299,-0.08993,0.26259,-0.24984
0.25977,0.96283,0.07383,0.01124,0.24455,-0.38028
0.25978,0.96532,0.0257,-0.02539,0.38933,-0.36872
0.26039,0.96481,-0.03631,-0.04167,0.46712,-0.23358
0.25992,0.95947,-0.10884,0.06001,0.50693,0.03184
0.26014,0.94857,-0.18034,0.00155,0.33736,0.07297
0.26258,0.93517,-0.23767,-0.08795,0.25422,0.1817
0.26886,0.92079,-0.28258,-0.10315,0.24312,0.24947
0.27653,0.9038,-0.32661,-0.04893,0.12893,0.24691
0.28966,0.88014,-0.37607,0.05699,0.07087,0.06411
0.29717,0.85409,-0.42685,0.05785,-0.0415,0.14891
0.29327,0.82767,-0.47848,-0.14627,-0.29297,0.39596
0.28087,0.79958,-0.53083,-0.27043,-0.3404,0.39409
0.25789,0.7707,-0.58267,-0.26824,-0.2929,0.5049
0.22661,0.74291,-0.62986,-0.09136,-0.2006,0.51063
0.18512,0.71648,-0.67259,-0.05034,-0.24295,0.41826
0.1413,0.69074,-0.70916,-0.15569,-0.23954,0.39107
0.09701,0.66713,-0.7386,-0.22857,-0.23704,0.31819
0.05763,0.64711,-0.76022,-0.22312,-0.27917,0.36994
0.02918,0.63255,-0.77397,-0.16403,-0.19203,0.36294
0.0135,0.62454,-0.78088,-0.12886,-0.20219,0.30355
0.00865,0.6227,-0.78241,-0.15505,-0.23983,0.22711
0.01421,0.62791,-0.77815,-0.18691,-0.23727,0.18227
0.02849,0.64107,-0.76695,-0.262,-0.24513,0.13757
0.04898,0.65959,-0.75003,-0.21042,-0.26298,-0.04178
0.07211,0.68189,-0.72789,-0.06544,-0.30821,-0.36346
0.09363,0.7079,-0.70007,0.06657,-0.29713,-0.41203
0.11433,0.72705,-0.677,0.16338,1.1463,-0.97911
0.12029,0.74031,-0.66141,0.60023,1.26756,-0.17226
0.13549,0.75375,-0.64303,0.30146,1.07553,0.39843
0.14457,0.77179,-0.61921,-0.44943,-0.31304,0.2742
0.17211,0.79162,-0.58626,0.00236,0.08338,0.46547
0.20613,0.81423,-0.54271,0.01595,0.41789,0.25111
0.23462,0.83253,-0.50183,0.03129,0.46233,0.33814
0.26177,0.84945,-0.45815,0.08615,0.12444,0.3155
0.2899,0.86641,-0.40655,0.03087,0.05509,0.29957
0.31082,0.88282,-0.35214,0.08049,-0.08277,0.27672
0.32108,0.89667,-0.30476,0.16517,-0.09067,0.21438
0.31738,0.9106,-0.2647,0.29473,-0.07498,0.12774
0.30566,0.92551,-0.22359,0.24594,0.01416,-0.018
0.29333,0.93723,-0.18852,0.20864,0.08041,-0.12309
0.28217,0.94577,-0.16088,0.1287,0.04463,-0.09811
0.27592,0.95162,-0.13518,0.20921,-0.22937,-0.16096
0.27793,0.95431,-0.10966,0.39196,-0.29375,-0.03982
0.29195,0.95337,-0.07646,0.04489,-0.23112,0.02505
0.31074,0.94974,-0.03755,-0.08717,-0.10811,-0.25888
0.32226,0.94657,-0.01135,-0.4104,-0.04281,-0.27371
0.32641,0.94518,0.00816,-0.11847,-0.09363,-0.20255
0.32698,0.94468,0.02551,0.02847,-0.04755,-0.19264
0.3262,0.94444,0.04,0.17334,0.01837,-0.14252
0.32504,0.94425,0.05226,0.08454,-0.04033,-0.09421
0.32359,0.9441,0.06277,0.05229,-0.02706,-0.05831
0.32231,0.94389,0.07187,0.06698,0.00401,-0.06534
0.32049,0.94375,0.08123,0.08099,0.00258,-0.08627
0.31743,0.94393,0.09067,0.11527,-0.05533,-0.11962
0.31452,0.94404,0.09927,0.15086,-0.11831,-0.15206
0.31198,0.94393,0.10791,0.16653,-0.00341,-0.06395
0.30713,0.94435,0.1177,0.01665,0.14618,0.01589
0.29983,0.94558,0.12632,-0.06164,0.29774,0.06321
0.29096,0.94728,0.1341,-0.05283,0.51458,0.00924
0.28202,0.94957,0.137,0.34225,0.59059,0.03845
0.27403,0.95225,0.13459,0.47782,0.48483,0.14692
0.26961,0.95338,0.13549,0.00029,0.58739,0.02354
0.2695,0.9544,0.12833,-0.0258,0.43973,-0.15865
0.26554,0.95827,0.10572,-0.00011,0.29981,-0.31984
0.26041,0.96278,0.07227,0.10376,0.32273,-0.35691
0.26025,0.96529,0.02154,0.06948,0.31791,-0.29171
0.2594,0.96483,-0.04228,0.06966,0.30653,-0.03931
0.25668,0.96007,-0.11115,0.09914,0.37298,0.14987
0.25673,0.95043,-0.17539,-0.05376,0.33888,0.03819
0.25675,0.93882,-0.22952,-0.10022,0.30019,0.11262
0.25383,0.9256,-0.28074,-0.09237,0.30575,0.0987
0.24739,0.90928,-0.33465,-0.01608,0.08512,0.27233
0.24778,0.88734,-0.38887,-0.01647,0.10706,0.32655
0.25908,0.8606,-0.43845,0.12928,-0.04735,0.17689
0.25959,0.83318,-0.48828,-0.12746,-0.26125,0.42773
0.25225,0.80271,-0.54038,-0.13148,-0.27518,0.42713
0.23594,0.77118,-0.59127,-0.19384,-0.29747,0.50496
0.21679,0.73963,-0.63713,-0.0751,-0.25021,0.45026
0.18864,0.71042,-0.67802,0.01649,-0.22234,0.45434
0.15278,0.68279,-0.71446,0.0095,-0.22567,0.45275
0.11276,0.65702,-0.74539,-0.13497,-0.21245,0.35977
0.07522,0.6343,-0.76941,-0.12719,-0.20874,0.36855
0.04899,0.61603,-0.7862,-0.18761,-0.17033,0.35247
0.03729,0.60283,-0.797,-0.16877,-0.13514,0.37756
0.03848,0.59585,-0.80217,-0.16348,-0.1468,0.35121
0.04742,0.59587,-0.80168,-0.18738,-0.19812,0.26699
0.06074,0.60201,-0.79617,-0.19285,-0.19366,0.2126
0.07809,0.6127,-0.78645,-0.14907,-0.23698,0.15118
0.10035,0.62791,-0.77179,-0.10171,-0.27232,0.01015
0.12364,0.64821,-0.75135,-0.03192,-0.31147,-0.13105
0.14567,0.6732,-0.72497,-0.05395,-0.33645,-0.15743
0.17497,0.7018,-0.69054,-0.12392,-0.24207,0.00849
0.20737,0.72498,-0.65681,-0.06409,0.67531,-1.13444
0.22258,0.73185,-0.64408,1.41951,2.04429,-0.55422
0.24475,0.74699,-0.61813,-0.38883,0.23462,0.61713
0.25481,0.76188,-0.59549,-1.01506,-0.52325,-0.12237
0.28141,0.78275,-0.55508,-0.09713,0.12588,0.81712
0.31362,0.80659,-0.50104,-0.05854,0.61276,-0.12434
0.33585,0.82737,-0.45017,-0.22106,0.41199,0.43857
0.35266,0.84667,-0.39845,-0.15732,0.15453,0.3665
0.36629,0.86336,-0.34703,-0.08745,-0.0374,0.31383
0.37184,0.87844,-0.3001,-0.00558,-0.11001,0.23192
0.37224,0.89185,-0.25696,0.04178,-0.11225,0.17408
0.36543,0.90593,-0.21386,0.09253,-0.03441,0.0989
0.35246,0.92011,-0.17076,0.21014,0.02589,0.03389
0.33686,0.93143,-0.13761,0.33994,0.08361,-0.12748
0.32133,0.94074,-0.10831,0.36019,-0.13786,-0.17
0.31001,0.94695,-0.08462,0.34321,-0.29682,-0.21887
0.31194,0.94789,-0.06464,0.33126,-0.32229,0.09333
0.32579,0.94479,-0.03485,0.19419,-0.22725,0.22247
0.34128,0.9399,0.00923,-0.2159,-0.10374,-0.31615
0.34751,0.9367,0.04265,-0.69524,0.04028,-0.23383
0.34443,0.93677,0.06174,-0.23368,-0.13823,-0.13392
0.33807,0.93801,0.07625,0.16681,-0.05947,-0.09273
0.3303,0.93967,0.08888,0.20109,0.01725,-0.11083
0.32381,0.94106,0.09761,0.09022,-0.01162,-0.09873
0.31874,0.94194,0.10549,0.14401,0.02217,-0.08935
