gravity.x,gravity.y,gravity.z,userAcceleration.x,userAcceleration.y,userAcceleration.z
0.23347,0.72967,-0.64271,0.45732,-0.21146,0.0512
0.25166,0.75223,-0.60894,0.04329,-0.14588,0.1936
0.27318,0.77642,-0.56793,-0.28791,0.05443,-0.05964
0.2941,0.79152,-0.53573,-0.38412,0.38261,0.04583
0.31613,0.80087,-0.5086,-0.23803,0.50716,0.38643
0.34754,0.81219,-0.46858,-0.36105,0.22906,0.44542
0.37136,0.82552,-0.42498,-0.40077,-0.05883,0.06579
0.38719,0.83545,-0.39,-0.14956,-0.32158,0.31238
0.40821,0.84223,-0.35215,-0.10596,-0.3438,0.36207
0.42897,0.84733,-0.31309,-0.01367,-0.17631,0.33089
0.44257,0.85138,-0.28156,-0.04023,0.25207,0.14491
0.45389,0.85277,-0.25838,-0.01456,0.27125,0.05962
0.46738,0.85299,-0.2323,0.02455,0.03294,0.04444
0.47789,0.85488,-0.20199,0.0847,-0.16353,0.13015
0.48468,0.85858,-0.1671,0.10413,-0.18591,0.31941
0.48785,0.86229,-0.13586,0.07941,0.02827,0.32503
0.48884,0.86426,-0.1187,0.08239,0.24281,0.09942
0.4848,0.86697,-0.11545,0.20516,0.26152,-0.03384
0.47741,0.87039,-0.1204,0.2464,0.24419,-0.03366
0.47091,0.87451,-0.11608,0.17103,0.18678,0.14125
0.46686,0.87805,-0.10527,-0.06338,0.26287,0.12825
0.46066,0.88266,-0.09335,-0.11768,0.33541,0.07978
0.44998,0.88978,-0.07621,-0.03844,0.26876,0.05756
0.43483,0.89921,-0.04847,0.0322,0.22649,0.03586
0.41681,0.90892,-0.01151,0.12985,0.23903,-0.05012
0.39689,0.91745,0.02749,0.17676,0.26348,-0.15748
0.37696,0.92393,0.06522,0.1958,0.29906,-0.32801
0.35547,0.92908,0.10224,0.15151,0.22726,-0.39132
0.33406,0.93327,0.13193,0.18155,0.16576,-0.46182
0.31586,0.93686,0.15007,0.13187,-0.00521,-0.66317
0.30104,0.94056,0.15722,0.01579,-0.0456,-0.25048
0.29546,0.94378,0.14824,-0.21922,0.00925,0.06904
0.30218,0.94429,0.13042,-0.45853,-0.13269,-0.46878
0.31439,0.94224,0.11549,-0.24495,-0.35826,-0.70874
0.32406,0.94177,0.08975,-0.13427,-0.4111,-0.51567
0.33936,0.93945,0.04755,-0.02527,-0.15869,0.19487
0.36412,0.9313,0.00924,-0.0326,0.09587,0.27789
0.38517,0.92253,-0.02429,-0.36018,0.69191,-0.04755
0.39759,0.91489,-0.06994,-0.60318,0.50764,0.11915
0.40498,0.90521,-0.1288,-0.6472,0.36552,0.21381
0.40764,0.89072,-0.2011,-0.63961,0.24043,0.15408
0.38043,0.88351,-0.27327,-0.54251,-0.00925,-0.04869
0.36452,0.86848,-0.33596,-0.49305,-0.04534,-0.03843
0.34604,0.85372,-0.38912,-0.38318,-0.07943,0.03397
0.33553,0.83861,-0.42914,-0.15978,-0.03088,0.05724
0.33324,0.82437,-0.45757,-0.07873,-0.10487,0.04201
0.33353,0.81201,-0.47895,0.06883,-0.16739,0.07947
0.33266,0.80296,-0.49456,0.09515,-0.29039,0.19657
0.32962,0.79602,-0.50764,-0.03825,-0.36454,0.22717
0.32574,0.79004,-0.51936,-0.14166,-0.39966,0.2255
0.32211,0.78618,-0.52741,-0.2407,-0.48411,0.17359
0.31958,0.78765,-0.52675,-0.323,-0.57598,0.10615
0.32098,0.79355,-0.51696,-0.31796,-0.5573,0.04185
0.32709,0.80333,-0.49766,-0.28014,-0.3803,-0.02153
0.33549,0.81783,-0.46754,-0.19937,-0.23771,-0.17414
0.34394,0.83467,-0.43016,-0.09768,-0.02566,-0.50389
0.35053,0.8482,-0.3971,0.09787,0.31222,-0.9089
0.35354,0.85346,-0.3829,0.16737,0.45974,-1.03636
0.34969,0.8574,-0.37761,0.04031,0.47076,-0.82402
0.3466,0.86144,-0.37121,-0.14742,0.3717,-0.75027
0.34397,0.85638,-0.38509,-0.12646,1.21657,-1.11569
0.33348,0.83521,-0.43728,0.26068,1.33964,0.30129
0.33139,0.82368,-0.46015,-0.2784,-0.2851,0.78156
0.36226,0.819,-0.44499,-0.73097,-0.91308,1.22686
0.41168,0.82043,-0.39675,-1.38408,-0.28587,0.05956
0.43454,0.815,-0.38333,-0.77901,0.70913,-0.10286
0.44834,0.81977,-0.35632,-0.35287,0.81539,0.91602
0.46008,0.849,-0.25984,-0.6432,0.48832,1.13236
0.46322,0.87548,-0.13768,-0.47574,0.2255,0.88159
0.46891,0.88197,-0.04741,-0.02404,0.2518,0.49222
0.46608,0.88463,-0.0144,0.26653,0.349,-0.00885
0.45257,0.89169,0.00841,0.19216,0.21598,-0.20377
0.44094,0.89596,0.05318,0.11384,0.02198,0.15446
0.43405,0.89494,0.10333,0.08855,-0.12062,0.327
0.42879,0.89166,0.14515,0.06114,-0.13582,0.29381
0.42272,0.88848,0.17865,0.00061,-0.03568,0.06688
0.41467,0.88579,0.20842,-0.00917,-0.03022,0.03072
0.40887,0.88283,0.23116,-0.00216,-0.07297,-0.0109
0.40355,0.8812,0.24625,0.04201,-0.08907,-0.08374
0.39629,0.8813,0.25743,0.08145,-0.11255,-0.24012
0.38967,0.88138,0.26708,0.09483,-0.19305,-0.19268
0.38609,0.88136,0.27226,0.08751,-0.26212,-0.18015
0.3857,0.88177,0.27152,0.07448,-0.25106,-0.11867
0.3876,0.88075,0.27211,0.00721,-0.14012,0.03362
0.38863,0.87754,0.28089,-0.04715,-0.15708,-0.03284
0.38911,0.87686,0.28233,0.05782,-0.17314,-0.2745
0.38441,0.88181,0.27321,0.05042,0.04442,-0.5741
0.37546,0.88637,0.2709,0.0855,0.10146,-0.33507
0.36243,0.89142,0.27204,0.14675,0.24992,0.02867
0.3471,0.89655,0.27517,0.27325,0.36761,-0.15334
0.33241,0.90049,0.28039,0.33127,0.35566,-0.2528
0.31648,0.90434,0.28637,0.41129,0.39514,-0.52992
0.30084,0.90685,0.29517,0.35283,0.50192,-0.18261
0.28743,0.90845,0.30347,0.33421,0.60529,-0.12658
0.28107,0.90856,0.30907,0.2725,0.46708,-0.21467
0.27857,0.91115,0.30367,0.16418,0.45285,-0.32746
0.27818,0.91803,0.28255,-0.00068,0.38389,-0.23224
0.27717,0.92873,0.24625,-0.15928,0.23591,-0.13944
0.27529,0.93951,0.20379,-0.29904,0.1393,-0.18203
0.27257,0.94843,0.1618,-0.26851,0.14834,-0.15092
0.26985,0.95499,0.12317,-0.18878,0.11079,-0.01994
0.27238,0.95823,0.08718,-0.09188,-0.0076,0.20087
0.2844,0.95697,0.05774,-0.0795,-0.00374,0.23794
0.30399,0.95226,0.02807,-0.14134,0.04711,0.22735
0.33092,0.94351,-0.0169,-0.0188,0.16128,0.08787
0.36584,0.92749,-0.07694,0.02009,0.15489,0.09469
0.40313,0.90359,-0.14498,-0.12712,0.09194,0.10393
0.43025,0.87553,-0.21984,-0.11937,-0.04364,0.0083
0.44829,0.84536,-0.29051,-0.13093,-0.11492,0.06984
0.46356,0.81477,-0.34822,-0.1635,-0.2639,-0.06526
0.47712,0.78351,-0.39809,-0.29745,-0.17398,-0.0608
0.48568,0.75201,-0.44563,-0.42326,-0.0179,0.06087
0.48775,0.72325,-0.48889,-0.20424,-0.09829,0.07602
0.48396,0.69802,-0.52778,-0.06345,-0.08372,0.06245
0.47325,0.67774,-0.56276,0.06646,0.05674,0.00774
0.45645,0.66464,-0.59153,-0.11011,0.10451,-0.08749
0.43442,0.65957,-0.61339,-0.14377,0.08602,-0.09944
0.4128,0.66349,-0.624,-0.10493,0.03342,-0.17034
0.39435,0.67689,-0.62154,-0.09833,-0.04151,-0.1129
0.37783,0.69639,-0.61015,-0.16497,-0.07571,-0.12229
0.36456,0.71852,-0.59231,-0.10096,-0.11651,-0.19614
0.3617,0.74097,-0.56581,0.02778,-0.17172,0.14679
0.37312,0.76898,-0.51909,-0.22782,-0.12664,0.273
0.39022,0.79626,-0.46227,-0.38258,0.26713,-0.19773
0.39734,0.81526,-0.42126,-0.30214,0.65552,-0.22261
0.39935,0.82926,-0.39095,-0.04161,0.51016,0.5962
0.41294,0.8471,-0.3345,-0.26222,-0.10405,0.48634
0.4225,0.86199,-0.28012,-0.30415,-0.33706,0.06629
0.4278,0.87197,-0.23802,-0.17686,-0.39852,0.15342
0.43475,0.8789,-0.19629,-0.0604,-0.27999,0.37858
0.43617,0.88734,-0.14964,-0.07283,-0.01133,0.3021
0.4247,0.89819,-0.11354,-0.07564,0.2954,-0.02446
0.41014,0.90721,-0.09355,0.12053,0.37228,-0.23366
0.39962,0.91399,-0.07013,0.22767,-0.02261,-0.0518
0.39293,0.91861,-0.04186,0.29611,-0.18004,0.03383
0.38284,0.92363,-0.0182,0.3224,-0.17287,0.10676
0.36685,0.93028,0.00018,0.17734,-0.10535,0.20266
0.35046,0.93657,0.00458,0.24204,-0.00796,0.04733
0.33187,0.94331,-0.0049,0.27941,0.17207,-0.1201
0.3157,0.94884,-0.00616,0.27762,0.17825,-0.13263
0.30399,0.95267,0.00077,0.26666,0.09489,-0.21187
0.29378,0.95569,0.0189,0.18793,0.01799,-0.11611
0.28361,0.95786,0.0454,0.15021,0.00901,-0.15237
0.27274,0.95931,0.0731,0.16396,-0.04184,-0.31289
0.26068,0.96036,0.09879,0.19893,-0.02405,-0.44619
0.24901,0.96126,0.11816,0.24398,0.03408,-0.55537
0.24103,0.96221,0.12672,0.08768,0.11294,-0.34337
0.23741,0.96345,0.1241,-0.00351,0.07877,-0.28083
0.2385,0.96528,0.10658,-0.07178,0.05923,-0.2511
0.24276,0.96726,0.07405,-0.1029,0.11906,-0.14591
0.25036,0.96767,0.0307,-0.10045,0.12764,-0.06941
0.26197,0.96487,-0.01996,-0.08347,0.13334,0.02662
0.28054,0.95703,-0.07348,0.11619,0.23035,0.06924
0.30553,0.94433,-0.12203,0.10722,0.32987,0.10117
0.33382,0.92691,-0.17144,0.15177,0.49299,0.06309
0.36082,0.90257,-0.2349,-0.08995,0.31839,0.29786
0.37417,0.87789,-0.29884,-0.20161,0.2075,0.5579
0.37784,0.86308,-0.33514,-0.39489,-0.16004,0.28872
0.38568,0.84408,-0.37252,-0.35039,-0.19513,0.05934
0.39231,0.8216,-0.41361,-0.146,-0.0241,-0.25622
0.39203,0.7956,-0.46188,-0.21903,0.01693,-0.13104
0.3791,0.77002,-0.51318,-0.27865,-0.02866,0.02522
0.36045,0.74753,-0.55792,-0.27232,-0.17798,0.22133
0.3443,0.72965,-0.59082,-0.17876,-0.30414,0.10032
0.33244,0.71694,-0.61276,-0.14145,-0.26648,0.06357
0.32264,0.71117,-0.62462,-0.17778,-0.26642,0.0628
0.31394,0.71191,-0.62819,-0.16727,-0.33677,0.03669
0.30659,0.71692,-0.62612,-0.14242,-0.36423,0.04856
0.3009,0.72421,-0.62046,-0.16057,-0.3387,0.02162
0.29723,0.73351,-0.61125,-0.15237,-0.3192,-0.04058
0.29688,0.74623,-0.59582,-0.08952,-0.18573,-0.15883
0.29983,0.76166,-0.57443,0.15812,-0.02677,-0.45235
0.31109,0.77426,-0.55112,0.46201,-0.02094,-0.34924
0.3315,0.78688,-0.52051,-0.01944,0.25847,-0.07716
0.34868,0.79991,-0.48842,-0.37255,0.65913,-0.5496
0.34641,0.81895,-0.45751,-0.23409,0.70927,-0.0001
0.34875,0.8404,-0.41484,-0.09665,0.18682,0.5265
0.36448,0.86075,-0.35533,-0.05,0.06442,0.34092
0.37981,0.87701,-0.29428,-0.01011,-0.04429,0.30747
0.38992,0.89082,-0.23323,-0.04052,-0.10343,0.31695
0.39421,0.90047,-0.18372,-0.0352,0.02746,0.25296
0.39053,0.90869,-0.14755,-0.0639,0.17382,0.113
0.38332,0.91659,-0.11372,-0.01355,0.21644,0.08371
0.37456,0.924,-0.07698,0.07158,0.12928,-0.01341
0.36411,0.93029,-0.04463,0.09093,-0.06873,-0.08948
0.35615,0.93417,-0.02186,0.14805,-0.19916,-0.16329
0.34656,0.93803,-0.00224,0.14125,-0.34243,-0.04615
0.33172,0.94324,0.01636,0.08947,-0.39862,0.08341
0.31249,0.94949,0.02873,0.05158,-0.31202,0.12662
0.29395,0.95529,0.03191,0.17716,-0.1155,0.10472
0.27921,0.95967,0.03286,0.35889,-0.02189,-0.09399
0.27157,0.96161,0.0393,0.51352,-0.04679,-0.39048
0.269,0.96181,0.05048,0.3585,-0.08935,-0.23875
0.26767,0.96119,0.06679,0.14103,-0.06198,-0.09061
0.26536,0.96029,0.08618,0.03408,0.02888,-0.14705
0.26029,0.95967,0.10617,0.05901,0.06294,-0.32779
0.25139,0.95965,0.12597,0.10631,0.04207,-0.40433
0.24089,0.95945,0.14637,0.22673,0.08678,-0.42812
0.23194,0.95865,0.16492,0.22326,0.20131,-0.43288
0.22652,0.95899,0.17037,0.20979,0.38125,-0.51327
0.22263,0.96343,0.14912,-0.04591,0.57896,-0.1459
0.2203,0.96958,0.10668,-0.14374,0.44575,-0.10344
0.22209,0.97369,0.051,-0.07887,0.20917,-0.02119
0.231,0.97288,-0.01215,0.07305,0.13442,-0.09543
0.24905,0.96553,-0.07568,0.38161,0.10974,-0.34301
0.2816,0.94857,-0.14458,0.64767,0.19031,-0.06681
0.32087,0.92242,-0.21491,0.34695,0.49036,0.34745
0.34366,0.89793,-0.27499,-0.02734,0.49263,0.74419
0.35834,0.87501,-0.32551,-0.30615,0.15159,0.56486
0.37648,0.84855,-0.3718,-0.3216,0.02578,-0.14851
0.38072,0.81716,-0.43278,-0.28546,0.03143,-0.30152
0.35915,0.78783,-0.50034,-0.31753,0.07028,-0.27786
0.33561,0.76245,-0.5532,-0.17276,-0.40419,0.42857
0.32698,0.73569,-0.59316,-0.08542,-0.36971,0.33398
0.32809,0.70896,-0.62429,-0.01673,-0.28901,0.28731
0.32577,0.68705,-0.64949,-0.30686,-0.12422,0.21213
0.31573,0.67216,-0.66971,-0.35672,-0.14272,0.16507
0.29842,0.66685,-0.68283,-0.3451,-0.41582,0.14978
0.28358,0.67122,-0.68487,-0.23037,-0.55947,0.07563
0.2781,0.68281,-0.67559,-0.09207,-0.46565,-0.0058
0.28068,0.69832,-0.65846,-0.10944,-0.27551,-0.10191
0.28525,0.71658,-0.63651,0.02971,-0.21055,-0.16108
0.28891,0.73365,-0.61505,0.26373,-0.01136,-0.60666
0.29622,0.74594,-0.59652,0.57853,0.09568,-0.33045
0.30453,0.75891,-0.57561,0.20487,0.54674,-0.09931
0.31297,0.77263,-0.55235,-0.16786,0.65143,-0.65143
0.30428,0.79338,-0.52721,-0.3426,0.49166,0.03251
0.29873,0.8199,-0.48838,-0.21745,-0.07698,0.4495
0.3129,0.84397,-0.43567,-0.26311,-0.06904,0.45869
0.33609,0.86315,-0.37685,-0.26261,0.05351,0.32719
0.3503,0.88085,-0.31843,-0.12931,0.04108,0.17128
0.35545,0.897,-0.26275,0.06121,0.0845,0.06976
0.35479,0.90979,-0.21544,0.24285,0.16376,-0.02163
0.35102,0.91958,-0.17653,0.30838,0.10856,0.15236
0.34841,0.92674,-0.14061,0.20073,0.02135,0.12875
0.34564,0.93212,-0.10808,0.06761,-0.01434,0.06578
0.34366,0.93578,-0.0789,0.02362,-0.08369,0.02209
0.34215,0.93809,-0.05409,0.08094,-0.29772,-0.00352
0.34064,0.93951,-0.03585,0.09961,-0.35605,-0.0689
0.34007,0.94001,-0.02718,0.13759,-0.28167,-0.08462
0.34365,0.93865,-0.02892,0.15003,-0.23136,-0.09178
0.35325,0.93473,-0.03865,0.15505,-0.23746,-0.15108
0.36748,0.92864,-0.05086,0.03968,-0.44082,-0.31796
0.38366,0.92131,-0.06325,-0.00342,-0.50966,-0.25092
0.40099,0.91334,-0.07085,-0.06587,-0.55691,-0.15231
0.41604,0.90648,-0.07214,-0.31659,-0.50069,0.00513
0.42452,0.90291,-0.06739,-0.36634,-0.38403,0.05198
0.42646,0.90273,-0.05658,-0.07981,-0.04392,0.23723
0.42632,0.90343,-0.04539,0.20175,0.03834,0.1724
0.4265,0.90394,-0.03137,0.2873,0.00928,0.00462
0.42535,0.90479,-0.02081,0.21555,0.25695,-0.24106
0.42163,0.90668,-0.01283,0.16289,0.4097,-0.07613
0.41406,0.91024,-0.00447,0.28681,0.29762,0.03671
0.39926,0.91678,0.01006,0.43054,0.26446,-0.07833
0.37693,0.92557,0.03529,0.48827,0.64357,-0.01584
0.34987,0.93413,0.07062,0.5158,0.75178,0.04264
0.32428,0.93915,0.11331,0.52098,0.82489,0.02979
0.30018,0.94094,0.15658,0.44158,0.84685,-0.26951
0.27754,0.94211,0.18814,0.46354,0.88461,-0.4017
0.25798,0.94445,0.20361,0.43738,0.86092,-0.44548
0.24044,0.94925,0.20279,0.2463,0.43712,-0.52433
0.22867,0.95609,0.18329,0.21006,0.24689,-0.57953
0.22682,0.96332,0.14341,0.16476,0.11424,-0.63264
0.22995,0.96925,0.08761,0.12818,-0.2037,-0.43043
0.23326,0.97214,0.02307,0.179,-0.24906,0.06346
0.2461,0.96859,-0.03574,0.15373,-0.2557,0.19677
0.27549,0.95808,-0.07864,0.12393,0.01958,0.19342
0.3119,0.94272,-0.11833,0.04041,0.2643,0.27876
0.34822,0.92081,-0.17565,-0.34445,0.31898,0.01335
0.37234,0.89373,-0.2502,-0.22369,0.19761,-0.12561
0.3834,0.86142,-0.3331,-0.08683,0.18162,0.06054
0.38511,0.82288,-0.4178,0.00855,0.20652,0.12246
0.38162,0.778,-0.49909,0.02057,-0.02079,0.22212
0.37172,0.72553,-0.57917,-0.05752,-0.03954,0.25744
0.34975,0.66764,-0.65721,-0.16402,-0.1605,0.33081
0.31689,0.60368,-0.73154,-0.11433,0.03541,0.22407
0.26874,0.54137,-0.79668,0.01277,0.07287,0.19472
0.21332,0.48388,-0.84874,-0.00407,0.03732,0.32672
0.1524,0.43169,-0.88905,-0.14483,-0.03687,0.43755
0.09063,0.38941,-0.9166,-0.21169,-0.1398,0.51244
0.0398,0.36155,-0.9315,-0.21966,-0.22265,0.53818
0.00626,0.34997,-0.93674,-0.19334,-0.35684,0.42867
-0.0075,0.35557,-0.93462,-0.22193,-0.35253,0.15758
-0.01295,0.37531,-0.92681,-0.11555,-0.36814,0.02138
-0.01841,0.40325,-0.9149,-0.01829,-0.42327,0.05014
-0.02314,0.43552,-0.89988,0.03469,-0.53769,-0.03052
-0.0223,0.46737,-0.88378,0.28109,-0.52598,-0.23409
-0.01378,0.49683,-0.86774,0.24792,-0.33329,0.03192
-0.00521,0.53195,-0.84676,-0.01774,-0.21076,0.17923
0.00671,0.55496,-0.83185,-0.32325,0.71711,-0.64583
0.02377,0.57488,-0.81789,0.3311,0.62865,-0.19297
0.06632,0.61161,-0.78837,0.25271,0.09527,0.25891
0.10748,0.64794,-0.75407,-0.17503,-0.12342,0.28239
0.15742,0.67633,-0.71958,-0.02058,-0.07137,0.42853
0.21076,0.69887,-0.68349,-0.09002,0.11859,0.28373
0.26201,0.7191,-0.64362,-0.18183,0.24451,0.14014
0.3036,0.74184,-0.59792,-0.16034,0.29782,0.01262
0.33786,0.76598,-0.54692,-0.16609,0.19035,0.04518
0.36569,0.78655,-0.4976,-0.10646,0.18282,0.01667
0.38686,0.80572,-0.4485,-0.15478,0.12213,0.09947
0.40172,0.82476,-0.39798,-0.13803,0.06544,0.11429
0.41181,0.8432,-0.34557,-0.08677,-0.04065,0.08129
0.42083,0.85894,-0.29177,-0.06786,0.05244,0.07682
0.42767,0.8745,-0.22881,-0.0722,0.06795,0.09969
0.43194,0.88746,-0.16078,-0.05984,0.08077,0.01139
0.43071,0.89771,-0.0928,0.14475,-0.03432,0.12934
0.42323,0.90545,-0.03224,0.19108,-0.01051,0.12179
0.40978,0.91201,0.0175,0.20751,0.00978,0.13471
0.39732,0.91596,0.05606,0.14674,-0.10803,-0.00613
0.38812,0.91822,0.07892,0.10174,-0.19704,-0.03193
0.38387,0.91956,0.08399,0.01966,-0.19467,-0.15593
0.38118,0.92053,0.08558,-0.02086,-0.15457,-0.1449
0.37762,0.92157,0.09008,-0.06004,-0.16673,-0.11636
0.37546,0.92213,0.09337,-0.06823,-0.20821,-0.11345
0.37513,0.92193,0.09654,-0.0663,-0.25105,0.03189
0.37617,0.92094,0.10183,-0.0828,-0.20524,0.03318
0.37771,0.91987,0.10572,-0.08988,-0.21291,-0.06925
0.37934,0.91908,0.10674,-0.05831,-0.31829,-0.09631
0.3806,0.9186,0.10637,-0.04661,-0.33305,-0.09209
0.38159,0.91826,0.10577,-0.02898,-0.22406,-0.03351
0.38182,0.91781,0.10878,0.05537,-0.13342,-0.00667
0.37991,0.91787,0.11478,0.07451,-0.02075,0.11651
0.37786,0.91845,0.11696,0.08572,0.06574,-0.06372
0.36946,0.92083,0.12482,0.18242,-0.00806,-0.15054
0.3597,0.92358,0.13271,0.3271,0.10378,-0.01629
0.3486,0.92647,0.14188,0.32802,0.10202,-0.02054
0.33603,0.93063,0.14494,0.3708,0.20043,-0.17493
0.31991,0.93556,0.14962,0.35772,0.24878,-0.06667
0.29989,0.9407,0.15859,0.39362,0.2152,-0.06437
0.27729,0.94593,0.16833,0.42466,0.21081,-0.25702
0.25432,0.94961,0.1832,0.457,0.51355,0.11825
0.23891,0.94954,0.20323,0.44868,0.48522,0.06868
0.22967,0.94894,0.21624,0.29398,0.59616,-0.40082
0.22038,0.94955,0.2231,0.21579,0.57414,-0.36767
0.20833,0.95223,0.22327,0.13806,0.55771,-0.33258
0.19339,0.95828,0.21047,0.02864,0.44211,-0.18783
0.18235,0.96534,0.18671,0.00707,0.33148,-0.07034
0.17927,0.97099,0.15826,-0.08819,-0.05316,-0.17353
0.18231,0.97495,0.12741,-0.08441,-0.29581,-0.11061
0.1912,0.97715,0.09288,-0.11145,-0.43244,-0.00287
0.20679,0.97689,0.05407,-0.06353,-0.4531,0.21277
0.22965,0.97316,0.01455,-0.07398,-0.20701,-0.04542
0.25571,0.96646,-0.02373,-0.24427,0.1041,-0.33353
0.27678,0.95903,-0.06043,-0.38563,0.18673,-0.29422
0.29228,0.95122,-0.09873,-0.41301,0.12863,0.05711
0.30431,0.94128,-0.14625,-0.4679,0.03512,0.13916
0.30939,0.92898,-0.20314,-0.47646,0.05593,0.14856
0.30098,0.917,-0.26178,-0.37155,0.02177,0.37577
0.28814,0.90288,-0.31904,-0.23771,-0.02899,0.25068
0.27817,0.88606,-0.37083,-0.07256,-0.02855,-0.1156
0.27122,0.86852,-0.41486,0.00219,0.06642,-0.10451
0.26602,0.85345,-0.44817,-0.04232,0.10889,0.07354
0.26192,0.84061,-0.47409,-0.12162,-0.02321,0.22548
0.25686,0.83066,-0.49399,-0.13085,-0.24149,0.18933
0.25032,0.82406,-0.5082,-0.09095,-0.26582,0.19809
0.24602,0.81974,-0.5172,-0.04816,-0.2875,0.22982
0.24534,0.81719,-0.52155,-0.04421,-0.43985,0.21221
0.24761,0.81766,-0.51974,-0.1476,-0.42297,0.10664
0.25263,0.82316,-0.50851,-0.17246,-0.39478,0.02859
0.25926,0.83157,-0.4912,-0.09525,-0.32642,-0.00658
0.26575,0.84118,-0.47094,0.01106,-0.24928,-0.07
0.27142,0.8513,-0.44901,0.08281,-0.17165,-0.12631
0.27661,0.86073,-0.42734,0.07609,-0.18605,-0.17321
0.2823,0.86831,-0.40786,0.00617,-0.18148,-0.2899
0.28707,0.87414,-0.39175,0.05597,-0.171,-0.4199
0.29403,0.87709,-0.37982,0.11756,-0.08955,-0.54504
0.30633,0.87558,-0.37352,0.29824,0.13105,-0.72336
0.31324,0.87615,-0.36639,0.26943,0.17951,-0.72872
0.31314,0.87846,-0.3609,0.19972,-0.01149,-0.63222
0.31485,0.8766,-0.36392,0.26616,-0.12749,-0.23488
0.31987,0.87079,-0.37337,-0.0197,0.64975,0.31694
0.31805,0.8658,-0.38629,-0.46529,1.53773,0.49268
0.30817,0.86727,-0.391,-0.70688,1.41589,0.48123
0.32589,0.86506,-0.3814,-0.69865,0.12368,0.47456
0.34362,0.86954,-0.35472,-0.6414,-0.17403,0.50846
0.3513,0.87817,-0.32466,-0.57506,-0.04635,0.54292
0.33014,0.91852,-0.21754,-0.26942,0.14872,0.75585
0.33436,0.92997,-0.15284,-0.18566,0.21693,0.8962
0.34392,0.93558,-0.08004,0.01213,0.16813,0.77805
0.35509,0.93469,-0.01664,0.192,0.16279,0.67626
0.35954,0.93257,0.03237,0.33574,-0.03764,0.3296
0.36572,0.92867,0.06181,0.45853,-0.12594,0.2226
0.37201,0.92477,0.08003,0.53314,-0.11763,0.16898
0.37754,0.92162,0.08991,0.14662,-0.13997,0.03818
0.38415,0.91828,0.09582,0.11037,-0.18133,0.07468
0.38974,0.91543,0.10046,0.16916,-0.20928,0.08397
0.39406,0.9132,0.10387,0.49643,-0.18787,-0.0862
0.39819,0.91115,0.10608,0.49587,-0.14534,-0.12161
0.4043,0.90817,0.10846,0.39263,-0.12181,-0.14259
0.41154,0.90476,0.10974,0.26842,-0.15929,-0.11497
0.41834,0.90176,0.10876,0.09871,-0.0993,-0.10764
0.42422,0.8998,0.10199,-0.03767,-0.00345,-0.11397
0.42912,0.89854,0.09214,-0.1086,0.0099,-0.15264
0.43172,0.89837,0.08093,-0.08011,-0.01506,-0.11088
0.4353,0.89733,0.07285,-0.09582,-0.02969,-0.0068
0.43981,0.8958,0.06416,-0.10776,-0.07626,0.06131
0.44666,0.89324,0.05105,-0.13183,-0.12263,-0.16004
0.4544,0.8901,0.03535,-0.00422,-0.23522,-0.13173
0.46523,0.88495,0.02063,0.08897,-0.35892,0.06573
0.47856,0.87805,-0.00088,0.0443,-0.49089,-0.21494
0.487,0.87239,-0.04208,-0.02767,-0.29046,-0.80022
0.49088,0.86893,-0.06321,-0.09937,-0.23198,0.24718
0.48805,0.871,-0.05628,-0.16232,-0.03418,0.8369
0.47269,0.88025,-0.04161,-0.23096,0.49436,0.00593
0.44859,0.89288,-0.03901,0.53863,0.86417,-0.45655
0.42288,0.9058,-0.02625,0.68141,0.58303,0.11547
0.40347,0.91494,-0.00992,0.67837,0.41479,0.47149
0.38878,0.92131,0.0062,0.76909,0.51952,-0.20006
0.3729,0.92767,0.01952,0.7895,0.7569,-0.34847
0.35118,0.93518,0.04589,0.73905,0.85791,0.0261
0.32346,0.94291,0.07932,0.78187,0.9116,-0.16535
0.2967,0.94916,0.1052,0.58095,0.80333,-0.37431
0.27441,0.95516,0.11125,0.17405,0.7262,-0.37162
0.25688,0.96127,0.09984,-0.00186,0.41681,-0.33814
0.24333,0.96728,0.07177,0.02926,0.11112,-0.22114
0.23544,0.9714,0.03089,0.04549,-0.05175,-0.22068
0.22953,0.97304,-0.02252,0.09337,-0.13971,-0.1229
0.23197,0.96977,-0.07576,0.2228,-0.21051,0.25604
0.2488,0.96162,-0.11568,0.11242,-0.16325,0.22272
0.27569,0.95005,-0.14632,0.3397,-0.15683,0.08672
0.31163,0.93377,-0.17596,0.0308,0.19219,0.02083
0.34411,0.91028,-0.23019,-0.21241,0.23734,0.08677
0.36403,0.87856,-0.3092,-0.09255,0.19427,0.23088
0.36921,0.83993,-0.39773,0.06559,0.12828,0.27307
0.36118,0.80061,-0.4781,0.03793,-0.05436,0.40194
0.34504,0.76279,-0.54689,0.0604,-0.37351,0.49062
0.32298,0.72226,-0.61158,0.06693,-0.33778,0.51082
0.3007,0.67556,-0.6732,-0.06611,-0.13973,0.33336
0.26832,0.62632,-0.73193,-0.28597,0.04053,0.4648
0.22583,0.57765,-0.78442,-0.33073,0.12113,0.58788
0.17871,0.52987,-0.82904,-0.35776,0.15297,0.69345
0.128,0.48048,-0.86761,-0.28564,-0.1868,0.84836
0.08824,0.42895,-0.89901,-0.24588,-0.13527,0.87975
0.06076,0.38183,-0.92224,-0.22624,-0.36364,0.61886
0.04585,0.34633,-0.93699,-0.09509,-0.40024,0.28987
0.03473,0.32337,-0.94564,0.00914,-0.29951,0.23558
0.02342,0.3099,-0.95048,0.02848,-0.2084,0.22206
0.0166,0.30523,-0.95213,0.11284,-0.25598,-0.03029
0.01557,0.3104,-0.95048,0.13176,-0.18962,-0.133
0.01363,0.32458,-0.94576,0.10999,-0.15795,-0.19659
0.00923,0.34492,-0.93859,0.12676,-0.06606,-0.29751
0.00601,0.36522,-0.9309,0.21212,-0.04931,-0.4356
0.01209,0.37351,-0.92755,0.51336,0.27215,-0.9594
0.02002,0.37103,-0.9284,0.47914,0.40607,-0.94889
0.0128,0.3873,-0.92186,0.03401,0.29735,-0.04812
0.02313,0.42844,-0.90328,-0.66151,-0.32759,0.87618
0.03321,0.46383,-0.8853,-0.61408,0.56882,-0.63603
0.0738,0.50254,-0.8614,0.33056,0.20553,0.19826
0.09678,0.53917,-0.83662,0.0773,0.6678,0.2004
0.12096,0.57317,-0.81046,0.05094,0.25525,0.36156
0.16177,0.60821,-0.77711,-0.03601,0.25282,0.27962
0.20292,0.64141,-0.73988,-0.03916,0.30529,0.36765
0.24476,0.67453,-0.6965,-0.04814,0.26858,0.36785
0.28206,0.70807,-0.64737,0.01364,0.1659,0.27604
0.31179,0.74021,-0.59571,0.06669,0.13201,0.23429
0.33745,0.76989,-0.54167,0.0813,0.09654,0.34335
0.36766,0.79551,-0.48166,0.02639,0.00614,0.35466
0.39361,0.81469,-0.42585,0.00776,0.03583,0.29989
0.41311,0.82948,-0.3759,0.00473,0.04679,0.17017
0.42551,0.84316,-0.32867,0.06591,4e-05,0.15126
0.4311,0.85686,-0.28275,0.07598,-0.11883,0.1998
0.43332,0.8687,-0.23998,0.09036,-0.13442,0.26226
0.43094,0.87852,-0.20613,0.05592,-0.15942,0.2375
0.42052,0.88661,-0.19258,0.18873,-0.11245,0.14911
0.4034,0.89366,-0.19657,0.43641,-0.13368,-0.01166
0.38842,0.89846,-0.20467,0.49531,-0.16163,-0.09105
0.38432,0.89999,-0.20573,0.28607,-0.37369,0.02242
0.39328,0.89714,-0.20115,-0.02706,-0.41428,0.07093
0.41127,0.89037,-0.19518,-0.23889,-0.2893,-0.06019
0.42606,0.88452,-0.18998,-0.32575,-0.28348,-0.03283
0.43462,0.88076,-0.18804,-0.29754,-0.36197,0.06421
0.44028,0.87739,-0.19064,-0.23267,-0.40353,0.10485
0.44551,0.87405,-0.19382,-0.19478,-0.38222,0.09177
0.44802,0.87161,-0.19894,-0.11984,-0.28529,-0.0227
0.44759,0.87023,-0.20582,0.02793,-0.11559,0.04961
0.44808,0.86957,-0.20756,0.05092,0.04648,0.08292
0.44903,0.87037,-0.20204,-0.01988,0.02054,0.29947
0.44771,0.87222,-0.19695,-0.03491,0.10634,0.27941
0.44017,0.87808,-0.18767,0.02977,0.31605,0.14246
0.42571,0.88783,-0.17473,0.39096,0.51128,0.28288
0.40781,0.89938,-0.15751,0.4649,0.54374,0.27903
0.38966,0.91018,-0.14051,0.63761,0.57342,0.018
0.37552,0.91909,-0.11939,0.6862,0.63129,-0.04278
0.36064,0.92881,-0.08515,0.64562,0.71975,0.06388
0.33926,0.93954,-0.04658,0.61965,1.10837,-0.10204
0.31431,0.94927,-0.01024,0.58813,1.05768,-0.26868
0.28874,0.95729,0.01472,0.35106,0.81567,-0.44603
0.26616,0.96376,0.01809,0.15845,0.52254,-0.35895
0.24663,0.96911,0.00275,0.03146,0.21232,-0.20483
0.23058,0.97267,-0.02737,-0.01056,0.01491,-0.27351
0.21756,0.97346,-0.07103,0.11095,-0.2259,-0.35385
0.20962,0.96944,-0.12749,0.20608,-0.39667,-0.1584
0.22119,0.95698,-0.18779,0.35092,-0.42291,0.21317
0.24807,0.93967,-0.23555,0.27618,-0.27567,0.25479
0.27687,0.923,-0.26724,0.15718,-0.03865,0.15258
0.30287,0.90515,-0.29827,-0.00906,0.20056,0.18072
0.31868,0.88255,-0.34576,-0.15714,0.31876,0.27299
0.32427,0.85472,-0.40534,-0.10946,0.32134,0.38114
0.32641,0.82147,-0.46759,0.0076,0.24773,0.35905
0.32436,0.78381,-0.52955,0.07888,0.15167,0.37596
0.31434,0.74186,-0.59231,0.08379,0.10674,0.23643
0.29438,0.69579,-0.65515,0.05612,0.07878,0.30156
0.26667,0.64998,-0.71163,-0.08729,0.06215,0.42852
0.22959,0.60736,-0.76053,-0.19962,0.02782,0.51987
0.18778,0.56485,-0.80354,-0.23046,-0.03236,0.65341
0.14824,0.52088,-0.84066,-0.2279,-0.07093,0.74218
0.1139,0.47675,-0.87163,-0.17878,-0.09911,0.76943
0.08425,0.4332,-0.89735,-0.13163,-0.10506,0.79231
0.06493,0.39093,-0.91813,-0.15575,-0.25731,0.70682
0.04957,0.35343,-0.93415,-0.19855,-0.36507,0.57889
0.03764,0.32453,-0.94512,-0.19761,-0.41944,0.49974
0.02862,0.30515,-0.95188,-0.07478,-0.39975,0.26058
0.02124,0.2948,-0.95532,0.0761,-0.38785,0.17303
0.01603,0.28925,-0.95712,0.0841,-0.38177,0.16207
0.01355,0.28919,-0.95717,0.02779,-0.28938,-0.02557
0.01528,0.29618,-0.95501,0.09734,-0.1927,-0.16068
0.01955,0.30781,-0.95125,0.21945,-0.08349,-0.31351
0.02489,0.31727,-0.94801,0.37706,0.11236,-0.79809
0.0302,0.3063,-0.95146,0.60827,0.33329,-1.46764
0.02651,0.28724,-0.95749,0.64863,0.30719,-0.81657
0.01434,0.29797,-0.95447,-0.18031,0.39184,0.00731
0.01598,0.33581,-0.94179,-1.0098,0.00515,0.26977
0.02388,0.3812,-0.92419,-0.20515,0.31883,-0.29711
0.06771,0.43246,-0.89911,0.25686,0.11426,0.12228
0.09916,0.47359,-0.87515,0.15781,0.93929,-0.07413
0.11993,0.50986,-0.85186,0.24537,0.6953,0.16415
0.15196,0.55148,-0.82023,-0.06468,0.29642,0.25085
0.19172,0.59279,-0.78221,-0.21336,0.16333,0.36743
0.23812,0.63166,-0.73776,-0.23582,0.12531,0.38745
0.28414,0.66864,-0.68715,-0.07624,0.16193,0.32213
0.32355,0.70558,-0.63045,0.01517,0.20347,0.277
0.3543,0.73748,-0.57497,0.16427,0.20484,0.2847
0.39185,0.76257,-0.51473,0.08836,0.15845,0.27693
0.4286,0.78391,-0.4492,-0.01132,0.077,0.22075
0.45722,0.80224,-0.38387,-0.08123,-0.11329,0.24745
0.4799,0.81641,-0.3212,-0.04788,-0.18952,0.21493
0.49698,0.82838,-0.25845,0.0345,-0.19279,0.21584
0.50327,0.84169,-0.19567,0.05134,-0.19526,0.20509
0.49623,0.85778,-0.13407,0.05225,-0.21012,0.19499
0.48242,0.8722,-0.08084,0.15784,-0.13597,0.35818
0.47119,0.88083,-0.04608,0.21968,-0.12259,0.24041
0.46058,0.88672,-0.03991,0.63909,-0.01543,-0.15193
0.45146,0.89079,-0.05178,0.35451,-0.25032,-0.13725
0.45141,0.88996,-0.06473,0.17566,-0.33334,-0.04367
0.46188,0.88413,-0.0706,-0.12579,-0.36194,0.00485
0.47604,0.87667,-0.06953,-0.40977,-0.24153,0.01599
0.48768,0.87044,-0.06708,-0.42991,-0.22329,0.06265
0.49502,0.86609,-0.06964,-0.40137,-0.21558,0.05778
0.49801,0.8638,-0.07636,-0.20826,-0.30146,-0.00668
0.50062,0.86152,-0.08467,-0.17443,-0.35297,0.06242
0.50504,0.85791,-0.09441,-0.15897,-0.38524,0.12223
0.51094,0.85357,-0.10179,-0.17324,-0.30095,0.15828
0.51578,0.85007,-0.10654,-0.1251,-0.16892,0.07404
0.518,0.84857,-0.10774,-0.07974,-0.10214,0.07251
0.51751,0.8496,-0.10176,0.03364,0.05246,0.21519
0.51663,0.85468,-0.05121,0.06272,0.08668,0.13156
0.5101,0.85916,-0.04039,0.11662,0.14122,0.06977
0.50381,0.86323,-0.03176,0.1364,0.20858,0.1215
0.49724,0.8672,-0.02666,0.16232,0.34859,0.09705
0.48764,0.87275,-0.02282,0.40368,0.47114,0.10609
0.47331,0.88074,-0.01648,0.49144,0.44932,0.12459
0.45692,0.8895,-0.00403,0.40871,0.72024,0.21967
0.43941,0.8981,0.01826,0.41678,0.98205,0.18633
0.41649,0.908,0.04538,0.53741,1.03239,0.02267
0.39163,0.917,0.07569,0.62636,0.78191,-0.03048
0.37099,0.92281,0.10382,0.37272,0.54499,-0.1081
0.35185,0.92789,0.12337,0.10298,0.58303,-0.23317
0.33266,0.93398,0.13047,-0.04755,0.41923,-0.2739
0.31359,0.94121,0.1256,-0.06603,0.21455,-0.32369
0.30057,0.94738,0.11014,-0.00755,-0.00123,-0.38744
0.2946,0.95173,0.08614,0.06942,-0.19938,-0.34698
0.29524,0.95391,0.05368,0.10089,-0.43544,-0.1087
0.30478,0.95228,0.01638,0.09834,-0.47531,0.19813
0.325,0.9455,-0.01995,0.06309,-0.24866,0.16242
0.3507,0.93525,-0.04817,-0.12126,-0.04138,-0.11638
0.37353,0.92471,-0.07335,-0.37926,0.03249,-0.30316
0.39091,0.9144,-0.10514,-0.49879,0.0063,-0.1225
0.40308,0.9038,-0.14379,-0.43975,-0.068,0.22515
0.4072,0.89151,-0.19849,-0.439,-0.06703,0.20475
0.40101,0.87719,-0.26405,-0.42077,-0.05894,0.29043
0.38613,0.86332,-0.32492,-0.29411,-0.17558,0.43029
0.37061,0.84775,-0.37943,-0.17385,-0.21668,0.18093
0.35793,0.82915,-0.42941,-0.13891,-0.15509,0.1038
0.3485,0.80966,-0.47223,-0.11686,-0.04658,-0.04726
0.33876,0.79271,-0.50681,-0.07794,-0.0755,0.15317
0.3291,0.78008,-0.53214,-0.07394,-0.17529,0.26771
0.32333,0.77031,-0.54961,-0.09264,-0.2529,0.32423
0.31961,0.76438,-0.55997,-0.18776,-0.32005,0.33704
0.31694,0.76326,-0.56301,-0.18509,-0.31893,0.34008
0.31609,0.76832,-0.55657,-0.2103,-0.38047,0.31924
0.3173,0.7789,-0.54096,-0.37309,-0.44667,0.3173
0.32001,0.79147,-0.52073,-0.41156,-0.45068,0.27015
0.32393,0.80502,-0.497,-0.40245,-0.43622,0.27311
0.32873,0.82132,-0.46622,-0.22452,-0.29856,0.02796
0.33225,0.84035,-0.42828,-0.14794,-0.25231,-0.1349
0.33426,0.85942,-0.38687,-0.04127,-0.18248,-0.28082
0.34241,0.87088,-0.3526,0.42502,0.41321,-0.67086
0.35802,0.87226,-0.33314,0.53706,0.45784,-0.57616
0.37115,0.8711,-0.32159,0.45767,0.28007,-0.4402
0.38726,0.86448,-0.32047,-0.02083,0.2457,-0.5567
0.41217,0.84637,-0.33731,0.0783,1.21767,-0.71623
0.41837,0.8344,-0.3588,0.13623,1.63566,0.14292
0.40675,0.83696,-0.36614,-0.35986,0.41765,0.71277
0.42449,0.83513,-0.3498,-0.67706,-0.36574,0.66706
0.45702,0.82991,-0.31997,-1.23609,-0.11409,-0.11526
0.47759,0.8278,-0.29437,-0.85775,0.1123,0.28554
0.48802,0.83617,-0.25033,-0.67248,0.07823,0.46854
0.48534,0.85378,-0.18841,-0.50579,0.25025,0.76679
0.48029,0.86797,-0.12631,-0.29372,0.22142,0.54992
0.48293,0.87305,-0.06751,-0.10652,0.18077,0.30412
0.4872,0.87305,-0.02049,0.40424,0.08417,0.07432
0.48783,0.87251,0.02741,0.19706,-0.03296,0.15332
0.48722,0.87058,0.06865,-0.05483,-0.03173,0.16057
0.48795,0.8668,0.10279,-0.20818,-0.03639,0.28234
0.48791,0.86333,0.1289,-0.31895,-0.08275,0.23786
0.48601,0.86156,0.14665,-0.25327,0.08455,0.08588
0.48276,0.86003,0.16517,-0.10473,0.05691,0.11874
0.48228,0.85761,0.17867,0.11909,0.07725,-0.00604
0.48237,0.85383,0.19567,0.13195,-0.06875,-0.01655
0.48314,0.84875,0.21494,0.10436,-0.08509,0.08802
0.48355,0.84395,0.23222,0.09887,-0.15313,0.07731
0.48352,0.84082,0.24336,0.18973,-0.13315,-0.13603
0.48088,0.83954,0.25283,0.17525,-0.06084,-0.23909
0.47876,0.83816,0.2613,0.14926,-0.02546,-0.25385
0.47742,0.83614,0.27008,0.11858,-0.0774,-0.27759
0.47502,0.83482,0.27826,0.17402,-0.10713,-0.25988
0.47188,0.83411,0.28563,0.2426,-0.04223,-0.27832
0.46774,0.83461,0.29093,0.22124,0.04701,-0.24999
0.46502,0.83571,0.29215,0.20698,0.14347,-0.20583
0.46552,0.8368,0.28819,0.08324,0.42222,0.08925
0.47297,0.83575,0.27898,0.00011,0.47679,0.15443
0.48935,0.8302,0.26701,-0.02474,0.35101,-0.43317
0.50914,0.82731,0.23735,-0.02066,0.2999,-0.30751
0.52553,0.83124,0.18125,-0.03763,0.34024,-0.27085
0.54106,0.83533,0.09738,-0.24628,0.89354,-0.75882
0.54657,0.8374,0.00475,-0.50494,0.719,-0.07204
0.5407,0.83711,-0.08294,-0.66085,0.46673,0.44405
0.53042,0.83285,-0.15815,-0.54957,0.26532,0.39508
0.51369,0.82266,-0.24362,0.23241,0.25763,0.28276
0.52042,0.78975,-0.32473,0.66395,0.35725,-0.38387
0.53794,0.74971,-0.38543,0.49344,0.17412,-0.23249
0.53222,0.71905,-0.4469,0.18719,-0.01136,0.12703
0.50993,0.69358,-0.50884,-0.07664,-0.10307,0.37461
0.48645,0.66843,-0.56265,-0.22973,-0.11867,0.37414
0.46369,0.64891,-0.60325,-0.38451,-0.18784,0.32375
0.44626,0.63445,-0.63113,-0.62118,-0.26073,0.32656
0.42994,0.62443,-0.65211,-0.59531,-0.24265,0.26559
0.4151,0.62172,-0.6642,-0.42276,-0.29539,0.16312
0.40341,0.62527,-0.66806,-0.23251,-0.42388,0.14541
0.39847,0.6299,-0.66666,-0.05689,-0.42392,-0.05207
0.39946,0.63532,-0.66091,-0.06593,-0.44917,-0.16792
0.40273,0.63868,-0.65567,-0.02536,-0.31002,-0.48007
0.40212,0.63978,-0.65496,0.13975,-0.1721,-0.47405
0.39868,0.64156,-0.65532,0.15008,-0.14719,-0.43883
0.39736,0.64229,-0.65541,0.13677,0.03165,-0.45462
0.40666,0.6355,-0.65633,-0.07604,0.4034,-0.42796
0.41601,0.62822,-0.65748,-0.35951,0.73746,-0.12382
0.41363,0.63495,-0.65249,-0.507,0.27531,-0.00097
0.41249,0.65069,-0.63754,-0.66528,0.45499,-0.04466
0.40716,0.67269,-0.61782,-0.24181,0.25649,0.30975
0.41941,0.69635,-0.58241,-0.09862,0.20612,0.83764
0.4538,0.71966,-0.5255,-0.27248,0.32314,0.66016
0.48419,0.7415,-0.46447,-0.26196,0.48038,0.35067
0.50662,0.76009,-0.40695,-0.06082,0.51887,0.28024
0.52811,0.77727,-0.34199,0.08876,0.38361,0.15186
0.5428,0.7934,-0.27547,0.08896,0.17506,0.14434
0.55087,0.80634,-0.21531,0.02654,0.03204,0.20741
0.55383,0.817,-0.16056,-0.07751,-0.0271,0.25208
0.55379,0.82575,-0.10701,-0.13465,0.01287,0.16726
0.54854,0.83442,-0.05328,-0.20047,-0.06648,0.11139
0.54009,0.8416,-0.00298,-0.11976,-0.12,0.07582
0.52975,0.84694,0.04546,0.00355,-0.1007,0.20642
0.51477,0.85229,0.0928,0.02846,-0.11078,0.21125
0.49801,0.85729,0.13054,0.06116,-0.1288,0.18749
0.48499,0.86172,0.14904,0.27465,-0.1409,-0.01975
0.47617,0.8658,0.1538,0.32151,-0.10527,-0.16319
0.47133,0.86815,0.15545,0.23162,-0.0634,-0.15724
0.46934,0.86957,0.15348,-0.09973,0.01192,-0.17616
0.468,0.87071,0.15111,-0.13965,-0.01466,-0.14284
0.4634,0.87345,0.14949,-0.17008,-0.07392,-0.1273
0.45499,0.87858,0.14519,-0.04537,0.00855,-0.03727
0.44358,0.88458,0.14407,0.02428,0.04159,-0.03871
0.43032,0.89069,0.14664,0.09663,0.05808,-0.03156
0.41779,0.89606,0.15006,0.39123,0.07711,-0.26768
0.4071,0.89958,0.15819,0.43555,0.09799,-0.27736
0.39727,0.90142,0.17209,0.42832,0.12095,-0.28456
0.38843,0.90241,0.1865,0.09901,0.34678,-0.29892
0.38217,0.903,0.19632,0.0262,0.41559,-0.23505
0.37731,0.9046,0.19832,-0.03805,0.45135,-0.22209
0.37286,0.90761,0.19294,-0.01359,0.4577,-0.20185
0.36977,0.91269,0.17399,0.04224,0.40657,-0.17747
0.3696,0.91858,0.14007,0.07071,0.29314,-0.23536
0.37248,0.9232,0.09462,0.041,0.14267,-0.21496
0.37977,0.92424,0.03956,0.01827,0.08799,-0.13835
0.39616,0.91801,-0.01776,0.34324,0.17264,0.0078
0.42379,0.90269,-0.07455,0.22169,0.38428,-0.17997
0.45834,0.8784,-0.13541,0.05526,0.45247,-0.1457
0.48212,0.85172,-0.20526,-0.31676,0.3977,0.30193
0.48508,0.82986,-0.27573,-0.38126,0.02549,0.60038
0.48831,0.80661,-0.33306,-0.35913,-0.1582,0.42166
0.49966,0.77471,-0.38751,-0.04223,-0.15687,-0.29047
0.49808,0.74154,-0.44948,-0.2692,-0.00909,-0.13589
0.48341,0.71499,-0.50507,-0.31612,-0.02992,0.11226
0.47192,0.69234,-0.54585,-0.31925,-0.25489,0.2484
0.46758,0.67266,-0.5735,-0.28494,-0.26946,0.21475
0.46577,0.65836,-0.59129,-0.2581,-0.14641,0.10184
0.46209,0.6517,-0.60146,-0.27081,-0.08464,0.07018
0.45461,0.65372,-0.60496,-0.26918,-0.11857,0.05874
0.44671,0.66438,-0.59921,-0.23098,-0.2819,0.00862
0.44092,0.68185,-0.58367,-0.15537,-0.34985,-0.07238
0.43975,0.70178,-0.56047,0.02984,-0.37956,-0.20715
0.44694,0.71634,-0.53583,0.31678,-0.32043,-0.03168
0.46325,0.72528,-0.50929,-0.03249,0.17949,0.19006
0.47641,0.73757,-0.47856,-0.12232,0.45991,-0.09932
0.48648,0.75066,-0.44705,-0.29591,0.51533,-0.13225
0.48208,0.76789,-0.42183,-0.34455,0.1704,0.5034
0.47622,0.79371,-0.37847,-0.4007,-0.12276,0.46136
0.47638,0.81715,-0.32456,-0.29814,-0.14013,0.37042
0.47982,0.83625,-0.26544,-0.05854,0.25584,0.33652
0.4798,0.853,-0.2054,0.2181,0.67504,0.19902
0.47933,0.8645,-0.15127,0.36924,0.50496,0.12713
0.47926,0.87079,-0.10967,0.31117,0.13133,0.08187
0.47525,0.87655,-0.07609,0.17586,-0.02304,0.04328
0.46591,0.88361,-0.04633,0.05876,-0.07,0.01424
0.45505,0.8902,-0.02169,-0.00599,-0.04021,-0.06736
0.44444,0.89581,-0.00131,-0.05019,-0.05628,-0.06653
0.4332,0.90118,0.01474,-0.10877,-0.11764,-0.03304
0.42059,0.90693,0.02414,-0.09947,-0.14486,-0.04162
0.40671,0.91317,0.02638,0.05718,-0.19336,-0.04046
0.39431,0.91864,0.02506,0.11755,-0.23893,-0.03042
0.38594,0.92213,0.02695,0.14732,-0.27792,0.00299
0.38189,0.92371,0.03034,0.00437,-0.31748,-0.03791
0.38106,0.92387,0.03534,-0.03974,-0.30102,-0.08083
0.38163,0.92333,0.04275,-0.06586,-0.28539,-0.06115
0.38164,0.92319,0.04552,-0.15196,-0.12657,0.00996
0.37939,0.9239,0.04968,-0.13884,-0.09346,-0.07286
0.37299,0.92596,0.05899,-0.07235,-0.08721,-0.16863
0.3648,0.9287,0.06655,0.24633,-0.03687,-0.249
0.35616,0.93144,0.0747,0.20584,-0.0116,-0.141
0.34696,0.9337,0.08847,0.17344,0.03446,-0.0356
0.33742,0.93538,0.10585,0.19334,0.37693,-0.15653
0.32905,0.9364,0.12202,0.20052,0.46039,-0.15566
0.32245,0.9371,0.13368,0.22865,0.49857,-0.13872
0.31665,0.93805,0.14068,0.31613,0.76037,-0.2624
0.31332,0.93977,0.1366,0.35202,0.74191,-0.28495
0.31271,0.94285,0.1151,0.2889,0.49994,-0.22093
0.31622,0.94551,0.07751,0.12111,0.25193,-0.18447
0.32391,0.94562,0.02963,-0.02072,0.0724,-0.23402
0.33371,0.94236,-0.02444,-0.10154,0.04999,-0.34143
0.34664,0.93508,-0.07396,0.01222,0.00131,-0.18759
0.3629,0.92425,-0.1186,0.09705,0.01188,-0.09585
0.38416,0.9082,-0.16609,0.05825,0.20399,-0.06628
0.40831,0.88591,-0.22012,-0.01785,0.31218,0.00473
0.42729,0.86102,-0.27578,-0.09365,0.23153,0.26823
0.43966,0.83614,-0.32797,-0.13934,-0.00852,0.45625
0.44793,0.81138,-0.37553,-0.05295,-0.10241,0.35623
0.45422,0.78385,-0.4234,-0.03305,-0.05545,0.26221
0.4514,0.75366,-0.47773,-0.07999,-0.086,0.04246
0.44214,0.72126,-0.53319,-0.20596,-0.03453,0.05887
0.42779,0.69309,-0.5802,-0.38398,-0.04166,0.09747
0.41309,0.6708,-0.61594,-0.47234,-0.30605,0.29279
0.40225,0.6511,-0.64363,-0.41942,-0.27034,0.31529
0.39332,0.63448,-0.66538,-0.27601,-0.06655,0.18754
0.38366,0.6222,-0.6824,-0.19599,-0.05474,0.10597
0.37485,0.61597,-0.69287,-0.17947,-0.12452,0.03148
0.37005,0.61633,-0.69512,-0.20431,-0.19304,-0.01893
0.3709,0.62203,-0.68958,-0.20563,-0.21704,-0.08093
0.37528,0.63249,-0.67759,-0.09487,-0.13816,-0.16067
0.37983,0.64671,-0.66143,0.06418,-0.084,-0.18562
0.38653,0.66339,-0.64071,0.22773,-0.17146,-0.04847
0.39791,0.68149,-0.6142,0.12719,-0.09621,0.02416
0.41332,0.6966,-0.58645,-0.06066,0.60528,-0.35064
0.42436,0.70956,-0.56254,-0.2092,0.88397,-0.80833
0.42243,0.73051,-0.53657,0.1083,0.36202,0.23344
0.42806,0.75708,-0.49356,0.07198,0.12328,0.28462
0.43341,0.78306,-0.44607,-0.13672,0.09206,0.31336
0.44297,0.80672,-0.39113,-0.26595,0.04843,0.39725
0.45599,0.82832,-0.32551,-0.27162,-0.00783,0.41706
0.46448,0.84801,-0.25523,-0.13596,0.0307,0.35896
0.46151,0.86579,-0.19346,0.07347,0.29335,0.15949
0.44998,0.88188,-0.14075,0.10992,0.26774,0.11375
0.43784,0.89434,-0.09195,0.134,0.21792,0.08029
0.42682,0.9029,-0.05104,0.0587,-0.02251,0.00293
0.41607,0.90905,-0.02236,0.06664,-0.07455,-0.02584
0.40637,0.91371,-0.00211,0.07825,-0.12602,-0.04211
0.39881,0.91691,0.01523,0.00642,-0.22202,-0.06725
0.39203,0.91956,0.02675,-0.0183,-0.25886,-0.12765
0.38484,0.92236,0.03379,-0.006,-0.30402,-0.17268
0.37728,0.92532,0.03809,0.08261,-0.3301,-0.04495
0.37133,0.92756,0.04167,0.10339,-0.30253,-0.05851
0.36831,0.92851,0.04709,0.11385,-0.28938,-0.06315
0.36786,0.92829,0.05439,0.02795,-0.25827,-0.06236
0.3678,0.92783,0.06214,-0.00762,-0.1984,-0.04769
0.36623,0.92803,0.06805,-0.04827,-0.13537,-0.08446
0.36197,0.92938,0.07228,0.03421,-0.02432,-0.01001
0.35499,0.93166,0.07735,0.10926,0.1123,-0.06631
0.34616,0.93399,0.08851,0.23329,0.10343,-0.10806
0.33631,0.93612,0.1028,0.32364,0.0775,-0.13998
0.32599,0.93786,0.11891,0.34012,0.11321,-0.20528
0.31689,0.93884,0.1348,0.33129,0.39806,-0.17307
0.31019,0.93887,0.14937,0.23163,0.5266,-0.07484
0.30625,0.93859,0.15897,0.19715,0.56084,-0.13466
0.30532,0.9385,0.16125,0.1163,0.6937,-0.2384
0.30569,0.94067,0.14732,0.12733,0.56322,-0.2493
0.30583,0.94513,0.11486,0.12327,0.43541,-0.24718
0.30945,0.94841,0.06901,0.1172,0.07772,-0.23051
0.3199,0.9474,0.01008,0.08803,-0.00686,-0.3113
0.33807,0.93972,-0.05126,0.16518,0.1238,-0.4388
0.36484,0.92565,-0.10032,0.3,0.17518,-0.22968
0.39878,0.90422,-0.15285,0.21832,0.36913,-0.03483
0.43293,0.87531,-0.2154,0.04624,0.55785,0.31388
0.45258,0.84639,-0.2807,-0.23503,0.38314,0.61039
0.45349,0.82354,-0.34077,-0.41856,0.07645,0.76516
0.46014,0.79941,-0.38629,-0.36904,-0.1439,0.37947
0.47612,0.7694,-0.42583,-0.21879,-0.07984,-0.16775
0.48266,0.73396,-0.47785,-0.23351,0.14444,-0.28955
0.47178,0.70174,-0.53384,-0.36375,0.19211,-0.12775
0.45175,0.67729,-0.58069,-0.40746,-0.19523,0.36293
0.43619,0.66102,-0.61056,-0.24553,-0.351,0.2765
0.43076,0.65211,-0.62385,-0.10572,-0.22729,0.11261
0.4297,0.65159,-0.62513,-0.10251,-0.12348,0.04998
0.42568,0.65939,-0.61968,-0.23545,-0.20625,0.08449
0.42019,0.67384,-0.60777,-0.24144,-0.28706,0.06786
0.41939,0.69169,-0.58795,-0.23163,-0.35187,0.02134
0.42659,0.70915,-0.56137,-0.03529,-0.4338,0.19676
0.43978,0.72645,-0.52807,-0.16506,-0.40648,0.24084
0.45203,0.74469,-0.49103,-0.33609,-0.24107,0.07801
0.45729,0.76247,-0.45773,0.17873,0.71795,0.03682
0.46711,0.78301,-0.41074,0.19369,0.52472,0.58019
0.48143,0.80768,-0.34041,-0.02119,0.26841,0.58281
0.4865,0.82401,-0.29041,-0.05739,0.11638,0.13178
0.48965,0.83689,-0.24465,-0.00293,0.09299,0.17417
0.49341,0.84833,-0.19203,0.01359,0.0957,0.20511
0.49175,0.85875,-0.14396,-0.01191,0.22708,0.26071
0.4851,0.8675,-0.11015,-0.00526,0.21834,0.22689
0.47775,0.87464,-0.08228,0.01475,0.17875,-0.08915
0.47035,0.88096,-0.0518,-0.00578,-0.03224,0.04163
0.46184,0.8866,-0.02548,-0.0181,-0.04455,0.04515
0.45179,0.89212,-0.00304,-0.02929,-0.07353,-0.00047
0.43964,0.89794,0.02035,-0.04265,-0.16561,0.01092
0.42549,0.90402,0.04129,-0.02499,-0.19147,0.0276
0.40954,0.91074,0.0532,0.09186,-0.18995,0.00547
0.39439,0.91709,0.05839,0.20651,-0.07687,-0.01759
0.38368,0.92146,0.06076,0.233,-0.06923,-0.06267
0.38161,0.92236,0.06022,0.15899,-0.12655,-0.09175
0.37612,0.92455,0.06112,0.05762,-0.1684,-0.11011
0.37024,0.9269,0.06147,-0.00352,-0.15751,-0.1104
0.36328,0.92953,0.06318,-0.00365,-0.10835,-0.1144
0.35523,0.93209,0.07093,0.06009,-0.07398,-0.04396
0.36524,0.92751,0.07952,0.12789,-0.06519,-0.03797
0.35614,0.92974,0.09356,0.25138,-0.03425,-0.16644
0.34902,0.93079,0.10868,0.30064,0.00021,-0.24331
0.34367,0.93083,0.12426,0.28173,0.13075,-0.2971
0.34377,0.92948,0.13376,0.07497,0.32151,-0.29332
0.3485,0.92742,0.13578,-0.00809,0.37986,-0.32048
0.35216,0.92727,0.1271,-0.13878,0.5721,-0.22004
0.35189,0.93025,0.10394,-0.11767,0.57059,-0.20331
0.34943,0.93447,0.06822,-0.04377,0.28884,-0.13261
0.35112,0.93609,0.02097,0.09262,0.03307,-0.00345
0.36166,0.93168,-0.03446,0.25521,-0.04195,-0.03956
0.38542,0.9181,-0.09247,0.36858,0.23622,-0.35339
0.42076,0.89571,-0.14371,0.28277,0.53616,-0.27211
0.45785,0.86785,-0.19289,0.03124,0.65162,0.1198
0.48247,0.83888,-0.25201,-0.25125,0.52781,0.54966
0.49244,0.81314,-0.31034,-0.42997,0.20169,0.77376
0.50148,0.78767,-0.3579,-0.3669,-0.02796,0.23105
0.51354,0.75958,-0.39914,-0.17884,0.04721,-0.27427
0.51485,0.72933,-0.45056,-0.13861,0.24407,-0.2522
0.50145,0.70084,-0.50731,-0.31009,0.15945,0.11832
0.48439,0.67492,-0.55664,-0.36533,-0.12407,0.39718
0.47202,0.65491,-0.59017,-0.28882,-0.29102,0.26041
0.46545,0.64178,-0.60949,-0.18757,-0.20857,0.16157
0.46321,0.63418,-0.61908,-0.21561,-0.02933,0.10092
0.45756,0.63441,-0.62303,-0.22048,-0.04112,0.08915
0.44988,0.64257,-0.62026,-0.27363,-0.36498,0.09399
0.4428,0.65594,-0.61129,-0.20399,-0.35952,-0.07542
0.43855,0.67072,-0.59817,-0.08148,-0.35496,-0.12252
0.44261,0.68652,-0.57687,0.02742,-0.37671,0.12978
0.45108,0.71111,-0.5393,-0.31123,-0.26496,0.06762
0.46374,0.73309,-0.49752,-0.43455,0.11423,-0.12654
0.47059,0.75069,-0.4637,-0.45838,0.4514,-0.36921
0.4849,0.77238,-0.41025,-0.07452,0.35458,0.38513
0.49721,0.79305,-0.35192,-0.15198,0.24227,-0.06425
0.50189,0.80627,-0.31309,-0.06553,0.25038,-0.17549
0.50858,0.81972,-0.26345,-0.11295,-0.02979,0.37853
0.51492,0.83144,-0.20874,-0.15563,-0.00156,0.40994
0.51639,0.84184,-0.15701,-0.17522,0.0453,0.39173
0.51239,0.85128,-0.11305,-0.13449,0.26385,0.05633
0.50443,0.86005,-0.07656,-0.0443,0.24169,-0.01275
0.49509,0.86772,-0.04408,0.03329,0.16208,-0.01459
0.48627,0.87362,-0.0183,0.16365,-0.00223,-0.00355
0.47768,0.87853,0.00354,0.1388,-0.03554,-0.03735
0.46845,0.8831,0.02612,0.08502,-0.09638,0.00691
0.4588,0.88733,0.0463,0.01824,-0.17305,0.01491
0.44802,0.89227,0.05599,-0.03785,-0.1941,0.02902
0.43929,0.89646,0.05821,0.00497,-0.15455,-0.01267
0.43152,0.90017,0.05895,0.0229,-0.1624,-0.03366
0.42351,0.90408,0.05723,0.02601,-0.15658,-0.05685
0.41645,0.90741,0.0563,0.02317,-0.0938,-0.08467
0.41053,0.91006,0.05713,0.01582,-0.04827,-0.10153
0.40355,0.91305,0.05913,0.01062,-0.0065,-0.11699
0.3964,0.9161,0.06025,0.06908,0.00135,0.0057
0.41669,0.90666,0.0659,0.07353,-0.00688,-0.00143
0.40737,0.90997,0.07746,0.15213,-0.00821,0.01481
0.39831,0.91231,0.0951,0.2949,0.0657,-0.37206
0.39089,0.91335,0.11396,0.26105,0.16583,-0.39854
0.38652,0.91321,0.12903,0.18913,0.28293,-0.29807
0.38377,0.91311,0.13764,-0.07539,0.50174,-0.21641
0.38087,0.91378,0.14124,-0.05528,0.54641,-0.21249
0.37807,0.91627,0.13233,0.01238,0.36156,-0.21261
0.37758,0.9195,0.10932,0.0008,0.18967,-0.27487
0.38167,0.92137,0.07347,-0.07538,0.16263,-0.40877
0.39042,0.92024,0.02703,-0.09977,0.16887,-0.45315
0.40453,0.91421,-0.02395,0.02257,0.09361,-0.0003
0.4283,0.90094,-0.06972,0.16081,0.16758,0.0868
0.46063,0.88162,-0.10278,0.10292,0.312,0.0315
0.49511,0.85761,-0.13915,-0.30917,0.33918,-0.19764
0.51156,0.83397,-0.20688,-0.61471,0.35293,-0.18359
0.50472,0.81317,-0.28984,-0.48065,0.20558,0.35627
0.49156,0.79168,-0.36279,-0.343,0.12169,0.36353
0.48076,0.76317,-0.43179,0.02223,0.17401,0.08035
0.469,0.73214,-0.49398,0.03399,0.20504,0.14254
0.45369,0.70178,-0.54925,-0.21594,0.09017,0.26861
0.43987,0.66722,-0.60111,-0.27194,-0.08481,0.06226
0.42706,0.63391,-0.64481,-0.25914,-0.05149,0.10596
0.41622,0.60572,-0.67814,-0.30028,-0.04647,0.02866
0.40303,0.58536,-0.70351,-0.25375,0.00329,0.16277
0.38785,0.57412,-0.72108,-0.24561,-0.06945,0.24318
0.37636,0.57191,-0.72888,-0.262,-0.11334,0.22088
0.37139,0.57993,-0.72509,-0.27175,-0.20866,0.10715
0.3708,0.59749,-0.71099,-0.23294,-0.21547,0.17599
0.37282,0.62064,-0.68979,-0.22612,-0.21966,0.07668
0.37631,0.64833,-0.66186,-0.15986,-0.28013,-0.11586
0.38223,0.67486,-0.63123,0.03654,-0.27838,-0.34517
0.39113,0.69804,-0.5998,0.18486,-0.25018,-0.15827
0.40428,0.72117,-0.56256,-0.07742,-0.17971,-0.11545
0.4207,0.73685,-0.52921,-0.06803,0.14538,-0.43437
0.44415,0.74496,-0.49776,0.0569,0.54017,-0.19316
0.47555,0.75304,-0.45473,-0.29307,0.25297,0.11394
0.49821,0.76264,-0.41252,-0.39989,0.063,-0.05724
0.51189,0.77062,-0.37962,-0.34302,-0.06997,0.14702
0.52734,0.77942,-0.33825,-0.44611,-0.02033,0.37001
0.54275,0.7886,-0.28902,-0.49182,0.10395,0.32987
0.54328,0.80741,-0.2301,-0.3859,0.26471,0.19386
0.54521,0.81894,-0.1791,-0.36844,0.32104,0.0216
0.54238,0.82984,-0.13112,-0.24353,0.28466,-0.06322
0.53938,0.83828,-0.07967,0.05182,0.08149,0.19076
0.53461,0.84481,-0.02184,0.08062,0.02843,0.16305
0.52844,0.84803,0.03987,0.08905,-0.03147,0.16219
0.51665,0.85074,0.09658,0.06453,-0.06134,0.07212
0.50261,0.85237,0.14438,0.07338,-0.1109,-0.02205
0.49315,0.85056,0.18263,0.12381,-0.03402,-0.02197
0.48576,0.84813,0.21143,0.05861,0.01205,-0.08831
0.48061,0.84545,0.23285,-0.07909,0.02497,-0.22971
0.4765,0.84286,0.25007,-0.17778,0.00214,-0.21276
0.47008,0.84219,0.26408,-0.22732,-0.04912,-0.15345
0.46016,0.84418,0.27498,-0.13797,-0.04628,-0.12738
0.44717,0.84761,0.28563,-0.05029,-0.01654,-0.13169
0.43291,0.85106,0.29712,0.02818,-0.03315,-0.09242
0.41867,0.85443,0.30767,0.09407,-0.02191,0.02258
0.40583,0.85729,0.3168,0.10626,0.00513,-0.18874
0.39418,0.85967,0.32495,0.11006,-0.00409,-0.21347
0.38232,0.86119,0.33493,0.09697,-0.01897,-0.18508
0.37093,0.86254,0.34414,0.04609,-0.02815,-0.23345
0.35935,0.86436,0.35179,0.06175,-0.02322,-0.27056
0.34832,0.86558,0.35979,0.29243,-0.11178,-0.33921
0.34019,0.86523,0.3683,0.30056,-0.11143,-0.34771
0.33571,0.86328,0.37689,0.37208,-0.03381,-0.38212
0.33399,0.86088,0.38384,0.36578,0.01288,-0.38782
0.33298,0.86009,0.38648,0.35579,0.02901,-0.3747
0.3316,0.86124,0.3851,0.28821,0.05476,-0.34194
0.3344,0.86294,0.37882,0.20144,0.1781,-0.21988
0.34584,0.86437,0.36504,0.08862,0.44049,-0.02628
0.36479,0.86374,0.34767,-0.00829,0.3605,-0.22731
0.38336,0.86478,0.32435,-0.05085,0.23973,-0.44268
0.39828,0.87183,0.2851,-0.00592,0.23112,-0.379
0.41004,0.88235,0.23093,0.00459,0.46227,-0.50562
0.4161,0.89302,0.17142,-0.19129,0.70698,-0.55154
0.41523,0.90269,0.11282,-0.46262,0.58777,0.06421
0.41444,0.90806,0.0605,-0.54475,0.44112,0.24634
0.41443,0.91007,-0.00287,-0.37314,0.26423,0.26659
0.41197,0.90662,-0.09121,-0.18295,0.1255,0.16584
0.41145,0.89508,-0.17186,-0.09405,0.04539,-0.02503
0.41416,0.8815,-0.22676,0.01954,0.05595,-0.05359
0.42449,0.86751,-0.25931,0.15344,-0.01378,-0.02851
0.43956,0.85323,-0.2807,0.19644,-0.10742,-0.02669
0.45246,0.83896,-0.30237,0.13543,-0.22135,0.07959
0.45956,0.82712,-0.32354,-0.12468,-0.3262,0.17084
0.46109,0.82124,-0.33609,-0.44219,-0.51497,0.19844
0.45699,0.82291,-0.3376,-0.56838,-0.65621,0.18902
0.44805,0.83218,-0.32669,-0.5398,-0.64332,0.09169
0.43815,0.84681,-0.30156,-0.31784,-0.54702,-0.11603
0.42677,0.86586,-0.26106,0.01045,-0.40568,-0.37793
0.41449,0.88457,-0.21385,0.20917,-0.21707,-0.63492
0.40896,0.89462,-0.18003,0.48617,0.11817,-0.72703
0.40609,0.89812,-0.16871,0.48281,0.25736,-0.53859
0.40802,0.89702,-0.16991,0.16428,0.14208,-0.40404
0.41386,0.8946,-0.16857,0.02009,-0.10036,-0.21977
0.42307,0.89228,-0.15762,0.13938,0.6894,0.16821
0.42004,0.89703,-0.13751,0.04102,1.56704,0.21364
0.42153,0.89855,-0.12213,-0.493,0.45517,0.04319
0.44493,0.88854,-0.112,-0.51548,-0.02721,-0.24989
0.45441,0.88414,-0.1087,-0.70143,-0.09488,-0.45978
0.45032,0.8882,-0.09118,-0.56049,-0.25496,0.54829
0.44215,0.89622,-0.03597,-0.45246,-0.10331,0.8025
0.42514,0.90476,0.02573,-0.27982,0.22974,0.69176
0.40496,0.91118,0.07584,-0.10026,0.19485,0.32702
0.39515,0.91275,0.10367,0.4105,0.16443,-0.16162
0.38639,0.91273,0.1328,0.45778,0.02799,0.01541
0.37948,0.91224,0.15433,0.28278,-0.05135,0.21559
0.37797,0.91146,0.16238,0.13252,-0.06637,0.0321
0.37931,0.91002,0.16731,0.07597,-0.10939,0.02014
0.38032,0.90937,0.16855,0.0964,-0.15471,0.04791
0.38172,0.90869,0.16904,0.19497,-0.13807,-0.04395
0.38472,0.90714,0.17055,0.23207,-0.13658,-0.06386
0.38838,0.9055,0.17097,0.17522,-0.13107,-0.07568
0.3914,0.90432,0.17033,0.07862,-0.09483,-0.02528
0.39357,0.9034,0.17018,0.01536,-0.16665,-0.10403
0.39425,0.90418,0.16438,0.05363,-0.18414,-0.25685
0.38871,0.90843,0.15378,0.05901,-0.153,-0.10001
0.37558,0.91424,0.15202,0.09985,-0.0234,0.0037
0.35697,0.92006,0.16144,0.32646,0.08829,0.16249
0.33979,0.92399,0.17547,0.82381,0.39651,-0.56118
0.3264,0.92643,0.1876,0.69715,0.43221,-0.48573
0.31683,0.92726,0.19953,0.53077,0.43456,-0.28646
0.30941,0.92836,0.20592,0.10453,0.68713,-0.22869
0.30242,0.92974,0.21008,0.05366,0.62909,-0.33476
0.29433,0.93395,0.20275,0.03493,0.55987,-0.4159
0.28795,0.94033,0.1813,0.33592,0.13206,-0.0348
0.28467,0.94737,0.14646,0.31924,0.00791,0.09372
0.28828,0.95229,0.1002,0.23778,-0.05715,0.14657
0.29836,0.95304,0.05184,-0.08825,0.12983,-0.06733
0.31226,0.94998,0.0046,-0.13564,0.15052,0.01955
0.33252,0.94228,-0.03914,-0.17715,0.25138,0.07546
0.35864,0.92977,-0.08312,-0.07562,0.25489,0.09579
0.38728,0.91103,-0.14155,0.07343,0.32987,0.09341
0.41621,0.88489,-0.20915,0.02219,0.28702,0.27061
0.43965,0.85403,-0.27811,-0.08449,0.15522,0.43502
0.45487,0.82155,-0.34374,-0.15167,-0.04373,0.39176
0.46465,0.78777,-0.40437,-0.09073,-0.09028,0.14112
0.46906,0.7554,-0.45756,-0.19471,-0.10264,-0.08073
0.46657,0.7273,-0.50333,-0.21755,-0.1871,-0.06858
0.45313,0.70486,-0.54575,-0.10567,-0.16711,0.11018
0.43288,0.69171,-0.57805,-0.08592,-0.14463,0.15749
0.4146,0.68804,-0.59558,-0.08956,-0.1389,0.1962
0.39838,0.69279,-0.60111,-0.13724,-0.14077,0.1375
0.38463,0.70476,-0.59613,-0.19695,-0.23568,0.13049
0.37401,0.72157,-0.58262,-0.25881,-0.41611,0.06947
0.3665,0.73854,-0.5659,-0.13095,-0.45794,-0.1223
0.36624,0.75349,-0.546,0.03517,-0.40771,0.31934
0.37315,0.77359,-0.51217,-0.26071,-0.25711,0.34955
0.38231,0.79481,-0.47129,-0.30861,0.12938,-0.14104
0.39085,0.81191,-0.43363,0.1834,0.62281,0.04564
0.41018,0.83217,-0.37315,0.0239,0.47755,0.72746
0.42276,0.8499,-0.31457,-0.08151,0.33361,0.02591
0.42241,0.86161,-0.28141,0.25386,0.11083,0.28653
0.42603,0.87349,-0.23563,0.18151,-0.03359,0.32513
0.42873,0.8821,-0.19518,0.10017,-0.09607,0.3481
0.42627,0.8889,-0.16779,-0.13122,-0.02225,0.26919
0.41897,0.89595,-0.14744,-0.16507,0.0468,0.10322
0.40739,0.9041,-0.12897,-0.02573,0.00352,0.03929
0.39377,0.91244,-0.11133,0.09794,-0.08714,0.0855
0.38229,0.91949,-0.09164,0.14595,-0.1005,0.11186
0.37485,0.92435,-0.07113,0.19188,-0.14158,0.11764
0.36824,0.92819,-0.0535,0.22818,-0.16986,0.08705
0.35964,0.93211,-0.0427,0.21129,-0.18518,0.1148
0.34964,0.93609,-0.03858,0.1619,-0.21812,0.08458
0.34039,0.93949,-0.03858,0.12411,-0.20614,0.07293
0.33322,0.94207,-0.03832,0.08014,-0.16894,0.06641
0.32594,0.94463,-0.03793,0.03803,-0.14758,0.02485
0.31788,0.94737,-0.0381,0.02944,-0.12167,-0.00812
0.30915,0.95022,-0.03877,0.03279,-0.10722,-0.04371
0.30002,0.95319,-0.03766,0.05824,-0.07799,0.0337
0.28986,0.95645,-0.03439,0.12419,-0.01682,0.04067
0.27814,0.96014,-0.02789,0.20872,-0.00532,0.06011
0.26526,0.96403,-0.01695,0.29123,-0.03372,0.05578
0.2541,0.96718,-0.00194,0.35613,-0.1064,0.00443
0.24,0.97065,0.01517,0.38416,-0.08369,-0.04155
0.22708,0.97325,0.03479,0.4693,0.27467,-0.00203
0.21777,0.97476,0.04914,0.38988,0.43349,0.09518
0.21394,0.97518,0.05709,0.23927,0.3417,-0.15473
0.21121,0.9754,0.06312,0.20282,0.46419,-0.212
0.20945,0.97593,0.06071,0.26295,0.52346,-0.28171
0.20861,0.97688,0.04678,0.28072,0.35758,-0.26284
0.21045,0.97739,0.0204,0.21842,0.13218,-0.12524
0.21611,0.97618,-0.01931,0.09818,0.00801,-0.13151
0.2244,0.97208,-0.06861,0.02578,0.05427,-0.26248
0.23438,0.96456,-0.12124,-0.06677,0.14499,-0.46831
0.24903,0.95287,-0.17326,0.0462,0.12418,-0.14778
0.26547,0.93504,-0.23502,0.11811,0.21386,0.15025
0.28015,0.91143,-0.30136,0.06957,0.38791,0.37694
0.29708,0.88551,-0.35722,0.04322,0.26904,0.54303
0.31148,0.86058,-0.40297,-0.16554,0.08897,0.53807
0.31759,0.83765,-0.44439,-0.13987,-0.02025,0.58377
0.32719,0.81209,-0.48318,-0.1385,-0.04788,0.28857
0.3365,0.78097,-0.52617,-0.09433,0.03987,-0.04641
0.33443,0.74697,-0.57462,-0.17087,-0.01431,0.04129
0.32932,0.7127,-0.61936,-0.45345,-0.15565,0.08786
0.32107,0.68384,-0.6552,-0.39532,-0.20521,0.18724
0.31237,0.6639,-0.67946,-0.11412,-0.20836,0.09173
0.30521,0.65185,-0.69421,0.15777,-0.13809,0.04594
0.3002,0.64724,-0.70069,0.20854,-0.07825,-0.00991
0.2949,0.65247,-0.69808,0.16353,-0.11299,-0.00576
0.28859,0.66598,-0.68788,-0.07723,-0.29854,0.06477
0.28222,0.68443,-0.67224,-0.16045,-0.26806,-0.02026
0.28101,0.70379,-0.65247,-0.07102,-0.32462,-0.08082
0.29301,0.72346,-0.62511,0.03103,-0.23786,0.32777
0.30818,0.74708,-0.58898,0.01585,-0.26148,0.29165
0.32575,0.76519,-0.55532,-0.12364,0.40441,-0.3891
0.33787,0.78492,-0.51937,0.13348,0.59357,0.20724
0.35864,0.81348,-0.45785,-0.11907,0.22848,0.53309
0.37113,0.83783,-0.40038,-0.17063,0.07466,0.20625
0.3816,0.854,-0.35364,0.11567,0.10082,0.31571
0.39411,0.86874,-0.29995,0.1127,0.06706,0.2875
0.40175,0.87948,-0.25516,0.09069,0.05011,0.28794
0.40359,0.88701,-0.22434,0.02033,0.11641,0.09952
0.40014,0.89421,-0.20067,0.02614,0.10876,-0.01848
0.39316,0.90215,-0.17762,0.07414,0.05221,-0.04534
0.38716,0.90913,-0.15357,0.09238,-0.25984,0.14504
0.3841,0.91405,-0.13032,0.09249,-0.27023,0.11589
0.37957,0.91883,-0.10803,0.0951,-0.26704,0.08157
0.37186,0.92429,-0.08604,0.06413,-0.21392,0.1426
0.35894,0.93069,-0.07055,0.07811,-0.18199,0.15102
0.34403,0.93663,-0.06608,0.23248,-0.06749,0.08047
0.33126,0.94113,-0.06733,0.26076,-0.10816,0.07107
0.32119,0.94437,-0.07072,0.23454,-0.14629,0.10068
0.31346,0.94688,-0.0718,0.06859,-0.17082,0.0022
0.306,0.94949,-0.06957,0.05933,-0.10024,0.04489
0.29779,0.95226,-0.0673,0.03345,-0.0047,0.14223
0.28738,0.95588,-0.06089,0.08511,-0.00147,0.05633
0.27461,0.96027,-0.04968,0.24208,0.03465,-0.10044
0.26032,0.96476,-0.03844,0.32148,0.0718,-0.1576
0.24789,0.96855,-0.02167,0.41974,0.10522,-0.08619
0.23675,0.97157,-0.00123,0.41986,0.28793,-0.01801
0.2279,0.97354,0.0165,0.38121,0.37353,0.04836
0.22119,0.97473,0.03113,0.29124,0.35179,-0.24224
0.21497,0.97578,0.04061,0.28981,0.41541,-0.26375
0.21187,0.97665,0.03575,0.31154,0.52177,-0.24879
0.21093,0.9774,0.01398,0.19929,0.22069,-0.18256
0.21273,0.97686,-0.022,0.06071,0.04981,-0.134
0.21868,0.97344,-0.06775,0.00628,0.01524,-0.13925
0.22781,0.96648,-0.1184,0.01064,0.02041,-0.05808
0.24341,0.95503,-0.16932,0.08946,0.04747,0.02378
0.26727,0.93849,-0.21863,0.21841,0.16357,0.15111
0.29753,0.91723,-0.2649,0.13039,0.31417,0.17045
0.32688,0.89304,-0.30925,0.04347,0.30592,0.36633
0.347,0.86867,-0.35357,-0.21817,0.14748,0.46407
0.35579,0.84594,-0.39725,-0.25613,0.00225,0.53415
0.35962,0.82332,-0.4391,-0.13507,-0.01665,0.29534
0.35991,0.79843,-0.48267,-0.05856,-0.04572,0.10389
0.35843,0.76849,-0.53005,-0.01584,-0.08651,-0.00813
0.35202,0.73807,-0.57562,-0.19206,-0.14112,0.09286
0.34217,0.71131,-0.61397,-0.27788,-0.25217,0.24642
0.33097,0.68949,-0.64425,-0.21829,-0.27345,0.27602
0.32266,0.6729,-0.66566,-0.13336,-0.28904,0.26957
0.3173,0.66238,-0.67865,-0.10102,-0.1891,0.17037
0.31172,0.65994,-0.6836,-0.05324,-0.17547,0.1107
0.30615,0.66428,-0.68191,-0.03648,-0.25126,0.05845
0.30179,0.67358,-0.67469,-0.00921,-0.29226,0.03453
0.29932,0.68571,-0.66348,0.05644,-0.22511,-0.0477
0.30083,0.70008,-0.6476,0.28576,-0.28162,-0.08282
0.31305,0.71677,-0.62309,0.36652,-0.33237,0.05571
0.33268,0.73482,-0.59107,0.29558,-0.30789,0.10048
0.35354,0.74709,-0.56291,-0.23376,0.89292,-0.63047
0.35495,0.76668,-0.53499,-0.05798,0.77841,-0.25637
0.36716,0.79211,-0.48761,0.13784,0.55656,0.26954
0.38487,0.81528,-0.43265,0.00049,0.13317,0.19037
0.3963,0.83393,-0.38407,-0.02256,0.10374,0.17005
0.40415,0.85158,-0.33387,-0.03798,0.04788,0.17744
0.40926,0.86769,-0.28217,-0.06534,-0.01302,0.35944
0.40924,0.88065,-0.23871,-0.05724,0.06006,0.26164
0.40428,0.89217,-0.20148,-0.03762,0.12634,0.17131
0.39759,0.90259,-0.16508,0.09846,0.01597,0.07614
0.38928,0.91181,-0.13062,0.12457,-0.05681,0.08625
0.37839,0.91996,-0.10245,0.10228,-0.14823,0.06754
0.36512,0.92746,-0.08063,0.12237,-0.20629,0.08654
0.35257,0.93381,-0.06085,0.17655,-0.20311,0.09508
0.34091,0.93913,-0.04264,0.23037,-0.21481,0.0712
0.33091,0.94316,-0.03061,0.24265,-0.2143,0.11331
0.31945,0.94723,-0.02648,0.14251,-0.18396,0.10802
0.31083,0.9502,-0.02234,0.08115,-0.18172,0.05482
0.3033,0.95273,-0.01795,0.05282,-0.18551,0.03278
0.29663,0.95492,-0.01219,0.04586,-0.1838,0.02557
0.29064,0.95681,-0.00577,0.02473,-0.14207,-0.0284
0.28508,0.9585,-0.00167,0.04301,-0.15244,0.01055
0.27932,0.96019,0.0036,0.07284,-0.13495,0.16782
0.27194,0.96221,0.01431,0.1476,-0.07152,0.0255
0.26346,0.96422,0.02931,0.22415,-0.05562,-0.1351
0.25461,0.96602,0.04444,0.3724,-0.03946,-0.25186
0.24581,0.96733,0.06209,0.37541,0.1254,-0.07935
0.23844,0.96785,0.08014,0.28714,0.35474,-0.12012
0.23289,0.9682,0.09137,0.28894,0.48019,-0.12732
0.22771,0.96892,0.09668,0.20874,0.64812,-0.18073
0.22365,0.97036,0.0915,0.25337,0.65801,-0.14892
0.22084,0.9729,0.06849,0.26893,0.40912,-0.12799
0.22132,0.97474,0.02985,0.19475,0.21163,-0.04157
0.22759,0.97357,-0.01901,0.12132,0.0948,-0.04915
0.23773,0.96858,-0.07309,0.05746,0.09031,-0.0783
0.25397,0.95909,-0.12507,0.05369,0.16031,-0.04577
0.28052,0.94434,-0.17188,0.18764,0.2179,0.12525
0.31188,0.92356,-0.22311,0.15796,0.34178,0.09843
0.34179,0.89853,-0.27537,0.01274,0.3652,0.2924
0.3617,0.87364,-0.32545,-0.14026,0.26282,0.44025
0.36876,0.85203,-0.37157,-0.15679,0.15745,0.51079
0.37464,0.82815,-0.41691,-0.14846,-0.10668,0.40639
0.37525,0.80028,-0.4677,-0.0077,-0.02509,0.00182
0.36756,0.76968,-0.52201,0.04218,-0.01629,0.01633
0.35308,0.73968,-0.57289,-0.15497,-0.1313,0.19859
0.33524,0.71572,-0.61266,-0.30489,-0.35533,0.38974
0.32004,0.69885,-0.63967,-0.30556,-0.38658,0.41031
0.31197,0.68657,-0.65674,-0.28052,-0.36677,0.38316
0.30772,0.68018,-0.66534,-0.06803,-0.14409,0.15595
0.30402,0.68134,-0.66584,-0.03008,-0.11814,0.09359
0.30096,0.68965,-0.65864,0.0134,-0.16568,0.07569
0.29818,0.70196,-0.6468,-0.04988,-0.35525,0.04493
0.29775,0.71435,-0.63329,-0.00742,-0.35944,-0.05824
0.30556,0.72756,-0.61424,0.11191,-0.40467,-0.05037
0.31666,0.75015,-0.58052,-0.00379,-0.40126,0.18069
0.33422,0.76799,-0.54634,-0.02135,-0.4191,0.14652
0.3477,0.7765,-0.5255,0.01059,0.79564,-0.81872
0.36656,0.7923,-0.48773,0.16905,0.57043,0.49443
0.3829,0.81182,-0.44083,-0.03156,0.42724,0.00361
0.38559,0.82491,-0.41332,-0.04999,0.38819,-0.41958
0.39184,0.84057,-0.37404,-0.14054,-0.18719,0.38487
0.40069,0.85548,-0.32804,-0.23367,-0.25036,0.39948
0.40846,0.86735,-0.28435,-0.27132,-0.25705,0.44336
0.40894,0.87947,-0.2435,-0.13868,0.20865,0.14578
0.39885,0.89334,-0.20702,-0.06056,0.28888,0.02381
0.39011,0.90417,-0.17403,0.06963,0.24331,0.08309
0.38592,0.91075,-0.14698,0.09411,0.10277,0.14389
0.38339,0.91512,-0.12473,0.03053,-0.03222,0.0983
0.38073,0.91876,-0.10457,0.07212,-0.12173,0.07772
0.37624,0.92251,-0.08612,0.16279,-0.15965,0.10124
0.3698,0.92653,-0.06926,0.16032,-0.23437,0.14012
0.36327,0.93016,-0.05336,0.22339,-0.2136,0.12553
0.35529,0.93377,-0.04294,0.22909,-0.15765,0.09364
0.34832,0.9367,-0.03565,0.17312,-0.07174,0.02601
0.34366,0.93863,-0.0296,0.10276,-0.09123,-0.04026
0.33727,0.9411,-0.02402,0.05072,-0.05515,-0.04675
0.33017,0.94373,-0.01911,0.04223,-0.03699,-0.03539
0.3325,0.94273,-0.02646,0.06061,-0.09434,-0.02612
0.32147,0.94668,-0.02138,0.09891,-0.1041,0.005
0.31755,0.9482,-0.00943,0.19038,-0.01597,0.05119
0.30655,0.95183,0.00654,0.23311,-0.04105,-0.00129
0.29551,0.95497,0.0266,0.25028,-0.0576,-0.06435
0.28531,0.95722,0.04822,0.32982,0.10835,-0.24533
0.27752,0.95835,0.06739,0.28936,0.36361,-0.35459
0.27301,0.95885,0.07786,0.23605,0.52796,-0.21762
0.27046,0.95996,0.07304,0.14308,0.58989,-0.07967
0.26971,0.96118,0.05831,0.08732,0.54447,0.02203
0.27087,0.96212,0.03103,0.1018,0.2545,0.09244
0.27467,0.9615,-0.00843,0.03382,0.02988,-0.01625
0.28272,0.95768,-0.05395,-0.05915,-0.00126,-0.1525
0.29612,0.94972,-0.10175,-0.05364,0.01972,-0.21443
0.31512,0.93665,-0.15295,0.04848,0.02815,-0.02652
0.34342,0.91654,-0.20497,0.34876,0.18818,0.11656
0.37727,0.89113,-0.25211,0.23838,0.36972,0.11913
0.4039,0.86346,-0.30215,-0.06435,0.38383,0.22014
0.40602,0.83709,-0.36665,-0.23412,0.27189,0.41188
0.38751,0.82334,-0.41467,-0.12243,-0.07506,0.41998
0.38304,0.79553,-0.46949,-0.10991,-0.09863,0.25933
0.37738,0.76338,-0.52425,-0.07799,-0.0444,0.174
0.36045,0.72983,-0.58088,-0.29263,0.0796,0.23838
0.34112,0.69886,-0.62868,-0.2733,0.11058,0.28618
0.33137,0.67089,-0.66341,-0.25482,-0.21291,0.33336
0.3269,0.64562,-0.69015,-0.1242,-0.24181,0.14853
0.3174,0.62491,-0.71326,-0.0234,-0.14014,0.0926
0.3003,0.61117,-0.73232,-0.03849,-0.12084,0.15222
0.27914,0.6068,-0.74423,-0.10121,-0.17031,0.20283
0.26099,0.61228,-0.74632,-0.0889,-0.38513,0.15751
0.24992,0.62639,-0.73836,-0.04717,-0.44144,0.11847
0.24515,0.64562,-0.72324,-0.04794,-0.37281,0.06021
0.24244,0.66443,-0.70694,-0.01821,-0.31566,-0.23649
0.2439,0.67823,-0.6932,0.31852,-0.27138,-0.33131
0.25169,0.69438,-0.67416,0.34261,-0.20409,-0.02915
0.26399,0.7123,-0.65034,0.14815,0.20958,-0.35394
0.28067,0.72981,-0.62338,0.19922,0.58409,-0.49198
0.30113,0.75333,-0.58465,0.21839,0.43456,0.26955
0.31792,0.77951,-0.53971,-0.22003,0.08087,0.13363
0.33495,0.79925,-0.49901,-0.15557,0.05433,0.32843
0.36052,0.81757,-0.449,-0.19061,0.04971,0.41014
0.38558,0.83465,-0.39329,-0.20438,0.07077,0.33774
0.40466,0.84879,-0.34031,-0.08909,0.13691,0.27155
0.41512,0.86151,-0.29236,-0.05168,0.19227,0.11174
0.41595,0.87434,-0.25004,0.00736,0.17513,0.09049
0.41193,0.88766,-0.20583,0.08842,0.11548,0.1939
0.40556,0.89993,-0.16016,0.10577,0.05311,0.28406
0.40084,0.90817,-0.12064,0.11213,0.04889,0.25075
0.39867,0.91282,-0.08845,0.15492,-0.05004,0.12782
0.39674,0.91587,-0.06145,0.14948,-0.17146,0.05289
0.39227,0.91877,-0.04453,0.12004,-0.17097,0.09613
0.39045,0.91994,-0.03548,0.09309,-0.15023,0.11536
0.39124,0.91986,-0.0281,0.01014,-0.22226,0.06988
0.39196,0.91972,-0.02199,-0.05145,-0.27629,0.01158
0.3926,0.91956,-0.01675,-0.06137,-0.27709,0.0216
0.39431,0.91891,-0.01143,-0.05767,-0.23395,0.07623
0.39774,0.91748,-0.00642,-0.0685,-0.18061,0.09488
0.40194,0.91566,-0.0035,-0.06811,-0.16833,0.0077
0.40583,0.91394,-0.00447,-0.03242,-0.16923,-0.00949
0.40874,0.91261,-0.00817,-0.02198,-0.12489,0.07705
0.41042,0.91182,-0.01183,-0.04929,-0.09257,0.14262
0.41095,0.91154,-0.01467,-0.095,-0.02448,0.14637
0.40916,0.91231,-0.01675,-0.07387,-0.02461,0.15696
0.39524,0.9184,0.01818,-0.03076,-0.00874,0.11841
0.38809,0.92142,0.01914,0.1718,-0.06893,0.05752
0.38049,0.9246,0.0183,0.20654,-0.0482,0.09884
0.37128,0.92829,0.02089,0.29105,0.10095,-0.02423
0.36045,0.93241,0.02632,0.37355,0.18733,0.03351
0.34831,0.93683,0.03202,0.40343,0.20622,0.02994
0.33466,0.94141,0.04189,0.47622,0.27345,-0.04259
0.32144,0.94528,0.05583,0.50058,0.40488,0.17635
0.31036,0.94789,0.07203,0.48969,0.28098,0.01404
0.30027,0.94973,0.08864,0.36463,0.39874,-0.17621
0.28752,0.95204,0.10468,0.28781,0.5645,-0.31168
0.27116,0.95575,0.11406,0.35504,0.6683,-0.37482
0.25514,0.96003,0.11512,0.38576,0.31289,-0.23179
0.24334,0.96367,0.11013,0.04197,0.03026,-0.2812
0.23526,0.96703,0.09748,-0.06654,-0.05356,-0.27549
0.23059,0.96979,0.0796,-0.16757,-0.26895,-0.30595
0.23163,0.97113,0.05697,-0.10055,-0.361,-0.25478
0.23927,0.97049,0.02991,-0.04467,-0.42943,0.05807
0.25562,0.96678,-0.00144,-0.03465,-0.3265,0.19685
0.27672,0.96026,-0.03641,-0.12794,-0.00085,0.07013
0.29623,0.95223,-0.07416,-0.24523,0.09902,-0.00144
0.31332,0.94278,-0.11402,-0.37314,0.22142,-0.12844
0.32862,0.93225,-0.15138,-0.55063,0.20624,0.08897
0.33983,0.92061,-0.19235,-0.57535,0.12628,0.18841
0.34124,0.90707,-0.24652,-0.60426,0.0701,0.23758
0.33138,0.89262,-0.30565,-0.38669,0.00764,0.34433
0.31342,0.87776,-0.36236,-0.28762,0.01753,0.27334
0.29762,0.86131,-0.41179,-0.15141,-0.02963,0.11746
0.29291,0.84362,-0.45002,0.13693,0.07768,0.09357
0.29705,0.82645,-0.47827,0.08693,0.05368,0.11629
0.30421,0.81057,-0.50043,-0.05116,-0.10529,0.15212
0.30695,0.79668,-0.52066,-0.06,-0.13601,0.24814
0.30368,0.78506,-0.53987,-0.06141,-0.13529,0.23835
0.2985,0.77784,-0.55305,-0.08976,-0.3428,0.16087
0.29391,0.77596,-0.55812,-0.21129,-0.40696,0.11692
0.29182,0.77821,-0.55608,-0.23829,-0.3605,0.1195
0.29216,0.78388,-0.54788,-0.21563,-0.31359,0.09344
0.29416,0.79258,-0.53412,-0.13144,-0.21307,0.02687
0.29641,0.80454,-0.51465,-0.071,-0.17964,0.01195
0.2995,0.81767,-0.49164,-0.01089,-0.13132,-0.01997
0.3045,0.83037,-0.46666,-0.07039,-0.11675,-0.14774
0.3118,0.84156,-0.44109,-0.07071,-0.09484,-0.26296
0.31891,0.84944,-0.42042,0.01122,0.04309,-0.46834
0.32509,0.85181,-0.41078,0.23796,0.27615,-0.59144
0.32867,0.85253,-0.40641,0.11992,0.17706,-0.5218
0.33314,0.85281,-0.40216,0.03445,-0.11346,-0.47168
0.3408,0.84989,-0.40192,0.03353,0.07195,-0.27778
0.35132,0.84443,-0.40437,-0.25865,0.84364,0.33665
0.34977,0.84425,-0.40609,-0.614,1.07598,0.48783
0.34236,0.84412,-0.41261,-0.99892,0.63199,-0.39542
0.35009,0.84539,-0.40343,-0.30197,-0.03037,0.29644
0.35713,0.85785,-0.36953,-0.30328,-0.32541,0.48918
0.3689,0.86858,-0.33088,0.05506,0.0728,0.75255
0.39072,0.87556,-0.28413,0.04738,0.21598,0.83564
0.41397,0.88243,-0.22346,-0.02991,0.26472,0.79799
0.43737,0.88484,-0.16054,-0.07949,0.27732,0.32288
0.4563,0.88229,-0.11552,-0.01656,0.32428,0.01487
0.46827,0.88041,-0.07485,-0.06124,0.07685,-0.03755
0.47852,0.87725,-0.03822,-0.1514,-0.0542,0.15535
0.48673,0.87355,-0.00146,-0.27542,-0.04499,0.1399
0.48891,0.8715,0.03803,-0.39021,-0.05278,0.2638
0.4836,0.87239,0.07115,-0.33798,-0.0206,0.37724
0.47625,0.87404,0.0961,-0.13979,0.0601,0.41763
0.47265,0.87355,0.11626,0.12369,0.07843,0.29887
0.47506,0.86993,0.13245,0.40453,-0.01984,0.10412
0.48044,0.86475,0.14622,0.48973,-0.09851,-0.08334
0.48867,0.85822,0.15703,0.21601,-0.09435,-0.1349
0.49949,0.85069,0.16381,-0.02297,-0.10339,0.01937
0.5096,0.84361,0.16919,-0.09571,-0.15858,0.095
0.51753,0.83745,0.17561,-0.00138,-0.25246,-0.05725
0.52396,0.83238,0.18058,0.03503,-0.18008,-0.24584
0.52889,0.82904,0.18159,0.06008,-0.04345,-0.38358
0.53327,0.82823,0.17219,0.17939,-0.05699,-0.57591
0.53258,0.83065,0.16241,-0.04674,-0.02705,0.25049
0.52411,0.83415,0.17176,0.10498,-0.09645,0.1545
0.51348,0.8391,0.17959,0.28771,0.19984,-0.40611
0.50211,0.845,0.18399,0.3247,0.36032,-0.35653
0.48951,0.85106,0.18995,0.16529,0.43976,-0.05254
0.47475,0.8572,0.19957,0.15898,0.59097,-0.18374
0.45702,0.86428,0.21014,0.17222,0.57106,-0.16375
0.43768,0.87078,0.22402,0.18892,0.4761,-0.11536
0.42249,0.87619,0.23194,0.39378,0.33364,-0.08552
0.41183,0.88194,0.2293,0.32813,0.23317,-0.08139
0.4064,0.88783,0.21587,0.11066,0.20485,-0.06762
0.40594,0.89366,0.19126,-0.10316,0.14932,-0.19542
0.40701,0.89976,0.15741,-0.25583,0.09937,-0.28219
0.40984,0.90428,0.1196,-0.26336,0.0548,-0.20425
0.41472,0.90633,0.08105,-0.17986,-0.01813,-0.0136
0.4196,0.90676,0.04154,-0.12825,-0.02603,0.09472
0.42572,0.90485,0.00194,-0.16486,0.16398,0.03215
0.43935,0.89751,-0.03803,-0.08875,0.32368,-0.0463
0.45887,0.88419,-0.08742,-0.08501,0.33517,-0.07239
0.47978,0.86469,-0.14875,-0.1201,0.27351,0.07753
0.4958,0.83998,-0.22048,-0.11825,0.17921,0.25856
0.50543,0.81137,-0.29363,-0.08434,0.1408,0.31002
0.51171,0.77939,-0.36154,-0.0875,0.12013,0.20716
0.51682,0.74623,-0.41956,-0.16907,0.1313,0.04076
0.51658,0.71367,-0.4731,-0.17997,0.10721,0.02405
0.51098,0.68209,-0.52312,-0.27116,0.00166,0.11842
0.50089,0.65125,-0.57007,-0.28487,-0.01661,0.20267
0.48453,0.6259,-0.61113,-0.27558,-0.0767,0.2193
0.46969,0.60756,-0.64052,-0.29301,-0.07509,0.20248
0.45454,0.59651,-0.66149,-0.22348,-0.07004,0.0701
0.43861,0.59396,-0.67442,-0.12591,-0.02056,-0.0015
0.42567,0.59858,-0.67861,-0.1013,-0.01601,-0.0108
0.41431,0.60964,-0.67579,-0.18821,-0.16887,0.03159
0.40473,0.62352,-0.66889,-0.16147,-0.27332,-0.03199
0.40364,0.63555,-0.65814,0.03473,-0.36992,-0.00509
0.41433,0.65238,-0.63461,-0.09066,-0.40173,0.39779
0.43318,0.68075,-0.59071,-0.36016,-0.41128,0.42431
0.46171,0.70813,-0.53421,-0.78593,0.14583,-0.27095
0.45961,0.73097,-0.50443,-0.23836,0.98784,-0.42244
0.47408,0.75782,-0.44829,0.12613,0.55116,0.90862
0.49914,0.78591,-0.36497,-0.0767,0.36555,0.31268
0.5152,0.80057,-0.30602,0.20486,0.40406,0.07598
0.52534,0.81231,-0.25331,0.19443,0.21433,0.20148
0.52868,0.82365,-0.20517,0.01639,0.06447,0.26861
0.52593,0.83413,-0.16618,-0.1037,0.01741,0.25565
0.51905,0.84443,-0.13241,-0.18129,0.03915,0.13009
0.50939,0.85427,-0.10367,-0.18541,0.07499,0.03102
0.49935,0.86305,-0.07605,-0.11292,-0.03095,0.10758
0.4902,0.87052,-0.04358,-0.0773,-0.08321,0.13361
0.48053,0.87693,-0.00874,-0.04171,-0.14855,0.13486
0.46861,0.88324,0.01698,0.0753,-0.11673,0.16069
0.45707,0.88891,0.03038,0.16165,-0.11535,0.123
0.44823,0.89322,0.03531,0.10505,-0.12322,-0.06295
0.4416,0.89655,0.03446,0.00244,-0.12056,-0.1207
0.43542,0.89965,0.03221,-0.03565,-0.11749,-0.06636
0.42851,0.90303,0.03033,-0.03834,-0.08747,-0.09409
0.42019,0.90693,0.0304,-0.00928,-0.077,-0.07447
0.41114,0.9109,0.0352,0.03431,-0.07288,-0.00649
0.40148,0.91498,0.04036,0.07404,-0.04603,0.18804
0.39216,0.91879,0.04504,0.09448,-0.01539,0.06406
0.38216,0.92242,0.05566,0.18305,-0.02435,-0.2121
0.37209,0.92579,0.06684,0.29254,0.011,-0.28184
0.36312,0.92838,0.07911,0.28804,0.04015,-0.28518
0.35557,0.93013,0.09185,0.21128,0.17031,-0.02954
0.35119,0.93031,0.10579,0.02985,0.33828,0.0123
0.34929,0.9297,0.11684,-0.06987,0.32663,-0.20091
0.34682,0.92993,0.12223,-0.01233,0.47262,-0.22898
0.34358,0.93181,0.11699,0.1282,0.54506,-0.24177
0.34072,0.93492,0.09912,0.1899,0.43518,-0.13788
0.34125,0.93761,0.06662,0.11025,0.30487,-0.10519
0.34672,0.93767,0.02362,0.04595,0.2525,-0.12317
0.35563,0.93434,-0.02314,-0.14892,0.18236,-0.26229
0.36885,0.9268,-0.07062,0.00715,0.11933,-0.01556
0.38819,0.91407,-0.11742,0.06298,0.17641,0.05289
0.41436,0.89577,-0.16097,0.06413,0.2034,0.02386
0.44481,0.87205,-0.20413,0.00356,0.3313,0.08977
0.47255,0.84557,-0.2484,-0.16833,0.31524,0.22826
0.49136,0.81818,-0.29857,-0.26306,0.24295,0.35201
0.50324,0.78995,-0.35034,-0.24153,-0.12601,0.27074
0.50872,0.76321,-0.3984,-0.20259,-0.13363,0.16817
0.50588,0.73957,-0.44399,-0.17935,-0.11774,0.0632
0.49311,0.71566,-0.49466,-0.25251,-0.07848,0.13116
0.47661,0.68884,-0.5462,-0.29378,-0.05319,0.17729
0.45708,0.66483,-0.59083,-0.35018,-0.09533,0.22079
0.4346,0.64727,-0.62623,-0.28912,-0.26591,0.25918
0.41801,0.63508,-0.64957,-0.26051,-0.23083,0.24373
0.40961,0.62686,-0.66277,-0.19831,-0.10449,0.15186
0.40492,0.62586,-0.66659,-0.17302,-0.02236,0.0185
0.39954,0.63249,-0.66357,-0.14205,-0.08723,-0.04944
0.39351,0.64403,-0.65603,-0.14668,-0.1987,-0.02338
0.38981,0.65689,-0.6454,-0.09034,-0.21826,-0.09451
0.3924,0.66948,-0.63072,0.0268,-0.2365,-0.03012
0.40637,0.68516,-0.60449,-0.01164,-0.14702,0.18668
0.42709,0.70443,-0.56689,-0.13311,0.6048,-0.26436
0.4474,0.72045,-0.52989,-0.17193,0.98742,-0.6223
0.45104,0.7404,-0.49836,-0.00548,0.49899,0.35284
0.45644,0.76439,-0.45538,-0.10175,0.13982,0.19213
0.46055,0.78607,-0.41229,-0.10237,0.12939,0.30354
0.46931,0.80462,-0.36377,-0.1742,0.05218,0.36999
0.47939,0.82236,-0.30646,-0.17624,0.03636,0.39029
0.48077,0.84155,-0.2463,-0.11871,0.1069,0.27209
0.47788,0.85425,-0.20468,-0.03972,0.20563,0.14855
0.47284,0.86531,-0.1663,0.03281,0.13171,0.12765
0.46737,0.87587,-0.1201,0.07455,-0.00068,0.12321
0.45936,0.88489,-0.07719,0.11576,-0.00277,0.12797
0.45108,0.89152,-0.04148,0.12479,-0.00047,0.05567
0.44475,0.8956,-0.01038,0.09549,-0.0621,0.00683
0.44005,0.89782,0.01647,0.00182,-0.096,-0.10037
0.43323,0.90073,0.03163,-0.01851,-0.14914,-0.02421
0.42457,0.90467,0.03619,-0.03306,-0.19878,0.02329
0.41629,0.90857,0.03476,-0.04779,-0.21094,-0.08233
0.4089,0.91204,0.03148,-0.02974,-0.21694,-0.0313
0.40218,0.91508,0.02976,0.00593,-0.25191,0.04138
0.39499,0.9181,0.03282,0.01408,-0.19082,0.05485
0.38767,0.92111,0.03567,0.03286,-0.08277,0.04459
0.38262,0.92308,0.03898,0.04477,-0.04462,0.01405
0.37604,0.9256,0.04304,0.06827,-0.02592,-0.05544
0.36868,0.92814,0.05133,0.27258,0.06529,-0.28597
0.36077,0.93057,0.06237,0.2998,0.06997,-0.26768
0.35138,0.93308,0.0768,0.25992,0.0803,-0.23639
0.34041,0.93564,0.0933,0.22319,0.16773,-0.32014
0.33107,0.93724,0.10944,0.19428,0.26955,-0.34398
0.32468,0.93836,0.11861,0.10882,0.51941,-0.18069
0.3205,0.93952,0.1208,0.05871,0.64905,-0.23352
0.31827,0.94157,0.11026,0.07822,0.56827,-0.20373
0.31787,0.94472,0.08036,0.08825,0.32031,-0.23423
0.32031,0.94665,0.03535,0.06719,0.16283,-0.36188
0.32997,0.94386,-0.01605,0.1374,0.10454,-0.33443
0.35155,0.93373,-0.06756,0.54899,0.0103,0.08126
0.39232,0.91262,-0.11492,0.57174,0.31642,0.09701
0.44154,0.88296,-0.15943,0.09018,0.57224,0.10431
0.47731,0.85271,-0.21228,-0.31233,0.57441,0.29846
0.48658,0.82754,-0.28003,-0.51684,0.34212,0.53276
0.48607,0.80111,-0.34921,-0.52088,0.07004,0.37771
0.48502,0.76928,-0.41588,-0.3024,-0.08659,-0.02351
0.47027,0.73708,-0.48535,-0.27439,-0.23546,0.15462
0.44924,0.70647,-0.54689,-0.28134,-0.22211,0.25314
0.43854,0.6768,-0.59129,-0.31809,-0.20985,0.32484
0.43275,0.64784,-0.62692,-0.14674,-0.04056,0.21149
0.42556,0.62372,-0.65564,-0.12715,0.02034,0.22387
0.41505,0.60748,-0.67727,-0.2586,-0.01994,0.20317
0.39944,0.60061,-0.69262,-0.38641,-0.1961,0.21218
0.38494,0.6031,-0.69864,-0.41925,-0.2942,0.21905
0.37856,0.61446,-0.69219,-0.31669,-0.30439,0.14128
0.37857,0.63188,-0.67632,-0.15132,-0.29489,0.03589
0.38269,0.64856,-0.65797,-0.04887,-0.28401,-0.04607
0.39504,0.66578,-0.63299,0.30034,-0.32318,0.14627
0.41525,0.68582,-0.59768,0.03238,0.01876,0.13743
0.43454,0.70601,-0.55922,-0.29325,0.84819,-0.6062
0.44035,0.72397,-0.531,0.19115,1.02298,-0.11008
0.45019,0.74301,-0.49524,0.21716,0.28935,0.45596
0.46918,0.76764,-0.43658,-0.08941,0.13812,-0.04166
0.47866,0.78444,-0.39438,-0.11082,0.11084,0.14125
0.48533,0.80207,-0.34805,-0.21414,-0.12412,0.36983
0.494,0.81883,-0.29236,-0.26311,-0.14166,0.40413
0.49956,0.83207,-0.24104,-0.20398,0.07072,0.29737
0.49394,0.84572,-0.20193,-0.12898,0.3159,0.06162
0.48248,0.86058,-0.16312,-0.03727,0.31076,0.03811
0.4729,0.87281,-0.1207,0.03441,0.1569,0.1131
0.46321,0.88245,-0.08196,0.04414,0.03093,0.10656
0.45432,0.88952,-0.04834,0.08338,0.00579,0.00146
0.44562,0.89499,-0.02051,0.10115,-0.02595,-0.0065
0.43628,0.89981,-0.00198,0.11109,-0.14503,0.08424
0.42823,0.90364,0.00769,0.08169,-0.16826,0.08242
0.42242,0.9063,0.0135,0.00662,-0.19391,-0.00695
0.4171,0.90866,0.01883,0.00041,-0.22914,0.04059
0.41124,0.91121,0.02394,0.00047,-0.23398,0.01255
0.40538,0.91373,0.02761,0.01375,-0.16616,-0.11745
0.39925,0.91623,0.03354,0.02868,-0.1321,-0.06254
0.3927,0.91889,0.03787,-0.00635,-0.0835,-0.01052
0.38718,0.92122,0.03798,0.02505,-0.09299,0.11878
0.38502,0.92143,0.05223,0.00257,-0.07116,0.12066
0.37797,0.92389,0.05978,0.0022,-0.05438,0.0114
0.36845,0.92697,0.07048,0.16787,-0.06523,-0.40582
0.35863,0.92964,0.08461,0.27715,-0.06016,-0.29985
0.34925,0.9315,0.1016,0.31396,-0.01618,-0.22309
0.3423,0.932,0.11923,0.17782,0.34533,-0.1714
0.33677,0.93194,0.13446,0.08131,0.50338,-0.20639
0.33203,0.9322,0.14409,0.08307,0.64208,-0.33704
0.32906,0.93369,0.14122,0.12715,0.66877,-0.22716
0.32809,0.93726,0.11789,0.12406,0.44247,-0.16675
0.32932,0.94091,0.07898,0.03524,0.23089,-0.12712
0.33496,0.94175,0.0301,-0.00101,0.07456,-0.10111
0.34667,0.93771,-0.0226,0.05449,0.05375,-0.10109
0.36655,0.92751,-0.07327,0.22435,0.1868,-0.09293
0.39584,0.911,-0.1157,0.28591,0.32325,-0.11608
0.43179,0.88749,-0.16102,-1e-05,0.41374,0.20098
0.46508,0.85861,-0.21564,-0.14969,0.41201,0.25502
0.48105,0.83225,-0.27558,-0.25662,0.34487,0.43655
0.48137,0.8144,-0.32409,-0.43694,-0.0241,0.27941
0.48163,0.79205,-0.37509,-0.35698,-0.05351,0.13697
0.47923,0.76712,-0.42645,-0.2068,-0.08716,0.04376
0.47502,0.73828,-0.47886,-0.24011,0.04746,-0.04374
0.46436,0.7111,-0.52793,-0.29099,-0.04641,0.25527
0.45427,0.68894,-0.5648,-0.30995,-0.24096,0.28789
0.44834,0.67146,-0.59003,-0.22737,-0.22453,0.2067
0.44359,0.65841,-0.60805,-0.21648,-0.07603,0.15727
0.43599,0.65125,-0.62111,-0.26203,-0.02479,0.11943
0.42427,0.65193,-0.62848,-0.30124,-0.16482,0.12243
0.41273,0.65942,-0.62834,-0.28759,-0.30784,0.14305
0.4051,0.6712,-0.62079,-0.19791,-0.28751,0.095
0.40137,0.68514,-0.60785,-0.01633,-0.25658,-0.03764
0.40448,0.70004,-0.58851,0.12157,-0.2912,-0.00089
0.41681,0.71679,-0.55899,0.00893,-0.22844,0.0577
0.43254,0.72984,-0.52938,-0.0465,0.48944,-0.37347
0.44986,0.74013,-0.49983,-0.2092,0.6891,-0.16072
0.46213,0.75901,-0.45862,-0.17296,0.41646,0.27054
0.47533,0.7794,-0.40817,-0.18593,0.29982,-0.10784
0.48424,0.79614,-0.36285,-0.02985,0.28317,0.08785
0.49189,0.81394,-0.30908,0.00955,0.07787,0.20569
0.49801,0.82969,-0.2522,-0.0339,-0.02874,0.32259
0.50074,0.84166,-0.20215,-0.08256,0.04771,0.25282
0.49797,0.85228,-0.16014,-0.11467,0.13095,0.1173
0.49115,0.86266,-0.12083,-0.12718,0.07028,0.07673
0.48454,0.87086,-0.08265,-0.04495,0.01422,0.08107
0.47736,0.87741,-0.04774,-0.00812,-0.01038,0.07692
0.46867,0.88316,-0.01948,-0.00126,-0.07274,0.05428
0.46098,0.88739,0.00502,0.00642,-0.07697,0.02979
0.45511,0.88994,0.02972,0.03936,-0.16103,-0.0049
0.44813,0.89245,0.05216,0.03263,-0.22057,0.00494
0.43839,0.89651,0.06394,0.03149,-0.1972,0.03376
0.42875,0.90094,0.06696,0.03452,-0.06227,-0.02408
0.4209,0.90453,0.06835,0.05625,-0.04795,-0.06249
0.41421,0.9077,0.06719,0.06857,-0.06302,-0.04993
0.40732,0.91091,0.06583,0.04269,-0.06309,-0.06296
0.40094,0.91363,0.06728,0.01664,-0.0806,-0.00784
0.39322,0.91672,0.07073,0.00837,-0.01033,-0.06769
0.38367,0.92041,0.0751,0.08009,0.07541,-0.11283
0.37788,0.9224,0.07985,0.20626,0.00296,0.02488
0.36682,0.926,0.0893,0.25867,-0.02419,0.03223
0.35658,0.92847,0.10386,0.26857,-0.03153,-0.21586
0.34543,0.93064,0.12077,0.30009,0.02574,-0.38496
0.337,0.93165,0.13585,0.27303,0.24479,-0.24425
0.33276,0.9318,0.14494,0.12421,0.40888,-0.12219
0.33051,0.93163,0.15108,0.03648,0.419,-0.26271
0.32869,0.93226,0.15119,0.00909,0.49195,-0.22
0.32882,0.9342,0.13837,0.05,0.37636,-0.21598
0.33104,0.93687,0.11267,0.01343,0.1789,-0.20514
0.33691,0.93861,0.07421,-0.0523,0.10048,-0.31225
0.34752,0.9372,0.02987,-0.07239,0.09549,-0.30164
0.363,0.93162,-0.01764,0.08773,0.08754,-0.1529
0.3845,0.92079,-0.06558,0.28165,0.19221,0.0889
0.41531,0.90342,-0.10653,0.13667,0.24827,-0.05657
0.45076,0.8803,-0.14793,-0.10815,0.29856,-0.00088
0.4791,0.85485,-0.19925,-0.34201,0.23504,0.33429
0.49542,0.82901,-0.25942,-0.44759,0.10808,0.3572
0.50374,0.80413,-0.31563,-0.36957,0.00272,0.13342
0.505,0.77973,-0.37013,-0.16927,0.03693,-0.07945
0.49771,0.7534,-0.42975,-0.15394,0.05185,0.00656
0.48917,0.72238,-0.48875,-0.21443,0.06132,0.0825
0.48016,0.69084,-0.54055,-0.31105,-0.00436,0.04665
0.46573,0.66366,-0.58536,-0.28123,-0.14105,0.1292
0.45003,0.64302,-0.61967,-0.24106,-0.20417,0.19154
0.43796,0.6267,-0.64454,-0.19396,-0.10926,0.11697
0.42768,0.61569,-0.66183,-0.20092,-0.02734,0.08868
0.4168,0.61255,-0.67161,-0.23695,-0.07066,0.05215
0.40669,0.61817,-0.67266,-0.26143,-0.23625,0.05306
0.39979,0.63054,-0.66527,-0.28796,-0.27465,0.03496
0.39457,0.64749,-0.65197,-0.20062,-0.28595,-0.05928
0.39399,0.66397,-0.63555,0.05032,-0.26362,-0.04901
0.40255,0.68405,-0.60829,0.1026,-0.25328,0.19571
0.41429,0.71068,-0.56859,-0.20808,0.30781,-0.41527
0.42813,0.72977,-0.53305,-0.30071,0.61818,-0.51599
0.43772,0.7484,-0.49829,-0.20249,0.72938,-0.40449
0.46339,0.77026,-0.43815,-0.14516,0.23609,0.18175
0.48507,0.79006,-0.37485,-0.16685,0.21629,0.11846
0.49668,0.80335,-0.32854,-0.23079,0.06132,0.04059
0.50973,0.81418,-0.27799,-0.23336,-0.09695,0.39669
0.52236,0.82475,-0.21664,-0.2571,-0.11799,0.38772
0.52786,0.83483,-0.15626,-0.23833,-0.01113,0.26069
0.52363,0.84544,-0.10508,-0.15457,0.17737,-0.01883
0.51307,0.85609,-0.06225,-0.08584,0.21479,-0.09545
0.50288,0.86404,-0.02333,0.10236,0.11336,0.07678
0.49361,0.86961,0.01128,0.08414,-0.00317,0.0996
0.48613,0.87302,0.03893,0.07996,-0.03757,0.06315
0.4811,0.8744,0.0629,0.04553,-0.12126,0.02619
0.47698,0.87486,0.0843,-0.00839,-0.15843,0.04578
0.47311,0.87526,0.10045,-0.03369,-0.12854,0.01035
0.46824,0.87651,0.11175,-0.06597,-0.11516,-0.00108
0.46317,0.87846,0.11737,-0.00211,-0.1241,-0.04053
0.45867,0.88053,0.11955,0.07258,-0.12349,-0.11508
0.4545,0.88255,0.12058,0.12132,-0.11398,-0.11443
0.50745,0.8574,0.08582,0.09109,-0.02803,-0.07345
0.50553,0.85852,0.08598,0.07823,-0.01947,-0.07655
0.50198,0.8622,0.06806,-0.00279,-0.00226,-0.054
0.49882,0.86389,0.06981,-0.03234,-0.01729,-0.02443
0.49388,0.86662,0.07107,-0.06386,0.01534,-0.00328
0.47034,0.87976,0.06927,-0.05614,0.03323,0.01622
0.46237,0.88383,0.07115,-0.01312,-0.03616,0.0896
0.45589,0.88621,0.08241,0.02311,-0.01025,0.04391
0.44553,0.89094,0.08787,0.08726,0.00411,0.00795
0.43613,0.89491,0.0945,0.36639,0.01212,-0.29176
0.4253,0.89906,0.10395,0.38209,-0.00423,-0.24544
0.41346,0.90313,0.11582,0.39546,0.12469,-0.19647
0.40075,0.90671,0.13145,0.32227,0.26691,-0.10513
0.38814,0.90948,0.14895,0.30729,0.35819,-0.00527
0.38074,0.91019,0.16307,0.19856,0.48315,-0.10924
0.38107,0.90863,0.17079,-0.06049,0.43168,-0.50881
0.38019,0.90843,0.1738,-0.19308,0.42712,-0.56341
0.37322,0.91324,0.16339,-0.14685,0.38319,-0.23155
0.36506,0.92007,0.14211,-0.0572,0.16587,-0.15021
0.36217,0.92446,0.1192,-0.10652,-0.0609,-0.18588
0.36527,0.92594,0.09596,-0.15971,-0.20762,-0.11929
0.37365,0.92491,0.07025,-0.19697,-0.19045,0.0878
0.389,0.92016,0.04457,-0.21594,0.00143,0.06168
0.40846,0.91253,0.02121,-0.32637,0.18024,-0.04829
0.42704,0.90423,-0.0033,-0.47013,0.22587,-0.25744
0.44672,0.89415,-0.03071,-0.43184,0.2397,-0.21573
0.46215,0.88428,-0.06681,-0.46661,0.18242,-0.00903
0.47301,0.87405,-0.11092,-0.50725,0.11689,0.12745
0.47847,0.86308,-0.16173,-0.41979,0.05791,0.15645
0.47901,0.85157,-0.21302,-0.31768,0.05865,0.0972
0.477,0.8403,-0.2576,-0.24914,0.00098,0.10823
0.47465,0.8284,-0.29743,-0.1662,0.03832,0.00394
0.47567,0.81523,-0.33037,-0.01133,0.06127,-0.01
0.47963,0.80163,-0.35686,-0.03768,0.04138,-0.02039
0.47951,0.79062,-0.38078,-0.07756,0.00223,0.0275
0.47585,0.78171,-0.4031,-0.24546,-0.0525,0.08691
0.46874,0.77524,-0.42342,-0.26238,-0.10133,0.12667
0.45895,0.77166,-0.44035,-0.23616,-0.24055,0.15997
0.45011,0.7713,-0.45,-0.28502,-0.25857,0.09605
0.44398,0.77309,-0.45301,-0.28992,-0.27403,0.08171
0.44165,0.77487,-0.45223,-0.26036,-0.27882,0.04389
0.44168,0.7784,-0.44611,-0.12076,-0.19626,-0.13422
0.44431,0.78398,-0.43356,-0.02179,-0.21978,-0.08495
0.45086,0.78816,-0.41896,-0.00455,-0.19353,-0.14621
0.45822,0.79291,-0.40164,-0.09525,-0.16343,-0.2015
0.46251,0.80046,-0.38124,-0.1877,-0.15395,-0.24251
0.46273,0.81055,-0.35901,-0.19306,-0.1825,-0.20732
0.46082,0.82104,-0.33695,-0.18125,-0.20245,-0.18804
0.45841,0.83037,-0.31677,-0.14691,-0.1299,-0.2855
0.45664,0.83842,-0.29754,-0.1172,-0.13101,-0.3738
0.45866,0.84337,-0.27991,-0.10153,-0.1271,-0.45346
0.46096,0.8481,-0.26121,0.15445,0.32891,-0.64771
0.4563,0.85768,-0.237,0.1237,0.36667,-0.64853
0.44903,0.86745,-0.21425,0.06347,0.30826,-0.61439
0.44462,0.8721,-0.20434,-0.02908,0.69655,-0.29704
0.44256,0.87254,-0.20692,0.03277,1.12091,-0.04691
0.43707,0.87365,-0.21382,0.0048,1.52675,0.22291
0.43873,0.87064,-0.22248,-0.45582,-0.20585,0.26048
0.46384,0.86116,-0.20798,-0.32233,-0.47817,0.50091
0.49112,0.85631,-0.15978,-0.7294,-0.5539,0.55396
0.50004,0.85746,-0.12138,-0.7282,-0.18007,0.22669
0.49471,0.8644,-0.08981,-0.5707,-0.00176,0.22179
0.48264,0.87517,-0.03366,-0.35554,0.36293,0.44159
0.46624,0.88415,0.03011,-0.28185,0.31483,0.41602
0.45896,0.88478,0.0807,0.14169,0.15407,0.17577
0.45848,0.8815,0.11291,0.37097,-0.02602,-0.08375
0.45706,0.87873,0.13755,0.36378,-0.09188,-0.08406
0.45634,0.87532,0.15993,-0.1285,0.0371,0.07788
0.45129,0.8735,0.18261,-0.3489,0.06436,0.12232
0.4421,0.87408,0.2013,-0.39924,0.09534,0.12321
0.43593,0.87504,0.21042,-0.02739,0.09074,0.05104
0.4312,0.87583,0.21676,0.28254,-0.00432,-0.11056
0.42867,0.87445,0.22714,0.44493,-0.08517,-0.14689
0.42651,0.87164,0.24152,0.33867,-0.18389,-0.07499
0.42725,0.86886,0.25007,0.23221,-0.23368,-0.08082
0.43014,0.86718,0.25095,0.14595,-0.20612,-0.21998
0.43279,0.866,0.25049,0.12501,-0.15607,-0.23131
0.43464,0.86525,0.24984,0.11327,-0.11702,-0.14616
0.4364,0.86458,0.24912,0.08219,-0.09413,-0.14301
0.43948,0.86347,0.24756,0.07603,-0.06154,-0.19655
0.4427,0.86263,0.24471,0.064,-0.18812,-0.18593
0.44486,0.86244,0.24145,0.05305,-0.13203,-0.0449
0.44687,0.86187,0.23976,0.18182,-0.1616,-0.29987
0.44682,0.86444,0.23042,0.19381,0.03923,-0.26224
0.44385,0.86574,0.2313,0.16392,0.06941,-0.28206
0.43876,0.87044,0.2232,0.10527,0.11178,-0.2816
0.42486,0.87721,0.22359,0.0725,0.1507,-0.15308
0.40061,0.88661,0.23117,0.25323,0.36524,0.1171
0.37363,0.89595,0.24014,0.42807,0.43119,0.00902
0.35022,0.90212,0.25204,0.74316,0.68417,-0.11005
0.33635,0.90428,0.26296,0.57905,0.35234,-0.16512
0.32726,0.90564,0.26968,0.4924,0.38392,-0.41079
0.32071,0.90824,0.2688,0.43711,0.48316,-0.55034
0.31459,0.91356,0.25776,0.24051,0.56515,-0.1413
0.30995,0.92069,0.23718,0.13164,0.46281,-0.05904
0.30794,0.9287,0.20662,-0.01808,0.31599,-0.00727
0.308,0.9365,0.16762,-0.33945,-0.06489,-0.11233
0.31053,0.94203,0.12707,-0.36337,-0.0945,-0.07159
0.31348,0.94568,0.0862,-0.33873,-0.05271,-0.07952
0.31624,0.94763,0.0445,-0.18098,-0.09313,-0.0799
0.32015,0.94736,0.00447,-0.10665,-0.05183,0.00753
0.3279,0.94428,-0.02855,-0.00513,0.11207,0.07967
0.34421,0.93703,-0.05912,-0.02208,0.16415,0.00188
0.36768,0.92437,-0.10174,-0.07274,0.12629,0.0328
0.39348,0.90518,-0.16069,-0.09775,0.07802,0.19635
0.41732,0.87954,-0.22861,-0.07982,0.04754,0.2357
0.43756,0.84838,-0.29798,-0.11737,0.04162,0.2192
0.45387,0.81413,-0.3622,-0.15587,0.1422,0.022
0.46196,0.78176,-0.41885,-0.21021,0.13724,0.00795
0.46241,0.75248,-0.46899,-0.16416,0.05064,0.0697
0.45711,0.72629,-0.51338,-0.17203,-0.25703,0.20045
0.44403,0.70418,-0.55405,-0.21085,-0.30978,0.1969
0.43136,0.68613,-0.58579,-0.26837,-0.23975,0.14872
0.42071,0.67274,-0.60862,-0.31676,-0.1839,0.12973
0.40915,0.66639,-0.62331,-0.34373,-0.21573,0.12609
0.40067,0.66722,-0.62792,-0.28092,-0.22827,-0.00119
0.39564,0.67529,-0.62246,-0.15406,-0.2621,-0.08483
0.39084,0.68847,-0.61094,-0.06464,-0.19537,-0.24847
0.38611,0.70021,-0.60052,0.16256,-0.27914,-0.37706
0.3883,0.71005,-0.5874,0.15515,-0.31331,0.16019
0.3989,0.73162,-0.55281,-0.27455,-0.32659,0.422
0.41807,0.75655,-0.50285,-0.74986,0.32161,-0.4142
0.41673,0.77464,-0.47568,0.02241,1.02247,-0.2524
0.43756,0.79461,-0.42087,0.17389,0.46683,0.61844
0.45906,0.81433,-0.35515,0.04972,0.33574,0.22337
0.47121,0.82609,-0.30909,0.23597,0.2168,-0.04611
0.47878,0.83778,-0.2625,0.06221,-0.06361,0.09131
0.48208,0.84753,-0.22201,-0.03526,-0.12799,0.16485
0.47989,0.85651,-0.18999,-0.2208,-0.00574,0.22435
0.46805,0.86801,-0.16579,-0.24761,0.13297,-0.0181
0.45361,0.88009,-0.14029,-0.12739,0.16268,-0.02494
0.44206,0.8903,-0.10934,0.0044,0.01841,0.04789
0.43099,0.89892,-0.07873,0.06,-0.10528,0.07079
0.42117,0.90563,-0.04948,0.14815,-0.17759,0.09129
0.4125,0.91072,-0.0208,0.23372,-0.25693,0.10063
0.40335,0.91505,0.00228,0.23273,-0.26047,0.1215
0.39421,0.91891,0.01438,0.20399,-0.15949,-0.00227
0.3854,0.92253,0.02028,0.20426,-0.10134,-0.02681
0.37759,0.92565,0.02439,0.10207,-0.15649,-0.05874
0.37084,0.9283,0.02728,0.05223,-0.17027,-0.07892
0.36361,0.93108,0.02952,0.00948,-0.16321,-0.09443
0.35416,0.93463,0.03209,-0.02701,-0.09278,0.04929
0.34316,0.93854,0.03712,-0.00332,-0.0788,0.0323
0.33102,0.94265,0.04291,0.0302,-0.0526,-0.00318
0.31798,0.9469,0.04773,0.20395,-0.04019,0.0428
0.30556,0.9508,0.05103,0.25579,-0.04895,0.10592
0.29321,0.95409,0.06124,0.28638,-0.01813,-0.13802
0.28063,0.95656,0.07897,0.45047,0.07876,-0.43402
0.27035,0.95772,0.09838,0.44464,0.29704,-0.23108
0.26405,0.9578,0.11354,0.2365,0.40846,-0.02138
0.26152,0.95716,0.12427,0.14738,0.43148,-0.23311
0.25958,0.9569,0.13022,0.13836,0.56691,-0.35461
0.25742,0.95823,0.12463,0.20122,0.44068,-0.36914
0.25556,0.96128,0.10312,0.23688,0.24519,-0.23709
0.25728,0.96393,0.06814,0.16932,0.09302,-0.19282
0.26484,0.96397,0.02499,0.068,0.03582,-0.26926
0.27678,0.9607,-0.02122,0.03406,0.06257,-0.24705
0.29607,0.95291,-0.06559,0.11273,0.0365,0.01007
0.32389,0.93905,-0.11528,0.15244,0.15617,-0.00559
0.3569,0.91889,-0.16811,0.11171,0.27415,0.08421
0.38985,0.89572,-0.21378,-0.02334,0.30303,0.30159
0.41497,0.87321,-0.25555,-0.24275,0.1124,0.4337
0.43136,0.85082,-0.30005,-0.28983,-0.06136,0.40641
0.44236,0.8276,-0.34554,-0.09863,-0.06075,0.1023
0.44411,0.80362,-0.39618,-0.093,-0.01677,-0.05876
0.43674,0.77611,-0.45487,-0.29824,-0.02654,0.09128
0.42111,0.74787,-0.51319,-0.42503,-0.06874,0.22596
0.40206,0.72395,-0.56058,-0.48322,-0.2241,0.39742
0.3865,0.70526,-0.59432,-0.18962,-0.32096,0.17805
0.38068,0.68844,-0.61737,-0.07165,-0.21331,0.07831
0.3782,0.6753,-0.63319,-0.01363,-0.10726,0.00087
0.37183,0.66948,-0.64307,-0.10999,-0.16763,-0.00131
0.36099,0.67226,-0.64634,-0.09915,-0.17041,0.00196
0.34978,0.6823,-0.64196,-0.1867,-0.2968,-0.04206
0.34084,0.69661,-0.63132,-0.11165,-0.27298,-0.10872
0.33834,0.71073,-0.61677,0.09179,-0.32661,-0.13479
0.3486,0.72657,-0.5921,0.23235,-0.46077,0.03056
0.36727,0.74069,-0.56258,0.02631,-0.04411,-0.14558
0.38823,0.7507,-0.53454,-0.03784,0.84186,-0.51514
0.39575,0.76861,-0.50261,0.05818,0.66467,-0.22606
0.40779,0.79304,-0.45255,0.01843,0.09136,0.27906
0.41936,0.8147,-0.40049,-0.02581,0.03271,0.17291
0.42834,0.83376,-0.34837,-0.02925,0.05656,0.24465
0.43636,0.85021,-0.2945,-0.101,0.00971,0.33635
0.44314,0.86321,-0.24184,-0.12048,0.03208,0.2464
0.44405,0.8748,-0.19376,-0.07553,0.14208,0.15157
0.43609,0.88729,-0.15014,-0.01022,0.2118,0.06167
0.42262,0.89948,-0.11108,0.08805,0.06529,0.02924
0.41,0.9089,-0.07614,0.16076,-0.01631,0.0202
0.39636,0.917,-0.04491,0.20307,-0.12058,0.02773
0.38117,0.92424,-0.02238,0.16655,-0.15687,0.06778
0.3682,0.92973,-0.00493,0.07973,-0.15875,0.00167
0.35658,0.9342,0.01138,0.08842,-0.24474,0.00441
0.34385,0.93873,0.02378,0.08644,-0.25949,0.00133
0.33234,0.94264,0.03148,0.14642,-0.22401,-0.00612
0.32445,0.94516,0.03752,0.14588,-0.24841,-0.02667
0.32001,0.94639,0.04414,0.1151,-0.27073,-0.02555
0.3177,0.94699,0.0478,0.06359,-0.21965,-0.04223
0.31576,0.94756,0.0493,0.01228,-0.13947,-0.05716
0.31231,0.94863,0.05069,-0.02341,-0.0629,-0.05843
0.30584,0.95074,0.05057,-0.01649,-0.0088,0.00602
0.29827,0.953,0.05322,0.06611,-0.03291,0.04338
0.31527,0.94661,0.06728,0.17579,-0.0658,0.02022
0.30577,0.94885,0.07866,0.33683,0.01192,-0.20421
0.29681,0.9504,0.09299,0.4566,0.10227,-0.27485
0.28804,0.9515,0.10807,0.41904,0.2307,-0.26085
0.28121,0.95171,0.12314,0.33128,0.47123,-0.08031
0.276,0.95197,0.13259,0.23719,0.54219,-0.16018
0.27278,0.95213,0.13798,0.23459,0.62514,-0.24793
0.27079,0.95339,0.13315,0.23934,0.53737,-0.24064
0.27063,0.95585,0.11447,0.20606,0.32604,-0.17461
0.27354,0.95814,0.08446,0.08554,0.17806,-0.1473
0.27951,0.95905,0.04573,-0.02199,0.12128,-0.22282
0.28747,0.95778,0.00278,-0.07422,0.10391,-0.21892
0.29757,0.95379,-0.04171,-0.04064,0.08756,-0.05126
0.31309,0.94594,-0.08464,0.0224,0.1053,0.13984
0.33598,0.93346,-0.12555,0.0911,0.19375,0.1975
0.36478,0.91596,-0.16718,0.04238,0.25843,0.16154
0.39494,0.89442,-0.20985,-0.09656,0.19431,0.17268
0.41976,0.87108,-0.25499,-0.25236,0.02492,0.28831
0.43613,0.84768,-0.30204,-0.2521,-0.11724,0.3153
0.44653,0.82304,-0.35101,-0.22202,-0.20503,0.29581
0.4505,0.79575,-0.40475,-0.11591,-0.17184,0.09367
0.44522,0.76809,-0.46024,-0.12232,-0.13715,0.05736
0.434,0.74154,-0.51163,-0.21417,-0.07363,0.24819
0.42083,0.71791,-0.55454,-0.28857,-0.1649,0.40511
0.40937,0.6958,-0.59015,-0.29882,-0.24005,0.38749
0.39935,0.67596,-0.61935,-0.30758,-0.25769,0.29626
0.3911,0.65928,-0.64218,-0.24109,-0.182,0.14164
0.38233,0.64761,-0.65911,-0.21113,-0.12396,0.10549
0.37523,0.64231,-0.66831,-0.18676,-0.12227,0.09279
0.37249,0.64318,-0.66901,-0.06925,-0.26078,-0.00056
0.37367,0.6495,-0.66221,0.01139,-0.27615,-0.03298
0.37589,0.66117,-0.64928,0.10015,-0.27384,-0.09127
0.38043,0.67685,-0.63019,0.29962,-0.27088,-0.14514
0.39313,0.69298,-0.60434,0.33222,-0.26149,-0.088
0.41345,0.70484,-0.57643,0.03914,0.69331,-0.63378
0.43294,0.7075,-0.55857,0.17581,0.85237,-0.16437
0.44967,0.72184,-0.52607,-0.09635,0.61883,-0.01463
0.461,0.74122,-0.48793,-0.12102,0.34133,-0.28412
0.46862,0.76257,-0.44596,0.06158,0.1366,0.07441
0.47988,0.78657,-0.38862,-0.03005,0.03716,0.12089
0.48885,0.80734,-0.33051,-0.1001,-0.025,0.10901
0.48892,0.8264,-0.27931,-0.10075,-0.11442,0.18472
0.48594,0.84275,-0.2316,-0.09478,-0.06846,0.20415
0.47962,0.85794,-0.18412,-0.13231,0.00691,0.17681
0.46634,0.87343,-0.14019,-0.18735,0.10051,0.07021
0.45279,0.88616,-0.09845,-0.13065,0.11783,0.01718
0.43913,0.89677,-0.05444,-0.02013,0.01639,0.04766
0.42251,0.90625,-0.0138,0.00288,-0.15292,0.09204
0.4055,0.91385,0.02101,0.08791,-0.24738,0.07656
0.39122,0.91903,0.04839,0.25899,-0.24691,0.05229
0.37946,0.92259,0.06954,0.34424,-0.23073,0.02889
0.40567,0.91071,0.07772,0.22961,-0.14061,-0.03469
0.40109,0.91213,0.08456,0.14414,-0.15383,-0.07385
0.39842,0.91268,0.09099,-0.00749,-0.21361,-0.06969
0.39574,0.91335,0.09581,-0.11277,-0.1803,-0.09867
0.39224,0.91435,0.10057,-0.14603,-0.1496,-0.0611
0.38751,0.91593,0.10448,-0.14317,-0.08721,-0.00446
0.38192,0.91778,0.10869,-0.1331,-0.05639,0.00153
0.3756,0.91991,0.11263,-0.06341,0.03205,-0.00806
0.36841,0.92252,0.115,0.0045,0.0203,0.04022
0.36054,0.92579,0.1137,0.07998,0.00599,0.09922
0.35169,0.92922,0.11338,0.12431,0.01185,0.02055
0.34095,0.93217,0.12169,0.20315,-0.00816,-0.12463
0.33049,0.93426,0.13393,0.29604,-0.00752,-0.17504
0.32234,0.93534,0.14576,0.43215,0.198,-0.17902
0.31769,0.9357,0.15342,0.19879,0.43201,-0.10859
0.31496,0.93525,0.16157,0.13276,0.43755,-0.12535
0.31198,0.93535,0.16673,0.10504,0.57073,-0.13661
0.30902,0.93724,0.16154,0.1827,0.68276,-0.24398
0.30797,0.94061,0.14288,0.1857,0.58323,-0.20546
0.31044,0.94423,0.10979,0.16374,0.46707,-0.14302
0.31742,0.94602,0.06551,-0.06722,0.13345,-0.269
0.32634,0.94513,0.01504,-0.13331,0.1143,-0.31341
0.33729,0.94066,-0.03722,-0.1734,0.12715,-0.37234
0.35542,0.93042,-0.08944,0.16724,0.0694,-0.08479
0.37944,0.91312,-0.14915,0.20323,0.08942,0.08682
0.40852,0.88724,-0.21428,0.16617,0.1692,0.18077
0.43375,0.85837,-0.27398,-0.15302,0.19649,0.48562
0.44883,0.83151,-0.32733,-0.32534,0.07955,0.57268
0.4566,0.80621,-0.37622,-0.42567,-0.00412,0.62562
0.45756,0.78051,-0.42596,-0.22801,-0.09989,0.07197
0.45065,0.75167,-0.48156,-0.17041,-0.07574,0.07449
0.43738,0.71879,-0.5404,-0.24468,-0.07249,0.11784
0.41962,0.68678,-0.59351,-0.37128,-0.13089,0.26021
0.39991,0.66049,-0.63547,-0.40284,-0.16853,0.31768
0.3825,0.63928,-0.66709,-0.31493,-0.28334,0.33629
0.36975,0.62167,-0.69051,-0.17295,-0.21085,0.24622
0.36122,0.60973,-0.70551,-0.12428,-0.17171,0.19245
0.35448,0.6063,-0.71186,-0.19205,-0.1834,0.05976
0.34474,0.61188,-0.71186,-0.22875,-0.31161,0.08131
0.33452,0.62361,-0.70654,-0.20025,-0.37747,0.095
0.32888,0.63845,-0.69586,-0.11303,-0.34111,-0.07498
0.33154,0.65525,-0.67877,0.23407,-0.45955,-0.09462
0.34585,0.67013,-0.65674,0.26212,-0.25595,-0.19809
0.36483,0.67761,-0.63854,0.00672,0.90831,-0.57429
0.38586,0.6801,-0.62336,0.01453,0.99209,-0.54809
0.39412,0.69665,-0.59946,-0.12266,0.36309,-0.098
0.40424,0.71537,-0.56995,-0.11164,0.08231,0.05337
0.41797,0.7367,-0.53158,-0.13574,0.15095,0.23404
0.42761,0.7614,-0.48725,-0.08863,0.23513,0.06133
0.43394,0.78385,-0.44416,-0.15953,0.12106,0.31226
0.44728,0.80134,-0.39723,-0.23094,0.08632,0.25476
0.46086,0.81734,-0.34577,-0.15909,0.02498,0.22137
0.4694,0.8342,-0.28942,-0.07585,-0.07754,0.25305
0.47335,0.84948,-0.23307,0.0064,0.05613,0.19358
0.47103,0.86341,-0.18072,0.05959,0.12083,0.11889
0.46407,0.87644,-0.12841,0.11366,0.16207,0.11237
0.45573,0.88658,-0.07929,0.14004,0.18243,0.06635
0.44972,0.89204,-0.04483,0.14604,0.17697,0.03189
0.44755,0.89394,-0.02381,0.14123,-0.07183,-0.12856
0.44566,0.89519,-0.00405,-0.05597,-0.22355,-0.10025
0.43911,0.89833,0.01378,-0.04942,-0.22668,-0.11807
0.42854,0.90315,0.02592,-0.03195,-0.22925,-0.00794
0.41678,0.90838,0.03363,0.076,-0.24481,-0.00855
0.40779,0.91219,0.04014,0.11391,-0.25846,0.00103
0.40249,0.91416,0.04812,0.13511,-0.26897,-0.01823
0.39976,0.91483,0.0572,-0.00776,-0.22025,-0.04612
0.39841,0.91479,0.06651,-0.03548,-0.17671,-0.06167
0.39591,0.91512,0.07624,-0.0555,-0.13796,-0.06287
0.39053,0.91657,0.08592,-0.05541,-0.05886,-0.05795
0.38254,0.91897,0.09569,-0.02829,-0.02689,-0.08241
0.37262,0.92178,0.10715,0.07596,0.01082,-0.12764
0.36352,0.9239,0.11938,0.19789,-0.02657,-0.09057
0.35132,0.92627,0.13638,0.27577,-0.04571,-0.09275
0.33973,0.92735,0.1569,0.29308,0.00182,-0.09801
0.32938,0.92709,0.17891,0.23031,0.20393,-0.16745
0.32209,0.92624,0.19578,0.16202,0.45193,-0.09017
0.31786,0.9257,0.20503,0.14607,0.65207,-0.14035
0.316,0.92576,0.20761,0.22015,0.7504,-0.15155
0.3155,0.92811,0.19766,0.26459,0.69121,-0.16472
0.31721,0.93202,0.17527,0.30205,0.35099,-0.14563
0.32294,0.93608,0.13954,0.27099,0.23023,-0.07933
0.33299,0.9384,0.09229,0.13562,0.05621,-0.03659
0.3458,0.93746,0.03982,-0.07021,0.10357,-0.17898
0.36024,0.93276,-0.01331,-0.13434,0.1654,-0.23184
0.37874,0.92335,-0.06313,-0.01534,0.2619,-0.24638
0.40272,0.90753,-0.11924,0.1948,0.2161,-0.01304
0.42932,0.88299,-0.18978,0.10404,0.29009,0.03485
0.44744,0.85532,-0.26119,-0.0794,0.40427,0.15112
0.45357,0.83037,-0.32368,-0.03984,0.06192,0.44717
0.45502,0.80715,-0.37611,-0.04368,-0.12037,0.50111
0.45369,0.783,-0.42553,-0.03942,-0.16499,0.51319
0.45299,0.75247,-0.47811,-0.20394,-0.1728,0.22602
0.45167,0.71383,-0.53521,-0.37758,0.03459,-0.06263
0.44049,0.67767,-0.58884,-0.55612,0.04421,0.05132
0.41969,0.64843,-0.63514,-0.55071,-0.10558,0.41757
0.39905,0.62314,-0.67265,-0.36329,-0.23323,0.46288
0.38408,0.60052,-0.70133,-0.17433,-0.24993,0.3443
0.37318,0.58075,-0.72351,-0.10444,-0.17632,0.1739
0.36098,0.56857,-0.73921,-0.131,-0.12861,0.07989
0.34834,0.56627,-0.74699,-0.15451,-0.18434,0.05654
0.33773,0.57206,-0.74745,-0.11181,-0.24467,0.06229
0.33121,0.58241,-0.74236,-0.07782,-0.29022,0.0297
0.32786,0.59682,-0.73233,-0.07394,-0.26781,-0.06753
0.32843,0.61425,-0.71752,0.07671,-0.28281,-0.19674
0.33743,0.63341,-0.69637,0.22414,-0.34127,-0.07136
0.35307,0.65402,-0.66903,-0.02142,-0.14534,-0.10258
0.37014,0.66671,-0.64692,-0.14339,0.66656,-0.63536
0.37811,0.68182,-0.62623,0.58045,0.64846,0.10058
0.40492,0.70194,-0.58594,0.31412,0.38728,0.08939
0.4264,0.72575,-0.53988,0.03255,0.20706,-0.11053
0.4464,0.74488,-0.49586,-0.19278,0.04828,0.29701
0.46835,0.76423,-0.44339,-0.21473,0.02893,0.24454
0.48838,0.78205,-0.38714,-0.32595,-0.0441,0.33186
0.50562,0.79666,-0.33118,-0.18904,0.02192,0.21218
0.51918,0.81044,-0.27135,-0.13762,0.06971,0.15166
0.52288,0.8253,-0.21324,-0.10168,0.09676,0.13315
0.51705,0.83935,-0.16777,0.03568,0.19446,0.00386
0.50625,0.85287,-0.12779,0.07273,0.14573,-0.00204
0.49543,0.86411,-0.0887,0.09144,0.06315,0.00392
0.48535,0.87249,-0.05654,-0.05934,-0.02654,0.08257
0.47524,0.87925,-0.03273,-0.05381,-0.06275,0.02211
0.46511,0.88518,-0.01172,-0.06249,-0.1469,-0.0592
0.45458,0.8907,0.00458,-0.03307,-0.11726,-0.00336
0.44616,0.8948,0.01623,0.01961,-0.0621,0.09716
0.44153,0.89686,0.02643,0.06972,-0.10334,0.08471
0.45527,0.88915,0.04628,0.08379,-0.15253,0.04236
0.45644,0.88808,0.05462,0.07521,-0.17489,-0.04307
0.45981,0.88586,0.06186,0.00454,-0.13316,-0.06598
0.46501,0.88263,0.06876,-0.07595,-0.13318,-0.10442
0.47019,0.8794,0.07469,-0.13054,-0.17477,-0.08075
0.47423,0.87685,0.07896,-0.13701,-0.1197,-0.05783
0.47767,0.87494,0.07943,-0.11965,-0.10819,-0.0132
0.48084,0.87333,0.07807,-0.10018,-0.09539,-0.05144
0.48313,0.87225,0.07596,-0.07659,-0.09637,-0.07827
0.48401,0.87192,0.07408,-0.05971,-0.08055,-0.0659
0.48384,0.87207,0.07344,-0.0053,-0.03734,-0.05739
0.48374,0.87222,0.07237,0.04364,-0.03127,-0.06819
0.4818,0.87314,0.07415,0.07965,-0.02892,-0.0539
0.48131,0.87345,0.07363,0.0559,-0.00538,-0.01845
0.47646,0.87587,0.07636,-0.01075,0.00438,0.04119
0.4633,0.88138,0.09233,0.01401,0.05598,0.03894
0.45493,0.88547,0.09478,0.13395,0.214,-0.02307
0.44429,0.89049,0.09815,0.11967,0.24548,-0.06259
0.43076,0.89652,0.10338,0.19352,0.33076,-0.04426
0.41423,0.90309,0.11334,0.23435,0.49968,0.08113
0.39527,0.90965,0.12769,0.2557,0.59977,0.16079
0.37555,0.91595,0.1414,0.27592,0.55681,-0.01025
0.3568,0.92139,0.15407,0.32181,0.44305,-0.13251
0.33781,0.9269,0.16351,0.30527,0.38804,-0.34422
0.31848,0.93242,0.17075,0.31284,0.42369,-0.54945
0.29875,0.93812,0.17515,0.35792,0.39239,-0.55237
0.27901,0.94433,0.17433,0.3329,0.15831,-0.32671
0.26184,0.95002,0.16998,0.2014,-0.06565,-0.26895
0.24946,0.95439,0.16405,0.11793,-0.1492,-0.21704
0.24328,0.95765,0.15399,-0.07159,-0.27676,-0.21571
0.24341,0.96,0.13837,-0.05163,-0.32256,-0.16976
0.24936,0.96103,0.11933,-0.02995,-0.22301,-0.05035
0.26057,0.96057,0.09698,-0.07768,-0.1647,-0.03357
0.2777,0.95771,0.07528,-0.14048,0.00824,-0.16497
0.29724,0.9533,0.05353,-0.18852,0.03358,-0.17714
0.31641,0.94818,0.02908,-0.26364,0.03463,-0.18759
0.33647,0.94169,0.00187,-0.48555,0.0275,-0.22804
0.35456,0.93462,-0.02795,-0.48404,0.0303,-0.18842
0.36472,0.92901,-0.0626,-0.451,0.0283,-0.13993
0.36741,0.92453,-0.10122,-0.45185,0.07331,-0.05871
0.36354,0.92107,-0.13955,-0.41829,0.07297,0.08653
0.35553,0.91773,-0.17713,-0.38011,0.07844,0.23371
0.34779,0.91324,-0.21222,-0.16886,0.03587,0.12552
0.34447,0.90661,-0.24372,-0.16554,0.0425,0.15702
0.34819,0.89707,-0.27208,0.10756,0.13076,-0.08624
0.35705,0.88515,-0.29837,-0.00396,0.13024,0.00438
0.36466,0.87329,-0.32309,-0.09232,0.09676,0.02851
0.36656,0.86311,-0.34738,-0.17055,0.06464,0.05203
0.36285,0.85543,-0.36956,-0.30064,-0.12925,0.14633
0.3573,0.85035,-0.38633,-0.281,-0.17435,0.13456
0.35259,0.84812,-0.39544,-0.23823,-0.21757,0.12113
0.35151,0.84684,-0.39912,-0.07792,-0.25418,0.0218
0.35161,0.84731,-0.39805,-0.03557,-0.21965,-0.01743
0.35159,0.8496,-0.39314,0.01427,-0.21475,-0.06064
0.35082,0.85267,-0.38714,0.0303,-0.22965,-0.02959
0.34875,0.85635,-0.38084,-0.00094,-0.26188,-0.04764
0.34479,0.86183,-0.37198,-0.06206,-0.32678,-0.0824
0.34032,0.86913,-0.35889,-0.1292,-0.32564,-0.10845
0.33514,0.87774,-0.34241,-0.13081,-0.32034,-0.14048
0.33077,0.8866,-0.32333,-0.0952,-0.26575,-0.19571
0.32994,0.89376,-0.30385,0.0014,-0.2046,-0.30022
0.33506,0.89791,-0.28547,0.08471,-0.14496,-0.38119
0.34687,0.89863,-0.26859,0.43718,0.09265,-0.5337
0.36083,0.89742,-0.25385,0.52782,0.0954,-0.61062
0.37155,0.89561,-0.24461,0.41201,-0.03354,-0.64997
0.38189,0.89189,-0.24228,0.05379,-0.05123,-0.62047
0.39024,0.88728,-0.24586,-0.14337,-0.08029,-0.46375
0.39027,0.88507,-0.25364,-0.21156,0.06363,-0.31738
0.38537,0.88735,-0.25318,-0.102,0.59619,-0.07484
0.36214,0.89824,-0.24906,-0.09616,1.21616,0.00337
0.32948,0.90888,-0.25571,-0.41251,0.73283,0.16913
0.33549,0.90407,-0.26478,-0.34532,-0.02244,0.15976
0.36195,0.89795,-0.25034,-0.32698,-0.37018,0.57099
0.38684,0.8954,-0.22047,-0.59598,-0.2327,0.28392
0.40218,0.89558,-0.19021,-0.54523,0.03772,0.27472
0.4068,0.90043,-0.15407,-0.45209,0.21316,0.31469
0.40505,0.90612,-0.12201,-0.41246,0.28552,0.29262
0.40304,0.91019,-0.09544,-0.25743,0.22616,0.16824
0.40512,0.91216,-0.06199,-0.04542,0.05227,0.1826
0.413,0.91051,-0.02026,0.12666,-0.03308,0.22572
0.42011,0.90734,0.01551,0.1265,-0.06359,0.11716
0.42489,0.90417,0.04404,-0.04869,0.05225,0.06474
0.42673,0.90191,0.06683,-0.06259,0.05007,0.07189
0.42615,0.90039,0.08768,-0.07718,0.05496,0.07219
0.42531,0.89885,0.10573,-0.02785,0.07207,0.10938
0.42622,0.89662,0.12004,-0.02876,0.0743,0.09506
0.4289,0.8938,0.13106,0.13137,-0.06092,0.06187
0.43259,0.8904,0.14162,0.21777,-0.18947,-0.01359
0.43386,0.88785,0.15327,0.20999,-0.19336,0.00278
0.43458,0.88551,0.16433,0.20604,-0.17981,0.02595
0.44261,0.87999,0.17239,0.22992,-0.16209,-0.03031
0.44651,0.87728,0.17612,0.26807,-0.09328,-0.07069
0.45254,0.87397,0.17714,0.14653,-0.11138,-0.08644
0.45956,0.87003,0.17845,-0.00099,-0.11838,-0.03275
0.46563,0.86735,0.17574,-0.0324,-0.15222,-0.16993
0.46979,0.86665,0.16796,0.03209,-0.1577,-0.31898
0.46705,0.86926,0.162,0.00359,-0.12582,-0.12526
0.45586,0.87528,0.16148,0.03953,0.04159,0.00107
0.43847,0.8825,0.1701,0.15639,0.24268,0.14896
0.4194,0.88942,0.18175,0.40813,0.2484,0.00313
0.40073,0.89537,0.19426,0.4606,0.43982,-0.24527
0.38338,0.90077,0.20403,0.41356,0.51695,-0.08203
0.36833,0.9044,0.2154,0.36795,0.4968,-0.08634
0.35471,0.90719,0.22627,0.32002,0.39682,-0.22429
0.34219,0.9103,0.23292,0.41126,0.25646,-0.25878
0.33248,0.91449,0.23057,0.4752,0.1875,-0.21208
0.32691,0.91947,0.21842,0.48172,0.10707,-0.14642
0.32742,0.92469,0.19429,0.16585,0.21479,-0.17139
0.33011,0.93058,0.15828,-0.01239,0.21538,-0.20917
0.33165,0.93666,0.11257,-0.1812,0.13565,-0.20631
0.33424,0.94031,0.06406,-0.28216,0.05858,-0.1807
0.34185,0.9396,0.01683,-0.22654,-0.04931,0.03528
0.35237,0.93525,-0.03387,-0.10938,-0.18064,0.29387
0.36514,0.92703,-0.08532,-0.16838,-0.07211,0.14462
0.38097,0.91473,-0.13467,-0.24671,0.13481,0.03833
0.39764,0.89736,-0.19137,-0.08381,0.19408,0.0875
0.41594,0.87377,-0.25205,-0.02405,0.11557,0.17435
0.43364,0.84305,-0.31816,0.11551,0.04419,0.37001
0.45071,0.80722,-0.38113,0.15181,0.02922,0.36009
0.46625,0.76867,-0.43789,-0.04363,0.04448,0.12279
0.4735,0.72873,-0.49472,-0.18312,0.15747,0.01102
0.47372,0.69115,-0.54579,-0.20821,0.12896,0.01195
0.46537,0.6562,-0.594,-0.13826,-0.06289,0.13508
0.44729,0.62579,-0.639,-0.20138,-0.17409,0.1614
0.42601,0.60194,-0.67541,-0.26764,-0.09442,0.09304
0.40727,0.58583,-0.70067,-0.27372,-0.07909,0.01421
0.39261,0.57842,-0.71505,-0.19783,-0.10001,-0.02557
0.38696,0.57873,-0.71787,-0.11042,-0.16472,-0.05021
0.3878,0.58686,-0.71078,-0.11615,-0.20932,-0.09108
0.39043,0.60056,-0.69778,-0.01546,-0.26557,-0.29081
0.39484,0.61536,-0.68223,0.10544,-0.2115,-0.31493
0.40407,0.6298,-0.66339,0.18852,-0.1465,0.10032
0.41765,0.64925,-0.63565,-0.1633,-0.0037,0.4575
0.4261,0.67603,-0.60118,-0.37007,0.18406,0.11969
0.42652,0.69954,-0.57334,-0.09178,0.58886,0.06796
0.44447,0.7345,-0.5128,-0.10743,0.198,0.54317
0.4558,0.76282,-0.45864,-0.21127,0.07148,0.12012
0.46686,0.78302,-0.41099,-0.0661,0.11348,0.19134
0.47894,0.80259,-0.35563,0.02541,0.16734,0.2594
0.48529,0.82064,-0.30175,0.04599,0.19168,0.24622
0.48598,0.83605,-0.25467,0.04253,0.22174,0.19909
0.48257,0.85061,-0.20879,0.03768,0.17498,0.14908
0.47751,0.86355,-0.16208,0.03285,0.04662,0.17775
0.47095,0.87448,-0.11613,0.05573,-0.04352,0.16831
0.46268,0.88326,-0.07597,0.06837,-0.09402,0.2017
0.45404,0.88989,-0.0441,0.04999,-0.08337,0.13838
0.44501,0.89532,-0.0192,0.0287,-0.09881,0.0737
0.43512,0.90037,-0.00189,-0.0403,-0.16477,0.0427
0.42574,0.90481,0.00792,0.01094,-0.1687,0.06469
0.41829,0.9082,0.01408,0.03465,-0.18657,0.05012
0.41299,0.91056,0.01777,0.08126,-0.20861,0.04708
0.40977,0.91195,0.02084,0.07158,-0.251,0.0755
0.40832,0.91253,0.02379,0.04282,-0.257,0.0744
0.40776,0.91271,0.02644,0.00767,-0.19141,-0.02026
0.40725,0.91285,0.02934,-0.01373,-0.13222,-0.02894
0.40567,0.91342,0.03312,-0.01709,-0.11653,0.06938
0.40236,0.91477,0.03622,-0.03653,-0.06868,0.08139
0.39735,0.91685,0.03859,-0.01594,0.00246,-0.02838
0.39205,0.91937,0.03235,0.0685,0.00409,-0.0623
0.38275,0.92313,0.03656,0.19667,-0.06189,0.07045
0.38334,0.92251,0.04508,0.28077,-0.01948,0.06042
0.37217,0.92665,0.05303,0.33324,0.06485,0.05686
0.36107,0.93017,0.06646,0.34018,0.10372,-0.06926
0.35029,0.93297,0.08279,0.37934,0.13103,-0.05368
0.34236,0.93455,0.09699,0.3036,0.28229,0.07753
0.3372,0.93508,0.10916,0.14183,0.37186,-0.01751
0.3322,0.93591,0.11709,0.13032,0.46486,-0.09121
0.32602,0.93784,0.119,0.25077,0.50666,-0.22485
0.3201,0.94061,0.11306,0.37773,0.38088,-0.26139
0.31778,0.94329,0.09602,0.40315,0.21212,-0.18843
0.31844,0.94559,0.06677,0.3824,0.00956,-0.1553
0.32354,0.94583,0.02691,0.30081,-0.11861,-0.14909
0.33202,0.94305,-0.02056,0.192,-0.09503,-0.16503
0.3422,0.93695,-0.07091,0.13412,-0.03242,-0.21948
0.35354,0.92755,-0.12104,0.21088,0.01478,-0.02581
0.36873,0.91355,-0.17166,0.19569,0.02879,0.02481
0.38949,0.89168,-0.23066,0.26083,0.02232,0.19833
0.40602,0.8647,-0.29571,-0.0249,0.27626,0.21092
0.41339,0.83874,-0.35443,-0.0676,0.28321,0.30756
0.41702,0.8155,-0.40132,-0.09369,0.2373,0.43759
0.41971,0.79176,-0.4438,-0.12389,0.00359,0.55389
0.42569,0.76315,-0.48621,-0.06059,-0.01258,0.52065
0.43081,0.72953,-0.53121,-0.11671,0.08853,0.04874
0.42532,0.69463,-0.58016,-0.20507,0.22805,0.04945
0.40976,0.66407,-0.62538,-0.28426,0.28948,0.16238
0.39258,0.63536,-0.66497,-0.40105,-0.07488,0.39981
0.37932,0.60875,-0.6968,-0.27462,-0.23734,0.40916
0.37026,0.58499,-0.72159,-0.11603,-0.167,0.30559
0.36245,0.56627,-0.74025,-0.05813,-0.04309,0.17148
0.35376,0.55384,-0.75374,-0.09529,0.00183,0.10794
0.34519,0.54862,-0.76149,-0.15007,-0.04169,0.09648
0.33999,0.55218,-0.76125,-0.16709,-0.16838,0.0927
0.3398,0.56365,-0.75288,-0.13733,-0.19617,0.06702
0.3425,0.58156,-0.73789,-0.06612,-0.10699,-0.06383
0.34578,0.60398,-0.71809,0.095,0.01399,-0.30023
0.35291,0.62712,-0.69439,0.39364,-0.05169,-0.19013
0.36525,0.64648,-0.66982,0.24164,0.18344,0.13715
0.38308,0.66853,-0.63743,-0.29642,0.73978,-0.45026
0.39332,0.69371,-0.60338,0.13024,0.33982,-0.07518
0.41151,0.72213,-0.55605,0.20948,0.00967,0.09284
0.42373,0.74996,-0.50796,0.14007,0.05059,0.13178
0.43504,0.7736,-0.46075,-0.0212,0.00048,0.24259
0.44501,0.79613,-0.41005,-0.11991,-0.13102,0.25671
0.45342,0.81624,-0.35801,-0.14468,-0.20588,0.21662
0.45705,0.83383,-0.30958,-0.06967,-0.17398,0.2461
0.45443,0.85082,-0.26383,0.03874,-0.02466,0.25594
0.44633,0.86774,-0.21869,0.13073,0.06711,0.18277
0.43606,0.8823,-0.17719,0.19563,0.05096,0.14504
0.42655,0.89346,-0.14069,0.19073,-0.03832,0.08929
0.41674,0.90233,-0.11018,0.16121,-0.09056,0.10343
0.40821,0.90888,-0.0855,0.06155,-0.14321,0.07138
0.40116,0.91368,-0.06526,-0.01526,-0.14661,0.05655
0.39393,0.91788,-0.0481,-0.08674,-0.15618,0.03174
0.3843,0.92247,-0.03696,-0.08831,-0.15002,0.06629
0.3738,0.92695,-0.03228,0.00884,-0.15688,0.06225
0.36345,0.93112,-0.03028,0.0936,-0.14938,0.07103
0.355,0.93447,-0.02739,0.15263,-0.16605,0.03386
0.34892,0.9369,-0.02199,0.15992,-0.16504,0.06041
0.34446,0.93867,-0.01551,0.13633,-0.16668,0.03135
0.33866,0.94086,-0.00899,0.07679,-0.05299,0.0785
0.32959,0.94412,-0.00114,0.09091,-0.02776,0.07408
0.31756,0.9482,0.00881,0.13844,-0.01685,0.08163
0.30536,0.95197,0.02246,0.36199,-0.03619,-0.04075
0.29206,0.95562,0.03865,0.41561,-0.03097,-0.08966
0.2801,0.95824,0.05755,0.46137,-0.02148,-0.12863
0.27046,0.95956,0.07812,0.3546,0.18169,-0.17179
0.26375,0.95998,0.09425,0.36131,0.18127,-0.18792
0.25879,0.96062,0.10114,0.17357,0.35426,-0.18616
0.25501,0.96142,0.10313,0.26869,0.54952,-0.21441
0.25316,0.96249,0.09757,0.31634,0.49524,-0.16295
0.25266,0.96423,0.08011,0.32155,0.32901,-0.09479
0.25467,0.96572,0.05026,0.23359,0.21053,-0.07129
0.26016,0.96553,0.00884,0.11742,0.13262,-0.09395
0.26951,0.9621,-0.04163,-0.00556,0.10472,-0.19674
0.28426,0.95396,-0.09572,-0.02722,0.19411,-0.2791
0.3056,0.94039,-0.14923,0.00403,0.22667,-0.19422
0.32805,0.92092,-0.21043,0.15804,0.21448,0.03442
0.35263,0.89555,-0.27137,0.1259,0.35368,0.31539
0.37671,0.87001,-0.31807,0.05464,0.31547,0.42658
0.39676,0.84707,-0.35364,-0.0597,0.22408,0.53272
0.41426,0.82301,-0.38865,-0.28759,-0.13908,0.52984
0.42371,0.79645,-0.43144,-0.24767,-0.11665,0.1885
0.42482,0.76569,-0.48295,-0.14031,-0.08992,-0.10982
0.41964,0.73265,-0.53584,-0.18942,0.00572,-0.15839
0.40751,0.70279,-0.58311,-0.26383,-0.03516,0.10572
0.39643,0.67717,-0.61991,-0.25868,-0.07802,0.34067
0.39162,0.65749,-0.6437,-0.23793,-0.08173,0.22176
0.38798,0.64472,-0.65864,-0.16935,-0.06936,0.10462
0.38518,0.64049,-0.66439,-0.11905,-0.0468,0.07711
0.38592,0.64587,-0.65873,-0.11344,-0.16404,0.02407
0.38872,0.65857,-0.64434,-0.07105,-0.22293,-0.04641
0.39389,0.67453,-0.62439,0.11546,-0.19961,-0.00499
0.40365,0.69528,-0.59468,0.0974,-0.272,0.34281
0.41843,0.7195,-0.55429,-0.14692,-0.0927,0.25098
0.43538,0.74446,-0.50619,-0.51776,0.46085,-0.12262
0.4402,0.76782,-0.46549,-0.07398,0.58971,-0.00875
0.45459,0.7925,-0.40657,0.06589,0.23069,0.42633
0.46274,0.81213,-0.35541,0.08922,0.30601,0.01737
0.46459,0.82795,-0.3141,0.21061,0.22667,0.06479
0.46777,0.84198,-0.26882,0.12502,0.01718,0.20868
0.47088,0.85322,-0.22423,-0.01962,-0.07683,0.35785
0.47048,0.86254,-0.18622,-0.09602,-0.02076,0.29962
0.46509,0.87176,-0.15403,-0.10186,0.09394,0.12488
0.45648,0.8813,-0.12222,-0.06936,0.12285,0.0823
0.44632,0.89025,-0.09088,-0.0038,-0.01357,0.15223
0.43628,0.89764,-0.06246,0.00624,-0.02096,0.12382
0.42785,0.90311,-0.03668,0.05369,-0.10707,0.1029
0.42071,0.90706,-0.01571,0.10139,-0.14319,0.13014
0.41218,0.91109,-0.00404,0.10438,-0.14789,0.11953
0.40294,0.91522,0.00059,0.09854,-0.14452,0.10646
0.39352,0.91931,0.00302,0.07745,-0.14825,0.05599
0.38423,0.92322,0.00506,0.09686,-0.15332,0.01949
0.37543,0.92682,0.00722,0.11495,-0.13913,-0.04025
0.36677,0.93026,0.0098,0.10032,-0.13735,-0.02714
0.35884,0.9333,0.01335,0.09183,-0.14738,-0.05401
0.35007,0.93652,0.01948,0.13411,-0.16364,-0.04458
0.34009,0.93995,0.02904,0.20369,-0.17748,-0.00333
0.32957,0.94317,0.04266,0.28395,-0.19127,-0.05262
0.31854,0.94611,0.05833,0.31767,-0.17406,-0.14155
0.30736,0.9487,0.07417,0.3607,-0.0766,-0.15431
0.29716,0.95065,0.0892,0.34078,0.1402,-0.17887
0.28948,0.95191,0.10035,0.24285,0.3034,-0.08358
0.28488,0.95249,0.10772,0.16566,0.33817,-0.19737
0.28246,0.95304,0.10925,0.17491,0.4235,-0.13071
0.28116,0.9544,0.10037,0.17472,0.42796,-0.0681
0.2808,0.95623,0.08227,0.16364,0.20653,-0.1304
0.28311,0.95757,0.05395,0.09459,0.1532,-0.15217
0.28906,0.95719,0.01506,0.02284,0.14675,-0.12056
0.29973,0.95348,-0.03219,0.04502,0.14965,-0.05701
0.31842,0.94415,-0.08477,0.17899,0.15392,-0.05673
0.34484,0.92896,-0.13458,0.33146,0.19068,0.03805
0.37766,0.90793,-0.18174,0.23327,0.25766,0.01579
0.41187,0.88192,-0.22929,0.17651,0.39528,0.18147
0.4358,0.85672,-0.27589,-0.16363,0.29299,0.38383
0.45174,0.83126,-0.32393,-0.28702,0.15088,0.53191
0.46466,0.80412,-0.37077,-0.33649,0.09935,0.38912
0.46962,0.77533,-0.42227,-0.21988,0.04217,-0.00913
0.46383,0.74591,-0.478,-0.13859,0.08336,-0.10386
0.4501,0.71661,-0.5328,-0.14912,0.05272,-0.02054
0.43764,0.68903,-0.57768,-0.11904,-0.112,0.23072
0.42935,0.66564,-0.61039,-0.07559,-0.15206,0.17446
0.42126,0.64711,-0.63545,-0.09112,-0.0972,0.17288
0.41303,0.63512,-0.65271,-0.20859,-0.05248,0.17395
0.40581,0.63245,-0.65979,-0.22922,-0.11768,0.16283
0.4025,0.63772,-0.65674,-0.19181,-0.29107,0.13968
0.40312,0.64845,-0.64576,-0.20987,-0.29282,0.09166
0.40391,0.66304,-0.63026,0.03767,-0.23046,-0.10597
0.40904,0.67849,-0.6102,0.22823,-0.26717,0.09996
0.42212,0.69561,-0.58133,0.15637,-0.19933,0.30195
0.44034,0.71384,-0.54455,0.01148,0.30839,0.14418
0.44905,0.73851,-0.50296,-0.27696,0.49366,-0.27862
0.45316,0.76658,-0.45498,-0.02118,0.47256,0.3918
0.42573,0.85883,-0.28489,-0.13087,0.09665,0.2984
0.42359,0.87596,-0.23078,-0.11593,0.07516,0.21573
0.4229,0.88788,-0.18117,0.06586,0.15783,0.0209
0.41788,0.8987,-0.13306,0.04242,0.02671,0.01619
0.40782,0.9083,-0.09313,0.02413,-0.12028,0.0953
0.39342,0.91733,-0.06103,0.06649,-0.11199,0.03036
0.37514,0.92635,-0.03397,0.15638,-0.05873,-0.06999
0.35659,0.93422,-0.00835,0.27876,-0.07863,0.01502
0.33943,0.94055,0.01203,0.31163,-0.13593,0.07369
0.32626,0.94489,0.02706,0.28991,-0.15559,0.028
0.31784,0.94722,0.04175,0.29315,-0.1792,-0.00479
0.31059,0.94903,0.0537,0.2273,-0.22886,0.03606
0.3037,0.95087,0.06009,0.14273,-0.22449,0.02206
0.29775,0.95256,0.06302,0.05397,-0.15553,-0.01784
0.29189,0.95424,0.06497,0.03706,-0.09212,-0.05196
0.28469,0.9563,0.06659,0.07259,-0.07343,-0.02655
0.27687,0.95847,0.06846,0.10024,-0.04865,-0.05362
0.26765,0.96085,0.07162,0.1339,-0.01888,-0.0846
0.25681,0.96336,0.07741,0.28178,0.00747,-0.00635
0.24441,0.96557,0.08913,0.31627,-0.02649,-0.00882
0.23238,0.9672,0.10263,0.41282,-0.11183,-0.08351
0.21999,0.96858,0.11601,0.47876,-0.09305,-0.15207
0.20756,0.96912,0.13312,0.50576,-0.09771,-0.20331
0.19578,0.96886,0.15157,0.50173,0.04999,-0.28252
0.1878,0.96812,0.16577,0.43738,0.22541,-0.2276
0.18264,0.9678,0.17324,0.31615,0.23541,-0.36651
0.17843,0.96809,0.17599,0.29083,0.34891,-0.38192
0.17734,0.96941,0.1697,0.31262,0.30116,-0.18743
0.17977,0.97181,0.15255,0.30783,0.24217,-0.13151
0.18612,0.97488,0.12233,0.20423,0.06099,-0.19032
0.19675,0.9771,0.08096,0.11735,0.01702,-0.26432
0.21111,0.97694,0.03208,0.06245,0.01579,-0.27239
0.22824,0.9734,-0.01992,0.13475,0.02893,-0.20138
0.24797,0.966,-0.07322,0.21855,0.16135,0.02168
0.27439,0.95365,-0.1235,0.27845,0.27367,0.02616
0.30322,0.93723,-0.1722,0.17681,0.3306,0.13039
0.32881,0.91899,-0.21756,0.03952,0.26108,0.2958
0.34898,0.89985,-0.26168,-0.09257,0.06749,0.43388
0.36541,0.87895,-0.30647,-0.18483,-0.08772,0.33161
0.37651,0.85546,-0.35557,-0.21318,-0.03776,-0.04612
0.37756,0.82901,-0.41254,-0.12408,-0.00172,-0.10302
0.37284,0.80068,-0.46894,-0.1691,-0.01873,-0.10772
0.36116,0.77461,-0.51918,-0.20672,-0.05552,0.06868
0.34884,0.7509,-0.56077,-0.17051,-0.08365,0.20042
0.33951,0.73001,-0.59315,-0.06547,-0.18101,0.16868
0.33133,0.71399,-0.6168,-0.05715,-0.14345,0.12098
0.32358,0.70436,-0.6318,-0.08357,-0.12598,0.11682
0.31304,0.70231,-0.63935,-0.13097,-0.13269,0.00937
0.30166,0.70718,-0.63945,-0.03941,-0.20396,-0.02951
0.29315,0.71759,-0.63177,-0.0044,-0.27542,0.0216
0.28725,0.73184,-0.61798,-0.07003,-0.34155,0.08017
0.28913,0.74741,-0.59815,0.00783,-0.33574,-0.01441
0.30052,0.76579,-0.56856,0.08643,-0.37193,0.02196
0.31453,0.79003,-0.52623,0.07741,-0.37974,0.09603
0.32617,0.8127,-0.48284,-0.24973,0.11258,-0.40799
0.33227,0.82941,-0.44909,-0.22134,0.38835,-0.42306
0.35201,0.84385,-0.40499,0.01919,0.57817,-0.45002
0.38559,0.86061,-0.33266,-0.02943,0.2814,0.07514
0.40696,0.87,-0.27835,-0.11229,0.24929,-0.23175
0.42086,0.87547,-0.23754,-0.07156,0.2162,-0.31061
0.43368,0.88071,-0.19046,-0.03038,-0.26179,0.28354
0.44095,0.88537,-0.14727,-0.07532,-0.28362,0.28032
0.43739,0.89166,-0.11672,-0.08917,-0.23085,0.22179
0.42424,0.90044,-0.09609,-0.07174,0.1408,-0.10872
0.4101,0.90894,-0.07508,-0.00303,0.14776,-0.04425
0.39917,0.91549,-0.05042,0.11435,-0.05638,0.18342
0.39175,0.91972,-0.02561,0.16311,-0.18319,0.23551
0.38607,0.92247,-0.00286,0.20603,-0.26028,0.30712
0.38056,0.92464,0.0148,0.23333,-0.25371,0.31313
0.37536,0.9265,0.02663,0.21966,-0.15996,0.12069
0.37306,0.92717,0.03436,0.23244,-0.08482,-0.05808
0.37317,0.92691,0.03976,0.21862,-0.16775,-0.0729
0.37425,0.92636,0.04234,0.18494,-0.2045,-0.02987
0.3772,0.92516,0.04231,0.16783,-0.1914,-0.02648
0.38021,0.92406,0.03941,0.08219,-0.21035,-0.04965
0.3835,0.92284,0.03598,0.06532,-0.19501,-0.0261
