gravity.x,gravity.y,gravity.z,userAcceleration.x,userAcceleration.y,userAcceleration.z
0.27379,0.9493,-0.15447,0.68565,0.87183,-1.1683
0.28055,0.94869,-0.14585,-1.1315,1.10752,1.23135
0.26545,0.9507,-0.16032,-1.67638,1.27777,0.88455
0.23703,0.95226,-0.19242,-1.73386,0.13537,0.24544
0.23542,0.94651,-0.22066,-1.24662,-1.30892,-0.02182
0.26005,0.94105,-0.21635,-1.20262,-1.32815,0.07475
0.30403,0.93709,-0.17155,-0.9767,-0.98013,0.91763
0.34695,0.93424,-0.08264,-0.85601,0.73822,0.88918
0.31826,0.94748,0.03166,-0.68337,0.79683,0.56148
0.23633,0.96356,0.12532,-0.5322,0.75765,0.35
0.20944,0.96207,0.1748,0.29572,0.71745,0.69782
0.22325,0.95098,0.214,0.50212,0.42123,0.44428
0.22063,0.94544,0.23971,0.54594,-0.25903,0.0176
0.20841,0.94192,0.26334,0.45718,-0.33812,-0.31759
0.19856,0.93275,0.30092,0.18523,-0.14057,-0.34906
0.20092,0.92076,0.33441,-0.10192,0.00929,-0.17071
0.20641,0.91,0.35959,-0.16712,0.26412,-0.02995
0.20432,0.90212,0.38004,-0.22927,0.29459,-0.01436
0.18865,0.89707,0.39959,-0.22401,0.1224,-0.16961
0.16559,0.89099,0.42274,-0.01766,0.06222,-0.372
0.13832,0.884,0.44655,0.13474,0.06107,-0.49829
0.1151,0.87825,0.46414,0.1801,0.03686,-0.54606
0.09767,0.87273,0.47833,0.13623,0.07122,-0.43827
0.08555,0.86945,0.48656,0.07212,0.16081,-0.35678
0.07223,0.86831,0.49074,0.05036,0.17662,-0.35663
0.05684,0.86541,0.49783,0.05917,0.15461,-0.40176
0.0401,0.85934,0.50983,0.07287,0.09612,-0.55522
0.0278,0.84856,0.52836,0.16951,0.22641,-0.6472
0.01853,0.83454,0.55063,0.30838,0.42597,-0.63359
0.00449,0.82875,0.55961,0.27121,0.43146,-0.84095
-0.00862,0.83806,0.54551,0.29214,0.57672,-0.94213
-0.00316,0.85622,0.5166,0.12752,0.88956,-0.94419
0.0124,0.88522,0.46501,-0.33086,0.60874,-1.02461
0.03056,0.92256,0.38464,-0.38493,0.53314,-0.74818
0.0472,0.95527,0.29193,-0.37833,0.5188,-0.43944
0.07512,0.97661,0.20146,-0.45483,0.9954,0.55893
0.10486,0.98638,0.12671,-0.58003,1.12826,0.67128
0.11597,0.99087,0.06874,-0.81473,1.14489,0.6017
0.11421,0.99329,0.01795,-0.8593,0.41718,0.20212
0.13457,0.99038,-0.03211,-0.61694,0.24314,-0.51403
0.16527,0.98022,-0.10885,-0.47535,0.26557,-0.21253
0.18314,0.96449,-0.19032,-0.42221,0.14685,0.59264
0.19725,0.94282,-0.26866,-0.34838,-0.05676,0.28836
0.20601,0.91293,-0.35229,-0.10369,0.07422,0.3515
0.20067,0.87806,-0.43444,-0.18302,-0.22598,0.40943
0.18686,0.83942,-0.51034,-0.08174,-0.20938,0.45126
0.16281,0.80309,-0.57319,-0.29999,-0.64038,0.59086
0.12894,0.77323,-0.62089,-0.33389,-0.75986,0.63442
0.09905,0.75176,-0.65196,-0.35566,-0.8192,0.47613
0.08367,0.74041,-0.66693,-0.17097,-0.71613,0.30264
0.08559,0.7382,-0.66913,0.03494,-0.42309,0.1404
0.09815,0.7403,-0.66507,-0.26177,-0.47891,-0.08995
0.10642,0.74246,-0.66139,-0.00503,-0.2443,-0.15383
0.11187,0.74491,-0.65772,0.04331,-0.249,-0.14273
0.11128,0.74886,-0.65331,0.22069,-0.0604,-0.28376
0.10212,0.75415,-0.64871,0.11659,-0.15532,-0.24303
0.09045,0.75749,-0.64655,-0.14366,-0.05363,-0.53237
0.08247,0.75499,-0.65053,-0.33866,-0.01691,-0.71191
0.07707,0.7504,-0.65648,-0.53581,0.19142,-1.12376
0.07312,0.7513,-0.6559,-0.24123,0.25439,-0.38101
0.05324,0.77122,-0.63434,-0.07719,-0.25916,0.83806
0.05186,0.79578,-0.60336,-0.19986,-0.3323,0.53844
0.06878,0.82347,-0.56317,-0.52731,-0.31254,0.63161
0.09896,0.85484,-0.50937,-0.50079,0.07497,0.38168
0.13312,0.88298,-0.45015,-0.59048,0.566,0.19015
0.15606,0.9087,-0.38718,-0.32218,0.62734,0.16767
0.16896,0.93128,-0.32274,-0.23059,0.46131,0.17053
0.17421,0.95037,-0.25779,-0.07347,0.12669,0.36255
0.1744,0.96687,-0.1864,-0.00975,-0.01664,0.31247
0.16411,0.98067,-0.10657,-0.09302,-0.00778,0.2488
0.14426,0.98939,-0.01726,-0.1082,0.13969,0.34759
0.11345,0.99036,0.07939,-0.14432,0.30445,0.37384
0.06527,0.98475,0.16125,-0.19088,0.36969,0.27254
0.01828,0.98042,0.19605,0.0209,0.28485,0.11328
-0.00657,0.98278,0.18466,0.47399,0.25179,-0.0542
-0.02223,0.98485,0.17198,1.1697,0.22728,-0.62109
-0.04493,0.97914,0.19817,1.3399,0.0463,-0.25153
-0.06502,0.97588,0.20841,0.9039,-0.01782,0.15961
-0.06964,0.97225,0.22335,0.58259,0.13534,-0.23992
-0.06488,0.96815,0.24181,0.21078,0.03902,-0.58236
-0.06046,0.96756,0.24529,-0.00787,0.05436,-1.00851
-0.05492,0.97069,0.23398,0.09077,-0.07239,-0.72165
-0.05386,0.97427,0.21883,0.272,-0.01607,-0.60056
-0.05671,0.97569,0.21169,0.20819,-0.01368,0.0543
-0.06125,0.97799,0.19944,0.16248,-0.49449,-0.25449
-0.0523,0.98374,0.17181,0.31592,-0.08098,-0.61662
-0.04107,0.9886,0.14483,0.09391,-0.18449,0.27395
-0.03849,0.99078,0.12986,-0.3086,-0.41389,0.1871
-0.04722,0.99154,0.12089,-0.49221,-0.46526,-0.00373
-0.06467,0.99149,0.113,-0.41491,-0.05739,0.13451
-0.09072,0.98943,0.11311,-0.27318,0.16194,0.37384
-0.12092,0.98509,0.12237,0.06851,0.39762,0.16153
-0.15364,0.9782,0.1397,0.37918,0.7154,0.08895
-0.18216,0.96907,0.16651,0.30532,1.12941,0.10305
-0.20216,0.95792,0.20377,0.04959,1.40932,-0.06339
-0.21878,0.94471,0.24424,0.00894,1.30509,-0.23251
-0.23282,0.93127,0.28021,0.1067,0.97528,-0.51544
-0.24519,0.91906,0.30856,0.33849,0.50002,-0.48541
-0.25613,0.90967,0.32695,0.29196,0.28008,-0.53334
-0.26439,0.90256,0.33982,0.30916,0.30407,-0.87905
-0.26383,0.90427,0.33569,0.9924,0.63554,-0.84497
-0.25624,0.917,0.30571,1.06123,0.54193,-0.67644
-0.23957,0.93573,0.25885,0.81762,0.12937,-0.51156
-0.209,0.95589,0.20637,0.46742,0.07884,-0.24269
-0.16891,0.97333,0.15521,0.19421,0.12715,-0.02389
-0.12426,0.98677,0.10414,0.00983,0.27025,0.0139
-0.0781,0.99543,0.05491,-0.17662,0.35493,-0.05308
-0.03492,0.99932,0.0118,-0.2623,0.24261,-0.10608
0.00453,0.99966,-0.02581,-0.24831,0.1811,0.03592
0.03752,0.9972,-0.06473,-0.13493,0.20878,0.25815
0.07463,0.99176,-0.10414,0.47119,0.59389,0.03893
0.14297,0.97897,-0.14552,0.35511,0.54869,-0.8042
0.2132,0.95656,-0.19885,-0.04097,0.2829,0.14284
0.26371,0.92501,-0.27351,0.39764,0.91901,0.12199
0.29353,0.89161,-0.34477,0.29936,0.79389,0.20201
0.30037,0.84802,-0.43663,-0.1364,0.3136,0.73794
0.27544,0.79368,-0.54241,-0.35591,-0.14315,1.17226
0.23582,0.73666,-0.63382,-0.6685,-0.68389,1.26753
0.20205,0.67949,-0.70532,-0.79258,-0.95413,1.14181
0.17808,0.63158,-0.75458,-0.82146,-0.97718,0.98975
0.16897,0.59551,-0.78538,-0.66008,-0.79378,0.84075
0.17411,0.56739,-0.80483,-0.38331,-0.50217,0.67036
0.18559,0.54175,-0.8198,-0.13316,-0.75491,0.59479
0.19846,0.52031,-0.8306,0.01623,-0.68376,0.50807
0.21603,0.50518,-0.83554,0.11996,-0.64829,0.40802
0.22698,0.49718,-0.83743,0.27605,-0.43816,-0.06473
0.23149,0.4926,-0.8389,0.42489,-0.16181,-0.15271
0.22717,0.49005,-0.84158,0.44479,-0.06382,-0.09814
0.20967,0.49182,-0.84508,0.2557,-0.10287,-0.23229
0.18698,0.50352,-0.84351,0.12381,-0.1427,-0.47325
0.17954,0.5203,-0.8349,-0.06691,-0.01729,-0.89362
0.17345,0.53842,-0.82463,0.43742,0.20944,-0.76428
0.1574,0.57158,-0.80531,0.45356,0.1304,0.1195
0.14987,0.60836,-0.77938,-0.71658,-0.17083,-0.27478
0.13107,0.64736,-0.75083,-0.44596,0.05213,-0.17888
0.12341,0.69449,-0.70884,-0.60031,0.16482,0.09948
0.1247,0.74166,-0.65909,-0.66321,0.01628,0.18968
0.12502,0.78669,-0.60456,-0.69281,-0.11194,0.05981
0.13303,0.8284,-0.5441,-0.55886,-0.21342,0.05813
0.14998,0.86711,-0.47499,-0.28107,-0.17574,0.2271
0.16628,0.90124,-0.40014,-0.23972,-0.15892,0.23552
0.17722,0.92957,-0.32327,-0.19064,-0.00758,0.13787
0.17556,0.95371,-0.24417,-0.21908,0.14753,0.25288
0.15828,0.97337,-0.16581,-0.2186,0.16754,0.30869
0.12596,0.98817,-0.08742,-0.10141,0.36215,0.31639
0.07524,0.99702,-0.01685,0.04467,0.58145,0.1617
0.01909,0.9997,0.01537,0.19148,0.52336,-0.09795
-0.01556,0.9998,0.01259,0.54221,0.41731,-0.33708
-0.03907,0.9992,0.00835,0.93917,0.03258,-0.24045
-0.06115,0.99813,0.0007,0.49511,-0.05382,0.00264
-0.07292,0.99731,-0.00754,0.31828,-0.21008,0.10064
-0.07525,0.99715,-0.00387,0.25718,-0.28346,-0.07663
-0.06485,0.99789,0.00379,0.15318,-0.35226,-0.35328
-0.04893,0.99874,0.01137,0.09708,-0.3604,-0.2249
-0.03829,0.99916,0.01477,0.33381,-0.25526,-0.02385
-0.03101,0.99926,0.02253,0.08839,-0.44688,-0.05967
-0.02874,0.99919,0.02823,-0.03179,-0.38426,-0.04353
-0.03506,0.99891,0.03072,-0.07118,0.00541,-0.02158
-0.05079,0.99819,0.03207,-0.11435,0.27398,0.10382
-0.06848,0.99707,0.03416,-0.09035,0.12032,-0.00033
-0.08814,0.99533,0.03928,0.10216,0.03865,0.16989
-0.11061,0.99261,0.04995,0.22104,0.19537,0.20022
-0.13831,0.988,0.06867,0.21065,0.40888,-0.06079
-0.16933,0.98088,0.09586,0.20023,0.58267,-0.02326
-0.20054,0.97085,0.13131,-0.0575,0.82441,0.00404
-0.23389,0.95627,0.17559,-0.20242,1.05157,0.02957
-0.26607,0.93715,0.22574,-0.03776,1.19498,-0.24388
-0.29445,0.91627,0.27157,0.39306,0.86861,-0.54165
-0.3144,0.89573,0.31435,0.64236,0.65789,-0.63082
-0.32659,0.87908,0.34722,0.68934,0.34134,-0.93519
-0.33463,0.87371,0.35306,1.04743,0.57,-1.32762
-0.3262,0.88987,0.31895,1.36613,0.51396,-1.13087
-0.29807,0.91404,0.27509,1.13636,0.44072,-0.51024
-0.26121,0.93814,0.22731,0.76983,0.14745,-0.23359
-0.21745,0.96117,0.16991,0.38818,0.09009,-0.27787
-0.17128,0.97886,0.11174,0.01338,0.22478,-0.32398
-0.12139,0.99058,0.06339,-0.25371,0.37328,-0.25666
-0.07135,0.99725,0.01993,-0.40292,0.35514,0.03367
-0.02757,0.99923,-0.02767,-0.40215,0.41283,0.34059
0.00568,0.99685,-0.07912,-0.17192,0.51126,0.40966
0.043,0.99152,-0.12259,0.31795,0.69463,0.01523
0.11453,0.98077,-0.15801,0.38753,0.54187,-0.67069
0.19187,0.96322,-0.1881,0.19712,0.41686,-0.08535
0.24869,0.93671,-0.24643,0.19941,0.3558,0.44725
0.28579,0.89684,-0.33763,-0.07171,0.1713,0.82192
0.30558,0.84698,-0.43502,0.11438,0.61869,0.91507
0.30974,0.79025,-0.52874,-0.23198,-0.10609,0.74409
0.28813,0.73262,-0.61664,-0.42738,-0.25382,0.96276
0.26153,0.67453,-0.69037,-0.81812,-0.83174,1.07691
0.23453,0.62023,-0.74854,-0.91318,-0.99822,0.99892
0.21856,0.57652,-0.78731,-0.57055,-0.72688,0.90643
0.21415,0.54244,-0.81234,-0.4851,-0.65923,0.86109
0.22065,0.51037,-0.83116,-0.1544,-0.57742,0.69127
0.23419,0.48259,-0.84395,-0.16431,-0.6147,0.48954
0.24694,0.46118,-0.85225,0.1367,-0.52497,0.22304
0.25967,0.44872,-0.85512,0.34394,-0.26377,-0.03021
0.26865,0.44053,-0.8566,0.33208,-0.09446,-0.13947
0.26581,0.43743,-0.85907,0.09888,-0.10619,-0.09666
0.24457,0.43815,-0.86499,0.70339,-0.01211,-0.575
0.2286,0.47189,-0.8515,0.27534,-0.21806,-0.41018
0.22411,0.5145,-0.82768,-0.62666,0.15553,-1.6954
0.22047,0.539,-0.81294,0.30028,0.50208,-1.48076
0.19606,0.5787,-0.79162,0.45884,0.5787,0.24089
0.18847,0.62272,-0.75941,-0.80103,-0.23309,-0.06895
0.16179,0.66801,-0.72635,-0.19183,-0.02032,0.28029
0.15031,0.71888,-0.67868,-0.18483,-0.04534,0.47478
0.14873,0.76641,-0.6249,-0.56316,-0.14403,0.07749
0.14716,0.81116,-0.56601,-0.56159,-0.18878,0.01861
0.14929,0.85346,-0.49932,-0.33421,-0.12288,0.17195
0.15607,0.89269,-0.42278,-0.16055,-0.15043,0.34145
0.16472,0.92667,-0.33785,-0.1262,-0.17138,0.28265
0.16441,0.95351,-0.25257,-0.12924,0.21289,0.27456
0.14946,0.97464,-0.16655,-0.16237,0.25278,0.35109
0.1143,0.9903,-0.079,-0.18738,0.53413,0.35674
0.05676,0.99834,-0.00963,0.01163,0.58229,0.18255
0.01369,0.99958,0.02536,0.21447,0.28402,0.05545
-0.01579,0.99905,0.04068,0.35139,0.14468,-0.0545
-0.05265,0.99735,0.05015,0.57237,0.01695,-0.12288
-0.09259,0.99389,0.06005,0.69919,0.0371,-0.02024
-0.12818,0.98879,0.07651,0.68475,0.05419,0.10948
-0.15362,0.98317,0.09882,0.57206,0.07608,0.21933
-0.16152,0.97886,0.12544,0.52431,-0.04255,0.24616
-0.15761,0.97507,0.15616,0.24221,-0.12737,-0.17359
-0.1535,0.97252,0.17503,-0.16646,-0.15567,-1.05992
-0.15064,0.9715,0.183,-0.10879,-0.18705,-0.68648
-0.15379,0.97098,0.18316,0.31158,-0.19449,-0.44601
-0.15378,0.97372,0.16799,0.56346,-0.2465,-0.79397
-0.14609,0.9789,0.14282,0.55469,-0.10018,-0.45638
-0.13772,0.98106,0.13619,0.19779,-0.47308,0.4165
-0.13229,0.98281,0.12878,0.10442,-0.62533,-0.45062
-0.1191,0.98723,0.10576,0.2857,-0.13478,-0.72576
-0.104,0.99141,0.07925,0.49758,-0.05233,0.69423
-0.09786,0.9928,0.06912,-0.01865,0.01726,0.13757
-0.10138,0.99239,0.06981,-0.37219,-0.0897,0.22273
-0.1142,0.99147,0.06274,-0.33754,-0.12712,-0.01679
-0.12861,0.98973,0.06236,-0.133,-0.05379,0.31919
-0.14486,0.98703,0.06917,-0.19921,0.44499,-0.02497
-0.16784,0.98233,0.08281,-0.08447,0.72365,0.19603
-0.1922,0.976,0.10234,0.03933,0.94899,0.24491
-0.2141,0.96826,0.12894,0.13149,1.34439,0.31059
-0.2364,0.95764,0.16444,0.20002,1.43616,0.29903
-0.25919,0.94346,0.20665,-0.20372,1.06705,-0.16153
-0.27948,0.92738,0.24871,-0.29051,0.96738,-0.3866
-0.29725,0.91144,0.28445,-0.15398,0.51844,-0.42952
-0.3186,0.89595,0.30947,0.11777,0.14403,-0.46249
-0.34262,0.88201,0.32354,0.43368,0.0404,-0.60879
-0.36069,0.87332,0.32745,0.64653,0.17637,-0.84974
-0.36707,0.87382,0.31891,0.96568,0.16126,-0.99259
-0.35923,0.88626,0.29239,1.14407,0.02367,-0.88811
-0.34342,0.9043,0.25358,0.94724,-0.04438,-0.42831
-0.3231,0.92173,0.21454,0.49218,-0.14934,-0.03866
-0.29446,0.93855,0.18007,0.01089,-0.17654,0.01869
-0.2579,0.9536,0.15533,-0.15766,-0.1662,-0.12972
-0.21274,0.96689,0.14095,-0.21698,-0.04949,-0.16367
-0.17511,0.97529,0.1347,-0.38599,0.04635,-0.28398
-0.15342,0.97897,0.13448,-0.40543,-0.06808,-0.14498
-0.14155,0.98071,0.13483,-0.30494,-0.20528,0.07295
-0.131,0.98293,0.12917,-0.16598,-0.15139,0.03778
-0.11842,0.9858,0.1191,0.09802,0.00961,-0.32712
-0.10479,0.9889,0.10528,0.18298,0.09535,-0.57461
-0.09045,0.99187,0.08947,-0.02022,-0.04528,-0.26481
-0.07561,0.99453,0.07206,-0.13384,-0.13541,-0.05917
-0.06276,0.99676,0.05039,-0.18808,-0.17315,-0.14793
-0.05108,0.99838,0.02511,-0.2017,-0.24192,-0.19648
-0.04194,0.99911,-0.00332,-0.10961,-0.20079,-0.19782
-0.03614,0.99859,-0.03892,0.00909,-0.17657,-0.24472
-0.03353,0.99618,-0.08064,-0.08335,-0.22712,-0.15801
-0.03283,0.99252,-0.11757,-0.13526,-0.18854,0.00282
-0.03617,0.98763,-0.15256,-0.18696,-0.15809,0.15873
-0.04112,0.98108,-0.18916,-0.1158,-0.24547,0.14885
-0.0408,0.97463,-0.22006,-0.09046,-0.29504,0.09663
-0.03989,0.96879,-0.24464,-0.04101,-0.31759,0.16516
-0.0404,0.96423,-0.26198,0.07308,-0.31835,0.17066
-0.03863,0.9608,-0.27455,0.0489,-0.27916,0.13214
-0.03753,0.95819,-0.28366,0.02698,-0.27939,0.03373
-0.03943,0.95642,-0.28933,0.08395,-0.3273,-0.06539
-0.0409,0.95554,-0.29202,0.08574,-0.34927,-0.24651
-0.04138,0.95539,-0.29243,0.15365,-0.27946,-0.31194
-0.04054,0.95678,-0.28796,0.19111,-0.1307,-0.46541
-0.03796,0.95942,-0.27942,0.13441,-0.11687,-0.67546
-0.03618,0.96318,-0.26643,0.15416,-0.05728,-0.77291
-0.03265,0.96825,-0.24786,-0.01646,0.05042,-0.76984
-0.03296,0.97229,-0.23145,-0.14545,0.09699,-0.78537
-0.03575,0.97203,-0.23211,-0.23055,0.9089,-0.7868
-0.04094,0.97486,-0.21903,-0.28281,1.01794,0.41492
-0.0459,0.98051,-0.19105,-0.16336,0.02401,0.72029
-0.02463,0.98332,-0.18022,-0.27798,-0.60897,0.47441
-0.00399,0.98712,-0.15996,-0.42155,-0.35176,0.16115
-0.00304,0.99243,-0.12278,-0.0813,-0.12521,0.81262
-0.0178,0.99638,-0.08317,-0.09116,-0.04095,0.56777
-0.04025,0.99799,-0.04886,-0.02731,0.12504,0.12828
-0.06326,0.99794,-0.01091,0.17264,0.24588,0.19139
-0.07766,0.99662,0.02687,0.28119,0.33895,0.23991
-0.08377,0.99451,0.0627,0.32721,0.2799,0.30151
-0.08432,0.99214,0.09243,0.23951,0.10269,0.19838
-0.08096,0.98962,0.11871,0.17721,0.05182,0.12327
-0.07689,0.9866,0.14394,-0.06913,0.01595,0.01874
-0.0722,0.9831,0.16825,-0.07382,0.01945,-0.00558
-0.06687,0.97913,0.19194,-0.12069,-0.11768,-0.02891
-0.0608,0.97512,0.21318,-0.12373,-0.13045,0.0746
-0.0549,0.97127,0.23157,-0.08048,-0.13966,0.10877
-0.05215,0.96938,0.23997,0.00789,-0.14484,0.20137
-0.05613,0.97179,0.22907,-0.02423,-0.07918,0.24883
-0.06357,0.97591,0.20872,-0.02135,0.04453,0.33476
-0.07079,0.97696,0.20135,0.08699,0.0889,0.39847
-0.07756,0.9751,0.20775,0.22943,0.03825,0.42503
-0.08604,0.97192,0.21902,0.39406,0.0095,0.27974
-0.09647,0.96802,0.23157,0.49839,0.04928,0.14154
-0.10954,0.96383,0.24296,0.5451,0.0857,0.01145
-0.12805,0.95885,0.25339,0.59808,0.05517,-0.23114
-0.15479,0.95056,0.26922,0.62552,-0.02722,-0.414
-0.18381,0.93918,0.2901,0.58508,-0.04761,-0.43622
-0.20468,0.9285,0.30984,0.58193,-0.06459,-0.3785
-0.21715,0.91935,0.32808,0.50821,-0.0173,-0.27817
-0.22248,0.91135,0.34633,0.47398,-0.00403,-0.306
-0.22254,0.90329,0.36679,0.39588,0.21821,-0.47113
-0.22168,0.89445,0.38835,0.13256,0.52848,-0.72279
-0.2328,0.89371,0.38352,0.1728,0.53332,-0.78428
-0.23901,0.89981,0.36498,0.41618,0.51865,-0.51497
-0.2421,0.90845,0.34075,0.55141,0.53653,-0.307
-0.23407,0.92242,0.30717,0.51141,0.5769,-0.31445
-0.21432,0.93937,0.26766,0.07086,0.42839,-0.72119
-0.19494,0.95938,0.20392,-0.05805,0.24641,-0.63614
-0.17599,0.97722,0.11861,-0.03469,0.53769,-0.05485
-0.15281,0.98779,0.03017,-0.04642,0.79733,0.4324
-0.12769,0.99066,-0.04789,-0.19712,1.04592,0.68986
-0.10909,0.98789,-0.11029,-0.33488,1.20246,0.7454
-0.10249,0.98129,-0.16301,-0.55988,0.59843,0.54846
-0.08662,0.97303,-0.21379,-0.63267,0.33067,-0.06447
-0.05144,0.96054,-0.27335,-0.59884,0.38394,-0.11415
-0.03273,0.93557,-0.35163,-0.42247,0.30178,0.58539
-0.036,0.89862,-0.43724,-0.19935,0.03187,0.71861
-0.02274,0.85755,-0.5139,-0.05282,0.11549,0.34885
-0.01461,0.81205,-0.5834,0.16211,0.24346,0.53275
-0.01625,0.76103,-0.64851,0.12958,0.16498,0.67845
-0.05171,0.69999,-0.71228,0.16684,-0.07981,0.857
-0.08968,0.64063,-0.7626,0.20951,-0.13068,0.8333
-0.11932,0.59185,-0.79716,-0.03014,-0.44509,0.71507
-0.14461,0.55367,-0.82008,0.01882,-0.44027,0.66357
-0.16499,0.52509,-0.8349,0.1218,-0.48943,0.61269
-0.17439,0.50767,-0.84371,0.03735,-0.60782,0.50042
-0.16779,0.50428,-0.84709,0.01416,-0.39168,0.15301
-0.15263,0.51295,-0.84474,0.011,-0.3322,0.10603
-0.14761,0.52635,-0.83735,0.13071,-0.22357,0.12964
-0.14699,0.54018,-0.82861,0.31266,-0.06493,0.01931
-0.14258,0.55919,-0.81669,0.19614,-0.04679,-0.31144
-0.13382,0.58688,-0.79854,0.05102,0.07766,-0.67648
-0.11533,0.61496,-0.78008,-0.20596,1.46849,-0.05743
-0.10962,0.64218,-0.75867,0.08087,1.41037,0.06809
-0.09581,0.67231,-0.73404,0.31099,0.77437,0.73699
-0.07257,0.70686,-0.70362,-0.62192,-0.3413,0.68157
-0.04312,0.74488,-0.6658,-0.61979,-0.3657,0.60007
-0.00355,0.78833,-0.61524,-0.42086,0.28173,0.43016
0.03039,0.82791,-0.56004,-0.24399,0.78266,0.42162
0.0511,0.86072,-0.5065,0.02616,0.63377,0.55835
0.06914,0.8916,-0.4475,0.03233,0.32243,0.59057
0.08695,0.91863,-0.38543,0.0504,0.14149,0.4686
0.0963,0.94002,-0.32725,-0.0034,0.05057,0.43493
0.09521,0.95898,-0.26698,-0.14642,0.14497,0.48451
0.08141,0.97508,-0.20637,-0.205,0.23308,0.44957
0.06788,0.98411,-0.16403,0.06666,0.19397,0.47734
0.05948,0.98694,-0.14967,0.42806,0.06399,0.54736
0.05246,0.98805,-0.14495,0.83006,0.03313,0.26459
0.05096,0.98944,-0.13565,0.88005,-0.05037,0.03404
0.04847,0.99182,-0.11804,0.72272,-0.05249,0.09939
0.03986,0.9942,-0.09984,0.45849,-0.09993,0.24398
0.03758,0.9962,-0.07856,0.2661,-0.02249,0.06356
0.03722,0.99742,-0.0613,0.20294,0.08355,0.05845
0.03377,0.99834,-0.04657,0.1619,-0.00596,0.08304
0.02969,0.99926,-0.02451,0.07386,0.00573,-0.00343
0.02244,0.99972,0.00713,0.06513,0.00751,-0.12421
0.0041,0.99919,0.03989,0.18248,0.10242,-0.21232
-0.02405,0.99742,0.06762,0.35863,0.21124,-0.29719
-0.0489,0.99493,0.08791,0.26128,0.31983,-0.51038
-0.06502,0.99273,0.10126,0.09734,0.59818,-0.55521
-0.07276,0.99143,0.10849,0.18412,0.73398,-0.46723
-0.07343,0.99243,0.09842,0.26246,0.56311,-0.5154
-0.06543,0.99526,0.07186,0.20453,0.65598,-0.50181
-0.04553,0.99834,0.0352,-0.04759,0.69755,-0.41782
-0.01931,0.99962,-0.0196,-0.25303,0.65085,-0.48331
0.0113,0.99501,-0.09912,-0.06008,0.53366,-0.17019
0.04864,0.98167,-0.18425,-0.06864,0.41873,0.55229
0.0822,0.96595,-0.24532,-0.07054,0.41224,0.93412
0.11027,0.95233,-0.28445,-0.32207,0.33773,1.1367
0.13567,0.93907,-0.3158,-0.50175,0.1463,1.22689
0.16065,0.92271,-0.35043,-0.54517,0.05203,1.04254
0.18921,0.8894,-0.41614,-0.34958,0.13914,-0.82753
0.21286,0.85193,-0.47844,-0.37323,0.1766,-0.76523
0.2321,0.81766,-0.52685,0.00157,0.17267,0.99395
0.24522,0.77271,-0.58547,-0.04939,-0.04026,0.57493
0.24086,0.72564,-0.64453,-0.17878,-0.04614,0.60605
0.2211,0.68423,-0.69494,-0.32651,-0.30982,0.77431
0.1935,0.6504,-0.73454,-0.35812,-0.47779,0.86646
0.16407,0.62853,-0.76028,-0.24612,-0.40824,0.75
0.12941,0.62254,-0.77181,-0.32413,-0.44186,0.73493
0.09454,0.63263,-0.76866,-0.28503,-0.60195,0.61249
0.07848,0.66479,-0.74289,-0.44043,-0.70939,0.53013
0.10449,0.71253,-0.69382,-0.52946,-0.66248,-0.05318
0.14959,0.75871,-0.63402,-0.44596,-0.0022,-0.63199
0.15696,0.81016,-0.56479,0.65274,1.35065,2.1699
0.19458,0.8419,-0.50333,0.46695,2.93477,-1.27775
0.19153,0.86886,-0.45651,-0.13118,0.46447,0.85043
0.18356,0.88583,-0.42615,-0.2805,-0.67688,0.16886
0.17741,0.90293,-0.39147,-0.29726,-0.53299,0.20895
0.1647,0.92635,-0.33874,-0.33876,-0.28892,0.38803
0.14247,0.95147,-0.27279,-0.31755,0.74636,0.64792
0.10381,0.97307,-0.20581,-0.28533,0.61018,0.39433
0.07678,0.98411,-0.16012,-0.12083,0.25653,0.2826
0.06306,0.98892,-0.13437,0.05041,0.07039,0.23314
0.0461,0.99179,-0.11926,0.30195,-0.05759,0.08878
0.02368,0.99354,-0.111,0.41429,-0.08744,0.03153
-0.00198,0.99505,-0.09929,0.46284,-0.1772,0.01636
-0.02121,0.99685,-0.07643,0.24172,-0.37803,0.35839
-0.02366,0.99834,-0.05241,0.11365,-0.55306,0.44589
-0.01075,0.9995,-0.02975,0.05198,-0.62262,0.42163
0.0098,0.99995,-0.00136,-0.18405,-0.27383,-0.12202
0.02051,0.99945,0.02591,-0.40091,-0.06749,-0.39618
0.01734,0.999,0.04112,-0.09786,0.16514,0.00096
0.0055,0.99878,0.04894,0.17727,0.23091,0.32822
-0.00505,0.99813,0.06084,0.27948,-0.0148,0.34793
-0.01571,0.9968,0.07836,0.27262,0.03424,0.1766
-0.02784,0.99471,0.09888,0.42707,0.28323,-0.11822
-0.03779,0.99223,0.11851,0.41132,0.41124,-0.18822
-0.04461,0.99011,0.13299,0.18647,0.43849,-0.14517
-0.04405,0.98884,0.14232,-0.1244,0.48377,-0.1651
-0.03848,0.98861,0.14547,-0.3097,0.66138,-0.21931
-0.03551,0.98992,0.1371,-0.26549,0.90658,-0.37265
-0.03484,0.99281,0.11452,-0.00828,1.0067,-0.48015
-0.03292,0.99651,0.07667,0.22406,0.69451,-0.52233
-0.02797,0.99933,0.02342,0.28539,0.50322,-0.45468
-0.01829,0.99917,-0.03647,0.14544,0.44339,-0.30579
-0.00078,0.99414,-0.10812,0.23261,0.32183,-0.2322
0.02683,0.98195,-0.18722,0.15827,0.23765,0.32281
0.05826,0.96464,-0.25704,0.01707,0.40694,0.69726
0.07868,0.94882,-0.30585,0.02961,0.4238,0.97504
0.09298,0.93761,-0.33502,-0.14898,0.013,1.09553
0.10932,0.92632,-0.36051,-0.28082,-0.17746,0.94428
0.13814,0.91068,-0.38934,-0.28282,-0.02574,0.25772
0.18224,0.88331,-0.43192,-0.09786,0.25889,-0.49977
0.2076,0.854,-0.47706,-0.19064,0.25946,-0.02544
0.20808,0.82323,-0.52821,-0.24793,0.09012,0.68703
0.19874,0.78744,-0.58347,-0.12899,-0.17351,0.80563
0.18477,0.75012,-0.63497,-0.0432,-0.30879,0.73954
0.17128,0.71459,-0.67826,-0.15501,-0.29817,0.64412
0.15221,0.68169,-0.71563,-0.29239,-0.26954,0.59751
0.13056,0.65207,-0.74683,-0.37812,-0.1787,0.5236
0.11215,0.62903,-0.76925,-0.26185,-0.07952,0.4298
0.0934,0.61377,-0.78394,-0.19733,-0.0477,0.53933
0.07677,0.60368,-0.79352,-0.17427,-0.13275,0.57412
0.06355,0.5982,-0.79882,-0.1199,-0.12722,0.45704
0.05535,0.59828,-0.79937,-0.17528,-0.16857,0.44437
0.056,0.60597,-0.79351,-0.13336,-0.13707,0.42361
0.05776,0.6218,-0.78104,0.08198,-0.08391,0.18825
0.06281,0.64772,-0.75928,0.10962,-0.05637,0.0969
0.07653,0.6828,-0.72659,-0.01771,0.11122,-0.13665
0.0996,0.7162,-0.69075,-0.38443,0.33977,0.05928
0.10369,0.75497,-0.64751,0.33441,1.08248,0.07616
0.12538,0.78597,-0.60541,0.1665,1.2315,-0.1513
0.14024,0.80542,-0.57588,-0.22661,0.28012,-0.02391
0.14159,0.82358,-0.54924,-0.3129,-0.31748,0.30118
0.14482,0.84602,-0.51311,-0.18037,-0.41108,0.44199
0.15161,0.8676,-0.47358,-0.03679,-0.16442,0.17994
0.15528,0.88726,-0.43434,0.04895,0.10304,0.17717
0.15495,0.90606,-0.39375,0.03524,0.18447,0.35519
0.15349,0.92189,-0.35576,0.01198,0.22797,0.34103
0.15285,0.93387,-0.32329,-0.00096,0.20387,0.24072
0.15227,0.94309,-0.29563,-0.0337,0.03883,0.16748
0.15136,0.9512,-0.26889,-0.07819,-0.00784,0.14824
0.14622,0.95882,-0.24347,-0.23554,0.03336,0.21107
0.13672,0.9652,-0.22294,-0.21664,0.14133,0.2131
0.12789,0.96865,-0.21298,0.06124,0.21371,0.05237
0.11202,0.97024,-0.21467,0.30006,0.29755,-0.04067
0.08853,0.97122,-0.22113,0.24439,0.17095,0.06935
0.05774,0.97082,-0.23276,0.04428,0.17081,0.29503
0.03302,0.97131,-0.23553,0.13523,0.17536,0.47143
0.02007,0.97444,-0.22374,0.11687,0.03645,0.26677
0.02009,0.97895,-0.20312,0.10375,-0.01111,0.3878
0.02661,0.98447,-0.17351,0.00745,-0.03606,0.47072
0.03545,0.99079,-0.13069,-0.12922,0.15222,0.40082
0.03386,0.99651,-0.07623,-0.19867,0.40859,0.07554
0.01496,0.99959,-0.02421,0.14673,0.42489,-0.29909
-0.00687,0.9998,0.01858,0.34372,0.39603,-0.55109
-0.02122,0.99846,0.05127,0.4992,0.24973,-0.91391
-0.02829,0.99709,0.07076,0.16505,0.33476,-0.83671
-0.03086,0.99674,0.07447,-0.04754,0.27402,-0.62209
-0.02803,0.99771,0.06148,-0.04806,0.1245,-0.35573
-0.02373,0.9991,0.035,0.00184,0.29266,-0.28017
-0.01705,0.99977,-0.01321,0.04107,0.53591,-0.28588
-0.00107,0.99668,-0.08144,-0.02952,0.58459,-0.11829
0.02561,0.98784,-0.15333,-0.1855,0.60948,0.23164
0.05456,0.97536,-0.21375,-0.19798,0.54481,0.52733
0.07805,0.9616,-0.2631,-0.28401,0.45157,0.83352
0.10037,0.94731,-0.30419,-0.29787,0.36019,0.9615
0.12352,0.93518,-0.33194,-0.17633,0.11651,0.88466
0.16183,0.91972,-0.35767,-0.02521,0.02352,0.21342
0.19496,0.89262,-0.40646,-0.22913,0.07375,-0.27663
0.19943,0.85438,-0.47986,-0.1495,0.08887,0.33642
0.19833,0.81305,-0.54737,-0.00413,-0.04725,0.4277
0.19478,0.77498,-0.60122,-0.0968,-0.08716,0.55812
0.17361,0.73551,-0.65489,-0.19521,-0.24282,0.8467
0.15098,0.69606,-0.70193,-0.33682,-0.46707,0.79063
0.12623,0.65941,-0.74111,-0.27916,-0.38823,0.76219
0.10443,0.63089,-0.76881,-0.15916,-0.24357,0.72215
0.08421,0.61167,-0.78662,-0.15111,-0.22135,0.77655
0.06834,0.60305,-0.79477,-0.19611,-0.28192,0.61464
0.0578,0.60907,-0.79101,-0.10074,-0.38997,0.29561
0.062,0.63805,-0.76749,-0.18247,-0.33588,-0.05923
0.09086,0.68201,-0.72568,-0.22507,-0.22341,-0.30013
0.12047,0.72987,-0.67289,-0.05349,0.31675,0.93149
0.1264,0.78249,-0.60969,0.18193,1.76035,0.11344
0.15776,0.81372,-0.55944,0.21208,2.47112,-1.30445
0.1559,0.84017,-0.51942,-0.15018,0.01339,0.44644
0.15449,0.86005,-0.48625,-0.24151,-0.29271,0.11791
0.15347,0.8808,-0.44794,-0.34432,-0.51884,0.1785
0.14373,0.90455,-0.40141,-0.40328,-0.11835,0.3844
0.12283,0.92867,-0.34998,-0.348,0.47338,0.54985
0.0947,0.94987,-0.29796,-0.29862,0.52709,0.3437
0.08341,0.96319,-0.25556,-0.18735,0.24573,0.25919
0.08773,0.97217,-0.21721,-0.10691,0.0279,0.23283
0.09141,0.97862,-0.18426,0.01927,0.03272,0.19878
0.08746,0.98187,-0.16816,0.18239,-0.06582,0.12957
0.077,0.9822,-0.1713,0.36975,-0.16476,-0.0498
0.06129,0.98244,-0.17624,0.3293,-0.31224,-0.06119
0.04428,0.98366,-0.17452,0.12947,-0.28963,0.18494
0.03417,0.98425,-0.17343,0.10569,-0.26411,0.37279
0.02999,0.98343,-0.1788,0.12369,-0.22658,0.29081
0.03295,0.98276,-0.18189,0.15869,-0.10741,0.09301
0.04196,0.98307,-0.17836,0.15848,-0.0308,0.24775
0.05578,0.98454,-0.16604,0.01688,0.01946,0.47571
0.0689,0.98684,-0.14626,-0.2869,0.06722,0.27509
0.07471,0.99024,-0.11762,-0.48207,0.20324,0.12509
0.06373,0.99388,-0.09024,-0.18129,0.22338,0.3716
0.03867,0.99715,-0.06474,0.30402,0.48686,0.08706
0.00848,0.99952,-0.02966,0.48386,0.65081,-0.18893
-0.01403,0.99978,0.01543,0.44636,0.71786,-0.26601
-0.02527,0.99805,0.05712,0.26734,0.87563,-0.322
-0.03384,0.9964,0.07765,-0.3835,0.86335,-0.4961
-0.04288,0.99555,0.08389,-0.2495,0.61799,-0.58067
-0.05191,0.9959,0.07402,-0.02341,0.44671,-0.63421
-0.0543,0.99729,0.0497,0.27508,0.05899,-0.38222
-0.04819,0.99874,0.01415,0.26897,0.05754,-0.34667
-0.03385,0.99882,-0.03482,0.23949,0.2645,-0.30652
-0.01294,0.9952,-0.09694,0.25988,0.21788,-0.17922
0.01221,0.9856,-0.16863,0.07202,0.16749,0.13591
0.04068,0.971,-0.23561,-0.13213,0.37954,0.58755
0.07009,0.95425,-0.29067,-0.2959,0.46097,0.72211
0.09441,0.93814,-0.33315,-0.36066,0.12864,0.76692
0.11945,0.92244,-0.36721,-0.50949,-0.0379,0.73627
0.14076,0.89964,-0.41331,-0.70106,0.0285,0.51459
0.15539,0.8645,-0.47801,-0.40165,0.07564,0.40372
0.18104,0.82562,-0.53439,0.11575,0.1398,-0.1389
0.19128,0.79123,-0.58083,0.19644,0.16504,0.23708
0.17353,0.75043,-0.63777,0.10757,0.21747,0.73037
0.14951,0.70534,-0.69293,-0.14783,-0.07368,0.81242
0.12752,0.66436,-0.73645,-0.37353,-0.26939,0.82507
0.1076,0.6292,-0.76976,-0.29757,-0.33522,0.73778
0.08947,0.60207,-0.79341,-0.22822,-0.33689,0.56414
0.0715,0.585,-0.80788,-0.25631,-0.35917,0.62245
0.06332,0.57786,-0.81367,-0.20482,-0.29234,0.59575
0.05956,0.58015,-0.81233,-0.17772,-0.29052,0.45213
0.06207,0.5923,-0.80333,-0.11474,-0.23332,0.36459
0.0719,0.61816,-0.78275,0.16545,-0.10469,-0.00173
0.08414,0.66284,-0.74402,-0.01133,0.00435,-0.19261
0.11076,0.70314,-0.70237,-0.27566,0.20105,-0.10099
0.11792,0.74789,-0.65326,-0.31239,1.23644,0.59937
0.13253,0.78265,-0.60819,0.35959,1.42097,-0.30412
0.14243,0.80725,-0.57276,-0.0458,0.79576,0.17287
0.13335,0.82759,-0.54526,-0.41533,-0.27982,0.3645
0.12877,0.84926,-0.51203,-0.39992,-0.493,0.36692
0.1298,0.87287,-0.47037,-0.36768,-0.46532,0.28191
0.13207,0.89845,-0.41874,-0.25282,0.21099,0.35461
0.13075,0.924,-0.35936,-0.15684,0.44107,0.51651
0.1219,0.94594,-0.30055,-0.11467,0.46029,0.51024
0.11413,0.96038,-0.25426,0.02613,0.32577,0.41874
0.11155,0.96746,-0.22708,0.19637,0.08667,0.31905
0.10874,0.97193,-0.20865,0.23053,-0.03171,0.21622
0.10162,0.97677,-0.18865,0.21996,-0.01226,0.08822
0.08868,0.98139,-0.1703,0.13649,0.00515,0.05677
0.07174,0.98434,-0.16105,0.04052,0.00341,0.09453
0.05582,0.98625,-0.15557,0.05369,-0.03304,0.12152
0.04439,0.98787,-0.14881,-0.05061,-0.10905,0.24147
0.04205,0.98962,-0.13738,-0.11263,-0.15938,0.14803
0.04761,0.99143,-0.12162,-0.12009,-0.13404,0.12273
0.05622,0.99231,-0.11027,-0.10428,-0.12019,0.11506
0.0651,0.99303,-0.09828,0.10558,-0.12355,-0.27754
0.07331,0.99284,-0.09433,0.09737,-0.12336,-0.28149
0.08079,0.99147,-0.10228,0.0245,0.06621,-0.26082
0.08836,0.98982,-0.11156,0.07895,-0.12123,0.20714
0.09584,0.98835,-0.11826,0.06119,-0.1765,0.26151
0.09942,0.98715,-0.12509,-0.02119,-0.24841,0.17503
0.0976,0.98634,-0.13266,0.1363,-0.00664,0.23621
0.09498,0.98593,-0.13753,0.14475,-0.00203,0.27234
0.09027,0.98647,-0.13681,0.14592,0.01922,0.31989
0.08349,0.98764,-0.13263,-0.12614,-0.1734,0.2294
0.07295,0.98948,-0.12494,-0.23162,-0.20746,0.07852
0.05684,0.99169,-0.11537,-0.33368,0.05782,0.06366
0.03659,0.99425,-0.10066,-0.24419,0.44266,0.04728
0.01591,0.99666,-0.08003,0.03771,0.31771,0.11189
-0.00405,0.99857,-0.05325,-0.00979,0.44618,0.18263
-0.02384,0.99943,-0.02372,-0.00396,0.70597,0.31088
-0.03773,0.99923,0.01078,-0.06017,0.76234,0.10347
-0.04744,0.99784,0.04539,-0.1379,0.58512,-0.32574
-0.05574,0.99557,0.07562,-0.14081,0.55768,-0.40863
-0.06978,0.9927,0.09832,-0.01015,0.17687,-0.17868
-0.08803,0.98946,0.11493,0.10825,-0.14321,-0.14568
-0.1028,0.98651,0.1274,0.08618,-0.17352,-0.2207
-0.11163,0.98474,0.13348,0.16792,-0.00945,-0.35436
-0.11604,0.98477,0.12948,0.39641,0.10175,-0.4529
-0.11412,0.98691,0.11396,0.48518,0.0764,-0.50437
-0.10401,0.99088,0.08565,0.37678,-0.1166,-0.32837
-0.08653,0.99514,0.04686,0.09187,-0.15753,-0.04294
-0.0623,0.99805,0.00262,-0.07671,-0.15131,0.10191
-0.03451,0.99859,-0.04032,-0.4119,-0.05373,0.30436
-0.00356,0.99717,-0.07504,-0.49266,0.00454,0.34729
0.0289,0.99426,-0.10297,-0.51458,0.0289,0.38348
0.05938,0.99017,-0.12664,-0.51368,-0.00634,0.38176
0.08784,0.98522,-0.14704,-0.49601,-0.0187,0.34281
0.1137,0.98012,-0.16258,-0.50094,-0.05278,0.28329
0.13651,0.97606,-0.16933,-0.5143,-0.08167,0.11154
0.15574,0.97199,-0.176,-0.45256,0.09034,-0.30914
0.16608,0.96405,-0.20744,-0.54697,0.11265,-0.15919
0.17257,0.95471,-0.24238,-0.58503,0.01259,0.15961
0.17966,0.94658,-0.26778,-0.45918,-0.04111,0.30423
0.18147,0.9404,-0.28761,-0.27006,-0.02597,0.29992
0.17835,0.93292,-0.31281,-0.25443,0.02901,0.26725
0.17339,0.92316,-0.34309,-0.3104,0.06224,0.20054
0.16528,0.91154,-0.37652,-0.35671,0.08539,0.13105
0.15471,0.89923,-0.40921,-0.34097,0.07115,0.2491
0.14547,0.88797,-0.43628,-0.34133,0.058,0.28434
0.13422,0.87701,-0.46133,-0.41639,-0.0307,0.37324
0.12083,0.86561,-0.48592,-0.40299,-0.0193,0.39783
0.10965,0.85579,-0.50558,-0.34537,-0.04429,0.27775
0.09918,0.84711,-0.52208,-0.24663,-0.03578,0.27576
0.09065,0.83958,-0.53562,-0.18667,-0.0263,0.27676
0.08437,0.83455,-0.54443,-0.01134,-0.09305,0.30633
0.08173,0.83281,-0.54748,0.02461,-0.18663,0.29379
0.08308,0.83338,-0.54642,0.0075,-0.19233,0.2446
0.08568,0.83594,-0.54209,-0.02666,-0.16197,0.18946
0.08515,0.83988,-0.53605,-0.02039,-0.18558,0.19616
0.08565,0.84502,-0.52784,-0.00341,-0.21004,0.1462
0.08743,0.85043,-0.51877,-0.05418,-0.13234,-0.00745
0.08783,0.85595,-0.50955,-0.10981,-0.01261,-0.07803
0.08621,0.86178,-0.4999,-0.08809,0.08448,-0.08457
0.08623,0.86813,-0.48879,-0.09389,0.02518,-0.14591
0.09022,0.87511,-0.47543,-0.13421,-0.06783,-0.30451
0.09535,0.88453,-0.45663,-0.16286,-0.0825,-0.27735
0.09866,0.89709,-0.43069,-0.30957,-0.18322,-0.06237
0.1008,0.91243,-0.39663,-0.34784,-0.08658,0.07154
0.09811,0.92883,-0.35728,-0.61064,0.29682,0.15372
0.08,0.94613,-0.31374,-1.00099,1.6262,-0.10391
0.06301,0.95754,-0.28132,-0.7,1.81454,0.04782
0.08738,0.95355,-0.28827,0.07853,0.20955,-0.4855
0.1093,0.9476,-0.30018,-0.23203,-0.64755,0.82297
0.14146,0.94914,-0.2813,-0.53042,-0.89489,1.10301
0.17281,0.95362,-0.24646,-0.63962,-0.74982,0.66999
0.18926,0.96066,-0.20323,-0.68181,-0.40669,0.32521
0.18514,0.97203,-0.14446,-0.43761,-0.10504,0.52025
0.171,0.9823,-0.07638,-0.21123,0.3667,0.41913
0.15682,0.98754,-0.013,-0.01525,0.56233,0.21481
0.16424,0.98592,0.03119,0.19428,0.34696,0.16745
0.18691,0.98061,0.05883,0.19142,0.25152,0.16468
0.20502,0.97507,0.08487,-0.075,-0.10799,0.07627
0.22279,0.96797,0.11569,-0.31993,-0.13881,0.10636
0.23852,0.95926,0.15141,-0.50254,-0.0432,0.14124
0.2479,0.95032,0.18824,-0.58325,0.06448,0.15157
0.25032,0.9429,0.21971,-0.55631,0.01285,0.19966
0.24686,0.93898,0.23954,-0.48072,-0.01824,0.27796
0.24003,0.93858,0.24789,-0.42559,-0.03517,0.37977
0.23114,0.93833,0.25711,-0.28012,-0.02303,0.4855
0.22398,0.93541,0.27355,-0.11815,0.07496,0.53712
0.21444,0.93104,0.29525,0.02756,0.1566,0.43725
0.20068,0.92727,0.31607,0.18604,0.10443,0.20051
0.18861,0.92297,0.3355,0.23621,0.09853,0.13897
0.17681,0.91719,0.35708,0.27521,0.11927,0.03075
0.14148,0.90729,0.39598,0.41285,-0.10478,-0.38304
0.09158,0.89571,0.4351,0.4555,-0.15371,-0.53519
0.05094,0.88567,0.4615,0.50138,-0.13061,-0.5852
0.01349,0.87935,0.47599,0.48727,-0.0157,-0.37812
-0.02525,0.8714,0.48991,0.42689,-0.06522,-0.34443
-0.0557,0.85617,0.51368,0.42539,-0.06274,-0.38807
-0.07138,0.83678,0.54286,0.28095,0.48344,-0.52529
-0.07216,0.81404,0.57631,0.10153,0.49012,-0.70839
-0.07327,0.78889,0.61015,0.02494,0.45849,-0.87805
-0.1038,0.78212,0.61442,0.19327,0.55041,-0.86533
-0.12496,0.78794,0.60294,0.21442,0.5446,-0.85385
-0.14261,0.79359,0.59149,0.54214,0.56248,-0.41736
-0.1553,0.80075,0.57851,0.83113,0.40694,-0.51476
-0.1453,0.81428,0.562,0.46807,0.85246,-0.77192
-0.11612,0.83682,0.53502,0.08042,0.79004,-0.81127
-0.08693,0.86885,0.48737,-0.52884,0.65547,-0.84346
-0.06668,0.90714,0.41551,-0.5374,0.70758,-0.47495
-0.05298,0.94106,0.33407,-0.4237,0.72629,0.14634
-0.03071,0.96463,0.2618,-0.40963,0.79611,0.26958
-0.00336,0.97899,0.20388,-0.45698,0.83254,0.23261
0.02278,0.98682,0.16021,-0.59252,0.57469,-0.10613
0.05131,0.99106,0.12312,-0.42505,0.28306,-0.07904
0.08413,0.99401,0.06969,-0.16544,0.29036,0.0126
0.1107,0.99384,-0.0054,-0.2808,0.25354,0.12611
0.13144,0.98733,-0.08889,-0.10895,0.31887,0.3894
0.15401,0.9707,-0.18447,-0.17838,0.14471,0.25241
0.17563,0.94456,-0.27741,-0.2285,-0.01191,0.15313
0.18124,0.9099,-0.37313,-0.1184,-0.01186,0.36715
0.16789,0.86863,-0.46615,-0.13902,0.02425,0.46343
0.1437,0.82566,-0.54556,-0.29076,-0.18338,0.54263
0.12438,0.78739,-0.60378,-0.24378,-0.3962,0.63059
0.1065,0.75794,-0.64357,-0.22602,-0.47867,0.6324
0.09548,0.73836,-0.66761,-0.33297,-0.60596,0.60195
0.09031,0.7266,-0.6811,-0.1139,-0.5631,0.53681
0.09286,0.72142,-0.68624,-0.45466,-0.80605,0.22672
0.09477,0.72243,-0.68492,-0.14772,-0.5454,-0.07842
0.09304,0.73184,-0.67509,0.05353,-0.36508,-0.12714
0.09054,0.74922,-0.6561,0.07335,-0.3256,-0.17239
0.08586,0.7769,-0.62374,-0.35604,-0.00786,-0.14085
0.09277,0.80535,-0.58549,-0.43987,0.13307,-0.16403
0.11345,0.83437,-0.53941,-0.65884,0.59766,-0.26252
0.12719,0.86235,-0.49008,0.51366,0.74663,1.01628
0.16095,0.88826,-0.43023,-0.40119,0.1818,0.37191
0.18864,0.91075,-0.36736,-0.51608,-0.06057,0.13269
0.20083,0.93001,-0.3078,-0.44841,-0.12182,0.2455
0.20624,0.9473,-0.24515,-0.42448,0.19946,0.11726
0.20583,0.96222,-0.17821,-0.38244,0.39572,0.06008
0.19831,0.97376,-0.11165,-0.36565,0.52504,0.18785
0.18174,0.98184,-0.0544,-0.24723,0.18193,0.11336
0.16059,0.98701,-0.00456,-0.20374,0.06339,0.06807
0.13498,0.98961,0.04952,-0.25156,-0.09718,0.16198
0.09942,0.98917,0.10794,-0.2205,-0.01253,0.14194
0.06405,0.98564,0.15625,-0.01751,0.10532,0.18222
0.04208,0.98357,0.17554,0.32512,0.10815,0.26323
0.02705,0.98402,0.17596,0.6028,0.14002,0.12158
0.01608,0.98364,0.17945,0.82079,0.01435,-0.01981
-0.00211,0.97899,0.20388,0.79047,-0.14414,-0.16927
-0.03614,0.96784,0.24897,0.49451,-0.01877,-0.41218
-0.0561,0.9591,0.27745,0.36599,-0.02279,-0.58626
-0.06258,0.9553,0.28892,0.19762,-0.04702,-0.43102
-0.06713,0.95098,0.30186,0.01363,-0.15383,-0.14287
-0.07767,0.94395,0.32081,-0.1821,-0.1941,-0.23159
-0.09826,0.93612,0.33766,-0.31147,0.08327,-0.30883
-0.1241,0.92867,0.34953,0.26907,0.14094,-0.42607
-0.14808,0.92153,0.35895,0.74892,0.19062,-0.50107
-0.16504,0.91459,0.36916,0.9465,0.35071,-0.56439
-0.17465,0.90825,0.38023,0.69471,0.40055,-0.51983
-0.1782,0.90475,0.38688,0.32787,0.43403,-0.49131
-0.1738,0.90526,0.38768,0.12465,0.59297,-0.61936
-0.16301,0.91102,0.37876,0.14573,0.71953,-0.77223
-0.14682,0.92304,0.35557,0.16458,1.07882,-0.97821
-0.12556,0.94088,0.31462,0.20917,0.87931,-0.97178
-0.10608,0.96385,0.24442,0.26537,0.49874,-1.07164
-0.08517,0.98415,0.15551,0.17877,0.43053,-0.73197
-0.06098,0.99531,0.07514,-0.04557,0.45431,-0.03871
-0.02668,0.99963,0.00564,-0.25477,0.3554,0.58347
0.01499,0.99835,-0.05536,-0.32662,0.39087,0.7386
0.06242,0.9925,-0.10509,-0.41564,0.38898,0.78633
0.1136,0.9837,-0.13938,-0.51363,0.58509,-0.86905
0.17415,0.96926,-0.17382,0.1048,0.83191,-0.86295
0.23269,0.9445,-0.2319,0.61884,0.71551,-0.20115
0.27209,0.91618,-0.29425,0.61683,0.64025,-0.06865
0.29061,0.89145,-0.34766,0.10083,0.54422,0.38431
0.2848,0.86786,-0.40707,-0.15012,-0.10189,0.27492
0.26356,0.84762,-0.46053,-0.16694,-0.3976,0.41942
0.22614,0.83381,-0.50361,-0.2042,-0.60181,0.55398
0.18619,0.8306,-0.52482,-0.43385,-0.98206,0.63061
0.14769,0.83944,-0.52299,-0.39873,-1.00374,0.66061
0.11607,0.86105,-0.4951,-0.40321,-1.10128,0.73732
0.10024,0.89225,-0.44026,-0.44054,-1.18911,0.89665
0.09988,0.92552,-0.36529,-0.45033,-1.20266,0.73675
0.1124,0.95377,-0.27874,-0.6136,-1.19527,0.06973
0.10903,0.97298,-0.20352,-0.11937,-0.24321,0.9393
0.09002,0.9879,-0.12626,0.20184,0.41356,0.57367
0.06453,0.99613,-0.05974,0.08812,2.21599,0.14838
0.00994,0.99974,-0.02033,0.1753,1.06605,-0.49044
-0.0105,0.99986,-0.01268,0.33899,-0.19531,-0.21759
-0.01957,0.9998,-0.00332,0.27018,-0.48151,0.00039
-0.03336,0.99944,-0.00047,0.21743,-0.27918,-0.12769
-0.04179,0.99912,-0.00235,0.02631,0.06785,-0.15865
-0.04854,0.99882,-0.00192,0.05531,0.17821,-0.10646
-0.05482,0.99849,-0.00371,0.17628,0.17969,-0.07716
-0.0621,0.99802,-0.00955,0.16368,0.08398,-0.11029
-0.06845,0.99757,-0.0129,0.05615,0.09273,0.07313
-0.0713,0.99739,-0.0114,0.02639,0.01213,0.24056
-0.07255,0.99736,-0.00179,0.0006,-0.03939,0.06754
-0.0752,0.99698,0.01947,-0.01481,0.00519,-0.15518
-0.08316,0.99568,0.04129,0.24452,0.28766,0.09894
-0.09595,0.9932,0.06597,0.42957,0.3871,0.2077
-0.11044,0.98879,0.10046,0.49074,0.34367,0.17564
-0.12545,0.98103,0.14776,0.43234,0.49956,9e-05
-0.13656,0.96917,0.20509,0.44407,0.61697,-0.26947
-0.13846,0.95331,0.26836,0.44597,0.63282,-0.33274
-0.13392,0.93749,0.32122,0.01512,0.42054,-1.34615
-0.12951,0.92816,0.34892,-0.31101,0.29282,-0.99504
-0.13229,0.91902,0.37136,-0.12446,0.44388,-1.02376
-0.14191,0.91657,0.37384,0.02501,0.38624,-0.95328
-0.15305,0.92216,0.35524,0.47094,0.32621,-0.91801
-0.15829,0.93598,0.31445,0.57522,0.31351,-0.96325
-0.15177,0.95698,0.24728,0.61329,0.27223,-0.86111
-0.13026,0.97719,0.16772,0.44766,0.27719,-0.00074
-0.09365,0.99094,0.09632,0.29148,0.38303,0.17553
-0.0545,0.99801,0.03179,0.04318,0.42074,0.29504
-0.02144,0.99934,-0.02921,-0.49626,0.28345,0.63683
0.00479,0.99628,-0.08604,-0.45894,-0.08934,0.59558
0.02813,0.99031,-0.13595,0.06054,-0.01749,0.09143
0.05985,0.97775,-0.20103,0.39202,0.17135,-0.68568
0.10767,0.96014,-0.25795,-0.19004,0.3167,-0.15807
0.13977,0.93786,-0.31763,-0.13375,0.33416,0.43656
0.15259,0.90802,-0.39014,-0.09248,0.0937,0.52729
0.1508,0.87802,-0.45424,-0.0957,-0.11018,0.55954
0.14653,0.85418,-0.49891,0.00159,-0.35923,0.42691
0.13535,0.837,-0.5302,-0.14614,-0.40957,0.34857
0.11891,0.82835,-0.54745,-0.20822,-0.49128,0.37449
0.1022,0.83189,-0.54545,-0.29771,-0.69593,0.32025
0.08808,0.84937,-0.5204,-0.20353,-0.72013,0.44078
0.07625,0.88128,-0.4664,-0.23987,-0.74067,0.51548
0.07191,0.91647,-0.3936,-0.40607,-0.70124,0.08378
0.07092,0.93966,-0.33466,-0.50438,-0.38696,-0.55897
0.06898,0.96591,-0.24951,-0.39625,-0.0206,0.12546
0.07192,0.98281,-0.17003,0.52774,1.26214,-0.00766
0.07754,0.99085,-0.11046,0.50928,1.13024,-0.54335
0.06664,0.9959,-0.06118,0.0288,-0.0613,0.09012
0.05449,0.99776,-0.03887,-0.1417,-0.49889,-0.04101
0.04056,0.99877,-0.02833,-0.17136,-0.34693,-0.17399
0.02064,0.99968,-0.01428,-0.17776,-0.19988,-0.05245
-0.00253,0.99999,-0.00109,-0.18689,-0.00788,0.06371
-0.02226,0.99973,0.00661,-0.0771,0.13861,0.01671
-0.03736,0.99924,0.01124,0.05155,0.16445,-0.04307
-0.04689,0.9988,0.01394,0.2527,0.08639,-0.04672
-0.05834,0.99817,0.01575,0.35793,0.02818,-0.09324
-0.07393,0.99709,0.01856,0.23819,0.13695,0.01057
-0.08955,0.99566,0.02516,0.34154,0.18285,0.16075
-0.1111,0.9933,0.03189,0.45155,0.35048,-0.03755
-0.13113,0.99004,0.05118,0.38308,0.32368,0.12645
-0.13756,0.98683,0.08506,0.45577,0.36575,0.13887
-0.13946,0.9827,0.12187,0.26141,0.35422,0.0517
-0.14104,0.9743,0.17563,-0.01416,0.58814,-0.16155
-0.15065,0.9605,0.23395,-0.04538,0.69024,-0.53127
-0.16346,0.9463,0.27891,0.1493,0.59679,-1.01182
-0.17539,0.93479,0.30888,0.40796,0.37336,-1.25921
-0.19032,0.92604,0.32594,0.59229,0.14245,-1.20583
-0.2065,0.91931,0.33498,0.6023,-0.20183,-0.95971
-0.22046,0.91468,0.33875,0.6091,-0.39362,-0.8426
-0.2263,0.91499,0.33403,0.55477,-0.25183,-0.7019
-0.22319,0.92507,0.3073,0.51997,0.36319,-0.99255
-0.20993,0.94393,0.25479,0.46754,0.48301,-0.88806
-0.18802,0.96512,0.18218,0.39742,0.4801,-0.66644
-0.15512,0.98224,0.10552,0.07273,0.459,0.18327
-0.11521,0.99245,0.04192,-0.27142,0.45536,0.60799
-0.07898,0.99666,-0.02043,-0.54951,0.6549,0.98101
-0.04888,0.99535,-0.083,-0.48872,0.44971,0.93789
-0.02197,0.99134,-0.12947,-0.25643,0.18118,0.52412
0.0296,0.98291,-0.18167,0.48089,0.92505,-2.03225
0.09847,0.96706,-0.23472,-0.26805,0.80113,0.20671
0.14668,0.94387,-0.29595,0.33578,0.92329,0.35964
0.17356,0.9158,-0.36219,0.47746,0.40987,0.45875
0.17469,0.89151,-0.41796,0.30134,-0.10771,0.43102
0.16386,0.87363,-0.45816,0.00391,-0.33868,0.25481
0.14028,0.86134,-0.48827,-0.26607,-0.733,0.47795
0.10157,0.85634,-0.50632,-0.43771,-1.04694,0.59511
0.06165,0.86271,-0.50192,-0.33102,-1.12855,0.59732
0.03297,0.8861,-0.46231,-0.28204,-1.34043,1.12547
0.02289,0.92081,-0.38932,-0.45566,-1.29812,1.3245
0.02699,0.95213,-0.3045,-0.73586,-1.25295,0.06428
0.03425,0.97164,-0.23397,-0.95966,-0.77515,-1.25449
0.02881,0.9879,-0.15235,0.2599,0.15243,1.22735
0.02614,0.99751,-0.06538,0.34526,1.60539,0.79756
0.00546,0.99996,-0.00722,0.22319,2.48204,-0.25976
-0.02088,0.9997,-0.01235,0.53251,-0.03504,-1.29387
-0.03958,0.99909,-0.01549,0.27353,-0.55479,0.00434
-0.05841,0.99815,-0.01697,0.31284,-0.6782,0.28058
-0.07608,0.99687,-0.0211,0.08435,-0.13158,0.26112
-0.09206,0.99538,-0.02728,-0.10876,0.29007,0.12097
-0.10284,0.99427,-0.02901,-0.11971,0.30723,-0.00943
-0.11177,0.99333,-0.02824,-0.00475,0.19933,0.07693
-0.12248,0.99211,-0.02671,0.14582,0.24359,0.04409
-0.136,0.99048,-0.02108,0.30204,0.41526,0.11555
-0.14544,0.98936,-0.00326,0.40574,0.28495,0.31425
-0.1486,0.98859,0.02458,0.46475,0.28625,0.14342
-0.14779,0.98693,0.06417,0.22401,0.36982,-0.05661
-0.15005,0.98175,0.11685,0.11675,0.52985,-0.14993
-0.15982,0.97255,0.16913,0.11561,0.5481,-0.31372
-0.17418,0.96036,0.21765,0.13194,0.56407,-0.81198
-0.18955,0.94863,0.25332,0.30067,0.25091,-1.12891
-0.204,0.94011,0.27306,0.3648,0.07658,-1.08756
-0.21505,0.93412,0.28489,0.39927,-0.04848,-0.98764
-0.22249,0.92957,0.29392,0.45888,-0.11457,-0.6516
-0.22474,0.92684,0.30075,0.40902,-0.04371,-0.66606
-0.22277,0.92873,0.29634,0.39561,0.1542,-0.71799
-0.21199,0.94027,0.26635,0.35463,0.65026,-0.98676
-0.1944,0.95941,0.20429,0.27167,0.56752,-0.70333
-0.17449,0.97661,0.12563,0.21302,0.4583,-0.36985
-0.15215,0.98664,0.05815,-0.05175,0.23591,0.40449
-0.13086,0.99137,0.00775,-0.23457,0.37385,0.62307
-0.11041,0.99307,-0.04027,-0.23822,0.20783,0.65439
-0.08671,0.99274,-0.08331,-0.21364,0.03358,0.60885
-0.05752,0.99164,-0.11546,0.02076,-0.09249,0.11758
-0.02323,0.989,-0.14608,0.16667,0.01939,-0.55819
0.01747,0.98124,-0.192,0.09094,0.00668,-0.36873
0.05381,0.97011,-0.23662,0.05718,0.05041,-0.06782
0.07756,0.95676,-0.28032,0.05693,-0.07375,0.53197
0.08745,0.93873,-0.33336,0.0395,-0.06736,0.68636
0.08626,0.9161,-0.39157,-0.00996,-0.23282,0.53448
0.07621,0.88952,-0.45049,-0.2347,-0.36924,0.25582
0.06646,0.8642,-0.49873,-0.42415,-0.40507,0.31607
0.05505,0.84292,-0.53521,-0.37798,-0.44406,0.49845
0.0465,0.82769,-0.55925,-0.37194,-0.53556,0.49942
0.0428,0.82274,-0.5668,-0.20376,-0.56452,0.41291
0.04434,0.82885,-0.55772,-0.22627,-0.62119,0.30315
0.05126,0.84916,-0.52565,-0.20465,-0.6034,0.32569
0.06623,0.87898,-0.47224,-0.47334,-0.15736,-0.58824
0.0828,0.90166,-0.42444,-0.54495,0.11072,-0.08479
0.08279,0.92785,-0.36366,0.55427,1.04263,0.94695
0.0977,0.94675,-0.30679,0.37797,1.81609,-1.43202
0.10332,0.95779,-0.26825,-0.05622,0.26639,0.23752
0.1015,0.96467,-0.24312,-0.37004,-0.39701,-0.16857
0.09881,0.97124,-0.21661,-0.34438,-0.55881,-0.12342
0.0904,0.97821,-0.18688,-0.18724,-0.3785,-0.1351
0.07727,0.98443,-0.15788,-0.10702,-0.01339,0.05075
0.06263,0.98995,-0.12679,-0.02988,0.02278,0.13401
0.04702,0.99414,-0.09727,0.02679,0.02404,0.11225
0.03252,0.99699,-0.0703,0.02914,-0.05061,0.09909
0.01888,0.99898,-0.04092,0.014,-0.03638,0.06594
0.00226,0.99998,-0.00481,-0.02319,0.03034,0.07279
-0.01558,0.99949,0.02785,0.07161,0.34771,0.11513
-0.02909,0.99864,0.04321,0.78398,0.51824,-0.25278
-0.04585,0.99801,0.04318,0.9265,0.40398,-0.3826
-0.06767,0.99643,0.05046,0.83447,0.25038,-0.29102
-0.08057,0.99483,0.06172,0.35355,0.09373,-0.01486
-0.09177,0.99302,0.07402,0.22693,0.05332,-0.01803
-0.10107,0.9906,0.09218,0.18109,0.12143,-0.07674
-0.11125,0.98739,0.11259,0.14192,0.15424,-0.14057
-0.12308,0.98304,0.1359,0.1214,0.16053,-0.12501
-0.13605,0.97736,0.16201,0.10072,0.1573,-0.11031
-0.15409,0.96951,0.19054,0.01233,0.13149,-0.2977
-0.1769,0.95986,0.21763,0.10082,0.12688,-0.34929
-0.20029,0.94864,0.24486,0.40558,0.05714,-0.45448
-0.21667,0.93754,0.27216,0.61978,-0.06857,-0.66853
-0.2275,0.92844,0.29365,0.48879,-0.04442,-0.57888
-0.23197,0.92279,0.30764,0.1247,0.21277,-0.5478
-0.23014,0.92066,0.31531,0.05995,0.35695,-0.56421
-0.22715,0.92212,0.3132,0.10032,0.6057,-0.6228
-0.22353,0.92935,0.29384,0.49346,0.38666,-0.67044
-0.21645,0.94323,0.25192,0.5416,0.32589,-0.56956
-0.20389,0.95957,0.19404,0.50795,0.33845,-0.44079
-0.18082,0.97411,0.13564,0.32192,0.40186,-0.03326
-0.14944,0.98498,0.08651,0.17694,0.44207,0.0831
-0.11385,0.9925,0.04453,-0.17107,0.60157,0.22787
-0.08,0.99678,0.00534,-0.46837,0.33457,0.25253
-0.05526,0.9977,-0.0392,-0.60714,-0.07074,-0.12769
-0.03263,0.99582,-0.08526,-0.58753,-0.14832,-0.27699
-0.01052,0.98966,-0.14302,-0.05259,0.00407,-0.28189
0.01244,0.98099,-0.19365,-0.01105,-0.01341,-0.26886
0.04065,0.97095,-0.2358,0.10118,0.04158,0.10304
0.0646,0.95564,-0.28737,0.12526,-0.03344,0.30414
0.07344,0.9323,-0.35413,0.13206,-0.16377,0.14666
0.06511,0.90351,-0.4236,0.08468,-0.32569,0.25517
0.044,0.8734,-0.485,0.07124,-0.29874,0.42131
0.01618,0.84412,-0.53591,-0.11868,-0.51761,0.54267
-0.01671,0.81578,-0.57811,-0.17861,-0.68648,0.63277
-0.04442,0.79189,-0.60905,-0.17026,-0.67043,0.55427
-0.06604,0.77399,-0.62974,-0.07006,-0.58026,0.49029
-0.07944,0.76223,-0.64241,-0.04241,-0.44624,0.35643
-0.08273,0.75549,-0.64991,0.01951,-0.39846,0.18759
-0.08119,0.75347,-0.65245,0.21582,-0.24769,0.02066
-0.07473,0.75771,-0.6483,0.21424,-0.26512,-0.04851
-0.06107,0.76836,-0.63709,0.18545,-0.27261,-0.10015
-0.04103,0.78375,-0.61972,0.23807,-0.14697,-0.35695
-0.02305,0.80071,-0.59861,0.24064,-0.09842,-0.56851
-0.00446,0.818,-0.5752,0.11884,0.18343,-1.08225
0.01065,0.83966,-0.54301,0.57685,1.01351,-0.51104
0.02585,0.86297,-0.5046,0.5752,1.19161,-0.10563
0.02849,0.88213,-0.47013,0.46591,0.74341,0.54385
0.02449,0.89833,-0.43864,-1.15779,-0.59566,-0.1654
0.01381,0.91498,-0.40327,-0.59105,-0.58789,0.38468
0.01572,0.93437,-0.35597,-0.31973,-0.15051,0.17092
0.02083,0.95158,-0.30669,-0.23557,0.06969,-0.12428
0.01956,0.9655,-0.25965,-0.06189,-0.01934,0.00712
0.01539,0.97681,-0.21354,-0.00902,-0.03823,-0.0006
0.01016,0.98591,-0.16696,0.01465,-0.00346,-0.10522
-0.00107,0.99231,-0.12377,-0.01324,0.00522,-0.14438
-0.01819,0.9963,-0.08403,-0.00054,-0.00536,-0.1203
-0.03843,0.99815,-0.047,0.03048,0.00581,-0.14494
-0.06088,0.99803,-0.0148,0.04553,0.08153,-0.11999
-0.0845,0.99633,0.01323,0.04611,0.01714,-0.0172
-0.10597,0.99361,0.0389,0.05618,0.04083,-0.01238
-0.12244,0.99035,0.06485,0.01442,0.12537,0.05345
-0.13313,0.98693,0.09076,0.089,0.11364,0.11125
-0.14033,0.98332,0.11567,0.13388,0.08524,0.11067
-0.14891,0.97937,0.13661,0.18791,0.03966,0.1375
-0.15931,0.9755,0.15169,0.22817,-0.01122,0.10903
-0.16866,0.97207,0.16319,0.25063,0.01733,0.101
-0.17495,0.96842,0.17763,0.26872,0.0339,0.13977
-0.17695,0.96389,0.19899,0.18267,-0.00449,0.21464
-0.17677,0.95821,0.22488,0.09015,-0.0225,0.15306
-0.17623,0.95175,0.25122,0.1016,-0.02699,-0.02368
-0.17456,0.9459,0.27348,0.06706,-0.01333,-0.24425
-0.17423,0.94058,0.29147,-0.04318,0.09281,-0.65312
-0.18671,0.93605,0.29825,0.20837,0.14179,-0.35172
-0.20539,0.93208,0.2984,0.32192,0.04677,-0.18388
-0.21925,0.92872,0.29902,0.42375,-0.12397,-0.11683
-0.23301,0.92361,0.30438,0.41984,-0.20583,-0.0105
-0.24768,0.91617,0.3151,0.38846,-0.12893,0.0615
-0.26431,0.90647,0.32932,0.26173,0.04016,0.01632
-0.28139,0.89394,0.34883,0.13694,0.10502,-0.15158
-0.29409,0.87876,0.37589,0.14456,0.11685,-0.49594
-0.29738,0.85988,0.41493,0.22975,0.14068,-1.15602
-0.2986,0.8421,0.44911,0.50154,0.34569,-0.5231
-0.32171,0.83637,0.44382,0.61955,0.4257,-0.28341
-0.34313,0.83324,0.43355,0.65697,0.52459,-0.23703
-0.35118,0.83075,0.43188,0.82672,0.50116,-0.33025
-0.35176,0.82734,0.43791,0.86532,0.43572,-0.29222
-0.34699,0.83101,0.43477,0.58016,0.56253,-0.29161
-0.33295,0.84492,0.41863,0.25264,0.60761,-0.40135
-0.31219,0.86189,0.39959,-0.15924,0.40113,-0.76107
-0.28955,0.88138,0.37326,-0.33943,0.29085,-0.56862
-0.27548,0.90636,0.32033,-0.18013,0.27487,-0.21954
-0.2657,0.93147,0.24852,-0.04413,0.46575,0.09854
-0.24982,0.95252,0.17405,-0.07649,0.64071,0.26672
-0.22434,0.96796,0.11279,-0.13304,0.6418,0.33375
-0.19695,0.97798,0.06898,-0.29906,0.44255,0.35849
-0.17694,0.98374,0.03081,-0.45293,0.26246,0.1617
-0.15982,0.9871,-0.00911,-0.59612,0.10016,-0.19646
-0.13694,0.98881,-0.05907,-0.46131,-0.0628,0.05949
-0.11299,0.98763,-0.10869,-0.20463,-0.17492,0.26068
-0.0953,0.98457,-0.14673,0.13596,-0.24123,0.36049
-0.09144,0.97811,-0.18691,0.27847,-0.11773,0.26342
-0.09538,0.96868,-0.22925,0.27259,0.02393,0.26362
-0.1049,0.9569,-0.27082,0.21356,-0.00246,0.39187
-0.1216,0.94069,-0.31672,0.08205,-0.17101,0.43633
-0.13927,0.9217,-0.36203,-0.02577,-0.26745,0.38054
-0.15722,0.9041,-0.39733,-0.16647,-0.36611,0.38571
-0.17353,0.89052,-0.42056,-0.18763,-0.37617,0.39196
-0.1883,0.88039,-0.43526,0.1208,-0.34888,0.32819
-0.20136,0.87346,-0.44331,0.20725,-0.34174,0.34499
-0.20931,0.87174,-0.443,0.25324,-0.33874,0.35328
-0.21144,0.87618,-0.43312,0.18501,-0.36779,0.30704
-0.20822,0.8854,-0.41559,0.21215,-0.36779,0.24917
-0.19995,0.8973,-0.39354,0.3589,-0.24497,0.03467
-0.18316,0.90776,-0.37738,0.17674,0.00612,-0.40551
-0.15097,0.91174,-0.38201,0.09232,0.22299,-0.76298
-0.12152,0.91171,-0.39245,-0.07892,0.29868,-1.07598
-0.10925,0.91447,-0.38962,0.15683,0.22149,-0.89253
-0.10079,0.91989,-0.37901,0.3012,0.06933,-0.58812
-0.10583,0.92522,-0.36436,0.24637,-0.22239,-0.25806
-0.11853,0.92843,-0.35209,0.13553,-0.40537,-0.00834
-0.13009,0.92981,-0.34426,0.13557,-0.32108,0.19276
-0.12933,0.9416,-0.31091,-0.13593,1.58173,1.07411
-0.11082,0.95612,-0.27121,-0.28582,2.76247,-0.51306
-0.0944,0.95061,-0.29566,-0.71234,0.88183,-0.1467
-0.06423,0.94521,-0.32009,-0.44311,-0.93562,1.19904
-0.02716,0.94326,-0.33093,-0.49543,-1.02661,0.69796
-0.00952,0.95247,-0.30447,-0.33534,-0.70105,0.73396
-0.00576,0.96739,-0.25322,-0.32652,-0.27447,0.89448
-0.01067,0.97957,-0.20083,-0.47177,0.39937,0.85247
-0.01822,0.98743,-0.157,-0.58174,0.929,0.78169
-0.01437,0.99252,-0.12121,-0.07508,0.56656,0.74554
-0.01405,0.99579,-0.09059,0.28666,0.20245,0.70276
-0.02385,0.99761,-0.06486,0.46347,0.00857,0.60378
-0.03053,0.99862,-0.04268,0.46205,-0.09933,0.40069
-0.02487,0.9995,-0.01924,0.31101,-0.16526,0.30812
-0.01001,0.99995,-0.00239,0.22534,0.08038,0.2561
0.00545,0.99998,0.00176,0.10697,0.31812,0.39685
0.02153,0.99977,-0.00153,0.12268,0.15366,0.4475
0.03376,0.99943,-0.0001,0.1876,-0.00693,0.36973
0.0426,0.99906,0.00773,0.45267,-0.09952,0.10773
0.04115,0.99888,0.02326,0.65726,0.03866,0.24847
0.02159,0.99899,0.03945,0.66144,0.04362,0.22214
0.00534,0.99884,0.04775,0.58464,-0.30028,0.03913
0.00225,0.99713,0.07567,0.33542,-0.17199,0.01586
0.00915,0.99297,0.11802,0.00606,0.0802,-0.20817
0.01244,0.98899,0.14747,-0.27148,0.15074,-0.42064
0.00242,0.98895,0.14823,-0.17362,0.11559,-0.13225
-0.01228,0.98837,0.15157,-0.09238,-0.05372,0.033
-0.02898,0.98646,0.16141,0.10112,-0.04717,-0.16059
-0.04442,0.9844,0.17026,0.14474,-0.02503,-0.27295
-0.05885,0.98294,0.17422,0.16908,-0.01529,-0.21408
-0.0708,0.9813,0.17897,0.18565,-0.00941,-0.09063
-0.0808,0.9792,0.18612,0.1317,0.45687,-0.04883
-0.08833,0.97692,0.19447,0.1317,0.61912,-0.10838
-0.09129,0.97584,0.1985,0.1305,0.7495,-0.23975
-0.08591,0.97765,0.19185,-0.00125,0.47076,-0.46927
-0.07341,0.98252,0.17103,0.04401,0.31617,-0.40379
-0.06011,0.98929,0.13302,0.11206,0.1926,-0.33823
-0.04495,0.99547,0.08375,0.12634,0.64253,-0.11651
-0.02502,0.99925,0.02938,0.02415,0.70714,0.00599
-0.00095,0.99964,-0.02676,-0.1143,0.74826,0.08769
0.02962,0.99644,-0.07887,-0.41934,0.62956,0.16127
0.06185,0.98926,-0.13244,-0.55639,0.38896,0.15856
0.08764,0.97759,-0.19138,-0.66287,0.36732,0.2307
0.10521,0.96315,-0.24751,-0.75667,0.31304,0.16401
0.12403,0.94555,-0.30091,-0.81269,0.21784,0.18992
0.14849,0.92116,-0.35974,-0.85097,0.09322,0.01067
0.16569,0.89228,-0.41999,-0.43373,0.17859,0.12238
0.16662,0.86287,-0.47717,-0.02617,0.25096,0.45414
0.16608,0.82573,-0.53906,0.18785,0.13284,0.6289
0.16713,0.77806,-0.60554,0.17488,0.06204,0.49467
0.16405,0.72871,-0.66489,0.16426,0.09078,0.26819
0.15333,0.6833,-0.71385,-0.0702,-0.02001,0.45177
0.12582,0.63692,-0.76059,0.0346,-0.0006,0.60799
0.08952,0.59267,-0.80045,-0.03966,-0.16468,0.7387
0.05408,0.55712,-0.82867,-0.06513,-0.29438,0.73084
0.02107,0.53126,-0.84695,-0.18229,-0.44163,0.65041
-0.004,0.5164,-0.85634,-0.13466,-0.43019,0.5944
-0.02197,0.51341,-0.85786,-0.24111,-0.50833,0.50513
-0.03157,0.52197,-0.85238,-0.10515,-0.50286,0.37841
-0.02751,0.54222,-0.83979,-0.07393,-0.52612,0.28734
-0.01389,0.57206,-0.8201,0.04584,-0.45122,-0.27497
-0.00891,0.6116,-0.79112,0.25635,-0.19437,-0.65127
-0.01344,0.65391,-0.75645,0.33358,0.16065,0.53195
-0.01213,0.68479,-0.72864,-0.86445,0.62394,1.2327
-0.02871,0.71507,-0.69846,-1.32656,1.30957,-0.61398
-0.0405,0.73884,-0.67266,-0.17344,0.71779,1.1009
-0.03661,0.76151,-0.64712,-0.18059,0.04377,0.42464
-0.01254,0.78359,-0.62115,-0.05105,0.20164,0.45213
0.01389,0.80525,-0.59277,-0.10746,0.39365,0.554
0.03758,0.8275,-0.5602,0.06018,0.43385,0.5305
0.05542,0.8488,-0.5258,0.17762,0.34232,0.49948
0.06766,0.86945,-0.48936,0.19836,0.25266,0.41549
0.07427,0.88981,-0.45024,0.14425,0.17487,0.37637
0.07197,0.90846,-0.41173,0.0041,0.14582,0.25008
0.06174,0.92462,-0.37585,-0.04146,0.19266,0.16492
0.04591,0.93759,-0.34468,0.06914,0.30136,0.14592
0.02491,0.94688,-0.32063,0.21794,0.15946,0.16022
0.00094,0.95336,-0.30183,0.19738,0.01144,0.11673
-0.02304,0.95848,-0.28423,0.20157,-0.02048,0.2032
-0.04642,0.96296,-0.2656,0.21739,-0.00065,0.2238
-0.06802,0.96744,-0.24377,0.16972,-0.01774,0.20608
-0.08264,0.9721,-0.21952,0.15423,-0.00079,0.12085
-0.0902,0.97644,-0.19601,0.03487,-0.02327,0.08711
-0.08854,0.9808,-0.17375,0.00847,-0.02148,0.05943
-0.0829,0.98494,-0.15173,-0.12986,-0.04692,-0.01261
-0.07938,0.98807,-0.13196,-0.23317,-0.01518,-0.05147
-0.08221,0.9892,-0.12131,-0.141,-0.08651,0.0963
-0.08521,0.98965,-0.11542,0.02034,-0.16783,0.30124
-0.08585,0.99071,-0.10541,-0.05286,-0.05637,0.128
-0.09454,0.99157,-0.08855,0.01235,-0.05761,0.17098
-0.10496,0.99196,-0.07062,0.13274,-0.0536,0.22765
-0.11224,0.99226,-0.05314,0.31555,0.1316,0.15388
-0.12067,0.99222,-0.03065,0.23346,0.33098,-0.06566
-0.1316,0.99127,-0.00811,0.24811,0.43361,-0.17794
-0.14135,0.98991,0.00964,0.12029,0.68419,-0.54916
-0.14637,0.98912,0.01465,0.16406,0.64928,-0.55449
-0.14119,0.98998,-0.00342,0.19654,0.59434,-0.50447
-0.12922,0.99067,-0.04327,0.24485,0.55462,-0.58353
-0.11237,0.98909,-0.09521,0.12508,0.63164,-0.4854
-0.09605,0.98271,-0.15825,0.00142,0.71031,-0.30343
-0.07261,0.96949,-0.23414,0.03023,0.53547,0.2017
-0.03447,0.94979,-0.31098,-0.13879,0.40203,0.52257
0.00645,0.92825,-0.3719,-0.15374,0.24817,0.9853
0.03915,0.9098,-0.41319,-0.12617,0.21144,1.05011
0.06757,0.89823,-0.4343,0.10342,0.23193,1.09573
0.12701,0.88044,-0.45683,0.02985,0.37913,-0.09847
0.18672,0.84196,-0.50619,0.0246,0.43175,-0.23289
0.21996,0.79559,-0.56449,0.1432,0.67386,-0.2069
0.22826,0.75488,-0.61486,-0.09342,0.40949,0.84021
0.21639,0.70719,-0.67309,-0.10335,0.22088,0.99202
0.19706,0.65721,-0.72749,-0.15943,0.12949,1.01404
0.17357,0.6113,-0.77213,-0.18501,-0.05534,0.69358
0.15002,0.57573,-0.80375,-0.32774,-0.17377,0.63484
0.11745,0.55516,-0.82341,-0.17197,-0.15811,0.76289
0.07334,0.55034,-0.83171,-0.04896,-0.47104,0.83536
0.0301,0.5667,-0.82337,0.04457,-0.37288,0.82417
0.00292,0.60206,-0.79845,-0.08646,-0.42887,0.43004
-0.00468,0.65199,-0.75822,-0.16265,-0.63157,0.47135
0.00039,0.7132,-0.70096,-0.15354,-0.86429,0.63448
0.01693,0.77103,-0.63657,0.08162,-0.65924,1.06953
0.04804,0.82452,-0.56378,-0.04962,0.74471,-0.57321
0.09486,0.85748,-0.5057,-0.19461,3.20385,-0.41481
0.10234,0.88713,-0.45003,-0.15418,1.65047,0.33556
0.10498,0.89781,-0.42768,-0.19966,-0.47542,0.27573
0.10745,0.90679,-0.40767,-0.35194,-0.81493,0.05504
0.09968,0.92226,-0.3735,-0.58037,-0.59894,0.46121
0.08636,0.94037,-0.32902,-0.54283,-0.28349,0.49486
0.06183,0.9576,-0.2814,-0.46161,0.03496,0.3791
0.03096,0.97037,-0.23962,-0.55632,0.47009,0.36853
0.01018,0.97585,-0.21819,-0.28046,0.75161,0.47779
-0.01724,0.97638,-0.21536,0.24156,0.47871,0.32014
-0.04847,0.97717,-0.20685,0.72109,0.07512,0.08339
-0.06868,0.98247,-0.17329,0.98892,0.12153,0.03157
-0.07305,0.98727,-0.14125,0.65533,-0.12266,0.54709
-0.05119,0.99078,-0.12545,0.25067,-0.22634,0.66321
-0.00979,0.99517,-0.09764,0.08216,-0.25893,0.4319
0.02304,0.9979,-0.06055,-0.63199,-0.0381,-0.75859
0.02223,0.99873,-0.04514,-0.56901,-0.13063,-0.38093
0.00199,0.99913,-0.04161,-0.28823,-0.15172,-0.03791
-0.01943,0.99945,-0.02663,0.59736,-0.07689,0.21684
-0.0332,0.99941,-0.0086,0.51947,-0.1395,0.27973
-0.04127,0.99913,0.00616,0.25872,-0.007,0.11681
-0.05195,0.99852,0.0161,0.22468,0.18802,-0.06583
-0.06352,0.99771,0.02304,0.16474,0.46651,-0.37184
-0.07451,0.9968,0.02894,0.05673,0.51781,-0.52328
-0.0819,0.99615,0.03119,-0.00493,0.69645,-0.56654
-0.08366,0.99624,0.02233,0.12943,0.92574,-0.60177
-0.0784,0.9969,-0.0065,0.33324,0.87085,-0.66522
-0.0622,0.99617,-0.06147,0.31059,0.79444,-0.70304
-0.0346,0.99007,-0.13626,0.03814,0.69272,-0.53366
0.00047,0.9765,-0.21553,-0.0039,0.81263,-0.08714
0.04179,0.95593,-0.29059,-0.11422,0.81487,0.18776
0.07996,0.92955,-0.35991,-0.40307,0.78685,0.64142
0.11947,0.89965,-0.41996,-0.49413,0.66868,0.77369
0.15663,0.86741,-0.47229,-0.61195,0.53345,0.54156
0.19257,0.82214,-0.53573,-0.65201,0.37584,-0.14883
0.20764,0.75548,-0.62139,-0.01633,0.68171,0.40676
0.21109,0.68433,-0.69794,0.06716,0.48551,0.23287
0.20557,0.61076,-0.76466,0.26782,0.61548,0.42615
0.17797,0.52652,-0.83133,0.41331,0.5092,1.0597
0.13358,0.43514,-0.8904,0.33289,0.45601,1.03287
0.06902,0.34757,-0.93511,-0.21504,-0.1392,1.38564
0.00437,0.26679,-0.96374,-0.55207,-0.61077,1.39239
-0.04082,0.1962,-0.97971,-0.56773,-0.42872,1.13697
-0.06959,0.13732,-0.98808,-0.05869,-0.11563,1.0372
-0.08516,0.09059,-0.99224,0.01601,-0.31613,0.75323
-0.08995,0.05976,-0.99415,0.07001,-0.53277,0.30186
-0.09567,0.0471,-0.9943,0.23367,-0.31509,0.26346
-0.10199,0.05948,-0.993,0.55638,-0.18215,0.12545
-0.10603,0.09412,-0.9899,0.4731,-0.05237,-0.09634
-0.10195,0.14433,-0.98426,0.12321,-0.00291,-0.20283
-0.0944,0.20774,-0.97362,-0.04403,-0.0908,-0.42619
-0.08741,0.27193,-0.95834,-0.05835,0.35977,-0.79252
-0.08265,0.32454,-0.94225,-0.08413,0.55783,-0.69651
-0.07408,0.3789,-0.92247,0.07211,0.95455,0.13208
-0.05599,0.43151,-0.90037,-0.54466,0.03766,0.94149
-0.04866,0.47962,-0.87613,-0.51675,-0.49294,0.57899
-0.01592,0.53026,-0.84769,-0.16311,-0.20192,0.43711
0.03135,0.58185,-0.81269,-0.30416,0.04182,0.29838
0.07608,0.63197,-0.77124,-0.28772,0.11003,0.39327
0.12094,0.68192,-0.72136,-0.24947,0.46597,0.44246
0.1549,0.72993,-0.66573,-0.1366,0.80332,0.3802
0.18097,0.77469,-0.60589,-0.06679,0.63702,0.33744
0.2007,0.81447,-0.54438,-0.0536,0.45825,0.34132
0.20825,0.85063,-0.48276,-0.18933,0.03745,0.54191
0.20805,0.88242,-0.42194,-0.18921,0.05564,0.47425
0.20012,0.91046,-0.36194,-0.18113,0.09749,0.40129
0.18477,0.93345,-0.30744,-0.14458,0.22492,0.31041
0.16693,0.94941,-0.266,-0.01123,0.28654,0.3101
0.14322,0.96035,-0.23917,0.09882,0.25705,0.27387
0.10823,0.96904,-0.2219,0.21609,-0.05085,0.11806
0.08103,0.97537,-0.20515,0.26184,-0.08235,0.14103
0.07369,0.98018,-0.18388,0.22055,-0.05745,0.23366
0.08875,0.98541,-0.14521,0.04333,-0.01133,-0.4307
0.09859,0.9888,-0.11207,0.05796,-0.02633,-0.3685
0.10254,0.99045,-0.09219,0.0258,-0.11293,-0.2784
0.10862,0.9915,-0.07152,0.10167,-0.05819,-0.07493
0.11389,0.9921,-0.05253,0.05626,-0.0557,-0.12896
0.11624,0.99233,-0.04212,0.0027,-0.08231,-0.25871
0.11587,0.99239,-0.04158,0.07648,-0.06249,-0.17832
0.11683,0.99215,-0.04459,0.19016,-0.0152,-0.07664
0.1199,0.99154,-0.04972,-0.00453,-0.14431,0.04801
0.12537,0.99003,-0.06418,-0.16415,-0.08157,-0.13475
0.13051,0.98818,-0.08041,-0.15602,-0.00368,-0.0055
0.13476,0.98635,-0.09465,-0.01992,-0.34088,0.23329
0.13871,0.984,-0.11177,-0.13453,-0.41944,0.03222
0.13922,0.98206,-0.1272,-0.24969,-0.26935,0.22809
0.13496,0.98182,-0.13347,-0.32457,-0.17209,0.61936
0.12486,0.9832,-0.13316,-0.38802,-0.29418,0.28264
0.10941,0.9848,-0.13486,-0.29711,-0.09551,0.29808
0.09582,0.98678,-0.13067,-0.35606,0.25112,0.49936
0.07675,0.98972,-0.12062,-0.27394,0.43554,0.47971
0.05459,0.99302,-0.1045,0.00927,0.54595,0.37674
0.03667,0.99613,-0.07984,0.11559,0.99577,0.31633
0.02853,0.99868,-0.04255,-0.17988,1.28875,0.35188
0.02146,0.99977,-0.00044,-0.09468,1.27921,0.28004
0.00844,0.99903,0.04322,0.03738,0.62396,0.10514
-0.00748,0.9962,0.08675,-0.3189,0.62921,-0.15135
-0.02205,0.99178,0.126,-0.49004,0.58917,-0.42065
-0.03613,0.98778,0.15157,-0.04848,0.48815,-0.9653
-0.04914,0.98693,0.15343,0.68653,0.42652,-1.13235
-0.05193,0.99074,0.12543,1.15202,0.34808,-1.00192
-0.0429,0.99612,0.07684,0.98851,0.19416,-0.46538
-0.02446,0.99951,0.01954,0.58517,-0.04568,-0.13251
0.00801,0.99925,-0.03771,0.20804,-0.11579,0.07552
0.05016,0.99455,-0.09132,-0.02729,-0.05225,0.19381
0.09397,0.98546,-0.14155,-0.24259,0.16071,0.20713
0.13428,0.97286,-0.18843,-0.36319,0.30863,0.21425
0.16813,0.95729,-0.23521,-0.48734,0.48703,0.09932
0.1978,0.93848,-0.28308,-0.48636,0.40176,0.1369
0.22327,0.91579,-0.33388,-0.51279,0.48094,0.24664
0.24534,0.88965,-0.38514,-0.04334,0.8076,0.12383
0.29187,0.85433,-0.43002,-0.13651,0.62382,-0.17912
0.34399,0.80646,-0.48094,-0.43653,0.41561,-0.03592
0.34856,0.74918,-0.56324,-0.27697,0.65701,0.32859
0.35516,0.68876,-0.63204,0.17943,0.89402,0.52143
0.34272,0.61833,-0.70726,-0.06342,0.73371,0.73068
0.28676,0.53614,-0.79393,-0.20593,0.6287,1.00198
0.21847,0.45213,-0.86479,-0.64574,-0.24319,1.53495
0.16171,0.37661,-0.91215,-0.75647,-0.61454,1.3736
0.12361,0.31324,-0.94159,-0.5903,-0.52734,1.38611
0.10952,0.26521,-0.95795,-0.50491,-0.52871,1.07165
0.11237,0.22867,-0.967,-0.46018,-0.47024,0.93758
0.12595,0.201,-0.97146,-0.04872,-0.31885,0.66912
0.13671,0.17876,-0.97435,0.25541,-0.20603,0.67097
0.13664,0.15954,-0.97769,0.08951,-0.35491,0.58285
0.13324,0.14679,-0.98015,0.1887,-0.17175,0.3237
0.13214,0.13998,-0.9813,0.24814,0.08612,0.053
0.12365,0.13799,-0.98268,0.26969,0.32237,-0.01432
0.1096,0.13899,-0.98421,0.13585,0.49018,-0.2469
0.0993,0.13954,-0.98523,0.13476,0.58198,-0.58332
0.09254,0.14321,-0.98536,0.37928,0.76136,-1.37466
0.05921,0.16359,-0.98475,0.31935,0.16783,-0.66993
0.00777,0.19044,-0.98167,0.05897,0.10163,0.54249
-0.0151,0.22634,-0.97393,-0.90626,0.2248,-0.49453
-0.04169,0.27364,-0.96093,0.04256,0.13659,0.17605
-0.04708,0.3303,-0.9427,0.00941,0.22275,0.12413
-0.05773,0.39203,-0.91814,-0.19122,0.44381,0.69262
-0.05238,0.45171,-0.89062,-0.45654,0.17763,0.47891
-0.03862,0.50765,-0.86069,-0.40649,0.00541,0.4352
-0.01454,0.56207,-0.82696,-0.53534,-0.15803,0.30046
0.01815,0.61869,-0.78542,-0.45402,-0.20332,0.38792
0.0582,0.67634,-0.73429,-0.34014,-0.1576,0.40671
0.09928,0.73119,-0.6749,-0.27303,0.01365,0.46072
0.13483,0.78138,-0.60931,-0.24158,0.25906,0.4801
0.15824,0.82774,-0.53833,-0.18409,0.36398,0.4488
0.17098,0.86998,-0.46248,-0.0825,0.47246,0.44167
0.17811,0.90826,-0.3786,-0.04043,0.41373,0.49704
0.17493,0.93863,-0.29726,0.11823,0.18619,0.30567
0.17159,0.95618,-0.23721,0.12992,0.13943,0.23943
0.16623,0.9658,-0.19899,0.19073,0.10203,0.21565
0.1499,0.97401,-0.1698,0.18544,0.03115,0.17026
0.12439,0.98226,-0.14028,0.06971,-0.04525,0.14931
0.10286,0.98845,-0.11129,0.04113,-0.09637,0.15813
0.08694,0.99242,-0.08686,0.09595,-0.17789,0.33177
0.07298,0.99501,-0.06805,0.10487,-0.16035,0.33468
0.06359,0.99663,-0.05179,0.11317,-0.12804,0.35395
0.06092,0.9976,-0.0329,0.06102,-0.05602,0.37295
0.06524,0.99785,-0.00602,0.02549,-0.04236,0.17007
0.07498,0.99676,0.02884,0.00162,-0.04311,0.09186
0.08535,0.99381,0.07107,-0.11665,-0.1216,0.10115
0.0936,0.98873,0.11682,-0.18948,-0.16926,-0.04093
0.09635,0.98193,0.16285,-0.27428,-0.10534,-0.20614
0.09177,0.97538,0.20051,-0.36636,-0.25985,-0.04383
0.08268,0.97028,0.2274,-0.31059,-0.2557,0.01872
0.06615,0.96625,0.24897,-0.18972,-0.03279,-0.24492
0.0489,0.96088,0.27259,0.00759,0.13397,-0.2165
0.04044,0.95376,0.29783,0.11816,0.24178,-0.24733
0.04001,0.94642,0.32045,0.59134,0.57467,-0.79008
0.03646,0.9456,0.32325,0.5413,0.44281,-0.46572
0.02419,0.94842,0.31608,0.29289,0.25453,-0.18278
0.01746,0.9517,0.30653,0.26282,0.15577,-0.06748
0.02433,0.95652,0.29062,0.1716,0.17078,0.05107
0.04224,0.96105,0.27309,-0.17481,0.42486,0.08844
0.05589,0.96586,0.25294,-0.67673,0.67328,-0.49164
0.06213,0.97501,0.21326,-0.64036,0.54736,-0.37581
0.06242,0.9854,0.15836,-0.46513,0.39059,-0.27685
0.05995,0.99426,0.0886,-0.41501,0.19996,-0.07887
0.05896,0.99816,0.01384,-0.42664,0.09634,0.26196
0.0641,0.99659,-0.05186,-0.39999,0.04305,0.63218
0.07551,0.99112,-0.10942,-0.42669,0.27213,0.81937
0.0892,0.98363,-0.15656,-0.58223,0.25267,0.25214
0.10089,0.97766,-0.18439,-0.60402,0.13675,-0.25294
0.10382,0.97009,-0.21941,-0.40582,0.01956,0.22509
0.09365,0.95842,-0.26956,-0.30441,-0.09188,0.54709
0.08069,0.94565,-0.31502,-0.20322,-0.16375,0.54529
0.06626,0.93168,-0.35717,-0.12118,-0.20315,0.43437
0.0529,0.91707,-0.39519,0.02314,-0.21463,0.46579
0.0429,0.90239,-0.42878,0.07228,-0.12593,0.51691
0.03907,0.88735,-0.45942,-0.0932,-0.0997,0.43695
0.03794,0.87375,-0.48489,-0.25961,-0.12299,0.28669
0.03238,0.86191,-0.50603,-0.28403,-0.23468,0.38637
0.02693,0.85361,-0.52022,-0.2007,-0.36108,0.39267
0.02555,0.84957,-0.52685,-0.16563,-0.44215,0.31631
0.02845,0.84993,-0.52613,-0.16395,-0.48195,0.33036
0.03886,0.85435,-0.51825,-0.06721,-0.40487,0.29591
0.0563,0.86086,-0.50571,0.11899,-0.05436,0.05347
0.08736,0.86807,-0.48868,0.08793,-0.06157,0.03644
0.13411,0.87603,-0.46324,-0.08232,0.21324,-0.52828
0.16912,0.88709,-0.4295,-0.55274,0.24421,-0.65496
0.18629,0.90034,-0.3933,-0.58799,0.11573,-0.62721
0.18613,0.91208,-0.36533,-0.57176,0.0428,-0.57022
0.17689,0.91756,-0.35608,-0.09294,0.28812,0.29452
0.1696,0.92887,-0.32929,-0.05168,0.59028,0.72341
0.17276,0.94554,-0.27586,-0.03406,1.23369,0.70334
0.20138,0.94469,-0.25884,-0.48536,1.11621,-1.00801
0.22973,0.94027,-0.25121,-0.83709,-0.33369,0.68378
0.25886,0.941,-0.21794,-0.94343,-0.67172,0.5993
0.28473,0.94508,-0.16044,-0.90181,-0.51953,0.48728
0.29133,0.95287,-0.08465,-0.8063,-0.2417,0.41624
0.28093,0.95972,-0.00269,-0.53968,-0.10365,0.40447
0.26466,0.96202,0.06677,-0.37486,0.20454,0.29805
0.25495,0.96037,0.1126,-0.27886,0.37759,0.26654
0.24737,0.95849,0.14178,-0.03547,0.14535,0.17592
0.23936,0.95624,0.16822,0.02397,0.0554,0.11362
0.23262,0.9527,0.19557,0.1252,-0.01403,0.07175
0.22961,0.94841,0.21861,0.21056,0.10709,0.11228
0.22706,0.94491,0.23576,0.21403,0.1594,0.101
0.22581,0.94307,0.24419,0.1395,0.03402,0.04997
0.22986,0.94002,0.25203,-0.02372,-0.0322,0.07785
0.23412,0.93485,0.26688,-0.07079,0.01026,0.04545
0.23604,0.92886,0.28549,-0.11996,0.08945,-0.03932
0.23461,0.92201,0.30796,-0.10721,0.16827,-0.12379
0.22781,0.91473,0.33371,-0.09161,0.0918,-0.17095
0.21643,0.90698,0.3613,-0.05001,-0.05562,-0.30473
0.20319,0.89904,0.38786,-0.06964,-0.05483,-0.35134
0.18987,0.8912,0.41195,-0.07485,0.02859,-0.33831
0.17526,0.88473,0.43189,0.0082,0.08811,-0.42209
0.16152,0.87952,0.4476,0.11581,0.09228,-0.42555
0.15233,0.87542,0.45873,0.17102,0.01292,-0.36914
0.1455,0.87128,0.46871,0.21601,0.30805,-0.35881
0.13982,0.86502,0.48186,0.14763,0.21341,-0.34578
0.13665,0.85692,0.49699,0.04019,0.20166,-0.403
0.13648,0.8473,0.51326,-0.08201,0.27013,-0.52859
0.13315,0.83655,0.53145,-0.21413,0.30335,-0.71133
0.11894,0.83299,0.54035,-0.21031,0.29381,-0.78263
0.10751,0.83864,0.53396,-0.07989,0.34979,-0.55456
0.10148,0.84814,0.51994,0.01371,0.37625,-0.47781
0.10532,0.86005,0.49921,0.14134,0.71839,-0.67711
0.11781,0.87652,0.46672,0.12068,0.77668,-0.75085
0.12709,0.90419,0.40778,-0.22991,0.46155,-0.8725
0.13098,0.93613,0.32634,-0.19999,0.41757,-0.41631
0.13732,0.96139,0.23846,-0.17072,0.59212,0.1661
0.14521,0.97663,0.15844,-0.2032,0.66455,0.48344
0.14752,0.98477,0.09192,-0.54608,0.82957,0.51437
0.14365,0.98879,0.04065,-0.63184,0.6553,0.43134
0.14805,0.98897,-0.00288,-0.77109,0.22677,0.01921
0.16704,0.98521,-0.03818,-0.82606,0.25041,-0.44162
0.17749,0.97883,-0.10187,-0.58745,0.21027,-0.03096
0.17016,0.96818,-0.18347,-0.29411,0.10713,0.43719
0.1637,0.95242,-0.2571,0.0307,0.1085,0.38073
0.15908,0.93012,-0.331,0.10949,0.12936,0.24748
0.1422,0.90122,-0.40935,0.04551,0.11889,0.23685
0.11158,0.86547,-0.48837,-0.00915,0.04109,0.20996
0.06873,0.82827,-0.55609,-0.11071,-0.0913,0.43454
0.02511,0.79469,-0.6065,-0.17466,-0.27458,0.63958
-0.00918,0.76461,-0.64442,-0.26217,-0.42271,0.44165
-0.02663,0.73878,-0.67342,-0.24472,-0.39687,0.47065
-0.03096,0.71896,-0.69436,0.00764,-0.38995,0.19202
-0.03019,0.70489,-0.70867,-0.10771,-0.5204,0.18276
-0.02453,0.69541,-0.71819,-0.05811,-0.56588,0.06698
-0.01942,0.68902,-0.72448,0.02389,-0.40966,0.0328
-0.02165,0.68706,-0.72627,0.04852,-0.28472,-0.00066
-0.03363,0.68875,-0.72422,0.01984,-0.31288,0.07725
-0.04614,0.69311,-0.71935,-0.07841,-0.42985,-0.13244
-0.05078,0.70302,-0.70935,-0.68123,-0.38759,-0.7104
-0.05599,0.71795,-0.69384,-0.68885,0.31167,-0.7761
-0.06093,0.7353,-0.675,-0.68821,0.67107,0.15153
-0.05689,0.75124,-0.65757,-0.3807,0.55543,-0.17269
-0.04252,0.7794,-0.62508,0.07468,-0.06331,0.88482
0.00359,0.80999,-0.58643,-0.37302,-0.0689,0.66963
0.05355,0.83976,-0.54031,-0.86235,0.17907,0.49967
0.09309,0.87214,-0.48032,-0.49048,0.41091,0.71696
0.12442,0.90195,-0.41352,-0.18344,0.37656,0.54749
0.14664,0.9286,-0.34086,-0.00214,0.30826,0.38267
0.15406,0.95225,-0.2636,0.0078,0.11233,0.27128
0.15287,0.97158,-0.18071,0.16017,0.1157,0.31027
0.15622,0.98353,-0.09089,0.32494,0.03087,0.33521
0.15547,0.98784,0.00169,0.3255,0.09484,0.26811
0.13169,0.98705,0.09152,0.13906,0.23473,0.1561
0.08036,0.98452,0.15573,0.03923,0.24776,0.07593
0.03702,0.98343,0.17748,0.19459,0.17635,-0.06473
0.01694,0.9829,0.18336,0.55012,0.13958,-0.41068
0.00195,0.97567,0.21923,0.76604,-0.01472,-0.5632
-0.01952,0.96579,0.25857,0.47896,-0.01947,-0.41073
-0.02871,0.95995,0.27869,0.44384,0.06747,-0.33971
-0.03042,0.95475,0.29583,0.54145,-0.02192,-0.08406
-0.03346,0.94718,0.31895,0.54449,-0.01435,-0.10718
-0.03814,0.9357,0.35071,0.2318,-0.06095,-0.44112
-0.04709,0.92381,0.37993,-0.10686,0.11151,-0.70335
-0.0596,0.91853,0.39081,0.04885,0.21062,-0.51697
-0.07779,0.91588,0.39382,0.14962,0.21699,-0.40196
-0.08806,0.91697,0.38911,0.54326,0.04525,-0.52017
-0.09299,0.91915,0.38278,0.49048,0.05307,-0.50575
-0.09532,0.92095,0.37784,0.41511,0.09527,-0.48744
-0.09,0.92206,0.37642,-0.04237,0.51766,-0.51367
-0.07815,0.92369,0.37507,-0.12896,0.70926,-0.57842
-0.06704,0.92908,0.36374,-0.16889,0.99896,-0.63396
-0.0622,0.94047,0.33413,-0.07939,1.15354,-0.77143
-0.05923,0.95671,0.28493,0.16572,1.04789,-0.86941
-0.05424,0.97459,0.21731,0.45119,0.71762,-1.0495
-0.04806,0.98923,0.13826,0.47989,0.56313,-0.69309
-0.03304,0.99743,0.0636,0.36065,0.39175,0.07551
-0.00314,0.99998,-0.00512,0.01527,0.37617,0.85502
0.0347,0.99784,-0.0557,-0.06192,0.24256,0.78645
0.07218,0.9938,-0.0846,-0.15949,0.1181,0.77743
0.10084,0.98979,-0.10071,-0.12838,-0.06851,0.48094
0.13768,0.98082,-0.13799,-0.10248,0.14267,-0.06544
0.18122,0.96435,-0.19285,-0.12507,0.36552,-1.80125
0.20404,0.94758,-0.24588,-0.16437,0.10841,0.8288
0.21768,0.92529,-0.31055,-0.044,0.06149,0.81008
0.22008,0.89983,-0.37666,0.00115,-0.15094,0.46247
0.20947,0.87536,-0.43573,-0.0245,-0.30475,0.53596
0.18888,0.85087,-0.49025,-0.1912,-0.45888,0.69679
0.1697,0.83055,-0.53046,-0.51781,-0.71344,0.59113
0.1465,0.82006,-0.55321,-0.38927,-0.75892,0.54749
0.12251,0.82091,-0.55776,-0.27186,-0.71995,0.41458
0.10296,0.83556,-0.53967,-0.26289,-0.7428,0.2725
0.09589,0.86485,-0.49278,-0.17632,-0.72373,0.48178
0.10272,0.89788,-0.42808,-0.6063,-0.83573,-0.23775
0.10245,0.92837,-0.35725,-0.11942,-0.03805,0.85584
0.10263,0.95308,-0.28478,0.058,1.22099,-0.70481
0.11407,0.97033,-0.21317,0.76483,2.35332,-0.2485
0.11503,0.98076,-0.15771,0.27944,0.20408,0.00066
0.10945,0.98668,-0.12032,-0.09406,-0.52663,-0.23236
0.09147,0.9927,-0.07861,-0.16507,-0.52834,-0.02256
0.06251,0.99756,-0.03108,-0.24356,-0.06943,0.15164
0.02486,0.99963,0.01091,-0.20534,0.43018,0.1142
-0.00033,0.99944,0.03346,-0.01954,0.20305,-0.09621
-0.01473,0.99871,0.0485,0.08129,0.04598,-0.18748
-0.02557,0.99752,0.06558,0.2017,-0.06717,-0.17119
-0.0331,0.99656,0.07596,0.26307,-0.05569,-0.16034
-0.03814,0.99628,0.07721,0.31892,-0.09366,-0.20436
-0.04569,0.99611,0.07528,0.35503,-0.15633,-0.24239
-0.05354,0.99561,0.07668,0.1488,-0.35296,0.02196
-0.06146,0.99477,0.08159,0.0927,-0.25346,0.10893
-0.06984,0.99311,0.09409,0.04113,-0.11852,0.2415
-0.08316,0.98962,0.1172,0.06579,0.31751,0.59363
-0.10509,0.98137,0.16085,0.11217,0.34586,0.40388
-0.1319,0.96608,0.222,0.08849,0.35194,0.04312
-0.15505,0.94585,0.28516,0.5318,0.83883,-0.32126
-0.15752,0.92418,0.34796,0.9189,0.89229,-1.19526
-0.15698,0.90878,0.38661,0.97581,1.0213,-1.3385
-0.15988,0.89823,0.4094,0.25395,0.47962,-1.27853
-0.15909,0.89113,0.42495,0.19514,0.38205,-0.91124
-0.1609,0.88875,0.42922,0.13686,0.15442,-0.57615
-0.16711,0.8955,0.41248,0.17756,0.11707,-0.53514
-0.16516,0.91265,0.37387,0.29734,0.55484,-0.93852
-0.14617,0.93983,0.30877,0.32818,0.51238,-1.00532
-0.12598,0.96888,0.21306,0.28743,0.43226,-0.59099
-0.09894,0.9887,0.1126,0.12797,0.3827,0.24865
-0.06045,0.99754,0.03544,-0.02334,0.48174,0.88015
-0.02182,0.99938,-0.02763,-0.28473,0.60089,1.13693
0.00841,0.99628,-0.08576,-0.41391,0.48135,1.26096
0.02662,0.99208,-0.12274,-0.41629,-0.19595,1.10745
0.05923,0.98082,-0.18567,-0.07183,0.13618,-2.02789
0.11144,0.95721,-0.26708,-0.5069,0.20599,-0.7705
0.1463,0.93435,-0.32493,-0.12955,0.16151,0.62166
0.1765,0.90481,-0.38751,-0.10592,0.02346,0.58347
0.19113,0.87383,-0.44709,-0.01054,-0.12505,0.49704
0.18103,0.84613,-0.50128,-0.07533,-0.43146,0.4384
0.164,0.82545,-0.54013,-0.10757,-0.43618,0.38667
0.14141,0.81361,-0.56396,-0.22471,-0.61341,0.54264
0.11716,0.81008,-0.57449,-0.24175,-0.61086,0.48625
0.08927,0.8172,-0.5694,-0.17916,-0.81634,0.42464
0.07015,0.83928,-0.53915,-0.19602,-0.89449,0.25806
0.07071,0.87558,-0.47786,-0.41076,-0.98499,0.05283
0.07692,0.91296,-0.40073,-0.07808,-0.94845,-0.09642
0.08008,0.94579,-0.31474,0.27088,-0.13126,0.64108
0.08254,0.96813,-0.23643,-0.04134,1.39735,-0.31309
0.07026,0.98187,-0.17602,-0.20762,2.19798,-0.64315
0.05686,0.99055,-0.12482,-0.08587,-0.0732,0.16623
0.0476,0.99495,-0.08837,0.10619,-0.49258,-0.27659
0.03291,0.99827,-0.04872,0.10317,-0.36246,-0.11406
0.01805,0.99982,-0.00584,0.09376,0.01636,0.11008
0.01408,0.99957,0.02541,0.287,0.13203,0.03883
0.01912,0.99918,0.03572,0.3383,0.04601,-0.24954
0.0121,0.99925,0.0368,0.19878,-0.01742,-0.33789
-0.00144,0.99928,0.03795,0.01365,-0.07757,-0.29812
-0.01004,0.99931,0.03569,-0.0802,-0.05137,-0.10591
-0.01963,0.99933,0.0308,-0.0831,-0.04756,-0.0583
-0.03105,0.99911,0.02847,-0.07362,-0.05581,-0.05384
-0.04427,0.99857,0.02972,-0.04452,-0.04583,0.401
-0.06106,0.99744,0.03707,-0.02392,-0.04464,0.40867
-0.08036,0.99484,0.06196,0.03924,0.03492,0.26412
-0.10299,0.98946,0.10177,0.97585,0.55314,-0.30431
-0.12075,0.98329,0.13619,1.15486,0.54457,-0.40465
-0.12274,0.97664,0.17637,0.98196,0.55891,-0.16514
-0.12012,0.96711,0.22417,0.54738,0.55127,-0.2451
-0.1178,0.95442,0.2742,0.191,0.5012,-0.67371
-0.11114,0.942,0.31667,0.08575,0.5261,-1.17101
-0.10373,0.93226,0.34659,0.0421,0.50533,-1.30008
-0.09702,0.92654,0.36346,-0.04205,0.22537,-1.40575
-0.10161,0.92768,0.35928,0.29381,0.01275,-1.12385
-0.11215,0.9393,0.32423,0.48927,0.11395,-0.79884
-0.11406,0.95842,0.26158,0.49604,0.18604,-0.7308
-0.10195,0.97765,0.18388,0.42778,0.39493,-0.65211
-0.07618,0.99198,0.10084,0.39531,0.49104,-0.44198
-0.03841,0.99895,0.02486,0.42807,0.66369,0.13265
0.00459,0.99882,-0.04839,-0.21451,0.73913,0.86303
0.04975,0.9933,-0.1043,-0.35705,0.80873,1.14555
0.08559,0.98639,-0.14039,-0.58573,0.51547,1.07376
0.13769,0.96415,-0.22685,0.20672,1.00543,-2.27268
0.17413,0.93393,-0.31217,0.13562,1.03094,-1.20672
0.20344,0.9049,-0.37386,0.14228,0.58287,0.49009
0.21328,0.8782,-0.4281,0.1406,0.28656,0.72346
0.20142,0.8563,-0.47558,-0.00284,-0.15948,0.44645
0.17518,0.84219,-0.50993,-0.23423,-0.45927,0.54351
0.13357,0.83566,-0.53275,-0.58032,-1.10164,0.79012
0.09148,0.84269,-0.53056,-0.6263,-1.59516,0.92467
0.06684,0.86942,-0.48953,-0.65638,-1.61385,1.05453
0.06815,0.90729,-0.41494,-0.71367,-1.55117,1.18155
0.09075,0.9439,-0.31752,-0.68034,-1.34284,0.84313
0.10753,0.96952,-0.22015,-1.02765,-1.13082,-1.23192
0.08901,0.98499,-0.14791,-0.02646,-0.06903,0.68995
0.07567,0.99484,-0.06762,0.43848,1.20075,1.08115
0.06124,0.99788,-0.02216,0.34621,2.70174,0.39083
0.04476,0.99857,-0.02928,0.59684,0.84886,-1.12181
0.02206,0.99919,-0.03363,0.2206,-0.22171,-0.21991
-0.00344,0.99941,-0.03416,0.26925,-0.65287,0.19771
-0.02453,0.99917,-0.03237,0.38946,-0.29054,0.25922
-0.04424,0.99872,-0.02432,0.09978,0.40969,0.24
-0.05453,0.99845,-0.01069,0.02508,0.63228,0.0943
-0.06254,0.99801,0.00715,0.07896,0.51395,0.03701
-0.06822,0.99705,0.03528,0.13292,0.5771,0.24826
-0.06998,0.99464,0.07606,0.19122,0.53548,-0.004
-0.07333,0.98955,0.12418,0.22787,0.57538,-0.23217
-0.08193,0.98104,0.17566,0.293,0.51883,-0.27366
-0.09371,0.96912,0.22807,0.28743,0.48725,-0.48451
-0.10563,0.95675,0.27104,0.28033,0.49822,-0.75675
-0.11808,0.94761,0.2968,0.37719,0.32493,-1.14258
-0.12754,0.94165,0.3115,0.41184,0.10737,-1.08525
-0.13303,0.93946,0.31577,0.45886,-0.0342,-1.13882
-0.1359,0.93951,0.31439,0.22795,-0.66646,-1.10376
-0.13572,0.94758,0.28926,0.34185,-0.60272,-1.08955
-0.13001,0.96474,0.22884,0.44121,-0.42965,-1.03836
-0.11667,0.98118,0.15386,0.23747,0.27328,-0.54919
-0.09733,0.99152,0.08611,0.15018,0.88536,0.00827
-0.07574,0.99666,0.03043,-0.06596,1.36737,0.3915
-0.05047,0.99836,-0.02687,-0.19895,0.29355,0.63536
-0.02424,0.99646,-0.08044,-0.26179,0.12915,0.74334
0.0007,0.99308,-0.11744,-0.3954,0.66241,0.61608
0.02069,0.99167,-0.1271,-0.07373,0.36062,-0.35629
0.05147,0.98413,-0.1698,0.21605,0.4702,-0.75901
0.08435,0.97109,-0.22332,0.0731,0.18735,-0.435
0.10404,0.95806,-0.26699,-0.13627,0.06119,0.08039
0.11283,0.94355,-0.31143,-0.20257,-0.04352,0.61146
0.10848,0.92429,-0.36595,0.02091,-0.1717,0.59268
0.09891,0.90233,-0.41955,-0.03009,-0.46118,0.36667
0.08719,0.88093,-0.46515,-0.35437,-0.6999,0.44551
0.07101,0.86188,-0.50211,-0.41784,-0.84385,0.50691
0.04897,0.84725,-0.52894,-0.19865,-0.89066,0.58958
0.03153,0.8386,-0.54384,-0.15925,-0.83251,0.52347
0.02023,0.83685,-0.54707,-0.10693,-0.68749,0.42594
0.02235,0.84051,-0.54134,-0.00395,-0.44875,0.24301
0.03607,0.85042,-0.52487,-0.21824,-0.47348,-0.07952
0.04275,0.86985,-0.49145,-0.24683,-0.18217,-0.56809
0.03729,0.89114,-0.45219,0.03045,0.22174,-8e-05
0.04502,0.91748,-0.39522,0.46779,0.95979,0.39829
0.06959,0.93777,-0.34022,0.26879,0.9735,-0.35587
0.07524,0.951,-0.29989,-0.53141,0.42812,-0.3281
0.06775,0.96491,-0.25368,-0.32745,-0.03509,0.09946
0.06456,0.97805,-0.19812,-0.12056,-0.22794,-0.02445
0.05663,0.9879,-0.14435,-0.18281,0.04814,-0.21364
0.03819,0.99536,-0.08828,-0.25283,0.09219,0.09601
0.01295,0.9995,-0.02874,-0.22303,-0.00503,0.17859
-0.01918,0.99928,0.0327,-0.12797,0.01973,0.2204
-0.05271,0.99415,0.09423,-0.12751,0.24688,0.15093
-0.07549,0.98556,0.15158,-0.11855,0.3057,0.0689
-0.08267,0.97669,0.19812,0.29742,0.19806,-0.02566
-0.08989,0.97134,0.22002,0.44631,0.17082,-0.06035
-0.1062,0.97035,0.2171,0.61104,0.1423,-0.17088
-0.12917,0.96542,0.22643,0.89244,-0.21375,-0.44509
-0.14663,0.95606,0.25385,0.71221,-0.34721,-0.32327
-0.14541,0.95202,0.26927,0.29316,-0.32528,-0.27388
-0.14036,0.95224,0.27119,0.28242,-0.22209,-0.15265
-0.13626,0.95266,0.27178,0.2771,-0.1223,-0.08504
-0.13859,0.9502,0.27911,0.19824,0.10964,-0.13233
-0.14237,0.94633,0.29014,-0.1472,0.20526,-0.41917
-0.1458,0.9425,0.30071,-0.21086,0.28401,-0.6174
-0.15265,0.93563,0.31827,0.2688,0.19604,-0.246
-0.16735,0.92948,0.32871,0.54828,0.15897,-0.00341
-0.18071,0.92411,0.33669,0.62394,0.35511,-0.25073
-0.17972,0.91609,0.35844,0.59317,0.49038,-0.51745
-0.16102,0.90633,0.39067,-0.05179,0.89964,-0.91588
-0.14608,0.90277,0.40455,-0.21996,1.10458,-0.69398
-0.14616,0.90633,0.39649,-0.17062,0.72263,-0.86095
-0.15052,0.91721,0.36887,0.15864,0.6011,-0.97556
-0.15074,0.93325,0.32605,0.23704,0.60057,-0.87782
-0.14932,0.95226,0.26629,0.18092,0.58783,-0.61045
-0.14515,0.97153,0.18723,0.20308,0.48159,-0.3161
-0.13245,0.98636,0.09766,0.18604,0.41215,0.02992
-0.10777,0.99403,0.01714,0.04427,0.51733,0.38035
-0.07611,0.99635,-0.03856,0.00967,0.43147,0.60923
-0.04974,0.99601,-0.07412,-0.14112,0.2261,0.79903
-0.033,0.99347,-0.10924,-0.36913,0.03081,0.67572
-0.01986,0.98455,-0.17399,-0.40961,-0.09333,0.03817
0.00299,0.96538,-0.26083,0.00235,0.1068,-0.74443
0.03175,0.94893,-0.31388,-0.017,0.10118,0.17993
0.04272,0.92667,-0.37344,0.26125,-0.03466,0.54104
0.02868,0.89475,-0.44564,0.23025,-0.08446,0.6296
0.00698,0.85981,-0.51056,-0.09562,-0.47936,0.73417
-0.02384,0.82456,-0.56526,-0.29458,-0.76333,0.81287
-0.0619,0.79155,-0.60796,-0.18358,-0.90352,0.83353
-0.09922,0.76545,-0.6358,0.01803,-0.76397,0.69729
-0.12859,0.74833,-0.65074,-0.07773,-0.85185,0.66566
-0.15023,0.73926,-0.65645,0.10236,-0.72902,0.58745
-0.15968,0.73772,-0.65595,0.08834,-0.61429,0.39244
-0.15044,0.74401,-0.65101,0.10114,-0.51444,0.22898
-0.11929,0.75458,-0.64527,0.16159,-0.28171,-0.3023
-0.07624,0.76811,-0.63576,0.06333,-0.27353,-0.80663
-0.04113,0.78901,-0.613,0.21189,0.04964,-1.28498
-0.01663,0.81159,-0.58399,0.73133,0.33769,-1.21095
-0.00199,0.83667,-0.5477,0.97468,1.11089,-0.61651
0.02472,0.85114,-0.52435,-0.80916,0.77294,0.25349
0.01836,0.86863,-0.49511,-1.24411,0.36718,0.73805
0.00909,0.8889,-0.45802,-0.85126,-0.67533,0.1029
0.0127,0.91323,-0.40724,-0.45737,-0.31249,0.33363
0.02644,0.93671,-0.34909,-0.37805,-0.00454,0.03856
0.03372,0.95702,-0.28805,-0.11598,0.0688,0.04255
0.03315,0.97357,-0.22595,0.0663,0.18904,0.05585
0.02602,0.98618,-0.16363,0.13612,0.12384,0.02814
0.01378,0.99432,-0.1055,0.1593,0.13358,0.01077
-0.00335,0.99874,-0.05001,0.15114,0.03161,0.02884
-0.02056,0.99978,0.00248,0.14609,-0.00143,-0.02633
-0.03341,0.99822,0.0493,0.06617,0.04676,0.01472
-0.04444,0.99545,0.08426,-0.0254,-0.07924,0.01034
-0.0563,0.99205,0.11252,-0.12201,-0.10042,0.00104
-0.06767,0.98774,0.14066,-0.14525,-0.05766,0.00566
-0.07806,0.98242,0.16954,-0.12824,-0.03215,0.00895
-0.08312,0.97659,0.19837,-0.11288,0.03696,-0.00162
-0.08397,0.97047,0.2261,-0.01701,0.104,0.04227
-0.08434,0.96471,0.24944,0.04027,0.06202,0.1125
-0.08649,0.96069,0.2638,0.15802,-0.06674,0.14831
-0.08625,0.95716,0.2764,0.26761,-0.09956,0.19632
-0.08573,0.95326,0.28973,0.25287,-0.01649,0.17911
-0.09205,0.94827,0.3038,0.19893,0.04634,0.10698
-0.10261,0.94209,0.31927,0.20748,0.05139,-0.09722
-0.11512,0.93714,0.32942,0.33281,-0.01964,-0.25987
-0.13685,0.93318,0.33232,0.42399,-0.01273,-0.40561
-0.15685,0.92862,0.33623,0.50032,0.02941,-0.4173
-0.17086,0.92264,0.34575,0.46016,-0.02652,-0.25687
-0.18501,0.91437,0.36012,0.42329,-0.01055,-0.19582
-0.19928,0.90528,0.37517,0.40597,0.00491,-0.14632
-0.21859,0.8954,0.38792,0.28474,0.14943,-0.14286
-0.24142,0.88334,0.40178,0.27992,0.24913,-0.27405
-0.25942,0.86607,0.42734,0.29675,0.08724,-0.66875
-0.26146,0.84378,0.46868,0.49579,0.32496,-0.883
-0.26659,0.82993,0.49004,0.50665,0.3672,-0.78496
-0.28099,0.83121,0.47971,0.44315,0.34591,-0.37226
-0.29012,0.83268,0.47167,0.49022,0.36231,-0.36307
-0.29461,0.83715,0.46084,0.55463,0.44176,-0.2534
-0.28893,0.84978,0.44089,0.48818,0.74564,-0.34151
-0.26708,0.86651,0.4217,0.30093,0.79053,-0.50902
-0.24078,0.88699,0.39403,-0.05492,0.50104,-0.77053
-0.22499,0.91483,0.33534,-0.03278,0.36834,-0.25633
-0.21266,0.9422,0.25889,-0.03282,0.45103,-0.03634
-0.19488,0.96362,0.18288,-0.1098,0.4947,0.29638
-0.16708,0.97843,0.12146,-0.2719,0.6699,0.57657
-0.13801,0.98786,0.07126,-0.36461,0.70988,0.49141
-0.11527,0.99298,0.02637,-0.61558,0.46716,-0.55466
-0.09102,0.9958,-0.00983,-0.63816,0.26829,-0.34085
-0.07476,0.99507,-0.06516,-0.39475,0.02207,0.49725
-0.07108,0.98941,-0.12654,-0.36273,-0.1631,0.7314
-0.05955,0.9818,-0.18033,-0.11472,-0.19437,0.49488
-0.05377,0.97113,-0.23239,0.17287,-0.17882,0.33069
-0.0729,0.95491,-0.28778,0.35075,-0.13688,0.29997
-0.09837,0.93584,-0.33842,0.2794,-0.1371,0.34533
-0.10968,0.91592,-0.38609,0.212,-0.16271,0.30547
-0.12473,0.89533,-0.42757,0.12642,-0.29035,0.53989
-0.14522,0.87812,-0.45586,0.06931,-0.53295,0.68148
-0.16427,0.86688,-0.47068,0.18815,-0.55323,0.72754
-0.18193,0.8627,-0.47185,0.12348,-0.79,0.61971
-0.19797,0.86512,-0.46085,0.22202,-0.68827,0.51935
-0.20841,0.87458,-0.43781,0.39821,-0.5936,0.36798
-0.21038,0.89028,-0.4039,0.55524,-0.28153,0.11961
-0.1881,0.90582,-0.3796,0.11775,0.25681,-0.83722
-0.13892,0.91531,-0.37803,-0.32322,0.89753,-2.32618
-0.11318,0.92408,-0.36505,0.0372,0.64559,-1.06846
-0.11021,0.93508,-0.33687,-0.04258,0.06213,-0.22977
-0.11127,0.94283,-0.31416,-0.42941,0.18022,0.09032
-0.12824,0.94458,-0.30219,-0.6661,0.77663,-0.12299
-0.16611,0.94116,-0.29433,-0.77055,0.95018,1.17976
-0.15461,0.94146,-0.29956,-0.40377,0.12171,-0.25307
-0.13084,0.94663,-0.29458,-0.10461,-0.66051,0.62825
-0.11786,0.95344,-0.2776,0.03219,-0.48836,1.03836
-0.11098,0.96275,-0.24658,0.07513,-0.07682,0.93745
-0.10433,0.97435,-0.19937,0.10166,0.03425,0.88141
-0.09217,0.98583,-0.14016,0.17956,0.14294,0.88277
-0.08795,0.99196,-0.09101,0.33386,0.30017,0.78596
-0.09408,0.99321,-0.06842,0.31531,0.25443,0.59852
-0.09472,0.99369,-0.06009,0.272,0.22808,0.43446
-0.08451,0.99554,-0.04195,0.1546,0.0406,0.08769
-0.06804,0.99764,-0.00876,0.04234,-0.22126,0.02051
-0.04593,0.99877,0.01871,-0.04127,-0.32459,-0.02911
-0.02413,0.99934,0.02713,-0.12749,0.24268,0.40929
-0.00497,0.99978,0.02035,-0.07476,0.28277,0.41604
0.00918,0.9999,0.01008,0.03369,0.21468,0.38106
0.02099,0.99978,0.00025,0.40964,-0.1063,0.20546
0.03354,0.99943,0.00219,0.45897,-0.00825,0.26373
0.03389,0.99937,0.01007,0.52849,-0.06708,0.3101
0.0189,0.9998,0.00665,0.51714,-0.12973,0.3971
0.00353,0.99977,0.02085,0.50099,-0.11496,0.30616
-0.00362,0.99802,0.0628,0.29541,0.34436,-0.06325
-0.00446,0.99407,0.1086,0.13833,0.28199,-0.44397
-0.00751,0.99161,0.129,-0.02052,0.1807,-0.74417
-0.01736,0.99146,0.12924,0.1817,0.05094,-0.32368
-0.0284,0.9904,0.13527,0.21484,0.05233,-0.33591
-0.03506,0.98988,0.13746,0.06689,0.10998,-0.34437
-0.03742,0.99119,0.12705,0.10333,0.56855,-0.21527
-0.03225,0.99373,0.10701,0.12434,0.54202,-0.29489
-0.019,0.99648,0.08165,0.05539,0.47146,-0.44392
-0.00179,0.99904,0.04377,-0.00567,0.34816,-0.44733
0.01643,0.9998,-0.01148,-0.07645,0.41012,-0.16241
0.03489,0.99645,-0.07656,-0.17191,0.50874,-0.01057
0.0533,0.98823,-0.14337,-0.21195,0.66031,0.22722
0.07465,0.97499,-0.20934,-0.11524,0.5624,0.37883
0.10038,0.95607,-0.27539,-0.19123,0.44889,0.36574
0.12355,0.93451,-0.3338,-0.24506,0.29431,0.45116
0.14022,0.91352,-0.38185,-0.25605,0.16772,0.52819
0.15441,0.89417,-0.42026,-0.28242,0.2306,0.22931
0.17803,0.86799,-0.46357,-0.46811,0.28138,0.18742
0.20286,0.82688,-0.52451,-0.4402,0.31071,0.39973
0.23083,0.78454,-0.57551,-0.05088,0.26465,0.35218
0.25605,0.74207,-0.61949,0.00912,0.25672,0.45283
0.25114,0.69118,-0.67763,0.015,0.12946,0.5541
0.23049,0.64479,-0.72878,-0.16211,0.01897,0.70678
0.21028,0.60682,-0.76652,-0.06871,-0.0788,0.7565
0.17596,0.57485,-0.79912,-0.17605,-0.2226,0.69694
0.13277,0.55661,-0.82009,-0.04691,-0.23134,0.73214
0.08598,0.55614,-0.82663,-0.19658,-0.56537,0.88029
0.05079,0.57511,-0.8165,-0.33304,-0.78576,0.6777
0.04054,0.61535,-0.78721,-0.37933,-0.67023,0.27106
0.06196,0.67179,-0.73814,-0.30375,-0.59042,0.2094
0.08693,0.73139,-0.67639,0.03156,0.0234,0.50621
0.1072,0.78181,-0.61423,0.36071,0.97276,0.22694
0.14688,0.81707,-0.55752,0.53751,3.10263,-0.70612
0.14174,0.844,-0.51728,-0.23388,0.64357,1.23527
0.13972,0.86332,-0.48493,-0.42391,-0.63151,0.11083
0.14411,0.8844,-0.44392,-0.5666,-0.72183,0.24412
0.14592,0.9082,-0.39227,-0.52728,0.16444,0.64472
0.13337,0.93418,-0.33095,-0.41505,0.3446,0.5645
0.10477,0.95723,-0.26967,-0.36422,0.47976,0.51821
0.09142,0.97031,-0.22391,-0.09534,0.18737,0.34104
0.09799,0.97701,-0.18931,0.00689,0.07302,0.29558
0.10457,0.98158,-0.15991,0.10126,0.02494,0.28208
0.10191,0.9849,-0.13997,0.35372,-0.03513,0.10938
0.09257,0.98697,-0.1316,0.58387,-0.11505,-0.1926
0.07756,0.98922,-0.12423,0.3266,-0.20295,-0.09066
0.06916,0.99003,-0.12266,0.26843,-0.19151,-0.03714
0.06743,0.98881,-0.13305,0.14374,-0.1129,0.1058
0.07064,0.98729,-0.14238,0.12745,-0.15953,0.53917
0.08017,0.9871,-0.1386,0.15112,-0.19201,0.58653
0.0985,0.98834,-0.1161,-0.02706,0.06262,0.32495
0.1137,0.99079,-0.07353,-0.4118,0.51631,-0.03461
0.10821,0.99346,-0.03649,-0.57948,0.4096,-0.03256
0.0878,0.99592,-0.02065,-0.00657,0.22092,0.09865
0.06377,0.99796,-0.00363,0.34839,0.07486,0.05902
0.04456,0.9989,0.01485,0.47412,0.12343,-0.11565
0.02985,0.99897,0.03425,0.25802,0.47984,-0.42562
0.016,0.99858,0.05079,0.00603,0.48313,-0.54192
0.00134,0.99816,0.06054,-0.04603,0.48551,-0.50654
-0.01079,0.99783,0.06487,0.16254,0.71739,-0.47028
-0.01895,0.99833,0.05456,0.38662,0.59249,-0.57445
-0.02151,0.99931,0.03028,0.44106,0.49956,-0.54261
-0.01251,0.99988,-0.00846,0.1992,0.33515,-0.54801
0.00841,0.998,-0.06259,-0.14621,0.36172,-0.68255
0.03388,0.99039,-0.13405,-0.17387,0.38256,-0.33742
0.06584,0.97504,-0.21202,-0.04556,0.3211,0.30506
0.10002,0.95273,-0.2869,-0.17538,0.38144,0.79622
0.12373,0.92793,-0.35162,-0.11874,0.55268,1.0913
0.13101,0.90865,-0.39648,-0.10742,0.46461,1.27259
0.13418,0.89223,-0.43119,-0.15981,-0.02655,1.17701
0.15452,0.87086,-0.4666,-0.29593,0.2332,0.11707
0.19514,0.83166,-0.51986,-0.3164,0.49787,-1.04415
0.21439,0.79727,-0.56426,-0.42233,0.46604,0.30987
0.21183,0.76117,-0.61298,-0.13452,0.32367,0.86028
0.19709,0.71321,-0.67267,-0.05494,0.15313,0.8061
0.17649,0.66689,-0.72396,-0.03806,-0.0746,0.70522
0.15068,0.62709,-0.76424,-0.21316,-0.26683,0.73065
0.11925,0.5908,-0.79796,-0.21053,-0.31536,0.81227
0.08181,0.55777,-0.82595,-0.1206,-0.28071,0.89547
0.04553,0.53253,-0.84519,-0.06135,-0.19275,0.80345
0.01006,0.5156,-0.85677,-0.30967,-0.42417,0.8033
-0.01478,0.50902,-0.86063,-0.30394,-0.49267,0.77553
-0.0201,0.51264,-0.85837,-0.19487,-0.29324,0.40175
-0.0069,0.52318,-0.8522,-0.20806,-0.30379,0.39558
0.01876,0.54017,-0.84135,0.04122,-0.12023,0.23963
0.05506,0.56591,-0.82263,0.21561,0.02755,-0.74335
0.10394,0.60125,-0.79227,0.29717,0.26969,-1.06596
0.11682,0.63609,-0.76272,0.21675,0.64938,-0.34603
0.10681,0.65845,-0.74501,-0.47777,0.85255,-0.41677
0.10527,0.68089,-0.72477,-0.92342,0.40446,-0.61139
0.09337,0.70754,-0.70048,-0.37971,-0.2069,0.55794
0.10022,0.73923,-0.66595,-0.45215,-0.15854,0.20378
0.11816,0.7702,-0.62676,-0.28444,0.02685,0.43343
0.1425,0.79912,-0.58403,-0.23875,0.08833,0.18716
0.1658,0.82582,-0.53901,0.00463,0.10043,0.19536
0.18607,0.84784,-0.49654,0.17741,0.08283,0.24742
0.20448,0.86673,-0.45494,0.26633,0.12581,0.12465
0.21753,0.884,-0.41378,0.13224,0.19902,0.26604
0.2227,0.89882,-0.37753,0.04204,0.22216,0.2485
0.22048,0.91208,-0.34567,-0.0328,0.08418,0.18887
0.21219,0.92498,-0.31524,-0.1434,-0.00967,0.24558
0.19834,0.93721,-0.28687,-0.15093,0.06502,0.27284
0.18042,0.9467,-0.26684,0.04401,0.4162,0.06081
0.14866,0.95512,-0.2562,0.13935,0.81673,0.0813
0.10021,0.96292,-0.25048,0.26916,0.83978,0.24665
0.03862,0.96622,-0.25482,0.33196,0.62019,0.62501
0.00799,0.97415,-0.22574,0.46864,0.35573,0.76814
0.01436,0.98475,-0.17339,0.28514,0.26597,0.38323
0.03374,0.99375,-0.10641,-0.15283,0.43864,-0.16282
0.04282,0.99825,-0.04086,-0.39445,0.58261,-0.52155
0.03106,0.99951,0.00367,0.08951,0.37436,-0.78242
0.01415,0.99918,0.03795,0.4479,0.19438,-0.80147
0.0018,0.99767,0.0682,0.51876,-0.21715,-0.73394
-0.00632,0.99596,0.08952,0.47131,-0.58089,-0.62937
-0.01144,0.99499,0.09932,0.37564,-0.80979,-0.6687
-0.01204,0.99577,0.09103,0.42833,-0.38397,-0.84578
-0.00454,0.9989,0.04666,0.32896,0.17888,-0.55487
0.01056,0.99975,-0.01976,0.13416,0.51853,-0.21219
0.0296,0.99518,-0.0935,-0.05572,0.86603,0.04162
0.05217,0.9842,-0.16918,-0.35644,1.07706,0.49345
0.0712,0.96816,-0.23998,-0.43921,0.41458,0.94649
0.08746,0.94872,-0.30378,-0.45163,0.34248,1.04941
0.10597,0.92849,-0.35592,-0.48753,0.54487,1.01996
0.13069,0.91345,-0.38539,-0.3928,0.25726,0.81115
0.16612,0.90183,-0.39888,0.31813,0.36017,-0.18829
0.2132,0.87461,-0.43544,0.33326,0.34256,-0.31061
0.246,0.83666,-0.48936,0.27406,0.38913,-0.29329
0.24547,0.795,-0.55473,-0.00214,0.15199,0.98333
0.22775,0.75163,-0.61902,-0.07944,0.08885,1.11323
0.19518,0.70517,-0.68164,-0.19448,-0.29799,1.06988
0.15444,0.65968,-0.73551,-0.21093,-0.4326,0.85541
0.11179,0.62173,-0.77521,-0.25043,-0.53803,0.6643
0.06607,0.59182,-0.80336,-0.31901,-0.52605,0.73331
0.02487,0.57063,-0.82083,-0.22188,-0.38886,0.7616
-0.00598,0.55913,-0.82906,-0.16906,-0.30324,0.76964
-0.0173,0.55733,-0.83011,-0.33957,-0.42615,0.64958
-0.01139,0.57051,-0.82121,-0.47259,-0.53234,0.44813
0.00983,0.60291,-0.79775,-0.30938,-0.36141,0.10096
0.05647,0.64587,-0.76135,-0.39494,-0.07678,-0.68713
0.09245,0.697,-0.71109,-0.24475,0.55158,0.37143
0.12492,0.74477,-0.65552,1.26143,1.75698,1.06714
0.16089,0.77713,-0.60843,0.79151,2.25869,-1.46193
0.14594,0.79848,-0.58406,-0.13151,0.4265,0.77875
0.14659,0.82136,-0.55125,-0.46829,-0.37455,0.19881
0.14482,0.84713,-0.51127,-0.64737,-0.52762,0.30276
0.14296,0.87245,-0.46733,-0.59528,-0.41078,0.39907
0.14232,0.89785,-0.41665,-0.23403,0.16915,0.39603
0.13408,0.92306,-0.36052,-0.02566,0.45742,0.47614
0.12046,0.94355,-0.30853,0.12723,0.51454,0.36702
0.11825,0.95478,-0.27279,0.31634,0.1559,0.26429
0.128,0.95951,-0.25091,0.34725,-0.15525,0.19172
0.13643,0.96301,-0.23237,0.3441,-0.24263,0.0969
0.13792,0.96681,-0.21504,0.30109,-0.22527,0.09735
0.13428,0.96963,-0.20441,0.21765,-0.17968,0.1202
0.12625,0.97045,-0.20562,0.09238,-0.1298,0.12197
0.11595,0.97028,-0.21238,-0.10037,-0.0665,0.10797
0.10665,0.97062,-0.21568,-0.2113,0.08482,0.2985
0.09543,0.97203,-0.2146,-0.30239,0.19082,0.57237
0.08473,0.97441,-0.20821,-0.33997,0.2824,0.73834
0.08121,0.97897,-0.18713,-0.1703,0.47091,0.55131
0.07398,0.9868,-0.14406,0.25776,0.40384,0.67243
0.0544,0.99413,-0.09355,0.61517,0.49184,0.27507
0.02485,0.99894,-0.03874,0.6827,0.50617,0.011
0.00749,0.99964,0.02572,0.64841,0.46165,-0.72928
-0.00096,0.99747,0.07101,-0.21161,0.52069,-1.00118
-0.00764,0.99568,0.09246,-0.47969,0.30005,-0.73834
-0.01473,0.99376,0.11051,-0.46188,0.28927,-0.4618
-0.02925,0.99248,0.11885,-0.34055,0.27043,-0.46591
-0.04236,0.99293,0.11088,0.21775,0.06594,-0.40371
-0.0483,0.99547,0.08189,0.36717,0.40653,-0.55913
-0.03969,0.99893,0.02365,0.33333,0.51676,-0.6864
-0.02088,0.99792,-0.06095,0.31197,0.43033,-0.48217
0.0072,0.9884,-0.15169,0.17427,0.16265,0.28525
0.03416,0.97396,-0.22412,-0.0363,0.24137,0.80806
0.05376,0.95693,-0.28528,-0.10924,0.354,1.00775
0.06998,0.93816,-0.33904,-0.44577,0.32551,1.05364
0.08932,0.921,-0.37917,-0.50297,0.11742,0.93605
0.11718,0.90812,-0.40199,-0.54231,-0.02211,0.74758
0.15252,0.88656,-0.43674,0.34342,0.50502,-0.55284
0.182,0.84912,-0.49585,0.21042,0.4398,-0.49617
0.19314,0.81288,-0.54948,-0.06741,0.3173,0.02731
0.20533,0.77402,-0.59894,-0.25737,0.05995,0.85982
0.20767,0.73001,-0.65111,-0.18967,0.04132,0.79415
0.19219,0.68378,-0.70392,0.04382,-0.00853,0.62079
0.16681,0.64086,-0.74931,0.0235,-0.08631,0.52568
0.13396,0.60256,-0.78675,-0.24526,-0.15655,0.65379
0.09951,0.57185,-0.8143,-0.30526,-0.23523,0.70811
0.06807,0.55313,-0.83031,-0.22818,-0.28988,0.69246
0.03936,0.54619,-0.83674,-0.18693,-0.35784,0.63529
0.02192,0.55166,-0.83378,-0.06855,-0.35292,0.3684
0.01624,0.57547,-0.81766,0.03129,-0.34582,0.22463
0.01819,0.62596,-0.77965,-0.01979,-0.39096,0.47215
0.03185,0.68305,-0.72967,-0.48892,-0.01655,-0.10587
0.06041,0.72671,-0.68428,-0.31098,0.18695,-0.38002
0.08289,0.76457,-0.63918,0.57314,1.59941,-0.59524
0.1119,0.79125,-0.60116,0.34721,1.12644,0.02044
0.12642,0.80764,-0.57596,-0.40447,-0.15168,0.37856
0.13813,0.82496,-0.54806,-0.53073,-0.61323,0.17805
0.14949,0.84254,-0.51747,-0.4579,-0.76176,0.40521
0.16262,0.86301,-0.4783,-0.41331,-0.71904,0.30477
0.17281,0.8849,-0.43253,-0.12722,0.01804,0.38117
0.17488,0.9051,-0.38757,-0.01622,0.40284,0.21651
0.17652,0.92052,-0.34853,0.00704,0.60725,0.1628
0.17746,0.93219,-0.31547,0.00263,0.30569,0.23199
0.17082,0.9413,-0.29115,0.00286,0.08549,0.28747
0.15283,0.94754,-0.28073,0.08217,0.08418,0.41371
0.12202,0.95034,-0.2863,0.32084,0.2508,0.4077
0.07575,0.95271,-0.29429,0.54527,0.60717,0.28656
0.02545,0.95701,-0.28892,0.35427,0.60608,0.45049
0.00744,0.96585,-0.25901,0.28341,0.56832,0.76177
0.02484,0.98001,-0.1974,0.0228,0.62684,-0.07712
0.03967,0.99044,-0.13211,0.14386,0.702,-0.09439
0.03738,0.99657,-0.07381,0.07423,0.57872,-0.2154
0.02428,0.99948,-0.02097,0.09097,0.57736,-0.71194
0.0046,0.99987,0.01508,0.23903,0.38317,-0.97962
-0.00828,0.99931,0.03609,0.27767,0.22517,-1.05596
-0.01545,0.99901,0.04162,0.29232,0.00489,-0.98849
-0.0226,0.9994,0.02596,0.46466,-0.60571,-0.81139
-0.01863,0.99957,-0.02242,0.46069,-0.60588,-0.76301
0.00359,0.99538,-0.09592,0.32094,-0.33341,-0.38969
0.04194,0.98334,-0.17687,0.13469,-0.14066,-0.00317
0.08743,0.96475,-0.24823,-0.08932,0.38225,0.26686
0.12974,0.94241,-0.30826,-0.27635,0.87835,0.65162
0.17443,0.91297,-0.36886,-0.64818,1.28991,0.78232
0.20323,0.88073,-0.4278,-0.71211,0.6459,1.21904
0.22471,0.85111,-0.47445,-0.52435,0.09993,1.36984
0.30162,0.79918,-0.51994,0.38667,1.38799,-2.08272
0.34982,0.742,-0.5719,0.33848,1.44517,-2.03076
0.36116,0.69024,-0.627,-0.0016,0.87623,0.83335
0.35027,0.64174,-0.68226,0.04844,0.36237,0.86828
0.3145,0.60398,-0.73233,0.14607,0.23765,0.88487
0.27464,0.58246,-0.76506,-0.24487,-0.04364,0.63298
0.23217,0.57917,-0.78144,-0.49303,-0.50399,0.62345
0.18466,0.59273,-0.78394,-0.38506,-0.68973,0.61646
0.13519,0.62353,-0.77002,-0.30261,-0.87345,0.84143
0.10762,0.67329,-0.7315,-0.4756,-0.94894,0.84594
0.11749,0.73643,-0.66623,-0.67702,-0.96254,0.8701
0.1455,0.80152,-0.57999,-0.65176,-0.95409,1.03882
0.17005,0.85538,-0.48929,-0.64235,-0.91507,0.14318
0.18656,0.89363,-0.40819,0.39645,0.51537,0.06095
0.21265,0.91583,-0.34063,1.03399,1.29828,0.53829
0.25462,0.9267,-0.27639,0.53695,1.50178,0.64616
0.27158,0.92927,-0.2504,0.19159,1.60339,-0.26238
0.2648,0.92837,-0.26078,-0.42366,-0.55418,0.29378
0.25238,0.93237,-0.25882,-0.43593,-0.66766,0.45433
0.24381,0.93843,-0.24475,-0.42814,-0.47188,0.40255
0.23241,0.94582,-0.22673,-0.27498,0.16915,0.20451
0.21063,0.95254,-0.21979,-0.21707,0.57936,0.08262
0.18539,0.95642,-0.22558,0.23204,0.6722,0.13916
0.16276,0.9579,-0.23651,0.3616,0.50582,0.33585
0.13851,0.95819,-0.25038,0.29819,0.46256,0.26115
0.12396,0.95971,-0.25216,0.05589,0.4659,0.51812
0.12526,0.96539,-0.22876,-0.05775,0.4254,0.3674
0.13013,0.97162,-0.19755,-0.05573,0.49249,0.25855
0.12865,0.9781,-0.16361,-0.03988,0.51092,0.40505
0.12189,0.98473,-0.1243,-0.05928,0.33293,0.44762
0.11314,0.99063,-0.07648,-0.24554,0.22289,0.29818
0.09225,0.99543,-0.02475,-0.26286,0.31083,-0.0394
0.06039,0.99787,0.02443,0.08714,0.37032,-0.49912
0.03069,0.99705,0.0703,0.44633,0.33496,-0.79416
0.00653,0.99358,0.11295,0.44539,0.02119,-0.72776
-0.01129,0.98816,0.15298,0.17272,-0.50338,-0.6842
-0.02232,0.98306,0.18189,0.02649,-0.70009,-0.68039
-0.0288,0.98177,0.18785,0.00809,-0.48583,-0.47957
-0.03448,0.98518,0.168,0.31569,0.01187,-0.57951
-0.0302,0.99086,0.13146,0.34815,0.37167,-0.683
-0.01404,0.99641,0.08341,0.25334,0.41435,-0.54021
0.00875,0.99973,0.02142,-0.10981,0.06529,0.04356
0.03799,0.99825,-0.04522,-0.2734,0.08251,0.28434
0.06447,0.99277,-0.10121,-0.37851,0.16363,0.45212
0.08154,0.98602,-0.14533,-0.48488,0.25544,0.66822
0.09388,0.97873,-0.18243,-0.50604,0.41414,0.55567
0.10058,0.97119,-0.21604,-0.44894,0.28447,0.66633
0.10304,0.96332,-0.24779,-0.26332,0.08987,0.53972
0.10099,0.95851,-0.26657,0.32702,0.39307,-0.93278
0.11606,0.95071,-0.28756,-0.05449,0.25089,-0.63324
0.12979,0.9377,-0.3223,-0.14642,0.00194,0.41123
0.13153,0.9236,-0.3601,-0.28177,-0.14474,0.81771
0.12929,0.90866,-0.39702,-0.29062,-0.31921,0.59672
0.12005,0.89203,-0.43575,-0.07144,-0.27508,0.4097
0.11354,0.87307,-0.47419,0.03763,-0.25663,0.27569
0.11137,0.85282,-0.51018,-0.03414,-0.21247,0.29453
0.10263,0.83393,-0.54225,-0.09436,-0.17343,0.31252
0.08182,0.81495,-0.57373,-0.22397,-0.27258,0.69134
0.06609,0.80023,-0.59603,-0.19942,-0.3058,0.63768
0.05531,0.79155,-0.60859,-0.21962,-0.33949,0.62475
0.05154,0.78892,-0.61233,-0.17916,-0.3076,0.58912
0.05282,0.79285,-0.60713,-0.07539,-0.26114,0.55859
0.06283,0.80337,-0.59215,-0.06091,-0.25757,0.3924
0.08165,0.81758,-0.56999,-0.05712,-0.23468,0.13881
0.10282,0.8341,-0.54194,0.05328,-0.13133,-0.15761
0.12343,0.85156,-0.50952,0.26895,-0.05498,-0.48565
0.14348,0.86916,-0.47326,0.54761,0.16334,-0.56884
0.16339,0.886,-0.43394,0.60831,0.37537,-0.56427
0.18374,0.89985,-0.39562,0.3109,0.30409,-0.42391
0.20269,0.90984,-0.36209,0.00947,0.26611,-0.32253
0.22223,0.91534,-0.33582,-0.44726,1.12637,-0.77969
0.22004,0.92101,-0.32143,-0.83628,1.98884,-0.95693
0.17984,0.91967,-0.34908,-0.78,0.90331,1.15613
0.18133,0.90991,-0.37307,-0.92831,-0.66339,1.40893
0.23752,0.90019,-0.36504,-0.96718,-0.98051,0.52373
0.28947,0.89822,-0.33076,-1.13312,-0.93291,-0.30534
0.31198,0.90704,-0.28275,-0.76263,-0.07548,1.0394
0.31282,0.92492,-0.21604,-0.44587,0.06686,0.76559
0.29597,0.94369,-0.14784,-0.32346,0.20469,0.60936
0.28149,0.95571,-0.08589,0.00591,0.76401,0.66556
0.2921,0.95546,-0.04203,0.4115,0.58659,0.75374
0.30894,0.95085,-0.02089,0.54217,0.18991,0.34992
0.32996,0.94394,-0.01038,0.2028,0.07427,0.05358
0.34585,0.9382,0.01293,-0.17272,-0.06155,-0.0071
0.35734,0.93276,0.04764,-0.37361,-0.02579,0.06272
0.36102,0.92862,0.08562,-0.53543,0.04187,0.16532
0.3605,0.92561,0.11529,-0.67301,0.05898,0.23064
0.36426,0.92176,0.13289,-0.51331,0.06732,0.27444
0.36401,0.91964,0.14751,-0.42235,0.06986,0.25835
0.35997,0.91854,0.1634,-0.23732,0.05091,0.18481
0.3545,0.91843,0.17557,-0.11078,-0.10289,0.19615
0.34809,0.91903,0.18499,-0.02191,-0.15906,0.1802
0.3373,0.91998,0.19967,0.04974,-0.15351,0.08844
0.32051,0.9206,0.22309,0.06737,-0.1393,0.0912
0.30093,0.91932,0.25355,0.08838,-0.14944,-0.02316
0.28183,0.9168,0.28294,0.11983,-0.11721,-0.09308
0.26322,0.91305,0.31152,0.16369,0.00566,-0.19212
0.24212,0.90764,0.34287,0.20456,0.11405,-0.26439
0.22056,0.89959,0.37695,0.14083,0.06855,-0.35422
0.20569,0.88868,0.4098,0.14154,0.15857,-0.4775
0.19545,0.87663,0.43968,0.16269,0.19843,-0.60202
0.19091,0.86193,0.4697,0.14156,0.15059,-0.66936
0.19084,0.84804,0.49438,-0.04002,0.24851,-0.66812
0.18958,0.84201,0.50505,-0.10862,0.34339,-0.73247
0.18652,0.8416,0.50688,-0.06618,0.31244,-0.64395
0.18571,0.84774,0.49684,0.01864,0.50655,-0.3639
0.19514,0.85967,0.47211,-0.02688,0.77308,-0.31923
0.216,0.8707,0.44185,-0.19209,0.78752,-0.40747
0.23699,0.88157,0.40824,-0.63699,0.56627,-0.95687
0.23785,0.90932,0.3414,-0.66388,0.42413,-0.44864
0.24069,0.93835,0.24811,-0.57403,0.7876,0.26575
0.24345,0.95647,0.16093,-0.62753,0.86175,0.66059
0.24111,0.96535,0.09984,-0.77891,0.75438,0.66566
0.23695,0.96938,0.06447,-0.92852,0.37278,0.35533
0.24796,0.96815,0.0346,-0.87854,0.12013,0.00594
0.27532,0.96134,0.00575,-0.64318,0.22862,-0.15976
0.29658,0.95448,-0.03179,-0.47578,0.18128,0.01827
0.30256,0.94897,-0.089,-0.34606,0.05254,0.39503
0.28858,0.94352,-0.16278,-0.3449,-0.12166,0.25433
0.26528,0.93719,-0.22651,-0.24266,-0.17673,0.33023
0.23927,0.93096,-0.27578,-0.13945,-0.2299,0.44395
0.21517,0.92194,-0.32208,-0.05322,-0.14207,0.44796
0.18422,0.90792,-0.37649,-0.12895,-0.12977,0.49311
0.15562,0.89248,-0.42339,-0.16025,-0.32348,0.43965
0.13359,0.88091,-0.45404,-0.2418,-0.43244,0.39179
0.11372,0.87344,-0.47346,-0.15428,-0.50122,0.43982
0.09922,0.87084,-0.48146,-0.0744,-0.54161,0.4253
0.09305,0.87344,-0.47795,0.03569,-0.54146,0.33315
0.09476,0.88089,-0.46374,0.07056,-0.51087,0.23934
0.10519,0.89152,-0.44059,0.1181,-0.40761,-0.02235
0.12845,0.90094,-0.41449,-0.13571,-0.26114,-0.61064
0.16112,0.90992,-0.38221,-0.89355,0.05827,-1.23574
0.1797,0.92184,-0.34339,-1.02349,0.47513,-1.07772
0.18121,0.93279,-0.31157,-0.67644,0.49718,-0.67824
0.1745,0.93899,-0.2964,-0.54397,0.25678,-0.39378
0.16327,0.94054,-0.29788,-0.833,0.36795,-0.36252
0.1434,0.94316,-0.2998,-0.68077,0.45413,0.02601
0.16108,0.94969,-0.2686,-0.02535,0.65053,0.52307
0.20018,0.95364,-0.22471,-0.59123,0.29051,-0.30794
0.20545,0.95924,-0.19404,-0.38461,-0.27801,0.85683
0.20589,0.96796,-0.14371,-0.23987,-0.37342,0.72072
0.19589,0.97739,-0.07958,-0.08888,-0.04474,0.57707
0.1793,0.98375,-0.00882,-0.03379,0.07231,0.47852
0.17172,0.98347,0.05749,0.02785,0.14205,0.40005
0.17384,0.97914,0.10516,0.61095,0.39314,0.29015
0.17483,0.97625,0.12791,0.46187,0.38402,0.12215
0.16596,0.97513,0.14689,0.31268,0.30647,-0.01188
0.16203,0.97111,0.17517,0.07325,-0.05044,-0.3253
0.1664,0.96257,0.21393,0.02339,-0.06577,-0.32039
0.17354,0.95276,0.24926,-0.06599,-0.08911,-0.25064
0.17425,0.94619,0.27269,-0.07377,-0.05207,0.03825
0.16449,0.94304,0.28919,-0.06386,-0.00956,-0.02727
0.14267,0.94014,0.3095,0.14882,0.06383,-0.05233
0.1069,0.9379,0.33001,0.39156,0.13763,-0.29544
0.06746,0.93312,0.35318,0.59195,0.18317,-0.3479
0.04284,0.92092,0.38738,0.37821,0.18751,-0.33528
0.04299,0.90565,0.42184,0.14728,0.03438,-0.51594
0.05058,0.89174,0.44971,-0.02774,0.0718,-0.71946
0.04243,0.8858,0.46213,-0.04646,0.22953,-0.57858
0.01919,0.88844,0.45859,0.13639,0.25952,-0.47241
0.00663,0.89082,0.45431,0.28549,0.02787,-0.39517
0.00473,0.89172,0.45255,0.2444,0.26164,-0.49764
0.00655,0.89279,0.45043,-0.01102,0.48876,-0.56518
0.00824,0.89702,0.44191,-0.10884,0.75047,-0.52395
0.00531,0.90598,0.42328,0.16961,0.99331,-0.68699
0.00919,0.91992,0.39198,0.28239,0.91546,-0.6839
0.02222,0.93816,0.34549,0.19877,0.62818,-0.4991
0.03804,0.95781,0.28488,-0.02903,0.62535,-0.43423
0.05478,0.97546,0.21326,-0.21089,0.74291,-0.65289
0.06434,0.9903,0.12314,-0.22784,0.64843,-0.27461
0.06238,0.99736,0.03712,-0.17422,0.43411,0.30327
0.06606,0.99723,-0.03422,-0.17117,0.19886,0.61291
0.09058,0.98998,-0.10835,-0.30275,0.08336,0.47575
0.11499,0.97885,-0.16918,-0.34196,-0.10326,0.61541
0.12498,0.97018,-0.2077,0.17796,0.05566,-0.55466
0.16046,0.95356,-0.25491,0.08655,0.2272,-0.80098
0.20735,0.92921,-0.30589,0.06139,0.26741,-0.63881
0.24099,0.90321,-0.35516,-0.02386,0.28295,0.21852
0.25804,0.87142,-0.41718,0.03157,0.29805,0.29742
0.25661,0.83965,-0.4787,-0.04179,0.06749,0.3114
0.2426,0.81164,-0.53139,-0.24019,-0.06863,0.29265
0.21527,0.78914,-0.57526,-0.38172,-0.36152,0.53415
0.18299,0.77431,-0.60577,-0.38887,-0.60544,0.58625
0.14992,0.76965,-0.62061,-0.18091,-0.71066,0.56649
0.11571,0.77566,-0.62046,0.0572,-0.77564,0.5355
0.08542,0.78933,-0.608,-0.13896,-0.9472,0.47477
0.0778,0.81306,-0.57696,-0.30703,-0.91064,0.00689
0.08887,0.84811,-0.52232,-0.31906,-0.64549,-0.25174
0.08746,0.88793,-0.45158,-0.135,-0.49471,0.53759
0.09026,0.92161,-0.37748,0.50906,-0.21894,1.01971
0.12645,0.94385,-0.30522,-0.00228,1.29451,-0.43125
0.14237,0.95927,-0.244,0.15504,2.07035,-0.24619
0.14999,0.96861,-0.19822,-0.09384,0.25377,0.20294
0.14691,0.97603,-0.16057,-0.3626,-0.4593,-0.23606
0.13977,0.98421,-0.10858,-0.51873,-0.42281,-0.07158
0.12175,0.991,-0.05567,-0.41491,-0.09863,0.16008
0.09377,0.99553,-0.01138,-0.26723,-0.00227,0.12952
0.06394,0.99772,0.02139,-0.1104,0.09819,-0.04576
0.03843,0.99825,0.04489,0.07826,0.0368,-0.17653
0.02142,0.99731,0.07009,0.21519,-0.11366,-0.17458
0.01371,0.99526,0.09631,0.39575,-0.00171,-0.1471
0.01133,0.99361,0.11232,0.68634,0.02747,-0.22803
0.01075,0.99324,0.11561,0.70517,-0.0327,-0.26095
0.00542,0.99315,0.11669,0.57423,-0.13437,-0.2195
0.00677,0.99308,0.11721,0.13544,-0.17823,-0.05842
0.01308,0.9925,0.12154,0.01337,-0.10349,0.00278
0.01846,0.99159,0.12808,-0.16432,0.07829,-0.11309
0.02007,0.99036,0.13701,-0.27794,0.34211,0.06868
0.01293,0.98804,0.15365,-0.26087,0.337,0.0618
-0.00126,0.98514,0.17177,0.14039,0.28917,-0.04573
-0.01917,0.98127,0.19167,0.41554,0.39496,0.00856
-0.03426,0.97557,0.21699,0.49426,0.47253,-0.15297
-0.03953,0.96747,0.24986,0.28553,0.59555,-0.60541
-0.03852,0.95833,0.28306,0.11838,0.39093,-0.93236
-0.03715,0.95182,0.3044,0.03976,0.12187,-0.90292
-0.04117,0.94788,0.31594,0.01759,-0.10404,-0.90367
-0.04711,0.94715,0.31731,0.23261,0.10726,-0.80469
-0.05205,0.95111,0.30444,0.35062,0.31878,-0.58183
-0.05434,0.9595,0.27642,0.23982,0.47036,-0.59008
-0.04838,0.97045,0.23642,0.03472,0.49466,-0.85426
-0.03236,0.98199,0.18612,-0.14337,0.51844,-0.94738
-0.01465,0.99218,0.12393,-0.09486,0.40777,-0.41992
0.00344,0.99829,0.0583,-0.06545,0.35187,0.10417
0.02836,0.99959,0.00344,-0.12067,0.3869,0.6273
0.05789,0.99739,-0.04302,-0.25218,0.37054,0.78364
0.08575,0.9926,-0.08595,-0.1943,0.11101,0.57847
0.11103,0.98671,-0.11861,-0.00863,0.09713,-0.1011
0.14068,0.97574,-0.16773,-0.09707,0.23593,-0.60763
0.16968,0.95725,-0.23428,-0.07635,0.23695,-0.45517
0.19319,0.93776,-0.28858,-0.06657,0.13597,0.02582
0.21281,0.9178,-0.3352,-0.09788,0.09322,0.17515
0.22275,0.89441,-0.38784,0.08902,-0.02159,0.48769
0.21579,0.8678,-0.44761,0.05362,-0.12913,0.50008
0.19824,0.8383,-0.50789,-0.10534,-0.33446,0.34361
0.16898,0.81152,-0.55936,-0.18856,-0.41806,0.50015
0.13427,0.78856,-0.60012,-0.33241,-0.52084,0.50588
0.10054,0.77034,-0.62965,-0.22245,-0.47722,0.52251
0.0714,0.75853,-0.64771,-0.16241,-0.51938,0.50939
0.04906,0.7536,-0.6555,-0.13988,-0.53525,0.47073
0.04037,0.75453,-0.65502,-0.20258,-0.58915,0.34583
0.04606,0.76159,-0.64642,-0.11995,-0.55044,0.17061
0.06389,0.77485,-0.62891,0.03879,-0.56351,-0.27287
0.09303,0.80034,-0.59228,0.1771,-0.60294,-0.9204
0.11609,0.83442,-0.53876,-0.15892,-0.05216,0.13068
0.12533,0.8596,-0.49536,0.01918,0.73835,0.25499
0.14532,0.87944,-0.45328,-0.69669,1.14979,-1.05964
0.1497,0.89546,-0.4192,-0.03341,-0.00154,0.40236
0.16163,0.9113,-0.3787,-0.30902,-0.38812,-0.21369
0.17648,0.92642,-0.33255,-0.27543,0.10364,-0.08726
0.18753,0.94019,-0.28439,-0.17933,0.26884,-0.14127
0.19273,0.95203,-0.23768,0.07318,0.27789,-0.01625
0.19181,0.9619,-0.19481,0.00762,0.20475,-0.06183
0.18212,0.97079,-0.15623,-0.07123,0.15153,-0.05368
0.16604,0.9789,-0.11909,-0.04852,0.08278,-0.15709
0.14706,0.98571,-0.08212,0.06556,0.03113,-0.17734
0.12884,0.9904,-0.04998,0.11255,0.00925,-0.13027
0.11086,0.99357,-0.02285,-0.02235,-0.14366,-0.01293
0.09148,0.9958,0.00361,-0.03587,-0.13369,-0.01432
0.07557,0.99678,0.02665,0.00723,-0.12299,-0.02632
0.0611,0.99731,0.04053,0.11677,-0.06513,-0.06702
0.04266,0.99812,0.0439,0.22633,0.05263,-0.09853
0.0206,0.99888,0.04253,0.27636,0.0671,-0.13205
0.00061,0.99887,0.0475,0.21058,0.0605,0.00543
-0.01267,0.99828,0.05725,0.24585,0.06177,0.1849
-0.02138,0.99741,0.06868,0.24805,0.11973,0.164
-0.02907,0.99562,0.08887,0.27808,0.20447,0.28797
-0.03699,0.99167,0.12334,0.32538,0.20951,0.17018
-0.04503,0.98476,0.16798,0.23211,0.40103,-0.07824
-0.04956,0.9718,0.23056,0.11069,0.6449,-0.31149
-0.05221,0.95464,0.29315,0.14523,0.52649,-0.76893
-0.04556,0.93766,0.34454,0.25308,0.52178,-1.37245
-0.03526,0.92591,0.37609,0.11972,0.40424,-1.38932
-0.03606,0.92003,0.39018,-0.01504,0.19629,-1.19798
-0.04863,0.9175,0.39474,0.09679,-0.02438,-0.99847
-0.0683,0.92136,0.38267,0.37942,-0.01707,-0.60453
-0.08712,0.93504,0.34368,0.48567,0.13863,-0.74826
-0.09266,0.9541,0.2848,0.51731,0.40094,-0.89446
-0.08597,0.97284,0.21492,0.46366,0.38562,-0.76518
-0.07016,0.98908,0.1296,0.39478,0.44056,-0.55606
-0.04101,0.99817,0.04434,-0.14286,0.59533,0.29594
-0.0012,0.99961,-0.02771,-0.36757,0.52857,0.5772
0.03453,0.99575,-0.08539,-0.48935,0.53954,0.79326
0.0641,0.98981,-0.12715,0.18471,0.18933,0.20306
0.10896,0.97575,-0.18983,0.54018,0.34117,-0.06048
0.17704,0.94116,-0.28787,0.8254,0.56914,-0.82358
0.2281,0.91054,-0.3448,0.64492,0.94372,0.45216
0.24689,0.88195,-0.4015,0.28985,0.90529,0.7611
0.24355,0.8494,-0.4682,0.00093,0.68826,0.66165
0.21806,0.82064,-0.52821,-0.14094,-0.31988,0.50704
0.17985,0.80283,-0.56844,-0.33161,-0.59917,0.63637
0.14101,0.79404,-0.59129,-0.59636,-0.97768,0.68615
0.1042,0.79865,-0.5927,-0.36691,-1.01017,0.63941
0.07422,0.82012,-0.56736,-0.34319,-1.01069,0.64678
0.0625,0.8534,-0.5175,-0.50274,-1.07908,0.68536
0.0656,0.89059,-0.45005,-0.41538,-1.17864,0.82223
0.07747,0.92807,-0.36426,-0.33274,-1.35483,1.0981
0.08488,0.95657,-0.27885,-0.02482,-0.80528,0.00543
0.08198,0.97344,-0.21375,0.61246,0.44154,-0.46427
0.07793,0.98365,-0.16237,0.6723,0.80429,-0.63458
0.06924,0.99219,-0.10379,-0.05869,1.91547,0.10565
0.04931,0.9958,-0.07716,0.09316,0.30846,-0.6474
0.04207,0.99472,-0.09359,0.03088,-0.32056,-0.41103
0.02371,0.99505,-0.09653,-0.04699,-0.68044,0.31272
0.00294,0.99551,-0.09465,-0.01404,-0.46624,0.39977
-0.01676,0.99534,-0.09492,0.00739,0.17438,0.09239
-0.04235,0.99518,-0.08839,0.17732,0.57089,0.08063
-0.0702,0.99464,-0.07593,0.33352,0.54673,0.11167
-0.09363,0.9936,-0.06326,0.4976,0.48799,0.06511
-0.09842,0.99445,-0.0373,0.4426,0.42641,0.13079
-0.08781,0.99614,0.00114,0.38323,0.41957,0.01253
-0.07233,0.99632,0.04603,0.08605,0.40317,0.04407
-0.05891,0.99367,0.0956,-0.13016,0.40586,0.02946
-0.05246,0.98656,0.15475,-0.31186,0.45527,-0.55154
-0.05781,0.97638,0.20819,-0.0746,0.43279,-0.89491
-0.07197,0.96659,0.246,0.39796,0.28621,-1.14834
-0.08606,0.95799,0.2736,0.64932,0.17452,-1.14064
-0.09675,0.9523,0.2894,0.63972,0.07377,-1.07596
-0.10167,0.95079,0.29267,0.53312,-0.35332,-0.95599
-0.10368,0.95492,0.27816,0.49108,-0.25381,-0.87926
-0.09451,0.96675,0.23761,0.49275,0.01726,-1.00032
-0.07361,0.98194,0.17428,0.42943,0.19976,-0.71409
-0.0459,0.9938,0.10131,0.37305,0.31326,-0.23622
-0.00793,0.99946,0.03176,0.26364,0.61074,0.14857
0.03893,0.9987,-0.03286,0.0205,0.76573,0.48957
0.08855,0.99229,-0.08671,-0.27554,0.28508,0.83536
0.13523,0.98242,-0.12868,-0.56802,0.20181,0.7369
0.17829,0.96681,-0.18302,-0.18147,0.27614,-0.33088
0.22076,0.93627,-0.27325,-0.10226,0.33215,-0.60062
0.24784,0.90707,-0.34029,-0.0011,0.41306,0.17743
0.25814,0.87716,-0.40492,0.22009,0.48177,0.41486
0.25724,0.84445,-0.46981,0.28385,0.42773,0.26292
0.2524,0.81702,-0.51843,0.25506,0.42963,0.19918
0.23192,0.79366,-0.56242,-0.21579,-0.00945,0.40395
0.20241,0.77729,-0.5957,-0.37027,-0.43358,0.44156
0.16963,0.77422,-0.60977,-0.24958,-0.61884,0.43418
0.13634,0.78683,-0.60192,-0.32746,-0.83303,0.49743
0.11071,0.81278,-0.57196,-0.20954,-0.78465,0.56279
0.09823,0.84791,-0.52096,-0.51867,-0.91526,0.48037
0.10111,0.89125,-0.44211,-0.45551,-1.00282,0.81836
0.10552,0.93164,-0.34772,-0.44738,-1.03939,0.53711
0.11198,0.95829,-0.26296,-0.20055,-0.43232,-0.07055
0.11796,0.97614,-0.1823,0.41424,0.81265,0.18355
0.1236,0.9849,-0.12124,0.83652,1.82485,-0.46778
0.12006,0.99005,-0.0734,0.29185,1.16254,0.03161
0.1168,0.9914,-0.05907,-0.1033,-0.38016,-0.36703
0.11188,0.99192,-0.05986,-0.31803,-0.80356,-0.11731
0.10114,0.99336,-0.05482,-0.29607,-0.77855,0.15605
0.08727,0.99519,-0.0446,-0.27463,-0.48176,-0.00734
0.06555,0.99712,-0.03819,-0.01995,0.14987,-0.29635
0.04459,0.99822,-0.03968,0.18269,0.50044,-0.15911
0.02553,0.99859,-0.04651,0.34912,0.25924,0.02837
0.0018,0.99842,-0.05612,0.24473,0.13648,-0.03336
-0.02189,0.99784,-0.06187,0.21532,0.1569,0.00436
-0.03502,0.99806,-0.05141,0.26438,0.19467,-0.03486
-0.03569,0.99898,-0.02779,0.19314,0.39159,-0.12376
-0.03103,0.99952,-0.00039,0.24703,0.43476,-0.13919
-0.03011,0.99898,0.03364,0.3849,0.49948,0.05284
-0.03287,0.99667,0.07463,0.36294,0.4852,0.14628
-0.03719,0.99172,0.12288,0.13687,0.44494,0.04342
-0.04331,0.98255,0.18091,-0.16067,0.41652,-0.50411
-0.05092,0.97081,0.23439,-0.04428,0.38265,-0.94557
-0.05882,0.96114,0.26974,0.20714,0.26109,-1.27432
-0.06746,0.95287,0.29579,0.17072,-0.02417,-1.20323
-0.07531,0.94941,0.30488,0.10225,-0.12716,-0.91406
-0.08454,0.95118,0.29683,0.21502,-0.17382,-0.65642
-0.09171,0.95898,0.26821,0.43093,-0.04977,-0.83674
-0.08764,0.97261,0.21529,0.50546,0.15027,-0.85713
-0.06807,0.98679,0.14704,0.5408,0.2583,-0.56723
-0.03608,0.9965,0.07539,0.42155,0.22118,-0.1849
0.00672,0.99994,0.00846,0.0209,0.36694,0.21256
0.05236,0.99717,-0.0539,-0.4659,0.64835,0.58254
0.09156,0.98937,-0.11295,-0.75086,0.38375,0.63205
0.12661,0.97848,-0.16295,-0.7911,0.21224,0.23314
0.15907,0.96196,-0.22211,-0.29112,0.42027,-0.30023
0.19908,0.93038,-0.30783,-0.00567,0.73278,-1.13223
0.23123,0.89648,-0.37796,-0.07246,0.47455,-0.12543
0.24258,0.86143,-0.44619,0.29858,0.48358,0.27574
0.24815,0.82904,-0.50111,0.34685,0.44884,0.09317
0.23947,0.80229,-0.5468,-0.0375,0.09392,0.22755
0.2159,0.78033,-0.58692,-0.46734,-0.29208,0.29984
0.18255,0.7676,-0.61439,-0.59683,-0.62169,0.41404
0.14345,0.76752,-0.62477,-0.33569,-0.8239,0.46698
0.09644,0.78008,-0.61821,-0.13411,-0.89504,0.52008
0.05886,0.80739,-0.58707,0.02448,-0.99077,0.61098
0.04975,0.84719,-0.52896,-0.32284,-0.85747,0.63616
0.06728,0.88954,-0.45188,-0.55709,-0.79179,0.5475
0.08681,0.92856,-0.3609,-0.54093,-0.82355,0.62104
0.08953,0.95833,-0.27128,0.09686,-0.40312,-0.30473
0.10002,0.97619,-0.19249,0.67145,0.27798,-0.08331
0.11662,0.98636,-0.11613,1.06314,0.96376,-0.25847
0.12077,0.99076,-0.06172,0.12741,1.62324,0.29889
0.09785,0.99472,-0.03103,-0.5446,0.15094,-0.55931
0.0971,0.99515,-0.01598,-0.46813,-0.71255,0.00529
0.10019,0.99479,0.01862,-0.40582,-0.548,0.15746
0.084,0.99472,0.05903,-0.32462,-0.24897,0.1597
0.05961,0.99445,0.08669,-0.1403,0.11235,0.15614
0.0409,0.99362,0.10507,0.03924,0.36128,0.19477
0.02189,0.99265,0.119,0.2557,0.58289,0.16254
0.00317,0.99155,0.12967,0.58776,0.37309,-0.24933
-0.00862,0.9896,0.14357,0.65412,0.10309,-0.21609
-0.01541,0.98732,0.15798,0.36125,-0.08016,0.05337
-0.01114,0.98525,0.17074,0.29554,-0.14066,0.06592
0.00272,0.98155,0.19119,0.06485,-0.12365,0.12806
0.01598,0.97521,0.22068,-0.18657,-0.17469,-0.10545
0.0205,0.96727,0.25291,-0.30893,-0.20598,-0.54883
0.02061,0.95978,0.28,-0.28162,-0.14638,-0.48009
0.01473,0.95497,0.29632,-0.14147,-0.08055,-0.20764
0.00068,0.94967,0.31324,0.2466,-0.00141,-0.14668
-0.01545,0.94094,0.33821,0.35154,2e-05,-0.15821
-0.02769,0.93194,0.36156,0.32073,-0.02729,-0.20229
-0.03413,0.92207,0.38551,0.16348,0.08304,-0.27615
-0.04118,0.91349,0.40477,0.21697,0.12672,-0.40088
-0.05077,0.90916,0.41334,0.24881,0.13089,-0.48127
-0.05959,0.90822,0.41423,0.29334,0.1629,-0.43054
-0.06535,0.90798,0.41387,0.23415,0.10523,-0.36231
-0.06938,0.90769,0.41386,0.21434,0.08475,-0.27746
-0.07668,0.90801,0.41187,0.23507,-0.04194,-0.15564
-0.08445,0.90827,0.40976,0.21424,0.00927,-0.13248
-0.09162,0.90825,0.40827,0.1101,0.14651,-0.10538
-0.09897,0.90821,0.40664,-0.05293,0.26022,-0.12158
-0.1089,0.90764,0.40537,-0.07562,0.23585,-0.0937
-0.12284,0.90776,0.40109,0.03363,0.30517,-0.04846
