gravity.x,gravity.y,gravity.z,userAcceleration.x,userAcceleration.y,userAcceleration.z
-0.72149,0.68234,0.11769,0.34228,0.15557,0.05667
-0.71794,0.69075,0.08609,0.41507,0.11568,-0.2627
-0.7123,0.69804,0.07315,0.08941,0.34763,-0.23726
-0.70576,0.70452,0.07448,-0.09884,0.15718,-0.00696
-0.69783,0.71335,0.06447,-0.14268,-0.00381,-0.03171
-0.68648,0.72497,0.05621,-0.15022,0.04008,-0.21008
-0.66845,0.7416,0.05653,-0.12446,0.04542,-0.16131
-0.65191,0.75604,0.05832,-0.02253,0.00374,-0.0777
-0.64055,0.76566,0.05863,0.04357,-0.03132,-0.06328
-0.63107,0.77362,0.05701,0.02253,0.00912,-0.03478
-0.62087,0.78255,0.04605,-0.03843,-0.14524,-0.15851
-0.61048,0.79148,0.02923,-0.04882,-0.15417,-0.14169
-0.59942,0.80027,0.0158,-0.08747,-0.16724,-0.15487
-0.58821,0.80868,0.00533,-0.16498,-0.17807,-0.00454
-0.57745,0.81635,-0.0108,-0.17751,-0.18815,0.01318
-0.56739,0.82296,-0.02798,-0.27626,-0.18092,-0.06652
-0.55891,0.82814,-0.04227,-0.23259,-0.23323,0.04491
-0.54981,0.83355,-0.0538,-0.24169,-0.23864,0.05644
-0.54051,0.839,-0.06263,-0.21627,-0.24861,0.10991
-0.53109,0.84445,-0.06957,-0.28033,-0.26654,0.08052
-0.52354,0.84882,-0.07347,-0.33248,-0.21444,0.1138
-0.5197,0.8511,-0.0744,-0.36581,-0.18494,0.12205
-0.51854,0.85206,-0.07135,-0.36828,-0.21579,0.19234
-0.51857,0.85248,-0.06592,-0.30556,-0.16712,0.24397
-0.52044,0.8519,-0.05824,-0.18935,0.00169,0.23974
-0.52582,0.84921,-0.04843,-0.19853,0.18998,0.26401
-0.53736,0.843,-0.02408,-0.24575,0.09407,0.3579
-0.55224,0.83352,0.01633,-0.2003,-0.02552,0.31367
-0.57091,0.81805,0.06953,-0.14958,0.00585,0.18459
-0.58983,0.79737,0.12761,-0.02335,0.10933,0.14173
-0.60677,0.775,0.17662,0.16883,0.29537,0.07907
-0.62483,0.75182,0.21059,0.27426,0.48854,-0.01628
-0.6413,0.72992,0.23652,0.12131,0.38297,-0.09768
-0.64978,0.7153,0.25714,0.0453,0.27183,-0.07492
-0.65374,0.70554,0.27353,-0.09691,0.11352,-0.04199
-0.66011,0.69346,0.28873,-0.17275,-0.0414,-0.04555
-0.67336,0.67582,0.29974,-0.15235,-0.11361,-0.13168
-0.68984,0.65526,0.30779,-0.051,-0.09676,-0.17606
-0.70315,0.63728,0.31533,0.09665,0.00484,-0.1953
-0.71174,0.62053,0.32917,0.21354,0.07115,-0.14114
-0.71719,0.60392,0.34771,0.31235,0.08215,-0.03765
-0.72148,0.58948,0.36326,0.3551,0.02352,0.04798
-0.72443,0.57953,0.37327,0.30841,-0.03794,-0.07135
-0.72434,0.57388,0.38208,0.25858,-0.10476,-0.13584
-0.72198,0.57234,0.3888,0.25704,-0.15557,-0.10439
-0.7183,0.57393,0.39323,0.21862,-0.15174,-0.09384
-0.71356,0.57817,0.39565,0.11844,-0.15166,-0.07447
-0.70972,0.58392,0.3941,-0.02971,-0.14041,-0.02101
-0.7083,0.58886,0.38928,-0.05554,-0.1036,0.02044
-0.70796,0.59226,0.38472,-0.15005,-0.13437,0.1437
-0.70691,0.59551,0.38163,-0.23316,-0.12744,0.35775
-0.70428,0.59991,0.37958,-0.26159,-0.12019,0.35652
-0.7017,0.60416,0.37761,-0.25007,-0.16287,0.27827
-0.69977,0.60647,0.37748,-0.12235,-0.11722,0.06106
-0.69932,0.60292,0.38397,-0.16314,0.04087,0.06484
-0.69741,0.6091,0.37762,-0.1518,0.77939,0.0091
-0.6971,0.61798,0.36351,0.54462,0.76955,0.0246
-0.71408,0.61445,0.33545,0.91995,-0.17733,0.08421
-0.72995,0.62104,0.28542,0.27466,-0.2117,-0.13925
-0.71247,0.64562,0.27485,0.73961,-0.03402,-0.04244
-0.69477,0.67541,0.2472,0.40111,0.24572,-0.7347
-0.67867,0.70447,0.20764,-0.05974,0.38444,-0.51765
-0.67565,0.71704,0.17128,-0.529,0.39816,-0.45175
-0.68662,0.71224,0.14581,-0.70313,0.02164,-0.22415
-0.69456,0.70993,0.11657,-0.52169,-0.22074,-0.18954
-0.69496,0.71289,0.09389,-0.42278,-0.24133,-0.23457
-0.69271,0.71622,0.08472,-0.03061,0.02191,-0.10143
-0.69017,0.71946,0.07768,0.10782,0.00619,-0.04354
-0.68616,0.72393,0.0714,0.09584,-0.02308,-0.07666
-0.68071,0.72933,0.06855,0.01094,-0.05438,0.00997
-0.67582,0.73399,0.06718,-0.13622,-0.06012,-0.0819
-0.67414,0.73583,0.0638,-0.17069,-0.10108,-0.07895
-0.67695,0.73499,0.03895,-0.3429,-0.06685,0.32021
-0.67949,0.73246,0.0423,-0.35637,-0.16967,0.15413
-0.68293,0.72896,0.04701,-0.24565,-0.15111,0.11482
-0.69037,0.72251,0.03684,-0.01222,-0.06584,-0.06886
-0.69633,0.71735,0.02298,0.00424,0.10394,-0.00562
-0.69628,0.71766,0.01214,-0.09856,0.21298,0.0503
-0.69292,0.72095,0.00876,-0.1808,0.18727,0.13389
-0.68931,0.72439,0.00972,-0.37516,0.01491,0.23024
-0.68709,0.72644,0.0134,-0.3495,-0.00343,0.23636
-0.68597,0.72721,0.02449,-0.32366,0.05117,0.16942
-0.68728,0.72489,0.04662,-0.25724,0.20112,-0.01659
-0.69163,0.7183,0.07539,-0.12244,0.11788,0.00667
-0.69855,0.70732,0.10823,-0.00447,0.14884,0.03285
-0.70821,0.69078,0.14578,0.09749,0.24167,0.125
-0.7187,0.67022,0.18508,0.0775,0.44712,0.05549
-0.72956,0.64787,0.21909,0.09894,0.53512,-0.01794
-0.74175,0.62518,0.24276,0.17527,0.54173,-0.11413
-0.75201,0.60527,0.26099,0.21893,0.42813,-0.17147
-0.75807,0.58837,0.28132,0.27633,0.29381,-0.27625
-0.76025,0.57359,0.30495,0.16598,0.13395,-0.26677
-0.76095,0.55738,0.33206,0.08194,0.00778,-0.209
-0.76657,0.53402,0.35663,-0.08164,0.00122,-0.18639
-0.7768,0.50029,0.38246,-0.24068,0.02554,-0.16099
-0.78159,0.46537,0.41537,0.03189,0.07331,-0.16198
-0.78225,0.43411,0.44677,0.15318,0.12053,-0.18411
-0.78086,0.40489,0.47571,0.34733,0.18044,-0.19762
-0.7786,0.3767,0.50186,0.43574,0.21741,-0.15773
-0.77425,0.35136,0.52636,0.3344,0.17964,-0.14503
-0.76786,0.32939,0.54943,0.17139,0.11303,-0.12728
-0.76113,0.30903,0.57023,0.00278,0.03212,-0.10621
-0.75432,0.28989,0.58901,-0.06916,0.02499,-0.11401
-0.74679,0.27241,0.6067,-0.08785,0.09911,-0.10116
-0.73753,0.25698,0.62449,-0.00719,0.1691,-0.11073
-0.72791,0.24354,0.64094,0.08349,0.16977,-0.10025
-0.71891,0.23209,0.65519,0.17329,0.10813,-0.07357
-0.71011,0.22296,0.66784,0.16513,0.10532,-0.08567
-0.7078,0.21843,0.67177,0.18008,0.04907,-0.07029
-0.69692,0.21222,0.68501,0.07422,0.19372,-0.05641
-0.68515,0.20769,0.69815,0.11458,0.17971,-0.06714
-0.67699,0.20647,0.70643,0.12082,0.07188,-0.13947
-0.67092,0.20749,0.71189,0.14425,0.02499,-0.20174
-0.66613,0.21001,0.71564,0.15472,0.02773,-0.19352
-0.66243,0.21424,0.71782,0.16446,0.02257,-0.15614
-0.65985,0.22045,0.71831,0.14252,0.02172,-0.12934
-0.65859,0.22779,0.71718,0.09708,0.01076,-0.09645
-0.65842,0.23537,0.71488,0.03348,-0.02221,-0.02308
-0.66059,0.24294,0.71034,-0.05977,-0.04353,0.03308
-0.66623,0.25267,0.70162,-0.12338,-0.05645,0.00735
-0.67345,0.26431,0.69036,-0.04912,0.04894,-0.08968
-0.68116,0.27817,0.67722,0.10912,0.1743,-0.04727
-0.68879,0.29428,0.66253,-0.12206,0.24527,0.00385
-0.68407,0.30877,0.66083,-0.17393,0.27148,0.24654
-0.68286,0.32786,0.65284,-0.0617,0.18668,-0.03496
-0.68771,0.35142,0.63524,0.0747,0.02954,0.04097
-0.69746,0.37429,0.61109,-0.01384,0.00518,-0.10058
-0.70978,0.39811,0.58112,-0.09535,0.00799,-0.1886
-0.72047,0.4246,0.54828,-0.02077,0.18454,-0.15207
-0.73122,0.45285,0.51013,0.0315,0.20174,-0.16188
-0.74429,0.48001,0.46433,0.12525,0.1673,-0.20307
-0.75713,0.50495,0.41446,0.13455,0.05733,-0.23311
-0.76792,0.52779,0.36295,0.12114,0.02553,-0.18263
-0.77537,0.54908,0.31192,0.05691,0.04092,-0.17912
-0.77701,0.56932,0.26853,-0.07542,0.18488,-0.09409
-0.77479,0.58661,0.23573,-0.1071,0.21831,-0.07195
-0.76989,0.60101,0.21455,-0.08887,0.17809,-0.10818
-0.75771,0.61674,0.21331,0.02072,0.08756,0.19899
-0.74909,0.63112,0.20134,-0.01522,0.09911,0.10104
-0.7453,0.64072,0.1844,-0.06867,0.14244,-0.10793
-0.73901,0.65036,0.17572,-0.08818,-0.0003,-0.35101
-0.72989,0.65968,0.17905,-0.1726,0.00703,-0.3384
-0.72003,0.66802,0.18785,-0.20818,-0.00329,-0.13313
-0.71024,0.67586,0.19688,-0.18596,0.0056,-0.14429
-0.70252,0.68121,0.20591,-0.17797,0.01514,-0.21152
-0.70041,0.68345,0.20571,-0.01323,0.0848,-0.05146
-0.70349,0.68352,0.19465,0.07611,0.13202,-0.08016
-0.70683,0.68418,0.17967,0.15952,0.10963,-0.00102
-0.7054,0.68733,0.17312,0.05394,0.13267,-0.09951
-0.70107,0.69245,0.17027,0.01639,0.08382,-0.1011
-0.69588,0.69829,0.16774,-0.17386,-0.10338,-0.11441
-0.68975,0.70461,0.16661,-0.27308,-0.18359,-0.0065
-0.68433,0.70984,0.16674,-0.28257,-0.20717,-0.01044
-0.67824,0.71614,0.16465,-0.08783,-0.19341,0.06093
-0.67266,0.72133,0.16489,-0.11315,-0.06967,-0.02751
-0.66976,0.72279,0.17022,-0.05761,-0.01145,0.11108
-0.67019,0.7192,0.18322,-0.31697,0.1733,0.03114
-0.67294,0.71032,0.20637,-0.29977,0.09922,0.21705
-0.67891,0.69821,0.22706,-0.21766,0.10895,0.30195
-0.69023,0.68058,0.24571,-0.02217,0.12632,0.43437
-0.70476,0.65784,0.2656,-0.02006,0.20654,0.2926
-0.72054,0.63218,0.28488,-0.02564,0.27997,0.16719
-0.73689,0.60513,0.3013,-0.08597,0.2844,-0.17473
-0.73932,0.5899,0.32466,0.15902,0.15081,0.00202
-0.75502,0.567,0.32931,0.02929,0.46584,0.03421
-0.77833,0.53305,0.33173,-0.25411,0.29549,-0.01163
-0.79654,0.49269,0.35037,-0.40706,0.34316,-0.20343
-0.80572,0.44619,0.38949,-0.06928,0.10026,-0.03627
-0.80624,0.40331,0.43278,0.04522,0.05231,-0.07077
-0.80357,0.36774,0.46799,0.24606,0.08096,-0.16013
-0.79966,0.337,0.49694,0.27488,0.10987,-0.21325
-0.79397,0.309,0.52355,0.25659,0.11085,-0.26669
-0.78474,0.28459,0.5506,0.24954,0.04045,-0.28479
-0.77189,0.26396,0.57836,0.26389,-0.01964,-0.26422
-0.75746,0.24669,0.60446,0.27301,-0.03351,-0.22337
-0.74351,0.23277,0.62689,0.2972,-0.01831,-0.19621
-0.74269,0.22107,0.63207,0.33423,-0.0627,-0.57488
-0.73325,0.21242,0.64591,0.07153,0.14958,-0.24413
-0.71879,0.20795,0.66338,0.44801,0.10246,-0.02566
-0.70664,0.21108,0.67534,0.39832,-0.02629,-0.1019
-0.69858,0.21775,0.68157,0.29058,0.04371,-0.14855
-0.69484,0.23001,0.68137,0.12847,-0.11253,-0.12876
-0.69343,0.24657,0.677,-0.0059,-0.10183,-0.08063
-0.69122,0.26695,0.67151,0.06111,-0.0174,-0.15675
-0.68624,0.28492,0.66924,0.16428,-0.05276,0.24075
-0.68718,0.30626,0.65876,-0.34116,0.12741,-0.48063
-0.69427,0.33405,0.63748,-0.14551,0.23935,-0.29969
-0.69891,0.36288,0.61629,-0.17589,0.73613,-0.01227
-0.70966,0.38506,0.58999,0.15131,0.32658,-0.21755
-0.7304,0.40608,0.54917,0.24057,-0.07532,-0.45944
-0.75177,0.42902,0.50076,0.17466,-0.13128,-0.30073
-0.76624,0.45728,0.45138,-0.01028,-0.03893,-0.28071
-0.77424,0.48685,0.40437,-0.14915,0.11957,-0.27224
-0.77937,0.51068,0.36301,-0.19355,0.27324,-0.15616
-0.78293,0.52839,0.32834,-0.09741,0.28113,-0.10559
-0.78563,0.54327,0.29601,0.02501,0.16435,-0.14174
-0.78641,0.55849,0.26389,0.11159,0.09332,-0.16597
-0.78373,0.57484,0.23515,0.13386,0.15324,-0.11252
-0.77875,0.59196,0.20763,0.10493,0.18587,-0.12682
-0.77204,0.60853,0.18337,-0.04811,0.22695,-0.262
-0.76238,0.62347,0.17331,-0.19885,0.17148,-0.32105
-0.7482,0.63716,0.18497,-0.26209,0.00922,-0.22965
-0.7316,0.65112,0.20195,-0.16369,-0.09994,-0.13929
-0.71589,0.66507,0.21251,-0.19309,0.04775,0.41095
-0.70673,0.67729,0.20442,-0.22515,0.09642,-0.14174
-0.69604,0.68472,0.21603,-0.02292,0.07416,-0.12436
-0.69225,0.68874,0.21543,0.06445,-0.01011,-0.05006
-0.69303,0.69325,0.19774,0.16367,-0.03534,-0.09298
-0.69016,0.69925,0.18631,0.09013,0.09413,-0.13425
-0.68479,0.7049,0.18483,0.01886,0.05793,-0.07877
-0.67777,0.71179,0.1843,-0.16309,-0.10067,-0.11369
-0.6696,0.71969,0.18347,-0.26988,-0.25634,0.0341
-0.66129,0.72856,0.17852,-0.20332,-0.13172,0.01482
-0.65504,0.73548,0.17315,-0.10536,-0.02253,0.08808
-0.65091,0.73936,0.17217,-0.38052,0.28089,-0.146
-0.64522,0.74093,0.18624,-0.41183,0.22054,-0.12567
-0.64057,0.74063,0.20278,-0.20656,0.12799,0.09401
-0.64155,0.73617,0.2155,0.00806,0.11838,0.33499
-0.64683,0.72671,0.23126,0.0352,0.16403,0.38585
-0.65572,0.71156,0.25239,0.01117,0.17539,0.37378
-0.66657,0.69232,0.27633,-0.06711,0.15264,0.17196
-0.67897,0.67098,0.29793,-0.06886,0.12797,-0.10313
-0.69341,0.64736,0.31637,-0.06953,0.15295,-0.22764
-0.69985,0.62835,0.33965,0.03782,0.27422,0.23191
-0.71538,0.60936,0.34188,0.01159,0.27418,0.06751
-0.73887,0.58224,0.33919,-0.06548,0.28257,-0.05829
-0.75955,0.55115,0.3454,-0.13243,0.23471,-0.14503
-0.77533,0.51684,0.36293,-0.0897,0.16165,-0.12892
-0.78668,0.47775,0.39098,-0.02905,-0.0,-0.06424
-0.79223,0.44249,0.42019,0.07151,0.0483,-0.13355
-0.79338,0.40987,0.45004,0.13833,0.14835,-0.17218
-0.79119,0.37836,0.48046,0.18493,0.12619,-0.09984
-0.7875,0.35076,0.50673,0.26445,0.09624,-0.12252
-0.78138,0.32647,0.53182,0.3177,0.07714,-0.19036
-0.77161,0.30462,0.55839,0.32371,0.07981,-0.20789
-0.76012,0.28566,0.5836,0.30783,0.04344,-0.15434
-0.74834,0.26938,0.60614,0.2699,0.06254,-0.16124
-0.73665,0.25524,0.62624,0.26723,0.06332,-0.17466
-0.72478,0.24351,0.64449,0.2916,0.06472,-0.20193
-0.72113,0.23905,0.65024,0.21249,0.11703,-0.29723
-0.70858,0.23343,0.66589,0.19706,0.12343,-0.1663
-0.69241,0.22975,0.68393,0.15246,0.11626,-0.10577
-0.67936,0.22931,0.69704,0.16056,-0.0327,-0.10275
-0.67269,0.2338,0.70199,0.12411,-0.07961,-0.11589
-0.66995,0.24213,0.70179,0.10055,0.01003,-0.15048
-0.66916,0.25505,0.69796,0.03401,-0.15539,-0.09167
-0.67129,0.27087,0.68991,0.07949,-0.10767,-0.15619
-0.67479,0.28973,0.67874,0.23935,0.01763,0.30586
-0.67059,0.29804,0.6793,-0.0069,0.07647,0.90877
-0.6788,0.30833,0.66643,-0.93539,0.34194,-0.50774
-0.69074,0.32733,0.64475,-0.19763,0.57964,0.28615
-0.69659,0.34461,0.62927,-0.07413,0.54631,0.06644
-0.7087,0.36046,0.60646,0.27564,0.09966,-0.20735
-0.7347,0.38204,0.56057,0.09923,-0.0091,-0.04052
-0.74854,0.40285,0.52667,0.05794,0.08544,-0.12971
-0.7584,0.42859,0.49104,-0.00445,0.27337,-0.20069
-0.76576,0.45485,0.45464,-0.0514,0.28803,-0.18366
-0.7726,0.47787,0.41797,-0.00521,0.22539,-0.18234
-0.77813,0.49726,0.38371,0.08982,0.13638,-0.20772
-0.78175,0.51493,0.35169,0.13734,0.08269,-0.1487
-0.78338,0.53378,0.3184,0.12607,0.08243,-0.14034
-0.78222,0.55392,0.2851,0.06936,0.12038,-0.18019
-0.778,0.5731,0.25739,-0.0112,0.1049,-0.18655
-0.77211,0.59026,0.2354,-0.06834,0.04938,-0.22112
-0.7648,0.60537,0.22043,-0.12593,-0.00583,-0.10957
-0.75671,0.61936,0.2092,-0.14258,0.02016,-0.08937
-0.74854,0.63166,0.20168,-0.09971,0.05096,-0.09923
-0.74009,0.64216,0.19968,0.00274,0.0163,-0.11458
-0.73063,0.65205,0.20246,0.1063,0.03168,-0.54779
-0.71856,0.66481,0.20416,0.07411,-0.02002,0.36044
-0.70989,0.67672,0.19514,-0.04723,-0.02042,-0.0043
-0.70127,0.68499,0.19744,-0.03364,-0.01721,-0.14367
-0.69537,0.69096,0.19751,0.00402,-0.01451,-0.0942
-0.69332,0.69515,0.18989,0.0004,-0.03934,-0.0342
-0.69191,0.6986,0.18219,-0.01243,-0.03742,-0.05657
-0.69029,0.70244,0.1734,0.04133,-0.04672,-0.00764
-0.6885,0.7065,0.16369,0.04091,-0.042,-0.0142
-0.68743,0.70889,0.15778,-0.0166,-0.07797,-0.07894
-0.68755,0.71033,0.15064,-0.04297,-0.1005,-0.05097
-0.68556,0.71351,0.14453,-0.08993,-0.05856,-0.06512
-0.68207,0.71801,0.13865,-0.0973,0.032,-0.02939
-0.68212,0.72028,0.12604,-0.02799,0.05587,-0.01757
-0.68558,0.71875,0.11556,0.00655,0.00998,-0.07862
-0.6863,0.71978,0.10435,-0.01568,-0.02118,-0.11132
-0.68919,0.71871,0.09191,-0.08597,0.00867,-0.13773
-0.68428,0.72454,0.08235,-0.09009,0.06383,-0.02164
-0.67887,0.73064,0.07274,-0.14692,0.08708,0.04948
-0.67402,0.73575,0.06595,-0.34733,0.20421,-0.05762
-0.67139,0.73806,0.06694,-0.43159,0.23893,-0.06936
-0.67061,0.73825,0.07252,-0.36077,0.25686,0.122
-0.67173,0.73657,0.07885,-0.1841,0.1854,0.28851
-0.67435,0.73225,0.09513,-0.13858,0.16137,0.33474
-0.67826,0.72432,0.12371,-0.08618,0.06126,0.40275
-0.68294,0.71241,0.16136,-0.10055,-0.00559,0.37459
-0.68949,0.69494,0.20406,-0.22657,0.05215,0.24871
-0.69797,0.67239,0.24641,-0.29372,0.06695,-0.05424
-0.71019,0.64687,0.2778,-0.17993,0.20216,-0.32126
-0.72673,0.62079,0.29405,-0.13765,0.28606,-0.3381
-0.74419,0.59809,0.29741,-0.02684,0.43971,-0.20887
-0.76194,0.57406,0.29981,0.04868,0.42258,-0.38295
-0.77301,0.54487,0.32488,-0.06847,0.31315,-0.23002
-0.77885,0.50825,0.36749,-0.14655,0.31298,0.00339
-0.78978,0.45996,0.40578,-0.21134,0.321,-0.05368
-0.79489,0.41084,0.44646,-0.23973,0.27655,-0.18768
-0.79236,0.3669,0.48736,0.11902,0.27313,-0.23394
-0.78768,0.32753,0.52178,0.2547,0.24943,-0.25983
-0.77864,0.29499,0.55377,0.51384,0.1417,-0.27577
-0.76494,0.26757,0.58588,0.70782,-0.06212,-0.30844
-0.7474,0.24655,0.61691,0.66181,-0.12441,-0.30722
-0.72935,0.23278,0.6433,0.54047,-0.16655,-0.27178
-0.71376,0.22617,0.66284,0.35335,-0.00626,-0.24739
-0.70203,0.22627,0.67522,0.24257,0.01973,-0.27503
-0.69284,0.2329,0.68242,0.24598,0.00181,-0.25621
-0.68748,0.2436,0.6841,0.24766,-0.05408,-0.17413
-0.68634,0.25808,0.67993,0.15416,-0.13048,-0.17961
-0.68678,0.27764,0.67173,0.1032,-0.15008,-0.18233
-0.68777,0.30515,0.65865,0.32026,-0.14564,-0.31792
-0.68952,0.33593,0.64162,0.39019,-0.13469,0.20445
-0.69487,0.35477,0.6255,0.13338,-0.11861,0.73221
-0.71485,0.37228,0.59192,-0.76411,0.36079,-0.425
-0.73217,0.40204,0.54978,-0.46725,0.69447,0.1618
-0.73934,0.42778,0.51995,0.29873,0.37906,-0.08747
-0.75573,0.44197,0.48323,0.56201,-0.25052,-0.38298
-0.77531,0.45394,0.4391,0.53312,-0.51699,-0.30535
-0.78497,0.47296,0.40013,0.26749,-0.25784,-0.18542
-0.78227,0.50111,0.37002,0.07492,0.19154,-0.04629
-0.78021,0.529,0.33377,-0.03483,0.60138,-0.02744
-0.7831,0.54864,0.29278,-0.04229,0.55701,-0.12994
-0.78666,0.56221,0.25506,-0.1328,0.11893,-0.26097
-0.78366,0.57569,0.2333,-0.18617,-0.05526,-0.33505
-0.77354,0.58983,0.23175,-0.23306,0.06515,-0.30591
-0.75926,0.60425,0.24164,-0.24765,0.16924,-0.13139
-0.74242,0.61994,0.25389,-0.48783,0.40138,-0.17007
-0.72613,0.63148,0.27195,-0.48924,0.66695,-0.37952
-0.72786,0.63681,0.25432,-0.54343,0.71123,0.0211
-0.74196,0.63732,0.20806,-0.48242,0.7893,-0.1503
-0.74541,0.6469,0.16082,-0.35304,0.78895,-0.22953
-0.73077,0.67221,0.11873,-0.09605,0.58499,-0.27029
-0.71148,0.69762,0.08428,-1.35045,0.07289,0.76065
-0.69321,0.71743,0.06885,-1.4861,-0.27466,0.8697
-0.67353,0.73593,0.06888,-1.17804,-0.51026,0.93139
-0.65439,0.7519,0.07994,0.10483,-0.44981,0.30768
-0.63577,0.76635,0.09213,0.48811,-0.76983,0.37868
-0.62395,0.7743,0.10548,0.48926,-1.04252,0.34198
-0.6264,0.76823,0.13201,0.13465,-1.10347,0.1346
-0.64232,0.74589,0.17623,-0.10322,-0.97349,0.15248
-0.66751,0.71032,0.22328,-0.3855,-0.57017,0.0389
-0.69654,0.6698,0.25728,-0.48245,-0.01669,-0.09028
-0.73009,0.63154,0.26096,-0.39172,0.84031,0.10099
-0.77031,0.59834,0.22045,-0.20593,1.59314,0.1409
-0.79605,0.57084,0.20106,0.46496,1.67698,-0.06149
-0.80037,0.54376,0.25242,0.98985,1.1717,-0.01061
-0.79539,0.50926,0.32861,0.64719,0.59987,0.17545
-0.7908,0.4738,0.38747,0.36882,0.51665,0.36099
-0.81286,0.41094,0.41274,-0.49062,0.68958,0.42592
-0.84134,0.3195,0.43595,-1.08028,0.31273,-0.27916
-0.83296,0.25261,0.49228,-0.99999,0.07019,-0.18654
-0.81144,0.20798,0.54615,-0.03081,0.57329,0.06169
-0.7848,0.17331,0.595,0.31446,0.60991,-0.03929
-0.75225,0.14964,0.64164,0.48043,0.53508,-0.15627
-0.71763,0.13582,0.68303,0.68711,0.12752,-0.27103
-0.68714,0.13265,0.7143,0.65328,0.00273,-0.28998
-0.6647,0.14186,0.7335,0.5343,-0.11726,-0.25869
-0.65129,0.16596,0.74044,0.39591,-0.1032,-0.29579
-0.64312,0.20182,0.73868,0.46811,-0.22083,-0.35853
-0.64096,0.24574,0.72715,0.64513,-0.37513,-0.34956
-0.64729,0.29026,0.70479,0.707,-0.42678,-0.4918
-0.66166,0.32569,0.67536,0.73429,-0.40894,-0.81426
-0.68208,0.35361,0.64008,0.87086,-0.45615,-0.71128
-0.70422,0.3764,0.60197,0.98834,-0.47888,-0.15166
-0.73434,0.39282,0.55355,0.21212,-0.18838,-0.54357
-0.77158,0.40341,0.49183,0.13533,0.16176,-0.0524
-0.80534,0.42109,0.41725,-0.28677,1.05207,-0.21701
-0.82437,0.45021,0.34309,-0.37568,1.22393,-0.45385
-0.83483,0.47457,0.27897,0.02169,0.52944,-0.16572
-0.84748,0.47993,0.22676,0.04902,0.12513,-0.20362
-0.85118,0.48936,0.18974,0.03977,-0.07616,-0.22885
-0.84649,0.50674,0.16325,0.13574,0.28083,-0.11786
-0.84153,0.52444,0.12949,0.24107,0.49127,-0.06953
-0.83793,0.53944,0.08286,0.29487,0.55324,-0.07229
-0.8343,0.55009,0.03629,0.28397,0.53667,-0.25591
-0.828,0.56071,-0.0037,0.18226,0.3514,-0.34527
-0.81913,0.57259,-0.03402,0.14333,0.25347,-0.3433
-0.81128,0.58271,-0.04749,0.01775,0.05973,-0.36099
-0.80629,0.58904,-0.05402,-0.11568,-0.02322,-0.02986
-0.79963,0.59579,-0.07494,-0.21013,-0.15802,0.07564
-0.79081,0.60383,-0.09997,-0.24238,-0.23943,-0.04051
-0.78047,0.614,-0.11771,-0.16028,-0.2519,0.04648
-0.76932,0.62425,-0.13584,-0.09425,-0.21246,0.10496
-0.75748,0.63324,-0.15882,-0.01811,-0.13656,0.13866
-0.74479,0.64134,-0.18429,-0.07847,-0.14592,0.28048
-0.73337,0.64796,-0.20567,-0.18741,-0.2066,0.35893
-0.72508,0.65243,-0.22041,-0.261,-0.22976,0.29354
-0.72083,0.6552,-0.22608,-0.26692,-0.20769,0.26179
-0.72063,0.65573,-0.22517,-0.29228,-0.02386,0.3083
-0.72638,0.65228,-0.21654,-0.2757,0.05833,0.32769
-0.73872,0.64408,-0.1986,-0.18447,0.18967,0.43396
-0.75517,0.63151,-0.1758,0.00134,0.18626,0.4141
-0.77503,0.61664,-0.13812,0.0391,0.18838,0.31296
-0.79457,0.60024,-0.09145,0.05816,0.25698,0.26538
-0.80999,0.58461,-0.04628,0.10767,0.48809,0.21849
-0.82086,0.57092,-0.0151,0.19917,0.76304,0.12136
-0.82992,0.55782,0.0067,0.35242,0.90563,-0.06628
-0.83887,0.54341,0.0313,0.39156,0.78979,0.0028
-0.84484,0.53154,0.06069,0.39459,0.68683,-0.00055
-0.84985,0.52055,0.08226,0.13593,0.28162,0.11073
-0.86036,0.50081,0.09464,-0.20176,0.06244,-0.14067
-0.87271,0.47476,0.11387,-0.26645,-0.08868,-0.20498
-0.88167,0.45181,0.13599,0.04642,-0.14697,-0.17681
-0.88737,0.43207,0.16081,0.33356,0.00137,-0.13783
-0.89123,0.41407,0.18502,0.52382,0.06855,-0.07122
-0.8935,0.40058,0.20293,0.62316,0.09368,-0.06476
-0.89338,0.39451,0.21499,0.64917,0.06278,-0.00611
-0.8907,0.39731,0.22086,0.66742,-0.07726,0.05807
-0.8862,0.40833,0.21887,0.63357,-0.11328,0.06828
-0.88115,0.42461,0.20796,0.51442,-0.12757,0.14123
-0.87566,0.44179,0.19498,0.24874,-0.06779,0.25223
-0.86903,0.45713,0.18921,-0.14145,0.024,0.45804
-0.86311,0.47039,0.1837,-0.32764,0.0247,0.54761
-0.86165,0.47737,0.1722,-0.73102,-0.19829,0.71486
-0.86316,0.47731,0.16465,-0.79929,-0.07341,0.74223
-0.86625,0.47285,0.16128,-0.84211,0.19523,0.46941
-0.8656,0.48257,0.13353,0.17341,0.69072,-0.51702
-0.86789,0.48823,0.09157,1.01883,0.4482,0.23904
-0.87034,0.49117,0.0353,1.27454,0.33478,0.47756
-0.85507,0.51848,-0.00426,1.05006,-0.1315,-0.33515
-0.82198,0.56871,-0.02999,0.68803,0.17052,-0.42231
-0.78316,0.61891,-0.05991,0.47453,0.36915,-0.32774
-0.75661,0.64481,-0.10837,-0.13192,1.38208,0.00246
-0.74534,0.64839,-0.15505,-0.3804,0.57588,-0.35725
-0.73413,0.65425,-0.18166,-0.10736,0.00765,-0.29155
-0.72232,0.66076,-0.20405,0.12076,0.05497,-0.34968
-0.71149,0.66718,-0.22054,0.16074,0.18314,-0.45697
-0.69835,0.67835,-0.22832,0.13881,0.14517,-0.20186
-0.68357,0.6913,-0.23412,0.06004,0.07734,-0.23883
-0.66861,0.70424,-0.23873,-0.07593,-0.08296,-0.36512
-0.65383,0.71702,-0.24161,-0.47433,-0.18351,-0.12702
-0.64066,0.72763,-0.24513,-0.54194,-0.24184,0.04661
-0.62982,0.7359,-0.24851,-0.55486,-0.42584,0.229
-0.62395,0.74188,-0.24552,-0.34713,-0.35472,0.33162
-0.62054,0.74624,-0.2409,-0.23641,-0.32474,0.32999
-0.61604,0.74999,-0.24082,-0.07025,-0.23865,0.21557
-0.61128,0.75325,-0.24277,-0.07932,-0.16144,0.04932
-0.60512,0.75736,-0.2454,-0.16894,-0.13474,0.1265
-0.59715,0.76348,-0.24596,-0.32067,-0.14544,0.31839
-0.58736,0.77061,-0.24727,-0.51516,-0.1918,0.73977
-0.57822,0.77885,-0.24298,-0.50713,-0.11221,0.74232
-0.5723,0.78657,-0.23189,-0.50981,-0.0189,0.60838
-0.57062,0.79243,-0.21547,-0.46237,0.01373,0.53221
-0.57265,0.79574,-0.19712,-0.46449,0.10537,0.6138
-0.57752,0.79772,-0.17352,-0.56021,0.05075,0.65771
-0.58693,0.79811,-0.1361,-0.57654,-0.10351,0.68405
-0.60233,0.79395,-0.08259,-0.49823,-0.21629,0.57115
-0.6191,0.785,-0.02184,-0.42402,-0.09812,0.5048
-0.63714,0.77014,0.03033,-0.29825,0.25588,0.46848
-0.6613,0.74656,0.07294,-0.20778,0.56291,0.33111
-0.68793,0.71627,0.11703,-0.16951,0.77337,0.20354
-0.71219,0.68094,0.17056,-0.12975,0.84261,0.07496
-0.73479,0.64023,0.22397,-0.16836,0.69087,0.10236
-0.76972,0.58091,0.2647,-0.72987,0.65951,-0.07744
-0.80257,0.49591,0.33156,-0.98073,0.60452,-0.07761
-0.81173,0.41484,0.41107,-0.58085,0.38311,-0.00714
-0.80347,0.34674,0.48393,-0.11145,0.38173,-0.17614
-0.78396,0.28439,0.55182,0.11669,0.33217,-0.28269
-0.75192,0.22698,0.61893,0.53448,0.01048,-0.52709
-0.70993,0.17776,0.68145,0.65848,-0.15468,-0.50684
-0.66596,0.13731,0.73322,0.66943,-0.12761,-0.49982
-0.62502,0.10407,0.77362,0.60758,-0.14576,-0.38845
-0.58691,0.07987,0.80569,0.5584,-0.10779,-0.42698
-0.55307,0.06352,0.83069,0.61589,-0.06082,-0.47566
-0.5237,0.0553,0.85009,0.63355,-0.17755,-0.47283
-0.50116,0.05788,0.8634,0.5401,-0.364,-0.37883
-0.4878,0.07267,0.8699,0.34165,-0.39208,-0.29964
-0.47947,0.09843,0.872,0.12016,-0.42992,-0.17199
-0.47445,0.13445,0.86994,-0.04538,-0.47385,-0.04878
-0.47634,0.17842,0.86095,0.38968,-0.25089,0.69156
-0.47654,0.20239,0.85552,-0.26308,0.01362,2.04152
-0.48066,0.22954,0.84631,-1.3796,0.44867,-0.32588
-0.49138,0.26453,0.82978,0.61977,0.65973,-0.36932
-0.50779,0.29957,0.80769,0.78434,-0.03575,-0.52432
-0.55049,0.32159,0.77039,0.18765,-0.41913,-0.33306
-0.6079,0.33846,0.71824,0.33453,0.12289,-0.01113
-0.6631,0.3579,0.6574,0.40321,0.1925,-0.01876
-0.7098,0.38318,0.59104,0.28492,0.24881,-0.06933
-0.74716,0.41123,0.52213,0.06782,0.26054,-0.15952
-0.77519,0.43947,0.45378,0.08267,0.20396,-0.07147
-0.7968,0.46479,0.38607,-0.0216,0.03794,-0.117
-0.81067,0.48921,0.32166,-0.0823,-0.04211,-0.05876
-0.8152,0.51901,0.25701,-0.09661,-0.06473,-0.05711
-0.80855,0.55463,0.19652,-0.12198,0.02295,-0.08636
-0.79224,0.59354,0.14156,-0.17698,0.12481,-0.17394
-0.76717,0.63348,0.10071,-0.22902,0.17379,-0.21414
-0.74028,0.66778,0.07767,-0.31532,0.3243,-0.18114
-0.72144,0.68883,0.07078,-0.28979,0.04467,-0.00888
-0.70716,0.7034,0.07163,-0.1229,-0.17221,0.11663
-0.69694,0.71392,0.06767,-0.05,-0.25001,0.07842
-0.69326,0.71862,0.0544,0.07863,-0.30506,0.21203
-0.69374,0.71911,0.03992,-0.02111,-0.33662,0.19993
-0.69648,0.71691,0.03067,0.02289,-0.32622,0.22738
-0.69924,0.71442,0.02551,0.00876,-0.41618,0.28519
-0.70216,0.71157,0.02467,0.0316,-0.44624,0.31998
-0.70631,0.70743,0.02557,0.08164,-0.4485,0.2345
-0.71066,0.70305,0.02602,0.15934,-0.36476,0.0857
-0.71323,0.70049,0.02459,0.22107,-0.24631,-0.00229
-0.71109,0.70274,0.02212,0.15214,-0.08246,-0.11617
-0.705,0.70898,0.01754,0.00679,0.09328,-0.03916
-0.6947,0.71918,0.0122,-0.06319,0.17473,0.07324
-0.67971,0.73347,0.00081,-0.15226,0.53884,-0.05583
-0.66014,0.75101,-0.01369,-0.20415,0.79733,0.00294
-0.63769,0.76985,-0.02573,-0.61234,0.84918,-0.02211
-0.61372,0.78878,-0.03398,-0.88689,0.55766,0.20784
-0.58959,0.80657,-0.04256,-0.8341,0.28059,0.35306
-0.56493,0.82361,-0.05,-0.27758,0.18316,0.43431
-0.54106,0.83921,-0.05444,-0.21429,0.09686,0.46892
-0.52056,0.85197,-0.05609,-0.19726,0.0351,0.48002
-0.50932,0.85928,-0.04701,-0.48791,-0.19562,0.56015
-0.51188,0.85881,-0.01994,-0.48534,-0.19515,0.53308
-0.52932,0.84798,0.02682,-0.65233,-0.47411,0.49422
-0.55762,0.82595,0.08274,-0.55302,-0.55811,0.31667
-0.58637,0.80068,0.12274,-0.44382,-0.50173,0.22465
-0.61151,0.7793,0.13684,-0.21872,0.04849,0.21281
-0.63286,0.75993,0.14822,-0.00693,0.5183,0.04138
-0.64772,0.73897,0.18536,0.25265,0.65368,-0.03616
-0.65775,0.71534,0.23586,0.26355,0.41413,0.04608
-0.66611,0.69004,0.28306,0.04962,0.17816,0.08779
-0.68574,0.65328,0.32087,-0.166,0.15884,0.09945
-0.71917,0.59714,0.35524,-0.44627,0.07454,-0.1492
-0.74292,0.5389,0.39702,-0.45178,0.00173,-0.25342
-0.74986,0.48782,0.44689,-0.2161,0.10614,-0.22166
-0.74615,0.44136,0.49843,0.03956,0.1085,-0.25077
-0.73425,0.39836,0.54969,0.26056,0.06531,-0.3272
-0.716,0.3602,0.59797,0.40795,-0.09551,-0.3487
-0.69485,0.32613,0.64093,0.52329,-0.17992,-0.39198
-0.67027,0.29375,0.68148,0.50379,-0.18707,-0.43971
-0.64405,0.26446,0.71779,0.48201,-0.21815,-0.46663
-0.61665,0.23767,0.75048,0.45102,-0.20836,-0.50682
-0.58771,0.21281,0.78056,0.4244,-0.16178,-0.51739
-0.56019,0.18886,0.80653,0.35867,-0.14334,-0.45283
-0.53645,0.16679,0.82726,0.36702,-0.18153,-0.40221
-0.52113,0.14637,0.84081,0.37469,-0.18719,-0.37221
-0.51612,0.12763,0.84693,0.37594,-0.20666,-0.17552
-0.5191,0.11256,0.84725,0.18086,-0.26769,-0.02921
-0.52444,0.10462,0.84497,0.08503,-0.31955,0.02608
-0.52946,0.10639,0.84161,-0.17534,-0.54099,0.23417
-0.53468,0.10999,0.83784,-0.23877,-0.46393,0.39092
-0.53367,0.12398,0.83653,-0.18337,-0.35139,0.28966
-0.53588,0.15172,0.83053,-0.19577,0.20462,0.48002
-0.54062,0.18516,0.82061,-0.38714,0.41515,0.54592
-0.55091,0.22348,0.80406,0.00534,0.19699,0.29659
-0.57495,0.26187,0.77512,0.00821,-0.06328,0.02641
-0.60377,0.30094,0.73814,0.12663,-0.04976,-0.19699
-0.63157,0.33857,0.69746,0.22039,0.07737,-0.27515
-0.65889,0.373,0.65323,0.31285,0.10839,-0.21428
-0.68812,0.40387,0.60279,0.36135,0.10669,-0.06991
-0.71853,0.43314,0.54412,0.33987,0.09982,-0.0912
-0.74716,0.46446,0.47538,0.35854,0.1082,-0.03506
-0.76945,0.49765,0.40032,0.20169,0.17149,-0.13146
-0.78296,0.52912,0.32708,0.05715,0.21138,-0.10909
-0.78792,0.55831,0.25969,-0.13883,0.24697,-0.06012
-0.78432,0.586,0.20354,-0.21974,0.16446,-0.07417
-0.77506,0.61133,0.1598,-0.18051,0.03278,-0.01899
-0.76135,0.63683,0.12151,-0.14747,-0.01235,0.02873
-0.74385,0.66192,0.09234,-0.09782,0.03512,-0.17656
-0.72515,0.68418,0.07764,-0.10673,0.08732,-0.17248
-0.70776,0.70305,0.06906,-0.1073,0.01087,-0.12869
-0.69118,0.71983,0.06402,-0.18994,-0.07771,-0.12264
-0.67646,0.73398,0.06037,-0.25953,-0.13262,-0.00585
-0.6655,0.74414,0.0578,-0.28549,-0.20241,0.03135
-0.65965,0.74967,0.05329,-0.21239,-0.31794,0.15908
-0.6598,0.74999,0.04633,-0.10126,-0.33875,0.17301
-0.66598,0.74513,0.03512,-0.02184,-0.34861,0.04952
-0.6677,0.7438,0.03026,0.11106,-0.24966,0.14264
-0.66905,0.74258,0.03041,0.20676,-0.21635,0.25633
-0.67071,0.74087,0.03496,0.10797,-0.32103,0.30653
-0.6709,0.74036,0.04171,-0.03967,-0.45414,0.19362
-0.67217,0.73904,0.04453,-0.05923,-0.44676,0.08919
-0.67342,0.73778,0.04652,0.04148,-0.28351,0.10523
-0.67366,0.73726,0.05105,0.00517,-0.0855,-0.1117
-0.66886,0.74128,0.05562,-0.0129,0.10863,0.06257
-0.65626,0.75266,0.0529,-0.07874,0.21229,0.06257
-0.63839,0.76847,0.04349,-0.11358,0.38293,-0.0942
-0.61499,0.7881,0.02574,-0.53812,0.91055,-0.09529
-0.58839,0.80852,0.00798,-0.85723,0.98505,-0.18135
-0.56173,0.82726,-0.00902,-0.95623,0.84318,0.01063
-0.53684,0.84334,-0.02367,-0.6299,0.36786,0.47001
-0.51219,0.85827,-0.03184,-0.46906,0.29928,0.5923
-0.4871,0.87265,-0.0347,-0.23704,0.08622,0.41423
-0.46337,0.88546,-0.03501,-0.20322,-0.28013,0.55978
-0.44714,0.8939,-0.03134,-0.37846,-0.52977,0.50384
-0.44463,0.89555,-0.01658,-0.54221,-0.65924,0.49278
-0.45875,0.8885,0.00955,-0.57853,-0.74446,0.40735
-0.48744,0.87219,0.04088,-0.4583,-0.75743,0.2928
-0.52248,0.85022,0.06411,-0.30895,-0.55936,0.09388
-0.55763,0.8273,0.06785,-0.17842,-0.11601,0.02622
-0.59176,0.80405,0.05742,-0.11617,0.39691,0.03367
-0.62027,0.78226,0.05755,0.03517,0.64767,0.13535
-0.63842,0.76535,0.08149,0.20824,0.67142,0.13595
-0.6571,0.74551,0.11137,0.43602,0.38637,0.11948
-0.67679,0.72359,0.13544,0.24875,0.14801,0.02426
-0.69473,0.70191,0.15698,0.07473,0.14277,-0.10025
-0.71914,0.67127,0.17945,5e-05,0.19642,-0.0287
-0.75067,0.62845,0.20376,-0.44304,0.18123,-0.03222
-0.77632,0.58349,0.23841,-0.29782,0.14979,-0.08178
-0.79294,0.54138,0.2795,0.01032,0.18544,-0.08254
-0.8029,0.5032,0.31954,0.23058,0.13954,-0.14484
-0.80613,0.46966,0.35992,0.42475,0.05095,-0.19935
-0.80349,0.44095,0.39992,0.61362,-0.10607,-0.24903
-0.79711,0.41732,0.43638,0.73093,-0.24597,-0.29931
-0.78782,0.39887,0.46926,0.73752,-0.35907,-0.32657
-0.77628,0.38598,0.49837,0.64516,-0.38171,-0.3427
-0.76393,0.37518,0.52499,0.54866,-0.27197,-0.35497
-0.75146,0.36508,0.54953,0.43811,-0.2261,-0.31137
-0.74046,0.35511,0.5706,0.38444,-0.20873,-0.28735
-0.73245,0.34493,0.58695,0.26771,-0.20099,-0.16317
-0.72757,0.33571,0.59825,0.20718,-0.20418,-0.1015
-0.72479,0.32852,0.60557,0.13524,-0.19662,-0.05912
-0.72181,0.32359,0.61176,0.10178,-0.18844,-0.04431
-0.71806,0.32071,0.61765,-0.00097,-0.21175,0.10445
-0.71499,0.3202,0.62146,-0.05719,-0.24064,0.152
-0.71226,0.32551,0.62184,-0.11507,-0.29308,0.19899
-0.70816,0.33816,0.61977,-0.26858,-0.26561,0.37112
-0.70125,0.35651,0.61735,-0.318,-0.24436,0.47942
-0.69234,0.37273,0.61782,-0.4114,-0.22272,0.70243
-0.681,0.38422,0.62335,-0.49276,0.66475,0.50944
-0.66988,0.40963,0.61921,-0.12535,0.49398,0.08841
-0.66538,0.44339,0.60053,0.50007,0.11544,-0.09948
-0.66814,0.46998,0.57678,0.51911,-0.47715,0.04185
-0.68527,0.49198,0.53696,0.17439,-0.39937,-0.37566
-0.70491,0.51614,0.48648,0.212,-0.01303,-0.1471
-0.72134,0.54064,0.43283,0.21306,0.08887,-0.14651
-0.73541,0.56607,0.37242,0.17986,0.28195,-0.19308
-0.74724,0.58979,0.30617,0.08547,0.32561,-0.20516
-0.75365,0.61221,0.23914,0.0029,0.30658,-0.12632
-0.75456,0.63208,0.17632,0.01516,0.25887,-0.08321
-0.75263,0.64783,0.11764,0.04356,0.13007,-0.01963
-0.74838,0.66036,0.06187,0.03946,0.09086,0.00615
-0.74143,0.67085,0.01462,0.05621,0.03829,-0.07335
-0.73228,0.6806,-0.02312,0.12981,0.02257,-0.03906
-0.72004,0.6914,-0.05901,0.14094,0.05549,-0.06614
-0.70516,0.70277,-0.09406,0.08777,0.11391,-0.13778
-0.68884,0.71403,-0.12503,-0.01366,0.08452,-0.18093
-0.67121,0.72559,-0.15159,-0.11024,0.02995,-0.24024
-0.65633,0.7344,-0.17284,-0.1611,0.01237,-0.23664
-0.64574,0.74013,-0.18766,-0.18239,-0.07184,-0.18186
-0.63745,0.7454,-0.19496,-0.19868,-0.11988,-0.15216
-0.62897,0.75098,-0.201,-0.10316,-0.03246,-0.02142
-0.62162,0.75563,-0.20641,-0.07728,-0.04829,-0.01947
-0.61526,0.7607,-0.2068,-0.02622,-0.13428,-0.06795
-0.60825,0.76637,-0.20662,-0.07566,-0.1963,-0.14896
-0.60114,0.77196,-0.20663,-0.18084,-0.24235,-0.17942
-0.59529,0.77725,-0.2037,-0.29326,-0.38528,0.03892
-0.58859,0.7826,-0.20267,-0.29936,-0.42329,0.06234
-0.58075,0.78766,-0.20569,-0.25641,-0.3968,0.08722
-0.57338,0.79226,-0.20866,-0.15727,-0.281,0.15249
-0.56591,0.79738,-0.20953,-0.11875,-0.17951,0.17984
-0.5569,0.80319,-0.21149,-0.09451,-0.08043,0.13387
-0.54609,0.81025,-0.21275,-0.10753,-0.0312,0.1266
-0.53459,0.81791,-0.21266,-0.18008,-0.03037,0.14794
-0.52434,0.82464,-0.21217,-0.31926,-0.13099,0.11619
-0.51555,0.83079,-0.2097,-0.30731,-0.1748,0.12312
-0.5092,0.8361,-0.20406,-0.27192,-0.14576,0.02918
-0.50562,0.84041,-0.19503,-0.25099,-0.09511,0.06003
-0.50349,0.84465,-0.18178,-0.24189,-0.03683,0.20951
-0.50216,0.84926,-0.16304,-0.20802,0.01375,0.34131
-0.50419,0.85295,-0.13512,-0.26506,0.02509,0.11582
-0.51186,0.8526,-0.10513,-0.45449,-0.06018,0.12494
-0.52679,0.84735,-0.06679,-0.38706,-0.26166,-0.02954
-0.5522,0.8335,-0.01821,-0.36691,-0.28984,-0.07666
-0.58414,0.81112,0.02891,-0.32656,-0.07908,0.11921
-0.61781,0.78416,0.05812,-0.19587,0.35392,0.2848
-0.64612,0.75967,0.0735,-0.05419,0.71677,0.03053
-0.66896,0.73738,0.0934,0.10147,0.67569,0.14165
-0.6892,0.71602,0.11092,0.12692,0.67044,0.16139
-0.70706,0.69534,0.1286,0.12846,0.56099,0.13511
-0.7232,0.67472,0.14729,0.19836,0.55216,0.0543
-0.74093,0.65089,0.16534,0.21015,0.51944,-0.09864
-0.76262,0.61713,0.19374,0.0767,0.4523,-0.01735
-0.78617,0.57285,0.23183,0.02651,0.37756,0.06387
-0.80581,0.52496,0.27395,0.11374,0.248,0.03014
-0.81609,0.48115,0.32009,0.14194,0.19741,-0.19882
-0.81488,0.44372,0.37289,0.20285,0.18214,-0.33132
-0.80544,0.41044,0.42751,0.19473,0.07906,-0.39368
-0.79105,0.38113,0.47847,0.22773,-0.07441,-0.27812
-0.77562,0.35622,0.52104,0.24608,-0.18498,-0.2207
-0.76167,0.33244,0.55615,0.25219,-0.19137,-0.18743
-0.74836,0.30936,0.58669,0.1482,-0.25173,-0.14979
-0.73381,0.28948,0.61456,0.15899,-0.20232,-0.14868
-0.72124,0.26869,0.63842,0.25179,-0.10187,-0.10256
-0.70928,0.2468,0.66028,0.24271,-0.11425,-0.07491
-0.69576,0.22602,0.68176,0.166,-0.16737,0.0076
-0.67913,0.20886,0.70364,-0.00017,-0.20926,0.06537
-0.65875,0.19759,0.72592,-0.1153,-0.23871,0.11882
-0.63432,0.19451,0.74817,-0.07045,-0.27256,0.12045
-0.6053,0.19769,0.77103,-0.06322,-0.29112,0.3068
-0.57276,0.20321,0.79411,-0.17958,-0.14147,0.30748
-0.55143,0.21197,0.80681,-0.2152,0.15442,0.44431
-0.54479,0.22378,0.80814,0.28374,0.27661,0.04448
-0.54701,0.25008,0.79888,0.54824,0.06441,-0.03345
-0.55339,0.2733,0.78678,0.08232,0.21588,-0.05355
-0.57094,0.29582,0.76582,0.35771,0.19557,-0.17332
-0.60113,0.3166,0.73373,0.27783,0.11594,-0.24968
-0.63849,0.33796,0.69143,0.07747,0.32502,-0.41357
-0.67707,0.36193,0.64074,0.11605,0.30105,-0.36287
-0.71515,0.38713,0.58194,0.10237,0.43228,-0.40348
-0.75211,0.41266,0.51381,0.11123,0.36842,-0.43636
-0.78263,0.43989,0.4404,-0.00527,0.41626,-0.46469
-0.80179,0.46884,0.37053,-0.18836,0.48654,-0.35746
-0.81043,0.49793,0.30861,-0.24344,0.45315,-0.31891
-0.81073,0.52409,0.26079,-0.2065,0.29697,-0.28495
-0.80565,0.54782,0.22537,-0.12622,0.12446,-0.24868
-0.79679,0.5709,0.19795,-0.04571,0.03904,-0.2001
-0.78491,0.59412,0.17584,-0.03217,0.0786,-0.22883
-0.77332,0.61435,0.15659,0.02863,0.15872,-0.14058
-0.76393,0.62849,0.14621,-0.09218,0.19731,-0.33987
-0.75458,0.63951,0.14699,-0.12227,0.06988,-0.13983
-0.74592,0.64889,0.15005,-0.09458,-0.06602,-0.07339
-0.74364,0.65347,0.14124,-0.00217,-0.15289,-0.02582
-0.74762,0.65251,0.12355,-0.00979,-0.158,-0.16515
-0.75128,0.65013,0.11352,0.04139,-0.13715,-0.02492
-0.75514,0.64748,0.10248,0.0685,-0.12485,-0.01419
-0.75999,0.64264,0.09701,0.066,-0.07193,-0.04495
-0.76532,0.63654,0.0953,0.09427,-0.11847,0.07498
-0.76769,0.63322,0.0983,0.1254,-0.03608,0.0361
-0.7711,0.62807,0.10445,0.0857,-0.08266,-0.02001
-0.77599,0.62091,0.11084,0.13474,-0.17129,-0.07149
-0.7809,0.61347,0.11757,0.18807,-0.18432,-0.10146
-0.78549,0.606,0.12546,0.2146,-0.14836,0.01215
-0.78996,0.5988,0.13184,0.12217,-0.0972,-0.00977
-0.79307,0.59374,0.13595,0.0456,0.01003,-0.22833
-0.79253,0.5941,0.13751,0.12699,0.17964,-0.17232
-0.78753,0.6016,0.13357,-0.05378,0.39034,-0.03346
-0.78047,0.61241,0.12564,-0.26952,0.68545,-0.14353
-0.77087,0.62639,0.1156,-0.48365,0.7866,-0.07663
-0.75659,0.64568,0.10316,-0.66469,0.81547,-0.06595
-0.73735,0.66905,0.09308,-0.64357,0.71962,0.03132
-0.7164,0.69251,0.0847,-0.41904,0.58161,0.15858
-0.69446,0.71522,0.07851,-0.22795,0.42857,0.20033
-0.67109,0.73782,0.07234,-0.10596,0.18974,0.19968
-0.64858,0.758,0.06895,-0.11505,-0.08381,0.26303
-0.6321,0.77131,0.07422,-0.23611,-0.35846,0.24903
-0.62674,0.77399,0.09011,-0.41288,-0.41539,0.30569
-0.63479,0.76349,0.11879,-0.4904,-0.40808,0.32152
-0.65343,0.74094,0.15495,-0.40171,-0.40228,0.2134
-0.67722,0.71131,0.1881,-0.27003,-0.26905,0.0589
-0.70126,0.68228,0.20664,-0.18245,-0.13957,0.00972
-0.72546,0.65669,0.206,-0.0572,0.30163,0.19239
-0.74666,0.63039,0.21231,0.16917,0.65285,-0.01831
-0.76076,0.60038,0.2465,0.28063,0.64591,-0.0332
-0.77149,0.56962,0.28338,0.33069,0.62575,-0.02981
-0.78348,0.53435,0.31719,-0.01415,0.33212,-0.03316
-0.80123,0.48522,0.35009,-0.16711,0.37656,-0.07378
-0.82211,0.4164,0.38821,-0.33565,0.42783,-0.14629
-0.83262,0.34466,0.4335,-0.31589,0.35232,-0.23254
-0.82952,0.28009,0.48313,-0.19349,0.42581,-0.2941
-0.81568,0.22096,0.53461,0.02973,0.40747,-0.38717
-0.79223,0.16708,0.58687,0.1988,0.35101,-0.3775
-0.76065,0.11961,0.63802,0.34865,0.30272,-0.45934
-0.72362,0.07738,0.68582,0.44878,0.19494,-0.48199
-0.68604,0.03963,0.72646,0.49907,0.07432,-0.4646
-0.64771,0.00619,0.76184,0.46052,0.06551,-0.50527
-0.60772,-0.02277,0.7938,0.43232,0.09657,-0.48251
-0.56728,-0.04734,0.82214,0.37608,0.06301,-0.48902
-0.52829,-0.068,0.84631,0.37227,0.06098,-0.50113
-0.49572,-0.08531,0.86426,0.38421,0.07241,-0.51052
-0.4746,-0.1,0.87448,0.36603,0.08056,-0.45346
-0.46425,-0.11407,0.8783,0.3033,0.10507,-0.37711
-0.45971,-0.12789,0.87879,0.21757,0.0957,-0.32763
-0.45691,-0.14033,0.87835,0.11179,0.00376,-0.28303
-0.4562,-0.15154,0.87686,0.03861,-0.06964,-0.28472
-0.45858,-0.15999,0.87411,-0.03992,-0.1572,-0.17322
-0.46256,-0.16114,0.8718,-0.18193,-0.24154,-0.00255
-0.46687,-0.15569,0.87049,-0.29753,-0.31542,0.4387
-0.46269,-0.15495,0.87285,-0.95164,0.06541,0.91675
-0.43894,-0.14525,0.88668,-0.57959,0.27805,0.36489
-0.41959,-0.11838,0.89994,0.13094,0.10085,0.74215
-0.40608,-0.08295,0.91004,-0.1877,-0.0356,0.45201
-0.41045,-0.03995,0.91099,0.03081,0.03522,0.27283
-0.43002,0.00667,0.90277,-0.04505,0.12554,0.24246
-0.45919,0.056,0.88655,0.10279,0.32435,-0.12027
-0.49151,0.10401,0.86462,0.0596,0.28512,-0.27328
-0.52871,0.14772,0.83583,0.13334,0.17898,-0.29249
-0.57188,0.18715,0.79868,0.22042,0.14247,-0.31598
-0.61686,0.22321,0.75474,0.35323,0.15831,-0.23646
-0.66409,0.25938,0.70119,0.3939,0.11788,-0.24575
-0.71271,0.29611,0.63587,0.41384,0.09687,-0.25234
-0.75711,0.33309,0.56197,0.28158,0.16905,-0.29836
-0.78959,0.36799,0.49102,0.13853,0.25677,-0.32939
-0.81054,0.39964,0.4281,0.06204,0.28179,-0.28893
-0.8205,0.43238,0.37391,-0.29344,0.29171,-0.26928
-0.82078,0.46614,0.33016,-0.29316,0.25795,-0.22553
-0.81528,0.49784,0.29571,-0.21713,0.07142,-0.27723
-0.80488,0.52807,0.27071,-0.09509,0.16566,-0.2434
-0.79326,0.55453,0.25141,-0.07388,0.19766,-0.21859
-0.7813,0.57727,0.23728,-0.04457,0.19081,-0.22805
-0.76994,0.59716,0.22485,-0.02693,0.28785,-0.17897
-0.76029,0.61315,0.21444,-0.02028,0.20993,-0.15193
-0.75072,0.62728,0.20717,-0.01024,0.12149,-0.15694
-0.74524,0.63817,0.19318,0.16907,0.02633,-0.12627
-0.74326,0.64467,0.17872,0.15972,-0.02029,-0.14884
-0.74189,0.64926,0.16747,0.20047,-0.05726,-0.04375
-0.73876,0.65479,0.15955,0.21201,-0.08152,-0.01996
-0.73492,0.65921,0.15909,0.1209,-0.10738,0.0178
-0.73328,0.66039,0.16175,0.02541,-0.29391,-0.0463
-0.73233,0.66043,0.16582,0.11028,-0.46179,0.14678
-0.73418,0.65703,0.17109,0.21155,-0.39722,0.20575
-0.73958,0.6491,0.17795,0.17764,-0.34368,-0.0587
-0.74623,0.64006,0.18289,0.36179,-0.1941,-0.1018
-0.75135,0.63269,0.1875,0.33907,-0.11583,-0.08606
-0.7551,0.62683,0.19205,0.26959,-0.07057,-0.11248
-0.75685,0.62365,0.19546,0.02246,0.1241,-0.21051
-0.756,0.62492,0.19473,-0.00357,0.20684,-0.29952
-0.75039,0.63356,0.1884,-0.07009,0.60979,-0.06449
-0.74211,0.64663,0.17638,-0.34894,0.92562,0.01396
-0.73148,0.66224,0.1623,-0.53181,1.04798,-0.08511
-0.71606,0.68163,0.15037,-0.74686,0.95942,0.04972
-0.69693,0.70342,0.13951,-0.78168,0.84349,0.08153
-0.67454,0.72659,0.13052,-0.51992,0.56495,0.21201
-0.6511,0.74908,0.12215,-0.29553,0.2562,0.20286
-0.62781,0.77043,0.11077,-0.20723,0.10524,0.21648
-0.60645,0.78886,0.09947,-0.09923,-0.09029,0.2427
-0.59155,0.80023,0.09835,-0.29707,-0.33362,0.30359
-0.58889,0.80006,0.11435,-0.40932,-0.35899,0.3532
-0.60157,0.78545,0.14544,-0.61155,-0.36092,0.33681
-0.62581,0.75744,0.18608,-0.522,-0.47786,0.21206
-0.65351,0.72396,0.22085,-0.22425,-0.43586,-0.03106
-0.6816,0.69186,0.23816,-0.09564,-0.27604,-0.05958
-0.71304,0.65715,0.24432,-0.02272,0.38605,0.07642
-0.73699,0.62259,0.26303,0.10762,0.61528,0.04112
-0.7502,0.59069,0.29709,0.34761,0.57684,-0.0194
-0.76319,0.55531,0.33037,0.28417,0.30603,-0.11428
-0.7756,0.51833,0.3602,0.10269,0.22356,-0.24979
-0.79313,0.47042,0.38681,-0.12858,0.2624,-0.16109
-0.81484,0.40645,0.41328,-0.48576,0.2586,-0.21468
-0.82652,0.33697,0.45087,-0.38572,0.26732,-0.2475
-0.82533,0.27204,0.49476,-0.15756,0.39843,-0.27163
-0.81236,0.21282,0.5429,-0.01363,0.45106,-0.43079
-0.78754,0.15906,0.59535,0.11375,0.40042,-0.42935
-0.75585,0.11367,0.64477,0.31479,0.32691,-0.40057
-0.72218,0.07434,0.68767,0.52648,0.21587,-0.42153
-0.68907,0.0391,0.72361,0.57019,0.1399,-0.4349
-0.65528,0.00792,0.75531,0.51345,0.1408,-0.48536
-0.621,-0.01838,0.78357,0.44811,0.10742,-0.53001
-0.58579,-0.03972,0.80947,0.41954,0.09513,-0.50879
-0.553,-0.05667,0.83123,0.36056,0.09796,-0.47599
-0.5261,-0.0715,0.84739,0.33225,0.15306,-0.49712
-0.50764,-0.08547,0.85729,0.32411,0.13703,-0.5055
-0.49864,-0.09867,0.86115,0.29287,0.08718,-0.42985
-0.49634,-0.11217,0.86082,0.25162,0.08022,-0.30069
-0.49666,-0.1249,0.85888,0.14133,0.02413,-0.2704
-0.49865,-0.13315,0.85649,0.0246,-0.06793,-0.1965
-0.50257,-0.13232,0.85433,-0.13389,-0.19885,-0.08148
-0.50744,-0.12504,0.85254,-0.25275,-0.28356,0.14009
-0.50419,-0.12114,0.85503,-0.50394,-0.0608,0.67386
-0.48986,-0.11117,0.86466,-1.04861,0.37405,0.68608
-0.47907,-0.08478,0.87365,-0.0384,0.24573,0.67767
-0.47244,-0.05105,0.87985,-0.13902,0.15877,0.56086
-0.48154,-0.00954,0.87635,-0.11942,0.02858,0.30685
-0.50513,0.03542,0.86229,-0.07556,0.10756,-0.07898
-0.53416,0.08245,0.84133,0.11069,0.26565,-0.16484
-0.56269,0.12857,0.81658,0.04165,0.25467,-0.295
-0.59347,0.17118,0.78641,0.19888,0.16024,-0.29466
-0.62861,0.20958,0.74892,0.285,0.10855,-0.22683
-0.66892,0.24615,0.70136,0.38238,0.07836,-0.29731
-0.71194,0.28168,0.64324,0.39887,0.09914,-0.29927
-0.754,0.31822,0.57462,0.34551,0.17296,-0.25241
-0.79081,0.35507,0.49849,0.24484,0.28029,-0.36226
-0.81704,0.38802,0.42644,0.03934,0.3889,-0.30192
-0.83375,0.41741,0.36138,-0.17209,0.41981,-0.22803
-0.84178,0.44448,0.3063,-0.19451,0.30366,-0.15938
-0.84406,0.46866,0.26055,-0.14345,0.14858,-0.12635
-0.84246,0.49134,0.22093,-0.05327,0.06669,-0.15942
-0.8363,0.51418,0.19024,0.01196,0.11563,-0.28158
-0.82528,0.53786,0.17203,0.0131,0.16509,-0.23401
-0.81317,0.55946,0.16038,0.02535,0.20793,-0.13499
-0.80113,0.57864,0.15277,-0.047,0.11803,-0.1768
-0.78814,0.59667,0.15099,-0.06925,0.10237,-0.04711
-0.77555,0.61338,0.14919,-0.10081,0.08711,-0.04979
-0.7632,0.62887,0.14838,-0.09192,0.13138,-0.10795
-0.75436,0.64053,0.14363,0.02553,0.00595,-0.08385
-0.74886,0.64854,0.13628,0.18723,-0.09042,-0.03284
-0.74389,0.65585,0.12831,0.28204,-0.18273,0.06033
-0.73802,0.6635,0.1227,0.1929,-0.21757,-0.04708
-0.73303,0.66898,0.1229,0.06204,-0.34472,-0.05263
-0.73098,0.67078,0.1253,0.05837,-0.47138,0.19042
-0.73167,0.66947,0.12821,0.07982,-0.45543,0.32645
-0.73646,0.66341,0.13224,0.01678,-0.38604,0.03339
-0.74364,0.65436,0.13703,0.1776,-0.27243,-0.00942
-0.75094,0.64518,0.14069,0.24797,-0.12637,-0.03478
-0.75643,0.63765,0.14556,0.18844,-0.07311,-0.12092
-0.75934,0.63275,0.15164,0.09592,-0.01936,-0.08375
-0.75988,0.63136,0.15469,0.0702,0.01518,-0.21852
-0.75588,0.63682,0.15189,0.12366,0.44647,-0.22838
-0.74675,0.64901,0.14533,-0.14633,0.88767,-0.14275
-0.73357,0.66592,0.13565,-0.42348,1.2175,-0.18429
-0.71722,0.68552,0.12502,-0.56899,1.22166,-0.23572
-0.69674,0.7088,0.11014,-0.80691,0.89159,-0.01979
-0.6714,0.73523,0.09294,-0.76807,0.64698,0.0764
-0.64521,0.76011,0.07693,-0.60269,0.52802,0.23791
-0.62035,0.78178,0.06296,-0.37242,0.3622,0.26389
-0.59578,0.80163,0.0491,-0.10346,0.0537,0.21551
-0.57217,0.81934,0.03575,0.02705,-0.30478,0.35915
-0.55439,0.83168,0.03046,-0.17989,-0.48508,0.37858
-0.54827,0.83537,0.03928,-0.40416,-0.45162,0.30462
-0.55671,0.82847,0.06068,-0.39571,-0.44473,0.28322
-0.57752,0.81173,0.0868,-0.33705,-0.51265,0.16436
-0.60467,0.78938,0.10593,-0.13841,-0.40463,-0.02559
-0.6342,0.76466,0.11428,0.01807,-0.15557,-0.13503
-0.66336,0.73965,0.11331,0.09609,0.01245,-0.11497
-0.6898,0.71467,0.11573,0.36424,0.53662,0.20193
-0.7099,0.69132,0.13451,0.50423,0.52275,0.1848
-0.72621,0.66897,0.15834,0.55192,0.31255,-0.02612
-0.74273,0.64534,0.17847,0.35374,0.1761,-0.15899
-0.75704,0.62311,0.19646,0.25002,0.16503,-0.22292
-0.76803,0.60419,0.21226,0.04315,0.17769,0.00623
-0.78113,0.58423,0.22019,0.06572,0.19554,0.02578
-0.79896,0.55848,0.22299,0.15956,0.18901,-0.06368
-0.81515,0.53184,0.22943,0.45398,0.09696,-0.15331
-0.82554,0.50915,0.24335,0.65925,0.07488,-0.12316
-0.83305,0.4904,0.25595,0.73208,0.05383,-0.136
-0.83833,0.47558,0.26644,0.80317,-0.09373,-0.15414
-0.84136,0.46498,0.27545,0.79505,-0.20966,-0.16227
-0.84268,0.45904,0.28134,0.77102,-0.25754,-0.17293
-0.84215,0.45901,0.28297,0.67975,-0.33244,-0.19423
-0.83986,0.46643,0.27758,0.66588,-0.23843,-0.21286
-0.83601,0.48018,0.26549,0.65722,-0.19242,-0.21959
-0.82919,0.49986,0.25011,0.55484,-0.04073,-0.22713
-0.81677,0.52614,0.23672,0.34289,0.09294,-0.14752
-0.79704,0.56085,0.22395,-0.00669,0.467,0.03014
-0.77769,0.5944,0.20459,-0.32462,0.75745,0.21138
-0.76786,0.61178,0.18998,-0.51599,0.47276,0.47275
-0.76867,0.6126,0.18393,-0.62152,-0.00732,0.55917
-0.77354,0.61028,0.1708,-0.51329,-0.43483,0.42429
-0.77365,0.61829,0.13842,-0.32224,-0.33105,0.37879
-0.77398,0.62747,0.08494,-0.0637,0.04186,0.14546
-0.77402,0.63265,0.0249,0.06534,0.36023,-0.06241
-0.77334,0.63382,-0.01382,0.18086,0.8096,-0.09066
-0.77416,0.63297,0.00129,0.34486,0.87474,0.37008
-0.77325,0.63394,0.01314,0.63829,0.61503,0.52479
-0.77199,0.6352,-0.02299,0.78441,0.19811,-0.13724
-0.76915,0.63508,-0.0712,0.63389,-0.02753,-0.59684
-0.76108,0.64013,-0.10473,0.63184,0.09992,-0.54225
-0.75211,0.64882,-0.11549,0.57838,0.40293,-0.29304
-0.74491,0.65417,-0.13096,0.36568,0.58658,-0.23215
-0.73684,0.65395,-0.17145,0.19276,0.39894,-0.38106
-0.72717,0.65063,-0.21885,0.09547,0.12354,-0.41724
-0.72594,0.64335,-0.24309,0.05017,0.04857,-0.33446
-0.73151,0.63986,-0.23549,0.05103,-0.15041,0.22047
-0.72479,0.64348,-0.24616,0.25641,0.07327,0.19557
-0.71307,0.64292,-0.27958,0.28032,0.23449,-0.30921
-0.70128,0.64416,-0.30538,0.06212,0.14238,-0.30595
-0.69321,0.64601,-0.31956,-0.18687,-0.05653,0.05576
-0.68565,0.64676,-0.33403,-0.22527,-0.10965,0.09669
-0.67798,0.64765,-0.34767,-0.24506,-0.16096,0.1086
-0.67081,0.64964,-0.35774,-0.20512,-0.18423,0.12858
-0.66362,0.65298,-0.36497,-0.18791,-0.16275,0.18437
-0.65521,0.6578,-0.37145,-0.15562,-0.13278,0.2286
-0.64463,0.66328,-0.38014,0.02592,-0.04136,0.25379
-0.63247,0.66985,-0.38894,-0.00073,-0.04491,0.24037
-0.62022,0.67643,-0.39719,-0.0316,-0.04812,0.24225
-0.60838,0.68166,-0.40645,-0.14915,-0.06203,0.27493
-0.59669,0.68564,-0.41695,-0.17905,-0.04028,0.29983
-0.58594,0.68844,-0.42744,-0.20904,-0.0056,0.31785
-0.57804,0.69031,-0.43512,-0.20667,0.03727,0.23086
-0.57361,0.6911,-0.43971,-0.20196,0.05128,0.20561
-0.5767,0.69139,-0.43519,-0.14768,0.1613,0.21998
-0.57796,0.69265,-0.4315,-0.12051,0.21396,0.25689
-0.57864,0.69502,-0.42674,-0.23318,0.34405,0.3293
-0.5824,0.69837,-0.41603,-0.27951,0.27444,0.45811
-0.59102,0.70264,-0.39621,-0.34018,0.13567,0.50438
-0.60813,0.70753,-0.35995,-0.32035,0.05743,0.45155
-0.635,0.71011,-0.30416,-0.16887,-0.09149,0.15489
-0.66873,0.7059,-0.23344,-0.10226,0.01076,0.13075
-0.69971,0.69343,-0.17186,-0.09303,0.4662,0.34095
-0.71932,0.68078,-0.13823,0.12651,0.87386,0.37991
-0.73085,0.67147,-0.12236,0.23393,1.04958,0.44644
-0.74398,0.66085,-0.0988,0.19396,1.10989,0.26159
-0.76269,0.64419,-0.05757,0.35412,0.48707,0.2851
-0.7876,0.61569,-0.02423,-0.13328,0.42381,0.23342
-0.82516,0.56489,0.00076,-0.5308,0.21848,-0.14288
-0.85906,0.50931,0.05092,-0.31396,0.20871,0.01942
-0.87887,0.46189,0.11922,0.06189,0.37064,0.13966
-0.88842,0.42089,0.18313,0.37489,0.34777,0.03617
-0.89118,0.38357,0.24216,0.5379,0.21932,-0.10628
-0.8852,0.35372,0.30213,0.58196,0.13287,-0.23517
-0.86989,0.33194,0.3648,0.54599,-0.01647,-0.18784
-0.84963,0.31696,0.42147,0.52708,-0.03095,-0.14827
-0.83274,0.3013,0.46448,0.31568,-0.15927,-0.07599
-0.81881,0.28683,0.49724,0.22474,-0.22489,-0.11374
-0.80553,0.27501,0.52485,0.1934,-0.34709,-0.0427
-0.79239,0.26695,0.54847,0.29253,-0.42169,0.04989
-0.77965,0.26373,0.56794,0.30965,-0.43663,0.11329
-0.76774,0.26542,0.58318,0.25704,-0.41886,0.13847
-0.75812,0.27175,0.59277,0.23596,-0.40966,0.15125
-0.75136,0.28499,0.59516,0.24219,-0.43226,0.16685
-0.74636,0.30626,0.59087,0.42633,-0.26565,0.34565
-0.74088,0.32533,0.58756,0.47939,0.18542,0.47792
-0.74422,0.34562,0.57154,0.1774,0.34045,0.28042
-0.75849,0.37165,0.5353,-0.06831,0.32759,-0.28137
-0.78096,0.39435,0.48432,-0.09085,0.38941,0.02491
-0.8008,0.41829,0.42864,0.23068,0.22543,-0.16373
-0.82056,0.44328,0.36078,0.39173,-0.06875,-0.40521
-0.8365,0.46804,0.28492,0.3031,-0.12877,-0.29284
-0.84374,0.49522,0.20697,-0.03195,0.13654,-0.14167
-0.83813,0.52789,0.13732,-0.57069,0.67704,-0.01259
-0.82768,0.55401,0.08943,-0.44844,0.76534,-0.01467
-0.81854,0.571,0.06265,-0.25911,0.42033,-0.00037
-0.80713,0.58887,0.04182,-0.0908,0.13916,0.03444
-0.79127,0.61117,0.01871,0.20812,-0.07361,0.00698
-0.77002,0.63795,-0.00836,0.15805,-0.04527,-0.05896
-0.74467,0.66657,-0.03357,-0.06499,0.20542,-0.19858
-0.72176,0.69046,-0.04798,-0.34917,0.28427,-0.14851
-0.70621,0.70612,-0.05148,-0.47487,0.09065,-0.04592
-0.69619,0.71637,-0.04605,-0.36843,-0.13528,0.07655
-0.68949,0.72312,-0.0411,-0.09739,-0.21327,0.13657
-0.68754,0.72417,-0.05348,-0.04525,-0.16499,0.14417
-0.68964,0.7208,-0.06942,0.1036,-0.0834,0.19358
-0.69125,0.71837,-0.07809,0.21624,-0.02244,0.17672
-0.69302,0.71677,-0.07709,0.21487,-0.18139,0.05412
-0.69195,0.71847,-0.07061,0.18412,-0.32944,0.11865
-0.69068,0.72062,-0.06034,-0.01142,-0.44705,0.30348
-0.69193,0.72038,-0.04767,-0.10658,-0.49291,0.35567
-0.69684,0.71636,-0.03494,-0.06809,-0.43999,0.2387
-0.70343,0.7104,-0.02233,0.08305,-0.36147,0.1502
-0.71028,0.70381,-0.0116,0.19395,-0.30045,-0.0318
-0.71488,0.69923,-0.00401,0.24875,-0.20544,-0.14299
-0.71616,0.69792,0.00322,0.14566,-0.09425,-0.04106
-0.71446,0.69959,0.00964,-0.06062,0.008,0.0322
-0.70826,0.70591,0.00584,-0.15928,0.28576,-0.04719
-0.69658,0.71746,-0.00314,-0.32295,0.7033,0.01536
-0.68084,0.73228,-0.01426,-0.51165,0.86013,0.04959
-0.6624,0.74884,-0.02135,-0.9814,0.78362,0.07831
-0.64302,0.76542,-0.0251,-0.75322,0.5363,0.33775
-0.62248,0.78219,-0.02605,-0.77376,0.51954,0.3387
-0.60021,0.79943,-0.02518,-0.46342,0.14873,0.38467
-0.57621,0.81682,-0.0275,-0.24587,-0.16854,0.37504
-0.55205,0.83312,-0.03376,-0.2417,-0.23397,0.4752
-0.5345,0.84455,-0.03181,-0.31492,-0.30793,0.52556
-0.53019,0.84776,-0.01344,-0.59407,-0.45967,0.55359
-0.53985,0.84156,0.01767,-0.64371,-0.51441,0.53891
-0.56027,0.82626,0.05802,-0.57955,-0.53474,0.35195
-0.58381,0.80621,0.09579,-0.47207,-0.37953,0.26593
-0.60335,0.78809,0.12191,-0.36884,-0.26578,0.15661
-0.62341,0.76976,0.13713,-0.146,0.16917,0.4111
-0.64544,0.74656,0.16131,-0.01332,0.4471,0.18923
-0.66497,0.71903,0.20194,0.06368,0.4135,0.12783
-0.68435,0.68848,0.24007,-0.05435,0.27176,0.02734
-0.70847,0.64927,0.27658,-0.24318,0.176,-0.05588
-0.74135,0.59226,0.31559,-0.53431,0.08761,-0.07034
-0.7706,0.52462,0.36182,-0.52936,0.09673,-0.07158
-0.7839,0.46203,0.41472,-0.2771,0.33609,-0.14353
-0.78473,0.40304,0.47089,0.03355,0.38401,-0.26952
-0.77469,0.34713,0.52851,0.25844,0.27726,-0.46922
-0.7524,0.29586,0.58849,0.53185,0.12172,-0.5421
-0.72514,0.24761,0.64251,0.7883,-0.11418,-0.57426
-0.69468,0.20358,0.68989,0.87334,-0.34026,-0.59351
-0.66485,0.16609,0.72826,0.67815,-0.28288,-0.58583
-0.63809,0.13521,0.75797,0.47658,-0.08291,-0.52826
-0.61339,0.10787,0.78236,0.44862,0.01032,-0.44827
-0.59035,0.08332,0.80281,0.47017,-0.041,-0.43718
-0.57154,0.06235,0.81818,0.42408,-0.15751,-0.38016
-0.56308,0.04468,0.82517,0.30684,-0.25424,-0.33097
-0.56383,0.03074,0.8253,0.13661,-0.27984,-0.20074
-0.5675,0.02174,0.82306,0.01962,-0.34078,-0.03493
-0.57015,0.02035,0.82127,-0.17723,-0.48089,0.30344
-0.5721,0.02385,0.81982,-0.54495,-0.51788,0.51005
-0.5659,0.03579,0.82367,-0.76703,-0.05178,0.66875
-0.55185,0.06016,0.83175,-0.36494,0.30523,0.62345
-0.5338,0.09496,0.84024,0.10021,0.14326,0.82929
-0.51781,0.13649,0.84452,0.16856,-0.11134,0.34515
-0.51944,0.18235,0.8348,0.20346,-0.14058,0.03245
-0.53214,0.22883,0.81512,0.27659,-0.02635,-0.18806
-0.55214,0.27636,0.78659,0.36679,0.0986,-0.26878
-0.57489,0.32146,0.75241,0.22327,0.0545,-0.28126
-0.60203,0.36291,0.71121,0.20741,0.00917,-0.25455
-0.63227,0.40048,0.66319,0.26404,0.03067,-0.143
-0.66521,0.43626,0.60593,0.32759,0.00301,-0.13672
-0.6989,0.47326,0.53622,0.33077,-0.02157,-0.26078
-0.7258,0.51007,0.46154,0.22642,0.00602,-0.27741
-0.74365,0.54287,0.39019,0.12031,0.09259,-0.2835
-0.75344,0.57155,0.32499,-0.15041,0.22085,-0.27925
-0.75419,0.59896,0.26911,-0.2286,0.23202,-0.26588
-0.74555,0.62706,0.22566,-0.36193,0.22759,-0.14887
-0.73062,0.65528,0.19177,-0.39725,0.13958,-0.19128
-0.71137,0.68146,0.17188,-0.41207,0.10694,-0.24093
-0.6906,0.70476,0.16236,-0.37629,0.14693,-0.12418
-0.67364,0.7233,0.15172,0.01011,0.16038,-0.08027
-0.66305,0.73621,0.1354,0.02684,0.15969,-0.03968
-0.65611,0.74521,0.11902,0.01237,0.13622,-0.10001
-0.65216,0.75108,0.10271,0.21969,-0.06925,0.1703
-0.65009,0.75515,0.08426,0.20872,-0.13293,0.12742
-0.64764,0.75871,0.07001,0.21541,-0.1753,0.156
-0.6469,0.75999,0.0625,0.18775,-0.20393,0.13933
-0.64701,0.75975,0.06426,0.1024,-0.35822,0.08749
-0.64777,0.75858,0.07021,0.09714,-0.55109,0.15338
-0.64932,0.75683,0.07458,0.14408,-0.66313,0.2623
-0.65266,0.75332,0.08072,0.12637,-0.60339,0.19072
-0.65965,0.7467,0.08535,0.1154,-0.43116,-0.08934
-0.66736,0.73956,0.0875,0.10675,-0.20922,-0.19356
-0.67219,0.73501,0.08884,0.06971,-0.08113,-0.17832
-0.67147,0.7355,0.09026,-0.18126,0.39952,-0.02159
-0.66616,0.7406,0.08786,-0.21844,0.49719,0.05812
-0.65606,0.7503,0.08133,-0.31958,0.62709,-0.07486
-0.64094,0.7645,0.06875,-0.90473,0.74902,0.07044
-0.62335,0.77992,0.05597,-1.18883,0.76369,0.03769
-0.60453,0.79526,0.04564,-1.18836,0.62492,0.36418
-0.58543,0.80975,0.0395,-0.5662,0.42434,0.60024
-0.56475,0.82437,0.03809,-0.42147,0.28641,0.5601
-0.54244,0.83924,0.03757,-0.34967,-0.1922,0.46481
-0.52229,0.85185,0.03924,-0.40903,-0.43481,0.45252
-0.511,0.85812,0.04994,-0.59884,-0.5747,0.41208
-0.51436,0.85432,0.07451,-0.71296,-0.63583,0.3789
-0.53214,0.83907,0.11295,-0.60984,-0.80271,0.3264
-0.55762,0.81624,0.15098,-0.37066,-0.79089,0.22857
-0.58595,0.7914,0.17416,-0.21004,-0.46916,0.24221
-0.61658,0.76565,0.18327,-0.19759,0.01795,0.34496
-0.64404,0.73921,0.19687,-0.1069,0.38557,0.18209
-0.66066,0.71553,0.22699,0.16502,0.40787,0.17065
-0.67568,0.69199,0.25412,0.286,0.19859,0.04643
-0.69434,0.66562,0.27351,0.2067,-0.01015,-0.06566
-0.7151,0.63729,0.28718,0.03159,0.01835,-0.22116
-0.73836,0.60258,0.30282,-0.1881,0.09513,-0.08514
-0.76562,0.55634,0.32295,-0.37469,0.105,-0.07911
-0.78934,0.50197,0.35347,-0.34804,0.11717,-0.12988
-0.80492,0.44702,0.39019,-0.14051,0.16475,-0.21264
-0.81198,0.39489,0.42979,0.10446,0.17976,-0.30107
-0.80939,0.34646,0.47415,0.21242,0.20635,-0.30333
-0.79897,0.30303,0.51941,0.30651,0.21679,-0.29859
-0.78555,0.26577,0.55879,0.62737,0.01208,-0.22946
-0.77006,0.23249,0.59408,0.6133,-0.0263,-0.23083
-0.75301,0.20236,0.62609,0.54998,-0.05407,-0.2732
-0.73282,0.17657,0.65709,0.28127,-0.04086,-0.26007
-0.71154,0.15562,0.68517,0.26045,-0.04031,-0.26904
-0.69081,0.13871,0.70958,0.28691,-0.02876,-0.33174
-0.67348,0.12605,0.72836,0.38139,-0.06225,-0.32093
-0.66238,0.11649,0.74003,0.40277,-0.03655,-0.33073
-0.65629,0.10835,0.74667,0.40995,-0.01695,-0.33587
-0.65211,0.10056,0.7514,0.23762,-0.10827,-0.19659
-0.65002,0.09295,0.75418,0.21299,-0.12316,-0.17511
-0.64986,0.08583,0.75517,0.18955,-0.14588,-0.16348
-0.65237,0.07772,0.75388,0.11691,-0.19912,-0.04264
-0.65679,0.06668,0.7511,0.04816,-0.1904,-0.00056
-0.66052,0.05647,0.74865,-0.05168,-0.18464,0.056
-0.66356,0.05425,0.74613,-0.28753,-0.26403,0.22169
-0.66344,0.06132,0.74569,-0.31403,-0.24521,0.28737
-0.65166,0.07439,0.75483,-0.35777,-0.17699,0.32705
-0.63126,0.09528,0.76967,0.18898,-0.1004,0.64534
-0.61502,0.12413,0.77866,0.07339,-0.13359,0.68476
-0.61046,0.1626,0.77516,-0.2043,-0.16852,0.39113
-0.61708,0.20322,0.76018,-0.40845,-0.08358,0.20613
-0.62548,0.24731,0.73998,-0.01612,0.08605,0.17387
-0.63675,0.29349,0.713,0.22817,0.07246,-0.17363
-0.65363,0.33821,0.67701,0.29362,-0.01659,-0.24026
-0.67558,0.3786,0.63263,0.31696,-0.10438,-0.24837
-0.70094,0.41492,0.58008,0.32745,-0.12546,-0.16843
-0.72669,0.44826,0.52054,0.30419,-0.06922,-0.1486
-0.75033,0.48107,0.45338,0.2896,-0.05515,-0.06096
-0.76853,0.51365,0.38144,0.11661,0.11765,-0.16065
-0.77914,0.54242,0.31417,0.02024,0.18616,-0.08549
-0.78341,0.56717,0.25408,-0.12092,0.18386,-0.01403
-0.78341,0.58825,0.2005,-0.14805,0.05296,-0.00881
-0.77943,0.60649,0.15698,-0.11829,-0.08317,0.05298
-0.76988,0.62689,0.11947,-0.03195,-0.06688,0.05532
-0.75543,0.64982,0.0839,0.02844,0.01317,-0.01747
-0.73834,0.67222,0.05428,0.06624,0.18108,-0.07011
-0.72145,0.69195,0.02613,0.03993,0.25432,-0.05713
-0.70496,0.70923,0.00318,-0.01518,0.2495,-0.01348
-0.68939,0.7243,-0.01094,-0.11715,0.19589,-0.09439
-0.67484,0.73766,-0.02097,-0.19441,0.12413,0.01633
-0.66216,0.74874,-0.0303,-0.25358,0.01423,0.02777
-0.65069,0.75812,-0.04289,-0.26342,-0.05147,0.05275
-0.64273,0.76397,-0.05681,-0.23012,-0.04725,0.03763
-0.6388,0.7665,-0.06631,-0.04299,-0.12866,0.15563
-0.63384,0.77004,-0.07251,0.11375,-0.08482,0.16687
-0.63094,0.77244,-0.0723,0.10256,-0.12448,0.1733
-0.62875,0.77443,-0.07006,0.04313,-0.23338,0.11732
-0.62675,0.77636,-0.06665,0.03193,-0.46012,0.2113
-0.62702,0.7766,-0.06098,0.0322,-0.46036,0.20563
-0.63129,0.77375,-0.05253,0.12382,-0.54006,0.24711
-0.6384,0.76863,-0.04038,0.1832,-0.59363,0.13428
-0.64629,0.76259,-0.02739,0.2161,-0.59155,0.15983
-0.65291,0.75729,-0.01398,0.2176,-0.56846,0.12044
-0.65735,0.75356,-0.00395,0.10988,-0.49032,-0.02601
-0.65961,0.75159,0.00307,0.0952,-0.46465,0.00607
-0.65995,0.75128,0.0053,0.0698,-0.42994,0.0324
-0.65716,0.75373,0.00069,-0.16719,-0.15103,-0.11416
-0.65037,0.75959,-0.00487,-0.28141,-0.04957,-0.02781
-0.64087,0.76754,-0.01202,-0.50324,0.19123,0.10455
-0.63069,0.77586,-0.01624,-0.53866,0.50074,0.08429
-0.61769,0.78622,-0.01696,-0.51535,0.6817,0.05967
-0.60026,0.79966,-0.01442,-0.57622,0.77213,0.05443
-0.5796,0.81483,-0.01033,-0.65429,0.81106,0.0289
-0.55633,0.83092,-0.00681,-0.67756,0.79497,0.02538
-0.53077,0.8475,-0.00199,-0.72386,0.90294,0.02517
-0.4991,0.86652,0.00535,-0.85472,0.53574,0.01322
-0.4612,0.88721,0.01167,-0.71614,0.05553,0.01212
-0.42159,0.90669,0.01205,-0.20072,-0.39942,0.14516
-0.38692,0.92207,0.00701,-0.11373,-0.62285,0.2645
-0.36406,0.93135,0.00452,-0.15047,-0.66407,0.26926
-0.35699,0.93402,0.01153,-0.36835,-0.44445,0.31332
-0.36564,0.9303,0.02879,-0.4082,-0.46284,0.28101
-0.38699,0.92066,0.05095,-0.33498,-0.55209,0.20111
-0.41593,0.90669,0.06996,-0.11078,-0.43783,0.17995
-0.44733,0.89032,0.08489,-0.03726,-0.28938,0.16981
-0.47859,0.87216,0.10135,0.02363,0.0065,0.29629
-0.50785,0.85292,0.12078,0.02065,0.34778,0.43912
-0.53568,0.83238,0.14199,0.1013,0.3383,0.32919
-0.56286,0.81013,0.16388,0.18379,0.23083,0.12679
-0.58876,0.78737,0.18275,0.19545,0.15091,0.0436
-0.61177,0.76692,0.19377,0.13941,0.14445,0.11123
-0.63254,0.74793,0.20118,0.09981,0.23208,0.24418
-0.65579,0.72562,0.20829,0.10296,0.38105,0.33564
-0.68219,0.69964,0.21236,0.14983,0.41952,0.11942
-0.70748,0.67234,0.2177,0.20884,0.22027,0.04585
-0.7303,0.64516,0.22449,0.16489,0.09106,0.04391
-0.7492,0.61924,0.23496,0.1602,0.05675,0.03071
-0.76375,0.59628,0.2472,0.21831,0.0044,-0.02444
-0.77443,0.57709,0.25923,0.30513,-0.06696,-0.07386
-0.78185,0.56136,0.27121,0.41117,-0.21648,-0.07889
-0.78639,0.54946,0.28224,0.44134,-0.26491,-0.09466
-0.78739,0.54192,0.29378,0.44009,-0.29616,-0.16553
-0.78477,0.53995,0.30423,0.45194,-0.50068,-0.16832
-0.77942,0.54367,0.31129,0.44659,-0.50439,-0.17538
-0.77202,0.55214,0.31481,0.46472,-0.50021,-0.1874
-0.76312,0.56389,0.31566,0.45675,-0.46436,-0.19576
-0.75253,0.57889,0.31393,0.43872,-0.43424,-0.17882
-0.74071,0.59701,0.30805,0.39445,-0.39199,-0.16245
-0.7277,0.61822,0.29703,0.32544,-0.3362,-0.10828
-0.71259,0.64108,0.28495,0.20715,-0.24172,0.03228
-0.6942,0.66289,0.28044,-0.01613,-0.07214,0.14992
-0.67539,0.68101,0.28292,-0.4262,0.20074,0.44482
-0.66466,0.69229,0.28094,-0.82243,0.36609,0.62336
-0.66041,0.69872,0.27499,-0.85545,0.11956,0.40732
-0.6566,0.70902,0.25718,-0.34299,-0.03534,0.27169
-0.64871,0.72657,0.22637,-0.03416,0.15438,0.32725
-0.63777,0.74535,0.19409,0.21192,0.5287,0.15889
-0.62938,0.75622,0.17884,0.17903,0.8568,-0.03771
-0.62931,0.75796,0.17158,0.14007,0.88282,0.16352
-0.64051,0.75296,0.15091,0.26273,-0.24983,-0.18007
-0.65148,0.75039,0.11164,0.3469,-0.37281,-0.36395
-0.6515,0.75615,0.06134,0.45811,-0.38766,-0.60631
-0.63414,0.77313,0.01067,0.57566,0.1427,-0.53953
-0.61173,0.79074,-0.02242,0.5567,0.54441,-0.3236
-0.5973,0.80111,-0.0379,0.39155,0.6361,-0.21068
-0.59,0.80503,-0.06173,0.1245,0.3238,-0.33883
-0.58124,0.80857,-0.09139,-0.0045,0.05288,-0.48263
-0.56995,0.81384,-0.11311,-0.1415,-0.02382,-0.61646
-0.56472,0.816,-0.12334,-0.20986,-0.18405,-0.58038
-0.56333,0.81688,-0.12386,-0.2694,-0.30527,-0.51377
-0.56054,0.81895,-0.12288,-0.37811,-0.29147,-0.46626
-0.55898,0.81985,-0.124,-0.44748,-0.22802,-0.37018
-0.56082,0.81912,-0.12041,-0.5069,-0.20738,-0.24803
-0.56499,0.81739,-0.11242,-0.50091,-0.25413,-0.06514
-0.57047,0.81446,-0.10579,-0.40564,-0.30401,0.0557
-0.57551,0.81184,-0.09838,-0.32922,-0.29652,0.10721
-0.58,0.80991,-0.08735,-0.23882,-0.32877,0.1251
-0.58198,0.80933,-0.07909,-0.1567,-0.33889,0.09932
-0.58344,0.80881,-0.07344,-0.09339,-0.284,0.07002
-0.58411,0.80861,-0.07034,-0.005,-0.19775,0.14797
-0.58069,0.81071,-0.07431,0.14041,-0.06964,0.18086
-0.57405,0.81479,-0.08099,0.16898,0.01614,0.12577
-0.56493,0.82112,-0.08122,-0.03166,0.11952,0.20741
-0.55431,0.82867,-0.07764,-0.37315,0.00936,0.29099
-0.54334,0.83621,-0.07424,-0.59764,-0.10394,0.41389
-0.53365,0.84264,-0.07183,-0.53938,-0.04492,0.49748
-0.52742,0.84679,-0.0689,-0.40582,0.12223,0.43285
-0.52363,0.84946,-0.06488,-0.30514,0.25299,0.24286
-0.52243,0.8507,-0.05796,-0.29187,0.395,0.06104
-0.52505,0.8498,-0.04634,-0.34975,0.47481,0.00934
-0.53183,0.84644,-0.02603,-0.27679,0.27979,0.03087
-0.54635,0.83754,-0.00225,-0.15542,0.1897,0.35778
-0.57078,0.82074,0.02397,-0.07739,0.11883,0.42081
-0.60485,0.79441,0.05522,0.00014,0.06553,0.17387
-0.64108,0.76263,0.08591,0.00035,0.12935,0.03158
-0.66866,0.73577,0.10734,-0.08297,0.39374,-0.26647
-0.68992,0.71429,0.11741,0.09756,0.50221,-0.22512
-0.71298,0.69048,0.12194,0.19766,0.53554,-0.16634
-0.73609,0.66319,0.13536,0.3485,0.4753,-0.00388
-0.75523,0.63643,0.15673,0.401,0.33554,-0.03583
-0.77936,0.60147,0.1755,0.16739,0.36188,-0.1085
-0.81181,0.54741,0.20318,-0.25858,0.40535,-0.14852
-0.83831,0.48824,0.24255,-0.16468,0.19743,-0.10374
-0.85422,0.4377,0.28053,0.02547,0.23099,-0.14905
-0.86447,0.39343,0.31285,0.19848,0.24411,-0.22846
-0.87216,0.35195,0.33976,0.58218,0.14092,-0.16999
-0.87729,0.31436,0.36264,0.63941,0.11429,-0.10347
-0.87833,0.2806,0.387,0.52921,0.11546,-0.17047
-0.87583,0.25186,0.41165,0.30367,-0.0236,-0.17701
-0.87094,0.22997,0.43423,0.25303,-0.03177,-0.18928
-0.86489,0.2136,0.45421,0.22626,-0.03817,-0.20037
-0.85626,0.2043,0.4744,0.22955,-0.20749,-0.09084
-0.84673,0.20228,0.49203,0.21502,-0.20472,-0.05695
-0.83853,0.20796,0.50357,0.19723,-0.2045,-0.00974
-0.83202,0.22053,0.50899,0.03291,-0.20359,-0.03289
-0.82502,0.2362,0.51334,0.05671,-0.11899,-0.09235
-0.817,0.26163,0.51384,0.81231,0.16639,-0.0923
-0.81168,0.30734,0.49667,0.96111,0.20719,0.13682
-0.80715,0.35478,0.47181,0.58956,0.3204,-0.21894
-0.81555,0.39006,0.42744,-0.43036,0.75518,-0.15493
-0.82284,0.42161,0.38097,-0.66797,1.24188,-0.16619
-0.82414,0.44708,0.34767,-0.50254,0.91756,-0.31816
-0.8211,0.4719,0.32105,0.09243,-0.05308,-0.28986
-0.81553,0.50005,0.29126,0.19332,-0.22941,-0.26856
-0.80633,0.53015,0.2622,0.17617,-0.23735,-0.23113
-0.79442,0.56056,0.23375,-0.01135,0.15552,-0.19365
-0.78157,0.58889,0.20573,-0.11816,0.46754,-0.18025
-0.76965,0.61241,0.18044,-0.13792,0.47968,-0.2759
-0.75913,0.62921,0.1667,-0.19663,0.35588,-0.32109
-0.74871,0.64276,0.16208,-0.14911,0.05563,-0.16199
-0.73762,0.65575,0.16089,-0.06289,-0.00767,-0.20901
-0.72903,0.66606,0.15766,-0.00744,0.0135,-0.24142
-0.72389,0.67303,0.15165,0.01516,0.01514,-0.28302
-0.71957,0.67879,0.14643,0.07763,-0.00687,-0.11106
-0.7169,0.68423,0.13365,0.19462,0.01538,-0.0594
-0.71682,0.68656,0.12157,0.21404,0.10786,0.07655
-0.71712,0.68719,0.11613,0.13773,0.13354,0.08361
-0.71711,0.68712,0.11663,0.09133,-0.0523,-0.01561
-0.71504,0.68819,0.12282,0.06279,-0.21224,-0.0635
-0.71352,0.688,0.13241,0.0838,-0.277,-0.02018
-0.71512,0.68439,0.14208,0.17621,-0.38546,0.19816
-0.72023,0.67689,0.15187,0.12955,-0.37882,-0.01464
-0.72719,0.66755,0.15984,0.18262,-0.35753,-0.08791
-0.73368,0.65922,0.16466,0.26461,-0.31722,-0.12778
-0.73803,0.65333,0.16867,0.30147,-0.08035,-0.47001
-0.73858,0.6521,0.171,0.28012,-0.00793,-0.36621
-0.73455,0.65867,0.163,0.18242,0.10746,-0.29327
-0.72572,0.67139,0.1501,-0.21835,1.13599,-0.32557
-0.71179,0.6894,0.1344,-0.2752,1.21989,-0.19507
-0.69677,0.70706,0.12064,-0.45916,1.17307,-0.15163
-0.68023,0.72419,0.11321,-0.89053,0.51034,0.18802
-0.66551,0.7384,0.10878,-0.70046,0.54718,0.14595
-0.65123,0.75114,0.10797,-0.52008,0.62119,0.25354
-0.63511,0.76461,0.10946,-0.11623,0.22756,0.24726
-0.61873,0.77737,0.11335,-0.16972,-0.05715,0.30361
-0.60585,0.78576,0.1245,-0.25136,-0.3018,0.32373
-0.60216,0.78466,0.14726,-0.67449,-0.70546,0.28186
-0.61267,0.76995,0.17826,-0.65945,-0.73145,0.24646
-0.6348,0.7431,0.21165,-0.3662,-0.64577,0.08651
-0.66241,0.71125,0.23518,-0.18532,-0.35101,-0.01042
-0.69097,0.67968,0.24611,-0.1252,-0.15778,-0.02003
-0.71663,0.6499,0.25305,-0.14386,0.44574,0.32051
-0.73364,0.62502,0.26664,0.11743,0.6119,0.14048
-0.74766,0.59646,0.29189,0.28062,0.57073,0.09277
-0.76386,0.56258,0.31621,0.24304,0.26576,-0.11503
-0.78003,0.53002,0.33256,-0.01458,0.23624,-0.18168
-0.79816,0.48919,0.35157,-0.26718,0.3803,-0.10505
-0.82384,0.42091,0.37958,-0.71354,0.30107,-0.18416
-0.84104,0.34467,0.41692,-0.55397,0.30096,-0.12789
-0.84325,0.27485,0.4619,-0.25444,0.45639,-0.16826
-0.83365,0.21371,0.50924,0.05699,0.50474,-0.28056
-0.81434,0.15838,0.55832,0.28938,0.46658,-0.42523
-0.78824,0.10692,0.60597,0.59668,0.33716,-0.3873
-0.75798,0.06016,0.64947,0.64726,0.14185,-0.48393
-0.72338,0.02125,0.6901,0.56948,-0.01075,-0.52038
-0.68597,-0.00968,0.72754,0.46809,-0.01744,-0.53366
-0.64821,-0.03508,0.76062,0.45284,-0.00394,-0.51694
-0.61356,-0.05648,0.7876,0.51822,0.14943,-0.52218
-0.58548,-0.07495,0.80719,0.48604,0.20383,-0.58208
-0.56569,-0.09261,0.81938,0.41495,0.19577,-0.56631
-0.55404,-0.1087,0.82534,0.35986,0.13043,-0.47401
-0.54597,-0.12277,0.82874,0.23708,0.06787,-0.35109
-0.54076,-0.1363,0.83004,0.1607,0.07218,-0.3026
-0.53843,-0.14843,0.82947,0.05296,-0.02349,-0.1866
-0.54046,-0.15527,0.82689,0.05499,-0.01665,-0.18402
-0.54884,-0.15362,0.82166,-0.11917,-0.15254,0.0655
-0.56006,-0.13944,0.81661,-0.08852,-0.11958,0.37731
-0.56554,-0.12253,0.81555,-0.08304,-0.13648,0.37838
-0.5573,-0.10715,0.82335,-1.57968,0.33554,0.87847
-0.54295,-0.07223,0.83663,-0.17408,0.29083,0.60702
-0.52736,-0.02976,0.8491,-0.19213,0.12514,0.53158
-0.52981,0.02156,0.84782,0.03059,-0.06139,0.14988
-0.55153,0.07436,0.83081,0.0678,0.06778,-0.26457
-0.57955,0.12705,0.80495,0.19216,0.14736,-0.28238
-0.60551,0.17714,0.77585,0.1823,0.1754,-0.28551
-0.63118,0.22373,0.74265,0.14425,0.20676,-0.26558
-0.66075,0.267,0.70149,0.24356,0.13812,-0.21487
-0.69512,0.30895,0.64909,0.38627,0.06981,-0.28957
-0.73129,0.34961,0.58562,0.42082,-0.0086,-0.31112
-0.76483,0.38747,0.51466,0.3832,0.0137,-0.30626
-0.79014,0.42125,0.44519,0.26646,0.12832,-0.40851
-0.80739,0.4529,0.37812,0.08602,0.30171,-0.23037
-0.81533,0.4832,0.31896,-0.17162,0.44509,-0.22238
-0.81631,0.51019,0.27078,-0.20329,0.26842,-0.20862
-0.81297,0.533,0.23445,-0.15439,0.09691,-0.1389
-0.80616,0.55397,0.20785,-0.12403,0.05867,-0.12417
-0.79498,0.57594,0.19046,0.03576,0.15587,-0.15462
-0.78154,0.59879,0.17501,0.04507,0.21312,-0.16929
-0.76572,0.62208,0.16331,-0.02505,0.4146,-0.21824
-0.75199,0.64004,0.15759,-0.0921,0.42229,-0.20641
-0.74146,0.65265,0.15575,-0.12342,0.2881,-0.20763
-0.73262,0.66399,0.14953,-0.05557,-0.0043,-0.16912
-0.72719,0.672,0.13994,0.03436,-0.10148,-0.12868
-0.72461,0.67737,0.12681,0.13541,-0.16599,-0.02083
-0.72008,0.68395,0.11691,0.25173,-0.11823,-0.00286
-0.71489,0.68949,0.11627,0.18675,-0.14012,0.00559
-0.71096,0.69269,0.1212,0.08343,-0.26154,-0.02944
-0.70894,0.6935,0.12824,0.08023,-0.49063,0.21866
-0.71093,0.68996,0.13603,0.12423,-0.42998,0.23185
-0.71754,0.68157,0.14345,0.14113,-0.33419,-0.05551
-0.72522,0.67239,0.14807,0.24354,-0.22143,-0.25614
-0.73025,0.66568,0.15359,0.37345,-0.03929,-0.36385
-0.73032,0.66474,0.15724,0.23192,0.1297,-0.25438
-0.72434,0.67255,0.15159,-0.11185,0.4192,-0.11143
-0.71446,0.68579,0.13866,-0.17011,0.96494,-0.21982
-0.69958,0.70391,0.12276,-0.21428,1.0465,-0.14627
-0.68149,0.72323,0.11175,-0.93923,1.06149,-0.27107
-0.66354,0.74061,0.10575,-0.91661,0.57789,0.1861
-0.64753,0.75468,0.10559,-0.75753,0.43777,0.2251
-0.63106,0.76802,0.10898,-0.41804,0.14013,0.43444
-0.61543,0.78037,0.11065,-0.28379,-0.10465,0.25424
-0.60358,0.789,0.11463,-0.39305,-0.43012,0.31434
-0.6001,0.78947,0.1288,-0.5207,-0.51535,0.2741
-0.60986,0.77726,0.15466,-0.70589,-0.65851,0.20718
-0.6321,0.75216,0.18622,-0.48588,-0.75876,0.1485
-0.6609,0.72006,0.21141,-0.33779,-0.66851,0.12222
-0.69318,0.68603,0.22097,-0.189,-0.26549,0.11018
-0.72533,0.65049,0.22525,-0.25046,0.28582,0.25429
-0.74627,0.6197,0.24295,-0.20355,0.50269,0.26529
-0.7584,0.59387,0.26856,0.22192,0.67608,0.08758
-0.77182,0.56644,0.28882,0.35736,0.50061,-0.05827
-0.78571,0.53569,0.3093,0.15815,0.3497,-0.19148
-0.79918,0.49548,0.34025,-0.11299,0.43426,-0.21478
-0.82178,0.43479,0.36824,-0.35667,0.52036,-0.05008
-0.83926,0.36656,0.40156,-0.41202,0.39119,-0.20539
-0.84398,0.3034,0.44229,-0.20841,0.47326,-0.2169
-0.83971,0.24577,0.4842,-0.07829,0.60178,-0.36366
-0.82605,0.1936,0.52926,0.10369,0.62094,-0.43957
-0.80457,0.14417,0.57606,0.42002,0.53294,-0.49604
-0.77913,0.09715,0.61926,0.69321,0.31289,-0.52609
-0.75166,0.055,0.65723,0.79429,0.06147,-0.57773
-0.72522,0.01868,0.68824,0.84029,-0.04281,-0.60712
-0.69916,-0.01254,0.71483,0.74625,-0.01043,-0.57713
-0.67411,-0.04083,0.73748,0.5721,0.10658,-0.53252
-0.65091,-0.06745,0.75613,0.42143,0.16228,-0.50892
-0.63001,-0.0908,0.77124,0.36078,0.06995,-0.4347
-0.61352,-0.10795,0.78224,0.22356,-0.06355,-0.3394
-0.60205,-0.11837,0.78961,-0.0101,-0.19549,-0.15789
-0.59702,-0.11925,0.79329,-0.15044,-0.17836,0.00701
-0.59504,-0.109,0.79624,-0.30687,-0.20576,0.15972
-0.59605,-0.09267,0.79756,-0.53619,-0.35236,0.43122
-0.59745,-0.07323,0.79853,-0.83275,-0.05104,0.48046
-0.60109,-0.03937,0.79819,-0.52677,0.35639,0.25357
-0.60356,0.00213,0.79729,-0.30733,0.67439,0.62907
-0.61057,0.04517,0.79065,0.0047,0.37154,0.10347
-0.63155,0.09084,0.76997,0.02103,-0.18811,-0.39689
-0.65862,0.13453,0.74032,0.31269,-0.03323,-0.33401
-0.68534,0.17731,0.70628,0.39999,0.15086,-0.20967
-0.71213,0.2199,0.66669,0.2537,0.12063,-0.16557
-0.74033,0.26285,0.6187,0.22139,0.10719,-0.21924
-0.76737,0.30608,0.5634,0.32273,0.17384,-0.19773
-0.79206,0.34982,0.50023,0.38671,0.26166,-0.18924
-0.81259,0.39242,0.43091,0.42634,0.29286,-0.20328
-0.82661,0.43072,0.36216,0.36966,0.34841,-0.21088
-0.83575,0.46453,0.29275,0.25116,0.36387,-0.14857
-0.83855,0.49534,0.2268,0.04467,0.38163,-0.14918
-0.8351,0.52397,0.16744,-0.03924,0.34166,-0.13212
-0.8282,0.54887,0.11312,-0.02789,0.20796,-0.14733
-0.81652,0.57358,0.06543,-0.03221,0.1282,-0.18605
-0.80134,0.59748,0.029,0.03334,0.17736,-0.25172
-0.78554,0.61879,-0.00231,0.05282,0.19584,-0.20736
-0.7693,0.63783,-0.03638,0.05352,0.25456,-0.23085
-0.75288,0.65451,-0.06896,0.00139,0.19601,-0.30743
-0.73608,0.67116,-0.08778,-0.03891,0.16235,-0.28386
-0.72103,0.68636,-0.09487,-0.08785,0.16892,-0.24456
-0.70794,0.69924,-0.0993,0.05081,0.03262,-0.03636
-0.69479,0.71179,-0.10299,0.07013,-0.00045,0.00692
-0.68261,0.7231,-0.10562,0.03843,-0.04002,-0.06183
-0.66886,0.73527,-0.10945,0.13102,-0.17892,0.10344
-0.65146,0.75007,-0.11387,0.19442,-0.18792,0.0956
-0.63472,0.76447,-0.11267,0.19012,-0.28869,0.00914
-0.61898,0.77768,-0.10983,0.0678,-0.3571,0.02524
-0.60359,0.79009,-0.10683,-0.10054,-0.36696,0.05545
-0.5899,0.80026,-0.1076,-0.09072,-0.32297,0.07379
-0.5766,0.8095,-0.11053,-0.07335,-0.18493,0.06343
-0.56341,0.81822,-0.11435,-0.12596,-0.05576,0.04002
-0.54912,0.82733,-0.11822,-0.15111,-0.01832,0.03283
-0.53447,0.83633,-0.12195,-0.15381,0.0042,0.04381
-0.52096,0.84425,-0.12581,-0.14566,0.03968,0.03882
-0.50935,0.85084,-0.12888,-0.12432,0.14243,0.02814
-0.50239,0.85512,-0.1279,-0.18797,0.35818,-0.07826
-0.49933,0.85735,-0.12492,-0.20327,0.43772,-0.02973
-0.49776,0.8589,-0.12048,-0.13248,0.42365,0.22523
-0.49647,0.86095,-0.1107,-0.20432,0.36375,0.19266
-0.49702,0.86237,-0.09632,-0.36748,0.09872,0.15551
-0.50192,0.86101,-0.08196,-0.16635,0.02263,0.17535
-0.51252,0.85613,-0.06595,-0.03317,0.02856,0.19135
-0.52821,0.84775,-0.04794,0.03865,0.00919,0.20985
-0.54917,0.8352,-0.02876,0.08275,-0.01797,0.17017
-0.57484,0.81819,-0.01024,0.12991,-0.0032,0.05661
-0.60316,0.79758,0.00652,0.17195,0.0764,0.04754
-0.63109,0.77534,0.02346,0.20348,0.37867,0.15423
-0.6555,0.75392,0.04359,0.29347,0.62777,0.29223
-0.67685,0.73333,0.06383,0.44701,0.48014,0.2246
-0.69756,0.71183,0.08174,0.49216,0.30111,0.21117
-0.71822,0.68944,0.09386,0.37523,0.21895,0.17827
-0.73818,0.66695,0.10122,0.2022,0.11662,-0.00282
-0.75589,0.64525,0.11072,0.09509,0.1002,-0.01301
-0.77251,0.6235,0.12021,0.10507,0.15819,0.0725
-0.78739,0.60294,0.12826,0.19999,0.22514,0.12733
-0.80094,0.58319,0.13546,0.37972,0.22262,0.14314
-0.81509,0.56229,0.13939,0.41769,0.18519,0.09041
-0.82799,0.54094,0.14757,0.40809,0.19146,0.01934
-0.83895,0.51988,0.1608,0.38192,0.16264,-0.00317
-0.84764,0.50041,0.17626,0.36944,0.05789,-0.0304
-0.85373,0.48392,0.19219,0.36568,0.03406,-0.06223
-0.85707,0.47172,0.20708,0.37096,0.01868,-0.08538
-0.85817,0.46439,0.21878,0.4517,-0.04734,-0.10479
-0.85743,0.46158,0.22743,0.47245,-0.04836,-0.11618
-0.85484,0.46339,0.23345,0.48414,-0.06515,-0.12412
-0.8503,0.46984,0.23707,0.46124,-0.16399,-0.1319
-0.84399,0.48156,0.23611,0.44517,-0.18289,-0.12434
-0.83653,0.49857,0.22721,0.43501,-0.17496,-0.11532
-0.82746,0.52003,0.21177,0.43051,-0.1292,-0.0565
-0.81505,0.54504,0.19647,0.37647,-0.09762,0.02521
-0.79728,0.57524,0.18283,0.11652,-0.04243,0.07366
-0.77583,0.60955,0.16282,-0.31809,0.17612,0.29514
-0.75762,0.63819,0.13673,-0.58628,0.39443,0.53368
-0.74963,0.65229,0.11202,-0.73371,0.29029,0.65468
-0.74384,0.66291,0.08504,-0.61627,-0.09374,0.53352
-0.73566,0.67573,0.04656,-0.32643,-0.00807,0.50047
-0.72755,0.68598,0.00834,-0.11125,0.24717,0.25327
-0.72187,0.69186,-0.01451,0.05773,0.54595,0.02618
-0.71709,0.69648,-0.02579,0.23141,0.5951,0.21279
-0.71341,0.69878,-0.05216,0.47359,0.04603,0.2642
-0.70583,0.70154,-0.09811,0.44426,-0.13202,-0.02663
-0.69238,0.70762,-0.14092,0.41525,-0.07945,-0.25902
-0.67783,0.71721,-0.16166,0.39655,0.19021,-0.12189
-0.6652,0.72876,-0.16248,0.411,0.36848,0.16405
-0.653,0.7381,-0.16964,0.32307,0.37503,0.06761
-0.64062,0.74368,-0.19112,0.16584,0.31026,-0.17778
-0.62652,0.74833,-0.21784,0.08079,0.19602,-0.22961
-0.61273,0.75209,-0.24269,0.03139,0.06912,-0.19842
-0.60223,0.75377,-0.26293,0.01849,-0.02697,-0.09305
-0.59265,0.7559,-0.27813,0.03368,-0.05763,0.04823
-0.5821,0.75907,-0.29146,0.03192,0.02433,0.02371
-0.57086,0.7635,-0.30194,-0.02751,0.09127,-0.05307
-0.55918,0.76932,-0.30895,-0.1742,0.05842,-0.03068
-0.54834,0.77605,-0.31152,-0.25804,0.01928,0.01183
-0.53946,0.78251,-0.31089,-0.42171,-0.15628,0.04118
-0.53271,0.78832,-0.30782,-0.45804,-0.28753,0.13102
-0.52629,0.7933,-0.30607,-0.37582,-0.34354,0.22718
-0.52085,0.79734,-0.30488,-0.18448,-0.20327,0.25572
-0.51609,0.80172,-0.30148,-0.05848,-0.02076,0.26275
-0.50971,0.80804,-0.29538,0.07916,0.079,0.23381
-0.5034,0.81519,-0.28641,0.06359,0.0514,0.22135
-0.49676,0.82297,-0.27555,-0.23451,-0.07886,0.19647
-0.48857,0.83184,-0.26328,-0.35272,-0.13357,0.22359
-0.47939,0.84002,-0.25402,-0.4477,-0.17405,0.29758
-0.47275,0.84537,-0.24868,-0.59661,-0.02756,0.52043
-0.47018,0.84852,-0.24273,-0.59917,-0.03071,0.51447
-0.47118,0.85136,-0.23058,-0.61621,0.20065,0.58193
-0.47901,0.85269,-0.20844,-0.53849,0.14087,0.37406
-0.4941,0.85062,-0.17971,-0.52341,0.14294,0.34533
-0.51524,0.84476,-0.14452,-0.35445,-0.06052,0.41831
-0.542,0.83386,-0.10441,-0.34311,0.01638,0.40779
-0.57185,0.81795,-0.06253,-0.3604,0.12908,0.38806
-0.60017,0.79942,-0.02634,-0.35895,0.25749,0.3521
-0.62503,0.78055,0.00754,-0.09018,0.48061,0.24837
-0.64527,0.76282,0.04134,0.00595,0.53207,0.26335
-0.66289,0.74439,0.08023,0.18838,0.67974,0.32715
-0.68074,0.72191,0.12411,0.15088,0.58562,0.20536
-0.69726,0.69817,0.16235,0.03236,0.30276,0.16498
-0.72657,0.66006,0.19075,-0.2329,0.29386,0.2101
-0.77336,0.59325,0.22346,-0.77078,0.31148,0.03981
-0.80094,0.52839,0.28155,-0.55491,0.18124,-0.00932
-0.81423,0.47277,0.33687,-0.03788,0.36139,0.12419
-0.81846,0.41852,0.3936,0.20089,0.37996,-0.25244
-0.81114,0.36359,0.45806,0.32066,0.21718,-0.36657
-0.79421,0.31358,0.52044,0.53913,-0.17414,-0.40927
-0.77049,0.26976,0.57752,0.5757,-0.23519,-0.47083
-0.74519,0.23149,0.62535,0.7005,-0.37492,-0.49631
-0.72068,0.19911,0.66402,0.65652,-0.31476,-0.43325
-0.69777,0.16985,0.69586,0.55225,-0.19947,-0.36871
-0.67808,0.14254,0.72101,0.52323,-0.10331,-0.30113
-0.66088,0.11721,0.74125,0.51994,-0.13907,-0.2942
-0.64825,0.09369,0.75561,0.55777,-0.26353,-0.30256
-0.64282,0.07145,0.76265,0.49757,-0.30208,-0.28159
-0.64348,0.04984,0.7638,0.33703,-0.29248,-0.21186
-0.64633,0.02927,0.76246,0.12828,-0.27643,-0.11753
-0.64819,0.01344,0.76133,-0.06261,-0.3096,0.02732
-0.64906,0.00851,0.76066,-0.21356,-0.3578,0.14047
-0.64582,0.01889,0.76322,-0.30926,-0.43922,0.44091
-0.63337,0.04026,0.77277,-0.68597,-0.20931,0.81957
-0.61474,0.07072,0.78552,-0.6511,0.10938,0.90393
-0.60301,0.11273,0.7897,0.0822,0.15921,0.79851
-0.60068,0.15649,0.78399,-0.17242,0.02253,0.55939
-0.6112,0.20535,0.76434,0.38077,-0.19265,0.01377
-0.62953,0.25613,0.73351,0.37901,-0.06852,-0.28779
-0.65168,0.30567,0.69414,0.45639,0.12728,-0.35205
-0.67656,0.35114,0.64724,0.4296,0.17666,-0.26629
-0.70554,0.39238,0.59009,0.21598,0.08893,-0.09588
-0.73644,0.43385,0.51903,0.24274,0.02199,-0.07939
-0.76364,0.47489,0.43738,0.32675,0.03666,-0.2044
-0.78049,0.51713,0.35125,0.29242,0.17144,-0.19428
-0.78566,0.55753,0.26807,0.26818,0.20097,-0.18981
-0.78146,0.59483,0.1883,0.22562,0.24815,-0.10761
-0.76558,0.63209,0.11969,-0.22646,0.52415,-0.18996
-0.74261,0.66561,0.07387,-0.32236,0.48229,-0.14302
-0.71934,0.69281,0.05042,-0.38204,0.33782,-0.19253
-0.69675,0.71584,0.04579,-0.36938,0.008,-0.11758
-0.67698,0.73476,0.04251,-0.29136,-0.05043,-0.01148
-0.66193,0.74881,0.03335,-0.2263,-0.09254,-0.02346
-0.65161,0.75815,0.02425,-0.01996,-0.13964,-0.01366
-0.64295,0.76573,0.01567,0.00933,-0.18485,0.05904
-0.63467,0.77277,0.00029,0.07751,-0.27876,0.13155
-0.62541,0.78013,-0.01508,-0.03375,-0.22117,0.04546
-0.61993,0.78441,-0.01906,-0.05367,-0.23253,0.09834
-0.6199,0.78446,-0.01791,-0.04625,-0.30782,0.14857
-0.62103,0.78363,-0.01469,0.10098,-0.38847,0.2678
-0.62397,0.78135,-0.01107,0.10542,-0.4053,0.24616
-0.62704,0.77896,-0.00411,0.08562,-0.35704,0.23838
-0.63168,0.7752,0.00435,-0.02295,-0.25207,-0.00782
-0.63737,0.77044,0.0123,0.0289,-0.12835,-0.22789
-0.63833,0.76962,0.01387,0.0733,0.07314,-0.16015
-0.62679,0.77916,0.00507,-0.03745,0.46532,-0.01612
-0.60783,0.79403,-0.00588,-0.17989,0.90421,-0.09129
-0.58513,0.81077,-0.01595,-0.42506,0.80459,0.0794
-0.56136,0.82722,-0.02353,-1.26623,0.43908,0.01151
-0.53917,0.84179,-0.02592,-1.27516,0.22935,0.26383
-0.51982,0.8539,-0.0249,-1.12363,0.10611,0.35876
-0.50251,0.86427,-0.02231,-0.29912,0.01915,0.42366
-0.4878,0.87277,-0.01717,-0.32552,-0.20996,0.39021
-0.48066,0.87687,-0.00582,-0.59492,-0.48872,0.38982
-0.48688,0.87335,0.01328,-0.8352,-0.58303,0.27946
-0.50976,0.85936,0.04017,-0.8547,-0.61481,0.24798
-0.54459,0.83578,0.0698,-0.52174,-0.63039,0.27952
-0.58257,0.80771,0.09051,-0.35423,-0.27473,0.22411
-0.62,0.77747,0.10541,-0.36237,0.16432,0.37241
-0.64879,0.75022,0.12737,-0.10518,0.46914,0.28789
-0.66907,0.7254,0.16159,0.18659,0.45952,0.27823
-0.68956,0.69835,0.19179,0.18513,0.24292,0.09934
-0.71108,0.66951,0.21469,0.03312,0.08953,-0.08814
-0.73371,0.63648,0.23777,-0.09796,0.13603,-0.17265
-0.77074,0.58102,0.26144,-0.55715,0.04663,-0.10528
-0.80802,0.51125,0.29274,-0.41578,0.01594,-0.16967
-0.82901,0.44563,0.33782,-0.18153,0.147,-0.18315
-0.8372,0.38667,0.38672,0.01403,0.23254,-0.32488
-0.83417,0.33363,0.43912,0.31853,0.24994,-0.40973
-0.81939,0.28487,0.49741,0.66993,0.13846,-0.38289
-0.79778,0.24001,0.55308,0.99522,-0.04433,-0.4443
-0.77568,0.19904,0.59889,1.0739,-0.21821,-0.42954
-0.75569,0.16507,0.63376,0.84525,-0.22378,-0.41292
-0.73713,0.13762,0.66156,0.61055,-0.0325,-0.43359
-0.71898,0.11321,0.68572,0.5254,0.04438,-0.42592
-0.70245,0.09085,0.70589,0.44239,0.02205,-0.3147
-0.68909,0.07189,0.72108,0.39943,-0.03944,-0.35198
-0.68187,0.05753,0.72918,0.29654,-0.19093,-0.33572
-0.68009,0.04693,0.7316,0.16108,-0.20691,-0.1418
-0.68117,0.03951,0.73103,0.08747,-0.25704,-0.03304
-0.68429,0.03911,0.72813,-0.01399,-0.31416,0.0679
-0.68881,0.05161,0.72307,-0.14915,-0.52013,0.21584
-0.69195,0.07721,0.71778,-0.19593,-0.4868,0.43
-0.68803,0.09796,0.71901,-1.09085,0.11465,0.94308
-0.67826,0.12267,0.72449,-0.91893,0.52584,0.42101
-0.66499,0.1638,0.72864,0.02902,0.29944,0.67189
-0.65839,0.2087,0.72314,0.13316,-0.24333,0.01631
-0.6671,0.25923,0.69839,0.27473,-0.40512,-0.12467
-0.68299,0.30811,0.66224,0.30034,-0.04109,-0.2631
-0.69798,0.35615,0.62125,0.48184,0.10479,-0.33588
-0.71289,0.39985,0.57609,0.40823,0.03251,-0.25562
-0.7337,0.43801,0.51942,0.36375,-0.02262,-0.13126
-0.75829,0.47311,0.44848,0.3683,-0.01035,-0.17023
-0.77788,0.50757,0.37047,0.24283,0.16124,-0.26491
-0.78802,0.54151,0.29286,0.08087,0.31028,-0.18216
-0.78905,0.57368,0.21968,-0.16703,0.40651,-0.09877
-0.78185,0.60419,0.15375,-0.22889,0.34108,-0.10941
-0.77108,0.62809,0.1045,-0.22047,0.20538,-0.04486
-0.75832,0.64792,0.07157,-0.17651,-0.01634,-0.05116
-0.74119,0.66953,0.0483,-0.1509,0.01063,-0.11375
-0.71911,0.69395,0.03577,-0.1393,0.04837,-0.12903
-0.69425,0.71924,0.02617,-0.15066,0.27783,-0.09912
-0.66879,0.74324,0.01746,-0.2615,0.39236,-0.14277
-0.64774,0.76175,0.01229,-0.30358,0.34576,-0.13055
-0.63287,0.77419,0.00894,-0.24648,-0.09849,0.05447
-0.6193,0.78514,0.00027,-0.0787,-0.27737,0.00956
-0.60784,0.79396,-0.01208,-0.01452,-0.3103,0.04374
-0.59974,0.79987,-0.0225,0.19857,-0.30722,0.27665
-0.59201,0.80535,-0.0303,0.19389,-0.28896,0.23777
-0.5848,0.81059,-0.03041,0.12509,-0.35321,0.25085
-0.57997,0.8142,-0.02634,-0.06661,-0.58118,0.25409
-0.57905,0.81502,-0.02051,0.01811,-0.59999,0.37026
-0.58273,0.81254,-0.01382,0.07257,-0.51163,0.21028
-0.58961,0.80765,-0.00607,0.10702,-0.38524,-0.05043
-0.59806,0.80143,0.0022,0.2127,-0.29202,-0.31749
-0.60519,0.796,0.01043,0.29875,-0.06702,-0.15941
-0.60497,0.79614,0.01217,-0.00404,0.27782,0.01171
-0.59601,0.80294,0.00592,-0.28147,0.86383,-0.11778
-0.58078,0.81404,-0.00359,-0.33591,1.18749,-0.05293
-0.56127,0.82753,-0.01239,-0.52127,1.10651,-0.08673
-0.54028,0.84124,-0.01979,-0.97026,0.64022,0.28127
-0.51838,0.85484,-0.02261,-0.98805,0.57494,0.38888
-0.49627,0.86791,-0.02064,-0.52944,0.22515,0.51272
-0.47294,0.88091,-0.01745,-0.40507,-0.07032,0.47482
-0.45098,0.89242,-0.01337,-0.40775,-0.22352,0.43777
-0.43895,0.89849,-0.00224,-0.62365,-0.57089,0.39309
-0.44294,0.89637,0.01719,-0.83074,-0.68057,0.34009
-0.46422,0.88457,0.04496,-0.88136,-0.7697,0.2679
-0.49855,0.86368,0.07406,-0.68531,-0.73958,0.30782
-0.53789,0.83791,0.09254,-0.47458,-0.46973,0.23424
-0.57709,0.81023,0.10228,-0.42997,0.02163,0.34301
-0.6085,0.78452,0.11931,-0.25022,0.38171,0.28663
-0.63003,0.76231,0.14805,0.0877,0.50957,0.17957
-0.65158,0.73802,0.17536,0.20521,0.44464,0.17057
-0.67673,0.70987,0.19517,0.02924,0.3324,-0.07301
-0.70611,0.67182,0.2237,-0.23829,0.3741,-0.04055
-0.74759,0.61387,0.25347,-0.4234,0.41777,0.00477
-0.78674,0.54558,0.28873,-0.3314,0.34437,-0.1234
-0.81333,0.47859,0.33077,-0.06215,0.40149,-0.20298
-0.82879,0.41556,0.37467,0.06537,0.4406,-0.2445
-0.83076,0.35676,0.42723,0.36157,0.23207,-0.40297
-0.81858,0.30411,0.48724,0.72551,-0.0154,-0.51161
-0.79742,0.25721,0.54583,0.99609,-0.23243,-0.5523
-0.77178,0.21596,0.59806,1.03074,-0.35964,-0.54043
-0.746,0.18261,0.64039,0.91606,-0.25544,-0.48068
-0.72431,0.15443,0.67193,0.80885,-0.14378,-0.47808
-0.70683,0.12793,0.6957,0.60723,0.071,-0.44803
-0.69339,0.10163,0.71333,0.56658,-0.0034,-0.43539
-0.68414,0.07674,0.72528,0.48286,-0.15929,-0.38258
-0.68081,0.05536,0.73034,0.31237,-0.2965,-0.2859
-0.68257,0.039,0.72975,0.09432,-0.32227,-0.16356
-0.68653,0.02802,0.72654,-0.07208,-0.31484,-0.04363
-0.68993,0.02174,0.72352,-0.28213,-0.35575,0.11872
-0.6917,0.02376,0.72176,-0.55485,-0.4082,0.26626
-0.69036,0.03684,0.7225,-0.7889,-0.53304,0.50055
-0.68816,0.05596,0.72337,-0.9497,-0.23632,0.85872
-0.67857,0.07244,0.73093,-1.06734,0.5301,0.86889
-0.66453,0.09962,0.74056,-0.51563,0.44998,0.43807
-0.65901,0.14036,0.7389,0.67349,-0.11813,0.16751
-0.67089,0.181,0.7191,0.07676,-0.10107,-0.07859
-0.69651,0.21913,0.68324,0.35373,0.0309,-0.19139
-0.72033,0.25678,0.64432,0.27729,0.19883,-0.17992
-0.73943,0.29355,0.60583,0.27824,0.08587,-0.14791
-0.75896,0.32899,0.56188,0.34027,0.03519,-0.08997
-0.77985,0.36374,0.5094,0.418,0.02467,-0.02053
-0.79968,0.39921,0.44845,0.46992,0.05665,-0.02473
-0.8155,0.43639,0.38012,0.45469,0.03807,-0.03205
-0.82409,0.47481,0.30886,0.37596,0.13961,-0.08169
-0.82513,0.51088,0.24113,0.21113,0.26157,-0.07026
-0.82036,0.54241,0.18103,0.13832,0.25541,-0.00211
-0.81221,0.56929,0.12729,0.09172,0.21152,-0.00221
-0.80151,0.59231,0.08203,0.00784,0.02997,9e-05
-0.78818,0.61413,0.03984,-0.00435,-0.00314,-0.01161
-0.772,0.6356,-0.00164,-0.01903,-0.02089,-0.01429
-0.75417,0.65549,-0.03924,-0.06918,0.00947,-0.10391
-0.73701,0.67191,-0.07309,-0.09966,-0.02448,-0.09837
-0.72152,0.6849,-0.10143,-0.15296,-0.09915,-0.08083
-0.70702,0.69641,-0.12296,-0.18228,-0.13196,-0.03928
-0.6931,0.70711,-0.14,-0.17724,-0.18364,-0.00386
-0.67959,0.71741,-0.15321,-0.17063,-0.15387,0.04936
-0.66463,0.72868,-0.16515,-0.10919,-0.11938,0.11499
-0.64697,0.74119,-0.17902,-0.05325,-0.08784,0.11407
-0.62863,0.75379,-0.19132,-0.06581,-0.02318,0.07025
-0.6109,0.76542,-0.20229,-0.02681,-0.04906,0.11378
-0.59206,0.77704,-0.21365,-0.07471,-0.06269,0.06876
-0.57394,0.78798,-0.22284,-0.134,-0.05951,0.01266
-0.55854,0.79743,-0.22832,-0.13024,-0.08199,0.03494
-0.54321,0.80684,-0.23219,-0.13248,-0.10834,0.05825
-0.52676,0.81728,-0.23357,-0.14199,-0.09315,0.16124
-0.51008,0.82776,-0.23369,-0.13906,-0.10171,0.20518
-0.49366,0.8381,-0.23212,-0.16054,-0.13338,0.20279
-0.47846,0.84757,-0.22954,-0.21819,-0.21581,0.13303
-0.4677,0.85448,-0.22607,-0.26954,-0.26445,0.14987
-0.46035,0.85929,-0.2229,-0.27359,-0.26156,0.10202
-0.45394,0.86264,-0.22309,-0.22091,-0.1599,-0.07159
-0.44979,0.86436,-0.22483,-0.19751,0.00139,-0.08762
-0.44782,0.86589,-0.22288,-0.24816,0.22898,0.05862
-0.45149,0.8667,-0.21208,-0.42277,0.14502,0.17627
-0.46289,0.865,-0.19365,-0.54719,0.00565,0.26053
-0.47911,0.86115,-0.16988,-0.30046,0.0684,0.3207
-0.50027,0.85469,-0.13861,-0.00012,0.08372,0.42746
-0.52187,0.84704,-0.10083,0.24197,0.10903,0.44926
-0.54144,0.83836,-0.06305,0.42653,0.19042,0.32738
-0.55848,0.82895,-0.03038,0.47429,0.33262,0.11655
-0.57148,0.8206,-0.00221,0.19445,0.52724,-0.04531
-0.58131,0.81335,0.02268,0.40567,0.12859,-0.16794
-0.60027,0.79819,0.05053,0.12397,0.14117,-0.16752
-0.6227,0.77837,0.07975,-0.20129,0.09641,-0.03169
-0.63976,0.76239,0.09722,-0.23927,0.09137,0.02231
-0.65464,0.74844,0.10614,-0.10906,0.05262,-0.06422
-0.67319,0.72934,0.1219,-0.07634,-0.05993,-0.05408
-0.69139,0.70663,0.15041,-0.02456,-0.08062,-0.00363
-0.7061,0.68392,0.18344,0.03521,-0.08595,0.05974
-0.71735,0.66439,0.20971,0.22937,-0.08529,-0.14687
-0.7244,0.64936,0.23138,0.25599,-0.10881,-0.20515
-0.72681,0.63833,0.25347,0.27866,-0.15497,-0.22065
-0.72601,0.63128,0.27269,0.23926,-0.39744,-0.14537
-0.7223,0.62901,0.28741,0.20599,-0.41899,-0.14342
-0.71501,0.63235,0.29812,0.17477,-0.42829,-0.15205
-0.7049,0.64026,0.30522,0.09636,-0.38192,-0.13014
-0.69366,0.65126,0.30769,0.0591,-0.3748,-0.11759
-0.68233,0.66431,0.30512,0.01746,-0.38273,-0.08707
-0.6703,0.67764,0.30244,-0.16252,-0.27934,0.12288
-0.65549,0.69096,0.30476,-0.26623,-0.23292,0.21471
-0.64038,0.70297,0.3094,-0.39573,-0.19325,0.34037
-0.62929,0.70987,0.31631,-0.71037,0.02747,0.41589
-0.62365,0.71119,0.32441,-0.57609,-0.00035,0.39536
-0.62255,0.71576,0.31636,-0.1214,-0.13765,0.22158
-0.62038,0.72914,0.28889,0.10187,-0.01278,0.25333
-0.61063,0.75069,0.25214,0.1814,0.32016,0.11812
-0.59777,0.76896,0.22658,-0.06719,1.78983,-0.13714
-0.60189,0.76491,0.22939,0.37971,0.77368,0.33117
-0.61454,0.7567,0.22298,0.46836,0.19903,0.14909
-0.63053,0.75138,0.19453,0.4867,-0.55996,-0.21752
-0.6366,0.757,0.14722,0.56104,-0.38416,-0.70324
-0.62927,0.76895,0.11277,0.34658,0.10219,-0.82232
-0.6187,0.77777,0.11076,0.2083,0.27364,-0.33368
-0.61002,0.78493,0.10831,0.05221,0.36892,-0.25689
-0.60364,0.79215,0.08996,-0.03321,0.32841,-0.24442
-0.5991,0.79838,0.06034,-0.10205,0.07473,-0.18424
-0.5974,0.80138,0.02975,-0.04609,0.02711,-0.18835
-0.59981,0.80011,0.00597,0.11617,-0.00294,-0.27369
-0.60317,0.79753,-0.01094,0.23303,0.04027,-0.39683
-0.60479,0.79599,-0.02477,0.26933,0.13674,-0.35945
-0.60553,0.79492,-0.03775,0.09419,0.14655,-0.22898
-0.60725,0.79332,-0.04338,-0.21654,0.10225,-0.16591
-0.61115,0.79032,-0.04325,-0.44444,-0.04806,-0.22775
-0.61733,0.78561,-0.04126,-0.48236,-0.32203,-0.29102
-0.62648,0.7786,-0.03591,-0.3895,-0.54706,-0.14672
-0.64003,0.76774,-0.03028,-0.28652,-0.59392,0.0212
-0.65766,0.75287,-0.02554,-0.20292,-0.49037,0.02517
-0.67698,0.73571,-0.02028,-0.16114,-0.41465,-0.01363
-0.69687,0.71706,-0.01284,-0.08722,-0.36738,0.133
-0.71613,0.69794,-0.00377,-0.0425,-0.34706,0.20604
-0.73286,0.68027,0.01133,0.0888,-0.15931,0.54134
-0.74934,0.66144,0.03102,0.02427,0.01681,0.19337
-0.76655,0.64033,0.04851,-0.05177,0.0388,-0.15602
-0.77787,0.62558,0.05952,0.16233,0.14609,-0.53229
-0.77499,0.62938,0.05702,0.11282,0.53401,0.28187
-0.76156,0.64616,0.04981,-0.46011,0.91652,-0.08045
-0.74466,0.66608,0.04243,-0.71221,0.76934,0.10545
-0.72532,0.68766,0.0318,-0.74494,0.64779,0.20749
-0.70623,0.7075,0.02581,-0.8829,0.66093,0.16784
-0.68759,0.72544,0.03054,-0.98419,0.6813,0.02767
-0.66926,0.74155,0.04664,-0.2172,0.13037,0.28139
-0.65033,0.75688,0.06464,0.02063,0.08246,0.25654
-0.6321,0.77097,0.07763,0.1897,-0.01133,0.28337
-0.61785,0.7818,0.08384,-0.12305,-0.66003,0.04323
-0.61093,0.7867,0.08852,-0.30389,-0.62008,0.00346
-0.61208,0.78443,0.10009,-0.46704,-0.55985,0.0534
-0.62186,0.77449,0.11591,-0.40473,-0.34834,0.15974
-0.63865,0.75865,0.12866,-0.26129,-0.22705,0.12018
-0.6599,0.73782,0.14192,-0.05245,0.09823,0.07873
-0.6842,0.71137,0.16062,-0.04912,0.21313,0.20108
-0.71051,0.68067,0.17843,-0.08729,0.27876,0.25859
-0.73453,0.64925,0.19725,-0.23321,0.4298,0.27632
-0.75158,0.62288,0.21706,-0.01707,0.58885,0.16393
-0.77076,0.59286,0.23331,0.07903,0.65205,0.09157
-0.79352,0.55526,0.24896,0.03084,0.55138,-0.14994
-0.82052,0.5032,0.27114,-0.19318,0.53648,0.03598
-0.85683,0.42782,0.28773,-0.25049,0.53282,0.01973
-0.88264,0.34195,0.32247,-0.23897,0.45462,-0.23951
-0.88854,0.26533,0.37427,0.04736,0.57725,-0.29425
-0.88226,0.19853,0.42681,0.15094,0.61363,-0.44564
-0.8638,0.13907,0.48423,0.61942,0.2854,-0.44013
-0.83581,0.08772,0.54194,0.87844,0.0103,-0.54158
-0.8014,0.04055,0.59673,0.92371,-0.09251,-0.56635
-0.76796,-0.00016,0.64047,0.86803,-0.09055,-0.44168
-0.73918,-0.03305,0.67267,0.58559,0.06726,-0.44743
-0.71402,-0.06223,0.69732,0.43288,0.14427,-0.41133
-0.69092,-0.09068,0.7172,0.41417,0.12047,-0.34268
-0.67097,-0.11701,0.73217,0.38629,0.05352,-0.36332
-0.6556,-0.13965,0.74205,0.31339,0.03554,-0.38979
-0.64527,-0.16043,0.74689,0.21616,0.07585,-0.33973
-0.63825,-0.18054,0.74834,0.15453,0.08802,-0.2381
-0.63218,-0.19974,0.74861,0.12757,0.05391,-0.20233
-0.62851,-0.21502,0.74746,0.04715,-0.0588,-0.02799
-0.62835,-0.22081,0.74591,-0.21042,-0.07472,0.08864
-0.62879,-0.21071,0.74845,-0.35434,-0.07438,0.09133
-0.62917,-0.18351,0.75527,-0.53541,-0.13192,0.59523
-0.62332,-0.15948,0.76551,-1.67835,0.66257,0.79049
-0.60742,-0.12944,0.78374,-0.86924,0.55705,0.45967
-0.59365,-0.08221,0.80049,0.40905,0.31527,0.56748
-0.59405,-0.03325,0.80372,0.33253,0.06164,-0.11321
-0.60844,0.01751,0.79338,0.29394,0.02829,-0.12994
-0.63309,0.06587,0.77125,0.24658,0.08822,-0.21524
-0.65741,0.11393,0.74484,0.33491,0.3094,-0.29353
-0.68414,0.15957,0.71165,0.23973,0.31529,-0.26844
-0.71698,0.20306,0.66684,0.24252,0.30219,-0.2083
-0.75372,0.24642,0.60922,0.36807,0.36259,-0.3521
-0.79042,0.2909,0.53906,0.40973,0.33178,-0.31483
-0.82143,0.33565,0.46104,0.43403,0.30459,-0.33074
-0.84254,0.37703,0.38464,0.18203,0.40632,-0.33303
-0.8557,0.41358,0.31097,0.0253,0.38132,-0.26149
-0.85867,0.45191,0.24173,-0.18567,0.29555,-0.21931
-0.85434,0.48328,0.19108,-0.08712,0.2679,-0.24322
-0.84613,0.5106,0.15275,-0.04532,0.21759,-0.21319
-0.83441,0.53694,0.12424,-0.07973,0.13382,-0.24553
-0.81889,0.56337,0.10962,0.01533,0.0626,-0.24031
-0.80386,0.58563,0.10407,0.06295,-0.00318,-0.17997
-0.79067,0.60441,0.09748,0.05682,-0.1909,-0.16819
-0.77747,0.62132,0.09734,0.01249,-0.23956,-0.10846
-0.76536,0.63568,0.10051,-0.01962,-0.27174,-0.0997
-0.75616,0.64625,0.10277,-0.19849,-0.30308,-0.03826
-0.75011,0.65316,0.10345,-0.25658,-0.29798,-0.03222
-0.7484,0.65444,0.10764,-0.14785,-0.35174,0.00129
-0.75074,0.65104,0.11184,0.00335,-0.29595,0.13966
-0.7546,0.646,0.11509,0.16578,-0.11681,0.0976
-0.75702,0.64194,0.1217,0.26903,-0.00848,-0.06364
-0.75963,0.63736,0.12929,0.20667,0.00926,-0.20256
-0.75955,0.63512,0.14028,0.17137,0.10302,-0.0155
-0.75454,0.63933,0.14803,0.05225,0.18741,-0.10472
-0.74314,0.6517,0.15166,-0.17011,0.47042,-0.12929
-0.72592,0.67203,0.14624,-0.15099,0.79782,-0.15111
-0.70448,0.69646,0.13645,-0.11436,0.97239,-0.08642
-0.68104,0.72114,0.12694,-0.7936,1.12813,-0.08304
-0.65794,0.74277,0.12402,-0.94864,0.66219,0.30375
-0.63624,0.76103,0.12655,-0.64111,0.34964,0.22538
-0.61717,0.77544,0.13335,-0.17956,0.06574,0.23521
-0.60143,0.78667,0.13933,0.11845,-0.16393,0.24393
-0.59476,0.79055,0.14584,0.01918,-0.27393,0.23629
-0.6023,0.7823,0.15878,-0.45894,-0.39576,0.06351
-0.62581,0.75837,0.18223,-0.62724,-0.40234,0.00472
-0.66041,0.72147,0.20809,-0.58768,-0.39559,0.06169
-0.69799,0.68027,0.22364,-0.25303,-0.1649,-0.01261
-0.7294,0.64199,0.23623,-0.08124,0.3706,0.42188
-0.75076,0.60815,0.25783,0.18556,0.49104,0.33096
-0.77229,0.57195,0.27644,0.2251,0.18867,-0.15435
-0.79385,0.53455,0.28989,-0.09844,0.2023,-0.29965
-0.81279,0.49212,0.31172,-0.34841,0.35181,-0.22343
-0.83956,0.42579,0.33735,-0.85613,0.3098,-0.05359
-0.85846,0.34957,0.37526,-0.29193,0.34314,-0.16382
-0.8627,0.27739,0.42281,-0.12173,0.45867,-0.18914
-0.85926,0.21092,0.466,0.00266,0.53775,-0.24457
-0.84599,0.15133,0.51124,0.6821,0.50132,-0.16971
-0.82694,0.09849,0.55356,0.82919,0.47109,-0.30769
-0.80293,0.04737,0.59416,1.04664,0.26168,-0.27928
-0.77802,0.00036,0.62821,1.04177,-0.01498,-0.27398
-0.75795,-0.0379,0.65119,0.93712,-0.17035,-0.34491
-0.73728,-0.06834,0.67209,0.52767,0.06292,-0.43581
-0.71194,-0.09206,0.69615,0.44317,0.06365,-0.40993
-0.68495,-0.11015,0.72019,0.42685,-0.00045,-0.39005
-0.6627,-0.12207,0.73884,0.40889,-0.18921,-0.31544
-0.64868,-0.12271,0.75108,0.1179,-0.22123,-0.17019
-0.64462,-0.11093,0.75639,-0.08138,-0.20787,-0.06923
-0.64903,-0.08941,0.75547,-0.40949,-0.13413,-0.03438
-0.6559,-0.05692,0.75267,-0.21954,-0.12052,-0.00311
-0.66217,-0.02407,0.74894,-0.4534,-0.05908,0.3451
-0.66524,-0.00714,0.74657,-1.06123,0.9009,-0.13605
-0.66048,0.0353,0.74999,0.43409,1.06285,0.50609
-0.65094,0.0749,0.7554,-0.05318,0.54258,0.06839
-0.65491,0.11868,0.7463,0.47842,-0.28411,-0.5153
-0.6694,0.16065,0.7253,0.51262,0.02173,-0.38457
-0.68952,0.19819,0.6966,0.33582,0.2531,-0.34711
-0.71436,0.23437,0.65934,0.19461,0.33875,-0.317
-0.74341,0.26771,0.61289,0.203,0.37703,-0.26873
-0.77175,0.30276,0.55919,0.16195,0.37416,-0.30888
-0.79558,0.3405,0.50109,0.12474,0.35107,-0.2791
-0.8136,0.37696,0.44264,0.05328,0.33004,-0.20715
-0.82655,0.40796,0.38776,-0.01163,0.26106,-0.20051
-0.83464,0.43331,0.33999,-0.06188,0.19616,-0.09219
-0.83741,0.45614,0.3011,-0.02635,0.16097,-0.12486
-0.83391,0.48048,0.27149,0.00668,0.12984,-0.2044
-0.82413,0.50714,0.25218,0.01957,0.17839,-0.15916
-0.81207,0.53338,0.2367,-0.01543,0.21828,-0.24195
-0.79966,0.55663,0.22513,-0.02888,0.21545,-0.21976
-0.78691,0.57749,0.21736,-0.11468,0.23345,-0.25741
-0.77334,0.59757,0.21173,-0.14957,0.17598,-0.23955
-0.75846,0.61719,0.20927,-0.17777,0.14186,-0.22324
-0.74462,0.6355,0.20411,-0.09278,0.10942,-0.13074
-0.73358,0.65105,0.19485,0.05202,-0.0227,-0.07319
-0.72318,0.6653,0.1854,0.10628,-0.07375,-0.05335
-0.71167,0.67924,0.17927,0.17702,-0.15223,0.05867
-0.69961,0.69301,0.17396,0.1659,-0.26365,0.05103
-0.68901,0.70423,0.17119,0.14287,-0.30306,0.07305
-0.68101,0.71199,0.17109,0.10324,-0.38532,0.0872
-0.67655,0.71558,0.17376,0.1268,-0.38201,0.29926
-0.67637,0.71441,0.1792,0.12307,-0.30235,0.10418
-0.67903,0.71002,0.18646,0.1859,-0.17515,-0.21359
-0.67935,0.70749,0.19471,0.1839,0.0195,-0.12658
-0.67389,0.71222,0.19648,0.01432,0.32013,-0.10337
-0.66238,0.72458,0.19031,-0.05524,0.84253,-0.33267
-0.64462,0.7436,0.17751,-0.096,1.15144,-0.41303
-0.62236,0.76582,0.16174,-0.37878,1.1974,-0.23342
-0.59846,0.78691,0.15034,-0.61046,0.75432,0.22256
-0.57552,0.80513,0.14322,-0.54989,0.58154,0.30536
-0.55317,0.82136,0.13909,-0.37676,0.34517,0.26881
-0.52973,0.83722,0.13573,-0.18439,-0.12615,0.32266
-0.50861,0.8507,0.13266,-0.30624,-0.38923,0.3798
-0.4965,0.85714,0.13706,-0.55378,-0.57143,0.28767
-0.49956,0.85279,0.1522,-0.70018,-0.64433,0.13259
-0.51907,0.8364,0.17598,-0.63518,-0.72261,0.00586
-0.55012,0.81163,0.19645,-0.42812,-0.59539,-0.09344
-0.58645,0.78387,0.20398,-0.2393,-0.24464,-0.06868
-0.62321,0.75541,0.20237,-0.13146,0.23127,0.03676
-0.65254,0.72756,0.21172,0.01423,0.60392,0.20974
-0.67257,0.70265,0.23218,0.27186,0.71123,0.31134
-0.69178,0.67889,0.24602,0.40209,0.67601,0.12071
-0.71428,0.65256,0.25286,0.389,0.50048,-0.16583
-0.73576,0.62459,0.26178,0.28791,0.47324,-0.23735
-0.75772,0.59602,0.26568,0.09105,0.39004,-0.19816
-0.78454,0.55826,0.26984,-0.1505,0.42074,-0.1274
-0.81614,0.50306,0.28428,-0.25071,0.28025,-0.14017
-0.83939,0.44764,0.30824,-0.22746,0.33566,-0.16412
-0.85365,0.39838,0.33549,0.11502,0.36821,-0.13775
-0.85972,0.35537,0.36684,0.49438,0.23699,-0.30591
-0.858,0.31745,0.40377,0.75847,0.05123,-0.28354
-0.85272,0.2851,0.43768,0.86908,-0.01062,-0.26562
-0.84732,0.25784,0.46426,1.00681,-0.17275,-0.32337
-0.84164,0.23665,0.48539,0.96661,-0.21599,-0.37042
-0.83547,0.22164,0.50283,0.92135,-0.18339,-0.39164
-0.82916,0.21152,0.51742,0.75374,-0.06501,-0.38809
-0.82193,0.20414,0.53172,0.44657,0.00298,-0.34106
-0.8135,0.19881,0.5465,0.35343,-0.00877,-0.30071
-0.80429,0.19714,0.56056,0.23227,-0.08531,-0.21137
-0.79616,0.20221,0.57028,0.01023,-0.17624,-0.10734
-0.79142,0.21663,0.57157,-0.25495,-0.24574,0.02818
-0.78928,0.24004,0.56514,-0.33698,-0.20765,0.07457
-0.78887,0.27091,0.5516,-0.2371,-0.1256,0.03803
-0.79261,0.30117,0.53012,-0.13723,0.07621,0.36981
-0.79655,0.31319,0.5171,-0.22838,0.47288,0.63721
-0.79947,0.31944,0.5087,0.30667,1.09836,-0.0656
-0.79009,0.34674,0.50547,1.26615,0.32488,0.58796
-0.78519,0.36832,0.49778,1.23469,-0.32418,0.01611
-0.79902,0.39691,0.45167,0.69822,-0.34738,-0.08758
-0.81295,0.42884,0.39394,0.40547,-0.07875,0.01289
-0.82628,0.45416,0.33313,0.1115,0.28366,-0.11812
-0.83651,0.4811,0.26225,-0.13336,0.68365,-0.08915
-0.8368,0.51273,0.19194,-0.21076,0.6928,-0.17964
-0.83475,0.53393,0.13447,0.10695,0.12087,-0.07685
-0.83302,0.54732,0.08061,0.18626,-0.01875,-0.08716
-0.82586,0.56306,0.0299,0.20961,0.01724,-0.06366
-0.81364,0.58122,-0.01226,0.24974,0.3098,-0.08016
-0.80064,0.59732,-0.04646,0.23694,0.36545,-0.10337
-0.78862,0.60999,-0.07731,0.22955,0.32573,-0.07953
-0.77637,0.62105,-0.10738,0.15993,0.21985,-0.11369
-0.76285,0.63223,-0.13538,0.12557,0.16475,-0.10681
-0.74772,0.64447,-0.15985,0.06637,0.13527,-0.08868
-0.73244,0.65658,-0.18004,0.08052,0.10755,-0.00073
-0.71716,0.6676,-0.19994,0.04133,0.12972,-0.01675
-0.7036,0.67527,-0.22121,0.1164,0.12113,0.02223
-0.69033,0.68151,-0.24283,0.16749,0.09722,0.05879
-0.6757,0.68942,-0.26098,0.24985,0.13488,0.06976
-0.66082,0.69798,-0.27591,0.28828,0.17872,0.05489
-0.64745,0.70549,-0.28822,0.27309,0.18245,0.00168
-0.63627,0.71164,-0.29785,0.22714,0.16204,0.01614
-0.62527,0.71826,-0.30516,0.12945,0.12594,-0.01943
-0.61463,0.72596,-0.30854,0.0779,0.07221,-0.00198
-0.60387,0.73412,-0.31048,0.0912,0.05354,0.00278
-0.59424,0.74177,-0.31087,0.11072,0.03919,-0.04466
-0.58418,0.74907,-0.31244,0.09657,-0.02154,-0.09572
-0.57324,0.75652,-0.31474,0.0206,-0.07311,-0.08858
-0.56224,0.76344,-0.31784,-0.04776,-0.10651,-0.0662
-0.55211,0.76957,-0.32082,-0.16719,-0.16385,0.05663
-0.54226,0.7751,-0.32428,-0.04125,-0.09208,0.12459
-0.5323,0.78032,-0.32824,-0.05121,-0.09731,0.12855
-0.52189,0.78543,-0.33274,0.13346,-0.00746,0.11817
-0.51071,0.79083,-0.33727,0.16248,-0.00268,0.09643
-0.49808,0.79684,-0.34197,0.10678,0.00871,0.06623
-0.48492,0.80356,-0.34514,-0.02109,-0.02022,0.06027
-0.47207,0.81071,-0.34625,-0.19425,-0.03159,0.15756
-0.45924,0.81777,-0.34688,-0.22455,0.00077,0.19243
-0.44745,0.8247,-0.34589,-0.2417,0.02849,0.20978
-0.43614,0.83202,-0.34279,-0.33182,0.06052,0.165
-0.42507,0.83943,-0.33861,-0.36421,0.06484,0.15398
-0.41418,0.84656,-0.33432,-0.38281,0.05398,0.15504
-0.40426,0.85303,-0.33,-0.3173,-0.00175,0.20864
-0.39514,0.85898,-0.32559,-0.3218,-0.00293,0.19185
-0.38948,0.8634,-0.32067,-0.34799,0.01577,0.16363
-0.38741,0.86572,-0.3169,-0.32877,0.07041,0.25721
-0.39185,0.86681,-0.30833,-0.34062,0.00974,0.21881
-0.40366,0.86625,-0.29437,-0.26169,-0.14292,0.22159
-0.42431,0.86266,-0.27525,-0.11508,-0.12859,0.28504
-0.45342,0.85546,-0.25017,-0.01301,-0.1046,0.31268
-0.48926,0.84442,-0.21809,0.1359,0.03846,0.36439
-0.52724,0.82935,-0.18487,0.10186,0.28809,0.38853
-0.56184,0.81182,-0.15892,0.0611,0.45953,0.36135
-0.5879,0.79586,-0.14474,0.13078,0.58367,0.20688
-0.60639,0.78339,-0.13629,0.20694,0.53396,0.04417
-0.62584,0.77042,-0.12147,0.18287,0.4472,0.05891
-0.64611,0.75622,-0.1032,0.02254,0.18496,0.26436
-0.66723,0.73998,-0.08492,-0.06655,0.10006,0.24481
-0.68942,0.72118,-0.06762,-0.0656,0.1181,0.20698
-0.7146,0.69774,-0.0497,0.06612,0.24417,0.22784
-0.74172,0.67009,-0.02855,0.11107,0.42156,0.04705
-0.77104,0.63672,0.00733,0.2132,0.47009,0.22846
-0.79691,0.60262,0.04186,0.34954,0.4288,0.35473
-0.81819,0.57058,0.07054,0.39128,0.40876,0.22931
-0.83525,0.54134,0.09636,0.28755,0.35661,0.0314
-0.84924,0.51122,0.13197,0.06944,0.19943,-0.0066
-0.85843,0.48185,0.17576,-0.07558,-0.00998,0.06326
-0.86184,0.45745,0.21895,-0.0276,-0.09777,0.03549
-0.86096,0.43717,0.26001,0.06433,-0.15405,-0.04881
-0.85654,0.41991,0.29997,0.11708,-0.21801,-0.02947
-0.8495,0.40611,0.33674,0.19853,-0.23638,-0.01024
-0.84133,0.39566,0.36821,0.33538,-0.26432,0.05447
-0.83275,0.38754,0.39536,0.32274,-0.23251,0.08579
-0.82496,0.38032,0.41803,0.30354,-0.20665,0.08804
-0.81832,0.37283,0.43739,0.24689,-0.12729,0.1243
-0.81285,0.36424,0.45449,0.22112,-0.12238,0.12835
-0.80764,0.35567,0.47029,0.22127,-0.13386,0.10333
-0.80171,0.34857,0.48551,0.23524,-0.18244,0.07569
-0.79537,0.34367,0.49923,0.22004,-0.22157,0.12291
-0.78808,0.34372,0.51063,0.17748,-0.2636,0.14983
-0.77866,0.35131,0.51983,0.15136,-0.28396,0.13212
-0.76773,0.36707,0.52517,0.17539,-0.25956,0.26554
-0.75795,0.38498,0.52655,0.0674,-0.09052,0.55507
-0.75155,0.39766,0.52632,-0.37513,0.24282,0.75009
-0.75252,0.40687,0.51781,-0.2382,0.25785,0.04127
-0.74996,0.42657,0.50554,0.07549,0.11308,0.13893
-0.74677,0.44458,0.49461,0.23542,-0.07355,0.29755
-0.74679,0.46936,0.47114,0.54946,-0.39169,-0.19674
-0.75321,0.49947,0.42799,0.42324,-0.33161,-0.27937
-0.76208,0.52959,0.37247,0.36967,-0.22938,-0.20756
-0.77018,0.55879,0.30748,0.07766,0.28334,-0.24153
-0.77575,0.58472,0.23726,0.01529,0.35823,-0.22429
-0.7769,0.60727,0.16621,-0.2345,0.46959,-0.21244
-0.77106,0.62819,0.10398,-0.26092,0.36154,-0.19016
-0.75881,0.64911,0.05335,-0.19612,0.27358,-0.12972
-0.74267,0.66951,0.01296,-0.06284,0.18092,-0.04812
-0.72256,0.69104,-0.01859,0.02325,0.17645,-0.09258
-0.69971,0.71329,-0.03987,0.04993,0.18235,-0.04741
-0.67622,0.73447,-0.05708,0.09872,0.26688,-0.0641
-0.65423,0.75281,-0.07234,0.06163,0.27795,-0.13215
-0.63449,0.76852,-0.08238,-0.02565,0.23554,-0.14938
-0.61505,0.78371,-0.08653,-0.12791,0.04477,0.01129
-0.59766,0.79663,-0.09037,-0.18864,-0.08673,-0.00743
-0.58364,0.80628,-0.09621,-0.19521,-0.16333,-0.00276
-0.573,0.81272,-0.10553,-0.09477,-0.26017,0.055
-0.56739,0.81589,-0.11116,-0.05684,-0.27187,0.18069
-0.56376,0.81835,-0.11162,-0.06337,-0.25085,0.09911
-0.56297,0.81956,-0.10658,-0.093,-0.34138,0.10597
-0.56458,0.81949,-0.09835,-0.15834,-0.38316,0.12894
-0.56881,0.81764,-0.08888,-0.2076,-0.39512,0.13373
-0.5757,0.8137,-0.08028,-0.1588,-0.34788,0.1424
-0.58517,0.80747,-0.07446,-0.07506,-0.24179,0.1264
-0.59587,0.8,-0.07017,0.05174,-0.1327,0.08541
-0.60527,0.79355,-0.06255,0.13438,-0.05963,0.1382
-0.61135,0.78961,-0.05242,0.05573,-0.0243,-0.0779
-0.61403,0.78817,-0.04153,0.06734,0.02589,-0.06259
-0.61159,0.79039,-0.03475,0.02669,0.15107,0.03918
-0.60235,0.79744,-0.03534,-0.26557,0.72611,0.00314
-0.58547,0.80968,-0.04012,-0.2436,0.9113,0.05512
-0.56342,0.82512,-0.0413,-0.70994,1.08443,-0.1115
-0.54074,0.84046,-0.03468,-0.82753,0.56233,0.06551
-0.51801,0.85502,-0.02408,-0.71968,0.33741,0.19159
-0.49555,0.86845,-0.01412,-0.32655,0.09116,0.25921
-0.46994,0.88264,-0.00907,-0.23018,-0.12916,0.15747
-0.44253,0.89671,-0.00709,-0.40725,-0.36783,0.39231
-0.42287,0.90617,0.00328,-0.8043,-0.51609,0.43758
-0.42172,0.90636,0.0251,-1.07697,-0.5912,0.3938
-0.4399,0.89656,0.05143,-0.85645,-0.68708,0.20802
-0.46878,0.87991,0.07736,-0.60132,-0.72959,0.08546
-0.49978,0.8607,0.09685,-0.43152,-0.56861,0.10336
-0.52869,0.84206,0.10672,-0.40676,-0.33965,0.44596
-0.55387,0.82474,0.114,-0.36703,-0.03091,0.45954
-0.57634,0.80588,0.1355,-0.29451,0.05937,0.3193
-0.59841,0.78551,0.15763,-0.18454,0.04312,0.10781
-0.62505,0.76062,0.17533,-0.27623,0.08751,-0.04297
-0.65817,0.7268,0.19634,-0.48836,0.24702,0.12516
-0.70083,0.67836,0.22052,-0.29491,0.31402,-0.08
-0.74351,0.62045,0.2494,-0.15299,0.36205,-0.1574
-0.77819,0.55846,0.28725,-0.03027,0.31768,-0.08725
-0.80446,0.49649,0.32604,0.08141,0.23575,-0.13015
-0.82005,0.43945,0.36655,0.29581,0.1492,-0.25305
-0.8252,0.3861,0.41222,0.54823,-0.04135,-0.35164
-0.82237,0.33686,0.45847,0.68053,-0.13495,-0.37512
-0.8144,0.29303,0.50084,0.90557,-0.31334,-0.39489
-0.80407,0.25592,0.5366,0.78762,-0.23374,-0.408
-0.79275,0.22315,0.5672,0.67477,-0.11906,-0.42238
-0.7798,0.19379,0.59524,0.4379,-0.07554,-0.37576
-0.76679,0.16621,0.61998,0.46057,-0.13687,-0.29506
-0.75604,0.14181,0.63894,0.48686,-0.17241,-0.29882
-0.75015,0.12117,0.65004,0.46455,-0.17261,-0.26529
-0.74997,0.10241,0.65347,0.29578,-0.09397,-0.21238
-0.75262,0.08358,0.65309,0.2124,-0.07564,-0.16815
-0.75485,0.06719,0.65242,-0.06875,-0.23853,0.01328
-0.75666,0.05904,0.65111,-0.33931,-0.36789,0.05572
-0.75619,0.06576,0.65101,-0.3458,-0.37972,0.14179
-0.75174,0.08281,0.65421,-0.59345,-0.16281,0.67432
-0.74156,0.09827,0.66362,-0.99154,0.09556,0.73269
-0.72487,0.12631,0.67718,-0.23943,0.43692,0.44597
-0.70516,0.16443,0.68969,-0.15545,0.27406,0.60427
-0.69779,0.20877,0.68518,0.13651,-0.14742,-0.04631
-0.70369,0.25809,0.66194,0.14732,-0.16788,-0.1301
-0.71707,0.30776,0.62534,0.40469,0.11704,-0.37525
-0.73047,0.35554,0.58307,0.36322,0.19489,-0.21164
-0.74483,0.39743,0.53594,0.26443,0.1534,-0.14831
-0.76024,0.43505,0.48242,0.25112,0.13382,-0.03696
-0.77433,0.4707,0.42288,0.34246,0.12975,-0.16371
-0.78492,0.50756,0.3553,0.34588,0.08722,-0.19034
-0.78884,0.54527,0.28351,0.30819,0.07013,-0.17163
-0.78514,0.58203,0.21156,0.08394,0.23135,-0.12853
-0.77493,0.61569,0.14272,-0.01401,0.23926,-0.07572
-0.76022,0.64404,0.08514,-0.18685,0.22753,-0.08608
-0.74177,0.66913,0.04484,-0.30115,0.18228,-0.03569
-0.72093,0.69278,0.01696,-0.31226,0.11638,-0.10633
-0.69835,0.71573,0.00372,-0.25648,0.03252,-0.14722
-0.67627,0.73664,-0.00204,-0.2,0.07673,-0.16258
-0.65643,0.75435,-0.00555,-0.20798,0.09526,-0.14519
-0.63909,0.76906,-0.0092,-0.1747,-0.01901,-0.0811
-0.62407,0.78127,-0.01165,-0.14012,-0.14418,0.00139
-0.61113,0.79139,-0.01422,0.00676,-0.21575,0.08712
-0.60106,0.79901,-0.01705,0.08243,-0.26184,0.17306
-0.59406,0.80421,-0.01785,0.10981,-0.26368,0.16276
-0.58961,0.80748,-0.0177,0.1195,-0.2821,0.17061
-0.58657,0.80976,-0.01405,0.07124,-0.33839,0.1356
-0.58513,0.81087,-0.00954,0.06134,-0.41301,0.17065
-0.58454,0.81133,-0.00552,0.04196,-0.39639,0.17914
-0.58601,0.81029,0.00024,0.0068,-0.24632,0.07111
-0.58943,0.80776,0.00817,0.02728,-0.16598,-0.04414
-0.59242,0.80544,0.01669,0.03842,-0.10953,-0.08522
-0.5924,0.80522,0.02576,-0.00634,0.12358,-0.02745
-0.5882,0.80802,0.03305,-0.18411,0.27022,-0.09627
-0.57751,0.81569,0.03316,-0.3784,0.43205,-0.07741
-0.5597,0.82831,0.02483,-0.61231,0.68541,-0.10049
-0.53825,0.84266,0.01364,-0.91771,0.75323,0.05209
-0.51558,0.85682,0.00415,-0.89176,0.60369,0.30262
-0.49292,0.87005,0.00304,-0.67663,0.37958,0.49506
-0.4693,0.88298,0.0092,-0.36739,0.23654,0.40645
-0.44248,0.89658,0.01796,-0.34516,0.11623,0.3246
-0.41288,0.91044,0.02461,-0.36991,-0.38187,0.3429
-0.38972,0.92042,0.03039,-0.541,-0.58225,0.37374
-0.38291,0.92283,0.04169,-0.68632,-0.6524,0.33808
-0.39746,0.91553,0.06161,-0.87805,-0.74578,0.21847
-0.43036,0.89863,0.08505,-0.71361,-0.75697,0.20722
-0.47269,0.87516,0.10308,-0.5688,-0.65063,0.18087
-0.51586,0.8488,0.11579,-0.26787,-0.15596,0.11001
-0.55469,0.82071,0.13687,-0.21621,0.05046,0.24459
-0.58318,0.79535,0.16519,-0.11126,0.35034,0.59822
-0.60857,0.77021,0.19074,0.20039,0.37188,0.21635
-0.63571,0.74096,0.21638,0.09261,0.14497,-0.02389
-0.65918,0.71352,0.23735,-0.12821,0.13048,-0.18865
-0.68433,0.68404,0.25251,-0.25165,0.21281,-0.16534
-0.7214,0.64002,0.26445,-0.49673,0.30516,-0.1412
-0.76263,0.5777,0.29091,-0.48783,0.35364,-0.20546
-0.79413,0.51115,0.32872,-0.16199,0.39106,-0.04244
-0.81592,0.44922,0.36393,0.04236,0.4805,-0.20275
-0.82917,0.3929,0.39759,0.1562,0.54248,-0.3149
-0.83099,0.34044,0.43991,0.58593,0.30543,-0.3632
-0.82674,0.29136,0.48123,0.93904,-0.02229,-0.40075
-0.81795,0.24589,0.52005,1.0338,-0.15031,-0.44036
-0.80604,0.20817,0.55402,0.93999,-0.39988,-0.4193
-0.79408,0.17847,0.58098,0.66963,-0.25861,-0.38216
-0.78351,0.1526,0.60232,0.56256,-0.13839,-0.36247
-0.7733,0.12827,0.6209,0.48413,0.01206,-0.34359
-0.76433,0.10677,0.63589,0.48833,-0.09662,-0.35983
-0.76105,0.09003,0.64238,0.49381,-0.16808,-0.34556
-0.76333,0.0762,0.64147,0.33119,-0.25139,-0.20165
-0.76941,0.06383,0.63552,0.14577,-0.20699,-0.08615
-0.77535,0.05554,0.62905,0.06251,-0.23417,-0.04702
-0.78069,0.05367,0.62257,-0.10468,-0.30873,0.04329
-0.78707,0.05564,0.61432,-0.6293,-0.26513,0.49618
-0.79109,0.05749,0.60896,-0.94117,-0.11636,0.56882
-0.78773,0.06947,0.61206,-0.94039,-0.00053,0.59289
-0.77923,0.09402,0.61962,-0.30271,0.06318,0.53785
-0.76861,0.12754,0.62684,-0.15874,-0.05921,0.38566
-0.76556,0.17182,0.61997,-0.19121,-0.12496,0.1681
-0.76868,0.21963,0.60071,0.0427,0.07634,0.08874
-0.77297,0.27143,0.57342,0.24718,0.23413,-0.03336
-0.77683,0.32118,0.54161,0.38648,0.1762,-0.25491
-0.78131,0.36712,0.50472,0.4461,0.06172,-0.15289
-0.78938,0.40847,0.45826,0.39202,-0.01021,-0.09832
-0.79896,0.44912,0.39989,0.42029,-0.03466,-0.08993
-0.80566,0.49102,0.33133,0.38981,0.00943,-0.12777
-0.80671,0.53299,0.25517,0.3592,0.04826,-0.05987
-0.80058,0.57198,0.17853,0.15054,0.23138,-0.08424
-0.78591,0.60927,0.10541,-0.14368,0.30359,0.02058
-0.7653,0.64224,0.04259,-0.15613,0.25173,0.04592
-0.74725,0.66453,0.00016,-0.20406,-0.12501,0.04366
-0.72755,0.68547,-0.02783,-0.22838,-0.23861,0.02281
-0.70496,0.70776,-0.04565,-0.23853,-0.18554,-0.07131
-0.68298,0.72838,-0.05457,-0.1654,-0.12639,-0.02722
-0.66322,0.74574,-0.06314,-0.17516,-0.1015,-0.13054
-0.64582,0.76035,-0.06903,-0.15252,-0.05294,-0.09047
-0.63134,0.77221,-0.07129,-0.15415,-0.06976,-0.06461
-0.61968,0.78128,-0.07471,-0.18315,0.01622,0.0509
-0.61131,0.78698,-0.08332,-0.13576,0.0308,0.06133
-0.6046,0.79126,-0.09137,0.00862,0.02171,0.04317
-0.5973,0.7959,-0.09873,0.09902,0.01328,0.12177
-0.58789,0.80211,-0.10479,0.15689,0.0323,0.14954
-0.57763,0.8093,-0.10656,0.01512,0.01872,0.12368
-0.56924,0.81552,-0.10432,-0.0668,-0.18075,0.16819
-0.56062,0.82181,-0.10151,-0.06209,-0.2846,0.14095
-0.55366,0.82685,-0.09879,0.01397,-0.41844,0.137
-0.55027,0.82973,-0.09343,0.04203,-0.42629,0.15317
-0.5507,0.83016,-0.08684,0.11795,-0.34562,0.12645
-0.55354,0.82917,-0.07771,0.11694,-0.34172,0.11569
-0.55683,0.82791,-0.06692,0.1762,-0.35898,0.10971
-0.55973,0.82673,-0.05656,0.1916,-0.3495,0.04031
-0.5616,0.82592,-0.04935,0.18881,-0.33467,-0.01053
-0.56102,0.82655,-0.0452,0.07532,0.0049,-0.13606
-0.55801,0.82857,-0.04552,0.02786,0.00027,-0.06594
-0.55008,0.83355,-0.05086,-0.22714,0.17268,0.06043
-0.53948,0.84008,-0.05656,-0.79424,1.0821,-0.3684
-0.52214,0.85065,-0.06109,-0.77287,1.09388,-0.10639
-0.49959,0.86332,-0.07112,-0.77924,1.04777,-0.10901
-0.47069,0.87831,-0.08366,-0.46109,0.80682,0.06517
-0.43753,0.89399,-0.0966,-0.55321,0.82221,0.10908
-0.40426,0.90884,-0.10278,-0.60599,0.74334,0.17303
-0.36964,0.92363,-0.10124,-0.29796,0.17401,0.1224
-0.333,0.93789,-0.09726,-0.37279,-0.15204,0.25718
-0.29794,0.94964,-0.09696,-0.3601,-0.64571,0.37268
-0.27415,0.95712,-0.09351,-0.54133,-0.9226,0.36494
-0.26744,0.95984,-0.08461,-0.56708,-0.9878,0.34964
-0.28031,0.95703,-0.07419,-0.50731,-0.74484,0.12123
-0.30411,0.95024,-0.06736,-0.21164,-0.57606,0.04461
-0.33065,0.94135,-0.0672,-0.03719,-0.35016,-0.05548
-0.35596,0.93185,-0.07019,0.04624,-0.14341,-0.08679
-0.37789,0.92298,-0.07264,0.07124,0.05179,0.01049
-0.39825,0.9145,-0.07114,0.07596,0.1361,0.09052
-0.41817,0.90583,-0.06771,0.19541,0.05844,0.31889
-0.43333,0.89885,-0.06537,0.18437,0.02548,0.22938
-0.44577,0.89283,-0.06428,0.14993,0.03143,0.13462
-0.45811,0.88654,-0.06451,0.07803,-0.07698,-0.03199
-0.47068,0.87983,-0.06594,0.04232,-0.10302,-0.00103
-0.48253,0.87315,-0.06892,-0.00531,-0.09417,0.00624
-0.49077,0.86815,-0.07373,-0.09001,-0.11403,0.0642
-0.49456,0.86536,-0.0809,-0.11207,-0.05388,0.04772
-0.4993,0.86197,-0.08771,-0.10191,-0.02208,0.02266
-0.50605,0.85756,-0.09205,-0.03795,-0.03275,-0.03092
-0.51586,0.85174,-0.09167,0.02852,-0.07649,0.03084
-0.52354,0.84723,-0.08996,0.06605,-0.05568,0.06632
-0.53028,0.84308,-0.08945,0.01751,-0.01317,0.02733
-0.53697,0.83883,-0.08946,0.22398,-0.06224,0.03709
-0.54393,0.83448,-0.08814,0.25726,-0.05121,0.03482
-0.54886,0.83159,-0.08483,0.31023,-0.0823,0.07925
-0.55152,0.83023,-0.08078,0.3101,-0.08743,0.0607
-0.55424,0.82894,-0.07523,0.31237,-0.07396,0.08673
-0.55689,0.82774,-0.06861,0.25564,-0.05744,0.12159
-0.5597,0.82628,-0.0631,0.21787,-0.03354,0.1251
-0.56368,0.82389,-0.05884,0.04632,0.02162,0.0929
-0.56778,0.82117,-0.05721,0.04317,-0.02636,0.0709
-0.57271,0.81781,-0.05628,0.06911,-0.10425,0.02989
-0.57869,0.81382,-0.05291,0.10075,-0.13154,-0.02774
-0.58369,0.81071,-0.045,0.1571,-0.15493,0.00065
-0.58519,0.81009,-0.0358,0.15226,-0.1302,0.04593
-0.58334,0.8117,-0.02896,0.12348,-0.09759,0.06459
-0.58048,0.81391,-0.02397,0.13358,-0.02575,0.05789
-0.57691,0.81661,-0.01718,0.13015,-0.07075,0.05179
-0.57093,0.82091,-0.01079,0.08503,-0.1074,0.10065
-0.56085,0.82784,-0.01065,0.04121,-0.1207,0.1078
-0.54619,0.83744,-0.01861,-0.11396,-0.19849,0.0285
-0.52985,0.84744,-0.03301,-0.18607,-0.19944,0.01813
-0.51718,0.85444,-0.04926,-0.2704,-0.18902,0.02101
-0.51403,0.85594,-0.05583,-0.55456,-0.25378,0.17903
-0.51874,0.85334,-0.05198,-0.44072,-0.50045,0.34997
-0.52153,0.85134,-0.05663,-0.31389,-0.32066,0.22161
-0.5223,0.84925,-0.07722,-0.37759,0.17892,-0.01467
-0.5276,0.84385,-0.09767,-0.397,0.4842,-0.03449
-0.5399,0.83711,-0.08792,-0.40603,0.86173,0.24081
-0.54479,0.83523,-0.07462,0.20551,0.31301,0.31473
-0.54596,0.83399,-0.07981,0.35094,-0.14948,0.21928
-0.53785,0.83771,-0.09452,0.25233,-0.42775,-0.08308
-0.51983,0.84714,-0.11001,0.41291,-0.30073,-0.09661
-0.49411,0.86094,-0.1209,0.63377,0.074,-0.13528
-0.4817,0.86904,-0.11275,0.58526,0.29711,0.27492
-0.48217,0.86979,-0.10469,0.25938,0.17622,0.37576
-0.48869,0.86656,-0.10114,0.11745,0.2648,0.24399
-0.49846,0.86274,-0.08481,-0.29052,0.32456,-0.10958
-0.49276,0.86832,-0.05651,-0.04581,0.07587,0.12849
-0.47957,0.87662,-0.03917,0.13312,-0.05307,0.04219
-0.47618,0.87862,-0.03537,-0.061,-0.04706,-0.04871
-0.47913,0.87705,-0.03469,-0.27664,-0.37538,-0.02113
-0.47408,0.87927,-0.04598,-0.15579,-0.31367,-0.20126
-0.46746,0.88191,-0.06074,-0.25654,0.00268,-0.24703
-0.46047,0.88511,-0.06726,-0.23695,-0.11867,-0.06379
-0.45304,0.88896,-0.06687,-0.12151,-0.05795,0.03421
-0.44418,0.89381,-0.06156,-0.05072,0.04394,0.16431
-0.43017,0.90139,-0.0492,0.10646,0.05006,0.13004
-0.4124,0.91056,-0.02795,0.08868,0.04088,0.10879
-0.39571,0.91834,-0.00717,0.22971,0.06122,0.33144
-0.38116,0.9245,0.00015,-0.16488,0.01747,0.24853
-0.36833,0.92959,-0.01333,-0.1993,-0.09475,0.24734
-0.35338,0.93459,-0.04054,-0.24852,-0.16518,0.17059
-0.33389,0.94149,-0.04572,-0.82701,-0.3606,-0.29177
-0.30533,0.95207,-0.01787,-0.74707,-0.46908,-0.07054
-0.27363,0.96178,-0.00919,-0.71529,-0.48071,0.56972
-0.21916,0.97537,-0.02463,-0.7685,-0.37622,0.31976
-0.13245,0.99066,-0.03205,-0.74174,-0.27704,0.17115
-0.06655,0.99679,-0.04415,1.11709,0.35756,0.34257
-0.06629,0.99521,-0.07165,-0.08632,0.23419,0.01713
-0.04021,0.99404,-0.10121,0.22965,0.23063,-0.10624
-0.01945,0.99236,-0.12177,0.05534,0.06024,0.07182
-0.01064,0.99018,-0.13934,-0.12129,0.12306,-0.04897
-0.01477,0.98914,-0.14616,-0.15576,0.19021,-0.06632
-0.02635,0.98907,-0.14502,-0.25014,-0.14607,-0.067
-0.04093,0.98841,-0.14613,-0.23591,0.50409,0.06554
-0.0533,0.98852,-0.14127,-0.12841,0.28236,0.12666
-0.06257,0.98954,-0.12989,-0.01768,0.06275,0.3081
-0.07396,0.99103,-0.11125,-0.00625,-0.12263,0.2068
-0.09674,0.99235,-0.07651,-0.06876,-0.06851,0.17714
-0.1313,0.99088,-0.02994,0.11458,-0.16275,0.15155
-0.1729,0.98466,0.02301,0.24974,-0.14956,-0.07498
-0.21391,0.97343,0.0816,0.23342,-0.24621,-0.18283
-0.2407,0.95944,0.14667,0.05048,0.10391,-0.01354
-0.25313,0.94732,0.19617,0.02377,0.11068,0.12261
-0.25904,0.94167,0.21478,0.0991,0.03323,-0.1718
-0.261,0.93818,0.22731,0.15662,0.11489,-0.07037
-0.26998,0.93443,0.23221,0.16154,-0.00071,0.17617
-0.28946,0.93302,0.21368,-0.05522,-0.12612,0.41338
-0.30536,0.93692,0.17002,-0.088,-0.15949,0.14248
-0.31668,0.94045,0.12341,-0.17113,-0.12425,-0.08626
-0.32483,0.94066,0.09805,-0.28042,-0.12581,-0.19151
