gravity.x,gravity.y,gravity.z,userAcceleration.x,userAcceleration.y,userAcceleration.z
0.01937,0.99683,0.07709,0.01908,0.00435,0.02374
0.01967,0.99679,0.07748,0.00926,0.00509,0.01626
0.02012,0.99673,0.07813,-0.00689,0.01075,0.01307
0.02054,0.99669,0.0785,-0.01661,0.01328,0.01954
0.02088,0.9967,0.07837,-0.0145,0.00307,0.02634
0.0211,0.99672,0.078,-0.01348,-0.00168,0.03324
0.02118,0.99675,0.07759,-0.0198,-0.00473,0.03489
0.02108,0.99677,0.07741,-0.01015,-0.00806,0.03129
0.02069,0.99678,0.07742,-0.00615,-0.00308,0.02694
0.02009,0.99677,0.07767,-0.0111,-0.00692,0.01663
0.01924,0.99675,0.07815,-0.04487,0.01666,0.00615
0.01882,0.9967,0.07882,-0.04818,0.02071,0.00176
0.0188,0.99664,0.07969,-0.04861,0.00897,-0.00851
0.01854,0.9966,0.08025,0.00327,-0.00537,-0.00574
0.01748,0.99665,0.0798,0.05191,-0.01549,0.02048
0.01657,0.99676,0.07863,0.05606,-0.00726,0.03028
0.01576,0.99682,0.07807,0.05828,-0.00033,0.11903
0.01534,0.99689,0.0772,0.02554,0.00709,-0.01294
0.01567,0.99677,0.07872,0.01991,0.03505,-0.03546
0.01667,0.99659,0.08069,-0.00468,0.02573,0.02631
0.01719,0.99651,0.08155,-0.02008,0.00713,-0.0033
0.01726,0.99653,0.08134,-0.02514,0.00236,0.00142
0.01746,0.99656,0.08093,-0.02474,-0.00317,0.02712
0.01741,0.99657,0.08083,-0.00872,0.00038,0.02473
0.01739,0.99656,0.08096,-0.00798,0.0081,0.02558
0.01737,0.99655,0.08112,-0.01311,0.0003,0.02483
0.01755,0.99652,0.0814,-0.02216,0.00748,0.01457
0.01773,0.99647,0.08194,-0.01928,0.01186,-0.00517
0.01766,0.99643,0.08244,-0.0049,0.00334,-0.00292
0.01741,0.99644,0.08245,0.01478,-0.00558,0.01573
0.01709,0.99647,0.08215,0.0228,-0.00136,0.02451
0.01683,0.99647,0.08217,0.01799,0.00744,0.01862
0.0168,0.99643,0.0827,0.0049,0.0138,0.0041
0.01694,0.99638,0.08318,-0.01872,0.03171,0.03349
0.01704,0.99644,0.08248,0.01987,-0.00463,-0.03618
0.01697,0.99645,0.0824,0.00601,0.00689,0.00833
0.0171,0.9964,0.08289,-0.01452,0.01319,0.03001
0.01696,0.99643,0.08263,-0.00676,0.00263,0.01286
0.01693,0.99645,0.0824,0.00994,0.00161,0.02524
0.01694,0.99644,0.08254,-0.01525,0.00211,0.01052
0.01686,0.9964,0.08296,-0.02574,0.00895,0.00773
0.01684,0.99639,0.08309,-0.00329,0.00628,0.01835
0.01683,0.99642,0.08278,-0.0028,0.03277,0.02105
0.01653,0.99645,0.08241,-0.00371,0.001,0.00466
0.01609,0.99645,0.08259,0.0022,-0.01752,0.02373
0.01623,0.99645,0.08256,-0.00744,0.01987,0.01007
0.01649,0.99648,0.08211,-0.02394,0.01026,0.02248
0.0163,0.99653,0.08151,0.00318,0.00071,0.01868
0.01606,0.99657,0.08112,0.01136,0.00497,0.01814
0.01582,0.99657,0.08118,-0.00983,0.01855,0.02356
0.01589,0.99658,0.08103,0.00428,0.00344,0.01272
0.01583,0.9966,0.08076,0.02862,-0.01929,0.00179
0.01614,0.99661,0.08062,-0.00047,0.02704,0.03704
0.01657,0.99661,0.08043,-0.01788,0.00866,0.02615
0.0168,0.99662,0.08029,-0.02425,-0.00303,0.01861
0.01712,0.99663,0.0801,-0.00076,0.00355,0.00011
0.01727,0.99666,0.07977,-0.00044,-0.00148,0.00233
0.01728,0.99669,0.0793,0.00833,-0.00065,0.01921
0.0172,0.99672,0.07899,0.01393,0.00981,0.01998
0.01717,0.99673,0.07884,0.0152,0.00116,0.01825
0.01722,0.99672,0.079,0.00616,0.00076,0.00816
0.01751,0.99669,0.07937,-0.0236,0.01155,0.00396
0.01773,0.99668,0.07934,-0.02642,0.01511,0.0104
0.01782,0.9967,0.07915,-0.02139,0.00533,0.01369
0.01773,0.99672,0.07886,-0.00201,-0.0008,0.01442
0.01754,0.99675,0.07857,0.01405,0.00165,0.01455
0.01746,0.99677,0.07833,0.00455,0.00404,0.01816
0.01742,0.99678,0.07818,0.00485,0.00211,0.01265
0.01739,0.99677,0.0783,0.00603,0.0053,0.01413
0.01752,0.99675,0.07853,0.01132,0.00186,0.00466
0.01754,0.99675,0.07859,0.02488,0.00093,0.01096
0.01762,0.99674,0.07864,0.02083,-0.0055,0.01307
0.01801,0.99673,0.07867,0.01356,-0.00598,0.01173
0.01872,0.9967,0.07884,-0.00353,0.01294,0.01971
0.0196,0.99666,0.07915,-0.02802,0.00209,0.0269
0.02037,0.99665,0.07918,-0.02125,0.00075,0.01577
0.02097,0.99664,0.07908,-0.00049,0.0018,0.02427
0.02155,0.99662,0.07917,-0.00438,-0.003,0.01765
0.02225,0.99657,0.07967,-0.02507,0.05501,0.01044
0.02245,0.9965,0.08041,-0.03376,0.01544,0.01813
0.02225,0.99648,0.08076,0.00406,-0.01935,-0.00633
0.02244,0.99647,0.08081,0.02273,-0.00265,0.01019
0.02257,0.99646,0.08084,0.0235,0.029,0.00473
0.02235,0.99642,0.0815,-0.00996,0.02179,0.01898
0.02178,0.99636,0.08229,-0.00939,0.02184,0.01819
0.02095,0.99628,0.0835,0.02753,0.02174,-0.00251
0.02045,0.99618,0.08475,0.02008,0.01389,-0.00954
0.02076,0.99612,0.08547,0.00956,0.00326,-0.00765
0.02183,0.9961,0.08546,-0.01247,-0.0044,0.01247
0.02334,0.9961,0.08498,-0.02734,-0.01751,0.02441
0.02488,0.99609,0.08464,-0.03627,-0.0072,0.03034
0.02638,0.99608,0.08439,-0.05798,0.01906,0.0456
0.02753,0.99604,0.08439,-0.05191,-0.00036,0.03636
0.02845,0.99603,0.08421,-0.03704,0.00279,0.02685
0.0287,0.99604,0.08404,-0.02596,0.00338,0.02924
0.02859,0.99606,0.0839,-0.03192,-0.01,0.02433
0.02881,0.99609,0.08341,-0.02062,-0.01913,0.02473
0.02903,0.9961,0.08327,-0.0079,0.00189,0.02327
0.02885,0.99605,0.08385,0.00526,0.0075,0.00561
0.02856,0.99602,0.08439,0.00554,0.00754,0.00507
0.02823,0.996,0.08463,0.02736,-0.01415,0.00086
0.02883,0.99601,0.08431,-0.0109,0.01346,0.00488
0.03021,0.99601,0.08387,-0.03524,0.03266,0.00584
0.03127,0.99602,0.08336,0.01951,-0.03893,0.00681
0.03197,0.99606,0.08261,0.02126,-0.05569,0.00134
0.03324,0.99608,0.08194,0.01075,-0.04483,0.00695
0.03425,0.99606,0.08171,-0.02771,0.0177,0.03843
0.03403,0.99606,0.08185,-0.00643,-0.00259,0.01129
0.03304,0.99603,0.08259,0.01802,0.00475,-0.00519
0.032,0.99598,0.08365,0.05355,0.02206,-0.00655
0.03078,0.99594,0.08458,0.06118,0.00198,-0.01123
0.03048,0.99592,0.08489,0.03713,-0.01423,-2e-05
0.03177,0.9959,0.08465,-0.07784,0.00674,0.04019
0.03364,0.99593,0.08353,-0.07605,0.00747,0.03526
0.0354,0.99597,0.0823,-0.0634,-0.00511,0.03086
0.03734,0.99597,0.08149,-0.03103,-0.01713,0.02639
0.03875,0.996,0.0804,-0.0394,0.00464,0.03537
0.03971,0.99605,0.07931,-0.0405,0.02275,0.05283
0.03977,0.99609,0.07877,-0.0185,0.01738,0.03253
0.03917,0.99609,0.07906,-0.00626,0.01413,0.01459
0.03861,0.9961,0.07925,0.00792,-0.00802,-0.00541
0.03883,0.99615,0.07851,0.00929,-0.00967,0.01104
0.04033,0.99619,0.07723,-0.01645,-0.00806,0.03779
0.04227,0.99625,0.07545,-0.05185,-0.00659,0.06566
0.04383,0.99634,0.07331,-0.07534,-0.01076,0.0485
0.04445,0.99643,0.07161,-0.06081,-0.0282,0.03479
0.04389,0.99653,0.07061,-0.03286,0.00101,0.01197
0.04201,0.9966,0.07073,0.02859,9e-05,0.00666
0.03914,0.99668,0.07121,0.07168,-0.02188,-0.01073
0.03683,0.99672,0.07187,0.0945,-0.05877,-0.03517
0.03585,0.99669,0.07289,0.08346,0.04468,-0.01029
0.03653,0.99658,0.07404,0.05257,0.06914,-0.04528
0.03768,0.99648,0.07475,0.05975,0.05177,-0.06417
0.03914,0.9964,0.07506,0.04631,0.00851,-0.01785
0.04015,0.9964,0.07458,0.03002,-0.02222,0.01502
0.04126,0.99642,0.07367,0.0028,-0.01588,0.03052
0.04296,0.99634,0.07386,-0.01073,0.01248,-0.00564
0.04422,0.9962,0.07496,0.05089,0.0154,0.01427
0.04468,0.9961,0.07605,0.04824,0.00632,0.02491
0.04517,0.99597,0.07741,0.00459,0.00707,0.02635
0.04595,0.9958,0.07909,-0.04467,0.03316,0.00775
0.04688,0.99566,0.08033,-0.06552,0.03997,0.00993
0.0478,0.99557,0.0809,-0.06693,0.04172,0.02391
0.04798,0.99557,0.08071,-0.05813,0.01073,0.04149
0.0478,0.99565,0.07991,-0.0487,0.00348,0.04781
0.04716,0.99575,0.07894,-0.05412,-0.02884,0.05068
0.0462,0.99586,0.07815,-0.04565,-0.0305,0.04584
0.04482,0.99595,0.07784,-0.02329,0.00188,0.04491
0.04293,0.99603,0.07785,-0.00852,0.02127,0.02779
0.04019,0.9961,0.0784,0.00928,0.00547,0.0074
0.03702,0.99616,0.07926,0.03008,-0.01272,-0.00405
0.03374,0.9962,0.08014,0.07349,-0.01751,-0.00777
0.03118,0.99624,0.08077,0.08141,0.00549,-0.00658
0.02942,0.99623,0.08148,0.07197,0.02108,-0.00524
0.02869,0.99621,0.082,0.04156,0.0078,0.00282
0.02897,0.99617,0.08236,0.02515,-0.00385,0.01397
0.0296,0.99616,0.08228,0.00691,0.00158,0.02668
0.03074,0.99616,0.08185,-0.06329,0.01305,0.02963
0.03158,0.99618,0.08135,-0.0742,0.00304,0.03789
0.03187,0.99623,0.08065,-0.06973,-0.00372,0.03607
0.03173,0.9963,0.07975,-0.01431,-0.01435,0.04205
0.03136,0.99636,0.07915,0.00421,-0.01826,0.03971
0.03125,0.99638,0.07895,0.00684,-0.01764,0.03217
0.03122,0.99637,0.0791,0.0222,-0.01785,0.02308
0.03206,0.99631,0.07947,-0.00461,-0.00033,0.00289
0.03362,0.99623,0.0799,-0.00617,-0.00024,0.00246
0.03556,0.9961,0.08066,-0.02361,0.03013,-0.00811
0.03734,0.99602,0.08088,-0.03878,0.032,0.0078
0.0389,0.996,0.08038,-0.02729,-0.01579,0.00388
0.03994,0.99599,0.08001,0.01081,-0.00923,0.01712
0.04159,0.99595,0.07956,-0.00647,0.03754,0.02626
0.04339,0.99588,0.07956,-0.03171,0.01601,-0.00223
0.04441,0.99576,0.08047,-0.01696,-0.00099,-0.00635
0.04516,0.99566,0.08129,-0.01245,0.02527,0.00927
0.04529,0.99565,0.08135,-0.00641,0.02428,0.00456
0.04481,0.99567,0.0813,-0.00701,0.00928,0.01855
0.04433,0.99567,0.08168,-0.02564,0.03377,0.01134
0.04366,0.99569,0.08177,-0.03258,0.03173,0.01386
0.04258,0.99576,0.08143,-0.02918,0.013,0.02747
0.04115,0.99585,0.08112,-0.01942,-0.00375,0.02077
0.03979,0.99592,0.08088,-0.02428,0.0035,0.02538
0.03827,0.996,0.0807,-0.04941,0.0273,0.0364
0.03615,0.99609,0.08048,-0.07858,0.00977,0.0243
0.03361,0.99624,0.07982,-0.07055,-0.00658,0.01496
0.03122,0.99641,0.0786,-0.03325,0.01053,0.02248
0.02846,0.99662,0.0769,0.02517,-0.00888,0.0421
0.02579,0.99685,0.07487,0.03773,-0.01805,0.04203
0.02339,0.99704,0.07322,0.045,-0.02786,0.04337
0.02208,0.99711,0.07254,-0.00216,-0.00296,0.03679
0.02133,0.99712,0.07274,-0.02459,-5e-05,0.01088
0.02034,0.99709,0.07336,-0.03365,0.02278,0.01813
0.01884,0.9971,0.07365,-0.03052,0.011,0.00938
0.0174,0.99713,0.07361,0.01304,-0.02389,-0.01035
0.01633,0.99719,0.07302,0.01418,-0.00583,0.01531
0.01586,0.99725,0.07236,-0.00208,0.01409,0.02374
0.01592,0.99728,0.07196,0.01559,0.01682,0.00923
0.01568,0.9973,0.07166,0.06159,-0.03175,-0.00122
0.01587,0.99729,0.07176,0.07426,-0.03443,-0.00525
0.01703,0.99723,0.07234,0.04921,-0.01195,0.00975
0.01888,0.99715,0.07297,0.01461,-0.01387,0.02577
0.02143,0.99705,0.07368,-0.01041,-0.02282,0.03333
0.02432,0.99694,0.07423,-0.0247,-0.01211,0.03742
0.02703,0.99687,0.07429,-0.01934,0.03724,0.02557
0.02747,0.99685,0.07426,-0.00092,0.03624,0.02734
0.02614,0.9969,0.07416,-0.00797,0.0275,0.03607
0.02423,0.99696,0.07401,-0.03857,-0.00422,0.02706
0.02149,0.99704,0.07376,-0.04896,0.01186,0.02746
0.01759,0.99718,0.07287,-0.05322,0.00645,0.03804
0.0132,0.99735,0.0715,-0.0436,0.01561,0.0295
0.01036,0.99748,0.07015,-0.01662,0.00724,0.01098
0.01048,0.99754,0.06929,-0.01674,0.00718,0.01184
0.00998,0.99757,0.06891,0.05554,-0.01643,0.02568
0.00966,0.99757,0.06895,0.04551,-0.00347,0.00861
0.00998,0.99752,0.06957,0.0452,-0.00343,0.00799
0.01066,0.99743,0.07079,0.04515,0.00344,-0.01691
0.01198,0.99733,0.07204,0.01178,0.02253,-0.00685
0.01311,0.99725,0.07286,0.01065,0.0226,-0.00768
0.01402,0.99721,0.07327,-0.03644,0.01421,0.01788
0.01447,0.99721,0.07315,-0.0141,-0.00238,0.02765
0.01475,0.99721,0.07317,0.0064,-0.01114,0.02493
0.01496,0.99715,0.07384,-0.00451,-0.00829,0.02974
0.01513,0.99707,0.07496,-0.02924,0.00042,0.03029
0.0155,0.99697,0.0762,-0.03845,0.01702,0.02234
0.01587,0.99686,0.0775,-0.0385,0.01768,0.01443
0.01594,0.99676,0.07881,-0.0255,0.0167,0.00826
0.01586,0.99667,0.07986,-0.01894,0.01749,0.02181
0.01559,0.99663,0.0805,-0.01087,0.00548,0.02793
0.01535,0.99659,0.08104,-0.01386,0.0006,0.02606
0.01545,0.99652,0.0819,-0.00943,-0.00148,0.02729
0.01541,0.99644,0.08286,-0.0108,0.00319,0.01768
0.01543,0.99636,0.08379,0.00176,-0.00112,0.02655
0.01551,0.9963,0.08455,0.00376,0.00029,0.0262
0.01568,0.99621,0.08548,-0.01222,0.00537,0.02317
0.01605,0.9961,0.08668,-0.03273,0.01087,0.02082
0.01649,0.99599,0.08789,-0.03861,0.01226,0.01872
0.01691,0.9959,0.08883,-0.04912,0.01438,0.02102
0.01724,0.99585,0.0894,-0.05058,0.01076,0.02047
0.01743,0.99582,0.08968,-0.0455,0.00861,0.0214
0.01764,0.99579,0.08989,-0.03978,0.00578,0.02388
0.0178,0.99578,0.09003,-0.03678,0.00353,0.02734
0.01795,0.99577,0.09005,-0.03584,0.00713,0.02148
0.01818,0.99577,0.09,-0.03234,0.00897,0.02568
0.01837,0.99577,0.08995,-0.02487,0.00557,0.0239
0.01852,0.99578,0.08981,-0.02695,0.00647,0.01741
0.01873,0.9958,0.0896,-0.02503,0.0087,0.01836
0.01894,0.99581,0.0894,-0.02334,0.00857,0.01721
0.01922,0.99582,0.08924,-0.02334,0.00833,0.01486
0.01963,0.99584,0.08898,-0.02969,0.01117,0.01326
0.02015,0.99586,0.0886,-0.03239,0.01416,0.01504
0.02076,0.9959,0.08803,-0.03451,0.01525,0.01584
0.02142,0.99595,0.08728,-0.03451,0.00782,0.02141
0.02221,0.99602,0.08632,-0.02861,0.0045,0.02171
0.02294,0.9961,0.08513,-0.02412,0.00152,0.02185
0.02357,0.99621,0.08367,-0.0092,-0.00087,0.02589
0.02427,0.99633,0.0821,-0.01122,-0.00152,0.03874
0.0252,0.99643,0.08056,-0.01558,-0.00307,0.04245
0.02616,0.9965,0.07932,-0.02705,-0.00471,0.04129
0.02718,0.99655,0.07839,-0.03598,0.00051,0.03843
0.02805,0.99659,0.07756,-0.03681,0.005,0.03784
0.02859,0.99663,0.07683,-0.03024,-0.00405,0.0351
0.02892,0.99668,0.07606,-0.02358,0.00132,0.03152
0.02918,0.99674,0.07517,-0.02097,0.00466,0.0325
0.02908,0.9968,0.07447,0.00844,0.00273,0.03112
0.02883,0.99686,0.07376,0.02622,0.00526,0.02363
0.02862,0.99691,0.0731,0.02842,0.00615,0.0212
0.02857,0.99694,0.07271,0.04221,0.00081,0.0109
0.02883,0.99698,0.07212,0.04659,-0.01128,0.01098
0.02943,0.99703,0.07116,0.04357,-0.00927,0.01426
0.0306,0.99707,0.07009,0.01704,0.0072,0.01702
0.03204,0.99709,0.06913,-0.00294,0.01002,0.0248
0.03314,0.99714,0.06795,0.00493,0.00311,0.02824
0.03412,0.99719,0.06672,0.01744,-0.0077,0.02877
0.03498,0.99721,0.06586,0.01269,0.0044,0.02989
0.03563,0.99723,0.06526,0.01129,0.00835,0.02585
0.03626,0.99722,0.06502,0.01768,0.00168,0.01582
0.03685,0.99721,0.06485,0.02218,-0.00168,0.01004
0.03736,0.99721,0.06459,0.023,-0.00081,0.01155
0.03802,0.9972,0.06437,0.01249,0.01026,0.01994
0.03876,0.9972,0.06399,0.00932,0.00581,0.02056
0.03966,0.99718,0.0636,0.00865,-0.00198,0.02287
0.04063,0.99717,0.06323,-0.00203,0.00152,0.01721
0.04147,0.99716,0.06276,-0.00594,0.00172,0.02141
0.04224,0.99716,0.06223,-0.00657,0.00577,0.02322
0.04303,0.99716,0.06175,-0.0017,-0.00075,0.02599
0.04389,0.99716,0.06113,-0.00097,0.00719,0.02365
0.04491,0.99715,0.06053,-0.00096,0.00312,0.02219
0.04593,0.99714,0.05993,-0.01541,-0.00025,0.0277
0.04673,0.99713,0.05947,-0.03061,0.00278,0.03669
0.04706,0.99714,0.05913,-0.02593,-0.00327,0.04349
0.04681,0.99716,0.05896,-0.0083,-0.00601,0.03946
0.0462,0.99718,0.05915,0.00391,-0.00291,0.02694
0.0454,0.99716,0.05996,0.01174,-0.00223,0.02355
0.04461,0.99714,0.06098,0.00968,-0.0004,0.01627
0.04397,0.9971,0.06203,0.01189,0.01211,0.01057
0.04354,0.99707,0.06285,0.01052,0.01985,0.01544
0.04319,0.99705,0.06344,0.00968,0.01372,0.01755
0.04298,0.99703,0.06393,0.0065,0.0123,0.01881
0.04299,0.99699,0.06444,-0.01296,0.02072,0.02029
0.04307,0.99697,0.06471,-0.02863,0.01447,0.01659
0.0429,0.99698,0.06467,-0.01479,0.00097,0.01876
0.04245,0.997,0.0647,0.0004,-0.00075,0.01984
0.04191,0.99701,0.06489,0.00799,-0.00232,0.02198
0.04146,0.99701,0.06525,0.0116,-0.00682,0.02752
0.04134,0.99698,0.06576,0.01002,-0.00064,0.02578
0.04149,0.99693,0.06633,-0.00377,0.00992,0.01639
0.04189,0.99687,0.06706,-0.03598,0.00782,0.02161
0.04221,0.99681,0.0677,-0.04143,0.00371,0.02146
0.04259,0.99677,0.06805,-0.04735,0.00807,0.02559
0.04284,0.99676,0.06802,-0.04295,0.0044,0.02753
0.04305,0.99679,0.06754,-0.0389,0.00588,0.03169
0.04314,0.99682,0.06698,-0.04007,0.00166,0.03765
0.04308,0.99687,0.06634,-0.03739,0.00071,0.04484
0.04311,0.9969,0.06578,-0.03763,-0.00314,0.04853
0.04299,0.99692,0.06555,-0.03556,-0.00237,0.04543
0.0427,0.99693,0.06561,-0.02838,-0.00062,0.03981
0.04251,0.99693,0.06567,-0.02605,0.00342,0.03911
0.04219,0.99693,0.06599,-0.02347,0.00704,0.02725
0.04176,0.99691,0.06646,-0.01577,0.00588,0.01751
0.04123,0.99691,0.06688,-0.00691,0.0062,0.01703
0.04076,0.99691,0.06715,0.00015,0.00543,0.01076
0.04042,0.99691,0.06739,0.0094,0.0086,0.01113
0.04029,0.9969,0.06764,0.01124,0.01052,0.00826
0.04029,0.99688,0.06791,0.00097,0.00512,0.00352
0.04037,0.99686,0.06806,0.00033,0.00871,0.00666
0.04044,0.99686,0.06802,0.00204,0.00775,0.01009
0.04052,0.99687,0.06786,-0.00657,0.00617,0.02679
0.04057,0.99687,0.06784,-0.00718,0.00137,0.02991
0.04061,0.99685,0.06805,-0.00965,0.00045,0.02938
0.04068,0.99683,0.06842,-0.0242,0.00186,0.02777
0.04066,0.99679,0.06889,-0.0296,0.0042,0.02765
0.04058,0.99677,0.06936,-0.02847,0.00748,0.02711
0.04047,0.99673,0.06992,-0.02512,0.00757,0.02258
0.0404,0.9967,0.07035,-0.02259,0.00774,0.02575
0.04036,0.99668,0.07065,-0.02606,0.00742,0.02464
0.04018,0.99667,0.07098,-0.01572,-0.00111,0.02888
0.03996,0.99665,0.07133,-0.00944,0.00315,0.03236
0.03968,0.99663,0.07175,-0.01184,-0.00145,0.03309
0.03932,0.9966,0.07245,-0.00998,-9e-05,0.03053
0.03898,0.99654,0.07347,-0.00533,0.00324,0.02582
0.03864,0.99647,0.07455,0.00149,0.00695,0.02117
0.03834,0.9964,0.07553,0.00556,0.01032,0.01582
0.03814,0.99634,0.07646,0.00323,0.00926,0.01405
0.03802,0.99628,0.07734,-0.00042,0.00549,0.01411
0.03796,0.99622,0.0781,0.00024,0.01095,0.01716
0.03794,0.99617,0.0788,-0.00366,0.01084,0.01991
0.03795,0.99611,0.0795,-0.00044,0.00726,0.02231
0.03798,0.99605,0.08022,-0.00073,0.00027,0.01971
0.03802,0.99599,0.08101,-0.0043,0.00392,0.0208
0.03807,0.99592,0.08186,-0.00812,0.00218,0.02211
0.03804,0.99584,0.08276,-0.00294,0.01279,0.02483
0.03796,0.99576,0.08374,0.00124,0.00901,0.02237
0.03808,0.99568,0.0847,0.00066,0.00544,0.02188
0.03853,0.99561,0.08524,-0.01902,0.00771,0.02554
0.03931,0.99559,0.08519,-0.04476,0.00887,0.03754
0.04011,0.99561,0.08457,-0.04694,0.00466,0.04162
0.04074,0.99567,0.08351,-0.04251,-0.00565,0.05891
0.041,0.99575,0.0824,-0.03224,-0.01667,0.06505
0.04102,0.9958,0.08179,-0.02816,-0.01933,0.05906
0.04072,0.99582,0.08178,-0.02087,-0.01256,0.04552
0.04021,0.9958,0.08222,-0.01839,-0.00502,0.02651
0.03972,0.99579,0.08266,-0.01454,0.00185,0.02443
0.03896,0.99577,0.0832,-0.00049,0.00373,0.01977
0.03816,0.99577,0.08356,0.00905,0.00681,0.02117
0.03749,0.99578,0.08372,0.009,0.00869,0.01861
0.03699,0.99579,0.0839,0.0099,0.01694,0.01172
0.03677,0.99579,0.08393,0.00939,0.01841,0.00611
0.03679,0.99582,0.08364,-0.00023,0.01196,0.01858
0.03694,0.99586,0.08309,-0.00541,0.0006,0.02615
0.03703,0.99589,0.08264,-0.00435,-0.00189,0.03064
0.03711,0.99591,0.08239,-0.00535,-0.00447,0.02753
0.03726,0.9959,0.08247,-0.0116,0.00256,0.02504
0.03739,0.99587,0.08271,-0.01919,0.00469,0.02645
0.03748,0.99585,0.08298,-0.01819,0.00415,0.02455
0.03755,0.99582,0.08325,-0.02159,0.01315,0.02391
0.03767,0.99581,0.08336,-0.02067,0.0097,0.02683
0.03775,0.99582,0.08317,-0.02139,0.0045,0.02734
0.03777,0.99585,0.08284,-0.03327,-0.00288,0.03062
0.03774,0.99587,0.08257,-0.03078,-0.00492,0.03373
0.03765,0.9959,0.08229,-0.02601,-0.00462,0.03531
0.03746,0.99593,0.08201,-0.02253,0.00053,0.02868
0.03725,0.99596,0.08173,-0.02314,0.00302,0.02588
0.03696,0.99599,0.08148,-0.02146,0.00157,0.02559
0.03652,0.99602,0.08128,-0.01099,0.0057,0.02268
0.03613,0.99606,0.08093,-0.00227,0.00735,0.02313
0.03587,0.99612,0.08039,-0.00201,0.0073,0.02368
0.03558,0.99616,0.07996,-0.01167,0.01057,0.02543
0.03552,0.9962,0.07949,-0.01238,0.01233,0.0246
0.03557,0.99625,0.07892,-0.01541,0.01169,0.02404
0.03569,0.9963,0.07816,-0.01528,0.00763,0.02817
0.03583,0.99637,0.07725,-0.02108,0.00655,0.03014
0.03598,0.99644,0.0763,-0.02203,0.00669,0.03126
0.03605,0.99651,0.07531,-0.00794,-0.00255,0.03144
0.03605,0.99658,0.07434,-0.00204,-0.00265,0.03179
0.03599,0.99664,0.07352,-0.0092,-0.00699,0.03044
0.0359,0.9967,0.07284,-0.01743,-0.00044,0.0243
0.03566,0.99674,0.07238,-0.00685,-0.00524,0.02452
0.03536,0.99679,0.07189,-0.00315,0.00027,0.01831
0.03506,0.99681,0.07164,-0.00746,0.0036,0.01739
0.03475,0.99684,0.07147,-0.00324,0.00483,0.01395
0.03457,0.99686,0.07122,-0.00802,0.00498,0.01224
0.0345,0.99687,0.07109,-0.0121,0.01297,0.00814
0.03451,0.99688,0.07095,-0.00998,0.00991,0.0154
0.03465,0.99691,0.07055,-0.00911,0.00914,0.02141
0.03488,0.99693,0.07006,-0.01704,0.01601,0.02733
0.03517,0.99698,0.06921,-0.03554,0.01095,0.03609
0.03555,0.99705,0.06808,-0.03601,0.00797,0.03934
0.03599,0.99712,0.06677,-0.04159,-0.00511,0.04624
0.03645,0.99718,0.06556,-0.04695,-0.00831,0.04571
0.03672,0.99722,0.06475,-0.03492,-0.01363,0.04563
0.03671,0.99725,0.06433,-0.02437,-0.00877,0.03839
0.03661,0.99726,0.06423,-0.02349,0.001,0.0361
0.0363,0.99726,0.06434,-0.02137,0.0066,0.02697
0.03576,0.99727,0.06457,-0.00465,0.00831,0.01348
0.03523,0.99728,0.06467,0.0069,0.01959,0.00725
0.03482,0.9973,0.06462,0.0111,0.02228,0.00557
0.0346,0.99733,0.06431,0.00896,0.01053,0.00905
0.03469,0.99737,0.06367,0.00251,0.0054,0.02308
0.03501,0.99742,0.06261,-0.01594,0.00395,0.02942
0.03548,0.99748,0.06144,-0.03003,0.00693,0.03739
0.03585,0.99753,0.06034,-0.02532,-0.01273,0.04567
0.03601,0.99758,0.05948,-0.00661,-0.00835,0.04465
0.03601,0.99761,0.05888,-0.00526,-0.00753,0.03636
0.03586,0.99763,0.0587,-0.0006,-0.00778,0.02729
0.03568,0.99762,0.05901,0.00086,-0.00642,0.02262
0.03548,0.99758,0.0597,0.0035,0.00524,0.00204
0.03529,0.99755,0.06032,0.0067,0.01192,-0.00609
0.03516,0.99754,0.06063,0.01071,0.01368,-0.00475
0.03518,0.99754,0.06066,0.00732,0.01447,0.00681
0.0353,0.99754,0.06049,0.00282,0.00745,0.0232
0.03555,0.99755,0.06025,-0.00969,0.00617,0.03586
0.03592,0.99754,0.06018,-0.02806,0.00144,0.03936
0.03624,0.99752,0.06028,-0.02629,-0.00103,0.04419
0.03644,0.99751,0.06032,-0.02649,-0.00102,0.04414
0.03648,0.99749,0.06065,-0.01936,-0.005,0.04797
0.0363,0.99746,0.06129,-0.01889,-0.00568,0.0418
0.03618,0.99741,0.0622,-0.01877,-0.00563,0.04089
0.03598,0.99734,0.06336,-0.01402,0.01079,0.01565
0.03587,0.99728,0.0643,-0.01397,0.01485,0.01343
0.03575,0.99726,0.06472,-0.01385,0.01487,0.01301
0.03562,0.99725,0.06501,-0.01522,0.01285,0.02233
0.0355,0.99724,0.06525,-0.02434,0.00801,0.02243
0.03554,0.99722,0.06551,-0.02631,0.00464,0.0283
0.03562,0.99721,0.0656,-0.02923,0.00024,0.03711
0.03572,0.99721,0.06559,-0.02217,-0.00259,0.04102
0.03586,0.9972,0.06568,-0.01875,-0.00279,0.04264
0.03594,0.99717,0.06598,-0.0196,-0.00227,0.04158
0.03591,0.99713,0.06658,-0.02076,0.00401,0.03163
0.03589,0.9971,0.06706,-0.01856,0.00887,0.03084
0.03585,0.99708,0.06746,-0.01929,0.00811,0.02841
0.0359,0.99706,0.06759,-0.02078,0.00721,0.03132
0.036,0.99706,0.0676,-0.02563,0.0057,0.03633
0.03607,0.99706,0.06758,-0.02876,0.0023,0.03952
0.03611,0.99706,0.06754,-0.02526,0.00163,0.03891
0.03608,0.99707,0.06746,-0.01986,0.00251,0.03916
0.03604,0.99708,0.06736,-0.01831,0.00204,0.03772
0.03607,0.99708,0.06723,-0.02176,0.00346,0.03725
0.03604,0.99708,0.06727,-0.01686,0.00377,0.02938
0.0361,0.99708,0.06729,-0.01642,0.00135,0.02906
0.03627,0.99708,0.06724,-0.0161,0.00614,0.02386
0.03652,0.99708,0.06709,-0.01965,0.01003,0.03086
0.03676,0.99709,0.06679,-0.02221,0.00483,0.03864
0.0369,0.99712,0.06626,-0.0179,0.00201,0.04125
0.037,0.99715,0.06573,-0.01274,-0.00043,0.04205
0.03711,0.99717,0.06538,-0.00855,0.00016,0.04036
0.03718,0.99718,0.06522,-0.00741,0.00206,0.04026
0.03712,0.99719,0.06509,-0.00733,-0.00238,0.03518
0.037,0.9972,0.06501,-0.00331,-0.00454,0.03002
0.03696,0.9972,0.06504,-0.00325,9e-05,0.03276
0.03697,0.99719,0.06507,-0.00227,0.00513,0.03051
0.0371,0.99718,0.06516,-0.01763,0.00372,0.02536
0.0373,0.99717,0.06524,-0.02788,0.01263,0.02528
0.03738,0.99716,0.06535,-0.02598,0.0062,0.01309
0.0374,0.99716,0.0654,-0.01051,0.00329,0.01234
0.03764,0.99715,0.06542,-0.03492,0.03844,0.0251
0.03808,0.99712,0.06556,-0.0489,0.04888,0.03001
0.03778,0.99712,0.06569,-0.06238,0.04797,0.02637
0.03656,0.99716,0.06589,-0.04135,0.00458,0.01732
0.03489,0.99723,0.06574,-0.01641,-0.0065,0.01688
0.03308,0.99735,0.0647,0.07136,-0.05459,0.0202
0.0317,0.99747,0.06357,0.07575,-0.04848,0.05002
0.03145,0.99752,0.06293,0.04843,-0.02546,0.06547
0.0318,0.9975,0.06318,-0.03983,0.02726,0.04852
0.03205,0.99744,0.06394,-0.04985,0.02212,0.04317
0.03157,0.99741,0.06469,-0.04463,0.02089,0.04006
0.03066,0.9974,0.06517,-0.03689,0.01995,0.03893
0.02921,0.99744,0.06534,-0.02883,-0.00697,0.03094
0.02768,0.99746,0.06569,-0.02502,-0.00994,0.02537
0.0263,0.99745,0.06635,-0.02068,-0.01608,0.01451
0.02526,0.99745,0.06674,0.00333,-0.00149,0.00372
0.02463,0.99747,0.06667,0.00172,0.01275,0.01581
0.02401,0.99749,0.06665,0.01023,0.00076,0.01095
0.02362,0.99747,0.06708,0.00572,-0.00655,-0.00177
0.02376,0.99742,0.06778,0.00116,0.02494,0.00065
0.02404,0.99736,0.06845,-0.05347,0.00515,0.02341
0.02439,0.9973,0.06927,-0.06816,0.01663,0.0394
0.02444,0.99729,0.06933,-0.07562,0.01737,0.05208
0.02384,0.99734,0.06894,-0.01228,-0.01569,0.02415
0.0231,0.99737,0.06867,0.00307,-0.01316,0.02841
0.02234,0.9974,0.06849,0.03328,-0.0194,0.02873
0.02163,0.99738,0.06907,0.02834,-0.01411,0.03627
0.02161,0.99731,0.07005,0.00516,-0.00178,0.02245
0.02177,0.99721,0.07141,-0.01048,0.00975,0.01674
0.02241,0.99705,0.07343,-0.03591,0.01765,0.01333
0.02271,0.9969,0.07531,-0.04603,0.01099,0.01293
0.02326,0.99677,0.0769,-0.06844,0.02385,0.02354
0.02383,0.9967,0.07762,-0.07662,0.02605,0.02932
0.02414,0.99672,0.07727,-0.06717,0.01158,0.03457
0.02399,0.99679,0.07633,-0.03299,-0.01906,0.04598
0.02337,0.99691,0.07497,0.01592,-0.03625,0.0692
0.02293,0.997,0.07384,0.02284,-0.03537,0.07034
0.02262,0.99702,0.07374,0.02637,-0.03422,0.06773
0.02213,0.99694,0.07491,0.04385,0.00719,0.0158
0.0215,0.99681,0.0769,0.08424,0.01443,0.0073
0.02071,0.99667,0.07879,0.08826,0.01564,0.00422
0.0207,0.99653,0.08065,0.02386,0.02098,0.00828
0.02169,0.99639,0.08207,-0.01943,0.02159,0.01081
0.02348,0.99627,0.08304,-0.07859,0.03332,0.01729
0.02508,0.99624,0.08297,-0.08914,0.03474,0.04028
0.02588,0.99633,0.08154,-0.07642,-0.00088,0.07404
0.02635,0.9965,0.07927,-0.07689,-0.00105,0.07631
0.02655,0.99668,0.07696,-0.08711,-0.04467,0.088
0.02683,0.99678,0.07553,-0.07494,-0.02536,0.06921
0.02683,0.99679,0.07537,-0.07494,-0.02537,0.06938
0.02542,0.99677,0.07612,-0.0651,0.09815,0.04364
0.02211,0.99684,0.07633,-0.20609,0.38972,0.1735
0.01067,0.99696,0.0771,-0.19464,0.38959,0.17273
-0.00189,0.99692,0.0784,0.14156,-0.41568,-0.02161
-0.00524,0.99777,0.06657,0.42587,-0.20149,-0.08558
-0.00259,0.99811,0.06131,0.37531,-0.06476,-0.04232
0.00365,0.99759,0.06931,0.10966,0.12039,0.07681
0.00742,0.99711,0.07562,-0.16898,0.12367,0.08967
-0.004,0.99714,0.0754,-0.19536,-0.00061,0.05304
-0.02584,0.99704,0.07243,-0.19168,-0.01472,-0.04375
-0.04813,0.99644,0.0692,-0.14513,0.01098,0.02924
-0.0673,0.99565,0.06449,-0.11337,0.02003,0.05378
-0.08195,0.99482,0.06004,-0.06747,0.02654,0.04717
-0.08795,0.99437,0.05913,0.10506,-0.0037,0.03053
-0.08905,0.99421,0.06018,0.14357,-0.00876,0.01061
-0.09041,0.99393,0.06263,0.1455,0.01965,-0.02903
-0.091,0.99368,0.06563,0.11626,0.03136,-0.01502
-0.09064,0.99358,0.06766,0.05234,0.02467,0.00319
-0.08949,0.99362,0.06866,-0.00462,0.00054,0.01386
-0.08816,0.99367,0.06954,-0.02598,0.00051,0.02209
-0.08639,0.99373,0.07093,-0.08257,0.00758,0.03614
-0.08505,0.99376,0.0722,-0.08546,0.00664,0.0425
-0.08464,0.99371,0.07325,-0.08917,0.0115,0.05331
-0.08423,0.99369,0.07401,-0.0589,-0.0008,0.0579
-0.08379,0.99371,0.07432,-0.0487,-0.01515,0.06303
-0.08331,0.99376,0.07421,-0.04974,-0.00824,0.06186
-0.0827,0.99381,0.07414,-0.05484,-0.00515,0.05391
-0.08203,0.99385,0.07441,-0.05321,-0.00607,0.04909
-0.08137,0.99388,0.0747,-0.04676,-0.00627,0.04391
-0.08083,0.99392,0.07476,-0.03584,-0.00276,0.03748
-0.08052,0.99395,0.07463,-0.01493,0.00321,0.03247
-0.08015,0.99401,0.07433,-0.01472,0.00103,0.03186
-0.07977,0.99406,0.074,-0.01018,0.00282,0.03103
-0.07942,0.99412,0.07363,-0.01447,0.00361,0.02723
-0.07889,0.99419,0.07322,-0.01035,0.00177,0.02283
-0.07831,0.99429,0.07254,-0.01186,0.00248,0.0192
-0.07785,0.99437,0.07184,-0.01302,-0.00292,0.02917
-0.07755,0.99445,0.07106,-0.00952,-2e-05,0.03496
-0.07745,0.9945,0.07048,0.0055,-0.00282,0.03278
-0.07749,0.99451,0.07026,0.00984,-0.00774,0.02452
-0.07751,0.99451,0.0703,0.00335,-0.00608,0.01439
-0.07743,0.99451,0.07045,-0.00453,0.00151,0.01046
-0.07738,0.9945,0.07058,-0.00844,0.00733,0.00956
-0.07746,0.99449,0.07064,0.00346,0.00762,0.01639
-0.07774,0.99447,0.07059,0.02709,-0.00132,0.02234
-0.07792,0.99446,0.07053,0.03263,-0.00726,0.02954
-0.0777,0.99447,0.07071,0.00446,3e-05,0.03064
-0.07722,0.99447,0.0711,-0.02631,0.00929,0.03336
-0.07675,0.9945,0.07128,-0.02918,0.00925,0.03591
-0.0764,0.99453,0.07126,-0.00547,-0.00474,0.0377
-0.07633,0.99453,0.07124,-0.00022,-0.0039,0.03828
-0.0763,0.99452,0.07143,0.00404,-0.00154,0.03683
-0.07633,0.9945,0.07179,0.00104,0.00286,0.03227
-0.07639,0.99446,0.07225,0.00388,0.00382,0.0306
-0.07655,0.99441,0.07272,0.00985,0.00092,0.02558
-0.07668,0.99436,0.07327,0.00629,-0.004,0.02715
-0.07681,0.99431,0.07385,0.00128,-0.00221,0.0262
-0.07679,0.99426,0.07449,-0.01997,0.00698,0.02672
-0.07679,0.99423,0.0749,-0.02998,0.01174,0.02694
-0.07679,0.99422,0.07503,-0.04026,0.01256,0.03168
-0.07682,0.99423,0.07483,-0.03313,-0.00488,0.03844
-0.07687,0.99424,0.07469,-0.03765,-0.00613,0.03815
-0.07688,0.99424,0.07474,-0.05387,-0.00295,0.03412
-0.07697,0.99423,0.07466,-0.04593,-0.0024,0.03358
-0.07727,0.99423,0.07447,-0.02742,-0.00091,0.03414
-0.07774,0.9942,0.0743,-0.01366,0.00348,0.03271
-0.07822,0.99417,0.07424,-0.00523,0.00864,0.03007
-0.07867,0.99413,0.07433,0.00588,0.00595,0.02401
-0.0791,0.99408,0.07445,0.01825,0.00647,0.01787
-0.07941,0.99406,0.0744,0.01925,0.00562,0.02263
-0.07957,0.99406,0.07425,0.02102,0.00699,0.023
-0.07959,0.99406,0.07418,0.01501,0.00941,0.03002
-0.07948,0.99407,0.07417,0.00501,0.00246,0.0307
-0.07931,0.99408,0.07427,-0.00583,-0.00282,0.03138
-0.07907,0.99409,0.07435,-0.0181,-0.00567,0.03221
-0.07879,0.9941,0.0745,-0.01946,-0.00534,0.03122
-0.07861,0.99411,0.07459,-0.02057,-0.00485,0.0311
-0.07855,0.9941,0.07478,-0.02458,-0.0037,0.03247
-0.07877,0.99406,0.07514,-0.02654,-0.0005,0.03077
-0.07923,0.99399,0.07551,0.00169,0.0045,0.03101
-0.07968,0.99394,0.07568,0.01009,0.00854,0.03114
-0.07995,0.99392,0.07567,-0.0094,0.00228,0.03853
-0.07995,0.99394,0.07545,-0.03649,-0.00505,0.03855
-0.07982,0.99397,0.07522,-0.04673,-0.00433,0.03856
-0.07975,0.99399,0.07505,-0.03306,-0.0011,0.04129
-0.0798,0.994,0.07476,-0.02438,-0.00548,0.0413
-0.07981,0.99402,0.0745,-0.02143,-0.00548,0.04011
-0.07976,0.99403,0.07448,-0.03784,-0.00155,0.03223
-0.07957,0.99403,0.07468,-0.04674,0.00104,0.02644
-0.07943,0.99403,0.07482,-0.04725,0.00223,0.02142
-0.07945,0.99403,0.07474,-0.03467,0.00253,0.02197
-0.07945,0.99406,0.07439,-0.02348,0.00103,0.02858
-0.07937,0.99409,0.07409,-0.01955,0.00224,0.02925
-0.07936,0.9941,0.07395,-0.01261,0.00643,0.031
-0.07916,0.99413,0.07379,-0.01993,0.00711,0.03194
-0.07884,0.99417,0.0735,-0.02538,0.00238,0.0339
-0.07846,0.99423,0.07317,-0.03105,-0.00514,0.03422
-0.07808,0.99428,0.07286,-0.04142,-0.00289,0.03583
-0.07773,0.99435,0.0723,-0.03816,-0.00276,0.03509
-0.07746,0.99443,0.07147,-0.02577,-0.00056,0.03891
-0.07719,0.99452,0.07053,-0.01771,-0.00052,0.03921
-0.0769,0.9946,0.0697,-0.01879,1e-05,0.03903
-0.07669,0.99466,0.06903,-0.01744,-0.00337,0.03806
-0.07661,0.99471,0.06845,-0.0092,-0.0031,0.0345
-0.07663,0.99474,0.06799,-0.00569,-0.00524,0.02941
-0.07665,0.99476,0.06764,-0.0045,-0.00018,0.02383
-0.07665,0.99477,0.06748,-0.00287,0.0043,0.01773
-0.07665,0.99478,0.06735,-0.00571,0.00523,0.01487
-0.07648,0.99481,0.06709,-0.00769,0.00652,0.01723
-0.07625,0.99485,0.06676,-0.01467,0.00452,0.02239
-0.07599,0.9949,0.06629,-0.01544,0.00337,0.02511
-0.07578,0.99495,0.06587,-0.00817,-0.00088,0.02489
-0.07558,0.99498,0.06555,-0.00142,-0.0057,0.02989
-0.07535,0.99501,0.06536,-0.00183,-0.00515,0.03116
-0.0751,0.99503,0.0654,-0.00703,-0.00402,0.03012
-0.07485,0.99503,0.06564,-0.01855,0.00217,0.02637
-0.07467,0.99503,0.06594,-0.01392,0.00223,0.02309
-0.07443,0.99503,0.06617,-0.02227,0.0039,0.01896
-0.07397,0.99505,0.06632,-0.03652,0.0018,0.02126
-0.07336,0.99509,0.06649,-0.03487,0.00894,0.0137
-0.07295,0.99509,0.06682,-0.02124,0.00875,0.0216
-0.07284,0.99509,0.06703,-0.01116,0.00067,0.02289
-0.07314,0.99506,0.06712,-0.00963,-0.00351,0.0387
-0.07347,0.99503,0.06723,-0.02777,-0.00319,0.0421
-0.07367,0.995,0.06744,-0.03972,-0.00358,0.03886
-0.07356,0.99499,0.06764,-0.04047,0.00047,0.04265
-0.07339,0.99501,0.06765,-0.03744,0.00522,0.0436
-0.07329,0.99504,0.06726,-0.03424,0.00455,0.04852
-0.07333,0.99508,0.06654,-0.0197,0.00237,0.04863
-0.07354,0.99511,0.06589,0.01318,-0.00409,0.04276
-0.07361,0.99513,0.06558,0.01523,-0.00086,0.04013
-0.07361,0.99513,0.06557,0.01171,0.0021,0.03236
-0.07343,0.99514,0.06566,-0.0056,0.01472,0.02284
-0.07301,0.99517,0.06556,-0.01938,0.0093,0.01824
-0.07255,0.99523,0.06521,-0.02571,0.00092,0.02353
-0.07211,0.99529,0.06479,-0.03855,-0.00998,0.03519
-0.07185,0.99534,0.06428,-0.03772,-0.01382,0.03682
-0.07175,0.99537,0.0639,-0.03372,-0.00998,0.03861
-0.07186,0.99537,0.06386,-0.02327,0.00228,0.03467
-0.07203,0.99535,0.06398,-0.01765,0.0048,0.02907
-0.07213,0.99534,0.06405,-0.01529,0.00512,0.0236
-0.0723,0.99532,0.06411,-5e-05,0.00498,0.01753
-0.07242,0.99531,0.06414,0.01697,0.006,0.01805
-0.07234,0.99532,0.06406,0.01689,0.00599,0.01813
-0.07209,0.99534,0.06413,0.0116,0.00393,0.01307
-0.07172,0.99535,0.06432,-0.00581,0.00374,0.01972
-0.07153,0.99535,0.06455,-0.006,0.00374,0.0195
-0.07145,0.99533,0.06485,-0.01696,-0.00311,0.03359
-0.07147,0.9953,0.06524,-0.01367,-0.00263,0.03649
-0.07139,0.99529,0.06559,-0.02259,-0.00296,0.04015
-0.07115,0.99529,0.06577,-0.03781,0.00074,0.04315
-0.07086,0.99531,0.06582,-0.0605,-0.00267,0.04702
-0.07066,0.99533,0.06576,-0.05997,-0.00432,0.04677
-0.07065,0.99534,0.06557,-0.04409,-0.00202,0.04607
-0.07081,0.99536,0.06511,-0.03218,-0.00282,0.04359
-0.071,0.99538,0.06459,-0.02929,-0.0026,0.04355
-0.07134,0.99538,0.06423,-0.02972,-0.00538,0.04179
-0.07172,0.99538,0.06389,-0.03574,-0.00131,0.04013
-0.07202,0.99538,0.06341,-0.03753,0.00449,0.03984
-0.07237,0.99538,0.06306,-0.0251,0.00485,0.03264
-0.07281,0.99537,0.06277,0.01677,0.00305,0.01781
-0.07325,0.99535,0.06247,0.01995,0.00646,0.01646
-0.07331,0.99536,0.06226,0.01049,0.00385,0.01661
-0.07301,0.9954,0.06208,0.00789,0.00392,0.01534
-0.07262,0.99543,0.062,0.00325,0.00303,0.01538
-0.07223,0.99545,0.06202,-0.00063,0.00259,0.02152
-0.07187,0.99548,0.06209,-0.00142,0.00159,0.02439
-0.07134,0.9955,0.06237,-0.01363,-0.00171,0.02506
-0.07063,0.99552,0.06279,-0.03438,-0.00384,0.02878
-0.06979,0.99555,0.06321,-0.04878,-0.00228,0.03675
-0.06895,0.99561,0.06329,-0.05653,-6e-05,0.04288
-0.06817,0.99567,0.06307,-0.06803,0.00536,0.04922
-0.06753,0.99574,0.06278,-0.06636,0.00159,0.05477
-0.06701,0.9958,0.06232,-0.05378,-0.00642,0.05394
-0.06658,0.99587,0.06176,-0.03866,-0.00542,0.05047
-0.06635,0.9959,0.06142,-0.01943,-0.00472,0.04627
-0.06628,0.99591,0.06128,-0.01331,-0.00658,0.03723
-0.06612,0.99593,0.06113,-0.01329,0.00365,0.03365
-0.06583,0.99596,0.06096,-0.01289,0.0104,0.02516
-0.06552,0.996,0.06078,-0.01584,0.00909,0.02002
-0.0653,0.99602,0.06061,-0.02654,0.00364,0.02125
-0.06512,0.99605,0.06033,-0.02952,-0.00066,0.01943
-0.06492,0.99608,0.05996,-0.03069,-0.00291,0.02154
-0.06475,0.99611,0.05976,-0.0308,-0.00123,0.0187
-0.06459,0.99611,0.05981,-0.02829,0.00042,0.0202
-0.0644,0.99613,0.05985,-0.0264,0.00455,0.02085
-0.0643,0.99613,0.05979,-0.01692,0.00947,0.03216
-0.06415,0.99617,0.05936,-0.01952,0.00705,0.04768
-0.06381,0.99625,0.05838,-0.02607,0.00441,0.05496
-0.06342,0.99635,0.05713,-0.06068,-0.00628,0.06172
-0.06283,0.99646,0.05588,-0.06413,-0.01516,0.06188
-0.0625,0.99654,0.05469,-0.05298,-0.01597,0.06083
-0.06275,0.99658,0.05369,-0.02476,-0.02418,0.05427
-0.0636,0.99657,0.05297,-0.00746,-0.01796,0.05169
-0.06555,0.99646,0.05267,-0.00551,-0.01785,0.05199
-0.06793,0.99627,0.0532,-0.01837,0.00173,0.0148
-0.06979,0.99607,0.05453,-0.02585,0.0233,-0.01069
-0.07044,0.99594,0.05604,-0.01531,0.02726,-0.01863
-0.07062,0.99587,0.05702,-0.00791,0.03094,-0.03578
-0.07065,0.99586,0.05708,-0.00465,0.02202,-0.02775
-0.07047,0.99592,0.05637,0.00184,0.01531,-0.02294
-0.07016,0.99599,0.0554,0.00713,0.00479,0.00405
-0.06967,0.99607,0.0546,-0.00334,-0.00338,0.02159
-0.06905,0.99613,0.05424,-0.00962,-0.00392,0.02518
-0.06851,0.99617,0.05422,-0.01245,-0.00383,0.03182
-0.0681,0.99619,0.05449,-0.01067,-0.00438,0.03788
-0.06779,0.99618,0.05489,-0.01235,-0.00436,0.04104
-0.06744,0.99618,0.05546,-0.03289,-0.0013,0.039
-0.06711,0.99615,0.05634,-0.03926,0.00132,0.03396
-0.067,0.9961,0.05735,-0.02813,0.00691,0.02064
-0.0671,0.99605,0.05799,0.01291,0.00897,0.02773
-0.06726,0.99605,0.05799,0.02024,0.01001,0.03441
-0.06725,0.99606,0.05773,0.02237,0.00589,0.04239
-0.06694,0.99609,0.05758,-0.00929,0.00029,0.05007
-0.06619,0.99613,0.0577,-0.05472,-0.00555,0.04961
-0.06527,0.99617,0.05808,-0.09314,-0.0031,0.0473
-0.0643,0.99622,0.0583,-0.1161,-0.00974,0.04381
-0.06377,0.99625,0.05837,-0.11661,-0.01372,0.04401
-0.06393,0.99625,0.05832,-0.08641,-0.00989,0.04065
-0.06468,0.99619,0.05837,-0.04591,-0.00697,0.03739
-0.06567,0.99612,0.05851,-0.01913,0.00092,0.02764
-0.06658,0.99605,0.05874,-0.00872,0.00452,0.02134
-0.06734,0.99598,0.05908,-0.01361,0.00695,0.02309
-0.06797,0.99591,0.05946,-0.01672,0.008,0.02308
-0.06862,0.99585,0.05982,-0.01009,0.01038,0.02143
-0.06936,0.99577,0.06013,0.01069,0.00494,0.02758
-0.07001,0.99572,0.06037,0.03086,0.00186,0.022
-0.07043,0.99567,0.06062,0.0346,0.00268,0.02316
-0.07056,0.99563,0.06109,0.04245,0.00902,0.02049
-0.07043,0.9956,0.06174,0.03936,0.00936,0.01546
-0.07004,0.99558,0.06249,0.02995,0.00416,0.01977
-0.06937,0.99559,0.06312,0.00191,0.0034,0.02788
-0.06846,0.99562,0.0636,-0.03846,-0.00664,0.04674
-0.06793,0.99564,0.06393,-0.05611,-0.00905,0.04723
-0.06776,0.99562,0.06437,-0.08715,-0.00565,0.04932
-0.06757,0.99561,0.06474,-0.09491,-0.0071,0.0535
-0.06765,0.9956,0.06485,-0.08878,-0.00458,0.04596
-0.06806,0.99556,0.06494,-0.05532,-0.00103,0.04076
-0.06833,0.99556,0.06476,-0.054,0.00125,0.04013
-0.06861,0.99555,0.06453,-0.04974,-0.00031,0.03718
-0.06879,0.99556,0.06422,-0.04075,0.00058,0.03577
-0.06907,0.99556,0.06385,-0.03527,0.00456,0.02549
-0.06927,0.99558,0.06341,-0.02786,0.00265,0.02062
-0.06958,0.99559,0.06289,-0.00927,-0.00307,0.01107
-0.06983,0.99561,0.06226,0.00817,-0.00028,0.01031
-0.06985,0.99565,0.06159,0.0104,0.00337,0.01182
-0.06983,0.99568,0.06114,0.01451,0.00301,0.01102
-0.06979,0.99569,0.06109,0.02818,0.00091,0.01133
-0.06984,0.99566,0.06152,0.03153,0.00409,0.00791
-0.06993,0.9956,0.06232,0.03594,-0.00421,0.00688
-0.07023,0.99552,0.06323,0.03618,-0.00265,0.00954
-0.07067,0.99541,0.06448,0.03539,-0.00023,0.01501
-0.07092,0.99529,0.0661,0.01062,0.01477,0.02806
-0.07082,0.99518,0.06777,-0.03572,0.01315,0.03755
-0.07028,0.99513,0.0691,-0.06016,0.01117,0.03655
-0.06972,0.9951,0.07005,-0.11245,-0.00305,0.03559
-0.0704,0.99503,0.07043,-0.13313,-0.00433,0.0389
-0.07151,0.99496,0.07029,-0.15606,-0.00689,0.05652
-0.07245,0.99493,0.06976,-0.07385,-0.01575,0.0651
-0.07289,0.99494,0.06907,-0.04772,-0.01077,0.05863
-0.07334,0.99494,0.0686,-0.03325,-0.00701,0.05317
-0.07404,0.99489,0.06858,-0.0162,0.00415,0.04014
-0.07472,0.99483,0.06874,-0.01357,0.00863,0.0261
-0.07517,0.99478,0.06891,-0.00723,0.00709,0.02624
-0.07564,0.99474,0.06911,0.00731,-0.00153,0.00748
-0.07594,0.99471,0.06915,0.01045,0.00117,0.00193
-0.0762,0.9947,0.06902,0.01515,0.0043,0.00451
-0.07632,0.9947,0.06888,0.01382,0.00311,0.00954
-0.0763,0.9947,0.0689,0.00975,-0.00036,0.01278
-0.07619,0.99469,0.06918,0.00298,-0.00366,0.01609
-0.07601,0.99466,0.06976,-0.00257,0.00076,0.01634
-0.07583,0.99462,0.07054,-0.01015,0.00653,0.01935
-0.07565,0.99457,0.07135,-0.03109,0.00311,0.02191
-0.07548,0.99453,0.07211,-0.04238,-0.0017,0.02791
-0.07535,0.99449,0.0728,-0.0475,-1e-05,0.03228
-0.07526,0.99445,0.07344,-0.05167,0.0039,0.03408
-0.07521,0.99441,0.07398,-0.05313,0.00034,0.03531
-0.07508,0.99439,0.0744,-0.05224,-0.00146,0.03444
-0.07485,0.99439,0.07469,-0.05749,0.00117,0.03453
-0.07457,0.9944,0.0748,-0.05597,0.00505,0.03484
-0.07437,0.99443,0.07461,-0.0543,-0.00234,0.03434
-0.07404,0.99448,0.07429,-0.05363,-0.0,0.0354
-0.07385,0.99451,0.07402,-0.0477,0.0033,0.03547
-0.07385,0.99453,0.07376,-0.02288,0.00339,0.03471
-0.07365,0.99457,0.07352,-0.01463,0.00069,0.03297
-0.07351,0.99459,0.07332,0.00082,-0.00245,0.02403
-0.0735,0.99461,0.0731,0.00732,0.00499,0.02711
-0.07334,0.99464,0.07281,0.00993,0.0053,0.03012
-0.0732,0.99467,0.07255,0.01016,0.00202,0.02802
-0.07299,0.9947,0.0724,0.00173,-0.00072,0.03046
-0.07283,0.99471,0.07233,0.00011,-0.00163,0.03094
-0.0727,0.99473,0.07228,-0.00181,-0.00344,0.03056
-0.07256,0.99474,0.07225,-0.01218,-0.0036,0.03392
-0.07244,0.99474,0.07234,-0.01932,-0.00373,0.03357
-0.07232,0.99473,0.07258,-0.02611,-0.00241,0.0294
-0.07224,0.99472,0.07281,-0.02639,0.0001,0.02852
-0.07212,0.99472,0.07304,-0.02766,0.00318,0.02389
-0.07193,0.99472,0.07312,-0.03248,0.00363,0.02626
-0.07172,0.99474,0.07309,-0.03611,0.00112,0.02623
-0.07158,0.99475,0.07303,-0.04149,-0.00083,0.02962
-0.07152,0.99476,0.07299,-0.04625,-0.00132,0.03248
-0.07146,0.99477,0.07291,-0.05414,-0.00228,0.03363
-0.07144,0.99478,0.07277,-0.05189,-0.00345,0.03458
-0.07154,0.99479,0.07262,-0.03476,0.00317,0.03206
-0.07162,0.99479,0.07245,-0.02158,0.00432,0.03006
-0.07157,0.99481,0.07229,-0.02099,0.00611,0.03069
-0.07147,0.99483,0.07211,-0.03116,0.00011,0.02649
-0.07125,0.99486,0.07192,-0.03329,0.00035,0.02163
-0.07101,0.9949,0.07163,-0.03074,-0.00271,0.02211
-0.07091,0.99493,0.07127,-0.02725,0.00197,0.03125
-0.07087,0.99496,0.07093,-0.02161,0.00571,0.03138
-0.07075,0.99498,0.0707,-0.01638,0.00152,0.03149
-0.07055,0.99501,0.07057,-0.02643,-0.00393,0.02569
-0.07026,0.99504,0.07046,-0.03708,-0.00309,0.02513
-0.07001,0.99507,0.07024,-0.04234,-0.00247,0.02735
-0.06987,0.9951,0.06992,-0.03325,-0.00189,0.03075
-0.06979,0.99513,0.06953,-0.0307,-0.00418,0.03185
-0.06972,0.99516,0.06926,-0.03715,-0.00028,0.0294
-0.06978,0.99516,0.06916,-0.03561,-0.00328,0.02503
-0.07008,0.99515,0.06907,-0.02394,-0.00491,0.01878
-0.07061,0.99511,0.06904,-0.01146,-0.00277,0.01389
-0.07126,0.99505,0.06916,0.00265,0.00171,0.01217
-0.07179,0.995,0.06939,0.0067,0.00558,0.01015
-0.07205,0.99496,0.06976,0.00226,0.01266,0.00954
-0.07192,0.99494,0.07013,-0.01648,0.01075,0.00856
-0.07154,0.99495,0.07035,-0.02802,0.00813,0.01418
-0.07116,0.99499,0.07023,-0.02636,0.0091,0.01902
-0.07085,0.99504,0.06982,-0.02113,0.00421,0.03049
-0.07056,0.99509,0.06936,-0.01576,0.00244,0.03719
-0.07006,0.99514,0.06911,-0.01529,0.00211,0.03654
-0.06947,0.99518,0.06913,-0.02188,4e-05,0.03358
-0.06885,0.99523,0.06914,-0.03192,-0.00372,0.02713
-0.06827,0.99528,0.0689,-0.03807,-0.00398,0.02937
-0.06788,0.99533,0.06853,-0.03942,-0.00142,0.02802
-0.06771,0.99537,0.0682,-0.03007,0.0014,0.02931
-0.06764,0.99539,0.06797,-0.02794,0.00032,0.03096
-0.06774,0.99538,0.06798,-0.02627,-0.00043,0.03421
-0.06781,0.99537,0.06813,-0.02797,-0.0046,0.03596
-0.06792,0.99534,0.06843,-0.03318,-0.00249,0.03276
-0.06804,0.9953,0.06889,-0.03096,0.00014,0.0262
-0.06817,0.99526,0.06936,-0.03094,0.00027,0.02468
-0.06839,0.99521,0.06987,-0.02542,0.00138,0.02351
-0.06853,0.99516,0.07033,-0.03344,0.0007,0.02673
-0.06863,0.99512,0.07086,-0.03715,0.0095,0.02303
-0.0687,0.99508,0.07135,-0.03958,0.00982,0.01639
-0.0688,0.99506,0.07157,-0.03655,0.00076,0.01944
-0.069,0.99505,0.07147,-0.02625,-0.00105,0.02966
-0.06925,0.99504,0.07131,-0.02143,-0.00228,0.03401
-0.0695,0.99503,0.07127,-0.01932,-0.00098,0.03062
-0.06955,0.99501,0.07146,-0.02502,0.00171,0.02874
-0.06946,0.995,0.07173,-0.02813,-0.00101,0.02806
-0.06933,0.995,0.0719,-0.04326,0.00615,0.02352
-0.06922,0.995,0.07192,-0.04297,0.00284,0.02476
-0.06918,0.99502,0.07177,-0.03867,-0.00204,0.02637
-0.06925,0.99503,0.07151,-0.02484,-0.00025,0.03076
-0.06928,0.99504,0.07129,-0.01966,0.0023,0.03049
-0.06926,0.99506,0.07113,-0.01842,0.00256,0.03028
-0.06919,0.99507,0.071,-0.02512,-0.00276,0.03244
-0.06905,0.99509,0.07085,-0.03984,-0.00092,0.03372
-0.0689,0.99512,0.07058,-0.03998,-0.00095,0.03399
-0.06888,0.99514,0.0703,-0.03209,-0.00054,0.03558
-0.06886,0.99517,0.06988,-0.03622,0.00385,0.03496
-0.06873,0.99522,0.06939,-0.03635,0.00381,0.03546
-0.06871,0.99525,0.06887,-0.04193,-0.00407,0.03298
-0.0687,0.99529,0.06835,-0.03686,-0.00052,0.03349
-0.06874,0.99533,0.06781,-0.03682,-0.00056,0.03403
-0.06896,0.99535,0.06725,-0.01896,-0.00142,0.03312
-0.06917,0.99537,0.06671,-0.01367,0.00167,0.03145
-0.06937,0.99538,0.06635,-0.0178,0.00422,0.02943
-0.06953,0.99539,0.06608,-0.02343,0.00213,0.02535
-0.06968,0.99539,0.06585,-0.02482,-0.002,0.02074
-0.06985,0.9954,0.06552,-0.02345,0.00078,0.01874
-0.07003,0.99542,0.0651,-0.02077,0.00155,0.01733
-0.07027,0.99543,0.0646,-0.02285,-0.00172,0.02408
-0.0705,0.99545,0.06407,-0.02215,-0.00355,0.02301
-0.07079,0.99545,0.06372,-0.02293,-0.0027,0.02454
-0.07108,0.99544,0.06361,-0.01498,-0.00043,0.01823
-0.07134,0.99541,0.0637,-0.01257,0.0012,0.017
-0.07159,0.99538,0.06396,-0.01058,0.00541,0.00847
-0.0718,0.99534,0.06428,-0.00454,0.00525,0.00164
-0.072,0.99531,0.06449,-0.00527,0.00754,0.00379
-0.0722,0.9953,0.06457,-0.01737,0.00142,0.01795
-0.07223,0.99529,0.06465,-0.03491,-0.00154,0.02028
-0.07216,0.99529,0.06478,-0.0454,-0.0006,0.02213
-0.07214,0.99528,0.06487,-0.04311,0.00457,0.02592
-0.07226,0.99528,0.06479,-0.0394,0.00066,0.02875
-0.07249,0.99527,0.06469,-0.03383,-0.00343,0.03806
-0.07259,0.99525,0.06483,-0.04144,-0.00418,0.03225
-0.07263,0.99523,0.06512,-0.03554,-0.00063,0.02499
-0.07276,0.99521,0.06519,-0.02502,0.00111,0.02513
-0.07292,0.99522,0.065,-0.02559,0.00187,0.02988
-0.07303,0.99523,0.06472,-0.02563,0.00215,0.03394
-0.07311,0.99523,0.0645,-0.01359,-0.00233,0.02995
-0.07309,0.99524,0.06449,-0.01552,-0.00543,0.02354
-0.07302,0.99524,0.06454,-0.02483,-0.00455,0.02445
-0.07296,0.99524,0.06454,-0.02898,-0.0015,0.02615
-0.07286,0.99525,0.06456,-0.03305,0.0017,0.0253
-0.07283,0.99524,0.06466,-0.03331,0.00415,0.02298
-0.07284,0.99523,0.06495,-0.03623,0.00316,0.02912
-0.07283,0.9952,0.06527,-0.0495,-0.00071,0.02896
-0.07287,0.99518,0.06552,-0.04954,-0.00385,0.02662
-0.07303,0.99516,0.06576,-0.04369,-0.00595,0.02727
-0.07324,0.99513,0.066,-0.02213,-0.00013,0.02024
-0.07341,0.9951,0.06618,-0.02937,0.00748,0.02768
-0.07344,0.99509,0.06627,-0.03334,0.00576,0.02669
-0.07342,0.9951,0.06624,-0.04682,0.00405,0.03201
-0.07341,0.99511,0.0661,-0.04229,0.00125,0.03169
-0.07348,0.99512,0.06586,-0.0351,0.00059,0.02991
-0.07371,0.99512,0.06558,-0.01501,0.00604,0.03286
-0.07408,0.99511,0.06528,-0.01117,0.00263,0.03697
-0.07428,0.99511,0.06505,-0.01066,-0.00059,0.03431
-0.07442,0.99511,0.06495,-0.00723,-0.00571,0.02055
-0.0745,0.9951,0.065,0.00355,0.00527,0.01887
-0.07446,0.9951,0.06503,0.00479,0.00812,0.01686
-0.07427,0.99511,0.06505,-0.00582,0.00272,0.01601
-0.07401,0.99513,0.06508,-0.03364,0.00287,0.0222
-0.0738,0.99514,0.0651,-0.03385,0.00286,0.02218
-0.07364,0.99515,0.06517,-0.03339,-0.00399,0.02633
-0.07355,0.99516,0.06518,-0.03112,-0.00363,0.0306
-0.07341,0.99516,0.06531,-0.03126,-0.00363,0.03047
-0.07331,0.99516,0.06549,-0.04203,0.00179,0.03179
-0.07323,0.99516,0.06555,-0.0507,-0.00248,0.03702
-0.07308,0.99517,0.06548,-0.04743,-0.00392,0.03481
-0.07296,0.99519,0.06534,-0.03939,-0.00302,0.03375
-0.0729,0.9952,0.06524,-0.02249,0.00774,0.03232
-0.0728,0.99522,0.06507,-0.0191,0.00774,0.03099
-0.07272,0.99524,0.06483,-0.01062,0.00603,0.02988
-0.07257,0.99527,0.06459,0.00857,-0.0003,0.02025
-0.07225,0.99531,0.06436,0.01052,-0.00109,0.01786
-0.07177,0.99537,0.06396,0.00044,0.00428,0.01945
-0.0712,0.99544,0.0634,-0.04944,0.00186,0.02505
-0.0707,0.99552,0.06273,-0.06006,-0.00469,0.02486
-0.07039,0.99558,0.06213,-0.06578,-0.0095,0.03714
-0.07041,0.99562,0.06144,-0.05875,-0.00865,0.04143
-0.07068,0.99564,0.06084,-0.04582,-0.00646,0.04254
-0.07106,0.99562,0.06076,-0.03608,-0.00364,0.02913
-0.07131,0.99557,0.06118,-0.03271,0.00121,0.01888
-0.07156,0.99553,0.06166,-0.03153,0.00264,0.00386
-0.0717,0.99551,0.06182,-0.02173,0.00393,0.00533
-0.07176,0.99551,0.06175,-0.01926,0.00184,0.0081
-0.07172,0.99551,0.06179,-0.01857,0.00236,0.01388
-0.0716,0.99551,0.06186,-0.02325,0.00794,0.0164
-0.07139,0.99552,0.06195,-0.02927,0.00839,0.02151
-0.07123,0.99554,0.06189,-0.03001,0.00739,0.01993
-0.07112,0.99556,0.06167,-0.02546,5e-05,0.03072
-0.07092,0.99559,0.06136,-0.02932,-0.00472,0.04095
-0.07065,0.99562,0.06116,-0.03095,-0.00337,0.04077
-0.07044,0.99564,0.06122,-0.03254,0.0025,0.03626
-0.07025,0.99564,0.06129,-0.02922,-0.00098,0.02796
-0.07002,0.99566,0.06121,-0.03116,-0.00473,0.02582
-0.06977,0.99569,0.06109,-0.03872,-0.00094,0.02535
-0.06957,0.99571,0.06104,-0.03641,0.00031,0.02145
-0.0694,0.99572,0.06098,-0.03279,0.00516,0.02207
-0.06925,0.99574,0.06087,-0.03126,0.00251,0.01855
-0.06906,0.99577,0.06066,-0.03165,-0.00639,0.01944
-0.0688,0.9958,0.06041,-0.03191,-0.00642,0.0197
-0.06867,0.99583,0.0601,-0.0332,0.0095,0.02164
-0.0686,0.99585,0.0598,-0.02053,0.00734,0.02929
-0.06854,0.99587,0.05946,-0.01473,-0.00065,0.02996
-0.06838,0.9959,0.0593,-0.01617,-0.0056,0.02994
-0.06816,0.99591,0.05931,-0.02867,0.00089,0.02809
-0.068,0.99592,0.05934,-0.0426,-0.00244,0.02558
-0.06797,0.99592,0.05935,-0.04897,-0.00361,0.02236
-0.06807,0.99591,0.05933,-0.04473,-0.0002,0.01576
-0.06828,0.9959,0.05933,-0.03815,0.00157,0.01776
-0.06853,0.99588,0.05931,-0.02024,0.00566,0.01462
-0.06877,0.99587,0.05932,-0.01346,0.00087,0.01605
-0.06879,0.99586,0.05937,-0.01336,-0.00119,0.01861
-0.06874,0.99585,0.0596,-0.03161,-0.00252,0.01509
-0.06875,0.99584,0.05988,-0.0353,0.00403,0.01029
-0.06884,0.99582,0.06011,-0.02582,0.0051,0.00952
-0.0689,0.9958,0.06032,-0.01867,0.00175,0.00954
-0.06888,0.99579,0.06054,-0.02188,0.00331,0.01518
-0.06871,0.99578,0.06076,-0.03343,0.00455,0.01756
-0.06858,0.99577,0.06105,-0.05541,-0.00086,0.02455
-0.06857,0.99577,0.06124,-0.0552,-0.00501,0.0284
-0.06863,0.99575,0.0615,-0.04952,-0.00514,0.03358
-0.06875,0.99572,0.06178,-0.04052,-0.00541,0.02519
-0.06881,0.99569,0.06224,-0.03745,-0.00235,0.0229
-0.06893,0.99564,0.0628,-0.02065,-0.00062,0.01399
-0.06906,0.9956,0.06341,-0.01534,0.00886,0.01463
-0.06916,0.99555,0.06392,-0.01522,0.01774,0.01846
-0.06931,0.99553,0.0642,-0.00756,0.00907,0.02214
-0.06927,0.99552,0.06429,-0.0228,-0.00207,0.02969
-0.06913,0.99552,0.06441,-0.03933,-0.011,0.02839
-0.06916,0.99551,0.06462,-0.03791,-0.01153,0.02666
-0.06945,0.99548,0.06481,-0.02136,0.0013,0.03374
-0.06983,0.99543,0.06512,-0.01127,0.01093,0.03002
-0.07009,0.99537,0.06572,-0.01168,0.01238,0.0233
-0.07024,0.99532,0.06642,-0.01682,0.01714,0.00741
-0.07018,0.9953,0.06679,-0.02653,0.01586,0.0021
-0.07011,0.9953,0.06678,-0.0277,-0.00449,0.00196
-0.07001,0.99532,0.0666,-0.01527,-0.00643,0.00148
-0.06984,0.99534,0.06655,-0.00473,0.00346,-0.00283
-0.06975,0.99533,0.06678,0.01672,-0.00215,-0.00193
-0.0697,0.99529,0.06739,0.01762,0.00813,-0.00182
-0.06949,0.99524,0.06833,-0.0245,0.01772,0.00531
-0.06917,0.9952,0.06923,-0.05814,0.00436,0.01419
-0.06876,0.9952,0.06956,-0.0819,-0.00808,0.02799
-0.06833,0.99526,0.06921,-0.09727,-0.0027,0.04528
-0.0681,0.99536,0.06802,-0.10694,0.00048,0.06884
-0.06794,0.99547,0.0665,-0.09645,-0.00885,0.07687
-0.06802,0.99556,0.06505,-0.07219,-0.01279,0.07989
-0.06834,0.99563,0.06367,-0.04527,-0.00886,0.07248
-0.06887,0.99567,0.06247,-0.0216,-0.00813,0.06348
-0.0695,0.99566,0.06181,0.00234,-0.00674,0.04489
-0.06984,0.99563,0.06203,0.00412,-0.00085,0.03941
-0.07005,0.99556,0.06289,-0.01468,0.00131,0.01485
-0.07053,0.99547,0.06375,-0.01878,0.00415,-0.00888
-0.07121,0.99539,0.06426,-0.00911,0.00509,-0.01211
-0.07203,0.9953,0.06465,0.01253,-0.00109,-0.02494
-0.07285,0.99521,0.06514,0.03124,0.01686,-0.01816
-0.07339,0.99513,0.06579,0.0256,0.02587,-0.01702
-0.0736,0.99508,0.06634,0.00427,0.0236,-0.01451
-0.07355,0.99508,0.06643,-0.05335,0.00773,-0.00139
-0.07343,0.99511,0.066,-0.06414,0.00354,0.0126
-0.07343,0.99517,0.06513,-0.0751,0.00069,0.02596
-0.07338,0.99525,0.06403,-0.02459,0.00154,0.03438
-0.07341,0.9953,0.06307,-0.00837,-0.00037,0.03501
-0.07347,0.99534,0.06251,0.01366,-0.00644,0.04088
-0.07333,0.99535,0.0624,0.00915,-0.00468,0.03815
-0.07321,0.99534,0.0628,-0.00502,-0.00072,0.03241
-0.07309,0.99529,0.06374,-0.01666,-0.00273,0.01638
-0.07319,0.9952,0.06501,-0.04362,-0.00415,0.01214
-0.07331,0.99509,0.06644,-0.05297,-0.0129,-0.00142
-0.07389,0.99496,0.0677,-0.039,0.01021,0.00023
-0.07493,0.99481,0.06878,-0.03106,0.01445,0.002
-0.07596,0.99467,0.06964,-0.02141,0.01526,0.00165
-0.07663,0.99459,0.07017,-0.01102,0.01381,0.00149
-0.07664,0.99457,0.07038,-0.0192,0.01501,-0.00364
-0.07629,0.99459,0.07045,-0.02356,0.00768,-0.00243
-0.07574,0.99465,0.07027,-0.03116,3e-05,0.01229
-0.0752,0.99472,0.06981,-0.02764,-0.00336,0.02323
-0.07476,0.99478,0.06938,-0.03276,-0.00348,0.02621
-0.07451,0.99478,0.06965,-0.04226,0.00529,0.03416
-0.07437,0.99475,0.07035,-0.04657,0.00364,0.0275
-0.07431,0.9947,0.07105,-0.0522,-0.00375,0.02184
-0.0743,0.99466,0.07158,-0.05108,-0.00234,0.02168
-0.07433,0.99464,0.07185,-0.05093,0.00115,0.02507
-0.07438,0.99462,0.07201,-0.05088,0.00156,0.02456
-0.07452,0.99461,0.07209,-0.04193,-0.00141,0.02836
-0.07471,0.99461,0.0719,-0.02489,-0.00442,0.02998
-0.07483,0.99462,0.07161,-0.0185,-0.00384,0.03218
-0.07484,0.99463,0.07145,-0.02422,-0.00193,0.02961
-0.07484,0.99462,0.0716,-0.02696,-0.00063,0.02362
-0.07487,0.9946,0.07186,-0.02523,-0.00046,0.02072
-0.07492,0.99457,0.07215,-0.03649,0.00056,0.01655
-0.0751,0.99455,0.07236,-0.05331,0.00452,0.01407
-0.07546,0.99452,0.0724,-0.04701,0.00255,0.01456
-0.07595,0.99449,0.0723,-0.02284,0.00039,0.01798
-0.0764,0.99446,0.07216,-0.01215,-0.0036,0.01428
-0.07669,0.99445,0.07208,-0.01748,0.00038,0.01276
-0.07704,0.99441,0.07216,-0.01668,0.00136,0.00839
-0.0774,0.99437,0.07231,-0.00602,0.00222,0.01117
-0.07756,0.99436,0.07238,-0.01518,0.00619,0.012
-0.07758,0.99435,0.07251,-0.03416,0.00357,0.01357
-0.07765,0.99433,0.07264,-0.04433,0.00617,0.01044
-0.0778,0.99431,0.07273,-0.03819,0.00817,0.0114
-0.07793,0.9943,0.07269,-0.02267,0.00337,0.016
-0.07788,0.99432,0.07253,-0.0286,-0.00448,0.02023
-0.07759,0.99434,0.07253,-0.04736,0.00027,0.01839
-0.07741,0.99435,0.07268,-0.05609,0.00748,0.01534
-0.07733,0.99435,0.07266,-0.05158,0.00912,0.01313
-0.07724,0.99439,0.07228,-0.04881,0.00709,0.01487
-0.07707,0.99444,0.07172,-0.04375,0.00328,0.02087
-0.07667,0.99452,0.07103,-0.04654,-0.00353,0.02103
-0.07606,0.99462,0.07032,-0.0452,-0.00654,0.02316
-0.07553,0.99471,0.06965,-0.0522,0.00734,0.01922
-0.075,0.9948,0.06889,-0.05391,0.01265,0.02586
-0.07464,0.9949,0.06786,-0.05034,-0.00265,0.03132
-0.07444,0.99498,0.06688,-0.04908,-0.0155,0.03996
-0.0743,0.99503,0.06636,-0.04586,-0.01736,0.03749
-0.07433,0.99502,0.06634,-0.03851,-0.0155,0.03091
-0.07453,0.995,0.06649,-0.0162,0.00314,0.01543
-0.07462,0.99499,0.06658,-0.01351,0.01241,0.01262
-0.07447,0.995,0.06651,-0.01965,0.0126,0.01015
-0.07418,0.99505,0.06619,-0.03924,0.00852,0.0098
-0.07396,0.99511,0.06552,-0.03636,0.00086,0.01176
-0.07387,0.99517,0.06467,-0.03928,-0.00434,0.01477
-0.07391,0.99521,0.06392,-0.02907,-0.01371,0.02279
-0.07404,0.99524,0.0634,-0.01501,-0.00464,0.02008
-0.07412,0.99524,0.06326,-0.01028,0.00445,0.01289
-0.07408,0.99524,0.06335,-0.01803,0.01029,0.00316
-0.07396,0.99525,0.06337,-0.03218,0.0107,0.0023
-0.07374,0.99529,0.06301,-0.02757,0.00658,0.00059
-0.07346,0.99534,0.06242,-0.02046,0.00315,0.00959
-0.07311,0.9954,0.06192,-0.0137,0.00024,0.01089
-0.07275,0.99545,0.06155,-0.01406,-0.00129,0.01197
-0.07252,0.99548,0.06125,-0.02167,-0.00264,0.01152
-0.07243,0.9955,0.06109,-0.02012,-0.00282,0.01589
-0.07238,0.99551,0.06102,-0.01894,-0.00387,0.01587
-0.07229,0.99551,0.06102,-0.03433,0.00589,0.01999
-0.07215,0.99552,0.06117,-0.04196,-0.00025,0.01531
-0.07198,0.99552,0.06135,-0.04599,0.00071,0.01402
-0.07182,0.99552,0.06142,-0.04984,0.00336,0.01249
-0.07176,0.99554,0.06131,-0.04196,0.0036,0.01463
-0.07175,0.99555,0.06102,-0.03841,0.00165,0.01671
-0.07173,0.99557,0.06073,-0.03325,0.00128,0.01684
-0.07176,0.99559,0.06049,-0.02306,-0.00309,0.00929
-0.07168,0.99561,0.06025,-0.02594,-0.0016,0.01025
-0.07161,0.99563,0.05997,-0.03265,-0.00291,0.01565
-0.07156,0.99564,0.05984,-0.0255,0.00322,0.00969
-0.07152,0.99565,0.05975,-0.02228,0.00858,0.00987
-0.07155,0.99565,0.05972,-0.01775,0.0091,0.01254
-0.0716,0.99565,0.05959,-0.02656,0.00635,0.01591
-0.07158,0.99566,0.05946,-0.03355,0.0042,0.01668
-0.07162,0.99566,0.05939,-0.04102,-0.00709,0.00943
-0.07179,0.99565,0.05938,-0.03245,-0.00209,0.00991
-0.0721,0.99562,0.05949,-0.01998,0.0003,0.01182
-0.07234,0.9956,0.05959,-0.00941,0.00577,0.00908
-0.07226,0.9956,0.05974,-0.02068,0.00445,0.00759
-0.07206,0.99559,0.06003,-0.03577,0.00068,0.00429
-0.0719,0.9956,0.06013,-0.03338,0.0039,0.0122
-0.07183,0.9956,0.0601,-0.02883,0.00379,0.01681
-0.07179,0.99561,0.06008,-0.02324,0.00271,0.01815
-0.07167,0.9956,0.06029,-0.0217,0.00018,0.01408
-0.0714,0.9956,0.06062,-0.0354,0.00371,0.0084
-0.07112,0.99561,0.06086,-0.0388,0.00303,0.01016
-0.07091,0.99562,0.06085,-0.0409,0.00444,0.01444
-0.07079,0.99564,0.06081,-0.03706,-0.00075,0.01678
-0.07077,0.99563,0.0609,-0.03168,-0.00332,0.01482
-0.07078,0.99562,0.0611,-0.0297,-0.00355,0.01564
-0.07078,0.9956,0.06132,-0.02987,0.00452,0.01442
-0.07072,0.99559,0.06163,-0.03467,0.0063,0.01722
-0.07069,0.99557,0.062,-0.02842,-0.00021,0.01497
-0.07066,0.99555,0.06231,-0.02964,0.00143,0.01599
-0.07066,0.99553,0.06261,-0.03528,0.00018,0.01731
-0.07076,0.9955,0.06296,-0.03454,-0.00138,0.02168
-0.07096,0.99547,0.06333,-0.02897,-0.00403,0.01588
-0.07125,0.99542,0.06373,-0.01996,-0.00323,0.01522
-0.07154,0.99537,0.06414,-0.00881,-0.00129,0.01653
-0.07177,0.99532,0.06466,-0.01064,0.00317,0.01637
-0.07192,0.99527,0.06531,-0.01954,0.00455,0.0175
-0.07201,0.99521,0.06612,-0.03074,-0.00011,0.01643
-0.07214,0.99514,0.06705,-0.03817,-0.00301,0.00625
-0.07239,0.99506,0.06797,-0.04097,0.00354,0.0068
-0.07286,0.99498,0.06866,-0.04297,0.01134,0.00754
-0.07335,0.99491,0.06914,-0.02786,0.0063,0.01921
-0.07385,0.99484,0.06963,-0.02525,0.00396,0.01707
-0.07422,0.99476,0.07031,-0.02736,0.00562,0.0194
-0.07446,0.9947,0.07098,-0.03932,-0.00121,0.01256
-0.07463,0.99464,0.07153,-0.03866,-0.00288,0.0124
-0.0748,0.9946,0.07188,-0.03149,-0.00118,0.00872
-0.07491,0.99458,0.0721,-0.02632,0.00376,0.00906
-0.07485,0.99457,0.07225,-0.02789,0.00593,0.00796
-0.07473,0.99458,0.07233,-0.03088,0.00619,0.01098
-0.07464,0.99458,0.07237,-0.02456,0.00397,0.00826
-0.07458,0.99459,0.0723,-0.02474,0.00181,0.01226
-0.07455,0.9946,0.07222,-0.02012,-0.00304,0.01615
-0.07446,0.9946,0.0723,-0.02902,-0.00028,0.01672
-0.07432,0.99459,0.07259,-0.03263,0.0014,0.01248
-0.07427,0.99457,0.07286,-0.02649,0.00335,0.01582
-0.07419,0.99457,0.073,-0.0274,0.00153,0.01654
-0.07412,0.99457,0.07304,-0.02736,0.00056,0.01522
-0.07409,0.99456,0.07318,-0.03222,0.00078,0.02118
-0.07403,0.99455,0.07347,-0.0337,0.00306,0.01982
-0.07397,0.99453,0.07369,-0.03667,0.00058,0.01281
-0.07392,0.99453,0.07374,-0.03488,0.00061,0.01552
-0.07377,0.99454,0.07375,-0.039,0.00167,0.01425
-0.07357,0.99456,0.07371,-0.04089,0.00223,0.01629
-0.07344,0.99458,0.07363,-0.04299,-0.00164,0.01559
-0.0733,0.9946,0.07349,-0.03793,-0.00217,0.01636
-0.07315,0.99462,0.0733,-0.03675,-0.00128,0.01795
-0.07301,0.99465,0.07312,-0.03513,0.00201,0.0156
-0.07287,0.99466,0.07302,-0.03443,0.00204,0.01592
-0.07276,0.99468,0.07286,-0.03775,0.00024,0.01533
-0.07274,0.9947,0.07268,-0.0314,-4e-05,0.01399
-0.07277,0.99471,0.07253,-0.03033,0.00157,0.01465
-0.07286,0.99471,0.07244,-0.0203,0.00126,0.01308
-0.07292,0.99471,0.07229,-0.01695,-0.00179,0.00942
-0.07294,0.99472,0.07212,-0.01803,0.00425,0.00798
-0.07299,0.99473,0.07202,-0.01991,0.00852,0.00618
-0.07315,0.99472,0.07193,-0.01162,0.00825,0.00941
-0.07339,0.99472,0.07175,-0.00894,0.00698,0.00753
-0.07337,0.99473,0.07162,-0.03565,0.00066,0.01058
-0.0731,0.99477,0.07142,-0.0621,-0.00229,0.01133
-0.07277,0.9948,0.0712,-0.06978,-0.00266,0.00726
-0.07266,0.99484,0.07081,-0.05446,-0.00206,0.00865
-0.07278,0.99487,0.07031,-0.03151,0.00124,0.01175
-0.07302,0.99488,0.06989,-0.00517,-0.0001,0.01173
-0.0731,0.99489,0.06972,-0.00425,-0.00345,0.00758
-0.07307,0.99489,0.06974,-0.00838,-0.00303,-0.00083
-0.07301,0.99489,0.06978,-0.01992,0.00903,-0.0028
-0.07296,0.99491,0.06947,-0.0246,0.01014,0.00194
-0.07292,0.99495,0.069,-0.03589,0.00501,0.01413
-0.07282,0.99498,0.0687,-0.03954,-0.00106,0.00827
-0.07268,0.99499,0.06861,-0.02782,0.00137,0.00869
-0.07255,0.99502,0.06835,-0.02814,-0.00254,0.01057
-0.07247,0.99504,0.0681,-0.02839,-0.0016,0.01847
-0.07236,0.99505,0.06812,-0.02752,-0.00089,0.01516
-0.0723,0.99504,0.06834,-0.03027,-0.00192,0.00963
-0.07225,0.99503,0.06857,-0.0361,0.00339,0.00493
-0.07226,0.99501,0.06873,-0.03466,-0.00228,0.00296
-0.07236,0.995,0.06883,-0.02429,0.00215,0.00463
-0.07246,0.99498,0.06905,-0.02518,0.00414,0.00139
-0.07248,0.99495,0.06938,-0.02481,0.00134,0.00171
-0.07245,0.99494,0.06968,-0.03087,-0.00049,0.00203
-0.0724,0.99492,0.06991,-0.04563,0.00692,0.00381
-0.07232,0.99491,0.0701,-0.04599,0.00603,0.01
-0.07228,0.99491,0.07013,-0.04462,-0.00378,0.01602
-0.07228,0.99491,0.07024,-0.03678,-0.00071,0.0149
-0.07233,0.99488,0.07054,-0.03412,0.00651,0.01641
-0.07248,0.99485,0.07077,-0.0285,-0.0025,0.01849
-0.07264,0.99484,0.07087,-0.02353,-0.00198,0.01693
-0.07273,0.99482,0.07099,-0.02046,-0.00132,0.0134
-0.07278,0.9948,0.07126,-0.02086,0.00363,0.01005
-0.07283,0.99477,0.07155,-0.02719,0.00532,0.00946
-0.07287,0.99476,0.07175,-0.03112,0.00341,0.00888
-0.07292,0.99473,0.07205,-0.03538,-0.00439,0.0018
-0.07297,0.9947,0.07248,-0.0392,-0.00147,0.00112
-0.07304,0.99466,0.07287,-0.03545,0.00073,-0.0003
-0.07319,0.99463,0.07312,-0.02866,0.00041,0.00542
-0.07336,0.99459,0.0735,-0.02393,0.00304,0.00653
-0.07351,0.99454,0.07405,-0.02643,0.00177,0.00453
-0.0737,0.99449,0.07452,-0.02067,0.00473,0.00838
-0.07389,0.99445,0.07487,-0.02282,0.00289,0.01009
-0.07405,0.99441,0.07522,-0.02524,0.00164,0.01347
-0.07425,0.99436,0.0757,-0.02425,-0.00169,0.00991
-0.07445,0.99431,0.07614,-0.02484,0.00285,0.01279
-0.07472,0.99426,0.07655,-0.0213,0.00437,0.01166
-0.07503,0.9942,0.07705,-0.02171,0.00487,0.0128
-0.07526,0.99413,0.07765,-0.02191,0.00377,0.01068
-0.07542,0.99407,0.0783,-0.01776,0.01311,0.00694
-0.0756,0.99402,0.07883,-0.00575,0.01636,0.00782
-0.07584,0.99398,0.07909,0.00107,0.01339,0.01446
-0.07595,0.99398,0.07893,-0.02038,-0.00785,0.02839
-0.07592,0.994,0.07866,-0.04839,-0.01523,0.02841
-0.0759,0.994,0.07872,-0.05966,-0.01311,0.0275
-0.07603,0.99397,0.07903,-0.05744,-0.01069,0.02464
-0.07631,0.99392,0.07938,-0.06522,-0.00619,0.01586
-0.0766,0.99387,0.07976,-0.07515,0.00201,0.00764
-0.07691,0.9938,0.08023,-0.06883,0.00897,-0.0048
-0.07732,0.99375,0.08054,-0.05005,0.01223,-0.01232
-0.07782,0.99371,0.08053,-0.01803,0.00724,-0.00654
-0.0782,0.9937,0.0803,-0.01406,0.0082,-0.00046
-0.07838,0.99371,0.07994,-0.01989,0.00257,0.00534
-0.0784,0.99373,0.07965,-0.0284,0.00144,0.00696
-0.07823,0.99376,0.07948,-0.0293,0.00609,0.00611
-0.07803,0.9938,0.07915,-0.02822,0.00885,0.01532
-0.07792,0.99385,0.07862,-0.0282,-0.00354,0.02221
-0.0779,0.99389,0.07812,-0.02366,-0.00557,0.02673
-0.07801,0.9939,0.07796,-0.02324,-0.00112,0.02354
-0.07817,0.99387,0.07811,-0.01639,-0.00332,0.02253
-0.07837,0.99384,0.07834,-0.01315,-0.0022,0.02365
-0.07856,0.99381,0.07855,-0.02005,-0.0033,0.01905
-0.0787,0.99378,0.07872,-0.03544,-0.00494,0.02107
-0.07881,0.99377,0.07877,-0.04251,-0.00376,0.01727
-0.07897,0.99375,0.07882,-0.04595,-0.00093,0.016
-0.07909,0.99374,0.07894,-0.0495,0.00274,0.01545
-0.0792,0.99372,0.07907,-0.05543,0.01069,0.01378
-0.07938,0.9937,0.07906,-0.04387,0.00712,0.00842
-0.07963,0.9937,0.07888,-0.0372,0.00543,0.01054
-0.07993,0.9937,0.07855,-0.02269,0.00082,0.01389
-0.08015,0.99371,0.07814,-0.01767,0.00064,0.01506
-0.08032,0.99372,0.07785,-0.00892,-0.00137,0.00844
-0.08046,0.99372,0.07769,-0.00366,-9e-05,0.00701
-0.08061,0.99371,0.07765,-0.00264,0.00664,0.00317
-0.08072,0.9937,0.07768,-0.00729,0.00903,0.00456
-0.08078,0.9937,0.07769,-0.009,0.01167,0.00619
-0.08079,0.9937,0.07768,-0.01689,-0.00287,0.00429
-0.08078,0.99369,0.07778,-0.01881,-0.00086,0.00436
-0.08076,0.99368,0.07791,-0.01973,-0.00026,0.00582
-0.08074,0.99368,0.07799,-0.03039,0.00263,0.00854
-0.08063,0.99368,0.0781,-0.04324,0.00555,0.01025
-0.08046,0.99368,0.07828,-0.04909,0.00313,0.01004
-0.08029,0.99368,0.07838,-0.05625,0.00166,0.01284
-0.08013,0.9937,0.07836,-0.05518,-0.00223,0.01841
-0.07998,0.99371,0.07835,-0.05533,-0.00224,0.01843
-0.07991,0.99372,0.07837,-0.04971,-0.00269,0.01553
-0.07979,0.99372,0.0784,-0.04733,0.00284,0.01524
-0.07961,0.99374,0.07833,-0.04647,0.00322,0.01436
-0.07949,0.99377,0.07806,-0.04232,-0.00316,0.0183
-0.07935,0.9938,0.07786,-0.03066,-0.00538,0.02093
-0.07923,0.99381,0.07784,-0.02886,-0.00312,0.02075
-0.07905,0.99382,0.07791,-0.03431,0.00092,0.01609
-0.07891,0.99382,0.078,-0.02102,0.00503,0.01157
-0.07877,0.99383,0.07806,-0.02036,0.00535,0.01208
-0.07863,0.99384,0.0781,-0.01942,0.00426,0.01214
-0.07856,0.99384,0.07819,-0.00716,0.00096,0.00868
-0.07848,0.99384,0.07828,-0.0059,-0.00102,0.00805
-0.0784,0.99383,0.07846,-0.00745,-0.0026,0.00441
-0.07834,0.99381,0.07877,-0.00637,0.00146,0.00077
-0.07824,0.99379,0.07905,-0.01336,0.00061,0.00074
-0.0781,0.99379,0.07921,-0.0243,0.00456,0.00367
-0.0779,0.99381,0.07924,-0.0437,0.00349,0.00896
-0.07761,0.99383,0.07922,-0.05079,-0.0008,0.01564
-0.07737,0.99385,0.07915,-0.05619,-0.0027,0.01689
-0.07723,0.99387,0.0791,-0.04125,-0.00867,0.01729
-0.07723,0.99387,0.07908,-0.03146,-0.00492,0.01497
-0.07729,0.99385,0.07925,-0.02076,-2e-05,0.0035
-0.07742,0.9938,0.07973,-0.01863,-0.00201,-0.00714
-0.07769,0.99373,0.08038,-0.02012,0.0128,-0.01571
-0.07803,0.99366,0.08098,-0.02251,0.01036,-0.00984
-0.07831,0.99361,0.08126,-0.02557,0.01046,-0.00532
-0.07837,0.99361,0.08119,-0.03533,0.00779,0.0058
-0.07841,0.99364,0.08083,-0.06244,0.00069,0.02502
-0.07863,0.99368,0.08013,-0.07362,0.00362,0.03753
-0.07849,0.99376,0.07925,-0.05223,-0.00323,0.04562
-0.07849,0.99381,0.07855,-0.02674,-0.00451,0.03337
-0.07852,0.99384,0.07826,-0.01314,-0.00479,0.02401
-0.07856,0.99384,0.07821,-0.01107,-0.00285,0.01222
-0.0786,0.99384,0.07811,-0.0103,0.0027,0.00464
-0.07861,0.99385,0.078,-0.0075,0.00809,-0.0043
-0.07856,0.99386,0.07792,-0.01392,0.01411,-0.00665
-0.07844,0.99388,0.07776,-0.01943,0.00417,-0.00257
-0.07832,0.99391,0.07744,-0.02277,0.00125,0.00086
-0.07823,0.99396,0.07695,-0.02329,0.00148,0.0056
-0.07818,0.994,0.07648,-0.01218,0.00148,0.01459
-0.07805,0.99404,0.07606,-0.01367,-0.0005,0.01472
-0.07779,0.99408,0.07587,-0.01627,-0.00111,0.01384
-0.07746,0.99411,0.07585,-0.02433,0.00287,0.01036
-0.07716,0.99413,0.07584,-0.02365,0.0068,0.01231
-0.07686,0.99417,0.07564,-0.02979,0.00592,0.01367
-0.07647,0.99423,0.07518,-0.03919,0.00073,0.02083
-0.07597,0.99432,0.07455,-0.05109,-0.00306,0.02125
-0.07549,0.99441,0.07387,-0.05723,-0.00442,0.01982
-0.07514,0.99448,0.07321,-0.05619,-0.00107,0.01828
-0.07499,0.99455,0.07247,-0.0563,0.00753,0.01812
-0.07486,0.99462,0.07157,-0.05643,0.00745,0.01903
-0.0747,0.99471,0.07046,-0.07699,0.00408,0.01964
-0.07445,0.99482,0.06918,-0.0697,-0.01315,0.01832
-0.07417,0.99495,0.06764,-0.06998,-0.01327,0.01985
-0.07424,0.99505,0.06597,-0.04633,-0.01358,0.01647
-0.07468,0.99512,0.06445,-0.03069,-0.0093,0.02451
-0.07528,0.99515,0.06327,-0.02764,-0.00879,0.0212
-0.07598,0.99514,0.06262,-0.01641,-0.00196,0.01167
-0.07656,0.99511,0.06236,-0.00433,0.00763,-0.00199
-0.07687,0.9951,0.06212,-0.01425,0.00789,-0.00643
-0.07693,0.99512,0.06175,-0.01826,0.00538,-0.00324
-0.07687,0.99516,0.06123,-0.00585,0.00782,-0.00532
-0.07687,0.99518,0.06081,0.00717,0.00903,-0.00749
-0.07691,0.9952,0.06044,0.03306,0.00887,-0.01573
-0.07686,0.99522,0.0602,0.03231,0.00789,-0.01254
-0.07674,0.99525,0.05998,0.02592,0.00973,-0.00657
-0.07652,0.99528,0.05968,-0.00473,0.00443,0.01051
-0.07627,0.99532,0.05933,-0.01516,-0.00133,0.0163
-0.07605,0.99536,0.05896,-0.03236,-0.00377,0.01666
-0.07588,0.99537,0.05892,-0.03081,-0.00749,0.00972
-0.07587,0.99536,0.05909,-0.03031,-0.00417,0.01097
-0.07587,0.99536,0.05908,-0.02848,-0.00177,0.01354
-0.07588,0.99537,0.05898,-0.02602,0.00625,0.0095
-0.07573,0.99539,0.0589,-0.03161,0.00878,0.00778
-0.07546,0.9954,0.05894,-0.04018,0.00875,0.00328
-0.07522,0.99542,0.05898,-0.04793,0.00391,0.00092
-0.07508,0.99545,0.05864,-0.04484,-0.00018,0.00513
-0.07502,0.99549,0.0581,-0.03882,-0.00025,0.00756
-0.07499,0.99552,0.05752,-0.03626,0.00263,0.01084
-0.07493,0.99556,0.05702,-0.03303,-0.00343,0.01288
-0.0749,0.99558,0.05658,-0.02691,-0.00552,0.01236
-0.07498,0.9956,0.05622,-0.03476,-0.00097,0.0193
-0.07516,0.99559,0.05617,-0.03545,-0.0029,0.01882
-0.07545,0.99556,0.05626,-0.03583,-0.00522,0.02098
-0.07576,0.99553,0.05643,-0.03424,0.00035,0.00969
-0.076,0.9955,0.05668,-0.03788,0.00237,0.00369
-0.07622,0.99546,0.05694,-0.03599,0.00182,0.003
-0.07648,0.99543,0.05712,-0.03272,0.00548,0.0027
-0.07669,0.99541,0.05719,-0.02825,0.00286,0.00703
-0.07678,0.9954,0.05726,-0.02657,0.00342,0.0074
-0.07683,0.99539,0.05739,-0.03272,0.00061,0.00543
-0.07692,0.99538,0.05752,-0.03202,-0.00096,0.00528
-0.07705,0.99536,0.05761,-0.03495,0.00166,0.01249
-0.07722,0.99534,0.05771,-0.02857,0.00199,0.01164
-0.07741,0.99532,0.05789,-0.02118,0.00564,0.01684
-0.07753,0.9953,0.05807,-0.0258,0.00832,0.01975
-0.07769,0.99528,0.05811,-0.03398,0.00939,0.02374
-0.07782,0.99528,0.05801,-0.0353,0.00056,0.02746
-0.07784,0.99529,0.05782,-0.03545,-0.00425,0.02798
-0.07773,0.9953,0.05767,-0.03842,-0.0116,0.02271
-0.07762,0.99532,0.05759,-0.06118,-0.00244,0.0181
-0.07757,0.99533,0.05753,-0.06333,-0.0025,0.01782
-0.07774,0.99531,0.05761,-0.05507,-0.00158,0.01182
-0.0781,0.99528,0.05769,-0.02375,0.00598,-0.00024
-0.07844,0.99524,0.05778,-0.01666,0.01011,-0.00541
-0.0788,0.99521,0.05785,0.00098,0.00479,-0.01798
-0.07907,0.99518,0.05794,0.00306,0.00317,-0.02004
-0.07932,0.99515,0.05812,0.00527,-0.0044,-0.01613
-0.07962,0.99512,0.05822,0.01137,-0.00562,-0.00968
-0.07992,0.99509,0.05841,0.01034,-0.00589,-0.00835
-0.08019,0.99504,0.0589,-0.00511,0.00092,-0.004
-0.08041,0.99497,0.05975,-0.02855,0.00666,-0.0017
-0.08061,0.99489,0.06075,-0.046,0.00918,0.00733
-0.08084,0.99482,0.06161,-0.05614,0.00947,0.01458
-0.08115,0.99475,0.06229,-0.05319,0.01205,0.0285
-0.08133,0.99471,0.06279,-0.05657,0.01462,0.03116
-0.08118,0.99471,0.0629,-0.05989,0.00707,0.03699
-0.08074,0.99477,0.0626,-0.05888,-0.00121,0.03804
-0.08018,0.99484,0.06214,-0.05254,-0.00485,0.03365
-0.07974,0.99491,0.06162,-0.04807,-0.00608,0.02932
-0.07967,0.99495,0.06114,-0.00468,-0.00418,0.0225
-0.0798,0.99496,0.06063,0.00067,-0.00481,0.02024
-0.08003,0.99496,0.06045,0.00403,-0.00971,0.01603
-0.08023,0.99492,0.06082,0.00046,-0.0096,-0.00128
-0.08032,0.99488,0.06139,-0.0136,-0.00396,-0.00789
-0.08042,0.99483,0.06194,-0.03034,0.00216,-0.01145
-0.08068,0.99478,0.06251,-0.03484,0.00112,-0.00581
-0.08121,0.99469,0.06326,-0.02636,0.00568,-0.0073
-0.08193,0.99456,0.06431,-0.02041,0.008,-0.00857
-0.08262,0.99442,0.06551,-0.02017,0.0053,-0.00893
-0.08318,0.9943,0.06671,-0.02499,0.01129,-0.00599
-0.08354,0.9942,0.06771,-0.03124,0.00989,0.00666
-0.08381,0.99414,0.06826,-0.02917,0.00128,0.01837
-0.08399,0.9941,0.06864,-0.03308,0.00329,0.02679
-0.08396,0.99407,0.0691,-0.04677,0.00062,0.02974
-0.08387,0.99404,0.06964,-0.05469,-0.00039,0.0268
-0.08394,0.99399,0.07029,-0.03601,-0.0025,0.01812
-0.08404,0.99394,0.07087,-0.03527,-0.00416,0.01528
-0.08406,0.9939,0.07131,-0.04318,-0.00382,0.01367
-0.084,0.99388,0.0717,-0.05808,0.00093,0.01209
-0.08388,0.99386,0.07211,-0.05911,0.00046,0.01265
-0.08387,0.99383,0.07258,-0.05843,0.00176,0.00705
-0.08398,0.99379,0.073,-0.03874,0.00197,0.00795
-0.08414,0.99377,0.07314,-0.01954,0.00797,0.01106
-0.08417,0.99375,0.07325,-0.01206,0.01607,0.01793
-0.08392,0.99377,0.07331,-0.03771,0.00324,0.01976
-0.0833,0.99383,0.07324,-0.04634,0.00048,0.02228
-0.08261,0.9939,0.07304,-0.06077,-0.00261,0.02883
-0.08212,0.99396,0.07273,-0.06476,-0.00497,0.03033
-0.08195,0.99401,0.07235,-0.05382,-0.00575,0.03169
-0.08206,0.99402,0.07197,-0.02394,-0.00974,0.02828
-0.0822,0.99402,0.07183,0.00227,-0.0055,0.00343
-0.08221,0.99401,0.07204,-0.00153,-0.00081,-0.00267
-0.08229,0.99397,0.07252,-0.00299,0.00668,-0.01816
-0.08245,0.99391,0.07304,-0.00385,0.01327,-0.01698
-0.0826,0.99388,0.07333,-0.01019,0.01099,-0.01789
-0.08265,0.99386,0.07349,-0.02187,0.00768,-0.01336
-0.08257,0.99387,0.07347,-0.04339,0.00225,-0.01341
-0.08242,0.99389,0.0734,-0.05024,-0.00674,-0.00042
-0.08234,0.99391,0.07317,-0.04576,-0.00563,0.01045
-0.08228,0.99394,0.0729,-0.04491,-0.00599,0.01658
-0.08227,0.99395,0.07284,-0.03531,0.00515,0.01803
-0.08221,0.99392,0.07321,-0.02671,0.0044,0.00945
-0.08215,0.99389,0.07371,-0.01721,0.00342,-0.0007
-0.08209,0.99387,0.07401,-0.01455,-0.0008,-0.00043
-0.08208,0.99386,0.07413,-0.00383,-0.00146,0.00414
-0.08201,0.99385,0.07444,-0.00408,0.00249,0.0017
-0.08189,0.99382,0.07496,-0.0062,0.0016,0.00334
-0.0817,0.9938,0.07538,-0.03562,0.02063,0.00984
-0.08135,0.99382,0.07548,-0.05505,0.02011,0.02419
-0.08074,0.9939,0.07511,-0.06766,0.02015,0.025
-0.07966,0.99405,0.07435,-0.07114,0.01778,0.02098
-0.0782,0.99425,0.07321,-0.0715,0.00411,0.01357
-0.07679,0.99446,0.07172,-0.05871,-0.01276,0.01083
-0.07583,0.99467,0.06981,-0.03796,-0.02215,0.0255
-0.07544,0.99486,0.06758,-0.01624,-0.0233,0.03421
-0.07537,0.99498,0.06586,0.0015,-0.01538,0.04116
-0.07527,0.99503,0.06524,0.0092,-0.00856,0.02996
-0.07491,0.99503,0.06565,-0.01681,-0.00128,0.00697
-0.07447,0.99501,0.06647,-0.05246,0.00361,-0.01303
-0.0743,0.99495,0.06744,-0.0581,-0.00553,-0.02003
-0.0746,0.99488,0.06814,-0.0253,-0.0025,-0.01269
-0.07523,0.9948,0.06871,-0.01331,-0.00099,-0.00952
-0.07581,0.99472,0.06925,-0.00079,0.00785,-0.00258
-0.0761,0.99466,0.06974,-0.01348,0.0175,-0.0013
-0.07601,0.99463,0.07023,-0.02142,0.01758,-0.00291
-0.07577,0.99464,0.07032,-0.03189,0.01027,0.00277
-0.0756,0.99467,0.07006,-0.02529,0.00237,0.01462
-0.07552,0.99471,0.06969,-0.01821,-0.00317,0.0164
-0.07546,0.99472,0.06958,-0.00515,-0.00934,0.01428
-0.07535,0.99471,0.06983,-0.01989,0.00402,0.00444
-0.07527,0.99469,0.07022,-0.02658,0.00867,0.00109
-0.07533,0.99466,0.07053,-0.03786,0.00534,0.00934
-0.0755,0.99463,0.07076,-0.04231,-0.00412,0.01319
-0.0758,0.9946,0.07095,-0.04244,-0.00265,0.0106
-0.07617,0.99455,0.07123,-0.04603,-0.00311,0.01463
-0.0767,0.99448,0.07161,-0.03875,-0.00553,0.01249
-0.07725,0.9944,0.07205,-0.03218,-0.00238,0.0096
-0.0778,0.99433,0.07246,-0.023,0.00898,0.00947
-0.07831,0.99426,0.07287,-0.00569,0.00883,0.0023
-0.07878,0.9942,0.07328,-0.00037,0.01002,-0.00011
-0.07923,0.99413,0.07368,-0.00139,0.01222,-0.014
-0.07953,0.99408,0.07396,0.00241,0.00942,-0.01561
-0.07971,0.99407,0.07397,-0.00167,0.00479,-0.013
-0.07984,0.99407,0.07386,-0.0295,-0.00595,-0.00229
-0.08007,0.99404,0.07392,-0.03156,-0.00607,0.00252
-0.08047,0.99399,0.07421,-0.02806,-0.00173,0.00553
-0.08097,0.99391,0.07478,-0.01393,0.00174,-0.00059
-0.08144,0.99381,0.07552,-0.01094,0.00089,-0.00622
-0.08178,0.99373,0.07627,-0.01351,0.00842,-0.01549
-0.08197,0.99367,0.07684,-0.01934,0.00969,-0.00772
-0.08209,0.99363,0.07722,-0.02541,0.00427,0.0033
-0.08229,0.99358,0.07759,-0.0287,-0.00158,0.00979
-0.08257,0.99351,0.07829,-0.04145,-0.00663,0.01514
-0.08285,0.9934,0.07928,-0.04279,-0.00227,0.01537
-0.08313,0.9933,0.08023,-0.03846,0.00824,0.01019
-0.08336,0.99322,0.08101,-0.03953,0.01627,0.00449
-0.08358,0.99315,0.08165,-0.04319,0.00671,-0.00466
-0.08387,0.99309,0.08208,-0.04479,0.00201,-0.0006
-0.08424,0.99305,0.08221,-0.03453,0.00765,0.00271
-0.08463,0.99302,0.08213,-0.0323,0.00362,0.00716
-0.08494,0.99301,0.08191,-0.03497,0.00171,0.01491
-0.08519,0.99301,0.08169,-0.03565,-0.00061,0.01308
-0.08542,0.993,0.08154,-0.03269,-0.00252,0.01588
-0.08557,0.993,0.08138,-0.0383,-0.00269,0.01832
-0.08565,0.993,0.08136,-0.04174,-0.00336,0.02015
-0.08569,0.99299,0.08139,-0.04323,0.00657,0.01909
-0.08568,0.99299,0.0814,-0.04223,0.00425,0.01658
-0.0856,0.993,0.08141,-0.04406,-0.00473,0.01523
-0.08558,0.99301,0.0813,-0.04964,-0.00296,0.01808
-0.08577,0.99301,0.0811,-0.04726,-0.00163,0.01703
-0.0861,0.993,0.08085,-0.03222,-0.00577,0.01685
-0.08646,0.99299,0.08052,-0.02267,-0.00267,0.0195
-0.08668,0.99299,0.08031,-0.02429,-0.00302,0.02194
-0.08683,0.99298,0.08034,-0.02679,-0.00184,0.01855
-0.0869,0.99295,0.08065,-0.0332,-0.0029,0.0093
-0.08685,0.99293,0.08092,-0.03575,-0.00228,0.0093
-0.08675,0.99293,0.08106,-0.04307,0.00431,0.00912
-0.08672,0.99292,0.08114,-0.04421,0.00729,0.00942
-0.08678,0.99292,0.08113,-0.0412,0.00518,0.01251
-0.08689,0.99291,0.08107,-0.0362,0.00216,0.00829
-0.08702,0.99291,0.08095,-0.02745,-0.00361,0.0096
-0.08706,0.99293,0.08067,-0.02743,-0.00616,0.01056
-0.08708,0.99295,0.08037,-0.02997,0.00702,0.01402
-0.087,0.99298,0.08008,-0.02693,0.00541,0.01578
-0.08685,0.99302,0.07984,-0.02448,0.00013,0.01345
-0.08657,0.99306,0.07966,-0.03943,-0.00072,0.00648
-0.08622,0.99309,0.07961,-0.05084,-0.00188,0.00963
-0.08599,0.99313,0.07942,-0.04207,-0.00135,0.01383
-0.08589,0.99315,0.0792,-0.02178,-0.00122,0.01381
-0.08583,0.99316,0.07912,-0.01871,-0.00264,0.01144
-0.08569,0.99315,0.07941,-0.01404,9e-05,0.01199
-0.08553,0.99313,0.07984,-0.02176,-0.00142,0.0066
-0.08529,0.99311,0.08038,-0.02959,-0.0002,0.00504
-0.08509,0.99308,0.08094,-0.03496,0.00272,0.0012
-0.08497,0.99305,0.08147,-0.03514,0.00732,-0.00361
-0.08484,0.99303,0.08184,-0.02799,0.00735,-0.00577
-0.08459,0.99304,0.0819,-0.03087,0.00702,-0.00571
-0.08433,0.99308,0.08178,-0.03183,0.00131,0.00161
-0.08404,0.99311,0.08161,-0.02327,-0.0005,0.00835
-0.08375,0.99315,0.08152,-0.02279,-0.00198,0.00854
-0.08342,0.99317,0.0816,-0.02251,-0.00464,0.01215
-0.08303,0.99318,0.08191,-0.02719,0.00316,0.00723
-0.08263,0.99317,0.08241,-0.03051,0.00486,0.00313
-0.08236,0.99315,0.08291,-0.02552,0.00616,-0.00049
-0.08216,0.99314,0.0832,-0.02303,-0.00132,-0.00064
-0.08194,0.99314,0.08341,-0.02307,-0.00036,0.00018
-0.08173,0.99314,0.08362,-0.02604,0.00218,0.00134
-0.08154,0.99313,0.08387,-0.02766,0.00047,0.00489
-0.08139,0.99313,0.08402,-0.02634,0.01483,0.00694
-0.08123,0.99314,0.08413,-0.03531,0.01416,-0.00248
-0.08108,0.99316,0.08405,-0.03708,0.00489,-0.00192
-0.08098,0.9932,0.08365,-0.03003,0.00358,0.00135
-0.0809,0.99326,0.08302,-0.01546,-0.00058,0.01504
-0.08076,0.99332,0.08237,-0.02541,-0.00288,0.02071
-0.08051,0.99337,0.08206,-0.02305,-0.0051,0.01981
-0.0803,0.9934,0.08197,-0.01669,-0.00482,0.01469
-0.08009,0.99342,0.08185,-0.02694,0.00362,0.01615
-0.0799,0.99345,0.0817,-0.02926,0.00423,0.01306
-0.07977,0.99346,0.08163,-0.02678,-0.00125,0.01054
-0.07965,0.99348,0.08161,-0.03183,0.00038,0.00483
-0.07948,0.99349,0.08162,-0.03632,0.00495,0.00155
-0.07931,0.9935,0.08163,-0.04407,0.0045,-0.00149
-0.07925,0.99352,0.0815,-0.03351,0.0021,-0.00313
-0.07926,0.99354,0.08121,-0.03139,0.00399,-0.001
-0.07929,0.99355,0.08101,-0.02624,0.00306,0.00434
-0.0793,0.99357,0.08075,-0.0197,0.00191,0.00755
-0.07923,0.9936,0.08044,-0.0187,-0.00194,0.00751
-0.07911,0.99363,0.08022,-0.02983,0.00065,0.00465
-0.07891,0.99365,0.08016,-0.03604,0.00181,0.00373
-0.07875,0.99367,0.08006,-0.03623,0.00268,0.00565
-0.07869,0.9937,0.07981,-0.02801,0.00166,0.00708
-0.07867,0.99372,0.07954,-0.02208,0.00149,0.00984
-0.07859,0.99375,0.07933,-0.01203,0.0013,0.00778
-0.07845,0.99377,0.07917,-0.0202,0.00426,0.00442
-0.07825,0.9938,0.07903,-0.02597,0.00231,0.00155
-0.07808,0.99382,0.07889,-0.02682,0.00235,0.00118
-0.07794,0.99384,0.07873,-0.02813,-7e-05,0.00458
-0.0778,0.99387,0.0786,-0.02541,-0.0033,0.00532
-0.07766,0.99389,0.0785,-0.02428,-0.00087,0.0052
-0.0775,0.99391,0.07837,-0.02786,-0.0005,0.0128
-0.07727,0.99392,0.07838,-0.02704,-0.00326,0.01697
-0.07696,0.99394,0.07852,-0.03494,-0.00558,0.01847
-0.07659,0.99394,0.07883,-0.0458,-0.00537,0.00967
-0.0763,0.99393,0.0793,-0.04944,-0.00156,0.00849
-0.07617,0.9939,0.07976,-0.0475,0.00087,0.00761
-0.0762,0.99387,0.08011,-0.04004,0.0039,0.01166
-0.07629,0.99384,0.08038,-0.03032,0.00083,0.01343
-0.07635,0.9938,0.0808,-0.02645,0.00128,0.01228
-0.07633,0.99376,0.08136,-0.03207,0.0022,0.017
-0.07635,0.9937,0.08207,-0.03186,-0.0013,0.01249
-0.07633,0.99364,0.08278,-0.03506,-0.00112,0.01008
-0.07625,0.99359,0.08348,-0.03827,-0.00103,-0.00244
-0.0762,0.99354,0.0841,-0.04229,0.00702,-0.00779
-0.07618,0.99351,0.08441,-0.03936,0.01074,-0.00572
-0.07618,0.99353,0.08423,-0.03636,0.00583,-0.00472
-0.07611,0.99357,0.08375,-0.03439,0.00475,0.0075
-0.07598,0.99363,0.08321,-0.03036,0.00191,0.01247
-0.07587,0.99367,0.08281,-0.03105,-1e-05,0.0181
-0.07573,0.9937,0.08258,-0.03532,-0.00138,0.01504
-0.07563,0.99372,0.08242,-0.03461,-0.00128,0.00844
-0.07546,0.99375,0.08226,-0.03346,-0.00132,0.00435
-0.07526,0.99379,0.08199,-0.03111,0.00524,0.00054
-0.07509,0.99384,0.08156,-0.02201,0.0029,0.00116
-0.07498,0.99389,0.08105,-0.01372,0.00282,0.00483
-0.07485,0.99393,0.08058,-0.01746,0.00483,0.00545
-0.07461,0.99398,0.0802,-0.01961,0.00367,0.00566
-0.07434,0.99403,0.07985,-0.01927,0.0024,0.0023
-0.07408,0.99408,0.07949,-0.02614,0.00391,-0.00906
-0.07386,0.99413,0.07905,-0.02144,0.00344,-0.01087
-0.07366,0.99419,0.07849,-0.0133,0.00764,-0.0052
-0.07339,0.99426,0.07782,-0.00617,0.00246,0.00543
-0.07306,0.99433,0.07725,-0.00305,0.00118,0.0112
-0.07261,0.9944,0.0768,-0.00773,0.00221,0.01314
-0.072,0.99447,0.07649,-0.03455,0.00761,0.02036
-0.07127,0.99453,0.07631,-0.04579,0.0053,0.01623
-0.07056,0.9946,0.07614,-0.06395,-0.00767,0.01257
-0.07002,0.99465,0.07593,-0.06185,-0.00681,0.01142
-0.06978,0.99469,0.07557,-0.05896,-0.00797,0.0108
-0.06986,0.99472,0.07516,-0.03992,-0.00407,0.019
-0.07006,0.99473,0.07482,-0.02029,-0.00055,0.01511
-0.07022,0.99474,0.0746,-0.01523,0.00143,0.02048
-0.07025,0.99474,0.07448,-0.02169,0.00603,0.01188
-0.07008,0.99475,0.07462,-0.02635,0.00574,0.0069
-0.06996,0.99475,0.07472,-0.03299,0.00231,-0.00134
-0.07001,0.99476,0.07452,-0.02598,0.00207,0.00744
-0.07014,0.99478,0.07406,-0.02027,0.00156,0.00727
-0.07027,0.9948,0.07371,-0.01574,0.00099,0.00843
-0.07032,0.99482,0.07342,-0.01124,0.00277,0.00826
-0.07016,0.99485,0.0732,-0.0157,0.00425,0.01002
-0.06991,0.99488,0.07293,-0.01639,0.00423,0.00846
-0.06964,0.99493,0.0726,-0.02928,0.00556,0.00947
-0.06945,0.99496,0.07225,-0.02874,-0.00093,0.01
-0.06934,0.995,0.07194,-0.02894,-0.00241,0.00866
-0.06926,0.99502,0.07171,-0.0327,0.00039,0.0092
-0.06922,0.99504,0.07144,-0.03901,0.0016,0.008
-0.06932,0.99505,0.07117,-0.02646,0.00104,0.00819
-0.06948,0.99507,0.0708,-0.0258,0.00031,0.01279
-0.06959,0.99508,0.07051,-0.03117,-0.00066,0.009
-0.0697,0.99508,0.07041,-0.03349,-0.00194,0.00622
-0.06993,0.99507,0.0703,-0.03302,0.00171,0.00491
-0.07026,0.99506,0.07011,-0.02647,0.00132,0.00724
-0.07064,0.99505,0.06992,-0.02197,0.0019,0.00346
-0.07097,0.99503,0.06979,-0.02174,0.00411,-0.00016
-0.07126,0.99502,0.06968,-0.02939,0.00072,0.0046
-0.07153,0.99501,0.06953,-0.02794,0.00113,0.00439
-0.07186,0.995,0.06937,-0.02971,0.00358,0.00668
-0.07224,0.99498,0.06929,-0.02552,-0.00286,0.00476
-0.07264,0.99495,0.06929,-0.02329,-0.00184,0.006
-0.07308,0.99491,0.06931,-0.02174,0.00122,0.00569
-0.07352,0.99488,0.06938,-0.01941,0.00241,0.00537
-0.07394,0.99484,0.06952,-0.0183,0.00414,0.0031
-0.07436,0.99479,0.06975,-0.01582,0.00297,0.00269
-0.07468,0.99475,0.07001,-0.02519,0.00335,0.00476
-0.0749,0.99471,0.07024,-0.0285,0.00376,0.00687
-0.07515,0.99468,0.07046,-0.02633,-0.00046,0.00492
-0.07542,0.99464,0.07078,-0.02324,-0.00072,0.00059
-0.07567,0.99459,0.07118,-0.02182,0.00176,-0.00122
-0.07595,0.99454,0.0716,-0.01266,0.00337,-0.00099
-0.07631,0.99448,0.07207,-0.01419,0.0083,-0.0018
-0.0766,0.99441,0.07264,-0.01946,0.00537,-0.00238
-0.0768,0.99436,0.07317,-0.0337,0.00853,-0.00706
-0.07708,0.99431,0.07346,-0.0326,0.00627,-0.0036
-0.07755,0.99428,0.07349,-0.02542,-0.00519,0.00386
-0.0781,0.99422,0.07363,-0.02926,-0.00684,0.01481
-0.07872,0.99414,0.07411,-0.02992,-0.005,0.0134
-0.07938,0.99403,0.07478,-0.02111,-0.00188,0.01051
-0.08006,0.99392,0.07559,-0.0217,0.00138,0.01047
-0.08068,0.9938,0.07643,-0.02131,0.00253,0.00958
-0.08126,0.9937,0.07721,-0.02091,-0.00026,0.01297
-0.08176,0.99359,0.07811,-0.02954,0.00187,0.00693
-0.08216,0.99348,0.07906,-0.02971,0.00518,0.00392
-0.08247,0.99339,0.07988,-0.02813,0.00689,0.00119
-0.08271,0.99332,0.08048,-0.02219,0.00802,-0.00013
-0.08286,0.99327,0.08091,-0.027,0.0018,0.00565
-0.08291,0.99324,0.08123,-0.02661,0.00035,0.0107
-0.08292,0.99322,0.08148,-0.03433,0.00097,0.01488
-0.08291,0.9932,0.08172,-0.03792,0.00077,0.01741
-0.08287,0.99319,0.08194,-0.03816,0.00304,0.01572
-0.08282,0.99317,0.08217,-0.04325,-0.00047,0.01229
-0.08281,0.99316,0.08228,-0.04343,-0.00363,0.01531
-0.08292,0.99316,0.08223,-0.04676,-0.00581,0.01989
-0.08316,0.99314,0.0822,-0.03949,-0.00509,0.02309
-0.08346,0.9931,0.0824,-0.03696,-0.00234,0.02294
-0.0838,0.99304,0.08271,-0.0331,-0.0015,0.02205
-0.08415,0.99299,0.08298,-0.03597,-0.00439,0.02025
-0.08447,0.99294,0.08328,-0.03861,-5e-05,0.01655
-0.08479,0.99289,0.08357,-0.03734,0.0026,0.01291
-0.0851,0.99285,0.08372,-0.03334,0.00032,0.01445
-0.08533,0.99283,0.08373,-0.02756,3e-05,0.01561
-0.08551,0.99282,0.08366,-0.02766,0.001,0.01274
-0.08579,0.9928,0.08359,-0.03421,0.00326,0.01834
-0.08595,0.99279,0.08356,-0.02755,0.00054,0.00964
-0.0861,0.99278,0.08347,-0.02383,-0.00258,0.01188
-0.0862,0.99278,0.08342,-0.02771,-0.00122,0.0132
-0.08627,0.99277,0.08347,-0.03461,-0.00095,0.01489
-0.08641,0.99275,0.0836,-0.03095,-0.00175,0.01528
-0.08659,0.99271,0.08384,-0.02526,-0.00177,0.01101
-0.08677,0.99267,0.08417,-0.02262,0.00671,0.00801
-0.08691,0.99263,0.08446,-0.02297,0.0056,0.00762
-0.08705,0.99259,0.08476,-0.02181,0.00451,0.00354
-0.08717,0.99256,0.08503,-0.02701,0.00857,0.0013
-0.08726,0.99254,0.08515,-0.0265,0.00502,0.00238
-0.0873,0.99254,0.08507,-0.01266,0.007,0.00279
-0.08723,0.99256,0.08488,-0.01432,0.00499,0.00426
-0.08706,0.9926,0.08469,-0.02999,0.00339,0.01214
-0.08686,0.99263,0.08451,-0.03428,-0.00041,0.01069
-0.08675,0.99265,0.08435,-0.03272,-0.00155,0.01507
-0.08663,0.99269,0.08402,-0.03492,-0.00177,0.02318
-0.08645,0.99274,0.08367,-0.04441,-0.00522,0.02326
-0.08627,0.99277,0.08349,-0.04555,-0.00436,0.02215
-0.08619,0.99277,0.08349,-0.04236,0.00105,0.01526
-0.0862,0.99277,0.08354,-0.03923,-0.00208,0.00728
-0.08621,0.99277,0.08346,-0.03715,-8e-05,0.00384
-0.08623,0.9928,0.0832,-0.03695,0.00205,-0.00229
-0.0863,0.99282,0.08282,-0.02857,0.00649,0.00181
-0.08643,0.99286,0.08226,-0.02296,0.00177,0.00923
-0.08653,0.9929,0.08159,-0.01869,0.00264,0.01173
-0.08658,0.99294,0.08107,-0.01947,0.00147,0.01278
-0.08654,0.99297,0.08079,-0.02541,-0.00287,0.01133
-0.08651,0.99298,0.08068,-0.02283,-0.00337,0.0109
-0.08647,0.993,0.08046,-0.03404,0.00293,0.00804
-0.08647,0.99302,0.08022,-0.0343,0.00034,0.00875
-0.08651,0.99304,0.07992,-0.03464,0.00244,0.00452
-0.0866,0.99305,0.07968,-0.03378,-0.00421,0.00783
-0.08669,0.99306,0.07946,-0.03184,0.00096,0.00881
-0.08683,0.99306,0.07933,-0.02593,0.00035,0.007
-0.08701,0.99305,0.0793,-0.0183,0.0016,0.00458
-0.08709,0.99303,0.07937,-0.01745,0.0042,-0.00079
-0.08704,0.99303,0.07949,-0.0184,0.00647,-0.00336
-0.08694,0.99303,0.0796,-0.0154,0.01019,-0.0067
-0.08689,0.99303,0.07964,-0.01729,0.00625,-0.00016
-0.08679,0.99305,0.07951,-0.0186,0.00228,-0.00612
-0.08671,0.99307,0.07931,-0.01206,-0.00142,0.00623
-0.08664,0.9931,0.07906,-0.01372,0.00429,0.00793
-0.08654,0.99311,0.07903,-0.01397,0.00558,0.01057
-0.08652,0.99311,0.07904,-0.0137,-0.00182,0.01123
-0.08653,0.99311,0.07906,-0.00882,-0.00512,0.01384
-0.08651,0.99311,0.0791,-0.01171,0.00348,0.01647
-0.08643,0.9931,0.07926,-0.01834,0.00202,0.01356
-0.08637,0.99309,0.07948,-0.02732,0.00111,0.0087
-0.08637,0.99307,0.07975,-0.02949,-0.0005,0.0061
-0.0864,0.99305,0.07991,-0.03278,-0.00077,0.00682
-0.08653,0.99303,0.08002,-0.03334,0.00506,0.01045
-0.08664,0.99302,0.08001,-0.04016,0.0046,0.01217
-0.08667,0.99302,0.08003,-0.0406,0.00199,0.01478
-0.08665,0.99303,0.07996,-0.04596,0.00249,0.0134
-0.0866,0.99304,0.07981,-0.04652,0.00191,0.01417
-0.08661,0.99306,0.07956,-0.043,-0.00189,0.01788
-0.08669,0.99308,0.07929,-0.03407,-0.00324,0.01878
-0.0868,0.99308,0.07908,-0.02249,0.0011,0.01372
-0.08692,0.99308,0.07904,-0.00966,0.00032,0.00351
-0.08696,0.99307,0.07902,-0.00751,0.00023,0.00106
-0.08698,0.99307,0.07899,-0.00976,-0.0015,0.00091
-0.08697,0.99307,0.07903,-0.01641,0.00089,0.00114
-0.08693,0.99306,0.07918,-0.02194,0.00558,0.00575
-0.0869,0.99306,0.07922,-0.03031,0.00381,0.00565
-0.0869,0.99305,0.07932,-0.02853,-0.00174,0.00975
-0.08686,0.99306,0.07922,-0.03312,0.00074,0.01549
-0.08676,0.99309,0.07907,-0.03119,-0.00099,0.01859
-0.08671,0.9931,0.07899,-0.02824,-0.00159,0.01912
-0.08673,0.99308,0.07921,-0.02793,0.00209,0.01353
-0.08685,0.99304,0.07957,-0.02863,0.00351,0.01161
-0.08705,0.993,0.07987,-0.01493,-0.00177,0.00184
-0.08714,0.99298,0.08004,-0.01478,-0.00131,-0.00217
-0.08706,0.99296,0.08032,-0.01856,0.00365,-0.00403
-0.08692,0.99295,0.08063,-0.02044,0.01067,-0.00374
-0.0867,0.99296,0.08074,-0.02302,0.00242,0.00088
-0.08635,0.99299,0.08068,-0.02455,0.00142,0.00733
-0.08583,0.99304,0.0806,-0.04923,0.00503,0.01992
-0.08531,0.9931,0.08052,-0.05425,-0.00878,0.02583
-0.08495,0.99314,0.08038,-0.04892,-0.00986,0.0282
-0.08479,0.99315,0.08037,-0.04157,-0.008,0.0293
-0.08486,0.99313,0.08053,-0.03739,-0.00351,0.02498
-0.0851,0.99308,0.08096,-0.02905,-0.00751,0.02009
-0.08546,0.99299,0.08163,-0.02186,-0.00088,0.008
-0.08588,0.9929,0.08232,-0.01633,-0.00346,0.00427
-0.08636,0.9928,0.08297,-0.00834,0.00807,0.00069
-0.08675,0.99271,0.08362,-0.00679,0.01098,0.00475
-0.08693,0.99263,0.08442,-0.00326,0.01433,-0.00945
-0.08687,0.99257,0.0852,-0.01071,0.01958,-0.01156
-0.08659,0.99257,0.08546,-0.02299,0.01736,-0.01492
-0.0861,0.99265,0.08506,-0.04257,0.00311,-0.00144
-0.08561,0.99275,0.08432,-0.04967,-0.00376,0.01734
-0.08529,0.99284,0.08367,-0.03577,-0.00353,0.02945
-0.0851,0.99289,0.08326,-0.04469,-0.00844,0.02416
-0.08514,0.99289,0.08322,-0.02627,-0.00755,0.02736
-0.08536,0.99285,0.08346,-0.02295,-0.00747,0.01906
-0.08566,0.99278,0.08401,-0.02589,-0.00187,0.00295
-0.08599,0.99269,0.08464,-0.02749,0.00171,-0.00313
-0.08632,0.99262,0.08517,-0.02191,0.01214,-0.01038
-0.08665,0.99256,0.0855,-0.01212,0.01049,-0.00915
-0.0869,0.99253,0.08565,-0.00613,0.0135,-0.00603
-0.08691,0.99252,0.08574,-0.01542,0.0071,0.00149
-0.08666,0.99254,0.08579,-0.01078,0.00289,0.00299
-0.08621,0.99258,0.0857,-0.02188,0.00172,0.00992
-0.08557,0.99264,0.08564,-0.03796,0.00168,0.01862
-0.08502,0.99269,0.08561,-0.04124,-0.00499,0.02108
-0.08473,0.99271,0.08572,-0.03982,-0.00521,0.02302
-0.08474,0.99269,0.08595,-0.03668,-0.00725,0.02515
-0.08495,0.99264,0.08629,-0.03344,-0.00268,0.02113
-0.08522,0.99257,0.08682,-0.02884,0.00401,0.01713
-0.0854,0.99251,0.08731,-0.03533,0.00425,0.01199
-0.08546,0.99247,0.08771,-0.03464,0.0048,0.00972
-0.08553,0.99245,0.0879,-0.03077,0.00422,0.00935
-0.08559,0.99246,0.08776,-0.01654,0.00602,0.01479
-0.08549,0.99249,0.08752,-0.01696,0.00069,0.01569
-0.08524,0.99252,0.08735,-0.01867,-0.00041,0.01569
-0.08499,0.99255,0.08729,-0.02348,-0.0011,0.01765
-0.08488,0.99256,0.08732,-0.02647,0.00193,0.01204
-0.08495,0.99254,0.08741,-0.02429,-0.00034,0.01722
-0.08509,0.99252,0.08755,-0.01443,-0.00265,0.0129
-0.08522,0.99249,0.08775,-0.02507,0.00218,0.00777
-0.08536,0.99246,0.08796,-0.02494,0.00221,0.00756
-0.08558,0.99242,0.08815,-0.02982,0.0037,0.00642
-0.08588,0.99239,0.08825,-0.02468,0.0068,0.0048
-0.08619,0.99238,0.08811,-0.02276,0.00677,0.00672
-0.08642,0.99238,0.08783,-0.023,0.00362,0.01208
-0.08655,0.9924,0.08752,-0.01939,0.00204,0.00852
-0.08664,0.99241,0.08728,-0.02406,0.00425,0.01181
-0.08679,0.99242,0.08695,-0.02212,-0.0006,0.0118
-0.08695,0.99243,0.08668,-0.01771,-0.00205,0.01208
-0.08707,0.99245,0.08644,-0.01804,-0.00178,0.01507
-0.08718,0.99245,0.08629,-0.02344,0.00197,0.01158
-0.0873,0.99245,0.08621,-0.02107,0.00266,0.01394
-0.08741,0.99245,0.08608,-0.02123,0.00148,0.01379
-0.08751,0.99245,0.0859,-0.02539,0.00069,0.01455
-0.08759,0.99246,0.08577,-0.03002,0.0011,0.01113
-0.08765,0.99246,0.08567,-0.03589,0.0013,0.01119
-0.08777,0.99246,0.0856,-0.028,0.00149,0.00819
-0.0879,0.99246,0.0854,-0.02643,-0.00032,0.01186
-0.08796,0.99248,0.08517,-0.02542,-0.00113,0.01261
-0.08801,0.99248,0.08505,-0.02742,0.00161,0.01532
-0.08803,0.99249,0.08496,-0.0319,0.00184,0.01499
-0.08808,0.9925,0.08481,-0.03521,0.00016,0.01598
-0.0882,0.9925,0.08468,-0.03731,-0.0048,0.01503
-0.08837,0.9925,0.08452,-0.0401,-0.00078,0.01655
-0.08858,0.99249,0.08434,-0.03297,0.00229,0.01318
-0.08889,0.99248,0.08416,-0.02338,0.00288,0.0115
-0.08914,0.99248,0.08393,-0.02009,0.00276,0.00643
-0.08931,0.99247,0.08377,-0.02261,0.00388,0.00676
-0.0895,0.99248,0.08351,-0.03105,0.00267,0.01091
-0.08954,0.9925,0.08323,-0.02742,-0.00024,0.00992
-0.0896,0.99252,0.08295,-0.02582,-0.00201,0.01387
-0.08964,0.99254,0.0827,-0.02785,-0.00039,0.01153
-0.08965,0.99255,0.08253,-0.02902,0.0017,0.01129
-0.08966,0.99256,0.08239,-0.03475,0.00211,0.00517
-0.0897,0.99256,0.08233,-0.03153,-0.00176,0.00547
-0.08976,0.99257,0.08219,-0.02647,-0.00146,0.00838
-0.08981,0.99257,0.08204,-0.02512,-0.00014,0.0103
-0.08983,0.99258,0.0819,-0.02425,0.00343,0.00935
-0.08983,0.99259,0.08188,-0.02466,0.00097,0.00833
-0.08983,0.99259,0.08189,-0.03056,0.00131,0.0078
-0.08989,0.99258,0.08192,-0.01879,-1e-05,0.01069
-0.08995,0.99257,0.08191,-0.01962,0.00232,0.0088
-0.08995,0.99257,0.08192,-0.02131,0.00467,0.00868
-0.08993,0.99257,0.08199,-0.02634,0.00185,0.00903
-0.08992,0.99256,0.08207,-0.02745,0.00076,0.00968
-0.08991,0.99256,0.08205,-0.02874,0.00028,0.01326
-0.08992,0.99257,0.08201,-0.02878,-0.00014,0.01345
-0.0899,0.99257,0.08202,-0.02969,-7e-05,0.01376
-0.08988,0.99256,0.08211,-0.03045,-0.00146,0.01283
-0.08984,0.99255,0.08224,-0.03165,0.00099,0.01363
-0.08982,0.99255,0.08231,-0.03643,6e-05,0.01415
-0.08979,0.99255,0.08233,-0.0398,0.00252,0.01412
-0.08981,0.99255,0.08231,-0.04316,-0.00044,0.01401
-0.08987,0.99255,0.0823,-0.04015,-0.00164,0.01519
-0.08994,0.99255,0.08221,-0.0366,0.00071,0.01434
-0.08997,0.99255,0.08211,-0.0332,0.002,0.01458
-0.09001,0.99255,0.08207,-0.02831,-0.00125,0.012
-0.09004,0.99255,0.08211,-0.0278,0.00138,0.01164
-0.0901,0.99254,0.08218,-0.02321,0.0036,0.0098
-0.09027,0.99252,0.08219,-0.01429,-0.00171,0.00728
-0.09082,0.99249,0.08202,-0.01116,-0.00179,0.0078
-0.09185,0.99241,0.0818,-0.02366,0.00219,0.01058
-0.09287,0.99233,0.08165,-0.02989,0.00307,0.01164
-0.09366,0.99225,0.08163,-0.03407,0.00383,0.01451
-0.09413,0.99221,0.08164,-0.02301,0.00021,0.01429
-0.09422,0.99219,0.0817,-0.01714,-0.00295,0.01307
-0.09429,0.99219,0.08171,-0.01631,-0.00049,0.01281
-0.09437,0.99218,0.08172,-0.0145,0.00346,0.01412
-0.09441,0.99217,0.08179,-0.01267,0.00512,0.01558
-0.09446,0.99216,0.08182,-0.01235,0.00148,0.01336
-0.09453,0.99215,0.08189,-0.01946,-0.00091,0.01142
-0.09459,0.99213,0.08199,-0.02115,0.00138,0.01474
-0.0947,0.99212,0.08208,-0.02099,0.00361,0.01541
-0.09485,0.99209,0.0822,-0.01414,0.00194,0.01535
-0.09488,0.99208,0.08237,-0.02065,0.00083,0.0128
-0.09482,0.99207,0.08252,-0.0207,0.00084,0.01265
-0.09478,0.99206,0.0826,-0.03455,-0.00107,0.01029
-0.09479,0.99206,0.0826,-0.02681,-0.00375,0.01189
-0.09484,0.99206,0.08258,-0.02439,-0.00154,0.01282
-0.09489,0.99205,0.08271,-0.01943,-0.00018,0.01285
-0.0949,0.99203,0.08293,-0.02192,0.00312,0.01195
-0.09481,0.99201,0.08316,-0.02991,0.00321,0.01031
-0.09469,0.99201,0.08333,-0.03748,0.00094,0.00894
-0.09465,0.99201,0.08342,-0.0405,-0.00095,0.01405
-0.09473,0.992,0.08344,-0.03201,-0.00335,0.01545
-0.09486,0.99198,0.08352,-0.0266,-0.00234,0.01803
-0.09496,0.99196,0.08367,-0.02709,-0.00218,0.01732
-0.09499,0.99194,0.08391,-0.03074,0.00343,0.0144
-0.09499,0.99192,0.08412,-0.03294,0.00264,0.01219
-0.09503,0.99191,0.08419,-0.02957,0.00016,0.01438
-0.09505,0.99191,0.08411,-0.0283,0.00079,0.01751
-0.09503,0.99192,0.08406,-0.03326,-0.00147,0.01915
-0.09502,0.99192,0.0841,-0.0344,-0.00086,0.01586
-0.09504,0.99191,0.08411,-0.03131,-0.00035,0.01455
-0.09508,0.99192,0.08403,-0.03264,0.00198,0.01593
-0.09513,0.99192,0.08397,-0.02759,-9e-05,0.01402
-0.09518,0.99191,0.08398,-0.02912,0.00049,0.01473
-0.09521,0.9919,0.08401,-0.02837,0.00039,0.00822
-0.09522,0.9919,0.084,-0.02857,0.00143,0.00987
-0.09519,0.99192,0.08392,-0.0276,0.00155,0.01033
-0.09514,0.99192,0.08385,-0.02807,-0.00248,0.01295
-0.09508,0.99194,0.0838,-0.02589,0.00309,0.01505
-0.09498,0.99195,0.08374,-0.02606,0.00184,0.01382
-0.09486,0.99196,0.0837,-0.02614,0.00106,0.01527
-0.09471,0.99198,0.08367,-0.0267,0.00077,0.01687
-0.09453,0.992,0.08368,-0.02761,-0.00044,0.01694
-0.09436,0.99202,0.08366,-0.03174,-0.00268,0.01629
-0.0942,0.99203,0.08366,-0.03219,-0.00125,0.01609
-0.09409,0.99204,0.08368,-0.02997,-0.00086,0.01676
-0.09397,0.99205,0.0837,-0.03112,-0.00178,0.01351
-0.09381,0.99206,0.08373,-0.03367,-0.00099,0.01554
-0.09361,0.99208,0.08377,-0.03412,0.00071,0.01561
-0.0934,0.9921,0.08372,-0.03157,0.00317,0.0158
-0.09313,0.99214,0.08358,-0.03368,-0.00204,0.01689
-0.09288,0.99217,0.08352,-0.03532,-0.00172,0.01535
-0.09265,0.99219,0.08353,-0.03529,-0.00011,0.01386
-0.09244,0.99221,0.08351,-0.02545,0.00069,0.01262
-0.09223,0.99223,0.08349,-0.02082,0.00325,0.00935
-0.09193,0.99226,0.0835,-0.02146,-0.0007,0.00919
-0.09155,0.99229,0.08355,-0.02945,0.00191,0.00867
-0.09112,0.99233,0.08357,-0.03016,0.00253,0.01
-0.09071,0.99237,0.08353,-0.02979,0.00011,0.01396
-0.09032,0.9924,0.08354,-0.02722,-0.00218,0.01155
-0.08987,0.99244,0.08365,-0.03052,-0.00081,0.01157
-0.08941,0.99247,0.0837,-0.03379,0.00146,0.01428
-0.08895,0.99251,0.08368,-0.03343,-0.00112,0.01439
-0.08847,0.99256,0.08366,-0.0356,-0.00113,0.01854
-0.08795,0.9926,0.08373,-0.03876,0.00177,0.01853
-0.08747,0.99263,0.08387,-0.03921,0.00056,0.01518
-0.08702,0.99266,0.08399,-0.03441,-0.00311,0.01134
-0.08661,0.99269,0.08407,-0.03183,0.00075,0.01226
-0.08616,0.99272,0.08411,-0.02726,-0.00083,0.01382
-0.08566,0.99276,0.0842,-0.02551,-0.00019,0.01272
-0.0851,0.99279,0.08436,-0.02776,-0.0005,0.01347
-0.08453,0.99283,0.0845,-0.03193,-0.00366,0.01535
-0.08392,0.99287,0.08468,-0.03145,-0.00022,0.01501
-0.08331,0.9929,0.08493,-0.03391,-0.00149,0.01155
-0.08271,0.99291,0.08531,-0.02637,-0.00163,0.01417
-0.08207,0.99294,0.08563,-0.02748,-0.00136,0.0108
-0.08134,0.99297,0.08604,-0.03083,0.00035,0.00655
-0.08053,0.993,0.08644,-0.0373,0.00299,0.00594
-0.07959,0.99305,0.08668,-0.04073,0.00307,0.00315
-0.07865,0.99311,0.08682,-0.03571,0.00171,0.00282
-0.07776,0.99319,0.08678,-0.01686,-0.0005,0.00622
-0.07663,0.9933,0.08656,-0.01271,-0.00463,0.00796
-0.07515,0.99345,0.08605,-0.02077,-0.00279,0.0062
-0.07358,0.99362,0.08553,-0.03435,0.00272,0.01625
-0.07208,0.99379,0.08473,-0.04157,0.00209,0.02181
-0.07073,0.99396,0.08385,-0.05164,-0.0061,0.02845
-0.06952,0.99409,0.08336,-0.02318,-0.00553,0.02801
-0.06835,0.99417,0.08337,-0.02487,-0.00101,0.02466
-0.0672,0.99422,0.08371,-0.03444,0.01051,0.01088
-0.06619,0.99427,0.08389,-0.03513,0.00785,0.00994
-0.0654,0.99433,0.08383,-0.02331,-0.00115,0.01985
-0.06475,0.99437,0.08387,-0.01091,-0.00455,0.02411
-0.06405,0.99439,0.08421,-0.00885,-0.00208,0.02359
-0.06323,0.99438,0.08495,-0.01144,0.00115,0.02086
-0.06234,0.99436,0.08576,-0.0239,0.00068,0.01345
-0.06146,0.99435,0.08659,-0.02677,-0.0034,0.01551
-0.06063,0.99433,0.08741,-0.03005,-0.00519,0.01723
-0.05984,0.9943,0.08828,-0.04265,-0.00101,0.01505
-0.05913,0.99425,0.08922,-0.0335,-0.00237,0.01781
-0.05851,0.9942,0.09023,-0.02277,-0.00223,0.0154
-0.05784,0.99415,0.09122,-0.02228,-0.00076,0.01668
-0.05704,0.9941,0.0922,-0.02345,-0.00166,0.01456
-0.05626,0.99405,0.0933,-0.02205,-0.00161,0.01306
-0.05556,0.99398,0.09447,-0.01202,-0.00093,0.01306
-0.0548,0.9939,0.09571,-0.00153,0.00656,0.0096
-0.0539,0.99382,0.09699,-0.00266,0.00964,0.00304
-0.0531,0.99375,0.0982,-0.00966,0.01281,0.00139
-0.05209,0.99371,0.09914,-0.02364,0.00826,0.00236
-0.05094,0.99371,0.09974,-0.03211,0.0084,0.0031
-0.05013,0.99372,0.10009,-0.0374,-0.00047,0.00837
-0.04916,0.99374,0.10035,-0.02864,-0.00186,0.01121
-0.04825,0.99375,0.10064,-0.02897,-0.00124,0.01537
-0.04739,0.99375,0.10105,-0.02867,-0.00651,0.02386
-0.04656,0.99373,0.10169,-0.02357,-0.00386,0.01789
-0.04574,0.99369,0.10245,-0.02907,0.00152,0.01298
-0.04509,0.99364,0.10323,-0.01873,-0.00658,0.02069
-0.04513,0.99356,0.10392,-0.02836,0.00079,0.01107
-0.0452,0.99352,0.10427,-0.02807,0.01055,0.01256
-0.04533,0.99351,0.10427,-0.01314,0.00885,0.02844
-0.04568,0.99353,0.10398,0.00668,0.00656,0.02479
-0.04585,0.99355,0.10368,-0.00137,0.01142,0.02016
-0.04569,0.99359,0.10339,-0.03413,0.01247,0.01596
-0.0457,0.99362,0.10314,-0.05293,-0.00071,0.00814
-0.04614,0.99362,0.10293,-0.08152,0.00682,0.00407
-0.04641,0.99368,0.10224,-0.057,-0.01264,0.00468
-0.04754,0.99374,0.10106,0.02086,-0.01164,0.02019
-0.04908,0.99382,0.09952,0.03329,-0.00615,0.02782
-0.05049,0.99386,0.09849,0.03831,-0.0006,0.02862
-0.05148,0.9938,0.09854,0.03218,0.02253,0.01369
-0.05179,0.9937,0.09943,0.02834,0.02457,0.00562
-0.05164,0.99356,0.10085,0.01033,0.01866,-0.01041
-0.05141,0.99343,0.10221,-0.0437,0.00947,-0.01234
-0.05144,0.99334,0.10309,-0.04802,0.00252,-0.00677
-0.05202,0.99332,0.10304,-0.0267,0.01703,0.00437
-0.05333,0.99331,0.10241,-0.00754,0.0219,0.01299
-0.05504,0.99336,0.10105,0.02306,0.0008,0.05275
-0.05665,0.99347,0.09904,0.02921,0.00559,0.0546
-0.05789,0.99359,0.09705,0.02386,0.00956,0.05107
-0.05904,0.9937,0.09524,-0.01305,0.00615,0.04605
-0.06142,0.99372,0.09349,-0.02444,-0.01792,0.02992
-0.06657,0.99354,0.09186,-0.03213,-0.01108,0.02486
-0.07356,0.99322,0.09005,-0.06435,0.00115,0.03057
-0.08075,0.99286,0.08781,-0.05539,-0.0061,0.03075
-0.08703,0.99253,0.08551,-0.0386,-0.01308,0.0425
-0.09316,0.99216,0.08324,-0.0008,0.00091,0.02498
-0.1001,0.9916,0.08185,0.05765,0.01212,0.0401
-0.10959,0.99062,0.08164,0.06473,0.00987,0.03669
-0.12166,0.98924,0.08122,0.06905,0.00818,0.03348
-0.13714,0.98729,0.0803,0.05981,0.00101,0.02202
-0.15706,0.98449,0.07823,0.0504,-0.01137,0.02382
-0.18157,0.98046,0.07566,0.06371,-0.01995,0.0291
-0.20937,0.97506,0.07361,-0.01046,-0.0028,0.0365
-0.23394,0.96947,0.07346,-0.11286,0.08366,0.08131
-0.24552,0.96661,0.07333,-0.13678,0.05597,0.109
-0.24866,0.96584,0.07292,-0.1312,-0.04038,0.08632
-0.2497,0.96557,0.07303,-0.02619,-0.02019,0.02468
-0.2516,0.96516,0.07183,-0.00814,-0.00377,0.0236
-0.25358,0.96483,0.06925,-0.01937,0.0065,0.02748
-0.25525,0.96455,0.06701,-0.02245,0.00045,0.02998
-0.25666,0.9643,0.06515,-0.0187,0.0049,0.0287
-0.25786,0.9641,0.06333,-0.01477,0.00666,0.0212
-0.25892,0.96392,0.06177,-0.00746,0.00303,0.01486
-0.25993,0.96371,0.06074,-0.00227,0.00186,0.00539
-0.2609,0.9635,0.05998,-0.00436,-0.00296,0.00124
-0.26189,0.96328,0.0592,-0.0049,-0.00623,-0.00359
-0.26283,0.96309,0.05814,-0.00113,-0.0061,0.00346
-0.26374,0.96294,0.0565,-0.0083,-0.00638,0.01285
-0.26457,0.96283,0.05441,-0.00278,-0.00378,0.01009
-0.2654,0.9627,0.05271,-0.00267,-0.00243,0.00927
-0.26619,0.96253,0.05167,0.01316,-0.00848,0.02226
-0.26738,0.96225,0.05083,-0.00656,-0.02208,0.02021
-0.26839,0.962,0.05027,-0.01715,-0.0197,0.02728
-0.26946,0.96172,0.04979,-0.04605,-0.01356,0.0311
-0.27056,0.96141,0.04975,-0.051,-0.01145,0.03018
-0.27166,0.96109,0.05011,-0.04565,-0.00772,0.03685
-0.27293,0.96071,0.05042,-0.0528,-0.0112,0.02811
-0.27419,0.96034,0.05059,-0.05013,-0.01637,0.01891
-0.27543,0.95998,0.05078,-0.0496,-0.01424,0.01208
-0.27657,0.95964,0.05094,-0.04123,-0.0025,0.0231
-0.27789,0.95927,0.0507,-0.03142,-0.00099,0.01367
-0.27941,0.95883,0.05073,-0.04741,-0.00717,-0.01442
-0.28077,0.95842,0.05104,-0.0424,-0.00871,-0.01497
-0.28216,0.95798,0.05149,-0.03197,-0.00405,-0.01012
-0.2837,0.95752,0.05167,-0.0252,0.00058,-0.01056
-0.28521,0.95708,0.05145,-0.01704,0.00628,-0.00945
-0.28656,0.9567,0.05098,-0.0083,0.00317,-0.01678
-0.28746,0.95646,0.05041,-0.02434,-0.00296,-0.00022
-0.28839,0.95624,0.04939,-0.01792,-0.00598,0.00473
-0.28929,0.95602,0.04823,-0.05136,-0.00282,0.00519
-0.29007,0.95583,0.04735,-0.07187,-0.0065,0.01005
-0.29104,0.95556,0.04686,-0.07189,-0.0201,0.01195
-0.29194,0.9553,0.04654,-0.06878,-0.02502,0.0208
-0.29262,0.95512,0.04594,-0.06487,-0.01312,0.03508
-0.29316,0.95501,0.0448,-0.10415,-0.03026,0.01243
-0.2932,0.95504,0.04391,-0.11728,-0.03202,0.01912
-0.29333,0.95503,0.0432,-0.11281,-0.02884,0.02389
-0.29362,0.95497,0.04249,-0.08312,-0.02706,0.02308
-0.29396,0.9549,0.04185,-0.04906,-0.00763,0.02666
-0.29416,0.95485,0.0415,-0.04523,-0.00542,0.02625
-0.29424,0.95483,0.04132,-0.03434,-0.00082,0.02332
-0.29423,0.95485,0.04106,-0.03807,-0.01513,0.0184
-0.2942,0.95488,0.04057,-0.03823,-0.02087,0.01892
-0.29432,0.95486,0.04003,-0.03066,-0.02025,0.02197
-0.29458,0.95481,0.03951,-0.02117,-0.0137,0.02516
-0.29471,0.95477,0.03932,-0.01303,-0.00401,0.02971
-0.29463,0.95479,0.03956,-0.01651,0.00357,0.0331
-0.29444,0.95482,0.04021,-0.01831,-0.00815,0.02691
-0.29416,0.95486,0.0414,-0.02231,-0.01052,0.02055
-0.29385,0.9549,0.04263,-0.02798,-0.0027,0.01328
-0.2935,0.95495,0.04385,-0.02455,-0.00629,0.01139
-0.29313,0.95501,0.04508,-0.02253,-0.00307,0.0126
-0.29278,0.95506,0.04609,-0.02435,-0.00157,0.01351
-0.29248,0.95511,0.04706,-0.01855,-6e-05,0.01024
-0.29208,0.95517,0.0483,-0.01633,0.00269,0.00597
-0.29159,0.95524,0.04978,-0.02897,0.00441,-0.00353
-0.29103,0.95532,0.05149,-0.03247,-0.00421,-0.01043
-0.29041,0.95542,0.05315,-0.03518,-0.00725,-0.00468
-0.28986,0.95553,0.05425,-0.04107,-0.00303,0.00507
-0.28942,0.95561,0.05507,-0.03503,-0.00125,0.01852
-0.28902,0.95567,0.05615,-0.02507,-0.00355,0.01629
-0.28867,0.9557,0.0575,-0.00859,-0.00808,0.02061
-0.28821,0.95574,0.05907,-0.01468,-0.00783,0.0198
-0.28764,0.95581,0.06071,-0.02894,-0.00538,0.02229
-0.28716,0.95584,0.06249,-0.04251,-0.01088,0.02229
-0.28689,0.9558,0.06432,-0.03655,-0.01459,0.02194
-0.28668,0.95575,0.06592,-0.02255,-0.00671,0.03453
-0.28641,0.95574,0.0673,-0.02558,-0.00896,0.03536
-0.28598,0.95575,0.06892,-0.03476,-0.00622,0.03394
-0.28558,0.95572,0.07092,-0.05184,-0.00286,0.02869
-0.2853,0.95564,0.0732,-0.0552,-0.00649,0.01654
-0.28504,0.95553,0.07551,-0.04565,-0.01141,0.01168
-0.28484,0.95547,0.07712,-0.02475,-0.00829,0.02014
-0.28466,0.95544,0.07808,-0.01628,-0.00321,0.02671
-0.28447,0.95543,0.0789,-0.01761,-0.00146,0.02757
-0.28429,0.95541,0.07977,-0.01739,0.00342,0.02791
-0.28406,0.95539,0.08081,-0.01838,0.00263,0.02139
-0.28388,0.95535,0.08188,-0.01155,0.00154,0.02303
-0.28371,0.95533,0.08269,-0.00761,0.00159,0.02466
-0.28352,0.95536,0.08308,-0.00933,0.00105,0.02863
-0.28327,0.9554,0.08343,-0.00912,0.00143,0.02881
-0.28297,0.95544,0.08403,-0.01087,0.00132,0.02606
-0.28263,0.95547,0.0848,-0.01279,0.00089,0.02473
-0.28234,0.95549,0.08556,-0.0169,-0.00337,0.02792
-0.28213,0.95549,0.08621,-0.02286,-0.00774,0.03092
-0.28198,0.95549,0.08677,-0.02466,-0.00726,0.02919
-0.28188,0.95546,0.08732,-0.02109,-0.00173,0.02761
-0.28185,0.95543,0.08781,-0.01381,0.00104,0.02596
-0.28177,0.95542,0.08818,-0.00914,0.0012,0.02776
-0.28161,0.95544,0.08845,-0.01933,-0.00766,0.02493
-0.28141,0.95547,0.08876,-0.02101,-0.0114,0.02678
-0.28125,0.95549,0.08907,-0.02467,-0.00757,0.03179
-0.28116,0.9555,0.08927,-0.0224,-0.00877,0.0301
-0.28104,0.95552,0.08935,-0.02273,-0.00652,0.03373
-0.28089,0.95556,0.08942,-0.03372,-0.00338,0.02943
-0.28078,0.95558,0.08958,-0.03062,-0.00845,0.02467
-0.28068,0.9556,0.08964,-0.03071,-0.00736,0.02198
-0.28062,0.95564,0.0894,-0.03093,-0.00301,0.02324
-0.28066,0.95565,0.08921,-0.0367,-0.01056,0.02606
-0.28073,0.95564,0.08913,-0.03528,-0.01223,0.0229
-0.28082,0.95562,0.08903,-0.02738,-0.00649,0.02328
-0.28097,0.95561,0.08872,-0.01545,0.00252,0.02176
-0.28105,0.95561,0.08837,-0.01799,0.00394,0.02085
-0.28112,0.95562,0.08804,-0.02324,0.00017,0.02023
-0.2811,0.95565,0.08777,-0.02546,-0.01141,0.01968
-0.28095,0.95572,0.08755,-0.03169,-0.00862,0.01889
-0.28077,0.95578,0.08741,-0.04378,-0.00097,0.01815
-0.28075,0.95581,0.0872,-0.04573,-0.00711,0.01944
-0.2808,0.95583,0.08678,-0.04078,-0.00869,0.02089
-0.28093,0.95585,0.08614,-0.04132,-0.01219,0.02121
-0.28109,0.95586,0.08555,-0.03297,-0.01065,0.02134
-0.28127,0.95585,0.08504,-0.03247,-0.00816,0.02152
-0.28158,0.9558,0.08465,-0.01887,-0.01097,0.01603
-0.28187,0.95571,0.08466,-0.01743,-0.00542,0.0126
-0.28212,0.9556,0.08507,-0.0096,0.00388,0.00588
-0.28222,0.95554,0.08542,-0.00933,0.00723,0.00399
-0.28215,0.95556,0.08539,-0.01453,0.00696,0.00958
-0.282,0.95564,0.08495,-0.0238,-0.00052,0.01968
-0.2819,0.95572,0.08437,-0.02614,-0.01705,0.02581
-0.28201,0.95572,0.08405,-0.02307,-0.01128,0.02833
-0.28238,0.95561,0.08403,-0.012,-0.00451,0.02862
-0.28288,0.95544,0.08433,0.00278,-0.00251,0.02589
-0.28326,0.95528,0.08486,-0.00279,-0.00464,0.02205
-0.28352,0.95514,0.08562,-0.01157,-0.00187,0.0187
-0.28373,0.955,0.08642,-0.02204,-0.0005,0.01571
-0.28401,0.95486,0.08698,-0.02521,0.00339,0.01812
-0.28428,0.95477,0.08716,-0.02175,0.00286,0.02208
-0.28439,0.95475,0.08704,-0.027,0.00035,0.02777
-0.28437,0.95477,0.08685,-0.03832,-0.00515,0.02861
-0.28445,0.95476,0.08676,-0.02984,-0.01199,0.02809
-0.28464,0.95472,0.08653,-0.01623,-0.01005,0.03327
-0.2849,0.95468,0.08615,-0.01799,-0.00921,0.03056
-0.28512,0.95462,0.08604,-0.01928,-0.00259,0.02391
-0.28529,0.95455,0.08628,-0.01818,-0.00226,0.0187
-0.28544,0.95448,0.08655,-0.00791,0.00257,0.01407
-0.28548,0.95447,0.08654,-0.00975,0.00351,0.01382
-0.28538,0.95451,0.08639,-0.0246,0.00336,0.01698
-0.28522,0.95457,0.08623,-0.03479,-0.00848,0.01959
-0.28507,0.95464,0.08603,-0.03724,-0.01048,0.02139
-0.28498,0.9547,0.08564,-0.03662,-0.00984,0.02217
-0.28497,0.95474,0.08518,-0.03812,-0.01064,0.02568
-0.28504,0.95476,0.08473,-0.03469,-0.01046,0.02727
-0.28512,0.95477,0.08438,-0.02632,-0.00961,0.02319
-0.28509,0.95481,0.08405,-0.03554,-0.00696,0.02311
-0.28502,0.95485,0.08375,-0.04412,-0.01124,0.02303
-0.28499,0.95488,0.08357,-0.04527,-0.0117,0.02098
-0.28506,0.95488,0.08336,-0.03999,-0.00207,0.01951
-0.28519,0.95487,0.08299,-0.0386,-0.00509,0.01842
-0.28536,0.95485,0.08258,-0.02972,-0.00695,0.0212
-0.2855,0.95485,0.08218,-0.02282,-0.00658,0.02268
-0.28554,0.95487,0.0818,-0.02269,-0.00602,0.02289
-0.28552,0.9549,0.08147,-0.02352,-0.0061,0.02172
-0.28545,0.95495,0.08121,-0.02756,-0.00515,0.02258
-0.28537,0.95499,0.081,-0.02549,-0.0076,0.0218
-0.28531,0.95502,0.08082,-0.02843,-0.00573,0.02248
-0.28527,0.95505,0.08059,-0.03031,-0.00756,0.02097
-0.28528,0.95507,0.08037,-0.03058,-0.00806,0.02261
-0.28529,0.95509,0.08014,-0.03086,-0.00553,0.02186
-0.2853,0.9551,0.07991,-0.02712,-0.00521,0.02117
-0.2853,0.95512,0.07967,-0.02998,-0.00401,0.02213
-0.28529,0.95514,0.07944,-0.02895,-0.01017,0.02321
-0.28528,0.95516,0.07926,-0.03064,-0.00646,0.02321
-0.28526,0.95518,0.07908,-0.03299,-0.00476,0.02132
-0.28526,0.9552,0.07888,-0.03148,-0.004,0.02307
-0.28529,0.95521,0.07863,-0.03365,-0.00566,0.02506
-0.28534,0.95522,0.07837,-0.03507,-0.00887,0.02443
-0.28536,0.95523,0.07809,-0.03159,-0.01114,0.02723
-0.28534,0.95527,0.0777,-0.03065,-0.01188,0.02812
-0.28531,0.9553,0.07744,-0.03012,-0.00825,0.0262
-0.28534,0.95529,0.0774,-0.04008,-0.01009,0.01911
-0.28545,0.95525,0.07751,-0.04153,0.00527,0.01863
-0.28552,0.95524,0.07743,-0.03336,-0.00283,0.02033
-0.28545,0.95529,0.07705,-0.03115,0.00435,0.02528
-0.28519,0.95542,0.07636,-0.04023,0.0028,0.03542
-0.2848,0.95561,0.07542,-0.04343,-0.01894,0.03941
-0.28445,0.95579,0.07454,-0.04514,-0.02088,0.04025
-0.2844,0.95585,0.07393,-0.03468,-0.01899,0.03208
-0.28477,0.95577,0.07357,-0.01837,-0.00878,0.0332
-0.28532,0.95563,0.07321,-0.01441,-0.01162,0.0213
-0.28587,0.95547,0.07319,-0.00823,-0.01171,0.00143
-0.28631,0.95532,0.07343,-0.01188,-0.0037,-0.00516
-0.28661,0.9552,0.07387,-0.01756,0.01343,-0.01238
-0.28682,0.95511,0.0742,-0.01815,0.0161,-0.00279
-0.28692,0.95509,0.07405,-0.02401,0.01531,0.00776
-0.28678,0.95516,0.07359,-0.03745,0.00295,0.01558
-0.2866,0.95527,0.07298,-0.03522,-0.00898,0.02795
-0.28654,0.95533,0.07233,-0.02602,-0.01623,0.03455
-0.28663,0.95534,0.07187,-0.02091,-0.01441,0.03695
-0.28687,0.95527,0.07193,-0.01326,-0.01633,0.03574
-0.28717,0.95513,0.07256,-0.00512,-0.01174,0.02645
-0.2874,0.95498,0.07357,-0.00763,-0.00762,0.00878
-0.28754,0.95485,0.07475,-0.02797,0.01323,-0.00376
-0.28759,0.95475,0.0758,-0.03182,0.01298,-0.00095
-0.28758,0.9547,0.0765,-0.03048,0.00581,0.0011
-0.2874,0.95473,0.07677,-0.03538,0.00742,0.02739
-0.28705,0.95486,0.07647,-0.03531,-0.00091,0.02969
-0.28665,0.95503,0.07586,-0.03745,-0.01675,0.04497
-0.2864,0.95515,0.07529,-0.05228,-0.02273,0.05108
-0.28646,0.95514,0.07515,-0.05097,-0.02316,0.04831
-0.28687,0.955,0.07534,-0.02046,-0.02161,0.04255
-0.28735,0.95484,0.07556,-0.00756,-0.0207,0.04291
-0.28763,0.95472,0.07597,-0.01117,-0.01841,0.03757
-0.28773,0.95461,0.07696,-0.02514,0.00626,0.01801
-0.28775,0.9545,0.07829,-0.02112,0.00777,0.00861
-0.28773,0.95443,0.07918,-0.01874,0.01581,-0.00209
-0.2876,0.95448,0.07911,-0.03949,0.00712,0.01854
-0.28743,0.95458,0.07846,-0.03169,-0.00364,0.02966
-0.28737,0.95465,0.07781,-0.02619,-0.00837,0.03259
-0.28749,0.95464,0.0775,-0.00452,-0.01006,0.0318
-0.2877,0.95457,0.07758,-0.00213,-0.00885,0.03418
-0.28788,0.95448,0.07808,-0.00818,-0.01094,0.02749
-0.28796,0.95438,0.07898,-0.01661,-0.0027,0.01584
-0.28789,0.95431,0.08009,-0.01824,0.00062,0.006
-0.28764,0.9543,0.08114,-0.03948,0.00643,0.00703
-0.28723,0.95438,0.08158,-0.06598,0.00401,0.02247
-0.28691,0.95452,0.08112,-0.06814,-0.01223,0.03047
-0.28683,0.9546,0.08041,-0.04989,-0.02276,0.04512
-0.28698,0.95461,0.07976,-0.04234,-0.02704,0.05155
-0.28733,0.95453,0.07946,-0.03895,-0.02811,0.04656
-0.28782,0.95434,0.07999,-0.01893,-0.02088,0.03221
-0.28827,0.95411,0.08106,-0.00259,-0.00976,0.01566
-0.28858,0.95388,0.08264,-0.01372,0.00405,-0.01087
-0.28877,0.95366,0.08446,-0.01856,0.00625,-0.0206
-0.28886,0.95348,0.08622,-0.01824,0.01526,-0.02812
-0.2888,0.95338,0.08747,-0.02554,0.02112,-0.0219
-0.28867,0.95337,0.08805,-0.03192,0.01977,-0.0111
-0.28851,0.9534,0.0882,-0.02362,0.01054,0.00709
-0.28827,0.95352,0.0878,-0.0175,0.00741,0.03209
-0.28768,0.9538,0.08657,-0.02881,0.00188,0.06646
-0.28662,0.95429,0.08474,-0.0554,-0.02582,0.08962
-0.28547,0.9548,0.0829,-0.09376,-0.05855,0.10234
-0.28494,0.95508,0.08145,-0.12626,-0.06798,0.09807
-0.28539,0.95501,0.08068,-0.09949,-0.06928,0.09011
-0.2869,0.95458,0.0804,-0.05062,-0.05686,0.07089
-0.289,0.9539,0.08092,-0.02777,-0.04332,0.05414
-0.29123,0.95307,0.08268,0.03212,-0.01026,0.02181
-0.29304,0.95226,0.08558,0.0617,0.04241,-0.02861
-0.29405,0.95166,0.08878,0.05671,0.05455,-0.05089
-0.29436,0.95131,0.09141,0.01955,0.0637,-0.08953
-0.29434,0.95114,0.09322,-0.0259,0.03679,-0.07769
-0.29427,0.95113,0.09355,-0.02618,0.02606,-0.05347
-0.29426,0.95123,0.09255,-0.01797,-0.00267,0.00678
-0.29425,0.95136,0.0913,-0.02038,-0.00281,0.01668
-0.29415,0.95144,0.0907,-0.02826,-0.00659,0.03179
-0.29396,0.95147,0.09101,-0.01918,-0.01687,0.03547
-0.2936,0.95148,0.09209,-0.00947,-0.01653,0.03389
-0.29304,0.95153,0.09332,-0.00826,-0.01019,0.03529
-0.29224,0.95166,0.09448,-0.02343,-0.00612,0.03409
-0.29112,0.95187,0.09582,-0.047,-0.01338,0.03051
-0.28991,0.9521,0.09725,-0.06475,-0.01853,0.02889
-0.28884,0.95232,0.09821,-0.06732,-0.01984,0.04243
-0.28806,0.95256,0.09822,-0.06633,-0.01981,0.05458
-0.28761,0.95275,0.0977,-0.06012,-0.03342,0.06064
-0.28748,0.95283,0.09727,-0.05074,-0.03451,0.06881
-0.28764,0.95277,0.09744,-0.03842,-0.03034,0.05988
-0.28799,0.95259,0.09814,-0.0334,-0.02275,0.04808
-0.28853,0.95234,0.09897,-0.04097,-0.02687,0.02723
-0.28903,0.95208,0.10003,-0.03966,-0.02096,0.01558
-0.2896,0.95176,0.10137,-0.03814,-0.00442,0.00643
-0.2902,0.95142,0.10289,-0.0106,0.01112,-0.0032
-0.29064,0.95114,0.10426,-0.00108,0.02886,-0.00566
-0.29076,0.95099,0.10522,-0.00832,0.03129,-0.01854
-0.29061,0.95094,0.10612,-0.0041,0.02047,-0.01747
-0.29029,0.95098,0.10658,-0.00062,0.0116,0.00069
-0.28992,0.95109,0.10662,7e-05,0.00762,0.00829
-0.28947,0.95125,0.10646,0.00047,0.00401,0.02595
-0.28888,0.95144,0.10634,-0.00679,-0.00512,0.03549
-0.28812,0.95166,0.10647,-0.00922,-0.00831,0.04032
-0.28718,0.95191,0.10675,-0.02057,-0.01229,0.05406
-0.28609,0.95222,0.10691,-0.04783,-0.02549,0.06838
-0.28494,0.95255,0.107,-0.05211,-0.02781,0.07207
-0.28374,0.95288,0.10725,-0.06224,-0.03356,0.07317
-0.28251,0.95323,0.10744,-0.06874,-0.04322,0.07574
-0.28142,0.95354,0.10755,-0.09162,-0.03928,0.07105
-0.28076,0.95371,0.10777,-0.09962,-0.03105,0.05711
-0.28063,0.9537,0.10819,-0.0801,-0.0277,0.0394
-0.28088,0.9536,0.10839,-0.05803,-0.02246,0.02973
-0.28132,0.95346,0.10846,-0.03794,-0.01577,0.02074
-0.28187,0.95327,0.10874,-0.00945,-0.00226,0.00303
-0.28226,0.9531,0.1092,-0.00409,0.00472,-0.00374
-0.2824,0.95298,0.10989,0.00274,0.022,-0.01413
-0.28234,0.95293,0.11045,0.0006,0.02406,-0.02444
-0.28215,0.95299,0.11049,8e-05,0.0179,-0.0204
-0.28195,0.95309,0.1101,-0.00055,0.00902,-0.00323
-0.28176,0.9532,0.10967,-0.00361,-0.0036,0.01919
-0.28153,0.95327,0.10964,-0.00036,-0.00582,0.02388
-0.28116,0.95334,0.10999,-0.00778,-0.00166,0.03149
-0.28063,0.95342,0.11058,-0.01551,-1e-05,0.02785
-0.28003,0.95352,0.11123,-0.03234,-0.00078,0.02398
-0.27946,0.95365,0.11159,-0.04129,-0.00411,0.02882
-0.27895,0.95382,0.11139,-0.04646,-0.00831,0.03011
-0.27857,0.954,0.11078,-0.04657,-0.01995,0.04399
-0.27835,0.95416,0.10996,-0.04451,-0.02327,0.05625
-0.2783,0.95426,0.10921,-0.04266,-0.02832,0.06178
-0.27836,0.95428,0.10891,-0.02583,-0.03251,0.0638
-0.27834,0.95429,0.10887,-0.02061,-0.02605,0.05758
-0.27818,0.95432,0.109,-0.02077,-0.02609,0.05745
-0.27796,0.95435,0.10935,-0.03941,-0.01022,0.02842
-0.2778,0.95436,0.10965,-0.04567,-0.00656,0.01615
-0.27777,0.95436,0.10973,-0.03815,-0.00493,0.01375
-0.27782,0.95437,0.10949,-0.04075,-0.00192,0.01412
-0.27794,0.95439,0.10906,-0.03709,-0.00398,0.01722
-0.27816,0.95439,0.10843,-0.03097,-0.00337,0.02
-0.2784,0.95442,0.10757,-0.02694,-0.00299,0.02187
-0.27865,0.95443,0.1068,-0.00445,-0.00221,0.02092
-0.27881,0.95445,0.10619,0.0041,0.00505,0.01961
-0.27881,0.95452,0.1056,0.00162,0.0024,0.01362
-0.2786,0.95464,0.10505,-0.00608,0.00012,0.00763
-0.27834,0.95477,0.10459,-0.03245,-0.00956,0.00824
-0.27815,0.95487,0.1042,-0.03951,-0.00765,0.00945
-0.27813,0.95491,0.10383,-0.04135,-0.01047,0.01108
-0.27824,0.95494,0.10333,-0.03731,-0.00564,0.01391
-0.27832,0.95498,0.10274,-0.03337,-0.00884,0.02235
-0.27833,0.95504,0.10214,-0.0328,-0.01122,0.03176
-0.27829,0.95509,0.10174,-0.0355,-0.01602,0.03252
-0.2782,0.95514,0.10151,-0.03877,-0.0183,0.03361
-0.27809,0.9552,0.10127,-0.0473,-0.01478,0.03418
-0.27801,0.95525,0.10105,-0.05077,-0.01923,0.03498
-0.27803,0.95527,0.10075,-0.05203,-0.01884,0.03213
-0.2781,0.95528,0.10049,-0.04567,-0.01535,0.02876
-0.27819,0.95528,0.10029,-0.0373,-0.00288,0.02556
-0.27822,0.9553,0.09992,-0.03317,0.00011,0.02462
-0.27821,0.95536,0.09937,-0.02294,-0.00103,0.03085
-0.27816,0.95544,0.09876,-0.01768,-0.0096,0.02737
-0.27802,0.95553,0.09834,-0.01538,-0.01076,0.02938
-0.27788,0.95561,0.09795,-0.01708,-0.0093,0.02698
-0.27773,0.95569,0.09761,-0.01312,-0.00703,0.02997
-0.27755,0.95576,0.09744,-0.01015,-0.00538,0.03017
-0.27725,0.95584,0.09743,-0.01383,-0.00235,0.02935
-0.27678,0.95596,0.09759,-0.02007,-0.00353,0.02942
-0.27626,0.9561,0.09776,-0.03708,-0.00367,0.03012
-0.27584,0.95621,0.09789,-0.0456,-0.01028,0.02813
-0.27555,0.95629,0.09789,-0.04415,-0.01487,0.02662
-0.27532,0.95636,0.09787,-0.04559,-0.01404,0.02127
-0.27516,0.9564,0.09788,-0.01778,-0.00638,0.01862
-0.27499,0.95647,0.09764,-0.01327,-0.00083,0.02556
-0.27473,0.95661,0.0971,-0.01435,0.00038,0.02812
-0.27438,0.95676,0.09661,-0.02822,-0.00925,0.02427
-0.27401,0.9569,0.09629,-0.02699,-0.01245,0.0188
-0.27363,0.95704,0.09591,-0.03192,-0.00552,0.01648
-0.27329,0.95719,0.09545,-0.03515,-0.00252,0.01642
-0.27293,0.95733,0.09498,-0.03258,-0.00287,0.01998
-0.27254,0.95748,0.09458,-0.03164,-0.00166,0.0144
-0.27205,0.95766,0.09415,-0.03095,-0.00103,0.0095
-0.27155,0.95788,0.09337,-0.03503,-0.00014,0.01449
-0.27103,0.95814,0.09222,-0.04819,-0.00168,0.02353
-0.27056,0.95839,0.09105,-0.05333,-0.01222,0.03587
-0.27019,0.95857,0.09022,-0.05036,-0.02734,0.04694
-0.26995,0.95869,0.08969,-0.05256,-0.02577,0.04758
-0.26979,0.95875,0.08949,-0.04114,-0.01947,0.04762
-0.26975,0.95875,0.08956,-0.02201,-0.01242,0.03058
-0.2697,0.95875,0.08975,-0.01378,-0.00993,0.02229
-0.26959,0.95876,0.08999,-0.01112,-0.0059,0.01696
-0.26949,0.95876,0.09028,-0.02783,-0.00562,0.01499
-0.26948,0.95872,0.09069,-0.02637,-0.00662,0.01554
-0.26958,0.95867,0.09101,-0.02171,-0.00394,0.01699
-0.26971,0.95861,0.09125,-0.01575,-0.0064,0.01928
-0.26981,0.95856,0.09144,-0.02136,0.00108,0.01891
-0.26987,0.95854,0.09155,-0.02269,-0.00214,0.01767
-0.2699,0.95853,0.09155,-0.01781,-0.00331,0.0237
-0.26984,0.95855,0.09148,-0.01933,-0.00648,0.02769
-0.26972,0.95857,0.09166,-0.03411,-0.00965,0.02584
-0.26968,0.95854,0.09201,-0.03251,-0.00875,0.02073
-0.26968,0.95852,0.09223,-0.03072,-0.00706,0.02224
-0.2697,0.95851,0.09232,-0.03581,-0.0034,0.02732
-0.26972,0.95848,0.09252,-0.04104,-0.01026,0.02946
-0.26978,0.95845,0.09275,-0.03734,-0.01306,0.03059
-0.26988,0.95839,0.093,-0.0279,-0.01293,0.0273
-0.27002,0.95832,0.09337,-0.02429,-0.00879,0.02181
-0.27015,0.95823,0.09388,-0.02181,-0.00573,0.02236
-0.27038,0.95811,0.09442,-0.00737,-0.00827,0.02885
-0.27064,0.95797,0.09509,-0.00601,-0.009,0.03201
-0.27087,0.95783,0.09586,-0.0067,-0.00611,0.03191
-0.27113,0.95767,0.09673,-0.0171,-0.00859,0.02978
-0.27149,0.95747,0.09765,-0.01079,-0.00766,0.02208
-0.27193,0.95722,0.09886,-0.00747,-0.00477,0.01899
-0.27244,0.95694,0.10025,0.00094,0.00756,0.01824
