gravity.x,gravity.y,gravity.z,userAcceleration.x,userAcceleration.y,userAcceleration.z
-0.01172,0.96286,0.26973,-0.02186,0.00553,-0.00302
-0.01182,0.96293,0.26951,-0.01982,0.0083,0.00283
-0.01198,0.96299,0.26928,-0.02272,0.00576,0.00166
-0.0121,0.96303,0.26911,-0.02161,0.0064,0.00561
-0.01226,0.96307,0.26897,-0.01789,0.00551,0.00145
-0.01234,0.96314,0.26872,-0.01804,0.00692,0.00215
-0.01237,0.96322,0.26843,-0.01911,0.00608,0.003
-0.01242,0.96329,0.26817,-0.02107,0.00229,0.0058
-0.0125,0.96335,0.26795,-0.01775,0.00259,0.00558
-0.01258,0.96341,0.26772,-0.01646,0.00519,0.00437
-0.01273,0.96346,0.26756,-0.01447,0.00685,0.00132
-0.01283,0.96349,0.26744,-0.01713,0.00428,-0.00133
-0.01284,0.9635,0.26738,-0.01699,0.0046,-0.00347
-0.01291,0.96352,0.26734,-0.0175,0.00523,-0.00292
-0.01296,0.96354,0.26725,-0.01854,0.00742,-0.00146
-0.01296,0.96357,0.26715,-0.01847,0.00466,-0.00035
-0.01302,0.9636,0.26703,-0.01919,0.00864,-0.0056
-0.01307,0.96361,0.26699,-0.01796,0.0056,-0.00727
-0.0132,0.96363,0.26691,-0.01735,0.00703,-0.0089
-0.01339,0.96367,0.26677,-0.0058,0.00382,-0.00525
-0.01349,0.96371,0.26659,-0.01107,0.00621,-0.00112
-0.01348,0.96374,0.2665,-0.01348,0.00756,-0.00194
-0.01342,0.96377,0.2664,-0.01846,0.00655,-0.00119
-0.0133,0.96377,0.26641,-0.01676,0.00516,-0.00147
-0.01321,0.96375,0.26649,-0.01549,0.00761,0.00047
-0.01318,0.96374,0.26651,-0.01935,0.00966,-0.00586
-0.01319,0.96376,0.26644,-0.02034,0.00754,-0.00317
-0.01324,0.96376,0.26644,-0.01589,0.00262,-0.00176
-0.01331,0.96373,0.26653,-0.01226,0.00636,0.00047
-0.01337,0.9637,0.26664,-0.01587,0.0092,-0.00408
-0.01334,0.96368,0.26672,-0.01637,0.00841,-0.00305
-0.01329,0.96368,0.26673,-0.02049,0.00664,-0.00611
-0.01321,0.96367,0.26676,-0.01981,0.00265,0.00144
-0.01315,0.96364,0.26688,-0.02147,0.00535,0.00117
-0.01314,0.96361,0.26699,-0.01969,0.00717,0.00162
-0.01319,0.96359,0.26705,-0.01923,0.00725,2e-05
-0.01327,0.96358,0.2671,-0.01438,0.00707,0.00239
-0.0133,0.96355,0.2672,-0.01406,0.00099,0.00385
-0.0133,0.96348,0.26745,-0.01393,0.00136,0.00698
-0.0132,0.96338,0.26782,-0.01425,0.00748,0.00729
-0.01312,0.96329,0.26816,-0.02052,0.01152,-0.00116
-0.01305,0.9632,0.26846,-0.02021,0.00666,-0.00375
-0.01292,0.96313,0.26874,-0.01802,0.00646,-0.00089
-0.01286,0.96306,0.26898,-0.02157,0.00951,-0.00324
-0.01293,0.96305,0.26902,-0.02374,0.00863,-0.0063
-0.01307,0.96307,0.26895,-0.02317,0.00658,-0.00555
-0.01322,0.96309,0.26885,-0.01613,0.00468,0.0033
-0.01335,0.96309,0.26886,-0.00896,0.00173,0.00516
-0.01331,0.96304,0.26904,-0.01243,0.00277,0.00417
-0.01328,0.96298,0.26925,-0.02117,0.00678,-0.0078
-0.0132,0.9629,0.26952,-0.02327,0.00969,-0.00771
-0.01319,0.96283,0.2698,-0.02151,0.0062,-0.00364
-0.01322,0.96276,0.27003,-0.01887,0.00898,-5e-05
-0.01328,0.96273,0.27012,-0.01578,0.00682,-0.00083
-0.0133,0.96272,0.27016,-0.01537,0.00861,-0.0041
-0.01331,0.96271,0.27022,-0.01723,0.00653,-0.00325
-0.01323,0.96267,0.27034,-0.01712,0.00594,0.00064
-0.01321,0.96265,0.27042,-0.01435,0.00393,0.00616
-0.01315,0.96265,0.27042,-0.01938,0.00735,0.00508
-0.01307,0.96265,0.27042,-0.02159,0.0053,0.00297
-0.01292,0.96264,0.27048,-0.02277,0.00518,0.00143
-0.01285,0.96263,0.27053,-0.02076,0.00451,0.00439
-0.01283,0.96267,0.27038,-0.01789,0.00416,0.00472
-0.01283,0.96274,0.27011,-0.01687,0.00456,0.00708
-0.01288,0.96282,0.26984,-0.01671,0.00097,0.00662
-0.01285,0.96286,0.2697,-0.01574,0.0009,0.00923
-0.01273,0.96286,0.2697,-0.01812,0.00021,0.00813
-0.0127,0.96283,0.2698,-0.02093,0.0023,0.00581
-0.01268,0.96283,0.26982,-0.02452,0.00345,0.00068
-0.01265,0.96284,0.26979,-0.02302,0.00303,-0.00146
-0.01269,0.96283,0.2698,-0.01892,0.00538,0.00149
-0.01278,0.96283,0.26981,-0.01634,0.00536,0.00321
-0.01284,0.96285,0.26974,-0.01556,0.00752,0.00028
-0.01296,0.96288,0.26961,-0.01709,0.00349,0.00346
-0.01299,0.9629,0.26953,-0.02015,0.00487,-0.00053
-0.01293,0.96292,0.26948,-0.02002,0.00407,-0.00031
-0.01288,0.96292,0.26947,-0.02219,0.00404,-0.00153
-0.01283,0.96292,0.26949,-0.02244,0.00608,-0.00101
-0.01283,0.96293,0.26945,-0.02054,0.00645,-0.00207
-0.01282,0.96296,0.26935,-0.01991,0.00691,-0.00168
-0.01283,0.96298,0.26925,-0.01834,0.00426,0.00029
-0.01283,0.96301,0.26917,-0.01364,0.0066,0.00259
-0.01283,0.96302,0.26912,-0.01545,0.00745,0.00393
-0.01284,0.96303,0.2691,-0.0171,0.00479,0.00214
-0.01283,0.96302,0.26912,-0.01847,0.00236,0.00142
-0.01278,0.963,0.2692,-0.01676,0.00561,0.00105
-0.01274,0.96297,0.2693,-0.01898,0.00697,-0.00271
-0.01269,0.96297,0.26931,-0.0203,0.00888,-9e-05
-0.01266,0.96299,0.26926,-0.02089,0.00946,0.00097
-0.01262,0.963,0.26921,-0.01794,0.00255,0.00594
-0.01255,0.96302,0.26915,-0.01708,0.00154,0.00619
-0.0125,0.96303,0.26911,-0.01669,0.00348,0.00688
-0.01249,0.96303,0.26911,-0.02116,0.01074,0.00568
-0.01239,0.96302,0.26914,-0.02186,0.00931,0.00241
-0.01235,0.96302,0.26915,-0.01739,0.0042,0.00232
-0.0123,0.96303,0.26912,-0.01497,0.00714,0.00391
-0.01232,0.96306,0.26902,-0.01622,0.00464,0.00373
-0.0123,0.96312,0.2688,-0.02233,0.00859,0.00594
-0.0123,0.96319,0.26854,-0.02358,0.00744,0.0044
-0.01238,0.96324,0.26835,-0.01685,0.00072,0.00955
-0.01246,0.96328,0.2682,-0.01619,0.00086,0.0067
-0.0125,0.9633,0.26814,-0.01665,0.0037,0.00901
-0.01255,0.96331,0.26811,-0.01696,0.00709,0.00155
-0.01258,0.9633,0.26814,-0.01953,0.00614,-0.00354
-0.0125,0.96328,0.26821,-0.01775,0.00303,-0.00371
-0.01244,0.96326,0.2683,-0.01736,0.00343,-0.00067
-0.01246,0.96326,0.26829,-0.01536,0.01036,-0.00185
-0.01245,0.96329,0.26817,-0.0177,0.0095,-0.00387
-0.01244,0.96334,0.268,-0.01753,0.01011,-0.00599
-0.01246,0.96338,0.26786,-0.01897,0.00403,-0.0033
-0.01252,0.96342,0.26771,-0.01635,0.00391,0.00358
-0.01256,0.96347,0.26751,-0.01613,0.005,0.00528
-0.01258,0.96354,0.26726,-0.01927,0.0026,0.00768
-0.01253,0.96363,0.26696,-0.02252,0.00184,0.00539
-0.01248,0.96372,0.26663,-0.02275,-0.00028,0.00684
-0.01253,0.96381,0.2663,-0.01985,-0.00377,0.00912
-0.01275,0.96387,0.26607,-0.01734,0.00343,0.00489
-0.01305,0.96384,0.26618,-0.01374,0.00791,-0.00391
-0.01334,0.96373,0.26656,-0.01468,0.00974,-0.01205
-0.01351,0.96359,0.26705,-0.01353,0.01326,-0.02207
-0.01352,0.96346,0.26751,-0.01587,0.01277,-0.02282
-0.01352,0.96338,0.26779,-0.01349,0.01869,-0.01693
-0.01348,0.96341,0.26768,-0.01418,0.01681,-0.00924
-0.01337,0.96355,0.26718,-0.02032,0.00576,0.00547
-0.01325,0.96379,0.26634,-0.02378,0.00153,0.01388
-0.01325,0.96398,0.26565,-0.02468,-0.00472,0.0163
-0.01341,0.96404,0.26542,-0.02146,-0.0019,0.01503
-0.01373,0.96397,0.26565,-0.01075,-0.00343,0.00223
-0.01394,0.96383,0.26613,-0.00238,0.0067,0.00128
-0.01398,0.96368,0.2667,-0.00882,0.00495,-0.00312
-0.01389,0.96354,0.26721,-0.01813,0.01057,-0.01252
-0.01374,0.96343,0.2676,-0.02323,0.01199,-0.01269
-0.01359,0.96336,0.26786,-0.02088,0.01279,-0.01154
-0.01348,0.96335,0.2679,-0.02145,0.00964,-0.00394
-0.01348,0.96339,0.26777,-0.02213,0.00556,0.00114
-0.01353,0.96344,0.26759,-0.01577,0.00408,0.00751
-0.01357,0.9635,0.26738,-0.01317,0.00272,0.01106
-0.01359,0.96354,0.26721,-0.01651,0.0073,0.00988
-0.01344,0.96357,0.2671,-0.01961,0.00879,0.00975
-0.01326,0.9636,0.26701,-0.01938,0.00173,0.01052
-0.01309,0.96362,0.26694,-0.02513,-0.00076,0.00909
-0.013,0.96364,0.26688,-0.02627,-0.00106,0.00668
-0.01305,0.96366,0.2668,-0.02499,0.00416,0.00389
-0.01321,0.96369,0.2667,-0.02361,0.00427,0.00422
-0.01344,0.96369,0.26667,-0.01394,0.00663,-0.00063
-0.01361,0.9637,0.26665,-0.01289,0.01128,-0.00278
-0.01374,0.96371,0.26661,-0.01561,0.01133,-0.00458
-0.01385,0.96375,0.26646,-0.01399,0.0126,-0.00709
-0.0139,0.96384,0.26611,-0.01886,0.01072,0.00038
-0.01394,0.96396,0.26568,-0.01883,0.00566,0.00129
-0.01396,0.96409,0.26522,-0.02145,0.0018,0.00353
-0.014,0.96421,0.26477,-0.02076,-0.0008,0.00868
-0.01408,0.9643,0.26443,-0.01758,-0.00225,0.01021
-0.01419,0.96437,0.26416,-0.01942,-0.00292,0.01047
-0.01425,0.96441,0.26404,-0.01537,0.00164,0.01267
-0.01419,0.9644,0.26406,-0.01889,0.00493,0.01272
-0.01409,0.96437,0.26418,-0.0196,0.00728,0.00715
-0.01407,0.96434,0.26429,-0.01967,0.00694,0.00118
-0.01413,0.96435,0.26426,-0.01947,0.00843,-2e-05
-0.01419,0.96439,0.2641,-0.01785,0.00985,0.00024
-0.01429,0.96447,0.26379,-0.01516,0.00652,0.00517
-0.01432,0.96457,0.26343,-0.0158,0.00418,0.00499
-0.01429,0.96464,0.26317,-0.01581,0.00267,0.00493
-0.0143,0.96471,0.26294,-0.01483,0.00234,0.00821
-0.01431,0.96477,0.26271,-0.01569,0.00545,0.00544
-0.0143,0.96482,0.26251,-0.01386,0.00252,0.00333
-0.01431,0.96486,0.26237,-0.01915,0.00496,-0.00046
-0.01432,0.96488,0.26228,-0.02253,0.00626,0.0
-0.01436,0.96492,0.26216,-0.02255,0.00611,0.00023
-0.01445,0.96498,0.26192,-0.01668,0.00643,0.00235
-0.01452,0.96506,0.26162,-0.01319,0.00598,0.00056
-0.01456,0.96512,0.26138,-0.01448,0.00437,0.0002
-0.01456,0.96517,0.26122,-0.01873,0.00254,-0.00113
-0.01458,0.96522,0.26102,-0.01951,0.0055,-0.00093
-0.01462,0.96527,0.26082,-0.01817,0.00793,-0.00178
-0.01468,0.96534,0.26059,-0.01611,0.00785,0.00066
-0.01472,0.96537,0.26044,-0.01798,0.00534,-0.00235
-0.01478,0.9654,0.26036,-0.01641,0.00601,0.00025
-0.01485,0.96542,0.26025,-0.01738,0.00746,0.00092
-0.01495,0.96547,0.26007,-0.01798,0.00801,-0.00134
-0.01503,0.96552,0.25989,-0.01851,0.00801,-0.00021
-0.01504,0.96555,0.25977,-0.02059,0.00578,0.00325
-0.01506,0.96559,0.25963,-0.01761,0.00574,-0.00239
-0.01508,0.96563,0.25949,-0.01858,0.00633,0.00016
-0.01511,0.96567,0.25932,-0.01904,0.00779,-0.00207
-0.01509,0.96571,0.25918,-0.01934,0.00786,-0.00022
-0.01511,0.96575,0.25902,-0.02038,0.00924,0.00076
-0.01518,0.9658,0.25885,-0.0199,0.00544,-0.00125
-0.01524,0.96584,0.25867,-0.021,0.00634,-0.00042
-0.01531,0.96587,0.25856,-0.01911,0.00697,-0.00182
-0.01538,0.9659,0.25846,-0.01639,0.00981,-0.00097
-0.01546,0.96595,0.25827,-0.01612,0.00833,-0.00602
-0.01546,0.96601,0.25805,-0.01559,0.00877,-0.00503
-0.01545,0.96608,0.25777,-0.0179,0.00902,-0.00257
-0.01545,0.96616,0.25747,-0.01844,0.00825,0.00155
-0.01539,0.96625,0.25712,-0.01522,0.00889,0.00081
-0.01535,0.96637,0.2567,-0.01648,0.00296,0.00481
-0.01526,0.9665,0.25622,-0.01937,0.00138,0.00521
-0.01522,0.96663,0.25571,-0.02468,0.00273,0.00586
-0.01522,0.96674,0.25531,-0.02087,0.0014,0.0067
-0.01527,0.96682,0.25499,-0.02016,-0.00031,0.00581
-0.01539,0.96688,0.25476,-0.01452,0.00018,0.00633
-0.01546,0.96694,0.25454,-0.01424,0.00088,0.00845
-0.01544,0.96698,0.25437,-0.01871,0.00094,0.00886
-0.01541,0.96698,0.25435,-0.01835,0.00509,0.00595
-0.01543,0.96695,0.25449,-0.01823,0.00494,0.00168
-0.01544,0.96692,0.25461,-0.01454,0.0058,-0.00028
-0.01547,0.96691,0.25465,-0.01374,0.00569,0.00014
-0.01551,0.96692,0.2546,-0.01581,0.00867,0.00277
-0.01553,0.96695,0.25449,-0.01975,0.00752,0.0021
-0.01554,0.96698,0.25438,-0.01972,0.00447,0.00235
-0.01558,0.96701,0.25426,-0.01897,0.00527,0.00215
-0.01565,0.96706,0.25403,-0.01914,0.00857,-0.00113
-0.01573,0.96715,0.25372,-0.02043,0.00795,0.00076
-0.01585,0.96725,0.25333,-0.01971,0.00726,0.00269
-0.01597,0.96735,0.25294,-0.01702,0.00441,0.00319
-0.01607,0.96744,0.25259,-0.01581,0.00444,-0.00162
-0.01617,0.96752,0.25225,-0.01591,0.00818,-0.00333
-0.01633,0.96763,0.25181,-0.01504,0.01149,-0.00235
-0.01653,0.96777,0.25127,-0.01562,0.00562,-0.00112
-0.01671,0.96791,0.25072,-0.0177,0.00578,0.00021
-0.01692,0.96804,0.25021,-0.02141,0.00904,-0.00369
-0.01713,0.96816,0.24973,-0.01898,0.00573,-0.00319
-0.01735,0.96829,0.24923,-0.01699,0.00568,-0.00515
-0.01757,0.96842,0.24867,-0.01503,0.00261,-0.00244
-0.0178,0.96857,0.24809,-0.01435,0.00395,-0.00133
-0.01802,0.96869,0.2476,-0.01527,0.0049,-0.00062
-0.01824,0.9688,0.24714,-0.01605,0.005,6e-05
-0.0184,0.9689,0.24674,-0.00897,0.00064,0.00451
-0.01853,0.96896,0.24648,-0.0113,0.00183,0.0041
-0.01864,0.96899,0.24639,-0.01603,0.00363,0.00246
-0.01868,0.96899,0.24639,-0.01788,0.00477,0.00389
-0.0187,0.96897,0.24646,-0.02042,0.00366,0.00537
-0.01878,0.96893,0.24662,-0.01913,0.00564,0.00146
-0.01889,0.96891,0.24668,-0.01538,0.00729,-0.0017
-0.019,0.96891,0.24666,-0.01298,0.00718,0.00327
-0.01904,0.96893,0.2466,-0.01747,0.00945,0.00137
-0.01899,0.96897,0.24644,-0.0194,0.00868,0.00093
-0.01898,0.96902,0.24622,-0.01948,0.00902,0.00178
-0.01903,0.96908,0.24598,-0.01639,0.00142,0.00052
-0.01909,0.96916,0.24566,-0.01382,0.00549,-0.00146
-0.01919,0.96925,0.24532,-0.01586,0.00716,0.00184
-0.01922,0.96933,0.24499,-0.0164,0.00456,0.00325
-0.01921,0.9694,0.24472,-0.01739,0.00112,0.00488
-0.01913,0.96946,0.24449,-0.01901,0.00178,0.00422
-0.01907,0.96951,0.2443,-0.01865,0.00091,0.00506
-0.01906,0.96954,0.24417,-0.01837,0.00186,0.00402
-0.01908,0.96955,0.24412,-0.01742,0.0003,0.00954
-0.01913,0.96955,0.24413,-0.01706,0.00262,0.01115
-0.01917,0.96953,0.2442,-0.01775,0.00323,0.01471
-0.01928,0.96947,0.24444,-0.01217,0.00542,0.00535
-0.01932,0.96942,0.24462,-0.01351,0.00401,0.00312
-0.01935,0.96938,0.24479,-0.01909,0.00667,0.00494
-0.01935,0.96934,0.24495,-0.01988,0.0077,0.00337
-0.01932,0.96932,0.24502,-0.01886,0.00624,0.00489
-0.01934,0.96932,0.245,-0.01673,0.00853,0.00077
-0.01933,0.96935,0.2449,-0.0194,0.00624,0.00214
-0.01931,0.9694,0.24472,-0.01965,0.00266,0.00502
-0.01932,0.96944,0.24454,-0.01857,0.00341,0.0055
-0.01937,0.96946,0.24444,-0.01724,0.00582,0.00405
-0.01945,0.96948,0.24438,-0.01228,0.00437,0.00484
-0.01952,0.96949,0.24431,-0.01372,0.00296,0.0043
-0.01954,0.9695,0.24427,-0.01704,0.00317,0.00272
-0.01956,0.9695,0.24427,-0.01721,0.00039,0.00387
-0.01961,0.96949,0.24434,-0.01792,-0.00281,0.00485
-0.01972,0.96943,0.24455,-0.01653,-0.00265,0.00963
-0.01987,0.96934,0.24491,-0.01379,-0.00088,0.01266
-0.02001,0.96918,0.24552,-0.01361,-0.00069,0.01383
-0.02012,0.96896,0.24638,-0.01334,0.0014,0.00763
-0.02013,0.96869,0.24742,-0.01536,0.00407,0.00427
-0.02009,0.96842,0.24847,-0.01446,0.00689,0.00136
-0.02003,0.96816,0.24949,-0.01555,0.01267,-0.00757
-0.01995,0.96795,0.25031,-0.01763,0.01941,-0.01679
-0.0199,0.96783,0.25078,-0.01817,0.02196,-0.01751
-0.0199,0.9678,0.25092,-0.01783,0.01972,-0.01999
-0.01999,0.96787,0.25062,-0.01287,0.01548,-0.01598
-0.02011,0.96802,0.25003,-0.0106,0.01303,-0.01428
-0.02025,0.96819,0.24935,-0.00766,0.01154,-0.00971
-0.02029,0.96835,0.24874,-0.00916,0.00814,-0.00521
-0.02021,0.96848,0.24824,-0.01418,0.00558,-0.00392
-0.02,0.9686,0.2478,-0.01629,0.00795,-0.00317
-0.01978,0.96872,0.24732,-0.01956,0.00424,-0.00373
-0.01959,0.96886,0.24681,-0.02083,0.00494,-0.00136
-0.01944,0.96896,0.24644,-0.02466,0.00257,0.00382
-0.01939,0.96901,0.24624,-0.02409,-0.0002,0.00548
-0.0194,0.96901,0.24621,-0.0174,0.00189,0.00422
-0.01942,0.96898,0.24632,-0.01354,0.0046,0.00354
-0.01938,0.96891,0.24662,-0.01224,0.00431,-0.00475
-0.01922,0.9688,0.24705,-0.01557,0.00515,-0.00494
-0.01905,0.96867,0.2476,-0.01659,0.00622,-0.00775
-0.01897,0.96854,0.24809,-0.01759,0.01092,-0.00717
-0.01897,0.96846,0.24842,-0.0164,0.00966,-0.00756
-0.01905,0.96841,0.24859,-0.01607,0.00946,-0.0053
-0.01912,0.96838,0.24871,-0.01811,0.00899,0.00191
-0.01909,0.96833,0.2489,-0.01901,0.01023,0.00422
-0.01905,0.96829,0.24908,-0.01934,0.00595,0.00186
-0.01895,0.96826,0.24919,-0.01903,0.00783,0.00134
-0.01884,0.96826,0.24921,-0.02103,0.0056,0.00155
-0.01877,0.96828,0.24913,-0.02243,0.0065,0.00222
-0.01873,0.9683,0.24904,-0.02202,0.00359,0.00107
-0.01873,0.96833,0.24894,-0.02096,0.00334,0.00187
-0.01882,0.96836,0.24881,-0.01917,0.00275,0.00094
-0.01889,0.96841,0.24861,-0.01605,0.00173,0.00274
-0.01897,0.96845,0.24845,-0.01603,0.00465,0.00231
-0.01901,0.96844,0.24848,-0.01687,0.00162,0.00193
-0.01903,0.96838,0.24873,-0.01527,0.00304,0.00154
-0.01906,0.9683,0.24902,-0.01442,0.00425,-0.00212
-0.01906,0.96824,0.24926,-0.01692,0.00643,-0.00207
-0.01899,0.96821,0.24937,-0.01912,0.00763,-0.0053
-0.01899,0.9682,0.24942,-0.02059,0.00598,-0.00492
-0.01901,0.96818,0.24948,-0.01684,0.00533,-0.00313
-0.01908,0.96816,0.24959,-0.01528,0.00683,-0.00056
-0.01913,0.96813,0.24967,-0.01928,0.00573,-0.00082
-0.01915,0.9681,0.24981,-0.01918,0.00685,-0.00678
-0.01913,0.96807,0.24991,-0.01677,0.00973,-0.00986
-0.01908,0.96804,0.25004,-0.01629,0.00752,-0.00179
-0.01904,0.96801,0.25016,-0.01821,0.00938,0.00074
-0.01899,0.96799,0.25022,-0.01772,0.00872,-0.00082
-0.01891,0.96798,0.25026,-0.01741,0.00722,0.00086
-0.01881,0.968,0.25021,-0.01875,0.00736,0.00078
-0.01875,0.96802,0.25014,-0.02016,0.0052,0.00334
-0.01875,0.96804,0.25007,-0.01947,0.00268,0.00449
-0.01881,0.96804,0.25004,-0.01679,0.00396,0.00307
-0.01883,0.96804,0.25005,-0.01597,0.00387,0.00346
-0.01883,0.96802,0.25013,-0.01732,0.00644,0.00191
-0.01881,0.96798,0.25027,-0.01724,0.0065,-0.00543
-0.01881,0.96795,0.25041,-0.01695,0.00665,-0.00554
-0.01886,0.96792,0.25052,-0.01403,0.00935,-0.00587
-0.01887,0.96791,0.25057,-0.01494,0.01078,-0.00434
-0.01883,0.96792,0.25051,-0.01943,0.01111,-0.00957
-0.01873,0.96795,0.25041,-0.02161,0.01026,-0.00809
-0.01871,0.96799,0.25023,-0.02011,0.00523,-0.00568
-0.01873,0.96805,0.25,-0.01819,0.00268,0.0042
-0.01881,0.96813,0.2497,-0.01828,0.00535,0.00712
-0.01884,0.96819,0.24946,-0.019,0.00454,0.00505
-0.01886,0.96824,0.24928,-0.01771,0.0071,0.00045
-0.01892,0.96825,0.24921,-0.01695,0.00091,-0.00492
-0.01902,0.96826,0.2492,-0.01362,0.00435,-0.00358
-0.01912,0.96825,0.24923,-0.01541,0.01001,-0.00071
-0.01918,0.96825,0.24922,-0.01407,0.00842,-0.00522
-0.01931,0.96824,0.24923,-0.01027,0.0062,-0.01064
-0.01937,0.96824,0.24924,-0.01638,0.00689,-0.00844
-0.01945,0.9682,0.24938,-0.01847,0.0071,-0.00974
-0.01952,0.96814,0.24961,-0.01759,0.00816,-0.01093
-0.01957,0.9681,0.24977,-0.00997,0.01031,-0.01273
-0.01955,0.96806,0.24992,-0.01094,0.01056,-0.01299
-0.01947,0.96803,0.25004,-0.01712,0.00685,-0.01117
-0.01941,0.96802,0.25009,-0.01878,0.00981,-0.00523
-0.01937,0.968,0.25018,-0.01772,0.00652,-0.0034
-0.0194,0.96798,0.25023,-0.01567,0.00761,-0.00792
-0.01938,0.96793,0.25044,-0.01632,0.00809,-0.01322
-0.01938,0.96786,0.25069,-0.01758,0.00745,-0.01261
-0.01941,0.9678,0.25095,-0.01523,0.00543,-0.0103
-0.01938,0.96772,0.25124,-0.01608,0.00791,-0.00963
-0.01929,0.96765,0.25152,-0.01835,0.01087,-0.00645
-0.0192,0.9676,0.2517,-0.02174,0.00829,-0.00834
-0.01912,0.96756,0.25186,-0.0217,0.0075,-0.00998
-0.01913,0.96754,0.25197,-0.01691,0.01035,-0.00296
-0.01915,0.96749,0.25215,-0.01417,0.00535,0.00077
-0.01913,0.96742,0.25242,-0.01734,0.00741,-0.00117
-0.0191,0.96734,0.25272,-0.01854,0.01159,-0.0078
-0.01906,0.96726,0.25304,-0.017,0.00911,-0.01005
-0.019,0.96718,0.25332,-0.01633,0.00836,-0.00671
-0.01889,0.96711,0.25361,-0.01726,0.00776,-0.00559
-0.01878,0.96705,0.25384,-0.0212,0.00844,-0.00676
-0.01869,0.967,0.25403,-0.01948,0.00339,-0.00626
-0.01865,0.96696,0.25418,-0.01888,0.00719,-0.00612
-0.01863,0.96692,0.25434,-0.01532,0.00653,0.00127
-0.01863,0.96686,0.25458,-0.01296,0.00628,0.00418
-0.01855,0.96678,0.25491,-0.01547,0.00515,0.00536
-0.01847,0.96669,0.25525,-0.02025,0.00547,-0.00383
-0.01841,0.9666,0.25559,-0.01918,0.00778,-0.00625
-0.01835,0.96652,0.25587,-0.01918,0.00795,-0.00632
-0.01835,0.96645,0.25617,-0.01734,0.00882,-0.00575
-0.01835,0.96638,0.25643,-0.01679,0.00648,-0.0062
-0.01831,0.96633,0.25661,-0.01695,0.00814,-0.00518
-0.01823,0.9663,0.25674,-0.0172,0.00648,-0.00329
-0.01812,0.96627,0.25683,-0.01753,0.0076,0.00016
-0.01807,0.96625,0.25693,-0.01952,0.00578,-0.00374
-0.01808,0.96621,0.25707,-0.01948,0.00667,-0.00201
-0.0181,0.96617,0.25722,-0.01835,0.00818,-0.00682
-0.01812,0.96615,0.2573,-0.01747,0.00698,-0.00588
-0.01813,0.96613,0.25737,-0.01669,0.00639,-0.00673
-0.01808,0.96611,0.25745,-0.01706,0.00754,-0.0051
-0.01804,0.96609,0.25752,-0.01832,0.00777,-0.00522
-0.01805,0.96607,0.25759,-0.01853,0.01118,-0.00617
-0.01809,0.96607,0.25759,-0.01522,0.00964,-0.00776
-0.01813,0.96607,0.25759,-0.01634,0.00692,-0.00783
-0.01812,0.96608,0.25757,-0.01621,0.0066,-0.00562
-0.01807,0.96608,0.25755,-0.01795,0.00621,-0.00417
-0.01801,0.96609,0.25752,-0.01871,0.00757,-0.00218
-0.01797,0.96611,0.25747,-0.0194,0.00522,-0.00359
-0.01799,0.96611,0.25744,-0.01889,0.00525,-0.0032
-0.01798,0.9661,0.25749,-0.01771,0.00628,-0.00403
-0.01801,0.96607,0.2576,-0.01713,0.00795,-0.00672
-0.01801,0.96604,0.25773,-0.01597,0.00865,-0.00713
-0.01803,0.966,0.25788,-0.01502,0.00562,-0.00876
-0.01805,0.96597,0.25798,-0.01874,0.00911,-0.00487
-0.01804,0.96593,0.2581,-0.02022,0.00788,-0.00511
-0.01804,0.9659,0.25824,-0.01979,0.01128,-0.01183
-0.01803,0.96588,0.25833,-0.01712,0.01014,-0.01508
-0.01801,0.96586,0.25837,-0.01626,0.01142,-0.01481
-0.01802,0.96588,0.25831,-0.01874,0.00975,-0.00876
-0.01804,0.9659,0.25823,-0.01744,0.00824,-0.00656
-0.01802,0.96591,0.25818,-0.01787,0.00938,-0.00549
-0.01799,0.96591,0.25818,-0.01937,0.00935,-0.00599
-0.01798,0.9659,0.25824,-0.01885,0.01045,-0.00859
-0.018,0.96586,0.25839,-0.0176,0.00887,-0.00918
-0.018,0.9658,0.25862,-0.01632,0.01106,-0.00935
-0.01799,0.96573,0.25888,-0.01721,0.01267,-0.00584
-0.01792,0.96565,0.25916,-0.02053,0.01535,-0.00975
-0.0178,0.9656,0.25936,-0.02057,0.01293,-0.01049
-0.01773,0.9656,0.25936,-0.0186,0.01117,-0.00887
-0.01763,0.96563,0.25928,-0.01926,0.00871,0.00034
-0.01752,0.9657,0.25902,-0.01977,0.0101,0.00238
-0.01747,0.96581,0.25861,-0.02057,0.00589,0.00513
-0.01747,0.96591,0.25824,-0.02041,0.00031,-0.00051
-0.01751,0.96592,0.25819,-0.01833,-0.00134,-0.00343
-0.01762,0.96586,0.25841,-0.01116,0.00542,-0.00655
-0.01768,0.96573,0.25888,-0.01431,0.01107,-0.00861
-0.01768,0.96559,0.25942,-0.01654,0.01302,-0.01651
-0.01758,0.96546,0.2599,-0.01937,0.01409,-0.02296
-0.01737,0.96539,0.26016,-0.02117,0.0164,-0.02357
-0.01715,0.9654,0.26015,-0.02372,0.0098,-0.01115
-0.01707,0.96548,0.25987,-0.02264,0.00578,0.00052
-0.01708,0.96558,0.25948,-0.02159,0.00466,0.00613
-0.01716,0.96561,0.25937,-0.0177,0.00421,0.00409
-0.01724,0.96554,0.25961,-0.01469,0.00534,-0.00102
-0.01724,0.96541,0.2601,-0.01162,0.00854,-0.01094
-0.01715,0.96526,0.26068,-0.01388,0.01277,-0.01401
-0.01695,0.96511,0.26123,-0.02051,0.01229,-0.0127
-0.01667,0.96502,0.26158,-0.0217,0.01018,-0.00962
-0.01637,0.96503,0.26156,-0.02117,-0.0008,-0.00289
-0.01597,0.96516,0.26113,-0.02396,0.0075,0.0133
-0.01582,0.96533,0.26051,-0.02733,0.004,0.01681
-0.01592,0.96544,0.2601,-0.0231,0.0064,0.01267
-0.01618,0.96545,0.26004,-0.01348,0.00442,0.00066
-0.01644,0.96537,0.2603,-0.00599,0.00571,-0.00928
-0.01652,0.9653,0.26055,-0.00739,0.00577,-0.01012
-0.01647,0.96526,0.26071,-0.01464,0.00776,-0.01647
-0.01634,0.96525,0.26074,-0.02205,0.00974,-0.01399
-0.01621,0.96527,0.26067,-0.02308,0.01664,-0.01229
-0.01612,0.96531,0.26055,-0.02032,0.01397,-0.01125
-0.01612,0.96535,0.26038,-0.02044,0.0118,-0.01271
-0.01619,0.96542,0.26011,-0.01489,0.00983,-0.01605
-0.01628,0.96552,0.25976,-0.01381,0.00773,-0.00912
-0.0163,0.96559,0.25951,-0.01724,0.00614,-0.00536
-0.01628,0.96563,0.25936,-0.01478,0.00537,-0.00283
-0.01622,0.96566,0.25922,-0.01617,0.00428,-0.00286
-0.01609,0.96567,0.25919,-0.02205,0.00945,-0.00368
-0.01599,0.96566,0.25924,-0.02291,0.00786,-0.00432
-0.01598,0.96565,0.25928,-0.01862,0.00438,-0.00475
-0.01604,0.96565,0.2593,-0.01648,0.0046,-0.00297
-0.0161,0.96563,0.25935,-0.01509,0.00638,-0.00629
-0.01617,0.96559,0.25949,-0.01846,0.00607,-0.00729
-0.01615,0.96552,0.25975,-0.01789,0.00628,-0.00834
-0.01607,0.96542,0.26013,-0.01816,0.00322,-0.01033
-0.01602,0.96531,0.26056,-0.02054,0.00802,-0.00824
-0.01596,0.96519,0.26098,-0.01862,0.01154,-0.0126
-0.01592,0.9651,0.26134,-0.01803,0.0114,-0.01361
-0.01592,0.96505,0.26153,-0.01753,0.01413,-0.01458
-0.01589,0.96502,0.26164,-0.01826,0.01087,-0.01616
-0.01589,0.96499,0.26174,-0.01951,0.00779,-0.0133
-0.01593,0.96497,0.26181,-0.01541,0.00648,-0.00982
-0.01597,0.96499,0.26175,-0.01637,0.01234,-0.00841
-0.01594,0.96501,0.26166,-0.01639,0.01231,-0.00832
-0.01586,0.96504,0.26158,-0.02431,0.01163,-0.01304
-0.01572,0.96503,0.2616,-0.02467,0.00956,-0.01535
-0.01562,0.96502,0.26166,-0.02207,0.00706,-0.01228
-0.01559,0.96501,0.26169,-0.01887,0.00827,-0.00903
-0.01562,0.96501,0.26168,-0.01708,0.00636,-0.00485
-0.01559,0.96501,0.26168,-0.01901,0.00876,-0.00417
-0.01552,0.96498,0.26178,-0.02014,0.00946,-0.00881
-0.01544,0.96493,0.26198,-0.02025,0.00817,-0.01448
-0.01539,0.96488,0.26219,-0.0167,0.00577,-0.01172
-0.0154,0.96483,0.26237,-0.01597,0.00559,-0.00592
-0.01538,0.96477,0.26256,-0.01474,0.00607,-0.00278
-0.01531,0.9647,0.26282,-0.02056,0.01361,-0.00423
-0.01524,0.96462,0.26312,-0.02108,0.01011,-0.01396
-0.01524,0.96455,0.2634,-0.01889,0.00913,-0.01172
-0.01526,0.9645,0.26359,-0.02139,0.00471,-0.00703
-0.01528,0.96444,0.26379,-0.01856,0.00588,-0.00203
-0.01526,0.96439,0.264,-0.01644,0.0085,-0.00484
-0.01517,0.96432,0.26425,-0.02051,0.00982,-0.01055
-0.01507,0.96425,0.26449,-0.02168,0.00778,-0.01056
-0.01507,0.96421,0.26466,-0.01762,0.00673,-0.0076
-0.01506,0.96417,0.2648,-0.01539,0.00405,-0.00407
-0.01507,0.96414,0.26489,-0.01667,0.00612,-0.00326
-0.01499,0.9641,0.26506,-0.01909,0.00778,-0.00693
-0.01491,0.96403,0.26531,-0.02222,0.00611,-0.00526
-0.0149,0.96395,0.26561,-0.01943,0.00607,-0.00311
-0.01495,0.96387,0.26588,-0.01653,0.00723,-0.00176
-0.01501,0.96382,0.26606,-0.01618,0.00848,-0.00623
-0.015,0.96379,0.26619,-0.02075,0.01029,-0.01146
-0.01498,0.96376,0.26629,-0.02169,0.00968,-0.00983
-0.01498,0.96372,0.26642,-0.01917,0.00976,-0.0085
-0.01504,0.9637,0.26648,-0.01569,0.00961,-0.00659
-0.01512,0.96371,0.26646,-0.01773,0.01088,-0.00927
-0.01519,0.96373,0.26637,-0.02164,0.01373,-0.01231
-0.01526,0.96377,0.26622,-0.02048,0.01393,-0.01643
-0.01533,0.96384,0.26598,-0.01808,0.0087,-0.01592
-0.01551,0.96391,0.26569,-0.01324,0.00421,-0.00829
-0.01571,0.964,0.26536,-0.01284,0.0046,-0.00534
-0.01585,0.96405,0.26516,-0.0118,0.00648,-0.00191
-0.01592,0.96406,0.26511,-0.01436,0.00676,-0.00701
-0.01597,0.96404,0.2652,-0.0164,0.00501,-0.013
-0.01601,0.96398,0.26541,-0.01698,0.00314,-0.01013
-0.01606,0.96391,0.26566,-0.01808,0.00447,-0.00835
-0.01613,0.96382,0.266,-0.01755,0.01249,-0.00538
-0.01616,0.96373,0.26632,-0.01707,0.01168,-0.01115
-0.01612,0.96365,0.26662,-0.01766,0.01246,-0.01197
-0.01606,0.96358,0.26686,-0.02213,0.01315,-0.01089
-0.01603,0.96355,0.26697,-0.02166,0.01353,-0.01236
-0.01606,0.96358,0.26686,-0.01731,0.01446,-0.01373
-0.01611,0.96366,0.26657,-0.01287,0.01373,-0.01381
-0.01613,0.96377,0.26618,-0.01504,0.01098,-0.01558
-0.01611,0.96391,0.26565,-0.01835,0.0114,-0.01405
-0.0161,0.96407,0.26507,-0.01707,0.00974,-0.01131
-0.01609,0.96424,0.26446,-0.0167,0.00732,-0.00672
-0.01605,0.96442,0.2638,-0.01707,0.00527,-0.00427
-0.01595,0.9646,0.26316,-0.01639,0.00456,-0.00025
-0.01581,0.96475,0.26261,-0.01713,-9e-05,0.00232
-0.01567,0.96485,0.26226,-0.01819,0.00147,0.00556
-0.01554,0.96489,0.26211,-0.01851,-9e-05,0.01152
-0.01544,0.96488,0.26214,-0.01612,0.00271,0.01038
-0.01532,0.96483,0.26234,-0.0191,0.00602,0.00507
-0.01518,0.96474,0.26268,-0.02139,0.00382,-0.00015
-0.01512,0.96466,0.26296,-0.02135,0.00746,-0.01007
-0.01513,0.96462,0.26312,-0.02197,0.00822,-0.00705
-0.01519,0.96459,0.26323,-0.02077,0.00783,-0.00531
-0.0153,0.9646,0.26319,-0.01699,0.00865,-0.00372
-0.01539,0.96461,0.26314,-0.01401,0.00571,-0.00243
-0.01547,0.96464,0.26303,-0.01545,0.00737,0.00298
-0.01552,0.96466,0.26295,-0.01679,0.00663,0.00016
-0.01559,0.96467,0.2629,-0.0182,0.00735,0.00033
-0.01565,0.96469,0.26285,-0.0216,0.00545,-2e-05
-0.01567,0.96469,0.26283,-0.02076,0.00815,-0.00133
-0.01566,0.9647,0.2628,-0.02168,0.00657,-0.00496
-0.01568,0.96472,0.26272,-0.02149,0.00851,-0.00459
-0.01571,0.96475,0.26262,-0.02177,0.00998,-0.00533
-0.01578,0.96479,0.26247,-0.0187,0.00646,-0.0038
-0.01586,0.96485,0.26226,-0.01526,0.01073,-0.00328
-0.01589,0.96491,0.26201,-0.01603,0.01003,-0.00562
-0.01593,0.96498,0.26175,-0.01782,0.00853,-0.00678
-0.01603,0.96507,0.26141,-0.01853,0.00789,-0.0049
-0.01614,0.96517,0.26104,-0.01911,0.00439,-0.00024
-0.01624,0.96527,0.26065,-0.01878,0.00361,0.00165
-0.0163,0.96536,0.26032,-0.01897,0.00322,0.00011
-0.01635,0.96542,0.26009,-0.01905,0.00136,0.00189
-0.01641,0.96545,0.26,-0.0159,0.00082,0.00256
-0.01642,0.96542,0.26008,-0.01287,-0.00336,0.00734
-0.01635,0.96535,0.26038,-0.01813,0.00482,0.00558
-0.01624,0.96523,0.2608,-0.02027,0.00765,-0.00218
-0.01614,0.96511,0.26125,-0.01952,0.00882,-0.01209
-0.01604,0.96502,0.2616,-0.02165,0.01148,-0.01275
-0.01601,0.96496,0.26183,-0.02129,0.00899,-0.01221
-0.01608,0.96492,0.26195,-0.02082,0.00633,-0.00172
-0.01621,0.9649,0.26204,-0.02121,0.008,-0.00939
-0.01634,0.96485,0.26219,-0.017,0.01413,-0.01413
-0.01645,0.96484,0.26224,-0.01437,0.01285,-0.02011
-0.01657,0.96489,0.26205,-0.01604,0.01099,-0.01321
-0.01672,0.96497,0.26176,-0.01838,0.00844,-0.00587
-0.01694,0.96503,0.2615,-0.01888,0.00602,-0.00285
-0.01721,0.96508,0.2613,-0.01691,0.00683,-0.00629
-0.01749,0.96512,0.26113,-0.01924,0.01046,-0.00795
-0.01774,0.96515,0.26099,-0.01812,0.01089,-0.01225
-0.01799,0.96518,0.26086,-0.01586,0.00791,-0.01176
-0.01824,0.96522,0.26072,-0.01248,0.00739,-0.01048
-0.01847,0.96525,0.26059,-0.01325,0.01022,-0.0089
-0.01866,0.96529,0.26043,-0.01726,0.01121,-0.01116
-0.01879,0.96535,0.26019,-0.01916,0.0135,-0.01693
-0.01889,0.96542,0.25993,-0.01633,0.01412,-0.01478
-0.01898,0.9655,0.25963,-0.01353,0.00824,-0.00794
-0.01917,0.96558,0.25932,-0.01037,0.00751,-0.00708
-0.01936,0.96567,0.25897,-0.01327,0.00915,-0.00868
-0.01946,0.96573,0.25872,-0.01626,0.00595,-0.01192
-0.01942,0.96575,0.25867,-0.01764,0.00575,-0.01256
-0.01939,0.96572,0.25875,-0.01874,0.00654,-0.0126
-0.01941,0.9657,0.25886,-0.01802,0.00901,-0.01376
-0.0195,0.96569,0.25887,-0.0156,0.01013,-0.01176
-0.01955,0.96568,0.25889,-0.01785,0.01112,-0.01193
-0.01955,0.96567,0.25893,-0.01846,0.01135,-0.01558
-0.01958,0.96566,0.25898,-0.01763,0.00807,-0.01298
-0.01967,0.96563,0.25907,-0.01097,0.00673,-0.00972
-0.01977,0.96562,0.25909,-0.01356,0.00659,-0.00334
-0.01981,0.96563,0.25907,-0.02012,0.00948,0.00025
-0.01976,0.96563,0.25906,-0.02054,0.00974,-0.00498
-0.0197,0.96563,0.25908,-0.01795,0.00657,-0.00799
-0.01971,0.96561,0.25914,-0.01492,0.00395,-0.00654
-0.01975,0.9656,0.2592,-0.01594,0.00447,-0.00201
-0.01975,0.96558,0.25926,-0.01886,0.00914,0.00165
-0.01972,0.96557,0.2593,-0.01892,0.01286,-0.00454
-0.01969,0.96557,0.25931,-0.01814,0.01249,-0.0099
-0.01965,0.96558,0.25925,-0.01808,0.00958,-0.01015
-0.01967,0.96561,0.25915,-0.01789,0.00894,-0.00748
-0.01969,0.96566,0.25898,-0.0164,0.01243,-0.00391
-0.01963,0.9657,0.2588,-0.01314,0.0089,-0.00272
-0.01952,0.96574,0.25867,-0.01467,0.00865,-0.00644
-0.01939,0.96577,0.25856,-0.01522,0.00693,0.00027
-0.01922,0.9658,0.25848,-0.01714,0.00803,0.00266
-0.01902,0.96581,0.25845,-0.01633,0.00509,0.00196
-0.01885,0.96582,0.25841,-0.01692,0.00825,-0.00432
-0.01867,0.96584,0.25835,-0.01923,0.00809,-0.00643
-0.01856,0.96589,0.2582,-0.01915,0.00916,-0.00373
-0.01851,0.96594,0.25799,-0.01878,0.00511,0.0011
-0.01846,0.966,0.25777,-0.01633,0.00386,0.00109
-0.01839,0.96605,0.25762,-0.0144,-0.001,0.00311
-0.01828,0.96605,0.25759,-0.01435,0.00274,0.00474
-0.01813,0.96602,0.25773,-0.01437,0.00517,0.00954
-0.01792,0.96595,0.258,-0.01629,0.00683,0.00488
-0.0177,0.96589,0.25823,-0.01863,0.01001,-0.00254
-0.01753,0.96586,0.25837,-0.01833,0.0087,-0.00667
-0.01742,0.96588,0.25832,-0.01978,0.00902,-0.00527
-0.01738,0.96591,0.25818,-0.01906,0.00334,0.0035
-0.01736,0.96595,0.25804,-0.01581,-0.00143,0.00379
-0.01731,0.96598,0.25794,-0.01512,0.00341,0.00887
-0.01718,0.96596,0.25801,-0.01614,0.00152,0.01019
-0.01701,0.96589,0.25828,-0.01379,-0.00106,0.00901
-0.01678,0.96577,0.25876,-0.01301,-0.00517,0.01277
-0.01644,0.96558,0.25948,-0.01417,-0.00452,0.01455
-0.01603,0.96534,0.26042,-0.01618,-0.00353,0.01877
-0.01565,0.96504,0.26154,-0.01758,0.0008,0.01137
-0.01531,0.96473,0.26269,-0.0222,0.00834,0.00394
-0.01501,0.96442,0.26384,-0.02468,0.00525,-0.0073
-0.01482,0.96413,0.26491,-0.02166,0.00869,-0.0117
-0.01473,0.9639,0.26575,-0.01812,0.00737,-0.00972
-0.01469,0.96373,0.26639,-0.01673,0.00574,-0.00554
-0.01471,0.9636,0.26683,-0.01677,0.01014,-0.00447
-0.01468,0.96348,0.26729,-0.01738,0.0093,-0.00807
-0.01462,0.96332,0.26785,-0.01615,0.00987,-0.01068
-0.01462,0.96317,0.26841,-0.01562,0.01047,-0.01577
-0.01471,0.96304,0.26887,-0.00955,0.01363,-0.01783
-0.01478,0.96293,0.26924,-0.01093,0.01197,-0.0161
-0.01483,0.96286,0.26948,-0.01564,0.0123,-0.01144
-0.01485,0.96283,0.26959,-0.02508,0.01182,-0.01056
-0.01482,0.96284,0.26956,-0.02511,0.01064,-0.00966
-0.01485,0.96288,0.26941,-0.02401,0.00748,-0.00652
-0.01504,0.96295,0.26916,-0.01868,0.00331,-0.00149
-0.01535,0.96298,0.26904,-0.01261,-0.00097,-0.0012
-0.01564,0.9629,0.26931,-0.0124,0.00283,-0.00551
-0.01582,0.9627,0.27,-0.01182,0.00802,-0.01065
-0.01579,0.96242,0.27102,-0.00514,0.01503,-0.02348
-0.01558,0.96213,0.27207,-0.00429,0.01508,-0.03147
-0.01529,0.96193,0.27278,-0.01699,0.01783,-0.02603
-0.01507,0.96185,0.27305,-0.02251,0.01773,-0.02537
-0.01499,0.96191,0.27286,-0.02488,0.02011,-0.02015
-0.01508,0.96205,0.27237,-0.02072,0.01468,-0.02052
-0.0153,0.96216,0.27194,-0.01356,0.00793,-0.0217
-0.0156,0.96221,0.27177,-0.01156,0.00929,-0.01861
-0.0159,0.96221,0.27173,0.0011,0.0031,-0.01515
-0.01607,0.96221,0.27173,0.00076,0.01282,-0.01196
-0.01605,0.96224,0.27162,-0.00441,0.01346,-0.01257
-0.01591,0.96229,0.27146,-0.02291,0.01366,-0.01456
-0.01577,0.96235,0.27125,-0.02532,0.01963,-0.0141
-0.01581,0.96239,0.2711,-0.03166,0.01673,-0.02348
-0.01606,0.96246,0.27084,-0.02027,0.01102,-0.02418
-0.0165,0.96259,0.27037,-0.00721,0.01179,-0.01688
-0.01698,0.96278,0.26966,-0.0005,0.01221,-0.00597
-0.01732,0.96302,0.26879,-0.00459,0.01162,-0.00368
-0.01746,0.9632,0.26812,-0.00943,0.0032,-0.0057
-0.01747,0.96328,0.26782,-0.01102,0.00414,-0.00382
-0.01748,0.96332,0.2677,-0.01707,0.00851,-0.0103
-0.01758,0.96335,0.26758,-0.01783,0.01094,-0.00931
-0.0177,0.96343,0.26727,-0.01801,0.00921,-0.01026
-0.01777,0.96355,0.26682,-0.01888,0.01208,-0.00739
-0.01777,0.96369,0.26634,-0.01752,0.00805,-0.01106
-0.0177,0.96384,0.2658,-0.01782,0.00984,-0.00879
-0.01761,0.96402,0.26514,-0.01956,0.00822,-0.00206
-0.01759,0.96422,0.26441,-0.02242,0.0115,-0.00277
-0.0176,0.96441,0.26373,-0.0216,0.01035,-0.00694
-0.01762,0.96457,0.26315,-0.02178,0.0054,-0.0137
-0.01764,0.9647,0.26268,-0.01933,0.00616,-0.02049
-0.01774,0.96483,0.26219,-0.01438,0.01013,-0.0155
-0.01784,0.96502,0.26146,-0.00051,0.00898,-0.01002
-0.01771,0.96534,0.2603,0.00105,0.00816,-0.00046
-0.01733,0.96579,0.25864,-0.01279,0.01471,0.0101
-0.01699,0.96635,0.25657,-0.0226,0.01169,0.00768
-0.01694,0.96693,0.2544,-0.02695,-0.00229,0.00717
-0.01732,0.96737,0.25265,-0.02318,-0.00093,0.00786
-0.0181,0.96768,0.25142,-0.01228,-0.00024,0.00101
-0.0188,0.9679,0.25052,0.00141,-0.00666,0.00635
-0.01919,0.96801,0.25006,-0.00138,-0.0074,0.00778
-0.01924,0.968,0.25012,-0.00847,-0.00465,0.00805
-0.01905,0.96791,0.25048,-0.01719,-0.00561,0.00975
-0.01871,0.96777,0.25103,-0.02052,-0.00291,0.00603
-0.01821,0.96758,0.25179,-0.03093,0.01807,0.00726
-0.01774,0.96747,0.25226,-0.03071,0.0132,0.0027
-0.01746,0.96747,0.25226,-0.02573,0.00686,-0.00664
-0.01732,0.96761,0.25173,-0.01721,0.00684,0.01116
-0.01738,0.96785,0.25082,-0.01815,0.00868,0.01511
-0.01769,0.96805,0.25004,-0.01552,0.00743,0.01211
-0.01803,0.96812,0.24972,0.00776,-0.01059,0.00537
-0.01825,0.96806,0.24995,0.0078,-0.00895,0.00634
-0.01828,0.96788,0.25064,0.00238,-0.00371,0.00914
-0.01814,0.96766,0.25151,-0.01404,0.00944,-0.00537
-0.0178,0.96747,0.25225,-0.01638,0.01394,-0.01094
-0.01741,0.96732,0.25286,-0.02358,0.02027,-0.01155
-0.01704,0.96726,0.2531,-0.02759,0.01821,-0.00775
-0.01678,0.96734,0.25281,-0.02921,0.01537,-0.00126
-0.01672,0.96753,0.25209,-0.02584,0.00943,0.00341
-0.0169,0.9678,0.25105,-0.02086,0.00727,0.00902
-0.01718,0.96809,0.24993,-0.01305,0.00266,0.01005
-0.01737,0.96834,0.24893,-0.01072,0.00241,0.00626
-0.01741,0.96854,0.24814,-0.01473,-0.00051,0.00301
-0.01739,0.9687,0.2475,-0.01603,-0.00352,0.00159
-0.01734,0.9688,0.24713,-0.01381,-0.00502,0.00716
-0.01735,0.96878,0.24719,-0.01152,-0.00286,0.00548
-0.01735,0.96873,0.2474,-0.01157,0.00092,0.00231
-0.01747,0.96869,0.24757,-0.01389,0.00504,0.00028
-0.01775,0.96867,0.2476,-0.01478,0.01079,-0.00826
-0.01805,0.96863,0.24776,-0.00461,0.00519,-0.00084
-0.01816,0.96852,0.24815,0.01079,0.00517,0.00445
-0.01809,0.96841,0.24859,0.00158,0.00905,-0.00355
-0.01788,0.96833,0.24893,-0.01845,0.00974,-0.00743
-0.0178,0.96832,0.24897,-0.02691,0.01216,-0.0135
-0.01784,0.96834,0.24889,-0.02436,0.00847,-0.01199
-0.01797,0.96834,0.24887,-0.01225,0.00546,0.00015
-0.01805,0.96835,0.24884,-0.00364,0.00251,0.00576
-0.01801,0.96833,0.24892,-0.00488,-4e-05,0.00653
-0.01795,0.96825,0.24925,-0.00944,-0.0021,0.00536
-0.01794,0.96805,0.25,-0.00574,-0.00213,0.01219
-0.01799,0.96775,0.25117,0.00205,0.0055,0.01223
-0.018,0.96738,0.2526,0.00181,0.00455,0.00692
-0.01779,0.967,0.25406,-0.00377,0.00523,-0.00211
-0.01742,0.96664,0.25544,-0.01914,0.00571,-0.0108
-0.01713,0.96632,0.25667,-0.02881,-6e-05,-0.00948
-0.01708,0.96598,0.25794,-0.02536,0.00035,-0.01287
-0.01717,0.96558,0.25943,-0.01907,0.00784,-0.01488
-0.01728,0.96518,0.26092,-0.00495,0.02065,-0.02063
-0.01728,0.96485,0.26212,-0.00576,0.02436,-0.02238
-0.01715,0.96468,0.26277,-0.0237,0.01641,-0.02347
-0.01696,0.96459,0.26313,-0.02424,0.01506,-0.02425
-0.01692,0.96451,0.26341,-0.02014,0.01063,-0.02475
-0.01705,0.96443,0.26369,-0.00538,0.01622,-0.02611
-0.0173,0.96439,0.26381,0.00203,0.01583,-0.02431
-0.01749,0.96443,0.26367,0.00072,0.01816,-0.02001
-0.01757,0.96449,0.26345,-0.00437,0.01038,-0.01338
-0.01763,0.96453,0.26328,-0.00553,0.00425,-0.00869
-0.01767,0.9646,0.26302,-0.01102,0.00702,-0.00197
-0.01766,0.96466,0.26282,-0.02289,0.01284,0.00164
-0.0176,0.96474,0.26254,-0.03457,0.01706,-0.0045
-0.01764,0.96489,0.26196,-0.04135,0.01396,-0.00422
-0.01791,0.96513,0.26105,-0.03594,-0.00156,0.00087
-0.01845,0.96543,0.25992,-0.02779,-0.00506,0.00581
-0.01915,0.96571,0.2588,-0.02112,-0.00046,0.01171
-0.01981,0.96591,0.258,-0.00991,0.00244,0.00865
-0.0203,0.96603,0.25751,-0.00147,0.00681,0.00042
-0.02057,0.96602,0.25754,-0.00082,0.00645,-0.00781
-0.02072,0.96592,0.25791,-0.00087,0.00642,-0.01431
-0.02077,0.96579,0.25839,0.00132,0.00969,-0.01435
-0.02073,0.96566,0.25887,-0.00287,0.01667,-0.02228
-0.02064,0.96557,0.25924,-0.01003,0.02015,-0.03127
-0.02062,0.96554,0.25933,-0.01231,0.01934,-0.03208
-0.0207,0.9656,0.25911,-0.01428,0.01696,-0.02995
-0.02088,0.96576,0.2585,-0.01086,0.00815,-0.01442
-0.02115,0.96598,0.25764,-0.01065,0.01026,-0.01344
-0.02141,0.96621,0.25678,-0.01202,0.01025,-0.01317
-0.0217,0.96639,0.25607,-0.01312,0.00825,-0.01485
-0.02198,0.9665,0.2556,-0.00833,-0.00222,-0.00402
-0.02214,0.96654,0.25545,-0.0061,-0.00463,0.00334
-0.02217,0.96653,0.2555,-0.01004,0.00192,0.0019
-0.02201,0.96645,0.25579,-0.01677,0.00434,-0.00521
-0.02176,0.96636,0.25618,-0.01791,0.00895,-0.00487
-0.02159,0.96624,0.25664,-0.01942,0.012,-0.00265
-0.02138,0.96609,0.25723,-0.01881,0.00985,0.00652
-0.02114,0.9659,0.25796,-0.01884,0.00496,0.01132
-0.02087,0.96572,0.25863,-0.01709,0.00142,0.01158
-0.02055,0.96566,0.25889,-0.01212,0.00109,0.00693
-0.02015,0.96571,0.25872,-0.01768,0.01178,0.01148
-0.01998,0.96591,0.25801,-0.01908,0.0114,0.01107
-0.02022,0.96618,0.25697,-0.0141,0.00156,0.00869
-0.02082,0.96644,0.25597,-0.00553,-0.00657,0.00636
-0.02175,0.96658,0.25534,0.01221,-0.01233,0.00848
-0.02252,0.96652,0.2555,0.01853,-0.00695,0.01125
-0.0228,0.96623,0.25656,0.01534,-0.00072,0.00829
-0.0227,0.96585,0.25803,-0.00553,0.01163,-0.01284
-0.02231,0.96545,0.25953,-0.00829,0.01723,-0.01715
-0.02176,0.96514,0.26074,-0.01194,0.01286,-0.01951
-0.02098,0.96498,0.26138,-0.02868,0.01979,0.01113
-0.02019,0.96504,0.26125,-0.03643,0.02218,0.02098
-0.01982,0.96527,0.2604,-0.0419,0.00316,0.02478
-0.02003,0.96552,0.25948,-0.02644,-0.00397,0.02303
-0.02083,0.96559,0.25914,-0.01779,0.00443,0.02292
-0.0218,0.9654,0.25978,0.01179,-0.01029,0.00641
-0.0223,0.96501,0.26118,0.0161,-0.0046,-0.00644
-0.02227,0.96444,0.26326,0.0023,-0.00236,-0.00761
-0.02171,0.96383,0.26553,-0.01086,-0.01109,-0.00418
-0.02074,0.96333,0.26743,-0.0332,0.01754,0.00128
-0.01967,0.96309,0.26837,-0.04369,0.03082,-0.0036
-0.01908,0.96308,0.26844,-0.05128,0.03941,-0.01348
-0.01919,0.96325,0.26781,-0.02846,0.02907,-0.02109
-0.02004,0.96346,0.267,-0.01005,0.02203,-0.01965
-0.02121,0.96357,0.26653,0.00305,0.01791,-0.01122
-0.02205,0.96357,0.26647,0.01755,-0.00046,-0.00615
-0.02213,0.96351,0.26666,0.00574,0.00503,-0.01425
-0.02162,0.96347,0.26683,-0.00266,0.00686,-0.01895
-0.02072,0.96357,0.26655,-0.03499,0.00782,-0.00335
-0.02002,0.96384,0.26565,-0.05603,0.00796,0.00158
-0.01977,0.96412,0.26465,-0.05416,0.00489,0.0049
-0.0201,0.96429,0.26401,-0.02522,0.0095,0.00577
-0.02069,0.96432,0.26384,0.0054,0.01548,-0.00948
-0.02125,0.96423,0.26413,0.01275,0.00876,-0.00889
-0.02142,0.96407,0.26468,0.01108,0.00857,-0.01091
-0.02108,0.96396,0.26512,0.00136,0.00941,-0.01576
-0.02043,0.96399,0.26507,-0.01558,-0.00018,-0.02241
-0.0196,0.96422,0.26428,-0.03667,0.01402,0.00122
-0.01919,0.96459,0.26295,-0.0526,0.01546,0.0121
-0.01933,0.96495,0.26163,-0.03974,0.01227,0.01376
-0.01986,0.9652,0.26068,-0.00993,0.00143,-0.00122
-0.02055,0.96535,0.26006,0.01153,0.00656,-0.00926
-0.02101,0.96541,0.2598,0.01671,0.00455,-0.00585
-0.02101,0.9654,0.25982,0.00725,0.00555,-0.00746
-0.02067,0.96536,0.25999,0.00147,0.00072,-0.00809
-0.02008,0.96535,0.26007,-0.01129,0.00309,-0.00476
-0.01932,0.96544,0.25981,-0.02708,0.00871,0.00029
-0.01885,0.96561,0.25922,-0.04394,0.01617,-0.00108
-0.01882,0.96581,0.25848,-0.02875,0.00129,0.001
-0.0192,0.96598,0.25781,-0.0039,0.00451,0.0093
-0.01968,0.96601,0.25765,0.01936,-0.00897,0.01386
-0.01976,0.96586,0.25821,0.0206,-0.00857,0.01219
-0.01948,0.96557,0.25933,-0.00818,0.00815,0.00701
-0.01893,0.9652,0.26074,-0.01505,0.00712,0.00313
-0.01826,0.96482,0.26219,-0.01705,0.00379,0.00339
-0.01749,0.96455,0.26323,-0.01832,0.00125,0.01042
-0.01673,0.96443,0.26372,-0.02618,0.01111,0.01918
-0.01642,0.96444,0.26372,-0.04054,0.01313,-0.00232
-0.01664,0.96447,0.26357,-0.0232,0.00823,-0.00225
-0.01728,0.96442,0.26372,-0.01156,0.00538,-0.00403
-0.018,0.96422,0.2644,0.01226,-0.00115,0.00152
-0.01836,0.96396,0.26532,0.01313,-0.00249,-0.00142
-0.01825,0.96367,0.26639,0.00534,0.00442,-0.00395
-0.01779,0.96336,0.26752,-0.01911,0.00862,-0.01822
-0.01715,0.96313,0.2684,-0.02451,0.00714,-0.01791
-0.01661,0.96312,0.26848,-0.03436,0.0211,-0.00988
-0.01657,0.96328,0.26792,-0.03027,0.01431,-0.00732
-0.01698,0.96345,0.26728,-0.01985,0.00657,-0.00317
-0.01771,0.96356,0.26682,-0.00606,0.01837,-0.00244
-0.0186,0.96358,0.2667,0.00981,0.00819,-0.0137
-0.01918,0.9635,0.26693,0.01668,0.0059,-0.01851
-0.01931,0.96339,0.26735,0.00685,0.00752,-0.02066
-0.01904,0.9633,0.26769,-0.0112,-0.00288,-0.02332
-0.0185,0.96327,0.26782,-0.03541,0.02068,-0.01932
-0.01813,0.96335,0.26756,-0.04063,0.02461,-0.02112
-0.01815,0.96349,0.26706,-0.04199,0.01982,-0.02066
-0.01857,0.9636,0.26661,-0.01955,0.00934,-0.01194
-0.01922,0.96369,0.26625,0.00947,0.01168,-0.00932
-0.01982,0.96373,0.26605,0.01272,0.0169,-0.01013
-0.02006,0.96374,0.26603,0.01269,0.0124,-0.01265
-0.01988,0.96371,0.26614,-0.0113,-0.00016,-0.01931
-0.01946,0.96363,0.26646,-0.01783,-0.00191,-0.01978
-0.01906,0.96356,0.26674,-0.02269,0.00119,-0.01461
-0.01886,0.96352,0.2669,-0.0236,0.01327,-0.01147
-0.01888,0.9635,0.26695,-0.02117,0.01771,-0.01064
-0.01901,0.96351,0.26691,-0.01361,0.01365,-0.01035
-0.01915,0.9635,0.26695,0.00403,0.00276,-0.00384
-0.01921,0.96345,0.26711,0.0041,0.00228,-0.00249
-0.01918,0.96338,0.26738,0.00035,0.0065,-0.0014
-0.01904,0.96328,0.26773,-0.01102,0.01151,-0.00711
-0.01885,0.96317,0.26814,-0.01707,0.01096,-0.01002
-0.01871,0.96309,0.26845,-0.01806,0.01098,-0.0094
-0.01863,0.96304,0.26864,-0.01973,0.00647,-0.00436
-0.01861,0.96304,0.26865,-0.01659,0.00648,-0.00415
-0.01861,0.96309,0.26844,-0.00507,0.01663,-0.00817
-0.01848,0.96316,0.26822,0.00057,0.01085,-0.0139
-0.01827,0.96327,0.26785,0.00206,0.00944,-0.0117
-0.01811,0.96345,0.26719,-0.00512,0.00528,-0.00021
-0.01802,0.96364,0.26651,-0.01738,-0.00356,0.01202
-0.01791,0.96375,0.26611,-0.01939,0.00124,0.00931
-0.01778,0.9638,0.26594,-0.02139,-0.00171,-0.00705
-0.01769,0.96385,0.26578,-0.02055,-0.00174,-0.00521
-0.01769,0.96393,0.2655,-0.02098,-0.0056,0.01088
-0.01773,0.96397,0.26533,-0.02039,0.0014,0.01673
-0.01773,0.96393,0.26549,-0.01283,0.00259,0.00533
-0.01767,0.96381,0.26594,-0.00528,0.01034,-0.00286
-0.01753,0.96365,0.2665,-0.00507,0.01024,-0.0044
-0.01737,0.96351,0.26702,-0.00913,0.00856,-0.00489
-0.01716,0.96342,0.26735,-0.00934,0.00865,-0.00522
-0.01696,0.96338,0.26751,-0.01884,0.01589,-0.01193
-0.01682,0.9634,0.26744,-0.01826,0.01073,-0.00731
-0.01677,0.96346,0.26726,-0.01842,0.00711,0.00076
-0.01677,0.9635,0.2671,-0.01493,0.00369,-0.00068
-0.01672,0.96352,0.26702,-0.01226,0.00503,0.0021
-0.01662,0.96354,0.26697,-0.01494,0.00733,0.00293
-0.01649,0.96355,0.26695,-0.01773,0.00627,-8e-05
-0.01637,0.96355,0.26696,-0.01591,0.00624,0.00089
-0.01625,0.96353,0.26704,-0.01595,0.00539,0.00252
-0.01618,0.96348,0.2672,-0.01844,0.00412,0.00493
-0.01611,0.96342,0.26742,-0.0202,0.00571,0.00017
-0.01603,0.96335,0.26771,-0.0207,0.00722,-0.0046
-0.01594,0.96328,0.26795,-0.00945,0.01048,-0.00689
-0.01583,0.96323,0.26812,-0.01152,0.01038,-0.00718
-0.01576,0.9632,0.26823,-0.01208,0.00966,-0.0048
-0.01567,0.96319,0.26829,-0.01297,0.0081,-0.00711
-0.01558,0.96318,0.26834,-0.01016,0.00725,-0.00382
-0.01543,0.96319,0.26829,-0.01019,0.00884,0.00017
-0.01528,0.96323,0.26815,-0.01321,0.00913,-0.0006
-0.01519,0.96329,0.26795,-0.01351,0.005,0.00436
-0.01518,0.96334,0.26777,-0.0125,0.00369,0.00895
-0.01515,0.96336,0.2677,-0.01296,0.00191,0.00943
-0.01506,0.96334,0.26778,-0.01365,0.00387,0.00013
-0.01499,0.96332,0.26786,-0.01319,0.01094,-0.00405
-0.01493,0.96334,0.26781,-0.01232,0.00554,-0.00564
-0.01487,0.96336,0.26772,-0.01357,0.00478,0.00023
-0.0148,0.9634,0.26758,-0.01338,0.01121,0.0034
-0.01476,0.96344,0.26744,-0.0132,0.00916,0.00064
-0.01477,0.9635,0.26723,-0.00928,0.00773,-0.00335
-0.01479,0.96356,0.26701,-0.00804,0.00437,-0.00076
-0.01478,0.9636,0.26684,-0.00936,0.00205,0.00369
-0.01472,0.96362,0.26678,-0.01511,0.00632,0.00243
-0.01469,0.96363,0.26676,-0.01862,0.0068,-0.00217
-0.01467,0.96364,0.26672,-0.01265,0.00577,-0.0052
-0.01463,0.96365,0.26668,-0.01036,0.00789,-0.00295
-0.01457,0.96366,0.26665,-0.0109,0.00358,-0.00536
-0.01453,0.96368,0.26657,-0.01299,0.01303,-0.00272
-0.0145,0.96369,0.26654,-0.01511,0.00983,-0.00474
-0.01452,0.96369,0.26654,-0.01088,0.00535,-0.0038
-0.01453,0.96369,0.26653,-0.01182,0.00651,-0.00386
-0.01446,0.96373,0.26642,-0.01383,0.00865,-0.0047
-0.0143,0.96383,0.26606,-0.01817,0.00855,-0.00495
-0.01414,0.96401,0.26542,-0.02124,0.00345,0.00315
-0.0141,0.9642,0.2647,-0.01973,0.00059,0.00863
-0.01408,0.96436,0.26413,-0.00838,0.00424,0.02053
-0.01407,0.9645,0.26361,-0.00839,0.00358,0.01442
-0.01405,0.96464,0.2631,-0.01351,0.00286,0.00417
-0.01407,0.96475,0.26272,-0.01886,-0.00041,-0.00182
-0.01417,0.96478,0.26259,-0.0094,0.00057,0.00393
-0.01425,0.96474,0.26275,-0.00771,0.00012,0.00393
-0.01418,0.96467,0.26298,-0.01047,0.00295,-0.00118
-0.01409,0.96463,0.26314,-0.01587,0.00777,-0.01496
-0.01402,0.96461,0.26323,-0.01419,0.00692,-0.00945
-0.01398,0.96456,0.26343,-0.0146,0.00595,-0.00317
-0.01391,0.96444,0.26384,-0.00814,0.00152,0.00903
-0.01374,0.96428,0.26444,-0.0068,0.00222,0.01181
-0.01342,0.96411,0.26506,-0.00666,0.01081,0.01301
-0.01302,0.96401,0.26546,-0.02066,0.01051,-0.00043
-0.01258,0.96404,0.26539,-0.02612,0.00801,-0.00249
-0.01228,0.9642,0.2648,-0.0284,0.00479,0.01515
-0.01231,0.96445,0.2639,-0.02663,-0.00082,0.02011
-0.01258,0.96467,0.26306,-0.01956,0.00072,0.01657
-0.01303,0.96481,0.26254,-0.00785,0.00266,0.00565
-0.01357,0.96488,0.26227,0.0038,0.00081,-0.00374
-0.01399,0.96485,0.26236,0.00935,-0.00801,-0.0006
-0.01409,0.96468,0.26298,0.00322,-0.00897,0.00544
-0.01399,0.96439,0.26403,-0.0108,6e-05,0.0014
-0.01375,0.96403,0.26535,-0.01294,0.00788,-0.00658
-0.01342,0.9637,0.26656,-0.01673,0.01643,-0.01335
-0.01313,0.96349,0.26734,-0.02424,0.02043,-0.01331
-0.01294,0.9634,0.26769,-0.02471,0.01242,-0.00569
-0.01306,0.96344,0.26754,-0.01833,0.01023,-0.00159
-0.01338,0.96353,0.26718,-0.01024,0.01202,0.00173
-0.01371,0.96361,0.26689,-0.00446,0.01304,8e-05
-0.01397,0.96364,0.26676,-0.00121,0.0103,-0.0071
-0.01414,0.96367,0.26664,-0.00291,0.00822,-0.01672
-0.01428,0.96373,0.26641,-0.00446,0.00131,-0.01998
-0.01437,0.96385,0.266,-0.00867,0.00509,-0.00986
-0.01445,0.96399,0.26547,-0.01372,0.00751,-0.00239
-0.01453,0.96413,0.26497,-0.01602,0.0098,-0.00279
-0.01464,0.96424,0.26456,-0.01741,0.01294,-0.01063
-0.01481,0.96432,0.26426,-0.01378,0.01073,-0.01314
-0.01508,0.96438,0.264,-0.00839,0.01123,-0.01481
-0.01534,0.96446,0.26372,-0.00279,0.00751,-0.01322
-0.01546,0.96454,0.26342,-0.00889,0.01281,-0.01178
-0.01543,0.96461,0.26314,-0.01157,0.01463,-0.01446
-0.0154,0.96472,0.26273,-0.01751,0.01678,-0.02149
-0.01546,0.9649,0.2621,-0.01982,0.01179,-0.02353
-0.01563,0.96509,0.26137,-0.01448,0.01018,-0.01836
-0.01593,0.96531,0.26052,-0.00762,0.00643,-0.0122
-0.01624,0.96556,0.2596,-0.0049,0.00837,-0.00821
-0.01645,0.96576,0.25883,-0.00169,0.00493,-0.00651
-0.01656,0.96591,0.25827,-0.00243,0.00612,-0.00491
-0.01659,0.96601,0.2579,-0.0034,0.00599,-0.00494
-0.01654,0.96606,0.25771,-0.00644,0.00461,-0.00561
-0.01641,0.96609,0.2576,-0.00848,0.00432,-0.00242
-0.01621,0.96613,0.25748,-0.01748,0.01153,-0.0024
-0.01608,0.96617,0.25733,-0.01874,0.00638,-0.00069
-0.01605,0.96621,0.25716,-0.01294,0.00473,0.00211
-0.01609,0.96626,0.25697,-0.01179,0.00012,0.00967
-0.01609,0.96629,0.25686,-0.01237,-0.00125,0.01243
-0.01601,0.96629,0.25687,-0.00895,0.00409,0.01177
-0.01587,0.96625,0.25704,-0.00808,-0.00272,0.01147
-0.01573,0.96614,0.25746,-0.0077,-0.00282,0.01344
-0.01557,0.96595,0.25817,-0.01078,0.00283,0.01925
-0.01535,0.96574,0.25899,-0.01039,0.00793,0.00839
-0.0151,0.96554,0.25974,-0.01516,0.01327,-0.00549
-0.01492,0.96541,0.26022,-0.0162,0.00788,-0.00554
-0.01488,0.96535,0.26047,-0.01495,0.00453,0.00946
-0.01488,0.9653,0.26065,-0.01136,0.00116,0.021
-0.01487,0.96522,0.26093,-0.01192,0.00295,0.01767
-0.01483,0.96517,0.26113,-0.01463,0.00598,0.00885
-0.01479,0.96511,0.26134,-0.01129,0.00062,0.00929
-0.01475,0.96504,0.26161,-0.00895,-0.00105,0.01005
-0.01469,0.96493,0.26202,-0.0069,-0.00434,0.02254
-0.01454,0.96478,0.26256,-0.01003,0.00221,0.01835
-0.01433,0.96463,0.26316,-0.01488,0.00496,0.00821
-0.01413,0.96447,0.26372,-0.02191,0.00583,0.00642
-0.01405,0.96432,0.2643,-0.0201,-0.00153,0.01071
-0.01405,0.96413,0.26497,-0.01196,-0.0078,0.02086
-0.01407,0.96391,0.26577,-0.00757,-0.00351,0.02401
-0.01403,0.96363,0.26678,-0.01336,0.0036,0.00815
-0.0139,0.96334,0.26784,-0.01383,0.00802,0.00066
-0.01376,0.96309,0.26874,-0.01613,0.01207,-0.00773
-0.01367,0.96288,0.26949,-0.01674,0.00931,-0.00402
-0.01374,0.96275,0.26997,-0.01807,0.00843,-0.00157
-0.01391,0.96267,0.27026,-0.01751,0.00946,-0.00221
-0.01408,0.96262,0.27041,-0.01342,0.01719,-0.00806
-0.01425,0.96265,0.2703,-0.01335,0.02757,-0.02329
-0.0145,0.96275,0.26993,-0.01263,0.01239,-0.02457
-0.01487,0.96292,0.26929,-0.00631,0.00316,-0.01921
-0.01543,0.96317,0.26837,6e-05,0.00437,-0.0052
-0.01594,0.96342,0.26743,-0.00184,0.00449,0.0048
-0.01617,0.96359,0.26684,0.00169,0.00452,0.00252
-0.01616,0.96364,0.26665,0.00108,0.00752,-0.00527
-0.01606,0.96362,0.26672,-0.00644,0.00242,-0.0106
-0.01603,0.96359,0.26684,-0.00766,0.00286,-0.0088
-0.01607,0.96355,0.26698,-0.01128,0.00628,-0.00776
-0.01611,0.96353,0.26705,-0.00939,0.01447,-0.00826
-0.01617,0.96352,0.26707,-0.01177,0.01493,-0.01256
-0.01624,0.96352,0.26705,-0.00902,0.01049,-0.013
-0.01643,0.96354,0.267,0.00113,0.00654,-0.00197
-0.01662,0.96353,0.267,0.0038,0.0063,0.00184
-0.01672,0.96353,0.26701,0.00221,0.00751,0.00325
-0.01674,0.96353,0.267,-0.01434,0.00919,-0.00761
-0.01673,0.96354,0.26698,-0.01629,0.00962,-0.0079
-0.01682,0.96357,0.26683,-0.01469,0.00699,-0.00426
-0.01696,0.96363,0.26663,-0.00318,0.0006,0.0045
-0.01709,0.9637,0.26635,-0.00534,0.00137,0.00925
-0.01721,0.96377,0.26611,-0.01687,0.00231,0.00755
-0.01737,0.96379,0.26601,-0.01605,0.00366,0.00111
-0.01765,0.96377,0.26606,-0.00292,-0.00387,0.00017
-0.01806,0.96367,0.26641,0.00183,-0.00217,-0.00052
-0.01842,0.96348,0.26707,0.00809,0.00341,-0.00074
-0.01858,0.96324,0.26793,0.00023,0.00673,-0.00834
-0.01863,0.96299,0.26883,-0.01023,0.01489,-0.0224
-0.01862,0.96276,0.26964,-0.01219,0.0207,-0.02846
-0.01859,0.9626,0.27021,-0.01162,0.01768,-0.02099
-0.01866,0.96254,0.27043,-0.00956,0.0153,-0.0088
-0.0187,0.96258,0.27028,-0.01202,0.01264,-0.00041
-0.01869,0.96268,0.26993,-0.01007,0.01355,0.00141
-0.01854,0.96284,0.26937,-0.01417,0.01432,0.00202
-0.01841,0.96309,0.26849,-0.01589,0.00994,0.00184
-0.01846,0.96341,0.26732,-0.01072,-0.00018,0.00602
-0.01863,0.96381,0.26587,-0.01063,-0.00112,0.01538
-0.01889,0.96421,0.26441,-0.01035,-0.0045,0.02841
-0.01902,0.96454,0.26317,-0.0114,-0.00551,0.02867
-0.01911,0.96478,0.26228,-0.01304,-0.00822,0.02315
-0.0193,0.96491,0.26179,-0.01322,-0.01441,0.02048
-0.01965,0.96493,0.26169,-0.0103,-0.01182,0.02013
-0.02,0.96483,0.26206,-0.00151,-0.00543,0.01591
-0.02018,0.9646,0.26288,-0.00438,0.00377,0.00206
-0.02023,0.96429,0.264,-0.00786,0.00502,-0.01843
-0.02027,0.96398,0.26514,-0.00598,0.01001,-0.02374
-0.0203,0.96371,0.26611,-0.0039,0.01084,-0.02278
-0.02032,0.96349,0.2669,-0.00533,0.02105,-0.0162
-0.02025,0.96333,0.26748,-0.00685,0.02149,-0.01545
-0.02011,0.96323,0.26787,-0.00966,0.01845,-0.01383
-0.02001,0.96322,0.26791,-0.00834,0.01621,-0.01152
-0.01999,0.9633,0.26761,-0.00479,0.00563,0.00032
-0.01993,0.96346,0.26705,-0.0053,0.00651,0.00915
-0.0198,0.96367,0.2663,-0.01269,5e-05,0.0182
-0.01978,0.96393,0.26534,-0.01806,0.00404,0.01656
-0.02006,0.96419,0.26437,-0.0149,-0.00826,0.0251
-0.02063,0.96442,0.26351,-0.00773,-0.01431,0.02738
-0.02128,0.96454,0.26301,0.0084,-0.01621,0.03285
-0.02177,0.96451,0.26308,0.0073,0.00151,0.03044
-0.02191,0.96434,0.26371,0.01079,0.00403,0.02237
-0.02181,0.96406,0.26472,0.00034,-0.00392,0.00536
-0.02151,0.96375,0.26588,-0.01358,0.00857,0.0029
-0.02129,0.96349,0.26685,-0.01771,0.00958,-0.00139
-0.02118,0.9633,0.26754,-0.02037,0.01963,-0.00153
-0.02126,0.96326,0.26768,-0.02776,0.02397,0.00331
-0.02147,0.96337,0.26726,-0.03118,0.01768,0.00312
-0.02177,0.96352,0.26669,-0.03023,0.00685,0.00445
-0.02213,0.96366,0.26615,-0.02404,-0.0006,-0.00337
-0.0225,0.96376,0.26575,-0.01494,0.00279,-0.00477
-0.02278,0.96381,0.26555,-0.00642,-0.00091,-0.00227
-0.02286,0.9638,0.26557,0.01066,-0.00447,0.00521
-0.02261,0.9637,0.26599,0.00362,-0.00248,0.00057
-0.02216,0.9635,0.26674,2e-05,6e-05,-0.01043
-0.0217,0.9632,0.26787,0.01741,0.0114,-0.04671
-0.02135,0.96287,0.26906,0.02842,0.02289,-0.05454
-0.02123,0.96271,0.26965,0.06268,0.02847,-0.03737
-0.0213,0.96276,0.26947,0.04868,0.02545,-0.00148
-0.02127,0.96296,0.26875,0.00809,-0.00129,0.02383
-0.02107,0.9632,0.26791,-0.02126,-0.00253,0.02832
-0.02087,0.96334,0.26742,-0.03107,0.00448,0.00797
-0.0207,0.96337,0.26732,-0.032,-0.00272,0.00274
-0.02081,0.96333,0.26745,-0.03084,-0.01306,0.00558
-0.02099,0.96329,0.26758,-0.03733,-0.00407,0.02508
-0.02099,0.96327,0.26766,-0.03988,0.01055,0.043
-0.02079,0.96331,0.26753,-0.03311,0.01182,0.03003
-0.02051,0.96344,0.26708,-0.02859,0.01776,0.01659
-0.02062,0.9637,0.26614,-0.01579,0.0044,0.00561
-0.02113,0.96399,0.26503,0.00975,-0.01816,0.01256
-0.02175,0.96412,0.2645,0.03042,-0.01571,0.01606
-0.02212,0.96401,0.26489,0.03361,-0.00751,0.00319
-0.02215,0.96371,0.26597,0.02797,-0.00361,-0.02047
-0.02187,0.9633,0.26746,0.02433,-0.00301,-0.03934
-0.02163,0.9629,0.26892,0.02889,0.01361,-0.04342
-0.02154,0.96255,0.27019,0.03767,0.02427,-0.04398
-0.02176,0.96236,0.27084,0.02939,0.074,-0.02047
-0.02238,0.96267,0.26968,-0.00755,0.04666,0.02876
-0.02333,0.96334,0.26719,-0.02051,-0.01069,0.03745
-0.02406,0.96384,0.26533,-0.02684,-0.02366,0.03424
-0.02467,0.96422,0.26391,-0.01817,-0.03552,0.01074
-0.0255,0.96439,0.26318,-0.01226,-0.01993,0.02027
-0.02641,0.96447,0.26282,-0.01009,-0.00919,0.03033
-0.02656,0.96441,0.263,-0.01293,-0.01284,0.02833
-0.02564,0.9642,0.26388,-0.0582,0.00824,0.04113
-0.0242,0.96387,0.26522,-0.08155,0.01048,0.0129
-0.02291,0.96339,0.26706,-0.08685,0.01761,-0.00154
-0.02237,0.96311,0.26811,-0.08019,0.03275,-0.01075
-0.02292,0.96319,0.26778,-0.04211,0.0158,0.0095
-0.02414,0.96355,0.26639,-0.02776,0.01006,0.01532
-0.02538,0.9641,0.26427,-0.01054,0.00297,0.02734
-0.02614,0.96461,0.26231,0.03087,-0.00287,-0.00998
-0.02552,0.96487,0.26144,0.05802,0.01949,-0.04321
-0.02313,0.96435,0.26355,0.02862,0.00498,-0.0082
-0.02052,0.96352,0.26679,0.03214,-0.02657,0.04766
-0.01888,0.96339,0.26737,0.02727,-0.01895,0.0555
-0.01897,0.96393,0.26543,-0.02295,0.00145,0.01163
-0.01953,0.96431,0.26401,-0.04593,0.01569,-0.00142
-0.02008,0.96471,0.26248,-0.01026,0.02772,0.01546
-0.02126,0.96508,0.26101,0.00226,0.00312,0.00298
-0.02228,0.9653,0.26013,0.00898,-0.0022,-0.0412
-0.02311,0.96527,0.26018,0.01951,0.01058,-0.06694
-0.02309,0.96516,0.26059,0.02633,0.01527,-0.02339
-0.02325,0.96524,0.26027,0.01745,0.01405,-0.01692
-0.02341,0.96529,0.26009,-0.00078,0.0092,-0.0159
-0.02335,0.96527,0.26016,0.00209,0.00984,-0.00945
-0.02331,0.9652,0.26042,0.00682,0.00493,-0.01196
-0.02334,0.96516,0.26056,0.00694,0.0077,-0.01088
-0.02336,0.96518,0.26047,-0.00788,0.00802,-0.0064
-0.02336,0.96521,0.26037,-0.01376,0.00456,-0.00112
-0.02325,0.96518,0.26051,-0.01371,0.00342,0.00434
-0.02311,0.96509,0.26082,-0.00692,0.00073,0.00685
-0.02298,0.96501,0.26114,0.0001,0.00299,0.00728
-0.02294,0.96495,0.26138,-0.0018,0.00434,0.00049
-0.0229,0.96488,0.26165,-0.00823,0.0036,-0.00289
-0.02289,0.96477,0.26205,-0.00938,0.00658,-0.00019
-0.0229,0.96463,0.26255,-0.00524,0.00198,0.0012
-0.02296,0.96449,0.26308,0.00131,0.00225,-0.00068
-0.02302,0.96432,0.26368,0.00227,0.003,-0.00261
-0.02302,0.96415,0.26428,-0.00072,0.00939,-0.00371
-0.02297,0.96399,0.26489,-0.00613,0.01004,-0.00313
-0.02293,0.96384,0.26544,-0.00475,0.0057,-0.00278
-0.02289,0.96372,0.26589,-0.00282,0.0039,0.00271
-0.02287,0.9636,0.2663,-0.00314,0.00896,0.0045
-0.02283,0.9635,0.26669,-0.0063,0.012,0.00606
-0.02276,0.96339,0.26707,-0.00924,0.00687,0.00205
-0.0227,0.96331,0.26738,-0.01058,0.0054,0.0036
-0.02268,0.96326,0.26757,-0.00877,0.00377,0.006
-0.02272,0.96324,0.26762,-0.01209,0.00548,0.00898
-0.02269,0.96323,0.26766,-0.01419,0.0064,0.00663
-0.0226,0.96319,0.26782,-0.01567,0.00319,0.00766
-0.02249,0.96312,0.26808,-0.01504,0.00085,0.0069
-0.02246,0.96307,0.26827,-0.0131,0.00095,0.0048
-0.02249,0.96304,0.26838,-0.01245,0.00243,0.01026
-0.02248,0.96302,0.26843,-0.01338,0.0105,0.00571
-0.02241,0.96302,0.26845,-0.01356,0.01336,0.0024
-0.02227,0.96301,0.26849,-0.01485,0.01128,-0.00609
-0.02226,0.96305,0.26835,-0.01062,0.00639,-0.00728
-0.02235,0.96316,0.26796,-0.0078,0.00787,-0.00339
-0.02245,0.96331,0.26739,-0.00715,0.00853,0.00249
-0.02247,0.96347,0.26684,-0.00937,0.01099,0.0021
-0.02244,0.96361,0.26632,-0.00906,0.01387,-0.00106
-0.02242,0.96377,0.26573,-0.00477,0.00986,-0.00371
-0.02244,0.96398,0.26499,-0.00315,0.00613,-0.0035
-0.02248,0.96421,0.26412,-0.0037,0.00246,0.00311
-0.02251,0.96445,0.26324,-0.01034,0.00497,0.00907
-0.02246,0.96467,0.26244,-0.01077,0.00141,0.00887
-0.02238,0.96486,0.26175,-0.00652,0.0048,0.01076
-0.0223,0.96505,0.26106,-0.00369,0.00901,0.00815
-0.02227,0.96526,0.26028,-0.0091,0.00375,0.0061
-0.02232,0.96552,0.25931,-0.00995,0.00254,0.00532
-0.02242,0.96578,0.25834,-0.01164,7e-05,0.01453
-0.02244,0.96599,0.25756,-0.00775,-0.00261,0.01959
-0.02235,0.96616,0.25692,-0.00519,-0.00458,0.0225
-0.02219,0.9663,0.25643,-0.00831,0.00024,0.0191
-0.022,0.96639,0.25609,-0.01238,0.00276,0.01785
-0.02181,0.96646,0.25584,-0.011,0.00217,0.01221
-0.02164,0.96652,0.25564,-0.00878,-0.00036,0.01265
-0.02151,0.96657,0.25545,-0.00817,-0.00542,0.01703
-0.02139,0.96659,0.2554,-0.00712,-0.00135,0.02358
-0.02125,0.96657,0.25548,-0.00667,0.00027,0.02567
-0.02104,0.96656,0.25554,-0.00833,0.00241,0.01573
-0.02082,0.96655,0.25556,-0.01291,0.00514,0.0116
-0.02065,0.96656,0.25556,-0.01049,0.00239,0.00698
-0.02056,0.96658,0.2555,-0.00588,0.00413,0.00597
-0.02045,0.96661,0.25539,-0.00326,0.00377,0.00757
-0.02031,0.96666,0.25519,-0.00744,0.00723,0.00762
-0.02019,0.96673,0.25494,-0.01053,0.00551,0.00576
-0.0201,0.96679,0.25472,-0.00852,0.00298,0.00631
-0.02004,0.96685,0.25451,-0.00449,0.0044,0.00451
-0.01997,0.9669,0.25432,-0.00289,0.00778,0.00398
-0.01984,0.96697,0.25408,-0.00603,0.00792,0.00125
-0.01968,0.96705,0.2538,-0.00708,0.00688,0.00421
-0.0195,0.96713,0.25349,-0.01143,0.00478,0.00745
-0.01937,0.96722,0.25316,-0.01433,0.00898,0.00846
-0.01929,0.96732,0.25278,-0.00964,0.00473,0.0049
-0.01924,0.96745,0.25226,-0.00536,0.00059,0.00489
-0.01917,0.96759,0.25174,-0.00709,0.00285,0.00581
-0.01912,0.96769,0.25138,-0.00511,0.00267,0.01047
-0.01912,0.96772,0.25126,0.00189,0.00181,0.01505
-0.01906,0.96772,0.25128,0.00389,-0.00186,0.01108
-0.01892,0.96769,0.2514,-0.00416,-0.0031,0.01525
-0.01877,0.96761,0.2517,-0.00584,-0.00368,0.01619
-0.01861,0.96746,0.25228,-0.00144,-0.00279,0.02122
-0.01841,0.96724,0.25314,-0.00136,-0.00177,0.01865
-0.01809,0.967,0.25407,-0.00129,0.0022,0.01785
-0.01771,0.96676,0.25503,-0.00804,0.0068,0.01012
-0.01739,0.96655,0.25582,-0.01558,0.00197,0.00281
-0.01722,0.96638,0.25651,-0.0172,-0.00077,0.00367
-0.0172,0.96618,0.25727,-0.01228,0.00076,0.01087
-0.01724,0.96596,0.25806,-0.00376,0.00469,0.01833
-0.0172,0.96576,0.2588,-0.00316,0.00698,0.01547
-0.01707,0.96556,0.25958,-0.00478,0.01161,-0.00094
-0.01693,0.96536,0.26031,-0.00535,-0.00081,-0.00114
-0.01691,0.96521,0.26088,-0.00666,0.00107,-0.00211
-0.01697,0.96509,0.26134,-0.00959,0.00553,0.00448
-0.01703,0.965,0.26167,-0.00791,0.00993,0.00115
-0.01707,0.96493,0.26192,-0.00932,0.01318,0.00289
-0.01706,0.96486,0.26215,-0.00908,0.00833,-0.00314
-0.01707,0.96479,0.26244,-0.00584,0.00662,-0.00356
-0.01711,0.96471,0.26272,-0.00548,0.00714,-0.00787
-0.01721,0.96468,0.26282,-0.00693,0.01089,-0.00883
-0.01729,0.9647,0.26275,-0.00727,0.01553,-0.01207
-0.01736,0.96472,0.26267,-0.00797,0.01682,-0.00861
-0.01738,0.96474,0.26259,-0.00091,0.00666,-0.00875
-0.01741,0.96478,0.26245,-3e-05,0.00858,-0.01022
-0.01744,0.96484,0.26222,-0.0036,0.01101,-0.01243
-0.01743,0.96492,0.26191,-0.00706,0.01344,-0.0109
-0.01743,0.96501,0.26159,-0.00997,0.00838,-0.00668
-0.0175,0.96508,0.26132,-0.00156,0.00275,-0.00019
-0.01763,0.96513,0.26113,0.00361,-0.00065,0.00422
-0.01774,0.96518,0.26096,-5e-05,0.00484,0.00691
-0.01776,0.96519,0.26089,-0.00303,0.0047,0.00571
-0.01767,0.96521,0.26083,-0.01214,0.00667,0.00214
-0.0176,0.9652,0.26087,-0.01078,0.0024,0.00109
-0.01767,0.9652,0.26088,-0.00173,-0.0038,0.00098
-0.01784,0.96521,0.26084,-0.00197,-0.00233,0.00387
-0.01798,0.96517,0.26097,-0.00297,0.00357,0.00561
-0.01804,0.96511,0.26119,-0.00285,0.01011,-0.00231
-0.01808,0.96504,0.26143,-0.0037,0.01019,-0.00475
-0.01813,0.96497,0.26169,-0.00068,0.00357,0.00254
-0.01815,0.96491,0.26192,-0.00355,0.00146,0.00608
-0.01813,0.96483,0.26219,-0.01246,0.0084,0.00151
-0.01814,0.96477,0.26243,-0.01351,0.00738,8e-05
-0.01817,0.96472,0.26262,-0.00664,0.00399,-0.00022
-0.01821,0.96466,0.26281,-0.00381,0.00201,0.00656
-0.01826,0.96461,0.263,-0.00372,0.00167,0.00692
-0.0183,0.96457,0.26314,-0.00511,0.00712,0.00495
-0.0183,0.96455,0.26324,-0.01054,0.01013,0.0013
-0.01825,0.96452,0.26334,-0.01107,0.00786,-0.00031
-0.01824,0.96449,0.26346,-0.00775,0.00394,0.00558
-0.01832,0.96445,0.26358,-0.0043,0.00321,0.00252
-0.01837,0.96443,0.26365,-0.00317,0.00326,0.00848
-0.01835,0.96441,0.26373,-0.00699,0.00364,0.01241
-0.01823,0.96436,0.26392,-0.01355,0.00524,0.007
-0.01813,0.96428,0.26424,-0.01367,0.00196,0.00145
-0.01812,0.9642,0.26453,-0.01008,0.003,0.00384
-0.01817,0.96415,0.2647,-0.00681,0.00295,0.00993
-0.01823,0.96412,0.26479,-0.008,0.0047,0.01489
-0.01826,0.96409,0.2649,-0.0115,0.00298,0.01206
-0.01827,0.96404,0.26509,-0.01211,0.00288,0.00908
-0.01834,0.96398,0.26531,-0.00515,0.00059,0.0097
-0.0184,0.96393,0.26548,0.00139,0.00464,0.01243
-0.0184,0.96389,0.26562,-0.00362,0.00619,0.01081
-0.01832,0.96385,0.26576,-0.01272,0.0059,0.00046
-0.01826,0.96381,0.26591,-0.0142,0.00211,-0.00028
-0.01829,0.96378,0.26602,-0.00626,0.00298,0.00337
-0.01836,0.96375,0.26612,-0.00139,0.00094,0.00887
-0.01841,0.96373,0.26622,-0.00178,0.00792,0.00554
-0.0184,0.96371,0.26627,-0.00808,0.00945,0.00078
-0.01842,0.96371,0.26626,-0.00526,0.00408,0.00234
-0.01849,0.96371,0.26626,-0.0036,0.00142,0.00867
-0.01855,0.9637,0.2663,-0.00173,0.00436,0.01128
-0.01855,0.96368,0.26637,-0.00551,0.00455,0.00588
-0.01847,0.96366,0.26644,-0.01,0.00675,0.00191
-0.01841,0.96367,0.26643,-0.01182,0.00789,-0.00065
-0.01844,0.9637,0.26632,-0.00703,0.00342,0.00823
-0.0185,0.96371,0.26627,-0.00117,0.00219,0.0122
-0.01856,0.96371,0.26627,0.00014,0.00434,0.01104
-0.01854,0.9637,0.2663,-0.00337,0.00377,0.00539
-0.01853,0.96371,0.26626,-0.00538,0.00545,0.00133
-0.01853,0.96374,0.26617,-0.00619,0.00432,0.00632
-0.01857,0.96376,0.26608,-0.00427,0.00206,0.01053
-0.01863,0.96377,0.26605,-0.00264,0.00465,0.00814
-0.01867,0.96378,0.266,-0.00385,0.00454,0.00695
-0.0187,0.9638,0.26592,-0.0066,0.00704,0.00171
-0.01873,0.96384,0.2658,-0.00723,0.00908,0.00499
-0.01878,0.96386,0.26569,-0.0056,0.00482,0.00355
-0.01886,0.96388,0.26563,-0.00215,0.0044,0.00666
-0.01892,0.96392,0.26549,-0.00463,0.00447,0.0087
-0.01894,0.96396,0.26532,-0.0096,0.00428,0.00414
-0.01893,0.96403,0.26508,-0.0105,0.00553,-0.00053
-0.01892,0.9641,0.26483,-0.00624,0.00781,0.00105
-0.01893,0.96415,0.26466,-0.00182,0.00578,0.00312
-0.01895,0.9642,0.26447,-0.0015,0.0033,0.00584
-0.01891,0.96426,0.26425,-0.00837,0.00706,0.00555
-0.01883,0.96432,0.26401,-0.00858,0.00603,0.00271
-0.01878,0.9644,0.26376,-0.01059,0.00776,0.00521
-0.01878,0.96447,0.26347,-0.00803,0.00472,0.00342
-0.01885,0.96456,0.26314,-0.00428,0.00111,0.00839
-0.0189,0.96465,0.26283,-0.00141,0.00044,0.01457
-0.01889,0.9647,0.26264,-0.00466,0.00161,0.0137
-0.01883,0.96474,0.26251,-0.00729,0.00528,0.00696
-0.01878,0.96478,0.26235,-0.00771,0.00624,0.005
-0.01876,0.96483,0.26219,-0.00479,-0.00064,0.01134
-0.01876,0.96488,0.262,-0.00318,-0.00095,0.01246
-0.01876,0.9649,0.26191,-0.00365,0.00115,0.01529
-0.01874,0.96491,0.26189,-0.00386,0.0031,0.00827
-0.01873,0.96492,0.26185,-0.00489,0.00736,0.00155
-0.01874,0.96495,0.26173,-0.00429,0.00362,0.00117
-0.01875,0.96498,0.26163,-0.0053,0.0029,0.00758
-0.01878,0.96499,0.26159,-0.00398,0.00154,0.01151
-0.0188,0.96499,0.26156,-0.00026,0.00636,0.00681
-0.01878,0.96501,0.26151,-0.00745,0.01288,-0.00251
-0.01873,0.96504,0.2614,-0.00835,0.01124,-0.0042
-0.01876,0.9651,0.26117,-0.00797,0.00983,-0.00684
-0.01891,0.96516,0.26092,-0.00024,0.00296,0.00751
-0.01902,0.96523,0.26067,0.00022,3e-05,0.00974
-0.01907,0.96526,0.26054,-0.00293,-0.00073,0.00512
-0.01905,0.96529,0.26045,-0.00459,0.00442,-0.00057
-0.01903,0.96529,0.26045,-0.00381,0.00494,-0.0023
-0.01904,0.96525,0.26058,-0.0021,0.00038,0.00381
-0.01911,0.9652,0.26076,-0.0009,0.00301,0.00833
-0.01912,0.96516,0.26093,-0.00192,0.00846,0.00782
-0.01908,0.96512,0.26106,-0.00527,0.0101,0.00228
-0.01904,0.96509,0.26118,-0.01125,0.01239,-0.00695
-0.01909,0.9651,0.26116,-0.00894,0.0057,-0.00703
-0.01922,0.96514,0.26098,-0.00352,0.00431,0.00321
-0.01942,0.96519,0.26077,0.0019,0.00256,0.01282
-0.01955,0.96524,0.26059,0.00046,0.00297,0.00982
-0.01959,0.96526,0.2605,-0.00493,0.00623,0.00041
-0.01958,0.96527,0.26047,-0.00778,0.00386,-0.0033
-0.01964,0.96529,0.26041,-0.00297,0.00163,-0.00171
-0.01978,0.96529,0.26038,0.00018,0.00349,0.00885
-0.01991,0.96528,0.2604,0.00032,0.0035,0.00882
-0.01997,0.96526,0.26049,-0.00176,0.0077,0.00514
-0.01999,0.96523,0.26058,-0.00607,0.0088,-0.00516
-0.02002,0.96522,0.26063,-0.0094,0.00779,-0.00491
-0.02011,0.9652,0.26068,-0.00531,0.00278,0.00228
-0.02022,0.96518,0.26075,0.00113,0.00407,0.01017
-0.02028,0.96516,0.26084,-0.00047,0.00721,0.01054
-0.02026,0.96514,0.2609,-0.00797,0.00938,0.00222
-0.02024,0.96514,0.26091,-0.01075,0.00848,-0.00145
-0.02033,0.96513,0.26094,-0.00675,0.00095,0.00368
-0.02053,0.9651,0.26102,0.00136,-0.00087,0.00985
-0.02068,0.96507,0.26112,4e-05,0.00026,0.01362
-0.02075,0.96503,0.26129,-0.00475,0.00699,0.0017
-0.02073,0.96498,0.26144,-0.0072,0.00993,-0.00064
-0.02073,0.96495,0.26155,-0.00716,0.00526,-0.00244
-0.02081,0.96493,0.26162,-0.00331,0.00351,0.00593
-0.02093,0.96491,0.2617,0.00062,0.00156,0.00983
-0.02096,0.96489,0.26177,-0.00276,0.00532,0.01088
-0.02092,0.96487,0.26185,-0.00577,0.00844,0.00196
-0.02088,0.96487,0.26185,-0.00945,0.00896,0.00103
-0.02092,0.9649,0.26175,-0.00671,0.00324,0.00537
-0.02101,0.96493,0.26164,-0.00184,0.00073,0.01305
-0.02106,0.96495,0.26156,-0.00134,0.0022,0.01366
-0.02103,0.96495,0.26153,-0.00614,0.00673,0.00985
-0.02096,0.96496,0.2615,-0.00995,0.00653,0.00446
-0.02093,0.96499,0.26142,-0.00977,0.00444,0.00379
-0.02099,0.965,0.26135,-0.00434,0.00092,0.00614
-0.02105,0.96502,0.26129,0.00092,0.0003,0.01401
-0.02107,0.96501,0.26131,0.00052,0.00281,0.01404
-0.02105,0.965,0.26138,-0.00527,0.00662,0.0068
-0.02101,0.96499,0.26141,-0.00917,0.00692,0.00165
-0.02105,0.965,0.26136,-0.00248,0.00376,0.00465
-0.02111,0.96502,0.26128,-0.00088,0.00478,0.01256
-0.02114,0.96504,0.26122,-0.00486,0.00257,0.01214
-0.02107,0.96505,0.26116,-0.005,0.00254,0.01043
-0.021,0.96509,0.26103,-0.01123,0.00978,-0.00038
-0.021,0.96514,0.26085,-0.00987,0.00724,-0.00046
-0.02107,0.96517,0.26074,-0.00193,0.00107,0.00648
-0.02108,0.96519,0.26066,0.00111,0.00365,0.01714
-0.02103,0.96521,0.26059,-0.00218,0.00579,0.01515
-0.02094,0.96525,0.26043,-0.00709,0.00241,0.01094
-0.02092,0.9653,0.26028,-0.00554,0.00226,0.00688
-0.02096,0.96529,0.26028,-0.00153,-0.0008,0.00722
-0.02101,0.96523,0.2605,0.00408,0.00158,0.00503
-0.02101,0.96516,0.26077,0.00535,0.00734,0.00177
-0.02087,0.96513,0.26089,0.00138,0.00945,-0.00267
-0.0207,0.96516,0.26081,-0.00745,0.01267,-0.00843
-0.02056,0.96523,0.26056,-0.00949,0.00989,-0.00395
-0.02057,0.96533,0.26018,-0.00693,0.00653,0.00093
-0.02063,0.96544,0.25976,-0.00089,0.00165,0.00994
-0.02065,0.96554,0.2594,-0.00025,-0.0013,0.01884
-0.02059,0.96559,0.25922,-0.0017,-0.00032,0.01703
-0.02044,0.9656,0.25919,-0.00497,0.00465,0.00594
-0.02029,0.96558,0.25926,-0.00332,0.00338,0.0015
-0.02021,0.96557,0.25931,-0.00087,0.0047,0.01009
-0.02013,0.96557,0.25933,-0.0035,0.00172,0.01537
-0.02005,0.96556,0.25936,-0.00813,0.00493,0.01204
-0.01995,0.96556,0.25938,-0.00979,0.00682,0.00215
-0.01988,0.96557,0.25935,-0.00656,0.00974,-0.00193
-0.01988,0.96561,0.25919,-0.00074,0.00657,0.00099
-0.01988,0.96566,0.25901,0.00171,0.00414,0.01084
-0.01979,0.9657,0.25887,-0.00142,0.00361,0.01413
-0.01961,0.96573,0.25877,-0.00595,0.00458,0.00637
-0.01941,0.96577,0.25863,-0.01297,0.00805,-0.00184
-0.01932,0.96584,0.25839,-0.01002,0.00366,0.00072
-0.01937,0.9659,0.25817,-1e-05,-0.00064,0.01331
-0.01943,0.96591,0.25811,0.00321,-0.00325,0.02229
-0.01937,0.96587,0.25827,0.00687,-0.0024,0.01948
-0.01918,0.96578,0.25863,0.00348,-0.00249,0.01282
-0.01892,0.96566,0.2591,-0.00179,0.00232,0.00665
-0.01865,0.96553,0.25957,-0.0055,0.00181,0.00712
-0.01851,0.9654,0.26007,-0.00539,0.00066,0.01486
-0.01835,0.96527,0.26057,-0.00543,-0.00263,0.01545
-0.01817,0.96515,0.26104,-0.00645,0.00604,0.01548
-0.018,0.96505,0.26143,-0.01055,0.0095,0.0053
-0.01789,0.96499,0.26163,-0.01159,0.0141,-0.00261
-0.01786,0.96499,0.26163,-0.0079,0.00908,-0.00779
-0.01794,0.96502,0.26153,-0.00124,0.00217,0.00571
-0.01809,0.96504,0.26145,0.00634,-0.00168,0.01135
-0.01816,0.96504,0.26143,0.00382,0.00061,0.01343
-0.01809,0.96502,0.26151,-0.00034,0.00477,0.006
-0.01798,0.96498,0.26166,-0.00931,0.00982,-0.00401
-0.01789,0.96497,0.2617,-0.0133,0.01118,-0.0083
-0.01793,0.96499,0.26163,-0.0067,0.00888,-0.00841
-0.0181,0.96503,0.26147,-0.00269,0.00379,0.0009
-0.01828,0.96508,0.26128,0.00089,0.00269,0.0032
-0.01839,0.96511,0.26114,0.003,-0.00022,0.01202
-0.01841,0.9651,0.26122,0.0014,-0.00033,0.01141
-0.01838,0.96502,0.2615,-0.00316,-0.003,0.01309
-0.01839,0.96484,0.26215,-0.00292,-0.01086,0.01895
-0.01843,0.96458,0.2631,0.00448,-0.01135,0.02332
-0.01838,0.9643,0.26414,0.00212,-0.00263,0.02317
-0.01836,0.96402,0.26516,-0.01055,0.01282,0.0096
-0.01828,0.96373,0.26621,-0.01462,0.01715,0.00093
-0.0182,0.96348,0.26713,-0.0175,0.01682,-0.00616
-0.01831,0.96328,0.26785,-0.01351,0.01449,-0.01709
-0.01859,0.96314,0.26833,-0.00957,0.01846,-0.02173
-0.01902,0.96313,0.26835,0.00619,0.02178,-0.02413
-0.01951,0.96327,0.26781,0.00973,0.01925,-0.02025
-0.02,0.96349,0.26698,0.01072,0.01594,-0.01729
-0.02043,0.96368,0.26624,0.01513,-0.00102,-0.00095
-0.0207,0.96382,0.26572,0.0162,0.00253,0.00706
-0.0207,0.96386,0.26558,0.00707,0.00361,0.00524
-0.02049,0.96383,0.2657,-0.00605,0.00866,-0.00365
-0.0203,0.96378,0.26591,-0.01826,0.01028,-0.0113
-0.02032,0.96376,0.26598,-0.01818,0.00716,-0.01484
-0.02052,0.96378,0.26589,-0.0076,0.00504,-0.00742
-0.02082,0.96383,0.26567,0.00975,0.00568,0.0039
-0.02106,0.96389,0.26545,0.01175,0.00671,0.00538
-0.02116,0.96391,0.26536,0.00356,0.00914,0.00134
-0.02114,0.96389,0.26542,-0.00179,0.00199,0.0011
-0.02117,0.96385,0.26558,0.0037,-0.00128,0.00343
-0.02124,0.9638,0.26573,0.0063,0.00368,0.00783
-0.02126,0.96375,0.26591,0.00107,0.00492,0.00916
-0.02121,0.96372,0.26604,-0.00913,0.00887,0.00395
-0.02112,0.9637,0.26613,-0.01447,0.00708,0.0034
-0.02108,0.96367,0.26622,-0.01136,0.00285,0.00374
-0.02116,0.96365,0.26629,-0.0002,0.00214,0.00916
-0.02129,0.96365,0.26627,0.0036,0.00247,0.01191
-0.02138,0.96367,0.26621,1e-05,0.00763,0.01005
-0.02137,0.96367,0.26621,-0.00614,0.00287,0.00865
-0.02131,0.96363,0.26635,-0.00625,0.0024,0.00802
-0.0213,0.96357,0.26657,-0.00514,0.00171,0.00753
-0.02137,0.96353,0.2667,0.00361,0.0011,0.01159
-0.02144,0.96353,0.26672,0.00278,0.00359,0.01781
-0.02143,0.96352,0.26676,-0.00182,0.00206,0.01838
-0.02132,0.96347,0.26695,-0.01042,0.00431,0.00876
-0.02122,0.96341,0.26714,-0.00854,0.00263,0.00394
-0.02121,0.9634,0.2672,-0.00084,0.00018,0.00512
-0.02122,0.9634,0.26719,-0.00015,0.00166,0.01057
-0.02118,0.96341,0.26716,-0.00138,0.00586,0.01527
-0.02108,0.96341,0.26718,-0.00279,0.00562,0.00432
-0.02095,0.96339,0.26724,-0.00377,0.00414,0.00282
-0.02087,0.9634,0.26723,-0.00113,0.00273,0.0046
-0.02083,0.96343,0.26712,-0.00273,0.00468,0.01534
-0.02079,0.96349,0.26691,-0.00731,0.00645,0.01113
-0.02074,0.96354,0.26672,-0.01308,0.00428,0.01057
-0.02072,0.96359,0.26657,-0.01243,0.00072,0.0088
-0.02076,0.9636,0.26651,-0.00308,-0.00079,0.01188
-0.02081,0.96362,0.26644,0.00267,-0.00151,0.01446
-0.02079,0.96366,0.26628,-0.00071,0.00353,0.00964
-0.0207,0.96373,0.26606,-0.00331,0.00537,0.00895
-0.0206,0.96378,0.26588,-0.00827,0.00174,0.0069
-0.02054,0.9638,0.26579,-0.00338,-0.00374,0.00886
-0.02059,0.9638,0.2658,0.00015,-0.00538,0.01454
-0.02061,0.96377,0.2659,0.0022,-0.00029,0.01619
-0.02058,0.9637,0.26616,0.00494,0.00395,0.01166
-0.02048,0.96361,0.2665,0.00423,0.0054,0.01098
-0.02038,0.96352,0.26685,-0.00386,0.00734,-0.00188
-0.02029,0.96343,0.26718,-0.00921,0.00311,0.00147
-0.0203,0.96335,0.26746,-0.00814,0.00755,0.00128
-0.02039,0.96332,0.26756,-0.00782,0.01016,0.00328
-0.02049,0.96333,0.26752,-0.00396,0.00989,0.00375
-0.02053,0.96335,0.26745,-0.00301,0.00525,0.00257
-0.02051,0.96336,0.2674,-0.00072,0.00466,-0.0036
-0.02048,0.96335,0.26744,-0.0017,0.00482,-2e-05
-0.02058,0.96332,0.26753,-0.00169,0.00102,0.00655
-0.02075,0.9633,0.26759,0.00037,0.00337,0.00467
-0.02087,0.96326,0.26772,-0.00098,0.00649,0.00247
-0.02095,0.9632,0.26793,-0.00222,0.00672,-0.00197
-0.02097,0.96313,0.26821,-0.00301,0.00713,-0.00631
-0.02107,0.96304,0.26851,-0.00207,0.00241,-0.00551
-0.02123,0.96297,0.26876,0.00171,0.00613,-0.00388
-0.02143,0.96294,0.26886,0.0005,0.00855,-0.00038
-0.02159,0.96293,0.26886,0.00127,0.00974,0.00438
-0.02172,0.96292,0.2689,0.00158,0.01123,0.00256
-0.02182,0.96288,0.26901,0.00235,0.00892,-0.00238
-0.0219,0.96285,0.26914,0.00216,0.00479,-0.00193
-0.02199,0.9628,0.26929,0.00107,0.00396,0.00311
-0.0221,0.96279,0.26934,-0.00462,0.00584,0.00283
-0.0222,0.96278,0.26934,-0.00519,0.00566,0.00218
-0.02229,0.96277,0.26937,-0.00418,0.00733,1e-05
-0.02239,0.96276,0.26942,0.00219,0.00186,0.0026
-0.02253,0.96273,0.26952,0.00237,-0.00083,0.00136
-0.02272,0.96268,0.26966,0.00514,-0.00121,0.00904
-0.02284,0.96261,0.26989,0.00194,0.00388,0.00759
-0.02294,0.96254,0.27014,0.00043,0.00935,0.00235
-0.02302,0.96249,0.27033,-0.00069,0.00776,-0.00025
-0.02314,0.96244,0.27049,-0.0003,0.00074,0.00348
-0.02329,0.96238,0.27069,-0.00126,-0.00188,0.0112
-0.02347,0.96232,0.27089,-0.00209,0.0028,0.01201
-0.02366,0.96227,0.27106,-0.00633,0.00718,0.00867
-0.02384,0.96223,0.27118,-0.00118,0.00309,0.00293
-0.02403,0.96218,0.27134,-0.00113,0.00192,0.00643
-0.02422,0.96213,0.27151,0.00063,-0.00012,0.01206
-0.02439,0.96208,0.27164,0.00025,0.0018,0.01183
-0.02455,0.96204,0.27178,-0.00101,0.00556,0.00911
-0.02468,0.96199,0.27195,-0.00384,0.00606,0.00335
-0.02479,0.96192,0.2722,-0.00148,0.00355,0.00743
-0.02495,0.96185,0.27242,0.00232,-0.00203,0.009
-0.02513,0.96181,0.27254,0.00351,0.00285,0.01127
-0.02522,0.96178,0.27264,-0.00165,0.00406,0.0061
-0.02526,0.96174,0.27279,-0.00631,0.00927,0.00568
-0.02531,0.9617,0.27292,-0.00783,0.00617,0.00254
-0.02548,0.96168,0.27298,-0.00189,0.00413,0.00556
-0.02574,0.9617,0.27289,0.00311,0.00214,0.00839
-0.02599,0.96174,0.2727,-0.00171,0.00574,0.01067
-0.02616,0.96179,0.27253,-0.00185,0.01046,0.00535
-0.02624,0.96181,0.27246,-0.00401,0.00501,0.00631
-0.02631,0.9618,0.27246,0.00237,0.00217,0.00566
-0.02636,0.96183,0.27234,-0.00123,0.00261,0.01005
-0.02639,0.9619,0.27213,-0.00408,0.00867,0.00793
-0.02639,0.96197,0.27186,-0.00699,0.0084,0.00881
-0.02637,0.96205,0.27157,-0.00877,0.00493,0.0086
-0.02641,0.96213,0.27128,-0.00483,0.00259,0.00736
-0.02647,0.96223,0.27092,0.00414,-0.00116,0.0157
-0.02652,0.96235,0.27051,0.00281,-0.00298,0.01989
-0.02653,0.96243,0.27022,-0.0053,0.00043,0.02379
-0.02647,0.96247,0.2701,-0.00828,0.00039,0.01947
-0.02639,0.96246,0.27014,-0.00636,-0.00085,0.01567
-0.02631,0.96244,0.2702,-0.00169,0.00052,0.0154
-0.02623,0.96245,0.27017,-0.00288,0.00347,0.01256
-0.02617,0.96249,0.27006,-0.00601,0.00364,0.01467
-0.02611,0.96252,0.26995,-0.00731,0.00838,0.0099
-0.02608,0.96257,0.26977,-0.00733,0.00833,0.01008
-0.02607,0.96263,0.26954,0.00055,0.00357,0.01023
-0.02603,0.96271,0.26925,-0.00156,0.00191,0.01022
-0.02596,0.96281,0.26893,-0.00376,0.00304,0.01055
-0.0259,0.96289,0.26863,-0.00672,0.00326,0.00847
-0.02582,0.96297,0.26837,-0.00142,0.00394,0.00756
-0.02576,0.96304,0.26811,0.0024,0.0029,0.01296
-0.02568,0.96312,0.26782,0.00166,0.0038,0.0123
-0.02558,0.96323,0.26745,-0.00351,0.00497,0.00917
-0.02547,0.96334,0.26707,-0.00459,0.00265,0.00389
-0.02537,0.96343,0.26673,-0.00606,0.00455,0.00433
-0.02532,0.96351,0.26645,-0.00459,0.00399,0.00723
-0.02528,0.96359,0.26617,0.00374,0.00331,0.00827
-0.0252,0.9637,0.2658,0.00459,2e-05,0.0102
-0.02506,0.9638,0.26545,-0.00155,0.00453,0.00794
-0.02493,0.96388,0.26514,-0.00966,0.00621,0.00286
-0.0249,0.96396,0.26487,0.00259,0.00299,0.00424
-0.02493,0.96404,0.26459,0.00581,0.00227,0.00882
-0.02492,0.96412,0.26429,0.00922,0.00259,0.01261
-0.02482,0.96421,0.26398,-0.00052,0.00346,0.0108
-0.02469,0.96429,0.26369,-0.00755,0.00574,0.00184
-0.02461,0.96436,0.26343,-0.00565,0.01092,-0.00175
-0.02459,0.96444,0.26316,0.0059,0.00636,0.00631
-0.02461,0.96454,0.26278,0.0084,0.00587,0.00597
-0.02453,0.96466,0.26233,-0.00288,0.00616,0.00504
-0.02447,0.96481,0.26179,-0.00589,0.00569,-0.0012
-0.0245,0.96496,0.26124,-0.00212,0.00264,-0.001
-0.02461,0.96509,0.26077,0.00175,0.00244,0.00398
-0.02469,0.96518,0.2604,0.00763,-0.00034,0.01831
-0.02471,0.96524,0.26019,0.00183,0.00177,0.01752
-0.02464,0.96528,0.26003,-0.00839,0.00351,0.01066
-0.02457,0.96531,0.25993,-0.00616,0.00182,0.0061
-0.02449,0.96532,0.25991,0.00179,0.00311,0.01203
-0.02441,0.96533,0.2599,0.00233,0.00805,0.00831
-0.02431,0.96535,0.2598,-0.00374,0.00854,0.00609
-0.02427,0.9654,0.25963,-0.01115,0.00657,6e-05
-0.02434,0.96549,0.2593,-0.0111,0.00631,-0.00518
-0.02456,0.96558,0.25893,0.00307,0.0035,0.00033
-0.02481,0.96566,0.2586,0.01306,0.00348,0.00655
-0.02494,0.96571,0.25841,0.01946,0.00041,0.01558
-0.02491,0.96574,0.25831,0.00666,0.00442,0.01631
-0.02476,0.96573,0.25834,-0.00804,0.00277,0.0115
-0.0247,0.96571,0.25845,-0.01086,0.00324,0.00414
-0.02477,0.96569,0.25851,-0.00818,0.00471,0.00132
-0.02492,0.96569,0.25849,0.00074,0.00567,0.00588
-0.02504,0.96572,0.25837,0.00116,0.00457,0.01053
-0.02509,0.96576,0.25819,-0.00061,0.00152,0.01303
-0.02517,0.9658,0.25804,-0.00669,0.00195,0.00638
-0.02526,0.96582,0.25796,0.00258,0.00174,0.00663
-0.02535,0.96583,0.2579,0.00551,0.00223,0.00881
-0.02538,0.96583,0.25793,0.00432,0.00306,0.01371
-0.02534,0.96583,0.25793,-0.00537,0.00762,0.0106
-0.0253,0.96584,0.25791,-0.00745,0.00467,0.00442
-0.02532,0.96585,0.25784,-0.00539,0.00658,0.00226
-0.02545,0.9659,0.25767,-0.00257,0.0043,0.00796
-0.02565,0.96593,0.25752,0.00212,0.00166,0.01125
-0.02578,0.96597,0.25737,0.00161,0.00117,0.01741
-0.02585,0.96598,0.25732,-0.00386,0.00454,0.01706
-0.02589,0.96597,0.25735,-0.00455,0.00037,0.00643
-0.02596,0.96595,0.2574,-0.00146,0.00098,0.00787
-0.02601,0.96593,0.25747,0.00237,0.00538,0.01098
-0.02601,0.96594,0.25744,-0.00369,0.00821,0.00921
-0.02597,0.96597,0.25733,-0.0067,0.00769,0.0088
-0.02591,0.96601,0.25718,-0.00716,0.0031,0.00606
-0.0259,0.96607,0.25699,-0.00549,-0.00104,0.01018
-0.02593,0.96611,0.2568,-0.00329,-0.00527,0.01329
-0.02598,0.96614,0.25671,0.00236,-0.00541,0.01917
-0.02594,0.96609,0.25688,0.00044,-0.00551,0.02451
-0.0258,0.96596,0.25738,0.00088,-0.00567,0.01982
-0.0256,0.96578,0.2581,-0.00052,-0.00266,0.01462
-0.02536,0.96556,0.25893,-0.0038,-0.00232,0.01425
-0.02517,0.96532,0.25984,-0.00476,0.00547,0.00711
-0.02505,0.96512,0.26061,-0.00756,0.0136,0.00405
-0.02499,0.96496,0.2612,-0.006,0.01803,-0.00992
-0.02497,0.96489,0.26145,-0.0052,0.02104,-0.01358
-0.02502,0.96491,0.26139,-0.00664,0.01256,-0.01139
-0.0252,0.96497,0.26113,-0.00419,0.0048,-0.00156
-0.02543,0.96505,0.2608,0.00258,0.00574,0.00061
-0.02559,0.96512,0.26056,0.00429,0.00383,0.00601
-0.02569,0.96514,0.26048,0.00364,0.00553,0.00495
-0.02571,0.96511,0.26057,0.00187,0.00312,0.0048
-0.02564,0.96505,0.26082,-0.0014,0.00468,0.00221
-0.02557,0.96494,0.26121,-0.00225,0.00182,0.00568
-0.02556,0.96485,0.26153,-0.0052,0.00774,0.00169
-0.02561,0.9648,0.26174,-0.00285,0.00996,0.00175
-0.02569,0.96477,0.26182,-0.0001,0.00855,0.00088
-0.02576,0.96476,0.26184,0.00216,0.00501,0.00566
-0.02584,0.96474,0.26194,0.00452,0.00012,0.00937
-0.0259,0.96469,0.2621,0.00208,0.00247,0.0082
-0.02595,0.96464,0.26227,0.00323,0.00137,0.00592
-0.02598,0.96458,0.26249,0.0009,0.00339,0.00531
-0.02598,0.96451,0.26275,-0.0022,0.00268,0.00551
-0.02601,0.96443,0.26305,-0.00284,0.00235,0.00825
-0.02612,0.96435,0.26333,0.00128,-0.00192,0.01324
-0.02622,0.96425,0.26367,0.00148,0.0006,0.01677
-0.02632,0.96414,0.26409,-0.00062,0.0053,0.01014
-0.02637,0.96401,0.26454,-0.00261,0.00729,0.00491
-0.02637,0.96391,0.26493,-0.00115,0.00698,0.0041
-0.02642,0.96381,0.26526,-0.00016,0.00059,0.00798
-0.02646,0.96374,0.26553,-0.00249,-0.00041,0.0127
-0.02648,0.96368,0.26574,-0.00309,0.00344,0.01438
-0.02649,0.96362,0.26597,-0.00698,0.0093,0.01157
-0.0265,0.96356,0.26617,-0.00339,0.00321,0.00996
-0.02655,0.96352,0.26631,-0.00264,0.00262,0.00894
-0.02664,0.96349,0.2664,0.00175,0.00162,0.0109
-0.02669,0.96347,0.26648,-0.00148,0.00513,0.01099
-0.02671,0.96343,0.26661,-0.00482,0.00343,0.01156
-0.02672,0.96337,0.26684,-0.00407,-0.00175,0.01182
-0.02676,0.96329,0.26711,-0.00183,0.00024,0.01397
-0.02682,0.96323,0.26733,-0.00204,0.00494,0.0129
-0.02688,0.96319,0.26748,-0.00345,0.00587,0.01055
-0.0269,0.96314,0.26765,-0.00378,0.00675,0.00823
-0.0269,0.96308,0.26788,-0.00317,0.00226,0.01174
-0.02691,0.963,0.26814,-0.00124,0.00358,0.01086
-0.02693,0.96297,0.26827,-0.00136,0.00565,0.00819
-0.02698,0.96296,0.26828,-0.00604,0.0086,0.00978
-0.027,0.96296,0.26828,-0.00718,0.00402,0.00906
-0.02699,0.96296,0.2683,-0.0032,0.00489,0.01202
-0.027,0.96298,0.26823,-0.00261,0.00101,0.01602
-0.02703,0.96301,0.26809,-0.00437,-0.00084,0.01725
-0.02707,0.96304,0.26799,-0.00497,-0.00195,0.01577
-0.02711,0.96302,0.26806,-0.00327,-0.00246,0.01464
-0.02711,0.96296,0.26829,0.00346,0.00131,0.00936
-0.02708,0.96288,0.26858,0.00053,0.00319,0.00955
-0.02703,0.96281,0.26881,-0.00596,0.00809,0.00434
-0.02697,0.96277,0.26897,-0.0042,0.00772,0.00325
-0.02694,0.96274,0.2691,0.00162,0.00847,0.00281
-0.0269,0.96273,0.26913,0.00169,0.00805,0.00456
-0.0268,0.96276,0.26901,-0.00239,0.00269,0.01177
-0.02669,0.96283,0.26879,-0.00538,-0.00128,0.01768
-0.02664,0.96289,0.26858,-0.00875,0.00285,0.01994
-0.02666,0.96289,0.26856,-0.00189,-0.00179,0.01553
-0.02671,0.96284,0.26876,0.00775,-0.00379,0.01682
-0.02663,0.96275,0.26906,0.00634,-0.00145,0.01617
-0.02652,0.96267,0.26937,-0.00757,0.00759,0.00454
-0.02639,0.96262,0.26957,-0.0086,0.00438,-0.00017
-0.02632,0.96261,0.26961,-0.00035,0.00556,0.00118
-0.02627,0.96261,0.26961,0.00338,0.00762,0.00789
-0.02622,0.96264,0.26953,-0.00139,0.00923,0.01173
-0.02618,0.96266,0.26943,-0.00329,0.00671,0.00665
-0.02616,0.9627,0.26928,-0.00064,0.00165,0.00835
-0.02615,0.96275,0.26913,-0.0004,0.00158,0.01047
-0.02613,0.96278,0.26904,0.00156,0.00468,0.0145
-0.02606,0.9628,0.26896,-0.00594,0.00504,0.01221
-0.02599,0.96283,0.26884,-0.00906,0.00444,0.00658
-0.02598,0.96288,0.26869,-0.00775,0.00246,0.00637
-0.02602,0.96291,0.26855,0.00105,0.00324,0.01008
-0.02608,0.96294,0.26844,0.00586,0.00485,0.0106
-0.02607,0.96298,0.26831,0.00284,0.00547,0.00943
-0.02599,0.96302,0.26816,-0.00379,0.00435,0.00777
-0.02591,0.96307,0.26802,-0.00781,0.0034,0.00712
-0.02588,0.9631,0.26789,-0.00424,0.0054,0.00573
-0.02589,0.96315,0.26772,-0.00084,0.0045,0.00747
-0.02588,0.96321,0.26751,-0.0014,0.00342,0.01124
-0.02583,0.96328,0.26727,-0.0019,0.0032,0.00992
-0.02577,0.96333,0.26708,-0.00527,0.00325,0.01173
-0.02571,0.96338,0.2669,-0.00324,0.00412,0.01263
-0.02567,0.96344,0.26669,-0.00271,0.00412,0.01095
-0.02561,0.96352,0.26641,-0.00355,0.00288,0.01426
-0.02555,0.9636,0.26612,-0.00536,0.00181,0.01412
-0.0255,0.96367,0.26587,-0.00378,0.00409,0.01098
-0.02547,0.96373,0.26565,-0.00303,0.00312,0.01034
-0.02544,0.9638,0.26541,-0.00236,0.00286,0.00991
-0.02539,0.96387,0.26515,-0.00554,0.00451,0.01282
-0.02532,0.96396,0.26483,-0.00436,0.00471,0.01059
-0.02525,0.96405,0.26453,-0.00527,0.00127,0.01047
-0.02517,0.96413,0.26422,-0.00361,5e-05,0.01511
-0.02505,0.9642,0.26399,0.00026,-0.00056,0.01804
-0.02496,0.96424,0.26384,-0.00219,-0.0008,0.02175
-0.02488,0.96426,0.2638,-0.0034,0.00652,0.01643
-0.02474,0.96429,0.26368,-0.00547,0.0047,0.01148
-0.02464,0.96436,0.26345,-0.00768,0.00155,0.00515
-0.02456,0.96444,0.26315,0.00082,-0.00325,0.01916
-0.02448,0.96451,0.2629,0.00564,-0.00745,0.03019
-0.02436,0.9645,0.26294,0.00581,-0.01039,0.03702
-0.02405,0.96441,0.26331,-0.00101,-0.00415,0.02887
-0.0236,0.96425,0.26394,-0.01087,-0.00113,0.01221
-0.02311,0.96404,0.26474,-0.01307,0.00648,-0.00048
-0.02267,0.96386,0.26543,-0.01234,0.01166,-0.00672
-0.02243,0.96377,0.26578,-0.00904,0.01731,-0.01047
-0.0224,0.9638,0.2657,-0.00343,0.02134,-0.00944
-0.02249,0.9639,0.26531,-0.0036,0.02043,-0.0117
-0.02257,0.96407,0.2647,-0.00121,0.01051,-0.01209
-0.02267,0.96427,0.26394,0.00488,0.00338,-0.00388
-0.02283,0.9645,0.26308,0.01063,-0.00111,0.00718
-0.02293,0.96473,0.26223,0.01066,-0.0003,0.01682
-0.02282,0.96488,0.2617,0.00089,-0.00016,0.01827
-0.02257,0.96493,0.26154,-0.00897,0.00149,0.01144
-0.02229,0.96493,0.26156,-0.0121,0.0004,0.00628
-0.02213,0.96494,0.26154,-0.00976,-0.00173,0.00857
-0.02206,0.96497,0.26144,-0.00623,0.00123,0.00994
-0.02201,0.96502,0.26124,-0.00588,0.00347,0.01351
-0.02192,0.96506,0.26109,-0.00338,0.00198,0.00839
-0.0218,0.96507,0.26109,-0.00388,0.00306,0.00634
-0.02164,0.96503,0.26123,0.00294,0.00147,0.00431
-0.02149,0.96498,0.26143,0.00906,0.00384,0.00589
-0.02135,0.96494,0.26159,0.01003,0.00913,0.00483
-0.02118,0.96493,0.26163,-0.00109,0.01271,-5e-05
-0.02093,0.96496,0.26157,-0.00926,0.01165,-0.0044
-0.02077,0.96501,0.2614,-0.01393,0.00811,-0.00419
-0.02074,0.96508,0.26115,-0.00755,-0.00209,0.00824
-0.02084,0.96513,0.26094,0.00466,-0.00193,0.01664
-0.02088,0.96516,0.26082,0.00582,0.00037,0.01876
-0.02077,0.96516,0.26084,-0.00053,0.00283,0.01214
-0.02056,0.96515,0.26087,-0.00695,0.00653,0.00501
-0.02041,0.96516,0.26087,-0.00581,0.00498,0.00448
-0.02042,0.96518,0.26078,-0.00438,0.00363,0.00884
-0.02047,0.9652,0.26072,0.00059,0.00137,0.01241
-0.02048,0.96521,0.26068,-0.00306,0.00365,0.01056
-0.02045,0.96521,0.26068,-0.00387,0.00353,0.00817
-0.02041,0.96522,0.26063,0.00081,0.00359,0.00789
-0.02033,0.96524,0.26057,-0.00106,0.00284,0.01041
-0.02025,0.96525,0.26056,-0.00194,0.00115,0.01335
-0.02019,0.96522,0.26064,-0.00279,-0.00053,0.01342
-0.02011,0.96519,0.26079,-0.00352,0.00495,0.01274
-0.02,0.96515,0.26094,-0.00605,0.00353,0.01059
-0.01989,0.96512,0.26105,-0.00726,0.00392,0.00664
-0.01985,0.96512,0.26106,-0.00501,0.00598,0.00699
-0.01985,0.96513,0.26103,-0.00075,0.00117,0.01343
-0.01987,0.96513,0.26103,0.003,-0.00047,0.01026
-0.01981,0.96512,0.26107,0.00124,0.00589,0.01049
-0.01966,0.96512,0.26105,-0.00588,0.00929,0.00373
-0.01951,0.96516,0.26094,-0.01074,0.00867,-0.0027
-0.01939,0.96522,0.26072,-0.01166,0.00417,-0.00096
-0.01937,0.96529,0.26048,-0.00589,-0.00137,0.01125
-0.01947,0.96535,0.26023,6e-05,-6e-05,0.01681
-0.01954,0.96539,0.26007,0.00342,0.00411,0.01137
-0.01949,0.96541,0.26002,-0.00431,0.00775,0.00527
-0.01941,0.96543,0.25994,-0.00981,0.00959,-0.00454
-0.01939,0.96547,0.25978,-0.00645,0.00271,0.00287
-0.01945,0.96552,0.25958,0.00036,-0.00305,0.01662
-0.01952,0.96557,0.25942,0.00314,-0.00336,0.01937
-0.01948,0.96555,0.25949,-0.00492,0.00444,0.01237
-0.01936,0.9655,0.25967,-0.01165,0.0085,0.00153
-0.01928,0.96548,0.25975,-0.00875,0.00671,-0.00457
-0.01934,0.96553,0.25956,-0.00304,0.00187,0.00574
-0.01944,0.9656,0.25932,0.00451,0.00047,0.02124
-0.01949,0.96562,0.25923,0.00722,-0.00332,0.02323
-0.01945,0.96556,0.25944,-0.00025,0.00044,0.01209
-0.01932,0.96547,0.25979,-0.00772,0.00392,-0.00252
-0.01924,0.9654,0.26005,-0.00775,0.00911,-0.00407
-0.01927,0.9654,0.26007,-0.00289,0.0057,0.00554
-0.01941,0.96543,0.25995,0.0045,0.00152,0.01337
-0.01954,0.96544,0.2599,0.00433,0.00026,0.01572
-0.01955,0.9654,0.26006,0.00101,0.00119,0.01102
-0.01948,0.96534,0.26027,-0.00784,0.0063,0.00251
-0.01949,0.96531,0.26036,-0.00343,0.00507,-0.00088
-0.01955,0.96533,0.26031,-0.00125,0.00542,0.00304
-0.01961,0.96534,0.26027,0.00158,0.00564,0.01475
-0.0197,0.96533,0.26029,0.00127,0.00302,0.01198
-0.01976,0.96532,0.26031,-0.00394,0.00506,0.00602
-0.01977,0.96531,0.26036,-0.00379,0.00217,0.00765
-0.01984,0.96531,0.26036,-0.00372,0.00144,0.01125
-0.01995,0.96531,0.26034,0.00139,-0.00051,0.01443
-0.02005,0.9653,0.26037,0.00063,-0.00114,0.01981
-0.02013,0.96527,0.26046,-0.00616,-0.00141,0.0161
-0.0202,0.96521,0.26068,-0.00411,0.00401,0.00997
-0.02029,0.96514,0.26096,0.00039,0.00697,0.0035
-0.0204,0.96505,0.26126,0.00427,0.00707,0.00171
-0.02047,0.96498,0.26151,0.00281,0.00996,0.00665
-0.02051,0.96495,0.26163,0.00043,0.00667,0.0076
-0.02052,0.96495,0.26163,-0.00788,0.0067,0.0063
-0.02059,0.96497,0.26154,-0.01156,0.00645,0.00416
-0.02067,0.96501,0.26138,-0.0053,0.00047,0.01242
-0.02082,0.96507,0.26117,-0.00491,-0.00193,0.01804
-0.02099,0.96511,0.26101,0.00085,-0.00274,0.02445
-0.02112,0.96508,0.26109,-0.00287,-0.00108,0.01864
-0.02118,0.965,0.26139,-0.00447,0.00549,0.00743
-0.02121,0.9649,0.26177,-0.00583,0.00576,0.00236
-0.02128,0.96482,0.26204,-0.00123,0.00757,0.00103
-0.02141,0.96479,0.26213,0.0023,0.0036,0.00975
-0.02151,0.9648,0.26211,-0.00058,0.00746,0.01186
-0.02157,0.96481,0.26207,-0.00717,0.00683,0.00933
-0.02166,0.96482,0.26201,-0.00813,0.00666,0.00096
-0.02178,0.96486,0.26187,-0.00407,0.00052,0.0028
-0.02194,0.96489,0.26174,-0.00039,0.00615,0.01136
-0.02209,0.96492,0.26162,-0.00112,0.00757,0.01222
-0.02223,0.96496,0.26144,-0.00456,0.00368,0.01027
-0.02234,0.96499,0.26134,-0.00775,-0.00191,0.00638
-0.02245,0.965,0.26127,-0.01043,0.00167,0.00478
-0.02256,0.965,0.26128,-0.00061,0.0011,0.01013
-0.0227,0.96498,0.26135,0.00823,0.00316,0.01117
-0.02277,0.96496,0.2614,0.00484,0.00298,0.01526
-0.02276,0.96493,0.2615,-0.00579,0.00278,0.01502
-0.02269,0.9649,0.26164,-0.00893,0.00063,0.011
-0.02264,0.96485,0.2618,-0.00814,0.00371,0.00956
-0.02265,0.96483,0.26189,-0.00665,0.0032,0.00831
-0.02273,0.96484,0.26186,-0.00415,0.00278,0.01022
-0.02282,0.96487,0.26173,-0.00179,0.00206,0.01694
-0.02289,0.96489,0.26166,-0.00077,-0.00122,0.01797
-0.02291,0.96487,0.26172,-0.00184,0.00165,0.0113
-0.02292,0.96483,0.26185,-0.0026,0.00144,0.00889
-0.02295,0.96482,0.26191,4e-05,0.00598,0.01054
-0.02298,0.96484,0.26184,-0.00193,0.00425,0.01195
-0.02298,0.96487,0.2617,-0.00763,0.00114,0.01163
-0.02298,0.96491,0.26158,-0.00672,0.00082,0.0109
-0.02301,0.96492,0.26152,-0.00021,0.00131,0.01114
-0.02308,0.96492,0.26153,0.00491,0.00241,0.01478
-0.02315,0.96491,0.26156,0.00418,0.00212,0.01588
-0.02315,0.96489,0.26161,-0.00142,0.0037,0.01097
-0.02309,0.96487,0.2617,-0.00308,0.00742,0.00118
-0.02303,0.96485,0.26181,-0.00424,0.00578,-0.00201
-0.023,0.96483,0.26186,-0.00094,0.00519,0.00347
-0.02304,0.96483,0.26185,0.00228,0.00282,0.01176
-0.02307,0.96486,0.26173,0.00177,0.00086,0.01509
-0.02305,0.96489,0.26165,-0.00341,0.00093,0.01292
-0.023,0.9649,0.26162,-0.0007,-0.0051,0.00821
-0.02293,0.96485,0.26179,0.00366,-0.00484,0.01273
-0.02289,0.96473,0.26223,0.00542,-0.00854,0.022
-0.02285,0.96456,0.26286,0.00788,-0.00459,0.02486
-0.02277,0.96434,0.26367,0.00554,0.00441,0.01513
-0.02257,0.9641,0.26458,-0.00765,0.00947,0.00608
-0.02234,0.96384,0.26553,-0.01392,0.00909,-0.00461
-0.02221,0.96364,0.26629,-0.01519,0.01148,-0.00801
-0.02226,0.96353,0.26667,-0.00451,0.01213,1e-05
-0.02246,0.96349,0.26682,0.00758,0.01035,0.00783
-0.02264,0.96352,0.26666,0.00981,0.00979,0.01807
-0.02272,0.96362,0.2663,-0.00522,0.00812,0.01522
-0.02272,0.96378,0.26572,-0.01181,-0.00257,0.01423
-0.02283,0.96395,0.26509,-0.00793,-0.00653,0.01669
-0.02306,0.96407,0.26463,0.0006,-0.00811,0.01691
-0.02334,0.9641,0.2645,0.00036,-0.00755,0.01838
-0.02361,0.96404,0.2647,-0.00239,0.00205,0.00332
-0.02384,0.96391,0.26515,-0.00445,0.00914,-0.00934
-0.02388,0.96373,0.26581,-0.00151,0.00906,-0.01333
-0.02384,0.96356,0.26643,0.00485,0.0186,-0.02044
-0.02382,0.96347,0.26675,0.00156,0.01681,-0.01277
-0.02388,0.96348,0.26671,-0.00242,0.01882,-0.0054
-0.02406,0.96358,0.26635,-0.00634,0.0098,0.00706
-0.02427,0.9637,0.26589,-0.00234,0.00423,0.01522
-0.02436,0.96378,0.26557,-0.00208,-0.00143,0.01772
-0.02437,0.96382,0.26544,-0.00822,-0.00181,0.01401
-0.02436,0.96381,0.26549,-0.01029,-0.00314,0.01399
-0.02446,0.9638,0.26552,-0.00696,-0.00518,0.01233
-0.02459,0.96376,0.26562,-0.00196,-0.00058,0.01656
-0.02469,0.9637,0.26583,-0.00662,0.00428,0.0124
-0.02479,0.96361,0.26614,-0.00687,0.0113,-0.00227
-0.02491,0.96355,0.26635,0.00714,0.01103,-0.00609
-0.02505,0.96355,0.26634,0.01306,0.00959,0.00414
-0.0252,0.96362,0.26608,0.00922,0.00829,0.00597
-0.02532,0.96372,0.26569,-0.00822,0.00718,0.00851
-0.02543,0.96382,0.26533,-0.01036,0.00327,0.00669
-0.02552,0.96391,0.26501,-0.00723,0.00246,0.00845
-0.02567,0.96399,0.26468,-0.00224,0.00016,0.01219
-0.02581,0.96411,0.26426,0.00147,0.00025,0.01407
-0.02589,0.96424,0.26378,-0.00219,0.00097,0.01959
-0.02591,0.96433,0.26343,-0.00914,0.00181,0.01126
-0.02593,0.96439,0.26321,-0.00563,0.0038,0.00772
-0.02596,0.96443,0.26307,0.00272,-0.00074,0.00622
-0.02601,0.96447,0.26292,0.00363,0.0003,0.01096
-0.02606,0.96454,0.26265,0.00343,0.00162,0.01677
-0.02608,0.96461,0.26239,0.00122,0.00439,0.01446
-0.02605,0.96465,0.26222,-0.00117,0.00344,0.01106
-0.02598,0.96466,0.2622,-2e-05,0.00015,0.01028
-0.02596,0.96466,0.26222,-0.00126,-0.00116,0.00821
-0.02597,0.96466,0.2622,-0.00238,-0.00182,0.01233
-0.02598,0.96468,0.26215,-0.00492,0.00317,0.01422
-0.02599,0.96469,0.26211,-0.00464,0.0071,0.00995
-0.02596,0.96469,0.26212,-0.004,0.00628,0.00624
-0.02594,0.96468,0.26213,0.00197,0.00262,0.00972
-0.02594,0.9647,0.26207,0.00252,0.00156,0.01152
-0.02594,0.96475,0.2619,-0.00372,0.00515,0.01391
-0.02591,0.96479,0.26175,-0.00739,0.00214,0.00754
-0.02585,0.96482,0.26163,-0.00308,0.00188,0.00801
-0.02579,0.96485,0.26153,-0.00038,0.00047,0.00942
-0.02574,0.96488,0.26141,0.00245,0.00413,0.01289
-0.02566,0.96491,0.26132,0.00116,0.00389,0.01698
-0.0256,0.96493,0.26124,-0.00588,0.00413,0.00994
-0.0255,0.96495,0.26119,-0.00195,-0.00105,0.00744
-0.02544,0.96496,0.26116,0.00047,-0.00111,0.01046
-0.02536,0.96496,0.26117,-0.00065,0.0012,0.01856
-0.02531,0.96495,0.26119,-0.00257,0.00462,0.01507
-0.02528,0.96494,0.26125,0.00113,0.00544,0.00841
-0.02526,0.96493,0.26128,-0.00288,0.00525,0.00454
-0.02524,0.96492,0.26132,-0.00185,0.00311,0.00507
-0.02522,0.96493,0.26129,0.00628,0.00182,0.00922
-0.02515,0.96495,0.26121,0.00412,0.00289,0.00755
-0.02497,0.96498,0.26115,-0.00397,0.00507,0.00491
-0.02481,0.965,0.26106,-0.00678,-0.0006,0.00563
-0.02469,0.96503,0.26098,-0.00519,0.00293,0.01034
-0.0246,0.96504,0.26093,-0.0005,0.002,0.01235
-0.02451,0.96506,0.26086,0.00098,0.00196,0.01154
-0.02439,0.96507,0.26084,-0.00263,0.00363,0.00861
-0.02423,0.96507,0.26087,-0.00741,0.00481,0.01105
-0.02408,0.96504,0.26098,-0.00457,0.00079,0.01064
-0.02398,0.96502,0.26107,-0.00071,-0.00175,0.01347
-0.02388,0.96499,0.2612,0.00704,-0.00454,0.01727
-0.02372,0.9649,0.26155,0.00613,-0.00678,0.02246
-0.02345,0.96473,0.2622,0.0016,-0.00622,0.02636
-0.02315,0.96448,0.26314,-0.00215,0.00566,0.01818
-0.02285,0.96419,0.26423,-0.00528,0.01056,0.0106
-0.02255,0.96391,0.26527,-0.00668,0.01752,-0.00782
-0.02228,0.96375,0.26589,-0.01224,0.0164,-0.00828
-0.02212,0.96373,0.26595,-0.01537,0.01223,-0.00136
-0.02222,0.96385,0.26552,-0.01269,0.00311,0.00444
-0.02253,0.96402,0.26486,0.00332,3e-05,0.01003
-0.02287,0.96415,0.26437,0.01541,-0.00185,0.01414
-0.02312,0.9642,0.26418,0.01898,-0.00253,0.01419
-0.02321,0.96418,0.26423,0.01119,0.00471,0.00907
-0.02307,0.96411,0.26451,0.00196,0.00065,0.0006
-0.02278,0.964,0.26492,-0.004,0.01406,-0.00213
-0.02252,0.96391,0.26527,-0.01393,0.01161,-0.00447
-0.02237,0.96385,0.2655,-0.01215,0.01123,-0.00087
-0.02233,0.96385,0.2655,-0.00787,0.00981,0.00428
-0.02244,0.96393,0.2652,-0.00294,0.00721,0.00738
-0.02255,0.96402,0.26486,0.00438,0.0028,0.00689
-0.02262,0.96408,0.26465,0.00804,0.00066,0.00879
-0.02259,0.96407,0.2647,0.00882,-0.00034,0.01017
-0.02249,0.964,0.26495,0.00842,-0.00074,0.01006
-0.02235,0.96391,0.2653,-0.00063,0.00263,0.00678
-0.0222,0.96384,0.26556,-0.00818,0.0081,0.00276
-0.02208,0.9638,0.26572,-0.00955,0.00825,-0.00048
-0.02206,0.96379,0.26576,-0.00568,0.00701,0.0057
-0.02214,0.9638,0.26569,-4e-05,0.00434,0.01049
-0.02224,0.96381,0.26564,0.00863,0.00097,0.01818
-0.02226,0.96382,0.26563,0.00456,0.00042,0.01983
-0.02219,0.9638,0.26569,-0.00239,0.00037,0.01424
-0.02203,0.96378,0.26578,-0.00255,0.00039,0.01414
-0.02191,0.96376,0.26585,-0.01022,0.00576,0.002
-0.0219,0.96378,0.26581,-0.00386,0.00453,0.00525
-0.02199,0.96379,0.26574,3e-05,0.00132,0.00988
-0.02208,0.9638,0.26569,0.00012,0.00325,0.01373
-0.02208,0.96379,0.26573,-0.00044,0.00874,0.00822
-0.02204,0.9638,0.26572,-0.00015,0.00971,-0.00023
-0.02201,0.96384,0.26556,0.00037,0.00523,0.00488
-0.02197,0.96391,0.26532,-0.0031,-0.00291,0.0211
-0.02192,0.96397,0.26511,-0.00397,-0.00225,0.02134
-0.02187,0.96399,0.26502,-0.00835,0.00083,0.01891
-0.02179,0.96401,0.26497,-0.00608,0.00817,0.00111
-0.02173,0.96405,0.26483,-0.00545,0.0041,0.00202
-0.02171,0.9641,0.26464,-0.00176,0.00241,0.00248
-0.02175,0.96415,0.26448,0.00471,-0.00492,0.02829
-0.02181,0.96416,0.26442,0.00499,-0.00563,0.02892
-0.02174,0.96412,0.26457,0.00346,-0.00256,0.02709
-0.02163,0.96406,0.26479,-0.00539,0.00943,0.00416
-0.02156,0.96402,0.26495,-0.00798,0.00841,-0.00276
-0.02161,0.96404,0.26487,0.00265,-0.00089,0.01241
-0.02174,0.96408,0.26471,0.00326,-0.0017,0.0186
-0.02181,0.96411,0.26461,0.00349,0.00312,0.01813
-0.0218,0.96411,0.26462,-0.0044,0.00539,0.00777
-0.02174,0.9641,0.26466,-0.00661,0.00361,0.00645
-0.02174,0.96412,0.26458,-0.00309,0.00216,0.00837
-0.0218,0.96416,0.26444,0.00062,-0.00181,0.01845
-0.02189,0.96417,0.26437,0.00443,0.00143,0.0194
-0.02193,0.96418,0.26435,0.00116,0.00483,0.01345
-0.02193,0.96417,0.26437,-0.00545,0.00787,-0.00157
-0.02196,0.96421,0.26423,-0.00392,0.00717,-0.00115
-0.02206,0.96426,0.26402,0.00069,0.00389,0.0011
-0.02221,0.96431,0.26383,0.0074,0.00035,0.01278
-0.02226,0.96434,0.26374,0.00134,0.00276,0.01121
-0.02221,0.96433,0.26375,-0.00118,0.00368,0.0063
-0.02216,0.96435,0.2637,-0.00478,0.00852,-0.0032
-0.02211,0.96441,0.2635,-0.00642,0.00531,0.00302
-0.02212,0.9645,0.26316,-0.00257,0.00018,0.01228
-0.02219,0.96461,0.26273,-0.00456,-0.00354,0.01728
-0.0223,0.96469,0.26245,-0.00293,-0.00044,0.01616
-0.0224,0.9647,0.26239,-0.00122,0.00098,0.00488
-0.02251,0.96469,0.26244,-0.00094,0.00248,-0.00164
-0.02265,0.96467,0.2625,0.00091,0.00477,-0.00403
-0.0228,0.96465,0.26255,0.00789,-0.00048,0.00144
-0.02291,0.9646,0.26272,0.00897,0.00679,0.00129
-0.0229,0.96452,0.26302,0.00062,0.01032,-0.00278
-0.02279,0.96443,0.26335,-0.00648,0.01352,-0.00802
-0.02276,0.96437,0.26359,-0.00635,0.00695,-0.00707
-0.02284,0.96432,0.26373,0.00062,0.00888,0.00414
-0.02289,0.9643,0.26382,0.00381,0.00616,0.0114
-0.02289,0.96426,0.26397,0.00284,0.00281,0.01399
-0.02275,0.96421,0.26417,-0.00728,0.00317,0.01102
-0.02254,0.96415,0.26441,-0.01211,-0.00156,0.01373
-0.02242,0.96409,0.26464,-0.01042,-0.00178,0.01951
-0.02238,0.96406,0.26475,-0.00623,-0.00011,0.02637
-0.02239,0.9641,0.26458,-0.00707,-0.00082,0.03028
-0.02248,0.96419,0.26427,-0.01425,-0.00093,0.02574
-0.02267,0.96421,0.26416,-0.00834,-0.0074,0.01592
-0.023,0.96412,0.26446,0.0086,-0.00572,0.00551
-0.02338,0.96392,0.26516,0.02412,0.00105,-0.00389
-0.02357,0.96368,0.26603,0.02335,0.00985,-0.01064
-0.02353,0.96348,0.26676,0.0121,0.01736,-0.01662
-0.02334,0.96335,0.26724,-0.00278,0.01872,-0.01645
-0.0231,0.96328,0.2675,-0.01129,0.01714,-0.00447
-0.02291,0.96331,0.26741,-0.01209,0.00979,0.00762
-0.02285,0.9634,0.2671,-0.00847,0.00461,0.01523
-0.02287,0.96351,0.2667,-0.01068,0.0015,0.02237
-0.02291,0.96362,0.26629,-0.00846,0.00071,0.02021
-0.02298,0.96371,0.26594,-0.00281,-0.00507,0.01573
-0.02303,0.96378,0.26571,0.00331,-0.00914,0.01821
-0.02307,0.96378,0.2657,0.00526,-0.01267,0.02231
-0.02305,0.96372,0.26591,-0.00011,-0.00295,0.01848
-0.02298,0.96362,0.2663,-0.00488,0.00371,0.01028
-0.0229,0.9635,0.26674,-0.0017,0.00979,0.00224
-0.02284,0.96341,0.26703,0.00381,0.00901,0.00302
-0.02282,0.9634,0.26707,0.00616,0.00513,0.01584
-0.02287,0.96344,0.26693,0.00263,0.00221,0.02259
-0.02288,0.96349,0.26675,-0.0034,0.00045,0.01897
-0.0229,0.96353,0.26662,-0.00822,0.0017,0.0118
-0.02293,0.96355,0.26655,-0.00421,-0.00218,0.01035
-0.023,0.96354,0.26658,0.00241,-0.00193,0.01826
-0.023,0.9635,0.2667,-0.00113,-0.00072,0.01969
-0.02287,0.96346,0.26686,-0.01103,0.00295,0.00897
-0.02273,0.96345,0.26691,-0.01157,0.00647,0.00116
-0.0227,0.96348,0.26681,-0.00573,0.00718,0.00562
-0.02276,0.96351,0.26669,0.0053,0.00261,0.01386
-0.02285,0.96355,0.26656,0.00814,0.0038,0.01443
-0.02286,0.96357,0.26648,0.00525,0.00373,0.00976
-0.02281,0.96358,0.26644,-0.00281,0.00372,0.00759
-0.02274,0.9636,0.26638,-0.00468,0.00443,0.005
-0.02269,0.96362,0.2663,0.0017,-0.00116,0.01589
-0.02267,0.96364,0.26625,0.00271,-0.00035,0.01843
-0.02263,0.96364,0.26625,-0.00237,-0.00079,0.01994
-0.02254,0.96362,0.26633,-0.00795,-0.0035,0.0189
-0.02243,0.96357,0.26649,-0.00805,-0.00346,0.01874
-0.02236,0.9635,0.26677,-0.00067,0.00075,0.01655
-0.02229,0.9634,0.26715,0.00499,0.00338,0.01223
-0.02226,0.9633,0.26749,0.00393,0.00835,0.01013
-0.02219,0.96324,0.26773,-0.00158,0.00882,0.00532
-0.02213,0.9632,0.26788,-0.00895,0.01002,0.00392
-0.0221,0.96318,0.26795,-0.00681,0.00826,0.00157
-0.02214,0.96319,0.26792,0.00244,0.00688,0.00032
-0.02221,0.96322,0.26779,0.00692,0.00666,0.00397
-0.02229,0.96329,0.26754,0.00881,0.00621,0.00596
-0.02234,0.96337,0.26725,0.00548,0.00573,0.00807
-0.02231,0.96346,0.26692,-0.00618,0.00293,0.01044
-0.02228,0.96353,0.26666,-0.00634,0.00033,0.00938
-0.02228,0.96358,0.26649,-0.00262,-0.00136,0.01266
-0.0223,0.9636,0.26642,-0.00035,-0.00089,0.01001
-0.02234,0.96362,0.26635,-0.00094,0.00806,0.00593
-0.02239,0.96366,0.26619,-0.00395,0.0046,0.00218
-0.02249,0.96373,0.26593,-0.00163,0.00389,0.00064
-0.02257,0.96378,0.26575,0.00595,-0.00335,0.0047
-0.02262,0.9638,0.26568,0.01015,0.00074,0.01109
-0.02264,0.96381,0.26562,0.00271,0.00625,0.01177
-0.02266,0.96382,0.26559,-0.00196,0.0069,0.00765
-0.0227,0.96384,0.26552,-0.00309,0.00798,-0.00097
-0.02275,0.96386,0.26543,-0.00313,0.00445,0.00305
-0.02284,0.96387,0.26539,0.0013,-0.0046,0.00817
-0.02292,0.96388,0.26535,0.0017,0.00246,0.01689
-0.02293,0.96387,0.26538,-0.003,0.00885,0.00735
-0.02289,0.96387,0.2654,-0.00737,0.00609,0.00093
-0.02289,0.96388,0.26533,-0.00378,0.00322,0.00409
-0.02296,0.96392,0.26518,-0.00208,0.002,0.00615
-0.02306,0.96395,0.26506,0.00489,0.00089,0.01129
-0.02313,0.96397,0.26499,0.00197,0.00253,0.00842
-0.02318,0.964,0.26488,-0.00114,0.00652,0.0063
-0.02321,0.96403,0.2648,-0.00497,0.00477,0.00338
-0.02326,0.96404,0.26472,-0.00379,-0.00028,0.00727
-0.02334,0.96404,0.26475,0.00398,-0.00134,0.01336
-0.02338,0.96401,0.26482,0.00244,0.00281,0.01302
-0.02339,0.96399,0.26491,-0.00414,0.00687,0.00905
-0.0234,0.96396,0.265,-0.00889,0.00544,0.0036
-0.02343,0.96395,0.26504,-0.00535,0.00248,0.00498
-0.02351,0.96392,0.26514,0.00245,-0.00144,0.0137
-0.02356,0.96388,0.26529,0.00536,0.00046,0.01461
-0.02357,0.96382,0.2655,0.00081,0.00432,0.00898
-0.02354,0.96379,0.26561,-0.00576,0.00554,0.00771
-0.02353,0.96378,0.26564,-0.00476,0.00579,0.00599
-0.02356,0.96377,0.26568,0.00166,0.00313,0.01079
-0.02359,0.96375,0.26576,0.00353,-7e-05,0.01422
-0.02361,0.96372,0.26586,0.00051,0.00054,0.01288
-0.02357,0.96371,0.26592,-0.0039,0.00167,0.01391
-0.02356,0.9637,0.26593,-0.00456,0.00251,0.00677
-0.02356,0.96369,0.26599,-0.00139,0.00265,0.00823
-0.02358,0.96365,0.26613,0.00125,0.00235,0.01003
-0.0236,0.9636,0.26629,0.0034,0.00396,0.00923
-0.02361,0.96357,0.26639,0.00406,0.00461,0.00924
-0.0236,0.96357,0.26641,0.00405,0.00461,0.00923
-0.02358,0.96357,0.26641,-0.00041,-1e-05,0.00659
-0.02359,0.96356,0.26647,-0.00322,0.00284,0.01131
-0.0236,0.96353,0.26656,-0.00211,0.00318,0.01272
-0.02364,0.96351,0.26663,-0.0015,0.0004,0.01386
-0.02363,0.9635,0.26668,-0.00339,0.00315,0.01263
-0.02362,0.96348,0.26673,-0.00851,0.00274,0.00863
-0.02362,0.96346,0.2668,-0.00299,0.00289,0.00477
-0.02367,0.96345,0.26684,0.00624,0.00277,0.00795
-0.02369,0.96343,0.26693,0.0039,0.00314,0.01101
-0.02369,0.9634,0.26702,0.00312,0.00485,0.01327
-0.02368,0.96338,0.26709,-0.00231,0.00406,0.00513
-0.02362,0.96338,0.26709,-0.00303,0.00236,0.00389
-0.0236,0.96339,0.26705,-0.00325,0.00234,0.00574
-0.02362,0.96338,0.26709,0.00212,-0.00188,0.01826
-0.02363,0.96335,0.2672,0.00105,-9e-05,0.02174
-0.02361,0.9633,0.26739,-0.00343,-0.00132,0.01826
-0.02354,0.96322,0.26766,-0.00559,-0.00122,0.01319
-0.02349,0.96314,0.26797,-0.00123,0.00262,0.01298
-0.02348,0.96304,0.26832,0.00043,0.00612,0.00879
-0.0235,0.96296,0.26863,-0.00107,0.00967,0.00113
-0.02356,0.96294,0.26869,-0.00392,0.0106,0.00109
-0.02368,0.96294,0.26866,-0.00213,0.00666,0.00363
-0.02381,0.96296,0.26859,0.00202,0.00489,0.00497
-0.02393,0.96298,0.26852,0.00373,0.00219,0.00725
-0.02398,0.96296,0.26856,0.00294,0.00068,0.00695
-0.02403,0.96295,0.26859,-0.00355,0.00441,0.00573
-0.02408,0.96294,0.26864,-0.00313,0.00624,0.01086
-0.02414,0.96293,0.26867,0.0002,0.00677,0.0089
-0.0242,0.96291,0.26872,0.00099,0.0039,0.00873
-0.02423,0.96288,0.26883,-0.00014,0.00131,0.00887
-0.02427,0.96285,0.26893,-0.00227,0.00274,0.00737
-0.02434,0.96284,0.26897,-0.00123,0.00181,0.00746
-0.02442,0.96283,0.26899,-0.00056,0.00387,0.01175
-0.0245,0.96282,0.26902,-0.00234,0.00391,0.01014
-0.02452,0.96278,0.26915,-0.00023,0.00034,0.01081
-0.02456,0.96273,0.26936,0.00178,-0.00072,0.00988
-0.02458,0.96267,0.26956,0.00099,0.00335,0.0078
-0.02461,0.96263,0.26968,-0.00301,0.00519,0.0116
-0.02465,0.96261,0.26976,-0.00466,0.00548,0.01005
-0.02473,0.96259,0.26982,-0.00124,0.00391,0.01084
-0.0248,0.96256,0.26992,-0.00441,-0.00222,0.01196
-0.0249,0.96253,0.27003,-0.00199,-0.00039,0.01198
-0.02498,0.9625,0.27012,-0.00128,0.0017,0.01444
-0.02503,0.96247,0.27021,0.00124,0.00371,0.01249
-0.02503,0.96243,0.27037,7e-05,0.00356,0.00964
-0.02502,0.96238,0.27056,-0.00406,0.00241,0.00863
-0.02508,0.96234,0.2707,0.00242,0.00197,0.0096
-0.02511,0.96233,0.27071,0.00254,0.00449,0.01151
-0.02513,0.96234,0.27068,-0.00346,0.00351,0.01654
-0.02514,0.96236,0.2706,-0.00641,0.00306,0.01192
-0.0252,0.9624,0.27046,-0.00071,-0.00127,0.01701
-0.02532,0.96244,0.27032,0.00254,-0.00292,0.01787
-0.02544,0.96242,0.27036,0.00412,0.00093,0.01128
-0.02556,0.96236,0.27059,-0.00071,-0.00035,0.00714
-0.02559,0.96225,0.27095,0.00104,0.00224,0.00061
-0.02559,0.96216,0.27128,0.00383,0.01341,-0.00505
-0.02558,0.96211,0.27144,0.00432,0.01008,-0.00344
-0.02554,0.96213,0.2714,0.0038,0.01143,0.0027
-0.02539,0.96221,0.27112,-0.01238,0.00288,0.02269
-0.02532,0.96236,0.27061,-0.01193,-0.00258,0.01904
-0.02541,0.96251,0.27007,-0.00447,-0.00032,0.02276
-0.02558,0.9626,0.26971,0.00427,-0.00493,0.02216
-0.02585,0.96261,0.26967,0.01175,-0.00847,0.01785
-0.02596,0.96254,0.26991,0.01011,-0.00404,0.01831
-0.0259,0.96243,0.2703,0.00494,0.00113,0.01321
-0.02576,0.9623,0.27076,-0.00123,0.00715,0.00474
-0.02563,0.9622,0.27113,-0.00549,0.01419,-0.00955
-0.02558,0.96218,0.27121,-0.00077,0.01033,-0.00216
-0.02564,0.9622,0.27112,0.00189,0.0087,0.00522
-0.02571,0.96226,0.27092,0.00194,0.00187,0.01961
-0.02579,0.96229,0.27079,-0.00142,-0.00125,0.01582
-0.02574,0.9623,0.27078,-0.00278,-0.00093,0.01101
-0.02567,0.96227,0.27087,-0.00065,-0.00256,0.01274
-0.02562,0.96224,0.27098,0.00119,-0.00304,0.01681
-0.02565,0.9622,0.27113,-0.00032,-0.00174,0.01637
-0.02564,0.96213,0.27138,-0.00362,0.0031,0.01048
-0.02562,0.96205,0.27166,-0.00779,0.00035,0.00609
-0.02567,0.962,0.27182,0.00085,0.00366,0.00501
-0.02577,0.96199,0.27187,0.01333,0.00142,0.01211
-0.02583,0.96197,0.27194,0.01148,0.00327,0.0146
-0.02575,0.9619,0.27219,-0.00591,0.00679,0.01109
-0.02561,0.96183,0.27246,-0.01437,0.00972,0.00613
-0.02551,0.9618,0.27255,-0.01201,0.00832,0.0042
-0.02552,0.96186,0.27235,-0.00294,0.00097,0.00958
-0.02561,0.9619,0.2722,0.00329,-0.00447,0.01218
-0.02569,0.96191,0.27216,0.00231,-0.00111,0.01008
-0.02572,0.96189,0.27223,0.00243,-0.00025,0.00883
-0.02568,0.96189,0.27223,-0.00171,0.00187,0.00573
-0.02561,0.96192,0.27213,-0.00207,0.00357,0.01443
-0.02552,0.96195,0.27204,0.0002,0.00369,0.01733
-0.02538,0.96196,0.27201,-0.00051,0.00139,0.01795
-0.02524,0.96198,0.27196,0.00426,0.00209,0.01988
-0.02512,0.96199,0.27192,0.00246,0.00061,0.01648
-0.02499,0.96199,0.27193,0.00175,-0.00053,0.01147
-0.02485,0.96199,0.27196,0.00468,-0.00097,0.01144
-0.02474,0.96199,0.27196,0.00189,0.00086,0.01428
-0.0246,0.96202,0.27185,-0.00038,0.00039,0.01621
-0.02448,0.96207,0.27169,-0.00643,0.00312,0.01356
-0.02439,0.96212,0.27153,-0.00869,0.00141,0.01795
-0.0244,0.96215,0.27141,0.00044,-0.00407,0.01621
-0.02443,0.96218,0.2713,0.01059,0.00121,0.01716
-0.02443,0.96223,0.27114,0.00987,0.00216,0.0199
-0.02438,0.96229,0.27093,0.00684,0.00449,0.01843
-0.02426,0.96235,0.27071,-0.00871,0.00392,0.01556
-0.02417,0.96242,0.27048,-0.00714,-0.00379,0.01616
-0.02413,0.96249,0.27024,-0.00415,-0.00206,0.0159
-0.02414,0.96257,0.26997,-0.00204,8e-05,0.01778
-0.02414,0.96264,0.2697,-0.00271,0.00089,0.0159
-0.0241,0.9627,0.26948,-0.00048,6e-05,0.01409
-0.02407,0.96275,0.26932,0.00419,-0.00471,0.01606
-0.024,0.96275,0.26932,0.00325,-0.00435,0.02153
-0.02391,0.96271,0.26949,0.00098,-0.00244,0.01942
-0.02381,0.96263,0.26976,-0.00024,-0.00461,0.01313
-0.02369,0.96255,0.27005,0.00041,0.00232,0.01223
-0.02358,0.96245,0.27045,-0.00301,0.00493,0.01265
-0.02349,0.96234,0.27085,-0.00453,0.00564,0.01124
-0.02343,0.96224,0.27119,-0.00182,0.00364,0.01144
-0.02339,0.96216,0.27147,-6e-05,0.00242,0.01347
-0.02334,0.9621,0.27171,-0.00221,0.00647,0.01162
-0.02334,0.96205,0.27188,-0.00604,0.00798,0.00952
-0.02338,0.96203,0.27196,-0.00779,0.00753,0.0024
-0.02354,0.96203,0.27193,-0.00431,0.01005,0.00297
-0.02373,0.96205,0.27185,0.00287,0.00312,0.00571
-0.02396,0.96206,0.27177,0.00851,0.00223,0.01038
-0.02412,0.96209,0.27167,0.00657,0.00559,0.0154
-0.0242,0.9621,0.27161,0.0003,0.00549,0.00918
-0.02423,0.96212,0.27155,-0.00502,0.01083,-0.00095
-0.02427,0.96214,0.27146,-0.00477,0.00935,-0.01044
-0.02436,0.96219,0.27127,-0.00021,0.00407,-0.00852
-0.02456,0.96229,0.27093,0.00348,0.00525,0.00223
-0.02482,0.96241,0.27044,0.00502,0.00279,0.01092
-0.02499,0.96253,0.27001,0.00252,0.00343,0.00967
-0.02504,0.9626,0.26977,0.0011,0.00533,0.00629
-0.02502,0.96262,0.2697,-0.00081,0.00354,0.0003
-0.02512,0.96265,0.26957,0.00027,0.00259,0.00411
-0.02529,0.96275,0.26921,0.00166,0.00261,0.00997
-0.02538,0.96288,0.26874,-0.00222,0.00545,0.01795
-0.02547,0.96302,0.26823,-0.009,0.00668,0.0101
-0.02562,0.96315,0.26774,-0.00933,0.00208,0.00668
-0.02589,0.96323,0.26743,-0.00092,-0.00058,0.0045
-0.02621,0.96326,0.26729,0.01153,-0.0073,0.01334
-0.02647,0.96327,0.26724,0.01375,-0.00012,0.01608
-0.02658,0.96324,0.26732,0.00502,0.01056,0.00903
-0.02656,0.96319,0.26752,-0.00481,0.00941,-0.00457
-0.0265,0.96311,0.2678,-0.00342,0.00764,-0.00335
-0.02656,0.96306,0.26796,-3e-05,0.00434,-0.00029
-0.02671,0.9631,0.26782,0.00258,0.00613,0.00853
-0.02682,0.96322,0.26737,-0.00341,0.00776,0.01657
-0.02682,0.96338,0.26681,-0.00849,0.00966,0.02111
-0.02675,0.96352,0.2663,-0.00937,0.00267,0.02298
-0.02671,0.96365,0.26583,-0.00125,-0.00697,0.02624
-0.02672,0.96378,0.26534,-0.00107,-0.00529,0.02274
-0.02675,0.96392,0.26484,-0.00206,-0.00503,0.02058
-0.02679,0.96402,0.26448,0.00119,0.0004,0.01932
-0.0268,0.96405,0.26436,0.00719,-0.00298,0.01664
-0.02677,0.96401,0.26449,0.00988,-0.00497,0.01447
-0.02671,0.96396,0.2647,0.00766,-0.00029,0.00925
-0.02662,0.96391,0.26488,0.00108,0.00357,0.0076
-0.02652,0.96388,0.26503,-0.00145,0.00629,0.00684
-0.02644,0.96384,0.26517,-0.00244,0.00233,0.01125
-0.02643,0.9638,0.26532,-0.00179,-0.00149,0.0186
-0.0265,0.96377,0.2654,-0.00095,0.00467,0.02047
-0.02651,0.96377,0.26541,-0.00396,0.00039,0.02483
-0.02643,0.96378,0.26538,-0.00903,0.00027,0.02323
-0.02629,0.96378,0.26539,-0.0132,0.00158,0.02195
-0.02618,0.96376,0.26547,-0.01215,0.00111,0.01933
-0.0262,0.96377,0.26544,-0.00875,0.00296,0.01186
-0.02629,0.96383,0.2652,-0.00432,0.00263,0.01761
-0.02637,0.9639,0.26495,-0.0008,0.00073,0.02005
-0.02642,0.96395,0.26477,0.00282,0.00074,0.01963
-0.02638,0.96394,0.26479,0.00492,0.004,0.01351
-0.02639,0.96391,0.26492,0.00453,0.00087,0.0069
-0.02644,0.9639,0.26497,0.00306,0.00312,0.00864
-0.02648,0.96385,0.26511,0.00464,0.00464,0.01086
-0.02645,0.96376,0.26545,0.001,0.0101,0.00879
-0.02636,0.96365,0.26585,0.00081,0.01262,-0.00129
-0.02628,0.96361,0.26601,0.00365,0.00627,-0.00078
-0.02624,0.96369,0.26572,-0.00173,-0.00028,0.00885
-0.02621,0.96386,0.2651,-0.01699,-0.00103,0.03567
-0.02624,0.96401,0.26457,-0.0158,-0.00466,0.03836
-0.02624,0.96409,0.26427,-0.01461,-0.00485,0.03402
-0.02617,0.96414,0.26408,0.00254,0.003,0.02164
-0.02606,0.96422,0.26382,0.00671,0.00179,0.0232
-0.02596,0.96437,0.26328,0.00792,-0.00569,0.02531
-0.02601,0.9646,0.26242,0.00935,-0.0055,0.03522
-0.02611,0.96489,0.26136,0.00833,-0.00755,0.03922
-0.0262,0.96514,0.26041,0.01294,-0.01188,0.03723
-0.02627,0.96532,0.25974,0.01648,-0.01708,0.02804
-0.02631,0.96542,0.25938,0.01327,-0.01267,0.02178
-0.02638,0.96545,0.25925,0.0069,-0.00624,0.01236
-0.02647,0.96543,0.25931,0.00201,0.00555,0.00257
-0.02655,0.96533,0.25967,0.00292,0.0099,-0.00374
-0.0266,0.96521,0.26011,0.0002,0.0169,-0.00396
-0.02665,0.96511,0.26048,-0.00581,0.01722,-0.00833
-0.02675,0.96505,0.26069,-0.01008,0.01952,-0.01663
-0.02682,0.96504,0.26073,-0.01172,0.02187,-0.02132
-0.02692,0.96507,0.26059,-0.01094,0.01814,-0.0201
-0.02709,0.96515,0.26031,-0.00831,0.01293,-0.01632
-0.02728,0.96521,0.26004,0.00726,0.0041,-0.00412
-0.02738,0.96523,0.25996,0.01185,0.00143,0.00304
-0.02735,0.9652,0.26007,0.0051,0.00218,0.01105
-0.02713,0.96511,0.26041,-0.00647,0.00081,0.00631
-0.0267,0.96495,0.26107,-0.00998,0.00821,0.00166
-0.0263,0.96474,0.26187,-0.0082,0.00924,-0.00519
-0.02603,0.96457,0.26255,-0.00563,0.00759,-0.00585
-0.02595,0.96447,0.26292,0.00313,0.00306,0.00231
-0.02592,0.96445,0.26298,0.0055,0.0032,0.01519
-0.02587,0.96449,0.26286,0.00164,0.00588,0.02436
-0.02577,0.96451,0.26279,-0.00659,0.00917,0.02217
-0.02563,0.96451,0.26279,-0.00959,0.00696,0.01626
-0.02552,0.96451,0.26281,-0.01076,-0.00151,0.0175
-0.02554,0.96455,0.26267,-0.00767,-0.00254,0.02211
-0.02569,0.96466,0.26223,-0.00535,-0.00318,0.02545
-0.0259,0.96482,0.26164,-0.0076,0.00225,0.02447
-0.02597,0.96496,0.26111,-0.00514,0.00065,0.02274
-0.02593,0.96503,0.26083,0.00139,-0.00542,0.02071
-0.02581,0.96505,0.26078,0.00886,-0.00205,0.0198
-0.02569,0.96509,0.26067,0.00712,0.00246,0.01417
-0.02552,0.96516,0.26042,-0.00026,0.00536,0.01198
-0.02526,0.96526,0.26004,-0.00636,0.01249,0.00799
-0.02499,0.96538,0.25963,-0.01059,0.0106,0.00501
-0.02488,0.96555,0.25901,-0.00477,0.00602,0.00328
-0.0249,0.96583,0.25796,-0.00334,0.00661,0.00658
-0.02503,0.96621,0.25652,-0.0126,0.01253,0.01954
-0.0252,0.96667,0.25477,-0.01284,0.01383,0.01962
-0.02541,0.96715,0.25291,-0.01303,0.01121,0.01836
-0.02565,0.96769,0.25082,-0.00118,-0.00689,0.02063
-0.02597,0.96829,0.24848,0.00208,-0.01258,0.02567
-0.02627,0.96881,0.24638,0.00384,-0.00995,0.03403
-0.02644,0.96922,0.24476,0.01356,-0.0018,0.02088
-0.0265,0.96953,0.24352,0.01565,-0.00087,0.01687
-0.02652,0.9698,0.24243,0.01698,-0.00069,0.0125
-0.02658,0.97006,0.24139,0.01699,-0.00975,0.02222
-0.02662,0.97026,0.24057,0.01172,-0.01166,0.02899
-0.02656,0.97034,0.24026,0.00966,-0.01203,0.03474
-0.02642,0.9703,0.24043,0.00023,-0.0068,0.03488
-0.02632,0.9702,0.24086,-0.00278,-0.0036,0.03362
-0.02625,0.97008,0.24137,-0.00331,-0.0041,0.03324
-0.02618,0.96997,0.24181,-0.00249,0.00464,0.01585
-0.0261,0.96987,0.2422,-0.00258,0.00474,0.01546
-0.02602,0.9698,0.24249,-0.00199,0.00258,0.01904
-0.02597,0.96974,0.24276,0.00179,-0.0028,0.02259
-0.02586,0.96965,0.2431,0.00165,-0.00566,0.0242
-0.02565,0.96955,0.24354,0.00217,-0.00457,0.03248
-0.02539,0.96942,0.24409,-0.00491,-0.00123,0.02827
-0.02513,0.96925,0.24476,-0.00468,0.00111,0.02234
-0.02488,0.96908,0.2455,-0.0006,-0.0044,0.02072
-0.02462,0.96888,0.2463,-0.00035,-0.00808,0.02913
-0.02435,0.96866,0.24719,-0.00176,-0.00635,0.03165
-0.02409,0.96841,0.2482,-0.00751,-0.00137,0.02103
-0.02379,0.96811,0.24938,-0.00963,0.007,0.00822
-0.02355,0.96781,0.25056,-0.00919,0.00596,0.00778
-0.02346,0.96756,0.25154,-0.0078,0.00227,0.00507
-0.02349,0.96737,0.25228,0.00182,0.00385,0.01671
-0.02355,0.96722,0.25283,0.0046,0.00624,0.01684
-0.0236,0.96708,0.25337,0.00338,0.00735,0.01331
-0.02359,0.96693,0.25396,-0.00538,0.0102,0.00843
-0.02356,0.96677,0.25456,-0.00656,0.00519,0.00503
-0.02364,0.96662,0.25511,-0.00488,0.00492,0.00359
-0.02378,0.96651,0.25551,-0.00285,0.00451,0.00498
-0.02394,0.96645,0.25573,-0.00172,0.01033,0.00541
-0.0241,0.9664,0.25589,-0.0065,0.01028,0.00667
-0.02419,0.96636,0.25604,-0.00982,0.00642,0.00202
-0.02428,0.96632,0.25619,-0.00455,0.00225,0.00127
-0.02446,0.96628,0.25633,0.00235,0.00035,0.01031
-0.02472,0.96626,0.25636,0.00448,0.00622,0.01664
-0.02493,0.96626,0.25634,0.00334,0.00737,0.01278
-0.02506,0.96622,0.25648,0.001,0.01534,-0.00051
-0.02504,0.96615,0.25674,-0.00241,0.01171,-0.00488
-0.02492,0.96608,0.25704,-0.00035,0.00813,-0.00702
-0.02482,0.96605,0.25716,0.00207,0.00798,-0.00414
-0.02482,0.9661,0.25698,0.00023,0.01001,0.00042
-0.02485,0.96618,0.25665,-0.00526,0.01079,-0.00027
-0.02491,0.96627,0.25631,-0.00392,0.007,0.00098
-0.02502,0.96631,0.25615,0.00695,-0.00023,0.0052
-0.02514,0.96631,0.25612,0.01462,-0.00283,0.00857
-0.02525,0.96632,0.25611,0.01083,0.00039,0.01768
-0.02519,0.96628,0.25623,-0.00303,0.00434,0.0115
-0.02499,0.96621,0.25655,-0.00906,0.0086,0.00454
-0.02482,0.96612,0.25688,-0.01103,0.00887,-0.00473
-0.02483,0.96605,0.25713,-0.00187,0.00387,0.00344
-0.02501,0.96604,0.25719,0.00517,0.00314,0.01563
-0.02525,0.96607,0.25705,0.00219,0.00465,0.01776
-0.02533,0.96606,0.25706,-0.00082,0.00563,0.01143
-0.02528,0.96604,0.25715,-0.00121,0.00411,0.00658
-0.02519,0.966,0.2573,0.00158,-0.00345,0.00912
-0.02517,0.96597,0.25742,0.00165,-0.00249,0.01607
-0.02515,0.96595,0.25748,-0.00111,0.0008,0.01884
-0.0251,0.96593,0.25758,-0.00694,0.00433,0.01667
-0.02501,0.9659,0.2577,-0.00887,0.00691,0.012
-0.02492,0.96586,0.25785,-0.00769,0.00415,0.00904
-0.02491,0.96583,0.25798,0.00598,-0.00211,0.00893
-0.02497,0.96581,0.25806,0.00754,-0.0043,0.01715
-0.02498,0.96579,0.25813,0.00495,-0.00078,0.02398
-0.02495,0.96573,0.25834,-0.00704,0.00423,0.01308
-0.0249,0.96565,0.25863,-0.00604,0.00564,0.0042
-0.0249,0.96557,0.25894,-0.00147,0.00477,0.00495
-0.02498,0.96551,0.25918,0.00346,0.00216,0.01353
-0.02507,0.96545,0.25937,0.00065,0.00171,0.01772
-0.02511,0.96539,0.2596,-0.00264,0.00513,0.01263
