gravity.x,gravity.y,gravity.z,userAcceleration.x,userAcceleration.y,userAcceleration.z
0.1588,0.9708,0.17966,-0.00705,0.04998,0.10281
0.15107,0.96183,0.22805,-0.02446,0.13494,-0.12385
0.14257,0.95227,0.26982,0.0772,0.17636,-0.08705
0.13458,0.94336,0.30315,0.07166,0.21108,-0.21621
0.12793,0.93413,0.33314,0.0406,0.11369,-0.09369
0.12173,0.92599,0.35731,0.02291,0.07549,-0.06511
0.11422,0.92,0.37484,0.0133,0.04909,-0.11366
0.10481,0.91663,0.38569,0.02317,0.00255,-0.09855
0.09468,0.91619,0.38933,0.03746,-0.06052,-0.09519
0.0853,0.91816,0.38685,0.03611,-0.14643,-0.10072
0.07741,0.92151,0.38049,0.01083,-0.21199,-0.12235
0.0706,0.92563,0.37173,0.02436,-0.2189,-0.124
0.0647,0.93007,0.36156,0.03876,-0.21105,-0.14015
0.06023,0.93431,0.35127,0.06279,-0.20576,-0.1318
0.05769,0.93869,0.33983,0.0962,-0.17501,-0.08895
0.05668,0.94358,0.32617,0.09398,-0.1542,-0.07299
0.05718,0.94846,0.31161,0.05009,-0.07102,-0.04159
0.05845,0.95277,0.29794,0.01078,0.087,0.00489
0.05903,0.95621,0.28659,-0.04229,0.24727,0.07878
0.05784,0.95867,0.2785,-0.05438,0.295,0.13266
0.0543,0.95983,0.2752,-0.02061,0.23439,0.15934
0.05155,0.95932,0.27749,0.00671,0.1006,0.12027
0.05375,0.95699,0.28502,0.08889,0.01713,0.07398
0.05975,0.95297,0.29702,0.2583,-0.11699,0.07661
0.06774,0.94858,0.30911,0.26411,-0.1572,0.05175
0.07811,0.94457,0.31879,0.23413,-0.1554,-0.06667
0.09107,0.94028,0.3279,0.07432,-0.14855,-0.14529
0.10506,0.93627,0.33511,0.05644,-0.09939,-0.08424
0.11849,0.93483,0.33466,0.12741,-0.05399,-0.17479
0.1326,0.93557,0.32723,0.17442,-0.05506,-0.19147
0.14908,0.93747,0.31444,0.25641,-0.07829,-0.1852
0.1673,0.94022,0.29657,0.22694,-0.0504,-0.16955
0.18478,0.9439,0.2736,0.16367,-0.05593,-0.12912
0.19936,0.9483,0.24684,0.12943,-0.047,-0.11052
0.20726,0.95385,0.21716,0.09367,0.0239,-0.01712
0.20829,0.96013,0.18635,0.09813,0.05649,0.08818
0.2098,0.965,0.15718,0.13327,0.05656,0.20154
0.21257,0.96803,0.13298,0.17637,0.17992,0.31157
0.215,0.9694,0.11826,0.0244,0.12923,0.27988
0.21603,0.97035,0.10822,-0.04825,0.08338,0.3295
0.21384,0.97258,0.09117,0.10801,0.02296,0.22274
0.2122,0.97421,0.07642,0.37923,-0.03809,-0.1023
0.21334,0.97439,0.07084,0.34165,0.00201,-0.19594
0.21791,0.97381,0.06459,-0.03531,0.02462,0.01971
0.22266,0.97316,0.0578,-0.35439,0.05127,0.27788
0.22708,0.97252,0.05095,-0.3809,0.05749,0.26452
0.22992,0.97208,0.0465,-0.20013,0.00207,0.03523
0.22991,0.97225,0.04277,-0.06804,-0.01072,-0.05336
0.22687,0.97329,0.03466,-0.00554,-0.03809,-0.05154
0.22401,0.97428,0.02376,0.11823,-0.0494,-0.03595
0.22266,0.97481,0.01095,0.05068,-0.0293,-0.12549
0.22231,0.97494,-0.00542,-0.00321,-0.03427,-0.11595
0.22287,0.97455,-0.02336,-0.00569,-0.0656,-0.00801
0.22509,0.97368,-0.03519,-0.06095,-0.08014,0.15804
0.22891,0.97271,-0.03727,-0.04854,-0.0159,0.30514
0.23313,0.97168,-0.03804,-0.0399,-0.00725,0.22072
0.23863,0.9703,-0.03926,-0.10566,0.07087,-0.07025
0.24257,0.9694,-0.03717,-0.198,0.13521,-0.2129
0.24206,0.96968,-0.03312,-0.2835,0.11518,-0.06804
0.23726,0.9709,-0.03179,-0.26529,0.09198,0.09526
0.23009,0.97258,-0.03328,-0.22153,0.06667,0.02699
0.22382,0.97401,-0.03427,-0.17481,0.04491,0.00226
0.21837,0.97516,-0.0366,-0.17563,0.0667,0.03231
0.21243,0.97632,-0.04046,-0.16268,0.05159,0.03834
0.20604,0.97742,-0.04641,-0.14009,0.01333,0.01638
0.20007,0.97826,-0.05424,-0.10902,-0.00232,-0.03037
0.19355,0.97909,-0.06225,-0.06211,0.0622,-0.10046
0.18603,0.98015,-0.06825,-0.07707,0.01477,-0.06117
0.17947,0.98121,-0.07063,0.00321,-0.0158,0.04092
0.17473,0.98209,-0.07028,0.18547,-0.05011,0.04737
0.17173,0.98277,-0.06805,0.18177,-0.05528,0.02905
0.1689,0.98333,-0.06704,0.07685,-0.02015,0.00081
0.16554,0.98383,-0.06807,-0.01446,0.01649,0.00122
0.16352,0.9842,-0.06761,-0.07257,0.01556,0.02842
0.16181,0.98466,-0.06505,-0.08296,0.02844,0.00528
0.1601,0.98513,-0.06198,-0.07787,0.0447,-0.01674
0.15785,0.98566,-0.0594,-0.08285,0.03681,-0.03624
0.15567,0.98623,-0.05548,-0.07573,0.02559,-0.06835
0.15341,0.98683,-0.05099,-0.02896,0.02682,0.00851
0.15045,0.98738,-0.04905,-0.00288,-0.01126,0.01346
0.14737,0.98793,-0.04726,0.02081,-0.00108,-0.04429
0.14547,0.98832,-0.04498,0.02076,0.00906,-0.04615
0.1443,0.98861,-0.04228,0.01396,0.00982,-0.05032
0.14374,0.98881,-0.03949,-0.03034,-0.00368,-0.06121
0.14336,0.98893,-0.03776,-0.04845,-0.01803,-0.06361
0.1428,0.98904,-0.03686,-0.04448,-0.007,-0.05125
0.14171,0.98922,-0.03646,-0.01343,0.00215,-0.02083
0.14009,0.98943,-0.03676,0.05012,0.00341,0.03834
0.13899,0.9896,-0.03644,0.06346,-0.00159,0.07194
0.13843,0.98973,-0.03497,0.0586,0.00129,0.08432
0.13808,0.98984,-0.03318,0.04998,-0.00339,0.10696
0.13834,0.98987,-0.03133,0.04918,-0.02348,0.10083
0.13878,0.98983,-0.03044,0.05401,-0.01521,0.09521
0.1397,0.98972,-0.03004,0.05665,0.0077,0.10448
0.1406,0.98959,-0.02994,0.02963,0.0247,0.10388
0.14059,0.98954,-0.03176,0.03168,0.01246,0.10369
0.14085,0.98942,-0.03419,0.03045,0.00261,0.04607
0.14184,0.98921,-0.03617,0.0223,-0.01309,0.00805
0.14315,0.98893,-0.03866,0.01368,-0.0042,0.02654
0.1454,0.98856,-0.03973,-0.02589,0.00824,0.02984
0.14775,0.98815,-0.0412,-0.05668,0.00557,-0.03063
0.15,0.98775,-0.04255,-0.06542,0.00547,-0.05378
0.15226,0.98738,-0.04324,-0.07589,0.02618,-0.05094
0.15366,0.98718,-0.04272,-0.0689,0.05733,-0.01531
0.1542,0.98714,-0.04177,-0.06062,0.06502,-0.00883
0.15339,0.98723,-0.04255,-0.02777,0.04446,-0.01765
0.15289,0.98729,-0.04298,-0.02175,-0.02155,-0.05451
0.15311,0.98723,-0.0435,0.00996,-0.06467,-0.03844
0.15346,0.98714,-0.04433,0.04211,-0.04709,-0.02352
0.15364,0.98708,-0.04494,0.02807,0.00268,-0.01376
0.15328,0.98709,-0.04609,0.03512,0.03034,0.02872
0.15322,0.98713,-0.04545,0.04051,0.02548,0.02377
0.15393,0.98718,-0.0418,0.04922,0.0076,0.0215
0.15594,0.98706,-0.03678,0.04281,-0.00119,0.06225
0.15868,0.9868,-0.03176,0.03097,0.00589,0.05552
0.16156,0.98645,-0.02777,0.03175,0.01807,0.03714
0.1636,0.98618,-0.02537,0.0283,0.00106,0.00394
0.16515,0.98596,-0.02365,0.01357,-0.00617,-0.04321
0.16667,0.98575,-0.02175,0.0078,-0.0136,-0.05093
0.16858,0.98549,-0.01895,0.0331,-0.02017,-0.00498
0.1705,0.98521,-0.01571,0.04435,-0.013,0.01346
0.17245,0.98493,-0.01175,0.056,-0.00403,0.00123
0.17466,0.98459,-0.00656,0.06516,-0.01047,-0.02128
0.17743,0.98411,0.00037,0.07218,-0.01843,-0.04661
0.18115,0.98339,0.00923,0.08037,-0.03539,-0.05549
0.18604,0.98232,0.01977,0.08987,-0.03347,-0.0595
0.19208,0.98087,0.03098,0.09892,-0.03019,-0.05183
0.19916,0.97907,0.04142,0.08015,-0.01917,-0.03409
0.20663,0.97707,0.05098,0.0418,-0.00655,-0.0319
0.2138,0.97502,0.05985,0.01769,0.00349,-0.0226
0.2201,0.97309,0.06788,0.00669,0.00028,-0.02149
0.22541,0.97132,0.07537,0.00683,0.00159,-0.00734
0.22988,0.96967,0.08276,0.01576,0.00775,-0.00578
0.23393,0.968,0.0906,0.01862,-0.00557,0.00312
0.23819,0.96611,0.09922,0.00752,-0.00509,0.00355
0.24242,0.96405,0.10856,-0.02161,-0.00763,0.0115
0.24639,0.96183,0.11888,-0.1015,0.01536,0.03015
0.24906,0.95963,0.1305,-0.11834,0.01719,0.02556
0.24968,0.95747,0.14444,-0.11103,0.02065,0.03174
0.24767,0.95524,0.16164,-0.08155,0.01665,0.0251
0.24356,0.95285,0.18084,-0.07152,0.02304,0.00614
0.23762,0.95021,0.20145,-0.07598,0.03499,-0.00295
0.2299,0.94702,0.22415,-0.06286,0.08102,0.03714
0.22059,0.94312,0.24861,-0.05604,0.1032,0.02666
0.21036,0.93842,0.27399,-0.01224,0.11957,0.04037
0.20118,0.93305,0.29814,-0.01664,0.07802,0.0318
0.1925,0.92693,0.32201,-0.02973,0.00396,0.07544
0.1864,0.92024,0.34404,-0.04794,-0.05714,0.06164
0.18357,0.91397,0.36181,-0.0551,-0.09422,0.01877
0.18265,0.90933,0.37376,-0.07132,-0.15471,0.03948
0.18238,0.90671,0.38021,-0.07171,-0.18674,0.02712
0.18253,0.90642,0.38083,-0.07576,-0.1798,0.03617
0.18316,0.90842,0.37572,-0.0717,-0.18229,0.03386
0.18525,0.91227,0.36523,-0.05899,-0.20574,-0.00947
0.18918,0.91725,0.35044,-0.06449,-0.19427,-0.0058
0.19472,0.92265,0.33279,-0.07646,-0.0746,0.08932
0.20027,0.9279,0.31438,-0.08081,0.03252,0.15817
0.20417,0.93283,0.29681,-0.08393,0.3351,0.21538
0.20512,0.93675,0.28349,-0.10751,0.46129,0.30005
0.20034,0.93962,0.27736,-0.14717,0.30056,0.27879
0.1884,0.94215,0.27714,-0.1272,0.07463,0.14662
0.17416,0.94413,0.27969,0.08438,-0.13583,0.10028
0.16229,0.94495,0.28405,0.13899,-0.15495,0.10716
0.15339,0.94508,0.28851,0.1504,-0.13026,0.10194
0.14399,0.94518,0.29298,-0.07136,0.05141,0.08284
0.1297,0.94673,0.29467,-0.17034,0.0954,0.0488
0.11193,0.94961,0.29269,-0.18161,0.02361,-0.00584
0.09284,0.95282,0.28889,-0.13751,-0.03142,-0.04164
0.07439,0.95542,0.28563,-0.06441,-0.08584,-0.09803
0.05696,0.95729,0.28338,0.03421,-0.08513,-0.0957
0.04093,0.95886,0.28081,0.05859,-0.08927,-0.01799
0.02883,0.96043,0.27693,0.00819,-0.08018,0.03993
0.02061,0.96167,0.27333,0.01659,-0.04918,0.0224
0.0139,0.96251,0.2708,0.01976,-0.02926,-0.01243
0.00871,0.96314,0.26877,0.02312,-0.02042,-0.01985
0.00429,0.96406,0.26554,-0.02304,0.01813,-0.01659
-0.00187,0.96541,0.26062,-0.12239,0.08726,0.04306
-0.01224,0.9674,0.25287,-0.17466,0.10077,-0.01212
-0.02442,0.96939,0.24421,0.09192,-0.11654,-0.08388
-0.03302,0.97126,0.23563,0.18564,-0.17797,-0.08296
-0.03531,0.97303,0.22784,0.27798,-0.18466,-0.06012
-0.03154,0.97487,0.22043,0.22052,-0.09114,0.03715
-0.02576,0.97654,0.21367,0.09675,0.0516,0.11059
-0.02082,0.97772,0.20875,0.00591,0.0936,0.11071
-0.01627,0.97829,0.20649,0.09434,-0.03236,0.04375
-0.01026,0.97845,0.20611,0.1428,-0.05917,0.01045
-0.00175,0.97821,0.20749,0.23348,-0.02637,-0.00618
0.00676,0.97767,0.20992,0.21028,-0.00227,0.04641
0.01468,0.97687,0.21319,0.1882,-0.00922,0.06487
0.02413,0.97563,0.21798,0.15882,-0.07147,0.08033
0.03602,0.97384,0.22426,0.13664,-0.0799,0.05757
0.05051,0.97147,0.23161,0.08426,-0.05536,0.0365
0.06705,0.96846,0.23989,0.03471,-0.00968,0.03426
0.08432,0.96487,0.24874,0.0018,0.02851,0.04421
0.10059,0.96112,0.25707,0.00259,0.03756,0.06791
0.11312,0.95805,0.26323,0.03127,0.05257,0.09027
0.12019,0.95625,0.26662,0.06557,0.06221,0.08232
0.12313,0.95524,0.26891,0.08678,0.02011,0.08291
0.12354,0.95457,0.27109,0.10883,0.00808,0.10619
0.12202,0.95404,0.27361,0.12969,0.03995,0.10861
0.11872,0.95374,0.27612,0.13656,0.07042,0.08463
0.1135,0.95371,0.2784,0.10173,0.07744,0.05963
0.10552,0.95394,0.28075,0.03827,0.07167,0.04957
0.09346,0.95465,0.28258,-0.05419,0.07229,0.01512
0.07728,0.95579,0.28361,-0.06126,0.06626,0.01053
0.0585,0.95678,0.28476,-0.06521,0.0548,-0.00089
0.0386,0.95735,0.28625,0.01255,0.00017,-0.05607
0.02073,0.95658,0.29064,0.04554,-0.03742,-0.08245
0.00696,0.95466,0.29754,0.07808,-0.07378,-0.10074
-0.00125,0.95252,0.30438,0.09132,-0.14834,-0.0451
-0.00444,0.95103,0.30897,0.069,-0.13951,-0.02267
-0.00267,0.95019,0.31159,0.05113,-0.12243,-0.01201
0.00266,0.95016,0.31168,-0.00091,-0.08682,0.00565
0.00962,0.95082,0.30951,-0.01883,-0.1099,-0.05586
0.01912,0.95183,0.30596,-0.02025,-0.12077,-0.08742
0.03209,0.95319,0.30058,0.02992,-0.06578,-0.07817
0.04726,0.95477,0.29347,0.01772,-0.00541,-0.03873
0.06295,0.95615,0.28596,-0.00539,0.02547,-0.01762
0.07783,0.95719,0.27871,-0.01879,0.08669,0.01223
0.09174,0.9581,0.27124,-0.03435,0.07197,0.00984
0.10393,0.95887,0.26403,-0.04992,0.06194,0.00155
0.11213,0.95991,0.25679,-0.08288,0.06963,0.00555
0.1158,0.96185,0.24777,-0.13334,0.0671,-0.00012
0.11546,0.96483,0.23606,-0.14125,0.05176,-0.03882
0.11078,0.9684,0.22334,-0.0584,0.01845,-0.07369
0.10372,0.97196,0.2109,-0.01429,0.00054,-0.06826
0.0967,0.97503,0.19978,0.1296,-0.00715,-0.07282
0.09227,0.97718,0.19121,0.18163,-0.0214,-0.06034
0.09165,0.97823,0.18608,0.22064,-0.03453,0.00082
0.09457,0.97842,0.18359,0.03497,-0.02708,0.0647
0.09946,0.97766,0.18502,-0.02711,0.00393,0.0369
0.10378,0.97619,0.19034,-0.09989,0.03649,-0.00619
0.10671,0.9745,0.19729,-0.11936,0.02695,0.00771
0.10807,0.97288,0.20442,-0.11448,0.02124,0.00048
0.10773,0.97147,0.21116,-0.10777,0.02763,0.0093
0.10567,0.97041,0.217,-0.08241,0.02632,0.03309
0.10199,0.96989,0.22107,-0.05218,0.01724,0.02574
0.09818,0.96956,0.22419,-0.02563,0.0055,0.01578
0.09522,0.96916,0.2272,-0.00457,-0.00366,0.02259
0.09307,0.9686,0.23046,-0.00145,-0.00334,0.04139
0.09172,0.96796,0.23363,-0.00033,0.00175,0.06766
0.09098,0.96727,0.23676,0.00069,0.00169,0.06071
0.09064,0.96644,0.24027,0.00129,-0.01656,0.05982
0.09083,0.96547,0.24407,-0.01388,-0.0513,0.06419
0.09168,0.96435,0.24812,-0.04273,-0.05061,0.07486
0.09253,0.96327,0.25197,-0.04982,-0.02249,0.08743
0.09277,0.9624,0.25521,-0.04552,-0.0076,0.08436
0.09198,0.96172,0.25805,-0.04402,-0.00218,0.06014
0.09026,0.96124,0.26041,-0.04741,-0.01749,0.05969
0.08772,0.96101,0.26213,-0.04321,-0.02204,0.06438
0.0848,0.96098,0.2632,-0.03494,-0.02297,0.06428
0.08217,0.96098,0.26403,-0.04268,-0.01385,0.05775
0.08032,0.961,0.26452,-0.04034,-0.01009,0.05082
0.07905,0.961,0.26491,-0.03564,-0.00969,0.04756
0.07842,0.96096,0.26523,-0.01094,-0.00174,0.03017
0.07799,0.96095,0.26541,-0.00875,-0.00456,0.01393
0.07741,0.96097,0.26549,-0.00224,-0.01076,0.01813
0.0766,0.961,0.26564,-0.01367,-0.01446,0.03705
0.07597,0.96095,0.26599,-0.02842,-0.01959,0.04765
0.07512,0.96072,0.26706,-0.03525,-0.01319,0.04945
0.07409,0.96025,0.26904,-0.02302,-0.00407,-0.00613
0.0735,0.95979,0.27083,-0.0153,-0.02749,0.00387
0.07373,0.95947,0.27189,-0.01137,-0.02578,0.01422
0.07411,0.95912,0.27304,-0.01581,-0.01583,0.02722
0.07459,0.95888,0.27372,-0.02717,-0.00416,0.04508
0.07485,0.95869,0.27431,-0.03501,0.00436,0.0362
0.07454,0.95856,0.27486,-0.02445,0.00405,0.03527
0.07328,0.95852,0.27535,0.03396,0.00021,0.01755
0.071,0.95871,0.27527,0.06244,-0.00551,0.01918
0.06782,0.95915,0.27454,0.07727,-0.00958,0.02734
0.06399,0.95973,0.27344,0.07467,-0.01376,0.03787
0.06088,0.96009,0.27289,0.01568,-0.02815,0.02375
0.0594,0.96001,0.27348,-0.00628,-0.02845,0.0198
0.06021,0.95932,0.27571,-0.04661,-0.02613,0.0129
0.06282,0.95815,0.2792,-0.06188,-0.0034,0.01594
0.06595,0.95683,0.28297,-0.0598,0.00551,0.01447
0.06917,0.95553,0.28656,-0.04726,0.01618,0.03969
0.07088,0.95454,0.28942,-0.03229,0.02951,0.06211
0.07091,0.95392,0.29146,-0.01243,0.01721,0.047
0.06998,0.95354,0.29294,0.00296,0.00388,0.03342
0.06869,0.95318,0.29439,0.02061,-0.02499,0.01225
0.06827,0.95271,0.29602,0.03315,-0.05151,0.00174
0.06931,0.95213,0.29763,0.02556,-0.06367,0.00904
0.07167,0.95146,0.29922,-0.00839,-0.05072,0.03922
0.07455,0.95073,0.30083,-0.04217,-0.02618,0.05431
0.07671,0.95015,0.30211,-0.0643,0.00285,0.06306
0.07695,0.95,0.30251,-0.07216,0.00462,0.04779
0.07517,0.95039,0.30173,-0.05759,-0.01805,0.02739
0.0722,0.95133,0.29949,-0.03514,-0.04429,0.01068
0.06939,0.95273,0.29569,-0.01122,-0.05325,-0.00084
0.06757,0.95437,0.29078,0.0016,-0.04373,-0.00344
0.06674,0.95604,0.28544,0.0027,-0.03206,0.00614
0.06669,0.95764,0.28003,0.00474,-0.02191,0.02577
0.06702,0.95913,0.27481,0.00645,-0.00101,0.03647
0.06757,0.96055,0.26965,0.00756,0.00585,0.04614
0.06828,0.96173,0.26524,0.01093,-0.00123,0.05222
0.06951,0.96262,0.26167,0.00615,-0.00193,0.04619
0.07146,0.96325,0.2588,0.01116,0.00917,0.02474
0.07374,0.96374,0.25634,0.01218,-0.00416,0.02939
0.07667,0.96426,0.25352,0.01145,-0.0095,0.03289
0.08006,0.96493,0.24988,0.01737,-0.00604,0.03144
0.0836,0.96581,0.24529,0.01682,-0.01935,0.0204
0.08713,0.96668,0.24057,0.0202,-0.03488,0.00013
0.09039,0.96757,0.23574,0.01535,-0.0348,0.00141
0.0934,0.9685,0.23072,0.01474,-0.03458,0.00515
0.09637,0.96944,0.2255,0.03136,-0.0049,0.02552
0.09957,0.97028,0.22043,0.03473,0.00972,0.04379
0.10308,0.97101,0.21552,0.02801,0.01275,0.05244
0.10655,0.97159,0.2112,0.01706,0.01695,0.07066
0.10957,0.97208,0.20737,0.00946,0.02029,0.06976
0.11211,0.97248,0.20412,0.02824,0.00926,0.05853
0.11399,0.9729,0.20105,0.03795,0.00554,0.0551
0.11536,0.97318,0.19889,0.07214,-0.01119,0.05346
0.11616,0.97325,0.19809,0.09743,-0.01416,0.05112
0.11662,0.97321,0.198,0.09865,-0.01333,0.05092
0.11717,0.97298,0.19882,0.08834,-0.01021,0.04161
0.11861,0.97253,0.20017,0.06172,-0.01858,0.01578
0.12079,0.97202,0.2013,0.05322,-0.02195,0.00428
0.12444,0.97143,0.20194,0.04997,-0.02415,-0.02456
0.12891,0.97103,0.20105,0.05923,-0.04717,-0.0172
0.1319,0.97051,0.20161,0.09317,-0.00544,0.06751
0.13441,0.96892,0.20751,0.10816,0.01367,0.08465
0.13665,0.96722,0.21388,0.11976,-0.01022,0.05359
0.13754,0.96683,0.21508,0.12262,-0.03051,0.01103
0.13892,0.96737,0.21174,0.13204,-0.05462,-0.12261
0.142,0.96769,0.20821,0.11731,0.0017,-0.06485
0.14644,0.96724,0.20722,0.09682,0.01527,0.02351
0.15238,0.96615,0.20805,0.03386,0.02366,0.04127
0.15836,0.96515,0.2082,-0.04846,0.01675,0.02478
0.1628,0.96471,0.20681,-0.092,0.00645,-0.01538
0.16576,0.96464,0.2048,-0.05255,-0.00243,-0.01371
0.16748,0.96476,0.20282,0.03783,0.00126,0.02208
0.16838,0.96482,0.20177,0.08322,-0.00243,0.03284
0.16936,0.9648,0.20103,0.08535,0.00065,0.03574
0.17063,0.9649,0.1995,0.04797,0.02499,0.02991
0.17298,0.96487,0.1976,-0.03546,0.02092,0.0232
0.17601,0.96465,0.19597,-0.07327,0.01813,0.02886
0.17905,0.96428,0.19503,-0.10435,0.00502,0.01007
0.18135,0.96387,0.19498,-0.05067,-0.01489,-0.02615
0.18323,0.96335,0.19574,0.01665,-0.03054,-0.04955
0.18523,0.9627,0.19707,0.07204,-0.03582,-0.04736
0.18769,0.96192,0.19857,0.1013,-0.02599,-0.01432
0.19094,0.96101,0.19983,0.08556,-0.00656,0.02343
0.19497,0.96015,0.20008,0.00716,0.01402,0.04653
0.19913,0.95938,0.19971,-0.0871,0.02909,0.04176
0.20165,0.9589,0.19945,-0.09918,0.02591,0.01256
0.20318,0.95876,0.19861,-0.09617,0.02385,-0.01574
0.2046,0.9589,0.19643,-0.0633,-0.00746,-0.05272
0.20572,0.95938,0.19289,-0.04481,-0.01367,-0.03089
0.20714,0.96002,0.18816,-0.03794,-0.01536,-0.01096
0.20798,0.96091,0.18261,-0.02556,0.00542,0.01937
0.2093,0.96163,0.1772,-0.03433,0.00529,0.02861
0.21001,0.96249,0.17164,-0.00911,-0.01882,0.05887
0.21084,0.96324,0.16629,-0.01074,-0.00807,0.02182
0.21192,0.96403,0.16024,-0.02354,-0.00204,0.01265
0.21337,0.96479,0.15358,-0.06924,0.02202,0.00749
0.21508,0.96566,0.14557,-0.09087,0.02598,0.02132
0.21646,0.96659,0.13709,-0.11383,0.04379,0.04547
0.2172,0.96759,0.12857,-0.11079,0.02102,0.03352
0.21745,0.96864,0.11999,-0.08977,0.01194,0.01549
0.21743,0.96968,0.11133,-0.07344,0.00846,0.01196
0.2166,0.97084,0.1025,-0.02616,0.01052,0.00651
0.21643,0.97185,0.09281,-0.01449,0.01248,0.01906
0.2161,0.97279,0.08321,-0.0062,0.02548,0.04012
0.21573,0.97357,0.07462,0.00853,0.00696,0.06918
0.21565,0.97411,0.0675,0.01601,-0.00293,0.08172
0.2153,0.97456,0.06191,0.03676,-0.02019,0.08391
0.21499,0.9749,0.05738,0.04869,-0.02767,0.05755
0.21483,0.97517,0.05332,0.04077,-0.02818,0.05268
0.2149,0.97535,0.04967,0.00696,-0.0136,0.02426
0.21453,0.97564,0.04536,-0.01974,-0.00203,0.01614
0.21346,0.97609,0.0404,-0.02429,0.00413,0.00988
0.21154,0.9767,0.03549,-0.03572,0.00528,-0.01455
0.20892,0.97744,0.03019,-0.01347,0.00582,0.00801
0.20582,0.97826,0.02432,-0.00169,0.00885,0.02574
0.20242,0.9791,0.01862,0.00429,-0.00981,0.07124
0.19899,0.97988,0.01374,-0.0154,-0.02628,0.05543
0.19632,0.98047,0.00929,0.0,-0.01174,0.03074
0.19406,0.98095,0.0062,0.01691,-0.00623,0.03846
0.19288,0.98119,0.00425,0.00242,-0.00595,0.04627
0.19251,0.98126,0.00372,-0.01714,0.0054,0.06941
0.19261,0.98124,0.00468,-0.04147,0.01415,0.06966
0.19283,0.98118,0.0076,-0.08215,0.04121,0.06139
0.19307,0.98108,0.01201,-0.07506,0.02868,0.047
0.1937,0.98088,0.01756,-0.07427,0.02216,0.01696
0.19399,0.98069,0.02357,-0.07792,0.03446,-0.00462
0.19341,0.98067,0.02893,-0.06628,0.03978,-0.00801
0.1923,0.98074,0.03342,-0.03341,0.02132,0.00314
0.19132,0.98077,0.03777,-0.01027,0.00996,0.02399
0.19066,0.98073,0.04197,-0.00219,0.00592,0.03211
0.1903,0.98062,0.04604,-0.01025,-0.00035,0.02709
0.19045,0.98039,0.0501,-0.02465,0.00499,-0.00325
0.19094,0.98009,0.05396,-0.02694,0.0023,-0.01166
0.19156,0.9798,0.05698,-0.02,0.00486,-0.0036
0.19238,0.97952,0.05896,-0.01622,0.00606,0.00301
0.19316,0.97929,0.06026,-0.00837,0.01064,0.02287
0.19351,0.97914,0.06156,-0.00495,0.00838,0.04699
0.19386,0.97894,0.06365,0.01084,0.00799,0.06248
0.19432,0.97869,0.06599,0.02057,-0.00397,0.04711
0.19527,0.97833,0.06849,0.01083,0.00031,0.0434
0.1964,0.97791,0.07111,0.00011,0.0056,0.04372
0.19775,0.97742,0.07411,-0.01417,0.00032,0.03426
0.19928,0.97688,0.07707,-0.01537,-0.0019,0.032
0.20113,0.97624,0.08033,-0.02084,-0.00401,0.02975
0.20318,0.97554,0.08359,-0.03326,-0.00352,0.03052
0.2054,0.9748,0.08667,-0.04581,0.00763,0.02772
0.20767,0.97411,0.08908,-0.05493,0.0124,0.01706
0.21003,0.97345,0.09075,-0.06495,0.02082,0.01756
0.21257,0.97279,0.09189,-0.07326,0.01672,0.01833
0.21504,0.97218,0.09254,-0.08741,0.01561,0.01632
0.21756,0.97159,0.09288,-0.0886,0.01833,0.01809
0.22017,0.97092,0.09371,-0.08679,0.01709,0.02001
0.22303,0.97012,0.09523,-0.093,0.01806,0.02332
0.22609,0.96916,0.09777,-0.09557,0.01769,0.03354
0.22941,0.96801,0.10132,-0.10003,0.01526,0.03511
0.23288,0.96669,0.10594,-0.10798,0.02609,0.01205
0.23608,0.9653,0.11142,-0.11616,0.02911,-0.00161
0.2389,0.96391,0.11727,-0.11471,0.02074,-0.00355
0.24201,0.96227,0.12414,-0.11771,0.02938,0.00412
0.24518,0.96019,0.13366,-0.10758,0.05006,0.00457
0.24767,0.95764,0.14672,-0.09635,0.06772,-0.03697
0.24864,0.955,0.16151,-0.06023,0.02931,-0.04895
0.24881,0.95251,0.17539,-0.05147,-0.00536,-0.08709
0.24913,0.95016,0.18727,-0.01379,-0.02728,-0.08401
0.24946,0.94772,0.19882,0.06159,-0.02333,-0.01013
0.24919,0.9452,0.21081,0.0804,-0.04704,-0.01804
0.24864,0.94268,0.22243,0.07474,-0.06107,-0.03877
0.24866,0.94012,0.23299,0.05773,-0.03801,-0.07635
0.24923,0.93738,0.24319,0.07379,-0.01878,0.00635
0.24975,0.93469,0.25281,0.08872,-0.01042,0.09072
0.24992,0.93213,0.26194,0.07757,-0.03392,0.09988
0.25003,0.92979,0.27003,0.04506,-0.06365,0.06446
0.25061,0.92779,0.27629,0.01532,-0.04421,0.02524
0.25119,0.92631,0.2807,-0.00686,-0.04194,0.02863
0.25202,0.92481,0.28486,-0.06853,-0.01818,0.0156
0.25321,0.92324,0.28888,-0.08826,-0.00428,0.01284
0.2549,0.92178,0.29205,-0.11102,0.01222,0.00783
0.25681,0.92016,0.29546,-0.13719,-0.0136,0.06461
0.25927,0.91831,0.29902,-0.15166,-0.02308,0.06672
0.26254,0.9161,0.30294,-0.16058,-0.00089,0.07198
0.26509,0.91375,0.30777,-0.09605,0.02358,0.11198
0.26669,0.91172,0.31238,-0.0809,0.01849,0.11729
0.2668,0.911,0.31438,-0.0509,-0.02089,0.13873
0.26525,0.91179,0.31339,-0.01637,-0.03748,0.15483
0.26235,0.91387,0.30977,0.04182,-0.04825,0.18262
0.25791,0.91675,0.30493,0.08951,0.02287,0.18363
0.25165,0.92041,0.29908,0.1163,-0.00548,0.16371
0.24454,0.92412,0.29349,0.13412,-0.02883,0.13524
0.23713,0.92779,0.28796,0.13662,-0.02219,0.10438
0.22997,0.93138,0.28212,0.11202,-0.01048,0.04882
0.22362,0.93454,0.27671,0.05026,-0.02235,-0.00434
0.21817,0.93727,0.27178,-0.00413,-0.04153,-0.01003
0.21317,0.93963,0.26758,-0.01573,-0.1077,0.01061
0.20902,0.94161,0.26387,-0.01554,-0.10434,-0.01337
0.20569,0.94316,0.26093,0.00144,-0.06495,-0.00038
0.20239,0.94453,0.25853,0.02085,-0.03644,0.02756
0.19871,0.94537,0.25834,0.04908,0.01916,0.09847
0.19252,0.94612,0.26025,0.08686,0.04132,0.05644
0.18598,0.94712,0.26136,0.10482,0.01903,0.02686
0.18084,0.94822,0.261,0.11904,-0.03505,0.05473
0.17751,0.94916,0.25985,0.136,-0.05275,0.07043
0.17572,0.94944,0.26006,0.13963,-0.02126,0.06993
0.17455,0.94944,0.26083,0.11773,-0.02636,0.01366
0.17554,0.94928,0.26077,0.11073,-0.05729,-0.01867
0.17918,0.94858,0.26081,0.12805,-0.04412,0.02227
0.18439,0.94738,0.26156,0.12929,-0.02773,0.02647
0.18953,0.94589,0.26327,0.11964,-0.02871,0.03109
0.1944,0.94426,0.26556,0.12649,-0.0354,0.02917
0.19955,0.9427,0.26728,0.12229,-0.02944,0.02515
0.20498,0.94147,0.26751,0.09542,-0.01753,0.01615
0.21009,0.94074,0.2661,0.04625,-0.02526,0.02132
0.2143,0.94066,0.26303,0.00845,-0.01788,0.01155
0.21744,0.94095,0.25936,-0.00522,-0.03165,0.00631
0.21987,0.9414,0.25564,0.01081,-0.03648,0.01841
0.22139,0.94211,0.2517,0.03907,-0.02411,0.03553
0.22217,0.94299,0.2477,0.06203,-0.01899,0.03939
0.22264,0.94383,0.24403,0.07213,-0.01971,0.03528
0.22308,0.94452,0.24095,0.07567,-0.01558,0.03681
0.22346,0.94514,0.23815,0.0738,-0.01312,0.03825
0.2242,0.94562,0.23553,0.04999,0.00019,0.0419
0.22428,0.94623,0.23301,0.04384,0.0004,0.04682
0.2243,0.94674,0.23088,0.02991,-0.00387,0.04674
0.22438,0.94723,0.22882,0.02199,-0.00634,0.03428
0.22475,0.94762,0.22682,0.01732,-0.0071,0.02386
0.22549,0.94793,0.22478,0.01087,-0.01209,0.01531
0.22666,0.94812,0.22277,0.00887,-0.01368,0.01045
0.22811,0.94817,0.2211,0.01322,-0.02292,0.01359
0.22975,0.94798,0.22022,0.02475,-0.02079,0.02043
0.23144,0.94755,0.22031,0.03801,-0.00969,0.03334
0.23326,0.94691,0.22112,0.03411,0.00373,0.04562
0.23521,0.94624,0.22193,0.02487,0.00205,0.0417
0.2373,0.94565,0.2222,0.00897,-0.00437,0.02772
0.23962,0.94511,0.22202,-0.0059,-0.0117,0.00977
0.2419,0.94464,0.22157,-0.02219,-0.01495,0.00652
0.24386,0.94429,0.2209,-0.02866,-0.01793,0.01529
0.24538,0.94407,0.22012,-0.03272,-0.01707,0.02263
0.24649,0.94398,0.21928,-0.03344,-0.01336,0.03266
0.24743,0.94392,0.21849,-0.03259,-0.01231,0.03305
0.24818,0.94386,0.21787,-0.02526,-0.01068,0.03598
0.24888,0.9438,0.21734,-0.02262,-0.00597,0.03963
0.24951,0.94375,0.21684,-0.02164,-0.00614,0.04118
0.25003,0.94373,0.21632,-0.02127,-0.00329,0.04128
0.25038,0.94377,0.21575,-0.02505,-0.00258,0.04482
0.2506,0.94389,0.21499,-0.02681,0.00188,0.04794
0.25059,0.94412,0.21396,-0.02926,-0.002,0.05649
0.25037,0.94456,0.21228,-0.0493,0.00249,0.05223
0.25022,0.94502,0.21039,-0.10615,-0.00064,0.02903
0.25125,0.94524,0.20818,-0.14728,-0.01172,0.04199
0.25261,0.94555,0.20507,-0.19572,0.04984,0.07111
0.25538,0.94548,0.20195,-0.22236,-0.00238,0.02886
0.25845,0.9454,0.19838,-0.10021,0.05426,0.04729
0.25914,0.94611,0.19406,-0.00476,-0.01536,0.04471
0.25829,0.94731,0.1893,0.07857,-0.02758,0.04007
0.25542,0.94894,0.18498,0.14572,-0.03218,0.02022
0.25011,0.95061,0.18366,0.19081,-0.05026,-0.03344
0.24333,0.95212,0.18492,0.26433,-0.02259,-0.00085
0.23574,0.95373,0.18646,0.29772,-0.05186,0.02184
0.22817,0.95527,0.18801,0.3132,-0.07865,0.05088
0.22128,0.95634,0.19078,0.29291,-0.05887,0.06793
0.21637,0.95649,0.19557,0.20541,-0.00857,0.06221
0.21373,0.95592,0.20117,0.10455,-0.00182,0.03949
0.21379,0.95467,0.20696,-0.0014,-0.0485,0.0169
0.21584,0.953,0.21247,-0.08896,-0.06363,0.02244
0.21985,0.95106,0.217,-0.13383,0.01664,0.02624
0.22402,0.94924,0.22068,-0.17148,0.07063,0.05118
0.22804,0.9479,0.22233,-0.19043,0.0662,0.05599
0.23195,0.94731,0.22079,-0.19957,0.00338,0.0559
0.2354,0.94739,0.21675,-0.16397,-0.01834,0.04352
0.23753,0.94804,0.2115,-0.12042,-0.0144,0.02959
0.23859,0.94905,0.20574,-0.07767,0.00338,0.01864
0.2386,0.9503,0.19984,-0.03216,0.00111,0.02011
0.23779,0.95168,0.19418,0.01863,-0.01428,0.03392
0.23629,0.95305,0.18923,0.05966,-0.02705,0.03804
0.23416,0.95432,0.18545,0.07107,-0.03531,0.04273
0.23177,0.9554,0.18285,0.06363,-0.03209,0.05237
0.22965,0.95621,0.18129,0.04074,-0.0315,0.05436
0.22809,0.95673,0.18053,0.02105,-0.01646,0.05624
0.2271,0.95706,0.18,0.01969,-0.00712,0.05764
0.22661,0.95733,0.1792,0.02808,-0.01284,0.05849
0.22656,0.95758,0.1779,0.05448,-0.01401,0.05493
0.22633,0.95808,0.17549,0.06078,-0.01785,0.05823
0.22611,0.95874,0.17213,0.0849,-0.02748,0.06493
0.22564,0.95966,0.16759,0.1038,-0.04236,0.07484
0.22525,0.96066,0.16229,0.1156,-0.04057,0.07617
0.22519,0.96163,0.1565,0.12115,-0.03773,0.07426
0.22578,0.96245,0.15052,0.12458,-0.02059,0.06336
0.22715,0.96299,0.14491,0.11765,-0.01804,0.04393
0.22938,0.96317,0.1401,0.10024,-0.01256,0.04162
0.23228,0.96308,0.13591,0.06464,-0.00803,0.03273
0.23558,0.96284,0.13183,0.02643,-0.00519,0.01598
0.2391,0.96254,0.12768,-0.01117,0.00655,0.00803
0.24256,0.96229,0.12294,-0.04867,0.01767,0.00146
0.24577,0.96214,0.11757,-0.06613,0.00787,0.00157
0.24827,0.9622,0.11173,-0.07937,-0.00363,0.00239
0.24987,0.96252,0.10518,-0.08448,-0.00468,0.00358
0.25057,0.9631,0.09797,-0.07516,-0.00524,0.001
0.2501,0.96402,0.08978,-0.03247,-0.00664,0.00154
0.24926,0.96502,0.08094,-0.01852,-0.00378,0.0094
0.24781,0.96612,0.07176,0.00173,0.01076,0.02537
0.24598,0.96725,0.06222,0.01235,0.03103,0.03452
0.2449,0.96808,0.05285,0.02685,0.07368,0.05161
0.24416,0.96872,0.04372,0.00246,0.00422,0.05581
0.24215,0.96954,0.03626,-0.00281,-0.00858,0.04079
0.23958,0.9704,0.02951,0.00825,-0.00147,0.057
0.23768,0.97105,0.02288,0.01715,0.01635,0.06678
0.23648,0.97145,0.01748,0.01578,-0.00324,0.08842
0.23548,0.97176,0.01336,0.03145,-0.02273,0.08009
0.23437,0.97206,0.01064,0.03835,-0.01604,0.07182
0.23295,0.97242,0.00937,0.03669,0.02592,0.05992
0.23072,0.97296,0.00863,-0.01375,0.00542,0.04232
0.22841,0.97351,0.00712,-0.04332,0.00958,0.03112
0.22628,0.97401,0.00631,-0.04882,0.00053,0.0364
0.22372,0.97461,0.00485,-0.03572,3e-05,0.01766
0.22064,0.97532,0.0029,-0.02565,-0.00131,0.00847
0.21759,0.97601,0.00121,-0.0118,-0.00615,0.02076
0.21409,0.97679,-0.00147,-0.01634,-0.01016,0.02184
0.21064,0.97752,-0.00534,-0.01231,-0.01777,0.03462
0.20721,0.97822,-0.00954,-0.00363,-0.01934,0.02457
0.20379,0.97888,-0.01451,0.01101,-0.00877,0.01879
0.20051,0.97948,-0.0188,0.01082,-0.00457,0.01301
0.19761,0.97998,-0.023,0.00806,-0.00443,0.03207
0.1952,0.98035,-0.02744,-0.01037,-0.00703,0.01917
0.19293,0.98067,-0.03191,-0.01019,-0.01485,-0.0003
0.19087,0.98092,-0.03622,-0.0066,-0.01628,-0.00692
0.18928,0.9811,-0.03964,0.01375,-0.02184,0.00922
0.18814,0.98118,-0.04287,0.00508,-0.02888,0.00945
0.18753,0.98116,-0.04582,0.00345,-0.01711,0.00143
0.1876,0.98109,-0.04719,-0.01088,-0.01746,-0.00718
0.18784,0.981,-0.04806,0.0093,0.00692,0.05701
0.1886,0.98076,-0.04983,-0.03009,0.02536,-0.00449
0.18848,0.98073,-0.05089,-0.03674,0.06971,-0.00491
0.18644,0.98102,-0.05286,-0.08903,0.08791,0.02639
0.18311,0.98151,-0.05537,-0.10187,0.06345,0.0924
0.17877,0.98225,-0.05646,-0.09861,0.06736,0.04148
0.17349,0.9831,-0.05801,-0.10402,0.03286,0.0319
0.1685,0.9839,-0.05921,-0.12107,0.01828,0.00195
0.16419,0.98454,-0.06063,-0.13751,0.02691,-0.02505
0.16064,0.98494,-0.06349,-0.11091,0.03027,-0.01653
0.15737,0.98507,-0.06948,-0.07306,-0.01142,-0.01115
0.1542,0.985,-0.07716,-0.03721,-0.03865,-0.0555
0.15266,0.98468,-0.08398,-0.02371,-0.05577,-0.02997
0.15277,0.98425,-0.08866,0.00621,-0.05769,0.00616
0.15243,0.98391,-0.09292,0.0382,-0.0043,-0.00808
0.15258,0.98358,-0.09615,0.09446,0.01607,0.03714
0.1529,0.98342,-0.09723,0.3244,-0.03457,0.10768
0.15277,0.98335,-0.09816,0.15583,-0.01579,0.12108
0.15219,0.98343,-0.0983,0.04746,0.00801,0.0886
0.15102,0.98354,-0.09897,0.00481,0.02211,0.10919
0.15024,0.98356,-0.09996,0.02691,-0.0023,0.07965
0.14993,0.9836,-0.09999,-0.02446,0.00088,0.01199
0.14959,0.9837,-0.09951,-0.15519,0.03056,-0.0624
0.14858,0.9837,-0.10101,-0.17217,0.02586,-0.06078
0.14727,0.98362,-0.10368,-0.15081,0.02187,-0.0297
0.14581,0.98363,-0.10563,-0.08206,0.02381,0.01803
0.14466,0.98362,-0.10727,-0.03164,0.01773,0.04175
0.14372,0.98358,-0.10889,0.06191,-0.00904,0.0548
0.14363,0.98354,-0.10941,-0.01594,0.0115,0.01428
0.14405,0.98354,-0.10883,-0.06712,0.02551,0.00054
0.14444,0.98351,-0.10863,-0.06565,0.0134,-0.00773
0.14468,0.98341,-0.10918,-0.04139,-0.00181,0.00159
0.14436,0.98331,-0.11046,-0.02596,0.00066,0.01478
0.14371,0.98324,-0.11196,-0.01974,0.00919,0.02818
0.14322,0.98318,-0.11309,-0.0229,0.01969,0.0541
0.14315,0.98315,-0.11347,-0.01464,0.0172,0.04868
0.14334,0.98316,-0.1131,-0.00783,0.01891,0.03402
0.14363,0.98324,-0.11204,-0.0162,0.012,0.02756
0.144,0.98339,-0.11023,-0.02608,0.00786,0.01753
0.14449,0.98358,-0.1079,-0.02433,0.00832,0.02241
0.14497,0.98377,-0.10545,-0.0512,0.00896,0.03819
0.14525,0.98392,-0.10365,-0.06588,0.01452,0.03656
0.14523,0.98401,-0.10287,-0.06917,0.01447,0.03304
0.14492,0.98406,-0.10282,-0.05539,0.00299,0.02175
0.14454,0.98408,-0.10318,-0.04373,0.00125,0.02399
0.14413,0.98403,-0.10414,-0.02844,-0.00393,0.02532
0.14389,0.98394,-0.10534,-0.00908,-0.00077,0.02878
0.14374,0.98383,-0.1066,0.00242,0.00108,0.04073
0.14424,0.98367,-0.1074,0.01055,0.0066,0.05013
0.14515,0.98354,-0.10733,0.01786,0.00953,0.0566
0.14621,0.98345,-0.10667,0.02148,0.00144,0.05208
0.14768,0.98336,-0.10551,0.01227,-0.00079,0.04884
0.1496,0.98327,-0.1036,0.01497,0.00049,0.05187
0.15192,0.98318,-0.10105,-0.0038,0.0035,0.05085
0.1539,0.98309,-0.09896,-0.01521,0.01163,0.03974
0.15545,0.983,-0.09743,-0.02599,0.01653,0.02855
0.15673,0.98293,-0.09606,-0.01496,0.01732,0.04288
0.15761,0.98289,-0.09504,-0.00774,0.01373,0.04364
0.15834,0.98288,-0.09391,-6e-05,0.00862,0.04453
0.15873,0.98296,-0.09241,0.02376,0.00677,0.04632
0.1592,0.98307,-0.09035,0.02306,0.00495,0.03615
0.15973,0.98323,-0.08766,0.02282,-0.00027,0.03856
0.16045,0.9834,-0.08436,0.02775,-0.00177,0.03576
0.1614,0.98356,-0.0806,0.02924,-0.00028,0.0396
0.16253,0.9837,-0.07656,0.02879,-0.00379,0.0521
0.16385,0.98378,-0.0726,0.03243,-0.00323,0.06726
0.16536,0.98377,-0.06913,0.03101,-0.0047,0.07586
0.16699,0.9837,-0.06631,0.02906,0.01097,0.10105
0.16815,0.98361,-0.06456,-0.03543,-0.00139,0.06839
0.1693,0.9835,-0.0633,-0.03445,0.02072,0.06304
0.17021,0.98335,-0.06307,-0.02363,0.00253,0.0954
0.17077,0.98319,-0.06408,-0.02666,0.00507,0.07814
0.17093,0.98302,-0.06627,-0.03043,0.00593,0.07671
0.17065,0.98288,-0.06905,-0.02811,0.00858,0.06784
0.17031,0.98274,-0.07179,-0.02387,0.01291,0.02781
0.16954,0.98271,-0.07394,-0.03383,0.04213,-0.04235
0.16849,0.98278,-0.07539,-0.03658,0.02517,-0.08675
0.16772,0.98289,-0.07575,0.02408,-0.00428,-0.05933
0.16714,0.98298,-0.07581,0.09046,-0.03794,0.00042
0.16705,0.98295,-0.07643,0.10391,-0.05282,0.02215
0.1676,0.98283,-0.07678,0.05703,-0.00227,0.05909
0.1688,0.9827,-0.07574,0.04038,0.01705,0.07159
0.17022,0.98266,-0.07301,0.02791,0.03389,0.0765
0.17201,0.98264,-0.06906,-0.00897,0.02876,0.05876
0.17284,0.98271,-0.06592,-0.02771,0.02192,0.04075
0.17305,0.98276,-0.06454,-0.05028,0.01602,-0.02589
0.1724,0.98288,-0.06453,-0.02447,0.00447,-0.0289
0.17164,0.98303,-0.0643,-0.00242,-0.00205,-0.01546
0.17111,0.9832,-0.063,0.06581,-0.02461,0.02132
0.17124,0.98331,-0.06089,0.07078,-0.02417,0.02979
0.1719,0.98332,-0.05888,0.0494,-0.02156,0.04121
0.17268,0.98326,-0.05755,0.02446,-0.0128,0.05713
0.1737,0.98313,-0.05663,-0.00358,-0.00138,0.06383
0.17475,0.98299,-0.05589,-0.00977,0.00837,0.08392
0.17552,0.98289,-0.05532,-0.00888,0.00826,0.08216
0.17612,0.98279,-0.05502,-0.01813,0.00193,0.06011
0.17653,0.98272,-0.05513,-0.0141,0.00358,0.04301
0.1767,0.98265,-0.05564,-0.00643,0.0037,0.02134
0.17686,0.9826,-0.05609,0.00556,-0.00039,0.0129
0.17717,0.98255,-0.05609,0.01354,-0.00257,0.01753
0.1776,0.98248,-0.05585,0.01974,-0.00187,0.02825
0.17794,0.98245,-0.0553,0.01264,0.01505,0.01508
0.17799,0.9825,-0.05418,0.01412,0.0145,0.01194
0.17788,0.98262,-0.05233,0.0215,0.01313,0.01833
0.17822,0.9827,-0.04974,0.05517,-0.01883,0.06244
0.17884,0.98271,-0.04727,0.04767,-0.02104,0.08604
0.17988,0.98262,-0.04514,0.03332,-0.00639,0.10729
0.18113,0.98247,-0.04324,0.00872,0.01068,0.11314
0.18221,0.98234,-0.04164,-0.0171,0.02526,0.10795
0.18272,0.9823,-0.04041,-0.03937,0.03073,0.09158
0.18229,0.98241,-0.03962,-0.0516,0.02472,0.06346
0.18097,0.98266,-0.03949,-0.04589,0.0181,0.05255
0.17916,0.98297,-0.03988,-0.02407,0.01222,0.05225
0.17727,0.98329,-0.04051,-0.01032,0.00113,0.06099
0.17554,0.98357,-0.0413,-0.00104,-0.0011,0.06887
0.17403,0.98381,-0.042,0.00083,-0.00125,0.06692
0.17273,0.98401,-0.04254,-0.00491,0.0075,0.0619
0.17147,0.9842,-0.04319,-0.00761,0.01184,0.06245
0.17005,0.98442,-0.04383,-0.01806,0.01421,0.05214
0.16849,0.98465,-0.04481,-0.00972,0.00826,0.04856
0.16695,0.98485,-0.04608,-0.00054,0.00065,0.04445
0.16554,0.98501,-0.04775,0.00232,0.00057,0.04184
0.16426,0.98513,-0.0496,0.00281,-0.00285,0.03482
0.1632,0.98522,-0.05133,0.00512,0.00029,0.0348
0.16241,0.98527,-0.05284,0.00432,-0.00089,0.03421
0.16178,0.9853,-0.0542,0.00472,0.00161,0.03589
0.16121,0.98532,-0.05555,0.00038,0.00481,0.0374
0.16061,0.98533,-0.05701,0.00073,0.00158,0.03275
0.16004,0.98533,-0.05863,0.00291,-0.00178,0.03004
0.15956,0.9853,-0.06038,0.00693,-0.00321,0.02946
0.1593,0.98525,-0.06191,0.0058,-0.00408,0.02887
0.15919,0.98518,-0.06333,0.00202,0.00234,0.02756
0.15919,0.98508,-0.06484,-0.00355,0.00203,0.02909
0.15938,0.98494,-0.06646,-0.00842,0.00047,0.02694
0.15969,0.98476,-0.06835,-0.00986,0.0032,0.03025
0.16013,0.98454,-0.07043,-0.0115,0.00334,0.03244
0.1606,0.9843,-0.07271,-0.01275,0.00772,0.03135
0.16104,0.98405,-0.07505,-0.01513,0.00728,0.02974
0.16142,0.98383,-0.07709,-0.01553,0.01127,0.03061
0.16183,0.98362,-0.07887,-0.02542,0.00798,0.02735
0.16214,0.98346,-0.0803,-0.01512,0.01039,0.02163
0.16231,0.98331,-0.08175,-0.01233,0.00688,0.02259
0.16242,0.9832,-0.08281,-0.01222,0.00695,0.02014
0.16247,0.98314,-0.08346,0.00048,0.00551,0.03441
0.16264,0.98305,-0.08414,0.00126,0.00468,0.03122
0.16289,0.98297,-0.08466,-0.00568,0.00431,0.02872
0.16308,0.98291,-0.08489,-0.00963,0.00216,0.02068
0.16337,0.98288,-0.08478,-0.00769,-0.00051,0.02097
0.16377,0.98286,-0.08417,-0.00239,0.00284,0.0405
0.16427,0.98285,-0.08333,-0.00298,0.00479,0.0548
0.16482,0.98284,-0.08234,-0.00364,0.00509,0.06763
0.16531,0.98284,-0.08138,-0.00474,0.00509,0.06262
0.16565,0.98286,-0.08046,-0.01361,0.01484,0.06224
0.1657,0.9829,-0.07974,-0.02279,0.01371,0.06364
0.16556,0.98296,-0.07932,-0.01601,0.00553,0.06028
0.16538,0.983,-0.07929,-0.01331,0.00296,0.05231
0.16516,0.983,-0.07968,-0.01315,0.00265,0.04209
0.16487,0.98299,-0.0804,-0.00692,0.00547,0.03428
0.16465,0.98295,-0.08136,-0.00248,-0.00024,0.04031
0.16459,0.98288,-0.0824,0.00358,-0.0054,0.04233
0.16471,0.98277,-0.08338,0.00492,-0.00641,0.04476
0.16492,0.98266,-0.08424,-0.0006,0.00386,0.03695
0.16501,0.98259,-0.08487,-0.0023,0.01568,0.02905
0.16483,0.98258,-0.08533,-0.00086,0.01663,0.01877
0.16453,0.98262,-0.08546,-0.00059,0.01146,0.02327
0.16416,0.98267,-0.08554,0.0044,-0.00059,0.02801
0.16381,0.98274,-0.08553,0.01194,-0.00803,0.03783
0.16366,0.98281,-0.085,0.01489,-0.00661,0.05803
0.16374,0.98289,-0.08386,0.00723,0.00904,0.06897
0.16392,0.98297,-0.08252,-0.01249,0.02017,0.06072
0.16395,0.98304,-0.08164,-0.03479,0.02422,0.04921
0.1636,0.98309,-0.08175,-0.04018,0.02487,0.03599
0.16282,0.98314,-0.08275,-0.01529,0.00813,0.028
0.16199,0.98317,-0.08394,0.01086,-0.00374,0.02886
0.16149,0.98319,-0.08467,0.0231,-0.0093,0.03166
0.16128,0.98322,-0.08477,0.0349,-0.00814,0.04106
0.16147,0.9832,-0.0846,0.01994,0.00065,0.03655
0.16173,0.98318,-0.08437,0.01546,0.00544,0.04012
0.16184,0.98317,-0.08423,0.00956,0.00779,0.04341
0.16201,0.98316,-0.08408,0.00812,0.0043,0.05143
0.16198,0.98316,-0.08412,0.00881,0.00408,0.05283
0.16201,0.98315,-0.08422,0.00756,0.00155,0.05221
0.16209,0.98313,-0.0843,0.00306,0.00605,0.04658
0.16206,0.98311,-0.08452,0.00285,0.00654,0.04278
0.16198,0.9831,-0.08479,0.00196,0.00547,0.04342
0.16198,0.98309,-0.08497,-0.00485,0.01317,0.0447
0.16189,0.98307,-0.08536,-0.00246,0.0124,0.046
0.16178,0.98305,-0.08582,-0.00195,0.00882,0.04109
0.16182,0.983,-0.08621,0.00394,0.00299,0.03147
0.16189,0.98294,-0.08682,-0.00239,0.00642,0.03471
0.16193,0.98289,-0.08736,-0.00607,0.00871,0.0373
0.16197,0.98285,-0.08765,-0.00502,0.00407,0.03841
0.16202,0.98282,-0.0879,-0.0046,0.00489,0.04055
0.16207,0.9828,-0.08809,-0.00625,0.00536,0.0463
0.16212,0.98278,-0.08822,-0.01121,0.00808,0.04429
0.16212,0.98277,-0.08833,-0.00902,0.00684,0.04571
0.16211,0.98276,-0.08835,-0.00809,0.00518,0.04098
0.16212,0.98276,-0.08838,-0.00868,0.00805,0.03919
0.16214,0.98275,-0.0885,-0.00792,0.00486,0.03781
0.1622,0.98274,-0.08852,-0.00902,0.0059,0.03717
0.16225,0.98273,-0.08852,-0.01166,0.00647,0.03971
0.16232,0.98272,-0.08846,-0.01205,0.00782,0.0411
0.16232,0.98273,-0.08833,-0.01447,0.00987,0.04348
0.16236,0.98273,-0.08824,-0.01594,0.00585,0.04226
0.16245,0.98272,-0.08823,-0.01455,0.00291,0.04023
0.16258,0.9827,-0.08825,-0.01588,0.00941,0.04183
0.16272,0.98266,-0.08839,-0.01729,0.00846,0.04315
0.16284,0.98262,-0.0886,-0.01666,0.00873,0.04308
0.16295,0.98259,-0.08877,-0.01275,0.00917,0.04179
0.16306,0.98256,-0.08887,-0.01334,0.00889,0.04266
0.16314,0.98255,-0.08889,-0.01096,0.00613,0.03965
0.1632,0.98254,-0.08884,-0.00999,0.00594,0.0413
0.16328,0.98254,-0.08876,-0.00932,0.00524,0.04251
0.16335,0.98253,-0.08866,-0.00911,0.00404,0.04054
0.16348,0.98252,-0.08854,-0.00647,0.00249,0.03993
0.16368,0.9825,-0.08838,-0.005,0.00535,0.04028
0.16387,0.98249,-0.08816,-0.00694,0.00553,0.04387
0.16404,0.9825,-0.08778,-0.00317,0.00398,0.04594
0.16421,0.98251,-0.0873,-0.0007,0.00502,0.04589
0.16439,0.98253,-0.08679,-0.00057,0.00578,0.04708
0.16458,0.98254,-0.08622,-0.0006,0.00636,0.0459
0.16477,0.98256,-0.08562,-0.00572,0.00834,0.04363
0.16498,0.98256,-0.08521,-0.00594,0.00834,0.04322
0.16517,0.98257,-0.08475,-0.00541,0.00717,0.04667
0.16536,0.98258,-0.0843,0.0018,0.00453,0.04127
0.16552,0.98258,-0.08393,-0.0009,0.00858,0.04504
0.16552,0.98261,-0.0836,-0.00361,0.01095,0.0501
0.16545,0.98268,-0.08293,-0.00114,0.00655,0.05257
0.16536,0.98276,-0.08219,0.00026,0.0056,0.0489
0.16527,0.98284,-0.08141,-0.00017,0.0059,0.04735
0.16517,0.98293,-0.08055,-0.00437,0.00374,0.04556
0.16507,0.983,-0.0799,-0.00466,0.00486,0.04508
0.16499,0.98306,-0.0793,-0.00197,0.00507,0.04559
0.16497,0.9831,-0.07878,-0.00116,0.00437,0.0464
0.16496,0.98313,-0.0784,0.00108,0.00463,0.04518
0.16498,0.98315,-0.07817,0.00023,0.00505,0.04262
0.16504,0.98315,-0.07807,6e-05,0.00382,0.04473
0.16514,0.98314,-0.07797,0.00272,0.00356,0.04195
0.1653,0.98313,-0.07775,-0.0036,0.00991,0.04462
0.16537,0.98313,-0.07754,-0.0035,0.01047,0.04067
0.16539,0.98315,-0.07736,-0.0028,0.00741,0.03852
0.16544,0.98315,-0.07718,-0.00139,0.00589,0.03513
0.16549,0.98315,-0.07707,5e-05,0.00569,0.03385
0.16551,0.98315,-0.077,0.00076,0.00525,0.03349
0.16555,0.98316,-0.07687,0.00378,0.00462,0.0283
0.16563,0.98315,-0.07681,0.0037,0.00129,0.03187
0.16578,0.98313,-0.07676,0.00272,-0.00025,0.02923
0.16605,0.98308,-0.07675,0.00444,0.00018,0.03139
0.16636,0.98303,-0.07675,0.00333,0.00193,0.03131
0.16677,0.98297,-0.07662,0.00152,0.00205,0.03546
0.16723,0.98291,-0.07645,-0.00058,-0.00027,0.034
0.16779,0.98282,-0.07632,0.00163,-0.00197,0.03429
0.16844,0.98271,-0.0763,0.00037,-0.0004,0.03696
0.16912,0.98259,-0.07635,-0.00323,0.00385,0.04073
0.16981,0.98247,-0.0763,-0.00367,0.00468,0.04592
0.17053,0.98237,-0.07609,-0.00312,0.00509,0.04932
0.17119,0.98228,-0.07571,-0.01109,0.00891,0.04783
0.17178,0.98222,-0.07521,-0.01644,0.00846,0.04715
0.17228,0.98217,-0.07467,-0.01223,0.00758,0.04864
0.17265,0.98215,-0.07402,-0.01021,0.00178,0.04535
0.17291,0.98216,-0.07334,-0.01332,0.00748,0.04634
0.17303,0.98218,-0.07275,-0.01596,0.00801,0.05003
0.17304,0.98224,-0.07198,-0.01383,0.00743,0.05253
0.17312,0.98229,-0.07111,-0.01271,0.00625,0.05415
0.17323,0.98233,-0.07021,-0.01245,0.00525,0.0549
0.17326,0.98238,-0.06945,-0.0162,0.00852,0.05437
0.17313,0.98245,-0.06879,-0.01796,0.01051,0.05742
0.1729,0.98253,-0.06827,-0.01358,0.00832,0.05649
0.17261,0.98262,-0.06774,-0.01222,0.00632,0.05564
0.17221,0.98273,-0.06716,-0.00843,0.00792,0.05275
0.17168,0.98285,-0.06671,-0.00891,0.00667,0.0517
0.17097,0.98299,-0.06643,-0.00782,0.00777,0.05036
0.17,0.98317,-0.0663,-0.00159,0.00534,0.04135
0.1687,0.98336,-0.06677,-0.0005,0.00155,0.03893
0.16701,0.98357,-0.06791,0.00227,0.00021,0.03413
0.16534,0.98376,-0.06919,0.04358,-0.00937,0.04472
0.16436,0.98388,-0.06985,0.05789,-0.01388,0.05139
0.16453,0.9839,-0.06922,0.05539,-0.02189,0.05494
0.165,0.98391,-0.06798,0.03992,-0.0029,0.04355
0.16558,0.98387,-0.0671,0.02628,0.00984,0.04054
0.16585,0.98385,-0.06665,0.01286,0.01021,0.03986
0.16621,0.98382,-0.06626,0.01425,0.008,0.04603
0.1662,0.98383,-0.06608,0.01056,0.00655,0.04571
0.16606,0.98386,-0.06608,0.0052,0.00436,0.04192
0.16587,0.98387,-0.06635,0.00217,0.00462,0.04284
0.16566,0.98388,-0.06679,0.00175,0.00172,0.04069
0.1655,0.98386,-0.06743,0.00234,0.00247,0.04065
0.16526,0.98384,-0.06822,-0.00218,0.00465,0.03936
0.16497,0.98385,-0.06891,-0.00437,0.0056,0.04094
0.16465,0.98386,-0.06944,-0.00958,0.00479,0.04983
0.16435,0.98388,-0.06989,-0.01217,0.00478,0.05192
0.16399,0.98391,-0.07035,-0.0142,0.00878,0.05284
0.16345,0.98395,-0.07098,-0.02495,0.01843,0.0435
0.16232,0.98405,-0.07218,-0.01886,0.00893,0.03112
0.16078,0.98419,-0.07373,0.00139,0.00174,0.03371
0.15921,0.98434,-0.07515,0.00942,-0.00343,0.04595
0.15815,0.98445,-0.07592,0.02535,-0.00818,0.05415
0.15777,0.9845,-0.07604,0.02048,-0.01012,0.05684
0.15821,0.98443,-0.07599,0.00358,-0.00639,0.04671
0.15899,0.98428,-0.0764,-0.02192,0.01302,0.03877
0.15965,0.98411,-0.07711,-0.03377,0.01595,0.04189
0.16002,0.98398,-0.07799,-0.02686,0.00973,0.04195
0.16011,0.98388,-0.07908,-0.02931,0.00815,0.0458
0.16014,0.98378,-0.0803,-0.02667,0.00795,0.04459
0.16001,0.9837,-0.08157,-0.0257,0.00599,0.04569
0.15985,0.98361,-0.08293,-0.02315,0.00399,0.04355
0.15969,0.98352,-0.08431,-0.0254,0.00653,0.04401
0.15952,0.98344,-0.08556,-0.02594,0.00782,0.04737
0.15943,0.98337,-0.0865,-0.02912,0.00609,0.05241
0.15946,0.9833,-0.08724,-0.02779,0.00797,0.05543
0.15944,0.98326,-0.08771,-0.03467,0.01236,0.05483
0.15933,0.98325,-0.08804,-0.03712,0.01199,0.05291
0.1591,0.98326,-0.08826,-0.03587,0.01356,0.05043
0.15876,0.98331,-0.08832,-0.03602,0.01044,0.05083
0.15835,0.98338,-0.08828,-0.0349,0.01128,0.04763
0.15789,0.98346,-0.08825,-0.03207,0.01063,0.04471
0.15738,0.98354,-0.08825,-0.03068,0.00683,0.04134
0.15689,0.98362,-0.0883,-0.02322,0.00913,0.03991
0.15645,0.98369,-0.08828,-0.01864,0.01001,0.04299
0.1561,0.98376,-0.08815,-0.01293,0.00808,0.03946
0.15588,0.98382,-0.08784,-0.00697,0.00672,0.04011
0.15585,0.98386,-0.08746,-0.00896,0.0078,0.04181
0.15587,0.9839,-0.08691,-0.00937,0.00784,0.03863
0.15592,0.98396,-0.08619,-0.00219,0.00156,0.03805
0.15611,0.984,-0.0854,0.00055,-0.00113,0.03658
0.15643,0.98401,-0.08472,-0.00133,-0.0018,0.04022
0.1568,0.98399,-0.08426,-0.01366,0.00642,0.04474
0.15713,0.98394,-0.08422,-0.01294,0.00918,0.04602
0.15747,0.98386,-0.08443,0.00264,0.00481,0.04953
0.15783,0.98378,-0.08472,-0.00283,0.01089,0.05414
0.1581,0.98372,-0.08492,-0.00597,0.0121,0.05202
0.15827,0.9837,-0.08488,-0.00128,0.00645,0.05669
0.1585,0.98367,-0.08471,-0.00317,0.00172,0.05546
0.15879,0.98365,-0.08446,-0.01768,0.00561,0.05099
0.159,0.98365,-0.08407,-0.01921,0.00909,0.04902
0.15919,0.98365,-0.0837,-0.0136,0.01122,0.04935
0.15939,0.98364,-0.08341,-0.01492,0.0105,0.04901
0.15961,0.98362,-0.08328,-0.01438,0.01113,0.04693
0.15981,0.98358,-0.08331,-0.00684,0.00877,0.05061
0.16006,0.98352,-0.08349,-0.00462,0.00721,0.04756
0.1604,0.98344,-0.08386,-0.00655,0.00382,0.04676
0.1608,0.98333,-0.08437,-0.00963,0.00736,0.04726
0.16132,0.98319,-0.08497,-0.01274,0.014,0.04337
0.16184,0.98308,-0.08531,-0.00911,0.0073,0.04047
0.16252,0.98299,-0.08497,-0.00801,0.00141,0.03291
0.16342,0.98293,-0.08403,-0.01808,0.00076,0.03116
0.16448,0.98283,-0.08301,-0.02514,0.00627,0.03166
0.16587,0.98267,-0.08219,-0.02764,0.00615,0.03736
0.16769,0.98238,-0.08193,-0.03254,0.0017,0.03631
0.16989,0.98195,-0.08253,-0.03987,0.0021,0.03779
0.17212,0.98145,-0.08388,-0.0565,0.01603,0.04204
0.17443,0.98089,-0.08563,-0.05882,0.01659,0.04379
0.17647,0.98038,-0.08732,-0.053,0.01836,0.05043
0.1783,0.97992,-0.08871,-0.0533,0.01218,0.06019
0.18017,0.97948,-0.08979,-0.05633,0.01402,0.06538
0.18192,0.97907,-0.09074,-0.0597,0.01468,0.06531
0.18323,0.97874,-0.09167,-0.06563,0.02625,0.05495
0.1844,0.97844,-0.09252,-0.06735,0.02538,0.0582
0.1853,0.97822,-0.09308,-0.06327,0.01374,0.05318
0.18608,0.97802,-0.0936,-0.06314,0.01753,0.04452
0.1869,0.97784,-0.09379,-0.05947,0.01465,0.04324
0.18766,0.97773,-0.0935,-0.03281,0.00599,0.03696
0.18876,0.97758,-0.09279,-0.03272,0.00212,0.02023
0.19001,0.97745,-0.09163,-0.03433,0.00778,0.01543
0.19129,0.97732,-0.09029,-0.03208,0.00612,0.01328
0.19271,0.97719,-0.08874,-0.02428,0.00498,0.01372
0.19435,0.977,-0.08721,-0.02284,0.001,0.01742
0.19637,0.97671,-0.08587,-0.02638,0.00623,0.01693
0.19871,0.97631,-0.08508,-0.03574,0.02099,0.0267
0.2013,0.97579,-0.08489,-0.03875,0.01891,0.02735
0.20368,0.97529,-0.08506,-0.02367,0.01442,0.04118
0.20572,0.97483,-0.08536,-0.0133,0.01247,0.05385
0.20727,0.9745,-0.08543,-0.00745,0.01026,0.06575
0.20843,0.97429,-0.08492,-0.01115,0.00975,0.07433
0.20931,0.97422,-0.08359,-0.01625,0.01101,0.08353
0.21,0.97425,-0.0815,-0.0205,0.00636,0.08221
0.21058,0.97434,-0.07885,-0.03138,0.01185,0.0758
0.21107,0.97447,-0.07586,-0.03224,0.01474,0.06361
0.21144,0.97464,-0.07262,-0.03169,0.01695,0.05571
0.21161,0.97486,-0.06907,-0.02091,0.01673,0.04274
0.21147,0.97514,-0.06551,-0.00836,0.01154,0.0577
0.2111,0.97548,-0.06145,-0.00218,0.00838,0.04493
0.2106,0.97585,-0.05715,0.00248,0.00416,0.03336
0.21011,0.97621,-0.05253,0.00955,0.00745,0.03033
0.20968,0.97656,-0.04753,0.01468,0.00707,0.03024
0.20935,0.97687,-0.04239,0.01768,0.00983,0.02092
0.20898,0.97716,-0.03719,0.01374,0.00062,0.01736
0.20874,0.97739,-0.03203,0.01662,0.00346,0.01636
0.20859,0.97758,-0.02697,0.02096,0.00352,0.01649
0.20846,0.97774,-0.02177,0.0276,-0.00072,0.02305
0.20838,0.97786,-0.0163,0.03059,0.01094,0.03206
0.2085,0.97791,-0.01059,0.02862,0.01632,0.03238
0.20886,0.97788,-0.0049,0.02071,0.01385,0.0376
0.2094,0.97777,0.00071,0.02017,0.00855,0.03551
0.21007,0.97761,0.00644,0.017,0.00802,0.05323
0.21043,0.97748,0.01203,0.0047,0.02139,0.05954
0.21037,0.97741,0.01768,-0.00099,0.01014,0.07464
0.21013,0.97732,0.02423,-0.00165,-0.00446,0.07514
0.20943,0.97724,0.03197,-0.00279,-0.02308,0.0713
0.20824,0.97715,0.04126,-0.01726,-0.02639,0.06563
0.20685,0.97693,0.05196,-0.01064,-0.01893,0.0775
0.20482,0.97665,0.06403,-0.01256,-0.00907,0.08853
0.20206,0.97623,0.07762,-0.00875,-0.00741,0.086
0.19847,0.97567,0.09252,0.00241,-0.00507,0.09884
0.19436,0.97475,0.10943,0.02762,0.00356,0.1017
0.18977,0.97318,0.12954,0.04067,0.02178,0.07899
0.18535,0.97108,0.15012,0.04032,0.02014,0.09689
0.18148,0.96805,0.1727,0.06112,0.04053,0.07525
0.17803,0.96389,0.19771,0.07595,0.05193,0.06686
0.17592,0.95865,0.22342,0.03417,0.09772,-0.02076
0.17383,0.95368,0.24523,-0.0031,0.03431,0.04532
0.17132,0.94842,0.26647,-0.01579,0.01146,-0.01615
0.16839,0.94361,0.28478,-0.02198,-0.0007,-0.06592
0.16613,0.93955,0.29919,0.02273,-0.04997,-0.06103
0.16662,0.93609,0.30958,0.0212,-0.03103,-0.04947
0.16857,0.93335,0.31671,-0.00599,-0.07402,-0.01977
0.17047,0.93142,0.32132,-0.00136,-0.12252,-0.02559
0.17307,0.93015,0.32362,-0.00084,-0.14633,-0.01594
0.17682,0.92939,0.32377,-0.003,-0.1141,-0.00461
0.18157,0.92902,0.32219,-0.00324,-0.08576,0.01422
0.18678,0.92907,0.31907,-0.00895,-0.08216,0.02166
0.19235,0.92955,0.31432,-0.01187,-0.09572,0.03002
0.19801,0.93053,0.30783,-0.01059,-0.10917,0.02693
0.20364,0.93197,0.2997,-0.01263,-0.1137,0.02766
0.20902,0.93354,0.291,-0.00222,-0.05857,0.07007
0.2135,0.93477,0.28369,-0.01127,0.01582,0.08966
0.21552,0.93595,0.27825,-0.04865,0.06526,0.1008
0.21493,0.93746,0.27357,-0.11123,0.09384,0.17041
0.21158,0.93959,0.26884,-0.12135,0.10488,0.22983
0.20526,0.9421,0.26491,-0.07169,0.13222,0.21251
0.1975,0.94444,0.26246,-0.01953,0.03972,0.06803
0.19028,0.94636,0.26088,0.02096,-0.06791,0.05329
0.18498,0.94774,0.2597,0.05573,-0.11758,0.03247
0.1831,0.94799,0.2601,0.06334,-0.07714,0.03731
0.18429,0.94715,0.26231,0.02242,-0.02558,0.05574
0.18664,0.94565,0.26602,-0.02744,-0.00016,0.09645
0.18821,0.94402,0.27067,-0.06373,-0.00422,0.09647
0.18945,0.94237,0.27552,-0.04321,-0.0073,0.08185
0.19042,0.94089,0.27988,-0.03151,-0.00965,0.06686
0.19105,0.93963,0.28366,-0.03927,-0.00356,0.03649
0.19075,0.93868,0.28697,-0.04859,0.01716,0.04629
0.18925,0.93821,0.28949,-0.04969,0.02186,0.05581
0.18657,0.93841,0.29058,-0.05139,-0.00171,0.05694
0.18321,0.93924,0.29004,-0.04241,-0.01947,0.05043
0.17963,0.94054,0.28806,-0.03426,-0.02428,0.03915
0.1765,0.94202,0.28516,-0.02856,-0.02034,0.02638
0.17416,0.94339,0.28206,-0.02646,-0.02392,0.01879
0.17265,0.94444,0.27946,-0.02481,-0.02611,0.0194
0.17182,0.94504,0.27793,-0.02138,-0.01694,0.03256
0.17135,0.94534,0.27719,-0.0204,-0.00389,0.03966
0.17118,0.94552,0.27667,-0.01651,-0.00433,0.03975
0.17142,0.94567,0.27603,-0.01552,-0.00095,0.04137
0.17219,0.94576,0.27523,-0.0075,-0.00217,0.03201
0.17334,0.94584,0.27423,-0.00783,-0.0055,0.032
0.17474,0.94589,0.27319,-0.01052,-0.00309,0.03096
0.1762,0.94589,0.27224,-0.01819,-0.00767,0.03139
0.17772,0.94594,0.27107,-0.02134,-0.00933,0.0324
0.17921,0.94608,0.2696,-0.02403,-0.01262,0.03352
0.18067,0.94632,0.26778,-0.0273,-0.01628,0.03414
0.1821,0.94666,0.26559,-0.02604,-0.01438,0.03371
0.18357,0.94702,0.26328,-0.01764,-0.00751,0.03277
0.18516,0.94729,0.26117,-0.01133,-0.00477,0.03626
0.1869,0.94741,0.25952,-0.00493,0.00088,0.04064
0.18877,0.94738,0.25825,-0.00144,0.008,0.04535
0.19064,0.9473,0.25719,-0.00671,0.01411,0.04616
0.19236,0.94721,0.25623,-0.0089,0.00787,0.04452
0.1938,0.94717,0.25531,-0.00999,-0.00529,0.03962
0.19494,0.94717,0.25442,-0.01155,-0.01094,0.02913
0.19595,0.9472,0.25353,-0.01141,-0.01065,0.02319
0.19683,0.94726,0.25264,-0.00617,-0.01934,0.0178
0.19746,0.94736,0.25176,-0.00539,-0.02681,0.01817
0.19798,0.94748,0.25091,-0.00119,-0.02389,0.02052
0.19841,0.94759,0.25015,0.00722,-0.01453,0.02791
0.19867,0.94766,0.24969,0.00909,-0.00849,0.03283
0.19878,0.9476,0.24981,0.00929,-0.01523,0.03431
0.19878,0.94739,0.25062,0.0068,-0.01884,0.03226
0.19868,0.94704,0.252,0.00475,-0.01069,0.03506
0.19846,0.94665,0.25362,0.00698,0.00199,0.03886
0.19797,0.94633,0.2552,0.00332,0.00896,0.03674
0.19715,0.94612,0.2566,0.00104,0.00644,0.03278
0.19596,0.94606,0.25775,0.00259,0.00049,0.02484
0.19436,0.94613,0.2587,0.00489,-0.00625,0.01509
0.19254,0.94629,0.25949,0.00969,-0.01767,0.01062
0.19071,0.94649,0.26008,0.00964,-0.0234,0.00695
0.18911,0.94671,0.26045,0.00869,-0.0401,0.00664
0.18781,0.94695,0.26051,0.01255,-0.02747,0.02267
0.18684,0.94723,0.26022,0.01267,-0.02068,0.0308
0.18626,0.94749,0.25969,0.01308,-0.01426,0.03662
0.18619,0.94766,0.25911,0.00615,0.00649,0.05459
0.18643,0.94776,0.25855,0.00453,0.00386,0.05795
0.18702,0.94777,0.25811,0.00296,0.00334,0.0596
0.18797,0.94767,0.25779,-0.00047,0.00204,0.06516
0.18909,0.9476,0.25722,-0.00316,-0.00079,0.06651
0.1904,0.94756,0.25639,-0.00209,-0.00466,0.06731
0.19188,0.94754,0.25538,0.00401,-0.02591,0.05304
0.19337,0.94761,0.25397,0.01058,-0.02615,0.05517
0.19481,0.94781,0.25213,0.0152,-0.02487,0.05358
0.19626,0.94809,0.24997,0.01996,-0.02827,0.06142
0.19763,0.9485,0.24729,0.01908,-0.02779,0.0683
0.19901,0.94896,0.24441,0.01421,-0.02608,0.07572
0.20033,0.94939,0.24164,0.02199,-0.00649,0.10797
0.20112,0.95001,0.23855,0.01814,-0.00529,0.10997
0.20188,0.95046,0.23609,-0.03138,-0.02057,0.08848
0.20335,0.95043,0.23496,-0.08687,-0.01772,0.08649
0.20586,0.94983,0.23516,-0.10842,-0.00193,0.08668
0.20899,0.94886,0.23635,-0.13861,0.02804,0.0749
0.21195,0.94779,0.23799,-0.15325,0.01129,0.04957
0.21472,0.94677,0.23956,-0.15848,-0.00233,0.04701
0.21676,0.9461,0.24039,-0.1215,0.00058,0.0415
0.21724,0.94609,0.23998,-0.07451,-0.01137,0.04711
0.21582,0.94691,0.23802,-0.0568,-0.0205,0.03938
0.21278,0.94824,0.23544,-0.03868,-0.01164,0.02394
0.20921,0.94944,0.23379,-0.00759,-0.0036,0.03341
0.20543,0.95049,0.23289,0.01591,-0.00148,0.05335
0.20173,0.95142,0.23233,0.04664,0.01658,0.04812
0.19767,0.9522,0.23263,0.06031,-0.00104,0.03741
0.19377,0.95272,0.23376,0.05267,-0.03526,0.03886
0.19111,0.95304,0.23468,0.07615,-0.00983,0.03222
0.18886,0.95323,0.23571,0.06027,-0.03364,0.02081
0.18737,0.95336,0.23637,0.03926,-0.03981,0.02575
0.18657,0.95341,0.23679,0.02327,-0.03601,0.02459
0.18621,0.95334,0.23735,0.03086,-0.02591,0.02924
0.18611,0.95319,0.23802,0.03762,-0.01913,0.03453
0.1863,0.95296,0.23879,0.02957,-0.01379,0.04342
0.1868,0.95265,0.23967,0.01604,-0.00537,0.05341
0.18741,0.95229,0.2406,0.00822,-0.00269,0.05873
0.18822,0.95186,0.24166,-0.00818,-0.00647,0.06295
0.189,0.95142,0.24281,-0.01806,-0.01668,0.06115
0.18974,0.95093,0.24413,-0.02173,-0.01468,0.06196
0.19027,0.95044,0.24562,-0.02341,-0.0092,0.06179
0.19042,0.95,0.2472,-0.02758,-0.0029,0.06002
0.1901,0.94966,0.24876,-0.03118,-0.0032,0.05678
0.18925,0.94941,0.25033,-0.04043,-0.01324,0.05586
0.18801,0.94925,0.25188,-0.04379,-0.01842,0.05264
0.18652,0.94909,0.25359,-0.04328,-0.01519,0.05879
0.18493,0.9489,0.25544,-0.0444,-0.01393,0.05947
0.18334,0.94868,0.25741,-0.04097,-0.01624,0.06243
0.18194,0.94842,0.25935,-0.04141,-0.01838,0.06428
0.18078,0.94814,0.26118,-0.03643,-0.02144,0.06417
0.17983,0.94788,0.26278,-0.02381,-0.02095,0.08136
0.17944,0.94763,0.26393,-0.02417,-0.01967,0.08145
0.17938,0.94739,0.26485,-0.02953,-0.02071,0.08723
0.17927,0.94715,0.26575,-0.03381,-0.03283,0.0926
0.17913,0.94698,0.26645,-0.03832,-0.03332,0.08822
0.17879,0.94691,0.26694,-0.04094,-0.03166,0.0886
0.17819,0.94687,0.26747,-0.04962,0.00868,0.07057
0.17737,0.94692,0.26786,-0.05249,0.0158,0.06697
0.17635,0.94693,0.26848,-0.06413,0.007,0.05846
0.17504,0.94699,0.26914,-0.06214,-0.00218,0.04294
0.17332,0.94711,0.26981,-0.06207,0.00109,0.02233
0.17149,0.94725,0.2705,-0.06286,0.0101,0.02819
0.1698,0.94747,0.27078,-0.08041,0.01217,0.02971
0.16865,0.94772,0.27064,-0.09703,0.00646,0.01909
0.16846,0.94781,0.27044,-0.09247,-0.00244,0.0132
0.16911,0.94768,0.2705,-0.07206,-0.01311,0.01398
0.17033,0.94739,0.27075,-0.05366,-0.01247,0.00719
0.17187,0.94706,0.27093,-0.04939,-0.00977,0.00436
0.17339,0.9468,0.27085,-0.04731,-0.01371,0.00228
0.17465,0.94666,0.27053,-0.03056,-0.00614,0.00619
0.17536,0.94671,0.26989,-0.005,-0.00175,0.00921
0.17531,0.94702,0.26885,0.01521,-0.00416,0.00679
0.17474,0.9475,0.26752,0.02543,-0.0078,0.00424
0.17386,0.9481,0.26598,0.02081,-0.02169,0.00824
0.17297,0.94873,0.26429,0.02071,-0.02112,0.01936
0.17222,0.94934,0.2626,0.02125,-0.01956,0.03383
0.17167,0.94987,0.26101,0.02339,-0.02422,0.04351
0.17143,0.95033,0.25949,0.02779,-0.03264,0.04695
0.17148,0.95073,0.258,0.03497,-0.03676,0.05063
0.17191,0.95109,0.25637,0.04562,-0.03038,0.05538
0.17274,0.9514,0.25467,0.05394,-0.01568,0.06373
0.17386,0.95161,0.25312,0.0551,-0.00887,0.07299
0.17533,0.95161,0.25209,0.06031,-0.002,0.08294
0.17676,0.95147,0.25161,0.06353,-0.00564,0.0883
0.17822,0.95117,0.25174,0.05779,-0.01359,0.09018
0.17955,0.95077,0.2523,0.05527,-0.01949,0.08696
0.18068,0.95039,0.25294,0.03099,-0.0301,0.06974
0.18158,0.95006,0.25352,0.01867,-0.03037,0.06519
0.18247,0.94969,0.25425,0.00935,-0.03183,0.06057
0.18361,0.94918,0.25534,-0.00697,-0.03068,0.04801
0.18458,0.94868,0.2565,-0.00996,-0.02633,0.04774
0.18545,0.9482,0.25766,-0.00973,-0.02399,0.04631
0.18606,0.94776,0.25881,-0.02116,-0.01095,0.06216
0.18615,0.94752,0.25962,-0.02359,-0.00941,0.06298
0.18582,0.9474,0.26032,-0.02566,-0.01045,0.06655
0.18526,0.94727,0.26119,-0.02588,-0.00212,0.07272
0.18456,0.94714,0.26213,-0.02236,-0.00055,0.07348
0.1839,0.947,0.2631,-0.02103,-0.0029,0.07046
0.18338,0.94687,0.26395,-0.03045,-0.01024,0.06149
0.183,0.94681,0.26443,-0.03907,-0.01138,0.0581
0.18255,0.94681,0.26474,-0.04225,-0.01765,0.05524
0.18194,0.94682,0.26513,-0.03755,-0.04142,0.0324
0.1812,0.94686,0.26546,-0.03483,-0.03906,0.02961
0.18043,0.94685,0.26603,-0.05076,-0.0143,0.03327
0.17981,0.94672,0.26693,-0.06529,0.00687,0.04049
0.17928,0.94647,0.26817,-0.07177,0.00941,0.0357
0.17853,0.94616,0.26976,-0.05613,0.02328,0.02223
0.17722,0.94596,0.27132,-0.04759,0.02766,0.01461
0.17561,0.94597,0.27232,-0.04232,0.02486,0.01478
0.17411,0.94628,0.27222,-0.0475,0.00868,0.01247
0.17299,0.94684,0.27097,-0.036,-0.00327,0.00828
0.1722,0.94763,0.26869,-0.02683,-0.01094,0.0103
0.17159,0.94869,0.26533,-0.01082,-0.03103,0.00927
0.17159,0.94981,0.2613,-0.00385,-0.0391,0.01516
0.17207,0.95086,0.25711,-0.00267,-0.0283,0.02447
0.1729,0.95182,0.25299,-0.0105,-0.01923,0.03192
0.17424,0.9526,0.24912,-0.02152,-0.01156,0.0339
0.17597,0.95313,0.24586,-0.02982,-0.01227,0.0331
0.17809,0.95336,0.24342,-0.03549,-0.0087,0.03626
0.18029,0.95334,0.24186,-0.04181,-0.00441,0.04723
0.18232,0.95321,0.24087,-0.04749,-0.00443,0.05503
0.18377,0.95309,0.24024,-0.05088,-0.00426,0.04841
0.18463,0.95296,0.24007,-0.04785,-0.00956,0.05554
0.18509,0.95276,0.24052,-0.04763,-0.01055,0.05312
0.18515,0.95256,0.24126,-0.04418,0.00068,0.05251
0.18463,0.95243,0.24219,-0.04006,0.00094,0.0642
0.18364,0.9524,0.24306,-0.03816,-0.00173,0.06923
0.18221,0.95256,0.24352,-0.02348,-0.01568,0.08557
0.18039,0.95298,0.24322,-0.01036,-0.00853,0.08905
0.17806,0.95367,0.24222,0.00674,0.00046,0.09298
0.17528,0.95459,0.24062,0.01104,-0.00546,0.09002
0.17234,0.95556,0.2389,0.00209,-0.00954,0.07438
0.16959,0.95639,0.23754,0.00503,-0.01411,0.0674
0.16735,0.95695,0.23685,0.00261,-0.01781,0.05961
0.16594,0.95719,0.23687,-0.00261,-0.02413,0.05546
0.16511,0.95728,0.23712,-0.00106,-0.02695,0.05465
0.16471,0.95724,0.23753,-0.00062,-0.02521,0.05428
0.16453,0.95715,0.23803,-0.00195,-0.00811,0.05256
0.16433,0.95711,0.23832,-0.00775,-0.00423,0.05222
0.16416,0.95705,0.23866,-0.01123,-0.00324,0.0459
0.16399,0.9569,0.2394,-0.00171,-0.00916,0.01628
0.16358,0.95671,0.24042,0.0111,-0.01754,0.01087
0.16273,0.95662,0.24138,0.04573,-0.0274,0.00605
0.16143,0.95677,0.24166,0.07741,-0.03442,0.0167
0.15982,0.95723,0.24092,0.09727,-0.0413,0.03186
0.15797,0.95793,0.23935,0.11709,-0.03353,0.05189
0.1561,0.95871,0.23743,0.1299,-0.02225,0.06417
0.15414,0.95946,0.23566,0.13874,-0.02608,0.06463
0.15243,0.96008,0.23424,0.15069,-0.03921,0.06376
0.15071,0.96064,0.23305,0.15079,-0.04399,0.06999
0.14897,0.96116,0.23203,0.14341,-0.04689,0.07327
0.14779,0.96151,0.23133,0.11778,-0.0422,0.06778
0.14675,0.9617,0.23123,0.10011,-0.03079,0.06574
0.14617,0.96164,0.23181,0.07505,-0.01653,0.06853
0.14627,0.96133,0.23306,0.04173,-0.01354,0.07244
0.1471,0.96073,0.23499,0.02563,-0.00097,0.07744
0.14832,0.95987,0.23772,0.02435,0.01651,0.07636
0.14954,0.95888,0.24092,0.031,0.01968,0.0773
0.15065,0.958,0.24372,0.03376,-0.00309,0.08584
0.15157,0.95739,0.24554,0.0203,-0.01124,0.08803
0.15206,0.95711,0.24633,0.01475,-0.01071,0.05382
0.15253,0.95693,0.24672,0.00773,-0.01007,0.04232
0.15331,0.95669,0.24718,-0.00746,-0.01098,0.0303
0.15451,0.95619,0.24836,-0.02794,-0.00205,0.01117
0.15631,0.9553,0.25064,-0.04478,-0.00934,0.00604
0.15881,0.95409,0.25367,-0.05794,-0.02439,0.01264
0.16208,0.95272,0.25674,-0.07447,-0.03658,0.03253
0.1662,0.95137,0.25911,-0.07886,-0.02781,0.04992
0.17039,0.95028,0.26038,-0.07351,-0.02006,0.04879
0.17339,0.94971,0.26048,-0.04052,-0.00725,0.04097
0.17471,0.94966,0.25976,-0.01786,-0.00476,0.02766
0.17433,0.95006,0.25856,-0.00857,-0.00701,0.02837
0.17279,0.95067,0.25733,-0.02688,-0.00849,0.03415
0.1713,0.95123,0.25626,-0.07572,-0.01158,0.05827
0.17067,0.95152,0.2556,-0.11915,-0.0109,0.07672
0.17122,0.95144,0.25555,-0.13594,-0.01559,0.0794
0.17245,0.95122,0.25555,-0.09239,-0.01198,0.06745
0.1735,0.95115,0.25508,-0.07204,-0.00866,0.06341
0.1737,0.95141,0.25396,-0.0541,-0.0078,0.06483
0.17224,0.95219,0.25206,-0.00136,-0.00786,0.0719
0.1701,0.95335,0.24907,0.00681,-0.01331,0.07377
0.16752,0.9548,0.24527,0.01178,-0.01858,0.07293
0.16531,0.95611,0.24164,-0.00234,-0.03338,0.03287
0.16426,0.9569,0.23921,-0.00452,-0.03895,0.02311
0.16444,0.95701,0.23865,-0.00683,-0.04134,0.01725
0.16558,0.95654,0.23974,-0.0289,-0.03145,0.0375
0.16704,0.95579,0.2417,-0.03309,-0.02374,0.04956
0.16833,0.95497,0.24404,-0.0375,-0.01274,0.06204
0.16899,0.95426,0.24633,-0.04335,0.01429,0.09874
0.16883,0.95382,0.24817,-0.04402,0.0086,0.09416
0.16793,0.95361,0.24957,-0.04533,-0.03694,0.05091
0.16673,0.95353,0.25066,-0.04416,-0.04997,0.03271
0.16538,0.9535,0.25168,-0.03564,-0.05249,0.02976
0.16378,0.95354,0.25258,-0.01926,-0.03601,0.04732
0.16163,0.95372,0.25329,-0.00074,-0.00651,0.06942
0.15886,0.9541,0.25358,0.01065,0.01002,0.08187
0.15565,0.95476,0.25312,0.03633,0.05345,0.09117
0.15231,0.95568,0.25168,0.0342,0.03615,0.06629
0.14936,0.95658,0.25002,0.03803,0.01834,0.05359
0.14793,0.9571,0.24888,0.05124,-0.03431,0.00938
0.14888,0.95716,0.24808,0.05478,-0.03624,0.01243
0.1523,0.95695,0.24681,0.04886,-0.03625,0.01457
0.15789,0.95653,0.24488,0.02905,-0.01383,0.02926
0.16477,0.95606,0.24218,0.00866,-0.0049,0.04491
0.17209,0.95559,0.23895,-0.00512,-0.00818,0.05048
0.17916,0.95515,0.23549,-0.00768,-0.00898,0.037
0.18579,0.95459,0.23261,-0.01257,-0.00564,0.0377
0.19202,0.95386,0.23053,-0.02016,-0.00299,0.03765
0.19783,0.953,0.22916,-0.03804,-0.00216,0.03957
0.20332,0.95204,0.22833,-0.05441,-0.01146,0.03947
0.20818,0.95113,0.22776,-0.07733,-0.01276,0.04148
0.21188,0.95046,0.22711,-0.10193,-0.00167,0.05221
0.21448,0.95014,0.22603,-0.13158,-0.00304,0.0549
0.21602,0.95012,0.22462,-0.15315,-0.00367,0.05512
0.21676,0.95037,0.22287,-0.16819,0.00292,0.05264
0.21648,0.95085,0.2211,-0.15997,0.00905,0.06316
0.21441,0.95171,0.21941,-0.1414,0.00812,0.07183
0.21032,0.95295,0.21796,-0.06373,-0.02769,0.04992
0.20579,0.95419,0.21686,-0.02729,-0.03279,0.0293
0.20124,0.95532,0.21616,0.00183,-0.03209,0.02663
0.19673,0.95631,0.21591,0.01763,-0.03,0.02867
0.19236,0.95716,0.21609,0.03244,-0.02329,0.03108
0.18809,0.95786,0.21676,0.04994,-0.01183,0.03228
0.18402,0.95844,0.21766,0.0663,-0.00527,0.02907
0.18026,0.95902,0.21828,0.07994,0.01274,0.02614
0.177,0.95966,0.21812,0.08024,0.0242,0.0235
0.17432,0.96043,0.2169,0.06496,0.02079,0.02158
0.17237,0.96129,0.21461,0.04928,0.0144,0.03021
0.1708,0.96235,0.21111,0.04723,0.00737,0.03753
0.1695,0.96354,0.20667,0.03968,-0.01184,0.04356
0.16854,0.96473,0.20188,0.03476,-0.02726,0.0533
0.16767,0.96578,0.19751,0.04508,-0.03181,0.0605
0.16668,0.96669,0.19388,0.05805,-0.03422,0.06621
0.16573,0.96741,0.19106,0.10634,-0.04319,0.06042
0.16511,0.9679,0.18914,0.09977,-0.02055,0.05648
0.1647,0.96815,0.18817,0.08981,-0.01337,0.07024
0.16404,0.96832,0.18787,0.08797,-0.01538,0.07477
0.16319,0.96844,0.18801,0.08147,-0.01095,0.06335
0.16223,0.96857,0.18817,0.07285,-0.01207,0.05191
0.16103,0.96877,0.18816,0.05889,-0.02198,0.0465
0.15942,0.96912,0.18774,0.03921,-0.03036,0.03974
0.15745,0.96963,0.18677,0.03098,-0.03283,0.03165
0.15537,0.97024,0.18535,0.03775,-0.03429,0.02281
0.15342,0.97083,0.18388,0.04673,-0.03417,0.02457
0.1521,0.97121,0.18294,0.07752,-0.03414,0.03682
0.15137,0.97136,0.18275,0.08956,-0.02474,0.05297
0.15119,0.97131,0.18318,0.08431,-0.01875,0.05787
0.15144,0.9711,0.18407,0.0678,-0.00702,0.06161
0.15173,0.97087,0.18507,0.06173,-0.00508,0.05909
0.15197,0.97068,0.18585,0.05881,-0.0102,0.05391
0.15208,0.97058,0.1863,0.05341,-0.01412,0.04539
0.15202,0.97058,0.18632,0.04917,-0.01643,0.04551
0.15178,0.97069,0.18596,0.04521,-0.01698,0.04557
0.15136,0.97086,0.18539,0.05165,-0.02224,0.04756
0.15087,0.97105,0.18483,0.05894,-0.02531,0.04784
0.15056,0.97115,0.18452,0.06215,-0.02196,0.05228
0.15043,0.97116,0.18456,0.06126,-0.02143,0.0559
0.15062,0.97103,0.18511,0.0509,-0.01627,0.0502
0.15084,0.97083,0.186,0.05069,-0.01607,0.0493
0.1514,0.97052,0.18713,0.03662,-0.01534,0.04442
0.15204,0.97022,0.1882,0.02582,-0.0137,0.04393
0.15247,0.96999,0.18902,0.02539,-0.01348,0.04312
0.1529,0.96982,0.18956,0.02352,-0.01712,0.04911
0.15318,0.96971,0.18989,0.02184,-0.01879,0.05228
0.15334,0.96962,0.19019,0.02117,-0.01667,0.05572
0.15344,0.96952,0.19065,0.0198,-0.0169,0.05698
0.15358,0.96935,0.19136,0.01936,-0.02056,0.05895
0.15374,0.96918,0.19212,0.0207,-0.01596,0.05705
0.15398,0.969,0.19282,0.01602,-0.01222,0.0521
0.15418,0.96885,0.19344,0.01724,-0.01583,0.05084
0.15432,0.96872,0.19396,0.01744,-0.01712,0.0538
0.15441,0.96863,0.19433,0.01547,-0.01844,0.0501
0.15452,0.96858,0.19449,0.0103,-0.01921,0.04935
0.15463,0.96855,0.19457,0.00748,-0.01733,0.05409
0.15475,0.96851,0.19467,0.00937,-0.01749,0.05637
0.15494,0.96845,0.19481,0.01338,-0.01915,0.05633
0.15515,0.96836,0.19508,0.01317,-0.01391,0.05866
0.15532,0.96826,0.19544,0.01335,-0.01053,0.06512
0.15545,0.96815,0.19586,0.0139,-0.00781,0.06578
0.15553,0.96806,0.19627,0.00796,-0.01333,0.06618
0.15546,0.96799,0.19667,0.00483,-0.01677,0.06453
0.15518,0.96796,0.19702,0.00076,-0.01223,0.06468
0.15467,0.96798,0.19733,-7e-05,-0.01312,0.06432
0.15391,0.96805,0.19762,0.00598,-0.01228,0.06025
0.15293,0.96812,0.19799,0.01214,-0.01665,0.055
0.15186,0.96818,0.19853,0.01533,-0.01933,0.05067
0.15079,0.96817,0.1994,0.01942,-0.01912,0.04746
0.14982,0.96812,0.20039,0.01499,-0.01585,0.04833
0.14892,0.96805,0.20139,0.01767,-0.01424,0.04966
0.1481,0.96797,0.20237,0.02231,-0.01456,0.04936
0.14731,0.96791,0.20322,0.02372,-0.01577,0.05194
0.14651,0.96787,0.20398,0.0251,-0.01289,0.0518
0.14579,0.96782,0.20474,0.02732,-0.01467,0.05053
0.14516,0.96778,0.2054,0.02869,-0.01905,0.04905
0.14474,0.96773,0.20594,0.02755,-0.02272,0.04899
0.14452,0.96769,0.20629,0.02638,-0.02187,0.05141
0.14444,0.96765,0.20652,0.02751,-0.02778,0.05269
0.14449,0.96759,0.20674,0.02743,-0.02466,0.04971
0.14472,0.9675,0.20703,0.03156,-0.01477,0.0475
0.14518,0.96734,0.20746,0.0387,-0.01687,0.05084
0.14587,0.96712,0.20799,0.04441,-0.02098,0.04947
0.14679,0.96688,0.20846,0.04149,-0.02581,0.05306
0.14788,0.96667,0.20865,0.01052,-0.01188,0.07173
0.14879,0.9666,0.20835,0.00042,0.00351,0.07936
0.14957,0.96665,0.20755,-0.01222,0.02111,0.08995
0.15032,0.96675,0.20653,0.01456,0.02599,0.08723
0.15101,0.96693,0.20517,0.03019,0.0202,0.08359
0.15182,0.96728,0.20291,0.04596,-0.01701,0.05901
0.15289,0.9679,0.19912,0.03591,-0.01429,0.05688
0.15435,0.96874,0.19383,0.03079,-0.01809,0.05833
0.15619,0.96959,0.18804,0.04521,-0.03607,0.05949
0.15836,0.97025,0.18277,0.07473,-0.04576,0.05757
0.16074,0.97062,0.17864,0.10466,-0.04452,0.05915
0.16332,0.9707,0.17584,0.12139,-0.02257,0.06007
0.1667,0.9704,0.17433,0.12415,0.00257,0.05687
0.17092,0.96976,0.17382,0.09126,0.02144,0.04774
0.17584,0.9688,0.17424,-0.01828,-0.11155,0.05499
0.18073,0.96761,0.17587,-0.09108,-0.11238,0.04049
0.18434,0.96631,0.17923,-0.11973,-0.10303,0.01637
0.18597,0.96507,0.18416,-0.07381,-0.08091,0.0092
0.18564,0.96435,0.18824,-0.04075,-0.05997,0.02772
0.18458,0.96418,0.19011,-0.0267,0.01529,0.07992
0.18374,0.96441,0.18974,-0.00941,0.04178,0.12789
0.18278,0.96505,0.18743,0.02382,0.02557,0.12544
0.18159,0.96581,0.18462,0.0957,0.00182,0.08036
0.18015,0.96668,0.18145,0.16329,-0.0314,0.05665
0.17847,0.96758,0.1783,0.15911,-0.04662,0.03997
0.17706,0.96847,0.17484,0.13517,-0.04043,0.02465
0.17564,0.96953,0.17036,0.1047,-0.03317,0.02766
0.17413,0.97084,0.16437,0.06106,0.00444,0.07467
0.1724,0.97237,0.15695,0.03277,0.01789,0.11528
0.17046,0.9739,0.14941,-0.09862,0.01272,0.18637
0.16702,0.97521,0.14471,-0.14755,0.00394,0.18086
0.1614,0.97606,0.14534,-0.14076,0.00153,0.16165
0.15705,0.97573,0.15217,0.06867,-0.06557,0.07955
0.15563,0.97398,0.16431,0.25933,-0.08328,0.03128
0.15777,0.97143,0.17691,0.18871,-0.06034,0.0297
0.16293,0.96914,0.1846,0.03288,0.02976,0.10133
0.16605,0.96803,0.18764,-0.1361,0.06107,0.12932
0.16548,0.9678,0.18933,-0.2295,0.02589,0.0751
0.1617,0.96843,0.18934,-0.16218,-0.01275,0.04817
0.15574,0.96985,0.18708,-0.07647,-0.02898,0.02395
0.15008,0.97134,0.18393,-0.00164,-0.02635,0.04645
0.14578,0.97265,0.18042,0.02653,-0.03123,0.08441
0.14285,0.97371,0.17702,0.02098,-0.02924,0.07266
0.14111,0.97438,0.17474,0.0217,-0.02904,0.05843
0.13987,0.97457,0.17467,0.01941,-0.01941,0.08463
0.13884,0.97451,0.17581,0.01438,-0.00764,0.09599
0.13767,0.9744,0.17732,0.01707,-0.0052,0.08765
0.13654,0.97436,0.17841,0.03401,-0.01361,0.04894
0.13551,0.97449,0.17852,0.02563,-0.03124,0.0276
0.1344,0.97474,0.17797,0.01938,-0.03216,0.02465
0.13294,0.97509,0.17716,0.02212,-0.02007,0.04351
0.13119,0.97554,0.17598,0.03593,-0.01809,0.05789
0.12925,0.97612,0.1742,0.04615,-0.01532,0.06445
0.12688,0.97685,0.17178,0.03646,-0.01708,0.07202
0.12422,0.97774,0.16867,0.02979,-0.01511,0.07445
0.12149,0.97875,0.16478,0.02186,0.00021,0.07079
0.11858,0.97982,0.16048,0.02862,0.00372,0.04351
0.11601,0.98086,0.15589,0.04491,0.00682,0.04354
0.11406,0.98186,0.15096,0.04466,0.01391,0.05019
0.11258,0.98284,0.14566,0.04409,0.01468,0.0465
0.11155,0.98383,0.1396,0.04559,0.00434,0.04572
0.11085,0.98491,0.13237,0.03708,0.00572,0.0516
0.11017,0.98609,0.12388,0.02724,0.01324,0.05671
0.10925,0.98736,0.11418,0.01603,0.01181,0.04439
0.10822,0.98865,0.10351,0.01425,0.00758,0.04591
0.10728,0.98988,0.0922,0.01192,-0.00166,0.0527
0.10635,0.991,0.08046,0.01253,-0.019,0.04818
0.10562,0.99198,0.06848,0.01088,-0.01944,0.04234
0.10535,0.99277,0.0564,0.00478,-0.00766,0.0425
0.10561,0.99335,0.04451,-0.00643,-0.01883,0.04281
0.10655,0.99369,0.03322,-0.0053,-0.0159,0.04235
0.10795,0.99384,0.02234,0.01558,-0.00484,0.05195
0.10945,0.99386,0.01145,0.01298,0.00252,0.03261
0.1108,0.99378,0.00058,0.01217,-0.00696,0.03297
0.11283,0.99351,-0.00888,0.01084,-0.04747,-0.00876
0.11574,0.99306,-0.01756,0.01403,-0.07877,-0.00443
0.11956,0.99245,-0.0248,0.01243,-0.1025,0.00927
0.12348,0.99183,-0.03005,0.06096,-0.08384,0.07628
0.12738,0.99122,-0.03383,-0.00418,-0.0123,0.09955
0.13078,0.99063,-0.03775,-0.05414,0.08949,0.14786
0.13046,0.99049,-0.04221,-0.04834,0.09181,0.1866
0.12787,0.99072,-0.04479,-0.00188,0.06592,0.17843
0.12464,0.99113,-0.04466,-0.01861,0.03964,0.11681
0.12114,0.99162,-0.0434,-0.06032,0.01375,0.07581
0.1175,0.99212,-0.04211,-0.06249,0.01046,0.01918
0.11399,0.9925,-0.04273,-0.01688,-0.0045,-0.01794
0.11081,0.99271,-0.04615,0.02748,-0.01508,-0.02327
0.10884,0.99267,-0.0513,0.07805,0.00885,-0.07881
0.10723,0.9925,-0.05764,0.11065,0.06139,-0.09833
0.10597,0.99223,-0.06424,0.1386,0.07327,-0.09351
0.10596,0.99181,-0.07051,0.26353,-0.09163,0.00267
0.10749,0.99132,-0.07489,0.26201,-0.09115,0.00705
0.10785,0.99067,-0.08267,0.26112,0.00932,0.05896
0.10768,0.98979,-0.09278,0.1017,0.00522,0.07483
0.10786,0.98893,-0.10131,0.00377,-0.00749,0.08369
0.10845,0.98837,-0.10607,0.02801,0.01384,0.08618
0.11003,0.98808,-0.10715,0.02104,-0.00109,0.07541
0.11202,0.98806,-0.10528,-0.04827,0.03926,0.01588
0.11333,0.98836,-0.1009,-0.12989,0.05084,0.01014
0.11383,0.98878,-0.09615,-0.11801,0.08335,0.11928
0.11295,0.98902,-0.09473,-0.04349,0.02485,0.16973
0.1115,0.98901,-0.09652,0.07949,-0.02189,0.09864
0.11049,0.98904,-0.09738,0.09528,-0.02679,0.03875
0.11012,0.98925,-0.09566,0.04228,0.01019,0.04593
0.10936,0.98951,-0.09381,-0.03231,0.02629,0.03528
0.1083,0.98974,-0.09263,-0.07048,-0.01761,0.00463
0.10741,0.98998,-0.09104,-0.0636,-0.03928,0.00684
0.10668,0.99021,-0.08934,-0.05999,-0.02181,0.02834
0.10586,0.99039,-0.08838,-0.07769,-0.00153,0.03377
0.10479,0.99049,-0.08854,-0.09227,0.01536,0.03994
0.10374,0.99054,-0.08919,-0.09338,0.02669,0.05405
0.10295,0.9906,-0.0894,-0.0915,0.03873,0.0549
0.10247,0.99067,-0.08925,-0.08898,0.04148,0.05365
0.1019,0.9908,-0.08837,-0.08816,0.02821,0.03489
0.1017,0.99092,-0.08725,-0.0818,0.02519,0.03008
0.10159,0.991,-0.08651,-0.06416,0.01027,0.03236
0.10161,0.99101,-0.08636,-0.04167,-0.01368,0.03346
0.10202,0.99089,-0.08723,-0.04009,-0.0146,0.03445
0.10272,0.99065,-0.08913,-0.0482,-0.00802,0.03372
0.10356,0.99031,-0.0919,-0.05307,0.01047,0.0375
0.10432,0.9899,-0.09536,-0.03813,0.01914,0.04592
0.10471,0.98946,-0.09944,-0.01253,0.01301,0.05141
0.10494,0.989,-0.10373,0.01762,-0.00079,0.0542
0.10534,0.98857,-0.1073,0.03857,-0.01427,0.06157
0.10595,0.9882,-0.11008,0.05386,-0.01713,0.07045
0.10662,0.98787,-0.11239,0.04956,-0.00192,0.07785
0.10704,0.98752,-0.11507,0.04708,0.00373,0.07555
0.10722,0.98704,-0.11891,0.0544,0.00245,0.07488
0.10797,0.98658,-0.12203,0.08608,0.00166,0.1175
0.10968,0.98639,-0.12207,0.10461,0.0197,0.11174
0.11155,0.98641,-0.12015,0.09377,0.01943,0.07087
0.1133,0.98656,-0.11722,0.08688,0.02323,0.05744
0.11475,0.98671,-0.11453,0.07995,0.01539,0.04468
0.11582,0.98682,-0.11251,0.08778,0.00354,0.04379
0.11668,0.9869,-0.11092,0.09499,-0.0031,0.0405
0.11776,0.98692,-0.10959,0.09721,0.00438,0.04172
0.11865,0.98692,-0.10864,0.09632,0.00439,0.04077
0.11957,0.98685,-0.10824,0.07723,0.00425,0.0426
0.12035,0.98674,-0.10839,0.06808,0.00229,0.04563
0.1208,0.98664,-0.10881,0.06282,0.00199,0.05347
0.12105,0.98655,-0.10933,0.05698,0.00358,0.0588
0.12129,0.98647,-0.10982,0.03664,0.0029,0.0786
0.12126,0.98642,-0.11025,0.03269,0.00331,0.08119
0.12134,0.98639,-0.11041,0.01806,0.00067,0.08824
0.12142,0.98639,-0.11034,-0.00164,0.00313,0.08765
0.12142,0.9864,-0.11028,-0.01635,0.00819,0.08547
0.12138,0.98641,-0.11021,-0.02121,0.00265,0.0859
0.12138,0.98644,-0.10993,-0.02081,0.00379,0.08913
0.12149,0.98649,-0.10937,-0.02105,0.00269,0.09041
0.12175,0.98658,-0.10827,-0.01701,0.00829,0.09303
0.12211,0.98669,-0.10681,-0.02036,0.00638,0.08905
0.12239,0.98683,-0.10527,-0.02643,0.00956,0.07672
0.12252,0.98697,-0.10372,-0.02066,0.0104,0.0684
0.12269,0.98713,-0.102,-0.01294,0.00494,0.05659
0.12287,0.9873,-0.10008,-0.00685,0.0045,0.04657
0.12297,0.98749,-0.09807,0.00116,0.00093,0.03275
0.12315,0.98765,-0.09629,0.01413,-0.0073,0.03205
0.12366,0.98772,-0.09482,0.02095,-0.01151,0.0379
0.12448,0.98775,-0.09348,0.01216,-0.00495,0.05164
0.12546,0.98772,-0.09248,-0.00641,0.00972,0.06563
0.12621,0.98767,-0.09195,-0.01993,0.02302,0.07545
0.12643,0.98766,-0.09175,-0.05021,0.02409,0.09586
0.12615,0.98773,-0.09144,-0.04676,0.02144,0.10687
0.12566,0.98788,-0.09045,-0.0409,0.01744,0.10801
0.12506,0.98813,-0.08849,-0.02311,0.01388,0.10082
0.12415,0.98843,-0.08648,-0.02076,0.00925,0.09219
0.12307,0.98875,-0.08428,-0.01081,0.00746,0.08586
0.12185,0.98907,-0.08228,0.00658,0.00836,0.0858
0.12053,0.98939,-0.0804,0.02939,0.00558,0.086
0.11923,0.98972,-0.07829,0.05171,0.00064,0.08653
0.11798,0.99003,-0.07615,0.06517,0.00339,0.07038
0.11657,0.99032,-0.07461,0.07873,0.00036,0.05627
0.11496,0.99054,-0.07412,0.09544,-0.00894,0.0441
0.11346,0.9907,-0.07427,0.11952,-0.0128,0.04431
0.11236,0.99083,-0.07426,0.12659,-0.02328,0.04731
0.11186,0.99092,-0.07372,0.12766,-0.01586,0.03862
0.11152,0.99097,-0.07362,0.11808,-0.01256,0.03116
0.11125,0.99097,-0.07398,0.1172,-0.00878,0.0294
0.1109,0.99095,-0.07477,0.11854,-0.00917,0.0283
0.11082,0.99087,-0.07603,0.11724,-0.01751,0.02737
0.11073,0.99075,-0.07768,0.10259,-0.01025,0.04212
0.11041,0.99063,-0.07961,0.09392,-0.00482,0.04476
0.11006,0.9905,-0.08168,0.08548,-0.00463,0.04837
0.1101,0.99035,-0.0835,0.05086,-0.00075,0.06256
0.10998,0.99024,-0.08496,0.03829,-0.00054,0.06709
0.10998,0.99013,-0.08621,0.02387,0.0043,0.06877
0.11027,0.99,-0.08726,-0.01212,0.01222,0.06065
0.11051,0.98991,-0.08797,-0.01261,0.01082,0.05897
0.11103,0.98983,-0.08826,-0.00995,0.00826,0.05864
0.11184,0.98975,-0.08813,0.00594,0.00315,0.06173
0.11291,0.98964,-0.08801,0.00524,-0.00051,0.06051
0.11429,0.98949,-0.08794,-0.00077,0.00046,0.0615
0.11588,0.98931,-0.08791,-0.02348,0.01425,0.0616
0.11767,0.98909,-0.08793,-0.03489,0.01141,0.0589
0.11932,0.9889,-0.08782,-0.03848,0.00843,0.05971
0.12071,0.98876,-0.08754,-0.02513,0.00749,0.07668
0.12202,0.98862,-0.08725,-0.02373,0.00545,0.07755
0.12308,0.98852,-0.08694,-0.03203,0.0064,0.07794
0.12425,0.98841,-0.08657,-0.03889,0.0057,0.07155
0.12557,0.98829,-0.08602,-0.04032,0.0073,0.06542
0.12683,0.9882,-0.08523,-0.05085,0.00283,0.05401
0.12815,0.98812,-0.08416,-0.0456,-0.00321,0.06012
0.12949,0.98806,-0.08272,-0.04217,-0.00399,0.06278
0.13062,0.98805,-0.08107,-0.03936,-0.00235,0.07427
0.13167,0.98804,-0.07944,-0.03795,-0.00216,0.07211
0.13253,0.98805,-0.07788,-0.03907,-0.00343,0.07068
0.13283,0.9881,-0.07672,-0.0413,0.00254,0.07303
0.13266,0.98817,-0.07621,-0.02814,0.02702,0.08673
0.13211,0.98825,-0.07604,-0.01841,0.03392,0.09543
0.13136,0.98839,-0.07555,0.0118,0.01405,0.09643
0.13091,0.98854,-0.07443,0.01977,0.00702,0.08427
0.1308,0.98867,-0.07275,0.01632,0.00745,0.07806
0.13073,0.98881,-0.07094,0.0067,0.01735,0.06809
0.13058,0.98894,-0.06953,0.01813,0.01692,0.06683
0.13013,0.98906,-0.06862,0.03619,0.01026,0.0779
0.12943,0.98919,-0.06806,0.05763,0.00121,0.0866
0.12857,0.98933,-0.0676,0.07489,-0.00282,0.08631
0.12772,0.98948,-0.06705,0.08379,-0.0039,0.07933
0.12687,0.98963,-0.06648,0.0836,-0.00216,0.06745
0.12595,0.98976,-0.0662,0.08278,-0.00229,0.05713
0.12494,0.98988,-0.06641,0.08105,-0.00996,0.05191
0.124,0.98996,-0.06692,0.08224,-0.01186,0.0541
0.12323,0.99001,-0.06758,0.07742,-0.01238,0.06119
0.12255,0.99005,-0.06825,0.07226,-0.00998,0.06654
0.12212,0.99007,-0.06875,0.0518,-0.00186,0.0668
0.12168,0.9901,-0.06909,0.04368,0.00221,0.06312
0.12126,0.99015,-0.06911,0.03986,0.00103,0.06136
0.12104,0.99019,-0.06886,0.02914,-0.00109,0.05218
0.1209,0.99023,-0.06859,0.02741,-0.00524,0.05228
0.12105,0.99023,-0.06836,0.02522,-0.00602,0.05327
0.12148,0.99019,-0.0681,0.02802,-0.00156,0.0507
0.12219,0.99013,-0.06771,0.04392,-0.00536,0.04386
0.12309,0.99005,-0.06727,0.04302,-0.00528,0.04342
0.12424,0.98993,-0.06696,0.05101,-0.00531,0.0501
0.12567,0.98975,-0.06688,0.02673,-0.00936,0.05332
0.12747,0.98952,-0.06684,0.01299,-0.00837,0.04734
0.12963,0.98924,-0.06693,-0.01884,-0.0053,0.04565
0.13206,0.98889,-0.06736,-0.04725,0.00147,0.05233
0.13456,0.98849,-0.06825,-0.06602,0.00336,0.06908
0.13707,0.98805,-0.06952,-0.07784,0.00108,0.08383
0.13949,0.98762,-0.0708,-0.07808,0.00415,0.10485
0.14194,0.9872,-0.07189,-0.07741,0.00572,0.11016
0.14431,0.98683,-0.07222,-0.05526,0.00934,0.12293
0.14701,0.98649,-0.0714,-0.05385,0.01273,0.12393
0.14989,0.9862,-0.06936,-0.06841,0.03585,0.11412
0.15241,0.98601,-0.06655,-0.09054,0.04202,0.08959
0.15402,0.98595,-0.06373,-0.08883,0.04404,0.06183
0.15472,0.98599,-0.06131,-0.07786,0.03528,0.0504
0.15459,0.98617,-0.05865,-0.02321,0.02138,0.03864
0.15416,0.98642,-0.05543,0.01401,0.01467,0.02406
0.15356,0.98672,-0.05179,0.02683,0.00571,0.01559
0.15279,0.98703,-0.04796,0.0655,0.00444,0.00896
0.15214,0.98733,-0.04353,0.08295,-0.00226,-0.00035
0.1516,0.98765,-0.03794,0.09588,-0.00139,-0.02254
0.15127,0.98791,-0.03203,0.09842,-0.02055,-0.03279
0.15201,0.98795,-0.02697,0.10825,-0.06757,-0.00589
0.15464,0.98765,-0.02263,0.12077,-0.06391,0.02258
0.1578,0.9872,-0.02,-0.04499,-0.04184,0.05676
0.16045,0.9868,-0.01884,-0.08577,0.05347,0.11175
0.16331,0.98635,-0.0176,-0.05254,0.0798,0.13353
0.16544,0.98602,-0.01632,0.00746,-0.03013,0.14742
0.16761,0.98568,-0.01451,0.00675,0.03046,0.14023
0.1697,0.98537,-0.01065,0.02166,0.07569,0.11645
0.1718,0.98505,-0.00491,0.0621,0.03227,0.0833
0.17375,0.98472,0.00063,0.07729,0.0093,0.04861
0.17575,0.98435,0.00528,0.0115,0.00707,0.00438
0.17717,0.98407,0.00874,-0.02822,-0.00681,-0.04194
0.17802,0.98391,0.00953,-0.02489,-0.0285,-0.07251
0.17899,0.98376,0.00703,-0.01534,-0.04091,-0.05766
0.18094,0.98342,0.00322,-0.02842,-0.02231,-0.01175
0.18415,0.98283,0.00052,-0.03608,-0.00517,0.02778
0.18877,0.98195,-2e-05,-0.03893,0.01083,0.05301
0.19475,0.98078,0.00142,-0.0378,0.02065,0.08698
0.20121,0.97947,0.00378,-0.06571,0.0171,0.06435
0.20763,0.97812,0.00635,-0.07317,0.0251,0.04126
0.2138,0.97676,0.00932,-0.0814,0.0312,0.02248
0.21903,0.97556,0.01317,-0.07267,0.04437,0.01019
0.2239,0.97437,0.01789,-0.07238,0.0458,0.00204
0.22817,0.97326,0.02376,-0.07669,0.04319,-0.01404
0.23169,0.97223,0.03073,-0.01228,0.02336,-0.0197
0.23452,0.97129,0.03817,0.0109,-0.00258,-0.01312
0.23671,0.9704,0.04639,0.0606,-0.0345,-0.00814
0.23856,0.9695,0.05485,0.09026,-0.05401,-0.0115
0.2401,0.96862,0.06308,0.10487,-0.06094,-0.00801
0.24157,0.96775,0.07036,0.1277,-0.07119,0.03987
0.24299,0.96697,0.07599,0.1475,-0.08122,0.07323
0.24473,0.96608,0.08154,0.12363,-0.05899,0.05033
0.24673,0.96496,0.08851,0.07484,-0.04673,0.01267
0.24943,0.96347,0.09671,0.01376,-0.03629,-0.01744
0.25295,0.96175,0.10443,-0.02283,-0.02689,0.01278
0.25666,0.95984,0.11263,-0.04892,-0.01826,0.03994
0.25841,0.95836,0.12091,-0.04421,-0.01196,0.06627
0.257,0.95765,0.12925,0.00046,-0.01881,0.06458
0.25343,0.95733,0.13835,0.12044,-0.04319,0.06636
0.24984,0.95676,0.14846,0.15816,-0.05325,0.06691
0.24725,0.95567,0.1594,0.15027,-0.0391,0.07157
0.24525,0.95415,0.17114,0.16399,-0.03949,0.14422
0.24311,0.95256,0.18268,0.13298,-0.02164,0.13141
0.24217,0.95048,0.19437,0.09602,-0.02037,0.11658
0.24198,0.94786,0.20701,0.11232,-0.03669,0.1426
0.24223,0.9453,0.2181,0.08261,0.00767,-0.01407
0.24268,0.94321,0.2265,0.10607,0.00641,-0.03783
0.2444,0.94092,0.23403,0.12468,-0.00296,-0.03864
0.24765,0.9383,0.24102,0.15231,-0.01374,0.04033
0.25239,0.93542,0.24722,0.16252,-0.03288,0.06658
0.25832,0.93259,0.25175,0.14636,-0.06498,0.06444
0.26392,0.93032,0.25432,0.09702,-0.12336,0.03918
0.26811,0.92893,0.25501,0.06674,-0.17932,0.01426
0.27135,0.92827,0.25401,0.0578,-0.14004,0.00792
0.27267,0.92829,0.25251,0.03182,-0.09599,0.01712
0.27272,0.929,0.24985,0.01123,-0.06045,0.04526
0.27279,0.93034,0.24471,-0.0444,-0.01718,0.08987
0.27494,0.93181,0.23657,-0.07717,-0.01267,0.11177
0.27826,0.93323,0.22688,-0.06196,0.00358,0.13316
0.28085,0.93427,0.21933,-0.01685,-0.02606,0.17835
0.28334,0.93446,0.21528,0.05135,-0.05463,0.18126
0.28651,0.93394,0.21334,0.0978,-0.03672,0.17566
0.28927,0.93328,0.21249,0.22216,0.01654,0.18149
0.29143,0.93279,0.2117,0.13634,-0.02081,0.1873
0.29334,0.93211,0.21204,0.08105,-0.02073,0.16374
0.29529,0.93096,0.21435,0.04135,-0.01634,0.14327
0.2974,0.92932,0.21851,-0.01349,-0.02288,0.11302
0.29956,0.92759,0.2229,-0.0455,-0.04715,0.08315
0.30158,0.92618,0.22598,-0.0086,-0.06505,0.07953
0.30355,0.92516,0.22752,0.01528,-0.07977,0.08182
0.3052,0.92453,0.2279,0.00341,-0.06994,0.06812
0.3063,0.92425,0.22752,-0.00914,-0.06378,0.0637
0.30674,0.9243,0.22676,-0.03013,-0.02383,0.09244
0.30648,0.92457,0.22598,-0.02987,-0.02411,0.09322
0.30577,0.92488,0.22568,0.00922,0.00687,0.11704
0.3054,0.92501,0.22564,0.00139,-0.00337,0.10807
0.30581,0.92487,0.22567,-0.00523,-0.00951,0.1077
0.30667,0.92455,0.22581,-0.02137,-0.02865,0.09858
0.30766,0.9242,0.22591,-0.0334,-0.04081,0.09222
0.3084,0.92392,0.22602,-0.02959,-0.04074,0.09103
0.30873,0.92376,0.22625,-0.02824,-0.03919,0.08676
0.30847,0.92378,0.22649,-0.04831,-0.04628,0.08626
0.30775,0.92404,0.22643,-0.03477,-0.0458,0.08935
0.30685,0.92444,0.22602,-0.0153,-0.0387,0.08951
0.30632,0.92479,0.22531,0.02933,-0.01123,0.08524
0.30625,0.92508,0.22421,0.01353,-0.01547,0.08149
0.30608,0.92533,0.22338,0.00028,-0.02587,0.08289
0.30569,0.92557,0.22291,-0.00313,-0.01684,0.06885
0.30517,0.92586,0.22246,0.00352,-0.01353,0.06705
0.30465,0.9262,0.22172,0.00797,-0.01246,0.06846
0.30431,0.92652,0.22085,0.00683,-0.01949,0.05915
0.30426,0.9268,0.21975,0.00179,-0.02132,0.05453
0.3043,0.92709,0.21849,0.00302,-0.02729,0.05586
0.30427,0.92738,0.21728,0.01852,-0.02942,0.05262
0.30423,0.92766,0.21612,0.0289,-0.03084,0.0589
0.30425,0.92793,0.21497,0.02238,-0.02708,0.0681
0.30424,0.92819,0.21383,0.02172,-0.02733,0.07314
0.30422,0.92845,0.21275,0.02276,-0.02696,0.0723
0.30422,0.92862,0.21198,0.02536,-0.026,0.06741
0.30415,0.92874,0.21155,0.02303,-0.02274,0.06277
0.304,0.92885,0.21131,0.02023,-0.02251,0.06404
0.30394,0.92891,0.21112,0.02257,-0.02757,0.06257
0.30386,0.92899,0.21086,0.02799,-0.02198,0.06825
0.30373,0.92912,0.2105,0.0336,-0.01874,0.07248
0.30356,0.92922,0.21027,0.04267,-0.02934,0.0625
0.30332,0.92936,0.21001,0.03868,-0.02906,0.0583
0.303,0.92953,0.20972,0.03512,-0.02761,0.05935
0.30278,0.92965,0.2095,0.03581,-0.02499,0.0561
0.30263,0.92974,0.20934,0.03636,-0.02897,0.04928
0.30253,0.9298,0.20923,0.03657,-0.03243,0.04864
0.30254,0.92982,0.2091,0.03855,-0.03378,0.05287
0.30258,0.92985,0.20894,0.04009,-0.03023,0.04736
0.30265,0.92986,0.2088,0.04188,-0.02954,0.04825
0.3028,0.92982,0.20875,0.0422,-0.0284,0.05145
0.30303,0.92974,0.20878,0.03958,-0.03026,0.05716
0.30324,0.92969,0.20866,0.03601,-0.03155,0.05843
0.3035,0.92966,0.20842,0.03191,-0.03206,0.06005
0.30378,0.92963,0.20814,0.03292,-0.02987,0.05878
0.30403,0.9296,0.20794,0.02994,-0.03006,0.05945
0.30423,0.92955,0.20787,0.02722,-0.03914,0.06231
0.30427,0.92957,0.20772,0.02462,-0.04106,0.06204
0.3042,0.92966,0.20742,0.02446,-0.0416,0.0597
0.30411,0.92977,0.20707,0.02475,-0.04108,0.05661
0.30402,0.92987,0.20671,0.02408,-0.05033,0.04699
0.30403,0.92992,0.20648,0.03453,-0.05199,0.05239
0.30416,0.92992,0.2063,0.04707,-0.03945,0.06578
0.30445,0.92982,0.20629,0.05134,-0.00848,0.09777
0.30479,0.92966,0.20651,0.05064,-0.00304,0.10519
0.30509,0.92944,0.20707,0.04521,-9e-05,0.10696
0.30549,0.92912,0.20792,0.03304,-0.01231,0.09103
0.30577,0.92881,0.20889,0.02992,-0.01685,0.08625
0.30609,0.92846,0.20997,0.03003,-0.02565,0.08228
0.30646,0.92808,0.21109,0.02836,-0.03876,0.07079
0.30699,0.92774,0.21182,0.02386,-0.04083,0.06757
0.30764,0.92743,0.21226,0.02131,-0.04188,0.07031
0.30819,0.92719,0.21252,0.02355,-0.04288,0.0678
0.30869,0.92695,0.21281,0.01341,-0.04316,0.06629
0.30912,0.92673,0.21314,-0.00095,-0.04267,0.07702
0.30949,0.92654,0.21346,0.0149,-0.03639,0.07798
0.30976,0.92637,0.21379,0.01434,-0.03417,0.08551
0.30995,0.92616,0.21441,0.02454,-0.02477,0.09754
0.3099,0.92599,0.21522,0.02706,-0.02391,0.10441
0.30959,0.92594,0.21587,0.02331,-0.02159,0.10847
0.30909,0.92601,0.21632,0.01672,-0.02806,0.11571
0.30839,0.92614,0.21678,-0.00434,-0.02596,0.10995
0.30737,0.92639,0.21714,-0.00706,-0.02987,0.10502
0.30616,0.92671,0.21749,0.01007,-0.03746,0.09652
0.30497,0.92705,0.21768,0.00079,-0.03025,0.09317
0.30389,0.92749,0.21734,-0.01355,-0.03091,0.08842
0.30326,0.92787,0.21659,-0.00118,-0.00317,0.10308
0.30274,0.92813,0.21619,0.03782,-0.00528,0.11443
0.30198,0.92836,0.21627,0.03974,-0.01878,0.10436
0.30102,0.92855,0.21681,0.01509,-0.02402,0.06166
0.29952,0.92876,0.21797,0.02119,-0.01471,0.05069
0.29755,0.92906,0.2194,0.02524,-0.0458,0.04575
0.29569,0.92938,0.22055,-0.0066,-0.08549,0.03089
0.29448,0.92967,0.22093,-0.00508,-0.06679,0.03799
0.29341,0.93002,0.2209,0.01983,-0.02984,0.08104
0.29208,0.93038,0.22114,0.03266,-0.02183,0.10521
0.29053,0.93067,0.22194,0.03353,-0.03245,0.11163
0.2889,0.93105,0.22249,0.02857,-0.03791,0.1178
0.28757,0.93153,0.22221,-0.0102,-0.0431,0.13152
0.28659,0.93199,0.22155,-0.03729,-0.02846,0.13072
0.28578,0.93237,0.22099,-0.04516,-0.0258,0.13442
0.28529,0.93264,0.22047,-0.06149,-0.01319,0.1496
0.28488,0.933,0.21949,-0.06613,0.00159,0.16524
0.28432,0.93356,0.21782,-0.05565,0.01825,0.1654
0.28347,0.93438,0.21541,-0.03731,0.02538,0.1472
0.2824,0.93539,0.21242,-0.02711,0.00822,0.1167
0.28124,0.9365,0.20902,-0.02432,-0.01127,0.08212
0.28007,0.93763,0.20551,-0.01414,-0.01714,0.05566
0.27888,0.93878,0.20185,0.01509,-0.01524,0.02982
0.27797,0.93988,0.19794,0.02552,-0.01704,0.02814
0.27724,0.94089,0.19415,0.0338,-0.01549,0.02993
0.27671,0.94179,0.1905,0.05101,-0.01045,0.01445
0.27655,0.94256,0.1869,0.04509,-0.00657,0.00764
0.27648,0.94321,0.18365,0.0389,-0.00562,-0.00146
0.27649,0.94376,0.18082,-0.00232,-0.01996,-0.03276
0.27638,0.94435,0.17785,-0.01927,-0.01898,-0.02182
0.27588,0.94514,0.17441,-0.03125,-0.02061,-0.01691
0.27518,0.94605,0.17054,-0.03432,-0.01373,-0.00068
0.27421,0.94705,0.16653,-0.02482,-0.00827,0.0143
0.27314,0.94804,0.16258,-0.00289,-0.02103,0.02503
0.27241,0.94883,0.15918,0.01827,-0.01635,0.03291
0.27218,0.94929,0.15684,0.02668,-0.01099,0.03779
0.2724,0.94938,0.1559,0.04636,-0.00288,0.03153
0.27292,0.94917,0.15624,0.05586,0.00021,0.02885
0.27347,0.94884,0.1573,0.05254,-0.00242,0.025
0.27398,0.94851,0.15839,-0.00711,-0.01077,0.01455
0.27437,0.94824,0.15937,-0.01672,-0.00747,0.01449
0.27463,0.94799,0.16036,-0.02392,-0.00343,0.01143
0.27496,0.94774,0.1613,-0.03381,-0.00151,0.01296
0.27524,0.94751,0.16216,-0.03403,-0.00128,0.01326
0.27553,0.94725,0.16316,-0.034,0.00282,0.01634
0.27575,0.94695,0.16451,-0.02718,0.00457,0.03133
0.27596,0.9466,0.16618,-0.0124,0.00409,0.03815
0.27621,0.94621,0.16798,-0.00307,-0.00119,0.03734
0.27642,0.94581,0.16984,0.01032,-0.01187,0.04629
0.27658,0.94542,0.17176,0.01267,-0.01381,0.05452
0.27652,0.94506,0.17384,0.01781,-0.0119,0.05632
0.27618,0.9447,0.1763,0.02543,-0.01518,0.0599
0.2758,0.94425,0.17925,0.0255,-0.01418,0.05557
0.2756,0.94363,0.18279,0.02344,-0.01265,0.05066
0.27561,0.94283,0.1869,0.00628,-0.01186,0.04361
0.2757,0.9419,0.19139,-0.00804,-0.01474,0.04386
0.27594,0.94092,0.19579,-0.01784,-0.01873,0.05337
0.27618,0.94005,0.1996,-0.02341,-0.01613,0.06844
0.27639,0.93925,0.20305,-0.02483,-0.01521,0.075
0.27635,0.93854,0.20638,-0.02821,-0.01311,0.08225
0.27605,0.93787,0.20978,-0.02813,-0.01961,0.09781
0.27553,0.93722,0.21332,-0.00859,-0.0408,0.09087
0.27525,0.9365,0.21684,-0.00131,-0.04857,0.08992
0.27564,0.93562,0.2201,0.01321,-0.05727,0.08581
0.27697,0.93463,0.22261,0.02668,-0.03224,0.10365
0.27954,0.93357,0.22386,0.02411,-0.03118,0.1024
0.28235,0.93266,0.22413,0.00364,-0.03276,0.14845
0.28478,0.93201,0.22373,-0.00158,-0.04019,0.17161
0.28637,0.93164,0.22329,0.00622,-0.03486,0.16706
0.28718,0.93132,0.22357,0.01309,-0.02479,0.16185
0.28737,0.93095,0.22484,0.0491,-0.01674,0.12488
0.28715,0.9306,0.22655,0.05416,-0.02635,0.11428
0.28671,0.9303,0.22837,0.05713,-0.03439,0.10329
0.2863,0.93,0.23008,0.07814,-0.06184,0.08179
0.28609,0.92977,0.23125,0.07835,-0.06161,0.08063
0.28613,0.92959,0.23193,0.09839,-0.07249,0.08338
0.28632,0.92952,0.232,0.09343,-0.07211,0.09085
0.28655,0.92951,0.23173,0.08771,-0.07101,0.09089
0.287,0.92941,0.23158,0.07135,-0.0639,0.09476
0.28754,0.9292,0.23176,0.05908,-0.05974,0.09747
0.28812,0.92888,0.23231,0.04916,-0.05861,0.0974
0.28888,0.92846,0.23304,0.02511,-0.0565,0.10314
0.28964,0.92808,0.23363,0.00667,-0.05251,0.10741
0.2904,0.92782,0.23371,0.00026,-0.04823,0.11069
0.29122,0.92767,0.23327,0.00353,-0.04366,0.12617
0.29187,0.92773,0.23226,0.00658,-0.0467,0.12541
0.2925,0.92789,0.23078,0.00975,-0.04778,0.12635
0.29311,0.92816,0.22893,0.02884,-0.04039,0.13049
0.29373,0.9285,0.22675,0.03498,-0.03949,0.12911
0.29418,0.92886,0.22466,0.04088,-0.0453,0.12637
0.29441,0.92924,0.22282,0.05656,-0.04157,0.12006
0.29444,0.92961,0.22119,0.06953,-0.04355,0.11067
0.29427,0.92998,0.21989,0.07427,-0.04051,0.1048
0.29395,0.93024,0.21919,0.10429,-0.01771,0.09172
0.29344,0.93048,0.21886,0.12493,-0.0089,0.08635
0.29261,0.93071,0.21899,0.12634,-0.01227,0.081
0.29154,0.93088,0.21969,0.11185,-0.03565,0.04491
0.29037,0.93098,0.22083,0.09502,-0.04167,0.01913
0.28924,0.93099,0.22224,0.08928,-0.03916,0.0083
0.28835,0.93088,0.22389,0.06321,-0.01579,-0.00285
0.28759,0.93061,0.22596,0.04412,-0.00672,-0.0038
0.28704,0.93012,0.22864,0.03509,-0.00764,-0.0006
0.28689,0.92939,0.23182,0.02719,-0.00591,0.01768
0.28687,0.92881,0.23412,-0.11299,-0.02543,0.0012
0.28753,0.92849,0.23461,-0.24592,-0.10901,0.06224
0.28831,0.92858,0.23326,-0.23066,-0.02593,0.10673
0.28749,0.92962,0.23012,-0.15237,0.08538,0.06236
0.28606,0.93054,0.22816,-0.08956,0.10885,0.05522
0.28494,0.93089,0.22816,0.01086,-0.01237,0.0987
0.2857,0.9308,0.22759,-0.03621,-0.04818,0.09032
0.28706,0.93092,0.22536,0.01801,-0.05705,0.18736
0.28702,0.93155,0.22278,0.11409,-0.02912,0.27129
0.28457,0.93274,0.22094,0.10781,-0.02683,0.22279
0.28078,0.93375,0.22152,0.07802,-0.01145,0.06937
0.27774,0.93364,0.2258,0.04158,-0.00137,-0.07427
0.27669,0.93232,0.23241,0.0314,-0.009,-0.15012
0.27781,0.93052,0.23823,0.0257,-0.01753,-0.15339
0.28025,0.9286,0.24283,-0.02712,-0.01477,-0.02621
0.28287,0.92668,0.24706,-0.06637,-0.0089,-0.00626
0.28488,0.92499,0.25107,-0.08471,-0.00719,-0.00797
0.28636,0.92364,0.25432,-0.07701,-0.00375,-0.00715
0.28708,0.92276,0.25671,-0.03624,-0.00316,0.03447
0.28694,0.92228,0.25859,-0.03427,-0.00567,0.04142
0.28586,0.92216,0.26019,-0.0338,-0.00998,0.03756
0.2841,0.92234,0.26148,-0.01193,-0.03013,0.01652
0.28248,0.92264,0.26218,0.00011,-0.03122,0.01577
0.28162,0.92295,0.262,0.00433,-0.03039,0.01869
0.28159,0.92323,0.26105,-0.01167,-0.02117,0.05346
0.28188,0.92345,0.25997,-0.01196,-0.02139,0.05455
0.28207,0.9235,0.25958,-0.02198,-0.00243,0.07358
0.2822,0.92331,0.2601,-0.01996,-0.00025,0.09159
0.28233,0.92284,0.26164,-0.01336,-0.00331,0.09865
0.28266,0.9221,0.26386,-0.00522,-0.01457,0.1114
0.28318,0.92127,0.26619,-0.00341,-0.01524,0.12269
0.28369,0.92046,0.26843,-0.00206,-0.0162,0.12181
0.28413,0.9197,0.27056,0.00803,-0.01623,0.11847
0.28447,0.91895,0.27276,0.02065,-0.01941,0.10969
0.28486,0.91825,0.27469,0.01643,-0.01966,0.10525
0.28511,0.91774,0.27614,0.00791,-0.03628,0.09311
0.28528,0.91745,0.27691,0.00512,-0.04589,0.08592
0.28554,0.91732,0.27708,0.0008,-0.04899,0.07831
0.28605,0.91722,0.27689,0.0024,-0.0464,0.07384
0.28677,0.91709,0.27658,0.00141,-0.04574,0.08356
0.28758,0.91693,0.27627,-0.00102,-0.04449,0.0862
0.28834,0.9167,0.27621,-0.00102,-0.04376,0.10431
0.28896,0.91648,0.27629,0.00814,-0.03909,0.11477
0.28944,0.91627,0.2765,0.01023,-0.03964,0.1157
0.28986,0.91607,0.27671,0.00889,-0.03845,0.11413
0.29029,0.91587,0.27695,0.00671,-0.03777,0.1116
0.29066,0.91568,0.27719,0.00463,-0.03512,0.11052
0.2909,0.91556,0.27733,0.00462,-0.03049,0.11366
0.29092,0.91553,0.27739,0.004,-0.02909,0.10516
0.29085,0.91562,0.27718,0.0038,-0.0278,0.10446
0.29054,0.91578,0.27698,0.00696,-0.02552,0.10273
0.29013,0.91601,0.27665,0.00725,-0.0295,0.10099
0.28957,0.91629,0.27632,0.00932,-0.03218,0.10069
0.2888,0.91654,0.27629,0.01586,-0.04434,0.08983
0.28794,0.91679,0.27636,0.01708,-0.04627,0.07702
0.28718,0.91704,0.27632,0.01467,-0.04594,0.0725
0.28649,0.91723,0.27638,0.01249,-0.05153,0.07347
0.28584,0.91736,0.27663,0.00565,-0.04728,0.07775
0.28508,0.91749,0.27698,0.00615,-0.04408,0.07751
0.28412,0.91769,0.27731,0.01022,-0.04481,0.07797
0.28286,0.91801,0.27755,0.01369,-0.04639,0.07752
0.2813,0.91845,0.27769,0.01345,-0.04421,0.07904
0.27937,0.91908,0.27755,0.01116,-0.03886,0.0781
0.27704,0.91986,0.27727,0.01559,-0.0329,0.08669
0.27429,0.92069,0.27726,0.01877,-0.02926,0.08782
0.27125,0.92157,0.27733,0.01888,-0.03298,0.08193
0.26804,0.92251,0.27734,0.02328,-0.03631,0.08303
0.26473,0.92357,0.27699,0.02915,-0.03854,0.08182
0.26134,0.92473,0.27634,0.03772,-0.03229,0.08299
0.25765,0.92592,0.2758,0.04419,-0.03072,0.0826
0.25384,0.92713,0.27527,0.04528,-0.02866,0.07977
0.24988,0.92856,0.27407,0.04888,-0.0318,0.07458
0.24532,0.93025,0.27248,0.04648,-0.04299,0.0647
0.24053,0.93198,0.27083,0.0593,-0.03363,0.0892
0.23572,0.93364,0.26934,0.06402,-0.04108,0.05684
0.23088,0.93527,0.26784,0.06942,-0.0486,0.04571
0.22611,0.93682,0.26652,0.0742,-0.05014,0.04703
0.22186,0.93809,0.2656,0.07673,-0.04054,0.04879
0.21792,0.9393,0.26461,0.07422,-0.03419,0.04939
0.21452,0.94048,0.26319,0.06763,-0.0313,0.04731
0.2113,0.94168,0.26148,0.06989,-0.03151,0.05164
0.20831,0.94285,0.25968,0.08453,-0.03838,0.04958
0.20592,0.94365,0.25866,0.0996,-0.04343,0.02485
0.20435,0.94415,0.25807,0.11648,-0.04344,0.03502
0.20342,0.94444,0.25778,0.11154,-0.0562,0.03461
0.20335,0.94459,0.25727,0.1189,-0.05833,0.039
0.20426,0.9446,0.25652,0.10815,-0.05777,0.02942
0.20605,0.94443,0.25571,0.09175,-0.04398,0.03376
0.20818,0.94414,0.25503,0.08602,-0.04331,0.03071
0.21069,0.94371,0.25459,0.07945,-0.04345,0.03832
0.21336,0.94318,0.25432,0.0774,-0.03232,0.06231
0.21568,0.94271,0.2541,0.07453,-0.03298,0.07013
0.21774,0.94229,0.25389,0.07204,-0.03592,0.07727
0.21964,0.94189,0.25374,0.0622,-0.03186,0.07646
0.22137,0.94147,0.25381,0.06048,-0.03143,0.07639
0.22311,0.94094,0.25422,0.05316,-0.02897,0.0698
0.22471,0.94036,0.25497,0.03836,-0.03083,0.07567
0.226,0.93981,0.25586,0.03459,-0.02921,0.0754
0.22717,0.9392,0.25705,0.03266,-0.03216,0.07791
0.22818,0.93852,0.25864,0.03633,-0.03716,0.07805
0.22914,0.93774,0.26063,0.03838,-0.04048,0.07203
0.23017,0.93688,0.26279,0.03961,-0.04296,0.07249
0.2314,0.93606,0.26464,0.03862,-0.04397,0.0687
0.23281,0.9353,0.26609,0.03289,-0.0433,0.06818
0.23442,0.93458,0.26717,0.03094,-0.04761,0.07117
0.23612,0.93395,0.26789,0.03146,-0.03857,0.0743
0.23767,0.93344,0.26831,0.03222,-0.03363,0.07421
0.23898,0.93296,0.26881,0.0394,-0.03512,0.07067
0.24008,0.93252,0.26936,0.0401,-0.04041,0.07151
0.24122,0.93208,0.26985,0.04238,-0.04277,0.07181
0.24258,0.93156,0.27044,0.04687,-0.03912,0.07433
0.24408,0.93098,0.27106,0.04816,-0.03105,0.07733
0.24557,0.93042,0.27166,0.04784,-0.02908,0.08209
0.24697,0.9299,0.27218,0.03826,-0.03494,0.07975
0.24829,0.92942,0.27259,0.03206,-0.03952,0.07447
0.24961,0.92895,0.27299,0.03197,-0.03734,0.07277
0.25096,0.92844,0.27349,0.02954,-0.03391,0.07399
0.25218,0.92796,0.27401,0.02374,-0.03658,0.07478
0.25324,0.9275,0.2746,0.02197,-0.03719,0.07504
0.25418,0.92703,0.2753,0.02133,-0.04156,0.07717
0.25531,0.92652,0.27598,0.02069,-0.03333,0.08004
0.25645,0.92599,0.27668,0.01614,-0.03172,0.07757
0.2576,0.92546,0.27739,0.00418,-0.03311,0.08096
0.25872,0.92496,0.27803,-0.0042,-0.03497,0.07805
0.25978,0.92451,0.27851,-0.00835,-0.03642,0.08022
0.26079,0.92415,0.27878,-0.01311,-0.04022,0.07936
0.26179,0.92387,0.27876,-0.02043,-0.04263,0.07655
0.2629,0.92368,0.27835,-0.02153,-0.04244,0.07697
0.2641,0.9235,0.27782,-0.026,-0.04619,0.07733
0.26547,0.92333,0.27708,-0.02866,-0.0376,0.08399
0.26698,0.92319,0.27607,-0.02855,-0.0348,0.08675
0.26842,0.92314,0.27488,-0.02263,-0.03765,0.09707
0.26975,0.92322,0.27328,-0.02454,-0.03241,0.09809
0.27104,0.92339,0.27141,-0.02441,-0.02834,0.09986
0.27231,0.92357,0.26954,-0.02022,-0.02002,0.10593
0.27376,0.92368,0.26769,-0.01412,-0.01866,0.11169
0.27527,0.92374,0.26591,-0.01476,-0.01613,0.11324
0.27666,0.92383,0.26416,-0.01089,-0.01172,0.12557
0.27779,0.92401,0.26234,-0.00896,0.01497,0.13608
0.27837,0.92428,0.26076,-0.01787,0.01488,0.13636
0.27799,0.92484,0.25917,-0.02897,-0.01111,0.12626
0.27707,0.92578,0.2568,-0.03717,-0.0142,0.11805
0.27573,0.92687,0.25427,-0.03638,-0.01347,0.11165
0.27404,0.92794,0.25222,-0.0185,-0.02941,0.08035
0.27246,0.92883,0.25066,-0.00094,-0.0418,0.0662
0.27148,0.92938,0.24967,0.0091,-0.04451,0.06031
0.27099,0.92975,0.24881,0.03243,-0.03819,0.06482
0.27081,0.93015,0.24753,0.04207,-0.02801,0.06341
0.27094,0.93048,0.24612,0.03851,-0.02674,0.05305
0.2715,0.93065,0.24486,0.01873,-0.02081,0.04181
0.27215,0.93076,0.24372,0.01839,-0.01774,0.04663
0.27254,0.93091,0.2427,0.01958,-0.02268,0.05223
0.27284,0.93106,0.2418,0.01707,-0.02104,0.05013
0.27295,0.93128,0.24081,0.0317,-0.0134,0.05035
0.27288,0.93157,0.23979,0.04491,-0.01691,0.05307
0.27296,0.93178,0.23886,0.03072,-0.02764,0.03694
0.27344,0.93183,0.23812,-0.00362,-0.0227,0.02983
0.27404,0.93177,0.23766,-0.01344,-0.01786,0.03407
0.27437,0.93173,0.23743,-0.00205,-0.02173,0.04623
0.27439,0.93177,0.23726,0.00081,-0.03487,0.0484
0.27419,0.9319,0.23701,0.00316,-0.03182,0.05601
0.27389,0.93211,0.23653,0.01634,-0.01717,0.06648
0.27355,0.93237,0.23589,0.02539,-0.00704,0.07574
0.27322,0.93256,0.23549,0.01859,-0.01168,0.06713
0.27292,0.9326,0.23569,0.00253,-0.01513,0.05491
0.27261,0.93249,0.2365,-0.00145,-0.01549,0.03796
0.2724,0.93219,0.23791,0.01183,-0.01696,0.03983
0.2724,0.93176,0.23959,0.01307,-0.02973,0.0614
0.27255,0.93135,0.24099,0.00298,-0.0358,0.08044
0.27267,0.9311,0.24183,-0.01344,-0.03803,0.08094
0.27265,0.93103,0.2421,-0.01919,-0.02493,0.07287
0.27249,0.93102,0.24231,-0.01591,-0.02105,0.06639
0.27228,0.93094,0.24286,-0.00145,-0.01975,0.07121
0.27203,0.93079,0.24374,0.01105,-0.02615,0.07671
0.27193,0.93056,0.2447,0.00503,-0.02497,0.08095
0.27208,0.93033,0.24541,-0.00776,-0.02746,0.0891
0.27234,0.93014,0.24584,-0.01177,-0.0303,0.09277
0.27246,0.92999,0.24627,-0.0059,-0.03014,0.09339
0.27242,0.92987,0.24678,-0.00586,-0.03001,0.09288
0.27227,0.92973,0.24747,-0.00219,-0.02323,0.08413
0.27213,0.92957,0.2482,-0.00968,-0.03025,0.08882
0.27207,0.92944,0.24877,-0.00835,-0.02989,0.09257
0.27219,0.9293,0.24914,-0.02498,-0.03201,0.08529
0.27237,0.92917,0.24945,-0.0157,-0.0268,0.09728
0.27253,0.92903,0.24977,-0.00927,-0.02632,0.09634
0.27257,0.92885,0.25041,-9e-05,-0.02817,0.10535
0.27241,0.92865,0.25133,0.00311,-0.03529,0.1076
0.27225,0.92843,0.2523,-0.00139,-0.03454,0.10562
0.27214,0.92817,0.25336,-0.00745,-0.03393,0.10896
0.27218,0.92788,0.2544,-0.0104,-0.02529,0.10313
0.27242,0.92758,0.25524,-0.01064,-0.02499,0.10229
0.27271,0.92723,0.25621,-0.01886,-0.02163,0.0906
0.27295,0.92687,0.25725,-0.01777,-0.02574,0.09336
0.27306,0.92663,0.258,-0.01397,-0.02904,0.09271
0.27298,0.92656,0.25832,-0.0068,-0.0405,0.09193
0.27289,0.92661,0.25822,0.01,-0.04054,0.09653
0.273,0.9267,0.25779,0.01681,-0.03583,0.09757
0.27328,0.92679,0.25718,0.0125,-0.03323,0.09089
0.27366,0.92685,0.25654,0.01155,-0.03627,0.08794
0.27413,0.92685,0.25603,0.01231,-0.03908,0.08923
0.27466,0.92679,0.25571,0.01369,-0.03049,0.09689
0.27511,0.92678,0.25525,0.00954,-0.02881,0.0968
0.27542,0.92681,0.25478,0.00647,-0.03182,0.0973
0.27559,0.92684,0.2545,0.0072,-0.04049,0.09633
0.27564,0.9269,0.25423,0.00549,-0.03661,0.09097
0.27565,0.92699,0.25387,0.00401,-0.0341,0.08998
0.27565,0.92704,0.25371,0.01496,-0.03817,0.09109
0.27562,0.92708,0.25357,0.01875,-0.03651,0.09854
0.27561,0.92717,0.25328,0.01853,-0.03491,0.10071
0.27553,0.92731,0.25282,0.01662,-0.03414,0.10306
0.27527,0.9275,0.25242,0.02153,-0.03416,0.09771
0.27487,0.92765,0.25233,0.0255,-0.03376,0.09164
0.27452,0.92767,0.25262,0.0323,-0.03469,0.08058
0.27438,0.92759,0.25307,0.02981,-0.03556,0.08282
0.27443,0.9275,0.25334,0.02334,-0.03292,0.08859
0.27461,0.92748,0.25324,0.01598,-0.03647,0.08722
0.27479,0.92755,0.25276,0.0105,-0.04202,0.08679
0.27491,0.9277,0.25208,0.01466,-0.03886,0.0802
0.27498,0.92785,0.25144,0.01751,-0.03921,0.07971
0.27502,0.92801,0.25083,0.02031,-0.0352,0.08305
0.27502,0.92815,0.25031,0.02007,-0.03214,0.08456
0.27504,0.92825,0.24992,0.02193,-0.03234,0.08417
0.27505,0.9283,0.24971,0.02178,-0.03516,0.0853
0.27502,0.92834,0.24962,0.02851,-0.03211,0.08285
0.27489,0.92836,0.24966,0.02702,-0.02714,0.08356
0.2747,0.92835,0.2499,0.02511,-0.02896,0.08427
0.27443,0.92833,0.25027,0.02333,-0.03298,0.08041
0.27422,0.92827,0.25073,0.01988,-0.03726,0.07333
0.27407,0.92821,0.25112,0.01711,-0.03676,0.07408
0.27401,0.92817,0.25136,0.01496,-0.03731,0.07297
0.27402,0.92813,0.25147,0.00881,-0.0388,0.07563
0.27399,0.92816,0.25139,0.00987,-0.03523,0.08071
0.27385,0.92824,0.25124,0.01462,-0.03112,0.08268
0.27356,0.92836,0.25112,0.02073,-0.02635,0.08642
0.27319,0.92844,0.25124,0.02736,-0.02844,0.08065
0.27282,0.92846,0.25157,0.02716,-0.02884,0.07866
0.27254,0.92838,0.25215,0.02089,-0.03399,0.07523
0.27243,0.92821,0.25288,0.01558,-0.03255,0.07828
0.2724,0.92802,0.25361,0.01439,-0.03326,0.07675
0.27246,0.92782,0.25428,0.01507,-0.03207,0.08297
0.27253,0.92766,0.25478,0.01015,-0.02976,0.08361
0.27254,0.92754,0.25522,0.00969,-0.02556,0.08256
0.27241,0.92741,0.25582,0.00837,-0.03791,0.08034
0.27213,0.92736,0.2563,0.00906,-0.03733,0.08237
0.2718,0.92736,0.25664,0.00826,-0.0346,0.08244
0.2715,0.92739,0.25687,0.00453,-0.03127,0.08499
0.27125,0.92739,0.25714,0.00736,-0.02938,0.08531
0.27104,0.9273,0.25767,0.00725,-0.02877,0.08654
0.27078,0.92716,0.25844,-0.00114,-0.02918,0.09425
0.27046,0.92703,0.25923,-0.00455,-0.03215,0.09443
0.27006,0.92693,0.26001,-0.00906,-0.03449,0.09876
0.26953,0.92691,0.26066,-0.00868,-0.03166,0.09724
0.2689,0.92695,0.26114,-0.00996,-0.02871,0.09755
0.26822,0.92705,0.26151,-0.01086,-0.02788,0.09715
0.26743,0.92713,0.26201,-0.01177,-0.03014,0.10233
0.2666,0.92721,0.26255,-0.01414,-0.03442,0.10222
0.26579,0.92733,0.26296,-0.01588,-0.03391,0.10011
0.26514,0.92744,0.26325,-0.01602,-0.03088,0.09805
0.26461,0.92749,0.26359,-0.01316,-0.02881,0.09532
0.26418,0.92746,0.26412,-0.01281,-0.02818,0.09205
0.26383,0.92736,0.26482,-0.00789,-0.02786,0.09344
0.26351,0.92725,0.26551,-0.00662,-0.03283,0.09215
0.26331,0.92716,0.26603,-0.00773,-0.03196,0.0924
0.26324,0.92707,0.2664,-0.01513,-0.03225,0.0883
0.26328,0.92702,0.26654,-0.01888,-0.03193,0.08545
0.26336,0.927,0.26656,-0.01339,-0.02714,0.08799
0.26339,0.92699,0.26657,-0.01136,-0.02891,0.08437
0.26335,0.92697,0.26666,-0.00647,-0.02972,0.08091
0.26334,0.92699,0.26662,-0.00646,-0.02974,0.08095
0.26335,0.92701,0.26653,-0.00475,-0.03162,0.08163
0.26346,0.92703,0.26634,-0.00737,-0.03529,0.08233
0.2637,0.92704,0.26608,-0.00645,-0.03525,0.08172
0.26398,0.92701,0.2659,-0.00766,-0.03271,0.0853
0.26422,0.92698,0.26576,-0.00349,-0.02827,0.09154
0.26435,0.92699,0.2656,-0.00134,-0.02603,0.09424
0.26434,0.92701,0.26554,-0.00248,-0.02593,0.09417
0.26424,0.92702,0.2656,-0.00098,-0.0285,0.08565
0.26417,0.927,0.26574,-0.0041,-0.02949,0.08579
0.26414,0.92694,0.26598,0.00102,-0.02807,0.0893
0.26405,0.92683,0.26643,0.01065,-0.03398,0.08228
0.26403,0.92673,0.2668,0.01272,-0.03732,0.08041
0.26408,0.92662,0.26713,0.00586,-0.03658,0.07812
0.26419,0.92653,0.26734,0.00225,-0.02973,0.07759
0.26435,0.92646,0.26741,0.00462,-0.02411,0.07886
0.26446,0.9264,0.26753,0.01167,-0.02057,0.08138
0.26454,0.92628,0.26785,0.01267,-0.02846,0.07413
0.26469,0.92608,0.26839,0.00993,-0.04037,0.06732
0.2651,0.92581,0.26892,0.00411,-0.0421,0.06748
0.26581,0.92553,0.2692,0.00276,-0.03304,0.08013
0.26664,0.92528,0.26922,0.00172,-0.02723,0.0856
0.26735,0.92508,0.26921,7e-05,-0.02362,0.08686
0.2678,0.92495,0.26919,0.00129,-0.02853,0.08455
0.26806,0.92488,0.26919,0.00546,-0.03383,0.07496
0.26822,0.92487,0.26908,0.00564,-0.03365,0.07028
0.26844,0.92492,0.26867,0.00221,-0.03152,0.07345
0.26864,0.92505,0.26801,0.00447,-0.02924,0.07542
0.26883,0.92524,0.26718,0.00808,-0.02697,0.07116
0.26909,0.92548,0.26608,0.01021,-0.02711,0.06327
0.26942,0.92575,0.2648,0.01012,-0.03104,0.06478
0.26982,0.92604,0.26341,0.01169,-0.03828,0.06186
0.27033,0.92636,0.26174,0.01615,-0.03707,0.06225
0.27105,0.92669,0.25981,0.01821,-0.03422,0.06075
0.27207,0.92688,0.25806,0.0299,-0.03269,0.05946
0.2735,0.92685,0.25665,0.03056,-0.03641,0.05849
0.2752,0.92663,0.25564,0.02407,-0.0377,0.06432
0.27694,0.92629,0.25497,0.01819,-0.03252,0.07741
0.2784,0.92589,0.25485,0.00641,-0.02147,0.10735
0.27941,0.9254,0.25552,-0.0039,-0.01558,0.12514
0.28009,0.9247,0.25731,0.00717,-0.0079,0.12631
0.28071,0.9236,0.26054,0.02323,-0.01069,0.1341
0.28135,0.92215,0.26495,0.02489,-0.01224,0.13471
0.28193,0.92054,0.26989,0.02641,-0.02058,0.13121
0.28227,0.91898,0.27481,0.01539,-0.03026,0.12251
0.28236,0.9176,0.27929,0.002,-0.03398,0.10636
0.28225,0.91638,0.28337,-0.0102,-0.03123,0.09396
0.28187,0.91529,0.28725,-0.0231,-0.03893,0.08912
0.28119,0.91437,0.2908,-0.03708,-0.04978,0.08027
0.28009,0.9138,0.29364,-0.04473,-0.05995,0.08261
0.27845,0.91366,0.29566,-0.03684,-0.05916,0.0943
0.2762,0.91397,0.29677,-0.03459,-0.05948,0.09318
0.27353,0.91465,0.29718,-0.03352,-0.06726,0.09466
0.27071,0.91559,0.29685,-0.04468,-0.06867,0.08573
0.26782,0.9167,0.29604,-0.0475,-0.05741,0.08206
0.26512,0.91778,0.29512,-0.04106,-0.04535,0.08577
0.26302,0.91872,0.29409,-0.02486,-0.00772,0.10958
0.26219,0.9196,0.29209,-0.02403,-0.0086,0.11158
0.26326,0.92001,0.2898,0.01036,0.00433,0.12094
0.26593,0.91972,0.28831,-0.01487,-0.03722,0.12207
0.2691,0.91887,0.28805,-0.01524,-0.05141,0.11838
0.27209,0.91797,0.28813,-0.00371,-0.05609,0.1039
0.27452,0.91743,0.28753,-0.01196,-0.02772,0.11819
0.27575,0.9175,0.28613,-0.01551,-0.02135,0.1193
0.27609,0.91789,0.28455,-0.0342,-0.01759,0.1061
0.27617,0.9182,0.28347,-0.04082,-0.02469,0.10595
0.27629,0.91835,0.28287,-0.03767,-0.02626,0.10844
0.27649,0.91846,0.28231,-0.00449,-0.03365,0.10921
0.27695,0.9186,0.28142,0.0047,-0.04689,0.08763
0.278,0.91861,0.28033,0.00189,-0.04962,0.0803
0.27939,0.91853,0.27922,0.0155,-0.03657,0.07816
0.28083,0.91845,0.27801,0.03449,-0.02102,0.08245
0.28199,0.91847,0.27678,0.042,-0.01923,0.08809
0.28275,0.91859,0.27562,0.0358,-0.03822,0.0916
0.28318,0.91881,0.27443,0.01254,-0.04837,0.09474
0.28333,0.91916,0.27311,0.01225,-0.04829,0.09365
0.28324,0.91949,0.27209,0.0502,-0.0428,0.0839
0.28324,0.91971,0.27133,0.044,-0.04564,0.07114
0.28339,0.91975,0.27103,0.04524,-0.04939,0.07043
0.28353,0.91973,0.27097,0.03734,-0.05186,0.06537
0.28372,0.91973,0.27077,0.03615,-0.05172,0.0718
0.28393,0.91976,0.27044,0.03803,-0.04627,0.07415
0.28419,0.91977,0.27013,0.04469,-0.04903,0.07986
0.28423,0.9199,0.26966,0.03717,-0.04133,0.07839
0.28411,0.92009,0.26915,0.03064,-0.03707,0.07671
0.28386,0.92027,0.26879,0.03342,-0.03761,0.08946
0.28341,0.92061,0.26809,0.04448,-0.02621,0.08588
0.28301,0.9211,0.26683,0.04811,-0.02042,0.08197
0.28266,0.92164,0.26531,0.04794,-0.04329,0.05671
0.28236,0.92221,0.26366,0.02853,-0.06914,0.04776
0.28246,0.92263,0.26207,0.01298,-0.08131,0.04953
0.28331,0.92278,0.26061,0.00035,-0.05605,0.07548
0.28442,0.9229,0.25898,0.01885,-0.03335,0.10368
0.28567,0.92313,0.25678,0.02446,-0.02378,0.11398
0.28705,0.92346,0.25404,0.00387,-0.00967,0.1229
0.28804,0.92388,0.25137,-0.00568,-0.00836,0.12155
0.28835,0.92425,0.24967,-0.02233,-0.00417,0.11412
0.28794,0.92454,0.24906,-0.02509,-0.0238,0.10288
0.28704,0.92481,0.24909,-0.0119,-0.03325,0.10235
0.28602,0.92509,0.24925,-0.00248,-0.03014,0.09894
0.28513,0.92535,0.2493,0.00056,-0.02674,0.09563
0.28442,0.92553,0.24943,-0.00366,-0.02256,0.09619
0.28387,0.9255,0.25015,-0.00481,-0.02958,0.09507
0.28354,0.92527,0.25138,-0.01136,-0.03969,0.0909
0.28362,0.92487,0.25276,-0.02559,-0.04624,0.08232
0.28419,0.92431,0.25417,-0.0242,-0.04699,0.08769
0.28483,0.92372,0.25557,0.03547,-0.00756,0.08742
0.28534,0.92332,0.25646,0.06294,0.01519,0.09798
0.28538,0.92326,0.25662,0.0372,-0.00409,0.09169
0.28501,0.92334,0.25674,0.01357,-0.03313,0.06828
0.2845,0.92338,0.25718,0.01494,-0.06715,0.05476
0.28398,0.92344,0.25752,0.01206,-0.07415,0.05204
0.28376,0.92346,0.25771,0.01272,-0.06976,0.06208
0.284,0.92341,0.25762,-0.00059,-0.04797,0.08372
0.28485,0.92322,0.25734,-0.00673,-0.03264,0.10059
0.28588,0.92286,0.25749,-0.02178,-0.02215,0.12084
0.28701,0.92235,0.25809,-0.05074,-0.02235,0.11932
0.28829,0.92167,0.25908,-0.05083,-0.01708,0.12122
0.28947,0.92098,0.26022,-0.04206,-0.00462,0.138
0.29022,0.92049,0.26112,-0.03189,-0.00166,0.14307
0.2907,0.92018,0.26165,-0.03533,-0.00446,0.13793
0.29098,0.91988,0.26238,-0.03592,-0.02311,0.1272
0.29125,0.91954,0.26329,-0.03069,-0.02033,0.12357
0.29134,0.91927,0.26412,-0.02521,-0.01983,0.11933
0.2913,0.91912,0.26471,-0.00495,-0.02825,0.10508
0.29124,0.91903,0.26508,-0.00376,-0.03515,0.09563
0.29116,0.91893,0.26551,0.00285,-0.04587,0.08892
0.29108,0.91884,0.26592,0.01004,-0.03624,0.08192
0.29107,0.91881,0.26601,0.01625,-0.03298,0.08173
0.29091,0.91885,0.26605,0.02371,-0.03146,0.07881
0.29053,0.91887,0.26642,0.04916,-0.04186,0.0753
0.28992,0.91886,0.26711,0.05814,-0.04696,0.07725
0.28913,0.91884,0.26802,0.06488,-0.04789,0.07724
0.28814,0.9188,0.26921,0.07012,-0.04023,0.08165
0.28718,0.91875,0.27043,0.05455,-0.03499,0.07179
0.28641,0.9186,0.27173,0.04663,-0.03689,0.07324
0.28587,0.91824,0.27353,0.0351,-0.03897,0.06487
0.28542,0.91773,0.27568,0.02928,-0.04545,0.06636
0.28501,0.9172,0.27785,0.02717,-0.05032,0.0573
0.28488,0.9167,0.27965,0.00194,-0.03765,0.03862
0.28527,0.91616,0.28102,-0.02227,-0.02471,0.04692
0.28586,0.91563,0.28213,-0.02917,-0.01025,0.06082
0.28608,0.91533,0.28288,-0.02527,-0.01758,0.06207
0.28587,0.91536,0.28297,-0.0211,-0.03049,0.05576
0.28526,0.91575,0.28233,-0.01937,-0.04327,0.05
0.28427,0.91646,0.28103,-0.01635,-0.05283,0.04886
0.28305,0.91735,0.27936,-0.00107,-0.04322,0.0582
0.28144,0.91837,0.27763,0.01919,-0.03863,0.05935
0.27954,0.91947,0.2759,0.03744,-0.03695,0.05659
0.27778,0.92052,0.27418,0.04451,-0.03324,0.05998
0.27654,0.92138,0.27254,0.04531,-0.02971,0.06376
0.27603,0.92189,0.27131,0.03724,-0.01987,0.06267
0.27615,0.922,0.27082,0.00086,-0.01357,0.07557
0.27651,0.92187,0.27091,-0.00942,-0.01502,0.08058
0.27698,0.92166,0.27114,-0.02686,-0.02191,0.094
0.27737,0.92153,0.27116,-0.0369,-0.03773,0.10878
0.27744,0.92158,0.27093,-0.03514,-0.03874,0.112
0.27709,0.92181,0.27049,-0.02665,-0.03166,0.11942
0.27646,0.92219,0.26984,-0.01883,-0.02455,0.13281
0.27581,0.9226,0.26913,-0.01535,-0.02402,0.13096
0.2751,0.92286,0.26893,-0.00892,-0.031,0.12781
0.2745,0.92292,0.26935,-0.01657,-0.04043,0.11768
0.27432,0.92277,0.27003,-0.02124,-0.04248,0.11768
0.27451,0.92246,0.2709,-0.02767,-0.03887,0.12325
0.27496,0.92207,0.27179,-0.03828,-0.04524,0.12057
0.27548,0.92171,0.27247,-0.04149,-0.04628,0.12249
0.27577,0.92148,0.27297,-0.04648,-0.0459,0.12292
0.27582,0.92134,0.27336,-0.0398,-0.04585,0.12176
0.27558,0.92129,0.27379,-0.03116,-0.04342,0.1195
0.27495,0.92128,0.27446,0.01388,-0.02994,0.12671
0.2742,0.92129,0.27518,0.02555,-0.02912,0.12913
0.27362,0.92125,0.27587,0.02132,-0.04231,0.12159
0.27359,0.92114,0.27629,0.00503,-0.05061,0.12337
0.27379,0.921,0.27654,-0.00513,-0.05314,0.12135
0.27393,0.9209,0.27672,0.00156,-0.04615,0.11529
0.27396,0.92084,0.2769,0.01196,-0.03232,0.11383
0.27398,0.92082,0.27697,0.01226,-0.0321,0.11312
0.27399,0.92086,0.2768,-0.00324,-0.03836,0.11263
0.27388,0.92102,0.2764,-0.01119,-0.04687,0.10449
0.27349,0.92128,0.27592,-0.00596,-0.04664,0.0983
0.27294,0.92159,0.27541,0.00335,-0.0448,0.083
0.27242,0.92191,0.27485,0.01189,-0.04129,0.07613
0.27213,0.92217,0.27427,0.01963,-0.0374,0.08147
0.27202,0.92239,0.27364,0.01969,-0.04089,0.08675
0.27208,0.92255,0.27305,0.0198,-0.0406,0.08854
0.27224,0.92264,0.27258,0.02617,-0.04513,0.09313
0.27238,0.92268,0.27229,0.03618,-0.04294,0.09564
0.27235,0.92278,0.272,0.03713,-0.04358,0.09755
0.27219,0.92295,0.27158,0.03232,-0.04386,0.09635
0.27206,0.92313,0.2711,0.02779,-0.04663,0.09011
0.27201,0.92326,0.27068,0.03127,-0.03627,0.09196
0.27201,0.92334,0.27043,0.0281,-0.03537,0.08801
0.27203,0.92339,0.27023,0.0257,-0.03829,0.08313
0.2721,0.92337,0.27022,0.01975,-0.0558,0.07624
0.27214,0.92332,0.27036,0.02846,-0.05139,0.08184
0.27204,0.92331,0.27049,0.02982,-0.05284,0.08274
0.27222,0.92326,0.27049,0.02443,-0.03623,0.08859
0.27267,0.92324,0.27011,0.0141,-0.03386,0.10314
0.27314,0.92338,0.26915,0.00642,-0.0373,0.11174
0.2734,0.92365,0.26795,-0.00048,-0.03586,0.10885
0.27344,0.92396,0.26684,0.01112,-0.02366,0.09922
0.27335,0.92426,0.26589,0.01769,-0.02328,0.09837
0.27316,0.9246,0.2649,0.02008,-0.03256,0.10049
0.27283,0.92501,0.2638,0.01077,-0.03672,0.09468
0.27242,0.92542,0.26279,0.01477,-0.03614,0.09018
0.27196,0.92563,0.26255,0.02724,-0.02925,0.08359
0.27153,0.92557,0.26319,0.02496,-0.02443,0.07933
0.27127,0.92536,0.26418,0.01616,-0.02975,0.08258
0.27114,0.92507,0.26533,0.00319,-0.03927,0.08781
0.27105,0.9248,0.26639,0.00388,-0.04442,0.08229
0.27099,0.92457,0.26724,0.00447,-0.05103,0.07826
0.27091,0.92438,0.26798,-0.00242,-0.04805,0.07268
0.27087,0.92425,0.26846,-0.02952,-0.03309,0.08074
0.27087,0.92422,0.26856,-0.02691,-0.03205,0.0859
0.27092,0.92425,0.2684,-0.01401,-0.02964,0.08685
0.27101,0.9243,0.26816,-0.00582,-0.03074,0.09246
0.27096,0.92435,0.26803,0.00104,-0.03148,0.09472
0.27059,0.92442,0.26814,0.01742,-0.04379,0.10157
0.27002,0.92463,0.26801,0.02138,-0.0469,0.10312
0.26932,0.9249,0.26776,0.0248,-0.04729,0.10004
0.26863,0.92515,0.26761,0.03282,-0.04082,0.09802
0.26806,0.92532,0.26759,0.03402,-0.03842,0.09795
0.26764,0.92535,0.26788,0.02995,-0.0388,0.0981
0.26747,0.92524,0.26847,-0.00227,-0.04195,0.09762
0.26761,0.92498,0.26921,-0.0089,-0.03573,0.09744
0.26797,0.92462,0.27008,-0.01463,-0.02339,0.10622
0.26837,0.92428,0.27086,-0.03676,-0.03362,0.10258
0.26869,0.92404,0.27136,-0.04597,-0.03668,0.10433
0.2689,0.9239,0.2716,-0.05148,-0.03503,0.10407
0.26896,0.92389,0.27158,-0.04853,-0.03069,0.1075
0.26899,0.92395,0.27135,-0.04709,-0.02979,0.10557
0.26897,0.924,0.27121,-0.04182,-0.0271,0.10627
0.26888,0.924,0.27131,-0.02784,-0.02818,0.10648
0.26885,0.92392,0.27159,-0.01429,-0.02919,0.10649
0.26882,0.92384,0.27191,-0.00826,-0.03491,0.10829
0.26891,0.92375,0.27212,-0.00537,-0.03729,0.10657
0.26909,0.92367,0.27221,-0.00206,-0.04058,0.10508
0.2693,0.92358,0.27229,0.0091,-0.0392,0.10335
0.26944,0.92351,0.27241,0.01497,-0.03944,0.10316
0.2695,0.92345,0.27253,0.02071,-0.04137,0.10268
0.2695,0.92342,0.27265,0.02142,-0.04404,0.09994
0.26952,0.92331,0.273,0.02072,-0.03725,0.08982
0.2695,0.92316,0.27354,0.01828,-0.03792,0.0875
0.26951,0.92298,0.27412,0.01921,-0.03936,0.08916
0.26961,0.92279,0.27467,0.02213,-0.04141,0.08939
0.26975,0.92258,0.27524,0.02453,-0.03462,0.09341
0.26985,0.92236,0.27586,0.02458,-0.02989,0.09628
0.26988,0.92217,0.27646,0.01999,-0.03526,0.09341
0.26987,0.92203,0.27695,0.013,-0.04354,0.08557
0.2698,0.92194,0.27732,0.0086,-0.04938,0.08331
0.2697,0.92191,0.27753,0.00395,-0.04782,0.08453
0.26963,0.92191,0.27757,0.01278,-0.03167,0.0855
0.26955,0.922,0.27735,0.01596,-0.03141,0.09045
0.26945,0.92213,0.27703,0.02006,-0.03497,0.09245
0.26924,0.92229,0.2767,0.01973,-0.04596,0.0881
0.26897,0.9225,0.27627,0.01878,-0.04611,0.08525
0.2687,0.92269,0.2759,0.01751,-0.03279,0.08744
0.26846,0.92288,0.2755,0.01869,-0.02674,0.08697
0.26824,0.92305,0.27513,0.02086,-0.03375,0.08311
0.26809,0.9232,0.27476,0.01572,-0.04694,0.08383
0.26792,0.92346,0.27406,0.00595,-0.04547,0.08372
0.26778,0.92381,0.27303,0.00804,-0.04275,0.08363
0.26758,0.9242,0.27191,0.01071,-0.04126,0.09084
0.26736,0.92457,0.27086,0.01205,-0.04659,0.0843
0.26709,0.92494,0.26986,0.00979,-0.04455,0.08384
0.26693,0.92525,0.26896,0.00869,-0.04358,0.08387
0.26692,0.92546,0.26824,0.00549,-0.03837,0.08805
0.267,0.92563,0.26756,0.00456,-0.03461,0.09196
0.26707,0.92579,0.26693,0.0005,-0.02974,0.09986
0.26707,0.92594,0.26643,-0.00057,-0.03393,0.10798
0.26698,0.92604,0.26616,0.00938,-0.03816,0.1021
0.2669,0.92607,0.26615,0.00722,-0.03621,0.10078
0.26694,0.92603,0.26626,-0.00221,-0.039,0.09987
0.26714,0.92591,0.26647,-0.00422,-0.03925,0.10107
0.26752,0.9257,0.26682,-0.00395,-0.03991,0.09694
0.26798,0.92548,0.26711,-0.00561,-0.04116,0.09799
0.26845,0.9253,0.26726,-0.00838,-0.04633,0.10201
0.26886,0.92517,0.26728,-0.00966,-0.0467,0.10957
0.26915,0.92515,0.26707,-0.01006,-0.04894,0.11225
0.26932,0.92522,0.26664,-0.00447,-0.051,0.11184
0.26949,0.92534,0.26608,-0.00301,-0.04527,0.10969
0.26976,0.92544,0.26544,-0.00432,-0.03923,0.10994
0.27025,0.92547,0.26484,-0.00531,-0.04021,0.1087
0.27094,0.9254,0.26436,-0.00934,-0.03394,0.11386
0.2717,0.92527,0.26404,-0.0053,-0.0322,0.11946
0.27238,0.9251,0.26395,0.00031,-0.02901,0.11892
0.27285,0.92493,0.26406,0.0089,-0.03316,0.12422
0.27302,0.9248,0.26432,0.02007,-0.03967,0.12126
0.27295,0.92473,0.26465,0.02714,-0.04196,0.11647
0.27279,0.92468,0.26499,0.03123,-0.0429,0.10802
0.27267,0.92464,0.26526,0.03597,-0.04664,0.10005
0.27265,0.92451,0.2657,0.03909,-0.05141,0.09642
0.27277,0.92432,0.26627,0.03886,-0.04956,0.09195
0.27298,0.92411,0.26675,0.02906,-0.04286,0.09528
0.27324,0.92394,0.26708,0.024,-0.03884,0.0924
0.27352,0.92376,0.26741,0.01179,-0.03329,0.09195
0.27368,0.9236,0.26782,0.00829,-0.03555,0.09157
0.27369,0.92345,0.26831,0.00909,-0.03689,0.09039
0.27355,0.92335,0.26881,0.00739,-0.04473,0.09946
0.27327,0.92336,0.26907,0.00802,-0.04508,0.10521
0.27287,0.92345,0.26916,0.01093,-0.04676,0.10596
0.27237,0.92355,0.26933,0.0243,-0.04485,0.10667
