gravity.x,gravity.y,gravity.z,userAcceleration.x,userAcceleration.y,userAcceleration.z
-0.32832,0.94438,-0.01865,-0.00517,0.01809,0.00747
-0.32846,0.94434,-0.0184,-0.00623,0.01416,0.00956
-0.32858,0.94429,-0.01846,-0.00989,-0.00022,0.02093
-0.32877,0.94421,-0.01898,-0.01249,-0.00112,0.02713
-0.32917,0.94407,-0.01933,-0.01005,-0.00988,0.01966
-0.32961,0.94391,-0.01935,-0.01277,-0.01147,0.01549
-0.32998,0.94378,-0.01953,-0.01547,-0.01147,0.0113
-0.33055,0.94358,-0.01954,-0.01767,-0.01699,0.01962
-0.33126,0.94334,-0.01922,-0.00847,-0.01306,0.01952
-0.33209,0.94306,-0.01869,-0.00215,-0.00609,0.01605
-0.33315,0.9427,-0.01813,0.01235,0.01225,0.0031
-0.33402,0.9424,-0.01764,0.01807,0.00908,0.01576
-0.33466,0.94218,-0.01711,0.0107,0.00269,0.02693
-0.33524,0.94199,-0.01655,0.00144,-0.00075,0.02131
-0.33579,0.9418,-0.01607,-0.0106,0.00895,0.00073
-0.33628,0.94163,-0.0157,-0.02,0.01015,-0.0067
-0.33669,0.94149,-0.01524,-0.03239,-0.00533,0.01242
-0.33732,0.94127,-0.0148,-0.0302,-0.01027,0.01451
-0.33817,0.94097,-0.01445,-0.02566,-0.00555,0.00389
-0.33927,0.94058,-0.01439,-0.01263,-0.00085,-0.00962
-0.34042,0.94016,-0.01449,0.01691,0.01583,-0.00523
-0.34108,0.93992,-0.01458,0.02773,0.01521,-0.0002
-0.34133,0.93983,-0.01466,0.02623,0.00979,0.01052
-0.34138,0.9398,-0.01531,0.00746,0.00596,0.00918
-0.34158,0.93971,-0.01616,0.00688,0.00756,0.00418
-0.34174,0.93964,-0.01683,0.01003,0.01277,-0.00314
-0.34161,0.93968,-0.0174,0.01383,0.00571,0.00281
-0.34142,0.93973,-0.01823,0.01123,0.00796,0.00729
-0.34119,0.9398,-0.01911,0.00564,0.00419,0.01304
-0.34112,0.93981,-0.01992,0.01172,0.00869,0.00181
-0.34114,0.93979,-0.02055,0.01828,0.0119,-5e-05
-0.34087,0.93988,-0.02078,0.03273,0.00517,0.00276
-0.34055,0.93999,-0.02094,0.02709,0.00245,0.01061
-0.34044,0.94003,-0.02106,0.00352,0.00089,0.01474
-0.34059,0.93997,-0.02108,-0.00344,0.00377,0.00013
-0.34105,0.9398,-0.02123,-0.00298,0.00394,0.00028
-0.34094,0.93984,-0.02139,0.00573,0.00405,0.00426
-0.34082,0.93988,-0.02145,-0.00082,0.00412,0.01351
-0.34063,0.93995,-0.02148,-0.00322,0.00382,0.01654
-0.34049,0.94,-0.02162,-0.00048,0.00158,0.00952
-0.34032,0.94006,-0.0218,0.01204,0.0124,-0.00484
-0.34001,0.94017,-0.02192,0.01512,0.00704,0.00945
-0.33962,0.9403,-0.02214,-0.00221,-0.00538,0.02234
-0.33946,0.94035,-0.02235,-0.0116,-0.00642,0.02075
-0.33951,0.94033,-0.02252,-0.01228,0.00385,0.01147
-0.33954,0.94032,-0.02262,-0.00068,-0.00201,0.0131
-0.33957,0.94031,-0.02251,-0.00764,-0.00668,0.02229
-0.33974,0.94025,-0.02238,-0.01253,-0.00936,0.02471
-0.33997,0.94017,-0.02231,-0.01279,-0.00171,0.01364
-0.34002,0.94016,-0.02218,0.00643,0.00673,0.00465
-0.33977,0.94025,-0.0221,0.00728,0.00427,0.01032
-0.33945,0.94037,-0.02174,0.00023,-0.00327,0.01486
-0.33941,0.9404,-0.0212,-0.01439,-0.00742,0.01606
-0.33945,0.94039,-0.02096,-0.00887,0.0033,-0.00237
-0.33937,0.94042,-0.021,-0.0094,0.00909,-0.00586
-0.33922,0.94047,-0.02103,-0.00867,0.0076,0.01397
-0.33901,0.94055,-0.02114,-0.01374,-0.0025,0.02619
-0.33881,0.94061,-0.02136,-0.01756,-0.00302,0.02196
-0.33873,0.94063,-0.02182,-0.02179,-0.00179,0.00699
-0.33879,0.9406,-0.02244,-0.01181,0.00373,-0.00605
-0.33882,0.94057,-0.02312,-0.00708,0.00693,-0.00456
-0.33885,0.94054,-0.02357,0.00082,-0.00684,0.0153
-0.33888,0.94052,-0.02403,-0.00848,-0.00462,0.02463
-0.33882,0.94054,-0.02445,-0.00855,-0.00464,0.02504
-0.33885,0.94051,-0.02493,-0.00812,0.01144,0.00197
-0.33858,0.94059,-0.02549,0.00125,0.00753,0.01474
-0.33801,0.94078,-0.02616,0.00068,0.00734,0.01542
-0.33741,0.94099,-0.02649,-0.01513,-0.00138,0.02924
-0.33703,0.94111,-0.02696,-0.01391,-0.00286,0.00795
-0.33682,0.94117,-0.0275,-0.0088,-0.00092,-0.00021
-0.33664,0.94122,-0.02789,0.00158,-0.00566,0.00301
-0.33647,0.94128,-0.02797,-0.01115,-0.00745,0.02367
-0.33627,0.94135,-0.02809,-0.0061,0.00267,0.02545
-0.33637,0.9413,-0.02824,-0.02061,0.00234,0.01471
-0.3365,0.94125,-0.02859,-0.00676,0.01362,0.00213
-0.33632,0.94129,-0.02926,-0.00453,0.01185,0.0024
-0.33591,0.94143,-0.02966,-0.0146,-0.00202,0.02145
-0.33535,0.94162,-0.03002,-0.02023,-0.00219,0.0166
-0.33509,0.9417,-0.03039,-0.01786,-0.00304,0.01222
-0.33511,0.94167,-0.0308,-0.00177,0.00426,0.00225
-0.33512,0.94165,-0.03128,0.00976,0.00482,0.01142
-0.33484,0.94174,-0.03174,0.00719,0.00253,0.01602
-0.33441,0.94189,-0.03194,-0.01167,0.00124,0.02021
-0.33399,0.94202,-0.03223,-0.01563,0.00135,0.01674
-0.3338,0.94207,-0.03271,-0.01035,0.00728,0.00067
-0.33386,0.94204,-0.03324,-0.0037,0.00025,0.00776
-0.33398,0.94198,-0.03358,0.00343,-0.00866,0.0158
-0.33411,0.94193,-0.03375,0.0037,-0.01015,0.02777
-0.33431,0.94185,-0.03391,-0.01032,0.00654,0.01218
-0.33456,0.94176,-0.03412,-0.00875,0.01549,0.00283
-0.33477,0.94167,-0.03441,-0.00097,0.00907,0.00734
-0.33482,0.94164,-0.03468,0.00197,0.00077,0.01765
-0.335,0.94158,-0.03472,0.00182,-0.0027,0.0204
-0.33548,0.94141,-0.03463,0.00906,-0.002,0.00952
-0.33611,0.94119,-0.03445,0.01007,0.00212,-0.00024
-0.33671,0.94098,-0.03432,0.01629,0.0101,-0.00047
-0.33691,0.94091,-0.03423,0.01105,0.01015,0.00575
-0.33664,0.94101,-0.03418,0.00595,0.01204,0.00812
-0.33617,0.94117,-0.03437,-0.00023,0.01096,0.00092
-0.3357,0.94133,-0.03471,0.00066,0.01273,0.0019
-0.33525,0.94147,-0.03523,0.01265,0.01164,-0.00174
-0.3346,0.94167,-0.03594,0.0082,0.00904,0.01543
-0.33395,0.94188,-0.03661,0.00596,0.00268,0.0227
-0.33344,0.94205,-0.03703,-0.00484,-0.00198,0.02443
-0.33314,0.94215,-0.03721,-0.00325,0.0035,0.00811
-0.33296,0.9422,-0.03744,-0.00343,0.00345,0.00834
-0.3325,0.94235,-0.03771,-0.00958,0.00174,0.01623
-0.33194,0.94252,-0.03824,-0.01422,-0.00098,0.02174
-0.33149,0.94267,-0.03865,-0.01523,-0.00323,0.02445
-0.33121,0.94275,-0.03894,-0.0164,-0.00194,0.0161
-0.33096,0.94283,-0.0393,-0.01152,0.00534,0.00745
-0.3307,0.94291,-0.03956,-0.00907,-0.00022,0.01417
-0.33044,0.94299,-0.03977,-0.01437,-0.00842,0.02637
-0.33046,0.94298,-0.03988,-0.01886,-0.0081,0.01756
-0.33064,0.94291,-0.03986,-0.01409,-0.00468,0.01549
-0.33084,0.94285,-0.03981,-0.00578,0.00318,0.009
-0.33088,0.94284,-0.03974,-0.00279,0.00666,0.01508
-0.33072,0.94289,-0.03978,-0.00609,0.00502,0.02088
-0.3307,0.9429,-0.03985,-0.01005,0.00098,0.01725
-0.33076,0.94287,-0.0399,0.00201,0.00244,0.00412
-0.33073,0.94287,-0.04009,0.0041,0.00204,0.00254
-0.3305,0.94295,-0.0402,0.00446,0.00525,0.0088
-0.33009,0.94309,-0.04022,-0.00013,0.00394,0.0162
-0.32966,0.94324,-0.0402,-0.00725,0.00175,0.01559
-0.32928,0.94337,-0.04029,-0.00642,-0.00101,0.00161
-0.32898,0.94346,-0.04054,-0.00718,0.002,0.00105
-0.32864,0.94357,-0.04086,-0.00813,0.00633,0.00458
-0.32825,0.9437,-0.04115,-0.00946,0.00548,0.01248
-0.32788,0.94381,-0.04138,-0.01175,0.00057,0.01676
-0.32771,0.94386,-0.0416,-0.0117,-0.00435,0.01753
-0.32761,0.94389,-0.0419,-0.01212,0.00248,0.00818
-0.32745,0.94393,-0.04222,-0.01124,0.00412,0.00515
-0.32726,0.94397,-0.04258,-0.00997,0.00633,0.01531
-0.32709,0.94402,-0.04292,-0.00709,-1e-05,0.02327
-0.32684,0.94409,-0.0433,-0.00991,-0.00109,0.02204
-0.32665,0.94413,-0.04368,-0.01228,-0.00395,0.02191
-0.32659,0.94414,-0.04397,-0.00854,-0.00484,0.00846
-0.32657,0.94413,-0.04429,-0.00825,-0.00413,0.01073
-0.32662,0.9441,-0.04457,-0.00317,-0.00291,0.01388
-0.32684,0.94402,-0.04467,0.00076,0.00053,0.02099
-0.3271,0.94393,-0.04478,-0.00188,0.00273,0.01658
-0.32744,0.9438,-0.04488,-0.00786,0.00685,0.00902
-0.32783,0.94366,-0.0451,-0.00879,0.00847,0.00498
-0.32814,0.94354,-0.04532,0.00159,0.01111,0.00766
-0.32824,0.9435,-0.04554,-0.00436,0.00499,0.01758
-0.3283,0.94347,-0.04569,-0.00024,0.00273,0.01559
-0.32839,0.94343,-0.04575,-0.00647,9e-05,0.00843
-0.32849,0.94339,-0.04593,-0.00275,-0.00124,0.00053
-0.32844,0.94339,-0.04619,0.00428,0.00291,0.00357
-0.32819,0.94347,-0.04646,0.00706,0.00584,0.00912
-0.32779,0.9436,-0.04666,0.0056,0.0069,0.01126
-0.32742,0.94372,-0.04683,-0.00909,0.00161,0.00813
-0.32705,0.94383,-0.04711,-0.01072,0.00037,0.00252
-0.3267,0.94393,-0.04748,-0.01012,0.00301,0.00261
-0.32632,0.94405,-0.04788,-0.00057,0.005,0.00554
-0.32593,0.94416,-0.04823,-0.00096,-0.0036,0.01589
-0.3256,0.94427,-0.04839,-0.00376,-0.00843,0.01772
-0.32554,0.94429,-0.04844,-0.01165,-0.00213,0.00811
-0.32561,0.94426,-0.04846,-0.00161,0.00308,0.0052
-0.32553,0.94429,-0.04851,0.00101,0.00602,0.008
-0.32521,0.9444,-0.04851,-0.00232,0.00269,0.02189
-0.32473,0.94456,-0.04848,-0.01376,-3e-05,0.02153
-0.32432,0.9447,-0.04851,-0.01892,-0.00384,0.01146
-0.32414,0.94476,-0.04859,-0.01771,-0.00143,0.00368
-0.32419,0.94474,-0.04875,-0.00159,0.00274,0.00316
-0.32409,0.94476,-0.04893,0.00577,0.0029,0.00882
-0.32371,0.94489,-0.04906,0.00318,-0.00108,0.01906
-0.32329,0.94504,-0.04881,-0.00516,-0.00298,0.01925
-0.32291,0.9452,-0.04822,-0.00477,-0.00271,0.01236
-0.32263,0.94532,-0.04766,-0.00983,0.00337,0.00871
-0.32234,0.94545,-0.04718,-0.01289,0.00394,0.01686
-0.32202,0.94558,-0.04672,-0.01174,0.00503,0.01626
-0.32171,0.94571,-0.04624,-0.01821,0.00355,0.0186
-0.32148,0.9458,-0.04593,-0.01834,0.00447,0.00995
-0.3214,0.94584,-0.04575,-0.01257,0.00272,0.00594
-0.3214,0.94584,-0.04569,-0.00394,-0.0007,0.00912
-0.32132,0.94586,-0.04573,-0.00336,0.00384,0.01253
-0.32105,0.94595,-0.04591,-0.0073,0.00692,0.0116
-0.32077,0.94604,-0.04597,-0.01106,0.00539,0.01496
-0.32051,0.94613,-0.04594,-0.01531,0.00567,0.00579
-0.32036,0.94617,-0.04611,-0.01208,0.00306,0.00295
-0.32027,0.94618,-0.04653,-0.00422,-9e-05,0.00717
-0.32013,0.94621,-0.04694,-0.00224,-0.00407,0.01821
-0.31993,0.94626,-0.04714,-0.00406,-0.00492,0.01591
-0.31981,0.94631,-0.04714,-0.00093,-0.00186,0.0103
-0.31983,0.9463,-0.04708,0.0008,0.00089,0.00642
-0.31987,0.94629,-0.04698,0.0028,0.00502,0.00953
-0.31996,0.94627,-0.04675,0.00059,0.0047,0.01293
-0.32013,0.94623,-0.04649,-0.00039,0.00299,0.01361
-0.32038,0.94616,-0.04619,0.00071,0.00466,0.00669
-0.32057,0.94612,-0.04575,0.00666,0.00466,0.00589
-0.3207,0.94609,-0.04537,0.00597,0.00737,0.00741
-0.32072,0.9461,-0.04514,0.00544,0.00521,0.00769
-0.32066,0.94613,-0.04492,-0.01455,-0.00857,0.00278
-0.32061,0.94615,-0.0448,0.00533,0.01004,0.00697
-0.32062,0.94615,-0.04467,-0.00053,0.00241,0.0019
-0.3206,0.94617,-0.04445,0.00659,0.00261,0.01131
-0.32055,0.94619,-0.04439,0.00143,0.00213,0.01045
-0.3205,0.94622,-0.04416,-0.00206,0.00164,0.0107
-0.32057,0.9462,-0.04395,-0.00707,0.00534,0.00583
-0.32067,0.94618,-0.04377,-0.00712,0.00426,0.00509
-0.32074,0.94616,-0.04369,-0.00465,0.00108,0.01284
-0.32064,0.94619,-0.04364,-0.01081,-0.00465,0.01772
-0.32054,0.94623,-0.04349,-0.0153,-0.00615,0.01523
-0.32062,0.94622,-0.04322,-0.01997,-0.00246,0.01356
-0.32085,0.94615,-0.04296,-0.00787,0.00024,0.00508
-0.32096,0.94613,-0.04274,-0.0016,-0.00109,0.01077
-0.32097,0.94614,-0.04243,-0.00357,0.00214,0.01538
-0.32099,0.94615,-0.04205,-0.00761,-0.00077,0.01671
-0.32101,0.94616,-0.04164,-0.01383,0.00672,0.00839
-0.32105,0.94616,-0.0414,-0.01329,0.00926,-0.00273
-0.32106,0.94616,-0.04126,-0.00107,0.00182,0.00865
-0.32093,0.94621,-0.04112,-0.00636,-0.0038,0.01518
-0.32081,0.94625,-0.04118,-0.01306,-0.00049,0.0141
-0.32067,0.94629,-0.04133,-0.00721,0.00717,0.00315
-0.32031,0.9464,-0.04145,-0.00016,0.01124,0.00076
-0.31969,0.9466,-0.04167,-0.00036,0.006,0.01327
-0.31898,0.94683,-0.04186,-0.00751,-0.00169,0.01841
-0.31848,0.947,-0.04201,-0.02134,-0.00559,0.01668
-0.31838,0.94703,-0.04205,-0.0155,-0.00781,0.00766
-0.31849,0.94699,-0.04198,-0.00794,0.00195,0.00797
-0.31855,0.94698,-0.04193,-0.00689,0.00201,0.01525
-0.31843,0.94702,-0.04193,-0.00644,-0.0007,0.01876
-0.31838,0.94704,-0.04184,-0.0099,-0.00212,0.01834
-0.31843,0.94703,-0.04162,-0.01016,0.00229,0.00567
-0.31857,0.947,-0.04139,-0.00719,0.00221,0.0037
-0.31876,0.94694,-0.04117,-0.00218,0.00434,0.00694
-0.31895,0.94689,-0.04094,-0.00679,-0.00014,0.01352
-0.31907,0.94685,-0.0408,-0.00875,0.00128,0.01109
-0.31921,0.94681,-0.04069,-0.01063,0.0032,0.00352
-0.31933,0.94677,-0.04054,0.00012,0.00618,4e-05
-0.31937,0.94677,-0.04042,0.00104,0.00599,0.00322
-0.31933,0.94679,-0.04033,-0.00366,0.00074,0.01223
-0.31933,0.94678,-0.04032,-0.01184,-0.00199,0.00698
-0.31945,0.94674,-0.04035,-0.01049,-0.00026,0.0039
-0.31947,0.94674,-0.04032,-0.0016,0.00863,0.00117
-0.31928,0.9468,-0.04032,-0.00179,0.00857,0.00117
-0.31897,0.94691,-0.04036,-0.00156,-0.00138,0.01339
-0.3188,0.94696,-0.04045,-0.01166,-0.00306,0.01019
-0.31888,0.94693,-0.04043,-0.01195,0.00114,0.00552
-0.31898,0.9469,-0.04036,-0.00015,0.00478,0.00267
-0.31887,0.94694,-0.04028,-0.00046,0.00365,0.00867
-0.31867,0.94701,-0.04034,-0.00277,0.00371,0.01368
-0.31866,0.94701,-0.04023,-0.00826,-0.00092,0.01374
-0.31873,0.947,-0.04006,-0.00382,0.00337,0.00628
-0.31872,0.94701,-0.03994,-0.00533,0.0059,0.00536
-0.3186,0.94705,-0.03991,-0.00355,0.00451,0.00701
-0.31852,0.94708,-0.0399,-0.00858,-0.0006,0.01116
-0.31854,0.94707,-0.03988,-0.00587,-0.00079,0.01121
-0.31868,0.94702,-0.03981,-0.00466,0.00174,0.00865
-0.31874,0.94701,-0.03971,-0.00607,0.00308,0.00284
-0.31871,0.94703,-0.03963,-0.00505,0.00511,0.00551
-0.31865,0.94705,-0.03952,-0.00534,0.00617,0.01198
-0.31866,0.94705,-0.03946,-0.01215,0.001,0.00673
-0.31876,0.94701,-0.03947,-0.01021,0.00164,0.00436
-0.31888,0.94697,-0.03949,-0.00983,0.00231,0.00461
-0.31896,0.94695,-0.03945,-0.00339,0.00252,0.0077
-0.31901,0.94693,-0.0394,-0.00411,-0.00081,0.00945
-0.31909,0.94691,-0.03929,-0.00657,0.00035,0.01022
-0.31927,0.94686,-0.03907,-0.00601,0.00251,0.01045
-0.31955,0.94677,-0.03887,-0.00872,0.00216,0.00518
-0.31982,0.94669,-0.03875,-0.00553,0.00539,0.00295
-0.31997,0.94664,-0.0387,0.00054,0.00045,0.00354
-0.31992,0.94666,-0.03858,0.00031,0.00171,0.01107
-0.31983,0.94668,-0.0387,0.00086,-0.00206,0.00813
-0.31975,0.9467,-0.03882,-0.01049,0.00058,0.00817
-0.31982,0.94668,-0.03894,-0.00356,0.001,0.00355
-0.31995,0.94663,-0.03906,-0.00326,0.00453,0.00058
-0.32002,0.9466,-0.03921,-0.00283,0.00158,0.00598
-0.32005,0.94658,-0.03938,-0.00257,0.00313,0.00978
-0.32009,0.94656,-0.03946,-0.005,0.00023,0.01256
-0.32024,0.94651,-0.03958,-0.00604,0.00259,0.00696
-0.32043,0.94644,-0.03973,-0.00351,0.00577,0.00198
-0.32058,0.94638,-0.03983,0.00164,0.00453,0.00524
-0.32064,0.94636,-0.03995,0.00118,0.00516,0.00887
-0.32062,0.94636,-0.04001,-0.00759,0.00161,0.00941
-0.32068,0.94635,-0.03994,-0.00983,-0.00045,0.00936
-0.32086,0.94629,-0.03981,-0.00445,0.0011,0.00638
-0.32117,0.94619,-0.03973,-0.00243,0.0069,0.00256
-0.32147,0.94609,-0.0397,-0.00391,0.00351,0.00516
-0.32177,0.94599,-0.03968,-0.00442,-0.00124,0.00916
-0.32206,0.94589,-0.03959,-0.00848,-0.00081,0.00615
-0.32242,0.94578,-0.03942,-0.00667,-0.0008,0.00135
-0.32282,0.94565,-0.03917,-0.00254,0.00162,0.00237
-0.32317,0.94554,-0.03903,-0.00322,0.00327,0.00077
-0.32345,0.94544,-0.03897,-5e-05,0.0043,0.00257
-0.32366,0.94537,-0.03887,-0.00016,0.00359,0.0019
-0.32375,0.94535,-0.03874,0.00133,0.0015,0.00716
-0.32368,0.94538,-0.03864,-0.00094,0.00016,0.00759
-0.32361,0.9454,-0.03866,-0.00653,0.00193,0.00157
-0.3236,0.9454,-0.03879,-0.00395,0.0004,-0.00331
-0.32358,0.9454,-0.03892,-0.00334,0.00194,0.00068
-0.3234,0.94546,-0.03901,-0.00238,-0.0014,0.0093
-0.32314,0.94555,-0.03905,-0.00598,-0.00213,0.01047
-0.32298,0.9456,-0.03899,-0.00639,-0.00105,0.01169
-0.32299,0.9456,-0.03892,-0.00908,0.0022,0.00474
-0.32305,0.94558,-0.03898,-0.00851,0.00327,0.00252
-0.32317,0.94553,-0.03909,-0.00392,0.0012,0.00308
-0.3233,0.94549,-0.039,0.00013,0.00373,0.01502
-0.32329,0.9455,-0.03889,-0.00183,0.00523,0.01246
-0.32327,0.94552,-0.03867,-0.00245,0.00436,0.01082
-0.32333,0.94551,-0.03833,-0.00522,-0.00149,0.00168
-0.32344,0.94548,-0.03817,-0.00244,0.00186,-0.00153
-0.32348,0.94546,-0.03811,-0.00334,0.00458,0.00091
-0.32344,0.94548,-0.03805,-0.00333,0.00329,0.0099
-0.32338,0.94551,-0.03783,-0.00397,0.00325,0.00991
-0.32339,0.94552,-0.03757,-0.00664,-0.00233,0.00542
-0.32348,0.9455,-0.03734,-0.00955,-0.00124,-0.00146
-0.32356,0.94547,-0.03727,-0.00827,0.00463,-0.00425
-0.32357,0.94547,-0.03724,0.00494,0.00474,0.0028
-0.32345,0.94552,-0.03712,0.00628,0.00242,0.0099
-0.32334,0.94556,-0.03709,-0.00323,0.0038,0.00824
-0.32354,0.94549,-0.03712,-0.00711,0.00433,-0.00202
-0.3241,0.94529,-0.03727,-0.00106,0.00747,-0.00623
-0.32485,0.94502,-0.03747,0.01149,0.011,-0.00347
-0.32539,0.94483,-0.03755,0.02059,0.01571,0.00606
-0.32553,0.94478,-0.03753,0.02555,0.01162,0.0109
-0.32518,0.94491,-0.0374,0.01021,0.0064,0.004
-0.32463,0.94511,-0.03712,0.00718,0.00238,-0.00301
-0.32409,0.9453,-0.03694,0.00027,0.00329,-0.00888
-0.32364,0.94546,-0.03681,-0.00064,0.00133,0.00263
-0.32339,0.94555,-0.03687,-0.00118,0.00158,0.00647
-0.32317,0.94562,-0.03685,0.00196,0.00196,0.00288
-0.32304,0.94567,-0.03685,-0.0001,0.00517,0.0018
-0.32288,0.94572,-0.037,-0.0027,0.01016,-0.00198
-0.32266,0.94579,-0.03712,-0.00651,0.00352,0.00066
-0.32242,0.94586,-0.0373,-0.00581,0.00337,0.01271
-0.32225,0.94591,-0.03743,-0.01076,0.00033,0.01367
-0.32218,0.94593,-0.03764,-0.01274,0.00137,0.0037
-0.32218,0.94592,-0.03791,-0.01078,0.00329,0.00146
-0.32211,0.94593,-0.03818,-0.00571,0.00191,0.00431
-0.32203,0.94595,-0.03836,0.00027,-0.00114,0.0093
-0.32197,0.94596,-0.03854,-0.00207,0.0013,0.01282
-0.32196,0.94596,-0.03872,-0.00278,7e-05,0.01502
-0.32196,0.94595,-0.03888,-0.00034,0.00386,0.01196
-0.32176,0.94602,-0.03901,-0.00362,0.00271,0.01265
-0.32139,0.94614,-0.03906,-0.00725,-0.00095,0.01507
-0.32102,0.94626,-0.0391,-0.01516,-0.00205,0.01448
-0.32071,0.94636,-0.03931,-0.01828,-0.00216,0.01263
-0.32034,0.94647,-0.03957,-0.01337,-0.00028,0.00813
-0.31982,0.94664,-0.03976,-0.01137,-0.00171,0.01509
-0.31926,0.94682,-0.04008,-0.01532,-0.00276,0.01824
-0.31888,0.94694,-0.04029,-0.01504,-0.00048,0.01949
-0.3187,0.94699,-0.04057,-0.01559,0.00277,0.0135
-0.31852,0.94703,-0.04093,-0.01594,0.00318,0.01011
-0.31815,0.94714,-0.04128,-0.01345,0.00029,0.01473
-0.31774,0.94727,-0.0415,-0.0122,-0.00745,0.02851
-0.31747,0.94737,-0.04137,-0.01159,-0.01006,0.01954
-0.31737,0.94741,-0.04112,-0.01178,-0.00568,0.01143
-0.31742,0.94738,-0.04127,-0.00864,0.00824,0.00784
-0.31749,0.94734,-0.04174,-0.00148,0.00929,0.01212
-0.31745,0.94733,-0.04231,0.00953,0.00532,0.02022
-0.31733,0.94735,-0.04271,-0.00208,-0.00413,0.02436
-0.31729,0.94736,-0.04288,-0.00147,-0.00667,0.01527
-0.31747,0.9473,-0.04275,-0.00113,-0.00741,0.00996
-0.31777,0.94721,-0.0426,-0.00445,-0.00017,-0.00229
-0.31816,0.94708,-0.04251,-0.00395,0.00343,-0.00573
-0.31846,0.94699,-0.04232,-0.00252,0.00137,-0.00697
-0.31876,0.94691,-0.04191,0.00592,0.00954,0.00215
-0.31908,0.94682,-0.04155,-0.00494,0.00403,-0.0105
-0.31928,0.94676,-0.0413,-0.00474,0.00409,-0.01075
-0.31911,0.94681,-0.04137,-0.00101,0.01725,-0.01782
-0.31886,0.94689,-0.04158,-0.00404,0.01445,-0.02352
-0.3186,0.94697,-0.04173,0.00744,0.00789,-0.01158
-0.31834,0.94705,-0.04193,0.00133,0.00786,-0.00212
-0.31812,0.94711,-0.04215,0.00122,0.00879,-0.00117
-0.31794,0.94717,-0.04221,0.0043,0.00638,-0.00683
-0.31767,0.94727,-0.04209,0.00105,0.00746,-0.01325
-0.31739,0.94737,-0.04192,0.0015,0.00242,-0.00506
-0.31716,0.94745,-0.04168,0.00128,0.00233,-0.0053
-0.3171,0.94749,-0.04144,-0.001,0.00182,0.00578
-0.3172,0.94745,-0.04136,-0.00689,0.00544,-0.00383
-0.31737,0.94739,-0.04163,-0.00681,0.00741,-0.0025
-0.31741,0.94736,-0.04206,-0.00378,-0.00473,0.00091
-0.31719,0.9474,-0.0428,-0.00474,-0.00961,0.01625
-0.31702,0.94742,-0.0435,-0.01101,-0.00255,0.02258
-0.31722,0.94735,-0.04363,-0.01055,-0.00571,0.015
-0.31772,0.94719,-0.04336,7e-05,0.00042,0.00335
-0.31836,0.947,-0.04299,0.00139,0.00448,0.00232
-0.31912,0.94676,-0.04252,0.00427,0.00189,0.00816
-0.31991,0.94651,-0.04207,0.00208,0.00507,0.00755
-0.32075,0.94625,-0.04149,0.0042,0.00757,0.00358
-0.32145,0.94604,-0.04101,0.00593,0.00741,-0.0046
-0.32202,0.94586,-0.04074,0.00082,0.00853,-0.0134
-0.32251,0.9457,-0.04053,0.00347,0.00909,-0.01054
-0.3228,0.94561,-0.0404,0.00393,0.00851,0.00184
-0.32284,0.9456,-0.04018,0.00102,0.00727,0.00571
-0.32269,0.94566,-0.03995,-0.0036,-4e-05,0.00867
-0.32258,0.9457,-0.03979,-0.00556,-0.00592,-0.0028
-0.3226,0.9457,-0.03967,-0.00517,-0.00401,-0.00327
-0.32271,0.94567,-0.03954,-0.0008,0.00242,-0.00057
-0.32267,0.94568,-0.03951,0.00503,0.00454,0.00349
-0.32233,0.9458,-0.03952,0.00374,0.00462,0.00252
-0.32177,0.946,-0.0394,-0.00433,0.00455,0.006
-0.32117,0.94621,-0.03927,-0.00575,0.00376,0.00322
-0.32063,0.94639,-0.03932,-0.00694,0.00723,-0.00126
-0.32023,0.94652,-0.03939,-0.00764,0.00474,0.00193
-0.31999,0.9466,-0.03948,-0.00821,-0.0002,0.00276
-0.31998,0.9466,-0.03952,-0.01064,0.00055,3e-05
-0.32036,0.94648,-0.03936,-0.00516,-0.00228,-0.00041
-0.32108,0.94625,-0.03884,0.00944,-0.0037,0.00606
-0.32184,0.94603,-0.03805,0.01601,-0.00455,0.01262
-0.3224,0.94587,-0.03724,0.01614,0.00101,0.01411
-0.32265,0.94581,-0.03659,0.0067,0.0122,0.01233
-0.32257,0.94586,-0.03603,0.00659,0.01009,0.00687
-0.32227,0.94598,-0.0355,0.00601,0.0089,0.00524
-0.32173,0.94618,-0.03506,0.00622,0.00043,0.0086
-0.32105,0.94643,-0.03462,0.00037,-3e-05,0.00986
-0.32036,0.94668,-0.03431,-0.01614,0.00402,0.0061
-0.31981,0.94686,-0.03424,-0.01884,-0.00013,-0.00556
-0.31941,0.947,-0.03433,-0.01481,0.00109,-0.00996
-0.3191,0.9471,-0.03439,-0.00331,0.00373,-0.00175
-0.31886,0.94718,-0.03428,-0.00357,0.00263,0.01058
-0.3187,0.94724,-0.03408,-0.00864,-0.00344,0.01045
-0.31875,0.94724,-0.03374,-0.01121,-0.00016,0.00203
-0.31903,0.94716,-0.03331,-0.00914,0.0005,-0.00101
-0.31934,0.94707,-0.03284,0.0038,0.0047,0.00579
-0.31944,0.94705,-0.03256,0.00044,0.00503,0.01027
-0.31931,0.9471,-0.03242,-0.00648,0.00914,0.0109
-0.31902,0.9472,-0.03236,-0.01054,0.01069,0.00214
-0.31874,0.94729,-0.03236,-0.00603,0.00483,0.00382
-0.31863,0.94732,-0.03241,-0.00052,-0.00131,0.00988
-0.31872,0.94729,-0.0325,0.00058,-0.00437,0.0121
-0.31888,0.94724,-0.03247,-0.00038,-0.00284,0.00763
-0.31902,0.9472,-0.03228,-0.00202,0.00095,0.00432
-0.31921,0.94715,-0.03191,0.00292,0.00312,0.00377
-0.31943,0.94708,-0.03153,0.0028,0.00346,0.0076
-0.31973,0.94699,-0.03118,-0.00174,0.00488,0.00812
-0.32013,0.94688,-0.03076,0.00258,0.00028,0.00435
-0.32057,0.94674,-0.03038,0.00322,0.00375,-0.00012
-0.32092,0.94663,-0.03008,0.00123,0.00369,-0.00425
-0.32109,0.94658,-0.02987,-0.00067,0.00415,0.0008
-0.32101,0.94661,-0.02983,-0.00498,0.00591,0.00205
-0.3208,0.94668,-0.02975,-0.00475,0.00954,0.00074
-0.32054,0.94676,-0.02983,-0.00258,0.00946,-0.0077
-0.32023,0.94686,-0.03019,0.00268,0.0106,-0.01233
-0.31983,0.94698,-0.03058,0.0095,0.00544,-0.00311
-0.31938,0.94712,-0.03083,0.00512,0.00054,0.00332
-0.31902,0.94724,-0.03101,0.00269,0.00073,0.00574
-0.31877,0.94732,-0.03117,-0.00258,0.00509,0.00129
-0.31845,0.94742,-0.03151,-3e-05,0.00756,-0.00521
-0.31794,0.94757,-0.03195,-0.00132,0.0009,-0.00046
-0.31732,0.94777,-0.03234,-0.00061,-0.00137,0.01701
-0.31681,0.94793,-0.03262,-0.00175,-0.00278,0.02225
-0.31654,0.94802,-0.03268,-0.00493,-0.00035,0.01064
-0.3165,0.94803,-0.03261,-0.00093,0.00274,-0.00391
-0.31653,0.94802,-0.03255,0.00634,0.00493,-0.00764
-0.31644,0.94805,-0.03252,0.00422,0.00785,0.00234
-0.31619,0.94814,-0.03255,-0.00281,0.0099,0.01447
-0.31594,0.94822,-0.03248,-0.00785,0.00711,0.00939
-0.31573,0.94829,-0.03239,-0.01096,0.00538,0.00032
-0.3156,0.94833,-0.03259,-0.00488,0.00192,-0.0131
-0.31548,0.94836,-0.03296,0.00289,0.00443,-0.00501
-0.31532,0.9484,-0.03325,0.00497,0.00701,0.00086
-0.31498,0.94851,-0.03347,0.0001,0.01226,0.01486
-0.31438,0.9487,-0.03372,-0.00708,0.0094,0.00824
-0.3135,0.94897,-0.03437,-0.00973,0.00803,0.00258
-0.31235,0.94931,-0.03539,-0.0077,0.00362,0.01343
-0.3112,0.94965,-0.03636,-0.01143,-0.01465,0.03331
-0.31043,0.94987,-0.03705,-0.01571,-0.02144,0.03566
-0.31026,0.94991,-0.03746,-0.00966,-0.01821,0.02762
-0.31058,0.9498,-0.03763,-0.00177,-0.00634,0.00734
-0.31119,0.9496,-0.03761,0.00014,-0.00118,0.00532
-0.31196,0.94936,-0.03733,0.00595,0.00114,0.01064
-0.31278,0.94911,-0.03677,0.0026,0.00413,0.00892
-0.31361,0.94886,-0.03611,0.003,0.00296,0.00558
-0.31455,0.94858,-0.0354,-0.00059,-0.00357,-0.01039
-0.3156,0.94826,-0.03463,0.00458,0.00396,-0.0133
-0.31665,0.94793,-0.03396,0.00465,0.01073,-0.01148
-0.31744,0.94768,-0.03359,0.01068,0.01492,-0.00917
-0.31785,0.94755,-0.03353,0.00032,0.01513,-0.01335
-0.31797,0.9475,-0.0337,-0.00177,0.01437,-0.01104
-0.31785,0.94753,-0.03401,4e-05,0.01275,-0.01653
-0.3175,0.94764,-0.03426,0.01098,0.00399,-0.01635
-0.317,0.9478,-0.03449,0.01021,0.00221,-0.01199
-0.31654,0.94794,-0.03485,0.0055,0.0034,-0.00144
-0.31621,0.94803,-0.03526,0.00409,0.00871,-0.00342
-0.31588,0.94813,-0.0357,0.00474,0.01241,-0.01007
-0.3154,0.94827,-0.03626,0.00276,0.0086,-0.00154
-0.31481,0.94844,-0.03682,0.00121,0.00383,0.0044
-0.31417,0.94863,-0.03731,0.00156,0.00036,0.00707
-0.31366,0.94878,-0.03779,0.00127,0.00098,-1e-05
-0.31335,0.94887,-0.03827,0.00148,0.00234,-0.00364
-0.31312,0.94892,-0.03877,0.00808,0.00487,-0.00513
-0.31278,0.94902,-0.0392,0.00832,0.01101,0.00361
-0.31241,0.94913,-0.03946,0.00043,0.00133,0.01198
-0.31222,0.94919,-0.03949,-0.00136,-0.00191,0.01139
-0.31234,0.94915,-0.03943,0.00035,0.00307,0.00723
-0.31269,0.94903,-0.03947,0.00331,0.00083,0.00267
-0.31291,0.94896,-0.03955,0.01184,0.00591,-0.00208
-0.31288,0.94896,-0.03963,0.00331,0.00802,0.01331
-0.31277,0.949,-0.03966,0.00228,0.00385,0.01682
-0.31274,0.94901,-0.03951,-0.0025,-0.00209,0.01072
-0.31287,0.94898,-0.03938,-0.00411,0.00015,0.002
-0.31305,0.94892,-0.03933,-0.00648,-0.001,0.00022
-0.31322,0.94888,-0.03914,-0.00282,-0.00117,0.00126
-0.3134,0.94883,-0.03873,-0.00285,0.00577,0.00833
-0.3136,0.94879,-0.03824,-0.00257,0.00422,0.00749
-0.31381,0.94873,-0.03783,-0.0073,0.00634,-0.00311
-0.31399,0.94868,-0.03769,-0.00214,0.00776,-0.00625
-0.31391,0.9487,-0.03784,-0.00141,0.00676,0.00031
-0.31361,0.94879,-0.03808,-0.00011,0.00741,-0.00018
-0.31333,0.94887,-0.03822,-0.00603,0.00062,0.00305
-0.31328,0.94889,-0.03841,-0.00266,-0.00223,0.00147
-0.31345,0.94882,-0.03867,0.00219,-0.00039,8e-05
-0.31368,0.94873,-0.03883,0.00742,-0.00071,0.00021
-0.31388,0.94867,-0.03886,0.00249,0.00037,0.00629
-0.31396,0.94865,-0.03862,0.00049,0.00122,0.00822
-0.31413,0.94861,-0.03827,-0.00101,0.00581,0.00512
-0.31456,0.94847,-0.03801,-0.0058,0.01049,-0.00087
-0.31515,0.94828,-0.03796,-0.00115,0.01436,1e-05
-0.3156,0.94812,-0.03821,0.0002,0.00836,0.00591
-0.31584,0.94803,-0.03846,0.00273,0.00236,0.00469
-0.31593,0.94799,-0.03869,0.00479,0.00499,0.00542
-0.31591,0.948,-0.03868,0.00445,0.00285,-0.00796
-0.316,0.94797,-0.0387,0.00722,0.00453,-0.01083
-0.31618,0.94791,-0.03875,0.00756,0.00545,-0.00633
-0.31637,0.94785,-0.03871,0.00333,0.00607,-0.00082
-0.31654,0.94778,-0.03881,-0.00564,0.01092,-0.0015
-0.31676,0.9477,-0.03905,-0.00777,0.01063,-0.00774
-0.31691,0.94764,-0.03928,-0.00339,0.01029,-0.00987
-0.31681,0.94765,-0.03989,0.00067,0.00537,-0.00271
-0.31658,0.94768,-0.04091,0.00456,0.00303,0.0004
-0.31627,0.94775,-0.04185,0.01326,-0.00513,0.0066
-0.31595,0.94782,-0.04248,0.01807,-0.00979,0.01641
-0.31573,0.94789,-0.04272,0.0126,-0.00788,0.01384
-0.31567,0.94792,-0.0425,0.00636,-0.00355,0.00841
-0.31585,0.94788,-0.04188,0.01649,0.00318,0.00734
-0.3163,0.94777,-0.04097,0.01872,0.00271,0.01009
-0.31699,0.94759,-0.03984,0.01141,0.00155,0.00575
-0.31796,0.94732,-0.03854,0.00131,0.00314,-0.01674
-0.31915,0.94697,-0.0373,0.00463,0.00405,-0.01775
-0.32018,0.94667,-0.03613,0.01485,0.01337,-0.01142
-0.321,0.94643,-0.03507,0.01201,0.01712,-0.0066
-0.3217,0.94622,-0.03414,0.01103,0.01633,-0.00602
-0.3224,0.94602,-0.03325,0.00552,0.01281,-0.01387
-0.32312,0.9458,-0.03252,0.00189,0.01471,-0.01752
-0.32371,0.94562,-0.03194,0.0045,0.01552,-0.01485
-0.32403,0.94552,-0.03144,0.00807,0.01221,0.006
-0.32429,0.94545,-0.03105,0.0041,0.00612,0.00672
-0.32473,0.94532,-0.03044,-0.00123,0.00526,0.01101
-0.32528,0.94515,-0.0298,-0.01314,0.00088,0.00274
-0.3258,0.94498,-0.02953,-0.01328,0.0036,-0.00034
-0.32607,0.94488,-0.02955,-0.00906,0.00188,0.0012
-0.32599,0.94491,-0.02973,-0.00323,-0.00303,0.01403
-0.32582,0.94496,-0.02985,-0.00968,-0.00203,0.02102
-0.32581,0.94496,-0.02976,-0.00976,-0.00505,0.01766
-0.32611,0.94487,-0.02952,-0.00362,-0.00485,0.00452
-0.32654,0.94473,-0.02927,-0.00359,0.00162,-0.00172
-0.32703,0.94457,-0.02897,-0.00276,0.00103,0.00358
-0.32773,0.94435,-0.02843,-0.00324,-0.00393,0.01278
-0.32864,0.94405,-0.02774,-0.00227,0.0019,0.00748
-0.3297,0.9437,-0.02703,-0.00136,0.00555,-0.0037
-0.33066,0.94338,-0.02638,-0.00125,0.00401,-0.00311
-0.33145,0.94312,-0.02576,-0.00464,0.00411,0.00128
-0.3321,0.94291,-0.0252,-0.00472,0.00321,0.00313
-0.33256,0.94276,-0.02472,0.00035,0.00965,-0.00306
-0.33276,0.9427,-0.0244,0.00459,0.01346,-0.0033
-0.33271,0.94272,-0.02418,0.00854,0.00903,0.00175
-0.33256,0.94277,-0.02413,0.00186,0.00378,0.00636
-0.33264,0.94275,-0.02412,-0.00136,0.00139,0.00532
-0.33291,0.94265,-0.02396,0.00457,0.00022,0.00076
-0.33316,0.94257,-0.02377,0.00669,0.0127,0.01376
-0.33316,0.94258,-0.02341,0.00666,0.00168,-0.0235
-0.33311,0.94259,-0.02353,0.0141,0.00562,0.00197
-0.33308,0.94261,-0.02339,0.00801,0.00473,0.00333
-0.33317,0.94258,-0.02314,0.00649,0.00851,0.00523
-0.33331,0.94254,-0.02282,0.01517,0.0089,-0.00129
-0.33338,0.94253,-0.02227,0.01071,0.01019,-0.00032
-0.33341,0.94253,-0.02189,-0.00042,0.01754,-0.00138
-0.33348,0.9425,-0.02196,-0.00012,0.01941,0.00012
-0.33342,0.94251,-0.02235,0.00388,0.01858,0.00454
-0.33322,0.94257,-0.02283,0.00413,0.00152,0.01415
-0.33293,0.94267,-0.02319,-8e-05,-0.00242,0.01687
-0.33278,0.94272,-0.02317,-0.00737,-0.01828,-0.05567
-0.33283,0.94269,-0.02365,-0.01005,-0.00624,0.02239
-0.3331,0.94259,-0.02388,-0.0013,-0.00492,0.01193
-0.33357,0.94243,-0.02347,-0.00051,0.00405,0.01145
-0.3344,0.94215,-0.02304,0.00548,0.00902,0.00553
-0.33525,0.94186,-0.02259,0.01179,0.01761,-0.00675
-0.33577,0.94168,-0.02244,0.01418,0.01522,-0.00365
-0.33602,0.94159,-0.02244,0.00913,0.01898,0.03735
-0.33599,0.9416,-0.02238,0.00809,-0.00055,-0.0528
-0.33601,0.94157,-0.02322,0.01416,0.00334,-0.0088
-0.33593,0.9416,-0.02344,0.00828,0.00927,-0.00609
-0.33573,0.94166,-0.02363,0.00757,0.01071,-0.01499
-0.33539,0.94178,-0.02381,0.00268,-0.0096,-0.10241
-0.33479,0.94199,-0.02395,-0.00287,0.01684,0.05377
-0.33434,0.94213,-0.02457,0.00474,-0.01614,-0.0824
-0.33405,0.94221,-0.02554,0.00786,0.00614,-0.00139
-0.33364,0.94235,-0.02579,0.00822,-0.00692,-0.07432
-0.33281,0.94264,-0.02588,0.00334,-0.00145,0.01717
-0.33173,0.94302,-0.02593,-0.00546,-0.00765,-0.00014
-0.33074,0.94335,-0.02628,-0.01008,-0.00144,0.00553
-0.32997,0.9436,-0.02723,-0.00826,0.01291,0.0114
-0.32927,0.94382,-0.02808,0.00262,0.02129,-0.00366
-0.32877,0.94396,-0.02895,0.00498,-0.00528,0.00835
-0.32861,0.94399,-0.02994,0.00482,-0.0053,0.00934
-0.32889,0.94386,-0.03072,0.00172,-0.00911,0.01782
-0.32931,0.94371,-0.03091,-0.006,0.00534,-0.00267
-0.32953,0.94363,-0.03102,-0.00578,0.00542,-0.00256
-0.32942,0.94366,-0.03128,-0.00214,0.01176,0.00843
-0.3292,0.94373,-0.0316,-0.00198,-0.00092,0.01692
-0.3293,0.94368,-0.0319,-0.00899,-0.00605,0.00193
-0.32977,0.94351,-0.03214,0.00105,-0.00378,-0.01373
-0.33027,0.94333,-0.0323,0.01142,0.00865,-0.01388
-0.33038,0.94329,-0.03252,0.01394,0.01683,-0.00966
-0.33015,0.94336,-0.03273,0.00773,0.00868,-0.00108
-0.32986,0.94345,-0.03299,0.0055,0.00848,0.00197
-0.32973,0.94348,-0.03337,0.00502,-0.00031,-0.00745
-0.32966,0.94349,-0.03377,0.01322,0.00605,-0.01631
-0.32941,0.94356,-0.03418,0.021,0.01133,-0.003
-0.32897,0.94371,-0.03433,0.01833,0.00668,0.0079
-0.32835,0.94392,-0.03456,-0.00194,0.00551,0.01213
-0.32777,0.94411,-0.03486,-0.01744,0.00454,-0.00196
-0.32737,0.94424,-0.03512,-0.0169,0.0031,-0.00248
-0.32691,0.94439,-0.03543,-0.01324,-0.00082,0.00143
-0.32638,0.94456,-0.03561,-0.01139,-0.00742,0.01283
-0.32601,0.94468,-0.03591,-0.01211,-0.00491,0.0144
-0.32605,0.94465,-0.03648,0.00235,0.01003,-0.00454
-0.32631,0.94454,-0.03701,0.00829,0.01298,-0.0052
-0.32648,0.94446,-0.03735,0.01684,0.00982,0.0044
-0.32642,0.94448,-0.03748,0.00996,0.00446,0.01357
-0.32628,0.94453,-0.03743,0.00377,0.00435,0.01231
-0.32632,0.94452,-0.0373,0.00341,-0.00339,0.00257
-0.3264,0.9445,-0.03725,0.00724,0.00509,-0.0088
-0.32639,0.9445,-0.03734,0.01317,0.00457,-0.00755
-0.32613,0.94458,-0.03742,0.0107,0.00505,0.00464
-0.32563,0.94475,-0.03757,0.00207,0.01376,0.01206
-0.32509,0.94493,-0.0377,-0.00614,0.01469,0.00625
-0.32469,0.94506,-0.03791,0.00434,0.01348,-0.00459
-0.32438,0.94516,-0.03811,0.01031,0.01177,0.00059
-0.32409,0.94524,-0.03843,0.0155,0.00135,0.01396
-0.32393,0.94528,-0.03883,0.01352,-0.00473,0.01753
-0.32384,0.9453,-0.03913,0.01886,0.00261,0.02275
-0.32348,0.94542,-0.03931,0.01406,0.00463,0.01842
-0.3229,0.94561,-0.03946,0.01324,0.00825,0.01008
-0.32237,0.94578,-0.03957,0.00805,0.00354,0.01026
-0.32212,0.94587,-0.03962,0.00227,-0.00617,0.00703
-0.32213,0.94586,-0.03958,-0.00341,-0.00144,0.00542
-0.3223,0.94581,-0.0396,-0.00364,0.00805,-0.00496
-0.32239,0.94577,-0.03967,0.00068,0.01327,-0.01258
-0.3223,0.9458,-0.03972,0.00098,0.00949,-0.01106
-0.32209,0.94587,-0.03978,-0.00326,0.0019,-0.00156
-0.32188,0.94594,-0.03987,-0.00702,0.00212,-0.00186
-0.3217,0.94599,-0.04001,-0.00758,0.00226,-0.00727
-0.32144,0.94608,-0.04011,-0.0087,0.0073,-0.00918
-0.32101,0.94622,-0.04025,-0.00649,0.00686,-0.00753
-0.32041,0.94641,-0.04049,-0.00371,0.00481,-0.0005
-0.31978,0.94661,-0.04075,-0.00368,-0.00156,0.0035
-0.31916,0.94681,-0.04104,-0.00075,0.00067,0.00063
-0.31855,0.947,-0.04138,0.00266,0.00284,-0.00406
-0.31793,0.9472,-0.04172,0.00414,0.00211,0.00354
-0.31732,0.94738,-0.0421,0.00392,0.00425,0.0064
-0.31676,0.94756,-0.04244,-0.00275,0.00514,0.01088
-0.31626,0.94771,-0.04281,-0.0061,0.0087,0.01552
-0.31569,0.94787,-0.04335,-0.00578,0.0087,0.00911
-0.31499,0.94807,-0.04406,-0.0048,0.00579,0.00815
-0.31425,0.94829,-0.0447,-0.00131,-0.00238,0.01011
-0.31378,0.94842,-0.0451,-0.00196,-0.01245,0.01532
-0.31389,0.94839,-0.04509,-0.0048,-0.01469,0.01414
-0.31481,0.94811,-0.0446,-0.00887,-0.01047,0.00696
-0.31632,0.94763,-0.04404,-0.01018,-9e-05,-0.0142
-0.31797,0.94709,-0.04379,0.01514,0.03187,-0.0102
-0.31942,0.94661,-0.04366,0.01832,0.02164,-0.00397
-0.32054,0.94624,-0.04331,0.01631,0.01341,0.00292
-0.3217,0.94586,-0.04311,0.00534,-0.0009,0.00446
-0.32296,0.94545,-0.04272,0.00151,0.00093,-0.01098
-0.32418,0.94507,-0.04192,0.01023,0.00286,-0.01408
-0.3251,0.94478,-0.0413,0.01429,0.00487,-0.01563
-0.32558,0.94462,-0.04103,0.01857,0.01323,-0.00807
-0.32576,0.94457,-0.04084,0.02101,0.01161,-0.00694
-0.32597,0.9445,-0.04068,0.01559,0.01286,-0.00578
-0.32636,0.94437,-0.0406,0.02021,0.01661,-0.01386
-0.32669,0.94426,-0.04053,0.02616,0.01353,-0.01588
-0.32671,0.94425,-0.04052,0.01809,0.01018,-0.01342
-0.32638,0.94437,-0.04048,0.00715,0.00175,-0.01003
-0.32598,0.94452,-0.04032,0.00205,0.00542,-0.01011
-0.32566,0.94462,-0.04036,0.00239,0.0074,-0.01241
-0.32524,0.94475,-0.04068,0.00778,0.01508,-0.01146
-0.32458,0.94496,-0.04121,0.01369,0.01688,-0.00049
-0.32368,0.94524,-0.04176,0.00926,0.00776,0.00943
-0.32274,0.94555,-0.04214,-0.00545,0.00735,0.01153
-0.32197,0.9458,-0.04244,-0.01277,0.00371,0.00385
-0.32145,0.94596,-0.04279,-0.00945,0.00303,-0.00059
-0.32103,0.94608,-0.0433,-0.00559,-0.00203,0.00148
-0.32054,0.94621,-0.04402,-0.00931,0.00345,0.01294
-0.32012,0.94632,-0.04481,-0.01736,-0.00297,0.0162
-0.31987,0.94637,-0.04547,-0.01394,-0.00728,0.0186
-0.31986,0.94635,-0.04602,-0.00298,0.00486,0.01625
-0.31997,0.94629,-0.04645,-0.00307,0.00072,0.01511
-0.32008,0.94623,-0.0468,-0.00093,-0.00219,0.01905
-0.32026,0.94615,-0.04713,-0.0055,-0.00748,0.01794
-0.32053,0.94606,-0.04725,-0.00432,-0.01198,0.01963
-0.32088,0.94595,-0.04708,-0.0045,-0.00605,0.01485
-0.32127,0.94583,-0.04676,-0.00641,-0.00278,0.00964
-0.32167,0.94571,-0.04652,-0.00539,0.00281,0.0048
-0.32211,0.94556,-0.04641,-0.00298,0.0036,0.00115
-0.32264,0.94539,-0.04622,0.00044,0.00235,-0.00196
-0.32317,0.94523,-0.04591,0.00612,0.00167,-0.0009
-0.32365,0.94508,-0.04549,0.00327,0.00047,0.00311
-0.32403,0.94498,-0.04491,-0.00111,-0.00298,-0.00264
-0.32433,0.94491,-0.04421,-0.00168,-0.00211,-0.00213
-0.32466,0.94483,-0.04361,-0.00217,0.0047,-0.0071
-0.32499,0.94473,-0.04326,-0.00362,0.00898,-0.01056
-0.32523,0.94465,-0.04318,-0.00138,0.01324,-0.00945
-0.32522,0.94465,-0.04321,0.0069,0.01658,-0.00818
-0.3248,0.9448,-0.04321,0.01401,0.0124,-0.0012
-0.32409,0.94504,-0.04326,0.01058,0.00817,0.00112
-0.32335,0.94528,-0.0434,-0.00087,0.00509,0.00037
-0.32274,0.94549,-0.04344,-0.00142,0.00526,-0.00596
-0.32219,0.94567,-0.04355,0.00577,0.00664,-0.0056
-0.32156,0.94588,-0.04376,0.00494,0.00706,-0.00263
-0.32084,0.94611,-0.04404,0.00372,0.00456,0.00351
-0.32017,0.94632,-0.0443,-0.00271,0.00044,0.01034
-0.31971,0.94647,-0.04457,-0.00274,0.00123,-0.00013
-0.31935,0.94657,-0.04495,0.00109,0.01341,-0.00916
-0.31879,0.94674,-0.0454,0.00536,0.01363,-0.00553
-0.31799,0.94699,-0.04585,0.00979,0.0073,0.01456
-0.31707,0.94727,-0.04631,-0.00021,0.00512,0.02093
-0.31626,0.94752,-0.04668,-0.00319,0.00497,0.01905
-0.31571,0.94769,-0.04708,-0.00651,-0.00285,-0.00016
-0.31533,0.9478,-0.04743,-0.00016,-0.00136,-0.00436
-0.31498,0.9479,-0.04766,0.00858,0.01014,0.01302
-0.31464,0.948,-0.04792,0.00611,0.00784,0.02334
-0.31444,0.94805,-0.04819,-0.00102,-0.00071,0.02596
-0.31449,0.94802,-0.0485,-0.00502,-0.00831,0.00636
-0.31461,0.94798,-0.04853,0.00644,-0.01143,-0.01145
-0.31469,0.94799,-0.04787,0.00133,-0.00428,-0.00903
-0.31503,0.9479,-0.04734,0.00195,0.00048,-0.00971
-0.3157,0.9477,-0.04693,0.00245,0.00709,-0.00804
-0.31641,0.94748,-0.04653,0.00119,0.01738,-0.0155
-0.3168,0.94737,-0.04609,0.00443,0.02162,-0.02181
-0.31672,0.94741,-0.04577,0.00506,0.01594,-0.01404
-0.31629,0.94755,-0.04591,-0.00701,-0.00227,-0.00178
-0.31585,0.94768,-0.04634,-0.01301,-0.00332,0.00229
-0.3156,0.94773,-0.0469,-0.00708,0.00078,0.00083
-0.31536,0.94778,-0.04752,0.00624,0.00579,-0.00421
-0.31487,0.94791,-0.04825,0.01676,0.01509,-0.00681
-0.31422,0.9481,-0.04876,0.01916,0.01362,-0.00243
-0.3136,0.94829,-0.04899,0.01693,0.00177,0.01329
-0.3132,0.94841,-0.04924,0.00396,0.00122,0.02019
-0.31316,0.94842,-0.04938,-0.01257,-0.00654,0.01589
-0.31322,0.94839,-0.04941,-0.00849,-0.00129,0.00016
-0.31317,0.94841,-0.04943,-0.00035,9e-05,0.00024
-0.31313,0.94842,-0.04951,0.0022,-0.0068,0.0117
-0.31335,0.94835,-0.0494,0.0042,0.00018,0.01043
-0.31401,0.94816,-0.04888,0.01055,0.00228,0.00419
-0.31503,0.94787,-0.04801,0.01552,0.00878,-0.01034
-0.31621,0.94751,-0.0473,0.01524,0.01875,-0.01931
-0.31736,0.94714,-0.04691,0.01513,0.01871,-0.0153
-0.31816,0.94689,-0.04657,0.01973,0.01055,-0.01193
-0.31856,0.94678,-0.04611,0.01251,0.00309,-0.01169
-0.3189,0.9467,-0.04555,0.00782,0.00169,-0.01413
-0.3192,0.94661,-0.04528,0.01122,0.0078,-0.02218
-0.31935,0.94655,-0.04534,0.01518,0.01896,-0.02206
-0.31909,0.94663,-0.04555,0.01467,0.01713,-0.01486
-0.3185,0.94682,-0.04572,0.00545,0.00772,-0.00844
-0.31787,0.94703,-0.04573,0.00188,0.003,-0.00763
-0.31731,0.94721,-0.04598,0.00036,0.0092,-0.01199
-0.31664,0.94741,-0.04643,0.00198,0.01953,-0.01619
-0.31573,0.94768,-0.04704,0.00305,0.01806,-0.01201
-0.31471,0.94799,-0.04763,-0.00184,-0.0008,0.01844
-0.31389,0.94824,-0.04804,-0.01357,-0.01264,0.02128
-0.31369,0.94831,-0.04809,-0.01212,-0.01693,0.00857
-0.314,0.94821,-0.04792,-0.00806,-0.01277,0.00251
-0.31445,0.94809,-0.04746,0.0016,0.00066,0.00766
-0.3148,0.948,-0.04689,-0.0013,-0.00275,0.02325
-0.31514,0.94791,-0.04644,-0.00567,-0.00314,0.0259
-0.3156,0.94777,-0.04613,-0.01887,0.00238,0.00898
-0.3161,0.94761,-0.04591,-0.00381,0.00638,0.00062
-0.31653,0.94748,-0.04567,-0.00034,0.00744,-0.00087
-0.31684,0.9474,-0.04526,0.01178,-0.0025,0.0105
-0.31719,0.9473,-0.04478,0.00016,-0.005,0.00552
-0.31764,0.94718,-0.0443,-0.00116,0.00241,-0.00141
-0.31814,0.94703,-0.04386,-0.00376,0.02041,-0.00816
-0.31842,0.94695,-0.04362,-0.00355,0.01448,-0.00319
-0.31829,0.94699,-0.04358,-0.00579,0.0101,0.00289
-0.31809,0.94705,-0.04381,-0.01291,0.00213,0.00955
-0.31809,0.94703,-0.04414,-0.01368,-0.001,-0.00088
-0.31815,0.947,-0.04447,-0.0025,0.00311,-0.01656
-0.31809,0.947,-0.04473,0.00841,0.00426,-0.00729
-0.31782,0.94709,-0.04484,0.00808,-0.00254,0.0101
-0.3175,0.9472,-0.04489,-0.00377,-0.0024,0.0126
-0.31728,0.94727,-0.0449,-0.0108,-0.00157,-0.001
-0.31714,0.94731,-0.04503,-0.00729,0.00458,-0.00731
-0.31695,0.94736,-0.04531,-0.00869,0.00935,-0.01303
-0.31678,0.9474,-0.04566,0.00272,0.00478,-0.00244
-0.31674,0.9474,-0.04587,-0.00148,-0.00836,0.01458
-0.31709,0.94728,-0.04594,-0.0041,-0.00425,0.00956
-0.31783,0.94704,-0.04571,-0.00073,0.00018,-0.00842
-0.31872,0.94676,-0.04547,0.00435,0.00992,-0.02222
-0.31937,0.94655,-0.04524,0.01188,0.01399,-0.01717
-0.31977,0.94643,-0.04487,0.01296,0.0066,-0.0066
-0.32014,0.94632,-0.04456,0.00575,0.00455,-0.00118
-0.32051,0.9462,-0.04442,-0.00144,0.00781,-0.0063
-0.32067,0.94615,-0.04451,0.0089,0.01221,-0.02081
-0.32056,0.94617,-0.04484,0.0109,0.01219,-0.01792
-0.32021,0.94626,-0.0453,0.00774,0.00657,-0.01201
-0.31989,0.94635,-0.04582,0.00305,0.00478,-0.00025
-0.31967,0.9464,-0.04621,-0.0007,0.00186,0.00168
-0.31941,0.94647,-0.04658,0.00553,0.00769,-0.00721
-0.31891,0.94662,-0.04695,0.00673,0.01122,-0.00449
-0.31814,0.94686,-0.04738,0.00935,0.00762,0.00553
-0.31732,0.94712,-0.04769,0.00241,-0.001,0.0074
-0.3168,0.94727,-0.04804,-0.00151,-0.00955,0.00384
-0.31667,0.9473,-0.04845,-0.00203,-0.00749,-0.00506
-0.31682,0.94723,-0.04877,0.00339,0.00126,-0.00868
-0.31695,0.94718,-0.04888,0.00616,0.00668,-0.00396
-0.31692,0.9472,-0.04868,0.01066,0.006,0.00119
-0.31682,0.94725,-0.04835,0.00394,0.00889,0.00239
-0.3168,0.94727,-0.04812,0.00628,0.00463,-0.00251
-0.31669,0.94732,-0.04796,0.01088,0.00445,-0.0116
-0.31634,0.94744,-0.04788,0.01289,0.00645,-0.01306
-0.31557,0.9477,-0.04786,0.00977,0.00867,-0.01276
-0.31455,0.94803,-0.04789,0.01049,0.01268,-0.00715
-0.31344,0.9484,-0.04791,0.01038,0.0103,-0.00166
-0.31253,0.9487,-0.04784,0.01175,0.01356,-0.00085
-0.31195,0.9489,-0.04778,0.00752,0.01113,0.00065
-0.3116,0.94901,-0.04783,0.00653,0.00782,0.00046
-0.31137,0.94907,-0.04804,-0.00145,0.00066,0.00519
-0.31137,0.94906,-0.04824,-0.01713,-0.01007,0.00534
-0.3118,0.94893,-0.04806,-0.01557,-0.00872,0.00249
-0.31237,0.94877,-0.04748,-0.00299,-0.00264,0.00213
-0.31268,0.94871,-0.04675,0.00439,0.00509,0.00176
-0.31281,0.94869,-0.04617,-0.00492,0.01031,0.00041
-0.31301,0.94865,-0.04565,-0.01656,0.0029,0.00114
-0.31346,0.94852,-0.04523,-0.00744,-0.00039,-0.00127
-0.31406,0.94833,-0.04509,0.00284,0.00782,-0.00683
-0.31441,0.94822,-0.04503,0.01627,0.01136,-0.01301
-0.31433,0.94825,-0.0449,0.01087,0.00858,-0.00452
-0.31405,0.94835,-0.04476,0.00363,0.00273,0.00159
-0.314,0.94837,-0.04464,-0.01309,-0.00183,-0.00269
-0.31418,0.94832,-0.04453,0.00418,-0.00154,-0.01931
-0.31428,0.94829,-0.04448,0.01368,0.00063,-0.01505
-0.31401,0.94838,-0.04439,0.02307,0.00517,-0.00361
-0.31354,0.94854,-0.04423,0.01087,0.00927,0.00202
-0.31326,0.94865,-0.04403,0.00145,0.0122,-0.00377
-0.31339,0.94861,-0.04381,0.00091,0.0046,-0.00637
-0.31374,0.9485,-0.04369,0.00512,0.00308,-0.00875
-0.31403,0.94841,-0.04357,0.00759,0.0083,-0.01013
-0.3141,0.9484,-0.04332,0.01057,0.00456,0.0034
-0.31401,0.94845,-0.04298,0.00766,0.00361,-0.00041
-0.31391,0.9485,-0.0426,0.0051,0.00138,-0.00348
-0.31384,0.94854,-0.04223,0.00175,0.00515,-0.02671
-0.31377,0.94857,-0.04196,0.00342,0.00814,-0.03067
-0.31347,0.94867,-0.04191,0.01198,0.01374,-0.02452
-0.31293,0.94884,-0.04207,0.02048,0.00983,-0.01731
-0.31224,0.94906,-0.04223,0.0181,0.01541,-0.0194
-0.31156,0.94928,-0.04236,0.01221,0.02511,-0.01338
-0.31098,0.94946,-0.04264,0.00964,0.0046,0.00178
-0.31057,0.94955,-0.04361,0.00731,-0.00293,0.01042
-0.31041,0.94953,-0.04513,0.00348,-0.00326,0.01727
-0.31035,0.94951,-0.04595,0.01644,-0.01328,0.02741
-0.31031,0.94954,-0.04562,0.01448,-0.00818,0.02534
-0.31054,0.94951,-0.04454,0.01169,-0.00443,0.01508
-0.31133,0.94932,-0.04309,0.01951,0.00591,-0.01123
-0.31241,0.94902,-0.0419,0.02022,0.01052,-0.01983
-0.31314,0.94882,-0.04093,0.01257,0.01919,-0.02297
-0.31339,0.94878,-0.04013,-0.00773,0.0193,-0.029
-0.31323,0.94885,-0.03966,-0.01698,0.008,-0.03409
-0.31268,0.94903,-0.0396,-0.01451,0.00287,-0.0401
-0.31186,0.94929,-0.03988,0.00133,0.01326,-0.02344
-0.31114,0.94951,-0.0404,0.00848,0.0174,-0.01385
-0.31089,0.94955,-0.04117,0.00984,0.01749,-0.0076
-0.31111,0.94945,-0.04197,0.00631,0.01244,0.01652
-0.31137,0.94932,-0.04287,0.0066,-0.00837,0.02516
-0.3115,0.94924,-0.04373,0.01027,-0.01729,0.02093
-0.31137,0.94927,-0.04392,0.00651,-0.01802,0.01303
-0.31126,0.94934,-0.04338,-0.00074,-0.01072,0.00916
-0.31152,0.94929,-0.04247,-0.0058,-0.00454,0.00409
-0.31229,0.94908,-0.04148,-0.00502,0.00534,-0.01176
-0.31326,0.9488,-0.04067,-0.00207,0.01007,-0.02357
-0.314,0.94858,-0.03992,-0.00508,0.01099,-0.0224
-0.3143,0.94851,-0.03923,-0.01546,0.01043,-0.01475
-0.31428,0.94854,-0.03881,-0.03044,0.00054,-0.01087
-0.31409,0.9486,-0.03882,-0.03473,-0.00243,-0.02093
-0.31384,0.94867,-0.0391,-0.02836,0.00014,-0.02061
-0.31353,0.94875,-0.0396,0.00181,-0.00054,-0.00061
-0.31302,0.9489,-0.04014,0.0013,-0.00068,-7e-05
-0.31256,0.94903,-0.04056,0.00806,0.00077,0.00459
-0.31237,0.94909,-0.04068,0.01358,0.00416,0.00611
-0.31263,0.94901,-0.04048,0.01741,0.00519,0.00508
-0.31318,0.94885,-0.04005,0.02874,0.00984,0.00581
-0.31373,0.9487,-0.0394,0.0279,0.01029,0.00972
-0.3142,0.94856,-0.0389,0.02407,0.01079,0.00469
-0.31457,0.94845,-0.03853,0.01499,0.00605,-0.01379
-0.31485,0.94836,-0.03837,0.02221,-0.00139,-0.01436
-0.31481,0.94839,-0.03815,0.02547,0.00634,-0.02621
-0.31446,0.94851,-0.03798,0.02041,0.01604,-0.02168
-0.31397,0.94866,-0.03813,0.01028,0.01713,-0.01473
-0.31347,0.94882,-0.03849,0.00505,0.01507,-0.0077
-0.31301,0.94895,-0.03907,0.00139,0.00789,-0.0073
-0.31257,0.94906,-0.03971,0.00985,-0.00343,-0.00964
-0.31221,0.94916,-0.04021,0.01269,-0.0019,-0.00746
-0.31196,0.94924,-0.04039,0.01281,0.00134,0.00447
-0.31202,0.94922,-0.04027,0.00559,-0.00107,0.00297
-0.31247,0.94908,-0.03999,0.00179,-0.00138,-0.00194
-0.3132,0.94886,-0.03961,0.00512,-0.00405,-0.0163
-0.31388,0.94865,-0.03915,0.00812,0.01253,-0.01842
-0.31429,0.94853,-0.03883,0.01574,0.01514,-0.01738
-0.31435,0.94852,-0.03852,0.01694,0.00996,-0.01646
-0.31423,0.94858,-0.03817,0.007,0.00229,-0.00123
-0.31395,0.94869,-0.03775,-0.00441,0.00668,-0.0211
-0.3137,0.94878,-0.03761,-0.00721,0.00438,-0.01169
-0.31353,0.94884,-0.03756,-0.00283,0.00554,-0.0145
-0.31352,0.94884,-0.0375,0.01064,0.01327,-0.02086
-0.31367,0.94878,-0.03764,0.0331,0.00767,-0.01218
-0.31378,0.94874,-0.03772,0.03369,0.01065,-0.01129
-0.31405,0.94866,-0.03762,0.03013,0.01309,-0.01304
-0.31438,0.94857,-0.03722,0.03479,0.0079,-0.01731
-0.31459,0.94852,-0.03674,0.03575,0.01039,-0.01911
-0.31452,0.94855,-0.03635,0.03561,0.01357,-0.01535
-0.31427,0.94865,-0.03586,0.03395,0.00812,-0.00863
-0.31402,0.94876,-0.03536,0.02378,0.00716,-0.00567
-0.31381,0.94884,-0.03492,0.01991,0.00909,-0.01067
-0.31368,0.9489,-0.03444,0.01087,0.00732,-0.01516
-0.31358,0.94895,-0.03393,0.01497,0.00422,-0.01127
-0.31349,0.949,-0.03346,0.01863,0.0068,-0.00596
-0.31331,0.94908,-0.03293,0.00537,0.00511,0.00524
-0.31308,0.94918,-0.03229,-0.01432,0.00219,0.00471
-0.31288,0.94926,-0.03169,-0.03386,-0.00325,-0.00174
-0.31278,0.94931,-0.03114,-0.03488,-0.00331,-0.00464
-0.31267,0.94936,-0.03078,-0.03276,-0.00246,0.00148
-0.31242,0.94945,-0.03065,-0.03511,-0.00504,0.01543
-0.31192,0.94961,-0.03071,-0.04869,-0.00508,0.02759
-0.31134,0.9498,-0.03076,-0.05387,-0.0108,0.03276
-0.31087,0.94995,-0.03084,-0.06235,-0.02388,0.02424
-0.31046,0.95008,-0.03105,-0.06139,-0.01613,0.00659
-0.31006,0.9502,-0.03119,-0.06874,-0.02322,-0.00287
-0.30952,0.95038,-0.03121,-0.02586,0.01193,0.00521
-0.30926,0.95046,-0.03131,-0.04174,0.00207,-0.00231
-0.30923,0.95048,-0.03111,-0.03128,0.00129,-0.01436
-0.30917,0.95051,-0.03079,-0.02538,0.0006,-0.01729
-0.30849,0.95073,-0.03063,-0.03211,-0.0046,-0.01875
-0.30734,0.9511,-0.03071,-0.02851,-0.00774,-0.01214
-0.306,0.95153,-0.03088,-0.02576,0.00338,-0.01105
-0.30505,0.95183,-0.03118,-0.01023,0.00342,-0.00822
-0.30448,0.952,-0.0315,-0.0021,-0.00621,-0.0007
-0.30435,0.95203,-0.0317,0.01033,-0.00896,0.01124
-0.30492,0.95183,-0.03227,0.03385,-0.01053,0.00545
-0.30674,0.95124,-0.03228,0.07168,0.03353,-0.01411
-0.31028,0.95014,-0.03084,0.08741,0.03638,-0.0261
-0.31401,0.94897,-0.02914,0.1189,0.03765,0.0099
-0.31528,0.94854,-0.02945,0.03228,0.02275,0.08095
-0.31495,0.94868,-0.0285,-0.01391,0.01067,-0.03222
-0.31613,0.94851,-0.01952,-0.01948,0.00922,-0.05154
-0.31913,0.94758,-0.01553,-0.01552,-0.05558,-0.0171
-0.32182,0.94665,-0.01651,0.11884,-0.03462,-0.24598
-0.32316,0.94616,-0.01832,0.12281,0.03327,-0.12144
-0.32341,0.94603,-0.02084,0.09626,0.08879,0.03306
-0.32241,0.94638,-0.02027,0.03208,0.04454,0.11342
-0.32069,0.94697,-0.02014,0.05459,0.06466,0.05954
-0.31987,0.94719,-0.02242,0.01045,0.02977,-0.0737
-0.3194,0.94735,-0.02274,0.00774,0.00468,-0.07601
-0.31905,0.94748,-0.02181,-0.0027,-0.00116,-0.00135
-0.31885,0.94754,-0.02237,-0.01811,-0.00216,0.01818
-0.3189,0.9475,-0.02339,-0.01241,-0.0033,-0.00195
-0.31894,0.94746,-0.02413,0.00441,0.00046,-0.02192
-0.31849,0.9476,-0.02466,0.0053,0.00497,-0.0126
-0.3175,0.94792,-0.02507,-0.01266,0.00764,-0.00098
-0.31633,0.94829,-0.02585,-0.03501,0.01858,-0.00438
-0.31507,0.94868,-0.02701,-0.03131,0.02991,0.00212
-0.31319,0.94927,-0.02812,-0.03442,0.04824,0.00734
-0.31091,0.94998,-0.02927,-0.01997,-0.05663,-0.00094
-0.30839,0.95076,-0.03069,-0.02007,-0.08618,0.00066
-0.30645,0.95136,-0.0316,-0.02538,-0.07322,0.00534
-0.30599,0.95151,-0.03142,-0.02458,-0.02668,0.01227
-0.3072,0.95113,-0.03129,-0.01372,0.01256,0.00314
-0.30922,0.95047,-0.03135,0.01336,0.07414,-0.0369
-0.31033,0.95015,-0.03015,0.03681,0.01616,-0.06275
-0.30907,0.95063,-0.02784,0.03313,0.01551,-0.02617
-0.30748,0.95117,-0.02702,0.01559,0.0022,-0.00138
-0.30581,0.9517,-0.0273,-0.02253,-0.0066,-0.00894
-0.30435,0.95215,-0.02778,-0.03078,-0.01618,-0.00849
-0.3038,0.95229,-0.02913,0.00495,-0.0063,0.00115
-0.30427,0.95206,-0.03152,0.02983,0.00949,0.00674
-0.30528,0.95168,-0.03332,0.03061,0.01431,0.00578
-0.30647,0.95128,-0.03361,0.018,0.00682,-0.00351
-0.30752,0.95096,-0.03314,0.01388,0.00627,0.00848
-0.30811,0.95079,-0.03264,0.00881,0.03044,0.00472
-0.30804,0.95081,-0.03263,-0.00477,0.01458,0.00077
-0.30761,0.95092,-0.0334,-0.01551,-0.01377,0.00032
-0.30731,0.95097,-0.03477,-0.00772,-0.02209,0.01178
-0.30762,0.95083,-0.03601,-0.00165,-0.01839,0.01341
-0.30883,0.95041,-0.03667,0.00959,-0.01039,0.00774
-0.31095,0.94971,-0.03687,0.01315,0.00159,-0.00566
-0.3136,0.94884,-0.03674,0.01696,0.0231,-0.01142
-0.31564,0.94819,-0.03606,0.02537,0.05234,-0.00332
-0.3158,0.94817,-0.03512,0.00499,0.04417,-9e-05
-0.31469,0.94853,-0.03533,-0.01979,-0.00601,-0.00371
-0.31333,0.94891,-0.03721,-0.03028,-0.03688,-0.00449
-0.31337,0.9488,-0.03951,-0.02354,-0.02082,0.00313
-0.31548,0.94805,-0.04085,0.00022,-8e-05,-0.00122
-0.31911,0.94682,-0.04121,0.01616,0.00786,-0.0039
-0.32315,0.94545,-0.04104,0.05336,0.0105,-0.00716
-0.32653,0.94431,-0.04059,0.06678,-0.001,-0.01048
-0.32854,0.94365,-0.03981,0.06347,-0.00642,-0.01665
-0.3297,0.94328,-0.03896,0.02247,-0.01107,-0.03274
-0.33044,0.94304,-0.03837,0.00192,0.00358,-3e-05
-0.33092,0.94289,-0.03786,-0.0054,0.03406,-0.01773
-0.33179,0.94263,-0.03696,0.01845,0.04093,-0.04488
-0.33334,0.94207,-0.03726,0.02778,0.02783,-0.01734
-0.33506,0.94145,-0.03729,0.0258,0.04375,-0.04398
-0.33636,0.94102,-0.0365,0.0464,0.03925,-0.05565
-0.33618,0.94108,-0.03673,0.07396,0.02206,-0.06139
-0.33443,0.94165,-0.03803,0.07633,0.02362,-0.05637
-0.33164,0.94258,-0.03943,0.02343,0.01406,0.01286
-0.3288,0.94358,-0.03926,-0.0254,-0.02024,-0.0501
-0.32703,0.94414,-0.04069,-0.01567,0.00103,0.01152
-0.32634,0.9443,-0.04236,-0.03772,0.01384,-0.01149
-0.32597,0.94434,-0.04432,-0.01389,0.02801,-0.02354
-0.32564,0.94433,-0.0469,0.02103,0.00758,-0.01746
-0.32511,0.94441,-0.04893,0.02514,-0.00524,-0.00073
-0.32464,0.94447,-0.05069,0.0191,-0.03435,-0.01691
-0.32468,0.9444,-0.05173,0.04812,-0.02501,-0.01726
-0.32513,0.94423,-0.05203,0.0522,-0.02873,-0.02495
-0.3256,0.9441,-0.05151,0.04837,-0.00594,-0.03141
-0.32613,0.94397,-0.05058,0.05304,0.01299,-0.03371
-0.32657,0.94387,-0.04959,0.04906,0.0215,-0.03928
-0.3267,0.94387,-0.0487,0.04578,0.02335,-0.03709
-0.32619,0.94408,-0.04801,0.06339,0.0455,-0.01562
-0.32544,0.94433,-0.04816,0.05974,0.06781,-0.01386
-0.32457,0.94459,-0.04888,0.01173,0.036,-0.02299
-0.32352,0.9449,-0.04982,0.00298,0.03746,-0.01001
-0.32274,0.94512,-0.05078,0.00692,0.01338,0.00035
-0.32231,0.94522,-0.05163,0.01202,-0.00104,-0.00064
-0.32209,0.94527,-0.05204,0.01219,-0.02645,-0.01001
-0.3218,0.9454,-0.05158,0.01241,-0.01846,-0.00889
-0.3212,0.94567,-0.0503,0.00783,-0.00431,-0.00988
-0.32026,0.94606,-0.04889,-0.01076,0.02251,-0.0008
-0.31916,0.94647,-0.04814,-0.02293,0.02301,-0.00278
-0.31826,0.94677,-0.04825,-0.04507,0.01349,-0.00421
-0.31777,0.9469,-0.04903,-0.02574,-0.00718,-0.0049
-0.31766,0.94687,-0.05017,-0.01588,-0.00344,-0.00843
-0.31778,0.94678,-0.05115,0.00452,5e-05,-0.01683
-0.31789,0.94673,-0.05137,0.01758,0.00148,-0.00507
-0.31785,0.94678,-0.05065,0.01947,0.00361,-0.00272
-0.31777,0.94688,-0.04939,0.01334,0.00416,-0.01788
-0.31763,0.947,-0.04791,0.00782,0.00805,-0.0329
-0.31742,0.94715,-0.04631,0.01268,0.0108,-0.01773
-0.31692,0.94741,-0.04434,0.01678,0.00242,0.00092
-0.31609,0.9478,-0.04197,0.00166,-0.00221,0.01272
-0.31503,0.94824,-0.03983,-0.01543,-0.0079,0.00615
-0.31384,0.94869,-0.03854,-0.02556,0.00358,-0.00638
-0.31275,0.94908,-0.03788,-0.00833,1e-05,-0.00161
-0.31166,0.94945,-0.03743,0.01001,0.01573,0.00945
-0.31031,0.94992,-0.03685,0.02689,0.00751,0.02306
-0.30853,0.95051,-0.03659,0.01284,0.01461,0.01302
-0.3066,0.95113,-0.03668,0.01168,0.02093,0.00457
-0.30455,0.95178,-0.0369,0.00951,0.01855,0.0075
-0.30238,0.95245,-0.03727,0.01842,0.01291,0.01475
-0.30021,0.95314,-0.03728,0.03554,-0.00185,0.032
-0.29835,0.95374,-0.03677,0.04028,-0.0073,0.02519
-0.29724,0.95411,-0.0363,0.03401,-0.00745,0.00734
-0.29711,0.95415,-0.03633,0.01252,0.01749,-0.01598
-0.2977,0.95396,-0.03632,0.00849,0.01688,-0.01528
-0.2983,0.95378,-0.03603,0.011,0.01518,-0.00544
-0.29836,0.95377,-0.03584,-0.01205,0.00645,0.00493
-0.2981,0.95385,-0.03602,-0.03198,0.00311,-0.00581
-0.29798,0.95387,-0.03633,-0.02762,-0.00972,-0.00062
-0.2982,0.95379,-0.03674,-0.01104,-0.01094,0.01415
-0.29873,0.95361,-0.03711,-0.00675,-0.01127,0.02264
-0.29953,0.95335,-0.03735,-0.00324,-0.00631,0.02078
-0.30053,0.95303,-0.03745,-0.00724,0.00119,0.01
-0.30184,0.95262,-0.0374,-0.01106,0.01077,-0.00249
-0.30336,0.95215,-0.03712,-0.0067,0.01666,-0.00335
-0.30479,0.9517,-0.03674,0.00449,0.00871,-0.00098
-0.30599,0.95134,-0.03625,0.00959,0.0009,-0.00774
-0.30722,0.95096,-0.03584,0.01214,-0.00169,-0.01642
-0.3086,0.95052,-0.03546,0.01595,0.00172,-0.01645
-0.31007,0.95006,-0.03517,0.01947,0.00519,-0.01461
-0.31154,0.94958,-0.03496,0.01985,0.00667,-0.01606
-0.31299,0.94911,-0.03495,0.02082,0.00878,-0.01682
-0.3143,0.94867,-0.03518,0.01561,0.01432,-0.02039
-0.31547,0.94826,-0.03553,0.02067,0.00178,-0.01574
-0.31652,0.9479,-0.03588,0.0268,0.00087,-0.01322
-0.31748,0.94757,-0.0361,0.02112,0.00239,-0.00969
-0.31852,0.94722,-0.03616,0.0106,0.00676,-0.0176
-0.31981,0.94679,-0.0361,0.01557,0.00566,-0.02064
-0.32118,0.94633,-0.03591,0.02562,0.004,-0.02265
-0.32229,0.94597,-0.03551,0.03543,0.01823,-0.02825
-0.32293,0.94577,-0.03506,0.0282,0.02428,-0.03254
-0.3233,0.94565,-0.03498,0.01245,0.02657,-0.0338
-0.32348,0.94558,-0.03512,0.01853,0.00869,-0.02852
-0.32344,0.9456,-0.03499,0.02588,0.00725,-0.03159
-0.32309,0.94572,-0.03478,0.03282,0.01323,-0.04298
-0.32255,0.94591,-0.03488,0.02413,0.02002,-0.03478
-0.32185,0.94613,-0.03531,0.0206,0.0202,-0.02346
-0.32108,0.94637,-0.03589,0.02297,0.01852,-0.01629
-0.32022,0.94663,-0.03654,0.02643,0.01711,-0.02193
-0.31901,0.94701,-0.03726,0.02057,0.01525,-0.02834
-0.31746,0.9475,-0.03804,0.01102,0.0055,-0.01502
-0.31581,0.94803,-0.03878,0.00691,-0.00058,-0.006
-0.31427,0.94852,-0.03927,0.00558,-0.01154,0.00498
-0.31307,0.94891,-0.03946,-0.00627,-0.00411,-0.01201
-0.31231,0.94915,-0.0397,-0.00613,-0.00068,-0.02028
-0.31194,0.94925,-0.04002,0.00669,0.00131,0.00037
-0.31163,0.94935,-0.04008,0.00849,0.00476,0.01256
-0.31129,0.94948,-0.03986,8e-05,-0.00114,-0.00387
-0.31107,0.94956,-0.03951,-0.00514,-0.00062,-0.02022
-0.31121,0.94953,-0.03919,0.00033,-0.00179,-0.01321
-0.31152,0.94945,-0.03878,0.01044,-0.003,0.00603
-0.3117,0.94941,-0.03826,-0.00752,0.00299,-0.00117
-0.31198,0.94934,-0.03764,-0.01069,0.00629,-0.00888
-0.31259,0.94917,-0.03697,-0.00748,0.0069,-0.01188
-0.31348,0.9489,-0.03634,0.0044,0.00292,-0.0123
-0.31443,0.9486,-0.03575,0.01592,0.0047,-0.0049
-0.31528,0.94835,-0.03503,0.02078,0.00845,-0.00393
-0.31596,0.94815,-0.03419,0.01251,0.0081,-0.00733
-0.3165,0.948,-0.03331,0.00894,0.00727,-0.00967
-0.31691,0.94789,-0.03261,0.00893,0.00853,-0.01361
-0.31719,0.94781,-0.03224,0.01113,0.0129,-0.01536
-0.31726,0.94779,-0.03217,0.01275,0.01544,-0.01022
-0.31715,0.94782,-0.03227,0.01016,0.00948,-0.00655
-0.31693,0.94789,-0.0324,0.01189,0.0083,-0.0111
-0.31663,0.94799,-0.0325,0.01725,0.00701,-0.01354
-0.31629,0.9481,-0.03251,0.02132,0.00408,-0.00615
-0.31595,0.94822,-0.03236,0.0187,0.00246,-0.00386
-0.31578,0.94829,-0.03207,0.00501,0.00034,-0.0022
-0.31589,0.94826,-0.03172,0.00194,0.00499,-0.01079
-0.31626,0.94815,-0.03141,9e-05,0.00803,-0.01493
-0.31655,0.94806,-0.03114,-0.00394,0.01286,-0.0048
-0.31671,0.94801,-0.03095,-0.00541,0.00618,-0.00545
-0.31683,0.94798,-0.0307,-0.00675,-0.00168,-0.00509
-0.3172,0.94788,-0.03016,0.00731,0.0013,-0.0143
-0.31779,0.94769,-0.02965,0.01611,0.00525,-0.01368
-0.31824,0.94755,-0.02929,0.03253,0.01395,-0.01187
-0.31828,0.94755,-0.02904,0.02782,0.01687,-0.01255
-0.31805,0.94763,-0.02901,0.01855,0.01507,-0.00244
-0.3177,0.94774,-0.02899,0.02128,0.01289,-0.00605
-0.31726,0.94789,-0.02906,0.01946,0.0203,-0.00694
-0.31662,0.94809,-0.02949,0.01545,0.02054,-0.00698
-0.31581,0.94834,-0.03037,0.01197,0.01744,-0.0037
-0.31495,0.94859,-0.03131,0.00845,-0.00035,0.00141
-0.31429,0.94878,-0.03226,0.01189,-0.00336,-0.01068
-0.31378,0.94892,-0.03302,0.01222,-0.00496,-0.0174
-0.31341,0.94902,-0.03359,0.01348,-0.00498,-0.01609
-0.31323,0.94907,-0.03398,0.00198,-0.0025,-0.00254
-0.31331,0.94903,-0.03418,-0.00815,0.00733,-0.00225
-0.31356,0.94894,-0.03442,-0.0094,0.01522,-0.00379
-0.3138,0.94884,-0.03503,0.00046,0.0164,-0.00628
-0.3138,0.94881,-0.03593,0.0039,0.01123,0.00085
-0.31356,0.94885,-0.03675,0.00454,-0.00632,0.00314
-0.31337,0.9489,-0.03725,-0.00196,-0.00835,0.00098
-0.31349,0.94885,-0.03755,0.00397,-0.00475,-0.00674
-0.31388,0.94871,-0.03773,0.00799,-4e-05,-0.00977
-0.31433,0.94855,-0.03796,0.01961,0.00981,-0.01487
-0.31469,0.94842,-0.03817,0.0231,0.01129,-0.00648
-0.31489,0.94836,-0.03818,0.02145,0.01022,-0.00815
-0.31501,0.94832,-0.03815,0.00917,0.00891,-0.01175
-0.31522,0.94824,-0.03826,0.00553,0.00754,-0.02381
-0.31547,0.94815,-0.03851,0.01067,0.00586,-0.02591
-0.3154,0.94816,-0.03892,0.02107,0.01148,-0.01751
-0.3149,0.9483,-0.03945,0.01783,0.0085,-0.00965
-0.31418,0.94852,-0.04001,0.01387,0.00955,-0.00927
-0.31347,0.94873,-0.04054,0.0089,0.00183,-0.01469
-0.31285,0.94891,-0.041,0.01261,-0.00177,-0.02524
-0.3123,0.94908,-0.04131,0.01898,-0.00287,-0.02807
-0.31152,0.94932,-0.04167,0.02812,0.00392,-0.02631
-0.31054,0.94964,-0.04183,0.04214,0.00976,-0.02064
-0.3092,0.95009,-0.04153,0.03595,0.0058,-0.00514
-0.30773,0.95058,-0.04106,0.02392,0.00947,0.00013
-0.30659,0.95098,-0.04051,0.01049,0.00938,0.00054
-0.30596,0.95121,-0.03974,-0.00323,0.00644,0.00315
-0.30586,0.95128,-0.03893,-0.0085,0.01479,0.00089
-0.30619,0.95119,-0.03845,-0.00799,0.01182,-0.00855
-0.30683,0.95099,-0.03834,0.00231,0.00554,-0.01269
-0.3075,0.95078,-0.03821,0.01679,0.00375,-0.01042
-0.30788,0.95067,-0.03789,0.02491,0.00401,-0.01008
-0.30791,0.95067,-0.03748,0.02494,0.00401,-0.01049
-0.30771,0.95075,-0.03715,0.01569,0.01759,-0.02102
-0.3074,0.95086,-0.03692,0.01074,0.02042,-0.01827
-0.30705,0.95098,-0.03695,0.00872,0.01707,-0.01243
-0.30685,0.95103,-0.03715,0.0081,0.0081,-0.01337
-0.30679,0.95104,-0.03737,0.01259,0.00343,-0.01085
-0.30684,0.95102,-0.03748,0.01169,0.00158,-0.00726
-0.307,0.95097,-0.03743,0.00364,0.00609,-0.00799
-0.30738,0.95085,-0.03736,0.00131,0.00633,-0.01137
-0.30783,0.95071,-0.03737,0.00345,0.00716,-0.01055
-0.30827,0.95056,-0.0374,0.00793,0.00203,-0.01178
-0.3088,0.95039,-0.03746,-0.00044,-0.00215,-0.00991
-0.30957,0.95013,-0.03758,-0.00111,-0.0014,-0.0124
-0.31065,0.94977,-0.03776,0.00715,0.00132,-0.01688
-0.31189,0.94937,-0.0378,0.01252,0.00379,-0.01759
-0.31304,0.94899,-0.03772,0.02124,0.01109,-0.01485
-0.31397,0.94869,-0.03745,0.02193,0.01351,-0.01185
-0.31468,0.94848,-0.03697,0.01617,0.01017,-0.01219
-0.31531,0.94829,-0.03639,0.01756,0.00535,-0.01595
-0.31591,0.94812,-0.03563,0.01685,0.00455,-0.01228
-0.31643,0.94798,-0.03487,0.00913,0.00434,-0.00767
-0.31686,0.94785,-0.03432,-0.00339,0.0061,-0.00297
-0.31721,0.94775,-0.03397,-0.00383,0.01075,-0.01067
-0.31735,0.9477,-0.03381,0.00597,0.013,-0.0212
-0.31721,0.94775,-0.03401,0.01054,0.01266,-0.01846
-0.31673,0.94789,-0.03445,0.02027,-0.00029,-0.009
-0.31605,0.9481,-0.03494,0.02096,-0.00283,0.00069
-0.3154,0.9483,-0.03523,0.01601,0.00113,-0.00171
-0.31498,0.94845,-0.03511,0.01416,0.00054,-0.00468
-0.31473,0.94854,-0.03486,0.02543,0.01681,-0.01869
-0.31451,0.94862,-0.03477,0.0223,0.01952,-0.02141
-0.31438,0.94866,-0.03487,0.01886,0.01744,-0.01836
-0.31451,0.94861,-0.03501,0.0241,0.01027,-0.01108
-0.3149,0.94848,-0.03508,0.02761,0.00805,-0.01787
-0.31519,0.94837,-0.03517,0.03275,0.00892,-0.02342
-0.31498,0.94844,-0.03546,0.04004,0.01445,-0.03025
-0.31437,0.94863,-0.03564,0.0366,0.01453,-0.0206
-0.31349,0.94892,-0.03565,0.02924,0.01188,-0.00466
-0.31256,0.94924,-0.03544,0.01883,0.0105,-0.01096
-0.31187,0.94947,-0.03517,0.01228,0.01243,-0.02136
-0.31137,0.94964,-0.03506,0.01842,0.01145,-0.02465
-0.3108,0.94983,-0.03505,0.01751,0.00578,-0.01133
-0.31003,0.95007,-0.03522,0.00176,0.00255,-0.00049
-0.30925,0.95033,-0.03529,-0.00586,0.00261,0.00285
-0.30864,0.95052,-0.03524,-0.0043,0.00353,-0.00821
-0.30801,0.95073,-0.03516,0.00128,0.01028,-0.02219
-0.30728,0.95096,-0.03526,0.00814,0.00985,-0.0098
-0.30645,0.95122,-0.0357,0.00401,0.00989,-0.00066
-0.30563,0.95146,-0.03618,-0.00028,0.00273,0.01586
-0.30504,0.95165,-0.03637,0.00366,0.00407,0.00628
-0.30467,0.95177,-0.03617,0.00797,0.00732,-0.00279
-0.30432,0.95189,-0.03604,0.01171,0.01045,-0.01365
-0.30399,0.95198,-0.03625,0.00779,0.00372,0.00211
-0.30386,0.95201,-0.0367,0.01071,0.00391,0.00926
-0.30407,0.95194,-0.03677,0.0058,-0.00254,0.0049
-0.30461,0.95179,-0.03626,0.01962,0.005,-0.00471
-0.30526,0.95161,-0.03543,0.02413,0.0143,-0.01672
-0.30584,0.95145,-0.03461,0.02398,0.01603,-0.01735
-0.3063,0.95133,-0.03396,-0.00121,0.00093,-0.00708
-0.30686,0.95116,-0.03352,-0.00501,0.0004,-0.00664
-0.30768,0.95091,-0.03327,0.00025,0.00318,-0.01613
-0.30852,0.95064,-0.03304,0.02242,0.00982,-0.0244
-0.30895,0.95051,-0.03274,0.02814,0.01424,-0.01374
-0.30887,0.95054,-0.03266,0.01749,0.01264,-0.00431
-0.30854,0.95065,-0.03269,0.0033,0.00557,-0.00088
-0.30846,0.95068,-0.03268,0.00107,0.00448,-0.01203
-0.30869,0.9506,-0.03272,0.00808,0.00831,-0.01898
-0.30901,0.95049,-0.03291,0.01808,0.013,-0.01535
-0.30917,0.95043,-0.03322,0.02102,0.00776,-0.00743
-0.30907,0.95045,-0.03346,0.01643,0.00345,-0.0036
-0.30889,0.9505,-0.03364,0.01215,0.00477,-0.01205
-0.30879,0.95054,-0.03361,0.01709,0.00987,-0.02131
-0.30876,0.95055,-0.03354,0.01855,0.00996,-0.01686
-0.30874,0.95055,-0.03354,0.01829,0.00842,-0.01373
-0.30881,0.95054,-0.03349,0.01448,0.00727,-0.01265
-0.30898,0.95048,-0.03334,0.02016,0.00756,-0.01692
-0.30921,0.95042,-0.0331,0.01984,0.00935,-0.01791
-0.30917,0.95043,-0.03305,0.02086,0.01402,-0.0209
-0.30897,0.9505,-0.03306,0.01747,0.01116,-0.0113
-0.30878,0.95056,-0.03311,0.01551,0.00858,-0.01321
-0.3088,0.95055,-0.03316,0.00908,0.00359,-0.01628
-0.30899,0.95048,-0.03323,0.01172,0.00852,-0.01447
-0.30905,0.95046,-0.03342,0.01323,0.01001,-0.0195
-0.30882,0.95052,-0.0337,0.01901,0.01406,-0.01558
-0.30842,0.95064,-0.03398,0.01683,0.0074,-0.00476
-0.30807,0.95075,-0.03415,0.01559,0.00541,-0.0054
-0.30793,0.95079,-0.03424,0.00727,0.00983,-0.00988
-0.30799,0.95077,-0.03442,0.01002,0.00781,-0.01133
-0.30802,0.95075,-0.03476,0.00861,0.00825,-0.00679
-0.30799,0.95074,-0.03505,0.00989,0.00348,-0.00114
-0.30804,0.95072,-0.03517,0.01504,-0.00079,-0.00286
-0.30832,0.95064,-0.0351,0.00743,0.00406,-0.00958
-0.30888,0.95046,-0.03496,0.01138,0.00776,-0.01379
-0.30963,0.95022,-0.03471,0.01548,0.01308,-0.01153
-0.3103,0.95001,-0.03457,0.01884,0.00861,-0.01427
-0.31094,0.94981,-0.03445,0.01698,0.00767,-0.01519
-0.31151,0.94962,-0.03431,0.01488,0.00512,-0.01658
-0.31191,0.9495,-0.03424,0.01814,0.01312,-0.01393
-0.31197,0.94947,-0.03428,0.01882,0.01528,-0.01206
-0.31164,0.94957,-0.03449,0.01653,0.01518,-0.01127
-0.31103,0.94976,-0.03489,0.00735,0.00717,-0.01017
-0.31038,0.94995,-0.03556,0.00303,0.00574,-0.01113
-0.30983,0.9501,-0.03636,0.00848,0.00538,-0.01152
-0.3093,0.95024,-0.03704,0.01421,-0.00067,-0.00134
-0.3089,0.95035,-0.03756,0.00917,0.00109,0.00375
-0.30872,0.9504,-0.03795,0.00504,0.00633,-0.00126
-0.30883,0.95035,-0.03813,0.01,0.00343,-0.00562
-0.30908,0.95027,-0.03814,0.01599,0.00632,-0.01116
-0.3094,0.95017,-0.03806,0.01585,0.00567,-0.00829
-0.30977,0.95006,-0.03786,0.01275,0.00252,-0.00523
-0.31026,0.94991,-0.03763,0.01195,0.0086,-0.01017
-0.31083,0.94973,-0.03738,0.01367,0.01327,-0.01573
-0.31138,0.94955,-0.03722,0.01959,0.01192,-0.01826
-0.31176,0.94943,-0.03721,0.02145,0.0127,-0.01578
-0.31196,0.94936,-0.03728,0.02025,0.01367,-0.01168
-0.31203,0.94934,-0.03737,0.02238,0.01128,-0.01216
-0.31204,0.94933,-0.03747,0.0173,0.01272,-0.01335
-0.31202,0.94933,-0.03765,0.01576,0.0144,-0.01427
-0.312,0.94932,-0.03791,0.00992,0.00781,-0.01119
-0.31196,0.94932,-0.03832,0.01174,0.00519,-0.01081
-0.31186,0.94933,-0.03893,0.01154,0.00651,-0.00634
-0.31183,0.94932,-0.03957,0.01606,0.0057,-0.00374
-0.31197,0.94925,-0.04005,0.02222,0.00398,-0.00998
-0.31228,0.94913,-0.04035,0.02322,0.00531,-0.01082
-0.31263,0.94901,-0.04052,0.02709,0.01005,-0.0064
-0.31293,0.94891,-0.04068,0.02429,0.01389,-0.00556
-0.31309,0.94885,-0.04069,0.02068,0.01207,-0.00627
-0.31316,0.94883,-0.04065,0.01439,0.00834,-0.01258
-0.3132,0.94882,-0.04064,0.01864,0.00678,-0.01175
-0.31327,0.94879,-0.04072,0.01775,0.00761,-0.01126
-0.31332,0.94877,-0.04093,0.01984,0.00726,-0.00819
-0.31322,0.94879,-0.04117,0.02035,0.00707,-0.00656
-0.31291,0.94888,-0.04131,0.02107,0.00828,-0.01056
-0.3125,0.94901,-0.04149,0.01939,0.00884,-0.01005
-0.31209,0.94913,-0.04182,0.00792,0.00119,-0.01027
-0.31174,0.94922,-0.04234,0.0013,0.0019,-0.00583
-0.31144,0.9493,-0.04283,0.00763,0.00122,-0.00329
-0.31111,0.9494,-0.04308,0.00433,0.00254,-0.00106
-0.31075,0.94951,-0.04313,0.00372,0.0029,-0.00057
-0.31058,0.94958,-0.04288,-0.00044,0.00423,-0.00208
-0.31079,0.94953,-0.04244,-0.00251,0.00639,-0.00413
-0.31136,0.94936,-0.0421,-0.00497,0.00645,-0.01001
-0.31203,0.94915,-0.04191,0.00736,0.00447,-0.00839
-0.31259,0.94897,-0.04183,0.00958,0.00451,-0.00984
-0.3129,0.94887,-0.04175,0.00753,0.00263,-0.01469
-0.31296,0.94885,-0.04171,0.00716,0.0109,-0.01267
-0.31277,0.9489,-0.04189,0.0072,0.00624,-0.01083
-0.31251,0.94898,-0.04214,0.01185,0.00868,-0.00515
-0.31242,0.949,-0.04226,0.00645,0.00783,-0.00868
-0.31247,0.94899,-0.04223,0.00868,0.00168,-0.00988
-0.31271,0.94891,-0.04213,0.00845,0.00282,-0.01162
-0.31307,0.9488,-0.04197,0.00782,0.01198,-0.01546
-0.31343,0.94869,-0.04185,0.02021,0.0175,-0.01709
-0.31366,0.94862,-0.04174,0.0254,0.01375,-0.01274
-0.3138,0.94858,-0.04161,0.03019,0.0125,-0.00937
-0.31394,0.94854,-0.04142,0.01904,0.00753,-0.01109
-0.31429,0.94843,-0.04118,0.01633,0.00616,-0.02422
-0.31478,0.94828,-0.04095,0.02162,0.00658,-0.02459
-0.31515,0.94816,-0.04083,0.0249,0.0084,-0.01398
-0.31526,0.94812,-0.041,0.02378,0.01163,-0.01245
-0.31529,0.9481,-0.04123,0.01857,0.01629,-0.01108
-0.31546,0.94804,-0.04127,0.01266,0.00988,-0.009
-0.31581,0.94793,-0.04118,0.00962,0.00485,-0.01387
-0.31625,0.94779,-0.04107,0.01087,0.00253,-0.01057
-0.31659,0.94768,-0.04098,0.0114,0.00679,-0.0127
-0.31691,0.94757,-0.04089,0.01189,0.00676,-0.0087
-0.31746,0.9474,-0.04076,0.01624,0.0071,-0.00574
-0.31819,0.94715,-0.04067,0.01788,0.01438,-0.0088
-0.31903,0.94687,-0.04067,0.00947,0.028,-0.02212
-0.31994,0.94656,-0.04076,-9e-05,0.0313,-0.02641
-0.32093,0.9462,-0.04137,-0.04241,0.03557,-0.01243
-0.32239,0.94564,-0.04268,-0.04687,0.03615,-0.012
-0.32489,0.9447,-0.04445,-0.04164,0.03166,-0.01167
-0.32839,0.94339,-0.04669,-0.01997,-0.00859,-0.0256
-0.33206,0.94196,-0.04954,-0.00435,-0.01883,-0.02065
-0.335,0.94075,-0.05265,0.0068,-0.02691,-0.01689
-0.3374,0.93974,-0.05524,0.01469,-0.0283,-0.00926
-0.33968,0.93882,-0.05691,0.0273,-0.02247,-0.00382
-0.34227,0.93781,-0.05793,0.03903,-0.00396,-0.00167
-0.34491,0.9368,-0.05867,0.05303,0.02162,-0.00695
-0.347,0.93601,-0.05898,0.0602,0.02693,-0.00202
-0.34836,0.93549,-0.05925,0.02211,0.03085,-0.01227
-0.34989,0.9349,-0.05954,0.01257,0.02113,-0.01499
-0.3521,0.93407,-0.05948,0.00649,0.00787,-0.00708
-0.35498,0.93297,-0.05964,0.01017,0.0009,-0.00569
-0.3583,0.93166,-0.0602,0.01481,0.00198,-0.00838
-0.36163,0.93032,-0.06097,0.01565,0.00919,-0.01491
-0.36475,0.92906,-0.06165,-0.01238,0.01831,-0.01983
-0.36777,0.92784,-0.06217,-0.00552,0.00979,-0.01872
-0.37066,0.92662,-0.06311,0.00377,0.00432,-0.01727
-0.37299,0.92558,-0.0647,0.03281,-0.01489,-0.01091
-0.37473,0.92474,-0.06652,0.04836,-0.02228,-0.0075
-0.3759,0.92414,-0.06827,0.04927,-0.01746,-0.01037
-0.37663,0.92374,-0.06965,0.05581,0.00642,-0.01201
-0.37673,0.92367,-0.07005,0.05872,0.0201,-0.0097
-0.37631,0.9239,-0.06935,0.05953,0.01853,0.00707
-0.37565,0.92424,-0.06829,0.05282,0.00239,0.00678
-0.37502,0.92454,-0.06772,0.0437,0.0149,-0.0126
-0.37442,0.9248,-0.06749,0.02852,0.03608,-0.02277
-0.37364,0.92514,-0.06713,0.02381,0.03946,-0.02045
-0.37273,0.92553,-0.06678,0.00608,0.01717,-0.00623
-0.37241,0.92568,-0.06653,0.00883,-0.01131,-0.01217
-0.37277,0.92553,-0.06653,0.02405,-0.01202,-0.02063
-0.37316,0.92538,-0.06655,0.02396,0.02321,-0.02428
-0.37299,0.92545,-0.06642,0.02036,0.02122,-0.01782
-0.3723,0.92577,-0.06596,0.01656,0.01656,-0.01414
-0.37178,0.92602,-0.06532,-0.02019,-0.00154,-0.00398
-0.37205,0.92593,-0.06513,-0.0163,-0.00315,-0.00987
-0.37268,0.92565,-0.06536,0.01196,0.01595,-0.0224
-0.37308,0.92547,-0.06573,0.02601,0.02305,-0.01092
-0.37296,0.9255,-0.06601,0.02521,0.01895,-0.00373
-0.37284,0.92554,-0.06613,0.00488,-0.007,0.0127
-0.37314,0.92541,-0.06614,0.00257,-0.01214,0.00249
-0.37357,0.92524,-0.06618,0.00967,-0.00956,-0.00729
-0.37338,0.92531,-0.06626,0.02448,0.00308,-0.01537
-0.37239,0.92572,-0.06609,0.02999,-0.00098,-0.00074
-0.37084,0.92639,-0.0654,0.0198,-0.01433,0.01779
-0.36947,0.92703,-0.06409,0.00489,-0.02623,0.01659
-0.3686,0.92749,-0.0625,0.00444,-0.01165,-0.00695
-0.36785,0.92789,-0.06087,0.01315,0.00902,-0.0242
-0.36673,0.92843,-0.05941,0.01712,0.01466,-0.01563
-0.36519,0.92911,-0.05819,0.0101,0.00937,0.00854
-0.36366,0.92979,-0.05693,0.00513,-0.00085,0.01045
-0.36246,0.93033,-0.05567,0.0111,0.00086,-0.00554
-0.36119,0.93091,-0.05435,0.01634,0.03008,-0.03685
-0.35969,0.93157,-0.05295,0.01586,0.05995,-0.04044
-0.35813,0.93222,-0.05198,0.0106,0.03786,-0.00958
-0.35707,0.93264,-0.05176,0.00517,0.01356,-0.00559
-0.35693,0.93266,-0.0523,-0.00408,-0.01024,-0.00416
-0.35712,0.93255,-0.05305,0.01784,-0.00024,-0.01947
-0.35693,0.93261,-0.05327,0.02709,-0.00156,-0.02115
-0.35611,0.93293,-0.0531,0.03107,0.00541,-0.01286
-0.35518,0.93331,-0.0527,0.01391,-0.00245,0.00345
-0.35474,0.93351,-0.05208,0.02133,-0.00085,0.00091
-0.3546,0.9336,-0.05136,0.03131,0.01111,-0.01473
-0.35424,0.93378,-0.05071,0.03761,0.0219,-0.02563
-0.35333,0.93416,-0.05005,0.04799,0.01576,-0.02322
-0.35178,0.93478,-0.04941,0.05736,0.00791,-0.01532
-0.34973,0.93558,-0.04868,0.06407,0.00472,-0.00877
-0.34741,0.93651,-0.04754,0.06326,0.0091,-0.01176
-0.34485,0.93753,-0.04606,0.0604,0.01366,-0.02015
-0.34208,0.93861,-0.04473,0.05472,0.02383,-0.02612
-0.33909,0.93974,-0.04367,0.05978,0.03333,-0.02405
-0.33587,0.94094,-0.04277,0.07109,0.03845,-0.01956
-0.33245,0.94219,-0.04196,0.06046,0.03543,-0.01841
-0.32924,0.94335,-0.04105,0.05355,0.04296,-0.01857
-0.32697,0.94418,-0.04029,0.03585,0.03692,-0.02216
-0.32531,0.94476,-0.03999,0.018,0.02497,-0.0207
-0.32419,0.94514,-0.04009,0.01343,0.0058,-0.0167
-0.32326,0.94545,-0.04021,0.01603,0.00204,-0.01667
-0.32242,0.94574,-0.04026,0.01215,-0.00075,-0.01472
-0.3216,0.94603,-0.04001,-0.00279,-0.00047,-0.01065
-0.321,0.94626,-0.03939,-0.00339,-0.0007,-0.01127
-0.32068,0.9464,-0.03857,-0.00067,0.00079,-0.0149
-0.32049,0.9465,-0.03766,0.00924,0.00128,-0.01198
-0.32032,0.94659,-0.03683,0.0102,0.00295,-0.01137
-0.32011,0.94669,-0.03601,0.00664,0.00532,-0.00603
-0.31989,0.94681,-0.03505,0.00624,0.00636,-0.0108
-0.31965,0.94692,-0.03409,0.00433,0.00825,-0.01526
-0.31939,0.94703,-0.03341,-0.00074,0.00737,-0.02483
-0.31909,0.94715,-0.03306,-0.00792,0.00809,-0.02053
-0.31876,0.94727,-0.03275,-0.01266,0.00509,-0.01584
-0.31845,0.94738,-0.03246,-0.01722,0.00406,-0.01756
-0.31822,0.94747,-0.03234,-0.01999,0.01219,-0.02066
-0.3178,0.9476,-0.03261,-0.01844,0.01484,-0.01771
-0.31701,0.94784,-0.03332,-0.02285,0.00611,-0.0029
-0.31606,0.94812,-0.03411,-0.027,-0.01032,0.0051
-0.31536,0.94834,-0.03462,-0.03047,-0.01798,0.00368
-0.31516,0.9484,-0.03473,-0.01927,-0.01404,-0.00923
-0.31538,0.94834,-0.03452,-0.01694,-0.01192,-0.00576
-0.31584,0.94819,-0.03421,-0.01698,-0.01045,-0.00216
-0.31661,0.94795,-0.03379,-0.01933,-0.00905,0.00238
-0.3176,0.94765,-0.03316,-0.01347,-0.00076,-0.01207
-0.31867,0.94731,-0.03233,-0.00118,0.00345,-0.02672
-0.31953,0.94706,-0.03143,0.00873,0.00209,-0.02747
-0.32005,0.94691,-0.03057,0.01212,0.0006,-0.02318
-0.32037,0.94683,-0.02972,0.01007,0.00174,-0.01399
-0.32064,0.94676,-0.02877,0.00571,0.001,-0.01464
-0.32086,0.94672,-0.02771,0.00602,0.01143,-0.02288
-0.32091,0.94672,-0.02696,0.00994,0.01899,-0.02451
-0.32056,0.94685,-0.0266,0.01557,0.01316,-0.00951
-0.31978,0.94712,-0.0264,0.00657,0.01034,0.00285
-0.31894,0.94741,-0.02619,0.00752,0.01214,0.00063
-0.31823,0.94766,-0.02592,0.01905,0.0096,-0.00871
-0.31754,0.9479,-0.02562,0.02969,0.0075,-0.00498
-0.31666,0.94819,-0.02561,0.0204,0.00361,0.004
-0.31577,0.94849,-0.0256,0.00975,0.00125,0.00732
-0.3152,0.94869,-0.02527,-0.00342,0.00716,0.00406
-0.31514,0.94872,-0.02482,0.01344,0.00924,-0.00351
-0.31544,0.94863,-0.02433,0.03046,0.00793,-0.00991
-0.31582,0.94852,-0.02388,0.02944,0.01083,-0.01233
-0.31616,0.94841,-0.02352,0.02929,0.01018,-0.00951
-0.31642,0.94834,-0.02307,0.02987,0.00847,-0.00771
-0.31652,0.94831,-0.02258,0.02633,0.01122,-0.01246
-0.3166,0.9483,-0.02206,0.02194,0.01493,-0.02086
-0.3166,0.94831,-0.02162,0.02122,0.01722,-0.02247
-0.31644,0.94837,-0.02146,0.02677,0.01751,-0.01399
-0.31617,0.94846,-0.02141,0.02687,0.01782,-0.00909
-0.31593,0.94854,-0.02144,0.01956,0.01167,-0.00873
-0.31585,0.94856,-0.02154,0.02377,0.00897,-0.01127
-0.31594,0.94853,-0.02158,0.02866,0.00739,-0.0117
-0.31615,0.94847,-0.02136,0.03047,0.00066,-0.00948
-0.31648,0.94837,-0.02084,0.03214,0.00181,0.00277
-0.31702,0.94821,-0.01996,0.03169,0.00365,-0.00082
-0.31776,0.94799,-0.01863,0.03051,0.00747,-0.00456
-0.31854,0.94775,-0.01713,0.02271,0.01788,-0.01589
-0.31914,0.94757,-0.01572,0.01975,0.01913,-0.0202
-0.31944,0.94749,-0.01464,0.01152,0.01567,-0.01785
-0.31954,0.94747,-0.014,0.00437,0.01429,-0.02083
-0.31954,0.94747,-0.01374,0.00718,0.01717,-0.02676
-0.31932,0.94754,-0.01381,0.01616,0.01591,-0.02683
-0.31871,0.94775,-0.01404,0.01666,0.0178,-0.01946
-0.31791,0.94801,-0.01448,0.00995,0.01499,-0.01537
-0.31723,0.94823,-0.01503,0.00588,0.00379,-0.01112
-0.31672,0.94838,-0.01607,0.00586,-0.00038,-0.00988
-0.31625,0.94851,-0.01743,-0.00294,0.00629,-0.0088
-0.31582,0.94864,-0.0184,-0.00238,-0.00552,0.00373
-0.3157,0.94867,-0.01877,-0.00049,-0.01581,0.01186
-0.31616,0.94852,-0.01847,0.00876,-0.01224,0.0035
-0.31718,0.94819,-0.01793,0.02269,0.00193,-0.01309
-0.31845,0.94778,-0.0174,0.02654,0.01498,-0.02182
-0.31963,0.94739,-0.01697,0.02871,0.0209,-0.01872
-0.32059,0.94707,-0.01644,0.02353,0.00979,-0.01928
-0.32131,0.94684,-0.01584,0.02502,0.00613,-0.02026
-0.32185,0.94666,-0.0153,0.01768,0.00686,-0.02541
-0.32225,0.94654,-0.01503,0.02482,0.01759,-0.0302
-0.32234,0.9465,-0.01503,0.02812,0.02224,-0.0282
-0.32212,0.94658,-0.01528,0.02378,0.01484,-0.02009
-0.32177,0.94669,-0.01558,0.01434,0.01039,-0.01379
-0.32144,0.9468,-0.01581,0.01631,0.0074,-0.02238
-0.32096,0.94695,-0.01606,0.01814,0.01346,-0.02488
-0.32032,0.94717,-0.01644,0.01784,0.01548,-0.02464
-0.31957,0.94741,-0.01693,0.00446,0.00783,-0.0161
-0.31907,0.94757,-0.01755,-0.00058,0.00751,-0.01839
-0.31883,0.94763,-0.01848,0.00054,0.01434,-0.03906
-0.31862,0.94768,-0.01981,0.01233,0.01921,-0.04692
-0.31797,0.94786,-0.02144,0.01582,0.01926,-0.04696
-0.31673,0.94823,-0.02308,0.01887,0.01232,-0.02831
-0.31517,0.94871,-0.02471,0.019,0.00176,-0.0209
-0.31368,0.94916,-0.02636,0.02131,-0.0076,-0.02599
-0.31241,0.94954,-0.02791,0.02608,-0.00376,-0.0276
-0.3112,0.9499,-0.02916,0.02806,0.00334,-0.02735
-0.30978,0.95033,-0.03013,0.03415,0.01333,-0.01189
-0.30813,0.95085,-0.03074,0.02454,0.01348,-0.00957
-0.30643,0.95138,-0.03116,0.01317,0.00539,-0.01081
-0.30482,0.95188,-0.03172,0.01094,0.00118,-0.01503
-0.30327,0.95235,-0.03245,0.01722,0.00305,-0.0167
-0.30174,0.95281,-0.03309,0.0189,0.00882,-0.00533
-0.30058,0.95316,-0.03361,0.00936,0.00629,0.00305
-0.29996,0.95335,-0.03401,0.01129,-0.00202,0.00032
-0.29963,0.95344,-0.03422,0.01863,0.00057,-0.00471
-0.29919,0.95358,-0.03413,0.03045,0.00766,-0.00895
-0.29852,0.9538,-0.03384,0.02475,0.01123,-0.00576
-0.29796,0.95399,-0.03341,0.02105,0.01099,-0.00022
-0.29787,0.95404,-0.03271,0.02674,0.00104,0.00694
-0.2982,0.95397,-0.03185,0.02107,0.00137,0.00684
-0.29847,0.95391,-0.0311,0.02196,0.01446,0.00252
-0.29852,0.95392,-0.03041,0.01594,0.01821,0.00185
-0.29846,0.95396,-0.02973,0.00993,0.01147,0.00602
-0.29848,0.95397,-0.0291,0.01285,0.00349,0.01055
-0.29862,0.95394,-0.02867,0.01541,0.00036,0.01115
-0.2988,0.95389,-0.02848,0.017,0.0059,0.00287
-0.29902,0.95383,-0.02818,0.01641,0.00436,-0.00031
-0.29936,0.95373,-0.02785,0.01262,0.00619,0.00159
-0.29979,0.95361,-0.02755,0.01433,0.00979,-0.00337
-0.30023,0.95347,-0.02724,0.01946,0.01357,-0.00972
-0.30066,0.95335,-0.02683,0.0231,0.01094,-0.00967
-0.30111,0.95323,-0.02622,0.02173,0.00717,-0.00707
-0.3017,0.95306,-0.02549,0.02218,0.00685,-0.00681
-0.30244,0.95284,-0.02474,0.02107,0.00603,-0.00982
-0.3033,0.95259,-0.02394,0.01937,0.01092,-0.00967
-0.30419,0.95233,-0.02298,0.01281,0.00618,-0.01142
-0.30508,0.95207,-0.02202,0.00715,0.00803,-0.01551
-0.30592,0.95182,-0.02109,0.00796,0.00341,-0.01277
-0.30668,0.9516,-0.0201,0.00585,-6e-05,-0.01068
-0.30741,0.95138,-0.01905,0.00878,0.00462,-0.00519
-0.30821,0.95114,-0.01815,-6e-05,0.01093,-0.00724
-0.30914,0.95086,-0.01718,-0.00501,0.01174,-0.00583
-0.31013,0.95055,-0.01621,-0.00934,0.00474,-0.00278
-0.31105,0.95026,-0.01542,-0.00812,0.0006,-0.00294
-0.3117,0.95006,-0.01488,-0.01709,0.00223,-0.00384
-0.31209,0.94994,-0.01442,-0.02194,-0.00197,0.00051
-0.31236,0.94986,-0.01392,-0.0219,-0.00529,0.00072
-0.3127,0.94975,-0.01352,-0.01819,-0.00021,-0.01034
-0.31307,0.94963,-0.01334,-0.01371,0.00539,-0.01517
-0.31344,0.94951,-0.01339,-0.0012,0.01456,-0.01589
-0.31372,0.94942,-0.01345,0.01803,0.01303,-0.01277
-0.31398,0.94933,-0.01342,0.0226,0.00998,-0.01073
-0.31435,0.94921,-0.01327,0.03624,0.00996,-0.02471
-0.31475,0.94908,-0.01286,0.0458,0.01623,-0.02385
-0.31505,0.94899,-0.01255,0.05029,0.02112,-0.02427
-0.31522,0.94893,-0.01244,0.05452,0.03262,-0.02275
-0.31529,0.94891,-0.0126,0.05404,0.02851,-0.01854
-0.3152,0.94893,-0.01296,0.05353,0.02237,-0.0157
-0.31487,0.94903,-0.01347,0.04323,0.01372,-0.01288
-0.31436,0.94919,-0.0141,0.03688,0.01228,-0.00945
-0.31365,0.94942,-0.01457,0.03674,0.00949,-0.00603
-0.31306,0.94961,-0.01498,0.0322,0.00414,0.00422
-0.31306,0.94961,-0.0151,0.03172,-0.00199,0.0083
-0.31359,0.94944,-0.01497,0.02909,0.00238,-0.00416
-0.3144,0.94917,-0.01464,0.02673,0.00803,-0.01528
-0.31511,0.94894,-0.01409,0.01548,0.01926,-0.01559
-0.31554,0.94881,-0.01344,0.00171,0.01025,-0.01386
-0.31566,0.94878,-0.01285,-0.01156,-0.00444,-0.00838
-0.31554,0.94882,-0.01267,-0.02495,0.00119,-0.01033
-0.31522,0.94893,-0.01283,-0.03265,0.0066,-0.01663
-0.31478,0.94907,-0.01321,-0.02667,0.00925,-0.01737
-0.3142,0.94925,-0.01383,-0.02326,0.00786,-0.0119
-0.31343,0.94949,-0.01467,-0.01921,0.00643,-0.00685
-0.31253,0.94977,-0.01559,-0.02106,0.00772,-0.00185
-0.31172,0.95002,-0.01657,-0.02266,0.00167,0.00134
-0.31109,0.95021,-0.01751,-0.02007,6e-05,0.00144
-0.31051,0.95038,-0.01853,-0.00139,0.00032,0.00373
-0.31001,0.95052,-0.0195,0.00845,-0.00636,0.00894
-0.30997,0.95053,-0.02004,0.02909,-0.00915,0.01656
-0.31092,0.95022,-0.02006,0.04199,-0.01322,0.01691
-0.31319,0.94948,-0.01942,0.07297,0.0036,-0.00171
-0.31649,0.94842,-0.01787,0.10527,0.01461,-0.01903
-0.31982,0.94735,-0.01517,0.12579,0.02044,-0.0232
-0.32214,0.94661,-0.01172,0.08048,0.03018,-0.009
-0.32308,0.94632,-0.00884,0.08141,0.03047,-0.01188
-0.32277,0.94644,-0.00748,0.00972,0.02147,-0.0133
-0.32178,0.94678,-0.00668,0.00156,0.02316,-0.02346
-0.3205,0.94722,-0.00646,0.00496,0.02397,-0.03185
-0.3191,0.94769,-0.00642,0.0156,0.03442,-0.0372
-0.31814,0.94801,-0.00666,0.0171,0.03525,-0.03474
-0.31772,0.94814,-0.00845,0.01901,0.03562,-0.03618
-0.31766,0.94814,-0.01082,0.02263,0.03212,-0.03841
-0.31739,0.94821,-0.01238,0.04157,-0.00508,-0.01672
-0.31673,0.94842,-0.01336,0.0412,-0.00815,-0.01261
-0.31581,0.94871,-0.01401,0.01473,0.00289,-0.01493
-0.31504,0.94896,-0.01431,0.00666,0.0047,-0.0193
-0.31467,0.94908,-0.01463,0.0095,0.00778,-0.01424
-0.31455,0.94911,-0.01503,0.02195,0.00898,-0.00337
-0.31438,0.94917,-0.01538,0.0195,0.00905,0.00078
-0.3139,0.94932,-0.01564,0.01054,0.00782,0.00206
-0.3132,0.94955,-0.01583,-0.00998,-0.00184,-0.0033
-0.3126,0.94975,-0.01596,-0.01154,-0.00381,-0.00921
-0.31216,0.94989,-0.01601,-0.01015,-0.00526,-0.00762
-0.31183,0.95,-0.01591,-0.00912,-0.00373,-0.00098
-0.31172,0.95004,-0.0157,-0.01284,0.00015,-0.00044
-0.31183,0.95001,-0.01551,-0.00523,0.00259,-0.01799
-0.31201,0.94995,-0.01552,0.00982,0.00354,-0.01948
-0.31211,0.94992,-0.0154,0.01682,0.00022,-0.00273
-0.31206,0.94994,-0.01499,0.01003,-0.00237,0.00482
-0.31203,0.94996,-0.01442,0.00675,0.00204,0.00344
-0.31232,0.94987,-0.01369,0.01514,0.00722,-0.01003
-0.31284,0.94971,-0.01303,0.02822,0.0153,-0.01568
-0.31332,0.94956,-0.01238,0.03201,0.01543,-0.00617
-0.31341,0.94955,-0.01143,0.03225,0.00877,0.01024
-0.31315,0.94964,-0.01038,0.0157,0.01203,0.00372
-0.31289,0.94974,-0.00948,0.01253,0.01582,-0.00429
-0.31277,0.94978,-0.00885,0.01869,0.02672,-0.0313
-0.31268,0.94982,-0.00876,0.03184,0.02421,-0.02474
-0.31231,0.94993,-0.00906,0.03037,0.01535,-0.00446
-0.31165,0.95015,-0.00944,0.0217,0.01401,0.00282
-0.31101,0.95035,-0.00978,0.01223,0.01382,-0.01243
-0.31052,0.95051,-0.01013,0.01211,0.01682,-0.03029
-0.3101,0.95064,-0.01072,0.01542,0.01556,-0.02867
-0.30955,0.95081,-0.01154,0.00807,0.01448,-0.00959
-0.30882,0.95104,-0.01255,0.00753,0.00827,0.00546
-0.3081,0.95125,-0.0138,0.00245,0.00686,0.00159
-0.30761,0.95139,-0.01504,-0.0003,0.0023,-0.00115
-0.30715,0.95152,-0.01624,0.00216,-0.00053,-0.00271
-0.30623,0.9518,-0.01727,0.00992,0.00185,0.01991
-0.30487,0.95222,-0.01824,9e-05,0.00545,0.02575
-0.30359,0.95261,-0.01926,-0.02243,-0.00993,0.02148
-0.30286,0.95282,-0.02023,-0.0189,-0.00882,0.01357
-0.30275,0.95283,-0.02117,-0.01131,-0.01039,0.0063
-0.30312,0.9527,-0.02165,0.00774,-0.0106,-0.00348
-0.30395,0.95244,-0.02176,0.0034,-0.00361,-0.00444
-0.30532,0.95201,-0.02144,0.00185,0.00011,-0.00456
-0.30729,0.95139,-0.02074,0.00695,0.01089,-0.01335
-0.3094,0.95072,-0.02002,0.01965,0.01628,-0.02472
-0.3112,0.95014,-0.01954,0.03038,0.01603,-0.02596
-0.3124,0.94975,-0.01946,0.03071,0.01876,-0.0188
-0.31306,0.94953,-0.01961,0.02832,0.02127,-0.00738
-0.31331,0.94944,-0.01988,0.01829,0.02312,-0.00866
-0.3135,0.94937,-0.02025,0.02513,0.01537,-0.01404
-0.31371,0.94929,-0.02062,0.03267,0.00708,-0.01385
-0.31379,0.94925,-0.02104,0.03495,0.00369,-0.00773
-0.31368,0.94928,-0.0215,0.02443,0.00097,0.0036
-0.31348,0.94934,-0.0218,0.02649,-0.00287,-0.00121
-0.31334,0.94939,-0.02187,0.02238,0.00348,-0.01832
-0.31319,0.94944,-0.02179,0.03235,0.01719,-0.01858
-0.31293,0.94953,-0.02166,0.03781,0.02154,-0.00893
-0.31254,0.94966,-0.02161,0.03193,0.02045,-0.0034
-0.31232,0.94973,-0.02152,0.01949,0.01107,-0.01008
-0.31238,0.94971,-0.02138,0.01764,0.0075,-0.01769
-0.31249,0.94968,-0.0214,0.0245,0.01175,-0.02695
-0.31228,0.94975,-0.02152,0.0252,0.01325,-0.00724
-0.31167,0.94994,-0.02176,0.01954,0.0114,-0.00188
-0.31083,0.95021,-0.02202,0.01387,0.01142,-0.00142
-0.30998,0.95048,-0.02217,0.01129,0.00757,-0.00658
-0.30916,0.95074,-0.02247,0.01388,0.011,-0.00678
-0.30827,0.95102,-0.02294,0.01548,0.00566,0.00396
-0.30726,0.95134,-0.02336,0.01796,0.00475,0.01586
-0.30633,0.95163,-0.02374,0.00765,0.00656,0.01326
-0.30568,0.95183,-0.02408,0.0074,0.0032,0.0036
-0.30525,0.95196,-0.02439,0.01329,0.00131,0.00088
-0.30486,0.95208,-0.02467,0.01049,0.00659,0.00427
-0.30454,0.95217,-0.02482,0.00929,0.0041,0.006
-0.30447,0.9522,-0.02488,0.00547,0.00658,0.00414
-0.30484,0.95207,-0.02496,0.0028,0.0048,-0.00444
-0.30562,0.95182,-0.02501,0.01308,0.00919,-0.01526
-0.30652,0.95153,-0.02514,0.01759,0.0169,-0.01668
-0.30723,0.9513,-0.02539,0.02104,0.01262,-0.00595
-0.30763,0.95116,-0.02558,0.02143,0.01275,-0.00576
-0.30784,0.95109,-0.02571,0.00724,0.00857,-0.00127
-0.30801,0.95103,-0.02582,0.00706,0.01282,-0.00993
-0.30814,0.95099,-0.02603,0.01235,0.01098,-0.01083
-0.30816,0.95096,-0.02652,0.01195,0.00347,0.00139
-0.30826,0.95091,-0.02723,0.00855,-0.00249,0.00987
-0.30852,0.95081,-0.02786,0.00594,-0.00333,0.00922
-0.30887,0.95068,-0.02828,0.01313,0.00609,-0.00887
-0.30912,0.95059,-0.02859,0.02114,0.01141,-0.01047
-0.30917,0.95057,-0.02887,0.01519,0.00945,-0.00589
-0.30918,0.95056,-0.02896,0.01522,0.00348,0.00352
-0.30937,0.9505,-0.02888,0.01053,0.00998,-0.00111
-0.30972,0.95039,-0.02883,0.01365,0.01255,-0.0076
-0.30999,0.9503,-0.02885,0.01642,0.01404,-0.01427
-0.31001,0.95029,-0.02907,0.01684,0.01268,-0.0051
-0.3098,0.95035,-0.02945,0.01242,0.00914,0.00964
-0.30953,0.95042,-0.02986,0.00655,0.00777,0.00839
-0.30926,0.95049,-0.03031,9e-05,0.00678,0.00144
-0.30899,0.95057,-0.03079,0.00615,0.00753,-0.00364
-0.30868,0.95065,-0.0313,0.01524,0.00382,0.00114
-0.30844,0.95071,-0.03172,0.01474,0.00206,0.00819
-0.30846,0.9507,-0.03198,0.01108,0.00482,0.00895
-0.30873,0.95061,-0.03217,0.01716,0.00972,-0.00209
-0.30906,0.95049,-0.03242,0.02062,0.00964,-0.00969
-0.30928,0.95041,-0.03263,0.01721,0.00804,-0.00415
-0.30938,0.95037,-0.03275,0.00881,0.00286,0.00318
-0.30946,0.95034,-0.03283,0.00946,-0.00207,-0.00144
-0.30951,0.95032,-0.03302,0.00692,-0.00037,-0.00752
-0.30941,0.95035,-0.03326,0.01774,0.00208,-0.01518
-0.3091,0.95044,-0.03341,0.02566,0.00413,-0.0047
-0.30868,0.95058,-0.03351,0.01626,0.00757,0.00529
-0.30846,0.95064,-0.0337,0.00728,0.00847,0.00355
-0.30856,0.9506,-0.03391,0.00598,0.00897,-0.00059
-0.30874,0.95054,-0.03413,0.00799,0.01883,-0.01206
-0.30876,0.95051,-0.03451,0.02151,0.01607,-0.00956
-0.30864,0.95054,-0.03479,0.02268,0.00451,0.00435
-0.3087,0.95052,-0.03485,0.02046,-0.00115,0.00612
-0.30902,0.95042,-0.0348,0.01597,0.00371,-0.00141
-0.30952,0.95026,-0.03479,0.02106,0.0135,-0.01335
-0.30985,0.95014,-0.03491,0.02233,0.02377,-0.00969
-0.3099,0.95011,-0.03525,0.02731,0.01233,-0.0011
-0.30971,0.95017,-0.03535,0.01753,0.00121,0.00883
-0.30946,0.95026,-0.03525,0.00839,-0.00022,-0.00235
-0.30946,0.95026,-0.0351,0.01237,0.00451,-0.01826
-0.3096,0.95022,-0.03503,0.02179,0.00759,-0.01167
-0.30961,0.95022,-0.03509,0.0238,0.01135,-0.00617
-0.3093,0.95031,-0.03516,0.02035,0.01278,0.00189
-0.30879,0.95048,-0.03516,0.02134,0.00766,0.00397
-0.30824,0.95066,-0.03509,0.02003,0.00619,0.00465
-0.30783,0.9508,-0.03482,0.01678,0.00137,-0.00111
-0.3078,0.95083,-0.03434,0.01187,0.00281,-0.00039
-0.30824,0.95071,-0.0339,0.01261,0.00894,0.00019
-0.30892,0.95049,-0.03365,0.01407,0.01504,-0.00434
-0.30952,0.9503,-0.03361,0.01138,0.01473,-0.00678
-0.31018,0.95008,-0.03379,0.02028,0.01315,-0.01955
-0.31067,0.94992,-0.03379,0.01487,0.01056,-0.01015
-0.31101,0.9498,-0.03391,0.00376,0.00714,0.00124
-0.31133,0.94969,-0.03413,-0.00479,0.00702,0.0015
-0.31171,0.94957,-0.03411,-0.00171,0.00899,-0.00478
-0.31217,0.94942,-0.03391,0.01045,-0.00132,0.00356
-0.31254,0.94931,-0.03358,0.01228,-0.00446,0.00789
-0.31285,0.94922,-0.03323,0.00662,-0.00492,0.01007
-0.31326,0.9491,-0.03291,0.00359,0.01401,-0.00809
-0.31365,0.94897,-0.03272,0.01191,0.01227,-0.00903
-0.3139,0.9489,-0.03241,0.01558,0.01274,-0.00978
-0.31409,0.94885,-0.03212,0.01949,0.00609,-0.00119
-0.31432,0.94878,-0.03196,0.00929,0.01127,0.00286
-0.31453,0.94871,-0.03195,0.012,0.01935,-0.00848
-0.31446,0.94873,-0.03193,0.01058,0.01701,-0.0048
-0.31408,0.94886,-0.03188,0.01283,0.01366,-0.00011
-0.31367,0.94899,-0.03193,0.00271,0.00058,0.00932
-0.31361,0.94901,-0.03203,0.00092,-0.00518,0.00294
-0.31401,0.94888,-0.03206,0.00309,-0.0025,-0.00347
-0.3146,0.94869,-0.03195,0.02346,0.00659,-0.00331
-0.31513,0.94852,-0.03172,0.0276,0.00958,0.00863
-0.31551,0.9484,-0.03141,0.01861,0.01101,0.01504
-0.31573,0.94834,-0.0311,0.01181,0.01507,0.01441
-0.31593,0.94829,-0.03069,0.01167,0.01252,0.00577
-0.31601,0.94827,-0.03036,0.01718,0.01122,0.00279
-0.31589,0.94831,-0.03021,0.02293,0.00342,0.00743
-0.31566,0.94839,-0.03011,0.01973,0.00258,0.01156
-0.31524,0.94854,-0.02999,0.01124,0.00512,0.01189
-0.31471,0.94872,-0.02989,0.01656,0.01102,0.00407
-0.31418,0.9489,-0.02981,0.02074,0.01432,0.00047
-0.31372,0.94905,-0.0298,0.0185,0.0157,0.00325
-0.31338,0.94916,-0.02981,0.00447,0.00639,0.00464
-0.31338,0.94916,-0.02977,-0.00327,-0.00054,-0.00023
-0.31366,0.94907,-0.02961,-0.00224,0.00242,-0.01087
-0.314,0.94896,-0.02947,0.00704,0.0106,-0.01352
-0.31418,0.94891,-0.02934,0.01384,0.00501,-0.00709
-0.31414,0.94893,-0.02924,0.00496,0.00556,-0.00113
-0.31414,0.94893,-0.02915,-0.00715,0.00156,-0.00785
-0.31434,0.94886,-0.02907,-0.00337,0.00653,-0.01455
-0.31466,0.94876,-0.02909,-0.00014,0.01186,-0.01392
-0.31488,0.94868,-0.02924,0.01533,0.01805,0.00034
-0.31498,0.94864,-0.02935,0.01611,0.01457,0.00498
-0.31522,0.94856,-0.02944,0.01173,0.0127,0.00367
-0.31572,0.94839,-0.02952,0.02299,0.00177,-0.00703
-0.31622,0.94823,-0.02948,0.03648,0.00371,-0.00092
-0.31636,0.94819,-0.02929,0.04346,0.00752,0.00797
-0.31607,0.94829,-0.02909,0.02121,0.00708,0.01909
-0.31563,0.94844,-0.02895,0.00824,0.01097,0.00629
-0.31509,0.94862,-0.02897,0.00699,0.0156,-0.00389
-0.3144,0.94884,-0.02921,0.01049,0.01416,-0.00169
-0.31349,0.94913,-0.02951,0.00762,0.00517,0.00986
-0.31264,0.94941,-0.02972,0.0058,0.00282,0.01155
-0.3121,0.94959,-0.02965,0.00053,-0.00081,0.00798
-0.31189,0.94966,-0.02959,-0.0014,0.00978,-0.01184
-0.31188,0.94966,-0.02964,0.00233,0.01004,-0.01139
-0.31189,0.94965,-0.02982,0.00438,0.008,-0.00413
-0.31181,0.94967,-0.03005,0.00644,0.00364,0.00965
-0.31167,0.94971,-0.03027,0.00613,0.00157,0.0083
-0.31147,0.94977,-0.03037,0.01147,0.00837,0.00012
-0.31116,0.94987,-0.03049,0.00893,0.0096,0.00109
-0.31076,0.94999,-0.03072,0.0101,0.00851,0.00638
-0.3104,0.9501,-0.03095,0.00902,0.00285,0.00324
-0.31017,0.95017,-0.03109,0.01422,-0.00088,-0.00866
-0.31013,0.95018,-0.03125,0.01711,0.00407,-0.01574
-0.31025,0.95014,-0.03133,0.01873,0.01568,-0.0146
-0.31042,0.95008,-0.03138,0.01689,0.01354,-0.00708
-0.31062,0.95001,-0.03145,0.01013,0.01,-0.00308
-0.31092,0.94991,-0.03156,0.00401,0.01361,0.00091
-0.31128,0.94979,-0.03163,0.01509,0.00817,0.0044
-0.31134,0.94977,-0.03173,0.01725,0.0074,0.00866
-0.311,0.94987,-0.03188,0.01101,0.00462,0.0136
-0.31037,0.95008,-0.03202,0.00765,0.00378,0.01598
-0.3096,0.95032,-0.03224,0.0102,0.0088,0.01699
-0.30881,0.95057,-0.03259,0.01988,0.01306,0.01685
-0.30795,0.95082,-0.03328,0.01849,0.01558,0.01338
-0.30699,0.9511,-0.03419,0.02488,0.01353,0.01258
-0.306,0.9514,-0.03479,0.02598,0.00141,0.01825
-0.30511,0.95167,-0.03517,0.02489,-0.00016,0.01398
-0.30446,0.95186,-0.03559,0.00646,0.00676,0.00328
-0.30416,0.95193,-0.03616,0.00848,0.00978,-0.00441
-0.30394,0.95198,-0.03689,0.01509,0.01001,0.00146
-0.3035,0.9521,-0.03742,0.01693,0.0089,0.00698
-0.30292,0.95227,-0.03767,0.00295,-0.0013,0.0215
-0.30257,0.95238,-0.03781,-0.00999,-0.00215,0.01291
-0.30275,0.95232,-0.03789,-0.01005,-0.00285,-0.00352
-0.30329,0.95214,-0.038,-0.00052,0.00047,-0.01618
-0.30379,0.95197,-0.03837,0.00531,0.01465,-0.01154
-0.30392,0.95191,-0.03866,0.00323,0.01937,0.00741
-0.30372,0.95197,-0.03873,-0.00235,0.01054,0.01886
-0.30354,0.95202,-0.03894,-0.01036,0.00669,0.00099
-0.30365,0.95197,-0.03936,-0.00647,0.00025,-0.01326
-0.30396,0.95185,-0.0398,0.01407,0.00266,-0.01861
-0.30421,0.95175,-0.04039,0.01704,0.00968,-0.00091
-0.30421,0.95173,-0.04079,0.01809,0.00529,0.00649
-0.30421,0.95173,-0.0409,0.01174,0.00857,0.00905
-0.3046,0.95159,-0.04115,0.00762,0.01185,-0.00829
-0.30528,0.95135,-0.04163,0.02277,0.00986,-0.00269
-0.30598,0.9511,-0.04218,0.03896,0.02026,0.01867
-0.30653,0.9509,-0.04266,0.0347,0.01243,0.03302
-0.30729,0.95065,-0.04285,0.04024,0.00328,0.04193
-0.30828,0.95034,-0.04268,0.04753,-0.00994,0.02826
-0.30927,0.95003,-0.04226,0.04578,0.01361,-0.00815
-0.31,0.94982,-0.04165,0.04377,0.02149,-0.01337
-0.31013,0.9498,-0.04123,0.04247,0.02675,-0.02127
-0.30971,0.94994,-0.04118,0.0105,0.00972,-0.01334
-0.30909,0.95012,-0.04159,0.0018,0.01007,-0.01271
-0.30829,0.95034,-0.0426,-0.00452,0.00221,-0.01775
-0.30766,0.95049,-0.04382,-0.00542,0.00538,-0.02383
-0.3075,0.9505,-0.04459,-0.00649,0.00287,-0.01858
-0.30757,0.95046,-0.045,0.00143,0.00289,-0.01688
-0.30816,0.95026,-0.0451,0.01145,0.00324,-0.00698
-0.30886,0.95005,-0.0449,0.00769,0.0063,0.00456
-0.30938,0.94987,-0.04508,0.01289,0.01055,-0.007
-0.30929,0.94988,-0.04554,0.00215,0.00392,-0.01559
-0.30857,0.95009,-0.04606,-0.00155,0.00443,-0.01182
-0.30758,0.95037,-0.04688,-0.0062,0.00975,-0.00748
-0.3068,0.95056,-0.04806,0.01223,0.01141,-0.00377
-0.3063,0.95066,-0.04919,0.01303,0.00655,-0.00462
-0.30583,0.95076,-0.05021,0.0099,-0.00112,0.00102
-0.3053,0.9509,-0.05087,-0.00029,-0.00148,0.00087
-0.3048,0.95105,-0.05097,-0.00722,-0.002,0.00028
-0.30446,0.95117,-0.05079,-0.02521,-0.00125,0.00202
-0.30436,0.95121,-0.05065,-0.02832,-0.00103,0.00368
-0.3043,0.95123,-0.05058,-0.02346,0.0023,0.00089
-0.304,0.95132,-0.05067,-0.01057,0.004,-0.00123
-0.30352,0.95147,-0.05088,-0.00858,0.00463,0.00381
-0.30313,0.95157,-0.05118,-0.00435,0.00709,0.00947
-0.30309,0.95156,-0.05164,0.00693,0.0095,0.00481
-0.30328,0.95148,-0.05204,0.01902,0.0126,-0.00153
-0.30344,0.9514,-0.05245,0.02495,0.01226,-0.0029
-0.30342,0.95139,-0.05293,0.0312,0.01279,0.00023
-0.30317,0.95145,-0.05331,0.03327,0.00791,0.00643
-0.30278,0.95156,-0.05347,0.03217,0.00477,0.00602
-0.30237,0.95168,-0.05365,0.02107,0.00454,-0.0068
-0.30208,0.95176,-0.05389,0.02632,0.00839,-0.00594
-0.30179,0.95184,-0.05407,0.0305,0.01122,0.00354
-0.30128,0.95201,-0.05394,0.02895,0.00977,0.00839
-0.30078,0.95219,-0.05355,0.006,0.006,0.00747
-0.30072,0.95223,-0.05309,0.00116,0.00077,-0.00387
-0.30114,0.95212,-0.05274,0.00147,0.00394,-0.0117
-0.30167,0.95196,-0.05258,0.00726,0.00757,-0.00812
-0.30183,0.95191,-0.0525,0.00596,0.01021,0.00219
-0.30167,0.95197,-0.05236,0.00231,0.00988,0.00416
-0.30145,0.95206,-0.05216,-0.00259,0.0109,0.00777
-0.30144,0.95206,-0.05204,-0.00305,0.00893,0.00759
-0.30169,0.95198,-0.05211,0.0205,0.00229,0.00407
-0.30204,0.95187,-0.05203,0.02328,-0.0013,0.00898
-0.30238,0.95178,-0.05177,0.02464,-0.00116,0.0155
-0.30265,0.95171,-0.05147,0.00329,0.00497,0.01874
-0.30306,0.95161,-0.05083,-0.01121,0.0041,0.01533
-0.30363,0.95147,-0.05016,-0.008,0.00806,0.00315
-0.30423,0.95129,-0.04982,-0.00577,0.01067,-0.00424
-0.30458,0.95119,-0.04976,0.02433,0.01016,-0.00041
-0.30455,0.95118,-0.04997,0.02431,0.01017,-0.0002
-0.30448,0.9512,-0.05015,0.01529,0.00782,0.01209
-0.30474,0.95113,-0.04992,0.01331,0.00903,0.00104
-0.30532,0.95096,-0.04947,0.01389,0.0092,0.0006
-0.30601,0.95076,-0.04918,0.01162,0.01088,-0.00898
-0.30658,0.95057,-0.04921,0.01369,0.01116,-0.00529
-0.30708,0.9504,-0.04938,0.01246,0.0091,0.00565
-0.30762,0.95022,-0.0495,0.01178,0.00574,0.01146
-0.30828,0.95,-0.04963,0.01472,0.00491,0.00775
-0.30904,0.94975,-0.04981,0.01491,0.00953,-0.00284
-0.30976,0.9495,-0.05004,0.01789,0.01356,-0.00325
-0.31033,0.9493,-0.05031,0.02257,0.00874,0.00384
-0.31082,0.94912,-0.05051,0.01822,0.00707,0.00876
-0.31138,0.94894,-0.05052,0.00345,0.00563,0.01014
-0.31202,0.94873,-0.0505,-0.0007,0.00372,0.00428
-0.31266,0.94851,-0.05068,-0.0035,0.00586,0.0008
-0.31329,0.94829,-0.05091,0.00036,0.00392,0.00532
-0.31396,0.94806,-0.05104,-0.00122,0.00073,0.00558
-0.31485,0.94776,-0.0511,-0.00456,-0.00138,0.01043
-0.31591,0.94741,-0.0512,-0.00475,-0.0006,0.00666
-0.31705,0.94702,-0.05141,-0.00143,0.00658,-0.00467
-0.31809,0.94664,-0.0518,0.00506,0.00999,-0.01197
-0.31879,0.94638,-0.05229,0.012,0.0112,-0.00675
-0.31914,0.94624,-0.0528,0.01163,0.01476,0.00057
-0.3194,0.94612,-0.05333,0.00251,0.01511,0.00511
-0.31976,0.94596,-0.05391,0.00143,0.00504,0.00129
-0.32006,0.94582,-0.05458,0.00855,0.00373,-0.00768
-0.32009,0.94577,-0.0553,0.00643,0.00735,-0.01034
-0.31978,0.94584,-0.05598,0.01386,0.00666,0.00086
-0.31922,0.94599,-0.05662,0.01281,0.00394,0.0077
-0.31861,0.94615,-0.05726,0.0075,0.00497,0.00721
-0.3181,0.94628,-0.05796,0.00256,0.00422,-0.01028
-0.31766,0.94639,-0.05871,0.00576,0.00799,-0.01052
-0.31718,0.9465,-0.05947,0.01294,0.01145,0.00198
-0.31665,0.94663,-0.06014,0.01639,0.0115,0.00688
-0.31626,0.94673,-0.06065,0.0047,0.00557,0.00475
-0.31626,0.94671,-0.06105,0.00048,0.00179,0.00124
-0.31646,0.94662,-0.06135,0.00903,0.00375,-0.00577
-0.31657,0.94656,-0.06166,0.02138,0.00684,-0.00473
-0.3164,0.94661,-0.06186,0.01414,0.00783,0.0033
-0.31612,0.9467,-0.06186,0.00247,0.00565,0.00116
-0.31602,0.94673,-0.06193,-0.00159,0.00919,-0.01184
-0.31596,0.94673,-0.06221,0.00828,0.00919,-0.01732
-0.31573,0.94678,-0.06269,0.01606,0.01028,-0.01519
-0.31533,0.94687,-0.06329,0.01586,0.00771,-0.0006
-0.31483,0.94701,-0.06365,0.01341,0.00143,0.0042
-0.3143,0.94718,-0.06382,0.00712,0.0018,-0.00135
-0.31377,0.94733,-0.0641,0.00138,0.00436,-0.01636
-0.31333,0.94745,-0.06447,0.00877,0.01077,-0.01624
-0.3129,0.94757,-0.06482,0.01509,0.00061,-0.0018
-0.3124,0.94772,-0.06501,0.01327,-0.00073,0.01127
-0.31201,0.94785,-0.06502,0.00867,0.00271,0.00998
-0.31178,0.94793,-0.06494,0.00671,0.00261,0.00352
-0.31159,0.948,-0.06488,0.01699,0.01077,-0.00953
-0.31133,0.94808,-0.06494,0.01673,0.01069,-0.00946
-0.31094,0.9482,-0.06502,0.02253,0.01168,0.00036
-0.31056,0.94834,-0.06487,0.02089,0.00714,0.00263
-0.31038,0.94842,-0.06449,0.01733,0.00547,-0.00309
-0.31033,0.94846,-0.06415,0.01734,0.00552,-0.01177
-0.31029,0.94848,-0.06399,0.021,0.0099,-0.01256
-0.31008,0.94856,-0.06394,0.02234,0.01179,-0.0113
-0.30962,0.94872,-0.06378,0.02417,0.01382,-0.00108
-0.30903,0.94893,-0.06358,0.01716,0.01125,-0.00064
-0.30846,0.94912,-0.06344,0.00982,0.0075,-0.01202
-0.30793,0.94928,-0.06358,0.00992,0.01024,-0.0192
-0.30724,0.94948,-0.064,0.01455,0.01369,-0.01557
-0.30632,0.94975,-0.06438,0.01815,0.01181,-0.00057
-0.30517,0.95009,-0.06478,0.01423,0.00544,0.0079
-0.30406,0.95042,-0.06516,0.00954,-0.00238,0.006
-0.30311,0.95069,-0.06561,0.0086,-0.00265,0.00645
-0.30228,0.95092,-0.06609,0.01166,-0.00125,-0.00564
-0.30146,0.95118,-0.06615,0.01346,-0.00216,-0.00353
-0.30061,0.95148,-0.06573,0.01723,0.0014,0.01414
-0.29985,0.95178,-0.06479,0.0168,0.00464,0.01795
-0.29939,0.95202,-0.06338,0.01614,0.00811,0.01135
-0.29942,0.95211,-0.06189,0.00241,0.01135,0.0009
-0.29978,0.95208,-0.06062,-0.00797,0.01075,-0.00921
-0.30033,0.95197,-0.05959,-0.00794,0.00244,-0.00306
-0.30092,0.95182,-0.05895,-0.01729,0.00025,-0.003
-0.30146,0.95168,-0.05847,-0.01858,0.00188,-0.00423
-0.30182,0.95159,-0.0581,-0.00641,0.00324,-0.00933
-0.30185,0.9516,-0.05785,0.00499,0.00595,-0.00694
-0.30156,0.95169,-0.05781,0.01252,0.01307,-0.00516
-0.30102,0.95186,-0.0578,0.01014,0.00898,0.00282
-0.30051,0.95203,-0.05777,0.00235,0.00317,0.00656
-0.3003,0.9521,-0.05773,-0.00424,0.00053,0.00586
-0.30033,0.95209,-0.05768,-0.0029,-0.00145,-0.00705
-0.30038,0.95207,-0.05767,0.00047,0.00118,-0.01141
-0.30038,0.95207,-0.05767,0.01013,0.00467,-0.00564
-0.30036,0.95209,-0.05748,0.01373,0.00212,0.00464
-0.30033,0.95212,-0.05717,0.00786,0.00493,0.00399
-0.30038,0.95212,-0.05683,0.00175,0.00315,-0.01097
-0.30057,0.95208,-0.05651,0.00728,0.00501,-0.01972
-0.30073,0.95205,-0.05625,0.01095,0.00912,-0.01607
-0.30074,0.95206,-0.05601,0.01534,0.00866,-0.00554
-0.30064,0.95211,-0.05571,0.00926,0.00613,-0.00042
-0.30067,0.95212,-0.05531,0.00657,0.00653,-0.00417
-0.30086,0.95209,-0.05481,0.00663,0.0074,-0.00475
-0.3011,0.95204,-0.05437,0.00914,0.00752,-0.01177
-0.30115,0.95204,-0.05406,0.01317,0.00555,-0.0089
-0.30101,0.9521,-0.05386,0.01262,0.00513,-0.00728
-0.30082,0.95217,-0.05357,0.00446,0.00303,0.00044
-0.30064,0.95225,-0.05316,0.00428,0.00295,3e-05
-0.30047,0.95232,-0.05284,0.00737,0.00519,-0.00694
-0.30022,0.95242,-0.0526,0.01316,0.01085,-0.01258
-0.29983,0.95255,-0.0524,0.01725,0.00843,-0.01254
-0.29937,0.95271,-0.05211,0.0147,0.00436,-0.00159
-0.29911,0.95282,-0.05168,0.00587,0.00365,-0.00671
-0.29899,0.95288,-0.05128,0.00616,0.00408,-0.01363
-0.29889,0.95292,-0.05096,0.00527,0.00392,-0.01874
-0.29863,0.95301,-0.05087,0.00574,0.00294,-0.0136
-0.29823,0.95314,-0.05073,0.02162,0.01374,-0.00673
-0.29775,0.95331,-0.05044,0.01755,0.00996,-0.00392
-0.29741,0.95343,-0.05011,0.00899,0.00625,-0.00605
-0.29731,0.95347,-0.04991,0.00833,0.00464,-0.01353
-0.29723,0.95351,-0.04972,0.01069,0.00382,-0.01141
-0.29688,0.95363,-0.04956,0.01361,0.00645,-0.00673
-0.29634,0.95381,-0.04934,0.01238,0.00673,-0.00912
-0.29573,0.95401,-0.04909,0.01202,0.00674,-0.00498
-0.29528,0.95416,-0.04888,0.00978,0.00495,-0.00576
-0.295,0.95426,-0.04861,0.0119,0.00356,-0.00684
-0.29475,0.95436,-0.04822,0.01441,0.00234,-0.00806
-0.29453,0.95445,-0.04763,0.01476,0.00418,-0.00292
-0.29442,0.95452,-0.04687,0.01189,0.00364,-0.00451
-0.2945,0.95455,-0.04592,0.00745,0.00285,-0.00555
-0.2947,0.95453,-0.04496,0.00715,0.00711,-0.00695
-0.29491,0.95451,-0.04412,0.00831,0.01061,-0.01089
-0.29513,0.95447,-0.04339,0.01056,0.00647,-0.00598
-0.29532,0.95444,-0.04268,0.01645,0.00376,-0.00064
-0.29553,0.95442,-0.04182,0.01578,0.00516,0.00116
-0.29579,0.95438,-0.04085,0.00566,0.00744,-0.00589
-0.29607,0.95433,-0.03991,0.00489,0.01114,-0.01098
-0.29623,0.95431,-0.03929,0.00823,0.01086,-0.01102
-0.29621,0.95433,-0.03894,0.01665,0.00766,-0.01102
-0.29595,0.95442,-0.03876,0.01702,0.01163,-0.00514
-0.29547,0.95457,-0.03859,0.00575,0.00638,-0.0054
-0.29504,0.95472,-0.03833,0.00376,0.00085,-0.00616
-0.29483,0.9548,-0.03794,0.00141,0.00038,-0.00872
-0.29486,0.9548,-0.03749,0.00284,0.00491,-0.00543
-0.29499,0.95478,-0.03711,0.01129,0.00715,-0.00552
-0.29505,0.95477,-0.03674,0.0087,0.01538,-0.0054
-0.29495,0.95482,-0.03627,0.01155,0.01413,-0.00476
-0.29478,0.95489,-0.03595,0.01297,0.00256,-0.00675
-0.29463,0.95494,-0.0358,0.00751,0.0018,-0.00907
-0.29447,0.95499,-0.03566,0.00949,0.00468,-0.00639
-0.2942,0.95508,-0.03555,0.00569,0.01033,-0.01218
-0.29379,0.95521,-0.03541,0.00452,0.00801,-0.00951
-0.29338,0.95534,-0.03535,0.00305,0.00444,-0.00978
-0.29305,0.95544,-0.0354,0.00256,0.00443,-0.00874
-0.29293,0.95548,-0.03531,-0.00653,-0.00318,-0.00481
-0.29287,0.95551,-0.03501,-0.0048,-0.00049,-0.00469
-0.29283,0.95553,-0.03476,-0.00809,0.00063,-0.00836
-0.29282,0.95554,-0.03456,0.00193,0.00556,-0.01258
-0.29284,0.95554,-0.03433,0.0039,0.00602,-0.00728
-0.2929,0.95554,-0.03407,0.00304,0.0059,-0.00559
-0.29305,0.9555,-0.03373,0.00243,0.00498,-0.00443
-0.29323,0.95546,-0.0334,0.0051,0.00569,-0.01108
-0.29324,0.95546,-0.0333,0.00416,0.00853,-0.01394
-0.29306,0.95551,-0.03329,0.00952,0.00661,-0.00809
-0.29273,0.95561,-0.03326,0.01068,0.00383,-0.00609
-0.29237,0.95573,-0.03324,0.01009,0.00591,-0.00431
-0.29211,0.95581,-0.03311,0.01188,0.00311,-0.00548
-0.29196,0.95586,-0.03287,0.00914,0.00437,-0.00969
-0.29189,0.95589,-0.03276,0.00689,0.00604,-0.00692
-0.29194,0.95588,-0.03266,0.00311,0.00042,-0.00519
-0.2922,0.95581,-0.03244,0.00364,-0.00071,-0.0049
-0.29262,0.95569,-0.03213,0.00328,0.00256,-0.00605
-0.29299,0.95559,-0.03181,0.01237,0.00817,-0.00472
-0.29322,0.95553,-0.03146,0.01412,0.01203,-0.00628
-0.29327,0.95552,-0.03119,0.01086,0.01028,-0.00715
-0.29327,0.95553,-0.03097,0.01056,0.00669,-0.007
-0.29335,0.95551,-0.03079,0.01198,0.00393,-0.00524
-0.29356,0.95545,-0.03054,0.01496,0.00313,-9e-05
-0.29389,0.95536,-0.03022,0.00984,0.00701,-0.00413
-0.29441,0.95522,-0.02977,0.01013,0.00676,-0.00459
-0.29506,0.95504,-0.02914,0.01118,0.0086,-0.00917
-0.29575,0.95484,-0.02851,0.00947,0.00764,-0.01279
-0.29642,0.95465,-0.02796,0.00677,0.00661,-0.0127
-0.29705,0.95447,-0.02754,0.00249,0.00653,-0.01032
-0.2977,0.95427,-0.02724,0.01179,0.0097,-0.01232
-0.29828,0.9541,-0.02702,0.01244,0.0098,-0.01457
-0.29866,0.95398,-0.02687,0.01265,0.008,-0.01525
-0.29879,0.95394,-0.02681,0.01318,0.00765,-0.01094
-0.29878,0.95394,-0.02689,0.01034,0.00648,-0.0104
-0.29874,0.95395,-0.02704,0.00232,0.00508,-0.01409
-0.29874,0.95394,-0.02728,0.01014,0.01536,-0.01314
-0.29885,0.9539,-0.02763,0.01064,0.00919,-0.0165
-0.29888,0.95388,-0.02787,0.01309,0.00699,-0.01017
-0.29883,0.95389,-0.02814,0.01264,0.00355,-0.00386
-0.29879,0.9539,-0.02833,0.00713,0.00275,-0.00933
-0.29888,0.95386,-0.02847,0.00123,0.00886,-0.01508
-0.29911,0.95379,-0.02853,0.00393,0.00522,-0.01454
-0.29944,0.95369,-0.02864,0.00734,0.00453,-0.01036
-0.29984,0.95356,-0.02871,0.00896,-0.0003,-0.00703
-0.30033,0.9534,-0.02864,0.00887,0.00584,-0.00609
-0.30086,0.95324,-0.0285,0.01114,0.00878,-0.0087
-0.30132,0.9531,-0.02839,0.01134,0.01103,-0.01204
-0.30168,0.95299,-0.02841,0.01556,0.01184,-0.01448
-0.30188,0.95292,-0.02863,0.01758,0.01173,-0.01288
-0.30195,0.95288,-0.02901,0.01447,0.00712,-0.00674
-0.30205,0.95284,-0.02934,0.01527,0.00591,-0.00078
-0.30221,0.95278,-0.02957,0.01383,0.00634,-0.00284
-0.30244,0.9527,-0.0297,0.01476,0.00701,-0.01137
-0.30272,0.95261,-0.02976,0.01233,0.00703,-0.00989
-0.303,0.95252,-0.02984,0.01067,0.00826,-0.00508
-0.30323,0.95245,-0.02992,0.00699,0.00314,-0.00495
-0.30348,0.95237,-0.02999,0.00619,0.00383,-0.00522
-0.30382,0.95226,-0.03004,0.00368,0.00555,-0.0102
-0.30427,0.95211,-0.0301,0.00331,0.00643,-0.01388
-0.30471,0.95196,-0.03032,0.00685,0.00458,-0.01366
-0.305,0.95186,-0.03067,0.00292,0.00118,-0.00976
-0.30517,0.95179,-0.03107,-0.00082,-0.00289,-0.01051
-0.30536,0.95172,-0.03141,-0.00174,0.00018,-0.01453
-0.30564,0.95162,-0.03174,-9e-05,0.00242,-0.01458
-0.30593,0.95151,-0.03209,0.0035,0.00361,-0.01136
-0.30614,0.95143,-0.03247,0.00191,0.0076,-0.00554
-0.30617,0.95141,-0.03289,-0.00308,0.00832,-0.00656
-0.30606,0.95143,-0.03323,-0.00167,0.00462,-0.007
-0.30584,0.95149,-0.03351,-0.00417,0.00439,-0.00879
-0.3057,0.95152,-0.03391,-0.00602,0.00157,-0.01145
-0.30564,0.95152,-0.03446,-0.00268,0.00047,-0.01005
-0.30563,0.9515,-0.03516,0.00778,0.00281,-0.00803
-0.30552,0.95151,-0.03585,0.012,0.00411,-0.00811
-0.30519,0.9516,-0.03637,0.01821,0.01061,-0.00635
-0.30468,0.95175,-0.03672,0.00599,0.004,-0.00364
-0.30418,0.95189,-0.03718,0.00549,0.00386,-0.00318
-0.30389,0.95196,-0.03765,-0.00301,0.00591,-0.01627
-0.30371,0.95201,-0.03799,0.00877,0.0047,-0.01226
-0.30345,0.95208,-0.03839,0.00901,0.00413,-0.00985
-0.3031,0.95217,-0.03884,0.00878,0.00239,-0.00559
-0.30277,0.95226,-0.03917,0.00488,0.00468,-0.00772
-0.30249,0.95234,-0.03947,0.00608,0.00587,-0.01157
-0.30216,0.95243,-0.03976,0.01386,0.01112,-0.01294
-0.30178,0.95254,-0.04003,0.0092,0.00442,-0.01071
-0.30146,0.95263,-0.04025,0.00541,0.00292,-0.00649
-0.30134,0.95266,-0.04051,0.00155,0.00445,-0.00553
-0.3014,0.95263,-0.0407,0.00908,0.00315,-0.00697
-0.30143,0.95261,-0.0409,0.0156,0.00843,-0.01353
-0.30129,0.95264,-0.04118,0.01525,0.00872,-0.01215
-0.30101,0.95272,-0.04147,0.00917,0.00668,-0.00978
-0.30076,0.95279,-0.04175,-0.00021,0.00371,-0.00957
-0.30066,0.95281,-0.04195,0.00102,0.00154,-0.01116
-0.30061,0.95281,-0.0422,0.00722,0.00043,-0.01711
-0.30052,0.95283,-0.04252,0.01364,0.00739,-0.01667
-0.30025,0.9529,-0.04286,0.01092,0.01036,-0.00647
-0.29992,0.95299,-0.0432,0.01417,0.00374,-0.00324
-0.2996,0.95308,-0.04343,0.01061,0.00424,-0.01036
-0.29938,0.95313,-0.04376,-0.00017,0.00738,-0.01854
-0.29927,0.95314,-0.04428,0.0037,0.00807,-0.01865
-0.29916,0.95315,-0.04482,0.01399,0.00556,-0.01426
-0.29891,0.95321,-0.04521,0.019,0.00455,-0.00256
-0.29856,0.95331,-0.04541,0.01354,0.00372,-0.00453
-0.2983,0.95338,-0.04559,0.0019,0.00548,-0.01172
-0.29818,0.95341,-0.04579,0.00128,0.00872,-0.01679
-0.29809,0.95343,-0.04597,0.00976,0.00778,-0.0128
-0.29799,0.95345,-0.04623,0.01224,0.00695,-0.00991
-0.29789,0.95347,-0.04637,0.01052,0.00421,-0.00371
-0.29786,0.95349,-0.04627,0.00847,-0.0003,-0.0027
-0.29789,0.95348,-0.04619,0.00692,0.0003,-0.00627
-0.29795,0.95346,-0.04628,0.00324,0.00766,-0.02101
-0.29803,0.95343,-0.04642,0.00935,0.00484,-0.01113
-0.29809,0.9534,-0.0466,0.01021,0.00377,-0.00647
-0.29809,0.9534,-0.04664,0.00967,0.00313,-0.00439
-0.29808,0.95341,-0.0465,0.0062,0.007,-0.01423
-0.29812,0.9534,-0.04634,0.00743,0.00737,-0.01729
-0.29822,0.95338,-0.04627,0.0093,0.00733,-0.02026
-0.29832,0.95334,-0.04632,0.01082,0.00299,-0.00846
-0.29847,0.95329,-0.04636,0.00919,0.00565,-0.00768
-0.29867,0.95324,-0.04622,0.01071,0.00326,-0.01013
-0.29887,0.95319,-0.04593,0.01216,0.00889,-0.0109
-0.29906,0.95315,-0.04559,0.01004,0.00549,-0.01334
-0.2993,0.95308,-0.04529,0.00867,0.00419,-0.01303
-0.29961,0.953,-0.04507,0.00765,0.00599,-0.01058
-0.30003,0.95287,-0.04488,0.00653,0.00663,-0.01047
-0.30048,0.95274,-0.04467,0.0165,0.00554,-0.01224
-0.30078,0.95265,-0.04447,0.01358,0.00802,-0.00947
-0.3009,0.95262,-0.0443,0.00856,0.00587,-0.01226
-0.30102,0.9526,-0.0441,-0.00028,0.00187,-0.01369
-0.30132,0.95251,-0.04383,0.00505,0.00298,-0.0115
-0.30171,0.9524,-0.04369,0.00901,0.00682,-0.01205
-0.30191,0.95234,-0.0436,0.01368,0.00906,-0.00777
-0.30189,0.95235,-0.04353,0.00527,0.006,-0.0071
-0.30183,0.95237,-0.04342,0.00096,0.00404,-0.00819
-0.3019,0.95235,-0.04335,0.00232,0.00169,-0.01551
-0.30209,0.95229,-0.04336,0.00301,0.00442,-0.01832
-0.30225,0.95224,-0.04343,0.01117,0.00699,-0.01076
-0.30223,0.95225,-0.04342,0.00585,0.00558,-0.00428
-0.30212,0.95229,-0.04327,0.00262,0.00363,-0.00526
-0.30212,0.9523,-0.04308,-0.00233,0.00219,-0.01097
-0.30222,0.95227,-0.04297,0.00481,0.00552,-0.01803
-0.30223,0.95227,-0.04293,0.00932,0.00788,-0.01586
-0.30203,0.95232,-0.04311,0.00854,0.00994,-0.01372
-0.30169,0.95242,-0.04333,0.01205,0.00679,-0.01007
-0.30121,0.95256,-0.04347,0.01003,0.00549,-0.00772
-0.30074,0.95271,-0.04357,0.00708,0.00128,-0.00716
-0.3004,0.95282,-0.04354,0.00253,-0.00073,-0.00903
-0.30027,0.95286,-0.04341,0.0047,-0.00018,-0.00719
-0.30023,0.95289,-0.0432,0.00587,0.00251,-0.00548
-0.3002,0.95291,-0.04291,0.00673,0.00453,-0.00123
-0.30021,0.95293,-0.04252,0.0037,0.00423,-0.00242
-0.30032,0.95291,-0.04204,-0.00214,0.00412,-0.0045
-0.30052,0.95287,-0.04158,0.00211,0.00695,-0.01051
-0.30063,0.95285,-0.04116,0.01462,0.00486,-0.00671
-0.30055,0.95289,-0.04078,0.01436,0.00664,-0.00361
-0.30043,0.95294,-0.04051,0.00877,0.00905,-0.0042
-0.30041,0.95296,-0.04021,0.00204,0.00628,-0.00243
-0.30051,0.95294,-0.03995,0.0011,0.00366,-0.0058
-0.30061,0.95292,-0.03979,0.00381,0.00651,-0.0115
-0.30073,0.95288,-0.03971,0.00719,0.00561,-0.00277
-0.30084,0.95285,-0.03962,0.00731,0.00565,-0.00286
-0.30107,0.95279,-0.03944,0.00279,0.00313,-0.00284
-0.30131,0.95272,-0.03923,0.00342,0.00802,-0.01362
-0.30147,0.95267,-0.03916,0.00324,0.00888,-0.01591
-0.30154,0.95265,-0.03917,0.00697,0.00815,-0.0146
-0.30152,0.95265,-0.03915,0.01158,0.00509,-0.00443
-0.30152,0.95266,-0.03908,0.01029,0.00533,-0.00445
-0.30156,0.95265,-0.039,0.00514,0.00704,-0.00938
-0.30161,0.95264,-0.03894,0.00995,0.00786,-0.01567
-0.30159,0.95264,-0.03892,0.01311,0.01051,-0.0147
-0.30152,0.95267,-0.0389,0.01631,0.00752,-0.00878
-0.30144,0.95269,-0.03892,0.01099,0.00398,-0.0044
-0.30153,0.95266,-0.03903,0.00558,0.00367,-0.00732
-0.30171,0.9526,-0.03916,0.00538,0.00453,-0.01102
-0.30184,0.95255,-0.03926,0.00774,0.00672,-0.01472
-0.30184,0.95255,-0.03928,0.01281,0.00837,-0.01112
-0.30167,0.95261,-0.03923,0.00883,0.00435,-0.00015
-0.30152,0.95266,-0.03915,-0.00137,0.00453,-0.00383
-0.30153,0.95265,-0.03914,-3e-05,0.00233,-0.01132
-0.30165,0.95261,-0.03925,0.0049,0.00644,-0.01551
-0.30169,0.95259,-0.03942,0.0137,0.00955,-0.01055
-0.30156,0.95263,-0.03952,0.01093,0.00906,-0.00154
-0.30136,0.95269,-0.03951,0.00431,0.00385,-0.00196
-0.30128,0.95272,-0.0395,-0.00281,0.00239,-0.00817
-0.30136,0.95269,-0.03952,-0.00052,0.00311,-0.0136
-0.30148,0.95265,-0.03966,0.00648,0.00205,-0.0185
-0.30154,0.95262,-0.03979,0.0075,0.004,-0.01064
-0.30154,0.95262,-0.03977,0.00688,0.00461,-0.00552
-0.30158,0.95261,-0.03966,0.00024,0.00561,0.00081
-0.30168,0.95259,-0.03956,0.00024,0.0046,-0.01245
-0.30172,0.95257,-0.03961,0.00285,0.00647,-0.02062
-0.30163,0.95259,-0.03979,0.00674,0.00593,-0.01783
-0.30141,0.95265,-0.04004,0.00047,0.00551,-0.00667
-0.3012,0.95271,-0.04022,0.00064,-0.00091,-0.00134
-0.3011,0.95274,-0.04021,-0.00084,0.00122,-0.00728
-0.3011,0.95275,-0.04019,0.00241,0.00447,-0.01805
-0.30106,0.95276,-0.04024,0.00579,0.00649,-0.02508
-0.30092,0.95279,-0.04038,0.00873,0.00665,-0.01988
-0.30066,0.95287,-0.04052,0.00119,0.00019,-0.00365
-0.30046,0.95293,-0.04051,0.0018,-0.00169,-0.00718
-0.30042,0.95295,-0.04039,0.00083,0.00167,-0.00641
-0.30048,0.95294,-0.0403,0.00841,0.00519,-0.02201
-0.30049,0.95294,-0.04028,0.00947,0.00991,-0.0187
-0.30026,0.953,-0.04036,0.00975,0.01009,-0.01486
-0.29989,0.95312,-0.04046,0.00834,0.00279,-0.00098
-0.29955,0.95322,-0.04051,0.00619,-0.00073,-0.00519
-0.29936,0.95328,-0.04056,0.0072,8e-05,-0.00897
-0.29924,0.95331,-0.04066,0.00633,0.00235,-0.01865
-0.29908,0.95335,-0.04083,0.00854,0.00368,-0.01899
-0.29886,0.95342,-0.04087,0.01703,0.0084,-0.00945
-0.29851,0.95354,-0.04063,0.01148,0.00128,-0.00263
-0.2982,0.95366,-0.04012,0.00975,-0.00162,-0.00308
-0.29805,0.95373,-0.03955,0.00029,0.00011,-0.00727
-0.29812,0.95373,-0.03901,0.00626,0.00733,-0.01757
-0.29827,0.9537,-0.03856,0.00922,0.00621,-0.01787
-0.29835,0.95369,-0.03827,0.012,0.00569,-0.01162
-0.29835,0.9537,-0.03797,0.00999,0.00789,-0.00786
-0.29825,0.95375,-0.03754,0.01158,0.00647,-0.00585
-0.29817,0.9538,-0.03701,0.01177,0.01055,-0.01075
-0.29812,0.95383,-0.03649,0.00642,0.00889,-0.01392
-0.29817,0.95383,-0.03614,0.00103,0.00905,-0.01636
-0.29832,0.95379,-0.03597,0.00398,0.00447,-0.01465
-0.29849,0.95374,-0.03583,0.01102,0.00543,-0.01083
-0.29859,0.95372,-0.03561,0.01603,0.00509,-0.01005
-0.29868,0.9537,-0.03525,0.0128,0.00711,-0.01055
-0.2988,0.95368,-0.03481,0.00657,0.00895,-0.01294
-0.29903,0.95362,-0.03439,0.0058,0.00927,-0.01486
-0.29931,0.95355,-0.03408,0.00819,0.00402,-0.01516
-0.29956,0.95347,-0.03388,0.00626,0.00171,-0.01099
-0.29985,0.95339,-0.03364,0.00677,0.00323,-0.01252
-0.30026,0.95328,-0.03329,0.01069,0.0016,-0.01605
-0.30075,0.95314,-0.03285,0.01874,0.0083,-0.0204
-0.30113,0.95303,-0.03245,0.02046,0.00953,-0.01933
-0.30131,0.95298,-0.03217,0.02117,0.01593,-0.01831
-0.30132,0.95299,-0.03196,0.01374,0.01248,-0.01792
-0.30125,0.95302,-0.03177,0.01173,0.00824,-0.01799
-0.30108,0.95307,-0.03177,0.00875,0.00717,-0.0192
-0.30085,0.95314,-0.03191,0.00718,0.00752,-0.01979
-0.30054,0.95323,-0.03208,0.01512,0.00395,-0.01085
-0.30006,0.95338,-0.03224,0.01655,0.00146,-0.00507
-0.29946,0.95356,-0.03229,0.0106,0.00204,-0.00206
-0.29898,0.95372,-0.0321,0.00824,-0.00014,-0.00353
-0.29875,0.9538,-0.03182,0.00647,0.00311,-0.0131
-0.29878,0.9538,-0.03144,0.01307,0.01298,-0.01583
-0.29885,0.9538,-0.03102,0.01315,0.01299,-0.01625
-0.29883,0.95381,-0.03081,0.01445,0.01314,-0.01486
-0.2987,0.95385,-0.0307,0.00639,0.00898,-0.01482
-0.29852,0.95391,-0.03057,0.0062,0.00891,-0.01495
-0.29825,0.954,-0.03049,0.00911,0.00454,-0.01213
-0.29778,0.95415,-0.03058,0.00171,-0.00014,-0.00922
-0.29711,0.95435,-0.03083,-0.0057,-0.00295,-0.00764
-0.29638,0.95456,-0.0312,-0.00773,-0.00098,-0.00305
-0.29571,0.95476,-0.03155,0.00371,0.00266,-0.00569
-0.29515,0.95492,-0.03177,0.00812,0.00219,-0.00379
-0.29471,0.95506,-0.03183,0.00917,0.00442,0.00093
-0.29438,0.95516,-0.03173,0.00721,0.00693,-0.0009
-0.29412,0.95525,-0.03154,0.00013,0.00613,-0.01022
-0.29393,0.95531,-0.03141,-0.00229,0.00189,-0.01449
-0.29371,0.95538,-0.03132,-0.00281,0.00382,-0.0172
-0.29341,0.95547,-0.03135,-0.00126,0.00305,-0.00532
-0.29307,0.95557,-0.03142,-0.00573,0.00089,0.00014
-0.29283,0.95565,-0.0314,-0.0089,0.00038,-0.00046
-0.29279,0.95566,-0.0313,-0.00874,-0.00172,-0.00599
-0.29294,0.95562,-0.0313,0.00171,0.00881,-0.01162
-0.29312,0.95556,-0.03131,0.00833,0.00915,-0.01033
-0.2932,0.95554,-0.03121,0.01122,0.00938,-0.00795
-0.29317,0.95555,-0.0311,0.00395,0.0028,-0.00465
-0.29311,0.95558,-0.03093,-0.00218,0.00231,-0.00902
-0.29315,0.95557,-0.03088,-0.00248,0.00401,-0.01629
-0.29325,0.95553,-0.03097,0.01242,0.00714,-0.01906
-0.29328,0.95552,-0.0312,0.01077,0.00647,-0.0076
-0.29319,0.95554,-0.03148,0.00909,0.00494,-0.00596
-0.29316,0.95554,-0.03161,0.01383,0.00425,-0.00649
-0.29319,0.95553,-0.03157,0.01363,0.00832,-0.01113
-0.29324,0.95552,-0.03144,0.01446,0.00714,-0.01255
-0.29322,0.95553,-0.03141,0.01031,0.01188,-0.01406
-0.29314,0.95554,-0.03164,0.01188,0.00503,-0.01141
-0.29307,0.95556,-0.03193,0.0155,0.00517,-0.0089
-0.29297,0.95558,-0.03216,0.01561,0.0059,-0.00559
-0.29286,0.95561,-0.03228,0.00981,0.00293,-0.00833
-0.29285,0.95561,-0.03236,0.00449,0.00546,-0.01236
-0.29293,0.95558,-0.03252,0.00553,0.00685,-0.01411
-0.29301,0.95555,-0.03266,0.00648,0.00855,-0.00787
-0.29303,0.95554,-0.03286,0.00621,0.00522,-0.00742
-0.29304,0.95552,-0.03311,0.00319,0.00501,-0.00847
-0.29308,0.95551,-0.03331,0.00581,0.00493,-0.01154
-0.29319,0.95547,-0.0335,0.00546,0.00505,-0.01209
-0.29336,0.9554,-0.03377,0.00784,0.00335,-0.00993
-0.29364,0.95531,-0.03399,0.00277,0.00337,-0.00831
-0.29407,0.95518,-0.03408,0.00367,0.00434,-0.00885
-0.2945,0.95504,-0.03409,0.00845,0.00767,-0.01114
-0.29487,0.95493,-0.03419,0.00879,0.00621,-0.0142
-0.2951,0.95485,-0.03441,0.00965,0.00623,-0.01571
-0.29522,0.9548,-0.03473,0.01115,0.00886,-0.01173
-0.29531,0.95476,-0.03505,0.01003,0.00384,-0.00869
-0.29544,0.95471,-0.0353,0.0078,0.00176,-0.00741
-0.29565,0.95464,-0.03546,0.0072,0.00172,-0.0152
-0.2959,0.95456,-0.0355,0.00867,0.00215,-0.01278
-0.29603,0.95451,-0.03564,0.00902,0.00325,-0.01557
-0.29609,0.95448,-0.03595,0.00717,0.00554,-0.0161
-0.29614,0.95445,-0.03625,0.00578,0.00094,-0.01377
-0.29628,0.95441,-0.03645,0.0112,0.00253,-0.00963
-0.29646,0.95435,-0.03648,0.01077,0.00355,-0.00671
-0.29661,0.9543,-0.03657,0.00914,0.00795,-0.00732
-0.29671,0.95426,-0.0367,0.00855,0.00997,-0.01326
-0.29671,0.95426,-0.03675,0.0089,0.00755,-0.01043
-0.29664,0.95428,-0.03684,0.01008,0.00565,-0.01064
-0.29659,0.95429,-0.03701,0.00948,0.00491,-0.00907
-0.29666,0.95426,-0.03725,0.00647,0.00267,-0.00871
-0.29685,0.95419,-0.03739,0.00813,0.00215,-0.0096
-0.29703,0.95413,-0.03753,0.00945,0.00534,-0.00906
-0.29716,0.95409,-0.03764,0.01109,0.00771,-0.01306
-0.29722,0.95407,-0.03769,0.01056,0.00715,-0.01001
-0.29729,0.95404,-0.03779,0.00948,0.00328,-0.01115
-0.29745,0.95398,-0.03794,0.01054,0.01283,-0.01348
-0.29773,0.95388,-0.03816,0.00632,0.00485,-0.01619
-0.29807,0.95378,-0.03821,0.00783,0.00664,-0.01701
-0.29842,0.95367,-0.03826,0.01259,0.00539,-0.01167
-0.29867,0.95359,-0.03829,0.01151,0.00685,-0.0131
-0.29889,0.95352,-0.03819,0.01265,0.00635,-0.01439
-0.2991,0.95346,-0.03808,0.00812,0.00029,-0.01215
-0.29939,0.95337,-0.03806,0.00827,0.00761,-0.01171
-0.29982,0.95324,-0.03805,0.00906,0.00363,-0.01164
-0.30022,0.95311,-0.03803,0.01015,-0.00064,-0.00837
-0.30052,0.95302,-0.03791,0.0072,0.00277,-0.011
-0.3008,0.95295,-0.03758,0.00369,0.00334,-0.01206
-0.30121,0.95283,-0.03726,0.00596,0.00577,-0.01892
-0.30171,0.95268,-0.03702,0.0092,0.01038,-0.0211
-0.30231,0.9525,-0.03681,0.01243,0.00911,-0.02685
-0.30291,0.95232,-0.03658,0.01738,0.00802,-0.02603
-0.30335,0.95219,-0.03625,0.01276,0.01178,-0.02741
-0.30361,0.95212,-0.03584,0.01398,0.01551,-0.02274
-0.30373,0.95209,-0.03574,0.01386,0.02123,-0.02469
-0.30371,0.95208,-0.03615,0.01338,0.01513,-0.02281
-0.30353,0.95211,-0.03689,0.01306,0.00775,-0.01779
-0.30324,0.95216,-0.03793,-0.00048,-0.00152,-0.00661
-0.30303,0.95219,-0.0389,-0.00196,-0.0044,-0.00505
-0.30298,0.95217,-0.03957,0.00228,-0.00888,-0.00372
-0.3031,0.95212,-0.04008,0.01365,-0.00668,-0.00374
-0.30343,0.952,-0.04022,0.01551,0.00164,-0.00876
-0.30401,0.95183,-0.0399,0.01658,0.00743,-0.00972
-0.30481,0.9516,-0.0393,0.0231,0.01237,-0.0167
-0.30561,0.95137,-0.0387,0.02112,0.01193,-0.02147
-0.30624,0.95118,-0.03826,0.01654,0.01119,-0.02475
