gravity.x,gravity.y,gravity.z,userAcceleration.x,userAcceleration.y,userAcceleration.z
0.30494,0.95224,0.01575,-0.00041,0.00154,-0.00964
0.30504,0.95222,0.01528,0.0034,-0.00356,-0.00524
0.3051,0.9522,0.01487,0.00725,0.00205,0.00453
0.30515,0.95219,0.01456,0.00218,0.00653,0.00511
0.30518,0.95218,0.01432,-5e-05,0.00776,-0.00323
0.30522,0.95218,0.01392,-0.00053,0.00708,-0.0108
0.30526,0.95217,0.01355,0.00149,0.00831,-0.01198
0.30532,0.95216,0.01333,0.00364,-0.00285,-0.00527
0.30535,0.95215,0.01316,-0.00017,0.00079,0.01203
0.30536,0.95215,0.01324,-0.00248,0.00373,0.01212
0.3053,0.95216,0.01334,-0.00075,0.01087,-0.00995
0.30523,0.95218,0.01339,-0.00246,0.01126,-0.01821
0.30517,0.9522,0.01331,0.00128,0.00455,-0.01653
0.30509,0.95223,0.01324,0.00665,0.00222,-0.00024
0.30501,0.95226,0.01315,0.00253,0.00407,0.00186
0.30492,0.95229,0.01315,0.0012,0.00388,-0.00095
0.3049,0.95229,0.01319,0.00245,0.00509,-0.00747
0.30494,0.95228,0.01331,0.00203,0.00481,-0.01386
0.30496,0.95227,0.01338,0.00099,0.00467,-0.01326
0.30491,0.95229,0.0134,-0.00192,0.00316,-0.00078
0.3048,0.95232,0.01337,0.0021,0.0027,0.00283
0.30471,0.95235,0.01345,0.00614,0.00599,0.00506
0.30469,0.95235,0.01368,-4e-05,0.00886,0.00153
0.30468,0.95235,0.01402,-0.00556,0.00885,-0.00369
0.30467,0.95235,0.01425,-0.00265,0.00395,-0.01244
0.30467,0.95235,0.01436,0.00246,0.00056,-0.00868
0.30466,0.95235,0.01461,-0.00017,0.00242,0.00614
0.30458,0.95237,0.01487,-0.00599,0.00675,0.00501
0.30445,0.95241,0.01494,-0.00272,0.00938,-0.00781
0.3043,0.95246,0.01491,0.00093,0.00523,-0.01171
0.30416,0.9525,0.01496,0.00527,0.00206,-0.00846
0.3041,0.95252,0.01513,0.00445,0.00613,-1e-05
0.30407,0.95252,0.01538,-0.00086,0.00687,0.00338
0.3041,0.95251,0.01576,-0.00321,0.00783,-0.0005
0.3041,0.9525,0.01603,-0.00098,0.01098,-0.01002
0.30411,0.9525,0.01616,0.0054,0.01245,-0.01076
0.30413,0.95249,0.01626,0.00397,0.00353,-0.00889
0.30411,0.9525,0.01634,-4e-05,-0.00139,-0.00384
0.3041,0.9525,0.01638,0.00208,0.0054,-0.00863
0.30416,0.95248,0.01639,0.00802,0.00562,-0.0115
0.30426,0.95244,0.01664,0.01048,0.00183,-0.00793
0.30444,0.95237,0.0172,-0.00077,0.00794,-0.00954
0.3047,0.95228,0.01774,-0.00531,0.01773,-0.00605
0.30498,0.95219,0.01787,-0.01697,0.01841,0.0112
0.30515,0.95215,0.01727,-0.0367,0.01199,0.0267
0.30487,0.95226,0.01608,-0.01952,0.01857,0.01416
0.30413,0.95251,0.01484,0.02129,-0.00714,0.00599
0.30335,0.95276,0.01499,0.05769,-0.03975,-0.01499
0.30304,0.95284,0.01641,0.04918,-0.03377,-0.0179
0.30327,0.95273,0.01832,0.02104,-0.00905,-0.02366
0.30402,0.95246,0.01979,-0.00751,0.02488,-0.02372
0.30487,0.95218,0.02022,-0.02151,0.03848,-0.02334
0.30568,0.95193,0.01955,-0.03497,0.04186,-0.00203
0.30589,0.9519,0.01793,-0.0325,0.01409,0.02024
0.30544,0.95208,0.01597,-0.01143,-0.0082,0.01472
0.30451,0.9524,0.01437,0.03549,-0.01925,-0.0126
0.30396,0.95258,0.01397,0.03436,-0.01127,-0.01113
0.30384,0.95261,0.01489,0.02447,-0.00056,-0.01002
0.30413,0.95248,0.01656,-0.00519,0.01747,-0.00229
0.30462,0.9523,0.01798,-0.01403,0.01672,-0.00344
0.30508,0.95214,0.01862,-0.02217,0.01415,-0.01258
0.30505,0.95216,0.01819,-0.01127,0.00933,-0.01849
0.3046,0.95233,0.01708,0.00328,0.00098,-0.01385
0.30395,0.95255,0.01596,0.0201,-0.00311,-0.00344
0.3035,0.95271,0.01534,0.02451,-0.00349,0.0011
0.30339,0.95274,0.01541,0.01764,0.00722,-0.00318
0.30363,0.95266,0.01585,0.00495,0.00871,-0.01416
0.30406,0.95251,0.01632,-0.00658,0.00818,-0.01576
0.30443,0.95239,0.01662,-0.01582,0.00951,-0.00733
0.30457,0.95234,0.01662,-0.01,0.01339,0.00018
0.30446,0.95238,0.01632,-0.00946,0.00926,0.00385
0.30418,0.95248,0.01593,-0.00323,0.00711,-0.00771
0.30386,0.95259,0.01566,0.00921,0.00492,-0.00791
0.30364,0.95266,0.01565,0.01083,0.00265,-0.00259
0.30353,0.95269,0.01587,0.00526,0.00236,-0.00212
0.30351,0.95269,0.01629,0.00167,0.0043,-0.00391
0.30353,0.95267,0.01671,-0.00472,0.00607,-0.00826
0.30347,0.95269,0.01692,-0.00612,0.00718,-0.01123
0.30324,0.95277,0.01667,-0.00194,0.00722,-0.01182
0.30297,0.95286,0.01622,0.00712,0.00451,-0.01384
0.30275,0.95294,0.01573,0.00966,0.00327,-0.00044
0.30264,0.95298,0.01543,0.00938,0.00161,0.00273
0.30263,0.95298,0.01535,0.00568,0.00522,-0.00436
0.30271,0.95296,0.01533,0.0073,0.01376,-0.01423
0.30285,0.95291,0.01525,0.00185,0.0102,-0.01214
0.30303,0.95286,0.01499,-0.00264,0.00711,-0.0013
0.30305,0.95287,0.0144,-0.01656,0.00317,0.00881
0.30278,0.95296,0.01402,-0.00293,0.00874,-0.00245
0.30238,0.95309,0.01354,0.01475,0.00649,-0.01876
0.30198,0.95323,0.01279,0.02009,-0.00264,-0.01422
0.30171,0.95331,0.01282,0.0103,-0.01299,-0.0049
0.30167,0.95332,0.01341,0.00279,0.00435,0.003
0.30181,0.95326,0.01393,-0.01125,0.02115,0.02382
0.30186,0.95324,0.01459,-0.01566,0.02218,0.0202
0.30167,0.9533,0.01486,-0.00986,0.01431,-0.00636
0.30125,0.95344,0.01426,0.00268,0.00753,-0.01505
0.30065,0.95364,0.0136,0.01297,-0.01135,-0.0177
0.30006,0.95382,0.0134,0.0291,-0.01089,-0.02352
0.29976,0.95391,0.01364,0.03093,-0.00683,-0.02341
0.29981,0.95389,0.0145,0.02189,0.00508,-0.02402
0.30023,0.95374,0.01562,0.00418,0.00032,-0.02994
0.30064,0.9536,0.01636,0.00173,-0.00534,-0.03375
0.30078,0.95355,0.01666,0.01973,0.00236,-0.02835
0.30069,0.95357,0.01682,0.01538,0.02021,-0.01783
0.30058,0.95361,0.01642,-0.00096,0.00076,-0.0048
0.30029,0.95372,0.01541,0.00902,-0.02252,0.01238
0.3001,0.95379,0.01476,0.00706,-0.00939,-0.00163
0.30032,0.95373,0.01457,-0.00349,0.00566,-0.00282
0.30066,0.95362,0.01469,-0.06009,0.03433,0.00655
0.30072,0.9536,0.01462,-0.04183,0.03914,0.00731
0.30049,0.95367,0.01439,-0.01909,0.0338,0.00471
0.3002,0.95377,0.0143,0.01381,-0.00318,-0.00299
0.29964,0.95394,0.01447,0.01503,-0.0073,-0.00939
0.29893,0.95416,0.01487,0.01705,-0.00793,-0.01239
0.29825,0.95436,0.01541,0.02754,-0.00086,-0.03276
0.29798,0.95444,0.01599,0.01995,0.00542,-0.03876
0.29795,0.95444,0.01634,0.00309,0.0049,-0.02268
0.29806,0.9544,0.0166,-0.00208,0.00345,-0.0155
0.29828,0.95433,0.01679,-0.0123,0.00346,-0.00817
0.29834,0.95431,0.01685,-0.00369,0.01337,-0.01607
0.29825,0.95434,0.01682,0.00166,0.01092,-0.01926
0.29819,0.95436,0.01646,0.00666,0.01039,-0.01562
0.29812,0.9544,0.01596,-0.00272,0.00465,0.00484
0.29808,0.95442,0.01544,-0.00627,0.00283,0.01439
0.29797,0.95446,0.01509,-0.01055,0.00064,0.01596
0.29766,0.95455,0.01504,-0.00513,0.00237,0.00452
0.29722,0.95469,0.01532,0.00462,0.00137,-0.0148
0.29678,0.95481,0.01604,0.01591,-0.00043,-0.02022
0.29655,0.95486,0.01737,0.01661,0.00109,-0.01431
0.29667,0.95479,0.01904,0.00662,0.00467,-0.01382
0.29704,0.95464,0.02057,-0.00161,0.01452,-0.01609
0.29746,0.9545,0.02126,-0.02263,0.02361,-0.02207
0.29769,0.95443,0.0212,-0.01841,0.02076,-0.02319
0.29757,0.95448,0.02049,-0.00174,0.00066,-0.02146
0.29704,0.95467,0.01941,0.0151,-0.01601,-0.00622
0.29635,0.9549,0.01851,0.02868,-0.01609,0.00578
0.29581,0.95507,0.0182,0.03224,-0.0063,0.0022
0.29568,0.95511,0.01865,0.02624,-0.00192,-0.00423
0.29595,0.955,0.01969,0.01306,0.00058,-0.00609
0.29644,0.95482,0.02093,0.00308,0.00117,-0.00231
0.29692,0.95465,0.02192,-0.00122,-0.00046,-0.00154
0.29717,0.95456,0.02245,-0.00095,0.00166,-0.00124
0.2973,0.95452,0.0223,-0.00507,0.01108,-0.00882
0.29733,0.95453,0.02175,-0.0073,0.01628,-0.00834
0.29744,0.9545,0.02123,0.00156,0.01895,-0.00913
0.29775,0.95441,0.02119,-0.00788,0.00708,-0.00628
0.29817,0.95427,0.02165,-0.01411,0.00296,-0.00837
0.2985,0.95415,0.02231,-0.01351,0.0043,-0.01512
0.29861,0.9541,0.02298,-0.00311,0.01091,-0.02295
0.2986,0.95409,0.02351,0.00624,0.01069,-0.02396
0.29848,0.95411,0.02395,0.00686,0.00513,-0.02269
0.29833,0.95416,0.02413,0.00969,0.00588,-0.02099
0.29822,0.9542,0.02399,0.01167,0.00523,-0.01827
0.29826,0.95419,0.02375,0.00551,0.00583,-0.00461
0.29844,0.95413,0.02377,0.0013,0.00635,0.00719
0.29868,0.95405,0.02399,-0.00324,0.00602,0.01069
0.29892,0.95397,0.02416,-0.00282,0.00529,0.0017
0.29908,0.95392,0.0243,-0.0005,0.00566,-0.0069
0.29916,0.95389,0.02436,-3e-05,0.00428,-0.00817
0.2992,0.95388,0.02446,0.00085,0.00517,-0.00729
0.29923,0.95386,0.02453,0.00523,0.00521,-0.00277
0.29928,0.95385,0.02461,0.00843,0.00439,-0.00388
0.29938,0.95382,0.02463,0.00397,0.01003,-0.00486
0.29953,0.95377,0.02451,0.00153,0.01078,-0.00899
0.29972,0.95372,0.02428,0.00325,0.01047,-0.00901
0.29995,0.95365,0.02395,0.00064,0.00536,-0.00618
0.30014,0.9536,0.02354,0.00152,0.00529,-0.00423
0.30027,0.95358,0.02296,0.00202,2e-05,-0.00108
0.30037,0.95356,0.02228,0.00321,-0.00735,-0.0022
0.30043,0.95355,0.02172,0.00485,0.0023,-0.00878
0.30042,0.95357,0.02133,0.01193,0.0023,-0.00799
0.3003,0.95361,0.02099,0.01102,-0.0043,-0.00143
0.30012,0.95368,0.02068,0.00821,-0.00623,0.00987
0.29996,0.95373,0.0204,0.01303,3e-05,0.01058
0.29983,0.95378,0.02033,0.0084,0.0008,0.01081
0.29984,0.95376,0.02089,0.0091,0.00385,0.00367
0.30008,0.95366,0.02179,-0.00991,0.0108,-0.02096
0.30013,0.95363,0.02265,0.00561,-0.00185,-0.03271
0.30009,0.95362,0.0235,0.01755,-0.00643,-0.04065
0.30019,0.95357,0.0242,0.00555,0.00823,-0.0526
0.30024,0.95355,0.02449,0.00231,0.01261,-0.04466
0.30012,0.9536,0.02402,0.00503,0.01834,-0.03838
0.29999,0.95366,0.02295,0.00993,0.01861,-0.02373
0.29987,0.95373,0.02169,0.00866,0.00876,-0.01618
0.29974,0.95379,0.02071,0.00522,-6e-05,-0.00486
0.29973,0.9538,0.02051,0.00135,-0.0049,-0.00235
0.29985,0.95376,0.02082,6e-05,-0.0015,0.00123
0.30001,0.9537,0.02129,-0.00271,0.00492,-0.00365
0.30011,0.95366,0.0217,-0.00152,0.00922,-0.01068
0.30006,0.95367,0.02192,0.00557,0.00797,-0.01212
0.29992,0.95371,0.02194,0.01015,0.00761,-0.01259
0.29981,0.95375,0.02178,0.0099,0.00627,-0.01432
0.29971,0.95379,0.02145,0.00658,0.0032,-0.01435
0.29963,0.95382,0.02108,0.00558,0.0029,-0.01026
0.29959,0.95384,0.02086,0.00554,0.00319,-0.00923
0.2996,0.95384,0.02069,0.00667,0.0049,-0.011
0.29966,0.95383,0.02057,0.0025,0.00434,-0.01091
0.29965,0.95383,0.02048,0.00128,0.00447,-0.01158
0.29958,0.95386,0.02028,0.00314,-0.00024,-0.01297
0.29945,0.9539,0.02002,0.00922,-0.00059,-0.00288
0.29935,0.95394,0.01978,0.00493,-0.00039,0.00185
0.29927,0.95397,0.01951,0.00208,0.0043,-0.00522
0.29918,0.954,0.0192,0.00392,0.0078,-0.00987
0.2991,0.95404,0.01891,0.00225,0.00515,-0.0119
0.29905,0.95405,0.01879,0.00297,0.00071,-0.00906
0.299,0.95407,0.01884,0.00112,-0.00064,-0.00529
0.29895,0.95408,0.01898,0.00051,0.00254,-0.00773
0.29889,0.9541,0.01891,0.00558,0.00556,-0.01787
0.29879,0.95413,0.01881,0.01038,0.00893,-0.02037
0.29871,0.95416,0.01874,0.0046,-0.00439,-0.0191
0.29865,0.95418,0.01879,0.00404,0.00517,-0.01591
0.29859,0.9542,0.01883,0.00249,0.01159,-0.01406
0.29856,0.95421,0.01875,0.00347,0.00968,-0.01819
0.29857,0.9542,0.01858,0.00193,0.01004,-0.02147
0.2986,0.9542,0.01822,0.00114,0.00588,-0.02038
0.29859,0.95421,0.0178,-0.00097,0.00242,-0.02126
0.29858,0.95423,0.01742,-0.00022,0.00346,-0.01581
0.29851,0.95425,0.01712,0.00027,0.00489,-0.01083
0.29841,0.95429,0.01687,0.00263,0.00648,-0.00631
0.29833,0.95431,0.01689,-0.0003,0.00705,-0.00525
0.29829,0.95432,0.01701,-0.00076,0.00812,-0.01283
0.29826,0.95433,0.01717,0.00051,0.00571,-0.01737
0.29822,0.95434,0.01738,0.00099,0.00643,-0.01618
0.29818,0.95435,0.01759,0.00274,0.00473,-0.011
0.29808,0.95438,0.01779,-0.00367,0.00645,-0.00576
0.29798,0.9544,0.01787,-0.0027,0.00832,-0.013
0.29789,0.95443,0.01786,-0.00242,0.0066,-0.01766
0.2978,0.95447,0.01769,0.0021,0.00701,-0.02005
0.29772,0.95449,0.01759,0.00398,0.00387,-0.01451
0.29767,0.95451,0.01759,0.00162,0.00701,-0.0077
0.29764,0.95452,0.01766,-0.00049,0.00742,-0.00949
0.29765,0.95451,0.01774,0.0012,0.01268,-0.01514
0.2977,0.95449,0.01778,0.00297,0.01532,-0.02008
0.29783,0.95446,0.0177,0.00671,0.01089,-0.02112
0.29802,0.9544,0.01756,0.00781,0.00953,-0.01564
0.29833,0.9543,0.01734,0.00295,0.013,-0.00431
0.29868,0.9542,0.01702,-0.00496,0.01237,-0.00434
0.29897,0.95412,0.01645,-0.0095,0.00821,-0.00867
0.29911,0.95409,0.01567,-0.00683,-0.00435,-0.01565
0.29914,0.95409,0.01498,0.0023,-0.00786,-0.0115
0.29918,0.95409,0.01455,0.0132,-0.00421,-0.00472
0.29931,0.95405,0.01452,0.00885,0.00338,0.0044
0.29955,0.95396,0.01491,0.00391,0.00671,0.00016
0.2998,0.95388,0.01524,-0.00099,0.01315,-0.00996
0.30006,0.9538,0.01531,0.0015,0.00397,-0.02698
0.30017,0.95377,0.01514,0.00551,-0.00436,-0.02475
0.30013,0.95378,0.01486,0.00975,-0.00574,-0.02066
0.29995,0.95384,0.01467,0.00169,-0.00818,-0.00532
0.29966,0.95393,0.01488,0.00378,-0.00717,-0.01252
0.29926,0.95404,0.01557,0.00851,-0.00655,-0.01592
0.29897,0.95412,0.01655,0.00773,0.00322,-0.01905
0.29871,0.95419,0.01747,0.00984,-0.00329,-0.01953
0.29836,0.95428,0.01809,0.02296,-0.00871,-0.01759
0.29821,0.95431,0.01881,0.01476,0.01178,-0.02665
0.29837,0.95425,0.01938,-0.00805,0.02576,-0.02398
0.29851,0.9542,0.01979,-0.02298,0.02376,-0.01136
0.29845,0.95422,0.01961,-0.01071,0.01091,-0.00936
0.29827,0.95429,0.01903,-0.00254,0.0064,-0.0054
0.29801,0.95438,0.01862,-0.00483,0.00509,-0.0026
0.29771,0.95447,0.01869,0.00066,0.00419,-0.00482
0.29752,0.95452,0.01944,0.00923,0.00166,-0.01273
0.29761,0.95446,0.02068,0.00484,-0.00955,-0.01821
0.29762,0.95444,0.02176,0.01054,0.00923,-0.02335
0.29749,0.95447,0.02232,0.0013,0.01271,-0.03113
0.29742,0.95447,0.02288,-0.00174,0.01579,-0.03449
0.29736,0.95448,0.02342,0.01424,0.00321,-0.03116
0.29731,0.95448,0.02385,0.01586,-0.00203,-0.02098
0.29721,0.95451,0.02412,0.01493,0.00826,-0.01734
0.29704,0.95456,0.02412,0.00684,0.00911,-0.01941
0.29709,0.95455,0.02404,0.00804,0.01549,-0.00995
0.29729,0.95449,0.02404,0.00163,0.00447,-0.00221
0.29749,0.95442,0.02417,-0.0026,-0.00511,0.00203
0.29753,0.9544,0.02431,0.0158,-0.00274,-0.02046
0.29749,0.95441,0.02455,0.01986,0.00032,-0.02153
0.29747,0.95441,0.02493,0.02327,0.00604,-0.02107
0.29747,0.95439,0.02539,0.00778,0.00401,-0.01666
0.29748,0.95438,0.02587,0.00257,0.00677,-0.01663
0.29746,0.95437,0.02626,9e-05,0.00801,-0.01099
0.29736,0.9544,0.02653,-0.00048,0.00379,-0.01714
0.29712,0.95446,0.02683,0.00545,0.0026,-0.02051
0.29689,0.95452,0.02715,0.00651,0.00266,-0.02105
0.29678,0.95455,0.0275,0.00387,0.0039,-0.01264
0.29674,0.95455,0.02787,0.00048,0.0053,-0.01052
0.2968,0.95452,0.02815,-0.00025,0.00411,-0.01764
0.29682,0.95451,0.02842,0.00415,0.01369,-0.01389
0.29682,0.95451,0.02846,0.00319,0.02149,-0.00055
0.29693,0.95448,0.02827,-0.00762,0.01474,0.00544
0.29708,0.95444,0.02805,-0.01914,0.00357,0.00318
0.29719,0.95441,0.02785,-0.00378,-0.00289,-0.00173
0.29717,0.95442,0.02791,-0.00878,-0.00288,0.00074
0.29707,0.95444,0.02839,-0.01254,0.00534,-0.00022
0.29687,0.95448,0.02899,-0.00564,0.01304,-0.00371
0.29674,0.9545,0.02966,-0.00278,0.00917,-0.01106
0.29673,0.95448,0.03034,-0.00798,0.01348,-0.0169
0.29672,0.95447,0.03062,-0.02185,0.01823,-0.01197
0.29661,0.95451,0.03044,-0.00653,0.01366,-0.00894
0.29641,0.95459,0.03,0.00672,0.00733,-0.00757
0.29611,0.9547,0.02944,0.02962,-0.00412,-0.00917
0.29579,0.95481,0.02891,0.04434,-0.01475,-0.02415
0.29555,0.95489,0.02884,0.05354,-0.01771,-0.03458
0.29544,0.95491,0.02928,0.05925,-0.02149,-0.04429
0.29555,0.95485,0.03018,0.06709,-0.01912,-0.05562
0.29584,0.95473,0.03119,0.03854,-0.0029,-0.0532
0.29602,0.95464,0.03206,0.02992,0.00266,-0.05122
0.29628,0.95455,0.03259,0.00487,0.00026,-0.03621
0.29636,0.95451,0.03297,-0.00175,0.00198,-0.0259
0.2963,0.95452,0.03308,0.00549,0.00411,-0.03043
0.2962,0.95456,0.03297,0.00855,0.00575,-0.01864
0.29619,0.95456,0.03288,-0.00117,0.00804,-0.00362
0.29628,0.95454,0.03288,-0.02208,0.01113,0.0111
0.29645,0.95448,0.03302,-0.03166,0.01891,0.01257
0.29654,0.95444,0.03321,-0.02924,0.0171,0.01044
0.29654,0.95443,0.03351,-0.02891,0.01485,0.00544
0.29648,0.95444,0.03394,-0.03024,0.0067,0.00726
0.29633,0.95446,0.03442,-0.03249,0.0129,0.00676
0.29623,0.95448,0.0349,-0.02672,0.01512,0.00499
0.29606,0.95452,0.03519,-0.02098,0.01829,-0.00032
0.29588,0.95456,0.03553,-0.00697,0.00587,-0.00977
0.29569,0.95461,0.03591,-0.0076,0.0046,-0.00267
0.29551,0.95465,0.03612,-0.00843,0.00796,0.00091
0.29529,0.95473,0.03601,-0.01343,0.01608,0.01749
0.29524,0.95476,0.03564,-0.01967,0.02867,0.0254
0.29524,0.95478,0.03506,-0.0213,0.03036,0.03446
0.29514,0.95485,0.03404,-0.02955,0.02838,0.04207
0.29506,0.95491,0.03298,-0.0225,0.02143,0.03366
0.2949,0.95499,0.03195,-0.01008,0.00997,0.02249
0.29459,0.95511,0.03118,0.02308,-0.03316,-0.01073
0.29418,0.95525,0.03085,0.03742,-0.03096,-0.0264
0.29405,0.9553,0.03063,0.04731,-0.0149,-0.02884
0.29433,0.95521,0.03063,0.04403,0.0013,-0.03074
0.29493,0.95502,0.03095,0.02799,0.02077,-0.03681
0.29553,0.95483,0.0311,0.00156,0.0191,-0.04132
0.296,0.95469,0.0307,-0.00973,0.01757,-0.04027
0.2963,0.95464,0.0296,-0.01621,0.01636,-0.02951
0.29638,0.95466,0.02791,-0.00576,0.00458,-0.03084
0.29613,0.95479,0.0263,0.00629,0.00258,-0.02852
0.29568,0.95495,0.02527,0.02549,-0.01184,-0.0285
0.29507,0.95515,0.02484,0.05582,-0.02034,-0.03584
0.29465,0.95528,0.0249,0.05314,-0.02729,-0.04085
0.29439,0.95536,0.02505,0.0742,-0.02463,-0.04836
0.29467,0.95526,0.02552,-0.03353,-0.0052,-0.02633
0.29522,0.95505,0.02697,-0.0544,0.00427,-0.02706
0.29553,0.95493,0.0278,-0.04487,0.0076,-0.02161
0.2957,0.95489,0.02733,-0.00167,0.02503,-0.00139
0.2955,0.955,0.02572,0.01251,0.0367,0.00347
0.29507,0.9552,0.02305,0.03861,0.03542,0.0223
0.29512,0.95522,0.02128,-0.03099,0.00495,0.03276
0.29552,0.95509,0.0216,-0.04874,-0.00107,0.00865
0.29598,0.95492,0.02263,-0.00852,-0.013,-0.01689
0.29648,0.95474,0.02393,0.02016,-0.02514,-0.03496
0.29695,0.95456,0.02512,0.01207,-0.00032,-0.03988
0.29727,0.95444,0.02582,-0.01475,0.02046,-0.0405
0.29744,0.9544,0.02573,-0.017,0.02649,-0.03061
0.29744,0.95441,0.02504,-0.00851,0.02195,-0.0284
0.29736,0.95446,0.02397,0.01219,0.00182,-0.02137
0.29718,0.95455,0.02267,0.01869,-0.00268,-0.01431
0.29706,0.95462,0.02144,0.02077,-0.00767,-0.00766
0.29709,0.95463,0.02069,0.02466,-0.00526,-0.00799
0.29735,0.95455,0.02059,0.02144,0.00042,-0.01228
0.29775,0.95441,0.02117,0.01475,0.00584,-0.00171
0.29816,0.95426,0.02195,0.01326,0.00405,-0.00265
0.29853,0.95414,0.02247,0.01096,0.00666,-0.00558
0.29893,0.95401,0.02241,0.00055,0.00946,-0.02259
0.29926,0.95391,0.02209,-0.00893,0.00984,-0.02312
0.29951,0.95385,0.02177,-0.01404,0.00627,-0.01748
0.29961,0.95382,0.02141,-0.02009,0.0009,0.00055
0.29952,0.95386,0.02105,-0.01309,-0.00118,-0.0005
0.29934,0.95392,0.02083,-0.00498,0.00342,-0.00826
0.29913,0.95398,0.02089,-0.00126,0.01115,-0.0047
0.29891,0.95405,0.02107,-0.00113,0.00898,0.01031
0.29871,0.95411,0.02127,-0.00495,0.00462,0.01254
0.29855,0.95415,0.02152,0.01639,0.0025,-0.00037
0.29852,0.95415,0.02178,0.03915,-0.00469,-0.01981
0.29872,0.95408,0.0223,0.02825,0.00737,-0.02533
0.29903,0.95397,0.02273,-0.00039,0.01455,-0.03026
0.29937,0.95386,0.02299,-0.02624,0.01945,-0.03074
0.29955,0.95381,0.02277,-0.02778,0.01084,-0.02817
0.29943,0.95387,0.02192,-0.01087,0.01043,-0.01214
0.29912,0.95399,0.02061,-0.01061,0.00765,0.00452
0.29875,0.95414,0.01922,-0.00541,0.00308,0.00896
0.29866,0.95419,0.0182,-0.00541,0.00269,0.00553
0.29873,0.95417,0.01778,-0.00643,0.00584,-0.00369
0.29883,0.95415,0.01752,-0.00843,0.01618,-0.01656
0.29888,0.95414,0.01697,-0.00547,0.01989,-0.02036
0.2988,0.95418,0.01618,-0.00713,0.01605,-0.02664
0.29887,0.95417,0.01528,-0.00662,-0.00112,-0.02337
0.29886,0.95419,0.01442,-0.00074,-0.00794,-0.02416
0.29863,0.95427,0.01364,0.02239,-0.02928,-0.01727
0.29835,0.95436,0.01329,0.03117,-0.0202,-0.01935
0.29801,0.95447,0.01329,0.04976,-0.01018,-0.0365
0.29784,0.95452,0.01365,0.07341,0.00381,-0.04308
0.29801,0.95446,0.01418,0.07416,0.00039,-0.04017
0.29833,0.95435,0.0147,0.03954,0.00015,-0.03246
0.29858,0.95426,0.01533,0.01519,-0.00373,-0.02371
0.29875,0.9542,0.01583,-0.00578,0.00082,-0.01905
0.29897,0.95412,0.01636,-0.02338,0.01287,-0.01388
0.29929,0.95401,0.01667,-0.03175,0.01679,-0.0059
0.29972,0.95388,0.01671,-0.05007,0.01635,0.02252
0.29992,0.95382,0.01659,-0.05353,0.02047,0.01841
0.29981,0.95386,0.01647,-0.04288,0.02207,0.00892
0.29942,0.95398,0.01636,-0.01593,0.01007,-0.00234
0.2988,0.95417,0.01643,0.01617,-0.00119,-0.0142
0.29828,0.95433,0.01681,0.0155,-0.00636,-0.01955
0.29782,0.95446,0.01762,0.01665,-0.00339,-0.02728
0.29753,0.95453,0.01862,0.01861,-0.00319,-0.03108
0.2974,0.95455,0.01958,0.0251,0.00127,-0.023
0.29731,0.95456,0.02036,0.02405,0.00306,-0.01926
0.29737,0.95454,0.02079,-0.00163,0.02865,-0.01741
0.29734,0.95455,0.02057,-0.00159,0.02864,-0.0172
0.29733,0.95456,0.02005,-0.00375,-0.00097,-0.02606
0.29714,0.95464,0.01928,0.02666,-0.0132,-0.00585
0.2969,0.95472,0.01874,0.02844,-0.00744,-0.00031
0.29682,0.95475,0.01889,0.02885,0.00247,0.00034
0.29697,0.95469,0.01947,0.00266,0.0119,-0.01213
0.29746,0.95452,0.02033,-0.00687,0.00805,-0.01185
0.29802,0.95432,0.02116,-0.02521,0.00948,-0.01118
0.29848,0.95417,0.02166,-0.04054,0.01662,-0.01339
0.29859,0.95414,0.02161,-0.03091,0.01293,-0.0138
0.29855,0.95416,0.02116,-0.01086,0.01279,-0.01022
0.29845,0.9542,0.02078,0.00256,0.00762,-0.00772
0.29845,0.9542,0.02054,0.01374,0.00713,-0.0063
0.29853,0.95418,0.02041,0.02384,-0.00184,-0.01063
0.29856,0.95417,0.02038,0.02736,-0.00726,-0.01479
0.29855,0.95417,0.02054,0.0267,-0.00457,-0.01938
0.29858,0.95416,0.02087,0.0145,0.00468,-0.02375
0.29852,0.95416,0.02136,0.01542,0.00658,-0.02305
0.29852,0.95415,0.02195,0.01249,0.00206,-0.02087
0.29864,0.9541,0.0224,0.00907,0.00504,-0.03122
0.2988,0.95404,0.02278,0.00773,0.00569,-0.03076
0.29902,0.95396,0.02322,0.0035,0.01059,-0.03028
0.2993,0.95387,0.02347,-0.00807,0.00441,-0.02119
0.29957,0.95378,0.02358,-0.00974,0.00683,-0.01293
0.29976,0.95373,0.02339,-0.01259,0.01383,0.00688
0.29969,0.95377,0.02261,-0.02271,-0.00012,0.02714
0.29922,0.95395,0.02141,-0.02059,0.00078,0.03085
0.29847,0.9542,0.02037,0.01945,-0.00572,0.01411
0.29787,0.95439,0.0203,0.02546,-0.00548,-0.00781
0.29775,0.9544,0.02159,0.01669,-0.00735,-0.01602
0.29796,0.95429,0.02367,-0.01282,0.0197,-0.021
0.29834,0.95412,0.02556,-0.02211,0.02608,-0.01988
0.29866,0.954,0.02618,-0.02617,0.0373,-0.02364
0.2987,0.954,0.02573,-0.01823,0.02735,-0.02706
0.29839,0.95413,0.02461,0.0131,0.00388,-0.02524
0.29786,0.95432,0.02334,0.04383,-0.01867,-0.02263
0.29747,0.95447,0.02233,0.06102,-0.0215,-0.01159
0.29756,0.95446,0.02151,0.03624,-0.01437,-0.00252
0.29823,0.95426,0.02108,-0.01071,0.01302,0.0027
0.29934,0.95391,0.02139,-0.0548,0.03045,0.01116
0.30043,0.95355,0.02224,-0.07792,0.0247,0.00611
0.30087,0.95339,0.02305,-0.05869,0.00532,-0.01104
0.30045,0.95352,0.02303,-0.0123,-0.00911,-0.02831
0.29966,0.95378,0.02256,0.01391,-0.00671,-0.03698
0.29881,0.95405,0.02237,0.02734,0.00437,-0.02939
0.2982,0.95424,0.02255,0.03176,-0.00136,-0.02145
0.29799,0.95429,0.02323,0.02441,-0.00392,-0.01659
0.29799,0.95426,0.02411,0.016,-0.00076,-0.0179
0.29797,0.95426,0.0246,0.01026,0.00616,-0.01961
0.29781,0.95431,0.0246,0.00515,0.0097,-0.02109
0.2977,0.95435,0.02429,0.01322,0.01319,-0.0192
0.29765,0.95437,0.02403,0.0231,0.01119,-0.01605
0.29773,0.95435,0.0241,0.02783,0.00387,-0.00507
0.29785,0.9543,0.02423,0.01514,0.00592,-0.00769
0.29808,0.95423,0.02416,0.00313,0.00539,-0.01666
0.29842,0.95414,0.02393,-0.01006,0.0057,-0.02003
0.29874,0.95404,0.02376,-0.01491,0.00806,-0.00984
0.29894,0.95398,0.02364,-0.01083,0.0043,-0.00815
0.29904,0.95395,0.0234,-0.00401,0.0028,-0.00748
0.29908,0.95395,0.02305,-0.0086,0.00563,-0.00375
0.29907,0.95396,0.02269,-0.00361,0.00725,-0.00528
0.29902,0.95398,0.02237,0.00392,0.00733,-0.00421
0.29903,0.95399,0.02212,0.00862,0.00613,-0.01022
0.29905,0.95398,0.02205,0.01231,0.00225,-0.01505
0.29906,0.95398,0.02221,0.01291,0.0036,-0.01797
0.29912,0.95395,0.02251,0.00865,0.00555,-0.01677
0.29923,0.95391,0.02286,0.00161,0.00865,-0.02241
0.29936,0.95386,0.02311,-0.00343,0.0094,-0.02805
0.29942,0.95384,0.02307,0.00243,0.00305,-0.02603
0.29944,0.95385,0.02272,0.00176,0.00613,-0.02193
0.29946,0.95385,0.02232,-0.00089,0.00608,-0.01475
0.29949,0.95385,0.02198,-0.00024,0.00766,-0.01162
0.2995,0.95385,0.02165,0.00075,0.00367,-0.00961
0.29953,0.95385,0.02137,0.00614,0.00543,-0.01524
0.29961,0.95382,0.0213,0.00345,0.00412,-0.00605
0.29973,0.95378,0.02152,0.001,0.0015,-0.00507
0.29986,0.95373,0.0219,-0.00335,0.00515,-0.01071
0.29995,0.9537,0.02218,-0.00132,0.00932,-0.02163
0.29994,0.9537,0.02238,0.00423,0.01153,-0.02141
0.29995,0.95369,0.02252,0.00187,0.00613,-0.0173
0.3,0.95367,0.02259,-0.00317,0.00515,-0.01511
0.30008,0.95365,0.0226,0.0002,0.00308,-0.01359
0.30016,0.95362,0.02254,0.00067,0.00402,-0.01253
0.30028,0.95359,0.02258,-0.002,0.00747,-0.01535
0.30039,0.95355,0.02261,-0.00119,0.00719,-0.01422
0.30042,0.95354,0.02257,0.00276,0.00592,-0.00997
0.30041,0.95354,0.02258,0.00324,0.00474,-0.00951
0.30041,0.95354,0.02272,0.00396,0.0072,-0.01114
0.30044,0.95352,0.02295,0.00037,0.01005,-0.01659
0.30056,0.95348,0.02314,-0.00245,0.0073,-0.0147
0.30072,0.95343,0.02324,-0.00894,0.00752,-0.0129
0.30082,0.9534,0.02318,-0.00857,0.00493,-0.00676
0.30079,0.95342,0.02288,-0.0034,0.00337,-0.00605
0.30064,0.95347,0.02256,0.00112,0.00316,-0.00774
0.30043,0.95354,0.02238,0.00805,-0.00046,-0.008
0.30027,0.95359,0.02254,0.01333,0.00173,-0.01521
0.30024,0.95359,0.02293,0.01507,0.00276,-0.01848
0.30038,0.95353,0.02341,0.0089,0.00824,-0.02089
0.30063,0.95344,0.02381,0.00113,0.0091,-0.02205
0.30089,0.95336,0.02403,-0.00953,0.01025,-0.02293
0.30108,0.9533,0.02395,-0.00783,0.00803,-0.02427
0.30113,0.95329,0.02343,-0.00424,0.00574,-0.01832
0.30107,0.95333,0.02266,-0.00204,0.00164,-0.00122
0.30091,0.9534,0.02188,0.00321,0.00511,0.00855
0.3007,0.95348,0.02144,0.01194,-0.00145,0.0068
0.30046,0.95355,0.02156,0.01971,-0.00247,0.00186
0.30031,0.95358,0.02232,0.02216,-0.00261,-0.0204
0.30038,0.95353,0.02343,0.01405,0.00126,-0.0317
0.30065,0.95342,0.02432,0.00226,0.01061,-0.03296
0.30096,0.95332,0.02472,-0.01022,0.01807,-0.02272
0.30111,0.95328,0.02439,-0.01776,0.01202,-0.01095
0.301,0.95334,0.02348,-0.01162,0.00846,-0.00732
0.30068,0.95346,0.0224,-0.00106,0.00121,-0.00937
0.30022,0.95363,0.02163,0.03365,-0.0078,-0.00701
0.29994,0.95371,0.02167,0.03274,-0.00181,-0.00769
0.30002,0.95367,0.0224,0.02791,0.00299,-0.01001
0.30032,0.95355,0.02335,0.00524,0.01418,-0.02207
0.30073,0.95341,0.02408,-0.00666,0.00952,-0.02455
0.30099,0.95332,0.0243,-0.01278,0.00835,-0.02625
0.30106,0.95331,0.02383,-0.00399,0.00238,-0.01703
0.30087,0.95339,0.02309,-0.00022,-8e-05,-0.01227
0.3006,0.95349,0.02236,0.00495,-0.00029,-0.0028
0.30037,0.95357,0.02191,0.01281,0.0057,-0.00923
0.30032,0.95359,0.02188,0.01297,0.00253,-0.01532
0.30041,0.95355,0.02231,0.00148,-0.00013,-0.01103
0.30053,0.95349,0.02307,0.00128,0.01193,-0.01348
0.30068,0.95343,0.02372,-0.00964,0.00409,-0.0192
0.30081,0.95338,0.02408,-0.0125,0.0077,-0.02202
0.30068,0.95342,0.02405,-0.00819,0.0086,-0.02071
0.30041,0.95352,0.02372,0.00372,0.0075,-0.01781
0.30012,0.95362,0.02332,0.00873,0.00242,-0.0147
0.29984,0.9537,0.02323,0.01163,0.00272,-0.01054
0.29968,0.95375,0.02347,0.01363,0.00117,-0.00852
0.29967,0.95374,0.024,0.00604,0.00643,-0.00501
0.29976,0.9537,0.0246,-0.002,0.00726,-0.01334
0.29974,0.95369,0.02507,-0.00781,0.00596,-0.01753
0.29967,0.95371,0.02537,-0.00105,0.00575,-0.01601
0.29954,0.95375,0.02531,-0.00166,0.00275,-0.01053
0.29938,0.9538,0.0251,-0.00075,0.00465,-0.00646
0.29917,0.95388,0.02488,0.00666,0.01045,-0.00688
0.29902,0.95393,0.02475,0.0137,0.00268,-0.01494
0.29898,0.95393,0.02497,0.01344,-0.00128,-0.01802
0.29904,0.9539,0.02562,0.00624,0.00306,-0.02016
0.2992,0.95383,0.02618,-0.00168,0.00505,-0.0217
0.29938,0.95377,0.0264,-0.00751,0.01144,-0.02144
0.29954,0.95372,0.02635,-0.01081,0.01619,-0.01708
0.29957,0.95372,0.02591,-0.00712,0.00822,-0.0141
0.29947,0.95377,0.02526,-0.00302,0.00572,-0.00955
0.29931,0.95384,0.02467,0.00277,0.00367,-0.00531
0.29919,0.95388,0.02435,0.00637,0.0033,-0.00498
0.29918,0.95389,0.02441,0.00617,0.00218,-0.0089
0.29925,0.95385,0.02475,0.004,0.00325,-0.01086
0.29937,0.95381,0.02513,-0.00126,0.00345,-0.0184
0.29938,0.9538,0.02534,-0.00049,0.00384,-0.01566
0.2993,0.95382,0.02527,0.00129,0.00159,-0.01152
0.29917,0.95387,0.02508,0.00184,0.00524,-0.00956
0.299,0.95393,0.0248,0.00381,0.00214,-0.00695
0.29886,0.95398,0.02465,0.00614,0.0036,-0.00993
0.29881,0.95399,0.02474,0.00711,0.00574,-0.01316
0.29884,0.95398,0.02501,0.00352,0.00785,-0.01145
0.2989,0.95395,0.0254,-0.00345,0.0069,-0.01275
0.29895,0.95392,0.02575,-0.00665,0.00717,-0.01435
0.2989,0.95393,0.02594,-0.00457,0.0063,-0.01762
0.29874,0.95398,0.02588,-0.00248,0.00637,-0.02149
0.29857,0.95404,0.02568,0.00724,0.00442,-0.02094
0.2984,0.9541,0.02559,0.00673,0.00364,-0.01817
0.29835,0.95411,0.0256,0.00481,0.00293,-0.01332
0.29834,0.95411,0.0257,0.00085,0.00777,-0.01454
0.29834,0.95411,0.02585,0.00432,0.00503,-0.01526
0.29834,0.9541,0.02603,0.00505,0.00502,-0.01771
0.29834,0.9541,0.02619,0.00654,0.00511,-0.01819
0.29834,0.9541,0.02629,0.00658,0.00454,-0.01455
0.29832,0.9541,0.02639,0.00281,0.00333,-0.01395
0.29834,0.95409,0.02651,0.00232,0.00138,-0.01486
0.29837,0.95408,0.02663,0.00981,0.00294,-0.0185
0.29835,0.95408,0.02667,0.00899,0.00072,-0.01372
0.2984,0.95406,0.02684,0.00385,0.00745,-0.01326
0.29847,0.95404,0.027,0.00119,0.00856,-0.0115
0.29855,0.95401,0.02714,-0.00034,0.0098,-0.01231
0.29859,0.95399,0.02721,-0.00013,0.00693,-0.01466
0.29862,0.95399,0.02718,0.00226,0.00431,-0.00773
0.29864,0.95398,0.02717,7e-05,0.00532,-0.00813
0.29869,0.95396,0.02729,0.00176,0.0067,-0.00748
0.29876,0.95393,0.02738,-0.00196,0.00888,-0.01566
0.29882,0.95392,0.0274,0.00369,0.00888,-0.01956
0.29885,0.95391,0.0273,0.00716,0.00578,-0.01137
0.29895,0.95388,0.02723,0.00209,0.00645,-0.00222
0.2991,0.95383,0.02727,-0.00192,0.00863,-0.00605
0.29926,0.95378,0.02721,-0.00046,0.00685,-0.01062
0.29943,0.95374,0.02702,0.00105,0.00415,-0.01822
0.29956,0.9537,0.02683,0.00454,0.00806,-0.01803
0.29965,0.95368,0.02656,0.00684,0.00306,-0.00674
0.29978,0.95364,0.02637,0.00529,0.00624,-0.00178
0.29998,0.95358,0.02627,0.00449,0.00699,-0.00065
0.30021,0.95352,0.02608,-0.00254,0.00687,-0.01002
0.30039,0.95346,0.02593,-0.00273,0.00693,-0.00986
0.30055,0.95342,0.02564,0.00258,0.00248,-0.01444
0.30068,0.95339,0.02532,0.00394,0.00379,-0.00688
0.30077,0.95337,0.02504,0.00299,0.00228,-0.00732
0.30084,0.95335,0.02485,0.00236,0.00156,-0.00697
0.30087,0.95334,0.02475,0.00466,-0.00864,-0.01304
0.30085,0.95335,0.02479,0.00706,-0.00587,-0.01605
0.30066,0.9534,0.02518,0.00523,-0.00539,-0.01936
0.30032,0.95349,0.02584,-0.00147,0.01784,-0.01033
0.30002,0.95357,0.02628,-0.00937,0.01414,-0.00502
0.29984,0.95363,0.02612,-0.00806,0.00158,-0.00424
0.29963,0.95371,0.02589,0.02929,0.00058,-0.02136
0.29948,0.95376,0.02573,0.02384,0.00158,-0.02715
0.29952,0.95375,0.02571,0.00967,0.00629,-0.02958
0.29952,0.95374,0.02574,0.00184,0.01322,-0.0157
0.29946,0.95376,0.02563,0.00391,0.01198,-0.01248
0.29934,0.9538,0.02584,0.00237,0.01131,-0.00852
0.29917,0.95384,0.0262,0.00173,0.00517,-0.01689
0.29887,0.95393,0.02653,0.01295,0.00693,-0.02383
0.29863,0.95399,0.02689,0.01732,0.00353,-0.03594
0.29857,0.954,0.02705,0.01068,0.00619,-0.03423
0.29844,0.95405,0.02675,0.00668,-0.00128,-0.02971
0.29816,0.95415,0.02626,0.01127,0.00321,-0.01143
0.29792,0.95424,0.02601,0.01533,0.00304,-0.01461
0.29773,0.9543,0.0259,0.01557,0.00403,-0.0126
0.29773,0.9543,0.02604,0.00647,0.00121,-0.00785
0.2979,0.95423,0.02648,-0.00696,0.00993,-0.00367
0.29805,0.95418,0.02673,-0.00843,0.00758,-0.00203
0.29811,0.95416,0.02669,-0.00981,0.00382,-0.00461
0.29806,0.95417,0.02681,0.00112,0.02514,-0.01266
0.29801,0.95418,0.02696,0.00472,0.01875,-0.01256
0.2981,0.95415,0.02707,0.00682,0.00331,-0.00763
0.29829,0.95408,0.02736,-0.00643,0.00499,-0.0116
0.29846,0.95403,0.0273,-0.01718,-0.00074,-0.01607
0.29845,0.95404,0.02709,-0.01172,0.01161,-0.00963
0.29828,0.9541,0.02678,-0.00082,0.01112,-0.00043
0.29807,0.95418,0.02651,0.00809,0.0016,0.00577
0.29789,0.95423,0.02658,0.00992,0.00036,0.0049
0.29779,0.95426,0.02676,0.00484,0.00194,9e-05
0.2978,0.95425,0.02681,0.00489,0.00428,-0.0092
0.29787,0.95423,0.0268,0.00451,0.00892,-0.00656
0.29791,0.95422,0.02671,0.00304,0.0015,-0.00101
0.2979,0.95423,0.02654,0.00191,-0.00232,0.00024
0.29792,0.95422,0.02642,-0.00646,0.0004,-0.00698
0.29804,0.95418,0.02652,-0.01354,0.00855,-0.01917
0.29828,0.9541,0.02696,-0.01607,0.01268,-0.02358
0.29849,0.95401,0.02763,-0.00695,0.03044,-0.03651
0.29856,0.95398,0.02815,-0.00475,0.02147,-0.03794
0.29846,0.954,0.02836,-0.00273,0.01139,-0.03885
0.29822,0.95408,0.02827,-0.00241,0.00963,-0.03389
0.29788,0.95419,0.02796,0.0011,0.00284,-0.01933
0.29745,0.95434,0.02747,0.01011,0.00309,-0.00512
0.29706,0.95448,0.02698,0.00766,-0.00022,0.00183
0.29679,0.95457,0.02659,0.00537,-0.00436,0.00549
0.29662,0.95463,0.02646,0.00403,-0.00062,0.00724
0.29651,0.95465,0.02672,0.00445,0.00166,0.00521
0.2965,0.95464,0.02722,0.01101,0.00643,-0.00225
0.29653,0.95462,0.02781,0.01167,0.00711,-0.00957
0.29661,0.95458,0.02816,0.01165,0.00123,-0.01991
0.2967,0.95455,0.02824,0.00841,0.0084,-0.02749
0.29673,0.95455,0.02803,0.00616,0.00056,-0.02521
0.29663,0.95459,0.02767,0.00887,0.00316,-0.01546
0.2965,0.95464,0.02729,-0.00062,0.00015,-0.00314
0.29638,0.95469,0.02711,-0.00302,0.00871,0.00349
0.29622,0.95474,0.02709,0.00494,0.00716,-0.00425
0.29607,0.95478,0.02717,0.00596,0.006,-0.00974
0.29593,0.95482,0.02743,0.00581,0.00483,-0.01368
0.29576,0.95486,0.02782,0.01224,0.00141,-0.01535
0.29561,0.9549,0.02808,0.01698,0.00123,-0.0186
0.2955,0.95493,0.02814,0.0142,0.00036,-0.02115
0.29543,0.95495,0.02814,0.00227,0.00028,-0.0192
0.29539,0.95496,0.02808,-0.00166,-0.00411,-0.01824
0.2953,0.955,0.02799,0.00082,0.00956,-0.01571
0.29522,0.95502,0.02792,0.00135,0.00959,-0.00344
0.2952,0.95503,0.02795,-5e-05,0.00658,-0.0041
0.29512,0.95505,0.02814,6e-05,0.00473,-0.01631
0.295,0.95508,0.02823,0.00501,1e-05,-0.02347
0.29482,0.95513,0.02834,0.01042,0.00361,-0.02106
0.29462,0.95519,0.02854,0.00584,-0.00034,-0.00999
0.29444,0.95523,0.02892,0.00552,0.00061,-0.00362
0.2943,0.95526,0.02926,0.00987,0.00947,-0.00741
0.29422,0.95528,0.02952,0.00796,0.00976,-0.01411
0.29426,0.95527,0.02963,-0.00257,0.00714,-0.02406
0.29437,0.95523,0.02957,-0.00637,0.00602,-0.02022
0.29442,0.95522,0.02939,-0.00322,0.00344,-0.00195
0.29443,0.95522,0.02925,-0.00338,0.0047,0.00625
0.29439,0.95524,0.02922,-0.0013,0.00872,-0.00311
0.29438,0.95524,0.02943,-0.00235,0.00578,-0.00848
0.29438,0.95522,0.02983,0.00786,0.00363,-0.02322
0.29439,0.95521,0.03013,0.01949,0.00915,-0.02583
0.29447,0.95518,0.03041,0.01866,0.00951,-0.01911
0.29467,0.9551,0.03078,-0.01329,0.01058,-0.01448
0.29484,0.95504,0.03109,-0.02613,0.0088,-0.01579
0.29474,0.95507,0.03106,-0.01987,0.00902,-0.01548
0.29449,0.95516,0.03069,0.00522,0.00596,-0.00937
0.29421,0.95526,0.03032,0.00343,0.00665,0.01258
0.29408,0.9553,0.03019,-0.00086,-0.00042,0.01288
0.29401,0.95532,0.03041,0.00068,0.00425,0.00594
0.29404,0.95529,0.0309,0.00918,0.00865,-0.00888
0.29415,0.95524,0.03139,0.01706,0.00606,-0.017
0.2944,0.95515,0.03185,0.00996,0.00318,-0.02106
0.29467,0.95506,0.03206,-0.00287,0.01082,-0.01902
0.29483,0.95501,0.03202,-0.00334,0.01032,-0.01727
0.2949,0.955,0.03163,-0.00442,0.00307,-0.00811
0.2949,0.95502,0.03114,-0.00429,0.00346,-0.00454
0.29487,0.95505,0.03056,0.00165,0.00262,0.00278
0.29486,0.95506,0.0303,0.00436,0.00119,0.00515
0.29494,0.95503,0.03043,0.00684,0.00659,0.00694
0.29506,0.95499,0.03067,0.00328,0.00655,-0.002
0.29522,0.95493,0.0309,-0.00213,0.00942,-0.00633
0.29528,0.95491,0.03103,-0.00109,0.00861,-0.0106
0.29529,0.9549,0.03102,-2e-05,0.00445,-0.01529
0.29526,0.95492,0.03095,0.0035,0.0035,-0.01647
0.29521,0.95494,0.03077,0.0068,0.00516,-0.01192
0.29518,0.95495,0.03052,0.01078,0.00996,-0.00638
0.2952,0.95496,0.03029,0.00986,0.00911,-0.0056
0.2953,0.95493,0.03007,0.00922,0.00732,-0.01533
0.29545,0.95489,0.02994,0.00935,0.00168,-0.0207
0.29561,0.95485,0.02975,0.00446,-0.00258,-0.01455
0.29582,0.95479,0.02956,0.00068,0.00505,-0.01206
0.29594,0.95476,0.02932,0.00623,0.0085,-0.00959
0.29596,0.95476,0.02889,0.01117,0.01107,-0.00591
0.29605,0.95475,0.02847,0.00371,0.00521,-0.00394
0.29622,0.9547,0.02819,-0.00246,0.00347,-0.00237
0.2964,0.95465,0.02802,-0.00836,0.00439,-0.00188
0.29656,0.95461,0.02784,-0.00117,0.00848,-0.00463
0.29664,0.95459,0.02751,0.00134,0.00471,-0.002
0.29661,0.95461,0.02714,0.00146,0.00761,0.00421
0.29656,0.95464,0.02687,-0.00068,0.00333,-0.00339
0.29651,0.95465,0.02673,0.00578,0.00146,-0.01031
0.29647,0.95467,0.0267,0.0082,0.00639,-0.01341
0.29648,0.95466,0.02673,0.00491,0.00742,-0.01563
0.29652,0.95465,0.02666,0.00316,0.0022,-0.01409
0.29648,0.95467,0.02648,-0.00225,-0.00287,-0.0159
0.29631,0.95473,0.02629,0.00252,0.00871,-0.01196
0.29602,0.95483,0.02607,0.01038,0.00184,-0.01402
0.29577,0.95491,0.02592,0.01047,0.00325,-0.01544
0.29562,0.95495,0.026,0.00374,0.00112,-0.01117
0.29548,0.95499,0.02616,0.00551,0.00319,-0.01569
0.29539,0.95501,0.02629,0.00298,0.00455,-0.0211
0.29529,0.95505,0.02632,0.00483,0.00273,-0.01389
0.29506,0.95511,0.02642,0.0062,0.00269,-0.00907
0.29478,0.9552,0.02656,0.00709,0.00379,-0.00786
0.29455,0.95526,0.02673,0.00355,0.00592,-0.01943
0.29436,0.95532,0.02694,0.00374,0.00587,-0.01965
0.29426,0.95534,0.0271,-0.00027,0.01022,-0.01949
0.29422,0.95535,0.02722,-0.00757,0.00898,-0.01189
0.29411,0.95538,0.02734,-0.00753,0.00577,-0.00993
0.29394,0.95543,0.02742,-0.00433,0.00331,-0.00772
0.29375,0.95549,0.02748,0.00245,0.0076,-0.01799
0.29361,0.95553,0.0276,0.00259,0.00756,-0.01811
0.29351,0.95556,0.02768,0.00761,0.00753,-0.01489
0.2935,0.95555,0.02789,0.00182,0.00644,-0.00719
0.2935,0.95555,0.02808,-0.00182,0.00792,-0.00774
0.29345,0.95556,0.02804,-0.00282,0.0074,-0.00876
0.29338,0.95559,0.02781,9e-05,0.0062,-0.01391
0.29332,0.95562,0.02758,0.00052,0.00511,-0.01632
0.29324,0.95565,0.02735,0.00618,0.00119,-0.00808
0.29321,0.95566,0.0272,0.00443,0.00328,0.00183
0.29321,0.95566,0.02715,0.00098,0.00375,-0.00214
0.29326,0.95565,0.02709,-0.00064,0.00819,-0.00052
0.29329,0.95564,0.0271,-4e-05,0.01186,-0.00808
0.29331,0.95563,0.02711,0.00219,0.00389,-0.00711
0.29334,0.95562,0.02708,0.00518,-0.00058,-0.00475
0.29337,0.95562,0.02697,0.00501,0.00155,-0.00304
0.29337,0.95562,0.02699,-0.00255,0.0052,0.00018
0.29331,0.95563,0.0271,-0.00048,0.00483,-3e-05
0.29316,0.95567,0.02737,0.00384,0.00411,-0.00508
0.29296,0.95572,0.02784,0.00951,0.00383,-0.00987
0.29288,0.95573,0.0282,0.00327,0.00807,0.00332
0.2929,0.95572,0.02832,-0.00657,0.01228,0.01208
0.29284,0.95574,0.02841,0.00153,0.00248,-0.00047
0.29274,0.95576,0.02859,0.01459,-0.00332,-0.01524
0.29281,0.95573,0.02891,0.0119,0.00034,-0.02712
0.29306,0.95565,0.02924,0.00215,0.00798,-0.02296
0.29341,0.95552,0.02969,-0.00837,0.01654,-0.01316
0.29357,0.95546,0.03008,-0.02544,0.01217,-0.00392
0.29347,0.95549,0.03027,-0.00421,0.02338,-0.0066
0.29332,0.95555,0.02973,0.00075,0.00075,0.00122
0.2931,0.95564,0.02911,0.00272,-0.00479,0.00283
0.29286,0.95572,0.02883,0.00455,0.00059,-0.0009
0.29276,0.95574,0.02899,0.01122,0.00292,-0.01179
0.29285,0.9557,0.02952,0.01594,0.00765,-0.01134
0.29303,0.95562,0.03029,0.0124,0.00106,-0.00756
0.29312,0.95557,0.03106,0.00868,-0.00164,-0.00839
0.2932,0.95552,0.03172,0.00265,0.00451,-0.01313
0.29322,0.9555,0.03215,0.00076,0.00874,-0.01224
0.29321,0.9555,0.03235,0.0097,0.01258,-0.00643
0.29324,0.95549,0.03246,0.00083,0.00905,-0.00387
0.29334,0.95546,0.03247,-0.006,0.0073,-0.00662
0.29347,0.95542,0.0322,-0.00722,0.00521,-0.01077
0.29363,0.95539,0.03173,-0.00541,0.01179,0.01035
0.29372,0.95538,0.03115,-0.00798,0.01179,0.01314
0.29368,0.95542,0.03052,-0.0057,0.01198,0.01773
0.29357,0.95547,0.03003,0.00727,-0.00091,0.00838
0.29346,0.9555,0.02983,0.00788,-0.00308,0.00427
0.29334,0.95553,0.03008,0.00845,0.0002,0.00016
0.29317,0.95557,0.03051,0.02699,0.00416,-0.02288
0.29308,0.95559,0.03082,0.02871,0.00251,-0.02603
0.29309,0.95558,0.03096,0.02232,-0.00146,-0.0241
0.29317,0.95556,0.03083,-0.0012,0.00673,-0.01997
0.29321,0.95556,0.03058,-0.00662,0.01148,-0.01833
0.29329,0.95555,0.03023,-0.00954,0.01037,-0.01493
0.29336,0.95554,0.02987,-0.00756,0.00815,-0.00892
0.2934,0.95553,0.02959,-0.0079,0.00939,-0.00799
0.2935,0.95551,0.02939,-0.00329,0.00978,-0.00667
0.29366,0.95546,0.02926,-0.0074,0.00753,-0.00614
0.29397,0.95537,0.02917,-0.0145,0.00653,-0.00741
0.29424,0.95529,0.02903,-0.01362,0.00875,-0.00814
0.29428,0.95529,0.02873,-0.00913,0.00595,-0.00427
0.29412,0.95535,0.02831,-0.00737,0.00757,-0.00039
0.29391,0.95542,0.02804,-0.00445,0.00518,0.00182
0.29373,0.95548,0.02801,0.00631,0.00466,0.0052
0.29361,0.95551,0.02826,0.00804,0.00532,0.0038
0.29352,0.95552,0.02874,0.0013,0.0015,-0.00898
0.29337,0.95555,0.02934,0.00313,0.00231,-0.02026
0.29312,0.95561,0.02997,0.0121,0.00671,-0.01923
0.29292,0.95565,0.03059,0.01517,0.00709,-0.01605
0.29275,0.95569,0.03083,0.02138,0.00168,-0.0077
0.29258,0.95575,0.03055,0.02992,-0.00747,-0.00968
0.29241,0.95582,0.0301,0.03364,-0.00129,-0.01348
0.29225,0.95588,0.02977,0.02921,-0.00318,-0.01404
0.29217,0.95591,0.02966,0.01884,-0.00786,-0.01005
0.29218,0.9559,0.0298,0.01942,0.0029,-0.00683
0.29212,0.95591,0.02995,0.01929,-0.00109,-0.0094
0.29208,0.95592,0.03017,0.00885,0.0015,-0.00696
0.29209,0.9559,0.03059,-0.00911,0.01871,-0.00826
0.29218,0.95586,0.03092,-0.02828,0.029,-0.00532
0.2924,0.9558,0.03092,-0.04121,0.02299,-0.00301
0.29265,0.95573,0.03063,-0.04737,0.01211,0.00274
0.29275,0.95572,0.03001,-0.03795,0.01086,0.01115
0.29263,0.95577,0.02946,-0.03079,0.01417,0.01322
0.29236,0.95586,0.02917,-0.02002,0.01666,0.0072
0.29207,0.95596,0.02898,0.01102,0.00222,-0.01703
0.29205,0.95596,0.02899,0.01103,0.00221,-0.01704
0.29212,0.95593,0.02934,-0.00911,-0.00121,-0.00781
0.29222,0.95588,0.02984,-0.01572,0.0107,-0.00866
0.29226,0.95586,0.03037,-0.01576,0.01073,-0.00919
0.29217,0.95587,0.03076,-0.01053,0.01919,-0.02098
0.29195,0.95593,0.03093,-0.0049,0.01227,-0.01343
0.29173,0.956,0.03075,-0.00334,0.00855,-0.00715
0.29164,0.95604,0.03054,-0.00246,0.00687,-0.00406
0.29161,0.95605,0.03038,0.01215,0.00275,-0.00475
0.29173,0.95603,0.03015,0.01163,0.00305,-0.00218
0.29187,0.95599,0.02989,0.01026,-0.00067,-0.00116
0.292,0.95596,0.02963,0.00802,0.0021,0.00069
0.29216,0.95592,0.02942,0.00263,-0.00035,0.00076
0.29232,0.95586,0.0296,0.00477,0.00063,0.00264
0.29244,0.95581,0.0301,0.00877,0.0076,0.00219
0.29252,0.95577,0.03056,0.01141,0.00323,-0.00712
0.29263,0.95573,0.03086,0.00778,0.00907,-0.0124
0.29284,0.95566,0.03085,-0.00088,0.01205,-0.0142
0.29303,0.95561,0.03066,-0.00661,0.0109,-0.00689
0.29318,0.95557,0.03042,-0.0051,0.00483,-0.00039
0.29322,0.95557,0.03007,-0.0001,0.00439,-0.00071
0.29317,0.9556,0.02969,0.00153,0.00241,0.00304
0.2932,0.9556,0.02938,-0.00339,0.00645,0.00813
0.29333,0.95556,0.02926,-0.00788,0.01167,0.00491
0.29354,0.9555,0.02926,-0.01119,0.01353,0.00414
0.29378,0.95542,0.02935,-0.01288,0.00996,0.0021
0.29404,0.95534,0.02935,-0.0145,0.00952,-0.00379
0.29424,0.95529,0.02919,-0.00269,0.01024,-0.00626
0.2944,0.95525,0.0289,0.0056,0.01193,-0.00972
0.29464,0.95518,0.02873,0.00165,0.00961,-0.00991
0.29501,0.95506,0.02871,-0.00437,0.00517,-0.01487
0.2954,0.95494,0.02865,0.00122,0.003,-0.01946
0.2958,0.95483,0.02842,0.00352,0.00626,-0.02015
0.29615,0.95473,0.0281,0.00283,0.00717,-0.01734
0.29642,0.95465,0.02773,0.0071,0.00645,-0.01214
0.29669,0.95458,0.02736,0.01288,-0.00318,-0.00875
0.29694,0.95451,0.0271,0.01925,-0.00337,-0.01153
0.29715,0.95445,0.02702,0.0272,-0.01049,-0.01054
0.29717,0.95444,0.02715,0.0346,-0.01637,-0.01707
0.29693,0.9545,0.02744,0.0375,-0.03322,-0.02235
0.29652,0.95462,0.02794,0.02418,-0.06369,-0.02368
0.29547,0.95494,0.02794,0.09455,0.05649,0.01533
0.29449,0.9553,0.02578,-0.02372,0.04004,0.0583
0.29567,0.95491,0.02703,-0.10893,0.00884,0.06516
0.29689,0.95448,0.02874,-0.03382,0.04996,-0.03569
0.29816,0.95409,0.02843,-2e-05,-0.06942,0.06771
0.29783,0.95423,0.02714,0.09125,0.05172,-0.0068
0.29762,0.95434,0.0257,-0.00124,0.03749,0.02792
0.29849,0.95407,0.02543,-0.05363,0.02156,0.04932
0.29845,0.95409,0.0253,-0.01518,-0.00669,0.0045
0.29809,0.95421,0.02512,0.04772,-0.01082,-0.01654
0.2979,0.95426,0.02544,0.01744,-0.00678,-0.0417
0.2978,0.95427,0.02622,-0.01971,0.00589,-0.055
0.29759,0.95432,0.02673,-0.01721,0.0095,-0.043
0.29733,0.9544,0.02685,0.00335,0.02366,-0.02557
0.29721,0.95443,0.0269,-0.00236,0.03075,-0.00813
0.29729,0.95441,0.02681,-0.01911,0.01957,0.00154
0.29727,0.95444,0.02608,-0.02173,0.00679,0.00459
0.29712,0.95452,0.02488,-0.01167,0.01246,-0.00074
0.29706,0.95456,0.02396,-0.01654,0.00018,0.00442
0.29701,0.95459,0.02337,-0.00885,-0.00049,0.02349
0.29702,0.95459,0.02328,0.00244,0.00211,0.02994
0.29714,0.95455,0.02339,-0.00028,0.00932,0.01803
0.29734,0.95448,0.02375,-0.00284,0.01256,-0.00486
0.29748,0.95443,0.02397,0.00023,0.00886,-0.02814
0.29757,0.9544,0.02383,0.00376,0.00628,-0.02033
0.29763,0.95439,0.02351,-0.00217,-0.00014,-0.00323
0.29763,0.9544,0.02317,-0.00765,0.00268,0.00889
0.29759,0.95442,0.02289,4e-05,0.00719,-0.00081
0.29755,0.95444,0.02263,0.00126,0.00635,-0.00721
0.2976,0.95443,0.02248,-0.00054,0.00578,-0.01143
0.29773,0.95439,0.0224,-0.00388,0.00387,-0.00674
0.29788,0.95435,0.02229,-0.00683,0.00499,0.00299
0.29797,0.95432,0.02216,-0.00381,0.01007,0.00494
0.29803,0.9543,0.02197,-0.00062,0.00804,0.00259
0.29804,0.9543,0.02178,-0.00127,0.00608,-0.00076
0.29804,0.95431,0.02154,0.00268,0.0041,-0.00891
0.29805,0.95431,0.02129,0.0036,0.00441,-0.01171
0.29812,0.9543,0.02115,0.00286,0.00492,-0.00784
0.29817,0.95428,0.02103,0.00296,0.0035,-0.00417
0.29819,0.95428,0.02079,0.00017,0.00392,-0.00251
0.2982,0.95428,0.02053,-0.00025,0.00304,-0.00517
0.29821,0.95428,0.0203,0.00306,0.00528,-0.00595
0.29823,0.95428,0.02017,0.0012,0.00226,-0.00349
0.29826,0.95427,0.02008,0.00046,-0.00093,-0.00371
0.29827,0.95427,0.0199,0.00149,0.00375,-0.0007
0.29822,0.95429,0.01981,0.0007,0.00349,-0.00268
0.29813,0.95432,0.01987,0.00474,0.00348,0.00123
0.29807,0.95433,0.02008,-0.00144,-0.0024,-0.00331
0.29795,0.95436,0.02033,0.0024,0.00473,-0.00972
0.29782,0.9544,0.02053,0.00391,0.00407,-0.00717
0.29773,0.95443,0.02053,-0.00264,0.00513,0.00355
0.29763,0.95446,0.02049,-0.00593,0.00907,-0.00273
0.29743,0.95452,0.02071,0.00184,0.01304,-0.0105
0.29723,0.95457,0.02102,0.01688,0.01027,-0.01234
0.2972,0.95458,0.02131,0.01156,0.00516,-0.01451
0.29731,0.95454,0.02145,0.00294,0.00392,-0.01701
0.29746,0.9545,0.02134,-0.00384,0.00621,-0.00802
0.29758,0.95446,0.02109,-0.00771,0.008,-0.00257
0.29756,0.95448,0.02072,-0.00854,0.00975,-0.00358
0.2974,0.95454,0.02027,0.0008,0.00298,-0.00536
0.29728,0.95458,0.02,0.01081,0.00041,0.00282
0.2973,0.95457,0.02002,0.00872,0.00055,0.00413
0.29743,0.95453,0.02026,0.00385,0.00331,0.00643
0.29762,0.95446,0.02048,-0.00659,0.00876,-0.005
0.29779,0.95441,0.02052,-0.00607,0.01069,-0.00723
0.29787,0.95439,0.02032,-0.00544,0.00743,-0.00861
0.29787,0.9544,0.01995,-0.00443,0.00155,0.00291
0.29779,0.95443,0.01959,-0.00834,0.00957,0.00843
0.29773,0.95445,0.01938,0.00186,0.00197,0.00343
0.29771,0.95446,0.01936,0.00123,0.00371,-0.00192
0.29772,0.95446,0.01948,-0.00089,0.0067,-0.00784
0.29771,0.95445,0.01963,0.00098,0.00925,-0.00454
0.29772,0.95445,0.01979,0.00064,0.00531,-0.00347
0.2977,0.95445,0.01976,-0.00205,0.00441,-0.00465
0.2977,0.95446,0.01954,-9e-05,0.01034,-0.00778
0.29764,0.95449,0.01918,0.00214,0.00755,-0.00579
0.29756,0.95452,0.01888,0.00223,0.00317,0.00206
0.29751,0.95454,0.01875,0.00263,0.00047,0.00368
0.29753,0.95453,0.01874,0.00185,0.00258,0.0023
0.29754,0.95453,0.01876,0.00251,0.00473,-0.00689
0.29755,0.95452,0.01888,0.00143,0.00381,-0.01275
0.29754,0.95452,0.01899,0.00242,0.00433,-0.01182
0.29747,0.95454,0.01902,0.00279,0.00621,-0.00595
0.29739,0.95457,0.01895,0.00314,0.00543,-0.00278
0.29735,0.95458,0.01886,-0.0023,0.00783,-0.00426
0.29731,0.9546,0.0187,0.00178,0.00585,-0.00663
0.29727,0.95461,0.01853,0.00371,0.00739,-0.00557
0.29726,0.95462,0.01844,0.00042,0.00423,-0.00607
0.29721,0.95463,0.01843,-0.0026,0.00579,-0.00391
0.29718,0.95464,0.01841,-0.00093,0.00633,-0.00295
0.29715,0.95465,0.01843,0.0027,0.00879,-0.00073
0.29711,0.95466,0.01853,0.00102,0.00859,-0.00534
0.29712,0.95466,0.0187,0.00183,0.00791,-0.00704
0.29714,0.95465,0.01881,0.00069,0.00737,-0.00633
0.29716,0.95464,0.01881,0.00067,0.00738,-0.00632
0.29719,0.95463,0.01867,0.00156,0.00745,-0.00424
0.29727,0.95461,0.0185,0.00205,0.01568,-0.00243
0.2974,0.95458,0.01831,0.00261,0.01204,-0.00211
0.29762,0.95451,0.01812,0.00394,0.00707,-0.00188
0.29793,0.95442,0.01786,-0.00206,0.00443,0.00114
0.29818,0.95435,0.01749,-0.01021,-0.00156,0.00452
0.29827,0.95433,0.01712,-0.00576,0.00429,0.00713
0.29828,0.95433,0.01694,-0.00236,0.00542,0.00662
0.29831,0.95432,0.01697,-0.00336,0.0003,0.00181
0.29836,0.9543,0.01712,-0.00303,0.00845,-0.00337
0.29845,0.95427,0.01733,-0.00475,0.01351,-0.00029
0.29854,0.95424,0.01749,-0.01088,0.01084,0.0021
0.29854,0.95424,0.01746,-0.01366,0.00235,0.00448
0.29837,0.9543,0.01728,-0.00894,-0.00289,-0.00627
0.29805,0.95439,0.01724,0.00523,-0.00586,-0.01266
0.29772,0.95449,0.01762,0.01962,0.00907,-0.00929
0.29754,0.95454,0.0182,0.00707,0.01472,-0.00475
0.29756,0.95452,0.01871,-0.00784,0.01905,-0.00066
0.29766,0.95449,0.01869,-0.00936,0.00707,0.00271
0.29763,0.95451,0.01821,0.00521,0.00815,-0.00829
0.29758,0.95453,0.01791,0.00913,0.00709,-0.01887
0.29764,0.95451,0.01779,-0.0004,0.00461,-0.01387
0.29774,0.95448,0.01794,-0.00715,0.00185,-0.00623
0.29786,0.95444,0.01821,0.00259,0.01506,-0.0072
0.29805,0.95437,0.01836,-0.0011,0.01336,-0.00659
0.29835,0.95428,0.01849,-0.01816,0.0111,-0.00398
0.29843,0.95425,0.01839,0.00025,0.00508,-0.00246
0.29826,0.95432,0.01786,0.01422,-0.01216,0.00266
0.29806,0.95439,0.01749,0.00834,-0.01144,0.00457
0.29788,0.95444,0.0174,0.00902,0.00527,0.00274
0.29786,0.95445,0.01752,0.00915,0.01522,0.00086
0.29813,0.95436,0.01796,-0.00153,0.01035,-0.00389
0.29849,0.95423,0.01848,-0.01422,0.01989,-0.00103
0.29881,0.95413,0.01858,-0.02551,0.01608,0.00394
0.29897,0.95409,0.0181,-0.01789,0.01036,0.00935
0.29893,0.95412,0.01735,-0.01037,0.01202,0.01643
0.29883,0.95416,0.01668,-0.0036,0.00644,0.01182
0.29878,0.95419,0.0162,0.00307,-0.00095,0.00887
0.2988,0.95418,0.01596,0.011,-0.00046,0.00835
0.29892,0.95415,0.01593,0.00942,0.0049,0.00842
0.29916,0.95407,0.01595,-0.00585,0.01656,0.00452
0.29945,0.95398,0.01585,-0.01335,0.0211,0.0049
0.29963,0.95393,0.0155,-0.01356,0.00039,-0.00761
0.29962,0.95394,0.01514,0.00196,0.00027,-0.01343
0.29945,0.954,0.01477,0.00847,0.00133,-0.0139
0.29925,0.95406,0.01451,0.02445,0.00315,-0.01883
0.29919,0.95408,0.01449,0.03127,0.00043,-0.01996
0.29927,0.95406,0.01466,0.0333,-0.00159,-0.02043
0.29941,0.95401,0.01484,0.01816,0.0032,-0.02579
0.29953,0.95398,0.01468,0.00778,0.0021,-0.02928
0.29954,0.95398,0.01418,0.00851,0.00167,-0.02448
0.29949,0.954,0.01365,0.01151,0.00111,-0.01401
0.29938,0.95404,0.0133,0.01226,0.00029,-0.00732
0.29927,0.95408,0.01321,0.01827,0.00068,-0.00949
0.29917,0.95411,0.01334,0.02792,-0.00388,-0.01801
0.29913,0.95411,0.0136,0.02895,-0.00908,-0.02044
0.29923,0.95408,0.01402,0.01489,-0.00456,-0.01409
0.29944,0.95401,0.01447,-0.00391,0.01165,-0.00489
0.29963,0.95394,0.01475,-0.01396,0.01742,0.00176
0.29972,0.95391,0.0148,-0.02079,0.01389,0.00331
0.29974,0.9539,0.01484,-0.02479,0.00903,0.00144
0.29966,0.95393,0.01487,-0.00454,0.00264,0.00095
0.29947,0.95399,0.01496,0.00944,-0.00066,0.00122
0.29926,0.95405,0.01512,0.03648,-0.00788,-0.01202
0.29912,0.95409,0.01562,0.04374,-0.01488,-0.01226
0.29904,0.95409,0.01674,0.05073,-0.0178,-0.01696
0.29907,0.95405,0.01845,0.05059,-0.00992,-0.02001
0.29929,0.95395,0.02001,0.02505,-0.00465,-0.01067
0.29982,0.95376,0.02128,-0.00946,0.00675,0.00141
0.30044,0.95353,0.02269,-0.04039,0.02943,0.00705
0.30098,0.95334,0.02372,-0.06013,0.03401,0.02257
0.30122,0.95324,0.02447,-0.06838,0.03501,0.02614
0.30125,0.95322,0.02481,-0.05957,0.02995,0.03517
0.30113,0.95326,0.02482,-0.05256,0.02147,0.03534
0.30092,0.95333,0.0245,-0.04332,0.01545,0.03325
0.30068,0.95342,0.02416,-0.04279,0.00973,0.03
0.30054,0.95347,0.024,-0.03791,0.01728,0.03461
0.30051,0.95347,0.02409,-0.04432,0.02076,0.02948
0.30052,0.95347,0.02427,-0.04838,0.03079,0.01898
0.30051,0.95346,0.02449,-0.05023,0.03328,0.01243
0.30046,0.95348,0.0245,-0.04584,0.03317,0.00377
0.30028,0.95355,0.02398,-0.03494,0.03161,0.00983
0.30008,0.95364,0.023,-0.03091,0.02434,0.02691
0.2999,0.95372,0.02193,-0.03853,0.00862,0.0271
0.29966,0.95382,0.02096,-0.03048,0.00709,0.01979
0.29928,0.95396,0.01983,0.00976,0.00254,-0.00773
0.29888,0.95411,0.01874,0.02143,-0.00226,-0.01354
0.29844,0.95425,0.01827,0.02951,-0.00278,-0.01805
0.29809,0.95437,0.01821,0.05773,-0.01339,-0.02103
0.29799,0.9544,0.01808,0.05782,-0.01342,-0.0209
0.29808,0.95437,0.01821,0.05734,-0.0133,-0.04084
0.29832,0.95429,0.01842,0.04111,-0.00588,-0.05555
0.29843,0.95426,0.01828,0.04138,-0.00836,-0.05475
0.29848,0.95425,0.01794,0.04466,-0.01487,-0.05489
0.29841,0.95428,0.01752,0.05714,-0.01787,-0.05468
0.29829,0.95432,0.01736,0.0745,-0.02112,-0.04331
0.29828,0.95431,0.01782,0.06259,-0.00474,-0.03607
0.29853,0.95422,0.01848,0.028,0.00979,-0.02736
0.29881,0.95413,0.0189,0.0122,0.01291,-0.02485
0.29892,0.95409,0.01879,-0.00035,-0.01049,-0.01982
0.2986,0.95419,0.01866,0.02296,-0.03165,-0.01579
0.29797,0.95439,0.01862,0.03751,-0.03986,-0.00962
0.29739,0.95457,0.01891,0.06087,-0.02815,0.00128
0.29702,0.95466,0.01989,0.04889,-0.0164,-0.00219
0.29701,0.95463,0.02182,0.02225,0.00067,-0.01223
0.29726,0.95449,0.02422,-0.00145,0.01528,-0.01759
0.29745,0.95437,0.02634,-0.02072,0.01918,-0.00805
0.29736,0.95435,0.02815,-0.02885,0.01542,0.0022
0.29699,0.95442,0.02968,-0.02659,0.0143,0.00215
0.29652,0.95452,0.03095,-0.01525,0.01235,-0.00461
0.29618,0.95459,0.03204,-0.00088,0.0158,-0.00027
0.29611,0.95459,0.03297,0.00327,0.00916,0.0061
0.29637,0.95448,0.03376,-0.00964,0.01382,0.01776
0.29694,0.95428,0.0343,-0.04006,0.02167,0.03694
0.2977,0.95402,0.03478,-0.09667,0.05107,0.05884
0.29843,0.95379,0.03501,-0.11536,0.05949,0.06033
0.29888,0.95367,0.03447,-0.11318,0.05187,0.06653
0.29903,0.95366,0.03347,-0.08615,0.02701,0.07262
0.29909,0.95368,0.03232,-0.06534,0.02031,0.0628
0.29903,0.95373,0.03116,-0.03075,0.01636,0.04977
0.29891,0.9538,0.03032,-0.00156,0.01166,0.03676
0.29903,0.95377,0.03005,0.00643,0.0091,0.01892
0.29951,0.95362,0.02992,0.00051,0.01018,0.00092
0.30023,0.95341,0.02963,-0.0035,0.01406,-0.0127
0.30095,0.95319,0.02914,-0.00708,0.01379,-0.01786
0.30151,0.95305,0.02818,-0.00825,0.00934,-0.01689
0.30179,0.953,0.02669,-0.00541,0.00625,-0.01678
0.30166,0.9531,0.02464,0.01789,-6e-05,-0.02241
0.30119,0.9533,0.02257,0.06267,-0.02513,-0.03115
0.30061,0.95351,0.02102,0.0865,-0.04287,-0.02952
0.30015,0.95367,0.0204,0.09873,-0.03911,-0.04293
0.29983,0.95377,0.02047,0.09628,-0.03249,-0.04914
0.29974,0.95379,0.02103,0.0747,-0.0263,-0.04492
0.29986,0.95373,0.02194,0.04366,-0.02023,-0.04865
0.29988,0.9537,0.02295,0.0226,-0.00653,-0.04508
0.29969,0.95374,0.02363,0.01424,-0.00016,-0.03549
0.29925,0.95388,0.02372,0.01281,0.00053,-0.03323
0.29858,0.9541,0.02342,0.02035,-0.00254,-0.03887
0.29783,0.95434,0.02313,0.02768,-0.00593,-0.03655
0.29718,0.95453,0.02331,0.02829,-0.00979,-0.02449
0.29665,0.95468,0.02413,0.02882,-0.00993,-0.02531
0.29622,0.95478,0.02532,0.0204,0.00248,-0.01248
0.29585,0.95486,0.02667,0.01523,-0.00128,-0.01448
0.29551,0.95492,0.02816,0.01276,-0.00143,-0.01797
0.29528,0.95495,0.02957,0.00537,0.0013,-0.01632
0.29523,0.95493,0.03072,-0.04017,0.02764,0.00928
0.29509,0.95495,0.03152,-0.04002,0.02763,0.00848
0.29492,0.95499,0.03172,-0.04639,0.03445,0.04319
0.29481,0.95504,0.03148,-0.05247,0.02845,0.05619
0.29492,0.95501,0.03111,-0.06437,0.03096,0.06174
0.29521,0.95493,0.03078,-0.07253,0.02998,0.0564
0.29558,0.95484,0.0303,-0.05821,0.02293,0.05349
0.29597,0.95473,0.02977,-0.04678,0.01574,0.05393
0.29636,0.95462,0.02958,-0.0527,0.01503,0.05394
0.29655,0.95456,0.02943,-0.04708,0.01417,0.03404
0.29666,0.95455,0.02896,-0.03813,0.02101,0.02631
0.29682,0.9545,0.02859,-0.03579,0.02285,0.01637
0.29699,0.95446,0.02823,-0.0222,0.02419,0.00837
0.29714,0.95443,0.02772,-0.00778,0.02114,0.00293
0.29722,0.95443,0.02704,0.00534,0.01564,-0.00456
0.29732,0.95442,0.02601,0.01344,0.0087,-0.00768
0.29756,0.95438,0.02482,0.00992,0.0009,-0.0193
0.29788,0.95431,0.02352,0.01549,-0.00543,-0.02993
0.29828,0.95422,0.02222,0.02153,-0.00157,-0.02609
0.29871,0.95411,0.02089,0.03161,0.00509,-0.01827
0.29898,0.95406,0.0195,0.04394,-0.00463,-0.01476
0.29894,0.9541,0.01827,0.05552,-0.02302,-0.02682
0.29847,0.95426,0.01706,0.07904,-0.0138,-0.0346
0.2976,0.95455,0.01609,0.0767,-0.03671,-0.04668
0.29684,0.9548,0.01566,0.05841,-0.03553,-0.04067
0.29659,0.95487,0.01588,0.03111,-0.01813,-0.0356
0.29703,0.95472,0.01677,-0.01329,0.00173,-0.0231
0.29808,0.95437,0.01789,-0.0604,-0.01078,-0.01839
0.29868,0.95416,0.0193,-0.15999,-0.0536,0.02289
0.29849,0.95418,0.02107,-0.13135,0.08194,0.03021
0.29876,0.95414,0.01888,0.08622,0.15203,0.04446
0.29877,0.95423,0.01345,0.07062,0.01135,0.08564
0.29873,0.95426,0.01169,-0.02804,-0.03707,0.03906
0.29818,0.95444,0.0114,-0.02152,-0.01841,0.00682
0.29803,0.95449,0.01154,0.01284,-0.02388,0.00132
0.29822,0.95441,0.01293,0.02817,-0.00641,-0.02928
0.29834,0.95435,0.01402,0.02806,0.00655,-0.03001
0.29845,0.9543,0.01503,0.01797,0.01223,-0.03853
0.29845,0.95429,0.0157,0.01811,0.01197,-0.05122
0.29852,0.95427,0.01591,0.01454,0.0112,-0.06628
0.29882,0.95418,0.01561,-0.00036,0.00337,-0.06203
0.29902,0.95413,0.01486,0.00385,0.00423,-0.05609
0.29899,0.95416,0.01352,0.04784,-0.0028,-0.01416
0.29873,0.95426,0.01186,0.04075,-0.00361,0.00072
0.29863,0.9543,0.01099,0.02871,0.00074,0.01152
0.29887,0.95423,0.01079,0.0022,0.00111,0.02609
0.29956,0.95401,0.01106,0.00151,0.00133,0.02583
0.30062,0.95367,0.01131,0.00638,-0.00224,0.02842
0.30162,0.95336,0.01098,-0.05544,0.00406,0.03608
0.30244,0.95311,0.01062,-0.05625,0.00432,0.03644
0.30263,0.95306,0.00996,-0.05668,0.02219,0.0331
0.30196,0.95328,0.00881,0.05013,-0.00214,0.01456
0.30085,0.95365,0.00678,0.04319,-0.014,0.01142
0.30039,0.9538,0.00623,0.02985,-0.01901,0.00889
0.30022,0.95384,0.00702,0.0175,-0.00023,-0.02292
0.30042,0.95377,0.008,0.01833,0.00245,-0.01761
0.30086,0.95362,0.0093,0.00751,0.00483,-0.02218
0.30124,0.95349,0.01031,-0.01887,0.01536,-0.02794
0.30134,0.95346,0.0105,-0.03036,0.02272,-0.03376
0.30117,0.95352,0.01012,-0.02452,0.0169,-0.04072
0.30084,0.95362,0.00966,-0.01251,0.01012,-0.03476
0.30062,0.9537,0.00942,-0.00654,0.01632,-0.02213
0.30048,0.95374,0.00949,-0.01137,0.01139,-0.00839
0.30046,0.95375,0.00936,-0.0098,-0.00326,-0.00673
0.30029,0.95381,0.00862,0.00599,0.00583,-0.00653
0.29947,0.95408,0.00687,-0.00772,0.02344,0.04249
0.2987,0.95434,0.00486,-0.03178,0.02975,0.05848
0.29838,0.95444,0.00425,-0.02343,0.03659,0.044
0.29867,0.95435,0.00437,-0.01002,0.03395,0.02523
0.29936,0.95413,0.00494,-0.01862,0.02564,0.01752
0.29996,0.95394,0.00569,-0.0333,-0.00308,-0.0115
0.30034,0.95381,0.00601,-0.02683,0.00128,-0.01831
0.30042,0.95379,0.0061,-0.00084,-0.00568,-0.02252
0.30003,0.95391,0.006,0.02957,-0.01397,-0.01883
0.29936,0.95412,0.00591,0.04532,-0.02324,-0.02802
0.29866,0.95434,0.00596,0.05443,-0.03021,-0.05221
0.29806,0.95453,0.00599,0.06057,-0.0168,-0.06376
0.29777,0.95462,0.00621,0.03539,-0.00726,-0.0421
0.29791,0.95457,0.00684,0.01699,0.00598,-0.02129
0.29816,0.95449,0.00749,0.00395,0.00729,0.00058
0.29847,0.95439,0.00798,-0.00773,0.00677,0.00729
0.29872,0.9543,0.00833,-0.00937,0.01121,0.00266
0.29895,0.95423,0.00841,0.00365,0.01414,0.00287
0.2992,0.95415,0.00851,0.01329,0.01632,0.01121
0.29951,0.95405,0.00873,0.01122,0.02063,0.01405
0.29979,0.95397,0.00866,-0.005,0.01172,0.00965
0.29981,0.95396,0.00822,-0.00881,0.00832,0.00258
0.29963,0.95402,0.00779,-0.01113,0.00466,0.00505
0.29938,0.9541,0.00773,-0.01357,0.00264,0.00643
0.29922,0.95415,0.00813,-0.01543,-0.00018,-0.00079
0.29912,0.95417,0.00876,-0.00189,0.00826,-0.00097
0.29907,0.95418,0.00933,0.00037,0.00945,-0.00414
0.29909,0.95418,0.00956,0.00105,0.00989,-0.0077
0.29915,0.95416,0.00943,-0.00206,0.0082,-0.00938
0.29926,0.95413,0.00902,-0.00081,0.00679,-0.00726
0.29936,0.9541,0.00873,0.00026,0.00594,0.00043
0.29939,0.95409,0.00859,0.00032,0.00492,0.00467
0.29933,0.95411,0.00851,-0.00043,0.00533,-0.00114
0.29921,0.95415,0.00845,0.00062,0.00304,-0.00537
0.29913,0.95417,0.00848,0.00136,0.0073,-0.0061
0.29912,0.95418,0.00867,0.00049,0.00632,-0.00127
0.29919,0.95415,0.00892,-0.00206,0.00746,0.00032
0.29928,0.95412,0.00915,-0.01969,0.01117,0.00112
0.2993,0.95411,0.00924,-0.01585,0.01279,-0.00345
0.29926,0.95413,0.00903,-0.0093,0.00963,-0.0072
0.29919,0.95415,0.0087,0.00426,0.0034,-0.00485
0.29913,0.95417,0.00834,0.00396,0.00307,0.00024
0.29907,0.95419,0.00811,0.00372,0.005,-0.00053
0.29904,0.9542,0.00801,0.00328,0.00705,-0.0058
0.29905,0.9542,0.00804,0.00283,0.00657,-0.01097
0.29904,0.9542,0.008,0.00366,0.00562,-0.01814
0.29903,0.95421,0.00784,0.00654,0.00359,-0.0113
0.29906,0.9542,0.0076,0.00331,0.00489,-0.00792
0.29912,0.95419,0.00724,-0.0063,0.00877,0.00394
0.29914,0.95418,0.00685,-0.00587,0.00546,-0.00224
0.2991,0.9542,0.0065,5e-05,0.00619,-0.00725
0.29902,0.95422,0.0062,0.0032,0.00449,-0.01214
0.29893,0.95425,0.00592,0.00601,0.00189,-0.00935
0.29889,0.95427,0.00574,0.00627,0.0015,-0.00184
0.29895,0.95425,0.00576,0.0009,0.00753,0.00412
0.29902,0.95423,0.00584,-0.00647,0.00831,-0.00179
0.29904,0.95422,0.00584,-0.00456,0.0069,-0.01205
0.29899,0.95424,0.00564,7e-05,0.00766,-0.01609
0.29891,0.95426,0.00531,0.00207,0.00698,-0.01266
0.29886,0.95428,0.00496,0.0029,0.00602,-0.00119
0.29885,0.95429,0.00469,-0.00196,0.0052,-0.00087
0.29884,0.95429,0.00454,8e-05,0.00939,-0.00495
0.29877,0.95431,0.00443,0.00166,0.00597,-0.01552
0.29873,0.95433,0.00421,0.00442,0.00335,-0.01448
0.29869,0.95434,0.00392,0.00619,0.00639,-0.01293
0.29869,0.95434,0.00365,0.00232,0.00895,-0.00615
0.29867,0.95435,0.00347,-0.00178,0.00639,-0.00309
0.29862,0.95436,0.00327,-0.00494,0.00464,-0.00376
0.29853,0.95439,0.00303,-0.00121,0.00214,-0.00452
0.29844,0.95442,0.00287,0.00801,-0.00069,-0.00739
0.29839,0.95443,0.00299,0.00435,0.00189,-0.00286
0.29841,0.95443,0.00338,0.00552,0.00431,-0.00346
0.29842,0.95442,0.00376,-5e-05,0.01065,-0.00685
0.29843,0.95442,0.00403,-0.00089,0.00896,-0.01415
0.2984,0.95443,0.0043,0.00023,0.00315,-0.01609
0.29831,0.95446,0.00467,0.00197,-0.00309,-0.0152
0.2982,0.95448,0.00532,0.01094,0.0106,-0.01146
0.29825,0.95446,0.00625,0.00577,0.01015,-0.01179
0.29845,0.95439,0.00715,-0.00217,0.002,-0.01319
0.2986,0.95434,0.00771,-0.01015,0.01203,-0.01093
0.29866,0.95433,0.00759,-0.00907,0.01218,0.00168
0.29857,0.95436,0.00699,-0.02209,0.01099,0.02078
0.29819,0.95448,0.00617,-0.02875,0.01002,0.02818
0.29753,0.95469,0.00559,-0.01228,0.00075,0.02741
0.29679,0.95492,0.00595,0.01519,-0.00186,0.00846
0.29631,0.95506,0.00732,0.02922,0.00223,-0.01654
0.29636,0.95503,0.00933,0.02026,0.00033,-0.02718
0.29678,0.95487,0.01138,-0.00938,0.01685,-0.02717
0.29731,0.9547,0.0126,-0.01873,0.02222,-0.02415
0.2976,0.9546,0.01253,-0.02751,0.02095,-0.01417
0.29751,0.95465,0.01132,-0.02016,0.01162,-0.00311
0.29707,0.9548,0.00958,-0.00829,0.00622,-0.00211
0.29653,0.95498,0.00833,0.0177,-0.00271,0.00224
0.2962,0.95509,0.00822,0.03038,-0.01333,0.00277
0.29631,0.95504,0.00923,0.01547,0.00606,-0.00873
0.29675,0.95489,0.01066,0.00104,0.01535,-0.00842
0.29727,0.95471,0.01181,-0.01291,0.01634,-0.00229
0.29762,0.9546,0.01253,-0.02341,0.00977,-0.00351
0.29762,0.9546,0.0125,-0.01378,0.00371,-0.00305
0.29733,0.9547,0.01195,0.00749,-0.00122,-0.00852
0.2971,0.95477,0.0115,0.01819,0.00032,-0.00927
0.2971,0.95477,0.01137,0.01224,0.00661,-0.01148
0.29737,0.95469,0.01148,0.0041,0.01301,-0.00384
0.29781,0.95455,0.01172,-0.00646,0.00778,0.00459
0.29825,0.95441,0.01194,-0.01665,0.0089,0.00602
0.29841,0.95436,0.01197,-0.01368,0.00369,0.00264
0.29824,0.95441,0.01182,-0.00017,0.00524,-0.00776
0.29798,0.95449,0.01172,0.01358,-0.00013,-0.01014
0.29787,0.95453,0.01189,0.01519,0.0011,-0.00839
0.29798,0.95449,0.01237,0.00687,0.00381,-0.0094
0.29823,0.9544,0.01289,-0.00068,0.00733,-0.00864
0.2985,0.95431,0.01312,-0.01175,0.01387,-0.01007
0.29866,0.95427,0.01289,-0.01188,0.01399,-0.00885
0.29859,0.9543,0.01238,-0.00957,0.0129,-0.006
0.29837,0.95437,0.01194,0.00293,0.00149,0.00329
0.29816,0.95444,0.01185,0.01077,-0.0032,-0.00564
0.2981,0.95445,0.01222,0.01273,-0.00026,-0.00625
0.29821,0.95441,0.01285,0.01339,0.00407,-0.01
0.29844,0.95433,0.01348,-0.00428,0.00937,-0.01884
0.29867,0.95425,0.01389,-0.00835,0.01059,-0.01618
0.29877,0.95422,0.01394,-0.00935,0.00843,-0.01232
0.29878,0.95422,0.01357,-0.00683,0.01024,-0.00167
0.29867,0.95426,0.01308,-0.00539,0.01069,-0.00588
0.29851,0.95432,0.01266,0.00142,0.00871,-0.00583
0.29841,0.95435,0.01247,0.0101,-0.00124,-0.00397
0.29847,0.95433,0.01259,0.01101,-0.00174,-0.00447
0.29861,0.95428,0.01293,0.00793,0.00157,-0.00272
0.29873,0.95424,0.01324,-0.00146,0.00532,0.00226
0.29884,0.9542,0.01335,-0.00786,0.00406,-0.00313
0.2989,0.95419,0.01322,-0.00715,0.00611,-0.00295
0.29886,0.9542,0.013,0.00106,0.00487,0.00012
0.29885,0.95421,0.01282,0.00485,0.00351,-0.0034
0.29891,0.95419,0.01274,0.00266,0.00533,-0.00345
0.29899,0.95417,0.01277,0.00205,0.0063,-0.00444
0.2991,0.95413,0.01288,0.00308,0.0071,-0.00755
0.29923,0.95409,0.013,-0.00084,0.00677,-0.01622
0.29932,0.95406,0.01304,0.00419,0.005,-0.01644
0.29937,0.95404,0.01298,0.00564,0.00355,-0.01184
0.29942,0.95403,0.01286,-0.00174,0.00937,-0.00889
0.29947,0.95401,0.01269,-0.00266,0.01008,-0.00945
0.29948,0.95402,0.01241,2e-05,0.00504,-0.00614
0.29948,0.95402,0.01218,0.00162,0.00387,-0.00374
0.2995,0.95401,0.01215,-0.0005,0.00244,-0.00223
0.29952,0.954,0.01234,-0.00117,0.00671,-0.00405
0.29951,0.954,0.0126,0.00196,0.00715,-0.00826
0.29949,0.95401,0.0128,0.00164,0.00734,-0.01099
0.29949,0.954,0.01294,0.00049,0.00677,-0.01105
0.2995,0.954,0.0129,-0.00093,0.00616,-0.00313
0.29946,0.95402,0.01265,-0.00564,0.005,-0.00095
0.2994,0.95404,0.01232,-0.00623,0.00583,-0.00076
0.29927,0.95409,0.01207,-0.0023,0.005,-0.00264
0.29911,0.95414,0.01197,0.00463,0.00381,-0.00211
0.29902,0.95416,0.01217,0.00512,0.00284,-0.00573
0.29901,0.95416,0.01258,0.00281,0.00562,-0.00765
0.29907,0.95414,0.0131,0.00197,0.00482,-0.00795
0.29917,0.9541,0.01344,-0.00369,0.00855,-0.00995
0.29919,0.95409,0.0135,-0.00409,0.00842,-0.01205
0.29913,0.95411,0.01325,-0.0,0.01265,-0.0111
0.29905,0.95415,0.01284,0.00253,0.00791,-0.0119
0.29901,0.95416,0.01251,0.00264,0.00325,-0.00864
0.29902,0.95416,0.01234,0.00668,0.00136,-0.00613
0.29914,0.95413,0.01237,0.00657,0.0014,-0.00615
0.29927,0.95408,0.01253,0.00104,0.00614,-0.00863
0.29941,0.95403,0.01274,-0.00103,0.00771,-0.00919
0.2995,0.954,0.01285,9e-05,0.00719,-0.00732
0.29956,0.95398,0.01286,-0.00125,0.00761,-0.00247
0.29962,0.95397,0.01285,-0.00353,0.00779,-0.00429
0.29966,0.95395,0.01286,-0.00426,0.00726,-0.00395
0.2997,0.95394,0.01291,-0.00032,0.00692,-0.00705
0.29975,0.95392,0.01291,-0.00065,0.0073,-0.00749
0.29984,0.9539,0.01284,-0.00199,0.00718,-0.00657
0.29989,0.95388,0.01277,-0.00483,0.00765,-0.00131
0.29991,0.95388,0.01269,-0.00602,0.00656,0.00075
0.29986,0.95389,0.01261,-0.00234,0.00562,-0.00268
0.29977,0.95392,0.01255,0.00426,0.00668,-0.00944
0.29971,0.95394,0.01257,0.00945,0.00352,-0.00767
0.29976,0.95392,0.01273,0.00549,0.00512,-0.00849
0.29985,0.95389,0.01296,-0.00163,0.00596,-0.00631
0.29995,0.95386,0.0132,-0.00225,0.0063,-0.00974
0.30003,0.95383,0.01323,-0.00243,0.00765,-0.01319
0.30003,0.95383,0.01303,0.00171,0.00571,-0.01255
0.3,0.95385,0.01272,0.00541,0.0019,-0.00413
0.30003,0.95384,0.01245,4e-05,0.00473,0.00411
0.30006,0.95383,0.01229,-0.00316,0.00443,-0.00229
0.30009,0.95383,0.01222,0.00287,0.00456,-0.00845
0.30013,0.95381,0.0123,0.00307,0.00697,-0.0081
0.30019,0.95379,0.01241,-0.0006,0.00423,-0.00159
0.30022,0.95378,0.01245,-0.00046,0.00539,-0.0046
0.30021,0.95378,0.01244,-0.00036,0.00676,-0.00541
0.30019,0.95379,0.01246,-0.00321,0.00928,-5e-05
0.30012,0.95381,0.0125,-0.00706,0.00668,-0.00492
0.30005,0.95383,0.01249,0.00017,0.00593,-0.01345
0.29998,0.95386,0.01249,0.00877,0.00369,-0.02134
0.29995,0.95386,0.01263,0.00788,0.00347,-0.01361
0.29998,0.95385,0.01285,0.00149,0.00696,-0.0106
0.30002,0.95384,0.01299,-0.0013,0.00925,-0.01092
0.30003,0.95383,0.013,-0.00073,0.0081,-0.01608
0.30003,0.95383,0.01289,0.00046,0.00632,-0.0208
0.30002,0.95384,0.01265,0.00143,0.00394,-0.01317
0.29999,0.95385,0.01237,0.00059,0.00451,0.00022
0.30001,0.95385,0.01221,0.00018,0.00492,0.01072
0.30004,0.95384,0.01231,-0.00266,0.00527,0.00934
0.30006,0.95383,0.01251,0.0009,0.00589,-0.00853
0.30005,0.95383,0.01268,0.00092,0.00589,-0.0087
0.30003,0.95383,0.01282,0.00157,0.00373,-0.01056
0.30003,0.95383,0.01292,0.00139,0.00201,0.00283
0.30004,0.95383,0.01302,-0.00435,0.00578,0.0056
0.30002,0.95383,0.01318,-0.00611,0.00796,0.0058
0.29991,0.95387,0.01329,-0.00081,0.00844,-0.009
0.29979,0.9539,0.01328,-0.00073,0.00868,-0.01552
0.2997,0.95393,0.01321,0.00595,0.00429,-0.01298
0.29965,0.95395,0.01317,0.00255,0.00227,-0.00026
0.29966,0.95395,0.01318,-0.0034,0.00495,0.00534
0.29964,0.95395,0.01325,-0.007,0.00673,-0.00023
0.29955,0.95398,0.01332,-0.00194,0.00552,-0.01026
0.29941,0.95402,0.01336,0.0027,0.00644,-0.0151
0.29931,0.95405,0.01327,0.00443,0.00263,-0.01471
0.29926,0.95407,0.01324,0.00457,0.00331,-0.0043
0.29928,0.95406,0.01333,-0.00416,0.00384,0.00113
0.29933,0.95405,0.01351,-0.00422,0.00685,-0.00055
0.29927,0.95406,0.01362,-0.00174,0.01011,-0.01463
0.2992,0.95409,0.01356,0.00385,0.00913,-0.01742
0.29916,0.9541,0.01345,-0.0024,0.00362,-0.00803
0.2992,0.95409,0.01331,-0.00423,0.00254,-0.007
0.29922,0.95408,0.01326,-0.00459,0.00447,0.0003
0.29922,0.95408,0.01336,0.00136,0.00776,-0.00652
0.29922,0.95408,0.01344,0.00222,0.01037,-0.01794
0.29924,0.95407,0.01345,0.00267,0.00966,-0.01419
0.29931,0.95405,0.01348,0.00216,0.00601,-0.00565
0.29944,0.95401,0.01355,-0.00578,0.00572,-0.00059
0.29956,0.95397,0.01354,-0.00735,0.00664,-0.00417
0.29958,0.95397,0.01348,-0.00107,0.00819,-0.01011
0.29954,0.95398,0.01339,0.00316,0.00508,-0.01054
0.29951,0.95399,0.01328,0.00404,0.00447,-0.00669
0.29952,0.95399,0.0132,0.00192,0.006,-0.00029
0.29959,0.95397,0.01323,9e-05,0.00543,0.00209
0.29964,0.95395,0.01335,-0.002,0.00627,-0.00328
0.29966,0.95394,0.01348,0.0024,0.00788,-0.01062
0.29964,0.95395,0.01361,0.00575,0.00289,-0.01315
0.29965,0.95394,0.01369,0.00459,0.00492,-0.01032
0.29969,0.95393,0.01369,0.00092,0.00661,-0.00641
0.29972,0.95392,0.0136,-0.00187,0.00586,-0.0069
0.29969,0.95393,0.01343,-0.00088,0.0042,-0.00589
0.29963,0.95395,0.01331,0.00405,0.00331,-0.00643
0.29957,0.95397,0.01325,0.0038,0.00078,8e-05
0.29955,0.95398,0.01334,0.00197,0.00533,-0.00031
0.29956,0.95397,0.01357,0.00109,0.00486,-0.00017
0.29956,0.95397,0.01381,0.00062,0.00695,-0.01448
0.29953,0.95397,0.01397,0.00065,0.00695,-0.01464
0.29947,0.95399,0.01402,0.00364,0.00637,-0.01361
0.29945,0.954,0.01394,0.00112,0.00427,0.00011
0.29942,0.95401,0.01382,0.00114,0.00426,0.00023
0.29937,0.95403,0.01364,0.00048,0.01052,-0.01036
0.29934,0.95404,0.01344,-0.00088,0.00403,-0.00872
0.29931,0.95405,0.01332,-0.00084,0.00401,-0.0086
0.29933,0.95405,0.0134,-0.00013,0.00164,-0.00263
0.29937,0.95403,0.0137,0.00185,0.00535,-0.00427
0.29943,0.954,0.01409,0.00109,0.00968,-0.00957
0.29944,0.954,0.01428,0.00021,0.00815,-0.01302
0.29941,0.95401,0.0142,0.00353,0.00612,-0.0155
0.29938,0.95402,0.01398,0.00464,0.00611,-0.01086
0.29937,0.95403,0.01383,0.00085,0.00425,-0.00495
0.29935,0.95404,0.01373,-0.00106,0.0057,-0.00281
0.29934,0.95404,0.01368,-0.00135,0.00732,-0.00445
0.29932,0.95405,0.01365,0.00059,0.00517,-0.01032
0.29931,0.95405,0.01361,-0.00126,0.00452,-0.01024
0.29933,0.95405,0.01356,-0.00265,0.00412,-0.00456
0.29935,0.95404,0.01363,-0.00239,0.00812,0.00311
0.29935,0.95403,0.01385,-0.00344,0.00732,-0.00027
0.29935,0.95403,0.01404,0.00021,0.00628,-0.00923
0.29935,0.95403,0.01414,0.00137,0.00727,-0.01385
0.29938,0.95402,0.01419,-0.00127,0.0057,-0.01358
0.29943,0.954,0.01417,-0.00223,0.00757,-0.00444
0.29947,0.95399,0.01418,-0.00296,0.00699,-0.00059
0.29952,0.95397,0.01423,-0.00251,0.00951,-0.00259
0.29959,0.95395,0.01424,0.00083,0.00697,-0.0045
0.2997,0.95392,0.01435,-0.00203,0.00623,-0.00754
0.29984,0.95387,0.01443,-0.00389,0.0078,-0.00581
0.29997,0.95383,0.01439,-0.00277,0.00758,-0.00539
0.30005,0.95381,0.01419,-0.00386,0.00609,-0.00232
0.3001,0.9538,0.01401,-0.00383,0.00772,-0.00155
0.30013,0.95379,0.014,0.00273,0.00521,-0.00115
0.30018,0.95377,0.01401,0.0012,0.00328,-0.0089
0.30025,0.95375,0.01392,0.0037,0.00516,-0.01172
0.30031,0.95373,0.01385,0.00232,0.00873,-0.00523
0.30036,0.95372,0.01379,-0.00248,0.00621,0.00156
0.30038,0.95371,0.01374,-0.00484,0.00359,0.00024
0.30037,0.95372,0.01361,-0.00137,0.00162,-0.00527
0.30033,0.95373,0.01344,0.00447,0.00249,-0.00833
0.3003,0.95374,0.01343,0.00551,0.00286,-0.00331
0.30031,0.95374,0.01349,0.00157,0.0058,-0.00754
0.30031,0.95374,0.01353,0.00549,0.00834,-0.0081
0.30029,0.95374,0.0135,0.00546,0.00445,-0.00962
0.30028,0.95375,0.01343,0.00446,0.00244,-0.01195
0.30025,0.95376,0.01331,0.00568,0.00265,-0.01036
0.30019,0.95378,0.01316,0.00453,0.004,-0.00668
0.30015,0.95379,0.01311,0.00379,0.0027,-0.00713
0.3001,0.95381,0.01315,0.00018,0.00542,-0.00856
0.30006,0.95382,0.01315,0.00638,0.00353,-0.01126
0.30004,0.95383,0.01323,0.00675,0.00339,-0.01005
0.30003,0.95383,0.0134,0.00395,0.00473,-0.00678
0.30005,0.95382,0.0136,-0.00213,0.00756,-0.00669
0.29998,0.95384,0.01366,0.00072,0.00731,-0.00918
0.29988,0.95387,0.0136,-0.00026,0.00714,-0.01262
0.29981,0.95389,0.01351,0.00021,0.00431,-0.00849
0.29973,0.95392,0.01352,0.00056,0.00397,-0.00548
0.29968,0.95393,0.01371,0.00058,0.00481,-0.00043
0.29964,0.95394,0.01396,0.00221,0.0089,-0.00737
0.29962,0.95394,0.01419,3e-05,0.00826,-0.01107
0.29962,0.95394,0.01431,-0.00142,0.00835,-0.01414
0.29958,0.95395,0.01442,-0.00338,0.00302,-0.00502
0.29953,0.95397,0.01453,-0.00302,0.00476,0.00053
0.29948,0.95398,0.01467,-0.00207,0.00722,-0.00241
0.29942,0.954,0.01484,-0.00201,0.00589,-0.00794
0.29939,0.954,0.01498,0.0009,0.00562,-0.01208
0.29936,0.95401,0.01509,0.00268,0.00935,-0.01414
0.29936,0.95401,0.01514,1e-05,0.00893,-0.00608
0.29936,0.95401,0.01525,-0.00284,0.0082,0.00097
0.29932,0.95402,0.01543,-0.00693,0.00158,0.00085
0.29925,0.95404,0.01562,0.00135,0.00385,-0.01022
0.29918,0.95406,0.0158,0.00435,0.00526,-0.01029
0.29917,0.95405,0.01601,0.00223,0.00766,-0.013
0.29923,0.95403,0.01622,0.00176,0.00748,-0.00648
0.29928,0.95401,0.01642,-0.00045,0.00508,0.00032
0.29929,0.95401,0.01659,-0.00411,0.0078,-0.00182
0.29926,0.95402,0.01663,0.00015,0.00637,-0.00824
0.29923,0.95403,0.01667,0.0026,0.00804,-0.00908
0.29922,0.95403,0.01673,0.00132,0.0029,-0.00533
0.29924,0.95402,0.01678,-0.00058,0.00446,-0.00178
0.29926,0.95401,0.01685,-0.00251,0.00375,-0.00159
0.29927,0.95401,0.01696,-0.00236,0.00695,1e-05
0.29927,0.95401,0.01713,0.00329,0.00672,-0.00642
0.29926,0.954,0.01729,0.00384,0.00419,-0.01236
0.29926,0.954,0.0175,0.00404,0.0035,-0.00955
0.2993,0.95399,0.01772,0.0022,0.00764,-0.00369
0.29936,0.95396,0.01792,-0.00088,0.00914,0.0006
0.2994,0.95395,0.01807,-0.0044,0.008,-0.00153
0.29938,0.95395,0.01806,0.0034,0.00308,-0.01455
0.29931,0.95398,0.01797,0.00579,0.00441,-0.01418
0.2993,0.95398,0.01792,0.00524,0.00265,-0.01186
0.2993,0.95398,0.01802,0.00116,0.00648,0.00606
0.29932,0.95397,0.01824,0.00114,0.0065,0.00584
0.29934,0.95396,0.01842,-0.00028,0.00921,-0.00637
0.29936,0.95395,0.01852,0.00163,0.0108,-0.01592
0.29939,0.95394,0.01854,0.00054,0.00916,-0.01399
0.2994,0.95394,0.01853,0.00037,0.00096,-0.00631
0.2994,0.95394,0.01843,0.00033,0.00892,-0.00191
0.29938,0.95395,0.0184,0.00148,0.00939,0.00505
0.29939,0.95394,0.01855,0.00036,0.0079,0.00025
0.29938,0.95394,0.01865,0.00283,0.00355,-0.01522
0.29939,0.95394,0.0187,0.00341,0.00169,-0.01574
0.2994,0.95393,0.01885,0.0081,0.00067,-0.00902
0.29946,0.95391,0.0191,0.00349,0.00543,0.00034
0.29954,0.95388,0.01939,-0.00369,0.00695,-0.00374
0.29957,0.95386,0.01954,-6e-05,0.00735,-0.01181
0.29959,0.95386,0.01951,0.00221,0.00907,-0.01483
0.29964,0.95384,0.01937,-0.00013,0.00714,-0.0085
0.29968,0.95383,0.01931,-0.00196,0.00764,0.00781
0.2997,0.95383,0.01944,-0.00369,0.00609,0.00695
0.29971,0.95382,0.01965,-0.00114,0.00654,0.00084
0.2997,0.95381,0.01984,0.00305,0.00648,-0.01601
0.29973,0.9538,0.01996,0.00258,0.00496,-0.01238
0.29981,0.95378,0.02007,0.00181,0.00377,-0.00888
0.29986,0.95376,0.02022,-0.00419,0.00695,0.00212
0.29989,0.95375,0.02029,-0.00515,0.00683,-0.00036
0.29987,0.95375,0.0203,0.0005,0.00755,-0.00435
0.29984,0.95376,0.02023,0.00145,0.00559,-0.00401
0.29983,0.95377,0.02021,2e-05,0.00418,-0.003
0.29984,0.95376,0.0203,-0.00072,0.0078,0.00129
0.29986,0.95375,0.02049,-0.0038,0.00607,0.00264
0.29983,0.95375,0.02077,-0.00186,0.0048,-0.00465
0.29977,0.95377,0.02092,0.00333,0.00662,-0.01228
0.29972,0.95379,0.02088,0.0039,0.00611,-0.01132
0.29971,0.95379,0.02083,0.00166,0.00394,-0.00163
0.29974,0.95378,0.02083,-0.0016,0.00694,-0.0001
0.29974,0.95378,0.02093,0.00012,0.0085,-0.00476
0.29971,0.95379,0.02104,0.00102,0.00642,-0.00761
0.29968,0.9538,0.02104,0.00685,0.0054,-0.01393
0.29969,0.95379,0.02098,0.00937,0.01142,-0.00958
0.29979,0.95376,0.02091,0.00636,0.0082,-0.00208
0.29993,0.95372,0.02091,-0.00452,0.0068,0.00349
0.30006,0.95368,0.02087,-0.00799,0.00707,0.00032
0.30015,0.95366,0.0207,0.00496,0.0019,-0.01133
0.30019,0.95365,0.02052,0.00493,0.0019,-0.01115
0.30026,0.95363,0.02046,0.00534,0.00371,-0.00827
0.30034,0.9536,0.02052,0.00247,0.00418,-0.00442
0.30043,0.95357,0.02061,0.00256,0.00764,-0.00509
0.30052,0.95354,0.02055,0.00158,0.00712,-0.00714
0.30059,0.95352,0.02043,0.00272,0.00383,-0.00803
0.30065,0.95351,0.02033,0.00329,0.00526,-0.00588
0.30069,0.95349,0.02031,-0.00301,0.00459,0.00251
0.30066,0.9535,0.02022,-0.0015,0.00315,-0.00457
0.30062,0.95352,0.0201,0.00074,0.00385,-0.00721
0.3006,0.95353,0.02009,0.0011,0.00462,-0.00059
0.30061,0.95352,0.02019,0.00075,0.0042,0.00228
0.3006,0.95352,0.02027,-0.00313,0.00563,-0.00327
0.30057,0.95353,0.02036,-0.00221,0.00609,-0.00594
0.30051,0.95355,0.02041,-0.00162,0.00821,-0.01015
0.30045,0.95357,0.02044,0.00042,0.0065,-0.0054
0.30039,0.95359,0.02046,-0.00069,0.00424,-0.00423
0.30033,0.9536,0.02048,0.00256,0.00517,-0.00647
0.30029,0.95361,0.02052,0.00342,0.0029,-0.00529
0.30024,0.95363,0.02067,0.00045,0.00662,-0.00564
0.30018,0.95364,0.02084,-0.00015,0.00511,-0.00605
0.30013,0.95365,0.02096,0.00137,0.00629,-0.00662
0.30011,0.95366,0.0211,-0.00228,0.00726,-0.00154
0.30012,0.95365,0.02133,-0.00307,0.00863,-0.01144
0.30007,0.95366,0.02141,0.00062,0.00532,-0.01223
0.29998,0.95369,0.02139,0.00338,0.00267,-0.00799
0.2999,0.95372,0.02132,0.00413,0.00633,-0.00313
0.29984,0.95374,0.02139,0.00275,0.00851,0.00077
0.29979,0.95375,0.02155,-0.00116,0.00559,-0.0041
0.29977,0.95375,0.02167,-0.00015,0.00511,-0.00884
0.29974,0.95376,0.02178,0.0019,0.00316,-0.00968
0.29972,0.95376,0.02189,0.00251,0.00376,-0.00634
0.2997,0.95377,0.02209,0.00351,0.00734,-0.00143
0.29971,0.95376,0.02225,0.00124,0.00558,-0.00197
0.29971,0.95376,0.02232,-0.00049,0.0088,-0.00387
0.29971,0.95376,0.02232,0.00031,0.0074,-0.00799
0.2997,0.95376,0.02224,0.00099,0.00678,-0.01081
0.29968,0.95377,0.02212,0.00182,0.00715,-0.00402
0.29969,0.95377,0.022,0.00292,0.00555,0.00159
0.29972,0.95376,0.02201,-0.00102,0.00478,0.0055
0.29974,0.95375,0.022,-0.00012,0.00261,0.00139
0.29974,0.95375,0.02199,0.00172,0.00467,-0.00309
0.29975,0.95375,0.02203,0.00172,0.00467,-0.00313
0.29977,0.95374,0.02211,0.00147,0.00442,-0.00075
0.29983,0.95372,0.02218,-0.00207,0.00761,-0.00013
0.29988,0.9537,0.02214,-0.0024,0.00775,0.00064
0.29991,0.9537,0.02207,-0.00243,0.00712,-0.00075
0.2999,0.9537,0.0219,-0.0013,0.00395,-0.00253
0.29989,0.95371,0.02178,-0.00059,0.00489,-0.00206
0.29988,0.95372,0.02169,-0.00012,0.008,-0.00146
0.29989,0.95371,0.02164,0.00119,0.00535,0.00053
0.29991,0.95371,0.02159,0.00052,0.00569,-0.00035
0.29994,0.9537,0.02151,0.00032,0.00763,-0.00033
0.29994,0.9537,0.02147,0.00023,0.0056,-0.00321
0.29995,0.9537,0.02148,0.00048,0.00693,-0.00248
0.29997,0.95369,0.02148,-0.00045,0.00845,-0.00334
0.29998,0.9537,0.02131,0.00222,0.00538,-0.00605
0.29998,0.9537,0.02108,0.00306,0.00594,-0.00769
0.3,0.9537,0.02081,0.00494,0.00628,-0.00612
0.30003,0.95369,0.02065,-0.00262,0.00309,0.00439
0.30003,0.95369,0.02055,-0.00467,0.0028,0.00186
0.30001,0.9537,0.02051,0.00071,0.00071,0.00218
0.3,0.9537,0.0206,0.00713,0.0058,-0.00432
0.30007,0.95368,0.02072,0.00465,0.00866,-0.00886
0.30016,0.95365,0.02073,0.0009,0.00692,-0.01535
0.30023,0.95363,0.02052,0.00162,0.00523,-0.00536
0.30027,0.95363,0.02014,-0.002,0.00437,0.00061
0.30027,0.95364,0.01972,-2e-05,0.0059,0.00146
0.30021,0.95366,0.0194,0.00378,0.00584,0.00109
0.30019,0.95367,0.01924,0.00374,0.00581,-0.00195
0.30021,0.95367,0.01923,0.00228,0.00407,-0.00456
0.30025,0.95365,0.01918,0.00111,0.00451,-0.00532
0.30033,0.95363,0.01915,0.00156,0.00442,-0.00282
0.30041,0.9536,0.01915,-0.00432,0.00729,-0.00123
0.30043,0.9536,0.01901,-0.00381,0.00563,-0.0056
0.30039,0.95362,0.01869,0.00082,0.00426,-0.00631
0.30037,0.95363,0.01837,0.00178,0.00497,-0.00283
0.3004,0.95363,0.01812,0.00178,0.00543,-3e-05
0.30042,0.95362,0.01798,-0.0033,0.00525,0.00209
0.30045,0.95361,0.01788,-0.00045,0.00479,-0.00201
0.30043,0.95362,0.01779,0.00227,0.00603,-0.00344
0.30039,0.95364,0.0177,0.00176,0.00439,-0.0012
0.30037,0.95365,0.01764,0.00333,0.00599,0.00176
0.30038,0.95365,0.01766,0.00112,0.00607,0.00256
0.30037,0.95365,0.01769,0.00191,0.00694,-0.00637
0.30038,0.95364,0.01767,0.00187,0.01138,-0.01477
0.30038,0.95365,0.01752,0.00151,0.00656,-0.00905
0.30039,0.95365,0.01724,0.0028,0.00189,0.00141
0.30038,0.95366,0.01696,0.00089,0.00318,0.00596
0.30033,0.95368,0.01676,0.00343,0.00743,0.00503
0.30024,0.95371,0.01662,0.0043,0.00773,0.00159
0.30016,0.95373,0.0165,0.00197,0.00296,-0.00843
0.30012,0.95375,0.01643,0.00677,0.00217,-0.00502
0.30011,0.95375,0.01643,0.00603,0.00186,-0.00013
0.30014,0.95374,0.01649,0.00427,0.00489,-0.00333
0.30017,0.95373,0.01651,-0.00207,0.00676,-0.00714
0.30014,0.95374,0.01639,0.00243,0.0054,-0.00971
0.30009,0.95376,0.01609,0.00575,0.00536,-0.01007
0.30007,0.95377,0.01571,0.00205,0.00469,-0.00172
0.30005,0.95378,0.01551,0.00175,0.00412,0.00262
0.30005,0.95378,0.01547,0.00047,0.00448,0.00385
0.30004,0.95379,0.01542,-0.00024,0.00648,-0.00146
0.30004,0.95379,0.01536,0.00103,0.00614,-0.00395
0.30005,0.95379,0.01518,0.00155,0.00555,-0.00589
0.30006,0.95379,0.01506,-0.00179,0.00533,0.00326
0.30004,0.9538,0.01492,-0.00184,0.00403,0.00245
0.3,0.95381,0.01475,-0.00145,0.00296,0.00196
0.29996,0.95383,0.01463,0.00482,0.00796,-0.00369
0.29997,0.95383,0.01456,0.00254,0.01015,-0.001
0.30005,0.9538,0.01449,0.00046,0.00526,-0.00488
0.30012,0.95378,0.01436,-0.00341,0.00391,-0.00481
0.30017,0.95377,0.01418,-0.00247,0.00705,-0.00255
0.30016,0.95377,0.01395,0.0009,0.00581,-0.00129
0.30015,0.95378,0.01373,0.00133,0.00957,-0.00076
0.3002,0.95377,0.01356,0.00121,0.01013,0.00122
0.30033,0.95373,0.01343,-0.00026,0.00776,0.00123
0.3005,0.95368,0.01326,-0.00287,0.01056,-0.0049
0.30065,0.95363,0.01302,-0.00294,0.01097,-0.00595
0.30075,0.9536,0.01273,-0.00091,0.00242,1e-05
0.30084,0.95358,0.01245,0.00339,0.0013,0.00115
0.3009,0.95356,0.01219,0.00755,0.0045,-0.00387
0.30098,0.95354,0.01204,0.00615,0.00665,-0.00078
0.30112,0.9535,0.01199,0.00459,0.00445,-0.00328
0.30137,0.95342,0.01201,0.00293,0.00549,-0.00093
0.30164,0.95333,0.01199,-0.00129,0.006,0.00165
0.30191,0.95325,0.01175,-0.00074,0.00651,-0.00135
0.3021,0.9532,0.01123,-0.00322,0.00508,-6e-05
0.30216,0.95319,0.01058,0.00092,0.00446,0.00454
0.30218,0.95319,0.01002,0.00328,0.00311,0.00919
0.3022,0.95318,0.00971,0.00501,0.00379,0.00105
0.30228,0.95316,0.00962,0.00527,0.00409,-0.00335
0.30247,0.9531,0.00967,0.00681,0.00564,-0.00612
0.3027,0.95302,0.00976,0.00127,0.00817,-0.00549
0.30294,0.95295,0.00975,-0.0071,0.00738,-0.00751
0.30304,0.95292,0.00944,-0.0089,0.00829,-0.00271
0.30299,0.95294,0.0088,-0.0042,0.00447,0.0003
0.30285,0.95299,0.00809,0.00502,0.00169,0.00681
0.3027,0.95304,0.00756,0.0062,0.00234,0.00911
0.30257,0.95309,0.0074,0.00558,0.00251,0.00629
0.30252,0.9531,0.00756,0.01008,0.00361,-0.0023
0.30257,0.95308,0.00794,0.00655,0.00602,-0.00813
0.30264,0.95305,0.0084,0.00612,0.00799,-0.00927
0.30275,0.95302,0.00881,-0.00308,0.00037,-0.01329
0.30286,0.95298,0.00897,-0.01032,0.0046,-0.01384
0.30285,0.95299,0.00854,-0.01152,0.00815,-0.00932
0.3027,0.95305,0.00741,-0.01611,0.01177,0.01406
0.30233,0.95317,0.00607,-0.00622,0.01005,0.02176
0.30179,0.95335,0.00501,0.0055,0.00286,0.02488
0.30119,0.95354,0.00488,0.02295,-0.00426,0.00933
0.30078,0.95366,0.00596,0.02612,-0.01687,-0.02368
0.3008,0.95364,0.00772,0.02418,-0.01913,-0.02908
0.30116,0.95351,0.00969,0.00319,0.00591,-0.02698
0.30157,0.95337,0.01097,-0.02084,0.02812,-0.01367
0.30163,0.95335,0.01075,-0.03911,0.02713,-0.00303
0.30125,0.95349,0.00912,-0.03518,0.02533,0.00296
0.3006,0.95371,0.00689,-0.00824,0.00524,0.00955
0.29979,0.95398,0.00534,0.01878,-0.01191,0.01864
0.29912,0.95419,0.00519,0.03176,-0.00611,0.00174
0.29891,0.95425,0.00618,0.02984,0.00013,-0.01414
0.29914,0.95416,0.0079,0.02324,0.00729,-0.01723
0.29956,0.95401,0.00973,-0.01395,0.00865,-0.01336
0.29977,0.95394,0.01094,-0.02691,0.01137,-0.01156
0.29961,0.95399,0.01099,-0.02284,0.01289,-0.01026
0.29921,0.95412,0.01003,-0.00097,0.00916,-0.00499
0.29869,0.9543,0.00884,0.0067,0.00435,0.00497
0.29824,0.95445,0.00802,0.01377,0.00219,0.00598
0.29802,0.95452,0.00782,0.02348,-0.00327,-0.00245
0.29815,0.95447,0.00846,0.01839,-0.00169,-0.00712
0.29849,0.95435,0.00962,0.00377,0.00193,-0.00386
0.29885,0.95423,0.01073,-0.00867,0.00987,-0.00232
0.29907,0.95415,0.01145,-0.0109,0.01132,-0.00602
0.2991,0.95414,0.01152,-0.0039,0.01256,-0.0103
0.29903,0.95417,0.01106,0.00239,0.00511,-0.01143
0.29895,0.9542,0.01043,0.00693,0.0078,-0.00308
0.29898,0.9542,0.00996,0.00973,0.00186,0.0064
0.29917,0.95414,0.0098,0.00347,0.00289,0.01163
0.29947,0.95404,0.01006,-0.00245,0.00253,0.00869
0.29971,0.95396,0.01043,-0.00761,0.00589,0.00223
0.29986,0.95391,0.01078,-0.00501,0.00761,-0.00112
0.29992,0.95389,0.01108,-0.00311,0.00653,0.00276
0.29996,0.95387,0.01127,0.00125,0.00723,0.00225
0.3,0.95386,0.01127,-0.00234,0.00663,0.00491
0.29999,0.95387,0.01115,0.00169,0.0095,-0.00107
0.29995,0.95388,0.01099,0.00486,0.00735,-0.00522
0.29989,0.9539,0.0109,0.00197,0.00178,0.00037
0.29989,0.9539,0.01102,0.00225,-0.00018,0.0063
0.29994,0.95388,0.01137,0.00641,0.00131,0.00677
0.30001,0.95385,0.01182,0.0083,0.00507,0.00121
0.30008,0.95382,0.01226,0.00459,0.00753,-0.00953
0.30017,0.95379,0.01248,0.00549,0.00838,-0.01233
0.30025,0.95377,0.01242,0.00437,0.00814,-0.00979
0.30033,0.95375,0.01222,-0.00142,0.00419,-0.00278
0.30038,0.95373,0.01189,-0.00058,0.00575,-0.0022
0.3004,0.95373,0.01158,-0.00275,0.00646,-0.00022
0.30042,0.95373,0.01139,0.00416,0.00413,0.00303
0.30049,0.9537,0.01128,0.00074,0.00411,0.00125
0.30062,0.95367,0.01122,0.00077,0.00526,0.00391
0.30074,0.95363,0.01121,9e-05,0.00729,0.00095
0.30081,0.9536,0.01118,-0.00188,0.00604,0.00113
0.3008,0.95361,0.01102,-0.00182,0.00551,-0.00434
0.30078,0.95362,0.01084,0.0057,0.00534,0.003
0.30083,0.95361,0.01079,0.0052,0.00536,0.00609
0.30092,0.95358,0.01072,0.00269,0.00788,0.00073
0.30104,0.95354,0.01053,0.00547,0.00799,-0.00815
0.30115,0.95351,0.01026,0.00337,0.00859,-0.00897
0.30125,0.95348,0.00995,0.00558,0.0017,-0.00563
0.30132,0.95346,0.00959,0.00735,0.00108,0.00623
0.30142,0.95343,0.00931,0.0078,0.00642,0.01489
0.30158,0.95339,0.00916,0.00184,0.00752,0.00682
0.30176,0.95333,0.00896,-0.00072,0.00533,-0.01041
0.30191,0.95329,0.00861,0.00231,0.00686,-0.0127
0.30202,0.95326,0.00823,0.00582,-0.00027,-0.00405
0.30212,0.95323,0.00794,0.0035,0.00158,0.00617
0.30221,0.9532,0.00778,-0.00187,0.00331,0.00903
0.30229,0.95317,0.00769,-0.00157,0.011,0.00375
0.30233,0.95316,0.00766,-0.00502,0.00702,0.00075
0.3023,0.95317,0.00767,-0.00358,-0.00195,0.00209
0.30218,0.95321,0.00793,0.00147,-0.01078,0.00893
0.30191,0.95329,0.00866,0.00995,-0.01057,0.00751
0.30152,0.95339,0.01003,0.01699,0.00844,-0.00047
0.30129,0.95345,0.01157,0.00813,0.03246,-0.01381
0.30123,0.95346,0.01267,-0.0121,0.00681,-0.01783
0.30102,0.95352,0.01312,0.00634,-0.00756,-0.01138
0.30066,0.95363,0.01318,0.01869,-0.02503,-0.0085
0.3004,0.95371,0.01324,-0.00141,0.01612,-0.01771
0.30023,0.95377,0.01294,-0.00588,0.02324,-0.01579
0.29995,0.95387,0.01217,-0.00168,0.0217,-0.00803
0.29973,0.95394,0.01174,0.00799,0.00672,0.01023
0.29968,0.95395,0.01183,0.00804,0.00671,0.01014
0.29967,0.95395,0.01234,-0.00507,0.00909,0.00183
0.29968,0.95394,0.01295,0.00713,0.00125,-0.01617
0.29979,0.9539,0.01355,0.00583,0.00084,-0.02327
0.29995,0.95384,0.01402,0.00274,0.00557,-0.02825
0.30006,0.95381,0.01412,-0.01403,0.01353,-0.00532
0.30006,0.95381,0.014,-0.01348,0.01975,0.00143
0.3,0.95383,0.01387,-0.01228,0.01639,0.00513
0.29987,0.95387,0.01358,0.00104,-0.00502,-0.00617
0.29996,0.95385,0.01348,0.00096,-0.00499,-0.00607
0.30011,0.9538,0.01361,0.02774,-0.00858,-0.00587
0.30029,0.95374,0.01376,0.04116,-0.01428,-0.00813
0.30039,0.9537,0.01421,0.04308,-0.0059,-0.01296
0.30028,0.95372,0.01493,0.04627,-0.00014,-0.01499
0.30005,0.95379,0.01551,0.05283,-0.01102,-0.01342
0.3,0.9538,0.01586,0.04883,-0.01941,-0.01153
0.30014,0.95375,0.01588,0.04047,-8e-05,-0.01306
0.3004,0.95368,0.01548,0.02747,0.00523,0.0019
0.30061,0.95362,0.01492,0.00914,0.00137,0.01781
0.30074,0.95359,0.0144,-0.02166,0.00386,0.04372
0.30076,0.95358,0.01407,-0.03579,0.01152,0.03991
0.3007,0.9536,0.01407,-0.04356,0.01536,0.0343
0.30055,0.95364,0.01461,-0.04609,0.01785,0.02347
0.30033,0.9537,0.01535,-0.05354,0.01949,0.02434
0.3,0.95379,0.01625,-0.05311,0.0221,0.02263
0.29961,0.95389,0.01736,-0.04645,0.03413,0.00478
0.29931,0.95397,0.01829,-0.03984,0.02996,-0.00837
0.29907,0.95404,0.01858,-0.03685,0.0273,-0.01221
0.29878,0.95413,0.01834,-0.02552,0.01146,-0.00992
0.29841,0.95426,0.01768,0.00123,0.00748,-0.00314
0.29793,0.95442,0.01695,0.01248,0.00889,-0.00744
0.29742,0.9546,0.01634,0.0283,-0.00194,-0.01158
0.297,0.95473,0.01586,0.02472,-0.00574,-0.01835
0.29685,0.95478,0.01565,0.00944,0.00039,-0.01107
0.29692,0.95476,0.0157,-0.01326,0.00636,0.0053
0.297,0.95473,0.0159,-0.01962,0.01321,0.02133
0.29695,0.95475,0.01609,-0.0232,0.01571,0.02468
0.2967,0.95482,0.01606,-0.01469,0.01304,0.00851
0.29624,0.95497,0.01589,-0.00382,0.01071,0.00018
0.2958,0.95511,0.01553,0.00233,0.00946,-0.00128
0.29551,0.95521,0.0151,0.01522,0.00063,0.00126
0.29536,0.95526,0.01483,0.0238,-0.00184,-0.00466
0.29532,0.95527,0.01471,0.0228,-0.00074,-0.00484
0.29534,0.95527,0.01461,0.02082,0.00143,-0.00754
0.29547,0.95523,0.01438,0.00154,0.00365,-0.00858
0.29562,0.95519,0.01398,0.00139,0.00369,-0.00819
0.29572,0.95516,0.01338,-0.00583,0.00853,0.00587
0.29575,0.95517,0.01247,-0.0033,0.00697,0.00844
0.29565,0.95521,0.01124,0.00188,0.00899,0.0053
0.2954,0.9553,0.00997,0.0117,0.00536,-0.00069
0.29512,0.9554,0.00925,0.02683,-0.00848,-0.00597
0.29488,0.95548,0.00903,0.02873,-0.00975,-0.00522
0.29475,0.95551,0.00936,0.02544,-0.00763,-0.00915
0.29477,0.9555,0.00997,0.0144,0.00113,0.00392
0.29447,0.95558,0.01137,-0.01743,0.02776,0.009
0.29345,0.95583,0.01602,0.00128,0.02075,-0.08253
0.29256,0.95601,0.02031,0.03625,0.01426,-0.04883
0.29197,0.95619,0.02047,0.03065,-0.00063,-0.03411
0.29146,0.95636,0.01973,0.01257,0.00428,-0.03517
0.29118,0.95647,0.01879,0.00441,0.00371,-0.01441
0.29112,0.95651,0.01737,0.00896,0.00812,-0.00534
0.29123,0.95652,0.01514,-0.00249,0.01117,-0.01036
0.29134,0.95654,0.01142,-0.0092,0.01972,-0.00196
0.29146,0.95654,0.00714,-0.01259,0.01123,0.02188
0.29164,0.95651,0.00294,-0.02262,-0.00134,0.01941
0.29156,0.95654,-0.00083,-0.02555,-0.00373,0.01176
0.29112,0.95666,-0.0041,-0.01678,-0.00906,0.00579
0.29057,0.95682,-0.00614,0.05206,-0.02707,0.01835
0.29063,0.9568,-0.00609,0.0451,-0.01572,0.03658
0.29117,0.95665,-0.00411,0.0068,-0.00258,0.01938
0.29166,0.95651,-0.00114,-0.00301,0.01815,-0.00068
0.29202,0.9564,0.0014,-0.02291,0.0189,-0.01398
0.29223,0.95633,0.00334,-0.01833,0.01044,-0.01696
0.29225,0.95632,0.0045,-0.00111,0.01124,-0.00418
0.29224,0.95632,0.00495,0.00038,0.00949,0.00637
0.29246,0.95625,0.00442,-0.00247,0.01425,0.00394
0.29274,0.95617,0.00375,0.00578,0.00805,-0.00572
0.29308,0.95607,0.00285,-0.00104,0.00266,-0.00729
0.29342,0.95597,0.00229,-0.00592,-0.00037,0.00296
0.2936,0.95591,0.00155,0.01219,0.00104,0.00722
0.29358,0.95592,0.00094,0.02748,-0.00222,0.00381
0.29345,0.95596,0.0006,0.02865,-0.00812,-0.01537
0.29319,0.95604,0.00077,0.03217,-0.01767,-0.01136
0.29283,0.95615,0.00169,0.02821,-0.01761,-0.01106
0.29235,0.95629,0.00301,0.02647,-0.01597,-0.01352
0.2917,0.95649,0.00451,0.03576,-0.01232,-0.00762
0.29106,0.95667,0.0064,0.03189,-0.00493,-0.02056
0.29059,0.95679,0.00862,0.031,-0.0061,-0.02559
0.29041,0.95683,0.01073,0.02859,-0.0037,-0.02649
0.29057,0.95676,0.01227,-0.00388,0.00857,-0.00199
0.29093,0.95664,0.01321,-0.00424,0.00869,-0.00292
0.29146,0.95647,0.01366,-0.02808,0.02481,-0.00347
0.29206,0.95629,0.01347,-0.02428,0.01966,-0.00851
0.29276,0.95609,0.01245,-0.02095,0.01934,-0.00842
0.29355,0.95587,0.01069,-0.01822,0.01703,-0.00712
0.29431,0.95566,0.00863,-0.01701,0.01558,0.03855
0.29493,0.95548,0.00729,-0.01763,0.01576,0.03989
0.29526,0.95538,0.00686,-0.02661,0.00891,-0.00518
0.29533,0.95536,0.00693,-0.01816,0.00937,-0.00464
0.29537,0.95535,0.00686,-0.01819,0.00938,-0.00457
0.2955,0.95531,0.00664,-0.01959,0.0121,0.01135
0.2957,0.95525,0.00674,-0.02186,0.01822,0.0324
0.29593,0.95517,0.00751,-0.02163,0.01921,0.03447
0.29615,0.95509,0.00859,-0.02648,0.01532,0.01874
0.2963,0.95504,0.00942,-0.01754,0.01153,0.00596
0.29633,0.95502,0.01002,-0.01222,0.01193,0.00264
0.29619,0.95506,0.01062,-0.00297,0.01041,-0.0027
0.29589,0.95514,0.01131,0.02964,-0.00421,-0.01213
0.2956,0.95522,0.01202,0.02993,-0.0043,-0.01284
0.29548,0.95525,0.01294,0.04475,-0.01505,-0.00546
0.29561,0.95519,0.0144,0.03,-0.00279,-0.0001
0.29598,0.95504,0.01615,0.02299,0.00457,0.00272
0.29652,0.95485,0.01756,-0.00519,0.01617,0.00195
0.29705,0.95467,0.01843,-0.01896,0.01901,0.00031
0.29751,0.95452,0.01889,-0.0252,0.02264,-0.0029
0.29795,0.95438,0.01893,-0.02746,0.01645,-0.00184
0.29818,0.95432,0.01826,-0.02546,0.02102,0.0033
0.29828,0.95431,0.0169,-0.02104,0.01414,0.01066
0.29827,0.95434,0.01546,0.00317,0.00171,0.02281
0.29825,0.95436,0.01462,0.00977,-0.00237,0.02266
0.29824,0.95437,0.01458,0.0143,-0.00176,0.00419
0.29824,0.95436,0.01514,0.01357,0.00461,-0.00804
0.29824,0.95435,0.0158,0.0105,0.00857,-2e-05
0.29819,0.95435,0.01635,0.0078,0.0151,0.00593
0.29805,0.95439,0.01692,-0.01951,0.00652,0.0303
0.29756,0.95454,0.01708,-0.01547,-0.01748,0.03754
0.29649,0.95488,0.01641,-0.01441,-0.01782,0.03822
0.29544,0.95521,0.016,0.03598,-0.01895,-0.01065
0.29472,0.95543,0.01657,0.03734,-0.00888,-0.02824
0.29412,0.95559,0.01793,0.03252,-0.0056,-0.01325
0.29354,0.95573,0.0196,0.01717,0.00748,-0.01189
0.29302,0.95586,0.02129,0.01115,0.00287,-0.02139
0.29269,0.95591,0.02314,0.01033,0.00692,-0.0423
0.29262,0.95588,0.02516,0.01091,0.02613,-0.0592
0.29272,0.95581,0.02667,0.00426,0.0331,-0.05762
0.2929,0.95574,0.02718,-0.00454,0.02856,-0.05593
0.29289,0.95576,0.02647,-0.00277,0.02058,-0.02712
0.29262,0.9559,0.02448,0.02075,0.00304,-0.00596
0.29247,0.95601,0.02194,0.0209,0.00293,-0.00342
0.29238,0.9561,0.01911,0.01536,-0.00064,0.00866
0.2923,0.95617,0.01665,0.009,-0.01562,0.05224
0.29237,0.95617,0.01518,0.00217,-0.01522,0.05834
0.2926,0.95611,0.01458,0.00062,-0.014,0.0416
0.29299,0.95599,0.01463,0.01583,-0.00202,0.00252
0.29353,0.95582,0.01498,0.01913,0.00205,0.00115
0.29414,0.95562,0.01545,0.0085,0.00111,0.00229
0.29483,0.9554,0.01591,-0.0271,0.00663,-0.0086
0.29549,0.9552,0.01617,-0.03774,0.01134,-0.01234
0.29598,0.95504,0.01636,-0.04238,0.01958,-0.0182
0.29638,0.95491,0.01647,-0.02881,0.02984,-0.02929
0.29668,0.95482,0.01651,-0.02097,0.02569,-0.03427
0.29685,0.95477,0.01646,-0.01643,0.01739,-0.03518
0.29691,0.95475,0.01641,0.00891,0.00194,-0.02457
0.297,0.95472,0.01658,0.00882,0.00198,-0.02475
0.29688,0.95475,0.01686,0.06991,0.02347,-0.03829
0.29613,0.95498,0.01699,0.06824,-0.03736,-0.03971
0.29492,0.95536,0.01692,0.07164,-0.04647,-0.03543
0.29385,0.9557,0.0165,0.05334,-0.06838,-0.01526
0.29294,0.95599,0.01589,0.02203,-0.11834,0.02146
0.2927,0.95608,0.01476,0.00387,-0.04893,0.06125
0.29442,0.95555,0.01424,-0.04468,0.1076,0.05906
0.29637,0.95496,0.01347,0.01503,0.03562,0.04581
0.29724,0.95471,0.01169,0.05162,0.02519,0.02113
0.2977,0.95458,0.01099,0.00775,-0.03698,0.00614
0.2982,0.95443,0.01085,-0.00758,-0.03728,0.00332
0.29876,0.95424,0.01184,-0.01585,-0.02788,-0.00121
0.29914,0.95409,0.01384,-0.02631,0.00568,-0.03268
0.29937,0.954,0.01558,-0.02502,0.01263,-0.03513
0.29947,0.95394,0.01685,-0.03015,0.01099,-0.02874
0.2992,0.95401,0.01758,-0.03814,0.03418,-0.00574
0.29856,0.95422,0.01717,-0.02662,0.03313,0.01072
0.2977,0.95451,0.01599,-0.01616,0.02792,0.01447
0.2969,0.95478,0.01478,0.00092,0.02235,0.00069
0.29657,0.95489,0.01393,-0.00556,0.01723,-0.00688
0.29674,0.95485,0.01358,-0.01105,0.01377,-0.007
0.29727,0.95469,0.01354,-0.01179,0.01028,0.01513
0.29798,0.95445,0.01401,-0.0278,0.00824,0.01807
0.29863,0.95424,0.01481,-0.03159,0.01048,0.0121
0.29892,0.95414,0.01518,-0.01538,0.00441,-0.00792
0.29875,0.9542,0.01486,0.01373,-0.00594,-0.00912
0.29853,0.95428,0.01429,0.01396,-0.00602,-0.00855
0.29831,0.95436,0.01366,0.01491,0.00188,0.00023
0.29807,0.95444,0.01331,0.02361,0.00355,-0.01734
0.29785,0.95451,0.01311,0.02382,0.00349,-0.01714
0.29777,0.95453,0.01314,0.0419,-0.00829,-0.03032
0.29784,0.95451,0.01341,0.03169,-0.00718,-0.01887
0.29807,0.95443,0.01383,0.01972,2e-05,-0.01307
0.29847,0.9543,0.01431,-0.00262,0.00991,-0.01095
0.29886,0.95417,0.01452,-0.01235,0.00686,-0.01742
0.29892,0.95416,0.01427,-0.01241,0.00687,-0.01717
0.29875,0.95422,0.01333,0.00969,0.00201,-0.01172
0.2985,0.95432,0.01233,0.00435,-0.01051,0.0032
0.29839,0.95435,0.01205,-0.00917,-0.00291,0.01141
0.29842,0.95434,0.0125,-0.01282,0.01534,0.01489
0.29853,0.9543,0.01302,-0.00489,0.02162,0.00813
0.2987,0.95424,0.01327,0.00402,0.01099,-0.00262
0.29886,0.95419,0.01336,0.00375,0.00504,-0.00101
0.29891,0.95417,0.01361,-0.0121,0.00068,0.00292
0.29885,0.95418,0.01409,-0.01856,0.00285,0.00151
0.29865,0.95423,0.01476,0.02012,0.00535,-0.01942
0.29832,0.95433,0.01531,0.02235,0.00344,-0.02629
0.29814,0.95437,0.01612,0.01613,0.00472,-0.02516
0.29805,0.95439,0.01691,-0.00631,0.01203,-0.00672
0.29789,0.95443,0.0172,-0.0093,-0.00224,-0.00049
0.29773,0.95448,0.01718,-0.01032,-0.00207,0.00024
0.29752,0.95454,0.01744,-0.01464,0.00216,0.00404
0.2972,0.95463,0.01783,-0.00665,0.01641,0.00494
0.2969,0.95472,0.01807,0.00136,0.01984,0.0036
0.29691,0.95471,0.01845,0.0084,0.01447,0.00845
0.29727,0.95459,0.01905,-0.004,0.012,0.0001
0.29769,0.95445,0.01931,-0.01348,0.01114,-0.00445
0.29796,0.95436,0.0194,-0.01215,0.00372,-0.00904
0.29806,0.95432,0.01983,0.0015,0.00645,-0.01771
0.29805,0.95431,0.02037,0.007,0.00609,-0.02067
0.29802,0.95432,0.02072,0.01818,0.00915,-0.01817
0.29809,0.95429,0.02079,0.01941,0.00851,-0.01667
0.29833,0.95423,0.02037,0.01064,0.00506,-0.0097
0.29852,0.95419,0.01949,-0.00211,0.0059,0.00339
0.29873,0.95414,0.01868,-0.01329,0.00592,0.02174
0.29895,0.95408,0.01829,-0.01878,0.00562,0.02535
0.29909,0.95403,0.01836,-0.02238,0.00742,0.02194
0.29916,0.954,0.01883,-0.02076,0.00772,0.0152
0.29916,0.95399,0.01947,-0.01594,0.00744,-0.00092
0.29902,0.95402,0.02,-0.00237,0.00284,-0.01424
0.2987,0.95411,0.02032,0.0132,0.0054,-0.01757
0.2984,0.9542,0.02048,0.0135,0.00531,-0.01774
0.29826,0.95425,0.02055,0.01882,0.0044,-0.01508
0.29835,0.95421,0.02084,0.01521,0.00987,-0.01927
0.29863,0.95411,0.02132,0.01492,0.00997,-0.01975
0.29901,0.95399,0.02167,0.01056,0.012,-0.02037
0.29942,0.95386,0.02164,0.01544,0.01402,-0.02314
0.29975,0.95377,0.02122,0.01469,0.01214,-0.01991
0.30002,0.9537,0.02048,0.00766,0.00286,0.00129
0.30022,0.95365,0.0197,0.00146,0.00416,0.00117
0.30038,0.95361,0.01913,0.0013,0.0042,0.00175
0.3004,0.95361,0.01873,0.02109,-0.00601,-0.00091
0.30034,0.95364,0.01851,0.02491,-0.01324,-0.00891
0.30039,0.95362,0.01855,0.02359,-0.01511,-0.00955
0.30051,0.95357,0.01905,0.00566,-0.00419,-0.00524
0.30065,0.95351,0.01991,-0.00381,0.00257,-0.00071
0.30074,0.95347,0.02082,-0.01268,0.00439,-0.00084
0.30081,0.95343,0.02152,-0.02682,0.0134,-0.01215
0.30086,0.9534,0.02183,-0.01853,0.01489,-0.02355
0.30078,0.95344,0.02146,-0.00947,0.01711,-0.02016
0.30057,0.95352,0.02044,0.00236,0.00978,0.00744
0.30019,0.95367,0.01924,-0.00861,0.00467,0.02448
0.29964,0.95386,0.01836,-0.01255,-0.00231,0.02232
0.29904,0.95405,0.01825,-0.00441,-0.01222,0.01805
0.29852,0.95419,0.01934,0.02102,-0.00493,0.00283
0.29834,0.95421,0.02124,0.02305,0.00169,-0.00218
0.29867,0.95408,0.02262,0.01525,0.01497,-0.01868
0.29926,0.95387,0.02331,0.00889,0.01975,-0.02591
0.29979,0.95371,0.02317,-0.00769,0.02285,-0.03378
0.29998,0.95367,0.0224,-0.02619,0.00846,-0.02165
0.29969,0.95378,0.02154,-0.00645,0.00487,-0.01751
0.29934,0.9539,0.02096,0.0068,0.00034,-0.01491
0.29922,0.95394,0.02071,0.01677,-0.00012,-0.00722
0.29943,0.95387,0.02123,0.0002,0.00936,-0.00075
0.29971,0.95376,0.02201,-0.00519,0.01806,0.00285
0.29996,0.95367,0.02237,-0.0142,0.00735,0.00638
0.30009,0.95363,0.02243,-0.01392,0.00473,0.00738
0.29996,0.95368,0.02206,-0.00287,0.00268,0.003
0.29975,0.95376,0.02172,0.01679,-0.00988,-0.00685
0.29972,0.95376,0.02186,0.02007,-0.00129,-0.02618
0.29986,0.95371,0.02228,0.01967,0.00174,-0.0309
0.30008,0.95363,0.02269,0.00653,-0.00096,-0.02116
0.30034,0.95354,0.02319,-0.02615,-0.00371,-0.01251
0.30034,0.95352,0.02362,-0.03168,0.00676,-0.00891
0.30025,0.95356,0.02345,-0.01283,0.01347,-0.00649
0.30013,0.9536,0.02311,0.00733,0.0115,-0.00489
0.30001,0.95365,0.02259,0.01794,0.01294,-0.00439
0.2999,0.9537,0.02222,0.01451,0.0043,0.00252
0.29991,0.95369,0.02252,-0.00089,0.00505,0.00678
0.29997,0.95365,0.02316,-0.0076,0.00474,0.00388
0.30004,0.95361,0.02381,-0.01041,0.00384,-0.01667
0.30009,0.95359,0.02414,-0.00573,0.0098,-0.02834
0.30016,0.95357,0.02414,-0.00182,0.00792,-0.02343
0.3002,0.95356,0.02401,0.00093,0.0109,-0.00851
0.30024,0.95355,0.0237,0.01301,0.01191,-0.00466
0.30038,0.95352,0.02338,0.01287,0.01195,-0.00434
0.30073,0.95342,0.02304,0.00636,0.01042,-0.00589
0.30124,0.95326,0.02274,-0.0037,0.01506,-0.00098
0.30177,0.95311,0.02236,-0.00422,0.01522,-0.0006
0.30222,0.95297,0.02208,-0.01004,0.00467,0.0092
0.30262,0.95285,0.02193,-0.00837,0.00136,0.01405
0.30294,0.95275,0.02187,-0.00443,0.00035,0.01274
0.30308,0.9527,0.02183,-0.00407,-0.00615,-0.00111
0.30308,0.9527,0.02204,-0.0001,-0.00139,-0.00524
0.30309,0.95269,0.02236,0.00198,0.00382,-0.00884
0.30313,0.95266,0.02283,-0.0067,0.00402,-0.00611
0.30306,0.95268,0.02326,-0.00117,0.01572,-0.00362
0.30294,0.95271,0.0233,0.00257,0.02219,0.00143
0.30272,0.95278,0.02337,0.00338,0.00269,-0.00118
0.3025,0.95284,0.0238,-0.00264,-0.00411,-0.00456
0.30218,0.95293,0.02412,-0.00624,-0.01258,-0.00942
0.30172,0.95307,0.02438,0.01005,-0.0229,-0.00957
0.30145,0.95314,0.02506,0.00724,0.03706,-0.00113
0.30161,0.95307,0.02585,0.00052,0.03671,-0.00554
0.3022,0.95286,0.02674,-0.01418,0.02232,-0.01873
0.30311,0.95255,0.02745,-0.04043,0.01962,-0.02324
0.30411,0.95224,0.02689,-0.0501,0.00881,-0.01878
0.30487,0.95205,0.02528,-0.00723,0.03697,0.01251
0.30509,0.95204,0.02261,0.00306,0.02316,0.04146
0.30494,0.95215,0.02007,0.00327,0.00208,0.05522
0.30453,0.95231,0.01838,0.03506,-0.01559,0.00819
0.30456,0.95231,0.01812,0.04794,-0.02078,-0.0231
0.30505,0.95213,0.01924,0.03873,-0.01811,-0.03206
0.30574,0.95188,0.02089,0.02109,-0.0154,-0.03772
0.3063,0.95166,0.02242,0.00972,-0.00751,-0.04511
0.30668,0.95151,0.02339,9e-05,0.00457,-0.04471
0.30679,0.95147,0.02375,-0.00775,0.00317,-0.02405
0.30668,0.95151,0.0237,-0.00982,0.03307,-0.00646
0.30658,0.95155,0.02346,-0.02482,0.04214,-0.00435
0.30651,0.95157,0.02337,-0.02815,0.00641,-0.02372
0.30635,0.95161,0.02375,0.05104,-0.00885,-0.0335
0.30621,0.95165,0.02404,0.0811,-0.01209,-0.03056
0.30649,0.95158,0.02326,0.04645,-0.03137,-0.00454
0.30726,0.95136,0.02205,-0.01215,0.00675,0.03951
0.30746,0.95132,0.02084,-0.01522,0.01035,0.04307
0.30655,0.95163,0.02002,0.01477,0.01463,0.01859
0.30531,0.95203,0.02016,0.03214,0.01805,0.00535
0.30476,0.95219,0.02092,0.03269,0.01789,0.00459
0.30497,0.95209,0.0222,0.0092,-0.00428,-0.01932
0.30554,0.95189,0.02313,-0.02505,0.02722,0.00363
0.30626,0.95166,0.02292,-0.04353,0.0377,0.02196
0.30697,0.95146,0.02185,-0.08291,0.04616,0.05017
0.30719,0.95143,0.02005,-0.0656,0.02837,0.0475
0.30692,0.95156,0.01801,-0.06532,0.02824,0.04954
0.3065,0.95172,0.01637,-0.02303,0.01183,0.01185
0.30624,0.95182,0.01572,-0.00286,0.03541,-0.00716
0.30635,0.95177,0.01604,-0.00298,0.03546,-0.00748
0.30663,0.95167,0.01687,0.00192,0.03153,-0.02497
0.30696,0.95155,0.01753,-0.01243,-0.0173,-0.05561
0.30693,0.95157,0.01704,-0.00683,-0.0464,-0.06484
0.30643,0.95175,0.01563,0.05276,-0.10057,-0.07768
0.30586,0.95196,0.01407,0.05199,-0.06718,-0.07086
0.30512,0.95221,0.01347,0.04886,-0.03567,-0.05498
0.30417,0.95252,0.01317,0.04877,-0.00414,-0.02709
0.30357,0.9527,0.0136,0.03737,0.00808,-0.00367
0.30335,0.95275,0.01469,0.03076,0.00634,-0.0131
0.30343,0.95271,0.01568,0.01054,-0.01012,-0.01918
0.30358,0.95265,0.01685,-0.00674,0.05581,-0.01988
0.30384,0.95254,0.01797,0.00218,0.09645,-0.01921
0.30459,0.95229,0.01882,-0.01376,0.03418,0.00577
0.30549,0.95199,0.01916,-0.02674,0.00626,0.0045
0.30588,0.9519,0.0177,-0.04575,-0.01198,-0.00584
0.30553,0.95206,0.01446,-0.02182,-0.00712,0.01659
0.3048,0.95234,0.01158,0.00183,-0.00331,0.02534
0.30411,0.95257,0.0104,0.00745,-0.00653,0.03311
0.30374,0.95268,0.01103,0.02971,-0.00773,0.03864
0.30378,0.95264,0.01285,0.02553,-0.00556,0.02517
0.30409,0.95252,0.01478,0.0194,0.00137,0.0105
0.30443,0.95239,0.01603,-0.01698,0.02747,-0.01719
0.30468,0.9523,0.01638,-0.02904,0.029,-0.02077
0.30478,0.95228,0.01619,-0.03683,0.01493,-0.01656
0.30454,0.95236,0.01559,-0.00268,0.00218,-0.01655
0.30413,0.95251,0.0145,0.01826,0.00278,-0.01905
0.30373,0.95265,0.01336,0.02317,0.00447,-0.02029
0.30351,0.95273,0.01274,0.04043,-0.00376,-0.02406
0.30354,0.95272,0.01279,0.04407,-0.01148,-0.02101
0.30377,0.95264,0.01341,0.03786,-0.0132,-0.02223
0.304,0.95255,0.01426,0.00577,-0.00215,-0.01616
0.30408,0.95252,0.01488,-0.00339,0.00334,-0.01632
0.30398,0.95255,0.01526,-0.00454,0.01205,-0.01725
0.30376,0.95261,0.01547,-0.00494,0.01313,-0.0211
0.30355,0.95268,0.01539,-0.00339,0.01355,-0.01661
0.30331,0.95276,0.01515,0.00817,0.00238,-0.0056
0.30314,0.95282,0.01481,0.0022,-0.01265,0.01101
0.30296,0.95288,0.01486,-0.02043,-0.01724,0.01123
0.30257,0.95299,0.01549,-0.01499,-0.00692,-0.00725
0.30224,0.95308,0.01645,0.00983,0.00705,-0.01008
0.3024,0.95301,0.01766,-0.0356,0.05542,0.02832
0.30284,0.95283,0.01917,-0.03605,0.05559,0.0268
0.30294,0.95279,0.01978,-0.08582,0.06422,0.03467
0.30248,0.95295,0.01902,-0.01671,-0.02086,-0.00268
0.30174,0.95321,0.01772,-0.01598,-0.02111,-0.00137
0.30115,0.95342,0.01671,0.00967,-0.0092,0.00125
0.30086,0.95352,0.01633,0.0167,0.00782,0.01886
0.30102,0.95346,0.01654,0.01481,0.01204,0.0169
0.30141,0.95333,0.01709,0.01584,0.00047,-0.01084
0.3016,0.95326,0.01739,0.02059,0.00093,-0.01794
0.30163,0.95326,0.01729,0.01803,0.00904,-0.01503
0.30165,0.95326,0.017,0.01182,0.00277,-0.01179
0.30173,0.95324,0.01655,0.01259,-0.00387,-0.00695
0.30192,0.95319,0.01605,0.0089,0.00281,-0.01001
0.3021,0.95314,0.01554,-0.01759,0.01421,-0.00151
0.3021,0.95314,0.01517,-0.03262,0.0077,0.00979
0.3018,0.95324,0.01516,-0.02045,0.0053,0.00312
0.30125,0.95341,0.01546,0.02085,0.00236,-0.02682
0.30078,0.95355,0.01593,0.05864,-0.01144,-0.04607
0.30073,0.95355,0.01674,0.0516,-0.00848,-0.04594
0.30095,0.95347,0.01734,0.02801,0.00257,-0.03821
0.30116,0.9534,0.01743,0.02829,0.0079,-0.03226
0.30126,0.95338,0.01683,0.01971,0.00888,-0.02218
0.30133,0.95338,0.0158,0.00492,0.00347,-0.0158
0.30133,0.95339,0.01472,0.00456,-0.00598,-0.01563
0.30125,0.95343,0.01415,0.02832,-0.00175,-0.00883
0.30125,0.95343,0.01405,0.04375,-0.00757,-0.0041
0.30142,0.95337,0.01424,0.042,-0.00797,0.00123
0.30187,0.95323,0.01439,0.01097,-0.00416,0.01164
0.30252,0.95302,0.01436,-0.02701,0.00883,0.0135
0.30305,0.95286,0.01417,-0.03953,0.02258,0.00643
0.30327,0.95279,0.01385,-0.03108,0.02595,0.00105
0.30317,0.95283,0.0136,-0.01098,-0.00011,0.00169
0.30284,0.95293,0.01356,0.00577,-0.00251,-0.00184
0.30254,0.95303,0.01363,0.01475,-0.00358,-0.00122
0.3023,0.9531,0.01378,0.02697,-0.00242,-0.01099
0.30221,0.95313,0.01403,0.0183,-0.00981,-0.0106
0.30231,0.95309,0.01442,0.00854,-0.00596,-0.00411
0.30257,0.953,0.01501,-0.02264,0.02387,0.01339
0.30278,0.95292,0.01573,-0.03608,0.03209,0.01388
0.30277,0.95291,0.01639,-0.04059,0.01968,-0.00331
0.3025,0.95299,0.01686,-0.02587,0.00509,-0.02024
0.30214,0.9531,0.01713,0.0128,0.00695,-0.02459
0.30211,0.95311,0.01703,0.01284,0.00694,-0.02449
0.30251,0.95299,0.01684,-0.01415,0.02117,0.0045
0.30313,0.95279,0.01663,-0.05155,0.02397,0.00917
0.30342,0.95271,0.01615,-0.05184,0.02405,0.00965
0.30321,0.95279,0.0154,-0.025,0.01335,0.01414
0.30272,0.95296,0.01453,-0.00547,0.01009,0.01675
0.30241,0.95306,0.01385,-0.00516,0.00998,0.01743
0.30228,0.95311,0.01344,-0.00782,0.00879,0.02899
0.30223,0.95314,0.01302,-0.02055,0.01403,0.03155
0.30205,0.9532,0.01234,-0.02866,0.01219,0.03139
0.30167,0.95334,0.01115,-0.032,0.00737,0.02782
0.30114,0.95352,0.00971,-0.03016,0.00908,0.02414
0.30057,0.95371,0.00845,-0.02339,0.00556,0.01958
0.30004,0.95388,0.0075,-0.02207,0.00933,0.01281
0.29973,0.95399,0.00683,-0.02251,0.01372,-0.01166
0.29973,0.95399,0.00638,-0.02146,0.01241,-0.01468
0.29997,0.95392,0.00627,-0.00673,0.01701,-0.02311
0.30038,0.95379,0.00642,-0.00197,0.00462,-0.02096
0.30079,0.95365,0.00712,0.00828,-0.00296,-0.02433
0.30125,0.9535,0.00805,0.01693,0.01417,-0.03548
0.30191,0.95329,0.00865,0.03134,0.01618,-0.05618
0.30268,0.95304,0.00841,0.03023,0.01446,-0.06468
0.30343,0.95282,0.00704,0.01586,0.01352,-0.05259
0.30421,0.95258,0.0051,0.00341,0.01898,-0.02539
0.30492,0.95236,0.00343,0.00735,0.01718,-0.0183
0.30522,0.95227,0.00151,0.02435,-0.01076,0.01103
0.30537,0.95222,-0.00084,0.03047,-0.02102,0.02405
0.3057,0.95211,-0.00328,0.04264,-0.0205,0.01193
0.30611,0.95197,-0.00568,0.07324,-0.04168,0.00142
0.30659,0.9518,-0.00787,0.09667,-0.03781,0.01252
0.30748,0.9515,-0.00938,0.04123,-0.01026,0.04904
0.30863,0.95111,-0.01019,-0.05979,0.02687,0.06258
0.30951,0.95083,-0.01054,-0.13207,0.06527,0.04345
0.31042,0.95052,-0.01122,-0.13409,0.05479,0.01267
0.3111,0.95029,-0.01244,-0.00597,0.00549,-0.02823
0.31053,0.95046,-0.01346,0.03462,0.0095,-0.02458
0.3096,0.95076,-0.01329,0.04018,-0.01354,-0.04442
0.30869,0.95107,-0.01234,0.07373,-0.0247,-0.06644
0.30782,0.95137,-0.01135,0.0793,-0.04213,-0.07274
0.30731,0.95154,-0.01065,0.12307,-0.03163,-0.07086
0.30757,0.95146,-0.01031,0.11263,-0.03875,-0.07259
0.30739,0.95152,-0.0098,0.11853,-0.05911,-0.08111
0.30663,0.95177,-0.00924,0.11754,-0.05642,-0.08224
0.30595,0.952,-0.00837,0.04653,-0.01076,-0.04481
0.30568,0.9521,-0.00695,-0.01215,0.01008,-0.01867
0.30543,0.95219,-0.00431,-0.03186,0.02251,-0.02107
0.30525,0.95226,-0.00129,-0.06958,0.05149,-0.01943
0.30499,0.95234,0.00058,-0.07497,0.05509,-0.00211
0.30479,0.95241,0.00164,-0.08346,0.04655,0.01156
0.30458,0.95247,0.00185,-0.07135,0.02363,0.04104
0.30444,0.95252,0.00161,-0.03208,0.00624,0.02092
0.30418,0.9526,0.00132,-0.00012,-0.00447,0.00115
0.30349,0.95282,0.00173,0.09644,-0.03563,-0.02022
0.30259,0.9531,0.00258,0.10816,-0.04746,-0.00734
0.30186,0.95333,0.00365,0.09287,-0.03953,0.00339
0.30145,0.95345,0.00536,0.01225,-0.01563,0.00523
0.30142,0.95345,0.0075,-0.0254,0.01777,0.00242
0.30157,0.95338,0.01001,-0.04517,0.04654,0.00275
0.30145,0.95339,0.01253,-0.03096,0.02926,-0.00417
0.30089,0.95355,0.01386,0.00534,0.0033,0.00247
0.29996,0.95384,0.01407,0.01596,-0.00415,0.00356
0.29906,0.95413,0.01351,0.0043,3e-05,0.01262
0.29853,0.95431,0.01219,-0.0319,0.02333,0.02585
0.2983,0.9544,0.01071,-0.03166,0.02324,0.02733
0.29808,0.95448,0.00974,-0.02203,0.01981,0.02068
0.29772,0.9546,0.00905,-0.00227,0.00201,0.0152
0.29729,0.95474,0.00848,-0.00184,0.00187,0.01576
0.29681,0.95489,0.00811,-0.0166,0.01205,0.03096
0.29636,0.95503,0.00788,-0.00617,-0.0042,0.02392
0.29607,0.95512,0.0077,-0.00588,-0.00429,0.0241
0.29594,0.95516,0.00757,0.02445,0.00229,-0.00532
0.29583,0.9552,0.00708,0.0352,-0.00069,-0.01402
0.29571,0.95525,0.00611,0.03532,-0.00073,-0.01305
0.29574,0.95524,0.00493,0.01638,0.00717,-0.02301
0.29606,0.95515,0.00385,-0.01218,0.01507,-0.01888
0.29653,0.955,0.00294,-0.01904,0.01449,-0.01871
0.29699,0.95486,0.00245,-0.02276,0.01361,-0.03637
0.29727,0.95478,0.00255,-0.01182,0.00978,-0.04783
0.29733,0.95475,0.00324,-4e-05,0.00746,-0.05329
0.29728,0.95477,0.00404,0.02868,0.00699,-0.05836
0.29719,0.95479,0.00456,0.03577,0.00482,-0.05819
0.29712,0.95481,0.00461,0.03062,0.00635,-0.05264
0.29704,0.95484,0.00435,0.03339,0.02369,-0.04602
0.29666,0.95496,0.00406,0.02644,0.01197,-0.04735
0.29603,0.95516,0.00356,0.03094,-0.00054,-0.04256
0.29553,0.95532,0.00252,0.04291,-0.02087,-0.01737
0.29563,0.95529,0.00199,0.01395,-0.06417,0.00754
0.2963,0.95508,0.00293,-0.00388,-0.04663,0.01899
0.29806,0.95452,0.00515,-0.15246,0.03878,0.02966
0.30026,0.95381,0.00857,-0.14631,0.03239,0.01431
0.30104,0.95355,0.00976,-0.05394,0.07377,0.02802
0.30081,0.95363,0.0083,0.09473,0.03999,0.02063
0.30099,0.95359,0.00719,0.07873,-0.00298,0.02035
0.30097,0.9536,0.00539,0.05306,-0.01212,0.00886
0.30111,0.95356,0.00419,0.03519,-0.02289,0.02174
0.30201,0.95327,0.00605,0.00613,-0.03271,0.01663
0.30338,0.95281,0.00989,-0.04144,-0.0235,-0.01505
0.30435,0.95246,0.01273,0.00405,0.0042,-0.02619
0.3048,0.9523,0.01404,0.00917,0.00336,-0.02065
0.30506,0.95221,0.01459,-0.00956,0.00888,-0.00832
0.30517,0.95218,0.01435,-0.03769,0.01828,0.00672
0.30491,0.95226,0.01397,-0.02781,0.00622,0.00803
0.30434,0.95245,0.01388,-0.0016,-0.01523,0.01472
0.30366,0.95266,0.01414,0.01632,-0.01838,0.01398
0.30299,0.95285,0.01551,-0.00196,-0.01439,0.00521
0.30226,0.95304,0.01822,-0.02458,-0.02962,-0.01207
0.30114,0.95333,0.02127,-0.01957,-0.00976,-0.01998
0.29999,0.95363,0.02382,0.00204,0.04771,-0.01126
0.29965,0.95371,0.02486,0.01938,0.05216,0.01727
0.3002,0.95354,0.02497,0.01971,0.07262,0.02821
0.30074,0.95337,0.02491,-0.02747,0.02715,0.0178
0.30068,0.95344,0.0229,-0.01703,-0.00106,0.00939
0.30027,0.95363,0.02029,-0.01131,0.00041,-0.00411
0.30024,0.95366,0.01893,-0.00477,0.00781,-0.01444
0.30072,0.95352,0.01869,0.00651,0.00829,-0.00712
0.30137,0.95329,0.01987,-0.00575,0.0075,-0.00974
0.30206,0.95303,0.02155,-0.02465,0.00632,-0.0263
0.30258,0.95285,0.02209,-0.02956,0.0021,-0.0328
0.30283,0.9528,0.02106,-0.02509,0.01252,-0.02434
0.30254,0.95293,0.01904,-0.006,0.02145,0.00745
0.30201,0.95314,0.01696,-0.00547,0.02124,0.00953
0.30146,0.95334,0.0155,0.01574,0.00647,0.01749
0.30106,0.95348,0.01461,0.01318,-0.00296,0.01139
0.30094,0.95352,0.01436,0.01538,-0.00415,0.011
0.30101,0.95349,0.01491,0.00383,-9e-05,0.00348
0.30122,0.95341,0.01602,-0.00817,0.0069,-0.00987
0.3014,0.95333,0.01716,-0.00802,0.00845,-0.01463
0.30142,0.95331,0.01787,-0.00741,0.00392,-0.02123
0.30115,0.9534,0.01781,0.00285,-0.00491,-0.02646
0.30059,0.95359,0.01698,0.01019,-0.00535,-0.02765
0.29995,0.95381,0.01562,0.01653,-0.00613,-0.02334
0.29936,0.95402,0.01443,0.02275,-0.00956,-0.0215
0.29879,0.9542,0.01394,0.03662,-0.00984,-0.02386
0.29831,0.95435,0.01411,0.04718,-0.00496,-0.02485
0.29795,0.95446,0.01455,0.04899,-0.00391,-0.02422
0.2978,0.9545,0.01449,0.05164,0.00035,-0.01999
0.29792,0.95447,0.01405,0.05583,0.01017,-0.0065
0.29796,0.95447,0.01323,-0.0081,-0.00501,0.01154
0.29817,0.9544,0.01342,-0.04633,0.00069,0.00836
0.29833,0.95434,0.01462,-0.03538,0.03126,-0.02182
0.29832,0.95434,0.01491,-0.00973,0.02017,-0.03188
0.29835,0.95433,0.01473,-0.00727,0.01627,-0.03263
0.29842,0.95432,0.01414,-0.02547,0.01341,-0.01115
0.29841,0.95433,0.01328,-0.03611,0.0114,-0.00234
0.29827,0.95439,0.01258,-0.03165,0.01002,-0.00702
0.29802,0.95447,0.01236,0.01765,-0.00041,-0.02719
0.29784,0.95452,0.01266,0.01697,-0.00513,-0.03131
0.29795,0.95447,0.01331,0.00774,0.0006,-0.02358
0.29834,0.95434,0.01419,-0.03307,0.01589,-0.01106
0.2992,0.95406,0.01485,-0.01906,-0.00458,-0.00945
0.29969,0.95391,0.01449,0.01134,-0.00706,-0.01055
0.29937,0.95403,0.01286,0.0136,0.03741,0.0275
0.29879,0.95425,0.01028,0.02734,0.01861,0.03661
0.29827,0.95444,0.00751,0.01724,-0.00787,0.01971
0.29814,0.95448,0.00672,-0.00032,-0.0014,0.0016
0.29856,0.95435,0.00756,-0.02371,-0.00626,-0.00806
0.29908,0.95417,0.00936,-0.01683,-0.00687,-0.02413
0.29934,0.95406,0.01131,0.01221,-0.0057,-0.03731
0.29945,0.95401,0.01275,0.0281,-0.00691,-0.04131
0.29952,0.95398,0.01358,0.00946,0.00128,-0.03606
0.29949,0.95398,0.01403,-0.00491,0.01169,-0.02808
0.29928,0.95405,0.01377,0.00272,0.01131,-0.0241
0.29901,0.95415,0.01287,0.01062,0.0072,-0.0207
0.29889,0.9542,0.01189,0.01233,-0.00159,-0.01826
0.29886,0.95422,0.01128,0.0123,0.00062,-0.00906
0.29891,0.9542,0.01144,0.01601,0.00641,0.0026
0.29912,0.95412,0.01239,0.01232,0.01133,-0.00121
0.29941,0.95401,0.01349,0.00998,0.01187,-0.02229
0.29964,0.95393,0.01423,0.01095,0.00626,-0.02616
0.29971,0.9539,0.01468,0.00884,0.00179,-0.02177
0.29966,0.95391,0.015,-0.00214,0.00193,-0.00874
0.2996,0.95392,0.01538,-0.0054,0.00189,-0.00851
0.29964,0.95391,0.01567,-0.00202,0.00634,-0.0209
0.29983,0.95385,0.01562,-6e-05,0.00604,-0.01901
0.30016,0.95375,0.01535,-0.00553,0.00324,-0.01582
0.30052,0.95364,0.01508,-0.00242,0.00626,0.00992
0.30079,0.95356,0.01486,-0.00346,0.00492,0.01863
0.30098,0.9535,0.01491,-0.0038,0.00765,0.02207
0.30109,0.95346,0.01511,0.00375,0.00754,-0.00815
0.30122,0.95342,0.01528,-0.00061,0.00271,-0.01546
0.30135,0.95337,0.01562,0.00951,0.00038,-0.01223
0.30146,0.95333,0.01602,0.00898,0.00245,-0.00074
0.30168,0.95325,0.01674,-0.0034,0.0013,-0.00327
0.30195,0.95315,0.01752,-0.00373,0.01214,-0.01322
0.30213,0.95308,0.01791,-0.0005,0.01587,-0.02479
0.30231,0.95303,0.01783,-0.00171,0.00963,-0.02578
0.30247,0.95299,0.01743,-0.00263,0.00276,-0.01343
0.3025,0.95299,0.01679,0.00065,0.00275,0.00465
0.30254,0.95298,0.0163,0.00302,0.00477,0.00625
0.30254,0.95298,0.01614,0.00237,0.00701,0.00642
0.3025,0.953,0.01621,0.00508,0.00102,-0.00242
0.30249,0.953,0.01648,0.00774,0.00166,-0.00935
0.30253,0.95297,0.0169,0.01009,0.00226,-0.01052
0.30262,0.95293,0.01747,0.00534,0.00494,-0.01516
0.30273,0.95289,0.018,-0.00105,0.00852,-0.02169
0.30283,0.95285,0.01819,-8e-05,0.00892,-0.02001
0.3029,0.95284,0.01798,0.00304,0.01071,-0.01499
0.30293,0.95283,0.01759,0.00247,0.00946,-0.008
0.303,0.95282,0.01717,0.00241,0.00948,-0.00757
0.30308,0.9528,0.01672,3e-05,0.00431,-0.01133
0.30317,0.95278,0.01632,0.0089,-0.00126,-0.00726
0.30318,0.95278,0.01612,0.0089,-0.00126,-0.00705
0.30318,0.95278,0.01626,0.00645,0.00434,-0.01155
0.3032,0.95277,0.01659,0.01232,0.00664,-0.02331
0.30325,0.95275,0.01678,0.01227,0.00666,-0.02351
0.30339,0.9527,0.01683,0.01746,0.00694,-0.01974
0.30359,0.95264,0.01694,0.0126,0.00587,-0.00581
0.30385,0.95255,0.01697,0.00073,0.00724,0.00476
0.30407,0.95249,0.01679,-0.00753,0.00819,-0.0035
0.30421,0.95245,0.01626,0.00382,-0.00088,-0.01822
0.30421,0.95246,0.01577,0.00638,-0.00487,-0.01574
0.30415,0.95248,0.0157,0.01076,-0.01097,-0.00708
0.30408,0.9525,0.01614,0.0052,-0.00522,0.0062
0.30398,0.95251,0.017,0.00308,-0.00038,0.00054
0.30382,0.95255,0.01802,-0.0005,0.01074,-0.01629
0.30367,0.95258,0.01885,0.00036,0.01022,-0.0319
0.3035,0.95262,0.01938,0.0029,0.00865,-0.03017
