gravity.x,gravity.y,gravity.z,userAcceleration.x,userAcceleration.y,userAcceleration.z
0.75649,0.36803,-0.54062,-0.02329,0.09533,-0.04251
0.75661,0.36418,-0.54305,-0.0149,0.05835,-0.00873
0.75799,0.36073,-0.54344,0.02347,0.01203,0.01275
0.76143,0.35861,-0.54003,0.01835,0.0137,0.01197
0.76508,0.35783,-0.53537,0.04199,-0.05846,0.005
0.76916,0.35728,-0.52985,0.06523,-0.0356,0.0631
0.77364,0.35657,-0.52378,0.0659,-0.01526,0.04338
0.77751,0.35534,-0.51885,0.04105,0.01247,0.00522
0.78078,0.35158,-0.5165,-0.02879,-0.01634,-0.02536
0.78423,0.34771,-0.51389,-0.04958,-0.00468,-0.04321
0.78706,0.34429,-0.51186,-0.07171,0.00109,-0.05072
0.78803,0.34243,-0.51161,-0.04732,0.02772,-0.00087
0.78884,0.3411,-0.51126,-0.02254,0.03495,-0.00605
0.78998,0.33968,-0.51044,-0.01347,0.02603,-0.02058
0.78971,0.33863,-0.51155,-0.03168,-0.04155,0.02283
0.78917,0.33769,-0.51301,-0.04013,-0.0467,0.05508
0.78854,0.33729,-0.51423,-0.02229,-0.04838,0.05597
0.78829,0.33817,-0.51404,0.13728,-0.04295,-0.00488
0.79083,0.33977,-0.50906,0.1432,-0.03102,0.01266
0.79694,0.33968,-0.49951,0.14232,-0.00066,0.0121
0.80436,0.33627,-0.48982,0.14947,0.03969,-0.04312
0.81105,0.33149,-0.48199,0.09253,0.00578,0.01507
0.81655,0.32794,-0.47508,0.01622,-0.04408,0.05164
0.8208,0.32538,-0.46947,-0.06043,-0.09908,0.02451
0.82341,0.32438,-0.46559,-0.0418,-0.06537,-0.00146
0.82427,0.32451,-0.46397,-0.00486,0.1037,-0.01804
0.82434,0.32395,-0.46425,0.01879,0.10296,-0.01242
0.82492,0.3229,-0.46394,0.00908,0.08108,0.00157
0.82567,0.32228,-0.46304,-0.03972,-0.01456,-0.01096
0.82538,0.32299,-0.46305,-0.03626,-0.03575,-0.00939
0.8244,0.32394,-0.46414,-0.02514,-0.01906,-0.00526
0.82361,0.32417,-0.46537,0.0072,-0.02665,-0.03184
0.82343,0.32324,-0.46634,0.04406,-0.03967,-0.03371
0.82415,0.32164,-0.46618,0.04812,-0.0357,0.00213
0.82579,0.31993,-0.46445,0.00249,-0.04363,0.00928
0.82794,0.31816,-0.46184,-0.01582,-0.08361,-0.04216
0.82985,0.31666,-0.45943,0.02559,-0.08462,-0.05859
0.83184,0.31529,-0.45677,0.01927,-0.05102,-0.03348
0.83416,0.31375,-0.45358,0.0095,-0.02718,-0.03241
0.83687,0.31174,-0.44996,-0.02736,-0.01041,-0.01917
0.83999,0.30898,-0.44604,-0.0017,-0.01454,-0.01613
0.84305,0.30689,-0.44168,-0.00359,0.01191,-0.0006
0.84586,0.30544,-0.43728,-0.02828,0.03718,0.00365
0.84837,0.30416,-0.4333,-0.03601,0.05289,-0.00029
0.85139,0.30235,-0.42863,-0.04861,0.06586,0.0033
0.85458,0.30085,-0.4233,-0.01081,0.06806,-0.01656
0.85809,0.29974,-0.41694,0.03196,0.08422,-0.00182
0.86214,0.2985,-0.40941,0.02359,0.08975,0.06046
0.86586,0.29703,-0.40257,0.01448,0.0804,0.05847
0.86868,0.29569,-0.39744,-0.02497,0.05898,0.00323
0.87145,0.29424,-0.39243,0.00539,0.02741,0.00716
0.87419,0.29306,-0.38717,-0.0041,0.03416,0.03739
0.87661,0.29182,-0.38261,-0.04159,0.03893,0.04298
0.87797,0.29125,-0.37992,-0.03121,-0.07963,-0.08337
0.87948,0.29061,-0.37691,-0.03272,-0.07898,-0.08638
0.88165,0.29065,-0.37176,0.05334,-0.01041,-0.01371
0.884,0.28993,-0.36673,0.01511,-0.001,-0.10468
0.88482,0.28847,-0.3659,0.00837,0.02043,-0.07198
0.88556,0.28699,-0.36526,-0.0114,0.05216,-0.03899
0.88649,0.28524,-0.36438,-0.11299,0.07241,-0.00902
0.88712,0.28474,-0.36322,-0.11363,0.07291,-0.01018
0.88749,0.28522,-0.36195,-0.04771,0.16134,0.02454
0.88745,0.28671,-0.36086,-0.06989,0.13117,0.07663
0.8872,0.28717,-0.36111,-0.05981,0.10697,0.0229
0.88627,0.28819,-0.3626,0.04723,0.09133,0.03751
0.88514,0.28969,-0.36414,0.09421,0.15087,0.07348
0.88297,0.29151,-0.36794,0.03805,0.06627,0.15539
0.87988,0.29415,-0.37319,-0.01707,-0.03724,0.16859
0.87575,0.29783,-0.37995,-0.03471,-0.2806,0.10668
0.87156,0.30213,-0.38613,-0.00259,-0.3511,0.05511
0.86844,0.30493,-0.39093,0.10208,-0.19988,-0.07468
0.86635,0.30643,-0.39436,0.17556,-0.05999,-0.00264
0.86584,0.30893,-0.39354,0.06125,-0.12769,0.0395
0.8656,0.31082,-0.39257,-0.05004,-0.17677,-0.17721
0.86396,0.31186,-0.39536,-0.04366,-0.16665,-0.2114
0.86224,0.31331,-0.39795,-0.03397,-0.07046,-0.0874
0.86275,0.31378,-0.39649,-0.06553,0.06985,-0.15998
0.86388,0.3137,-0.39408,-0.0746,0.09298,-0.08607
0.866,0.31362,-0.38946,-0.01391,0.05392,-0.01514
0.86885,0.31273,-0.38379,0.00397,0.08058,-0.02076
0.87064,0.31166,-0.38059,-0.03141,0.06991,0.01336
0.87128,0.31132,-0.37939,-0.04473,0.02412,0.00931
0.87217,0.31149,-0.37721,0.02872,0.06196,-0.01876
0.87304,0.31193,-0.37483,0.04256,0.08696,0.00608
0.87387,0.31211,-0.37273,0.01152,0.05434,0.04033
0.87519,0.31187,-0.36983,-0.00086,0.04918,0.00477
0.8769,0.31135,-0.36619,0.03078,0.0579,0.01652
0.87897,0.3107,-0.36177,0.04671,0.0394,0.02292
0.88104,0.30988,-0.3574,0.06192,0.04772,0.02709
0.88294,0.30865,-0.35377,0.08139,0.06626,0.01608
0.88481,0.30686,-0.35064,0.10197,0.01953,0.07493
0.88624,0.3052,-0.34845,0.07362,-0.01072,0.04855
0.88638,0.30374,-0.3494,0.04832,-0.03567,0.03644
0.88533,0.30253,-0.35307,0.00427,-0.09755,0.06228
0.88325,0.30194,-0.35874,-0.02766,-0.17797,0.06948
0.88061,0.3032,-0.36413,0.01369,-0.16598,0.04449
0.87749,0.30684,-0.36859,0.06058,-0.14982,0.01179
0.87421,0.3121,-0.37195,0.1032,-0.12239,-0.03163
0.87123,0.31702,-0.37478,0.06756,-0.07543,-0.07389
0.86957,0.31892,-0.37701,0.02657,0.04517,-0.05275
0.86849,0.31863,-0.37974,-0.10036,0.10398,-0.09392
0.86739,0.31836,-0.38246,-0.06879,0.06119,-0.08841
0.86631,0.31799,-0.38521,-0.05804,0.02019,-0.03536
0.86525,0.31762,-0.38789,-0.04489,-0.02085,-0.00015
0.86388,0.31745,-0.39106,-0.02212,0.05122,0.0003
0.86323,0.31693,-0.39292,-0.02146,0.05174,0.00216
0.86203,0.31753,-0.39507,-0.06874,0.0888,-0.00268
0.86169,0.31772,-0.39566,-0.05563,0.09274,-0.05925
0.8607,0.3175,-0.39799,-0.05463,0.09296,-0.05692
0.85898,0.31741,-0.40175,-0.06601,0.07642,-0.03473
0.85674,0.31811,-0.40596,-0.02243,0.02709,-0.01151
0.85487,0.3185,-0.40957,-0.03265,0.0038,-0.01243
0.85329,0.31915,-0.41235,-0.03222,-0.01564,-0.02167
0.85237,0.32107,-0.41277,0.04663,-0.02592,0.00917
0.85311,0.32277,-0.4099,0.05584,-0.01812,0.01598
0.85477,0.32451,-0.40504,0.04469,-0.0232,0.02909
0.85669,0.32582,-0.39989,0.03089,-0.06468,0.02065
0.85821,0.32665,-0.39595,0.02224,-0.06104,0.03225
0.85939,0.32717,-0.39294,0.02424,-0.05065,0.03772
0.8605,0.3276,-0.39015,0.02782,-0.03819,0.03115
0.86168,0.32802,-0.38718,0.03635,-0.02512,0.01989
0.86296,0.32875,-0.3837,0.02846,-0.01626,0.01918
0.86409,0.32974,-0.38029,0.01883,-0.00887,0.01492
0.86487,0.33074,-0.37762,0.00926,-0.00216,0.01018
0.86523,0.33146,-0.37618,0.0098,0.01984,-0.00619
0.86515,0.33208,-0.37581,0.01768,0.02268,-0.00739
0.86505,0.33242,-0.37573,0.01124,0.02979,0.00275
0.86494,0.33264,-0.37581,0.00448,0.01798,0.01295
0.8646,0.33285,-0.37638,0.00522,0.01607,0.01098
0.86414,0.33314,-0.3772,0.01205,0.00757,0.0123
0.86369,0.33341,-0.37799,0.01175,0.00123,0.01281
0.86334,0.3336,-0.37862,0.00757,-0.00424,0.01098
0.86301,0.33375,-0.37922,0.00915,-0.01008,0.00505
0.86274,0.33388,-0.37973,0.01024,-0.01452,0.00117
0.86258,0.33405,-0.37994,0.00782,-0.01688,-0.0054
0.86251,0.33425,-0.37993,0.00736,-0.01422,-0.00832
0.86251,0.3344,-0.37981,0.00555,-0.01799,-0.01025
0.8625,0.33451,-0.37972,0.00449,-0.01861,-0.01269
0.86244,0.33462,-0.37977,0.00489,-0.01448,-0.01502
0.86223,0.33477,-0.38011,0.00284,-0.00602,-0.013
0.86202,0.33487,-0.3805,-0.0042,0.00269,-0.01043
0.86196,0.33497,-0.38054,-0.00495,0.00469,-0.00871
0.86189,0.33519,-0.38053,-0.01011,0.0094,-0.00593
0.86176,0.33539,-0.38063,0.00137,0.00529,-0.01562
0.86163,0.33554,-0.3808,-0.01119,0.01898,-0.00455
0.86153,0.33579,-0.38081,-0.00206,0.01639,-0.00148
0.86143,0.33593,-0.3809,-7e-05,0.00666,-0.00056
0.86137,0.33603,-0.38095,-0.0004,0.00432,-0.00171
0.86135,0.33609,-0.38093,0.00394,0.00699,0.00743
0.86134,0.33616,-0.3809,0.00377,-0.00123,0.00087
0.86127,0.33609,-0.38112,0.00332,-0.00127,-0.00079
0.86122,0.33592,-0.3814,0.00339,0.00146,0.00025
0.86124,0.33583,-0.38142,0.0091,-0.00743,0.00474
0.8613,0.33575,-0.38136,0.00752,-0.006,0.00541
0.86136,0.3357,-0.38126,0.00424,-0.00586,0.00373
0.8614,0.33562,-0.38124,0.01186,-0.00759,-0.00175
0.86138,0.33556,-0.38133,0.01085,-0.00394,0.00065
0.86142,0.33548,-0.38133,0.0076,-0.00264,0.00218
0.86147,0.33538,-0.3813,0.00783,-0.00094,0.00465
0.86149,0.33533,-0.3813,0.00651,-0.00191,0.00343
0.86151,0.3353,-0.38127,0.01004,-0.00509,0.00634
0.86158,0.33525,-0.38115,0.00863,-0.00644,0.00093
0.86163,0.33526,-0.38104,0.0092,-0.00512,0.0025
0.86168,0.33531,-0.38089,0.00788,-0.00358,0.00212
0.86175,0.33533,-0.38071,0.00641,0.00371,0.00636
0.8618,0.33534,-0.38058,0.00598,0.00025,0.00377
0.86179,0.33532,-0.38063,0.00465,-0.00059,-0.00056
0.86173,0.33529,-0.38079,0.00811,-0.00154,0.001
0.86168,0.33529,-0.3809,0.00479,0.00075,-0.00069
0.86166,0.33528,-0.38096,0.00445,-0.00201,-0.00062
0.86165,0.33527,-0.38098,0.00056,0.00094,-0.00328
0.8616,0.33523,-0.38113,-0.00029,0.00329,-0.0033
0.86152,0.33518,-0.38136,0.00353,0.00059,-0.00632
0.86142,0.33511,-0.38164,0.00481,-0.00139,-0.00599
0.86133,0.33504,-0.3819,0.00308,-0.00044,-0.00127
0.86128,0.33502,-0.38204,0.00133,-0.00026,-0.00514
0.86125,0.33501,-0.38211,0.0009,0.00078,-0.00278
0.86125,0.33495,-0.38217,-0.00075,-0.0021,-0.00043
0.86131,0.33486,-0.38212,0.00347,-0.00278,-0.00263
0.86136,0.33475,-0.38208,0.0048,-0.00089,0.00029
0.86141,0.33466,-0.38207,0.00377,-0.00066,0.00236
0.86144,0.33455,-0.38209,0.00641,-0.00162,0.00087
0.86147,0.33443,-0.38213,0.00692,-0.00116,0.00063
0.86149,0.33435,-0.38215,0.00571,-0.00063,-0.0004
0.86152,0.3343,-0.38212,0.00817,0.00133,0.00219
0.86158,0.33422,-0.38206,0.00495,0.00101,0.00235
0.86165,0.33414,-0.38197,0.00392,0.00041,0.00337
0.86168,0.33407,-0.38197,0.00661,-0.00068,0.00177
0.86169,0.334,-0.382,0.00813,-0.00057,0.00113
0.86171,0.33396,-0.382,0.00734,0.00109,0.00216
0.86172,0.33394,-0.38199,0.00565,0.00056,-0.00093
0.86174,0.33391,-0.38198,0.00575,-0.0008,0.0003
0.86177,0.33386,-0.38195,0.00472,-0.00101,-8e-05
0.86179,0.33381,-0.38195,0.00605,-0.00146,-0.00062
0.8618,0.33374,-0.382,0.00626,0.00334,0.00149
0.86181,0.33366,-0.38204,0.00564,-0.00071,0.00062
0.8618,0.3336,-0.38212,0.00361,-0.00169,0.00378
0.86179,0.33355,-0.38218,0.00319,-0.00024,-5e-05
0.86178,0.33352,-0.38223,0.00445,-0.00035,-0.00146
0.86176,0.33347,-0.3823,0.00471,-0.00089,-0.00049
0.86175,0.33343,-0.38237,0.0047,-0.00118,-0.00176
0.86176,0.33338,-0.38239,0.00479,-0.00334,0.00048
0.86175,0.33337,-0.38242,0.00489,-0.00107,-0.00346
0.86177,0.33336,-0.3824,0.00499,0.0006,-0.00279
0.86176,0.33336,-0.38241,0.00691,-0.00028,-0.00147
0.86176,0.33333,-0.38245,0.00381,-0.00041,-0.00076
0.86175,0.33328,-0.3825,0.00418,0.00119,0.00109
0.86177,0.33323,-0.3825,0.00513,0.00035,0.00088
0.86178,0.33318,-0.38253,0.00489,0.00218,-0.0019
0.86179,0.33313,-0.38254,0.00398,0.00291,-0.00087
0.86178,0.33311,-0.38259,0.0052,0.0023,0.00224
0.86177,0.33308,-0.38262,0.00384,0.00208,0.00048
0.86176,0.33305,-0.38267,0.00605,0.00151,-0.00301
0.86173,0.33302,-0.38276,0.00619,-0.00128,0.00079
0.86171,0.33303,-0.38281,0.0054,0.0035,-0.0018
0.86171,0.33304,-0.38279,0.00361,0.00128,0.00288
0.86172,0.33301,-0.3828,0.00247,-0.0012,0.0013
0.86172,0.33296,-0.38284,0.00562,0.00035,-0.00045
0.86175,0.33288,-0.38286,0.00579,-0.0021,0.00053
0.86177,0.3328,-0.38288,0.00443,0.00141,0.00086
0.86179,0.33272,-0.3829,0.00506,0.00047,-0.00127
0.86179,0.3326,-0.383,0.00523,0.00179,-0.00218
0.8618,0.33252,-0.38305,0.00464,0.00302,-0.00017
0.86184,0.33244,-0.38303,0.001,0.00127,-0.00023
0.86186,0.33237,-0.38304,0.00429,0.00122,0.00111
0.86187,0.33232,-0.38306,0.00422,0.00093,0.00162
0.8619,0.33228,-0.38303,0.00312,0.00131,0.00254
0.86193,0.33229,-0.38297,0.00523,0.00124,8e-05
0.86193,0.33231,-0.38295,0.00532,-0.00139,-0.00161
0.86194,0.33232,-0.38291,0.00302,6e-05,0.00068
0.86198,0.33231,-0.38283,0.0056,-0.00045,0.00269
0.86198,0.33232,-0.38283,0.00385,0.00034,0.00246
0.86196,0.33231,-0.38287,0.00487,0.00132,0.00198
0.86196,0.33232,-0.38286,0.00605,0.00229,0.00146
0.86195,0.33235,-0.38286,0.00583,0.00172,0.0007
0.86195,0.33239,-0.38283,0.00579,0.00227,0.00177
0.86197,0.33242,-0.38275,0.00203,-0.00055,-0.00073
0.86197,0.33245,-0.38272,0.00352,0.0051,0.00291
0.86198,0.33248,-0.38269,0.00448,0.0003,0.0027
0.86199,0.33252,-0.38263,0.00553,5e-05,-0.00134
0.86199,0.33254,-0.3826,0.00588,0.00308,-0.00065
0.862,0.33258,-0.38256,0.00302,0.00214,0.00101
0.86201,0.33258,-0.38251,0.004,0.00149,-0.00037
0.86201,0.33262,-0.3825,0.00474,-8e-05,-0.00117
0.86202,0.33264,-0.38246,0.00096,0.00263,0.00407
0.86207,0.33265,-0.38233,0.00639,-3e-05,0.00059
0.8621,0.33269,-0.38223,0.00595,0.00159,0.00316
0.86212,0.33273,-0.38216,0.0062,0.00143,0.00148
0.86214,0.33277,-0.38206,0.00228,-0.00021,-0.00074
0.86216,0.3328,-0.38198,0.00275,0.00077,0.00064
0.86218,0.33285,-0.38191,0.00452,0.00105,-0.00074
0.8622,0.33291,-0.38181,0.00535,0.00345,0.00136
0.86225,0.33295,-0.38166,0.00468,0.00219,0.00312
0.86229,0.33301,-0.38152,0.00478,0.00207,-1e-05
0.8623,0.33308,-0.38144,0.00448,-0.00043,0.00046
0.86232,0.33313,-0.38134,0.00454,0.00281,-0.00155
0.86237,0.33317,-0.38121,0.00387,0.00408,0.00204
0.86242,0.33323,-0.38104,0.00535,0.00182,0.00187
0.86245,0.33324,-0.38095,0.00835,0.00386,-0.00123
0.86245,0.33327,-0.38092,0.00675,0.00553,0.00392
0.86248,0.33334,-0.3808,0.00474,0.00385,-1e-05
0.8625,0.33343,-0.38068,0.00304,0.00065,0.00193
0.8625,0.3335,-0.3806,0.0039,0.00094,0.00179
0.86252,0.33354,-0.38055,0.00551,-0.00129,0.00083
0.8625,0.33356,-0.38055,0.00909,-0.0001,0.00352
0.86249,0.33358,-0.38057,0.00743,0.00036,0.00475
0.86251,0.33358,-0.38053,0.00694,-0.00099,0.00407
0.8625,0.33359,-0.38053,0.00539,0.00132,-0.00036
0.86248,0.33359,-0.38059,0.00433,0.0042,-0.00104
0.86249,0.3336,-0.38055,0.00017,0.00238,0.00162
0.86249,0.33362,-0.38053,0.00189,0.00402,-0.00114
0.86248,0.33365,-0.38054,0.00019,0.00836,0.00271
0.86248,0.33364,-0.38053,0.00405,0.00205,-0.00048
0.86249,0.33366,-0.38051,0.01213,-0.00385,7e-05
0.86242,0.33361,-0.3807,0.00226,0.00809,0.00193
0.8624,0.33362,-0.38073,-5e-05,0.00221,0.00665
0.86243,0.33362,-0.38068,0.00377,0.00183,-0.00346
0.8624,0.33359,-0.38076,0.00709,0.00303,0.00389
0.86239,0.33358,-0.38079,0.00374,0.00189,0.00298
0.86244,0.3335,-0.38074,0.00387,0.00266,0.0013
0.86243,0.33345,-0.38082,0.00418,0.00484,0.00133
0.86243,0.33338,-0.38089,0.00183,0.00433,-0.00024
0.86244,0.33331,-0.38093,-0.00051,0.00342,-0.00233
0.86244,0.33324,-0.38098,0.00119,0.00383,-0.00187
0.86246,0.33317,-0.381,0.00424,0.00263,-0.00271
0.8625,0.33309,-0.38099,0.00425,0.00288,-0.00105
0.86252,0.33302,-0.38098,0.00474,0.00498,0.00363
0.86255,0.33296,-0.38098,0.00424,0.0027,0.00308
0.86256,0.33292,-0.381,0.00335,0.00193,0.00459
0.86257,0.33287,-0.381,0.00359,0.00286,0.00316
0.86261,0.33282,-0.38096,0.00245,0.00211,0.00316
0.86265,0.33276,-0.38091,0.00204,0.00505,0.00173
0.86269,0.33272,-0.38087,0.007,0.00436,0.00226
0.8627,0.3327,-0.38085,0.00702,0.00339,0.00112
0.8627,0.33266,-0.38089,0.00772,0.00418,0.00226
0.86269,0.33264,-0.38095,0.00179,0.00242,0.00368
0.86269,0.33258,-0.38098,0.00162,0.0034,0.0018
0.86268,0.33254,-0.38105,0.00243,0.00356,0.00338
0.86268,0.33248,-0.38109,0.00499,0.00324,0.00118
0.86269,0.33238,-0.38117,0.00363,0.00716,0.00147
0.86265,0.33228,-0.38134,0.0047,0.00469,-0.0006
0.86261,0.33223,-0.38148,0.00546,0.00451,0.00175
0.86258,0.33221,-0.38157,0.00095,0.00093,0.00174
0.86256,0.33215,-0.38166,0.00164,0.00037,0.00176
0.86255,0.33206,-0.38177,0.00208,0.00144,0.00016
0.86254,0.33195,-0.38189,0.00282,0.00265,0.00065
0.86254,0.33183,-0.38199,0.00531,0.00469,0.00407
0.86255,0.3317,-0.38207,0.00271,0.00256,0.00225
0.86256,0.33157,-0.38217,0.00176,0.00315,0.00084
0.86257,0.33145,-0.38225,0.00564,0.00364,0.00196
0.86259,0.33135,-0.38228,0.00218,0.00488,0.00073
0.86261,0.33127,-0.38231,0.00081,0.00432,0.00216
0.86264,0.3312,-0.38231,0.00255,0.00842,0.00206
0.86268,0.33112,-0.38229,0.00367,0.00455,0.00243
0.86271,0.33105,-0.38228,0.0042,0.00533,0.00168
0.86272,0.331,-0.3823,0.00505,0.00439,0.0025
0.86272,0.33095,-0.38233,0.0053,-0.00058,0.00222
0.86273,0.3309,-0.38236,0.00594,0.00111,-0.00134
0.86275,0.33083,-0.38238,0.00503,0.00247,0.00318
0.86278,0.33076,-0.38237,0.00285,0.00158,0.00224
0.86279,0.3307,-0.38239,0.00626,0.00415,0.00356
0.86279,0.33064,-0.38245,0.007,0.00392,0.0045
0.8628,0.33058,-0.38247,0.00498,0.00563,0.00303
0.8628,0.33055,-0.38251,0.00305,0.00426,0.00122
0.86279,0.33053,-0.38254,0.00224,0.00557,0.0008
0.86278,0.33049,-0.38259,0.00436,0.00466,0.00201
0.86279,0.33045,-0.38263,0.00303,0.00598,0.00097
0.86278,0.33041,-0.38268,0.00479,0.00174,0.00219
0.86275,0.33038,-0.38277,0.00604,0.00358,0.00318
0.86273,0.33035,-0.38283,0.00204,0.00473,0.00168
0.86272,0.33032,-0.38289,0.0057,0.00455,0.00085
0.86274,0.33029,-0.38288,0.00479,0.00609,0.00118
0.86275,0.33024,-0.38289,0.00258,0.00298,0.004
0.86273,0.33016,-0.38299,0.00311,0.00282,0.00627
0.8627,0.33011,-0.38312,0.00399,0.00398,0.00255
0.86267,0.33009,-0.38321,0.00564,0.00437,-0.00041
0.86264,0.33008,-0.38327,0.00291,0.00702,0.00048
0.86262,0.33003,-0.38335,0.00372,0.00455,0.00048
0.8626,0.33,-0.38343,0.00437,0.00357,0.00339
0.8626,0.32995,-0.38347,0.00118,0.0029,0.00316
0.86262,0.32993,-0.38345,0.00163,0.00472,0.0029
0.86264,0.3299,-0.38342,0.00497,0.00555,0.00092
0.86264,0.32986,-0.38347,0.00376,0.0064,0.00357
0.8626,0.32983,-0.38359,0.00483,0.00629,0.00265
0.86257,0.32982,-0.38367,0.00625,0.0061,0.0029
0.86255,0.32981,-0.38371,0.00305,0.00402,0.00218
0.86253,0.32977,-0.3838,0.00291,0.00442,0.00372
0.8625,0.32972,-0.38389,0.00613,0.00153,0.00096
0.86249,0.32967,-0.38395,0.00556,0.00309,0.00351
0.86251,0.32963,-0.38395,0.00681,0.00355,0.00292
0.86256,0.32957,-0.38389,0.00539,0.00487,0.00035
0.8626,0.32948,-0.38388,0.00317,0.00624,0.00116
0.86262,0.32939,-0.38391,0.00101,0.00499,0.00285
0.86262,0.3293,-0.38398,0.00166,0.00527,0.00138
0.86262,0.32924,-0.38404,0.00174,0.00719,0.00219
0.86264,0.3292,-0.38404,0.00489,0.00616,0.00348
0.86265,0.32919,-0.38402,0.00225,0.00369,0.00214
0.86263,0.32919,-0.38406,0.00256,0.00533,0.00172
0.86264,0.32919,-0.38404,0.00156,0.00191,0.00343
0.86266,0.32916,-0.38403,0.00291,0.00445,0.0036
0.86266,0.32914,-0.38403,0.00506,0.00345,0.00184
0.86267,0.32913,-0.38403,0.00588,0.00424,0.00411
0.86269,0.32913,-0.38398,0.00401,0.00451,0.00213
0.86269,0.32915,-0.38397,0.00285,0.00464,0.00461
0.86268,0.32916,-0.38397,0.00492,0.0045,0.00271
0.86268,0.3292,-0.38395,0.00482,0.00473,0.00428
0.86269,0.32923,-0.3839,0.00342,0.00614,0.00283
0.86269,0.32927,-0.38384,0.00349,0.00486,0.00272
0.8627,0.32932,-0.3838,0.00252,0.00607,0.00454
0.86269,0.32934,-0.38379,0.0032,0.00657,0.00226
0.86267,0.32936,-0.38383,0.00402,0.00235,0.00157
0.86264,0.3294,-0.38387,0.00463,0.00542,0.00201
0.86263,0.32943,-0.38385,0.00516,0.00559,0.00378
0.86264,0.32947,-0.3838,0.00382,0.00477,0.00175
0.86264,0.32951,-0.38376,0.00427,0.00452,0.00142
0.86265,0.32954,-0.38371,0.00344,0.0039,0.00195
0.86268,0.32956,-0.38364,0.00297,0.00421,0.00346
0.86271,0.32958,-0.38355,0.00439,0.00477,0.00216
0.86274,0.32962,-0.38344,0.00245,0.00552,0.00465
0.86277,0.32965,-0.38335,0.00124,0.00501,0.00247
0.86281,0.32968,-0.38324,0.003,0.00592,0.00343
0.86285,0.3297,-0.38313,0.00198,0.00549,0.00198
0.86285,0.32974,-0.38308,0.00185,0.00702,0.00374
0.86286,0.32977,-0.38304,0.00437,0.00376,0.00425
0.86287,0.3298,-0.383,0.00426,0.00539,0.00138
0.86286,0.32982,-0.38301,0.00483,0.0101,0.00349
0.86285,0.32986,-0.38299,0.00679,0.00721,0.00114
0.86284,0.32993,-0.38296,0.00178,0.00597,0.00243
0.86286,0.32998,-0.38287,0.00227,0.00518,0.0038
0.86289,0.33003,-0.38276,0.00254,0.00623,0.00278
0.86291,0.33003,-0.38271,0.00393,0.00683,0.00449
0.86289,0.33004,-0.38274,0.00536,0.00468,0.00527
0.86289,0.33005,-0.38273,0.00485,0.00234,0.00088
0.8629,0.33004,-0.38271,0.00508,0.00451,-0.00123
0.86292,0.33004,-0.38268,0.00346,0.00768,7e-05
0.86296,0.33007,-0.38255,0.00157,0.00883,0.00494
0.86299,0.3301,-0.38246,0.00177,0.00695,0.00434
0.86296,0.33014,-0.38249,0.00058,0.007,0.0024
0.86291,0.33021,-0.38254,0.0027,0.00549,0.00463
0.86288,0.33027,-0.38257,0.00518,0.00544,0.0038
0.86286,0.3304,-0.38249,0.00318,0.00331,0.00178
0.86285,0.33051,-0.38243,0.00435,0.00326,0.00433
0.86286,0.33057,-0.38235,0.00443,0.00371,0.00357
0.86289,0.33063,-0.38224,0.00505,0.00496,0.00404
0.8629,0.33067,-0.38218,0.00334,0.00383,0.00632
0.86291,0.33069,-0.38214,0.00327,0.00414,0.00703
0.86292,0.33069,-0.38211,0.00242,0.00758,0.00246
0.86291,0.33065,-0.38216,0.00322,0.01012,0.00376
0.86291,0.33059,-0.38222,0.00159,0.00837,0.00407
0.86289,0.33053,-0.38232,0.00243,0.00695,-7e-05
0.86287,0.3305,-0.38239,0.00201,0.0055,0.00222
0.86289,0.33047,-0.38239,0.00516,0.0059,0.00312
0.86292,0.33045,-0.38232,0.00308,0.00586,0.00303
0.86294,0.33044,-0.38229,0.00318,0.00487,0.00151
0.86297,0.33038,-0.38227,0.00098,0.00437,0.00182
0.863,0.33029,-0.38227,0.0024,0.00539,0.0033
0.86302,0.3302,-0.38232,0.00423,0.00762,0.00045
0.86302,0.33011,-0.38239,0.00563,0.00691,0.00146
0.86303,0.33007,-0.3824,0.00732,0.0048,0.00243
0.86306,0.33006,-0.38235,0.00622,0.00311,0.00205
0.86306,0.33009,-0.38233,0.0048,0.0068,0.00367
0.86306,0.3301,-0.38231,0.00341,0.00805,0.00325
0.86307,0.33009,-0.38229,9e-05,0.00803,0.00483
0.86309,0.33009,-0.38225,0.00405,0.00529,0.00426
0.8631,0.33004,-0.38227,0.00473,0.00611,0.00196
0.86306,0.33001,-0.3824,0.00476,0.00538,0.00224
0.86301,0.33,-0.38251,0.00673,0.00571,0.00309
0.86298,0.33002,-0.38257,0.00426,0.00747,0.00279
0.86297,0.33,-0.3826,0.00239,0.00639,0.00159
0.86295,0.32996,-0.38268,0.00334,0.00639,0.00357
0.86296,0.32991,-0.38269,0.00212,0.00169,0.00168
0.86301,0.32987,-0.38261,0.00343,0.00351,0.00541
0.86311,0.3298,-0.38245,0.00335,0.0061,0.00481
0.86315,0.32975,-0.38241,0.0081,0.00777,0.00225
0.86314,0.32969,-0.38248,0.00567,0.00832,0.00077
0.86311,0.32965,-0.38258,0.0025,0.00772,0.00169
0.86309,0.3296,-0.38266,0.00133,0.0058,0.0018
0.8631,0.32959,-0.38266,0.00391,0.00587,0.003
0.8631,0.32957,-0.38268,0.00713,0.00588,0.00279
0.86306,0.32954,-0.38278,0.00593,0.0073,0.00414
0.863,0.32955,-0.38291,0.0022,0.00723,0.00451
0.86296,0.32953,-0.38304,0.00213,0.00464,0.00306
0.86292,0.32951,-0.38314,0.00134,0.00324,0.00225
0.86292,0.32949,-0.38315,0.00502,0.00388,0.00159
0.86291,0.32946,-0.38319,0.00514,0.00477,0.00335
0.86292,0.32944,-0.38319,0.00302,0.00348,0.00542
0.86293,0.32942,-0.38319,0.00205,0.00663,0.00129
0.86292,0.32941,-0.38321,0.00369,0.00674,0.00191
0.86293,0.3294,-0.38321,-6e-05,0.00745,0.00206
0.86295,0.32939,-0.38318,0.00078,0.00315,-0.00094
0.86296,0.32939,-0.38314,0.00499,0.0067,0.00087
0.86297,0.32942,-0.3831,0.00451,0.0061,0.00605
0.86301,0.32944,-0.38299,0.00801,0.00319,0.00102
0.86297,0.32945,-0.38306,0.0071,0.00447,0.00274
0.86298,0.32943,-0.38308,0.00253,0.00865,0.00193
0.86305,0.32935,-0.38298,0.00307,0.00553,0.00331
0.8631,0.32927,-0.38294,0.00305,0.00676,0.00736
0.8631,0.32916,-0.38302,0.00145,0.00902,0.00296
0.86313,0.32904,-0.38306,0.00404,0.00654,0.00243
0.86313,0.32897,-0.38314,0.00429,0.00772,0.00304
0.8631,0.32889,-0.38327,0.00109,0.00602,0.0004
0.86308,0.32884,-0.38334,0.00403,0.00235,-0.0006
0.86304,0.32878,-0.3835,0.00471,0.00375,0.00206
0.86301,0.32872,-0.38362,0.00557,0.00405,0.00288
0.86301,0.32867,-0.38365,0.00521,0.00528,0.00242
0.863,0.32864,-0.38369,0.00188,0.00417,0.00451
0.86301,0.32858,-0.38373,0.00424,0.00359,0.00232
0.863,0.32853,-0.38379,0.00325,0.00601,0.00334
0.86299,0.32851,-0.38384,0.00626,0.00915,0.00436
0.86299,0.32852,-0.38383,0.0024,0.00774,0.00748
0.863,0.32852,-0.38382,0.00204,0.00634,0.00358
0.86294,0.3285,-0.38397,0.00595,0.00814,0.00302
0.8629,0.32844,-0.3841,0.0053,0.00495,0.00391
0.86289,0.32837,-0.38418,0.00357,0.00509,0.00573
0.8629,0.3283,-0.38423,0.00302,0.00577,0.00322
0.8629,0.32823,-0.38428,0.0036,0.00579,0.00498
0.8629,0.32817,-0.38434,0.00287,0.008,0.00293
0.8629,0.32811,-0.38438,0.00359,0.00566,0.00272
0.86289,0.32806,-0.38444,0.00279,0.00768,0.00075
0.8629,0.32804,-0.38445,0.00348,0.00476,0.00429
0.8629,0.32799,-0.38447,0.00116,0.00588,0.00355
0.86292,0.32797,-0.38446,0.00201,0.00527,0.00293
0.86295,0.32798,-0.38438,0.00277,0.0064,0.00294
0.86299,0.32797,-0.3843,0.0018,0.00743,0.0053
0.86301,0.32796,-0.38425,0.00205,0.00744,0.00431
0.86302,0.32796,-0.38423,0.0043,0.0061,0.00502
0.86304,0.32794,-0.3842,0.00741,0.00646,0.00216
0.86306,0.32793,-0.38417,0.00543,0.00594,0.0034
0.86307,0.32794,-0.38415,0.00485,0.00481,0.00327
0.86307,0.32792,-0.38417,0.00266,0.00619,0.00372
0.86308,0.3279,-0.38415,0.00492,0.00853,0.00424
0.86308,0.32791,-0.38415,0.0049,0.00573,0.00334
0.86308,0.32788,-0.38417,0.00376,0.00804,0.00131
0.86308,0.32788,-0.38418,0.00399,0.00582,0.00323
0.86308,0.32787,-0.38417,0.00356,0.00738,0.00346
0.86307,0.32788,-0.38418,0.00367,0.00586,0.0026
0.86308,0.3279,-0.38415,0.00179,0.00866,0.00304
0.8631,0.32792,-0.38409,0.004,0.00753,0.00461
0.8631,0.32794,-0.38407,0.00319,0.00506,0.00295
0.8631,0.32798,-0.38403,0.00296,0.00744,0.0031
0.8631,0.32801,-0.38401,0.0025,0.00575,0.00326
0.8631,0.32803,-0.38399,0.00483,0.00652,0.00318
0.86309,0.32807,-0.38399,0.00281,0.00848,0.00393
0.8631,0.32811,-0.38394,0.00425,0.00787,0.00322
0.86312,0.32814,-0.38386,0.00236,0.00606,0.00396
0.86313,0.3282,-0.38379,0.00321,0.00774,0.00444
0.86311,0.32823,-0.3838,0.00333,0.00831,0.00534
0.86311,0.32827,-0.38377,0.00382,0.00785,0.00269
0.86313,0.3283,-0.38368,0.00324,0.00907,0.00385
0.86314,0.32835,-0.38363,0.00517,0.00486,0.00191
0.86314,0.32838,-0.3836,0.00359,0.00793,0.00039
0.86313,0.3284,-0.38361,0.00404,0.00656,0.00378
0.86311,0.32847,-0.3836,0.00412,0.01007,0.00402
0.86311,0.32853,-0.38353,0.0038,0.00658,0.00421
0.86314,0.32857,-0.38344,0.00208,0.00668,0.00351
0.86312,0.32862,-0.38344,0.00284,0.00567,0.00397
0.8631,0.32861,-0.38349,0.00287,0.00568,0.00402
0.86309,0.32861,-0.38352,0.00513,0.00663,0.0032
0.8631,0.32861,-0.3835,0.00476,0.00612,0.0013
0.8631,0.32862,-0.38349,0.00273,0.0073,0.00402
0.86311,0.32865,-0.38344,0.00305,0.0075,0.00143
0.86313,0.32869,-0.38337,0.00267,0.00765,0.00405
0.86315,0.32871,-0.38329,0.00173,0.00935,0.00397
0.86318,0.32876,-0.38319,0.00196,0.01037,0.00392
0.86319,0.32882,-0.38312,0.00101,0.00722,0.00448
0.86319,0.32886,-0.38308,0.00447,0.00676,0.0031
0.8632,0.32891,-0.38302,0.00503,0.00694,0.00364
0.8632,0.32899,-0.38294,0.00575,0.00559,0.00408
0.86322,0.32906,-0.38286,0.00374,0.00536,0.00377
0.86323,0.32911,-0.38278,0.00596,0.00559,0.00334
0.86323,0.32916,-0.38273,0.00378,0.00621,0.00354
0.86325,0.32921,-0.38264,0.00487,0.00622,0.0041
0.86326,0.32927,-0.38258,0.00393,0.00844,0.00393
0.86326,0.32935,-0.38251,0.00279,0.00798,0.00483
0.86327,0.32943,-0.38241,0.00335,0.00875,0.00325
0.8633,0.3295,-0.38229,0.00348,0.00858,0.00088
0.8633,0.32959,-0.38219,0.00375,0.00679,0.00446
0.8633,0.32966,-0.38213,0.0031,0.00638,0.00393
0.86329,0.32973,-0.38211,0.00211,0.00556,0.00343
0.86327,0.32978,-0.38211,0.00427,0.00606,0.00192
0.86327,0.32983,-0.38207,0.00281,0.00479,0.00114
0.86325,0.3299,-0.38206,0.00333,0.00648,0.00399
0.86322,0.32997,-0.38205,0.00528,0.0047,0.00398
0.86322,0.33003,-0.38201,0.0049,0.00349,0.00237
0.86322,0.33009,-0.38196,0.00425,0.00456,0.00497
0.8632,0.33014,-0.38195,0.00508,0.00604,0.00365
0.86319,0.33019,-0.38193,0.00381,0.00707,0.00385
0.8632,0.33026,-0.38187,0.00186,0.00757,0.00157
0.86321,0.33031,-0.38179,0.00281,0.00683,0.00249
0.86323,0.33036,-0.38169,0.00401,0.00752,0.00436
0.86324,0.33039,-0.38166,0.00449,0.00696,0.00295
0.86319,0.33044,-0.38171,0.00248,0.00966,0.00419
0.86315,0.3305,-0.38177,0.00441,0.00706,0.00398
0.86312,0.33055,-0.38179,0.00091,0.00802,0.00033
0.86308,0.3306,-0.38182,0.00068,0.0052,0.00331
0.86305,0.33061,-0.38188,0.00114,0.00607,0.00358
0.86303,0.33055,-0.38198,0.00566,0.00506,0.00066
0.86301,0.3305,-0.38207,0.00499,0.00652,0.00596
0.86304,0.33043,-0.38207,0.00302,0.00824,0.00225
0.86306,0.33036,-0.38208,0.0037,0.00866,0.00256
0.86304,0.33027,-0.38221,0.00317,0.01002,0.00234
0.86303,0.33019,-0.38229,0.00127,0.00999,0.00568
0.86305,0.33014,-0.3823,0.00039,0.00816,0.00454
0.86305,0.33013,-0.3823,0.00203,0.0066,0.00322
0.86305,0.33011,-0.38232,0.00221,0.00825,0.00224
0.86305,0.33012,-0.38231,0.0053,0.00529,0.0043
0.86304,0.3301,-0.38235,0.00545,0.0039,0.00285
0.86299,0.33008,-0.38248,0.00479,0.00467,0.00323
0.86298,0.33004,-0.38253,0.00185,0.00176,0.00246
0.86299,0.32998,-0.38257,0.00185,0.00438,0.00154
0.86299,0.32994,-0.3826,0.00234,0.00954,0.00339
0.86301,0.3299,-0.38259,0.00384,0.00896,0.0026
0.86306,0.32984,-0.38253,0.00452,0.00661,0.0013
0.8631,0.3298,-0.38248,0.00787,0.00847,0.00243
0.86314,0.32978,-0.38241,0.00233,0.01057,0.00476
0.8632,0.32976,-0.38227,0.00084,0.00813,0.00404
0.86323,0.32976,-0.38223,0.00367,0.01042,0.00158
0.86319,0.32971,-0.38236,0.00562,0.00672,0.00111
0.86313,0.32966,-0.38254,0.00633,0.00266,0.00279
0.86311,0.32967,-0.38257,0.00415,0.00187,0.00484
0.86311,0.32972,-0.38252,0.00168,0.00462,0.00314
0.86313,0.32973,-0.38246,0.00395,0.00372,0.00344
0.86315,0.32971,-0.38243,0.00463,0.0061,0.00372
0.86316,0.32968,-0.38243,0.00372,0.00841,0.00452
0.8632,0.32964,-0.38239,0.00344,0.00759,0.00277
0.86323,0.32964,-0.38231,0.00103,0.0086,0.00371
0.86324,0.32967,-0.38228,0.00358,0.00813,0.0006
0.86323,0.32969,-0.38228,0.00057,0.01179,0.0025
0.86323,0.3297,-0.38227,0.00434,0.00488,0.00272
0.86322,0.32968,-0.38232,0.00295,0.00946,0.00236
0.86318,0.32966,-0.38242,0.00286,0.00733,0.00499
0.86317,0.32965,-0.38245,0.0028,0.00803,0.00135
0.86315,0.32964,-0.3825,0.00292,0.0052,0.00409
0.86313,0.3296,-0.38257,0.0033,0.00377,0.00421
0.86313,0.32953,-0.38265,0.00386,0.00239,0.00329
0.8631,0.32946,-0.38276,0.00308,0.0029,0.00376
0.8631,0.32942,-0.3828,0.00371,0.00554,0.00515
0.86314,0.32938,-0.38275,0.00408,0.00657,0.00344
0.86317,0.32935,-0.38272,0.00471,0.00652,0.0016
0.8632,0.32932,-0.38267,0.00226,0.00787,0.00236
0.86323,0.32927,-0.38263,0.00168,0.00894,0.00356
0.86325,0.32925,-0.38261,0.00352,0.01054,0.0039
0.86323,0.32925,-0.38265,0.00243,0.00994,0.00449
0.86321,0.32923,-0.38272,0.00235,0.01023,0.00246
0.86318,0.32919,-0.38283,0.00172,0.00997,0.0019
0.86316,0.32918,-0.38289,0.00472,0.00919,0.0032
0.86315,0.32915,-0.38293,0.00181,0.01011,0.00274
0.86313,0.32913,-0.38299,0.00285,0.00551,0.00315
0.86309,0.32912,-0.38308,0.00446,0.00378,0.00091
0.86309,0.32909,-0.38312,0.00589,0.00351,0.00246
0.8631,0.32909,-0.38309,0.00216,0.00488,0.00395
0.86314,0.3291,-0.38299,0.00276,0.006,0.00152
0.86316,0.32913,-0.38292,0.00413,0.00673,0.00236
0.86318,0.32916,-0.38286,0.00346,0.00956,0.00152
0.8632,0.32918,-0.38278,0.00342,0.00897,0.00388
0.86321,0.32918,-0.38275,0.00316,0.01039,0.00247
0.86321,0.32919,-0.38276,0.00288,0.00953,0.00276
0.86322,0.32917,-0.38275,0.00273,0.00947,0.00194
0.86321,0.32914,-0.38279,0.00274,0.0095,0.00198
0.86317,0.32912,-0.3829,0.00429,0.00641,0.00358
0.86313,0.32911,-0.383,0.00334,0.00661,0.0024
0.86312,0.32909,-0.38304,0.00524,0.00654,0.00307
0.86313,0.32905,-0.38306,0.00312,0.00559,0.00429
0.86312,0.32903,-0.38309,0.00442,0.0044,0.00368
0.86312,0.32902,-0.3831,0.00289,0.0044,0.00361
0.86312,0.32899,-0.38312,0.0053,0.00577,0.00388
0.86312,0.32897,-0.38314,0.00451,0.00767,0.00347
0.86311,0.32894,-0.38319,0.00342,0.00644,0.00136
0.8631,0.32888,-0.38327,0.00581,0.00754,-0.00052
0.86305,0.32884,-0.3834,0.00334,0.01016,0.00171
0.86302,0.32884,-0.38347,0.00456,0.00827,0.00382
0.86301,0.32886,-0.38349,0.00297,0.00941,0.00339
0.86298,0.32884,-0.38357,0.00184,0.00511,0.00341
0.86293,0.32877,-0.38375,0.00338,0.00484,0.00352
0.86287,0.32869,-0.38395,0.0039,0.00389,0.00387
0.86284,0.32861,-0.38408,0.00174,0.00384,0.00501
0.86285,0.32852,-0.38414,0.00324,0.00507,0.00151
0.86284,0.32846,-0.38422,0.00388,0.00649,0.00201
0.86283,0.32838,-0.38431,0.00363,0.00694,0.00194
0.86285,0.32833,-0.38431,0.004,0.0074,0.00269
0.86286,0.3283,-0.3843,0.00307,0.00944,0.00591
0.86288,0.32829,-0.38427,0.0033,0.00698,0.00535
0.86289,0.32827,-0.38427,0.00503,0.00676,0.00364
0.86288,0.32825,-0.38429,0.00366,0.00924,0.0067
0.8629,0.32824,-0.38427,0.00447,0.00831,0.00529
0.86293,0.32822,-0.38422,0.00043,0.00736,0.00404
0.86293,0.32821,-0.38422,0.00407,0.00408,0.0032
0.86292,0.32819,-0.38427,0.00439,0.00569,0.00161
0.86291,0.32816,-0.38432,0.00573,0.00533,0.0017
0.86289,0.32814,-0.38438,0.00341,0.00523,0.00393
0.86287,0.32811,-0.38444,0.00583,0.00552,0.00239
0.86285,0.32808,-0.38451,0.00386,0.0072,0.00431
0.86285,0.32806,-0.38453,0.00261,0.00506,0.00315
0.86284,0.32805,-0.38456,0.00506,0.00709,0.00312
0.86284,0.32804,-0.38457,0.00332,0.00889,0.00149
0.86284,0.32803,-0.38457,0.0032,0.00786,0.00447
0.86285,0.32803,-0.38455,0.0027,0.008,0.00397
0.86285,0.32801,-0.38457,0.00202,0.00612,0.00401
0.86284,0.328,-0.38459,0.00485,0.00642,0.00427
0.86283,0.32798,-0.38464,0.00365,0.00745,0.00179
0.86283,0.32795,-0.38467,0.00283,0.00663,0.00459
0.8628,0.32795,-0.38473,0.00141,0.00694,0.00164
0.8628,0.32793,-0.38475,0.00413,0.0081,0.00545
0.86282,0.32789,-0.38474,0.00417,0.00607,0.00501
0.86284,0.32787,-0.38471,0.00325,0.00695,0.00236
0.86285,0.32787,-0.3847,0.00431,0.00721,0.00169
0.86286,0.32787,-0.38467,0.00353,0.00812,0.00295
0.86287,0.32787,-0.38465,0.00152,0.00646,0.00287
0.86287,0.32788,-0.38464,0.00342,0.00641,0.00048
0.86286,0.32786,-0.38469,0.00282,0.00971,-0.00064
0.86286,0.32784,-0.3847,0.00418,0.00756,0.00412
0.86287,0.32787,-0.38465,0.0065,0.00954,0.0023
0.86288,0.32791,-0.38459,0.00077,0.0085,0.00405
0.86286,0.32791,-0.38463,0.00333,0.00632,0.00258
0.86284,0.32788,-0.38473,0.0035,0.00614,0.0028
0.86279,0.32784,-0.38486,0.00309,0.0066,0.00236
0.86278,0.32778,-0.38492,0.0032,0.00518,0.00439
0.86278,0.32773,-0.38498,0.00224,0.0066,0.00116
0.86275,0.32768,-0.38509,0.004,0.00661,0.00069
0.86276,0.32763,-0.38511,0.0037,0.00549,0.00126
0.86279,0.3276,-0.38505,0.0033,0.009,0.00116
0.86283,0.32757,-0.385,0.00308,0.00739,0.00484
0.86286,0.32756,-0.38495,0.00233,0.00597,0.00409
0.86288,0.32755,-0.3849,0.00376,0.00659,0.0035
0.8629,0.32755,-0.38487,0.00422,0.00915,0.00376
0.86291,0.32756,-0.38481,0.00209,0.00749,0.0034
0.86295,0.32759,-0.38471,0.00151,0.00707,0.00147
0.86296,0.32759,-0.38467,0.00322,0.00695,0.0015
0.86297,0.32761,-0.38465,0.00341,0.00596,0.00497
0.86297,0.32765,-0.38462,0.00373,0.00594,0.00265
0.86298,0.32765,-0.3846,0.00215,0.00641,0.00444
0.86297,0.32767,-0.38459,0.00407,0.00588,0.00306
0.86296,0.32769,-0.38461,0.00461,0.00634,0.0024
0.86297,0.32771,-0.38457,0.00459,0.00928,0.00362
0.86299,0.32774,-0.3845,0.00178,0.00919,0.00221
0.86299,0.32777,-0.38446,0.00455,0.00809,0.00233
0.86298,0.3278,-0.38446,0.003,0.00736,0.0032
0.86295,0.32782,-0.3845,0.00404,0.0088,0.00241
0.86294,0.32784,-0.38453,0.00373,0.00801,0.00164
0.86293,0.32786,-0.38454,0.00278,0.00561,0.00285
0.8629,0.32789,-0.38456,0.00218,0.00589,0.00321
0.86289,0.32793,-0.38457,0.0005,0.00598,0.00258
0.86288,0.32796,-0.38454,0.00209,0.00627,0.00256
0.86289,0.32798,-0.38451,0.00233,0.0071,0.00181
0.86289,0.32803,-0.38446,0.00466,0.00826,0.00284
0.86289,0.32808,-0.38443,0.0034,0.00699,0.00318
0.86289,0.32813,-0.38439,0.00242,0.00659,0.00304
0.86291,0.32819,-0.3843,0.00361,0.00763,0.00112
0.86294,0.32823,-0.38419,0.00399,0.00773,0.00237
0.86294,0.3283,-0.38413,0.00372,0.00748,0.00263
0.86293,0.32836,-0.3841,0.00075,0.00828,0.00315
0.86295,0.32841,-0.38401,0.00312,0.00661,0.00012
0.86297,0.32843,-0.38395,0.00423,0.01123,0.00025
0.86293,0.32847,-0.38401,0.00388,0.00943,0.00174
0.86291,0.32852,-0.384,0.00432,0.00882,0.00267
0.86291,0.32858,-0.38394,0.0024,0.00975,0.00188
0.86292,0.32864,-0.38388,3e-05,0.00667,0.00367
0.86292,0.32865,-0.38387,0.00268,0.00587,0.00363
0.86289,0.32866,-0.38393,0.00306,0.00479,0.00066
0.86287,0.32866,-0.38398,0.00424,0.00575,0.00247
0.8629,0.32864,-0.38394,0.00193,0.00656,0.00133
0.86291,0.32861,-0.38393,0.00436,0.00696,0.00178
0.86293,0.32861,-0.38389,0.00312,0.00647,0.00359
0.86295,0.32862,-0.38383,0.00284,0.00988,0.00348
0.86298,0.32865,-0.38374,0.00199,0.00973,0.0047
0.86301,0.32871,-0.38361,0.00275,0.00847,0.00284
0.86302,0.32876,-0.38355,0.00151,0.00774,0.00403
0.86302,0.32881,-0.3835,0.00436,0.00723,0.0018
0.86302,0.32885,-0.38346,0.00415,0.00794,0.00369
0.86302,0.3289,-0.38344,0.00447,0.00768,0.0048
0.863,0.32894,-0.38343,0.00272,0.0056,0.0019
0.86298,0.32895,-0.38348,0.00289,0.00522,0.0026
0.86296,0.32894,-0.38352,0.00387,0.00414,0.00068
0.86297,0.32895,-0.38351,0.00309,0.00885,0.00172
0.86298,0.32897,-0.38346,0.00271,0.00931,0.00396
0.863,0.32897,-0.38341,0.00153,0.0097,0.00302
0.86303,0.32896,-0.38336,0.00115,0.00968,0.00172
0.86304,0.32893,-0.38336,0.00346,0.00989,0.00191
0.86303,0.32887,-0.38344,0.00337,0.00839,0.00316
0.863,0.32884,-0.38354,0.00417,0.00768,0.00213
0.86298,0.32879,-0.38362,0.00401,0.006,0.00142
0.86297,0.32875,-0.38366,0.0038,0.00554,-0.00011
0.86299,0.32873,-0.38366,0.00269,0.00573,0.00291
0.86299,0.32869,-0.38368,0.00424,0.00615,0.00436
0.863,0.32865,-0.38369,0.00426,0.00593,0.00161
0.86302,0.32863,-0.38366,0.00351,0.009,0.00244
0.86305,0.32861,-0.38362,0.0029,0.00857,0.00284
0.86307,0.32859,-0.38358,0.00521,0.0075,0.00238
0.86308,0.32859,-0.38355,0.00421,0.00834,0.00286
0.8631,0.32859,-0.38352,0.00325,0.00946,0.0032
0.86311,0.32857,-0.3835,0.00218,0.01016,0.00296
0.86307,0.32857,-0.38359,0.00538,0.00857,0.00251
0.86303,0.32854,-0.38372,0.00336,0.00715,0.00277
0.86299,0.32851,-0.38383,0.00394,0.00741,0.00318
0.86296,0.32853,-0.38388,0.00395,0.00839,0.00133
0.86295,0.32852,-0.38392,0.00253,0.00509,0.00413
0.86294,0.32849,-0.38397,0.00205,0.00593,0.00431
0.86294,0.32844,-0.384,0.00197,0.00636,0.0032
0.86295,0.32838,-0.38404,0.00404,0.00677,0.00553
0.86298,0.32832,-0.38403,0.00398,0.00713,0.0025
0.86299,0.32823,-0.38407,0.00241,0.00609,0.00189
0.86297,0.32816,-0.38418,0.00274,0.00654,0.00153
0.86297,0.32809,-0.38425,0.00276,0.00639,-0.00022
0.86296,0.32802,-0.38431,0.0014,0.00651,0.00325
0.86295,0.32798,-0.38439,-0.00015,0.00657,0.00257
0.86295,0.32794,-0.38442,-0.00015,0.00661,0.0026
0.86296,0.32794,-0.38438,0.0032,0.00725,0.00356
0.863,0.32797,-0.38428,0.00128,0.00731,0.0031
0.86304,0.32799,-0.38418,0.00496,0.00875,0.00295
0.86306,0.32798,-0.38413,0.00422,0.00588,0.00623
0.86305,0.32797,-0.38415,0.00496,0.00743,-0.00067
0.86303,0.32793,-0.38422,0.00498,0.00747,-0.0006
0.86303,0.32792,-0.38426,0.00387,0.0065,0.00398
0.86302,0.32791,-0.38427,0.00226,0.00722,0.00245
0.86302,0.32791,-0.38428,0.00501,0.00739,0.00268
0.86301,0.32789,-0.38431,0.00526,0.00782,0.0017
0.863,0.3279,-0.38432,0.0058,0.0072,0.00052
0.86301,0.32791,-0.38431,0.00326,0.00778,0.00257
0.86301,0.3279,-0.3843,0.00259,0.00631,0.00319
0.863,0.32791,-0.38431,0.00347,0.00716,0.00264
0.863,0.3279,-0.38433,0.0031,0.00772,0.00249
0.86299,0.3279,-0.38435,0.0023,0.00576,0.00149
0.86298,0.32791,-0.38437,0.00386,0.00736,0.00066
0.86297,0.32791,-0.38439,0.00351,0.00556,0.00308
0.86298,0.32789,-0.38438,0.00264,0.00622,0.00058
0.86298,0.32787,-0.3844,0.00369,0.00762,0.00071
0.86297,0.32789,-0.38442,0.00329,0.00663,0.00306
0.86297,0.3279,-0.3844,0.00413,0.00826,0.00309
0.86298,0.3279,-0.38438,0.00187,0.00842,0.00346
0.86299,0.32789,-0.38436,0.00308,0.00552,0.00215
0.86299,0.32789,-0.38437,0.00276,0.00748,0.00185
0.86298,0.32789,-0.38438,0.00306,0.00777,0.00268
0.863,0.32788,-0.38437,0.00164,0.00792,0.00306
0.863,0.32788,-0.38434,0.00429,0.00427,-0.00016
0.863,0.32789,-0.38436,0.00421,0.00906,0.00185
0.86299,0.32789,-0.38437,0.00426,0.00881,0.00275
0.86297,0.32791,-0.38439,0.00496,0.00934,0.00096
0.86296,0.32793,-0.3844,0.00386,0.00541,0.00318
0.86293,0.32791,-0.38448,0.00174,0.00612,0.00424
0.8629,0.32788,-0.38457,0.0061,0.00535,0.00298
0.86287,0.32785,-0.38466,0.00398,0.00519,0.00371
0.86288,0.3278,-0.38468,0.00426,0.00618,0.00387
0.86289,0.32777,-0.3847,0.00068,0.00663,0.00299
0.86289,0.32773,-0.38473,0.00041,0.00672,0.00347
0.86289,0.32769,-0.38477,0.00206,0.00842,-0.0006
0.86291,0.32766,-0.38474,0.0039,0.00904,0.00077
0.86292,0.32765,-0.38472,0.00326,0.00843,0.00472
0.86293,0.32762,-0.38474,0.00325,0.00845,0.00473
0.86292,0.32761,-0.38475,0.00191,0.00592,0.00335
0.8629,0.32762,-0.38479,0.00357,0.00656,0.00335
0.86289,0.32764,-0.3848,0.00251,0.00738,0.00205
0.86292,0.32765,-0.38473,0.00235,0.00691,0.00248
0.86295,0.32766,-0.38465,0.00282,0.00582,0.00317
0.86296,0.32767,-0.38462,0.00385,0.00543,0.00242
0.86297,0.32767,-0.38459,0.00331,0.00624,0.00217
0.86298,0.32767,-0.38458,0.00311,0.00493,0.00448
0.86297,0.32768,-0.38459,0.00204,0.0078,0.00296
0.86296,0.32769,-0.38461,0.00461,0.00596,0.00106
0.86295,0.32769,-0.38461,0.0039,0.0073,0.00234
0.86297,0.3277,-0.38458,0.00266,0.00729,0.0034
0.86298,0.3277,-0.38454,0.00184,0.00772,0.00345
0.86298,0.32771,-0.38454,0.00403,0.0082,0.0024
0.86297,0.32771,-0.38456,0.00132,0.00655,0.00437
0.86297,0.32771,-0.38457,0.00228,0.00805,0.00198
0.86298,0.32769,-0.38457,0.00392,0.00567,0.00204
0.86297,0.3277,-0.38457,0.00275,0.00642,0.00301
0.86298,0.3277,-0.38454,0.00359,0.00618,0.001
0.86299,0.32773,-0.38451,0.00339,0.00525,0.00106
0.86298,0.32774,-0.38451,0.00322,0.0074,0.00437
0.86297,0.32775,-0.38452,0.00307,0.00779,0.00247
0.86296,0.32777,-0.38454,0.00403,0.00756,0.00206
0.86295,0.32779,-0.38453,0.00381,0.00642,0.0031
0.86297,0.32783,-0.38445,0.00157,0.00708,0.00115
0.863,0.32787,-0.38435,0.00347,0.00863,0.00267
0.863,0.32791,-0.38432,0.002,0.00535,0.0032
0.863,0.32795,-0.38429,0.00321,0.00779,0.00199
0.863,0.32798,-0.38427,0.00257,0.00861,0.00206
0.863,0.32801,-0.38425,0.00387,0.00911,0.00179
0.86301,0.32805,-0.38419,0.00237,0.00553,0.00304
0.86302,0.32807,-0.38414,0.00208,0.00803,-0.00066
0.86301,0.32808,-0.38416,0.0025,0.00715,-0.0001
0.86298,0.32814,-0.38418,0.00674,0.00818,0.00439
0.86297,0.32822,-0.38413,0.00248,0.0083,0.00446
0.86298,0.32827,-0.38407,0.0022,0.00553,0.00356
0.86295,0.32831,-0.38409,0.00127,0.00539,0.00388
0.86293,0.32832,-0.38412,0.00267,0.00546,0.00201
0.86292,0.32832,-0.38416,0.00515,0.00504,0.00427
0.86293,0.32832,-0.38414,0.00577,0.0052,0.0017
0.86293,0.32832,-0.38414,0.00129,0.00762,0.00114
0.86292,0.32834,-0.38414,0.00187,0.00681,0.00039
0.86293,0.32835,-0.38411,0.00219,0.00724,-0.00033
0.86294,0.32839,-0.38405,0.0024,0.00944,0.00199
0.86297,0.32845,-0.38393,0.00207,0.00854,0.00249
0.86301,0.32852,-0.38379,0.00024,0.00643,0.00209
0.86301,0.32858,-0.38373,0.00451,0.00709,0.00376
0.86301,0.32862,-0.3837,0.00398,0.00712,0.00209
0.86303,0.32866,-0.38362,0.00451,0.0074,0.00152
0.86303,0.32871,-0.38357,0.00469,0.00549,0.00272
0.86302,0.32875,-0.38356,0.00441,0.00368,0.00205
0.86303,0.3288,-0.3835,0.00482,0.0035,0.00097
0.86304,0.32887,-0.38341,0.00451,0.00478,0.00321
0.86305,0.32894,-0.38332,0.00519,0.0062,0.00259
0.86308,0.32902,-0.3832,0.00443,0.00763,0.00357
0.86311,0.32908,-0.38307,0.00081,0.00904,0.00201
0.86313,0.32913,-0.383,0.00203,0.00792,0.00325
0.86313,0.32916,-0.38296,0.004,0.00722,0.00207
0.86312,0.32917,-0.38298,0.0052,0.00921,0.00251
0.8631,0.32915,-0.38303,0.00091,0.00883,0.00211
0.86308,0.32912,-0.38311,0.00174,0.00957,0.00157
0.86308,0.32906,-0.38315,0.00061,0.01107,0.00141
0.8631,0.32898,-0.3832,0.00098,0.01088,0.00156
0.86309,0.3289,-0.38327,0.00184,0.01152,0.00283
0.86306,0.32886,-0.38337,0.00481,0.00421,0.00184
0.86303,0.32884,-0.38345,0.00597,0.00265,0.00108
0.86303,0.32887,-0.38344,0.00708,0.00017,0.00156
0.86305,0.32893,-0.38335,0.00433,0.00166,0.00272
0.86307,0.32896,-0.38327,0.00273,0.0027,0.00137
0.86308,0.32899,-0.38323,0.00329,0.00301,0.00344
0.8631,0.32901,-0.38317,0.00252,0.00743,0.00451
0.86314,0.32903,-0.38306,0.00344,0.01063,0.00297
0.86318,0.32906,-0.38292,0.00046,0.00982,0.00414
0.86319,0.32911,-0.38286,0.00161,0.00887,0.00249
0.86317,0.32913,-0.3829,0.00744,0.00987,0.00098
0.86311,0.32916,-0.383,0.00455,0.00969,0.00133
0.86305,0.32921,-0.3831,0.00458,0.00946,1e-05
0.86298,0.32923,-0.38323,0.00262,0.01067,0.00102
0.86292,0.32921,-0.38338,1e-05,0.00462,0.00094
0.86287,0.32913,-0.38358,0.00324,0.00339,0.00382
0.86286,0.32903,-0.38368,0.00476,0.00207,0.0009
0.86287,0.329,-0.38369,0.00444,0.00264,0.00416
0.86289,0.32899,-0.38366,0.00378,0.00283,0.00097
0.86291,0.32898,-0.38361,0.00382,0.00467,0.00049
0.86298,0.32897,-0.38347,0.00108,0.00769,-0.00035
0.86303,0.32895,-0.38337,0.00154,0.00807,0.00224
0.86305,0.32896,-0.38332,0.00419,0.00919,0.00181
0.86305,0.329,-0.38329,0.00222,0.00976,0.00348
0.86304,0.32902,-0.38328,0.00055,0.00987,0.00128
0.86302,0.32906,-0.38329,0.00223,0.01022,0.00247
0.86304,0.32909,-0.38323,-0.00046,0.00381,0.00237
0.86309,0.32911,-0.38311,-0.00275,0.00126,0.00101
0.86317,0.32911,-0.38291,0.00263,0.00233,-0.00195
0.86325,0.32908,-0.38275,0.0061,0.00298,-0.00377
0.86329,0.32907,-0.38269,0.00897,0.00641,0.00111
0.8633,0.32907,-0.38266,0.00441,0.00688,0.00249
0.86333,0.32908,-0.38258,-0.00029,0.00962,-0.00027
0.86333,0.32914,-0.38254,0.00114,0.00958,0.0049
0.86335,0.32914,-0.38247,0.00307,0.01058,0.00552
0.86337,0.32916,-0.38241,0.00468,0.0123,0.01143
0.86335,0.32917,-0.38246,0.00646,0.00908,0.01074
0.86326,0.32916,-0.38266,0.00858,0.00882,0.00524
0.86314,0.32912,-0.38297,0.00517,0.00749,0.00346
0.86301,0.32906,-0.38331,0.00296,0.00237,0.00088
0.86291,0.32901,-0.38358,0.00148,0.00067,0.00139
0.86284,0.32899,-0.38376,0.00192,0.00221,-0.00195
0.8628,0.32901,-0.38384,0.0021,-0.00088,-0.00187
0.86279,0.32907,-0.38381,0.0031,0.00097,-0.00068
0.8628,0.32914,-0.38373,-0.00023,0.00465,0.00066
0.86281,0.32921,-0.38364,-0.00048,0.00385,0.00085
0.86284,0.32924,-0.38354,0.00137,0.00644,-0.00046
0.86288,0.32924,-0.38346,0.00408,0.00972,-2e-05
0.86291,0.32924,-0.38338,0.00154,0.01095,0.00254
0.86296,0.32924,-0.38326,-0.00156,0.01097,0.00207
0.86303,0.32926,-0.38311,-0.00314,0.00676,-0.0026
0.86309,0.32926,-0.38296,0.00127,0.00692,-0.00346
0.86318,0.32922,-0.38279,0.00118,0.00697,-0.00362
0.8633,0.32919,-0.38254,0.00237,0.00594,0.0021
0.86344,0.32917,-0.38226,0.00435,0.00437,-0.00116
0.86353,0.32915,-0.38207,0.00169,0.00677,0.00538
0.86364,0.3291,-0.38187,0.00277,0.00388,0.00574
0.86377,0.329,-0.38164,0.00653,0.00968,-0.00082
0.86385,0.32888,-0.38159,0.00841,0.009,0.0088
0.86395,0.32872,-0.38148,0.00705,0.00659,0.01283
0.86401,0.32855,-0.3815,0.00893,0.00359,0.00343
0.86399,0.32844,-0.38163,0.00951,0.00333,0.00371
0.86397,0.32841,-0.38171,0.00757,0.00448,0.00261
0.86396,0.32839,-0.38175,0.00599,0.00447,-0.00075
0.86394,0.32837,-0.38181,0.00405,0.00441,-0.00012
0.8639,0.3284,-0.38188,0.00277,0.00825,0.00011
0.86386,0.32844,-0.38192,0.00268,0.00854,-0.00072
0.86383,0.32849,-0.38196,0.00293,0.00755,0.00038
0.8638,0.32856,-0.38196,0.0002,0.00802,0.00249
0.86378,0.32862,-0.38195,-0.00056,0.0097,-9e-05
0.86378,0.32868,-0.38191,-0.00073,0.01024,0.00075
0.86377,0.32872,-0.3819,-0.00065,0.00686,-0.00249
0.86374,0.32875,-0.38194,0.00188,0.01001,-0.00385
0.86371,0.32874,-0.382,0.00169,0.00897,3e-05
0.86373,0.32872,-0.382,0.00077,0.00687,0.00024
0.86373,0.32871,-0.382,0.00144,0.00471,0.00166
0.86375,0.32868,-0.38197,-0.00077,0.0039,0.00313
0.86378,0.32864,-0.38193,0.00179,0.00407,0.00103
0.86383,0.32862,-0.38183,0.0048,0.00231,0.00155
0.8639,0.32859,-0.38172,0.00474,0.00234,0.00144
0.86398,0.32857,-0.38156,0.0061,0.0044,-0.00049
0.86408,0.32857,-0.38131,0.00287,0.00316,-0.00136
0.86416,0.3286,-0.38111,0.0028,0.00313,-0.00156
0.86422,0.32866,-0.38092,0.00516,0.00848,0.00114
0.86425,0.3287,-0.38082,0.00413,0.00814,0.0034
0.86424,0.32873,-0.38082,0.00353,0.00814,0.00452
0.8642,0.32876,-0.38089,0.00488,0.00778,0.00334
0.86417,0.32878,-0.38094,0.00378,0.01088,0.00457
0.86415,0.32877,-0.38099,0.002,0.00721,0.00529
0.86413,0.32876,-0.38105,0.00211,0.00838,0.00301
0.8641,0.32876,-0.3811,0.00325,0.0048,0.00246
0.86407,0.32875,-0.3812,0.00472,0.00741,0.00104
0.86402,0.32871,-0.38134,0.0026,0.006,0.00038
0.86395,0.32867,-0.38154,0.00372,0.00604,-0.00127
0.86388,0.32866,-0.3817,0.0025,0.00371,-0.00106
0.86386,0.32863,-0.38178,0.00109,0.00388,0.00127
0.86387,0.32864,-0.38175,-0.00045,0.00401,0.00138
0.86386,0.32866,-0.38174,-0.00044,0.00398,0.00137
0.86385,0.32867,-0.38176,0.00397,0.00354,-0.00093
0.86384,0.32866,-0.38179,0.0021,0.00869,0.00142
0.86387,0.32866,-0.38172,0.00142,0.00691,0.00162
0.8639,0.3287,-0.38161,0.00072,0.00986,0.00113
0.86392,0.32871,-0.38157,0.00243,0.00891,0.00187
0.86389,0.32864,-0.38169,-0.00117,0.00882,0.00369
0.86386,0.32855,-0.38183,0.00235,0.00822,0.00258
0.86384,0.32847,-0.38195,0.0039,0.00496,0.00451
0.86383,0.3284,-0.38204,0.00359,0.00418,0.00335
0.86382,0.32834,-0.3821,0.00427,0.00375,0.00051
0.8638,0.32827,-0.38222,0.00402,0.00536,0.00127
0.86381,0.3282,-0.38225,0.00405,0.00429,0.00065
0.86384,0.32818,-0.3822,0.00513,0.00454,0.00267
0.86388,0.32816,-0.38213,0.0021,0.00531,0.00553
0.86392,0.32816,-0.38203,0.00166,0.0062,0.00271
0.86396,0.32817,-0.38193,0.00309,0.00653,0.00069
0.86397,0.32819,-0.38189,0.00468,0.00855,0.00175
0.86402,0.32821,-0.38177,0.00326,0.01055,0.00503
0.86409,0.32824,-0.38159,0.00104,0.00837,0.00218
0.86414,0.32826,-0.38145,0.00196,0.0059,0.00231
0.8642,0.32828,-0.38131,0.00345,0.00755,0.00104
0.86427,0.32827,-0.38115,0.00234,0.00551,0.00274
0.8643,0.32827,-0.38108,0.00344,0.00812,-0.00014
0.86429,0.32827,-0.38111,0.00475,0.00875,0.00274
0.86424,0.32829,-0.38121,0.00616,0.008,0.00075
0.86416,0.32833,-0.38134,0.00623,0.00704,-0.00091
0.86408,0.32842,-0.38145,0.0057,0.00745,0.00033
0.86404,0.3285,-0.38146,0.00446,0.00631,0.00247
0.86396,0.32863,-0.38154,0.00468,0.00299,0.00147
0.86387,0.32878,-0.38161,0.00477,0.00284,0.00154
0.86384,0.32892,-0.38157,0.00231,0.00853,0.00283
0.86381,0.329,-0.38155,-0.0009,0.00852,0.00409
0.86379,0.32903,-0.38159,0.00093,0.00877,0.00258
0.86375,0.32903,-0.38167,0.00205,0.00953,0.00228
0.86374,0.329,-0.38173,0.00084,0.00599,0.00282
0.86372,0.32898,-0.38179,0.00298,0.00933,0.00287
0.86368,0.329,-0.38186,0.00258,0.00805,0.00435
0.86362,0.32908,-0.38192,0.00312,0.00641,-0.00115
0.86356,0.32912,-0.38203,0.0049,0.00546,-0.00104
0.86352,0.32915,-0.38209,0.00251,0.00436,0.00199
0.86356,0.3292,-0.38196,0.00024,0.00059,0.00143
0.86363,0.3293,-0.38171,-0.00136,0.0026,0.00154
0.86369,0.32936,-0.38152,0.00046,0.00387,0.00215
0.86374,0.32938,-0.38139,0.00264,0.00675,-0.00073
0.86376,0.32939,-0.38134,0.00262,0.00675,-0.00078
0.86376,0.32937,-0.38135,0.00245,0.00941,0.00448
0.86379,0.32935,-0.38131,-0.00047,0.01087,0.00222
0.8638,0.32937,-0.38127,0.00068,0.0121,0.00186
0.86376,0.32938,-0.38134,0.00208,0.00639,0.00158
0.86373,0.32937,-0.38142,0.00327,0.00832,0.0052
0.86373,0.32933,-0.38145,0.00272,0.00908,0.00334
0.86371,0.3293,-0.38153,0.00721,0.00168,0.00413
0.86368,0.32926,-0.38163,0.00767,0.00403,0.00379
0.86369,0.32918,-0.38167,0.00615,0.00761,0.0004
0.86369,0.32909,-0.38177,0.00405,0.01036,0.00344
0.86368,0.32895,-0.3819,0.00099,0.0098,0.00339
0.86365,0.32884,-0.38207,0.00087,0.00848,0.00086
0.86359,0.32875,-0.38228,0.0018,0.00635,-0.00189
0.8635,0.32867,-0.38254,0.0051,0.00686,-0.00068
0.86344,0.32858,-0.38277,0.00692,0.00472,0.00263
0.86345,0.3286,-0.38273,-0.00175,-0.00183,0.00034
0.86354,0.32873,-0.38239,0.003,0.00156,0.00198
0.86367,0.32881,-0.38204,0.00285,0.00398,0.00521
0.86379,0.32886,-0.38174,0.00462,0.00368,0.00284
0.86387,0.32889,-0.38151,0.00331,0.00618,0.00334
0.86395,0.32892,-0.38133,0.00428,0.00519,0.00171
0.86398,0.32894,-0.38124,0.00623,0.00723,0.00479
0.86398,0.32894,-0.38124,0.00487,0.00972,0.00444
0.86389,0.32894,-0.38143,0.00587,0.00918,0.00118
0.8638,0.32893,-0.38165,0.00016,0.00935,0.00082
0.8637,0.32891,-0.3819,-0.00017,0.00726,0.00133
0.8636,0.32887,-0.38216,-7e-05,0.0073,0.00159
0.8635,0.32882,-0.38241,0.00278,0.00571,0.00147
0.86342,0.32878,-0.38264,0.00125,0.00438,0.00376
0.86336,0.32875,-0.38279,0.00222,0.00503,0.00112
0.86333,0.3287,-0.38291,0.00047,0.00599,-0.00132
0.86332,0.32864,-0.38297,1e-05,0.00827,-0.00046
0.86332,0.32858,-0.38303,0.00156,0.00404,-0.00026
0.86333,0.32854,-0.38304,0.00184,0.00403,0.00012
0.86335,0.3285,-0.38302,0.00329,0.00667,0.00114
0.86339,0.32849,-0.38295,0.0016,0.00728,0.00174
0.86343,0.32848,-0.38286,0.00111,0.00716,0.00249
0.86347,0.32846,-0.38279,0.0021,0.00719,0.00129
0.86351,0.32848,-0.38269,0.00549,0.00359,0.00035
0.86356,0.32851,-0.38256,0.01017,0.00571,0.00137
0.86364,0.32855,-0.38234,0.00369,0.00502,0.00619
0.86372,0.32861,-0.38212,0.00231,0.00513,0.00297
0.86374,0.32867,-0.382,0.00328,0.005,0.00363
0.86375,0.3287,-0.38195,0.00426,0.0074,0.00217
0.86374,0.32872,-0.38196,0.00427,0.00738,0.00218
0.86372,0.3288,-0.38194,0.0071,0.00995,0.00396
0.8637,0.32888,-0.38192,0.00251,0.00934,-0.00114
0.86367,0.32893,-0.38195,0.00187,0.00635,0.00042
0.86359,0.329,-0.38206,0.00297,0.0065,0.00569
0.86355,0.32902,-0.38214,0.00357,0.00447,0.00275
0.8635,0.32905,-0.38222,0.00636,0.00449,0.00184
0.86347,0.32909,-0.38225,0.00558,0.00328,0.00409
0.86346,0.32911,-0.38227,0.00102,0.00459,0.00024
0.86345,0.32913,-0.38226,0.00135,0.00469,0.00093
0.86347,0.32916,-0.3822,0.00442,0.00812,0.00029
0.86349,0.3292,-0.38211,0.00301,0.00836,0.00278
0.8635,0.32924,-0.38207,0.00302,0.00734,0.0056
0.86342,0.32931,-0.38217,0.00488,0.0067,0.00199
0.86335,0.32937,-0.38228,0.00284,0.0078,0.00243
0.86329,0.32945,-0.38234,0.0053,0.00723,0.00332
0.86325,0.32953,-0.38239,0.00127,0.00859,0.00185
0.8632,0.32958,-0.38243,0.00051,0.00207,0.00263
0.8632,0.32964,-0.3824,0.00123,0.00242,0.00098
0.86324,0.32973,-0.38222,0.00503,0.00404,0.00477
0.86334,0.32984,-0.3819,0.00312,0.00405,0.00206
0.8634,0.32997,-0.38166,0.00454,0.00554,0.00061
0.86342,0.33009,-0.38151,0.00502,0.00486,0.00143
0.86343,0.33017,-0.38142,0.00229,0.00607,0.00063
0.86346,0.33028,-0.38125,0.00207,0.00634,-0.0
0.8635,0.33042,-0.38104,0.00021,0.01018,0.00176
0.86351,0.33053,-0.38092,0.0013,0.00928,0.00078
0.8635,0.33061,-0.38086,0.00124,0.01048,0.00422
0.86351,0.33067,-0.38079,0.00413,0.0098,0.00463
0.86353,0.33074,-0.38068,0.00245,0.0072,0.00422
0.86355,0.33083,-0.38058,0.00352,0.00777,0.00248
0.86353,0.3309,-0.38055,0.00593,0.00624,0.00468
0.8635,0.33095,-0.38058,0.0046,0.0037,0.00382
0.8635,0.33098,-0.38056,0.00838,0.00373,0.00271
0.8635,0.33104,-0.38049,0.00485,0.00399,0.00174
0.8635,0.33111,-0.38044,-0.00156,0.00456,-0.00045
0.86348,0.33118,-0.38043,0.00158,0.00485,0.00137
0.86346,0.33122,-0.38042,0.00488,0.00432,0.00106
0.86348,0.33124,-0.38037,0.00351,0.00703,0.00192
0.86349,0.33125,-0.38034,0.00188,0.00926,0.00212
0.86347,0.3313,-0.38034,0.00331,0.0108,0.00266
0.86345,0.33132,-0.38035,0.00094,0.01018,-0.00095
0.86343,0.33132,-0.38041,9e-05,0.00975,0.00155
0.8634,0.33127,-0.38052,0.00226,0.00687,-0.00076
0.86337,0.33119,-0.38066,0.00517,0.00729,0.0037
0.86338,0.33111,-0.38072,0.00258,0.00628,0.0061
0.86342,0.331,-0.38073,0.00052,0.00723,0.00347
0.8634,0.33089,-0.38085,0.00313,0.00596,0.00092
0.86339,0.33077,-0.38098,0.00305,0.00566,0.00195
0.86341,0.33065,-0.38103,0.00127,0.00611,-0.00012
0.86343,0.33058,-0.38105,-0.00065,0.00482,0.00247
0.86342,0.33053,-0.38111,0.00189,0.00621,0.00112
0.86341,0.33048,-0.3812,0.00329,0.00589,-0.00256
0.86343,0.33041,-0.38121,0.00484,0.00443,0.00083
0.86343,0.33035,-0.38125,0.00484,0.00449,0.00088
0.86343,0.33032,-0.38129,0.00465,0.00332,0.00251
0.86345,0.33028,-0.38128,0.00412,0.00303,0.00357
0.86349,0.33024,-0.38122,0.00263,0.00349,0.00365
0.86354,0.33024,-0.38111,0.00635,0.00756,0.0032
0.8636,0.33022,-0.38099,0.00313,0.0079,0.00165
0.86364,0.33019,-0.38092,0.00407,0.01014,0.00115
0.86366,0.33017,-0.3809,0.00402,0.00885,0.00143
0.86364,0.33011,-0.38099,0.00256,0.00866,0.00079
0.86358,0.33005,-0.38117,0.00278,0.00748,0.00128
0.86355,0.32998,-0.38131,0.00393,0.00693,0.00154
0.86352,0.32994,-0.38141,0.00462,0.00661,-0.00055
0.86349,0.3299,-0.38151,0.00255,0.00493,0.00157
0.86348,0.32985,-0.38157,0.00145,0.00401,0.00324
0.86348,0.32981,-0.38162,0.00403,0.00743,0.0029
0.86346,0.32975,-0.3817,0.00229,0.0059,0.00226
0.86343,0.32972,-0.38179,0.00346,0.00546,0.00191
0.86342,0.32969,-0.38184,0.00624,0.00585,0.0022
0.86345,0.32966,-0.38181,0.00508,0.00536,0.00232
0.86345,0.32967,-0.38179,0.00276,0.00715,0.00339
0.86345,0.32962,-0.38185,0.00277,0.00888,0.00319
0.86345,0.32957,-0.38189,0.00235,0.00952,0.00477
0.86344,0.32955,-0.38193,0.0057,0.01223,-0.00134
0.86341,0.32951,-0.38202,0.00391,0.01029,0.00149
0.8634,0.32943,-0.38212,0.00301,0.00962,0.00453
0.86336,0.32934,-0.38228,-0.00039,0.00576,0.00218
0.86328,0.32924,-0.38255,0.00281,0.00421,0.00127
0.86325,0.32913,-0.38273,0.00489,0.0053,0.00521
0.86326,0.32904,-0.38277,0.00071,0.00278,-0.00143
0.86327,0.329,-0.38277,0.0019,0.00441,-0.0005
0.86334,0.32898,-0.38264,0.00239,0.00234,-0.00046
0.86343,0.32899,-0.38244,0.0039,0.00321,0.00147
0.86349,0.32902,-0.38228,0.00323,0.005,0.00504
0.86351,0.32903,-0.38221,0.00352,0.00622,0.00241
0.86353,0.32902,-0.38218,0.00253,0.00959,0.00271
0.86353,0.32899,-0.3822,0.00274,0.01026,0.00334
0.86349,0.32898,-0.38231,0.00465,0.00938,0.00415
0.86346,0.32899,-0.38236,0.0018,0.00794,0.00418
0.86347,0.32899,-0.38235,0.00156,0.00823,0.0052
0.86345,0.32896,-0.3824,0.0027,0.00502,0.00391
0.86341,0.32894,-0.38251,0.004,0.006,0.00331
0.86341,0.3289,-0.38256,0.00644,0.0082,0.00395
0.8634,0.32885,-0.38261,0.00482,0.00628,0.00233
0.86337,0.3288,-0.38273,0.00264,0.00746,0.00257
0.86332,0.32873,-0.3829,0.00118,0.00596,0.00436
0.86326,0.32868,-0.38308,0.00289,0.00505,0.00173
0.86322,0.32866,-0.38318,0.00165,0.00422,0.00271
0.8632,0.32863,-0.38326,0.00371,0.00592,-0.00247
0.86318,0.32864,-0.38331,0.00418,0.00304,-0.00059
0.86315,0.32867,-0.38334,0.00267,0.00496,0.00314
0.86314,0.32873,-0.38331,0.00214,0.00507,0.00119
0.86314,0.32881,-0.38323,0.0011,0.00592,0.00121
0.86313,0.32888,-0.38319,0.00296,0.0046,0.00224
0.86312,0.32894,-0.38317,0.00483,0.00554,0.00249
0.86311,0.32902,-0.38313,0.00233,0.01013,0.00334
0.86311,0.32908,-0.38308,0.00293,0.00718,-0.00082
0.86309,0.32913,-0.38306,0.0053,0.00923,-0.00045
0.86305,0.3292,-0.38309,0.00642,0.00845,0.00509
0.86301,0.32929,-0.38312,0.00888,0.01052,0.00226
0.86295,0.32944,-0.38312,0.0056,0.00517,0.00399
0.86292,0.32956,-0.38309,0.00435,0.00648,0.00422
0.86293,0.32965,-0.38298,-0.00153,0.00813,0.00334
0.86297,0.32971,-0.38284,0.00167,0.00607,0.00684
0.86299,0.32973,-0.38278,0.00206,0.00528,0.00628
0.863,0.32975,-0.38275,0.00344,0.00178,0.00069
0.863,0.3298,-0.38271,0.00611,0.00612,0.00317
0.86301,0.32987,-0.38263,0.00244,0.00453,-0.00182
0.86303,0.32997,-0.38248,0.00074,0.0063,-0.00276
0.86307,0.33008,-0.3823,0.00233,0.00784,0.00219
0.86312,0.33019,-0.38208,0.00057,0.00629,0.00205
0.8632,0.33032,-0.3818,0.00238,0.00754,0.00094
0.86328,0.33045,-0.38151,0.00125,0.00895,0.00274
0.86336,0.33057,-0.38122,0.0029,0.00941,0.00321
0.86344,0.33068,-0.38094,0.00261,0.0063,0.00426
0.86353,0.3308,-0.38063,0.00428,0.00581,0.00185
0.86361,0.33093,-0.38035,0.0042,0.00568,0.00157
0.86368,0.33104,-0.38009,0.00459,0.00483,0.00108
0.86374,0.33117,-0.37983,0.00926,0.00528,0.0006
0.86377,0.3313,-0.37965,0.00923,0.00515,0.00042
0.86382,0.33143,-0.37943,0.00721,0.00594,0.00341
0.86385,0.33156,-0.37924,0.00454,0.00499,0.006
0.86388,0.33167,-0.37909,0.00285,0.00628,0.00418
0.86385,0.33183,-0.37902,0.00412,0.00609,0.0073
0.86381,0.33196,-0.379,0.00379,0.00486,0.00072
0.86376,0.33209,-0.37899,0.00568,0.00537,0.00447
0.86372,0.33223,-0.37896,0.00403,0.00607,0.0003
0.86368,0.33239,-0.3789,0.00253,0.00929,0.00159
0.86366,0.33252,-0.37885,0.00333,0.00672,0.00179
0.86363,0.33264,-0.37881,0.00452,0.00338,0.00012
0.86358,0.33276,-0.3788,0.00379,0.00743,0.00299
0.86355,0.33288,-0.37877,0.0049,0.00716,0.00279
0.8635,0.33299,-0.37879,0.00501,0.0047,-0.00113
0.86342,0.3331,-0.37888,0.00287,0.00673,0.00108
0.86335,0.33328,-0.37889,0.00289,0.00632,-0.00171
0.8633,0.33345,-0.37885,0.00258,0.00663,-0.00031
0.86323,0.33364,-0.37884,-0.00039,0.00648,0.00375
0.86317,0.33377,-0.37884,-0.00047,0.00525,0.00252
0.86311,0.33391,-0.37886,0.0002,-0.00043,-0.00095
0.86309,0.33398,-0.37885,0.00498,-0.00053,-0.0066
0.86303,0.33403,-0.37896,0.01567,-0.00589,-0.01009
0.86301,0.33407,-0.37895,0.01313,-0.00317,0.00902
0.86323,0.33417,-0.37837,-0.00905,0.0097,0.01641
0.86355,0.33441,-0.37743,-0.01807,0.00547,0.01449
0.86372,0.33471,-0.37677,-0.00233,0.01386,-0.0007
0.86391,0.33497,-0.37609,0.00812,0.00881,-0.00329
0.86414,0.3351,-0.37547,0.00722,0.01232,0.00346
0.86433,0.33513,-0.37499,0.00034,0.01291,0.00556
0.86447,0.3351,-0.3747,0.0,0.00836,-0.00252
0.86452,0.33503,-0.37465,0.00127,0.00641,-0.00284
0.86456,0.33496,-0.37462,0.00103,0.00407,0.00022
0.86466,0.33487,-0.37447,-0.0022,0.00626,0.00209
0.86479,0.33477,-0.37424,-0.00234,0.00731,0.00518
0.86488,0.33469,-0.37412,0.00887,0.01044,0.00841
0.86496,0.33459,-0.37403,0.00528,0.00705,0.01264
0.8651,0.33445,-0.37383,0.0049,0.00565,0.01264
0.86521,0.33434,-0.37367,0.00723,0.00547,0.01072
0.86527,0.33426,-0.37361,0.00929,0.00472,0.00567
0.86529,0.33418,-0.37362,0.00887,0.00672,0.00418
0.86529,0.33411,-0.37368,0.00714,0.0054,0.00552
0.86525,0.33404,-0.37384,0.00594,0.00469,0.00653
0.86521,0.33396,-0.37401,0.00427,0.00485,0.00295
0.86515,0.33387,-0.37423,0.00418,0.008,0.00134
0.86506,0.33381,-0.37448,0.00255,0.0063,0.00239
0.86498,0.33378,-0.37471,0.00097,0.00727,0.00236
0.8649,0.33376,-0.3749,0.00029,0.0045,0.00209
0.86482,0.3337,-0.37513,-0.00061,0.00715,0.00285
0.8647,0.33361,-0.37549,-0.00032,0.00457,0.00016
0.86457,0.33348,-0.37592,0.00541,0.00827,0.00019
0.86447,0.33338,-0.37622,0.00525,0.00645,-0.00096
0.86441,0.33334,-0.37641,0.00293,0.00723,-0.00183
0.86436,0.33335,-0.37651,0.00234,0.00204,-0.00038
0.86433,0.33334,-0.37658,-0.00236,0.00091,0.00096
0.86432,0.33331,-0.37664,-0.00012,0.00313,-0.00155
0.86435,0.33328,-0.37659,0.00194,0.00321,-0.00085
0.8644,0.33325,-0.37651,0.00251,0.00688,0.00207
0.86446,0.33319,-0.37642,0.00471,0.0107,-0.00116
0.8645,0.33314,-0.37637,0.00408,0.00907,0.00079
0.86449,0.33311,-0.37642,0.00218,0.00803,0.00317
0.86443,0.3331,-0.37656,0.00359,0.00737,0.00532
0.86439,0.33309,-0.37668,0.00256,0.00732,0.00276
0.86434,0.33307,-0.3768,0.00439,0.00699,0.00496
0.86428,0.33302,-0.37699,0.00445,0.00703,0.00515
0.8642,0.33297,-0.37721,0.00679,0.00365,0.00065
0.86409,0.33294,-0.37749,0.00731,0.00428,0.00355
0.86399,0.33289,-0.37775,0.00741,0.00433,0.00382
0.86391,0.33287,-0.37796,0.00502,0.00434,0.0033
0.86385,0.33284,-0.37812,0.00312,0.00352,0.00416
0.86379,0.33281,-0.37829,0.00349,0.00491,0.00184
0.86371,0.3328,-0.37848,0.00163,0.00802,0.00246
0.86365,0.33278,-0.37864,0.00215,0.00642,0.00153
0.86355,0.33277,-0.37887,0.00234,0.00755,-0.00156
0.86342,0.33273,-0.3792,0.00486,0.00695,0.00087
0.86331,0.33266,-0.3795,0.00219,0.00729,0.00156
0.86323,0.33261,-0.37975,0.00095,0.00731,-0.00114
0.86315,0.33259,-0.37995,0.00018,0.00608,0.00097
0.86306,0.33257,-0.38017,0.00308,0.00732,-0.00052
0.86298,0.3325,-0.3804,0.00524,0.00974,0.00021
0.86292,0.33245,-0.38059,0.00189,0.00646,0.00291
0.86286,0.33242,-0.38074,0.00355,0.00487,0.00114
0.86281,0.33237,-0.38091,0.00588,0.00373,0.00109
0.86275,0.33232,-0.38108,0.00374,0.00809,0.00308
0.86273,0.33227,-0.38117,0.00041,0.00746,0.00164
0.86274,0.33224,-0.38118,-0.00072,0.00254,0.00203
0.8627,0.3322,-0.38129,0.00419,0.00641,0.00031
0.86264,0.33213,-0.38149,0.00372,0.00841,0.00288
0.86262,0.33208,-0.38157,0.00571,0.0089,-0.00043
0.86259,0.33208,-0.38164,0.00324,0.0091,0.00274
0.86254,0.33209,-0.38176,0.00343,0.00511,0.00401
0.86254,0.33205,-0.38181,0.00125,0.00262,0.0054
0.86251,0.33202,-0.3819,0.0056,0.00454,0.00392
0.86247,0.33199,-0.382,0.00755,0.00567,0.00897
0.86247,0.33194,-0.38204,0.00566,0.00483,0.00368
0.86245,0.33193,-0.3821,0.00518,0.00809,0.00287
0.86244,0.33192,-0.38213,0.00267,0.00718,0.00145
0.86246,0.33195,-0.38205,0.00379,0.00333,0.00339
0.86246,0.33201,-0.38201,0.00336,0.00751,0.00312
0.86245,0.33208,-0.38196,0.00486,0.00748,0.00306
0.86245,0.33215,-0.3819,0.00447,0.00672,0.00344
0.86241,0.33226,-0.3819,0.00486,0.00942,0.00258
0.86236,0.33234,-0.38195,0.00433,0.00872,0.00163
0.8623,0.33243,-0.382,0.00426,0.00763,0.00235
0.86229,0.33251,-0.38197,0.00184,0.00421,0.00386
0.86227,0.33265,-0.38188,0.00484,0.0068,0.00391
0.86226,0.33281,-0.38176,0.00485,0.00664,0.00378
0.86228,0.33294,-0.38159,0.00461,0.00423,0.00305
0.8623,0.33307,-0.38143,0.00414,0.00401,0.00241
0.86233,0.33316,-0.38131,0.00272,0.00613,0.00193
0.86237,0.33327,-0.38112,0.00174,0.00679,0.00191
0.86249,0.33339,-0.38074,0.00165,0.00831,0.00122
0.86259,0.33352,-0.38041,-0.0004,0.00788,0.00091
0.86261,0.33364,-0.38024,0.00368,0.00716,0.00176
0.86261,0.33374,-0.38016,0.00473,0.00871,0.00572
0.86263,0.3338,-0.38006,0.00228,0.01044,0.00758
0.86268,0.33385,-0.37991,0.00372,0.00637,0.00399
0.86268,0.33391,-0.37986,0.00362,0.00772,0.00632
0.86271,0.33393,-0.37977,0.0039,0.00459,0.00161
0.86275,0.33396,-0.37964,0.00562,0.00599,0.00441
0.86278,0.33399,-0.37954,0.00385,0.00594,0.00506
0.86283,0.33401,-0.37942,0.00159,0.00426,0.00214
0.86289,0.33403,-0.37927,0.00059,0.00801,0.00445
0.86294,0.33406,-0.37913,0.00712,0.00575,0.00257
0.86298,0.33407,-0.37903,0.0045,0.00719,0.00379
0.86298,0.33411,-0.37899,0.00392,0.00769,0.00389
0.86298,0.33417,-0.37894,0.00439,0.00529,0.00031
0.86296,0.33426,-0.37889,0.0052,0.00378,0.00312
0.86298,0.33433,-0.37879,0.00396,0.00272,0.00273
0.863,0.33439,-0.37871,0.00514,0.00121,0.00281
0.86299,0.33446,-0.37866,0.00701,0.00314,0.00373
0.863,0.33454,-0.37856,0.00328,0.00512,0.0024
0.86304,0.33459,-0.37844,-0.00313,0.00838,0.00707
0.86308,0.33461,-0.37834,0.00191,0.00899,0.00549
0.86309,0.33461,-0.3783,0.00294,0.00917,0.00323
0.86307,0.33456,-0.37839,0.00503,0.01329,0.00809
0.86303,0.3345,-0.37852,0.0038,0.01235,0.00645
0.86301,0.33447,-0.37859,-0.00011,0.01203,0.001
0.863,0.33443,-0.37867,0.00106,0.01092,0.00257
0.86299,0.33434,-0.37876,0.0016,0.01037,0.00262
0.86293,0.33427,-0.37896,0.0063,0.00787,0.00167
0.86291,0.33417,-0.3791,0.00602,0.00251,0.00247
0.86289,0.33409,-0.37921,0.00321,0.00241,0.00201
0.86287,0.33403,-0.3793,0.00157,0.0016,0.00493
0.86286,0.33398,-0.37938,0.00357,0.00156,-0.00053
0.86286,0.33389,-0.37946,0.00398,0.0018,0.00149
0.86287,0.33377,-0.37953,0.00776,0.00475,0.00592
0.86291,0.3337,-0.37952,0.00513,0.00665,0.00456
0.86298,0.33366,-0.3794,0.00385,0.00977,0.00716
0.86307,0.33363,-0.37922,0.00136,0.01099,0.00376
0.8631,0.3336,-0.37918,0.00261,0.0123,0.00465
0.86306,0.33352,-0.37933,0.00613,0.01072,0.0034
0.86301,0.33339,-0.37955,0.00434,0.01065,0.00313
0.86296,0.33329,-0.37976,0.00035,0.00713,0.00511
0.86292,0.33319,-0.37993,0.00039,0.00723,0.00528
0.86289,0.33311,-0.38008,0.00186,0.00716,0.00473
0.86287,0.33299,-0.38023,0.00238,0.00401,0.00159
0.86284,0.33285,-0.38042,0.00241,0.00416,0.00177
0.86286,0.33269,-0.38051,0.00227,0.00534,0.0031
0.8629,0.33254,-0.38056,0.00421,0.00196,-0.00114
0.86293,0.3324,-0.3806,0.00418,0.0021,-0.00109
0.86296,0.33228,-0.38063,0.00429,0.00986,0.004
0.86304,0.33223,-0.38051,0.00227,0.00859,-2e-05
0.8631,0.33223,-0.38038,0.00119,0.00861,0.00224
0.86313,0.33221,-0.38031,-0.00026,0.00708,0.00688
0.86319,0.33213,-0.38025,0.00247,0.00718,0.00345
0.86318,0.33202,-0.38037,0.00812,0.0067,0.00483
0.86315,0.33185,-0.38058,0.0058,0.00965,0.00446
0.86315,0.33166,-0.38074,0.00498,0.00832,0.00577
0.86318,0.33149,-0.38083,0.00123,0.00891,0.0056
0.86322,0.33136,-0.38086,0.00186,0.00699,0.0035
0.86324,0.33125,-0.38092,0.00464,0.00595,0.00541
0.86326,0.33116,-0.38093,0.00565,0.00754,0.00178
0.86327,0.3311,-0.38097,0.00442,0.00423,0.00583
0.86326,0.33101,-0.38107,0.00388,0.00455,0.00432
0.86322,0.3309,-0.38126,0.00548,0.00554,0.00216
0.86311,0.3308,-0.3816,0.00329,0.00869,0.00162
0.86302,0.33072,-0.38186,0.00052,0.0083,0.00404
0.86296,0.3307,-0.38202,0.00232,0.00838,0.00145
0.86294,0.33068,-0.38209,0.00376,0.00854,0.00468
0.86292,0.33065,-0.38214,0.00161,0.00768,0.00622
0.86291,0.33061,-0.3822,0.00193,0.00819,0.00718
0.86288,0.33058,-0.38231,0.00289,0.00843,0.00181
0.86282,0.33052,-0.38248,0.00505,0.00827,0.0033
0.86277,0.33041,-0.3827,0.005,0.00775,0.00292
0.86271,0.33033,-0.38289,0.00331,0.00568,0.00183
0.86268,0.33029,-0.383,-0.00051,0.00656,0.00208
0.86265,0.33028,-0.38307,0.00115,0.00683,0.00585
0.86264,0.33025,-0.38314,0.00246,0.00812,0.0008
0.86257,0.33019,-0.38333,0.00381,0.01074,-6e-05
0.8625,0.33012,-0.38355,0.00562,0.00883,0.00318
0.86248,0.33006,-0.38365,0.00187,0.00543,0.0028
0.86245,0.33003,-0.38373,0.00238,0.00446,0.00358
0.8624,0.32999,-0.38388,0.00459,0.00913,0.00222
0.86236,0.32993,-0.38402,0.0044,0.0053,0.00281
0.86234,0.32987,-0.38414,0.0056,0.00686,0.0038
0.86232,0.32983,-0.3842,0.00276,0.00914,0.00465
0.86235,0.32985,-0.38411,0.00506,0.0112,0.00193
0.86236,0.32987,-0.38407,0.00362,0.01078,0.0033
0.86236,0.32988,-0.38408,0.0014,0.00713,0.00364
0.86235,0.32983,-0.38413,0.00299,0.00652,0.00266
0.86235,0.32978,-0.38418,0.00449,0.0068,0.00329
0.86235,0.32972,-0.38423,0.00444,0.00728,0.00434
0.86235,0.32964,-0.38431,0.00364,0.00601,0.00251
0.86229,0.32956,-0.38451,0.00011,0.00427,0.00312
0.86223,0.32947,-0.38473,0.00289,0.006,0.00212
0.86218,0.32939,-0.38489,0.00543,0.00819,0.00252
0.86217,0.32935,-0.38496,0.0031,0.00857,0.00595
0.8622,0.32933,-0.38491,0.00102,0.00806,0.00675
0.86225,0.32933,-0.38479,0.00316,0.00592,0.0021
0.86227,0.32933,-0.38475,0.00543,0.0103,0.00456
0.86229,0.32932,-0.38472,0.00617,0.00883,0.00437
0.86231,0.32929,-0.38469,0.00283,0.00756,0.00272
0.86231,0.32924,-0.38472,0.00628,0.00712,0.00042
0.86231,0.32921,-0.38477,0.00354,0.00571,0.00449
0.86232,0.32918,-0.38476,0.00288,0.00777,0.0035
0.86234,0.32917,-0.38474,0.00078,0.007,0.00324
0.86231,0.32918,-0.38478,0.00535,0.00785,0.0018
0.86229,0.32916,-0.38485,0.00416,0.0058,0.00434
0.8623,0.32914,-0.38484,0.00295,0.00688,0.00277
0.86231,0.32914,-0.38483,0.00384,0.00773,0.00498
0.86231,0.32913,-0.38482,0.00448,0.00676,0.00282
0.86233,0.32911,-0.38479,0.00292,0.00928,0.00432
0.86233,0.32909,-0.38482,0.00295,0.00935,0.00576
0.86232,0.32906,-0.38486,0.00279,0.00753,0.00252
0.86234,0.32903,-0.38484,0.00214,0.00715,0.00499
0.86235,0.32901,-0.38483,0.00346,0.00731,0.00368
0.86234,0.329,-0.38488,0.00357,0.00758,0.00216
0.86234,0.32896,-0.38492,0.00394,0.00587,0.00264
0.86234,0.32892,-0.38495,0.00204,0.00639,0.00267
0.86235,0.32892,-0.38492,0.00387,0.00748,0.00234
0.86236,0.32891,-0.3849,0.00441,0.00406,0.00125
0.86233,0.32889,-0.385,0.00448,0.00828,0.00196
0.86229,0.32888,-0.38508,0.00615,0.00872,0.00144
0.86229,0.32892,-0.38505,0.00175,0.01041,0.00438
0.86227,0.32895,-0.38506,0.0035,0.00725,0.00504
0.86224,0.32894,-0.38516,0.00193,0.00755,0.00342
0.86219,0.32893,-0.38528,0.00503,0.00525,0.00364
0.86217,0.32891,-0.38534,0.00482,0.00554,0.00479
0.86219,0.32889,-0.38531,0.00335,0.00634,0.00257
0.8622,0.32887,-0.3853,0.00313,0.00706,0.00227
0.86218,0.32886,-0.38535,0.00385,0.00941,-0.00065
0.86216,0.32885,-0.3854,0.00309,0.00824,0.00316
0.86215,0.32884,-0.38543,0.00128,0.0078,0.00478
0.86217,0.32884,-0.38538,0.00237,0.00563,0.00353
0.86218,0.32886,-0.38535,0.00317,0.00698,0.00435
0.86216,0.32888,-0.38538,0.00552,0.00952,0.00367
0.86215,0.3289,-0.38538,0.00314,0.00869,0.00332
0.86217,0.32892,-0.38532,0.0025,0.00675,0.00352
0.86218,0.32893,-0.38529,0.00356,0.00742,0.00211
0.86218,0.32894,-0.38529,0.00356,0.0074,0.00211
0.86219,0.32895,-0.38524,0.00446,0.00421,0.0026
0.86221,0.32897,-0.38519,0.00361,0.00625,0.00247
0.86221,0.32901,-0.38515,0.00546,0.00832,0.00347
0.86222,0.32904,-0.3851,0.00442,0.00725,0.00266
0.86223,0.32909,-0.38506,0.0018,0.00539,0.00241
0.86222,0.32913,-0.38503,0.00422,0.0078,0.00446
0.86223,0.32914,-0.385,0.00525,0.00846,0.00228
0.86222,0.32916,-0.385,0.00471,0.01013,0.0036
0.86223,0.32917,-0.38498,0.0029,0.00732,0.003
0.86222,0.32918,-0.38498,0.00503,0.00775,0.00248
0.86221,0.32918,-0.38501,0.00506,0.00729,0.00414
0.8622,0.32922,-0.38501,0.0024,0.00808,0.00564
0.8622,0.32927,-0.38497,0.00284,0.00725,0.00411
0.86217,0.3293,-0.38499,0.00407,0.00461,0.00222
0.86215,0.3293,-0.38505,0.00345,0.00761,0.00248
0.86213,0.3293,-0.38507,0.00449,0.00685,0.00202
0.86215,0.32932,-0.38504,0.00391,0.00691,0.00361
0.86216,0.32935,-0.38498,0.00013,0.0076,0.00379
0.86218,0.32937,-0.38492,0.00028,0.00707,0.00347
0.86218,0.32941,-0.38489,0.00483,0.00729,0.00033
0.86217,0.32946,-0.38487,0.00424,0.00858,7e-05
0.86218,0.32949,-0.38482,0.00416,0.0056,0.00365
0.8622,0.32951,-0.38476,0.00206,0.008,0.00204
0.86217,0.32953,-0.3848,0.00273,0.00774,0.00251
0.86213,0.32951,-0.38491,0.00451,0.00392,0.00252
0.86209,0.32948,-0.38502,0.00151,0.0083,0.00352
0.86208,0.32951,-0.38503,0.00348,0.00722,0.00402
0.86209,0.32956,-0.38495,0.00249,0.01157,0.00371
0.8621,0.32957,-0.38493,0.00401,0.00743,0.00439
0.86209,0.32953,-0.38499,0.00402,0.00748,0.00445
0.86206,0.32948,-0.3851,0.0045,0.00585,0.00497
0.86203,0.32941,-0.38521,0.00647,0.00535,0.00188
0.86203,0.32938,-0.38525,0.00647,0.00538,0.00192
0.86202,0.32936,-0.38529,0.00247,0.00601,-0.00134
0.86201,0.32935,-0.38532,0.0014,0.00777,0.00286
0.86202,0.32934,-0.38529,0.00162,0.00745,0.00109
0.86203,0.32935,-0.38528,0.0026,0.00581,0.00323
0.86202,0.32935,-0.38529,0.00376,0.00565,0.00079
0.86201,0.32937,-0.3853,0.00452,0.00629,0.0013
0.86199,0.32941,-0.38532,0.00267,0.00873,0.00296
0.86199,0.32945,-0.38527,0.00269,0.00948,0.00163
0.86201,0.3295,-0.38519,0.00268,0.00943,0.00156
0.86202,0.32954,-0.38512,0.00089,0.00795,-0.00059
0.86202,0.32956,-0.38511,0.00364,0.00809,0.00282
0.86201,0.32956,-0.38514,0.00512,0.00528,0.00505
0.86199,0.32958,-0.38516,0.00396,0.00642,0.00061
0.86196,0.3296,-0.3852,0.00364,0.00507,-0.00069
0.86194,0.32961,-0.38524,0.00358,0.00602,0.00224
0.86193,0.32962,-0.38525,0.00238,0.00691,0.00369
0.86195,0.32962,-0.38521,0.00217,0.00711,0.00239
0.86199,0.32964,-0.38512,0.00261,0.00579,0.00226
0.862,0.32965,-0.38507,0.00349,0.00783,0.00288
0.86202,0.32966,-0.38503,0.00227,0.00852,0.00225
0.86205,0.32964,-0.38498,0.00026,0.00691,0.0031
0.86205,0.32963,-0.38497,0.00303,0.00747,0.00234
0.86205,0.32963,-0.385,0.0031,0.00742,0.00218
0.86205,0.32961,-0.38501,0.00326,0.00689,0.00129
0.86204,0.32962,-0.38502,0.00513,0.00551,0.00188
0.86203,0.32965,-0.385,0.00282,0.00467,-0.00042
0.86204,0.32968,-0.38497,0.00396,0.00299,0.00055
0.86206,0.32971,-0.3849,0.00313,0.006,0.00259
0.86207,0.32972,-0.38485,0.00328,0.0051,0.00422
0.86208,0.32973,-0.38484,0.00278,0.00868,0.00218
0.86208,0.3297,-0.38485,0.00358,0.00892,-0.00103
0.86208,0.32972,-0.38484,0.00184,0.00909,0.00332
0.8621,0.32973,-0.3848,0.00242,0.00581,0.00402
0.86212,0.32975,-0.38473,0.00481,0.00875,0.00217
0.86213,0.32977,-0.3847,0.00398,0.00585,0.00022
0.86212,0.32978,-0.38471,0.00208,0.00897,0.00136
0.8621,0.32979,-0.38474,0.0015,0.00686,0.0017
0.86211,0.32979,-0.38472,0.00319,0.00386,-2e-05
0.86211,0.32977,-0.38472,0.00319,0.00387,-1e-05
0.86208,0.32978,-0.38479,0.00381,0.0058,0.00281
0.86207,0.3298,-0.38479,0.00446,0.00844,0.00304
0.86209,0.32986,-0.3847,0.00174,0.00943,0.00419
0.86209,0.32992,-0.38465,0.00077,0.00729,0.00077
0.86206,0.3299,-0.38472,0.00309,0.00655,-0.00054
0.86203,0.32985,-0.38484,0.00313,0.00661,-0.00041
0.86201,0.32982,-0.3849,0.00365,0.00534,0.00268
0.86202,0.32978,-0.38492,0.00361,0.00376,0.002
0.86202,0.32975,-0.38495,0.00361,0.00379,0.00203
0.86202,0.32973,-0.38497,0.00216,0.00764,-0.00103
0.86203,0.32972,-0.38494,0.0021,0.00733,0.00036
0.86206,0.32972,-0.3849,0.00252,0.00937,0.00027
0.86206,0.32972,-0.38489,0.00139,0.00667,0.00221
0.86207,0.32971,-0.38488,0.00134,0.00618,0.00187
0.86207,0.3297,-0.38488,0.00182,0.00787,0.00138
0.86208,0.32973,-0.38483,0.00259,0.00553,0.00202
0.8621,0.32976,-0.38476,0.00159,0.0067,0.0003
0.86212,0.32975,-0.38472,0.00259,0.00572,0.00117
0.86213,0.32974,-0.38471,0.00326,0.00699,0.00066
0.86215,0.32974,-0.38467,0.0028,0.00632,0.00369
0.86218,0.32974,-0.3846,0.00412,0.00504,0.00383
0.86221,0.32973,-0.38454,0.00231,0.00785,0.00175
0.86221,0.32973,-0.38455,0.00449,0.00647,0.00238
0.86221,0.3297,-0.38456,0.0045,0.00628,0.00101
0.86221,0.32968,-0.38458,0.0038,0.00943,0.00272
0.8622,0.32969,-0.3846,0.00383,0.00782,0.00258
0.8622,0.32967,-0.38462,0.00232,0.0066,0.0034
0.8622,0.32967,-0.38461,0.00082,0.00528,0.00187
0.8622,0.32966,-0.38461,0.00273,0.00727,0.00101
0.86219,0.32966,-0.38464,0.00196,0.00532,0.00125
0.86219,0.32965,-0.38465,0.00311,0.00636,0.00213
0.86218,0.32965,-0.38467,0.00217,0.00684,0.00158
0.86218,0.32964,-0.38468,0.00461,0.00544,-0.00056
0.86218,0.32964,-0.38469,0.00376,0.00738,0.00223
0.86218,0.32963,-0.38468,0.0038,0.00647,0.00337
0.86219,0.32964,-0.38466,0.00162,0.00559,0.00201
0.8622,0.32964,-0.38463,0.00116,0.00615,0.00199
0.8622,0.32965,-0.38464,0.00275,0.00597,-7e-05
0.86219,0.32963,-0.38466,0.00231,0.00692,0.0006
0.8622,0.32961,-0.38466,0.00026,0.00721,0.00136
0.8622,0.32961,-0.38466,0.00079,0.0067,-0.00033
0.8622,0.3296,-0.38467,0.00171,0.00689,-0.00156
0.8622,0.32961,-0.38466,0.00247,0.00627,0.00072
0.8622,0.32961,-0.38466,0.00407,0.00583,-0.00045
0.8622,0.32961,-0.38466,0.00227,0.00877,0.00101
0.8622,0.32961,-0.38466,0.00294,0.00524,0.00222
0.8622,0.3296,-0.38467,0.00396,0.00742,0.00022
0.86217,0.32959,-0.38475,0.00126,0.00478,0.00136
0.86218,0.32958,-0.38474,0.00393,0.00773,0.00207
0.86219,0.32962,-0.38467,0.00466,0.0076,0.0012
0.86218,0.32966,-0.38466,0.00052,0.00688,-0.00014
0.86215,0.32965,-0.38475,0.00127,0.00504,0.00201
0.86212,0.32962,-0.38482,0.004,0.00432,0.00087
0.86211,0.32959,-0.38488,0.00518,0.00542,0.00065
0.86212,0.32956,-0.38489,0.00159,0.00498,0.00058
0.86211,0.32951,-0.38496,0.0009,0.00587,-0.00194
0.86208,0.32948,-0.38504,0.00175,0.00573,-0.00099
0.86209,0.32946,-0.38503,0.00241,0.00718,0.00034
0.86213,0.32945,-0.38497,0.00342,0.00811,0.00128
0.86216,0.32946,-0.38487,0.00185,0.00713,0.0004
0.8622,0.32946,-0.38479,0.00064,0.00614,0.00391
0.86222,0.32948,-0.38474,0.00418,0.00777,0.00078
0.86222,0.32948,-0.38473,0.00325,0.00858,0.00025
0.86222,0.32949,-0.38472,0.00309,0.00599,-0.00139
0.86224,0.32949,-0.38467,0.00267,0.00307,0.00144
0.86225,0.32952,-0.38462,0.0048,0.00244,-0.0004
0.86225,0.32954,-0.38461,0.00393,0.00273,0.00163
0.86227,0.32956,-0.38454,0.00542,0.00399,0.00145
0.86229,0.32961,-0.38448,0.00385,0.00587,0.00276
0.86228,0.32965,-0.38446,0.00442,0.00634,-0.00109
0.86227,0.32969,-0.38444,0.00115,0.01043,0.00106
0.86229,0.32971,-0.38438,0.00096,0.01014,0.00125
0.86229,0.32976,-0.38433,0.00151,0.00902,0.00184
0.86226,0.32981,-0.38435,0.00248,0.011,-7e-05
0.86219,0.32982,-0.3845,0.00237,0.00839,0.00109
0.86213,0.32983,-0.38465,0.0021,0.00733,0.0008
0.86206,0.32983,-0.38478,0.00465,0.00311,-0.00026
0.86202,0.3299,-0.38482,0.0056,0.00346,0.00191
0.86202,0.32998,-0.38474,0.00098,0.00058,0.00352
0.86204,0.33006,-0.38464,0.00031,0.00208,-0.00174
0.86203,0.33014,-0.38459,0.00191,0.00215,-0.00031
0.86203,0.33022,-0.38453,0.00371,-3e-05,-0.0055
0.86207,0.33031,-0.38435,0.00221,0.00267,-0.00026
0.86214,0.33042,-0.3841,0.00064,0.00194,-0.00135
0.86219,0.33053,-0.38389,0.0002,0.00555,-0.00052
0.86222,0.33062,-0.38375,0.00112,0.01042,0.00157
0.86226,0.33067,-0.38363,0.00136,0.01424,0.00229
0.86226,0.33069,-0.38359,0.00305,0.0146,0.00071
0.86224,0.33066,-0.38368,0.00378,0.01137,0.00513
0.86219,0.33063,-0.38381,0.00532,0.00717,0.00409
0.86215,0.33058,-0.38394,0.00209,0.00586,0.00112
0.86211,0.33053,-0.38408,0.00375,0.00507,0.00122
0.86206,0.33047,-0.38425,0.00377,0.00384,0.00131
0.86201,0.3304,-0.38441,0.00577,-0.00043,0.00155
0.86195,0.33033,-0.38461,0.00341,0.002,0.00187
0.86191,0.33027,-0.38475,0.00488,0.00112,0.0031
0.86189,0.33024,-0.38482,0.0004,0.00315,-0.00112
0.86188,0.33023,-0.38484,8e-05,0.00275,-0.0025
0.86187,0.33021,-0.3849,0.0001,0.00277,-0.00245
0.8619,0.33019,-0.38485,0.00431,0.0041,-0.00422
0.86198,0.3302,-0.38465,0.00257,0.0054,0.00123
0.86206,0.33023,-0.38444,0.00248,0.00538,0.00102
0.8621,0.33023,-0.38435,0.00223,0.00956,-0.00073
0.8621,0.33021,-0.38437,0.00246,0.01064,-0.00182
0.86211,0.33016,-0.3844,0.00246,0.01069,-0.00178
0.86211,0.3301,-0.38444,0.00054,0.01018,-0.00055
0.8621,0.33003,-0.38453,0.00251,0.0116,-0.00352
0.86207,0.32994,-0.38468,0.00648,0.00841,-0.00033
0.86207,0.32983,-0.38477,0.00131,0.00749,0.0037
0.86209,0.32979,-0.38475,0.00203,0.00246,0.00667
0.86216,0.32981,-0.38459,0.0034,5e-05,0.00756
0.86226,0.32989,-0.38428,0.0047,0.00102,0.00182
0.86235,0.32995,-0.38404,0.0064,0.00319,-0.00301
0.86237,0.32993,-0.38402,0.00623,0.00236,-0.00127
0.86235,0.32987,-0.38411,0.00147,-0.00088,-0.00288
0.86234,0.32987,-0.38414,0.00169,0.00286,0.00037
0.86236,0.32996,-0.38401,0.00045,0.00479,-0.00026
0.8624,0.33009,-0.3838,0.00039,0.00987,-7e-05
0.86244,0.33018,-0.38364,0.0026,0.01078,0.00015
0.86246,0.33021,-0.38357,0.00258,0.01075,7e-05
0.86248,0.33021,-0.38352,-0.00091,0.00776,0.00056
0.86249,0.33021,-0.3835,0.00116,0.009,0.00026
0.86248,0.33021,-0.38352,0.00234,0.00929,0.00087
0.86248,0.33019,-0.38355,0.00311,0.00653,-0.0016
0.86246,0.33016,-0.38361,0.00326,0.00544,-0.00352
0.86242,0.33013,-0.38372,0.00455,0.0015,-0.00038
0.8624,0.33009,-0.38381,0.00337,0.00254,0.00089
0.86239,0.33005,-0.38387,0.0021,-0.00101,-0.0001
0.86237,0.33006,-0.38389,0.0032,0.00325,0.00195
0.86239,0.33005,-0.38386,0.00524,0.00412,0.00026
0.86245,0.33006,-0.38371,0.00289,0.00417,-1e-05
0.86252,0.33008,-0.38355,0.0027,0.00352,0.00234
0.86256,0.33013,-0.3834,0.00282,0.00858,0.0012
0.86262,0.33017,-0.38323,0.00316,0.01115,-0.0008
0.86265,0.3302,-0.38315,0.00281,0.00992,-0.00257
0.86263,0.33022,-0.38316,0.00214,0.00921,-0.00034
0.86259,0.33024,-0.38324,0.00217,0.00867,-0.00241
0.86258,0.33025,-0.38328,0.00113,0.00847,-0.00184
0.86256,0.33025,-0.38331,0.00408,0.00461,-0.00203
0.86252,0.33024,-0.3834,0.00143,0.00558,-0.00042
0.86252,0.33026,-0.3834,0.00377,0.00414,1e-05
0.8625,0.33031,-0.38338,0.00181,0.00726,-0.00203
0.8625,0.33034,-0.38336,0.00186,0.00328,-0.0002
0.8625,0.33033,-0.38338,0.00187,0.00329,-0.00018
0.8625,0.3303,-0.38339,0.00152,0.00543,-0.00234
0.86251,0.33029,-0.38338,0.00434,0.0051,0.00213
0.86255,0.33027,-0.38332,0.0043,0.00512,0.00208
0.86258,0.33027,-0.38325,0.00241,0.00484,-0.00019
0.86259,0.33026,-0.38323,0.0035,0.00517,0.00016
0.86262,0.33025,-0.38318,0.00276,0.00598,-0.00029
0.86265,0.33026,-0.3831,0.00143,0.00616,-0.00117
0.86267,0.33027,-0.38303,0.00046,0.00628,-4e-05
0.86269,0.33028,-0.383,0.00264,0.00711,-0.00079
0.86267,0.3303,-0.38301,0.00247,0.00527,0.0006
0.86265,0.33032,-0.38304,0.00278,0.0077,-0.00082
0.86262,0.33037,-0.38306,0.0029,0.00557,0.0009
0.86262,0.33039,-0.38305,0.00304,0.00377,0.00013
0.8626,0.33045,-0.38304,0.00073,0.00044,-0.00123
0.86257,0.33048,-0.38309,0.00222,0.00318,-4e-05
0.86255,0.3305,-0.38311,0.00386,0.00332,-0.0001
0.86256,0.33055,-0.38305,0.00583,0.0047,-0.00135
0.86256,0.33062,-0.38299,0.00312,0.00674,0.00133
0.86256,0.33069,-0.38293,0.00186,0.00605,-0.00159
0.86257,0.33074,-0.38286,0.00161,0.00598,0.00044
0.8626,0.33078,-0.38275,0.0019,0.00509,0.00125
0.86262,0.33083,-0.38267,0.00242,0.00802,-0.00023
0.86262,0.33087,-0.38263,0.00166,0.00614,-0.00221
0.86263,0.33089,-0.38259,0.00289,0.00534,0.00051
0.86262,0.33092,-0.38259,-0.00012,0.00509,-0.00072
0.86261,0.33093,-0.3826,0.00293,0.00643,-0.0031
0.86261,0.33092,-0.38261,0.00317,0.00321,-0.00151
0.86259,0.33096,-0.38263,0.00095,0.00342,-0.00055
0.86258,0.33098,-0.38264,0.0023,0.00443,-0.00045
0.86258,0.33099,-0.38261,0.00444,0.00429,-0.00243
0.8626,0.33101,-0.38257,0.00238,0.00464,0.00053
0.8626,0.33102,-0.38254,0.00255,0.00449,-0.00021
0.86262,0.33103,-0.3825,0.00127,0.00529,-0.00024
0.86264,0.33105,-0.38245,0.00313,0.00604,-0.00178
0.86264,0.33108,-0.38241,0.00278,0.00766,-0.00207
0.86266,0.33111,-0.38235,0.00227,0.00609,-0.0003
0.86266,0.33115,-0.3823,0.00416,0.00284,-0.00321
0.86265,0.33113,-0.38236,0.00057,0.00861,0.00163
0.86263,0.3311,-0.38241,0.00152,0.00615,0.00106
0.8626,0.3311,-0.38248,0.00436,0.00905,-0.004
0.86258,0.33108,-0.38256,0.00145,0.00349,0.00034
0.86257,0.33103,-0.38261,-0.00245,0.00418,0.00028
0.86256,0.33097,-0.38268,0.00204,0.00311,-0.00194
0.86256,0.33092,-0.38274,0.00364,0.00302,-0.00018
0.86257,0.33088,-0.38274,0.00318,0.00537,-0.0003
0.86262,0.33084,-0.38266,0.0003,0.00436,-0.00322
0.86264,0.33081,-0.38265,0.0033,0.00316,-0.001
0.86265,0.3308,-0.38263,0.00149,0.003,-0.0018
0.86267,0.33078,-0.38261,0.00176,0.0047,-0.00083
0.86269,0.33077,-0.38257,0.0022,0.00615,0.00141
0.86271,0.33076,-0.38253,0.00146,0.00533,-0.00273
0.86274,0.33076,-0.38247,0.003,0.00588,-0.00092
0.86275,0.33078,-0.38243,0.00337,0.00519,0.00026
0.86274,0.3308,-0.38242,0.00338,0.00517,0.00025
0.86271,0.33082,-0.38247,0.00277,0.00535,0.00048
0.86268,0.33082,-0.38255,0.00294,0.00293,-0.00085
0.86265,0.33079,-0.38265,0.00419,0.00274,-0.00295
0.86263,0.33078,-0.3827,0.00197,0.00203,-0.00144
0.86266,0.33077,-0.38264,0.00208,0.0044,-0.00245
0.86267,0.33078,-0.38259,0.00206,0.00439,-0.0025
0.86267,0.3308,-0.38258,0.00294,0.00641,-0.00071
0.86268,0.3308,-0.38256,0.00425,0.00609,-0.00164
0.86269,0.33079,-0.38254,0.0039,0.00675,0.00106
0.86269,0.33081,-0.38253,0.0016,0.00586,-0.00265
0.86269,0.33081,-0.38253,0.00174,0.00528,-0.00348
0.86268,0.33082,-0.38254,0.00243,0.00529,-0.00196
0.86266,0.33081,-0.38259,0.00127,0.00352,-0.00059
0.86264,0.3308,-0.38265,0.002,0.00486,-0.00139
0.86263,0.33078,-0.38268,0.00123,0.00529,-0.00256
0.86264,0.33077,-0.38268,0.00188,0.00553,0.00063
0.86266,0.33076,-0.38265,0.00192,0.00586,-0.00084
0.86268,0.33077,-0.38258,0.00302,0.00493,0.00112
0.8627,0.33076,-0.38254,0.00369,0.0045,0.00011
0.8627,0.33078,-0.38253,0.00514,0.00569,-0.00063
0.86268,0.33079,-0.38256,0.0049,0.00666,-0.00112
0.86268,0.33077,-0.38258,-0.00012,0.00597,-0.00253
0.86269,0.33077,-0.38257,0.0018,0.00393,-0.00267
0.86267,0.33077,-0.3826,0.00226,0.0023,-0.00064
0.86265,0.33077,-0.38267,0.00149,0.00584,0.00075
0.86267,0.33077,-0.38262,0.00338,0.0065,-0.00199
0.86268,0.33081,-0.38255,0.00245,0.00573,-0.00304
0.86267,0.33085,-0.38253,0.00282,0.00334,-0.00067
0.86265,0.33083,-0.38259,0.00205,0.00226,-0.00088
0.86264,0.33077,-0.38268,0.00185,0.00425,0.00011
0.86261,0.33073,-0.38277,0.00577,0.00356,0.00114
0.8626,0.3307,-0.38283,0.00305,0.00302,-0.00236
0.86259,0.33066,-0.38289,0.00118,0.00486,-0.00147
0.86257,0.33064,-0.38295,0.00143,0.00347,-0.00274
0.86256,0.33062,-0.38297,-0.00035,0.00521,-0.00326
0.86259,0.33061,-0.38293,0.00315,0.00607,-0.00229
0.86262,0.3306,-0.38287,0.00168,0.00483,-0.00059
0.86263,0.33061,-0.38283,0.00161,0.00383,0.00035
0.86263,0.33064,-0.38281,0.00289,0.00426,-0.00082
0.86261,0.33066,-0.38283,0.00293,0.00595,-0.00123
0.86261,0.33067,-0.38283,0.00119,0.00626,-0.00131
0.86262,0.33068,-0.3828,0.00286,0.00404,-0.00061
0.86262,0.33068,-0.3828,0.00292,0.0035,6e-05
0.86261,0.33068,-0.38282,0.00222,0.00121,-0.00302
0.86261,0.33067,-0.38282,0.00363,0.00273,-0.00019
0.86263,0.33068,-0.38279,0.00156,0.00645,-2e-05
0.86264,0.33068,-0.38275,0.00143,0.00472,-0.00235
0.86265,0.3307,-0.38272,0.00088,0.0039,-0.00134
0.86265,0.33072,-0.3827,0.00422,0.00557,-0.0033
0.86265,0.33072,-0.3827,0.00126,0.00591,-0.00046
0.86264,0.33071,-0.38272,0.00126,0.00591,-0.00045
0.86264,0.33072,-0.38272,0.00092,0.00488,-0.00362
0.86264,0.33073,-0.38271,0.00404,0.00497,-0.00123
0.86265,0.33074,-0.38269,0.00138,0.00598,-0.00246
0.86266,0.33074,-0.38265,0.00316,0.00406,0.00051
0.86267,0.33075,-0.38262,0.0029,0.00262,-0.00263
0.86268,0.33074,-0.38261,0.00248,0.00455,-0.00226
0.86267,0.33075,-0.38264,0.00353,0.00392,-0.00344
0.86266,0.33076,-0.38265,0.00334,0.00545,-0.00083
0.86266,0.33077,-0.38265,0.0025,0.0059,-0.00117
0.86266,0.33075,-0.38264,0.00036,0.00619,-0.00095
0.86267,0.33075,-0.38264,0.00255,0.0057,-0.00013
0.86267,0.33076,-0.38261,0.00183,0.00365,-0.00077
0.86267,0.33078,-0.3826,0.00212,0.00559,-0.00065
0.86267,0.3308,-0.38259,0.00273,0.00428,-0.00345
0.86267,0.33082,-0.38257,0.00357,0.00276,-0.0041
0.86266,0.33081,-0.38259,0.00251,0.00691,-0.00077
0.86267,0.33082,-0.38257,0.00276,0.00729,-0.00122
0.86267,0.33085,-0.38255,0.00185,0.00741,-0.00247
0.86267,0.33084,-0.38256,0.00104,0.00354,-0.00308
0.86264,0.33081,-0.38266,0.00235,0.00405,-0.00194
0.8626,0.33076,-0.38277,0.00159,0.00268,-0.00063
0.86259,0.33071,-0.38285,0.00489,0.0026,0.00058
0.86261,0.33068,-0.38282,0.00428,0.0025,0.0017
0.86264,0.33066,-0.38276,-0.00116,0.00389,-0.00287
0.86266,0.33065,-0.38274,0.00072,0.00538,-0.00512
0.86267,0.33064,-0.38272,0.00334,0.00757,-0.00511
0.86269,0.33061,-0.3827,0.00189,0.00746,-0.00366
0.86269,0.3306,-0.38271,0.00129,0.00587,-0.00155
0.86268,0.33058,-0.38276,0.00146,0.00526,-0.00252
0.86267,0.33056,-0.38278,0.00276,0.00369,-0.00249
0.86267,0.33058,-0.38277,0.00348,0.00484,-0.00249
0.8627,0.3306,-0.38268,0.00091,0.00604,0.0
0.86274,0.33063,-0.38257,0.00229,0.00558,-0.00238
0.86276,0.33066,-0.38249,0.00271,0.00366,-0.00068
0.86277,0.33069,-0.38245,0.00211,0.00292,-0.00123
0.8628,0.33069,-0.38239,0.00268,0.00392,-0.00094
0.8628,0.33069,-0.38238,0.00318,0.00121,-0.00164
0.86278,0.3307,-0.38242,0.00172,0.00637,-0.00259
0.86275,0.3307,-0.3825,0.00165,0.00441,-0.0024
0.86274,0.33071,-0.3825,0.00178,0.0039,-0.00179
0.86276,0.33072,-0.38246,0.00082,0.00478,-0.00175
0.86278,0.33072,-0.38241,0.00116,0.0053,-0.00409
0.86277,0.33074,-0.38241,0.00196,0.00652,-0.00376
0.86277,0.33074,-0.38241,0.0021,0.00506,-0.00055
0.86277,0.33075,-0.38242,0.0021,0.00505,-0.00055
0.86276,0.33075,-0.38243,0.00057,0.00366,-0.00362
0.86274,0.33075,-0.38246,0.00126,0.00261,-0.00128
0.86274,0.33076,-0.38246,0.00191,0.00295,-0.0018
0.86276,0.33076,-0.38241,0.00368,0.00222,-0.00281
0.86277,0.33077,-0.38237,0.00156,0.00275,0.00061
0.8628,0.3308,-0.38229,0.00345,0.00584,-0.00252
0.86282,0.33082,-0.38222,0.00357,0.00408,-0.00181
0.86281,0.33086,-0.38222,0.00462,0.00418,-0.00041
0.86279,0.33086,-0.38226,0.00239,0.00602,-0.00147
0.8628,0.33086,-0.38223,-0.00056,0.00713,0.00143
0.86281,0.33092,-0.38218,0.0022,0.00241,-0.00241
0.86277,0.33098,-0.3822,0.00587,0.00213,-0.00141
0.86273,0.33103,-0.38225,0.00432,0.00548,-0.00359
0.8627,0.3311,-0.38227,0.00394,0.00725,-0.00286
0.86266,0.33119,-0.38228,0.0005,0.00398,0.0006
0.86261,0.33125,-0.38233,0.00209,0.0019,-0.00231
0.86257,0.33124,-0.38244,0.00056,0.00389,-0.00113
0.86254,0.33121,-0.38254,0.00268,0.00383,-0.00026
0.8625,0.3312,-0.38262,0.00438,0.00323,-0.00065
0.8625,0.33122,-0.3826,0.00316,0.00267,0.00038
0.86251,0.33123,-0.38256,0.00051,0.00615,-0.00417
0.86251,0.33126,-0.38255,-0.00165,0.00718,-0.00528
0.8625,0.33131,-0.38254,0.00267,0.00735,-0.00597
0.86247,0.33134,-0.38256,0.00177,0.00534,-0.00471
0.86246,0.33138,-0.38256,0.0021,0.00282,-0.00253
0.86246,0.33141,-0.38254,0.00171,0.00302,-0.00313
0.86244,0.33146,-0.38254,0.00147,0.00345,-0.00244
0.86242,0.33152,-0.38252,0.00058,0.005,6e-05
0.86244,0.33156,-0.38244,0.00194,0.00516,-0.00127
0.86244,0.3316,-0.38242,0.00251,0.0064,-0.00119
0.86244,0.33162,-0.3824,0.00156,0.0016,-0.00038
0.86245,0.33164,-0.38236,0.00204,0.00329,-0.0021
0.86244,0.33167,-0.38234,0.00227,0.0006,-0.00159
0.86244,0.33171,-0.38232,0.00336,0.00425,0.00039
0.86245,0.33174,-0.38227,0.00164,0.0042,1e-05
0.86245,0.33178,-0.38223,0.00208,0.0041,-0.00142
0.86245,0.3318,-0.38223,0.00297,0.00668,-0.00093
0.86245,0.3318,-0.38221,0.0019,0.00468,-0.00286
0.86246,0.33181,-0.38219,0.00244,0.00526,-0.00183
0.86244,0.33181,-0.38223,0.00208,0.00571,-0.00448
0.86243,0.33183,-0.38224,0.00323,0.00468,-0.00095
0.86244,0.33182,-0.38221,0.00104,0.00341,-0.00143
0.86245,0.33182,-0.3822,0.00195,0.00616,-0.00122
0.86243,0.33182,-0.38224,0.00427,0.00334,-0.00106
0.86241,0.33184,-0.38227,0.00383,0.00294,-0.00115
0.8624,0.33184,-0.38229,0.00317,0.00277,-0.00391
0.86238,0.33187,-0.38231,0.00148,0.00395,-0.00284
0.86237,0.33191,-0.3823,0.00033,0.0043,-0.0018
0.86238,0.33195,-0.38225,0.00107,0.00424,-0.00189
0.86237,0.332,-0.38222,0.00308,0.0044,-0.00209
0.86235,0.33204,-0.38223,0.00413,0.00657,-0.00146
0.86234,0.3321,-0.3822,0.00416,0.00607,0.00117
0.86231,0.33214,-0.38223,-4e-05,0.00601,-0.00193
0.86229,0.33214,-0.38228,-0.00189,0.00393,-0.00123
0.86227,0.33212,-0.38233,0.00093,0.00289,-0.00204
0.8623,0.33209,-0.38231,0.00344,0.0037,-0.00159
0.86235,0.33205,-0.38222,0.00354,0.0032,0.00097
0.8624,0.33202,-0.38214,0.00216,0.00279,-0.00136
0.86242,0.332,-0.38212,0.0008,0.00495,-0.00271
0.86241,0.33198,-0.38216,0.00095,0.00463,-0.00459
0.86239,0.33194,-0.38224,0.00106,0.00549,-0.00282
0.86238,0.3319,-0.38228,-0.00012,0.00492,-0.00024
0.86241,0.33188,-0.38224,0.00068,0.0037,-0.00129
0.86243,0.33187,-0.38219,0.00402,0.00244,-0.00307
0.86244,0.33188,-0.38216,0.00308,0.00434,-0.00175
0.86245,0.33191,-0.38212,0.00303,0.00449,-0.00228
0.86247,0.33193,-0.38205,0.00296,0.00358,-0.00374
0.86249,0.33194,-0.382,0.00183,0.00125,-0.00307
0.86248,0.33196,-0.38201,0.00131,0.00308,-0.00486
0.86247,0.33198,-0.38202,0.00109,0.00413,-0.00182
0.86248,0.332,-0.38197,0.00347,0.00481,0.00032
0.8625,0.33203,-0.38191,0.00239,0.00557,-0.00052
0.8625,0.33204,-0.38188,-0.00112,0.00477,-0.00183
0.8625,0.33204,-0.38188,0.00134,0.00574,-0.00444
0.86251,0.33206,-0.38186,0.00349,0.00496,-0.00286
0.86252,0.33208,-0.38181,0.00106,0.00395,-0.00192
0.86254,0.3321,-0.38175,-0.00043,0.00411,-0.00428
0.86256,0.33214,-0.38167,-0.00027,0.00423,-0.00349
0.8626,0.33216,-0.38156,0.001,0.00165,-0.00614
0.86265,0.33221,-0.38141,0.00233,0.00253,-0.00405
0.86269,0.33225,-0.38129,0.00116,0.00286,-0.006
0.86272,0.33231,-0.38117,0.00449,0.00524,-0.00127
0.86275,0.33236,-0.38105,0.00226,0.00607,-0.00026
0.86278,0.33239,-0.38097,0.00223,0.00604,-0.00035
0.86278,0.33239,-0.38095,0.00077,0.00724,0.00232
0.86276,0.33236,-0.38102,0.00535,0.0062,0.00101
0.86272,0.33231,-0.38116,0.00522,0.00941,-0.00015
0.86265,0.33226,-0.38137,0.00314,0.00925,0.00384
0.86257,0.33224,-0.38156,0.00326,0.0081,0.0
0.86247,0.33221,-0.3818,0.00201,0.00473,-0.00042
0.86236,0.33216,-0.3821,0.00188,0.00343,-0.00275
0.86227,0.33211,-0.38237,0.0037,0.00179,-0.00338
0.86219,0.33206,-0.38257,0.0034,0.00029,-0.00547
0.86215,0.33204,-0.38268,0.0038,7e-05,-0.00031
0.86212,0.33203,-0.38275,-0.00086,0.00124,-0.00542
0.86207,0.33202,-0.38287,-1e-05,0.00381,-0.007
0.86204,0.332,-0.38296,-0.00088,0.00617,-0.00771
0.86206,0.33201,-0.38292,0.00049,0.0086,-0.00067
0.8621,0.33205,-0.38278,-0.00337,0.00742,-0.00087
0.86216,0.33208,-0.38262,-0.00346,0.00414,-0.00074
0.86221,0.33209,-0.38251,0.00278,0.00221,-0.00583
0.86226,0.33212,-0.38237,0.00656,0.00327,-0.00585
0.86235,0.33222,-0.38208,0.00208,0.00352,-0.00407
0.86242,0.33236,-0.38181,4e-05,0.00393,-0.00154
0.86241,0.33249,-0.3817,0.00069,0.00516,-0.00259
0.86234,0.33254,-0.38182,0.00354,0.00897,-0.00146
0.86227,0.33251,-0.38201,0.00295,0.01072,0.00129
0.86223,0.33244,-0.38215,0.00364,0.00837,0.00248
0.86223,0.33235,-0.38225,0.00251,0.00832,0.00281
0.8622,0.33228,-0.38235,0.00318,0.00535,0.00137
0.86217,0.33221,-0.38248,0.0009,0.00466,-0.00082
0.86217,0.33216,-0.38255,0.00258,0.00491,-0.00306
0.86217,0.33213,-0.38257,0.00232,0.00178,-0.00406
0.86216,0.33212,-0.38258,0.00217,0.00112,-0.00667
0.86215,0.33212,-0.38262,0.00342,0.00038,-0.00784
0.86213,0.33211,-0.38267,0.00157,-0.00275,-0.00206
0.86212,0.33212,-0.38269,-7e-05,-0.00158,-0.00361
0.86214,0.33214,-0.38262,-0.00046,0.00122,-0.00477
0.86217,0.33218,-0.38251,-0.00167,0.00547,-0.00206
0.86221,0.33222,-0.38239,0.00035,0.00826,-0.00209
0.86227,0.33224,-0.38225,0.00092,0.00813,-0.00194
0.8623,0.33227,-0.38214,0.00211,0.00883,0.00052
0.86234,0.33229,-0.38204,0.00471,0.00937,-0.00139
0.86237,0.33228,-0.38199,0.00098,0.00905,-0.00243
0.86239,0.33223,-0.38198,-0.0006,0.00833,-0.00102
0.86238,0.33213,-0.38208,-0.00296,0.00725,-0.00418
0.86234,0.33201,-0.38227,0.00202,0.00569,-0.00185
0.86231,0.33187,-0.38248,0.00506,0.00227,-0.00278
0.86226,0.3317,-0.38273,0.00394,0.00222,-0.00303
0.8622,0.33159,-0.38297,0.00487,0.00166,-0.0002
0.86221,0.33154,-0.38299,0.00298,0.0008,-0.00317
0.86227,0.3315,-0.38289,0.00251,0.0004,-0.00282
0.86232,0.33147,-0.38279,0.00215,0.00039,-0.00138
0.86241,0.33139,-0.38267,0.0038,0.00061,-0.00413
0.86248,0.33133,-0.38255,0.00373,0.00067,-0.00424
0.86255,0.3313,-0.38244,0.00116,0.00634,-0.00172
0.86263,0.33127,-0.38228,0.00076,0.00958,-0.00967
0.86268,0.33127,-0.38214,0.0007,0.00958,-0.00981
0.86275,0.33126,-0.38201,-0.00145,0.00635,-0.00227
0.8628,0.33127,-0.38189,0.00166,0.00679,0.00045
0.86282,0.33131,-0.38181,0.00164,0.00675,0.00037
0.86284,0.33135,-0.38172,0.0034,0.00519,-0.00065
0.86286,0.33138,-0.38166,0.00332,0.0066,-0.00228
0.86287,0.33138,-0.38164,0.00363,0.00451,-0.00165
0.86286,0.33141,-0.38162,0.00318,0.00548,-0.00055
0.8629,0.33141,-0.38153,9e-05,0.00102,-0.00509
0.8629,0.33143,-0.38151,0.00241,0.00295,-0.00234
0.8629,0.33147,-0.38148,0.00248,0.00417,-0.00055
0.86292,0.33149,-0.38143,0.00213,0.00034,-0.00395
0.86291,0.33153,-0.38141,0.00129,0.00381,-0.00477
0.8629,0.33158,-0.3814,0.00324,0.00382,-0.00145
0.86292,0.33164,-0.38129,0.00329,0.00456,0.00055
0.86296,0.33171,-0.38114,0.00177,0.00767,-0.00232
0.86297,0.33178,-0.38105,0.002,0.00706,-0.0012
0.86295,0.33183,-0.38105,0.00355,0.0055,-0.00043
0.86292,0.33185,-0.3811,0.00414,0.00699,-0.00339
0.8629,0.33188,-0.38113,0.0029,0.00528,-0.00092
0.8629,0.33189,-0.38111,0.00044,0.00298,-0.00376
0.8629,0.33192,-0.38109,0.00171,0.00306,-0.00317
0.86287,0.33195,-0.38112,-0.0011,0.00557,-0.00402
0.86286,0.33199,-0.38113,0.00174,0.00503,-0.00445
0.86286,0.33203,-0.3811,0.00073,0.00519,-0.00161
0.86288,0.33206,-0.38102,0.00177,0.00591,-0.00183
0.86291,0.33207,-0.38093,0.00107,0.00499,-0.00236
0.86292,0.33208,-0.38092,0.00209,0.00552,-0.00144
0.86292,0.3321,-0.3809,0.00134,0.00565,-0.00536
0.86293,0.33214,-0.38085,0.00115,0.00618,-0.00177
0.86295,0.33217,-0.38076,0.00049,0.00528,-0.00615
0.86297,0.3322,-0.3807,0.00097,0.00588,-0.00271
0.86299,0.3322,-0.38064,0.00204,0.00328,-0.00477
0.86299,0.33221,-0.38064,0.00957,0.00169,-0.00646
0.86297,0.33223,-0.38067,0.00443,0.00679,0.0008
0.86299,0.33229,-0.38057,-0.00244,0.00249,-0.0037
0.86301,0.33242,-0.38041,0.00012,0.00553,-0.00782
0.86297,0.33256,-0.38037,0.00244,0.00668,-0.00319
0.86298,0.33261,-0.38031,0.0041,0.0033,-0.00281
0.86296,0.33261,-0.38035,0.00569,0.004,-0.00343
0.86288,0.33263,-0.38051,0.00545,0.00369,0.00167
0.86286,0.33263,-0.38057,-0.0024,0.00115,-0.00366
0.86284,0.33264,-0.3806,-0.00324,0.00361,-0.00511
0.8628,0.33263,-0.38072,0.00131,0.00557,-0.00368
0.86278,0.33261,-0.38077,0.00362,0.00403,-0.00114
0.86281,0.33258,-0.38071,-0.00036,0.00557,-0.00169
0.86286,0.33258,-0.38061,-0.00118,0.0075,-0.00426
0.86289,0.3326,-0.38053,0.00168,0.00802,-0.00552
0.86291,0.33259,-0.38049,0.00292,0.00742,-0.00637
0.86293,0.33257,-0.38046,0.00183,0.00529,-0.00242
0.86293,0.33256,-0.38047,0.00499,0.00328,-0.00019
0.86291,0.33257,-0.3805,0.00028,-0.00043,-0.00358
0.8629,0.33257,-0.38053,0.00387,0.00227,-0.00483
0.8629,0.33254,-0.38054,0.00154,0.00242,-0.00481
0.86294,0.33249,-0.38051,-0.00053,0.00491,-0.00627
0.86299,0.33245,-0.38043,-0.00111,0.00452,-0.00527
0.86305,0.33244,-0.38029,0.0029,0.00757,-0.0006
0.86313,0.33246,-0.38011,0.0033,0.00813,0.00026
0.86318,0.33249,-0.37996,0.00295,0.00823,-0.00165
0.86319,0.3325,-0.37993,0.0043,0.00772,-0.00159
0.86317,0.33249,-0.37999,0.0028,0.00568,-0.00277
0.86313,0.33246,-0.38009,0.00212,0.00081,-0.00194
0.86309,0.33242,-0.38022,0.00394,0.00029,-0.00163
0.86305,0.3324,-0.38033,0.00283,0.00035,-0.00072
0.86304,0.3324,-0.38035,0.00276,0.0022,-0.00447
0.86308,0.33241,-0.38027,0.0033,0.00155,-0.0011
0.86313,0.33243,-0.38014,0.00039,0.00476,-0.00437
0.86316,0.33246,-0.38004,0.00189,0.00726,-0.00486
0.86318,0.33248,-0.37998,-0.00084,0.00783,-0.00598
0.86318,0.33249,-0.37996,0.00045,0.0085,-0.00444
0.86316,0.3325,-0.38,0.00197,0.0092,-0.00162
0.86315,0.3325,-0.38003,-0.00093,0.00665,-0.00327
0.86313,0.33251,-0.38005,0.00468,0.00469,-0.0016
0.8631,0.3325,-0.38014,0.00226,0.00261,-0.00121
0.86306,0.33252,-0.38021,0.00343,0.00282,-0.00326
0.86302,0.33255,-0.38027,0.0052,0.00549,-0.00256
0.863,0.33255,-0.38031,0.0017,0.00163,-0.0022
0.86303,0.3325,-0.38031,0.00046,0.00149,-0.00034
0.86304,0.33243,-0.38033,0.00024,0.00134,-0.00322
0.86303,0.3324,-0.38037,0.00341,0.00195,-0.00055
0.86302,0.33237,-0.38043,0.00111,0.00445,-0.0073
0.863,0.33231,-0.38054,0.00374,0.00294,-0.0059
0.86296,0.33226,-0.38066,0.00117,0.00653,-0.00184
0.86298,0.33222,-0.38065,-0.00046,0.00767,-0.00257
0.86302,0.3322,-0.38058,-0.0005,0.00769,-0.00264
0.86306,0.33219,-0.3805,-0.00081,0.007,-0.00171
0.86307,0.33218,-0.38048,0.00264,0.00583,-0.00543
0.86306,0.33217,-0.38051,0.00265,0.00584,-0.0054
0.86303,0.33218,-0.38057,0.00335,0.00283,-0.00205
0.86303,0.33216,-0.38059,0.00184,0.0037,-0.00506
0.86303,0.33215,-0.38059,0.00184,0.00371,-0.00506
0.86303,0.33214,-0.3806,0.00303,-0.00017,-0.0021
0.86303,0.33216,-0.38059,0.00388,-0.00164,-0.00431
0.86303,0.33219,-0.38056,0.00425,0.00422,-0.00369
0.86304,0.33221,-0.38052,0.00077,0.00718,-0.00172
0.86305,0.33222,-0.38049,0.00249,0.00779,-0.00292
0.86306,0.33222,-0.38048,0.00068,0.00725,-0.00344
0.86307,0.33221,-0.38046,0.00271,0.00893,-0.00152
0.86308,0.3322,-0.38044,0.00142,0.00814,0.00159
0.86307,0.33219,-0.38048,0.00209,0.00808,0.00018
0.86303,0.33214,-0.3806,-0.00134,0.00791,-0.00116
0.86298,0.33208,-0.38078,0.00265,0.00276,-0.00406
0.86295,0.33201,-0.38091,0.00091,0.00356,-0.00394
0.86295,0.33198,-0.38092,0.00349,-4e-05,-0.00414
0.86297,0.33198,-0.38089,0.00296,0.00053,-0.00497
0.86297,0.33199,-0.38087,0.00292,0.00074,-0.00287
0.86299,0.33203,-0.3808,0.00118,0.00319,-0.00426
0.86302,0.33205,-0.38071,0.00058,0.00441,-0.0051
0.86305,0.33208,-0.38061,0.00206,0.00639,-0.00228
0.86308,0.33211,-0.38051,0.00293,0.00583,-0.00227
0.86312,0.33212,-0.38043,0.00062,0.00803,-0.00273
0.86312,0.33213,-0.3804,0.00142,0.00726,-0.00291
0.86311,0.33212,-0.38044,0.00104,0.00861,-0.00312
0.86309,0.33213,-0.38048,0.00045,0.00675,-0.00285
0.86307,0.3321,-0.38054,0.00263,0.00365,-0.00422
0.86303,0.33207,-0.38067,0.00176,0.00611,-0.00272
0.863,0.33205,-0.38075,0.00386,0.00545,-0.00269
0.86299,0.33207,-0.38077,0.00292,0.0043,-0.00357
0.86295,0.33209,-0.38082,0.00106,0.00293,0.00129
0.86291,0.33206,-0.38094,0.00122,0.00336,-0.00191
0.86289,0.33202,-0.38104,0.00323,-0.00034,-0.00136
0.86287,0.33198,-0.3811,0.00196,6e-05,-0.00072
0.86287,0.33194,-0.38114,0.00296,0.00261,-0.0015
0.86287,0.33191,-0.38116,0.00119,0.00378,-0.00353
0.86288,0.33189,-0.38117,0.00027,0.00549,-0.00509
0.86288,0.33189,-0.38116,0.00032,0.00563,-0.00277
0.86289,0.33189,-0.38115,0.00032,0.00564,-0.00278
0.8629,0.33188,-0.38113,-0.00028,0.00452,-0.00042
0.86289,0.33188,-0.38115,0.00045,0.00502,-0.00127
0.86287,0.33185,-0.38121,0.00237,0.00415,-0.00183
0.86285,0.33183,-0.38129,0.00457,0.00577,-0.00557
0.86285,0.33183,-0.3813,0.00186,0.00316,-0.00208
0.86285,0.33181,-0.38132,0.00294,0.00231,-0.0033
0.86283,0.3318,-0.38135,0.00151,0.00117,-0.00079
0.86284,0.3318,-0.38134,0.00171,0.00104,-0.00196
0.86286,0.3318,-0.38128,0.00235,0.00498,-0.0044
0.86287,0.33182,-0.38126,0.0034,0.00235,-0.00081
0.86287,0.33182,-0.38125,0.00348,0.00404,-0.00162
0.86288,0.33183,-0.38121,0.00333,0.00299,-0.00011
0.86288,0.33185,-0.38119,0.00279,0.00816,-0.00056
0.8629,0.33187,-0.38114,0.0013,0.00591,-0.00323
0.8629,0.33187,-0.38112,0.00019,0.00518,-0.00236
0.8629,0.33186,-0.38113,0.0025,0.00725,-0.00459
0.86289,0.33184,-0.3812,0.00324,0.00216,-0.00391
0.86287,0.33181,-0.38127,0.00214,0.00523,-0.00333
0.86286,0.33178,-0.3813,0.00059,0.00347,-0.00119
0.86286,0.33178,-0.38129,0.00171,0.00224,-0.00057
0.86288,0.33179,-0.38126,0.00114,0.0043,-0.00363
0.8629,0.33179,-0.38122,0.00194,0.00466,-0.00323
0.86292,0.33178,-0.38117,0.00375,0.00567,-0.00265
0.86293,0.33178,-0.38115,0.00316,0.00455,-0.00266
0.86295,0.33176,-0.38113,0.00189,0.00404,-0.00162
0.86295,0.33176,-0.38111,0.00283,0.00507,-0.00325
0.86295,0.33177,-0.38111,0.0023,0.00551,-0.00419
0.86297,0.33178,-0.38106,0.00375,0.0047,-0.00284
0.86299,0.3318,-0.38099,0.00208,0.00308,4e-05
0.863,0.33183,-0.38094,0.00309,0.0052,-0.0028
0.86299,0.33187,-0.38094,0.00141,0.00371,-0.00072
0.86298,0.33191,-0.38093,0.00181,0.00502,-0.00341
0.86298,0.33194,-0.3809,0.00342,0.00459,-0.00351
0.86296,0.33196,-0.38092,0.00392,0.00536,-0.0058
0.86293,0.33196,-0.38099,0.0014,0.00764,-0.00301
0.86291,0.33198,-0.38101,0.00309,0.00588,-0.00493
0.8629,0.33205,-0.38098,0.00114,0.00483,-0.00246
0.8629,0.33212,-0.38093,0.00034,0.00493,-0.00106
0.86287,0.33217,-0.38095,-6e-05,0.00337,-0.0031
0.86282,0.33219,-0.38103,0.00421,0.00304,-0.00444
0.8628,0.33219,-0.38109,0.00247,0.0011,-0.00059
0.8628,0.33219,-0.38107,0.00092,0.00246,-0.00128
0.86283,0.33219,-0.38101,0.00144,0.00365,-0.00343
0.86286,0.33218,-0.38096,0.00053,0.00344,-0.00291
0.86288,0.33219,-0.38091,0.00213,0.00605,-0.00433
0.86289,0.33221,-0.38088,0.00172,0.00774,-0.00247
0.86291,0.33224,-0.3808,0.00054,0.00543,-0.00055
0.86295,0.33227,-0.38068,0.00011,0.00673,-0.00092
0.86297,0.33231,-0.38059,0.00103,0.00574,-0.00264
0.86297,0.33234,-0.38057,0.0026,0.00584,-0.00293
0.86296,0.33236,-0.38058,0.00202,0.00521,-0.00466
0.86293,0.33238,-0.38062,0.00317,0.00363,-0.00275
0.86291,0.33241,-0.38064,0.00241,0.00257,-0.00072
0.86292,0.33247,-0.38056,0.00234,0.00211,-0.00309
0.86294,0.33252,-0.38049,0.00224,0.00287,-0.00125
0.86294,0.33259,-0.38042,0.00158,0.00593,-0.00187
0.86295,0.33263,-0.38037,0.00099,0.00547,-0.00334
0.86297,0.33269,-0.38027,0.00233,0.00409,-0.00346
0.86299,0.33276,-0.38017,0.00312,0.00655,-0.00419
0.86299,0.33283,-0.38009,0.00241,0.00492,-0.00284
0.86299,0.33287,-0.38005,0.00221,0.00574,-0.00281
0.86298,0.33291,-0.38006,-0.00011,0.00666,-0.00255
0.86296,0.33292,-0.38008,-0.0004,0.00727,-0.00199
0.86297,0.33292,-0.38007,0.00039,0.00577,-0.00419
0.86296,0.33293,-0.38007,0.00157,0.0035,-0.00297
0.86296,0.33292,-0.38009,0.00151,0.00519,-0.00248
0.86296,0.3329,-0.3801,0.00148,0.00394,-0.00221
0.86297,0.33288,-0.3801,0.00222,0.00408,-0.0033
0.86298,0.33285,-0.3801,0.00117,0.00527,-0.00241
0.863,0.33282,-0.38008,0.00193,0.00394,-0.00381
0.86301,0.33279,-0.38007,0.00182,0.00306,-0.00129
0.86301,0.33278,-0.38009,0.00095,0.00357,-0.00192
0.86302,0.33274,-0.3801,0.0014,0.00384,-0.00095
0.86304,0.3327,-0.38009,0.00161,0.00284,-0.00147
0.86306,0.3327,-0.38006,0.00195,0.00533,-0.00199
0.86308,0.33271,-0.38001,0.00159,0.00501,-0.00197
0.8631,0.33272,-0.37995,0.00433,0.0034,-0.00167
0.86308,0.3327,-0.38,0.00316,0.00383,-0.00463
0.86303,0.33266,-0.38014,0.00112,0.0051,-0.0033
0.86299,0.33265,-0.38026,0.00594,0.00639,-0.00403
0.86297,0.33265,-0.3803,0.0044,0.00666,-0.0047
0.86298,0.33264,-0.38029,-0.00044,0.0049,-0.00025
0.86297,0.33261,-0.38033,0.00026,0.00328,-0.00395
0.86293,0.33258,-0.38045,0.00119,0.00175,-0.00308
0.86291,0.3325,-0.38057,0.0028,0.00354,-0.00121
0.86291,0.33245,-0.3806,0.00267,0.00375,-0.00458
0.86293,0.3324,-0.38062,0.004,0.00415,-0.00775
0.86293,0.33237,-0.38064,0.00203,0.00548,-0.00498
0.86295,0.33234,-0.3806,-0.00108,0.00222,-0.00278
0.863,0.33231,-0.38052,-0.00112,0.00225,-0.00285
0.86304,0.33229,-0.38045,0.0016,0.00751,0.00043
0.86308,0.33227,-0.38038,0.00044,0.00431,0.00057
0.8631,0.33225,-0.38037,0.00264,0.00433,-0.00185
0.8631,0.33223,-0.38037,0.00485,0.00417,-0.0004
0.86309,0.33222,-0.3804,0.00283,0.00633,-0.00214
0.86307,0.33221,-0.38046,0.00431,0.00288,-0.00201
0.86305,0.33219,-0.38053,0.00222,0.0023,-0.00305
0.86302,0.33218,-0.3806,0.00109,0.00016,-0.00293
0.86299,0.33218,-0.38066,0.0023,0.0019,-0.00225
0.86299,0.33217,-0.38068,0.00205,0.00211,-0.00333
0.86299,0.33216,-0.38069,0.00316,0.0051,-0.00293
0.86297,0.33216,-0.38072,0.00429,0.00562,-0.00162
0.86296,0.33215,-0.38075,0.00161,0.00655,-0.00272
0.86295,0.33216,-0.38078,0.00204,0.0045,-0.0033
0.86293,0.33216,-0.38082,0.00218,0.00462,-0.00192
0.86291,0.33216,-0.38085,0.00194,0.00498,-0.00144
0.8629,0.33215,-0.3809,0.00153,0.0039,-0.00439
0.86288,0.33212,-0.38096,0.00196,0.00409,-0.00354
0.86284,0.3321,-0.38107,0.00039,0.00271,-0.00414
0.86282,0.33208,-0.38114,-0.00011,0.00276,-0.00271
0.86282,0.33207,-0.38114,0.00098,0.00158,-0.00284
0.86283,0.33208,-0.38111,0.00365,0.00381,-0.0026
0.86284,0.33209,-0.38108,0.00108,0.00462,-0.00227
0.86285,0.33209,-0.38106,0.00065,0.00445,-0.00137
0.86285,0.3321,-0.38104,0.00185,0.0041,-0.00068
0.86286,0.33211,-0.38101,0.00164,0.0052,-0.00235
0.86286,0.33213,-0.381,0.00303,0.00562,-0.00247
0.86285,0.33213,-0.38102,0.00269,0.00364,-0.00017
0.86284,0.33213,-0.38106,0.00279,0.0037,-0.00163
0.86283,0.33214,-0.38107,0.00329,0.00434,-0.0033
0.86282,0.33214,-0.38109,0.00173,0.0034,-0.00296
0.86282,0.33212,-0.38111,0.00135,0.00329,-0.00423
0.8628,0.33211,-0.38116,0.00366,0.00294,-0.00394
0.86277,0.33209,-0.38124,0.00166,0.00411,-0.00292
0.86277,0.33209,-0.38125,0.00262,0.00531,-0.0009
0.86276,0.33211,-0.38124,0.00382,0.00367,-0.00397
0.86275,0.33215,-0.38123,-0.00022,0.00515,-0.00399
0.86273,0.33214,-0.38129,0.0025,0.00311,-0.00023
0.86269,0.3321,-0.38141,0.00187,0.00525,-0.00261
0.86266,0.33205,-0.38154,0.00279,0.00412,-0.00329
0.86264,0.33199,-0.38161,0.00192,0.00379,0.0
0.86265,0.33196,-0.38162,0.00037,0.00207,-0.00104
0.86264,0.33192,-0.38168,0.00295,0.00287,-0.00468
0.86265,0.33189,-0.38168,0.0022,0.00644,-0.00362
0.86268,0.33187,-0.38164,0.00146,0.00578,-0.00181
0.8627,0.33185,-0.3816,0.00039,0.00677,0.0003
0.86272,0.33186,-0.38155,-0.00167,0.0065,-0.00123
0.86273,0.33185,-0.38153,-0.00168,0.00651,-0.00125
0.86274,0.33184,-0.38154,0.00512,0.00852,-0.00219
0.86273,0.33185,-0.38154,0.00443,0.00538,-0.00262
0.86273,0.33188,-0.38151,0.00443,0.00535,-0.00264
0.86273,0.33192,-0.38148,0.00238,0.0057,-0.00284
0.86272,0.33195,-0.38149,0.00339,0.0041,-0.00169
0.8627,0.33197,-0.3815,0.0034,0.00408,-0.00168
0.86271,0.33198,-0.38147,0.00072,0.00658,-0.00076
0.86272,0.332,-0.38143,0.00432,0.00445,-0.00209
0.86272,0.33204,-0.38139,0.001,0.00472,-0.00263
0.86272,0.33209,-0.38136,0.00023,0.00343,-0.00502
0.86272,0.33213,-0.38133,0.00193,0.00542,-0.002
0.86271,0.33215,-0.38132,-0.00071,0.00663,-0.0031
0.86269,0.33217,-0.38136,0.00346,0.00427,-0.0028
0.86265,0.33219,-0.38142,0.00354,0.00218,-0.00132
0.86263,0.3322,-0.38146,0.00321,0.00205,-0.00346
0.86264,0.33222,-0.38143,0.00078,0.0025,-0.00201
0.86265,0.33226,-0.38135,0.0015,0.00506,-0.00378
0.86268,0.3323,-0.38125,0.00171,0.00319,-0.00084
0.86274,0.33235,-0.3811,0.00229,0.00364,-0.00375
0.86277,0.33237,-0.38099,0.00202,0.00532,-0.00379
0.8628,0.33238,-0.38091,0.00252,0.00392,-0.0041
0.8628,0.33241,-0.38088,0.0017,0.00193,-0.00063
0.8628,0.33243,-0.38086,0.00043,0.00265,-0.00025
0.8628,0.33247,-0.38085,0.00181,0.00292,-0.00367
0.86279,0.33249,-0.38084,0.00204,0.00393,-0.00298
0.86281,0.33253,-0.38078,0.00347,0.00539,-0.00149
0.86284,0.33256,-0.38067,0.00212,0.00318,-0.00026
0.86286,0.33261,-0.38059,0.00168,0.00284,-0.0031
0.86286,0.33265,-0.38055,0.00141,0.00294,-0.00022
0.86287,0.33268,-0.38051,0.00096,0.00472,-0.00173
0.86287,0.33271,-0.38048,0.00525,0.00351,-0.00188
0.86285,0.33271,-0.38052,0.00339,0.00558,-0.00345
0.86282,0.33272,-0.38058,0.00178,0.00695,-0.00309
0.8628,0.33277,-0.38057,0.00398,0.00565,-0.00309
0.86281,0.33286,-0.38049,0.00043,0.00468,-0.00187
0.8628,0.3329,-0.38046,0.0022,0.00414,0.00062
0.86279,0.3329,-0.38048,0.00066,0.00198,-0.00298
0.86275,0.3329,-0.38059,0.00443,0.00011,-0.00375
0.86273,0.33288,-0.38065,0.00347,0.00152,-0.0029
0.86275,0.33285,-0.38061,0.00274,0.00095,-0.00426
0.86277,0.33284,-0.38059,0.00169,0.00357,-0.00404
0.86279,0.33283,-0.38056,0.0022,0.00526,-0.00212
0.86281,0.33283,-0.38049,0.00077,0.00524,-0.00285
0.86283,0.33283,-0.38045,0.00043,0.00481,-0.00099
0.86283,0.33283,-0.38044,0.00237,0.00539,-0.00118
0.86282,0.33282,-0.38048,0.00206,0.00588,-0.00411
0.86282,0.3328,-0.3805,0.00252,0.00409,-0.00234
0.86283,0.33277,-0.3805,0.00318,0.00259,-0.00272
0.86283,0.33276,-0.38051,0.00303,0.00464,0.00058
0.86283,0.33274,-0.38054,0.00162,0.00219,-0.00186
0.86284,0.33271,-0.38055,0.00229,0.00059,-0.00359
0.86285,0.33266,-0.38056,0.00194,0.00233,-0.00298
0.86287,0.33264,-0.38053,0.00415,0.00338,-0.0034
0.86289,0.33262,-0.3805,0.00124,0.00349,-0.00131
0.86289,0.33261,-0.3805,0.00075,0.00515,-0.00396
0.8629,0.3326,-0.38051,0.002,0.00433,-0.00307
0.8629,0.3326,-0.3805,0.00398,0.00387,-0.00309
0.86291,0.3326,-0.38047,0.00093,0.0039,-0.00289
0.86291,0.33261,-0.38046,0.0013,0.00474,-0.0042
0.86292,0.33258,-0.38047,-7e-05,0.00546,-0.00448
0.86291,0.33257,-0.38051,0.00259,0.00427,-0.00427
0.86291,0.33255,-0.38053,0.00112,0.00304,-0.00441
0.8629,0.33254,-0.38055,0.00137,0.00497,-0.00392
0.86289,0.33252,-0.3806,0.00279,0.00513,-0.00135
0.86288,0.33252,-0.38062,0.00227,0.0046,-0.00489
0.86287,0.3325,-0.38064,0.00201,0.00179,-0.00354
0.86288,0.3325,-0.38063,0.00203,0.00521,0.00099
0.8629,0.33248,-0.38061,0.00191,0.00449,-0.00093
0.86289,0.33247,-0.38063,0.00149,0.00364,-0.00221
0.86288,0.33245,-0.38068,0.00255,0.00465,-0.00345
0.86287,0.33245,-0.38069,0.00175,0.00561,-0.00135
0.86288,0.33243,-0.38069,0.00242,0.00259,-0.00277
0.86288,0.33243,-0.3807,0.00068,0.00468,-0.00255
0.86287,0.33243,-0.38072,0.00301,0.00299,-0.005
0.86284,0.33242,-0.3808,0.00447,0.00583,-0.00276
0.86282,0.33239,-0.38087,0.00474,0.00331,-0.0027
0.86281,0.33242,-0.38085,0.00253,0.00595,-0.00391
0.8628,0.33244,-0.38086,0.00318,0.00305,-0.00281
0.86278,0.33243,-0.38093,0.002,0.00408,-0.00013
0.86275,0.33236,-0.38105,0.00102,0.00352,-0.00238
0.86271,0.33229,-0.38121,0.00189,0.00312,-0.00364
0.86268,0.33223,-0.38131,0.00321,0.00311,-0.00112
0.86268,0.33218,-0.38136,-0.0001,0.00337,-0.00464
0.86267,0.33213,-0.38144,0.0,0.00326,-0.00583
0.86267,0.33209,-0.38147,0.00215,0.00299,-0.00585
0.86268,0.33208,-0.38145,0.00129,0.00459,-0.0006
0.86269,0.33207,-0.38143,0.00219,0.00565,-0.00169
0.8627,0.33208,-0.38139,0.00136,0.0039,-0.00293
0.86271,0.33207,-0.38139,0.00147,0.0051,-0.00412
0.86269,0.33208,-0.38142,0.00149,0.00509,-0.00409
0.86268,0.33208,-0.38146,0.00398,0.00577,-0.00219
0.86267,0.33206,-0.38148,0.00178,0.00563,-0.00246
0.86268,0.33209,-0.38145,0.00178,0.0056,-0.00249
0.86266,0.33211,-0.38147,0.00186,0.00288,-0.00465
0.86265,0.33212,-0.38148,0.00257,0.00365,-0.003
0.86267,0.33211,-0.38145,0.00255,0.00366,-0.00302
0.8627,0.33213,-0.38137,0.00188,0.00416,-0.00288
0.86271,0.33215,-0.38132,0.00399,0.00467,-0.00298
0.86269,0.33214,-0.38138,0.0035,0.00467,-0.00255
0.86268,0.33213,-0.38141,0.00096,0.00454,-0.0045
0.86266,0.33215,-0.38143,0.00152,0.00448,-0.00512
0.86266,0.33214,-0.38144,0.00221,0.00602,-0.00456
0.86267,0.33213,-0.38144,0.00379,0.00275,-0.00253
0.86266,0.33213,-0.38146,0.00337,0.0034,-0.0019
0.86265,0.33212,-0.38148,0.00162,0.00319,-0.001
0.86265,0.33212,-0.38148,0.00184,0.00394,-0.00248
0.86264,0.33212,-0.38151,0.00067,0.00427,-0.00341
0.86263,0.33211,-0.38154,0.00134,0.0016,-0.00485
0.86262,0.33211,-0.38156,0.00306,0.0025,-0.0028
0.86261,0.33211,-0.38158,0.00322,0.00285,-0.002
0.8626,0.33212,-0.38161,0.00027,0.00475,-0.00166
0.86258,0.33212,-0.38163,0.00123,0.00427,-0.00175
0.86257,0.33214,-0.38165,0.00099,0.00325,-0.003
0.86256,0.33215,-0.38166,0.00168,0.00414,-0.00266
0.86256,0.33215,-0.38167,0.00132,0.00479,-0.00259
0.86254,0.33216,-0.38171,0.00076,0.00446,-0.00408
0.86255,0.33214,-0.38171,0.00098,0.00365,-0.00312
0.86256,0.33214,-0.38167,0.0012,0.00184,-0.00331
0.86256,0.33214,-0.38167,0.00255,0.00337,-0.00443
0.86255,0.33212,-0.3817,0.00337,0.00453,-0.00337
0.86255,0.33214,-0.3817,0.00243,0.00534,-0.00362
0.86252,0.33219,-0.38172,0.00125,0.00569,-0.00115
0.86251,0.33218,-0.38175,0.00222,0.00302,-0.00106
0.8625,0.33215,-0.38181,-7e-05,0.00358,-0.00163
0.86249,0.33212,-0.38186,0.00311,0.00152,-0.00205
0.86247,0.3321,-0.3819,0.00319,0.00184,-0.00157
0.86249,0.33207,-0.38188,0.00315,0.00255,-0.00275
0.86251,0.33206,-0.38185,0.00217,0.00373,-0.005
0.86253,0.33205,-0.38183,0.00216,0.00287,-0.00277
0.86253,0.33204,-0.38182,0.00191,0.00432,-0.00273
0.86254,0.33205,-0.38181,-6e-05,0.00456,0.00024
0.86255,0.33207,-0.38176,-7e-05,0.00454,0.0002
0.86256,0.3321,-0.38172,0.00233,0.00388,-0.00156
0.86255,0.3321,-0.38172,0.00364,0.00458,-0.00272
0.86252,0.33213,-0.38176,0.00269,0.00347,-0.00191
0.86251,0.33215,-0.38177,0.00165,0.00127,-0.00272
0.86252,0.33218,-0.38173,0.00252,0.00144,-0.0033
0.86252,0.33222,-0.38169,0.00337,0.00329,-0.00455
0.86252,0.33225,-0.38166,0.00294,0.00172,-0.00329
0.86252,0.33228,-0.38163,0.0017,0.00365,-0.00367
0.86253,0.33232,-0.38158,0.00275,0.00244,-0.00213
0.86255,0.33238,-0.38149,0.00238,0.00428,-0.00272
0.86257,0.33243,-0.38139,0.00062,0.00478,-0.00164
0.86259,0.33247,-0.38132,-0.00047,0.0049,-0.0031
0.86259,0.3325,-0.38128,0.00121,0.0044,-0.00414
0.86259,0.33252,-0.38128,0.00169,0.00444,-0.00453
0.86259,0.33254,-0.38127,0.00216,0.00337,-0.00238
0.86258,0.33256,-0.38127,0.00188,0.00434,-0.00432
0.86257,0.33259,-0.38125,0.00159,0.00395,-0.00147
0.86258,0.33262,-0.38121,0.00136,0.00266,-0.00246
0.86259,0.33266,-0.38116,0.00117,0.00374,-0.0033
0.86258,0.3327,-0.38115,0.00189,0.00384,-0.00229
0.86258,0.33273,-0.38111,0.00346,0.00392,0.00148
0.86257,0.33278,-0.3811,0.00361,0.00302,-0.00287
0.86255,0.33282,-0.3811,0.00419,0.00205,-0.0021
0.86256,0.33285,-0.38104,0.00334,0.00345,-0.0041
0.86257,0.33291,-0.38097,0.00034,0.00397,-0.00086
0.86258,0.33296,-0.3809,0.00196,0.00487,-0.00153
0.8626,0.33302,-0.38081,0.0019,0.00609,-0.00035
0.86264,0.33306,-0.38068,-0.0007,0.00562,-0.00126
0.86266,0.3331,-0.3806,0.0019,0.00679,-0.00335
0.86265,0.33312,-0.38062,0.00483,0.00338,-0.0057
0.86263,0.33313,-0.38065,-5e-05,0.00641,-0.00281
0.86262,0.33317,-0.38064,0.0006,0.00464,-0.00344
0.86259,0.33326,-0.38064,0.00314,0.0043,-0.00413
0.86257,0.33328,-0.38064,0.00232,0.00309,-0.00196
0.86257,0.33327,-0.38066,0.00237,0.00119,-0.00049
0.86253,0.33327,-0.38075,0.00199,-2e-05,-0.00133
0.86251,0.33326,-0.38081,0.0045,0.00149,0.0003
0.86254,0.33323,-0.38076,0.00326,0.00191,-0.00425
0.86256,0.33322,-0.38073,0.0028,0.0049,-0.00211
0.86258,0.3332,-0.38071,0.00174,0.00492,-0.00447
0.86261,0.33316,-0.38066,0.00143,0.00609,-0.00145
0.86266,0.33314,-0.38058,0.00041,0.00749,-0.00088
0.86268,0.33314,-0.38053,-0.00024,0.00641,-0.00164
0.86268,0.33314,-0.38053,0.00272,0.00571,-0.0053
0.86266,0.33311,-0.3806,0.00202,0.00483,-0.00104
0.86263,0.33307,-0.3807,0.00755,0.00242,-0.00313
0.8626,0.33304,-0.38079,0.00437,0.00087,-0.00408
0.8626,0.33301,-0.38082,0.00195,5e-05,-0.00172
0.8626,0.33299,-0.38083,0.0017,0.00088,-0.00343
0.86258,0.33299,-0.38088,0.00212,-1e-05,-0.00355
0.86261,0.33298,-0.38084,0.00421,0.0018,-0.00158
0.86265,0.33298,-0.38073,0.00336,0.00449,-0.00291
0.86268,0.33299,-0.38067,0.00352,0.00573,-0.00199
0.86267,0.33301,-0.38066,0.00241,0.0051,-0.00339
0.86267,0.33302,-0.38065,0.00186,0.00548,-0.00106
0.86268,0.33301,-0.38064,0.00265,0.0058,-0.00134
0.86267,0.333,-0.38068,0.00325,0.00564,-0.00352
0.86263,0.33298,-0.38078,0.00178,0.00377,-0.0035
0.86259,0.33294,-0.3809,-0.00049,0.00231,-0.0031
0.86258,0.33291,-0.38095,0.00206,0.00348,-0.00504
0.86259,0.33289,-0.38095,0.00266,0.00236,-0.00244
0.8626,0.33286,-0.38094,0.00169,0.00018,-0.00185
0.8626,0.33285,-0.38096,0.00308,0.00364,-0.00144
0.8626,0.33282,-0.38098,0.0032,0.00372,-0.00187
0.86261,0.33279,-0.38098,0.00528,0.00262,-0.00351
0.86263,0.33278,-0.38096,0.00322,0.00261,-0.00368
0.86264,0.33277,-0.38094,0.0033,0.00525,-0.00121
0.86262,0.33277,-0.38098,0.00102,0.00622,-0.00167
0.86261,0.33277,-0.38102,0.0026,0.00225,-0.00202
0.8626,0.33275,-0.38105,0.00225,0.00418,-0.00356
0.86258,0.33271,-0.38113,0.00181,0.00283,-0.00092
0.86258,0.3327,-0.38113,0.00375,0.00429,-0.00317
0.86256,0.33272,-0.38116,0.00247,0.00549,-0.0034
0.86253,0.33272,-0.38124,0.00056,0.00268,-0.0035
0.86249,0.33268,-0.38137,0.00145,0.00189,-0.00223
0.86245,0.33261,-0.38152,0.00369,0.0011,0.002
0.86242,0.33255,-0.38164,0.00418,-0.00015,-0.00088
0.86242,0.33249,-0.38169,0.00297,0.00134,-0.00186
0.86241,0.33246,-0.38172,0.00337,0.00309,-0.0043
0.86243,0.33243,-0.38172,0.00034,0.00307,-0.00452
0.86245,0.33242,-0.38167,0.00095,0.00411,-0.00497
0.86247,0.33243,-0.38162,0.00174,0.00534,-0.00235
0.86248,0.33243,-0.38159,0.00205,0.00552,-0.00179
0.8625,0.33243,-0.38156,0.00091,0.00549,-0.00146
0.8625,0.33241,-0.38157,0.00072,0.00335,-0.00164
0.86248,0.33239,-0.38163,0.00361,0.00295,-0.00549
0.86246,0.33239,-0.38167,0.00242,0.00329,-0.00247
0.86247,0.33239,-0.38166,0.00278,0.00406,-0.00108
0.86247,0.33239,-0.38165,0.00107,0.00115,-0.00178
0.86246,0.33239,-0.38167,0.00108,0.00115,-0.00177
0.86246,0.3324,-0.38167,0.00156,0.00158,-0.00166
0.86246,0.3324,-0.38168,0.00224,0.00281,-0.0031
0.86246,0.3324,-0.38167,0.0054,0.00424,-0.00261
0.86245,0.3324,-0.38168,0.00377,0.00529,-0.00182
0.86245,0.3324,-0.38171,0.00032,0.00316,-0.00304
0.86245,0.3324,-0.38171,0.00195,0.00485,-0.0046
0.86244,0.33241,-0.38171,0.0018,0.00307,-0.00229
0.86243,0.3324,-0.38174,0.00348,0.00315,-0.00251
0.86241,0.33241,-0.38177,0.00285,0.00419,-0.00211
0.8624,0.33241,-0.3818,0.00224,0.00371,-0.00498
0.8624,0.33242,-0.3818,0.00107,0.00231,-0.00364
0.8624,0.33242,-0.3818,0.00217,0.00068,-0.00294
0.8624,0.33242,-0.38178,0.00103,0.00422,-0.0035
0.8624,0.33244,-0.38177,0.00156,0.00174,-0.00482
0.8624,0.33245,-0.38177,0.00287,0.00274,-0.00366
0.86239,0.33245,-0.38179,0.00226,0.00387,-0.00069
0.86239,0.33242,-0.38181,0.00251,0.00342,-0.00252
0.86239,0.33243,-0.38181,0.00117,0.00406,-0.00172
0.86239,0.33242,-0.38181,0.00112,0.00385,-0.00196
0.86239,0.33243,-0.38181,0.00265,0.0051,-0.00174
0.86239,0.33244,-0.38179,0.00092,0.00603,-0.00268
0.86241,0.33244,-0.38176,0.00182,0.00075,-0.00348
0.86243,0.33242,-0.38172,0.00255,0.00477,-0.00182
0.86244,0.33242,-0.3817,0.00064,0.00584,-0.00279
0.86244,0.33245,-0.38169,0.00408,0.00505,-0.00244
0.8624,0.33246,-0.38175,0.00162,0.00694,-0.00342
