gravity.x,gravity.y,gravity.z,userAcceleration.x,userAcceleration.y,userAcceleration.z
0.67563,0.64847,-0.35071,-0.0006,0.01086,-0.00513
0.67554,0.64857,-0.35071,0.0016,0.01321,-0.00621
0.67545,0.64863,-0.35079,0.00229,0.0106,-0.00598
0.67542,0.64864,-0.35081,-0.00133,0.01035,-0.00587
0.67536,0.64871,-0.35078,0.00338,0.00941,-0.00652
0.67541,0.64872,-0.35069,0.00172,0.00823,-0.00995
0.67546,0.64872,-0.35058,0.00282,0.00495,-0.00779
0.67546,0.6488,-0.35043,0.00088,0.00496,-0.00576
0.67551,0.64885,-0.35026,0.00554,0.00725,-0.00754
0.67557,0.64888,-0.35008,0.00555,0.00777,-0.00719
0.6756,0.64892,-0.34995,0.00332,0.00758,-0.00713
0.67567,0.64897,-0.34972,0.00141,0.0073,-0.00428
0.67579,0.64904,-0.34937,-0.00155,0.00241,-0.00458
0.67592,0.64917,-0.34886,0.00128,0.00784,-0.00404
0.67599,0.6493,-0.34849,0.00936,0.0113,0.00019
0.67598,0.64942,-0.34828,0.01093,0.01281,0.00158
0.67597,0.64948,-0.34819,0.00578,0.01211,0.00235
0.67593,0.64953,-0.34817,0.00229,0.00829,-0.00257
0.67595,0.64952,-0.34815,0.00273,0.00722,-0.00509
0.67594,0.64955,-0.34813,0.00222,0.00619,-0.00559
0.67595,0.64961,-0.34798,0.00333,0.00458,-0.00828
0.676,0.64965,-0.3478,0.00451,0.00557,-0.00741
0.67601,0.64973,-0.34765,0.00441,0.00744,-0.00724
0.67599,0.64979,-0.34758,0.0043,0.00779,-0.0046
0.67597,0.64979,-0.3476,0.00215,0.01219,-0.00442
0.67597,0.64979,-0.34761,-0.00065,0.01064,-0.00537
0.67601,0.64975,-0.3476,0.00035,0.01098,-0.00225
0.67614,0.64966,-0.34752,0.00051,0.01067,-0.00563
0.67627,0.64955,-0.34747,0.00301,0.01087,-0.00557
0.67636,0.64943,-0.34753,0.0027,0.00678,-0.00684
0.67646,0.64925,-0.34766,0.00324,0.00596,-0.00367
0.67654,0.64911,-0.34776,0.00482,0.00444,-0.00412
0.67662,0.64902,-0.34779,0.00728,0.00053,-0.00257
0.67671,0.64897,-0.34771,0.00658,0.00156,-0.0012
0.6768,0.64897,-0.34753,0.00962,0.00421,-0.00054
0.67685,0.64898,-0.34741,0.00813,0.00821,-0.00066
0.67691,0.64897,-0.34731,0.00517,0.00903,-0.00338
0.67694,0.64897,-0.34725,0.00297,0.00928,-0.00289
0.67696,0.64893,-0.34729,0.0023,0.01021,-0.00439
0.67694,0.6489,-0.34738,0.0033,0.01263,-0.0059
0.67688,0.64888,-0.34753,0.00061,0.01233,-0.00525
0.6768,0.64883,-0.34778,0.00278,0.00774,-0.00485
0.67671,0.6488,-0.34802,0.00339,0.00678,-0.00548
0.67666,0.64875,-0.34821,0.00408,0.00645,-0.0057
0.67664,0.64871,-0.34831,0.00384,0.00503,-0.00287
0.67663,0.64869,-0.34837,0.00473,0.00451,-0.00386
0.67663,0.64865,-0.34846,0.00712,0.00596,-0.00448
0.67659,0.64862,-0.34858,0.00526,0.00603,-0.00483
0.67655,0.64861,-0.34868,0.00533,0.00532,-0.0035
0.6765,0.64862,-0.34876,0.00271,0.00844,-0.00561
0.67645,0.64863,-0.34884,0.00425,0.00591,-0.00449
0.67638,0.64866,-0.34891,0.00341,0.00708,-0.00444
0.67631,0.64871,-0.34896,-2e-05,0.01063,-0.0032
0.67624,0.64878,-0.34896,0.00093,0.01061,-0.00279
0.67621,0.6488,-0.34897,0.00271,0.00903,-0.00645
0.6762,0.6488,-0.349,0.00238,0.00836,-0.00492
0.67618,0.64881,-0.34903,0.00422,0.00784,-0.00643
0.67615,0.6488,-0.3491,0.00519,0.00711,-0.00513
0.67607,0.64884,-0.34918,0.0051,0.00669,-0.00485
0.67595,0.6489,-0.3493,0.00341,0.00451,-0.00505
0.67582,0.64893,-0.3495,0.00486,0.00558,-0.00279
0.67572,0.64893,-0.34969,0.00703,0.00955,-0.00567
0.67566,0.64892,-0.34982,0.0035,0.00521,-0.00314
0.67566,0.64889,-0.34988,0.00266,0.00391,-0.00428
0.67567,0.64886,-0.34993,0.00289,0.00588,-0.00719
0.67567,0.64885,-0.34995,0.00454,0.01108,-0.00733
0.67568,0.64886,-0.34989,0.00163,0.01004,-0.0031
0.6757,0.64888,-0.34982,-0.00095,0.00762,-0.00528
0.67571,0.64891,-0.34975,0.00129,0.00982,-0.00268
0.67574,0.64891,-0.34971,0.00482,0.00717,-0.00677
0.67576,0.64889,-0.34969,0.00357,0.00629,-0.0041
0.67579,0.64888,-0.34965,0.0013,0.00476,-0.00606
0.67585,0.64885,-0.34959,0.00509,0.00824,-0.00562
0.67594,0.64883,-0.34946,0.0062,0.00829,-0.00508
0.67602,0.64882,-0.34931,0.0027,0.0048,-0.00378
0.67605,0.64884,-0.34921,0.00205,0.00663,-0.00496
0.67608,0.64885,-0.34915,0.00421,0.00945,-0.00336
0.67609,0.64886,-0.3491,0.00413,0.00692,-0.00308
0.67613,0.64886,-0.34904,0.00355,0.00648,-0.00409
0.67616,0.64885,-0.349,0.00574,0.00573,-0.00381
0.67618,0.64884,-0.34897,0.00491,0.00544,-0.00338
0.6762,0.64883,-0.34895,0.00335,0.00537,-0.0031
0.6762,0.64882,-0.34897,0.00451,0.00482,-0.00311
0.67619,0.6488,-0.34904,0.00544,0.00799,-0.0044
0.6762,0.64877,-0.34907,0.00401,0.00785,-0.00583
0.67622,0.64875,-0.34906,0.00037,0.00865,-0.00354
0.67625,0.64874,-0.34902,0.00071,0.006,-0.0041
0.67625,0.64875,-0.34901,0.00465,0.00902,-0.00442
0.67624,0.64875,-0.34901,0.0041,0.01221,-0.006
0.67623,0.64878,-0.34898,0.00475,0.0073,-0.00557
0.67625,0.64879,-0.34893,0.00497,0.00769,-0.00487
0.67625,0.64882,-0.34888,0.00521,0.00579,-0.00459
0.67624,0.64886,-0.34882,0.0038,0.00638,-0.00508
0.67622,0.64892,-0.34876,0.00489,0.00682,-0.00552
0.67619,0.64898,-0.34868,0.0052,0.00835,-0.0057
0.67616,0.64903,-0.34866,0.00196,0.00476,-0.00429
0.67613,0.64907,-0.34863,0.00174,0.00669,-0.00414
0.67609,0.64916,-0.34855,0.00301,0.00951,-0.00597
0.6761,0.64921,-0.34842,0.00444,0.00784,-0.0021
0.67614,0.64926,-0.34825,0.00116,0.00827,-0.00308
0.67618,0.64931,-0.3481,0.00259,0.00929,-0.00396
0.67622,0.64933,-0.34799,0.00643,0.00729,-0.00591
0.67623,0.64936,-0.3479,0.00512,0.00736,-0.00598
0.67624,0.64938,-0.34785,0.00553,0.00619,-0.00568
0.67627,0.64938,-0.34779,0.00431,0.00476,-0.00272
0.67632,0.64937,-0.34771,0.00438,0.00795,-0.00457
0.67635,0.64938,-0.34763,0.00517,0.00971,-0.00255
0.6764,0.64937,-0.34756,0.00404,0.01108,-0.00484
0.67645,0.64937,-0.34746,0.00336,0.00787,-0.00502
0.6765,0.6494,-0.34731,-0.00215,0.00645,-0.00449
0.67656,0.64946,-0.34708,0.00522,0.01033,-0.00644
0.67656,0.64951,-0.34697,0.00546,0.00773,-0.00402
0.67654,0.64957,-0.3469,0.00743,0.00648,-0.00431
0.67653,0.6496,-0.34688,0.00745,0.00645,-0.00433
0.67648,0.64965,-0.34688,0.00461,0.00623,-0.00302
0.67645,0.64972,-0.34682,0.00515,0.00447,-0.00413
0.67643,0.64978,-0.34673,0.00556,0.0065,-0.00404
0.67642,0.64985,-0.34661,0.00432,0.00582,-0.00614
0.6764,0.64993,-0.34652,0.00521,0.00875,-0.00405
0.67636,0.65001,-0.34643,0.00157,0.01016,-0.0046
0.67634,0.65008,-0.34633,0.00131,0.01053,-0.00633
0.67634,0.65015,-0.34623,0.00158,0.00951,-0.00448
0.67632,0.65021,-0.34614,0.00311,0.00648,-0.00469
0.67635,0.65026,-0.346,0.00398,0.00804,-0.00365
0.67636,0.65031,-0.34587,0.00178,0.00923,-0.00714
0.67637,0.65035,-0.34578,0.00678,0.00632,-0.00451
0.67638,0.65037,-0.34573,0.00443,0.00819,-0.0058
0.67639,0.65039,-0.34565,0.00529,0.00877,-0.00313
0.67642,0.65041,-0.34557,0.00536,0.00526,-0.00639
0.67644,0.65041,-0.34554,0.00549,0.00326,-0.00448
0.67646,0.65039,-0.34554,0.00221,0.00766,-0.00577
0.67647,0.65041,-0.34547,0.00116,0.00963,-0.00444
0.67652,0.65041,-0.34536,0.00304,0.01035,-0.00257
0.67662,0.65039,-0.34521,0.00362,0.01153,-0.00269
0.67668,0.65036,-0.34515,0.00516,0.00914,-0.00399
0.67675,0.65029,-0.34515,0.00391,0.00978,-0.00409
0.67678,0.65021,-0.34524,0.00489,0.00697,-0.00398
0.67679,0.65015,-0.34533,0.00505,0.00624,-0.00289
0.67684,0.65009,-0.34535,0.005,0.00666,-0.00186
0.6769,0.65003,-0.34534,0.00411,0.00632,-0.00279
0.67695,0.64997,-0.34536,0.00496,0.0093,-0.00222
0.67698,0.6499,-0.34543,0.00568,0.00876,-0.00469
0.67695,0.64987,-0.34554,0.00438,0.00755,-0.00287
0.6769,0.64985,-0.34569,0.00471,0.00944,-0.00221
0.67684,0.64982,-0.34586,0.0052,0.00744,-0.00573
0.67679,0.64978,-0.34603,0.00392,0.00679,-0.00334
0.67674,0.64974,-0.34621,0.00606,0.00647,-0.0061
0.67667,0.64973,-0.34635,0.00605,0.00687,-0.00574
0.67659,0.64974,-0.3465,0.00451,0.00607,-0.00453
0.67651,0.64973,-0.34666,0.00323,0.00774,-0.00528
0.67645,0.64971,-0.34682,0.0045,0.00737,-0.00302
0.67641,0.64969,-0.34695,0.0042,0.00714,-0.0036
0.67636,0.64966,-0.34711,0.00274,0.00861,-0.00472
0.67629,0.64963,-0.34728,0.00305,0.00645,-0.00579
0.67621,0.64963,-0.34744,0.00366,0.00778,-0.00539
0.67617,0.64961,-0.34757,0.00303,0.00907,-0.00706
0.67612,0.64961,-0.34766,0.0036,0.00962,-0.00316
0.6761,0.64958,-0.34774,0.00226,0.00569,-0.00465
0.6761,0.64956,-0.34779,0.00011,0.00771,-0.00388
0.67609,0.64954,-0.34785,0.00495,0.00825,-0.00574
0.67607,0.64952,-0.34792,0.00566,0.00683,-0.00418
0.67604,0.64953,-0.34795,0.00422,0.0078,-0.00248
0.67602,0.64954,-0.34799,0.00433,0.00569,-0.00303
0.67598,0.64953,-0.34809,0.0046,0.00556,-0.00406
0.67591,0.64952,-0.34822,0.0065,0.00835,-0.00516
0.67586,0.64953,-0.3483,0.00465,0.01006,-0.00346
0.67586,0.64952,-0.34833,0.00588,0.00723,-0.00374
0.67586,0.6495,-0.34837,0.00418,0.00933,-0.00516
0.67587,0.64948,-0.34839,0.00313,0.00903,-0.004
0.67586,0.64946,-0.34844,0.00372,0.00756,-0.00463
0.67585,0.64943,-0.34851,0.00396,0.00682,-0.00518
0.67584,0.64941,-0.34856,0.00284,0.0058,-0.00575
0.67583,0.64942,-0.34858,0.00572,0.00637,-0.00686
0.67585,0.64941,-0.34855,0.00733,0.00652,-0.00624
0.67587,0.64939,-0.34854,0.00613,0.00539,-0.00419
0.67589,0.64938,-0.34853,0.00359,0.00594,-0.00483
0.67588,0.64939,-0.34852,0.00313,0.00768,-0.00348
0.67588,0.6494,-0.34852,0.00485,0.00792,-0.00474
0.67589,0.64941,-0.34849,0.00405,0.00976,-0.00077
0.67588,0.64941,-0.34849,0.00452,0.0094,-0.00413
0.67588,0.64942,-0.34849,0.00312,0.0081,-0.00334
0.67588,0.64942,-0.34848,0.00459,0.00832,-0.00391
0.67588,0.64943,-0.34845,0.00257,0.00651,-0.00526
0.6759,0.64943,-0.34842,0.00545,0.00731,-0.00676
0.67591,0.64943,-0.34839,0.00382,0.00436,-0.00418
0.67591,0.64944,-0.34837,0.00686,0.00669,-0.00499
0.67593,0.64943,-0.34836,0.00438,0.00745,-0.00313
0.67593,0.64941,-0.3484,0.00223,0.00955,-0.00376
0.67593,0.6494,-0.34843,0.00408,0.00878,-0.00509
0.67593,0.64938,-0.34845,0.00403,0.0085,-0.00487
0.67594,0.64937,-0.34846,0.00355,0.00775,-0.00161
0.67595,0.64936,-0.34844,0.0037,0.00892,-0.00417
0.67597,0.64936,-0.34842,0.00379,0.00659,-0.00351
0.67597,0.64936,-0.34842,0.00598,0.00866,-0.00522
0.67595,0.64937,-0.34842,0.00804,0.009,-0.00325
0.67593,0.64939,-0.34843,0.00502,0.00888,-0.00295
0.67591,0.6494,-0.34846,0.00557,0.00531,-0.00313
0.67587,0.6494,-0.34854,0.00536,0.00888,-0.00443
0.67583,0.6494,-0.34861,0.00583,0.01008,-0.00409
0.67583,0.6494,-0.34861,0.00291,0.00952,-0.00456
0.6759,0.64935,-0.34857,0.00373,0.01024,-0.0056
0.67597,0.6493,-0.34853,0.00149,0.00958,-0.00454
0.67603,0.64924,-0.34851,0.00482,0.00661,-0.00607
0.67607,0.64922,-0.34847,0.00732,0.00498,-0.00532
0.67609,0.64922,-0.34844,0.00454,0.00449,-0.0033
0.67609,0.64927,-0.34835,0.00654,0.00422,-0.00385
0.6761,0.64932,-0.34824,0.00546,0.00707,-0.00283
0.6761,0.64936,-0.34816,0.00478,0.00489,-0.0029
0.6761,0.64939,-0.3481,0.00356,0.00631,-0.00229
0.67609,0.64944,-0.34804,0.00417,0.00722,-0.0041
0.67606,0.64949,-0.34798,0.00388,0.00674,-0.00346
0.67603,0.64957,-0.3479,0.00415,0.00997,-0.00407
0.67599,0.64965,-0.34783,0.00315,0.01015,-0.00576
0.67596,0.64971,-0.34777,0.00673,0.00875,-0.00387
0.67593,0.64977,-0.34772,0.00315,0.00689,-0.0036
0.67589,0.64986,-0.34764,0.00381,0.00647,-0.00414
0.67588,0.64992,-0.34755,0.00315,0.00572,-0.00422
0.67587,0.64997,-0.34747,0.00638,0.008,-0.00474
0.67588,0.65,-0.3474,0.00813,0.00682,-0.00433
0.67588,0.65003,-0.34734,0.00594,0.00501,-0.00465
0.67588,0.65007,-0.34726,0.00317,0.00622,-0.00374
0.67591,0.6501,-0.34715,0.00325,0.0079,-0.00434
0.67593,0.65014,-0.34703,0.00542,0.00881,-0.00322
0.67596,0.65019,-0.34688,0.00269,0.00745,-0.00501
0.67601,0.6502,-0.34676,0.00363,0.00796,-0.00451
0.67606,0.65022,-0.34663,0.0024,0.00822,-0.00305
0.6761,0.65024,-0.34652,0.00549,0.00821,-0.00468
0.67614,0.65026,-0.34641,0.00385,0.00885,-0.00631
0.67618,0.65027,-0.3463,0.005,0.00657,-0.00401
0.67621,0.65028,-0.34622,0.00485,0.0054,-0.00275
0.67624,0.65029,-0.34614,0.00389,0.00588,-0.00388
0.67626,0.65033,-0.34605,0.00714,0.00833,-0.0043
0.67627,0.65039,-0.34589,0.00468,0.00918,-0.00356
0.67634,0.65043,-0.34569,0.00364,0.00857,-0.00145
0.6764,0.65046,-0.3455,0.00545,0.00702,-0.00498
0.67642,0.65052,-0.34536,0.00725,0.0041,-0.00523
0.67643,0.65057,-0.34526,0.00526,0.00459,-0.00538
0.6764,0.65062,-0.34522,0.00488,0.00501,-0.00665
0.67638,0.65066,-0.34518,0.00549,0.00727,-0.00568
0.67638,0.6507,-0.3451,0.00435,0.00745,-0.00713
0.67641,0.65073,-0.34499,0.00367,0.01069,-0.00372
0.67644,0.65074,-0.34491,0.00312,0.01279,-0.00219
0.67647,0.65075,-0.34483,0.00513,0.00962,-0.00403
0.67647,0.65076,-0.34481,0.00253,0.01042,-0.00355
0.67647,0.65076,-0.34482,0.00245,0.01062,-0.00452
0.6765,0.65072,-0.34483,0.00476,0.00955,-0.00563
0.67655,0.65064,-0.34488,0.00439,0.01009,-0.00192
0.67659,0.65059,-0.34492,0.00788,0.00789,-0.0044
0.67663,0.65049,-0.34501,0.00652,0.0048,-0.00419
0.67665,0.65041,-0.34513,0.00618,0.00622,-0.00448
0.67664,0.65035,-0.34525,0.00449,0.00503,-0.00166
0.67664,0.6503,-0.34536,0.00554,0.00542,-0.00439
0.67663,0.65024,-0.34547,0.00588,0.00692,-0.0044
0.67661,0.65019,-0.3456,0.00596,0.00757,-0.0033
0.6766,0.65016,-0.3457,0.00404,0.00783,-0.0046
0.67657,0.65014,-0.34578,0.00515,0.00734,-0.0023
0.67653,0.65011,-0.34591,0.00485,0.0091,-0.0037
0.67649,0.65008,-0.34605,0.00248,0.00641,-0.00479
0.67644,0.65006,-0.34619,0.00432,0.00697,-0.00485
0.67641,0.65,-0.34636,0.00404,0.00756,-0.00383
0.67638,0.64994,-0.34654,0.00438,0.00781,-0.00612
0.67634,0.64988,-0.34672,0.00428,0.0077,-0.00312
0.6763,0.64982,-0.34692,0.00437,0.00979,-0.0047
0.67624,0.64977,-0.34713,0.00421,0.00819,-0.00315
0.67618,0.64971,-0.34736,0.00484,0.00297,-0.00478
0.67612,0.64965,-0.34759,0.00485,0.00743,-0.00565
0.67606,0.64961,-0.34776,0.00486,0.0108,-0.00409
0.67604,0.64959,-0.34786,0.00316,0.0064,-0.00468
0.67606,0.64955,-0.34789,0.00404,0.00606,-0.00443
0.67603,0.64954,-0.34797,0.00683,0.00595,-0.00447
0.67597,0.64955,-0.34804,0.0065,0.00474,-0.00234
0.67592,0.64958,-0.34812,0.00766,0.00532,-0.0029
0.67585,0.64959,-0.34822,0.00576,0.00652,-0.00515
0.67579,0.6496,-0.34832,0.00639,0.0088,-0.00256
0.67574,0.64962,-0.34838,0.00535,0.00786,-0.00186
0.67571,0.64962,-0.34844,0.00392,0.00877,-0.00281
0.67567,0.64961,-0.34852,0.00203,0.00915,-0.00164
0.67562,0.64962,-0.3486,0.00222,0.01153,-0.00517
0.67558,0.64961,-0.3487,0.0014,0.01038,-0.00359
0.67555,0.64959,-0.34879,0.00197,0.00885,-0.00478
0.67556,0.64956,-0.34884,0.00473,0.00723,-0.00744
0.67559,0.64951,-0.34887,0.00342,0.00581,-0.00406
0.6756,0.64947,-0.34893,0.00523,0.00628,-0.00533
0.6756,0.64945,-0.34896,0.00333,0.00371,-0.00382
0.67561,0.64943,-0.34898,0.00399,0.00495,-0.00162
0.67561,0.64943,-0.34898,0.00671,0.00537,-0.00532
0.67563,0.64944,-0.34893,0.00559,0.00684,-0.00291
0.67564,0.64947,-0.34885,0.00386,0.00552,-0.00473
0.67566,0.64949,-0.34878,0.00275,0.00751,-0.00373
0.67567,0.64952,-0.34871,0.00298,0.00818,-0.0032
0.67567,0.64955,-0.34864,0.00336,0.0094,-0.00363
0.67567,0.64958,-0.34858,0.00542,0.01026,-0.00208
0.67566,0.64961,-0.34856,0.00412,0.01053,-0.00232
0.67565,0.64961,-0.34856,0.00568,0.00883,-0.00249
0.67566,0.6496,-0.34858,0.00464,0.00992,-0.00182
0.67565,0.64959,-0.3486,0.00463,0.00538,-0.00236
0.67564,0.64957,-0.34866,0.00565,0.00923,-0.0034
0.67562,0.64956,-0.34873,0.00579,0.00732,-0.00398
0.67559,0.64956,-0.34879,0.00529,0.00743,-0.0034
0.67554,0.64954,-0.34891,0.00497,0.00456,-0.00299
0.67546,0.64953,-0.34908,0.00402,0.00689,-0.00325
0.67538,0.64955,-0.34921,0.00304,0.01003,-0.00419
0.67535,0.64955,-0.34926,0.00258,0.00868,-0.00368
0.67537,0.64954,-0.34923,0.00221,0.00767,-0.00474
0.67541,0.64953,-0.34919,0.00129,0.00562,-0.00721
0.67543,0.64953,-0.34915,0.00498,0.00818,-0.00601
0.67544,0.64953,-0.34913,0.00483,0.00585,-0.00281
0.67546,0.64951,-0.34912,0.00418,0.0052,-0.0027
0.67548,0.64951,-0.34909,0.00477,0.00691,-0.00281
0.67551,0.6495,-0.34904,0.00604,0.0087,-0.00499
0.67555,0.64949,-0.34899,0.00394,0.0089,-0.00269
0.67559,0.64947,-0.34895,0.0017,0.00688,-0.00232
0.67563,0.64944,-0.34893,0.00377,0.00954,-0.00173
0.67566,0.64941,-0.34892,0.00552,0.01096,-0.00514
0.67568,0.64939,-0.34891,0.00199,0.00695,-0.00508
0.6757,0.64937,-0.34893,0.00297,0.00665,-0.00343
0.67572,0.64934,-0.34895,0.00664,0.00806,-0.00312
0.67573,0.6493,-0.34899,0.00689,0.00398,-0.00312
0.67574,0.64929,-0.349,0.00457,0.00519,-0.00411
0.67575,0.64928,-0.34899,0.00546,0.00732,-0.00397
0.67575,0.64927,-0.34901,0.00537,0.00681,-0.00449
0.67573,0.6493,-0.34899,0.00279,0.008,-0.00448
0.6757,0.64936,-0.34894,0.00481,0.00831,-0.00642
0.67568,0.64939,-0.34892,0.00728,0.00963,-0.0042
0.67565,0.64944,-0.34889,0.00349,0.00947,-0.00371
0.67564,0.64947,-0.34885,0.00387,0.00669,-0.0036
0.67563,0.6495,-0.34881,0.00398,0.0085,-0.00075
0.67561,0.64954,-0.34878,0.00433,0.00809,-0.00344
0.6756,0.64958,-0.34873,0.00374,0.00756,-0.00412
0.67558,0.6496,-0.34872,0.00661,0.00719,-0.00373
0.67556,0.64963,-0.34871,0.00486,0.00752,-0.00453
0.67554,0.64966,-0.3487,0.00545,0.00768,-0.00321
0.67551,0.64968,-0.34872,0.00467,0.00845,-0.00463
0.67549,0.6497,-0.34872,0.00152,0.00843,-0.00301
0.67549,0.64972,-0.34868,0.00365,0.00813,-0.00501
0.67549,0.64974,-0.34864,0.00375,0.00766,-0.00526
0.67549,0.64977,-0.34858,0.00478,0.00894,-0.00309
0.67548,0.6498,-0.34853,0.00236,0.00852,-0.00395
0.67549,0.64983,-0.34846,0.004,0.00779,-0.00633
0.67552,0.64985,-0.34838,0.00393,0.00545,-0.00251
0.67553,0.64987,-0.3483,0.00337,0.00694,-0.00489
0.67555,0.64992,-0.34818,0.00455,0.00897,-0.0042
0.6756,0.64996,-0.34801,0.0046,0.00687,-0.00346
0.67569,0.65,-0.34777,0.0063,0.0073,-0.00467
0.67575,0.65005,-0.34756,0.00679,0.00574,-0.00373
0.67579,0.65009,-0.34741,0.00768,0.00496,-0.00208
0.6758,0.65013,-0.34731,0.00477,0.00675,-0.0014
0.67581,0.65016,-0.34722,0.00342,0.00643,-0.00496
0.67585,0.65018,-0.34713,0.00522,0.00812,-0.00531
0.67588,0.65021,-0.34699,0.00573,0.00793,-0.00392
0.67591,0.65027,-0.34683,0.00376,0.00775,-0.00261
0.67594,0.65033,-0.34666,0.00372,0.01045,-0.00383
0.67596,0.65038,-0.34653,0.0024,0.01057,-0.00031
0.67598,0.65042,-0.34642,0.00374,0.00724,-0.00367
0.67598,0.65046,-0.34635,0.00584,0.00746,-0.00476
0.67598,0.65049,-0.34629,0.00748,0.00649,-0.00518
0.67597,0.65054,-0.34621,0.00529,0.00529,-0.00508
0.67596,0.65057,-0.34616,0.00695,0.00676,-0.00506
0.67595,0.65061,-0.34612,0.00546,0.00612,-0.00327
0.67592,0.65064,-0.3461,0.00465,0.00568,-0.00209
0.67591,0.65067,-0.34608,0.00297,0.00437,-0.00411
0.67586,0.65071,-0.34609,0.00598,0.00534,-0.00354
0.67585,0.65073,-0.34609,0.00506,0.00772,-0.00245
0.67583,0.65074,-0.34611,0.00364,0.01185,-0.00363
0.67584,0.65073,-0.34611,0.00312,0.01036,-0.0049
0.67586,0.6507,-0.34612,0.00361,0.00848,-0.0033
0.67588,0.65066,-0.34615,0.00408,0.01097,-0.00434
0.67591,0.6506,-0.34622,0.00428,0.00751,-0.00269
0.67593,0.65054,-0.34629,0.00299,0.00608,-0.00218
0.67597,0.65046,-0.34636,0.00335,0.00635,-0.00259
0.676,0.65038,-0.34646,0.00616,0.00833,-0.00334
0.67601,0.6503,-0.34658,0.00499,0.00662,-0.00437
0.67602,0.65021,-0.34672,0.00407,0.00556,-0.00376
0.67604,0.65014,-0.34683,0.0071,0.00746,-0.00209
0.67604,0.65006,-0.34697,0.0055,0.00785,-0.00311
0.67602,0.64999,-0.34713,0.00321,0.0056,-0.00086
0.67598,0.64994,-0.3473,0.00523,0.00702,-0.00436
0.67595,0.64991,-0.34742,0.005,0.00811,-0.00448
0.6759,0.64989,-0.34756,0.00459,0.00769,-0.00441
0.67584,0.64986,-0.34773,0.00299,0.00432,-0.00619
0.67575,0.64986,-0.34792,0.00421,0.00818,-0.00378
0.67566,0.64986,-0.34807,0.0035,0.00863,-0.0046
0.67563,0.64985,-0.34815,0.00196,0.00631,-0.00187
0.67563,0.64983,-0.34821,0.00365,0.00856,-0.00371
0.67562,0.64981,-0.34824,0.00492,0.00567,-0.00479
0.67559,0.6498,-0.34834,0.00558,0.00514,-0.00419
0.67556,0.64979,-0.34842,0.00572,0.00625,-0.00333
0.67552,0.64979,-0.34848,0.00468,0.0043,-0.00349
0.67553,0.64976,-0.34852,0.00425,0.00751,-0.00423
0.67551,0.64975,-0.34857,0.00419,0.00905,-0.00345
0.67551,0.64974,-0.34859,0.00392,0.00682,-0.00378
0.67552,0.64974,-0.34859,0.00133,0.00629,-0.00278
0.67551,0.64974,-0.3486,0.0048,0.01146,-0.00695
0.67551,0.64972,-0.34863,0.00436,0.01011,-0.00337
0.67551,0.6497,-0.34868,0.00154,0.0078,-0.00218
0.67553,0.64963,-0.34877,0.00293,0.00245,-0.00524
0.67557,0.64953,-0.34886,0.00584,0.00855,-0.00434
0.67561,0.64946,-0.34893,0.00759,0.00925,-0.00481
0.67563,0.64945,-0.34891,0.00595,0.00598,-0.00345
0.67562,0.64948,-0.34886,0.00306,0.00445,-0.0018
0.67557,0.64954,-0.34884,0.00738,0.00664,-0.00205
0.67552,0.64959,-0.34886,0.00847,0.00517,-0.003
0.67546,0.6496,-0.34895,0.00517,0.00665,-0.00522
0.67538,0.6496,-0.34911,0.00445,0.00708,-0.00338
0.67529,0.64963,-0.34924,0.00393,0.00562,-0.00188
0.6752,0.64969,-0.34929,0.00411,0.00775,-0.00148
0.67512,0.64977,-0.34929,0.00234,0.00518,-0.00457
0.67506,0.64984,-0.34928,0.00307,0.00996,-0.00515
0.67501,0.64988,-0.3493,0.00459,0.0093,-0.00301
0.67501,0.64985,-0.34935,0.00237,0.00489,-0.00684
0.67504,0.64978,-0.34942,0.00066,0.00481,-0.00378
0.67508,0.64973,-0.34945,0.00368,0.00658,-0.00554
0.67516,0.64968,-0.34939,0.00302,0.00652,-0.00425
0.67527,0.64963,-0.34928,1e-05,0.00632,-0.00292
0.67538,0.64957,-0.34916,0.00214,0.00529,-0.00408
0.6755,0.64949,-0.34908,0.00436,0.00726,-0.00459
0.67559,0.64945,-0.34899,0.00626,0.0066,-0.00386
0.67568,0.64943,-0.34884,0.00401,0.00517,-0.00423
0.67575,0.64943,-0.3487,0.00409,0.00667,-0.00507
0.67581,0.64944,-0.34857,0.00533,0.00856,-0.00384
0.67584,0.64949,-0.34843,0.00539,0.0085,-0.00266
0.67587,0.64954,-0.34827,0.00455,0.0065,-0.00138
0.67592,0.64957,-0.34813,0.00523,0.00711,-0.00188
0.67594,0.64961,-0.348,0.00682,0.0078,-0.00205
0.67593,0.64966,-0.34793,0.00925,0.00675,-0.00306
0.67589,0.64971,-0.34791,0.00528,0.00535,-0.00237
0.67584,0.64979,-0.34787,0.00464,0.00511,-0.0034
0.67579,0.64987,-0.34781,0.00474,0.00573,-0.00379
0.67577,0.64992,-0.34774,0.00301,0.00942,-0.00461
0.67581,0.6499,-0.34773,5e-05,0.00928,-0.00632
0.67587,0.64982,-0.34774,-0.00294,0.01061,-0.00261
0.67594,0.64974,-0.34777,1e-05,0.01251,-0.00227
0.67603,0.64965,-0.34777,0.00067,0.01135,-0.00358
0.67612,0.64957,-0.34774,-0.00116,0.00773,-0.00721
0.67622,0.64949,-0.34768,0.00447,0.00548,-0.00434
0.67633,0.64943,-0.34757,0.00734,0.00335,-0.00509
0.67645,0.6494,-0.34742,0.00895,0.0045,-0.00442
0.67654,0.64937,-0.34728,0.00803,0.00116,-0.00427
0.67663,0.64934,-0.34716,0.00742,0.00308,-0.00358
0.67666,0.64935,-0.3471,0.00842,0.00319,-0.00207
0.67664,0.64937,-0.34709,0.00462,0.00776,-0.00274
0.67661,0.64938,-0.34712,0.00482,0.00938,-0.00156
0.67659,0.64938,-0.34718,0.00317,0.01296,-0.00162
0.67656,0.64939,-0.34721,0.00243,0.0115,-0.00255
0.67653,0.64941,-0.34723,0.00226,0.01002,3e-05
0.67653,0.64939,-0.34726,0.00073,0.01037,-0.00166
0.67654,0.64937,-0.34729,0.00361,0.00816,-0.00394
0.67653,0.64935,-0.34734,0.00427,0.01063,-0.0056
0.67653,0.64934,-0.34737,0.00435,0.00775,-0.00314
0.67653,0.64929,-0.34746,0.00076,0.00133,-0.00324
0.67659,0.64916,-0.34758,0.00356,0.00109,-0.00314
0.67672,0.64895,-0.34772,0.00094,0.00291,-0.00682
0.67695,0.6487,-0.34774,0.00527,0.00668,-0.00589
0.67718,0.64859,-0.3475,0.00928,0.01752,-0.00362
0.67741,0.64851,-0.34719,-0.00321,0.01309,-8e-05
0.67772,0.64829,-0.347,-0.00072,0.01438,-0.00407
0.67808,0.64789,-0.34704,0.00338,0.01707,-0.00445
0.67836,0.64755,-0.34713,0.01634,0.02883,-0.00253
0.67857,0.64731,-0.34717,0.00306,0.01487,-0.00376
0.67878,0.64706,-0.34723,-0.00831,0.00834,-0.00502
0.67899,0.64669,-0.34751,-0.00662,0.01395,-0.01128
0.67915,0.64621,-0.3481,0.00223,0.0145,-0.01278
0.67924,0.64576,-0.34876,0.00964,0.01391,-0.00991
0.67934,0.64535,-0.3493,-0.00573,-0.00064,-0.00141
0.67957,0.64489,-0.34971,-0.00327,-0.00914,-0.01043
0.6797,0.64447,-0.35023,0.00448,-0.00333,-0.01003
0.67965,0.64415,-0.35092,0.02427,0.00473,-0.00495
0.67946,0.64386,-0.3518,0.02445,0.00755,-0.00067
0.67919,0.64359,-0.35282,0.0206,0.00325,0.00533
0.67893,0.64331,-0.35385,0.01422,-0.00691,0.0055
0.67858,0.64309,-0.35491,0.01957,-0.00196,0.00394
0.67799,0.643,-0.35621,0.01972,-0.00231,0.00684
0.67721,0.64298,-0.35771,0.02448,0.00404,0.0081
0.67624,0.64299,-0.35952,0.02374,0.01529,0.00426
0.67519,0.64294,-0.36159,0.01831,0.01548,0.00277
0.67403,0.64281,-0.36396,0.00721,0.00154,-0.00164
0.67255,0.64281,-0.36671,-0.00298,-0.00859,-0.00696
0.67079,0.64298,-0.36962,-0.00677,-0.00863,-0.00621
0.66893,0.64328,-0.37246,-0.0076,-0.00795,-0.00948
0.66705,0.64369,-0.3751,0.00031,0.00073,-0.0099
0.66502,0.64416,-0.3779,0.00396,0.00574,-0.00996
0.66305,0.64476,-0.38031,-0.00065,0.00351,-0.00875
0.66108,0.64533,-0.38278,-7e-05,-0.00024,-0.00129
0.65908,0.64581,-0.38541,0.00178,-0.00049,-0.00622
0.65711,0.64635,-0.38785,0.00073,-0.00318,-6e-05
0.65525,0.647,-0.38991,0.00274,-0.00648,0.00515
0.653,0.64765,-0.39261,0.00109,-0.01783,-0.01018
0.65062,0.64852,-0.39511,-0.00136,-0.01334,-0.00426
0.64821,0.64965,-0.39721,0.00497,-0.00205,-0.00144
0.64563,0.65082,-0.39949,0.0071,0.00066,-0.00267
0.64359,0.65215,-0.40061,0.00624,0.0028,-0.01262
0.64118,0.65329,-0.4026,0.0194,0.0059,-0.00644
0.63851,0.65444,-0.40497,0.02079,0.00344,-0.00518
0.63625,0.65569,-0.40651,0.01765,-0.00248,-0.0204
0.63335,0.65682,-0.40921,0.00892,0.00114,0.00415
0.63046,0.65809,-0.41162,0.01208,0.0111,-0.00607
0.62791,0.65951,-0.41323,-0.00825,0.00215,0.00619
0.62509,0.66097,-0.41517,-0.00391,-0.00086,-0.0055
0.62201,0.66244,-0.41746,-0.00375,0.00088,-0.00736
0.61911,0.6639,-0.41945,-0.00685,0.00932,-0.00771
0.61635,0.66524,-0.42138,-0.00263,0.01692,0.00718
0.61348,0.66679,-0.42312,-0.0032,0.01655,-0.00629
0.61081,0.66831,-0.42459,-0.00964,0.0117,-0.00594
0.60904,0.66966,-0.425,0.01183,0.01439,0.00389
0.60637,0.6707,-0.42716,0.00444,0.01328,-0.00668
0.60362,0.67161,-0.42962,-0.00352,0.0147,-0.00348
0.60143,0.67253,-0.43125,-0.00093,0.01738,0.00512
0.59889,0.67331,-0.43355,-0.00479,0.01623,-0.00761
0.59673,0.67398,-0.4355,-0.00579,0.01715,-0.0051
0.59478,0.6747,-0.43705,-0.00028,0.01674,-0.0076
0.593,0.67535,-0.43846,-0.00431,0.0033,-0.00507
0.59136,0.67594,-0.43977,-0.01197,-0.00704,-0.01
0.58985,0.67654,-0.44086,-0.0101,-0.00856,-0.01
0.58873,0.6774,-0.44104,0.00816,0.01088,-0.04754
0.58802,0.6788,-0.43984,0.00384,-0.0021,-0.01291
0.58705,0.68038,-0.43869,-0.00313,-0.00421,-0.01072
0.58641,0.68207,-0.43692,-0.00565,-0.0039,-0.01191
0.58607,0.68385,-0.43458,-0.00557,0.00203,-0.0123
0.58599,0.68584,-0.43155,-0.00764,0.00833,-0.0102
0.58607,0.68806,-0.42788,-0.01799,0.00542,-0.00329
0.58648,0.69029,-0.42371,-0.01765,0.00908,-0.00802
0.58725,0.69235,-0.41926,0.00285,0.0219,-0.00939
0.58812,0.69437,-0.41467,0.00646,0.02251,-0.00911
0.5891,0.69631,-0.41001,0.00282,0.02226,-0.00141
0.59017,0.69812,-0.40536,0.00737,0.02333,0.00888
0.59122,0.69978,-0.40094,0.00753,0.01766,0.00822
0.59231,0.7013,-0.39665,0.02158,0.02019,0.01028
0.59353,0.70273,-0.39228,0.00159,0.02276,0.00582
0.59493,0.70398,-0.3879,0.00773,0.03464,0.00904
0.59662,0.70491,-0.38359,0.01129,0.03002,0.01472
0.59838,0.70557,-0.37961,0.01508,0.01469,0.01981
0.60011,0.70609,-0.37589,0.02009,0.01417,0.00633
0.60172,0.70644,-0.37265,0.01664,0.02922,0.00241
0.60336,0.70624,-0.37037,0.04096,0.06205,0.00443
0.6043,0.70478,-0.37161,0.03132,0.04833,0.01932
0.60431,0.7025,-0.3759,0.02731,-0.00978,-0.00087
0.60368,0.70056,-0.38049,0.01813,-0.0437,-0.00336
0.60255,0.69916,-0.38483,0.00942,-0.02521,0.00579
0.60141,0.69798,-0.38876,0.00663,-0.00163,0.01856
0.60046,0.69673,-0.39244,0.00706,0.02404,0.00346
0.59948,0.69546,-0.39617,-0.01078,-0.01286,-0.01465
0.59844,0.69427,-0.39982,0.01106,0.00098,0.01075
0.59744,0.69326,-0.40305,0.01784,0.00674,0.00119
0.59649,0.69244,-0.40587,0.00856,0.01442,-0.0045
0.59566,0.69153,-0.40862,-0.00764,0.00856,-0.0108
0.59479,0.6905,-0.41161,-0.01074,0.01091,-0.0158
0.59384,0.6893,-0.41499,-0.01046,0.0115,-0.0168
0.59288,0.68802,-0.41846,-0.00732,0.01489,-0.0188
0.59203,0.68664,-0.42193,-0.01209,0.01822,-0.02236
0.59121,0.68515,-0.42549,-0.00936,0.0201,-0.01562
0.59042,0.68351,-0.4292,-0.00713,0.01737,-0.01326
0.58967,0.68182,-0.4329,-0.00269,0.00887,-0.01646
0.58893,0.68026,-0.43635,0.00261,0.0036,-0.01448
0.58822,0.67882,-0.43954,0.00037,0.00084,-0.00526
0.58771,0.67738,-0.44244,-0.00513,-0.00486,-0.00069
0.58746,0.67582,-0.44514,0.00699,-0.01475,-0.00373
0.58732,0.67428,-0.44765,0.01607,-0.02178,-0.00585
0.58724,0.6729,-0.44983,0.01876,-0.02008,-0.00261
0.58726,0.67182,-0.45142,0.01917,-0.00733,-0.0057
0.5874,0.67101,-0.45244,0.01533,-0.00538,-0.00354
0.58767,0.67046,-0.45291,0.01164,-0.00598,0.00398
0.58802,0.67013,-0.45294,-0.00405,-0.00805,-0.00135
0.5885,0.66979,-0.45282,-0.00372,-0.01441,-0.00989
0.58896,0.66958,-0.45253,0.00732,-0.00748,-0.01331
0.58929,0.66972,-0.45189,0.01456,0.00386,-0.00952
0.58954,0.67009,-0.45103,0.01163,0.01033,-0.00504
0.58982,0.67048,-0.45007,0.00729,0.01232,-0.00516
0.58999,0.67079,-0.44938,0.0072,0.01422,-0.00165
0.58994,0.67096,-0.44919,-0.00205,0.01735,-0.0033
0.58963,0.67096,-0.44961,0.00318,0.01784,-0.00335
0.58918,0.67077,-0.45048,0.00893,0.01632,-0.00146
0.58856,0.67059,-0.45155,0.00938,0.02561,0.00024
0.58774,0.67035,-0.45298,0.00443,0.02624,-0.00161
0.58671,0.66989,-0.45498,0.00373,0.02347,0.00314
0.58553,0.66921,-0.4575,-0.00367,0.02194,0.00181
0.58424,0.66829,-0.46048,-0.01373,0.01239,-0.01066
0.58297,0.66711,-0.46378,-0.00525,0.00888,-0.01951
0.5816,0.66621,-0.4668,0.00949,0.00692,-0.02307
0.58022,0.66568,-0.46926,-0.00211,-0.00148,-0.01903
0.57913,0.66535,-0.47108,-0.00764,-0.00417,-0.01565
0.57825,0.66516,-0.47242,-0.00949,-0.00435,-0.01493
0.57757,0.66501,-0.47345,-0.02221,-0.00603,-0.01381
0.57712,0.66485,-0.47425,-0.02029,-0.00605,-0.01738
0.5768,0.6647,-0.47483,-0.00566,-0.00027,-0.02273
0.57642,0.66493,-0.47497,0.00793,-0.00207,-0.0217
0.57609,0.66556,-0.4745,0.00606,-0.00993,-0.01551
0.57596,0.66645,-0.47339,0.00115,-0.00753,-0.01058
0.57599,0.66752,-0.47185,0.00192,-0.00313,-0.01202
0.57607,0.6687,-0.47007,0.00825,0.00139,-0.00784
0.57613,0.66995,-0.46822,0.0111,0.00527,-0.00523
0.57611,0.67117,-0.4665,0.00278,0.00666,0.00115
0.57619,0.67228,-0.4648,0.00211,0.00593,0.00124
0.57627,0.67336,-0.46313,0.00635,0.00843,-0.00195
0.57628,0.67446,-0.46151,0.01088,0.01466,0.0007
0.57618,0.67556,-0.46001,0.01162,0.01703,-0.00272
0.57598,0.67661,-0.45872,0.00925,0.01635,-0.00393
0.57561,0.67762,-0.4577,0.00743,0.01346,-0.00161
0.57513,0.67855,-0.45694,0.00426,0.01156,-0.00214
0.57463,0.67934,-0.45639,-0.00953,0.00519,-0.00539
0.57424,0.68001,-0.45587,-0.00849,0.00644,-0.00604
0.574,0.68063,-0.45526,0.00117,0.00436,-0.00859
0.57389,0.68124,-0.45449,0.01345,0.00321,-0.00579
0.57384,0.68197,-0.45345,0.00929,0.00297,-0.00321
0.57381,0.68268,-0.45241,0.00607,0.00376,-0.00263
0.57374,0.68334,-0.4515,0.00849,0.00103,-0.00522
0.5736,0.68403,-0.45064,0.00868,0.00262,-0.00669
0.57342,0.68474,-0.44979,0.00446,0.00565,-0.00381
0.57324,0.68542,-0.44897,0.00584,0.00832,-0.0042
0.57303,0.68602,-0.44834,0.00833,0.0089,-0.00645
0.57274,0.68656,-0.44787,0.00865,0.00745,-0.00697
0.57244,0.6871,-0.44743,0.0089,0.00675,-0.00603
0.57215,0.68765,-0.44696,0.01031,0.00875,-0.00409
0.57183,0.68822,-0.4465,0.00277,0.00279,6e-05
0.57152,0.68877,-0.44603,0.00094,0.00553,-0.00217
0.57117,0.68921,-0.44582,0.00732,0.00919,-0.004
0.57078,0.68954,-0.44579,0.00629,0.01584,-0.00585
0.57039,0.68981,-0.44589,0.00071,0.01498,-0.00354
0.57006,0.68999,-0.44603,-0.00036,0.01389,-0.00286
0.56977,0.6901,-0.44622,-0.00329,0.00993,-0.00464
0.56943,0.69015,-0.44658,-0.0096,0.00475,-0.00179
0.56915,0.69004,-0.44711,-0.01341,0.00677,-0.00591
0.56892,0.68978,-0.44779,7e-05,0.0109,-0.01362
0.56859,0.6896,-0.44849,0.01082,0.01009,-0.01347
0.56826,0.6895,-0.44906,0.0075,0.00283,-0.0087
0.56803,0.68942,-0.44947,0.00634,0.00174,-0.0091
0.56785,0.68941,-0.44972,0.00754,0.00059,-0.00728
0.5677,0.68946,-0.44984,0.00935,0.00413,-0.00469
0.56755,0.68951,-0.44996,0.00887,0.00532,-0.00269
0.5673,0.68952,-0.45025,0.00884,0.00636,-0.00061
0.56697,0.68949,-0.45071,0.00908,0.00839,-0.00107
0.56666,0.68943,-0.4512,0.00637,0.00884,-0.00088
0.56643,0.68934,-0.45163,0.0025,0.0082,-0.00318
0.5662,0.68919,-0.45213,0.00417,0.00974,-0.00693
0.56585,0.68905,-0.45278,0.00654,0.0093,-0.007
0.56544,0.68895,-0.45345,0.00898,0.00691,-0.00688
0.56498,0.68888,-0.45413,0.01069,0.00913,-0.0038
0.56437,0.68879,-0.45502,0.0077,0.01201,-0.003
0.56361,0.68864,-0.45619,0.00161,0.00947,-0.00411
0.56287,0.68836,-0.45753,0.00251,0.00696,-0.00377
0.56221,0.68798,-0.4589,0.00281,0.00767,-0.00507
0.56161,0.6876,-0.46021,-0.0039,-0.00753,-0.01435
0.56102,0.68737,-0.46126,-0.00773,-0.00093,-0.01883
0.56058,0.68746,-0.46167,-0.01488,0.00349,-0.02198
0.56057,0.68763,-0.46142,-0.02276,0.00467,-0.01755
0.56111,0.68771,-0.46066,-0.02539,-0.00455,-0.0156
0.56215,0.68779,-0.45927,-0.01879,-0.00548,-0.01688
0.56352,0.68802,-0.45724,-0.0182,-0.01508,-0.02729
0.56569,0.68863,-0.45363,-0.02025,-0.01742,-0.03331
0.5686,0.68979,-0.44819,-0.01318,-0.011,-0.02979
0.57162,0.69112,-0.44226,-0.01165,0.00077,-0.00661
0.57453,0.69241,-0.43644,-0.00072,5e-05,-0.00339
0.57734,0.69363,-0.43075,0.00814,0.00792,-0.00233
0.58008,0.69471,-0.42529,0.01637,0.01748,0.00366
0.58262,0.69546,-0.42057,0.0187,0.01589,0.00663
0.5848,0.69582,-0.41692,0.0161,0.01533,0.01873
0.5867,0.69582,-0.41426,0.01571,0.01594,0.01548
0.58838,0.69556,-0.41231,0.0174,0.01753,0.013
0.58991,0.6951,-0.41089,0.0195,0.01887,0.01346
0.59128,0.69452,-0.40991,0.02206,0.01537,0.01214
0.59252,0.69381,-0.40931,0.01686,0.00515,0.00764
0.5936,0.69302,-0.40908,0.01414,0.00687,0.00561
0.59455,0.69216,-0.40916,0.01339,0.0194,-0.00359
0.59532,0.69122,-0.40963,0.00646,0.01906,-0.00596
0.59595,0.69018,-0.41047,0.00583,0.0201,-0.00512
0.59643,0.68907,-0.41162,-0.00429,0.01503,-0.011
0.59679,0.68795,-0.41297,-0.01322,0.0147,-0.01501
0.5971,0.68684,-0.41438,-0.01664,0.0147,-0.01596
0.59744,0.68581,-0.41559,-0.02387,0.01282,-0.02136
0.59792,0.68485,-0.41648,-0.02515,0.01232,-0.02184
0.59859,0.68395,-0.417,-0.02225,0.00669,-0.02983
0.59943,0.68322,-0.41699,-0.00994,0.00228,-0.03069
0.60045,0.68274,-0.41632,-0.00525,-0.00607,-0.02361
0.60162,0.68248,-0.41504,-0.00374,-0.01051,-0.01771
0.60291,0.68239,-0.41332,-0.00107,-0.00946,-0.01489
0.60428,0.68244,-0.41122,0.00378,-0.0071,-0.01018
0.60572,0.68264,-0.40877,0.00959,-0.004,-0.00555
0.60724,0.68291,-0.40605,0.0114,-0.00487,0.00043
0.60882,0.68324,-0.40313,0.02259,-0.00828,0.00917
0.61037,0.68366,-0.40005,0.02531,-0.00771,0.00959
0.61184,0.68404,-0.39715,0.02742,-0.00141,0.0105
0.61311,0.68429,-0.39475,0.0282,0.00768,0.01668
0.61412,0.68446,-0.39289,0.03118,0.0118,0.01654
0.61483,0.68457,-0.39158,0.03109,0.01251,0.0122
0.61519,0.68461,-0.39095,0.02647,0.02102,0.01387
0.61521,0.68451,-0.39107,0.02138,0.02282,0.01178
0.61497,0.68426,-0.39189,0.00762,0.02282,0.00644
0.61458,0.68383,-0.39326,0.0005,0.01895,-0.00365
0.61409,0.68332,-0.39492,0.00194,0.01654,-0.00891
0.61354,0.68279,-0.39668,-0.00201,0.00958,-0.01232
0.61296,0.6823,-0.39841,-0.00353,0.01021,-0.01454
0.6124,0.68186,-0.40002,-0.00196,0.00854,-0.01504
0.61183,0.68146,-0.40157,0.00063,0.00451,-0.01521
0.61127,0.68106,-0.40309,-0.0019,0.00033,-0.01167
0.61077,0.68069,-0.40449,-0.00225,-0.00102,-0.01032
0.61033,0.68036,-0.40571,-0.00486,-0.00189,-0.01169
0.60998,0.68011,-0.40664,-0.0043,-0.00221,-0.01264
0.60975,0.67998,-0.40721,-0.00369,0.00246,-0.01523
0.60964,0.67995,-0.40742,0.00048,0.00567,-0.01106
0.60968,0.67999,-0.40731,-0.00137,0.00477,-0.00936
0.60987,0.68005,-0.40691,-0.00418,0.00332,-0.00735
0.61019,0.68013,-0.40631,-0.00331,0.00298,-0.00812
0.61055,0.68024,-0.40558,-0.00209,0.00487,-0.00779
0.61089,0.68037,-0.40484,-0.00131,0.00662,-0.00684
0.61125,0.68049,-0.40409,-0.00055,0.00566,-0.00529
0.61159,0.68063,-0.40334,0.00384,0.00396,-0.00825
0.61189,0.68076,-0.40267,0.00846,0.00869,-0.01038
0.61212,0.68087,-0.40214,0.00904,0.01125,-0.00446
0.61233,0.68091,-0.40174,0.00374,0.0113,0.00115
0.61256,0.68093,-0.40136,-0.00141,0.00928,0.00245
0.61277,0.68094,-0.40102,-0.0115,0.00711,-0.00307
0.61305,0.68084,-0.40076,-0.0057,0.01828,-0.01179
0.61324,0.68078,-0.40057,-0.00043,0.02135,-0.01407
0.6134,0.68081,-0.40029,0.00904,0.01472,-0.01085
0.61354,0.6809,-0.39991,0.0114,0.00485,-0.00683
0.61365,0.68108,-0.39944,0.01,0.00186,-0.0054
0.61366,0.68133,-0.39901,0.01046,0.00375,-0.00085
0.61353,0.68161,-0.39871,0.01439,0.00789,0.00169
0.61326,0.6819,-0.39864,0.01853,0.01329,0.00679
0.61286,0.68216,-0.3988,0.01241,0.01426,0.00555
0.61239,0.68237,-0.39917,0.01241,0.00952,0.00663
0.61187,0.68257,-0.39963,0.01763,0.00492,0.00164
0.61127,0.68279,-0.40018,0.01621,-0.00093,-2e-05
0.6106,0.68302,-0.40079,0.01163,-0.00774,-0.00283
0.60994,0.68324,-0.40143,0.01269,-0.00596,-0.00549
0.6093,0.68353,-0.4019,0.01436,-0.00688,-0.00743
0.60864,0.68394,-0.40221,0.00908,-0.00864,-0.00861
0.60796,0.68446,-0.40236,0.0081,-0.0102,-0.00679
0.60725,0.68511,-0.40232,0.00829,-0.00829,-0.00462
0.60652,0.68585,-0.40215,0.01593,0.0004,-0.00587
0.60571,0.68671,-0.4019,0.01967,0.00516,-0.00433
0.60483,0.68766,-0.40161,0.01325,0.01827,0.00594
0.60387,0.68862,-0.40142,0.00713,0.02076,0.00688
0.60281,0.68945,-0.40159,0.00097,0.01807,0.00988
0.60168,0.69012,-0.40212,-0.0122,0.02452,-0.00367
0.60058,0.69063,-0.4029,-0.01746,0.02695,-0.0066
0.59968,0.69094,-0.4037,-0.01408,0.01983,-0.01034
0.59893,0.6912,-0.40438,-0.01831,0.01507,-0.02404
0.59826,0.69143,-0.40496,-0.01671,0.01238,-0.0195
0.59771,0.69168,-0.40536,-0.0169,0.0087,-0.02013
0.5973,0.69186,-0.40566,-0.02422,0.00393,-0.01956
0.59703,0.6919,-0.40598,-0.02146,0.0056,-0.01846
0.59688,0.6918,-0.40638,-0.01402,0.00654,-0.02058
0.59686,0.69172,-0.40653,-0.0001,0.01262,-0.0156
0.59702,0.69181,-0.40614,0.00596,0.01223,-0.00876
0.59735,0.69199,-0.40537,0.00396,0.0031,0.00026
0.59775,0.69217,-0.40446,-0.00118,-0.00563,0.0016
0.59824,0.69239,-0.40337,-0.00345,-0.00373,0.00267
0.59882,0.69258,-0.40216,0.00228,0.00166,-3e-05
0.59947,0.69277,-0.40087,0.01224,0.00509,-0.00421
0.60011,0.69297,-0.39957,0.01583,0.01094,-0.00215
0.60067,0.69317,-0.39837,0.01565,0.00878,0.0011
0.60114,0.69334,-0.39737,0.00974,0.00817,0.00069
0.60153,0.69348,-0.39653,0.00835,0.00823,-0.00058
0.60183,0.6936,-0.39586,0.00725,0.00962,-0.00355
0.60202,0.69373,-0.39535,0.00968,0.011,-0.0004
0.60212,0.69386,-0.39497,0.00275,0.0132,-0.00151
0.60212,0.69395,-0.39481,0.00264,0.01398,-0.00297
0.60208,0.69398,-0.39481,0.00492,0.01327,-0.00456
0.60198,0.69401,-0.39492,0.00979,0.01188,-0.00311
0.60182,0.69407,-0.39506,0.01136,0.0114,-0.00281
0.60161,0.69415,-0.39524,0.00658,0.00873,0.00022
0.60132,0.69422,-0.39555,0.0035,0.00473,-0.00051
0.601,0.69422,-0.39603,0.00351,0.00358,0.00164
0.60066,0.69419,-0.39661,0.0044,0.00755,-0.00246
0.60029,0.69419,-0.39717,0.00518,0.00923,-0.00601
0.59997,0.69421,-0.39761,0.0036,0.00595,-0.00523
0.59976,0.69425,-0.39787,0.00145,0.00419,-0.00783
0.59964,0.69426,-0.39802,0.00138,0.00545,-0.00642
0.59957,0.69427,-0.39811,0.0004,0.00523,-0.0049
0.59953,0.69424,-0.39823,-0.00088,0.00806,-0.00419
0.59954,0.69415,-0.39837,7e-05,0.00501,-0.00522
0.59959,0.69404,-0.39849,0.00024,0.00628,-0.00535
0.59967,0.69394,-0.39854,0.00174,0.0092,-0.00764
0.59977,0.6939,-0.39846,0.00277,0.00932,-0.00791
0.59992,0.69386,-0.3983,0.00216,0.00968,-0.0072
0.60014,0.69378,-0.39812,-0.00172,0.00485,-0.00343
0.60043,0.69362,-0.39795,0.00304,0.00823,-0.00251
0.60069,0.69346,-0.39783,0.00609,0.00986,-0.00416
0.60094,0.69331,-0.39772,0.00094,0.00841,-0.00363
0.60123,0.69312,-0.39761,0.00051,0.00961,-0.00682
0.60153,0.6929,-0.39755,0.00317,0.00983,-0.0059
0.60182,0.69265,-0.39753,0.00638,0.00945,-0.00728
0.60209,0.69241,-0.39755,0.00508,0.00841,-0.00233
0.60235,0.69218,-0.39756,0.00176,0.00373,-0.00054
0.60258,0.69195,-0.39761,0.00263,0.00608,-0.00243
0.60277,0.69177,-0.39764,0.0035,0.00661,-0.00329
0.60297,0.69163,-0.39758,0.00368,0.01163,-0.00597
0.60314,0.69152,-0.39751,0.00174,0.00837,-0.00525
0.6033,0.69141,-0.39745,0.00311,0.00857,-0.00514
0.60347,0.69131,-0.39737,-0.00087,0.00673,-0.0035
0.60367,0.6912,-0.39726,0.00157,0.00792,-0.00465
0.60386,0.69111,-0.39711,0.0022,0.00756,-0.00654
0.60403,0.69106,-0.39695,0.00223,0.00674,-0.00614
0.60417,0.69106,-0.39674,0.00389,0.00442,-0.00496
0.6043,0.69106,-0.39655,0.0044,0.00831,-0.00316
0.60446,0.69101,-0.39639,0.00281,0.00731,-0.0035
0.60463,0.69091,-0.39631,0.0047,0.00759,-0.00184
0.60481,0.6908,-0.39622,0.00507,0.00804,-0.00417
0.60497,0.69075,-0.39606,0.00691,0.01001,-0.00367
0.60514,0.69073,-0.39584,0.00315,0.01113,-4e-05
0.60529,0.69073,-0.3956,0.00373,0.01117,0.00046
0.60541,0.69069,-0.39548,0.00219,0.00865,-0.00074
0.6055,0.69061,-0.3955,0.00522,0.01015,-0.00198
0.60553,0.6905,-0.39565,0.0037,0.01137,-0.00427
0.60548,0.69043,-0.39584,0.00376,0.01076,-0.00599
0.60543,0.6904,-0.39597,-0.00069,0.00601,-0.00481
0.60537,0.69041,-0.39604,0.00106,0.00763,-0.00465
0.60532,0.69043,-0.39608,0.00147,0.00719,-0.00752
0.60526,0.69046,-0.39612,0.003,0.00909,-0.00735
0.60519,0.69052,-0.39614,0.00294,0.00818,-0.00338
0.60513,0.69058,-0.39611,0.0008,0.00809,-0.00272
0.60508,0.69065,-0.39607,-0.00019,0.00684,-0.00321
0.60506,0.69072,-0.39598,0.00076,0.00795,-0.00494
0.60503,0.69082,-0.39585,0.00315,0.00935,-0.00348
0.60498,0.69094,-0.39572,0.00221,0.00853,-0.00122
0.60493,0.69102,-0.39565,0.00365,0.00992,-0.00281
0.60489,0.6911,-0.39557,0.00486,0.01207,-0.00117
0.60484,0.69117,-0.39553,0.00247,0.01096,-0.002
0.6048,0.69122,-0.39551,0.00094,0.00945,-0.00282
0.60478,0.69124,-0.39551,0.00095,0.0092,-0.00297
0.60474,0.69127,-0.39551,0.00355,0.01143,-0.00384
0.60465,0.69135,-0.39551,0.00201,0.00894,-0.00438
0.60458,0.69138,-0.39556,0.00261,0.00709,-0.00535
0.60451,0.69139,-0.39564,0.00503,0.00745,-0.00253
0.60444,0.69141,-0.39573,0.0039,0.0077,-0.00398
0.60435,0.69143,-0.39582,0.00221,0.00661,-0.00273
0.60426,0.69147,-0.39589,0.00188,0.01039,-0.00277
0.60415,0.69151,-0.396,-0.0003,0.00939,-0.00472
0.60405,0.69155,-0.39606,-0.00089,0.01145,-0.00466
0.60399,0.69161,-0.39605,-0.00167,0.01272,-0.00329
0.60396,0.69168,-0.39598,-0.00145,0.01063,-0.00255
0.60395,0.69173,-0.39592,-0.00065,0.0104,-0.00376
0.60393,0.69176,-0.39588,-0.00154,0.01081,-0.00102
0.60391,0.6918,-0.39586,-0.00034,0.00949,-0.00491
0.60386,0.69186,-0.39582,-0.00017,0.00945,-0.00216
0.60382,0.69194,-0.39573,0.00305,0.01036,-0.0019
0.60376,0.69206,-0.39563,0.00258,0.00779,-0.00215
0.60373,0.69216,-0.3955,0.00226,0.00725,-0.0022
0.60374,0.69224,-0.39534,0.00235,0.00849,-0.00053
0.60379,0.6923,-0.39517,0.00136,0.00975,-0.00197
0.60385,0.69235,-0.39498,-0.00183,0.01165,-0.00098
0.60394,0.69237,-0.39481,0.00312,0.01248,0.0003
0.60405,0.69236,-0.39466,-0.00017,0.01264,-0.00056
0.60418,0.69231,-0.39454,0.00109,0.0109,0.00029
0.60432,0.69222,-0.39449,0.00053,0.01211,-0.00051
0.60444,0.69211,-0.3945,0.00203,0.01395,-0.00298
0.60455,0.69198,-0.39456,-0.00111,0.01255,-0.00093
0.60463,0.69185,-0.39465,0.00088,0.0119,-0.00206
0.60471,0.69175,-0.39472,0.00026,0.01093,-0.00418
0.6048,0.69164,-0.39478,0.00012,0.00928,-0.00181
0.60488,0.69156,-0.39478,0.0021,0.00927,-0.00167
0.60497,0.69148,-0.39479,0.00264,0.01013,-0.00024
0.60504,0.69141,-0.39481,0.00132,0.01213,-0.00027
0.60511,0.69132,-0.39486,-0.00033,0.01023,-0.00405
0.6052,0.69121,-0.39491,0.00144,0.00802,-0.00302
0.60531,0.6911,-0.39494,0.00327,0.00984,-0.00101
0.6054,0.69102,-0.39493,0.00195,0.00873,-0.00129
0.60549,0.69095,-0.39492,0.00161,0.00915,-0.00282
0.60556,0.6909,-0.3949,0.00483,0.013,-0.00244
0.60557,0.69089,-0.3949,0.00214,0.01324,0.0002
0.60561,0.69086,-0.39489,0.0019,0.00954,-0.00136
0.60569,0.69079,-0.39489,0.00193,0.01105,-0.00181
0.60577,0.69072,-0.39489,0.00062,0.01377,-0.00239
0.60585,0.69064,-0.39489,-0.00191,0.0119,-0.00199
0.60596,0.69054,-0.39491,-0.00043,0.00782,-0.00328
0.60605,0.69046,-0.39493,0.00327,0.00795,-0.0027
0.60612,0.69041,-0.3949,0.00367,0.00944,-0.00102
0.6062,0.69039,-0.3948,0.00436,0.00867,-0.00104
0.60627,0.69041,-0.39466,0.00233,0.01009,0.00076
0.60633,0.69042,-0.39455,0.00204,0.0131,3e-05
0.6064,0.69041,-0.39446,0.00241,0.01314,0.00309
0.60647,0.69038,-0.39442,-0.00123,0.01308,0.0008
0.60652,0.69033,-0.39442,-0.0029,0.01311,0.00174
0.60654,0.69027,-0.39449,-0.00083,0.01523,-4e-05
0.60655,0.69019,-0.39463,0.00098,0.01485,-0.00149
0.60653,0.69012,-0.39477,0.00167,0.01245,0.00039
0.60649,0.69005,-0.39495,0.00268,0.01344,-0.00126
0.60647,0.68995,-0.39516,0.00254,0.00954,-0.00212
0.60646,0.68985,-0.39536,0.00438,0.00682,-0.00189
0.60646,0.68978,-0.39548,0.00191,0.00616,-0.00289
0.60646,0.68973,-0.39557,0.0038,0.00832,-0.00046
0.60642,0.68972,-0.39564,0.0041,0.00947,0.00019
0.60638,0.68972,-0.39571,0.00278,0.01338,0.00033
0.60635,0.68971,-0.39577,0.00229,0.01196,-0.0014
0.60633,0.68968,-0.39585,2e-05,0.01215,-0.00013
0.60634,0.68965,-0.39589,-0.00016,0.01297,0.00086
0.60637,0.68961,-0.39592,-0.00137,0.0118,-0.00139
0.60638,0.68959,-0.39593,0.00091,0.01108,-0.00255
0.60638,0.68959,-0.39594,0.00129,0.01239,-0.00177
0.60633,0.68962,-0.39596,0.00237,0.0129,-0.0008
0.60627,0.68963,-0.39604,0.00308,0.01345,0.00074
0.60622,0.68959,-0.39617,0.00135,0.01305,0.0021
0.60615,0.68953,-0.39638,0.00334,0.01167,0.00143
0.60609,0.68947,-0.39659,0.00126,0.01456,0.00052
0.606,0.68945,-0.39676,0.00149,0.01384,-0.00077
0.60592,0.68945,-0.39687,-0.00183,0.01259,-0.00216
0.60586,0.68945,-0.39696,-0.00267,0.01302,-0.00234
0.6058,0.68944,-0.39708,0.00048,0.01352,-0.00305
0.60573,0.68942,-0.39722,0.00258,0.01295,-0.00181
0.60568,0.68941,-0.39731,0.00132,0.0092,-0.00276
0.60567,0.68942,-0.39731,0.0009,0.00925,-0.00151
0.60567,0.68946,-0.39724,0.00299,0.01238,4e-05
0.60568,0.6895,-0.39715,0.00112,0.01373,0.00129
0.60572,0.68949,-0.3971,-0.00056,0.01278,0.00168
0.60576,0.68947,-0.39709,0.00502,0.00728,0.00199
0.60574,0.68948,-0.39711,0.01058,0.00202,0.00058
0.60559,0.68961,-0.3971,0.01518,0.00707,0.001
0.60536,0.68981,-0.39712,0.0105,0.01619,0.00331
0.60508,0.68991,-0.39737,0.01012,0.01931,0.00361
0.60477,0.68993,-0.3978,0.00976,0.01253,0.00722
0.60447,0.68998,-0.39816,0.00614,0.00931,0.01057
0.60418,0.69012,-0.39836,0.00055,0.01192,0.00618
0.60382,0.69031,-0.39858,0.00333,0.01397,0.00587
0.60334,0.69052,-0.39895,0.00293,0.01901,0.00188
0.60274,0.69069,-0.39956,-0.00267,0.02153,0.00105
0.60207,0.69077,-0.40043,-0.00334,0.02256,-0.00071
0.6014,0.69076,-0.40147,-0.0056,0.01712,-0.00488
0.60073,0.69066,-0.40262,-0.0046,0.01477,-0.00607
0.6001,0.6905,-0.40384,-0.00862,0.01841,-0.00556
0.5995,0.69036,-0.40497,-0.00641,0.00931,-0.00607
0.59899,0.69026,-0.4059,-0.00634,0.00777,-0.00284
0.59856,0.69028,-0.40649,-0.00523,0.00552,-0.00721
0.5982,0.6904,-0.40683,-0.00747,0.00836,-0.00576
0.59793,0.69049,-0.40705,-0.00624,0.01079,-0.0086
0.59776,0.69056,-0.40719,-0.00088,0.00571,-0.00684
0.59771,0.69065,-0.40711,0.00167,0.00477,-0.00286
0.59778,0.69082,-0.40672,-0.00071,0.00614,0.00158
0.59791,0.69104,-0.40615,0.00106,0.01137,0.00153
0.59804,0.69124,-0.40562,0.0025,0.01535,0.00172
0.59815,0.69142,-0.40515,-0.00019,0.01516,0.00563
0.59827,0.6916,-0.40466,2e-05,0.0163,0.00421
0.59843,0.69176,-0.40416,0.00124,0.02126,0.00344
0.59854,0.69188,-0.40378,0.00435,0.01858,0.00817
0.59861,0.69192,-0.40361,0.00408,0.01665,0.00645
0.59861,0.69191,-0.40362,0.00335,0.01379,0.00369
0.59855,0.69192,-0.40371,0.00187,0.01205,0.00387
0.59847,0.69189,-0.40387,0.00246,0.01279,-0.0008
0.59839,0.69183,-0.4041,0.00179,0.0158,-0.00089
0.59829,0.69176,-0.40436,-0.00063,0.01504,0.00312
0.59824,0.69167,-0.40459,-0.00127,0.01726,0.00257
0.59825,0.69155,-0.40478,-0.00032,0.01142,0.00499
0.59828,0.69143,-0.40495,-0.00311,0.01159,0.00242
0.5983,0.69128,-0.40517,-0.00328,0.01483,-0.00165
0.59827,0.69113,-0.40547,-0.00039,0.0172,-0.0019
0.59828,0.69094,-0.40578,-0.00174,0.01317,-0.00133
0.59838,0.69072,-0.406,0.00042,0.00811,0.00032
0.59853,0.69056,-0.40605,0.00189,0.00789,0.00097
0.59871,0.69048,-0.40592,0.00268,0.00883,0.00266
0.59892,0.69044,-0.40569,0.00153,0.01139,0.00333
0.59912,0.69041,-0.40545,-0.00062,0.01177,0.00369
0.59933,0.69036,-0.40522,-6e-05,0.01172,0.00331
0.59959,0.69033,-0.40488,0.00063,0.01223,0.00367
0.5999,0.69032,-0.40444,0.00018,0.01155,0.00353
0.6002,0.6903,-0.40403,-0.0009,0.01321,0.00296
0.6005,0.69026,-0.40365,-0.00132,0.01395,0.00081
0.6008,0.69022,-0.40327,-0.0006,0.0105,0.00059
0.6011,0.69022,-0.40282,0.00226,0.01242,0.00074
0.60142,0.69023,-0.40233,0.00351,0.01261,0.0021
0.60172,0.69024,-0.40186,0.00385,0.01495,0.00271
0.60197,0.69027,-0.40143,0.00684,0.01409,0.00486
0.60214,0.6903,-0.40113,0.00806,0.01885,0.00523
0.60217,0.69031,-0.40107,0.00792,0.02328,0.00771
0.60209,0.69026,-0.40127,0.00371,0.02306,0.00948
0.60199,0.69006,-0.40176,0.00181,0.02243,0.00922
0.60184,0.68979,-0.40245,0.00071,0.02123,0.00875
0.60167,0.68949,-0.40322,0.00096,0.01513,0.00321
0.60146,0.68919,-0.40404,0.001,0.01342,0.00135
0.60121,0.6889,-0.40492,-0.00044,0.0116,-0.00142
0.60091,0.6886,-0.40586,-0.00265,0.00975,-0.0041
0.60065,0.68836,-0.40666,-0.00385,0.00508,-0.00621
0.60047,0.68819,-0.40721,-0.00462,0.00318,-0.00788
0.60044,0.68812,-0.40737,-0.00523,-0.00118,-0.00628
0.60057,0.68813,-0.40717,-0.00544,0.00041,-0.00534
0.60081,0.68824,-0.40662,-0.00165,0.00596,-0.00418
0.60116,0.68843,-0.40579,0.00228,0.01685,0.00287
0.60158,0.68864,-0.4048,0.00366,0.02139,0.00617
0.60199,0.68881,-0.40392,0.00311,0.02686,0.01136
0.60234,0.68882,-0.40337,0.00189,0.03002,0.01388
0.60264,0.68862,-0.40326,-0.00177,0.02894,0.01123
0.60292,0.68828,-0.40343,-0.00411,0.02492,0.00636
0.60317,0.68788,-0.40374,-0.00782,0.0217,0.00688
0.60338,0.68747,-0.40411,0.00091,0.01826,-0.00316
0.60354,0.68706,-0.40459,0.00589,0.01404,-0.00251
0.60368,0.68665,-0.40505,0.00845,0.00458,-0.00038
0.60386,0.68626,-0.40544,0.0056,-0.00098,0.00014
0.60407,0.68597,-0.40564,0.00248,0.00233,0.00141
0.60431,0.68578,-0.4056,0.00268,0.00302,0.0009
0.60457,0.68568,-0.40538,0.00177,0.00826,0.00283
0.60481,0.68563,-0.40509,0.00281,0.01194,0.00601
0.60501,0.68563,-0.40481,0.00412,0.01078,0.00445
0.60517,0.68566,-0.40453,0.00323,0.01117,0.00626
0.60527,0.68572,-0.40425,0.00543,0.01209,0.00273
0.60537,0.6858,-0.40397,0.00839,0.01308,0.00448
0.60544,0.68592,-0.40367,0.00839,0.01305,0.00549
0.60543,0.68611,-0.40336,0.00931,0.01369,0.00413
0.60533,0.68635,-0.40311,0.00638,0.01595,0.00263
0.60514,0.6866,-0.40297,0.0048,0.01586,0.00285
0.60492,0.68679,-0.40297,-0.00494,0.02062,0.00439
0.60472,0.68693,-0.40303,-0.00724,0.02442,0.00196
0.60457,0.68699,-0.40316,-0.00708,0.02436,0.0021
0.60443,0.68702,-0.40331,-0.00491,0.02459,-0.00158
0.60426,0.68702,-0.40356,-0.00395,0.01755,-0.00134
0.60406,0.68698,-0.40394,-0.0036,0.01536,0.00201
0.60386,0.68691,-0.40435,-0.00164,0.01275,0.00129
0.60368,0.68682,-0.40477,-0.00377,0.01333,0.00022
0.6036,0.68667,-0.40515,-0.00409,0.01437,0.0008
0.60361,0.68652,-0.40539,-0.00179,0.00965,0.00255
0.60371,0.68639,-0.40546,0.00144,0.01251,0.00333
0.60386,0.68626,-0.40546,0.00194,0.01264,0.0021
0.60399,0.68612,-0.4055,0.0014,0.01371,0.00141
0.60407,0.68598,-0.40561,-0.00043,0.01504,0.00125
0.60418,0.68585,-0.40567,-0.00169,0.01398,-3e-05
0.60436,0.68573,-0.40562,-0.00275,0.01256,0.0016
0.60456,0.68561,-0.40551,-0.00024,0.01223,-0.00128
0.60478,0.68554,-0.40529,-0.00131,0.01268,0.00325
0.60505,0.6855,-0.40498,0.0016,0.01609,0.00575
0.60531,0.68546,-0.40465,0.00336,0.01437,0.00572
0.60554,0.68541,-0.40439,0.00482,0.01424,0.00319
0.60572,0.68539,-0.40416,0.00143,0.01598,0.00421
0.60584,0.6854,-0.40397,0.00182,0.01747,-0.00138
0.60589,0.68544,-0.4038,-0.00094,0.01768,-1e-05
0.60592,0.68553,-0.4036,-0.00473,0.01776,0.00103
0.60597,0.68565,-0.40333,-0.00574,0.0188,-0.00076
0.60605,0.68575,-0.40305,-0.00425,0.0189,0.00154
0.60611,0.68584,-0.40279,0.00143,0.01642,0.00519
0.60613,0.68594,-0.4026,0.00219,0.01458,0.00404
0.60609,0.68601,-0.40254,0.00602,0.01256,0.00444
0.60597,0.68609,-0.40259,0.00551,0.01092,0.00525
0.6058,0.68618,-0.40269,0.00764,0.00927,0.00773
0.6056,0.68631,-0.40278,0.00552,0.01593,0.00809
0.60537,0.68642,-0.40294,0.0028,0.01598,0.00525
0.60514,0.68651,-0.40311,0.00151,0.01588,0.00316
0.60495,0.68663,-0.4032,-0.0055,0.01437,0.00148
0.60476,0.68679,-0.40322,-0.0063,0.01462,0.0026
0.60464,0.68695,-0.40312,-0.00659,0.01644,0.00139
0.60454,0.6871,-0.403,-0.0035,0.01781,-0.00185
0.60443,0.68726,-0.4029,-0.00061,0.01827,0.00055
0.60429,0.6874,-0.40288,-0.0017,0.02072,0.00173
0.60412,0.68749,-0.40298,-0.00151,0.01796,0.0022
0.60396,0.68752,-0.40318,0.00157,0.01566,0.00622
0.60378,0.68751,-0.40345,0.00285,0.01384,0.00591
0.60358,0.68749,-0.40379,0.00356,0.01397,0.00803
0.60333,0.68749,-0.40415,0.00612,0.01476,0.00834
0.60303,0.68751,-0.40457,0.00612,0.01386,0.00642
0.60271,0.68752,-0.40502,0.00408,0.01347,0.00814
0.60241,0.68752,-0.40548,0.00084,0.01663,0.00472
0.60212,0.68749,-0.40596,-0.00124,0.01328,0.00132
0.60178,0.68746,-0.40653,-0.00115,0.01254,-1e-05
0.60141,0.68742,-0.40712,-0.00551,0.01422,-0.00208
0.60105,0.68741,-0.40768,-0.00727,0.015,-0.0033
0.60075,0.6874,-0.40813,-0.00662,0.01195,-0.00331
0.60051,0.68746,-0.40838,-0.00905,0.01173,-0.00049
0.60039,0.68756,-0.4084,-0.00704,0.0134,-0.0024
0.60039,0.68768,-0.40819,-0.00817,0.01314,-0.00074
0.6005,0.68783,-0.40778,-0.00963,0.01557,-0.00271
0.60068,0.68798,-0.40726,-0.00809,0.01591,-0.00067
0.60095,0.68808,-0.4067,-0.00642,0.0143,-0.00114
0.60125,0.68814,-0.40615,-0.00544,0.01578,0.00029
0.60157,0.68818,-0.4056,0.00122,0.01841,0.00372
0.60194,0.68818,-0.40506,0.00262,0.01606,0.00553
0.60227,0.68821,-0.40452,0.00488,0.01542,0.00688
0.60253,0.68828,-0.40402,0.00578,0.01454,0.0077
0.60273,0.68835,-0.40358,0.00266,0.01813,0.01035
0.60292,0.68834,-0.40332,0.00234,0.01942,0.0101
0.60306,0.68828,-0.40323,0.00145,0.01898,0.00654
0.60316,0.68816,-0.40327,-0.00148,0.01903,0.00614
0.60329,0.68797,-0.4034,-0.00223,0.01949,0.00583
0.60342,0.68772,-0.40363,-0.00243,0.02003,0.00352
0.60352,0.68744,-0.40396,0.00056,0.01749,0.00625
0.60356,0.68719,-0.40433,-1e-05,0.01395,0.00427
0.60353,0.68696,-0.40476,-0.00036,0.01314,0.00287
0.60343,0.68677,-0.40523,0.00308,0.01146,0.0045
0.6033,0.6866,-0.40571,0.00298,0.00679,0.00191
0.60321,0.68646,-0.40608,0.00251,0.00464,0.00171
0.60316,0.68641,-0.40625,0.00164,0.00204,-0.00014
0.60313,0.68643,-0.40625,0.00273,0.01117,-9e-05
0.60312,0.68651,-0.40613,0.0021,0.01495,-0.00128
0.60309,0.68664,-0.40595,-0.0005,0.01712,0.00315
0.60307,0.68681,-0.40569,-0.00724,0.01771,0.00439
0.60311,0.68697,-0.40537,-0.00917,0.0189,0.00178
0.60315,0.68707,-0.40513,-0.00925,0.02367,-0.00059
0.6032,0.68708,-0.40504,-0.00632,0.02332,-0.0004
0.60325,0.68702,-0.40508,-0.00433,0.02328,-0.00056
0.60334,0.68694,-0.40507,-0.00538,0.02088,0.00173
0.60346,0.68688,-0.405,-0.00345,0.01663,0.00101
0.6036,0.68684,-0.40486,-0.00146,0.01198,0.00123
0.60374,0.68685,-0.40464,-0.00142,0.00702,-0.00241
0.60389,0.68691,-0.40431,-0.00271,0.00602,-0.00028
0.60411,0.68701,-0.4038,0.00029,0.01126,0.00096
0.60445,0.68712,-0.40312,0.00148,0.01401,0.00238
0.60483,0.6872,-0.4024,0.00227,0.016,0.00711
0.60518,0.68723,-0.40182,0.00677,0.02032,0.01074
0.6054,0.68722,-0.40151,0.00519,0.02184,0.01505
0.60551,0.68717,-0.40144,0.00524,0.01678,0.01411
0.60549,0.68712,-0.40155,0.00619,0.01652,0.0137
0.60541,0.68707,-0.40175,0.00732,0.01755,0.01224
0.60529,0.68701,-0.40203,0.00807,0.01718,0.00931
0.60518,0.68692,-0.40237,0.00629,0.01628,0.00373
0.60505,0.68682,-0.40272,0.00292,0.01397,0.00311
0.6049,0.68672,-0.40312,-0.00386,0.01601,-0.00014
0.60476,0.6866,-0.40354,-0.00563,0.01376,-0.00288
0.60461,0.68653,-0.40388,-0.00813,0.0118,-0.00433
0.60448,0.68653,-0.40408,-0.0083,0.0147,-0.00884
0.60438,0.68657,-0.40414,-0.00824,0.01901,-0.00513
0.60437,0.68659,-0.40413,-0.00715,0.02053,-0.00227
0.60445,0.68661,-0.40398,-0.00684,0.02028,0.00206
0.60464,0.68662,-0.40369,-0.006,0.01506,0.00465
0.60488,0.68659,-0.40337,-0.00395,0.01382,0.00585
0.6051,0.6866,-0.40301,-0.00055,0.0108,0.00453
0.60534,0.68662,-0.40263,0.0022,0.01265,0.00723
0.60559,0.68663,-0.40225,0.0038,0.01302,0.00737
0.60578,0.68664,-0.40193,0.00529,0.01601,0.00329
0.60596,0.68659,-0.40175,0.0033,0.01695,0.00562
0.60608,0.68648,-0.40174,0.00198,0.01519,0.0045
0.60616,0.68638,-0.40181,0.00087,0.01699,0.00572
0.6062,0.6863,-0.40188,-0.00038,0.01707,0.00685
0.60623,0.68624,-0.40193,7e-05,0.01518,0.00658
0.60623,0.68621,-0.40198,0.0022,0.01621,0.00399
0.60622,0.68617,-0.40208,-9e-05,0.01768,0.00217
0.60616,0.68614,-0.40221,-0.00035,0.01782,0.00207
0.60612,0.6861,-0.40235,-0.00184,0.01645,0.00125
0.6061,0.68601,-0.40253,-0.00278,0.01198,0.00033
0.60608,0.68594,-0.40268,-0.00421,0.01518,-0.00164
0.60604,0.68593,-0.40276,-0.00371,0.01428,-0.00018
0.60599,0.68593,-0.40284,-0.00252,0.01611,0.00122
0.60594,0.68595,-0.40288,-0.00226,0.01636,0.00265
0.60596,0.68596,-0.40283,-0.00205,0.01843,0.0068
0.60602,0.68596,-0.40272,-0.00084,0.01774,0.00251
0.60611,0.68598,-0.40257,-0.00212,0.01303,0.00288
0.60618,0.68598,-0.40246,-0.00057,0.01405,0.00529
0.60623,0.68597,-0.4024,9e-05,0.01618,0.00299
0.60629,0.68596,-0.40234,-0.00024,0.01605,0.00248
0.60636,0.68591,-0.4023,-0.00205,0.01517,0.00189
0.60643,0.68586,-0.40228,-0.00026,0.0149,0.00024
0.60648,0.68584,-0.40224,-0.00124,0.01503,0.00394
0.60652,0.68584,-0.40217,-0.0004,0.01791,0.0065
0.60656,0.68585,-0.4021,-0.00093,0.01663,0.00481
0.60663,0.68582,-0.40204,-0.00031,0.01742,0.00508
0.60672,0.68576,-0.40201,-0.00266,0.01751,0.00441
0.60681,0.68567,-0.40203,-0.00114,0.01901,0.00215
0.6069,0.68556,-0.40208,0.00048,0.01558,0.00267
0.60694,0.68549,-0.40213,-0.00093,0.01401,0.00212
0.60698,0.68547,-0.40213,-0.00243,0.01633,0.0055
0.60702,0.68543,-0.40213,-0.00216,0.0175,0.00693
0.60706,0.68536,-0.40218,-0.00281,0.01712,0.00376
0.60707,0.6853,-0.40227,0.00072,0.01778,0.00358
0.60705,0.68524,-0.40241,-0.00011,0.01735,0.00369
0.60703,0.68518,-0.40253,-0.00152,0.01402,0.00301
0.60702,0.68512,-0.40266,-0.00151,0.01444,8e-05
0.60702,0.68507,-0.40275,0.00088,0.01426,0.0017
0.60701,0.68506,-0.40276,0.00117,0.01536,0.00353
0.60702,0.68507,-0.40275,-0.00245,0.01498,0.00247
0.60702,0.68504,-0.40279,-0.00402,0.0154,0.00031
0.60703,0.68501,-0.40283,-0.00202,0.01757,-0.00032
0.60709,0.68496,-0.40283,-0.00646,0.01885,0.0029
0.60716,0.68493,-0.40277,-0.00241,0.01751,0.00327
0.60726,0.68489,-0.40268,-0.00388,0.01518,0.0059
0.60736,0.68484,-0.40261,-0.00457,0.01517,0.00321
0.60745,0.6848,-0.40255,-0.00252,0.01453,0.00183
0.60751,0.68478,-0.4025,0.00127,0.01542,0.0035
0.60757,0.68475,-0.40245,0.00044,0.01703,0.00315
0.60766,0.68471,-0.40238,-0.00077,0.01423,0.00324
0.60773,0.68467,-0.40236,-0.00113,0.01487,0.00306
0.60779,0.68463,-0.40231,-0.00248,0.01239,0.00426
0.60786,0.6846,-0.40227,-0.00097,0.01583,0.0024
0.60789,0.68459,-0.40223,0.00341,0.01986,0.00641
0.60787,0.68459,-0.40228,-0.00022,0.01927,0.00747
0.60782,0.68454,-0.40244,0.00154,0.01888,0.00774
0.60773,0.68448,-0.40266,-0.00153,0.01571,0.00462
0.60763,0.68441,-0.40294,-0.00167,0.01664,0.00519
0.60751,0.68434,-0.40323,-0.00195,0.01617,0.00379
0.60738,0.68429,-0.40354,-0.00134,0.01335,0.00078
0.60724,0.68423,-0.40383,-0.00224,0.01442,0.00248
0.60712,0.68418,-0.40409,-0.0015,0.01439,0.00161
0.60702,0.68416,-0.40429,-5e-05,0.01357,0.003
0.60694,0.68417,-0.40438,-0.0013,0.01598,0.00192
0.60688,0.68421,-0.40441,0.00013,0.01618,0.0038
0.60678,0.68428,-0.40443,-0.00199,0.02029,0.00365
0.60663,0.68434,-0.40456,-0.00464,0.01936,0.00554
0.60644,0.68439,-0.40476,-0.00351,0.0203,0.00335
0.60625,0.68444,-0.40497,-0.00327,0.01753,0.00156
0.60608,0.6845,-0.40512,-0.00019,0.01337,-0.00038
0.60589,0.68459,-0.40526,-0.00181,0.01109,-0.00095
0.60569,0.68472,-0.40534,0.00215,0.01091,0.00165
0.60553,0.68487,-0.40531,0.00015,0.00969,-0.00011
0.60539,0.68507,-0.4052,-0.00056,0.01243,0.0
0.60522,0.6853,-0.40504,-0.00056,0.01716,-0.00103
0.60503,0.68558,-0.40486,-0.00448,0.01328,0.00229
0.6049,0.68584,-0.40462,-0.0026,0.01411,0.00263
0.60476,0.68614,-0.40432,0.0026,0.01938,0.00541
0.60461,0.68642,-0.40407,0.00199,0.02005,0.00946
0.60437,0.68669,-0.40396,-0.00154,0.01882,0.00984
0.60409,0.68687,-0.40407,-0.00272,0.01961,0.00928
0.60376,0.68701,-0.40434,0.00051,0.02023,0.0059
0.60342,0.68709,-0.4047,0.00085,0.01821,0.00517
0.60305,0.68715,-0.40514,-0.00308,0.01708,0.00292
0.60269,0.68718,-0.40564,-0.00482,0.01775,-0.00131
0.60235,0.68717,-0.40615,-0.00647,0.01762,-0.00109
0.60208,0.68719,-0.40652,-0.00592,0.01699,0.00137
0.60189,0.68723,-0.40674,-0.00463,0.0134,0.00025
0.60174,0.68729,-0.40686,-0.00178,0.01183,-0.00069
0.60161,0.6874,-0.40687,-0.00092,0.01269,-0.00244
0.60142,0.68758,-0.40684,-0.00117,0.01642,0.00243
0.60125,0.68776,-0.4068,0.00075,0.01589,0.00281
0.60111,0.68791,-0.40675,-0.00063,0.01488,0.0041
0.60102,0.68807,-0.4066,-0.00022,0.01821,0.00507
0.60098,0.68822,-0.4064,-0.00294,0.01638,0.00514
0.60091,0.68839,-0.40622,-0.00085,0.0196,0.00392
0.60082,0.68854,-0.40609,-0.00018,0.01972,0.00238
0.60069,0.68871,-0.40601,-0.00081,0.01834,0.00333
0.60054,0.68892,-0.40588,-0.00057,0.01782,-0.00108
0.60039,0.68917,-0.40568,-0.00166,0.01908,-0.00321
0.60025,0.68947,-0.40536,-0.00272,0.01544,0.00317
0.60013,0.68977,-0.40503,-0.00069,0.01518,0.00473
0.60001,0.69004,-0.40476,-0.00193,0.01726,0.00323
0.59988,0.69023,-0.40463,0.00514,0.02025,0.00622
0.5997,0.69041,-0.40458,0.0034,0.02091,0.00553
0.59948,0.6906,-0.40458,0.00068,0.0175,0.00871
0.59922,0.69078,-0.40466,-0.00202,0.01823,0.00529
0.5989,0.69096,-0.40483,-0.00176,0.01783,0.00197
0.59854,0.69116,-0.40502,0.00032,0.01644,0.00291
0.59813,0.69137,-0.40526,0.00314,0.01999,0.00159
0.59764,0.69162,-0.40557,0.0058,0.01624,0.00345
0.59713,0.69189,-0.40586,-0.00102,0.01476,0.00575
0.59669,0.69209,-0.40617,-0.00551,0.00936,0.00506
0.59635,0.6922,-0.40646,-0.00183,0.01201,0.00354
0.59611,0.69228,-0.4067,0.00701,0.01272,0.00341
0.59581,0.69244,-0.40685,0.01482,0.01056,0.00892
0.59548,0.69271,-0.40688,0.00589,0.01644,0.00753
0.59513,0.69292,-0.40703,-0.00178,0.01626,0.00415
0.59474,0.69309,-0.40731,-0.00516,0.0192,0.00382
0.59435,0.69324,-0.40763,-0.00533,0.02242,0.00593
0.59399,0.69334,-0.40799,-0.00539,0.01977,0.00409
0.5936,0.69344,-0.40839,-0.00443,0.015,0.00276
0.59317,0.69358,-0.40876,0.00226,0.01557,-0.00118
0.59265,0.69383,-0.4091,0.00298,0.01959,0.00146
0.59206,0.69412,-0.40946,-0.00024,0.01633,0.00496
0.59147,0.69439,-0.40985,0.00093,0.01392,0.00841
0.59085,0.6947,-0.41022,0.00917,0.01293,0.00458
0.59018,0.69499,-0.41069,0.01329,0.01244,0.00507
0.58946,0.69529,-0.41122,0.00835,0.01159,0.0021
0.58874,0.69552,-0.41187,-0.00017,0.01194,0.00579
0.58805,0.69574,-0.41248,-0.00025,0.01024,0.00317
0.58743,0.696,-0.41291,-0.00124,0.01371,0.00355
0.58688,0.69625,-0.41327,-0.00776,0.01636,0.00521
0.58641,0.69648,-0.41355,-0.00252,0.01436,0.00139
0.58603,0.69667,-0.41378,-0.01073,0.02151,0.0048
0.58561,0.6969,-0.414,-0.00685,0.02268,0.00148
0.5852,0.69704,-0.41432,-0.00441,0.02241,0.00136
0.58486,0.69716,-0.4146,-0.00866,0.01963,0.00338
0.58459,0.69724,-0.41486,-0.00837,0.01907,0.00546
0.58453,0.69715,-0.41509,-0.00967,0.01664,0.00873
0.58477,0.69682,-0.41531,-0.00577,0.0141,0.00366
0.5851,0.69637,-0.41559,-0.00297,0.02018,0.0017
0.58545,0.69583,-0.41602,-0.00365,0.01874,0.00174
0.5858,0.69524,-0.4165,-0.00156,0.0144,0.00331
0.58612,0.69469,-0.41697,0.00117,0.01364,0.00344
0.58632,0.69429,-0.41736,0.00021,0.01734,0.00222
0.58642,0.69401,-0.41767,0.00039,0.01561,0.00119
0.58649,0.69383,-0.41789,-0.00179,0.01195,0.00113
0.5866,0.69371,-0.41792,-0.00299,0.00702,0.00262
0.58682,0.69362,-0.41776,0.00263,0.00732,-0.00059
0.58708,0.69356,-0.41751,0.00445,0.01017,0.00039
0.58727,0.69354,-0.41728,0.0065,0.01342,-0.00275
0.58736,0.69359,-0.41705,-0.00121,0.01173,0.00225
0.58747,0.6937,-0.41672,-0.00831,0.01063,0.00342
0.58776,0.69375,-0.41623,-0.00809,0.01436,-0.00011
0.58815,0.69377,-0.41564,-0.00569,0.02046,0.00033
0.58855,0.69376,-0.41509,-0.00551,0.02297,0.00347
0.58896,0.69368,-0.41465,-0.00391,0.02195,0.00327
0.58934,0.69355,-0.41432,-0.00142,0.01774,0.00108
0.58968,0.69342,-0.41406,0.00055,0.02022,0.00226
0.59,0.69335,-0.41372,0.00421,0.01686,0.00123
0.59031,0.69339,-0.41321,0.00738,0.01548,0.00417
0.59061,0.6935,-0.4126,0.00233,0.01448,0.0121
0.59096,0.69365,-0.41184,-0.00124,0.01228,0.01158
0.59139,0.69376,-0.41104,-0.00039,0.01353,0.0085
0.59177,0.6938,-0.41042,0.00633,0.01715,0.00193
0.59199,0.69378,-0.41015,0.00512,0.01898,-0.00039
0.59207,0.69368,-0.4102,-0.00039,0.0204,-0.00238
0.5921,0.69353,-0.4104,-0.00508,0.01821,-0.00143
0.59214,0.69339,-0.41059,-0.00234,0.01473,-0.0014
0.59216,0.69331,-0.41068,0.00065,0.01026,0.001
0.59209,0.69331,-0.4108,0.00083,0.01402,0.0008
0.59192,0.69329,-0.41105,-0.00472,0.02428,-0.00072
0.59181,0.69319,-0.41139,-0.0055,0.02467,0.0046
0.59186,0.69302,-0.41161,-0.00886,0.01745,0.00162
0.59209,0.69284,-0.41157,-0.00966,0.01048,0.00132
0.59237,0.69272,-0.41137,-0.0074,0.00859,-0.00179
0.59267,0.6926,-0.41114,-0.00443,0.01269,0.00116
0.59308,0.69244,-0.41084,-0.00392,0.01606,0.00117
0.59362,0.69227,-0.41034,-0.00577,0.01658,0.00217
0.5943,0.6921,-0.40964,-0.00667,0.01616,0.00116
0.5951,0.69195,-0.40872,-0.00796,0.0132,-0.00037
0.59594,0.69185,-0.40768,-0.00864,0.0145,-0.00092
0.59679,0.69175,-0.4066,-0.0059,0.01969,0.00281
0.59767,0.69162,-0.40553,-0.00291,0.02272,0.00345
0.59855,0.69145,-0.40453,0.00514,0.02033,0.00699
0.59941,0.69121,-0.40365,0.00475,0.02168,0.00921
0.60017,0.69092,-0.40302,0.00638,0.01991,0.00931
0.6008,0.69056,-0.40271,0.00984,0.01887,0.01307
0.60127,0.69013,-0.40273,0.00888,0.01762,0.01284
0.60157,0.68971,-0.403,0.01027,0.0156,0.01396
0.60172,0.68933,-0.40343,0.00665,0.01529,0.00855
0.60177,0.68898,-0.40395,0.00582,0.01759,0.00685
0.60176,0.68864,-0.40455,0.00639,0.01682,0.00501
0.60174,0.6883,-0.40516,0.00294,0.01368,0.00348
0.60167,0.688,-0.40576,-0.00484,0.01386,-0.00138
0.60159,0.68776,-0.40628,-0.00984,0.01532,-0.00355
0.6015,0.68756,-0.40676,-0.00688,0.01697,-0.00388
0.60135,0.68745,-0.40716,-0.00635,0.02004,-0.00607
0.60122,0.68737,-0.4075,-0.00917,0.01557,-0.00342
0.60117,0.68727,-0.40773,-0.00384,0.0142,-0.00186
0.60115,0.68722,-0.40784,-0.00072,0.01605,-0.00103
0.60116,0.68721,-0.40786,-0.00323,0.01424,0.00387
0.60121,0.68721,-0.40779,-0.00425,0.01254,0.00218
0.60128,0.68722,-0.40767,-0.00581,0.01309,0.00325
0.60142,0.68723,-0.40744,-0.00268,0.01683,0.00179
0.6016,0.68725,-0.40714,0.00053,0.0194,0.00329
0.60175,0.68725,-0.40692,-0.00049,0.02108,0.00202
0.60179,0.68724,-0.40688,-0.00302,0.01979,0.00462
0.60177,0.68717,-0.40702,-0.0065,0.02029,0.00325
0.60174,0.6871,-0.40719,-0.00241,0.01238,0.00282
0.60172,0.68707,-0.40726,-0.00209,0.01241,0.00244
0.60174,0.68709,-0.40721,-0.00211,0.01393,0.00449
0.6018,0.68707,-0.40715,0.00111,0.01677,0.00146
0.60186,0.68704,-0.40712,0.00087,0.01693,0.002
0.60187,0.68702,-0.40714,-0.00273,0.01788,0.00241
0.60184,0.68702,-0.40718,-0.00449,0.01723,0.00216
0.60178,0.68704,-0.40724,-0.00679,0.01735,-0.00112
0.60167,0.68707,-0.40735,-0.00561,0.01813,-0.00021
0.60158,0.6871,-0.40742,-0.00707,0.01788,-0.00212
0.60156,0.68711,-0.40744,-0.00839,0.01931,-0.00281
0.60163,0.68709,-0.40737,-0.00731,0.02081,-0.00365
0.60179,0.68707,-0.40718,-0.00819,0.01363,-0.00124
0.60205,0.68706,-0.4068,-0.00981,0.01309,-0.00075
0.60236,0.6871,-0.40626,-0.00866,0.01254,-0.0018
0.60267,0.68717,-0.40569,-0.00232,0.01751,-0.00213
0.60294,0.68722,-0.4052,-0.0003,0.01761,-0.00139
0.60321,0.68722,-0.40481,-0.00111,0.01632,0.00251
0.60352,0.68718,-0.40442,0.00189,0.01265,0.0047
0.60387,0.68716,-0.40392,0.00215,0.01385,0.00619
0.60423,0.68719,-0.40332,0.00298,0.01544,0.00862
0.60454,0.68725,-0.40275,0.00234,0.01609,0.00766
0.60474,0.68732,-0.40235,0.00168,0.02013,0.00974
0.6048,0.68735,-0.40219,0.00599,0.02107,0.00758
0.60479,0.68732,-0.40227,0.00248,0.02162,0.00884
0.60472,0.68722,-0.40255,0.00324,0.0212,0.00664
0.60461,0.68707,-0.40297,0.00087,0.01677,0.00238
0.60446,0.68689,-0.4035,-0.00211,0.01781,0.00424
0.60434,0.68668,-0.40404,-0.00731,0.0181,-0.00062
0.60425,0.68646,-0.40454,-0.00735,0.01895,-0.00511
0.60419,0.68628,-0.40494,-0.00781,0.01448,-0.00357
0.60418,0.68613,-0.4052,-0.00643,0.01335,-0.00549
0.60422,0.68599,-0.40538,-0.0098,0.01494,-0.00317
0.60432,0.68584,-0.40548,-0.01019,0.01557,-0.00492
0.60447,0.68572,-0.40547,-0.00797,0.01675,-0.00327
0.60466,0.68564,-0.40531,-0.0061,0.01194,-0.00063
0.60491,0.68558,-0.40504,-0.00637,0.01344,-0.00037
0.60516,0.68554,-0.40475,-0.00153,0.01673,0.00204
0.60537,0.6855,-0.40449,-0.00062,0.02035,0.00293
0.60557,0.68544,-0.4043,0.00015,0.0187,0.00333
0.60575,0.68536,-0.40416,-0.00373,0.01851,0.00745
0.60591,0.68524,-0.40412,-0.00403,0.01991,0.00598
0.60605,0.6851,-0.40416,-0.00406,0.02014,0.00335
0.60612,0.68496,-0.40429,-0.00372,0.01921,-0.00037
0.60617,0.68483,-0.40443,-0.00467,0.01729,0.00154
0.60623,0.68473,-0.40452,-0.00235,0.01397,-0.00603
0.60632,0.68461,-0.40457,-0.00316,0.01367,-0.00307
0.60642,0.68454,-0.40454,-0.00627,0.01367,-0.00429
0.60654,0.68452,-0.4044,-0.0046,0.01422,-0.00158
0.60669,0.68452,-0.40417,-0.00388,0.01322,-0.00246
0.6068,0.68458,-0.40391,-0.00422,0.01633,-0.00239
0.60693,0.68466,-0.40358,-0.00309,0.01826,-0.00034
0.60706,0.68476,-0.40322,-0.00392,0.01831,0.00352
0.60719,0.68486,-0.40286,-0.0028,0.01761,0.00141
0.60732,0.68496,-0.40248,-0.00535,0.01756,0.00339
0.60746,0.68505,-0.40213,-0.00223,0.01782,0.00309
0.60756,0.68514,-0.40181,-0.00167,0.01775,0.00308
0.60764,0.6852,-0.4016,-0.00249,0.0179,0.00342
0.60769,0.68524,-0.40143,-0.00086,0.01579,0.00119
0.60774,0.68527,-0.40131,-0.00163,0.01613,0.00253
0.60777,0.6853,-0.40121,-0.00205,0.01946,0.00184
0.60775,0.68533,-0.4012,-0.00074,0.01841,0.00188
0.60767,0.68536,-0.40127,-0.00364,0.01674,0.00294
0.60759,0.6854,-0.40132,-0.00152,0.01577,0.00423
0.6075,0.68546,-0.40136,-0.00186,0.01566,0.00306
0.60738,0.68554,-0.40141,0.00121,0.01524,-0.00115
0.60722,0.68561,-0.40152,-0.00145,0.01442,-0.00033
0.60702,0.68568,-0.40169,-0.00125,0.01874,0.00156
0.60683,0.68572,-0.40192,-0.0011,0.01982,0.00172
0.60664,0.68571,-0.40223,-0.00612,0.01602,0.00149
0.6065,0.68564,-0.40257,-0.00755,0.01427,0.0001
0.60638,0.68553,-0.40293,-0.00257,0.01678,-0.00082
0.60623,0.68549,-0.40324,-0.00083,0.01486,-0.00131
0.60613,0.68549,-0.40337,-0.00472,0.01754,0.00016
0.60614,0.68548,-0.40337,-0.00716,0.01864,-0.00158
0.60618,0.68543,-0.40339,-0.00426,0.02172,-0.00304
0.60623,0.68534,-0.40348,-0.00433,0.02194,-0.00133
0.60627,0.68526,-0.40356,-0.01108,0.01839,-0.00113
0.6063,0.68519,-0.40362,-0.01368,0.01639,-0.00335
0.60631,0.6852,-0.40359,-0.01268,0.01732,-0.00214
0.60631,0.68527,-0.40347,-0.00853,0.02056,-0.00609
0.6064,0.68537,-0.40316,-0.00708,0.0145,-0.00445
0.60663,0.68547,-0.40265,-0.00684,0.01338,-0.00583
0.60696,0.68557,-0.40198,-0.00556,0.00802,-0.00309
0.60739,0.68566,-0.40118,-0.00467,0.01124,-0.0015
0.60791,0.6857,-0.40033,-0.00468,0.01324,0.00029
0.60842,0.68577,-0.39943,0.00024,0.0165,0.00643
0.60895,0.68582,-0.39854,0.00102,0.01766,0.00674
0.60939,0.68593,-0.39767,0.00337,0.01536,0.00575
0.60966,0.68609,-0.39699,0.00599,0.02055,0.00432
0.60972,0.68619,-0.39672,0.00704,0.02327,0.00108
0.60964,0.6862,-0.39683,0.00616,0.01923,0.00426
0.60954,0.68617,-0.39703,0.00163,0.01439,0.00449
0.6095,0.68611,-0.3972,-1e-05,0.01494,0.00204
0.60942,0.68609,-0.39736,-9e-05,0.01342,0.00292
0.60929,0.68606,-0.3976,-0.00153,0.01703,0.00078
0.60909,0.68607,-0.39789,-0.00519,0.0214,-1e-05
0.60889,0.68609,-0.39817,-0.00649,0.02133,-0.00239
0.60873,0.68604,-0.39848,-0.00895,0.02279,-0.00029
0.6086,0.68598,-0.39879,-0.00928,0.0191,-0.00197
0.60851,0.68593,-0.39902,-0.01003,0.0157,-0.0021
0.60846,0.68588,-0.39918,-0.00862,0.01572,-0.00153
0.60843,0.68583,-0.39931,-0.00214,0.01539,0.00122
0.60843,0.68578,-0.3994,-0.00175,0.01408,-0.00325
0.60846,0.68573,-0.39943,-0.00302,0.01548,-0.00011
0.60853,0.6857,-0.39938,-0.00028,0.01345,0.00242
0.60862,0.68568,-0.39928,-0.00098,0.01128,0.00347
0.60869,0.68569,-0.39915,-0.00032,0.01218,0.00316
0.60874,0.68574,-0.399,-0.00327,0.01451,0.00516
0.60876,0.68576,-0.39893,-0.00298,0.01613,0.00475
0.60874,0.6858,-0.3989,-0.00298,0.01835,0.00038
0.60872,0.68584,-0.39886,9e-05,0.01716,0.00079
0.60869,0.6859,-0.39879,0.00063,0.01646,-0.00033
0.60863,0.68596,-0.39879,0.00134,0.01671,9e-05
0.60851,0.68599,-0.39891,0.00064,0.01524,0.00339
0.60833,0.68603,-0.39911,-0.00074,0.01508,0.00609
0.60818,0.68604,-0.39934,0.00414,0.01251,0.0033
0.608,0.68604,-0.3996,0.00332,0.0097,-0.00063
0.60778,0.68611,-0.39982,0.00837,0.00915,0.0015
0.60752,0.68628,-0.39992,0.00817,0.00914,0.00244
0.6072,0.68654,-0.39997,0.00476,0.01813,0.00652
0.60681,0.68678,-0.40014,0.00148,0.02135,0.00823
0.6065,0.68689,-0.40044,0.00102,0.02015,0.00513
0.60619,0.68691,-0.40085,-0.00213,0.01688,0.00192
0.60589,0.68696,-0.40122,-0.00418,0.01534,0.00291
0.60561,0.68704,-0.40151,-0.01556,0.01993,0.00114
0.6054,0.68699,-0.40191,-0.01528,0.0293,-0.00339
0.60521,0.68679,-0.40254,-0.01169,0.03035,-0.00591
0.60506,0.68646,-0.40333,-0.0121,0.02515,-0.00242
0.60502,0.68603,-0.40413,-0.01844,0.01754,-0.00273
0.60512,0.68547,-0.40492,-0.01963,0.01651,-0.00314
0.60535,0.68489,-0.40556,-0.02348,0.01848,-0.00376
0.60574,0.6842,-0.40614,-0.0251,0.02465,-0.00237
0.6063,0.68337,-0.40671,-0.02239,0.02473,-0.00513
0.60703,0.6825,-0.40707,-0.01674,0.01719,-0.00782
0.60801,0.68164,-0.40704,-0.01202,0.0125,-0.00844
0.60923,0.68078,-0.40668,-0.00892,0.01356,-0.00661
0.61057,0.67992,-0.40609,-0.01004,0.01284,-0.00365
0.61201,0.67905,-0.40539,-0.01,0.01243,0.00012
0.61362,0.67812,-0.40449,-0.01449,0.00799,-0.00316
0.61547,0.67719,-0.40325,-0.00701,0.00556,-0.00587
0.61742,0.67637,-0.40163,0.00328,0.00385,-0.00442
0.61939,0.6757,-0.39974,0.01212,0.00632,0.00376
0.62131,0.6751,-0.39776,0.01478,0.01116,0.00895
0.62311,0.67451,-0.39593,0.01376,0.01561,0.01158
0.62473,0.67384,-0.39452,0.01191,0.02003,0.0144
0.62608,0.67308,-0.39368,0.01692,0.02512,0.01633
0.6271,0.67223,-0.39351,0.0145,0.02554,0.01926
0.6279,0.67124,-0.39392,0.01332,0.02631,0.02059
0.62852,0.67016,-0.39477,0.01441,0.02183,0.0168
0.62889,0.66907,-0.39603,0.02112,0.02223,0.01039
0.62889,0.66801,-0.39782,0.02479,0.02227,0.00993
0.62844,0.66697,-0.40026,0.01873,0.02668,0.00841
0.62769,0.66587,-0.40326,0.00223,0.01699,0.00651
0.62683,0.6647,-0.40651,0.00035,0.01141,0.00241
0.62598,0.66357,-0.40965,-0.00368,0.01012,-0.02127
0.62511,0.66248,-0.41274,-0.00488,0.01031,-0.0196
0.62428,0.66159,-0.41541,-0.0091,0.00398,-0.01762
0.62356,0.66099,-0.41745,-0.01374,-0.00475,-0.01414
0.62303,0.66065,-0.41876,-0.01807,-0.00321,-0.01445
0.62277,0.66051,-0.41938,-0.01548,0.00978,-0.01679
0.62269,0.66053,-0.41947,-0.01179,0.01523,-0.01371
0.62273,0.66066,-0.41921,-0.01126,0.0179,-0.0073
0.62294,0.66079,-0.4187,-0.01069,0.01815,-0.00406
0.62329,0.66101,-0.41782,-0.01016,0.01707,-0.00093
0.62377,0.66134,-0.41657,-0.0118,0.01122,0.00109
0.62432,0.66179,-0.41503,-0.00565,0.01416,-0.00222
0.62485,0.6623,-0.41341,-0.0019,0.01981,0.00167
0.62539,0.6628,-0.4118,0.00084,0.01862,-0.00026
0.62601,0.66328,-0.41007,0.00241,0.01416,0.0024
0.62667,0.66373,-0.40835,0.00146,0.01105,0.0024
0.62725,0.66412,-0.4068,0.00411,0.0103,-0.00177
0.62768,0.66454,-0.40547,0.00837,0.00972,0.00035
0.62801,0.66503,-0.40414,0.00471,0.01156,0.00752
0.6283,0.66558,-0.40278,0.0038,0.01497,0.00927
0.62849,0.66611,-0.40162,-0.0012,0.0164,0.00895
0.6286,0.66645,-0.40087,-0.00271,0.02564,0.00894
0.62865,0.66658,-0.40059,0.00894,0.02558,0.00616
0.62863,0.66656,-0.40066,0.00974,0.02235,0.00854
0.62852,0.66653,-0.40088,0.00961,0.01575,0.0093
0.62831,0.66649,-0.40126,0.00844,0.01561,0.01374
0.62795,0.66639,-0.40199,0.00881,0.01584,0.01776
0.62737,0.66602,-0.40351,0.01249,0.02197,0.02083
0.62644,0.6654,-0.40597,0.01933,0.03069,0.01365
0.625,0.66466,-0.40939,0.02022,0.03122,0.03712
0.62292,0.66357,-0.41431,0.01394,0.02961,0.00496
0.62068,0.66253,-0.41928,-0.00415,0.00806,-0.00027
0.61868,0.66183,-0.42333,-0.00322,-0.00551,0.00924
0.61685,0.66137,-0.42671,0.00335,0.00018,0.00281
0.61511,0.66101,-0.42977,-0.0039,-0.00276,-0.00457
0.61367,0.66076,-0.4322,-0.00139,0.00241,-0.01119
0.61251,0.66067,-0.43399,-0.00536,0.0068,-0.01584
0.61144,0.66065,-0.43551,-0.00953,0.01653,-0.0169
0.61021,0.66066,-0.43722,-0.00934,0.02225,-0.01281
0.60875,0.66072,-0.43917,-0.006,0.02099,-0.00972
0.60715,0.66084,-0.44119,-0.01195,0.01926,-0.00474
0.60571,0.66109,-0.44281,-0.01368,0.01605,-0.0008
0.60468,0.66138,-0.44378,-0.01801,0.01591,0.00037
0.60402,0.6617,-0.44419,-0.01517,0.01519,-0.00575
0.60366,0.66207,-0.44412,-0.01479,0.01191,-0.00641
0.60358,0.66263,-0.4434,-0.00854,-0.00116,-0.008
0.60378,0.66353,-0.44179,-0.00234,-0.00163,-0.01085
0.60407,0.66473,-0.43958,0.00329,0.00414,-0.00241
0.60438,0.66608,-0.43709,0.00789,0.0108,-0.00166
0.6046,0.66743,-0.43473,0.00693,0.01361,-0.00261
0.60469,0.66868,-0.43267,0.00458,0.02245,0.00322
0.60467,0.66979,-0.43099,0.00489,0.0269,0.00851
0.60458,0.67072,-0.42967,-0.00569,0.02792,0.01121
0.60446,0.67152,-0.42857,-0.00804,0.02546,0.00641
0.60436,0.67222,-0.42762,-0.01063,0.02437,0.00709
0.60433,0.67281,-0.42673,-0.00512,0.02079,0.00395
0.60438,0.67335,-0.42582,-0.00076,0.02068,0.0013
0.6044,0.67388,-0.42495,0.00383,0.01516,0.00449
0.60442,0.67434,-0.42419,0.00485,0.0116,0.00185
0.60443,0.67474,-0.42355,0.0044,0.0104,0.00211
0.60439,0.67509,-0.42304,0.00398,0.01281,0.00194
0.60429,0.67539,-0.4227,-0.00113,0.01539,0.00212
0.60413,0.67557,-0.42264,0.00065,0.01626,0.00275
0.60397,0.67563,-0.42278,-4e-05,0.0146,0.00105
0.60389,0.67566,-0.42285,0.00372,0.0066,0.00202
0.60388,0.67577,-0.42269,0.00339,0.00836,0.00354
0.60393,0.67591,-0.42238,-0.00289,0.01336,0.00715
0.60399,0.67589,-0.42233,0.00153,0.01403,0.00023
0.60397,0.67572,-0.42263,0.00154,0.01421,0.00053
0.60386,0.67556,-0.42305,0.00869,0.01588,0.00021
0.60373,0.67542,-0.42345,0.00223,0.0198,0.00411
0.60351,0.67527,-0.424,-0.00352,0.02326,0.00592
0.60319,0.67502,-0.42487,-0.01081,0.02577,0.00475
0.60285,0.6746,-0.42601,-0.014,0.02564,0.00047
0.60254,0.67409,-0.42725,-0.01071,0.02383,-0.00463
0.60221,0.67365,-0.42841,-0.00474,0.02409,-0.00271
0.60196,0.67327,-0.42936,-0.01198,0.0189,-0.00173
0.6019,0.67292,-0.42999,-0.01831,0.00739,-0.00504
0.60204,0.67266,-0.4302,-0.01286,0.00048,-0.01202
0.60236,0.67261,-0.42983,-0.0077,-0.00134,-0.01655
0.60294,0.67291,-0.42854,-0.00585,-0.00381,-0.01482
0.60388,0.67354,-0.42623,-0.00677,-0.00156,-0.01527
0.60504,0.67437,-0.42327,0.00374,0.00376,-0.00821
0.6063,0.67527,-0.42001,0.0056,0.00712,-0.00502
0.60752,0.67618,-0.41676,0.01322,0.00945,-0.00084
0.60871,0.67707,-0.41356,0.01747,0.01633,0.02077
0.60973,0.67783,-0.41082,0.01583,0.01669,0.02031
0.61045,0.67843,-0.40875,0.0097,0.01734,0.01828
0.61096,0.67894,-0.40715,0.01111,0.01563,0.01269
0.61131,0.67933,-0.40596,0.00739,0.01427,0.00682
0.61157,0.67964,-0.40505,-0.00665,0.01063,0.00171
0.61183,0.67984,-0.40432,-0.00981,0.00877,-0.00272
0.61216,0.68006,-0.40346,-0.01023,0.01522,-0.00696
0.61255,0.68034,-0.40238,-0.00892,0.0204,-0.00525
0.61295,0.68073,-0.40112,-0.00815,0.0187,-0.0051
0.61338,0.68123,-0.39961,-0.00855,0.01602,-0.00633
0.61345,0.68174,-0.39863,0.00698,0.02369,0.00579
0.61313,0.68213,-0.39845,0.01365,0.02625,0.00623
0.61255,0.68227,-0.3991,0.01779,0.02465,0.01325
0.61195,0.68231,-0.39996,0.01931,0.01145,0.01396
0.61153,0.68243,-0.40039,0.01973,0.01842,0.02218
0.6112,0.68257,-0.40066,0.01781,0.02137,0.02225
0.61077,0.68266,-0.40116,0.01618,0.02698,0.02053
0.60994,0.68265,-0.40243,0.01637,0.0234,0.01707
0.60878,0.68252,-0.40441,0.01022,0.02178,0.01372
0.60756,0.68226,-0.40667,-0.00296,0.01071,0.00095
0.6066,0.68191,-0.40869,-0.00917,0.00093,-0.00885
0.60592,0.68158,-0.41024,-0.01051,-0.0008,-0.00893
0.60542,0.68129,-0.41147,-0.00935,0.00949,-0.01492
0.60492,0.6809,-0.41286,-0.00282,0.0128,-0.01045
0.60439,0.68043,-0.41439,-0.00303,0.00683,-0.00669
0.60388,0.68003,-0.4158,-0.00581,0.00707,-0.0017
0.60341,0.6797,-0.41701,-0.00501,0.01198,-0.00125
0.60307,0.67941,-0.41798,-0.0023,0.01667,-0.0042
0.60289,0.67913,-0.4187,-0.00209,0.01472,-0.00426
0.60286,0.67889,-0.41912,-0.00339,0.01391,7e-05
0.60293,0.67871,-0.4193,-0.00169,0.01031,-0.00172
0.60304,0.67863,-0.41929,-0.00265,0.01009,-0.00071
0.60312,0.67862,-0.41918,-7e-05,0.01216,-0.00047
0.60316,0.67866,-0.41906,0.00163,0.01553,-0.00138
0.60319,0.67871,-0.41893,-0.00015,0.01551,0.00123
0.60323,0.67876,-0.4188,-0.00252,0.01572,0.00077
0.60333,0.67881,-0.41858,-0.00231,0.0111,0.00049
0.60342,0.67889,-0.41831,-0.00012,0.01278,-0.0013
0.60348,0.67904,-0.41799,0.00414,0.01513,0.00212
0.60352,0.67916,-0.41773,0.00245,0.01591,0.00424
0.60354,0.67921,-0.41762,0.00367,0.01508,0.00453
0.60353,0.67924,-0.4176,0.00469,0.01319,0.00538
0.60349,0.67926,-0.41762,0.00592,0.0121,0.00344
0.60341,0.67927,-0.41771,0.00377,0.01277,0.00184
0.60328,0.67931,-0.41782,0.00213,0.01162,0.00426
0.60312,0.67934,-0.41802,0.00317,0.01074,0.0004
0.60295,0.67935,-0.41824,0.00166,0.0125,0.00188
0.60281,0.67934,-0.41846,-0.00356,0.01251,-0.00192
0.60273,0.67931,-0.41862,-0.00322,0.01129,0.00094
0.60267,0.6793,-0.41873,-0.00281,0.01513,-0.00162
0.60261,0.67928,-0.41885,7e-05,0.01379,-0.00045
0.60256,0.67927,-0.41893,0.00035,0.01463,0.00168
0.60253,0.67927,-0.41898,-0.00156,0.01402,-0.00079
0.60254,0.67924,-0.41901,-0.00209,0.01416,0.00165
0.60261,0.67919,-0.419,-0.00204,0.01556,0.00052
0.60271,0.67913,-0.41895,-0.00466,0.01671,0.00287
0.6028,0.67907,-0.41891,-0.00349,0.01616,0.00316
0.60286,0.67899,-0.41895,0.00138,0.01451,0.00168
0.60287,0.67896,-0.41898,0.00798,0.0086,0.00178
0.60289,0.67897,-0.41895,0.006,0.00473,0.00184
0.60291,0.679,-0.41887,0.00784,0.0059,0.00023
0.60293,0.67905,-0.41876,0.00986,0.01085,0.00337
0.60294,0.67909,-0.41869,0.00993,0.01195,0.00255
0.60288,0.67913,-0.41871,0.00611,0.01284,0.00675
0.60275,0.67919,-0.4188,-0.00143,0.01582,0.00372
0.60261,0.67925,-0.4189,-0.00752,0.01974,-0.00078
0.60251,0.67928,-0.41899,-0.00946,0.02227,0.00199
0.60245,0.67927,-0.41909,-0.00796,0.02268,-0.00117
0.60248,0.67924,-0.4191,-0.00587,0.02021,-0.00057
0.60257,0.67917,-0.41909,-0.00178,0.01547,0.0015
0.60265,0.67908,-0.41912,0.00091,0.0125,-0.00017
0.60271,0.67896,-0.41923,0.00473,0.0102,0.00245
0.60276,0.67884,-0.41934,0.00719,0.00818,0.0024
0.6028,0.67874,-0.41945,0.00862,0.00753,0.00608
0.60281,0.67867,-0.41956,0.00559,0.01252,0.00427
0.60276,0.67862,-0.41969,0.00457,0.01353,0.00447
0.60271,0.67859,-0.41982,0.00168,0.01002,0.00637
0.60269,0.67855,-0.41992,-0.00129,0.01496,0.00059
0.60268,0.67852,-0.41998,-0.00229,0.01504,-0.00188
0.60268,0.67851,-0.41999,0.00042,0.01805,-0.00201
0.60268,0.67854,-0.41994,-0.00147,0.01683,-7e-05
0.60271,0.67858,-0.41983,-0.00151,0.01398,-0.00103
0.60276,0.67863,-0.41969,0.00182,0.01243,0.0004
0.60279,0.67866,-0.41958,0.00475,0.01179,0.00396
0.60279,0.67871,-0.41952,0.00553,0.01371,0.00363
0.6028,0.67873,-0.41947,0.00293,0.01198,0.00553
0.60283,0.67874,-0.41942,0.00177,0.01401,0.00456
0.60282,0.67875,-0.4194,0.00262,0.01415,0.00246
0.6028,0.67878,-0.41939,0.00227,0.01676,0.00184
0.60277,0.67882,-0.41936,-0.00028,0.01547,0.00473
0.60273,0.67886,-0.41936,5e-05,0.01676,0.00421
0.60267,0.67888,-0.41941,0.00366,0.01503,0.00204
0.6026,0.67889,-0.4195,0.00289,0.0132,0.00214
0.6025,0.67891,-0.4196,0.003,0.01493,0.00232
0.60237,0.67895,-0.41972,0.00201,0.01297,0.0025
0.60223,0.679,-0.41986,0.0039,0.01246,0.00459
0.60206,0.67904,-0.42002,0.00266,0.01241,0.00447
0.60192,0.67908,-0.42016,0.00237,0.01115,0.00247
0.60179,0.6791,-0.42031,0.00203,0.01574,0.00279
0.60165,0.67913,-0.42047,0.00138,0.01452,0.0005
0.60153,0.67917,-0.42059,-3e-05,0.01451,0.00012
0.60144,0.67921,-0.42063,-0.00121,0.01302,0.00043
0.60138,0.67927,-0.42062,-0.00106,0.01343,0.00078
0.6013,0.67936,-0.42059,-0.00055,0.0136,0.00194
0.60124,0.67946,-0.42053,-0.00101,0.01318,0.0012
0.60124,0.67954,-0.42039,-0.00048,0.014,0.00235
0.60126,0.67963,-0.42022,0.0012,0.0139,0.00488
0.60132,0.67968,-0.42005,0.00096,0.01573,0.00521
0.6014,0.67969,-0.41992,0.00231,0.01443,0.003
0.60148,0.67968,-0.41982,0.00119,0.01549,0.00493
0.60155,0.67965,-0.41976,0.00204,0.01355,0.0033
0.60164,0.6796,-0.41972,-0.00046,0.01498,0.00258
0.60175,0.67952,-0.41969,0.00128,0.01581,0.00294
0.60186,0.67942,-0.41969,0.00022,0.01697,0.00475
0.60195,0.67931,-0.41974,0.00225,0.01431,0.00207
0.60201,0.67921,-0.41983,0.00256,0.01313,0.00264
0.60204,0.67912,-0.41993,0.00265,0.01377,0.00375
0.60208,0.67903,-0.42001,0.0015,0.01311,0.00425
0.6021,0.67896,-0.4201,0.00435,0.01379,0.00394
0.60209,0.6789,-0.42021,0.00182,0.01503,0.00311
0.60208,0.67883,-0.42034,0.0015,0.01378,0.00392
0.60208,0.67873,-0.42051,0.00039,0.01324,0.00304
0.60206,0.67863,-0.42069,0.00065,0.01496,0.00107
0.60203,0.67858,-0.42083,0.0003,0.01387,0.00186
0.60203,0.67851,-0.42093,-0.00204,0.0143,0.00452
0.60207,0.67842,-0.421,0.00137,0.01426,0.00239
0.6021,0.67834,-0.42109,0.00279,0.01339,0.0029
0.6021,0.67828,-0.42119,0.00369,0.01226,0.00347
0.6021,0.67823,-0.42128,0.00171,0.01286,0.00311
0.60211,0.67821,-0.4213,-0.00108,0.0124,0.00393
0.60213,0.67819,-0.4213,-2e-05,0.01322,0.00106
0.60219,0.67817,-0.42125,0.00098,0.0178,0.00445
0.60225,0.67815,-0.42119,0.00059,0.01592,0.00257
0.60232,0.67811,-0.42114,-0.00174,0.01506,0.00316
0.60238,0.67809,-0.4211,0.00063,0.01489,0.00379
0.60243,0.67806,-0.42107,0.00095,0.0137,0.00448
0.60245,0.67807,-0.42104,0.00207,0.01447,0.0035
0.60249,0.67806,-0.42098,0.0005,0.01485,0.00359
0.60253,0.67804,-0.42096,0.003,0.01384,0.00457
0.60256,0.678,-0.42099,0.00315,0.01513,0.00381
0.60256,0.67794,-0.42108,0.00396,0.0118,0.00531
0.60252,0.67791,-0.42119,0.00191,0.01379,0.00572
0.60248,0.67788,-0.4213,0.00159,0.01502,0.00313
0.60243,0.67786,-0.42139,0.00071,0.01418,0.00178
0.60239,0.67785,-0.42146,0.00027,0.01662,0.00337
0.60238,0.67784,-0.42151,0.00062,0.01476,0.00313
0.60237,0.67781,-0.42157,-0.00181,0.01424,0.00231
0.60237,0.67777,-0.42162,-0.00015,0.01292,0.00136
0.60239,0.67774,-0.42166,-0.00019,0.01541,0.00199
0.60241,0.67771,-0.42166,0.00093,0.01432,0.00244
0.60244,0.67772,-0.42161,0.00268,0.01419,0.00236
0.60249,0.67773,-0.42154,-0.00102,0.0149,0.00343
0.60251,0.67773,-0.4215,0.00171,0.01555,0.00283
0.60251,0.67772,-0.42152,0.00346,0.01689,0.00407
0.60251,0.6777,-0.42154,0.00244,0.01562,0.00325
0.60253,0.67767,-0.42155,0.00156,0.01561,0.00299
0.60252,0.67767,-0.42157,0.00333,0.01553,0.00331
0.60252,0.67767,-0.42158,0.00207,0.01619,0.00577
0.6025,0.67768,-0.42159,0.00269,0.01622,0.00416
0.60249,0.67766,-0.42164,0.00116,0.01375,0.00417
0.60248,0.67763,-0.42169,0.00256,0.01646,0.00505
0.60246,0.67761,-0.42176,-0.00024,0.0159,0.0022
0.60245,0.6776,-0.4218,-1e-05,0.01407,0.00569
0.60245,0.67757,-0.42185,-0.00072,0.01514,0.00305
0.60246,0.67754,-0.42188,0.00106,0.01697,0.00305
0.60247,0.67751,-0.4219,0.00052,0.01692,0.00387
0.60252,0.67746,-0.42191,0.00012,0.01447,0.00138
0.6026,0.67737,-0.42193,0.00048,0.01399,0.00316
0.60269,0.67729,-0.42195,0.00289,0.01619,0.00299
0.60273,0.67723,-0.42198,0.00332,0.01434,0.00462
0.60276,0.67719,-0.422,0.00349,0.01464,0.00397
0.60277,0.67716,-0.42204,0.00165,0.01457,0.00592
0.60277,0.67713,-0.42209,0.00117,0.01608,0.00491
0.6028,0.67708,-0.42212,0.00117,0.01713,0.00387
0.60284,0.67703,-0.42215,-0.00105,0.01731,0.00397
0.60288,0.67696,-0.42219,-0.00108,0.01482,0.00401
0.60292,0.67688,-0.42227,-0.00136,0.0164,0.00175
0.60296,0.6768,-0.42235,0.00238,0.01635,0.00108
0.60295,0.67674,-0.42245,0.00168,0.01578,0.00346
0.60292,0.67672,-0.42254,0.00245,0.01411,0.00339
0.60286,0.67671,-0.42262,0.00158,0.01473,0.00266
0.60282,0.67671,-0.42268,0.00135,0.01491,0.00438
0.60275,0.67673,-0.42275,0.00248,0.01261,0.00497
0.60265,0.67678,-0.42282,0.00425,0.01371,0.00253
0.60255,0.67685,-0.42286,0.00129,0.01319,0.00246
0.60245,0.6769,-0.42291,0.00216,0.01484,0.00272
0.60234,0.67697,-0.42295,0.00055,0.01564,0.00164
0.60227,0.67703,-0.42295,0.00034,0.01669,0.00343
0.6022,0.67711,-0.42292,-0.00041,0.01629,0.00384
0.60215,0.67719,-0.42287,-0.00059,0.01556,0.00106
0.6021,0.67729,-0.42278,-0.0024,0.01397,0.00294
0.60207,0.67738,-0.42267,-0.00103,0.01425,0.0009
0.60206,0.67749,-0.42253,0.00123,0.01602,0.00351
0.60205,0.67757,-0.4224,0.00192,0.01606,0.00526
0.60206,0.67762,-0.42231,-3e-05,0.01695,0.00354
0.60207,0.67766,-0.42224,0.00151,0.01535,0.00447
0.60205,0.67771,-0.42218,0.00113,0.01454,0.00388
0.60201,0.67776,-0.42216,0.00018,0.01653,0.00445
0.60196,0.67783,-0.42212,0.00271,0.0148,0.00415
0.60191,0.67787,-0.42212,0.00179,0.01654,0.00337
0.60188,0.67789,-0.42212,0.00123,0.01399,0.00544
0.60185,0.67791,-0.42214,0.00218,0.01536,0.00581
0.60178,0.67794,-0.42219,0.00224,0.01584,0.00277
0.60168,0.67799,-0.42226,0.00153,0.01569,0.00319
0.60154,0.67808,-0.42231,0.00011,0.0164,0.00598
0.60145,0.67815,-0.42233,-0.00155,0.01442,0.00543
0.60139,0.67817,-0.42238,-7e-05,0.01708,0.00179
0.60133,0.6782,-0.42243,0.0034,0.01502,0.00172
0.60126,0.67825,-0.42245,0.00153,0.0153,0.00227
0.60125,0.67826,-0.42244,-0.002,0.01187,0.00557
0.60132,0.67821,-0.42242,0.00078,0.01255,0.0026
0.60139,0.67815,-0.42243,0.00222,0.01353,0.00232
0.60145,0.67808,-0.42244,0.00238,0.01606,0.00479
0.60152,0.67802,-0.42244,-0.00069,0.01713,0.00397
0.60159,0.67796,-0.42244,-0.00184,0.01415,0.00327
0.60167,0.67791,-0.42239,-0.00228,0.01657,0.00453
0.60179,0.67786,-0.42231,-0.00215,0.01665,0.00392
0.60193,0.67779,-0.42223,-0.00036,0.01638,0.00382
0.60207,0.67771,-0.42215,-0.00098,0.01642,0.00587
0.60221,0.67762,-0.4221,0.00149,0.01539,0.00033
0.60232,0.67755,-0.42206,0.00452,0.01571,0.00381
0.60239,0.67749,-0.42206,0.00331,0.01428,0.00676
0.60244,0.6774,-0.42212,0.0032,0.01534,0.00489
0.60247,0.67732,-0.42222,0.00315,0.01287,0.00611
0.6025,0.67724,-0.42229,0.00264,0.01567,0.00397
0.60249,0.67718,-0.4224,0.00145,0.0143,0.00261
0.60245,0.67714,-0.42252,0.00192,0.01503,0.00352
0.6024,0.67712,-0.42263,-0.00125,0.01645,0.00427
0.60236,0.67708,-0.42275,-0.00109,0.01609,0.00428
0.60232,0.67705,-0.42287,-0.00268,0.01422,0.00435
0.60229,0.67703,-0.42293,-1e-05,0.0148,0.00107
0.60227,0.67703,-0.42296,-0.00219,0.01616,0.00165
0.60227,0.67703,-0.42296,-3e-05,0.01534,0.00371
0.60229,0.67703,-0.42294,-0.00214,0.01456,0.00268
0.60232,0.67704,-0.42287,0.00095,0.01536,0.00288
0.60238,0.67705,-0.42278,0.00161,0.01654,0.00231
0.60244,0.67707,-0.42266,0.00059,0.01623,0.00297
0.60249,0.6771,-0.42254,-0.00046,0.01651,0.00477
0.60256,0.6771,-0.42243,0.00033,0.01548,0.00329
0.60262,0.67709,-0.42238,0.00093,0.01602,0.00496
0.60266,0.67706,-0.42235,0.00193,0.01725,0.00357
0.60267,0.67707,-0.42233,0.00193,0.01758,0.00767
0.60267,0.67704,-0.42237,0.00063,0.01536,0.00486
0.60267,0.67701,-0.42242,0.00072,0.01461,0.0041
0.60265,0.677,-0.42248,0.0014,0.01545,0.00347
0.60262,0.67699,-0.42253,6e-05,0.01567,0.00497
0.60257,0.67699,-0.42259,0.00192,0.01576,0.00339
0.60256,0.677,-0.42261,-9e-05,0.01537,0.0038
0.60255,0.67699,-0.42263,-0.00072,0.01555,0.00287
0.60254,0.67698,-0.42265,0.00157,0.01833,0.0027
0.60253,0.677,-0.42264,-0.00055,0.01575,0.00228
0.60256,0.67699,-0.4226,-0.00225,0.0133,0.00055
0.60261,0.67699,-0.42254,-3e-05,0.01308,0.00103
0.60266,0.67698,-0.42248,0.00203,0.01598,0.00253
0.60268,0.67699,-0.42244,0.00306,0.01668,0.00511
0.60269,0.67698,-0.42244,0.00073,0.0164,0.00352
0.60271,0.67695,-0.42246,-0.00106,0.01363,0.00512
0.60274,0.67692,-0.42247,-0.00165,0.01876,0.00435
0.60278,0.6769,-0.42244,8e-05,0.01666,0.00496
0.60281,0.67689,-0.42241,-0.00054,0.01652,0.00379
0.60285,0.67686,-0.4224,-0.00113,0.01732,0.00364
0.60288,0.67681,-0.42244,7e-05,0.01551,0.00528
0.60289,0.67677,-0.42249,-0.00061,0.01636,0.00212
0.60291,0.67673,-0.42251,0.00118,0.01455,0.00394
0.60294,0.67669,-0.42255,0.00032,0.01476,0.00285
0.60294,0.67668,-0.42255,0.0024,0.01304,0.00498
0.60294,0.67669,-0.42254,0.00204,0.01523,0.00469
0.60292,0.67669,-0.42257,0.00147,0.01607,0.00588
0.6029,0.67669,-0.42261,0.0017,0.01576,0.00401
0.60286,0.6767,-0.42264,-0.00069,0.01659,0.00338
0.60284,0.6767,-0.42267,-0.00164,0.01711,0.00447
0.60285,0.6767,-0.42265,-0.00131,0.01695,0.00342
0.60287,0.6767,-0.42263,-0.00042,0.01829,0.00422
0.60287,0.6767,-0.42262,-0.00036,0.01722,0.00276
0.60287,0.67671,-0.42261,-7e-05,0.0166,0.00335
0.60287,0.67672,-0.4226,0.00065,0.01514,0.00403
0.60287,0.67673,-0.42258,0.00113,0.01433,0.00365
0.60287,0.67674,-0.42257,-0.00064,0.01519,0.00585
0.60288,0.67674,-0.42256,0.0013,0.01573,0.00439
0.60286,0.67674,-0.42257,0.00019,0.01276,0.0037
0.60285,0.67674,-0.4226,0.00112,0.01464,0.0033
0.60285,0.67673,-0.42262,0.0002,0.01492,0.00197
0.60284,0.67672,-0.42264,0.00063,0.01597,0.0039
0.60282,0.67672,-0.42266,-0.001,0.0174,0.0035
0.60282,0.67669,-0.42272,-0.00115,0.01675,0.00347
0.60282,0.67664,-0.42279,-0.00216,0.01774,0.00429
0.6028,0.67662,-0.42286,-0.0008,0.01661,0.00393
0.60279,0.6766,-0.4229,0.00083,0.0156,0.00371
0.60278,0.67659,-0.42294,0.00211,0.01656,0.00427
0.60276,0.67659,-0.42296,0.00025,0.01578,0.00362
0.60274,0.67658,-0.42302,0.00336,0.01507,0.00497
0.6027,0.67658,-0.42307,0.0043,0.01538,0.00387
0.60267,0.67659,-0.42309,0.00013,0.01233,0.0043
0.60267,0.6766,-0.42307,0.0015,0.01387,0.00266
0.60267,0.67663,-0.42302,0.00115,0.01493,0.00285
0.60264,0.67669,-0.42297,0.00304,0.0167,0.00232
0.60258,0.67674,-0.42298,-0.00091,0.01709,0.00269
0.60249,0.67681,-0.423,-0.00486,0.01701,0.00443
0.6024,0.67689,-0.423,-0.00472,0.01801,0.00163
0.60234,0.67698,-0.42295,-0.0021,0.01957,0.00241
0.60232,0.67704,-0.42287,-0.0029,0.01873,0.00379
0.60235,0.67706,-0.42279,-7e-05,0.01767,0.0031
0.6024,0.67706,-0.42271,0.00249,0.01178,0.0042
0.60244,0.67709,-0.42262,0.00286,0.01174,0.00418
0.60244,0.67713,-0.42255,0.00314,0.01488,0.00367
0.6024,0.67721,-0.42249,0.00564,0.0132,0.00592
0.60237,0.67728,-0.42241,0.00392,0.01722,0.00492
0.60229,0.67734,-0.42244,0.00126,0.01625,0.00635
0.60215,0.6774,-0.42253,-0.00212,0.01876,0.00498
0.60206,0.67744,-0.42261,-0.0048,0.01942,0.00226
0.60199,0.67747,-0.42266,-0.00347,0.01697,0.00092
0.60192,0.67754,-0.42264,-0.00155,0.01536,0.00185
0.60186,0.67762,-0.42258,0.00191,0.01592,0.00391
0.60181,0.67769,-0.42255,0.0038,0.01549,0.00372
0.60178,0.67774,-0.42251,0.00201,0.01519,0.00297
0.60176,0.67778,-0.42248,0.00047,0.01253,0.00524
0.60172,0.67785,-0.42243,0.00167,0.01492,0.00393
0.60166,0.67792,-0.42239,0.00147,0.01559,0.00456
0.60163,0.67796,-0.42237,-0.00086,0.01586,0.00462
0.6016,0.67799,-0.42237,-0.00079,0.01745,0.0017
0.60164,0.67797,-0.42235,-0.00134,0.01651,0.00415
0.60172,0.67791,-0.42232,-0.00341,0.01728,0.00144
0.6018,0.67788,-0.42227,-0.00288,0.01658,0.00361
0.60187,0.67784,-0.42223,-0.00145,0.01476,0.00344
0.60195,0.67779,-0.4222,0.00088,0.01542,0.00484
0.60204,0.67773,-0.42216,0.00164,0.01494,0.00553
0.60216,0.67765,-0.42213,-0.00099,0.0144,0.00398
0.60225,0.67756,-0.42213,0.00186,0.01369,0.00271
0.60231,0.6775,-0.42214,0.00096,0.01619,0.00516
0.60236,0.67747,-0.42213,0.00066,0.01691,0.00441
0.60238,0.67745,-0.42213,0.00045,0.01725,0.00547
0.60241,0.67739,-0.42217,0.00124,0.01789,0.00481
0.60244,0.67732,-0.42226,0.00014,0.016,0.00228
0.60243,0.67727,-0.42234,0.00274,0.01937,0.00494
0.60242,0.67725,-0.42239,-0.00218,0.01448,0.00337
0.60246,0.67719,-0.42243,-0.00144,0.01313,0.00182
0.60251,0.67712,-0.42247,0.00276,0.0149,0.00311
0.60252,0.67706,-0.42254,0.00345,0.01604,0.00363
0.6025,0.67702,-0.42264,0.00202,0.01588,0.00458
0.60251,0.67696,-0.42273,-0.00216,0.01295,0.00288
0.60253,0.67691,-0.42278,-0.00401,0.01475,0.00243
0.60256,0.67689,-0.42278,0.00102,0.01719,0.0026
0.60262,0.67686,-0.42273,-0.0002,0.01782,0.00481
0.60268,0.67684,-0.42269,-0.00112,0.01825,0.00513
0.60275,0.6768,-0.42264,-0.00184,0.0163,0.00505
0.60282,0.67677,-0.4226,-0.00017,0.01615,0.00329
0.60287,0.67676,-0.42254,0.0002,0.01588,0.00403
0.60292,0.67675,-0.42248,-0.00018,0.017,0.00158
0.60296,0.67675,-0.42242,0.00251,0.0151,0.00409
0.60299,0.67674,-0.42239,0.00292,0.01483,0.00387
0.60301,0.67673,-0.42238,0.00301,0.01692,0.00448
0.60301,0.67672,-0.4224,0.00262,0.01787,0.00398
0.60298,0.67671,-0.42244,0.00035,0.01583,0.00579
0.60294,0.67672,-0.4225,-8e-05,0.01545,0.00352
0.60289,0.67672,-0.42257,-0.00055,0.0153,0.00212
0.60285,0.67672,-0.42262,7e-05,0.01876,0.00302
0.60281,0.67669,-0.42274,-0.00094,0.01763,0.00202
0.60271,0.67664,-0.42295,-0.00158,0.01649,0.00483
0.60266,0.67658,-0.42312,-0.00133,0.01916,0.00588
0.60257,0.67651,-0.42337,-0.00086,0.01661,0.00293
0.6025,0.67642,-0.42361,0.00146,0.01569,0.00024
0.60243,0.6763,-0.42389,0.00101,0.01776,0.00256
0.6024,0.67618,-0.42413,-0.00169,0.01184,0.00247
0.60238,0.6761,-0.42428,0.00101,0.01475,0.0055
0.6023,0.67595,-0.42464,0.00637,0.02175,0.00687
0.60208,0.67566,-0.42542,0.00228,0.00891,0.00588
0.60181,0.67546,-0.4261,0.00402,0.01028,0.00164
0.60162,0.67536,-0.42653,-0.0022,0.01388,0.00623
0.60135,0.67519,-0.42719,0.0014,0.02109,0.0038
0.60106,0.67491,-0.42804,0.00128,0.0166,0.00151
0.60078,0.6746,-0.42892,0.00104,0.01513,0.00705
0.60051,0.67436,-0.42968,-0.00242,0.0102,0.00161
0.60036,0.6743,-0.42998,-0.00342,0.01407,0.00051
0.60041,0.67431,-0.42989,-0.00378,0.01844,0.00042
0.60055,0.67431,-0.42971,-0.00153,0.01612,0.0008
0.60067,0.67434,-0.42949,-0.00356,0.01464,-0.00285
0.60077,0.67438,-0.42927,-0.00194,0.01567,-0.00253
0.60096,0.67438,-0.42901,-0.00378,0.01498,-0.00332
0.60122,0.67442,-0.42859,-0.00313,0.01475,0.001
0.60148,0.67451,-0.42807,-0.00085,0.01579,0.00244
0.60172,0.67462,-0.42756,0.00176,0.01553,0.00368
0.60192,0.6747,-0.42716,0.00571,0.01587,0.0067
0.60206,0.67476,-0.42686,0.00327,0.01541,0.00546
0.60218,0.67481,-0.42661,0.00213,0.01492,0.00666
0.60216,0.67486,-0.42657,0.00517,0.01868,0.00802
0.60212,0.67483,-0.42667,0.00693,0.01798,0.00613
0.60203,0.6748,-0.42684,0.00506,0.01531,0.0088
0.60185,0.6748,-0.4271,0.00167,0.01328,0.00433
0.60161,0.6748,-0.42744,0.00267,0.01718,0.00269
0.60137,0.67479,-0.42779,0.00307,0.01926,0.0013
0.60112,0.67476,-0.42819,0.00326,0.01592,0.00122
0.60084,0.67471,-0.42865,-0.00297,0.01352,0.00431
0.60062,0.67464,-0.42907,-0.00616,0.01315,0.00295
0.60052,0.67457,-0.42934,-0.00703,0.01176,0.00218
0.60046,0.67453,-0.42946,-0.00086,0.01673,-0.00482
0.60038,0.67458,-0.4295,0.00034,0.0186,-0.00476
0.60028,0.67472,-0.42944,-0.00044,0.02075,-0.00152
0.60031,0.67482,-0.42922,-0.01268,0.01459,0.00318
0.6006,0.67487,-0.42874,-0.00544,0.00445,-0.00299
0.60106,0.67505,-0.42783,-0.00067,0.00927,-0.00536
0.60158,0.67536,-0.42659,-0.00319,0.01224,-0.0074
0.60206,0.67577,-0.42526,-0.00287,0.01286,-0.00046
0.60248,0.6762,-0.42398,-0.00321,0.01308,0.00194
0.6031,0.67657,-0.42252,-0.01,0.01181,-0.00339
0.60398,0.67686,-0.42079,-0.00744,0.01363,0.00244
0.60491,0.67714,-0.41901,-0.00104,0.0116,0.00322
0.60576,0.6775,-0.41719,0.00383,0.01522,0.0039
0.60668,0.67776,-0.41542,0.00558,0.01809,0.00875
0.60745,0.67798,-0.41392,0.01147,0.02154,0.01221
0.60808,0.67812,-0.41277,0.00865,0.01928,0.01332
0.60855,0.67814,-0.41205,0.01166,0.02608,0.00929
0.60884,0.67803,-0.41181,0.00957,0.02351,0.00901
0.60888,0.67786,-0.41202,0.00286,0.01815,0.01031
0.60884,0.67769,-0.41237,-0.00462,0.01512,0.00536
0.60885,0.67754,-0.41259,-0.00456,0.01574,0.00524
0.60898,0.67736,-0.4127,-0.00223,0.01422,0.0028
0.60916,0.67714,-0.41279,0.00348,0.01054,-0.00103
0.60934,0.67696,-0.41284,0.00239,0.01031,-0.00211
0.60958,0.67678,-0.41276,-0.00375,0.00923,-0.00284
0.60987,0.67659,-0.41263,-0.0023,0.00915,-0.00146
0.61014,0.67648,-0.41243,-0.00055,0.0111,-0.00085
0.61044,0.67638,-0.41214,-0.00104,0.01361,0.00137
0.61075,0.67635,-0.41174,-0.00221,0.01648,0.00224
0.61103,0.67634,-0.41135,-0.0006,0.0173,0.00356
0.61128,0.67635,-0.41095,-0.00092,0.01725,0.00522
0.61155,0.67641,-0.41045,-0.00515,0.01681,0.0062
0.61184,0.67646,-0.40994,-0.0057,0.01772,0.00524
0.6121,0.67646,-0.40955,0.00784,0.02073,0.00571
0.61227,0.67644,-0.40932,0.007,0.01988,0.00541
0.61236,0.67643,-0.40921,0.00735,0.01895,0.01133
0.6124,0.67638,-0.40923,0.00572,0.01528,0.01267
0.61237,0.67622,-0.40954,0.01115,0.01758,0.00816
0.61217,0.67595,-0.41028,0.01404,0.01951,0.01017
0.6118,0.6756,-0.4114,0.01114,0.01928,0.01009
0.6113,0.67516,-0.41286,0.00605,0.01565,0.00698
0.6107,0.6747,-0.41451,0.00239,0.0151,0.00982
0.61008,0.67426,-0.41614,-0.00235,0.01121,0.0007
0.60956,0.67391,-0.41746,-0.00803,0.01079,-0.00083
0.6092,0.67363,-0.41844,-0.01042,0.0112,-0.00319
0.60891,0.67339,-0.41924,-0.01214,0.01852,-0.0076
0.60872,0.6731,-0.41998,-0.01644,0.01778,-0.00921
0.60871,0.67278,-0.42052,-0.01648,0.01672,-0.00786
0.6089,0.67248,-0.42073,-0.01283,0.01058,-0.00905
0.6092,0.67228,-0.4206,-0.00892,0.0133,-0.00396
0.60961,0.67219,-0.42016,-0.01035,0.01614,-0.00338
0.61009,0.67214,-0.41954,-0.00839,0.01872,2e-05
0.61065,0.67212,-0.41875,-0.00417,0.01658,0.0026
0.6113,0.67217,-0.41773,-0.00201,0.01008,0.00572
0.61203,0.67229,-0.41647,0.00045,0.00716,0.00125
0.61278,0.67243,-0.41513,0.00399,0.01171,0.00221
0.61348,0.67258,-0.41385,0.0066,0.01457,0.00219
0.61413,0.67276,-0.4126,0.00653,0.01352,-9e-05
0.61471,0.67304,-0.41126,0.00585,0.01293,0.0069
0.6152,0.6734,-0.40995,0.00546,0.01398,0.00751
0.61564,0.67376,-0.40869,-0.00189,0.0185,0.00905
0.61607,0.67405,-0.40756,-0.00267,0.01824,0.0018
0.61646,0.67427,-0.40662,-0.00458,0.01874,-0.00079
0.61685,0.67444,-0.40574,-0.00511,0.01782,-0.00271
0.61728,0.67466,-0.40471,-0.00467,0.01342,-0.00131
0.61781,0.67495,-0.40341,-0.00421,0.00702,-0.00214
0.6184,0.67531,-0.40192,-0.00144,0.00869,-4e-05
0.61894,0.67569,-0.40044,0.00753,0.01249,0.0009
0.61944,0.67605,-0.39906,0.00872,0.0151,0.00279
0.61988,0.6764,-0.39778,0.00732,0.01646,0.00702
0.62024,0.67679,-0.39656,0.00327,0.01616,0.00722
0.62052,0.67717,-0.39546,0.00471,0.01629,0.00998
0.62071,0.67752,-0.39457,0.01191,0.01598,0.01142
0.62081,0.67788,-0.39379,0.01518,0.01202,0.01206
0.62083,0.67816,-0.39328,0.01728,0.00943,0.0129
0.62073,0.67833,-0.39314,0.02093,0.01308,0.01277
0.62043,0.67842,-0.39346,0.01721,0.01561,0.0095
0.61982,0.67849,-0.39429,0.01406,0.01955,0.01047
0.61905,0.67851,-0.39547,-0.00283,0.02315,0.01006
0.61821,0.67841,-0.39696,-0.01023,0.02616,0.0045
0.61734,0.67819,-0.39869,-0.01118,0.02852,0.002
0.61655,0.67788,-0.40043,-0.01858,0.0316,0.00068
0.61594,0.67745,-0.40208,-0.02181,0.02538,-0.00482
0.61542,0.67696,-0.40372,-0.0184,0.02328,-0.00479
0.61496,0.6764,-0.40534,-0.01291,0.01801,-0.00811
0.6146,0.67578,-0.40693,-0.00789,0.01551,-0.01039
0.61439,0.67517,-0.40826,-0.01,0.01401,-0.00733
0.61435,0.67463,-0.40921,-0.00972,0.00665,-0.00441
0.61445,0.67419,-0.40978,-0.00431,0.00587,-0.00233
0.61463,0.67384,-0.41009,-0.00132,0.01165,-0.00353
0.61482,0.67352,-0.41032,0.00525,0.01486,0.0023
0.61495,0.67326,-0.41055,0.00419,0.01502,0.00333
0.61504,0.67302,-0.41081,0.00779,0.01217,0.01085
0.61508,0.67283,-0.41107,0.00683,0.01406,0.00912
0.61508,0.67263,-0.41138,0.00566,0.01584,0.00896
0.61501,0.67242,-0.41184,0.00604,0.01636,0.00393
0.61487,0.67219,-0.41243,0.00383,0.01376,0.00212
0.61468,0.67196,-0.41307,0.00318,0.01294,0.00061
0.61448,0.6718,-0.41363,0.0026,0.01393,0.00024
0.61427,0.67167,-0.41417,0.00144,0.01441,0.00299
0.61403,0.67147,-0.41483,-0.00033,0.01307,0.00283
0.61377,0.67128,-0.41554,0.00319,0.01308,0.00169
0.61351,0.67116,-0.41612,0.00275,0.01456,0.00126
0.61325,0.67112,-0.41657,0.0029,0.01261,0.00281
0.61299,0.67111,-0.41695,0.0021,0.013,0.00382
0.6127,0.6711,-0.41741,0.00328,0.01328,0.00269
0.61234,0.67104,-0.41803,0.00249,0.01383,0.00093
0.61196,0.67099,-0.41866,0.00447,0.01759,0.0021
0.6116,0.67097,-0.41922,0.00092,0.01674,0.00062
0.61128,0.67098,-0.41967,-0.00514,0.01322,-0.00115
0.61102,0.67098,-0.42006,-0.00523,0.0148,-0.00089
0.61078,0.67099,-0.42038,-0.00556,0.0166,-0.00164
0.61058,0.67103,-0.42061,-0.00849,0.01303,-0.00272
0.61047,0.67107,-0.4207,-0.00723,0.01379,6e-05
0.61048,0.67111,-0.42062,-0.00261,0.01159,-0.00232
0.61057,0.67119,-0.42036,-0.00018,0.01179,0.00157
0.61072,0.67132,-0.41994,-0.00012,0.01253,-0.00012
0.61087,0.67151,-0.41943,5e-05,0.01245,0.00141
0.61101,0.67168,-0.41894,0.00508,0.0138,0.00108
0.61109,0.67186,-0.41853,0.006,0.01582,0.00037
0.61114,0.67204,-0.41818,0.00307,0.01483,0.00286
0.61117,0.67217,-0.41791,-0.00132,0.01588,0.00512
0.61119,0.67226,-0.41774,0.00206,0.01663,0.00291
0.61119,0.67234,-0.41761,0.00095,0.01809,0.00625
0.61116,0.67243,-0.41751,0.00105,0.01819,0.00482
0.61113,0.67252,-0.41743,0.00095,0.0211,0.00662
0.61106,0.67256,-0.41746,-0.00092,0.01763,0.00207
0.61099,0.67253,-0.41761,-0.00141,0.01754,0.00227
0.61092,0.67243,-0.41787,-0.00186,0.01528,6e-05
0.61086,0.67231,-0.41815,-0.00082,0.01079,-0.00128
0.61084,0.6722,-0.41835,-0.00162,0.0124,-0.00041
0.61084,0.67213,-0.41847,-0.00182,0.01374,-0.00066
0.61086,0.67209,-0.4185,6e-05,0.01556,0.00525
0.6109,0.67204,-0.41853,0.00057,0.01543,0.00125
0.61095,0.67195,-0.41859,-0.00139,0.01324,0.00369
0.611,0.67184,-0.4187,0.00138,0.01607,0.00139
0.61101,0.67174,-0.41885,-0.0005,0.01589,0.00074
0.61103,0.67165,-0.41896,0.00054,0.01307,0.00375
0.61108,0.67156,-0.41903,0.0003,0.01317,0.00091
0.61114,0.67144,-0.41914,0.00277,0.01443,4e-05
0.61117,0.67132,-0.41928,0.00229,0.01421,0.00055
0.61118,0.67123,-0.41942,0.00087,0.01404,0.00195
0.61118,0.67116,-0.41954,9e-05,0.01343,0.00369
0.61119,0.67106,-0.41966,-0.00174,0.01371,0.00314
0.61122,0.67097,-0.41978,0.0012,0.01479,0.00485
0.61123,0.67088,-0.41991,0.00027,0.0165,0.00214
0.61124,0.67078,-0.42004,0.00069,0.01426,0.00413
0.61125,0.67071,-0.42015,-0.00065,0.01463,0.00305
0.61124,0.67063,-0.42028,-0.00059,0.01623,0.0017
0.61121,0.67057,-0.42042,-0.00074,0.01619,0.00198
0.61118,0.67051,-0.42056,0.00172,0.01465,0.00168
0.61114,0.67046,-0.42071,-0.00032,0.01402,0.00099
0.6111,0.67041,-0.42084,0.00302,0.01192,0.00226
0.61106,0.67038,-0.42094,0.001,0.01405,0.00038
0.61103,0.67036,-0.42102,0.00127,0.01449,0.00017
0.611,0.67036,-0.42107,0.00025,0.01455,0.0051
0.61095,0.67038,-0.4211,-0.00095,0.01515,0.00449
0.6109,0.67042,-0.42112,0.00206,0.01609,0.00403
0.61084,0.67044,-0.42116,0.0016,0.01568,0.00159
0.61079,0.67045,-0.42122,-0.00023,0.01462,0.00148
0.61073,0.67048,-0.42127,-0.0005,0.01383,9e-05
0.61068,0.67048,-0.42133,0.00019,0.01402,0.00262
0.61065,0.67049,-0.42136,0.001,0.01424,0.00115
0.61061,0.67052,-0.42137,0.00204,0.01387,0.00302
0.61058,0.67055,-0.42138,-0.00074,0.01399,0.0026
0.61055,0.67056,-0.4214,0.00021,0.01473,0.00063
0.61054,0.67057,-0.42141,0.0009,0.01399,0.00191
0.61054,0.67058,-0.42139,0.00116,0.01586,0.00219
0.61051,0.6706,-0.42139,0.00118,0.01318,0.0039
0.61046,0.67064,-0.42141,-0.00058,0.01364,0.00219
0.61042,0.67067,-0.42141,0.0001,0.01465,0.00334
0.6104,0.67068,-0.42143,0.00192,0.0166,-0.00016
0.6104,0.67067,-0.42145,0.00295,0.01573,0.00052
0.61039,0.67067,-0.42146,0.00166,0.01464,0.0016
0.61038,0.67069,-0.42144,-0.00087,0.01141,0.00109
0.61039,0.67069,-0.42141,-0.0001,0.01233,0.00147
0.6104,0.67069,-0.42141,0.00284,0.0151,-2e-05
0.6104,0.6707,-0.4214,0.00217,0.01665,0.00264
0.6104,0.67071,-0.42138,-0.0007,0.01232,0.00099
0.6104,0.67072,-0.42137,-0.0009,0.0135,0.00038
0.61042,0.67073,-0.42131,0.00197,0.01602,0.00131
0.61046,0.67074,-0.42124,0.00194,0.01601,0.00125
0.61046,0.67077,-0.42119,0.00021,0.01542,0.00298
0.61045,0.6708,-0.42116,-0.00114,0.0144,0.00129
0.61046,0.6708,-0.42114,0.00247,0.01322,0.00209
0.61045,0.67082,-0.42113,0.00176,0.01452,0.00121
0.61043,0.67082,-0.42115,0.00192,0.01557,0.00045
0.61042,0.67082,-0.42118,-0.00111,0.01397,0.00268
0.61039,0.67081,-0.42123,0.00026,0.01278,0.00334
0.61039,0.6708,-0.42125,0.0027,0.01491,0.00063
0.61036,0.67083,-0.42125,0.00172,0.01261,0.00203
0.61031,0.67086,-0.42127,0.00181,0.01236,0.00025
0.61028,0.67087,-0.42129,0.00178,0.01393,0.00244
0.61025,0.6709,-0.42129,0.00088,0.01372,0.00084
0.61023,0.67093,-0.42128,0.0004,0.01463,0.00134
0.61021,0.67095,-0.42127,0.00033,0.01317,0.00043
0.6102,0.67098,-0.42124,-0.00015,0.01309,0.0001
0.6102,0.671,-0.4212,0.00071,0.01416,0.0005
0.61021,0.67103,-0.42115,0.00085,0.01452,0.00108
0.61022,0.67104,-0.42111,0.0021,0.01457,0.00145
0.61023,0.67106,-0.42107,0.00027,0.01299,0.00252
0.61024,0.67107,-0.42104,0.0015,0.0129,0.00258
0.61025,0.67108,-0.42101,0.00268,0.01348,0.00049
0.61026,0.67107,-0.42101,0.00276,0.01474,0.00166
0.61026,0.67107,-0.421,0.00102,0.01402,0.00293
0.61026,0.67108,-0.421,0.00182,0.014,-0.00092
0.61024,0.67108,-0.42102,0.00228,0.01367,0.00242
0.61022,0.67109,-0.42102,0.00111,0.01451,0.0015
0.6102,0.6711,-0.42104,0.00018,0.01417,0.0017
0.61019,0.6711,-0.42107,0.00206,0.01457,0.00112
0.61016,0.67109,-0.42113,0.00083,0.01284,0.00134
0.61013,0.67111,-0.42114,0.00076,0.01401,-0.0013
0.61011,0.67112,-0.42115,0.00182,0.01281,0.00147
0.61007,0.67115,-0.42115,0.00119,0.01356,-0.00022
0.61004,0.6712,-0.42113,0.00207,0.01424,0.00098
0.61,0.67126,-0.42108,0.0021,0.01189,-0.00011
0.60996,0.67135,-0.42099,0.00256,0.01305,0.00114
0.60992,0.67145,-0.42089,0.00035,0.01439,0.00468
0.6099,0.67155,-0.42077,-3e-05,0.01207,0.00106
0.60987,0.67164,-0.42066,0.00363,0.01677,0.00198
0.60983,0.67172,-0.42059,0.00329,0.01465,0.00099
0.6098,0.67181,-0.42049,0.00139,0.01192,-0.00163
0.60979,0.67189,-0.42038,0.00076,0.01154,-0.00177
0.60977,0.67197,-0.42028,0.00391,0.01309,7e-05
0.60973,0.67206,-0.42021,0.00377,0.01412,0.0016
0.60967,0.67214,-0.42015,0.00115,0.01325,0.00055
0.60959,0.67224,-0.42012,-0.00081,0.01404,0.00106
0.60954,0.6723,-0.42009,0.00033,0.01404,0.00044
0.60951,0.67236,-0.42003,0.00017,0.01435,-0.00024
0.6095,0.67242,-0.41995,0.00079,0.01417,0.00123
0.60949,0.67249,-0.41986,-9e-05,0.0146,-0.00055
0.60948,0.67254,-0.41978,0.0007,0.01332,0.00051
0.60948,0.67259,-0.4197,-0.0004,0.01353,0.0015
0.60946,0.67267,-0.41962,0.00141,0.01143,0.00218
0.60942,0.67273,-0.41956,0.00381,0.01341,0.00042
0.60937,0.6728,-0.41952,0.00366,0.01109,0.00149
0.60934,0.67287,-0.41946,0.00351,0.01234,7e-05
0.60932,0.67295,-0.41936,0.00256,0.01232,-0.00095
0.6093,0.67304,-0.41925,0.00168,0.01414,3e-05
0.60925,0.67314,-0.41917,0.00199,0.01282,-0.00082
0.60918,0.67324,-0.41911,-0.00039,0.01263,-0.00223
0.60912,0.67331,-0.41907,0.00201,0.01487,0.00014
0.60907,0.67338,-0.41904,-0.00012,0.0127,-0.00137
0.60901,0.67345,-0.419,-0.0004,0.0118,-0.00047
0.609,0.67352,-0.41892,-0.00264,0.01401,-0.00123
0.60901,0.67356,-0.41884,-0.00079,0.01183,-0.0011
0.60901,0.67361,-0.41876,0.00172,0.01188,3e-05
0.60903,0.67364,-0.41868,0.00114,0.01247,0.0001
0.60906,0.67366,-0.41859,-1e-05,0.01297,-0.00162
0.60911,0.67368,-0.4185,-0.00134,0.01189,-0.00121
0.60916,0.67366,-0.41845,0.00094,0.01231,-0.0015
0.60922,0.67364,-0.41841,0.00094,0.01261,0.0003
0.60929,0.67362,-0.41834,0.00169,0.01256,0.00042
0.60937,0.67358,-0.41828,0.00355,0.00798,-0.00194
0.60946,0.67353,-0.41822,0.00443,0.00979,-0.00316
0.60952,0.67349,-0.4182,0.00495,0.01175,0.00033
0.60956,0.67346,-0.4182,0.00461,0.01152,-0.00024
0.60956,0.67343,-0.41825,0.00133,0.01172,-0.00044
0.60958,0.67341,-0.41826,3e-05,0.01258,-0.0002
0.60962,0.67336,-0.41826,-0.00512,0.01499,-4e-05
0.60969,0.67329,-0.41829,-0.00358,0.01638,-0.0014
0.60976,0.6732,-0.41833,0.0013,0.0176,-0.0005
0.60982,0.6731,-0.41839,-0.003,0.01673,-0.00137
0.60992,0.67297,-0.41846,-0.00054,0.013,-0.00067
0.61001,0.67283,-0.41855,0.00269,0.01107,-0.0019
0.61009,0.6727,-0.41865,0.0055,0.00882,-0.00095
0.61015,0.67258,-0.41876,0.00722,0.00781,-0.00127
0.61018,0.67249,-0.41885,0.00673,0.00564,-0.00161
0.61021,0.67245,-0.41887,0.00428,0.00747,-0.00053
0.61025,0.67241,-0.41888,0.00495,0.0076,-0.00121
0.61028,0.67239,-0.41886,0.00318,0.01144,-0.00155
0.6103,0.67241,-0.41881,0.00254,0.01119,0.00217
0.61031,0.67242,-0.41878,0.00071,0.01189,-0.00021
0.61031,0.67246,-0.41871,-0.00153,0.01443,-0.00088
0.61032,0.67251,-0.41863,-0.00091,0.01716,-0.00288
0.61031,0.67254,-0.41858,-0.00462,0.01454,-0.00299
0.61033,0.67254,-0.41856,-0.00228,0.01308,-0.0046
0.61039,0.67252,-0.41849,-0.00281,0.01151,-0.00416
0.61047,0.67252,-0.41839,0.00242,0.00985,-0.00118
0.61053,0.67255,-0.41825,0.00254,0.00893,-0.00109
0.61058,0.67259,-0.41811,0.00503,0.00829,-0.00177
0.61062,0.67263,-0.41799,0.00509,0.01006,0.00133
0.61064,0.67268,-0.41787,0.00178,0.01317,0.00075
0.61066,0.67271,-0.4178,0.00188,0.01314,0.0018
0.61065,0.67272,-0.41778,-0.00075,0.01298,0.00162
0.61064,0.67271,-0.41783,0.00252,0.01318,-0.00147
0.61058,0.67271,-0.41791,0.0011,0.01197,-0.00087
0.61051,0.67272,-0.418,0.00274,0.01116,-0.00202
0.61043,0.67274,-0.41809,0.00403,0.00925,-0.00167
0.61036,0.67277,-0.41814,0.00222,0.00731,-0.00356
0.61028,0.67281,-0.41818,0.00052,0.0089,-0.00461
0.61024,0.67285,-0.41818,0.00135,0.00935,0.00019
0.6102,0.67291,-0.41814,0.00014,0.01398,-0.00305
0.61019,0.67297,-0.41807,-0.00241,0.01543,-0.0035
0.61017,0.67302,-0.41801,-0.00218,0.01492,-0.00162
0.61019,0.67304,-0.41794,-0.00137,0.0127,-0.00338
0.61023,0.67306,-0.41787,-0.00073,0.01184,-0.00364
0.61028,0.67308,-0.41777,0.00088,0.01117,-0.00337
0.61033,0.6731,-0.41764,0.0027,0.00967,-0.00146
0.61038,0.67316,-0.41749,0.00252,0.00856,-0.0004
0.61044,0.67321,-0.41731,0.00342,0.0097,-0.00217
0.61051,0.67326,-0.41713,0.00432,0.01053,-0.00133
0.61059,0.6733,-0.41696,0.00436,0.01132,-0.00283
0.61065,0.67334,-0.41678,0.00252,0.0128,1e-05
0.61074,0.67341,-0.41654,-0.00132,0.01071,-0.00198
0.61083,0.67347,-0.41631,0.00042,0.01326,-0.00274
0.61089,0.67356,-0.41609,0.00447,0.0138,-0.00442
0.61088,0.67373,-0.41583,0.00346,0.01125,-0.00159
0.61091,0.6739,-0.41551,-0.00052,0.00891,-0.00157
0.611,0.6741,-0.41504,-0.00126,0.0056,-0.00384
0.61115,0.67432,-0.41449,-0.00075,0.01048,-0.00541
0.61131,0.67454,-0.41387,-0.00186,0.01301,-0.00504
0.6115,0.67471,-0.41331,-0.00579,0.00846,-0.00532
0.61177,0.67483,-0.41271,-0.00875,0.00684,-0.00536
0.61214,0.67493,-0.412,-0.0058,0.0055,-0.00516
0.61261,0.67507,-0.41108,-0.00338,0.00515,-0.00687
0.61313,0.67528,-0.40997,-0.00116,0.00731,-0.00898
0.6137,0.67552,-0.40872,-0.00144,0.01493,-0.00327
0.6143,0.67576,-0.40742,0.00045,0.01981,0.00215
0.61486,0.67597,-0.40622,0.00178,0.01961,0.00335
0.61538,0.67611,-0.40519,0.00216,0.01776,0.00884
0.61586,0.67615,-0.40439,0.00505,0.01552,0.00258
0.61627,0.6761,-0.40385,0.00665,0.01346,0.00235
0.61659,0.67596,-0.4036,0.00472,0.01493,0.00089
0.61686,0.67578,-0.4035,0.00445,0.01252,0.00134
0.61712,0.67558,-0.40343,0.00115,0.00987,0.00032
0.61741,0.67541,-0.40328,-0.00031,0.00974,0.00066
0.61775,0.67525,-0.40302,-0.00048,0.01262,-0.00254
0.61808,0.67511,-0.40274,0.00189,0.01456,-0.00361
0.61839,0.67499,-0.40247,0.00269,0.01144,-0.00568
0.61865,0.67488,-0.40226,0.00632,0.00803,-0.00222
0.61892,0.67478,-0.40201,0.00468,0.00714,-0.00089
0.61918,0.67472,-0.40171,0.00511,0.00745,-0.00291
0.61943,0.67469,-0.40138,0.00556,0.00944,-0.0036
0.61964,0.67468,-0.40107,0.00797,0.0058,-0.00117
0.61981,0.67472,-0.40073,0.00577,0.00892,-0.00447
0.61994,0.6748,-0.40039,0.00289,0.00748,-0.00424
0.61999,0.67496,-0.40005,0.00525,0.0091,-0.00163
0.61999,0.67518,-0.39968,0.0035,0.00731,0.00083
0.61999,0.67541,-0.39929,0.00263,0.00763,-0.00078
0.61999,0.67562,-0.39893,0.00377,0.01089,0.00013
0.62,0.67579,-0.39864,0.00555,0.01292,-0.00082
0.61997,0.67592,-0.39846,0.0074,0.01283,-0.00173
0.61985,0.67603,-0.39845,0.00622,0.01309,0.0006
0.61972,0.67612,-0.39851,0.00435,0.00825,0.00387
0.61962,0.67617,-0.39858,0.00488,0.0067,-0.00105
0.61949,0.67623,-0.39867,0.00582,0.01003,-0.00074
0.61926,0.67634,-0.39885,0.00676,0.0138,0.00089
0.61897,0.67647,-0.39908,0.00305,0.01636,0.00249
0.61865,0.67656,-0.39943,-0.0006,0.01883,0.00395
0.6183,0.67658,-0.39994,0.00058,0.0193,0.00223
0.61793,0.67651,-0.40062,-0.00364,0.01848,-0.0
0.61756,0.6764,-0.40137,-0.00997,0.01361,-0.00496
0.61719,0.6763,-0.4021,-0.00887,0.01346,-0.00663
0.61688,0.67621,-0.40274,-0.00845,0.01065,-0.01309
0.61666,0.67617,-0.40314,-0.00837,0.00953,-0.01403
0.61651,0.67621,-0.4033,-0.00565,0.00727,-0.01511
0.61648,0.67629,-0.40322,-0.00209,0.00137,-0.01253
0.61658,0.67643,-0.40283,-0.00186,-7e-05,-0.01225
0.6168,0.67669,-0.40205,0.00414,-0.00321,-0.00822
0.61711,0.67711,-0.40087,0.01094,-0.00323,-0.00145
0.61749,0.67762,-0.39942,0.01604,-0.0047,-0.00188
0.61786,0.67822,-0.39784,0.02234,0.00292,0.00569
0.61814,0.67885,-0.3963,0.02317,0.0088,0.01289
0.61824,0.67952,-0.39501,0.01994,0.01038,0.0125
0.61809,0.68015,-0.39416,0.01901,0.01347,0.01477
0.6177,0.68066,-0.3939,0.01524,0.01685,0.01148
0.61706,0.68104,-0.39424,0.01165,0.01829,0.00793
0.61624,0.68128,-0.39511,0.0064,0.01974,0.00663
0.61527,0.68142,-0.39638,-0.00461,0.01992,-5e-05
0.61426,0.68143,-0.39792,-0.00726,0.01748,-0.00096
0.61328,0.68133,-0.3996,-0.00915,0.01831,-0.00236
0.61239,0.68114,-0.40128,-0.01467,0.01762,-0.00705
0.61159,0.68089,-0.40292,-0.01392,0.01856,-0.0072
0.61088,0.68057,-0.40454,-0.01077,0.01748,-0.0078
0.61026,0.6802,-0.4061,-0.00813,0.0131,-0.01008
0.60972,0.67978,-0.40761,-0.00608,0.00842,-0.00993
0.60928,0.67931,-0.40904,-0.00549,0.00561,-0.0084
0.60891,0.67884,-0.41037,-0.00313,0.00134,-0.00916
0.60864,0.67842,-0.41147,-0.00311,-0.0012,-0.01374
0.60848,0.6781,-0.41223,-0.00405,0.0008,-0.00937
0.60849,0.67788,-0.41258,-0.00713,0.00296,-0.00977
0.60867,0.67771,-0.41259,-0.00797,0.00863,-0.0102
0.60898,0.67759,-0.41233,-0.00626,0.0111,-0.00988
0.60939,0.67755,-0.41179,-0.00581,0.01039,-0.00915
0.60986,0.67758,-0.41104,-0.0028,0.00912,-0.00626
0.61037,0.67765,-0.41016,3e-05,0.00788,-0.00422
0.61087,0.67775,-0.40925,0.00761,0.00582,-0.00355
0.61135,0.67786,-0.40836,0.01504,0.00454,-0.00159
0.61178,0.67797,-0.40753,0.01664,0.00429,0.0023
0.61217,0.67808,-0.40676,0.01437,0.00638,0.00644
0.61249,0.67817,-0.40613,0.01161,0.00842,0.00629
0.61273,0.67822,-0.40569,0.01067,0.01214,0.0072
0.61285,0.67825,-0.40545,0.0081,0.0176,0.00608
0.61288,0.67821,-0.40547,0.00184,0.01977,0.0038
0.6128,0.67812,-0.40574,-0.00241,0.01965,0.00199
0.61265,0.67796,-0.40624,-0.00409,0.02157,0.00041
0.61245,0.67772,-0.40694,-0.00748,0.01783,-0.00663
0.61223,0.67741,-0.40778,-0.00835,0.01693,-0.00793
0.61209,0.67704,-0.4086,-0.00394,0.01276,-0.00815
0.61201,0.67668,-0.40932,0.00099,0.00774,-0.00674
0.61196,0.67633,-0.40998,0.00238,0.0049,-0.00793
0.61189,0.67603,-0.41058,0.00092,0.00301,-0.00611
0.61184,0.67578,-0.41106,-0.00129,0.00441,-0.00628
0.61182,0.67557,-0.41144,-0.00152,0.00416,-0.00698
0.61181,0.67543,-0.41168,0.00354,0.00424,-0.00416
0.61185,0.67536,-0.41174,0.0063,0.00421,-0.00531
0.61191,0.67536,-0.41165,0.01162,0.00329,-0.00284
0.61193,0.67544,-0.41149,0.01463,0.00246,0.00089
0.61187,0.67558,-0.41134,0.01519,0.00131,-0.00145
0.61179,0.67575,-0.41119,0.01274,0.00212,-0.00176
0.61172,0.67589,-0.41108,0.00816,0.00604,-0.00157
0.61162,0.67604,-0.41095,0.00091,0.01171,-0.00176
0.61151,0.67624,-0.41079,-0.00264,0.0135,-0.00167
0.61144,0.67644,-0.41057,-0.01655,0.02559,-0.00285
0.61143,0.67654,-0.41043,-0.01679,0.02511,-0.00632
0.61143,0.67656,-0.41039,-0.01309,0.02562,-0.00741
0.61148,0.67653,-0.41037,-0.01002,0.02101,-0.0075
0.6116,0.67644,-0.41033,-0.00321,0.01464,-0.00558
0.61175,0.67632,-0.41031,0.00234,0.01084,-0.00653
0.61188,0.6762,-0.41031,0.00964,-0.00015,-0.00628
0.61201,0.6761,-0.41028,0.01055,-0.00258,-0.00604
0.61214,0.67602,-0.41022,0.0099,-0.00361,-9e-05
0.61228,0.67596,-0.41011,0.01144,0.00287,0.00371
0.61241,0.6759,-0.41001,0.01435,0.00998,0.00224
0.61242,0.67586,-0.41006,0.00858,0.01203,0.00387
0.61235,0.67582,-0.41024,0.00385,0.01032,0.00234
0.61226,0.67576,-0.41047,0.00073,0.00994,-0.00381
0.61217,0.67573,-0.41066,0.00106,0.00965,-0.00775
0.61207,0.67575,-0.41076,-0.00015,0.01077,-0.00846
0.61201,0.6758,-0.41078,-0.00291,0.00972,-0.00589
0.61199,0.67582,-0.41076,-0.0036,0.0096,-0.00652
0.61201,0.67584,-0.41072,0.00031,0.01203,-0.00563
0.61203,0.67587,-0.41063,-0.00128,0.01296,-0.00638
0.61208,0.6759,-0.41051,-0.00232,0.01252,-0.00176
0.61213,0.67593,-0.41038,-0.00032,0.01111,-0.00171
0.61219,0.67594,-0.41028,0.0013,0.01123,-0.00259
0.61225,0.67595,-0.41016,0.00408,0.00944,-0.00152
0.6123,0.67597,-0.41005,0.00345,0.00808,-0.00317
0.61233,0.67601,-0.40996,0.00318,0.00719,-0.0036
0.61236,0.67601,-0.40991,0.00513,0.0092,-0.00148
0.61238,0.67601,-0.40988,0.00462,0.00946,-0.00125
0.61237,0.67602,-0.40988,0.00577,0.01088,-0.00224
0.61234,0.676,-0.40995,0.00266,0.00996,-0.00059
0.61226,0.676,-0.41007,0.00443,0.01049,-0.00168
0.61219,0.67599,-0.4102,0.00015,0.01089,-0.0036
0.61212,0.67597,-0.41033,0.00111,0.00959,-0.00318
0.61207,0.67596,-0.41041,0.00084,0.01093,-0.00359
0.61203,0.67595,-0.41049,0.00047,0.0103,-0.00235
0.61201,0.67593,-0.41057,0.00053,0.01133,-0.00367
0.61196,0.67594,-0.41063,0.00306,0.01012,-0.00486
0.61195,0.67594,-0.41063,0.00011,0.00809,-0.00825
0.61196,0.67595,-0.41061,-0.00095,0.00624,-0.00628
0.61198,0.67596,-0.41055,-0.00159,0.00994,-0.0056
0.61203,0.67598,-0.41045,0.00081,0.01058,-0.0061
0.61207,0.676,-0.41035,0.002,0.01037,-0.00217
0.61211,0.67602,-0.41027,0.00247,0.00885,-0.00236
0.61213,0.67603,-0.41021,0.00465,0.00945,-0.00107
0.61213,0.67604,-0.41021,0.00428,0.00812,-0.00227
0.61212,0.67604,-0.41021,0.0034,0.00908,-0.00515
0.61211,0.67606,-0.4102,0.00152,0.00616,-0.00658
0.61207,0.67612,-0.41016,0.00457,0.0075,-0.00681
0.61199,0.67619,-0.41016,0.00248,0.0084,-0.00667
0.61191,0.67629,-0.41013,0.00017,0.01102,-0.00361
0.61183,0.67638,-0.4101,-0.00277,0.01014,-0.00551
0.61177,0.67645,-0.41006,0.00195,0.01256,-0.00415
0.61173,0.6765,-0.41004,0.00021,0.01341,-0.00492
0.61169,0.67656,-0.41001,0.00347,0.01126,-0.00447
0.61165,0.67661,-0.40997,0.00062,0.00568,-0.004
0.61166,0.67667,-0.40987,0.00243,0.00697,-0.00625
0.61164,0.67675,-0.40976,0.00245,0.00689,-0.00636
0.61161,0.67686,-0.40962,0.00093,0.00992,-0.00156
0.61159,0.67695,-0.40951,0.00054,0.00941,-0.00312
0.61157,0.67702,-0.40942,-0.00093,0.00938,-0.00526
0.61156,0.67708,-0.40934,-0.00063,0.01202,-0.0049
0.61159,0.67713,-0.40922,0.00105,0.01047,-0.00352
0.61161,0.67718,-0.40908,-0.00068,0.01036,-0.00444
0.61164,0.67725,-0.40895,0.00131,0.00961,-0.00386
