gravity.x,gravity.y,gravity.z,userAcceleration.x,userAcceleration.y,userAcceleration.z
-0.80958,0.3987,0.43079,0.00635,0.00958,0.00408
-0.80947,0.39875,0.43096,0.00947,0.00803,0.0032
-0.80922,0.39904,0.43117,0.00687,0.01844,-0.00069
-0.80894,0.39937,0.43139,0.0017,0.0196,-0.00299
-0.80858,0.39966,0.4318,0.00374,0.01504,-0.00232
-0.80805,0.39998,0.43249,0.00489,0.0075,0.00232
-0.80751,0.40032,0.43318,0.00161,0.0097,0.00231
-0.80711,0.40052,0.43374,0.00334,0.008,0.00326
-0.80676,0.40088,0.43407,0.01478,0.00873,0.00461
-0.80645,0.40118,0.43437,0.01189,0.00535,0.00602
-0.80617,0.40154,0.43454,0.0091,0.00849,0.00766
-0.80599,0.40195,0.43451,0.00897,0.01272,0.00566
-0.80579,0.40243,0.43442,0.01415,0.00908,0.00577
-0.80558,0.40295,0.43435,0.01323,0.00973,0.00457
-0.80527,0.40351,0.43438,0.01089,0.00905,0.00261
-0.80507,0.40401,0.43429,0.00968,0.00964,0.00455
-0.80499,0.40439,0.43411,0.00893,0.00711,0.00504
-0.80485,0.40482,0.43396,0.00855,0.00728,0.00064
-0.80468,0.40522,0.43389,0.00811,0.00616,0.00216
-0.80451,0.40552,0.43392,0.00916,0.00698,0.00268
-0.80435,0.40577,0.434,0.00825,0.0085,0.00445
-0.80417,0.40606,0.43405,0.01033,0.00989,0.0047
-0.80409,0.40625,0.43403,0.01208,0.00879,0.00525
-0.80396,0.40645,0.43407,0.01551,0.01079,0.00614
-0.80384,0.4066,0.43416,0.01441,0.01527,0.00455
-0.80373,0.40672,0.43425,0.01536,0.01247,0.0052
-0.8036,0.40683,0.43439,0.01091,0.01027,0.00433
-0.80349,0.40694,0.43449,0.01003,0.00802,0.00176
-0.80336,0.40706,0.43462,0.00914,0.00116,0.00442
-0.80322,0.40722,0.43473,0.00578,0.00924,0.00283
-0.80318,0.4074,0.43463,0.00141,0.00774,0.00615
-0.80322,0.40758,0.4344,0.00553,0.0065,0.00641
-0.80324,0.40768,0.43425,0.00826,0.00252,0.00157
-0.8032,0.40779,0.43424,0.00756,0.00342,0.00515
-0.80318,0.40783,0.43423,0.00937,0.0028,0.00509
-0.80319,0.40788,0.43417,0.01009,0.00719,0.00575
-0.8032,0.40796,0.43406,0.01054,0.00959,0.0015
-0.80325,0.40802,0.43393,0.00998,0.0099,0.00109
-0.80322,0.40815,0.43385,0.00839,0.01133,-0.00036
-0.80317,0.40829,0.43383,0.0073,0.0105,0.00026
-0.80311,0.40836,0.43386,0.00765,0.01104,-0.00016
-0.80299,0.40847,0.43399,0.01055,0.00549,0.00263
-0.80288,0.40857,0.43408,0.00625,0.00259,0.00659
-0.80278,0.40876,0.43409,0.00265,0.00217,0.00653
-0.80266,0.40897,0.43411,0.00361,0.00306,0.00278
-0.80252,0.40917,0.43419,0.00768,0.00138,0.0014
-0.80232,0.40938,0.43436,0.00642,0.00119,0.00431
-0.80211,0.40958,0.43455,0.00226,0.00485,0.00382
-0.80183,0.40973,0.43493,0.00226,0.01347,-0.0028
-0.80155,0.40977,0.43541,0.00659,0.01763,-0.00394
-0.80141,0.40977,0.43567,0.02149,0.00467,0.00684
-0.80145,0.40971,0.43565,0.01088,0.01213,0.00389
-0.80161,0.40942,0.43564,0.00847,0.01983,0.00258
-0.80178,0.40893,0.43578,0.02106,0.01058,0.01055
-0.80191,0.40824,0.43618,0.01535,0.00266,0.01294
-0.80213,0.40772,0.43627,0.00259,0.00605,0.00941
-0.80238,0.40748,0.43604,0.00822,-0.00271,0.01167
-0.8026,0.40743,0.43567,0.00948,-0.00228,0.01217
-0.8029,0.40742,0.43513,0.004,0.00527,0.00916
-0.80316,0.40736,0.4347,0.00182,-0.00029,-0.00846
-0.80328,0.40716,0.43467,0.00169,-0.00941,-0.0178
-0.80325,0.40702,0.43485,-0.00063,-0.01326,-0.01514
-0.80313,0.40709,0.43502,-0.01218,-0.00376,-0.00688
-0.80317,0.40723,0.4348,-0.00012,0.00202,-0.00043
-0.80335,0.40739,0.43432,0.00686,0.00151,0.00701
-0.80365,0.40756,0.43362,0.01278,0.00336,0.01165
-0.80395,0.40778,0.43285,0.01057,0.00459,0.01202
-0.80421,0.40803,0.43213,0.01705,0.01288,0.0041
-0.8043,0.40822,0.43179,0.01626,0.01285,0.00296
-0.80426,0.40824,0.43185,0.0101,0.02028,0.0046
-0.80425,0.40811,0.43199,6e-05,0.02398,-0.0011
-0.80419,0.4079,0.43229,0.01083,0.01984,-0.00539
-0.80402,0.40751,0.43299,0.01625,0.00291,0.0047
-0.80383,0.40703,0.43377,0.00946,0.00863,0.00955
-0.80384,0.40646,0.4343,0.00692,0.01108,0.01105
-0.80409,0.40583,0.43441,0.00908,0.00011,0.01328
-0.8044,0.40522,0.43442,0.0051,-0.00888,0.00848
-0.80461,0.40478,0.43443,-0.00363,-0.01048,0.00713
-0.80469,0.40456,0.43449,-0.00547,-0.01628,-0.00056
-0.80471,0.40456,0.43446,-0.00753,-0.00061,-0.00352
-0.80466,0.4048,0.43432,-0.0099,0.006,-0.0073
-0.80448,0.40501,0.43447,-0.00245,0.01247,-0.02107
-0.8041,0.40518,0.43502,0.0078,0.01166,-0.01909
-0.80364,0.40516,0.43588,0.01568,0.00513,-0.00014
-0.80324,0.40533,0.43646,-0.00351,0.00619,0.01056
-0.80305,0.40556,0.43659,-0.00955,0.00871,0.01349
-0.80296,0.40584,0.43651,0.00588,-0.00392,0.0049
-0.80269,0.40599,0.43686,0.0099,0.00041,0.0056
-0.80231,0.40601,0.43754,0.01228,2e-05,0.0069
-0.802,0.40604,0.43808,0.01034,0.00279,0.01617
-0.80188,0.40611,0.43824,0.01311,0.01069,0.00277
-0.8018,0.40609,0.43839,0.01515,0.00567,-0.00063
-0.80162,0.40593,0.43888,0.0137,-0.0011,0.005
-0.80139,0.40582,0.43939,0.00644,0.00267,0.0105
-0.80132,0.40585,0.43949,0.00151,0.01255,0.00718
-0.80127,0.40592,0.43954,0.01982,0.00087,0.00741
-0.80122,0.40584,0.43968,0.02128,-0.00023,0.01247
-0.80125,0.40575,0.43971,0.02008,-0.00152,0.0143
-0.80138,0.40579,0.43944,0.00113,-0.00045,0.00432
-0.80156,0.4059,0.43901,0.00362,0.00142,0.00058
-0.80166,0.406,0.43873,0.00909,0.00158,0.00323
-0.80169,0.40605,0.43864,-0.00321,0.00209,-0.00125
-0.80186,0.40615,0.43822,-0.00166,0.0069,-0.00248
-0.80203,0.40628,0.43781,-0.00147,0.00868,-0.00621
-0.80204,0.40642,0.43766,0.00732,0.0071,-0.01104
-0.80202,0.40645,0.43767,0.01619,0.00345,-0.00308
-0.80201,0.40638,0.43774,0.00373,0.00205,0.0033
-0.80203,0.40636,0.43773,-0.00031,0.00865,0.00596
-0.802,0.40632,0.43782,0.00918,0.00075,0.01357
-0.80194,0.40631,0.43794,0.00952,0.00562,0.01294
-0.80198,0.40626,0.43791,0.00764,0.00723,0.00948
-0.80219,0.4062,0.43758,0.02267,-0.00216,0.00331
-0.80251,0.40597,0.43721,0.01861,-0.0044,0.00382
-0.80276,0.40576,0.43694,0.00781,-6e-05,0.0043
-0.80295,0.40564,0.43671,-0.00304,0.01002,0.00277
-0.80301,0.40564,0.43658,-0.00395,0.01309,0.00211
-0.80301,0.40573,0.43651,0.01533,-0.01012,0.00941
-0.80314,0.40586,0.43615,0.02674,-0.01595,0.0192
-0.80341,0.40597,0.43554,0.02946,-0.01301,0.02099
-0.80383,0.40607,0.43467,0.01317,-0.00092,0.0212
-0.80445,0.40604,0.43356,0.01232,-0.00322,0.01724
-0.80518,0.40593,0.4323,0.00721,-0.00839,0.01504
-0.8059,0.4059,0.43099,0.00244,-0.00469,0.00264
-0.8065,0.40595,0.42983,-0.0008,-0.0019,-0.0049
-0.80695,0.40599,0.42894,-0.01806,-0.01079,-0.00781
-0.8072,0.4061,0.42836,-0.01389,0.00859,-0.01769
-0.80727,0.40634,0.428,-0.01073,0.00382,-0.01067
-0.80728,0.40663,0.42771,-0.00591,0.00545,-0.01499
-0.80727,0.40689,0.42748,-0.00486,0.01023,-0.0178
-0.8072,0.40716,0.42736,-0.0026,0.0072,-0.01267
-0.80701,0.40748,0.42741,-0.00847,0.00254,-0.00671
-0.8068,0.40782,0.42749,-0.0093,0.01053,-0.00923
-0.80651,0.4082,0.42767,-0.00333,0.01722,-0.00915
-0.80612,0.40838,0.42823,-0.00136,0.02171,-0.00913
-0.80563,0.40847,0.42905,-0.00345,0.00954,-0.00319
-0.80508,0.40848,0.43009,0.00085,0.01404,-0.00282
-0.80447,0.40856,0.43116,0.0044,0.01364,0.00428
-0.80381,0.40866,0.43229,0.00512,0.00282,0.01043
-0.80319,0.40873,0.43337,0.00911,-0.0051,0.00296
-0.80258,0.40873,0.4345,0.0095,-0.00234,0.00121
-0.80196,0.40881,0.43556,0.01073,-0.00561,0.01585
-0.80138,0.4088,0.43665,0.02369,-0.01369,0.02168
-0.80097,0.40877,0.43741,0.02249,-0.02073,0.02458
-0.80083,0.40887,0.43758,0.00937,-0.0135,0.01759
-0.80084,0.40912,0.43734,0.00322,-0.00481,0.01042
-0.80077,0.40945,0.43715,0.005,-0.00956,0.00494
-0.80053,0.40967,0.43739,0.00687,-0.0177,-0.00029
-0.80027,0.41002,0.43754,0.00376,-0.009,-0.00198
-0.80001,0.41039,0.43766,-0.00364,0.00303,-0.00065
-0.79975,0.41084,0.43772,0.00823,-0.00793,0.0048
-0.79949,0.41139,0.43768,0.01163,-0.00686,0.01206
-0.79929,0.41208,0.43739,0.01557,-0.00553,0.01348
-0.79919,0.41282,0.43688,0.02095,0.00572,0.01747
-0.79927,0.41327,0.4363,0.03168,0.00212,0.01739
-0.79953,0.4133,0.43579,0.03136,-0.00609,0.01617
-0.79995,0.41317,0.43516,0.01494,0.01531,0.01341
-0.80081,0.41282,0.43389,0.03363,0.01691,0.013
-0.80292,0.41236,0.43042,0.04425,0.01145,0.02626
-0.80496,0.41186,0.42707,-0.04669,0.03017,-0.05369
-0.80503,0.41204,0.42678,-0.08139,0.05058,-0.02451
-0.80436,0.41267,0.42743,-0.04583,0.02411,-0.01149
-0.80354,0.41306,0.42859,0.00361,-0.03217,0.0007
-0.8035,0.41334,0.42838,0.00744,-0.01904,-0.00482
-0.80392,0.41348,0.42747,0.00749,-0.00915,-0.01141
-0.80439,0.41345,0.42662,-0.00562,-0.00492,-0.00778
-0.80459,0.4132,0.42649,-0.00842,-0.00092,-0.00817
-0.8045,0.41318,0.42667,-0.01104,-0.00339,-0.00044
-0.8041,0.41342,0.4272,-0.00927,-0.00363,-0.00029
-0.80339,0.41383,0.42814,-0.00278,-0.00078,0.00244
-0.80255,0.41434,0.42923,0.00741,-0.00076,0.00936
-0.80176,0.41484,0.43021,0.0166,-0.00453,0.01329
-0.80107,0.41536,0.43099,0.01633,-0.0025,0.01175
-0.8005,0.41584,0.43159,0.0192,-0.00052,0.01695
-0.80005,0.41624,0.43204,0.02197,-0.00064,0.02087
-0.79978,0.4165,0.43229,0.02423,0.00033,0.0161
-0.79972,0.41664,0.43227,0.01903,0.00106,0.01892
-0.79979,0.41669,0.43209,0.01117,0.00158,0.00703
-0.80001,0.41674,0.43163,0.00635,0.00089,0.0024
-0.80032,0.41679,0.43101,0.00178,-0.00038,-0.00044
-0.80061,0.41685,0.43041,-0.0062,0.0001,-0.00489
-0.80088,0.41693,0.42983,-0.00793,-0.00026,-0.00763
-0.80108,0.417,0.42938,-0.00696,-0.0002,-0.00905
-0.80116,0.41704,0.42921,-0.00432,-0.00331,-0.00999
-0.80114,0.41703,0.42925,-0.00503,-0.00112,-0.00383
-0.80105,0.41703,0.42942,-0.00516,-0.00117,-0.00562
-0.80095,0.4171,0.42954,-0.00351,-0.00038,-0.00337
-0.8008,0.41719,0.42972,0.00475,-0.00076,0.00013
-0.80057,0.41732,0.43003,0.00667,-0.00139,0.00425
-0.80032,0.41741,0.43041,0.00726,-0.00297,0.00837
-0.80015,0.41746,0.43068,0.00721,-0.00188,0.01201
-0.80001,0.41754,0.43085,0.00891,0.00295,0.01152
-0.7999,0.41771,0.4309,0.00315,0.00276,0.00782
-0.79982,0.41786,0.43091,0.0072,-0.00103,0.00249
-0.7997,0.41795,0.43103,0.0059,-0.00642,0.00734
-0.79959,0.41805,0.43115,0.00323,-0.00559,0.00834
-0.79955,0.41815,0.43113,0.00444,-0.00434,0.00508
-0.79956,0.41821,0.43105,0.00427,-0.0046,0.00384
-0.79955,0.41829,0.43097,0.00433,-0.00362,-0.00206
-0.79955,0.41841,0.43088,0.00243,-0.00301,-0.00467
-0.79952,0.41854,0.43079,0.00301,-0.00154,-0.0025
-0.79943,0.41868,0.43083,0.00176,0.00093,-0.00091
-0.79931,0.41884,0.43089,0.00352,0.0026,0.00264
-0.79919,0.41899,0.43097,0.00654,0.00198,0.00225
-0.79911,0.41907,0.43104,0.00693,-0.00228,0.00351
-0.79902,0.41913,0.43115,0.00571,-0.00202,0.00539
-0.79897,0.41913,0.43125,0.00539,8e-05,0.00648
-0.79898,0.41909,0.43126,0.00355,-0.00094,0.00519
-0.79903,0.41901,0.43125,0.006,-0.00063,0.00149
-0.79909,0.4189,0.43123,0.00829,-0.00046,0.00163
-0.79914,0.4188,0.43125,0.00482,-0.0028,0.00104
-0.79916,0.41874,0.43128,0.00185,-0.00088,0.00529
-0.7992,0.41871,0.43122,0.00098,-0.00213,0.00368
-0.79923,0.4187,0.43117,0.00178,-6e-05,0.0014
-0.79923,0.41867,0.43119,0.00437,-0.00539,0.00371
-0.7992,0.41866,0.43127,0.00554,-0.00512,0.0041
-0.7992,0.41863,0.43129,0.00419,-0.00432,0.00361
-0.79927,0.41853,0.43128,0.00147,-0.00063,0.00551
-0.79932,0.41847,0.43122,0.00224,0.0025,0.00324
-0.7994,0.41846,0.43109,-0.00353,0.00402,0.002
-0.7995,0.41847,0.4309,0.00386,-0.0044,-0.00376
-0.79956,0.41849,0.43077,0.00378,-0.00504,0.00043
-0.79956,0.41848,0.43077,0.00585,-0.00327,0.00159
-0.79959,0.41838,0.43081,0.00681,-0.00502,0.00417
-0.79965,0.41826,0.43082,0.00502,-0.00391,0.00678
-0.79973,0.41816,0.43078,0.00354,-0.00135,0.00241
-0.79983,0.41808,0.43066,0.00137,-0.00106,0.00037
-0.79991,0.41807,0.43052,0.00086,-0.00205,0.00173
-0.79997,0.41804,0.43044,0.00438,-0.00076,0.00259
-0.8,0.418,0.43043,0.00628,0.00057,0.00093
-0.80002,0.41794,0.43044,0.00837,0.00061,0.00399
-0.80007,0.41789,0.43041,0.00258,-0.0035,0.00269
-0.8001,0.41785,0.43038,-8e-05,-0.00045,0.00366
-0.80012,0.41782,0.43037,0.00115,-0.00207,0.00302
-0.80011,0.41779,0.43042,0.00132,-0.00513,0.00089
-0.80014,0.41775,0.43041,0.00149,-0.00437,0.00293
-0.80017,0.41771,0.43039,0.00365,-0.0042,0.00194
-0.8002,0.41768,0.43037,0.00326,-0.00342,0.00338
-0.80023,0.41765,0.43034,0.00349,-0.00165,0.0002
-0.80029,0.41762,0.43026,0.00201,-0.00031,0.0032
-0.80034,0.41758,0.43021,0.00302,0.00073,0.00185
-0.80034,0.41752,0.43025,0.00271,-0.00217,-0.00202
-0.80033,0.41748,0.43033,0.00328,-0.00277,0.00246
-0.80028,0.41748,0.43041,0.00242,-0.00091,0.00169
-0.80028,0.41743,0.43046,0.00648,-0.00468,0.00186
-0.8003,0.41735,0.4305,0.00314,-0.0046,0.00256
-0.80031,0.41733,0.43049,-0.00335,-0.00061,0.00316
-0.8004,0.41732,0.43033,-0.00105,0.00188,0.00163
-0.8005,0.4173,0.43017,0.00299,-0.00249,-0.00176
-0.80056,0.41728,0.43009,0.00138,-0.0005,0.00257
-0.8006,0.41724,0.43005,0.00264,-0.00406,0.00269
-0.80065,0.41716,0.43004,0.00516,-0.00391,0.00313
-0.80071,0.41709,0.42998,0.00552,-0.00422,0.00325
-0.80081,0.41701,0.42989,0.00427,0.00082,-0.00082
-0.80091,0.41695,0.42975,0.00437,0.00088,-0.00069
-0.80099,0.41687,0.42968,0.00216,0.00047,-0.00054
-0.80106,0.41679,0.42963,0.00363,-3e-05,-0.00022
-0.80111,0.41673,0.42959,0.00393,0.00077,0.00075
-0.80115,0.41669,0.42957,0.00517,9e-05,0.0009
-0.80118,0.41664,0.42955,0.00295,-0.00471,0.00085
-0.80121,0.41659,0.42953,0.00103,-0.00426,0.00118
-0.80124,0.41655,0.42953,0.00094,-0.00519,0.00165
-0.80124,0.41652,0.42956,0.00024,-0.00385,0.0041
-0.80126,0.41651,0.42953,0.00026,-0.00384,0.00412
-0.80127,0.4165,0.42951,0.00389,-0.0016,-0.00134
-0.80128,0.41649,0.42951,0.00372,-0.00159,0.00149
-0.80126,0.4165,0.42955,0.00444,-0.00259,0.00051
-0.80124,0.41649,0.42958,0.00469,0.00012,0.00137
-0.80123,0.41646,0.42962,0.0037,0.00099,0.00106
-0.80122,0.41643,0.42968,0.00519,-0.0008,0.00053
-0.8012,0.41638,0.42976,0.00092,0.00033,0.00207
-0.80119,0.41635,0.42981,0.00316,0.00195,0.00418
-0.80123,0.41633,0.42977,0.00418,-0.00062,0.00207
-0.80127,0.41629,0.42972,0.00371,-0.00189,0.00081
-0.8013,0.41627,0.42968,0.00309,-0.00059,-0.00079
-0.80132,0.41623,0.42969,0.00286,-0.00322,-0.00067
-0.80131,0.41621,0.42973,0.00343,0.00161,9e-05
-0.80128,0.41619,0.42981,-0.00233,-0.00119,0.00247
-0.8013,0.41617,0.42978,-0.00467,0.0041,0.00181
-0.80137,0.41611,0.42971,0.00456,-0.00418,-0.00393
-0.80145,0.41602,0.42966,0.00268,-0.00128,0.00072
-0.80148,0.41596,0.42966,0.00302,-0.0015,-0.00146
-0.80149,0.41588,0.4297,0.00454,-0.00328,0.00296
-0.80149,0.41581,0.42978,0.00388,-0.00431,0.00377
-0.8015,0.41576,0.42981,0.00458,-0.00367,0.00331
-0.8015,0.41578,0.4298,-0.00043,0.0003,0.00156
-0.80149,0.41579,0.42979,0.00353,-0.0006,0.0012
-0.80149,0.4158,0.42978,0.00596,-0.00108,-0.00101
-0.80149,0.4158,0.42979,0.00626,-0.00161,0.00055
-0.80149,0.41581,0.42978,0.00191,0.00053,0.00207
-0.80148,0.41581,0.42979,0.00237,0.00087,0.00064
-0.80145,0.41586,0.4298,0.00486,-0.00083,0.00265
-0.80144,0.41587,0.4298,0.00116,0.0008,-3e-05
-0.80148,0.41584,0.42976,-0.0002,-0.00059,0.00103
-0.80152,0.41579,0.42973,-0.00025,-0.00219,-0.00168
-0.80155,0.41577,0.42971,0.00232,0.00075,-0.00047
-0.80154,0.41575,0.42973,0.00189,-0.0026,0.0004
-0.80152,0.41571,0.4298,0.00138,-0.00159,0.001
-0.8015,0.41568,0.42988,0.00139,-0.00157,0.00029
-0.80145,0.41569,0.42997,0.00343,-0.00127,-0.00016
-0.8014,0.41572,0.43002,0.00358,-0.00076,-0.00169
-0.80136,0.41576,0.43006,0.00279,-0.00258,-0.00137
-0.80132,0.41577,0.43012,0.00384,-0.0029,-0.00066
-0.80128,0.41581,0.43016,0.00072,0.00034,0.00344
-0.80124,0.41584,0.4302,0.00512,-0.00299,0.0008
-0.80123,0.41582,0.43024,0.0051,-0.00298,0.00076
-0.80123,0.4158,0.43026,0.00356,-0.0033,0.00156
-0.80123,0.41577,0.4303,0.0044,-0.0014,0.00227
-0.80121,0.41575,0.43034,0.00426,0.00068,-0.00017
-0.80121,0.4158,0.43031,-0.00579,0.00493,0.00095
-0.80124,0.41583,0.43021,0.00266,-0.00266,-0.0046
-0.80126,0.41587,0.43014,0.00347,-0.00541,0.00063
-0.80125,0.41589,0.43014,0.00253,-0.00327,-0.00065
-0.80128,0.41584,0.43013,0.00791,-0.00489,0.00177
-0.8013,0.41579,0.43014,0.00508,-0.0052,0.00239
-0.80132,0.41574,0.43015,0.00204,-0.00462,0.00227
-0.80136,0.41572,0.4301,-0.00151,0.00079,0.00174
-0.80138,0.41571,0.43006,0.00024,-0.00043,2e-05
-0.80139,0.41573,0.43003,0.00476,0.00021,-0.00182
-0.80137,0.41576,0.43004,0.0057,-0.00036,-0.00192
-0.80134,0.41579,0.43007,0.00572,0.00117,-0.00023
-0.8013,0.41581,0.43012,0.00275,-0.00023,0.00242
-0.80128,0.41584,0.43013,0.00058,-0.00054,-0.00065
-0.80124,0.41587,0.43019,0.00096,-0.00124,-0.00027
-0.80121,0.41592,0.43018,-0.00057,-0.0032,-0.00243
-0.80117,0.41592,0.43027,0.00221,-0.00362,0.00017
-0.80114,0.41594,0.43031,0.00066,-0.00151,0.00153
-0.8011,0.41594,0.43036,6e-05,-0.00127,-0.00037
-0.80107,0.41595,0.43041,0.00118,-0.00346,-0.00249
-0.801,0.41599,0.43051,0.00243,-0.00089,-0.00137
-0.80093,0.41603,0.4306,0.00282,-0.0023,0.00022
-0.80086,0.41609,0.43067,0.00228,0.00016,7e-05
-0.80076,0.41619,0.43076,0.00166,-0.00112,0.00018
-0.80066,0.4163,0.43084,0.00539,-0.00274,0.00063
-0.80054,0.41641,0.43095,0.00426,-0.00288,0.00276
-0.80048,0.41649,0.43101,0.00412,-0.00201,0.00095
-0.80039,0.41655,0.43111,0.0027,-0.00428,0.00258
-0.8003,0.41665,0.43118,0.00175,-0.00056,0.00112
-0.80023,0.41669,0.43126,0.00264,-0.00521,0.00148
-0.80017,0.41674,0.43133,0.0026,0.00195,0.00208
-0.80011,0.41685,0.43133,-0.00549,0.0021,-0.00094
-0.80012,0.41694,0.43124,-0.00677,0.00499,0.00113
-0.80008,0.41703,0.43121,0.00428,-0.0044,-0.00509
-0.79998,0.41712,0.43131,0.00308,-0.00471,-0.00131
-0.79988,0.41717,0.43147,0.00366,-0.00509,-0.00076
-0.79981,0.41717,0.43158,0.00541,-0.00441,0.0038
-0.7998,0.41718,0.43159,0.00407,-0.00214,0.00433
-0.79979,0.41718,0.43161,0.00322,-0.0013,-0.00029
-0.79979,0.41723,0.43157,0.00247,-0.00082,-9e-05
-0.79978,0.41731,0.43151,0.00522,0.00054,-0.00088
-0.79974,0.41742,0.43147,0.00282,0.00238,-0.00208
-0.79968,0.4175,0.43151,0.0029,0.002,-0.00344
-0.79961,0.41756,0.43157,0.00309,-0.00119,-0.00225
-0.79954,0.41763,0.43164,0.0019,-0.00142,-0.00102
-0.79946,0.41768,0.43173,-0.00154,-0.00439,-0.00141
-0.79939,0.41772,0.43182,-0.00157,-0.00453,-0.00023
-0.7993,0.41779,0.43193,-0.00366,-0.00429,0.00206
-0.79922,0.4179,0.43197,-0.00211,-0.00384,0.00027
-0.79915,0.41801,0.43199,0.00125,-0.00361,-0.00184
-0.79907,0.41809,0.43206,0.00079,-0.00333,-0.00172
-0.79896,0.41819,0.43217,0.00213,-0.00123,-0.00223
-0.79886,0.41828,0.43226,0.00337,0.00091,0.00051
-0.79877,0.41838,0.43234,0.00269,8e-05,-0.00084
-0.79867,0.41846,0.43246,0.00417,-0.00018,0.00089
-0.79855,0.41852,0.43261,0.00236,-0.00304,0.00134
-0.79844,0.41861,0.43274,0.0008,-0.00369,0.00075
-0.79833,0.41871,0.43283,0.0024,-0.00787,-0.00158
-0.79826,0.41875,0.43294,0.00123,-0.007,0.00356
-0.79818,0.41882,0.43301,-0.00096,0.00039,-0.00038
-0.79811,0.41895,0.43301,-0.00475,0.00308,-0.00098
-0.7981,0.41905,0.43293,-0.00133,-0.00193,-0.00175
-0.79805,0.41914,0.43294,0.0023,-0.00617,-0.00689
-0.79794,0.41922,0.43306,-4e-05,-0.00307,0.00102
-0.79785,0.41924,0.43321,0.00596,-0.0042,0.00319
-0.7978,0.41924,0.43331,0.00796,-0.00601,0.00491
-0.79779,0.41926,0.4333,0.00374,-0.0034,0.00289
-0.7978,0.41933,0.43322,0.001,0.00117,-0.00276
-0.79779,0.41939,0.43317,0.00258,0.00028,-0.00185
-0.79774,0.41943,0.43324,0.00118,-0.00132,-0.00047
-0.79765,0.41948,0.43334,0.00234,0.00038,4e-05
-0.79758,0.41954,0.43342,0.00378,-0.00015,-6e-05
-0.79752,0.41959,0.43348,0.00141,-0.00214,-0.00101
-0.79746,0.41961,0.43357,0.00057,-0.00417,-0.0013
-0.79738,0.41965,0.43368,0.00131,-0.00489,-0.00245
-0.79731,0.41971,0.43376,-0.00122,-0.00496,-0.00109
-0.79724,0.41977,0.43382,0.00044,-0.00215,0.00102
-0.79716,0.41985,0.43389,0.00093,-0.00246,-0.00173
-0.79709,0.41991,0.43396,0.00314,-0.00253,-0.00121
-0.79703,0.41995,0.43404,0.0023,-0.00119,-0.00035
-0.79697,0.42,0.43408,0.00225,-0.00124,-0.0004
-0.79692,0.42005,0.43412,0.00162,-0.00105,-0.00088
-0.79687,0.42009,0.43418,0.0065,-0.00179,-0.00085
-0.79683,0.42012,0.43424,0.00645,-0.00182,-0.00091
-0.7968,0.42014,0.43428,0.00372,-0.00243,0.0009
-0.79678,0.42011,0.43433,0.00287,-0.00228,-0.00078
-0.79681,0.42005,0.43433,0.00598,-0.00595,-0.00147
-0.79685,0.41997,0.43433,-0.00143,0.00099,0.00103
-0.7969,0.41994,0.43429,-0.00567,0.0019,-0.00293
-0.79695,0.41994,0.43418,-0.00691,0.00114,-0.00326
-0.79697,0.41996,0.43412,-0.00149,-0.00384,-0.00354
-0.79695,0.41998,0.43415,0.00294,-0.00532,0.00128
-0.79691,0.41993,0.43427,0.00446,-0.00242,0.00109
-0.79695,0.41981,0.4343,0.00425,-0.00555,0.00397
-0.79704,0.41971,0.43424,0.00365,-0.00621,0.00549
-0.79716,0.41962,0.43412,0.0026,-0.00202,-2e-05
-0.79724,0.41958,0.43399,0.00186,0.00214,-0.0031
-0.79732,0.41955,0.43389,0.00419,-0.00019,-0.00311
-0.79737,0.41949,0.43386,0.00299,-0.00031,-0.00123
-0.79741,0.41944,0.43382,0.0051,-0.00196,-0.00186
-0.79747,0.41939,0.43377,0.00317,0.00103,-0.00206
-0.79753,0.41932,0.43372,-0.00062,-0.00213,-0.00324
-0.79757,0.41926,0.43371,-0.00326,-0.00581,-0.00042
-0.79757,0.41923,0.43373,-0.00246,-0.00569,-0.00093
-0.79757,0.41921,0.43375,-0.00042,-0.00443,0.00048
-0.7976,0.41919,0.43372,0.00457,-0.00307,-0.00122
-0.79764,0.41915,0.43369,0.00441,-0.00219,-0.00135
-0.79767,0.41908,0.4337,0.00211,-0.00215,-0.00128
-0.79768,0.41905,0.4337,0.00174,0.00083,-0.00138
-0.79769,0.41905,0.43369,0.00066,0.00078,-0.00046
-0.79768,0.41906,0.4337,0.00371,0.00039,-0.00172
-0.79768,0.41904,0.43372,0.00286,-0.00049,-0.00011
-0.79767,0.419,0.43377,0.00499,-0.00376,0.00087
-0.79767,0.41894,0.43383,0.00466,-0.00279,0.00052
-0.79769,0.41888,0.43384,0.00022,-0.00473,-0.00063
-0.79773,0.41879,0.43386,-7e-05,-0.00549,-0.00185
-0.79775,0.41876,0.43385,0.00211,-0.00318,0.00286
-0.79779,0.41881,0.43374,-0.00583,0.00221,-0.0001
-0.79786,0.41885,0.43356,0.00026,8e-05,-0.00308
-0.79793,0.41885,0.43344,0.00142,-0.003,-0.00798
-0.79795,0.41881,0.43344,0.00357,-0.00111,-0.0018
-0.79797,0.41872,0.43349,0.00633,-0.00374,-0.00014
-0.79804,0.41859,0.43349,0.00462,-0.00137,0.00193
-0.79814,0.41848,0.43341,0.00206,-0.00311,0.00275
-0.79824,0.4184,0.4333,-6e-05,0.00108,-0.00393
-0.79832,0.41834,0.43322,0.00207,0.00123,-0.0021
-0.79837,0.41828,0.43319,0.00221,-0.00313,-0.00323
-0.7984,0.41823,0.43318,0.00412,-0.0024,-0.00181
-0.79843,0.41818,0.43317,0.00081,-0.00174,-6e-05
-0.79848,0.41814,0.43311,0.00131,-0.00276,-0.00109
-0.79852,0.41812,0.43304,-0.00015,-0.00301,-0.00201
-0.79855,0.4181,0.43301,-0.00026,-0.00219,-0.00332
-0.79858,0.41807,0.43299,-0.00187,-0.0045,-0.00129
-0.79861,0.41803,0.43296,0.00203,-0.00142,-0.00244
-0.79864,0.418,0.43295,0.00206,-0.00139,-0.00242
-0.79868,0.41795,0.43293,0.00193,-0.00192,-0.00225
-0.7987,0.41791,0.43292,0.00238,5e-05,0.00011
-0.79872,0.41788,0.43291,0.0024,7e-05,0.00012
-0.79874,0.41786,0.43291,0.00276,0.00115,-0.00249
-0.79875,0.41782,0.43291,0.00475,-0.00156,-0.00222
-0.79878,0.41776,0.43294,0.00326,-0.00118,-0.00038
-0.7988,0.41771,0.43295,0.00254,-0.00092,0.00023
-0.79883,0.41768,0.43291,0.00164,-0.004,-0.0031
-0.79887,0.41764,0.43288,0.0015,-0.00433,-0.00112
-0.7989,0.41761,0.43285,0.00213,-0.00243,-0.00147
-0.79894,0.41754,0.43286,0.00357,-0.00482,-0.00027
-0.79895,0.4175,0.43287,0.0047,-0.00014,-0.00048
-0.79897,0.41751,0.43282,-0.00465,0.00565,-0.00066
-0.79904,0.41751,0.43269,0.00073,-0.00076,-0.00479
-0.79911,0.41749,0.43258,0.00188,-0.00561,-0.00609
-0.79913,0.41746,0.43256,0.00668,-0.00268,-0.00156
-0.79916,0.41741,0.43256,0.00708,-0.0026,-0.0004
-0.7992,0.41731,0.43259,0.00686,-0.0039,0.00198
-0.79926,0.41722,0.43256,0.00026,-0.00298,0.00074
-0.79934,0.41715,0.43248,-0.00135,-0.00052,-0.00053
-0.79941,0.4171,0.4324,-0.00219,0.00011,-0.00044
-0.79945,0.41706,0.43236,0.00412,-0.00152,-0.00267
-0.79947,0.41704,0.43234,0.00441,-0.00104,-0.00085
-0.79949,0.41704,0.43232,0.00603,0.0005,-0.0008
-0.79953,0.41701,0.43226,0.00275,-0.00057,-0.00491
-0.79958,0.41698,0.4322,-0.00051,0.00041,-0.0028
-0.79961,0.41697,0.43216,0.00148,8e-05,-0.0034
-0.79961,0.41696,0.43217,0.00246,-0.00318,-0.00307
-0.79962,0.41686,0.43224,0.00365,-0.00495,0.00087
-0.79967,0.41674,0.43227,-0.0003,-0.00313,0.00234
-0.79973,0.41665,0.43225,0.00079,-4e-05,-0.00071
-0.79978,0.41659,0.4322,0.00388,-0.00346,-0.00168
-0.7998,0.4166,0.43216,0.00137,-0.00395,-0.00136
-0.79979,0.41667,0.43211,-0.00115,-0.00018,0.00024
-0.79975,0.41679,0.43207,0.00077,0.00073,-0.00307
-0.79969,0.4169,0.43207,0.0028,0.00112,-0.00387
-0.79965,0.41695,0.4321,0.00305,0.00134,-0.00456
-0.79966,0.41692,0.43211,0.00361,0.00114,-0.00589
-0.79967,0.41682,0.43218,0.00138,0.00228,-0.00299
-0.79971,0.41666,0.43227,0.00222,-0.00019,-0.00124
-0.79974,0.41651,0.43236,0.00293,-0.00199,0.00023
-0.79977,0.41639,0.43241,0.0016,-0.00094,0.00026
-0.79979,0.41628,0.43248,0.00328,-0.00196,-0.00096
-0.79982,0.41616,0.43256,0.00575,-0.00426,0.00296
-0.7998,0.41608,0.43265,0.00479,-0.00296,0.00082
-0.79983,0.41605,0.43263,-0.00392,0.00119,0.00401
-0.7999,0.41604,0.43253,0.00363,-0.0069,-0.0018
-0.79995,0.41608,0.43238,0.00277,-0.00734,0.0022
-0.79997,0.41613,0.43229,0.00621,-0.00459,0.00103
-0.80003,0.41615,0.43216,0.00342,-0.00378,-0.00081
-0.80011,0.41614,0.43202,0.00275,-0.0019,-0.00239
-0.8002,0.41615,0.43185,-0.00238,0.00071,-0.00416
-0.80026,0.41616,0.43173,-0.0018,0.00203,-0.00532
-0.8003,0.41618,0.43164,-0.00102,0.00438,-0.00632
-0.8003,0.41618,0.43163,0.00164,0.00357,-0.00602
-0.80027,0.41618,0.43169,0.00262,0.00312,-0.00492
-0.80022,0.41616,0.43181,0.00275,0.00455,-0.00176
-0.80017,0.41614,0.43192,0.00299,6e-05,-0.00204
-0.80013,0.41607,0.43207,0.00586,-0.00094,-0.00168
-0.8001,0.41596,0.43221,0.00462,-0.00585,0.00047
-0.80009,0.41588,0.43232,0.00242,-0.00627,0.0027
-0.80008,0.41582,0.4324,0.00145,-0.00612,0.00135
-0.80008,0.41581,0.43241,0.00156,-0.00567,0.00326
-0.80008,0.41582,0.43239,0.00241,-0.00555,0.0016
-0.80007,0.41589,0.43234,-0.00023,-0.0028,0.00029
-0.80005,0.41598,0.4323,0.00348,0.00078,-0.0013
-0.80001,0.41609,0.43226,0.00468,0.00164,-0.00384
-0.79998,0.41618,0.43223,0.00382,0.00313,-0.00621
-0.79996,0.41625,0.43219,0.00242,0.00306,-0.00573
-0.79995,0.41629,0.43218,0.00281,0.00252,-0.00639
-0.79991,0.41631,0.43223,-0.00024,0.00172,-0.00587
-0.7999,0.41627,0.43231,0.00105,0.00013,-0.00509
-0.7999,0.4162,0.43237,-0.00105,-0.00284,-0.00228
-0.7999,0.41613,0.43244,-3e-05,-0.00098,-0.00063
-0.79986,0.41609,0.43254,-7e-05,-0.00094,-0.00073
-0.79982,0.41607,0.43265,0.00454,-0.00272,0.00118
-0.79978,0.41604,0.43274,0.00393,-0.00028,0.00343
-0.79977,0.41601,0.43278,0.00392,-0.00025,0.00339
-0.79977,0.416,0.43279,0.00367,0.00263,-0.00047
-0.79975,0.41602,0.4328,0.00292,0.00101,-0.00113
-0.79976,0.41605,0.43275,-0.00213,-0.00185,0.00133
-0.7998,0.41608,0.43265,0.00104,-0.00151,-0.00408
-0.79986,0.41608,0.43254,0.00491,-0.00386,-0.00055
-0.7999,0.41607,0.43249,0.00225,-0.00355,-0.003
-0.79994,0.41603,0.43244,0.00226,-0.00417,-0.00347
-0.79997,0.41601,0.43241,0.00229,-0.00605,-0.00405
-0.8,0.41596,0.43239,-0.00059,-0.00289,-0.00364
-0.80004,0.41593,0.43236,-0.00331,0.00143,-0.00397
-0.80006,0.41594,0.43231,-0.00058,0.00016,-0.0027
-0.80005,0.41597,0.4323,0.00077,0.00114,-0.00418
-0.80004,0.41599,0.43232,0.00739,0.00133,-0.00046
-0.80001,0.41598,0.43237,0.00376,0.00156,-5e-05
-0.8,0.41596,0.4324,0.00189,0.00138,-0.00063
-0.8,0.41598,0.4324,0.00144,-0.00063,0.00083
-0.79998,0.41599,0.43241,0.00112,-0.00169,0.00024
-0.79998,0.41598,0.43241,0.00285,-0.00393,-0.00274
-0.79999,0.41596,0.43243,-0.00014,-0.00402,-0.00192
-0.79999,0.41594,0.43245,-0.00092,-0.00136,-0.00101
-0.79999,0.41594,0.43245,-0.00015,-0.00179,-0.00274
-0.79998,0.41596,0.43245,8e-05,-0.00082,-0.00555
-0.79996,0.41599,0.43245,0.00046,-0.00068,-0.00291
-0.79994,0.41601,0.43248,0.00186,0.00127,-0.00328
-0.7999,0.41604,0.43252,0.00373,-0.0004,-0.00077
-0.79986,0.41606,0.43257,0.00329,3e-05,-0.00137
-0.79984,0.41606,0.4326,0.00301,-0.00032,-0.00086
-0.79983,0.41607,0.43261,0.00291,-0.00094,0.0003
-0.79982,0.41608,0.43262,0.00452,-0.00356,-0.00159
-0.79982,0.41608,0.43263,0.00253,-0.00403,-0.00172
-0.79982,0.41607,0.43264,0.00316,-0.00302,0.00143
-0.79982,0.41609,0.43263,-0.00066,-0.00517,-0.00241
-0.7998,0.41612,0.43263,-0.00184,-0.00122,-0.00126
-0.79977,0.41614,0.43266,0.00039,-0.0017,-0.00302
-0.79973,0.41619,0.43269,0.00097,-0.0028,-0.00294
-0.79967,0.41625,0.43274,0.00245,0.00056,-0.00402
-0.79962,0.41633,0.43277,0.00169,-0.00197,-0.0031
-0.79956,0.41636,0.43285,0.0032,-0.00339,-8e-05
-0.79949,0.41641,0.43293,0.0006,0.00084,-0.00092
-0.79943,0.41651,0.43294,-0.00592,0.00427,-0.00388
-0.79942,0.41656,0.43291,0.0001,0.00065,-0.00403
-0.79939,0.41662,0.43291,0.00311,-0.00286,-0.00609
-0.79931,0.41669,0.43299,0.00091,-0.00163,-0.00129
-0.79925,0.41671,0.43307,0.00416,-0.00451,-0.0027
-0.79918,0.41671,0.4332,0.00759,-0.00615,-0.00087
-0.79913,0.41672,0.43329,0.00215,-0.00422,0.00267
-0.7991,0.41676,0.43329,-4e-05,-0.00173,-0.00018
-0.7991,0.41683,0.43322,-0.00279,0.00074,-0.00079
-0.79909,0.41691,0.43317,0.0049,0.00104,-0.00382
-0.79902,0.417,0.43322,0.00493,0.00138,-0.00343
-0.79891,0.41708,0.43334,0.00425,8e-05,-0.00224
-0.79881,0.41717,0.43345,0.00347,-0.00045,0.00091
-0.79873,0.41725,0.43351,0.00238,-0.00075,-0.00278
-0.79866,0.41735,0.43355,0.00261,-0.00127,-0.00113
-0.79858,0.41741,0.43362,-0.00128,-0.00294,-0.00266
-0.79852,0.41746,0.4337,-1e-05,-0.00283,-0.00238
-0.79846,0.41751,0.43376,-0.00019,-0.00162,-0.00483
-0.79839,0.41758,0.43381,-0.00172,-0.00473,-0.00348
-0.79831,0.41766,0.43388,0.00032,0.00084,-0.00281
-0.79821,0.41773,0.43399,0.00022,0.00077,-0.00292
-0.79811,0.41779,0.43412,0.00371,0.00024,-0.00217
-0.798,0.41789,0.43424,0.00237,-8e-05,-0.00141
-0.79786,0.418,0.43439,0.00251,0.00095,-0.00201
-0.79774,0.41809,0.43452,0.00193,-0.00221,0.00032
-0.79761,0.41819,0.43465,0.00283,-0.00131,-0.0028
-0.79752,0.41828,0.43474,0.00208,-0.00096,-0.00177
-0.79745,0.41834,0.43481,0.00178,-0.00259,-0.00181
-0.79738,0.4184,0.43488,0.00227,-0.00251,-0.0042
-0.79731,0.41846,0.43495,0.00249,-0.00274,-0.00449
-0.79722,0.41852,0.43505,0.00027,-0.0004,-0.00165
-0.79716,0.41858,0.43511,0.00243,-0.00568,-0.0017
-0.7971,0.41862,0.43517,0.00105,-0.00276,-0.00081
-0.79703,0.41874,0.43519,0.00241,0.0054,-0.003
-0.79696,0.41887,0.43519,-0.00106,0.00508,-0.00333
-0.7969,0.41897,0.43521,-0.00024,-0.00166,-0.00635
-0.79677,0.4191,0.43531,-6e-05,-0.00214,0.00016
-0.79663,0.41918,0.43551,0.00083,-0.0027,-0.00109
-0.79651,0.41922,0.43568,0.00276,-0.00212,0.00095
-0.79644,0.41923,0.43578,0.00508,-0.00611,0.00028
-0.79644,0.41926,0.43577,0.00322,-0.00309,0.00046
-0.79646,0.41931,0.43568,0.00332,-0.00125,-0.00198
-0.79646,0.41938,0.43561,0.00131,0.00256,-0.00385
-0.79642,0.41944,0.43562,0.00358,-7e-05,0.00013
-0.79636,0.41951,0.43567,0.00434,0.00115,-0.0027
-0.79629,0.41956,0.43575,0.0039,0.00104,-0.00106
-0.79623,0.41962,0.4358,0.0003,0.00047,-0.0039
-0.79616,0.41968,0.43587,0.00105,-0.00254,-0.00191
-0.79606,0.41976,0.43596,-0.00147,-0.00436,-0.00138
-0.79596,0.41985,0.43607,0.00072,-0.00551,-0.00373
-0.79587,0.41993,0.43616,0.00044,-0.0027,-0.00139
-0.79579,0.42002,0.43621,0.00038,-0.00435,-0.00445
-0.79572,0.4201,0.43627,0.00251,-0.00071,-0.00551
-0.79565,0.42019,0.43631,0.00266,-0.00213,-0.00474
-0.79556,0.42027,0.4364,0.00231,0.00138,-0.00136
-0.79547,0.42035,0.43648,0.00244,0.00098,0.00082
-0.7954,0.42042,0.43655,0.00237,0.00204,-0.0014
-0.79534,0.42047,0.4366,0.004,-0.00098,-0.00377
-0.79531,0.4205,0.43664,0.00504,-0.00302,-0.00104
-0.79533,0.42048,0.43661,0.00537,-0.00175,0.00118
-0.79539,0.42042,0.43657,0.00535,-0.00239,0.0011
-0.79548,0.42033,0.43648,0.00314,0.00057,-0.00275
-0.79558,0.42019,0.43643,0.00411,-0.00376,-0.00287
-0.79566,0.42006,0.43643,-0.00029,-0.00166,-0.0017
-0.79571,0.42001,0.43637,-0.0035,0.00098,-0.00549
-0.7958,0.41997,0.43624,-0.00374,0.00291,-0.00347
-0.79587,0.41992,0.43617,0.0011,-0.00597,-0.00291
-0.79592,0.41985,0.43615,0.00148,-0.00277,-0.00052
-0.79594,0.41976,0.4362,0.003,-0.00237,-0.00236
-0.79602,0.41963,0.43617,0.00445,-0.00668,-0.00276
-0.79614,0.41952,0.43606,0.00129,-0.00225,-0.00064
-0.79624,0.41947,0.43593,-0.00048,-0.002,-0.00336
-0.79632,0.41942,0.43583,0.0046,0.00234,-0.00295
-0.79638,0.41939,0.43574,0.00409,0.00183,-0.0032
-0.79643,0.41937,0.43568,0.0059,-0.00162,-0.00094
-0.79647,0.41931,0.43566,0.00535,0.00113,-0.00242
-0.79653,0.41924,0.43563,0.00354,0.00096,-0.00112
-0.7966,0.41916,0.43556,0.00272,0.00172,-0.00236
-0.79667,0.41912,0.43546,-0.00047,-0.00111,-0.00338
-0.79672,0.41911,0.43539,-0.00215,-0.00181,-0.00392
-0.79677,0.41907,0.43535,-0.00218,-0.00079,-0.00498
-0.79681,0.419,0.43534,0.00073,-0.00541,-0.00307
-0.79688,0.41893,0.43527,0.00196,-0.00257,-0.0023
-0.79694,0.41888,0.43521,0.00141,-0.00276,-0.00343
-0.797,0.41881,0.43516,0.00092,-0.00011,-0.00061
-0.79703,0.41875,0.43517,0.00133,0.0011,-0.00207
-0.79705,0.41871,0.43517,0.00167,0.00037,-0.00233
-0.79705,0.41871,0.43517,0.00382,-3e-05,-0.00202
-0.79705,0.41871,0.43518,0.00362,-0.00118,-0.00069
-0.79704,0.41866,0.43524,0.00395,-0.0006,-0.00333
-0.79707,0.41862,0.43522,0.0038,-0.00126,-0.0011
-0.79712,0.41858,0.43517,0.00125,-0.00337,0.00081
-0.79718,0.41852,0.43511,0.00288,-0.00039,-0.00184
-0.79725,0.41843,0.43507,0.00367,-0.00619,-0.00047
-0.79729,0.41837,0.43506,-0.00106,0.00298,-0.00332
-0.79736,0.41836,0.43495,-0.00153,0.00192,-0.0021
-0.79747,0.41832,0.43478,-0.00114,0.00063,-0.00401
-0.79756,0.41829,0.43464,0.00015,-0.0047,-0.00321
-0.79759,0.41828,0.4346,0.00121,-0.00343,-0.00161
-0.79764,0.41821,0.43457,0.00577,-0.00315,-0.00197
-0.7977,0.4181,0.43458,0.0057,-0.00503,0.00124
-0.79779,0.41797,0.43454,0.00286,-0.00275,-0.00046
-0.7979,0.41788,0.43441,0.00225,0.0003,0.00025
-0.79803,0.41782,0.43423,-0.00097,0.00081,-0.00401
-0.79811,0.41779,0.43411,0.00096,0.00377,-0.00411
-0.79817,0.41775,0.43404,0.00491,0.00017,-0.00456
-0.7982,0.41772,0.43402,0.00448,-0.00261,-0.00059
-0.79826,0.41766,0.43396,0.00283,-0.00043,-0.00165
-0.79834,0.4176,0.43387,-0.00186,-0.00024,-0.00128
-0.79841,0.41757,0.43377,-0.00137,-0.0007,-0.00386
-0.79844,0.41756,0.43373,-0.00031,-0.00186,-0.00403
-0.79846,0.41752,0.43373,0.00145,-0.00255,-0.00401
-0.79847,0.41746,0.43376,0.0017,-0.00369,-0.00307
-0.79851,0.41739,0.43376,0.00124,-0.00025,-0.00135
-0.79854,0.41735,0.43374,0.00142,-0.00095,-0.00276
-0.79857,0.41731,0.43372,0.00407,0.00107,-0.00059
-0.7986,0.41727,0.43371,0.0036,-0.00071,-0.00374
-0.79861,0.41725,0.43371,0.0019,-9e-05,-0.00013
-0.79861,0.41723,0.43373,0.00331,0.00077,-0.00161
-0.79862,0.4172,0.43375,0.00312,0.00022,-0.00204
-0.79864,0.41718,0.43372,0.00482,0.00146,0.00044
-0.79871,0.41713,0.43365,0.00286,-0.0014,-0.00129
-0.79878,0.41707,0.43357,0.00387,-0.003,-0.00022
-0.79885,0.41702,0.4335,0.0014,-0.0018,-0.00252
-0.79892,0.41697,0.43342,0.00473,-0.00669,-0.0005
-0.79897,0.41688,0.43341,0.00116,0.00136,-0.0002
-0.79907,0.41681,0.43328,0.00092,-0.00321,-0.00361
-0.79914,0.41673,0.43324,0.00387,-0.00033,-0.0025
-0.7992,0.41664,0.43322,0.00253,0.00315,-0.00233
-0.79923,0.41664,0.43316,-0.00341,0.00541,-9e-05
-0.7993,0.41661,0.43306,-0.00105,0.00057,-0.00577
-0.79937,0.41658,0.43296,0.00261,-0.00229,-0.00634
-0.79939,0.41658,0.43292,0.00132,-0.00164,-0.00305
-0.79941,0.41654,0.43293,0.00547,-0.00456,-0.00408
-0.79943,0.41647,0.43294,0.00525,-0.00407,-4e-05
-0.79949,0.41638,0.43292,0.00273,-0.00299,0.00116
-0.79954,0.41633,0.43287,0.00032,-0.00024,-0.00161
-0.79961,0.4163,0.43278,0.00141,0.00142,-0.00245
-0.79964,0.4163,0.43273,0.00088,0.00106,-0.00359
-0.79966,0.41627,0.43271,0.00564,-0.0012,-0.00364
-0.79966,0.41623,0.43275,0.00475,-0.00069,-0.00069
-0.79965,0.41623,0.43278,0.00094,0.00305,-0.00102
-0.79966,0.41622,0.43277,0.0029,-0.00324,-0.00153
-0.79967,0.41623,0.43274,0.00292,-0.00325,-0.00149
-0.79968,0.41622,0.43273,0.00044,-0.00219,-0.00306
-0.79969,0.41619,0.43274,0.00069,-0.00382,-0.00017
-0.7997,0.41616,0.43274,0.00165,-0.003,-0.00115
-0.79973,0.41613,0.43272,-6e-05,-0.00117,-0.00367
-0.79975,0.41611,0.4327,0.00022,3e-05,-0.00337
-0.79977,0.4161,0.43268,0.00148,0.00076,-0.00413
-0.79979,0.41607,0.43267,0.00118,0.00193,-0.00278
-0.79981,0.41603,0.43268,0.00284,0.00281,-0.00134
-0.7998,0.41602,0.4327,0.0031,-0.00072,-0.00013
-0.79977,0.41601,0.43278,0.00179,0.00195,-0.0024
-0.79974,0.41599,0.43283,0.0016,0.00028,0.00015
-0.79974,0.41598,0.43285,0.00042,-0.00129,-0.00261
-0.79973,0.41598,0.43288,0.00184,7e-05,-0.00063
-0.79972,0.41598,0.43288,0.00225,-0.00291,-0.0008
-0.79972,0.41597,0.4329,0.00358,-0.00422,-0.00286
-0.79973,0.41596,0.4329,0.00073,-0.00147,-0.00121
-0.79974,0.41595,0.43288,0.00192,0.00084,-0.00362
-0.79974,0.41595,0.43289,0.00086,-0.00068,-0.00346
-0.79973,0.41596,0.4329,0.00456,-0.00076,-0.00086
-0.79971,0.41598,0.43291,0.00327,0.00056,-0.00243
-0.79972,0.41596,0.43292,0.00347,-0.00031,-0.00114
-0.79972,0.41595,0.43293,0.00068,-0.00054,-0.00279
-0.79971,0.41595,0.43294,0.00184,-0.00143,-0.00109
-0.79969,0.41596,0.43297,0.00184,-0.00013,-0.00159
-0.79967,0.41597,0.43299,0.00384,-0.00015,-0.00248
-0.79969,0.41595,0.43299,0.00461,-0.00129,-0.00202
-0.79971,0.41592,0.43297,0.00112,-0.00081,-0.00042
-0.79971,0.41593,0.43296,0.00104,0.00044,-0.00236
-0.79972,0.41591,0.43297,0.00262,-0.00171,-0.00343
-0.79972,0.41589,0.43298,0.00376,-0.00214,-0.00164
-0.79972,0.41588,0.433,0.00493,0.00311,-0.00069
-0.79971,0.41587,0.43302,0.00055,-0.00283,-0.00116
-0.79968,0.41588,0.43307,0.00216,-0.0004,-9e-05
-0.79965,0.41591,0.4331,0.00418,0.0005,-0.003
-0.79965,0.41596,0.43306,-0.0048,0.00444,0.0023
-0.79969,0.41595,0.43298,0.00305,0.00098,-0.00153
-0.79974,0.41594,0.4329,0.00168,0.00081,-0.00324
-0.79979,0.41592,0.43283,0.00332,-0.00187,-0.00418
-0.79984,0.41585,0.43279,0.00513,-0.00133,-0.00536
-0.79989,0.41578,0.43278,0.00295,-0.00422,5e-05
-0.79991,0.41572,0.43281,0.00213,-0.00077,-0.00168
-0.79993,0.41569,0.43279,0.00063,-0.00146,-2e-05
-0.79996,0.41568,0.43274,0.00522,0.00147,-0.00089
-0.79999,0.41568,0.4327,0.00276,-0.0007,-0.00296
-0.79998,0.41569,0.43271,0.00449,0.00147,-0.00073
-0.79995,0.41572,0.43273,0.00167,-0.00067,-0.00085
-0.79991,0.41576,0.43276,-0.00055,-0.00258,-0.00239
-0.79989,0.41577,0.43279,0.00146,-0.00228,-0.00469
-0.79988,0.41579,0.43279,0.00134,-0.00407,-0.00063
-0.79986,0.41581,0.43281,-0.00175,-0.00271,-0.00216
-0.79985,0.41583,0.4328,-0.00175,-0.00272,-0.00216
-0.79987,0.41584,0.43275,0.00298,-0.0012,-0.00214
-0.79988,0.41586,0.43272,0.00494,-0.00091,-0.00331
-0.79987,0.41585,0.43276,-0.00058,0.00058,-0.00287
-0.79986,0.41587,0.43275,0.00056,0.0005,-0.00099
-0.79984,0.4159,0.43275,0.00361,0.00213,-0.00242
-0.79982,0.41592,0.43276,0.00266,0.00116,-0.00422
-0.79983,0.41592,0.43277,0.00405,-0.00024,-0.0025
-0.79982,0.41591,0.43278,0.00154,-0.00158,-0.0005
-0.79982,0.4159,0.4328,-0.00023,-0.00046,-0.00109
-0.79981,0.4159,0.43281,0.00043,-0.00221,-0.00094
-0.7998,0.41591,0.43283,0.00181,0.00035,-0.00307
-0.79979,0.4159,0.43286,0.00306,-0.00507,-0.00033
-0.79978,0.41589,0.43287,0.00318,-0.00539,-0.00163
-0.79977,0.4159,0.43288,0.00093,-0.00132,-0.00144
-0.79977,0.41591,0.43287,0.00195,-0.0006,-0.00041
-0.79974,0.41596,0.43289,0.00044,0.00021,-0.00407
-0.79969,0.41604,0.4329,0.00381,0.0009,-0.00119
-0.79966,0.41608,0.4329,0.00531,0.00132,-0.00206
-0.79964,0.41609,0.43294,0.00416,-0.00088,-0.00229
-0.79964,0.41607,0.43295,0.00344,0.0,-0.00113
-0.79964,0.41606,0.43297,0.00048,0.00087,-0.00223
-0.79963,0.41605,0.43299,0.00227,-0.00159,-0.00446
-0.79965,0.41602,0.433,0.0025,-0.00226,-0.00336
-0.79967,0.41598,0.43301,0.0032,-0.00314,-0.00165
-0.79968,0.41597,0.43299,-0.00035,-0.00267,-0.00076
-0.79966,0.41601,0.43299,0.001,0.00049,-0.00112
-0.7996,0.41606,0.43305,0.00186,-0.00201,-0.00462
-0.79953,0.41611,0.43312,0.00445,0.0024,-0.0027
-0.7995,0.41612,0.43318,0.00111,-0.00096,-0.00235
-0.79949,0.41616,0.43315,-0.00583,0.00302,0.00046
-0.79952,0.41618,0.43309,0.00203,0.0001,-0.0062
-0.79954,0.41617,0.43304,0.00198,-0.0012,-0.00273
-0.79956,0.41618,0.433,0.00049,-0.00024,-0.00261
-0.79958,0.41619,0.43296,0.00217,-0.00082,-0.00421
-0.79957,0.41618,0.43299,0.00129,-0.00329,0.00014
-0.79956,0.41617,0.43302,0.00131,-0.0031,-0.00227
-0.79956,0.41616,0.43303,-0.00094,0.00092,-0.00289
-0.79955,0.41615,0.43305,0.00292,0.00199,-0.0042
-0.79954,0.41614,0.43308,0.00291,0.002,-0.00423
-0.79952,0.41612,0.43314,0.00702,-0.00251,-0.00391
-0.79948,0.41608,0.43324,0.00636,0.00022,-0.00166
-0.79946,0.41603,0.43333,0.0062,-0.00055,-0.00206
-0.79945,0.41601,0.43336,0.0022,-0.0029,0.0021
-0.79945,0.41602,0.43336,0.00284,-0.00434,-0.00059
-0.79944,0.41606,0.43335,0.00165,-0.00509,-0.00084
-0.79939,0.41618,0.43332,0.00047,-0.00524,-0.00141
-0.79934,0.4163,0.4333,0.00077,-0.00596,-0.0025
-0.79927,0.41641,0.4333,-3e-05,-0.00585,-0.00351
-0.79921,0.41653,0.43331,0.00095,-0.00155,-0.00654
-0.79913,0.41667,0.43333,0.00064,-0.00035,-0.00608
-0.79902,0.41682,0.43338,0.00207,-0.00152,-0.00748
-0.79887,0.41702,0.43347,0.00085,0.00087,-0.00333
-0.7987,0.41726,0.43355,-0.00187,0.00327,-0.00336
-0.79851,0.41752,0.43366,-0.00087,0.00352,-0.00212
-0.79832,0.41771,0.43381,0.0021,0.00068,-0.00399
-0.79815,0.41785,0.434,0.00204,0.00242,-0.00104
-0.79801,0.41793,0.43418,0.0008,0.00111,0.00115
-0.79788,0.41798,0.43436,0.00113,0.00141,-0.00104
-0.79778,0.41802,0.43451,0.00309,0.00175,-0.00201
-0.79771,0.41802,0.43464,0.00324,-2e-05,-0.00117
-0.79766,0.41798,0.43477,0.0039,-0.00044,-0.00061
-0.79761,0.41793,0.4349,0.00213,-0.00022,-0.00135
-0.79757,0.4179,0.43501,0.00241,-0.0013,-0.00196
-0.79754,0.41786,0.43511,0.00319,-0.00366,-0.00515
-0.7975,0.41784,0.4352,0.00398,-0.00506,-0.00272
-0.79745,0.41784,0.43529,0.00199,-0.00337,-0.0005
-0.79741,0.41787,0.43533,0.0029,-0.00464,0.00228
-0.79737,0.41794,0.43532,0.00374,-0.00709,-0.00205
-0.79732,0.41805,0.43533,0.00359,-0.00605,-0.00094
-0.79727,0.41815,0.4353,0.00316,-0.0078,-0.0033
-0.79723,0.41828,0.43527,0.00025,-0.00367,0.0007
-0.79716,0.4185,0.43518,0.00265,0.00232,-0.00154
-0.7971,0.41876,0.43504,-0.00327,0.0027,-0.0039
-0.79706,0.419,0.43487,-0.00048,0.00269,-0.00799
-0.79697,0.41927,0.43479,0.00106,0.00078,-0.00775
-0.79683,0.41947,0.43485,-0.00107,-0.00076,-0.00474
-0.7967,0.41958,0.43498,0.00346,-0.001,-0.00362
-0.79659,0.41962,0.43515,0.00133,-0.00318,-0.00326
-0.79648,0.41967,0.4353,-0.00078,-0.0015,-0.00067
-0.79637,0.41972,0.43545,0.00126,0.0016,-0.00236
-0.79627,0.41976,0.43559,0.00223,0.00388,-0.00351
-0.79616,0.41979,0.43576,0.00231,0.00219,-0.00279
-0.79605,0.4198,0.43595,0.00566,0.00021,-0.00144
-0.79594,0.41982,0.43614,0.00668,-0.00077,-0.00036
-0.7958,0.41985,0.43636,0.00398,-0.00178,-0.00141
-0.7957,0.41987,0.43652,0.00296,-0.0045,-0.0001
-0.79562,0.41993,0.43661,0.00195,-0.00316,0.00071
-0.79555,0.41999,0.43667,-0.00035,-0.00608,-8e-05
-0.79548,0.42008,0.43673,0.00158,-0.00487,-0.00045
-0.79543,0.42016,0.43673,0.00228,-0.00346,0.00055
-0.79541,0.42024,0.43669,0.00316,-0.0045,-0.0027
-0.79539,0.42035,0.43662,0.0027,-0.0012,-0.00266
-0.79538,0.42045,0.43654,0.002,0.00053,-0.00214
-0.79536,0.42056,0.43647,0.00172,0.00261,-0.00158
-0.79532,0.42066,0.43646,0.0018,-0.00134,-0.00261
-0.79527,0.42075,0.43646,0.00186,-0.00046,-0.00302
-0.79522,0.42086,0.43645,-0.00013,-0.002,-0.00073
-0.79517,0.42095,0.43644,0.00195,-0.00263,-0.003
-0.79512,0.42103,0.43647,-0.00092,-0.00198,-0.00521
-0.79503,0.42111,0.43655,0.0018,-0.00067,-0.00256
-0.79495,0.42118,0.43662,0.00109,-0.00424,-0.00294
-0.79487,0.42126,0.43669,0.00174,-0.00262,-0.00252
-0.79481,0.42134,0.43672,0.00314,-0.00144,-0.00472
-0.79474,0.42138,0.43681,0.00168,-0.00414,0.00134
-0.79468,0.42145,0.43687,0.00064,-0.00107,0.00158
-0.79461,0.42159,0.43685,0.00091,0.00485,-0.0055
-0.79458,0.42167,0.43683,0.00214,0.00068,-0.00238
-0.79452,0.42172,0.43689,0.00247,-0.00078,-0.00231
-0.79445,0.42175,0.43699,0.0032,-0.00277,0.00091
-0.79443,0.4217,0.43707,0.00319,-0.00333,-0.00075
-0.79446,0.42163,0.43708,0.00354,-0.0041,0.00086
-0.79453,0.42156,0.43703,0.00047,-0.0033,-0.00281
-0.79461,0.42151,0.43693,0.00237,-0.00134,-0.00213
-0.79471,0.42144,0.4368,0.00225,-0.00136,-0.00287
-0.79481,0.42138,0.43668,0.00439,0.00341,-0.00246
-0.7949,0.4213,0.43659,0.00551,0.00131,-0.00362
-0.79497,0.42123,0.43654,0.00444,-0.0006,-0.0013
-0.79499,0.42117,0.43655,0.0021,-0.00046,-0.00393
-0.79504,0.42112,0.43652,-0.00016,-0.0001,-0.00189
-0.79505,0.42109,0.43652,-0.00303,-0.00236,-0.00355
-0.79506,0.4211,0.4365,-0.00085,-0.00058,-0.00188
-0.79509,0.4211,0.43646,0.00332,-0.00491,-0.00306
-0.79513,0.42107,0.4364,0.0026,-0.00505,-5e-05
-0.7952,0.421,0.43634,-0.00137,-0.00349,-0.00223
-0.79526,0.42095,0.43627,-0.00036,0.00066,-0.00109
-0.79533,0.4209,0.43619,0.00224,0.00204,-0.00451
-0.79538,0.42085,0.43616,0.00191,0.00218,-0.00311
-0.79541,0.4208,0.43615,0.00287,0.00126,-0.0019
-0.79545,0.42074,0.43614,0.00445,3e-05,-0.00201
-0.7955,0.42068,0.4361,0.00415,0.00063,-0.00189
-0.79557,0.42059,0.43606,0.00416,-0.00205,-0.00172
-0.79564,0.42047,0.43604,0.00266,-0.00298,0.00068
-0.79571,0.42038,0.436,0.00061,-0.00081,-0.00166
-0.7958,0.42026,0.43597,-7e-05,-0.00714,8e-05
-0.79587,0.42018,0.43591,-0.00317,-0.0036,0.00048
-0.79597,0.42014,0.43577,-0.00104,0.00435,-0.00169
-0.7961,0.4201,0.43556,-0.00224,0.00435,-0.00441
-0.79622,0.42006,0.43539,0.0011,-0.00097,-0.00579
-0.79628,0.42003,0.4353,0.00193,-0.00211,-0.00259
-0.79632,0.41996,0.4353,0.00491,-0.00166,-0.00213
-0.79639,0.41982,0.43531,0.0066,-0.00142,-0.00171
-0.79649,0.41965,0.43529,0.00427,-0.0018,-0.00115
-0.7966,0.41952,0.43521,0.00069,-0.00171,-0.00247
-0.79672,0.41943,0.43508,-0.00087,0.00078,-0.00282
-0.79679,0.41936,0.43502,0.00063,0.00112,-0.00176
-0.79682,0.41932,0.43501,0.00501,-0.00115,-0.00096
-0.79686,0.41926,0.43499,0.00404,-0.00211,0.00078
-0.79694,0.41916,0.43493,0.00463,-0.00136,0.00164
-0.79705,0.41907,0.43482,0.00274,-0.00146,-0.00104
-0.79716,0.41902,0.43466,0.00101,-0.002,-0.00222
-0.79725,0.41899,0.43454,-0.00118,-0.00132,-0.00267
-0.79732,0.41894,0.43446,0.00182,-0.00132,-0.00347
-0.79737,0.41888,0.43441,0.00044,-0.00081,-0.00185
-0.79742,0.41883,0.43437,0.00432,-0.00126,-0.00257
-0.79748,0.41876,0.43433,0.00439,-0.0034,-0.00265
-0.79757,0.41867,0.43426,0.00286,-0.00163,-0.0039
-0.79764,0.41859,0.43419,0.00082,0.00028,-0.00181
-0.79771,0.41853,0.43413,3e-05,-6e-05,-0.00255
-0.79776,0.41849,0.43408,0.00171,0.00165,-0.00363
-0.79781,0.41842,0.43405,0.00344,0.001,-0.00297
-0.79786,0.41834,0.43403,0.00392,-0.0004,-0.00204
-0.79791,0.41826,0.43402,0.00413,-0.00225,-0.00259
-0.79796,0.4182,0.43399,-0.00081,-0.00179,-0.0004
-0.79801,0.41817,0.43392,0.00176,0.00088,-0.00228
-0.79806,0.41808,0.43391,0.00439,-0.00297,-0.00204
-0.7981,0.41801,0.43392,0.00184,1e-05,0.00033
-0.79815,0.41797,0.43385,-0.00058,0.00325,-0.00093
-0.79825,0.41793,0.43371,-0.00212,0.00182,8e-05
-0.79836,0.4179,0.43354,0.00264,-0.00259,-0.00605
-0.79844,0.41786,0.43344,0.00325,-0.00038,-0.00193
-0.7985,0.41778,0.4334,0.00564,-0.0014,-0.00251
-0.79856,0.41768,0.43338,0.00486,-0.00393,-0.00172
-0.79863,0.41757,0.43336,0.00155,-0.00285,-0.00058
-0.79869,0.41751,0.4333,0.00174,-0.0015,-0.00328
-0.79879,0.41746,0.43317,-0.00011,0.00111,-0.00139
-0.79889,0.41741,0.43304,0.00386,0.00117,-0.00403
-0.79897,0.41736,0.43294,0.00415,0.00099,-0.00402
-0.79903,0.41729,0.4329,0.00664,-2e-05,-0.00254
-0.79907,0.41721,0.43288,0.00546,-0.0021,-0.0004
-0.79912,0.41715,0.43286,0.00055,-0.00038,-0.00055
-0.79917,0.4171,0.43281,0.00111,-0.00137,-9e-05
-0.79922,0.41707,0.43276,0.00135,-0.00075,-0.00026
-0.79927,0.41703,0.43271,0.0014,-0.00071,-0.00021
-0.79931,0.41698,0.43268,0.00306,-0.00203,-0.00249
-0.79935,0.41692,0.43265,0.00222,-0.00221,-0.00333
-0.7994,0.41686,0.43262,0.00178,-0.00204,-0.00171
-0.79946,0.4168,0.43257,0.0019,0.00054,-0.00161
-0.79951,0.41676,0.43251,0.00448,0.00097,-0.00206
-0.79956,0.41669,0.43248,0.00406,0.00039,-0.00209
-0.79958,0.41665,0.43249,0.00232,0.00114,-0.00241
-0.79959,0.41662,0.4325,0.00413,0.00039,-0.00011
-0.7996,0.41659,0.43251,0.00095,-0.00201,0.00012
-0.79961,0.41656,0.43251,0.00133,0.00137,-0.00023
-0.79963,0.41653,0.43251,0.00304,-0.00125,-0.00159
-0.79966,0.4165,0.43249,0.00357,-0.00096,-0.00212
-0.7997,0.41645,0.43247,0.00322,-0.00054,-0.00044
-0.79975,0.4164,0.43241,0.00345,-0.00217,-0.00154
-0.79981,0.41637,0.43234,0.002,0.00076,-0.00245
-0.79985,0.41634,0.43229,0.00271,-0.0002,-0.00303
-0.79986,0.41631,0.43229,0.00172,0.00013,-0.00245
-0.79986,0.4163,0.43231,0.00372,0.00088,-0.00284
-0.79986,0.41628,0.43234,0.00472,-0.00066,-1e-05
-0.79987,0.41624,0.43235,0.00395,-0.00073,-0.0001
-0.79987,0.41621,0.43238,0.00362,-0.00232,0.0006
-0.79989,0.41618,0.43237,0.00223,0.00023,-0.00229
-0.79991,0.41615,0.43237,0.00244,-0.0001,-0.00106
-0.79993,0.41611,0.43236,0.00106,0.00167,-0.00012
-0.79995,0.41609,0.43234,0.00177,0.0017,-0.00141
-0.79997,0.41606,0.43234,0.00276,0.00101,0.00096
-0.79998,0.41602,0.43236,0.00277,0.00146,0.00177
-0.79998,0.416,0.43237,0.00311,0.00072,-0.00052
-0.79999,0.41599,0.43238,0.00488,8e-05,-0.00296
-0.79999,0.41597,0.43239,0.00134,-0.00133,-0.00105
-0.79999,0.41593,0.43243,0.00221,-0.00191,-0.00024
-0.79998,0.41591,0.43247,0.00296,0.00156,-0.0002
-0.79997,0.41594,0.43245,-0.00365,0.00192,0.00015
-0.80001,0.41597,0.43235,-0.00053,0.00351,-0.00059
-0.80008,0.41596,0.43222,0.00461,-0.00364,-0.0042
-0.80013,0.41594,0.43215,0.00356,-0.00203,-0.00069
-0.80018,0.41589,0.43211,0.00354,-0.00155,-0.00253
-0.80022,0.41581,0.43211,0.00544,-0.00185,-0.0002
-0.80025,0.41574,0.43213,0.00156,-0.00305,-0.00082
-0.80027,0.41572,0.43211,0.00211,-0.00011,-0.00068
-0.8003,0.4157,0.43206,0.00241,0.00036,-0.00077
-0.80033,0.41571,0.43201,0.00348,0.00278,-0.00011
-0.80035,0.41571,0.43196,0.005,-0.00074,-0.00182
-0.80035,0.41573,0.43195,0.00424,-1e-05,-0.00055
-0.80033,0.41574,0.43198,0.00406,-0.00088,-0.00028
-0.80031,0.41574,0.43202,0.0,-0.00031,0.0008
-0.80031,0.41574,0.43201,-0.00091,-0.00201,-0.00154
-0.80032,0.41575,0.43198,0.00044,-0.00114,-0.00269
-0.80031,0.41577,0.43197,0.00175,-0.00301,-0.00303
-0.80031,0.41579,0.43196,0.00093,-0.00129,-0.00328
-0.80031,0.4158,0.43195,0.00115,0.00034,-0.0025
-0.80031,0.41578,0.43198,0.00122,0.00166,-0.00276
-0.8003,0.41577,0.43201,0.00121,0.00119,-0.00296
-0.80028,0.41577,0.43204,0.00199,0.00219,-0.0031
-0.80026,0.41578,0.43205,0.00328,-0.00032,-0.00206
-0.80024,0.4158,0.43208,0.00485,0.00032,-0.0023
-0.80022,0.4158,0.43212,0.00431,0.00124,-0.001
-0.80019,0.4158,0.43217,0.00408,0.00081,0.00051
-0.80017,0.41579,0.43223,0.00143,-0.00049,0.00149
-0.80015,0.41578,0.43227,0.00141,-0.00048,0.00145
-0.80015,0.41579,0.43227,0.00263,-0.00239,-0.00237
-0.80016,0.41578,0.43226,0.00223,-0.00293,-0.00138
-0.80016,0.41577,0.43227,0.00302,-0.00125,-0.00331
-0.80014,0.41579,0.43228,0.00267,-0.00051,-0.00296
-0.80012,0.41582,0.43229,0.00376,-0.00031,-0.00402
-0.8001,0.41584,0.43229,0.00398,0.00162,-0.00134
-0.80009,0.41586,0.43231,0.00306,-0.00172,-0.00072
-0.80006,0.41585,0.43236,0.00418,0.00032,-0.00183
-0.80004,0.41589,0.43237,0.00301,0.00013,-0.0016
-0.80003,0.41591,0.43237,0.00418,0.00201,0.00042
-0.80003,0.41591,0.43235,0.0014,-0.00142,-0.00192
-0.80005,0.41591,0.43234,0.00192,-0.00098,-0.00155
-0.80006,0.41592,0.43231,0.00245,-0.00137,-0.0017
-0.80007,0.41591,0.4323,0.00194,0.0,-0.00196
-0.80005,0.41592,0.43232,0.00089,0.00165,-0.00309
-0.80003,0.41589,0.43238,0.00371,-0.00325,-0.00298
-0.8,0.41588,0.43245,0.00234,0.00091,0.00242
-0.79998,0.41592,0.43245,0.00025,0.00271,-0.00279
-0.80001,0.41596,0.43236,-0.0045,0.0038,-9e-05
-0.80006,0.41596,0.43226,0.00091,0.00033,-0.00282
-0.8001,0.41596,0.43219,0.00733,-0.00018,-0.00193
-0.80015,0.41589,0.43217,0.00517,-0.00103,-0.0025
-0.80018,0.41581,0.43219,0.00437,-0.00271,-0.00154
-0.80022,0.41573,0.4322,0.00168,-0.00142,-0.00063
-0.80021,0.41571,0.43222,0.00012,-0.0016,-0.0019
-0.80019,0.41574,0.43224,0.0028,-0.00042,-0.00243
-0.80016,0.41581,0.43223,-0.00133,-0.00077,-0.00124
-0.80012,0.4159,0.43221,0.00224,0.00118,-0.00033
-0.80006,0.416,0.43223,0.00448,-0.00068,-0.0023
-0.79997,0.41611,0.43228,0.00483,-0.00039,-0.00238
-0.79988,0.41622,0.43235,0.00187,0.0014,4e-05
-0.79982,0.4163,0.43237,0.00016,0.00217,-0.00062
-0.79979,0.41637,0.43237,-0.00151,0.00073,-0.00219
-0.79971,0.41646,0.43242,0.00046,-0.00035,-0.0029
-0.79963,0.41653,0.4325,0.00263,-0.00102,-0.00446
-0.79956,0.41656,0.43261,0.00256,-0.00105,-0.00457
-0.79947,0.4166,0.43274,0.0016,0.00013,-0.00207
-0.79938,0.41666,0.43285,0.0002,0.00145,-0.00057
-0.79929,0.41673,0.43294,0.00011,0.00138,-0.00066
-0.79921,0.41679,0.43303,0.0007,0.00326,-0.00125
-0.79911,0.41687,0.43314,0.00353,-0.00113,-0.00118
-0.79901,0.41696,0.43324,0.00633,-0.00115,-0.00088
-0.79891,0.41705,0.43333,0.00388,0.00184,0.00031
-0.79881,0.41716,0.43341,0.00213,0.0009,0.00152
-0.79871,0.41728,0.43348,0.00174,0.00163,-0.00135
-0.7986,0.41738,0.43357,0.00365,-0.00133,-0.00131
-0.7985,0.41747,0.43369,0.00112,-0.00131,-0.00267
-0.7984,0.41755,0.43379,0.00267,-0.0019,-0.00239
-0.79831,0.41766,0.43386,0.0036,-0.00033,-0.00153
-0.79822,0.41777,0.4339,0.00272,-0.00012,-0.00288
-0.79813,0.41788,0.43396,0.00238,0.00101,-0.00472
-0.79804,0.41797,0.43404,0.00024,-0.00156,-0.00301
-0.79794,0.41806,0.43413,0.00203,0.00108,-0.0009
-0.79784,0.41816,0.43423,0.00089,0.00093,-0.0021
-0.79774,0.41826,0.43432,0.00312,0.00012,-6e-05
-0.79762,0.41835,0.43445,0.00164,-0.00011,-0.00119
-0.79749,0.41844,0.4346,0.00243,9e-05,-0.00199
-0.79736,0.41854,0.43474,0.00208,-0.0017,-2e-05
-0.79722,0.41867,0.43486,0.00291,-0.00202,-0.0003
-0.79713,0.41874,0.43497,0.0025,-0.00451,-0.00101
-0.79704,0.4188,0.43508,0.00169,-0.00355,0.00184
-0.79694,0.41894,0.43511,0.0012,0.00428,-5e-05
-0.79687,0.41909,0.4351,-0.00032,0.00439,-0.00289
-0.79681,0.41919,0.43511,-0.00049,0.00067,-0.00232
-0.7967,0.41931,0.43519,-0.00032,-0.00594,-0.00265
-0.79658,0.41941,0.43532,-0.00043,-0.00266,-0.003
-0.7965,0.41946,0.43543,0.00248,-0.00237,-0.0007
-0.79644,0.41948,0.43551,0.00239,-0.00474,0.002
-0.79637,0.41953,0.43559,0.00381,-0.00375,9e-05
-0.79631,0.41964,0.4356,0.00191,0.00028,-0.00324
-0.79626,0.41975,0.43558,0.00393,0.00193,-0.00355
-0.7962,0.41983,0.43561,0.00307,0.00545,-0.00295
-0.79611,0.4199,0.43572,0.00364,-0.00126,-0.00283
-0.79599,0.42,0.43584,0.00368,0.00136,-0.00177
-0.7959,0.42006,0.43594,0.00236,-0.00072,-0.00011
-0.7958,0.42014,0.43604,0.00015,-0.0014,-0.00202
-0.79572,0.42022,0.43612,0.00081,-0.00182,-0.00119
-0.79563,0.4203,0.43621,-6e-05,-0.00215,-0.00272
-0.79553,0.4204,0.4363,0.00144,-0.00179,-0.00261
-0.79544,0.42049,0.43637,0.00236,-0.00201,-0.00073
-0.79538,0.42059,0.43639,0.00157,-0.00186,-0.00254
-0.79534,0.42064,0.4364,0.00299,-0.00052,-0.00246
-0.79529,0.42071,0.43644,0.00261,0.00037,-0.00223
-0.7952,0.4208,0.43652,0.00307,0.00041,-0.00134
-0.79514,0.42084,0.43657,0.0045,0.00072,-0.00248
-0.79509,0.42089,0.43662,0.00428,-0.00271,-0.00026
-0.79497,0.42099,0.43675,0.00795,-0.00357,0.0004
-0.79489,0.42104,0.43685,0.00205,-0.0011,-0.00129
-0.7949,0.42103,0.43684,0.00339,-0.00577,-0.00097
-0.79492,0.42101,0.43681,0.00342,-0.00575,-0.00094
-0.79496,0.42097,0.43678,0.00153,-0.00156,-0.00113
-0.79502,0.42095,0.4367,0.00306,-0.00174,-0.00284
-0.79507,0.42091,0.43664,0.0029,-0.00056,-0.00277
-0.79512,0.42084,0.43662,0.00155,0.0002,-0.00297
-0.79518,0.42074,0.43661,0.00607,0.00075,-0.00082
-0.79526,0.42058,0.43661,0.00785,-0.00263,-0.0037
-0.79532,0.42045,0.43661,0.00205,-0.00114,0.00208
-0.79537,0.42041,0.43658,0.00153,0.00663,-0.00237
-0.79544,0.42035,0.43651,0.0017,0.00233,-0.00072
-0.79552,0.42028,0.43643,0.00275,-0.00561,-0.00154
-0.79561,0.42023,0.43631,0.00112,-0.00413,-0.00046
-0.79572,0.42011,0.43623,0.0018,-0.00139,-0.00079
-0.79585,0.41996,0.43614,0.00411,-0.00462,-0.00249
-0.79597,0.41984,0.43602,0.00215,-0.00459,-0.00175
-0.79611,0.41974,0.43588,0.00289,-0.00159,-0.00311
-0.79623,0.41965,0.43573,0.00276,0.00262,-0.00346
-0.79633,0.41962,0.43559,-0.00064,0.00201,-0.00194
-0.79639,0.41957,0.43551,-0.00016,0.00409,-0.00219
-0.79644,0.41954,0.43547,0.00432,-0.00111,-0.00283
-0.79649,0.41945,0.43546,0.00459,0.00114,0.00069
-0.79654,0.41936,0.43544,0.00289,-0.00188,-0.00337
-0.79661,0.41928,0.4354,0.00059,0.00061,-5e-05
-0.79667,0.41922,0.43535,-0.0001,-0.00079,-0.00284
-0.79672,0.41919,0.43528,0.00064,-0.00176,-0.00308
-0.79677,0.41914,0.43524,0.00298,-0.00207,-0.00339
-0.79682,0.41908,0.4352,0.00222,-0.00107,-0.00153
-0.7969,0.419,0.43513,0.00326,-0.00199,-1e-05
-0.79697,0.41894,0.43505,0.00285,0.00052,-0.00199
-0.79703,0.4189,0.43499,0.00379,0.00213,-0.00392
-0.79708,0.41886,0.43495,0.00397,0.00087,-0.00024
-0.79711,0.41881,0.43493,0.00463,-0.00045,-0.0021
-0.79716,0.41876,0.43489,0.00226,0.00105,-0.00155
-0.7972,0.41872,0.43485,0.00115,0.00071,-0.0004
-0.79726,0.41866,0.43481,0.00473,-0.00066,-0.00233
-0.79731,0.41859,0.43477,0.00268,-0.00288,-0.00273
-0.79736,0.41854,0.43473,0.00052,0.0003,-0.00126
-0.79743,0.41843,0.43471,0.00396,-0.00397,0.00014
-0.79751,0.41834,0.43465,0.0006,0.00315,-0.00031
-0.7976,0.41829,0.43454,0.00271,0.00452,-0.00174
-0.79771,0.41823,0.43439,5e-05,0.00453,-0.00188
-0.79782,0.41817,0.43424,0.003,-0.00015,-0.00471
-0.79789,0.41812,0.43416,0.00329,-0.001,-0.00353
-0.79793,0.41808,0.43412,0.00252,-0.00072,-0.00334
-0.79798,0.41799,0.43413,0.00252,-0.00165,0.0016
-0.79803,0.41787,0.43414,0.00294,-0.00305,0.00162
-0.79811,0.4178,0.43407,0.00329,-0.00075,0.00254
-0.79821,0.41773,0.43395,0.00295,0.00091,-0.00275
-0.79832,0.41768,0.43379,0.00195,0.0012,-0.00232
-0.7984,0.41765,0.43367,0.0036,0.00313,-0.00582
-0.79844,0.4176,0.43364,0.0038,0.00105,-0.00238
-0.79848,0.41756,0.43362,0.00551,0.00097,-0.00108
-0.79851,0.41752,0.43359,0.00527,0.00176,-0.0025
-0.79858,0.41746,0.43353,0.00015,0.00148,-0.00116
-0.79864,0.41741,0.43346,0.00102,-0.00098,-0.0019
-0.7987,0.41736,0.43341,0.0042,-0.00175,-0.00262
-0.79874,0.41731,0.43338,0.00292,-0.00173,-0.00117
-0.79879,0.41724,0.43336,0.00024,-0.00189,0.0003
-0.79885,0.41719,0.43329,-0.00024,-0.0008,0.00032
-0.79891,0.41715,0.43322,0.00451,0.00039,-0.00224
-0.79897,0.41709,0.43315,0.00334,0.00213,-0.0025
-0.79903,0.41706,0.43309,0.0027,0.00042,-0.00094
-0.79906,0.41702,0.43305,0.0037,0.00098,-0.00062
-0.79911,0.417,0.43301,0.00304,0.00238,-0.00225
-0.79916,0.41696,0.43295,0.00387,0.00126,-0.00111
-0.7992,0.41691,0.43292,0.00411,-0.00111,-0.00031
-0.79924,0.41686,0.43288,0.00261,-0.00028,-0.0001
-0.79929,0.41679,0.43286,0.00367,-0.00201,0.00024
-0.79936,0.41673,0.4328,-0.00045,0.00116,0.00118
-0.7994,0.41667,0.43277,0.00199,0.00108,-0.00479
-0.79943,0.4166,0.43278,0.00146,-0.00135,-0.00035
-0.79945,0.41656,0.43279,0.00207,0.00165,-5e-05
-0.79949,0.41655,0.43273,0.00035,0.00322,0.00185
-0.79956,0.41653,0.43261,-0.00137,0.0042,-0.00203
-0.79962,0.4165,0.43253,0.00354,-0.00097,-0.00477
-0.79964,0.41648,0.43251,0.00405,-0.00032,-0.002
-0.79967,0.41643,0.43251,0.00548,-0.00184,0.00082
-0.79971,0.41637,0.43249,0.00511,-0.00417,0.00091
-0.79977,0.41631,0.43244,0.00218,0.00011,0.0017
-0.79985,0.41626,0.43235,0.00161,-0.00058,-0.00066
-0.79992,0.41623,0.43224,0.0033,0.00126,-0.00338
-0.79996,0.41622,0.43217,0.00271,0.00117,-0.00091
-0.79999,0.4162,0.43213,0.00516,0.00051,-0.00251
-0.8,0.41618,0.43214,0.00392,-0.00103,-0.0016
-0.80001,0.41615,0.43215,0.00369,0.00069,0.00087
-0.80003,0.41613,0.43213,0.00264,-0.0004,0.00036
-0.80005,0.41613,0.43209,0.00132,-0.00071,-0.00104
-0.80007,0.41616,0.43202,0.00391,-0.0006,0.00043
-0.8001,0.41617,0.43196,0.00325,-0.00036,-0.00171
-0.8001,0.41617,0.43196,-0.00113,-0.00264,-0.00229
-0.80009,0.41617,0.43197,0.00322,-0.0015,-0.00195
-0.80011,0.41614,0.43197,0.0035,-0.00179,-0.00059
-0.80013,0.41613,0.43195,0.00229,-0.00048,-0.00137
-0.80015,0.41612,0.43192,0.00176,0.00069,-0.00234
-0.80014,0.41612,0.43195,0.00328,0.00193,-0.00337
-0.80012,0.4161,0.43199,0.00204,0.00164,-0.00351
-0.80011,0.4161,0.43201,0.00439,0.00103,-0.00175
-0.8001,0.41607,0.43206,0.00273,-1e-05,-0.00181
-0.80006,0.41605,0.43215,0.00214,-0.00198,-0.0
-0.80004,0.41603,0.43221,0.00248,-0.00143,-0.00074
-0.80005,0.41601,0.43221,0.00505,-0.00372,0.00055
-0.80006,0.41597,0.43224,0.0017,0.0014,-0.00133
-0.80008,0.41596,0.4322,-0.0002,-0.0032,-0.0009
-0.80008,0.41596,0.43221,0.00366,-0.00023,-0.0005
-0.80008,0.41596,0.43221,0.00233,0.00018,-0.00204
-0.80007,0.41595,0.43223,0.0037,0.001,-0.00189
-0.80005,0.41595,0.43227,0.00453,0.00143,-0.00091
-0.80003,0.41595,0.4323,0.00517,0.00014,-0.00068
-0.80003,0.41595,0.4323,0.00435,-1e-05,-0.00016
-0.80005,0.41594,0.43229,0.00339,0.00077,-0.00054
-0.80006,0.41593,0.43227,0.00354,0.00106,-0.00258
-0.80007,0.41595,0.43223,0.00204,-0.00091,-0.00022
-0.80007,0.41595,0.43223,0.00206,-0.00058,-0.00262
-0.80005,0.41593,0.43228,0.00042,-0.00036,-0.00122
-0.80005,0.41595,0.43228,0.00502,-0.00124,0.00128
-0.80004,0.41595,0.43229,0.00254,0.00079,-0.0019
-0.80006,0.41595,0.43225,0.00485,0.00154,-0.00044
-0.80006,0.41594,0.43225,0.00348,-0.0025,-0.00246
-0.80006,0.41592,0.43229,0.00393,5e-05,-0.00117
-0.80004,0.41595,0.4323,0.00091,0.00066,-0.00102
-0.80004,0.41599,0.43226,-0.00309,0.0037,6e-05
-0.80005,0.416,0.43222,0.00369,0.00127,-0.00157
-0.80007,0.41599,0.43219,0.00321,-3e-05,-0.00348
-0.8001,0.41595,0.43217,0.00572,-0.0001,-0.00195
-0.80014,0.41591,0.43214,0.00412,-0.00383,-0.00164
-0.80019,0.41585,0.43211,0.00063,-0.00073,0.00029
-0.80023,0.41581,0.43207,0.00067,-0.00069,0.00034
-0.80023,0.41578,0.4321,0.00123,0.00237,-0.00293
-0.80022,0.41578,0.43211,0.00504,0.00092,-0.00067
-0.80023,0.41582,0.43205,0.00505,0.00088,-0.0006
-0.80023,0.41585,0.43202,0.00594,0.00264,-0.00333
-0.80018,0.41587,0.4321,0.003,0.00249,-0.00124
-0.80013,0.4159,0.43216,0.00295,0.00247,-0.0013
-0.80012,0.41592,0.43216,0.00265,-3e-05,0.00086
-0.80012,0.41593,0.43215,0.00061,-0.00039,0.00047
-0.8001,0.41594,0.43217,0.003,-0.00208,-0.00101
-0.80011,0.41593,0.43218,0.00397,-0.00269,-0.00107
-0.80013,0.41591,0.43216,0.00302,0.00067,-0.00418
-0.80014,0.41592,0.43213,0.00156,-0.00057,-0.00455
-0.80011,0.41594,0.43216,0.00141,0.00144,-0.00255
-0.80007,0.41596,0.43221,0.00489,0.00186,-0.00285
-0.80004,0.41599,0.43225,0.00337,0.00241,-0.00119
-0.8,0.41602,0.43229,0.00275,-0.0002,-0.00112
-0.79994,0.41606,0.43235,0.0033,0.00033,-0.0001
-0.79988,0.41611,0.43243,0.00271,-0.0003,-0.00125
-0.79982,0.41613,0.43252,0.00156,-0.00116,-0.00146
-0.79976,0.41616,0.4326,-0.00021,0.00023,-0.00164
-0.79972,0.41618,0.43265,0.00329,-0.00019,-0.0004
-0.79969,0.4162,0.43269,0.00219,-0.00096,-0.00187
-0.79967,0.41623,0.43271,0.00201,-0.00143,-0.00253
-0.79964,0.41628,0.43272,0.00346,-0.0014,-0.0028
-0.79959,0.41634,0.43274,-0.00034,0.00273,-0.00208
-0.79952,0.41643,0.43278,0.00106,0.00072,-0.00236
-0.79945,0.41652,0.43283,0.00386,-0.00012,-0.00084
-0.79938,0.41658,0.4329,0.00419,0.00278,-0.00133
-0.79933,0.41663,0.43294,0.00096,-3e-05,-0.00121
-0.79926,0.41671,0.43299,0.00312,-0.00089,-0.00137
-0.79919,0.41678,0.43305,0.00151,-0.00053,-0.00137
-0.79914,0.41683,0.4331,0.00193,-0.00135,-0.0029
-0.79907,0.4169,0.43317,0.00289,-0.0029,-0.00322
-0.79898,0.41699,0.43325,0.00404,-0.00085,0.00087
-0.79889,0.41707,0.43334,0.00183,0.00243,-0.00286
-0.7988,0.41711,0.43347,0.0021,-0.00236,-0.00112
-0.7987,0.41719,0.43356,0.00242,0.00273,-0.00096
-0.79863,0.4173,0.4336,0.00027,0.00322,-0.00307
-0.79857,0.4174,0.43361,-0.0008,0.00189,-0.00172
-0.7985,0.41752,0.43362,0.00258,-0.00139,-0.00549
-0.7984,0.41761,0.43371,0.00067,-0.00204,-0.00025
-0.79832,0.41765,0.43382,0.00204,4e-05,-1e-05
-0.79827,0.41765,0.4339,0.00579,-0.00397,0.00194
-0.79826,0.41765,0.43393,0.00187,-0.00307,0.00078
-0.79827,0.41768,0.43389,0.00347,0.00137,-0.00058
-0.79827,0.41774,0.43383,0.00125,0.00285,-0.00169
-0.79823,0.41782,0.43382,0.0036,0.0045,-0.00625
-0.79816,0.41791,0.43387,0.00423,0.00046,-0.00376
-0.79805,0.41799,0.43399,0.00608,-0.00084,-0.00175
-0.79795,0.41805,0.43411,0.00429,0.00115,0.00134
-0.79788,0.4181,0.43419,-0.00201,0.00164,-0.00031
-0.79784,0.41816,0.43422,0.0002,-0.00126,-0.00143
-0.79777,0.41824,0.43427,0.00068,-0.00045,-0.00273
-0.79768,0.41832,0.43436,0.00159,-0.00072,-0.00281
-0.79759,0.41839,0.43445,0.00259,-0.00028,-0.002
-0.79751,0.41845,0.43453,0.00079,-0.0005,-0.00303
-0.79744,0.41852,0.4346,0.00092,-0.00084,-0.00158
-0.79736,0.41861,0.43466,0.00085,0.00078,-0.00128
-0.79728,0.41869,0.43473,0.00313,0.00151,-0.0028
-0.79718,0.41877,0.43484,0.00485,0.00038,-0.00063
-0.79708,0.41887,0.43493,0.00219,-0.00026,0.00065
-0.79699,0.41897,0.43499,0.0032,0.00039,-0.0001
-0.79689,0.41904,0.4351,0.00395,-0.0,-0.00164
-0.7968,0.41909,0.43522,0.00455,-0.00263,-0.00087
-0.79671,0.41914,0.43533,0.00205,-0.00226,-0.00073
-0.79663,0.41921,0.43541,0.00307,-0.00084,-0.00146
-0.79656,0.41927,0.43548,0.00233,-0.00017,-0.00144
-0.7965,0.41936,0.43551,0.0022,-0.00078,-0.00291
-0.79643,0.41946,0.43554,0.00021,-0.00069,-0.00295
-0.79636,0.41955,0.43558,0.00031,-0.00157,-0.00211
-0.79628,0.41964,0.43565,0.0022,0.00128,-0.0026
-0.79619,0.41973,0.43571,0.00332,0.00017,-0.00247
-0.79611,0.41981,0.43579,0.0041,-0.00026,-0.00305
-0.79602,0.41988,0.43588,0.00323,-0.00048,-9e-05
-0.79595,0.41992,0.43598,0.00196,0.00063,-0.00181
-0.79587,0.41993,0.4361,0.00181,-0.00622,-0.00039
-0.7958,0.42002,0.43615,0.00286,0.00375,-0.00049
-0.79575,0.42014,0.43612,0.00153,0.00137,-0.00387
-0.79573,0.42024,0.43607,-0.00019,-0.0019,-0.00231
-0.79567,0.42035,0.43606,0.00093,-0.00408,-0.00389
-0.7956,0.42045,0.4361,0.00199,-0.00387,-0.00046
-0.79556,0.42049,0.43613,0.00382,-0.00113,-0.00136
-0.79558,0.42049,0.4361,0.00377,-0.00171,-0.00108
-0.79559,0.42049,0.43608,0.00287,-0.00037,-0.00063
-0.7956,0.4205,0.43605,0.00382,0.00509,-0.00326
-0.79563,0.42049,0.43601,0.00519,0.00415,-0.00284
-0.79567,0.42046,0.43596,0.00524,0.00418,-0.00279
-0.79571,0.4204,0.43595,0.00613,0.00059,-0.00176
-0.79573,0.42032,0.43598,0.00419,-0.0017,-0.00269
-0.79576,0.42024,0.43601,0.003,-0.00139,0.00019
-0.7958,0.42015,0.43603,0.0003,-0.00273,-0.00134
-0.79585,0.42009,0.43599,-0.00068,-0.00345,-0.00145
-0.79588,0.42006,0.43598,-0.00065,-0.00341,-0.00143
-0.7959,0.42002,0.43597,0.00185,-0.0034,-0.00071
-0.79592,0.42001,0.43595,0.00121,-0.00546,-0.0013
-0.79595,0.42001,0.43588,0.00092,-0.0025,-0.00103
-0.796,0.42,0.4358,0.00223,-0.00104,-0.00218
-0.79606,0.41996,0.43574,0.00372,0.00163,-0.0033
-0.7961,0.41992,0.43571,0.00578,0.00304,-0.00108
-0.79613,0.41988,0.43568,0.00394,0.00187,0.00051
-0.79616,0.41986,0.43565,0.00467,0.00131,-0.00205
-0.79621,0.41984,0.43558,0.00255,0.00051,-0.00251
-0.79625,0.41978,0.43555,0.00114,0.00041,-0.00359
-0.79629,0.41969,0.43556,-0.00106,-0.00168,-0.00206
-0.79632,0.41964,0.43556,-0.00032,-0.00194,-0.00339
-0.79637,0.41956,0.43556,0.00096,-0.00336,-0.00262
-0.79642,0.41949,0.43553,0.00218,-0.00161,-4e-05
-0.79647,0.41944,0.43548,0.00262,0.00219,-0.00323
-0.79652,0.41936,0.43546,0.0009,-0.00068,-0.00135
-0.79656,0.41932,0.43544,0.00018,0.00302,-0.00072
-0.79658,0.41934,0.43538,0.00158,0.00598,-0.00234
-0.79661,0.41934,0.43531,-0.00104,0.00331,-0.00225
-0.79664,0.41934,0.43527,0.00486,-0.00083,-0.00186
-0.79665,0.41932,0.43526,0.00364,-0.00196,0.00067
-0.79669,0.41923,0.43529,0.00382,-0.00254,-0.00049
-0.79675,0.41913,0.43527,0.00297,-0.00342,0.0017
-0.79683,0.41906,0.43519,0.00079,-0.00371,-0.00017
-0.7969,0.41904,0.43509,0.00232,-0.00037,-0.00285
-0.79699,0.41901,0.43495,0.00161,0.00151,-0.00127
-0.79707,0.41896,0.43484,0.00404,0.00346,-0.00386
-0.79713,0.41894,0.43476,0.00401,0.00167,-0.00139
-0.79717,0.41892,0.4347,0.00405,0.00169,-0.00134
-0.79719,0.41888,0.4347,0.00563,0.00116,-0.00238
-0.79723,0.41881,0.4347,0.00359,0.00062,0.00204
-0.79728,0.41874,0.43467,-0.00194,2e-05,-0.0003
-0.79732,0.4187,0.43464,0.00043,-0.00039,-0.0003
-0.79734,0.41867,0.43463,0.00111,-0.0025,-0.00169
-0.79738,0.41863,0.4346,0.00295,-0.00349,-0.00081
-0.79744,0.41856,0.43454,0.00321,-0.00302,-0.00136
-0.79751,0.41851,0.43447,0.00204,-0.00111,-0.0024
-0.79757,0.41845,0.43442,0.00207,0.00076,-0.00074
-0.79761,0.41842,0.43438,0.00224,0.00222,-0.00448
-0.79763,0.4184,0.43436,0.00351,0.0007,-0.00097
-0.79762,0.41838,0.43439,0.00442,0.00151,-0.00011
-0.79763,0.41834,0.43442,0.00432,0.00216,-0.0016
-0.79765,0.41831,0.43441,0.00307,-0.00014,0.00038
-0.79768,0.41829,0.43437,0.00236,-0.00328,-0.00012
-0.79773,0.41822,0.43434,0.00238,0.00071,-0.00063
-0.7978,0.41814,0.43429,0.00387,-0.00167,0.00077
-0.79788,0.41807,0.43422,0.00045,-0.00027,-0.00023
-0.79796,0.41801,0.43413,0.00322,-0.00017,-0.00216
-0.79803,0.41795,0.43405,0.00227,0.00212,-0.00155
-0.79809,0.41786,0.43403,0.0045,-0.00244,-0.00214
-0.79815,0.41782,0.43397,0.00239,0.002,-0.00051
-0.7982,0.41783,0.43387,0.00091,0.00179,-0.00289
-0.79824,0.41782,0.43379,-0.00295,0.003,-0.00147
-0.79829,0.4178,0.43373,-2e-05,0.00078,-0.00479
-0.79831,0.41776,0.43372,0.00208,-0.00054,0.00048
-0.79836,0.41768,0.43372,0.00426,-0.00224,-0.00045
-0.79842,0.41757,0.43369,0.00471,-0.00404,0.00146
-0.7985,0.4175,0.43363,0.00224,-0.00255,0.00067
-0.79858,0.41745,0.43352,0.0013,-0.0023,0.00068
-0.79866,0.4174,0.43342,0.00216,0.00166,-0.00094
-0.79872,0.41736,0.43335,0.00394,0.00189,-0.00229
-0.79877,0.41734,0.43329,0.00345,0.00138,-0.00366
-0.79878,0.41732,0.43328,0.00789,0.00063,-0.00231
-0.7988,0.41729,0.43329,0.0018,-0.00031,-0.00037
-0.79881,0.41724,0.43331,-0.00076,0.00096,-0.00102
-0.79885,0.41719,0.43329,0.00092,0.00047,-0.00065
-0.79887,0.41719,0.43324,-6e-05,-0.00169,-0.00102
-0.7989,0.41719,0.4332,0.00123,-0.00055,5e-05
-0.79893,0.41715,0.43317,0.00285,-0.0019,-0.00055
-0.799,0.41708,0.43312,0.00459,-3e-05,-0.00183
-0.79906,0.41701,0.43307,0.00108,0.00032,-6e-05
-0.7991,0.41696,0.43303,0.00156,0.00109,-0.00232
-0.79912,0.41694,0.43301,-1e-05,0.00162,-0.00287
-0.79914,0.41692,0.43301,0.00268,0.00178,-0.00129
-0.79914,0.41691,0.43302,0.00302,0.00062,-0.0016
-0.79917,0.41686,0.43302,0.00395,0.00126,-0.00188
-0.7992,0.41681,0.43301,0.00481,0.00037,0.0011
-0.79922,0.41677,0.43301,0.00224,0.00182,-0.0012
-0.79926,0.41673,0.43298,0.00263,0.00063,-6e-05
-0.7993,0.41668,0.43295,0.00243,-0.00083,-0.00071
-0.79936,0.41661,0.43291,0.0021,-0.00145,-0.00189
-0.79941,0.41658,0.43284,9e-05,0.00023,-0.00192
-0.79945,0.41656,0.43279,0.00425,0.00122,-0.00179
-0.79949,0.41652,0.43275,0.00531,-0.00059,-0.00466
-0.79951,0.41647,0.43276,0.00541,0.00084,-0.00115
-0.79953,0.41641,0.43279,0.0021,-0.00079,-4e-05
-0.79953,0.41638,0.43282,0.00141,0.00078,-0.00159
-0.79951,0.4164,0.43283,-0.0001,0.00013,-0.00139
-0.79949,0.41643,0.43283,0.00254,-0.00241,-0.00392
-0.79947,0.41646,0.43284,0.00288,-0.00307,-0.00065
-0.79945,0.41645,0.43289,0.00486,-0.00241,-0.00097
-0.79945,0.41646,0.43288,0.00214,-8e-05,0.00102
-0.79946,0.41648,0.43284,0.00339,0.00175,-0.00085
-0.79945,0.41649,0.43284,0.00108,0.001,-0.00125
-0.79944,0.41651,0.43285,0.00088,0.00364,-0.0021
-0.7994,0.41656,0.43288,0.00176,0.00323,-0.00167
-0.79936,0.41658,0.43293,0.00503,0.00236,-0.0032
-0.79932,0.41655,0.43303,0.00364,-0.00062,0.00066
-0.79931,0.41652,0.43308,0.00119,0.00131,-0.00111
-0.79929,0.41651,0.43313,0.00037,0.00055,-0.00178
-0.79928,0.41645,0.43319,0.00129,-0.00329,-0.00295
-0.79929,0.41642,0.4332,0.00178,0.00068,0.0007
-0.79934,0.41644,0.43311,-0.00116,0.00286,0.00134
-0.79942,0.41642,0.43298,0.00192,0.00517,-0.00018
-0.79951,0.41637,0.43286,0.0051,0.00088,-0.0038
-0.79958,0.4163,0.43279,0.00467,0.0005,-0.00211
-0.79968,0.41615,0.43275,0.0057,-0.00023,-0.00143
-0.79978,0.41599,0.43273,0.00585,-0.0006,1e-05
-0.79988,0.41582,0.4327,0.00557,-0.00195,0.00174
-0.8,0.41566,0.43263,0.0059,-0.00218,0.00046
-0.80011,0.41555,0.43254,0.00392,-0.00272,-0.00013
-0.80019,0.41552,0.43242,0.00237,-0.00045,-0.00219
-0.80023,0.41555,0.43231,0.00436,-0.003,-0.00468
-0.80024,0.41561,0.43225,0.00473,-0.00252,-0.00364
-0.80021,0.41567,0.43223,-0.00043,-0.00248,-0.00341
-0.80017,0.41579,0.43219,-0.00059,-0.0005,0.00082
-0.80014,0.41591,0.43213,-6e-05,0.00052,-0.00187
-0.80011,0.41602,0.43209,0.00097,0.0007,-0.00405
-0.80007,0.41612,0.43206,-0.00042,0.00171,-0.00335
-0.80002,0.4162,0.43207,0.00162,0.00123,-0.00474
-0.79996,0.41627,0.43211,0.00178,0.00406,-0.00214
-0.7999,0.41629,0.43221,0.00179,0.00401,-0.00268
-0.79985,0.4163,0.4323,0.00419,0.00498,-0.00213
-0.79979,0.4163,0.43242,-0.00065,0.00198,-0.00137
-0.79974,0.41628,0.43252,0.00272,0.00219,0.00028
-0.79969,0.41629,0.43259,0.00294,0.00143,-0.00025
-0.79965,0.41629,0.43267,0.00383,-0.00075,0.00071
-0.79961,0.41629,0.43274,0.00457,-0.0002,0.00147
-0.7996,0.41626,0.43279,0.00253,0.00044,0.00119
-0.7996,0.4162,0.43285,0.00436,0.00039,-0.00125
-0.79963,0.41611,0.43289,0.00278,-0.00155,-0.00134
-0.79966,0.41604,0.43288,0.00323,-0.00044,-0.00159
-0.79971,0.416,0.43284,0.00289,-0.00015,-0.00331
-0.79973,0.41596,0.43284,0.00337,-0.00139,-0.00352
-0.79974,0.41592,0.43286,0.00549,-0.00056,-0.00286
-0.79977,0.41591,0.43282,0.00463,-0.00203,0.00011
-0.7998,0.41591,0.43277,0.00162,0.00078,-0.00361
-0.79981,0.41595,0.43271,0.00093,-0.00125,-0.00076
-0.7998,0.41603,0.43266,0.00191,-0.00073,-0.00159
-0.79978,0.41607,0.43263,0.00456,-0.00059,0.00059
-0.79977,0.41609,0.43263,0.00323,0.00113,-0.00078
-0.79976,0.41613,0.43262,0.00181,0.00048,-0.00277
-0.79976,0.41618,0.43258,0.00119,0.00092,-0.00149
-0.79976,0.41621,0.43254,-0.00061,0.00607,-0.00386
-0.79971,0.41623,0.43263,0.00279,0.00167,-0.00267
-0.79969,0.41623,0.43267,0.0054,-0.00157,-0.00311
-0.79969,0.4162,0.4327,0.00421,0.00232,-0.00402
-0.79965,0.41617,0.4328,0.00214,-0.00134,-0.00104
-0.79958,0.41618,0.43291,-0.00033,0.00191,-0.00026
-0.79952,0.41622,0.43299,-0.0003,0.00097,-0.00196
-0.79947,0.41629,0.43301,-0.00323,0.00238,-0.00067
-0.79946,0.41633,0.43298,0.00229,-0.00303,-0.00261
-0.79942,0.41637,0.43301,0.00433,-0.00138,-0.00086
-0.79936,0.41641,0.43309,0.00429,-0.00311,-0.00214
-0.79934,0.41642,0.43314,0.00307,-0.00232,-0.00094
-0.7993,0.41645,0.43317,0.00293,-0.00338,0.00149
-0.79924,0.41654,0.43321,-7e-05,0.00246,-0.00015
-0.79918,0.41661,0.43323,0.00103,0.00462,-0.00235
-0.79914,0.41669,0.43323,0.004,0.00271,-0.00321
-0.79908,0.41677,0.43326,0.0045,0.0019,-0.00313
-0.79901,0.41684,0.43332,0.00618,0.00179,-0.00146
-0.79891,0.41689,0.43346,0.00521,-0.00016,-0.00233
-0.79882,0.41689,0.43363,0.00344,0.00331,-0.00017
-0.79877,0.41685,0.43376,0.0033,-0.00123,-0.00015
-0.79872,0.41686,0.43384,0.00383,-0.00292,-0.00218
-0.7987,0.41687,0.43387,0.00139,-0.00174,-0.00434
-0.79869,0.41691,0.43385,-0.0008,-0.00312,-0.00322
-0.79866,0.41698,0.43384,0.00224,-0.00084,-0.00223
-0.7986,0.41708,0.43386,0.00238,-0.00153,-0.00306
-0.79852,0.4172,0.43389,0.00402,-0.00094,0.00045
-0.79843,0.41732,0.43393,0.0031,0.00086,-0.0029
-0.79834,0.41743,0.43398,0.00528,0.00054,-0.00187
-0.79824,0.41756,0.43405,0.00432,0.00144,-0.00384
-0.79812,0.41769,0.43415,0.00356,0.00031,-0.00245
-0.798,0.41781,0.43426,0.00194,-0.00157,-0.00022
-0.79788,0.41795,0.43434,0.00038,0.00195,-0.00152
-0.79776,0.41814,0.43437,-0.00317,0.00125,-0.0008
-0.79764,0.41834,0.4344,-0.00058,0.00023,-0.00253
-0.7975,0.41855,0.43445,0.00176,-0.00047,-0.00238
-0.79738,0.41871,0.43453,0.00317,0.00388,-0.00199
-0.79726,0.41883,0.43463,-0.00049,0.00279,-0.00127
-0.79715,0.4189,0.43476,0.00298,0.00324,-0.00318
-0.79706,0.4189,0.43493,0.00334,0.00368,-0.00289
-0.79697,0.41887,0.43511,0.00355,0.00281,-0.00347
-0.7969,0.41882,0.4353,0.00411,0.00109,-0.00397
-0.79683,0.41879,0.43546,0.00242,0.00124,-0.00124
-0.79675,0.41877,0.43561,0.0003,9e-05,-0.004
-0.79666,0.41878,0.43576,0.00267,-0.00167,-0.00159
-0.79658,0.4188,0.4359,0.00402,-0.00144,-0.00035
-0.79649,0.41882,0.43603,0.00624,-0.00425,0.00081
-0.79642,0.41885,0.43614,0.00559,-0.00546,-0.00013
-0.79638,0.41889,0.43618,0.00625,-0.00697,-0.00303
-0.79635,0.41893,0.43619,0.00375,-0.00615,0.0037
-0.79631,0.41909,0.43611,0.00232,0.00325,0.00094
-0.79627,0.41931,0.43597,0.00339,0.0058,-0.00138
-0.79622,0.41954,0.43585,-0.0015,0.00351,-0.00254
-0.79612,0.4198,0.43578,-0.00155,-0.00112,-0.00476
-0.79598,0.42004,0.43579,-0.00277,-0.00249,-0.00339
-0.79586,0.42023,0.43583,-0.00078,0.00412,-0.00247
-0.79578,0.42037,0.43584,0.00263,-0.00309,-0.00253
-0.79571,0.42049,0.43585,0.00398,-0.00277,-0.00264
-0.79566,0.42057,0.43587,0.00095,0.00718,-0.00378
-0.79562,0.42062,0.4359,0.00125,0.00637,-0.00384
-0.79558,0.42065,0.43594,0.00249,0.00687,-0.00486
-0.79555,0.42063,0.43601,0.00542,0.00341,-0.00444
-0.79549,0.42057,0.43618,0.00542,-0.00021,-0.00325
-0.79542,0.42049,0.43639,0.00381,0.00048,-0.00022
-0.79537,0.42042,0.43655,0.00232,-0.00178,0.00145
-0.79533,0.42038,0.43666,0.00072,-0.0038,-0.00154
-0.79529,0.42035,0.43676,0.00188,-0.00607,1e-05
-0.79529,0.42033,0.43678,0.00552,-0.00749,0.0022
-0.79532,0.42034,0.43671,0.00357,-0.0066,0.00177
-0.79537,0.42033,0.43663,0.00416,-0.00239,-0.00077
-0.79545,0.42031,0.4365,0.00407,-0.00285,-0.003
-0.79553,0.42029,0.43639,0.00564,0.00137,-0.00171
-0.79559,0.42031,0.43625,0.00341,0.00259,0.00011
-0.79563,0.42039,0.43611,0.00324,0.00236,0.00013
-0.79564,0.42044,0.43604,0.00291,0.00107,-0.00191
-0.79567,0.42045,0.43597,0.00293,0.00211,-8e-05
-0.79572,0.42046,0.43586,0.00097,0.00013,0.00034
-0.79577,0.42049,0.43575,-0.00211,0.00104,-0.00556
-0.79579,0.42049,0.43571,-0.0029,-0.00296,-0.00528
-0.79579,0.42047,0.43573,-0.00257,0.00157,-0.00522
-0.7958,0.42042,0.43576,0.00111,0.00255,-0.00179
-0.79583,0.42033,0.43578,0.00076,0.00219,-0.0051
-0.79588,0.42021,0.43581,0.00302,0.00374,-0.00301
-0.79597,0.42001,0.43584,0.00858,0.00129,0.00048
-0.79605,0.41977,0.43593,0.00522,0.00211,-0.00326
-0.79608,0.41958,0.43605,0.00148,0.00052,-0.00044
-0.79614,0.41945,0.43606,0.00729,-0.00205,0.00148
-0.79621,0.41925,0.43613,0.00942,-0.00421,0.00122
-0.79631,0.41909,0.4361,0.00206,-0.00319,0.00434
-0.79641,0.41902,0.43598,0.00426,-0.00331,-0.00069
-0.79654,0.41897,0.4358,-0.00017,-0.0045,0.00025
-0.79663,0.419,0.43559,-0.0001,-0.00454,-0.00113
-0.7967,0.41908,0.4354,0.00408,-0.0067,-0.00199
-0.79679,0.41916,0.43516,0.0058,-0.00627,0.0003
-0.79691,0.41917,0.43493,0.00324,0.00022,-0.00171
-0.79701,0.41916,0.43476,0.00115,0.0006,-0.00465
-0.79707,0.41922,0.43459,-0.00139,0.00169,-0.00368
-0.79712,0.4193,0.43441,0.00063,0.00405,-0.00683
-0.79717,0.41936,0.43427,0.0021,0.00374,-0.00584
-0.79719,0.41938,0.4342,0.00206,0.00475,-0.00385
-0.79717,0.41937,0.43425,0.00055,0.00348,-0.00179
-0.79712,0.41932,0.4344,0.00522,0.00039,-0.00224
-0.79708,0.41923,0.43455,0.0023,0.00158,-0.00046
-0.79708,0.41912,0.43466,0.00098,0.00266,3e-05
-0.79711,0.41901,0.43473,-7e-05,4e-05,-8e-05
-0.79713,0.41891,0.43478,0.00082,0.00108,-4e-05
-0.79714,0.41884,0.43483,0.00322,-0.00254,-0.00189
-0.79714,0.41881,0.43485,0.00347,-0.00068,0.0001
-0.79721,0.41871,0.43483,0.00404,-0.00048,0.00037
-0.79727,0.41863,0.43479,0.00133,-0.00168,-0.00118
-0.79734,0.41856,0.43472,0.00331,-0.0024,-0.00028
-0.79738,0.41854,0.43468,0.0026,-0.00083,-0.00052
-0.79741,0.41856,0.43461,0.00415,-0.00207,-0.00033
-0.79746,0.41856,0.43451,0.00397,-0.00061,-0.00272
-0.79749,0.41857,0.43445,0.00467,-0.00191,-0.00193
-0.79751,0.41855,0.43443,0.00306,-0.00227,-0.00323
-0.79755,0.41853,0.43437,0.00473,-0.00166,0.00032
-0.79758,0.41851,0.43434,0.0031,-0.00287,-0.00249
-0.79759,0.4185,0.43432,0.00192,0.00151,-0.00164
-0.79763,0.41849,0.43426,0.00466,-0.00164,-0.00087
-0.79764,0.41846,0.43428,0.00266,-0.00183,-0.0021
-0.79764,0.41849,0.43425,-0.00264,0.00171,-0.00104
-0.79765,0.41854,0.43417,0.00175,0.00318,-0.00445
-0.79767,0.41855,0.43414,0.00093,0.00341,-0.00231
-0.79766,0.41856,0.43414,0.00021,-0.00056,-0.00302
-0.79766,0.41856,0.43415,0.00434,0.00028,-0.0029
-0.79767,0.41849,0.43419,0.00494,-0.00212,-0.00196
-0.79771,0.41839,0.43421,0.00566,-0.0035,7e-05
-0.79778,0.41828,0.43419,0.00353,-0.0001,-6e-05
-0.79785,0.41818,0.43415,0.00262,0.0003,-0.00064
-0.79794,0.41811,0.43405,0.00303,0.00096,-0.00194
-0.79801,0.41804,0.43399,0.00488,0.00353,-0.00197
-0.79806,0.41799,0.43395,0.00448,0.00031,0.00123
-0.79811,0.41795,0.43391,0.00501,-0.00074,0.00083
-0.79817,0.41787,0.43387,0.00369,-0.00306,-0.00024
-0.79823,0.41779,0.43383,0.00377,-0.00168,-0.00082
-0.79832,0.41771,0.43374,0.00018,-0.00372,-0.00171
-0.79841,0.41767,0.43361,0.00204,-0.00348,-0.00122
-0.79849,0.41764,0.4335,-0.00046,-0.00091,-0.00113
-0.79855,0.41762,0.4334,0.00273,2e-05,-0.00095
-0.79862,0.41757,0.43332,0.0032,-0.00096,-0.00288
-0.79869,0.41754,0.43323,0.00315,0.00126,-0.00173
-0.79876,0.41749,0.43314,0.00242,0.00101,-0.00308
-0.79883,0.41745,0.43305,0.00066,0.00249,-0.00245
-0.79887,0.41741,0.43301,0.0025,0.00126,-0.00459
-0.7989,0.41739,0.43299,0.00488,-0.00059,-0.00176
-0.7989,0.41734,0.43302,0.00476,0.00423,0.00268
-0.79897,0.41726,0.43298,0.00183,0.00214,-0.00157
-0.79906,0.41717,0.4329,0.00287,-0.00311,-1e-05
-0.7991,0.4171,0.43289,0.00525,-0.00306,-0.0025
-0.79913,0.41706,0.43288,0.00106,-0.00074,-0.00087
-0.79918,0.41701,0.43283,0.00279,-0.00086,-0.00104
-0.79921,0.41696,0.43283,0.00313,0.00208,0.00255
-0.79925,0.41691,0.4328,0.00025,0.00107,-0.00064
-0.79928,0.41686,0.4328,0.00275,-0.00316,-0.00278
-0.79929,0.41685,0.43279,0.00357,-0.00399,-0.00156
-0.79928,0.41686,0.43279,0.00495,0.00268,-0.00223
-0.7993,0.41686,0.43275,-0.00397,0.00213,0.00219
-0.79935,0.41682,0.4327,-0.00181,0.00089,-0.00153
-0.79939,0.41679,0.43265,0.00262,-0.00104,0.00166
-0.79945,0.41676,0.43258,0.00492,-0.00064,-0.00091
-0.79951,0.4167,0.43252,0.00456,-0.00128,-0.00172
-0.79957,0.41663,0.43248,0.00223,-0.00325,0.00044
-0.79961,0.41658,0.43245,0.0017,0.00084,-4e-05
-0.79964,0.41656,0.43241,0.00414,0.00211,-0.0022
-0.79968,0.41654,0.43236,0.00424,0.00064,-0.00106
-0.7997,0.41652,0.43235,0.00565,0.00131,-0.00434
-0.7997,0.41652,0.43234,0.00365,-0.00025,-0.00247
-0.79969,0.41652,0.43236,0.00509,-0.00014,-0.00235
-0.79967,0.41653,0.43238,0.00222,0.00075,-0.00091
-0.79967,0.4165,0.43241,0.00339,0.00063,-0.00134
-0.79967,0.41649,0.43242,0.00088,-0.00064,-0.00083
-0.79967,0.41648,0.43243,0.00055,-0.00083,-0.0009
-0.79968,0.41647,0.43242,0.00166,-0.00264,-0.00089
-0.79968,0.41649,0.43242,0.00233,-0.00091,-0.00067
-0.79967,0.41648,0.43243,0.00264,-0.00138,-0.0033
-0.79966,0.41649,0.43243,0.00287,-0.00092,0.00086
-0.79967,0.41648,0.43243,0.00498,-0.00113,-0.00108
-0.79969,0.41648,0.4324,0.00419,0.00229,0.00053
-0.79971,0.41649,0.43236,0.00379,0.00072,-0.00104
-0.79971,0.41651,0.43234,0.00131,0.00086,-0.00077
-0.79971,0.41652,0.43233,0.0055,-0.00032,-0.00058
-0.7997,0.41651,0.43235,0.00516,0.00052,-0.00024
-0.7997,0.4165,0.43237,0.00273,-0.00078,0.00171
-0.7997,0.41648,0.43238,0.00232,0.00144,-0.00219
-0.79971,0.41649,0.43236,0.00341,-0.00158,-0.00076
-0.79972,0.41649,0.43235,0.0031,-0.00139,-0.00275
-0.79972,0.41649,0.43234,0.00222,-0.00044,-0.00281
-0.79973,0.41646,0.43235,0.00273,0.00071,-0.00336
-0.79973,0.41645,0.43236,0.00336,-8e-05,6e-05
-0.79969,0.41649,0.4324,0.00291,-0.00131,-0.00198
-0.79965,0.4165,0.43246,0.00018,6e-05,-0.00094
-0.79962,0.4165,0.43252,0.00363,0.001,-0.00266
-0.7996,0.41649,0.43257,0.00423,-0.00077,-0.00081
-0.79957,0.41649,0.43262,0.00402,-0.00049,0.0005
-0.79956,0.4165,0.43262,0.00185,-0.00011,0.00385
-0.79958,0.4165,0.4326,0.00403,0.00121,-0.0012
-0.79959,0.41649,0.43258,0.00145,-0.00043,-0.00091
-0.79961,0.41647,0.43256,0.00304,-0.00035,-0.00034
-0.79962,0.41645,0.43257,0.0034,-7e-05,-0.00103
-0.79962,0.41644,0.43257,0.00046,-0.00046,-0.00013
-0.79963,0.41644,0.43257,0.003,-0.00127,-0.00186
-0.79961,0.41645,0.43258,0.00287,7e-05,-0.00169
-0.7996,0.41645,0.43261,0.00213,0.00013,-0.00213
-0.79958,0.41641,0.43268,0.00525,-0.00347,-0.00057
-0.79959,0.41638,0.43268,0.00302,0.00203,0.00027
-0.79962,0.4164,0.43261,-0.00525,0.00253,-0.00143
-0.79967,0.41641,0.43251,-0.00219,0.00343,-0.00235
-0.7997,0.41644,0.43243,0.00348,-0.00275,-0.00663
-0.7997,0.41646,0.43241,0.00514,-0.00248,-0.0031
-0.79973,0.41641,0.4324,0.00255,-0.00139,-0.00197
-0.79975,0.41634,0.43242,0.00286,-0.00284,-0.0035
-0.79977,0.41627,0.43247,0.00315,-0.00469,0.00151
-0.79978,0.41624,0.43248,0.00382,-0.00054,-0.00061
-0.7998,0.41624,0.43244,0.00277,0.00134,-0.00109
-0.79983,0.41627,0.43235,0.00364,0.00239,-0.00293
-0.79983,0.4163,0.43232,0.00486,0.00048,-0.0014
-0.7998,0.41633,0.43235,0.00447,9e-05,-0.00099
-0.79974,0.41634,0.43244,0.00414,-0.00202,8e-05
-0.79972,0.41635,0.43248,0.00252,-0.0011,-0.00056
-0.79972,0.41636,0.43247,0.00112,-0.00065,-0.00068
-0.79972,0.41639,0.43244,0.00075,-0.00065,-0.00077
-0.79973,0.41642,0.4324,0.00411,-0.00232,-1e-05
-0.79975,0.41642,0.43236,0.00403,-0.0006,-0.00246
-0.79974,0.41642,0.43237,0.00114,-0.00098,-0.00391
-0.79973,0.41642,0.43239,0.00019,0.00135,-0.00275
-0.7997,0.41643,0.43244,0.00238,0.00145,-0.00349
-0.79966,0.41644,0.4325,0.00273,-0.00013,-0.00144
-0.79964,0.41644,0.43254,0.00584,0.00179,0.00138
-0.79965,0.41643,0.43253,0.00395,0.00085,0.00116
-0.79965,0.41644,0.43252,0.00428,0.00172,0.00168
-0.79964,0.41646,0.43252,0.00286,0.00038,5e-05
-0.79963,0.41647,0.43254,0.00313,-0.00335,-0.00174
-0.79961,0.41646,0.43257,0.00347,-0.00051,0.00084
-0.7996,0.41647,0.43259,0.0019,-0.00073,-0.00242
-0.79959,0.41647,0.43261,0.00235,-0.00244,-0.00065
-0.79958,0.41649,0.43261,0.00194,0.00049,-0.00122
-0.79958,0.41651,0.4326,0.00345,0.00027,-0.0014
-0.79957,0.41653,0.43258,0.00361,0.0003,-0.00259
-0.79956,0.41656,0.43258,0.00221,-0.00147,-0.00146
-0.79951,0.4166,0.43263,0.00159,-0.00053,-0.00159
-0.79946,0.41664,0.43268,0.00379,-0.00047,-0.00168
-0.79941,0.41671,0.43273,0.00313,-0.00263,-0.00281
-0.79935,0.41676,0.43278,0.0018,-0.00061,-0.00158
-0.79929,0.41683,0.43281,-0.00201,-0.00068,-0.00052
-0.79921,0.41692,0.43288,0.0028,0.0003,-0.00029
-0.79915,0.41699,0.43293,0.00386,-0.00137,-0.00149
-0.79907,0.41708,0.43298,0.00336,-2e-05,-0.00084
-0.79901,0.41715,0.43303,0.00262,-0.00075,-0.00231
-0.79893,0.41723,0.4331,0.00262,0.00084,-0.00103
-0.79884,0.41731,0.43318,0.0033,0.00093,-0.00419
-0.79876,0.41736,0.43328,0.00347,-0.00531,0.00033
-0.79866,0.41743,0.43339,0.00386,0.00153,0.00221
-0.79857,0.41752,0.43349,0.00038,0.00335,-0.00182
-0.79851,0.41761,0.43351,0.0002,0.00453,-0.00205
-0.79849,0.41769,0.43346,0.00361,-0.00287,-0.00255
-0.79847,0.41776,0.43344,0.00348,-0.00142,-0.00242
-0.79843,0.41782,0.43346,0.00315,-0.00339,-0.00169
-0.79839,0.41784,0.43351,0.00378,-0.00341,-0.00224
-0.79834,0.41787,0.43356,0.00289,-0.00455,0.00101
-0.7983,0.41792,0.43358,0.00341,6e-05,-0.00193
-0.79828,0.41799,0.43356,0.00084,0.00135,-0.00317
-0.79823,0.41807,0.43358,0.00335,0.00288,-0.0024
-0.79816,0.41815,0.43362,0.00545,-0.0,-0.00346
-0.79806,0.41824,0.43372,0.00593,-0.00246,-0.00035
-0.79794,0.41832,0.43386,0.00613,0.00067,-0.00239
-0.79783,0.4184,0.43398,0.00212,0.00074,-0.0014
-0.79775,0.41847,0.43407,0.00127,-0.00024,-0.00093
-0.79769,0.41854,0.43411,0.00027,-0.00193,-0.00133
-0.79762,0.41863,0.43416,0.00153,-0.0015,-0.00084
-0.79755,0.41871,0.4342,0.0006,-0.00158,-0.0004
-0.79748,0.41879,0.43426,0.00077,-0.00044,-0.00165
-0.7974,0.41885,0.43435,0.0011,0.00038,-0.00236
-0.79732,0.41894,0.43441,0.00075,-0.0005,-0.00333
-0.79724,0.41901,0.43448,0.00109,0.00053,-0.00172
-0.79715,0.41909,0.43457,0.0047,2e-05,-0.00118
-0.79704,0.41919,0.43468,0.00395,-0.00016,-0.00069
-0.79693,0.41929,0.43478,0.00342,0.00062,-0.00106
-0.79684,0.41937,0.43486,0.00273,-6e-05,-0.00113
-0.79675,0.41946,0.43495,0.00253,-0.00046,-0.00044
-0.79665,0.41954,0.43506,0.00215,0.00038,-0.00013
-0.79656,0.41962,0.43513,0.00305,-0.00201,-0.00134
-0.79649,0.41969,0.4352,0.00146,-0.00277,-0.00325
-0.79642,0.41976,0.43526,0.00228,-0.00125,0.00018
-0.79634,0.41986,0.43531,0.00309,-0.00099,-0.00052
-0.79628,0.41995,0.43534,0.00282,-0.00054,-0.00111
-0.79623,0.42002,0.43535,0.00038,-0.00013,-0.00507
-0.79616,0.42009,0.43542,0.00078,0.0017,-0.00338
-0.79605,0.42018,0.43554,0.00256,-0.00273,-0.00087
-0.79592,0.42029,0.43566,0.00371,-0.00126,0.00113
-0.79581,0.42041,0.43575,0.00532,-0.00038,-0.00118
-0.79571,0.4205,0.43584,0.00349,-0.00162,-0.00075
-0.79561,0.42058,0.43596,0.00208,0.00034,-0.00174
-0.79552,0.42063,0.43606,0.0047,-0.00491,0.00154
-0.79544,0.4207,0.43615,0.00223,-0.00551,0.00256
-0.79536,0.42083,0.43616,0.00264,0.00536,-0.00402
-0.7953,0.42095,0.43617,-0.00037,0.00142,-0.00155
-0.79523,0.42104,0.4362,0.00059,-0.00035,-0.00278
-0.79516,0.42114,0.43623,0.00134,-0.00386,-0.00195
-0.79511,0.4212,0.43627,0.00441,-0.00432,-0.00223
-0.79512,0.4212,0.43625,0.00442,-0.00432,-0.00222
-0.79516,0.42118,0.4362,0.00399,-0.00254,-0.00133
-0.79519,0.42116,0.43616,0.00236,-0.00269,-0.00219
-0.79523,0.42115,0.43609,0.00373,0.0038,-0.00297
-0.79528,0.42112,0.43604,0.00274,0.00534,-0.00224
-0.79533,0.42105,0.43601,0.0038,0.00414,-0.00353
-0.79538,0.42096,0.43601,0.00496,-0.00277,-0.00406
-0.7954,0.42088,0.43605,0.00487,0.0002,-0.00361
-0.79544,0.42078,0.43608,0.00366,-0.00269,0.00097
-0.79549,0.42068,0.43607,-0.00083,-0.00145,-0.00149
-0.79557,0.4206,0.43601,0.00089,-0.00192,-0.00119
-0.79562,0.42055,0.43597,0.00181,-0.0001,0.00115
-0.79567,0.42049,0.43594,0.0043,-0.00217,-0.00303
-0.79573,0.42042,0.43589,0.00342,-0.00251,-0.00079
-0.79581,0.42037,0.4358,0.00258,-0.00089,-0.00229
-0.79588,0.42033,0.43571,0.00122,0.00142,-0.00245
-0.79593,0.42029,0.43566,-0.00041,0.00334,-0.00254
-0.79597,0.42025,0.43562,0.00582,0.00222,0.00032
-0.796,0.42022,0.4356,0.00424,0.00048,2e-05
-0.79606,0.42017,0.43553,0.00227,-0.00067,5e-05
-0.79615,0.42011,0.43543,0.00245,-0.00031,-0.00144
-0.79623,0.42004,0.43535,0.0008,0.00017,-0.00326
-0.7963,0.41997,0.43529,0.00125,-0.00039,-0.00167
-0.79636,0.41991,0.43524,0.00166,-0.00257,-0.001
-0.79641,0.41985,0.43521,0.0036,-0.00014,-0.00171
-0.79646,0.41979,0.43518,0.00277,-0.0017,-0.00355
-0.79651,0.41969,0.43517,0.00023,-0.00276,0.00155
-0.79656,0.41965,0.43511,-0.00213,-0.00095,-0.00154
-0.79663,0.41965,0.43499,0.00255,0.00366,-0.00516
-0.7967,0.41962,0.43489,0.00162,0.00317,-0.00238
-0.79675,0.41958,0.43484,0.00293,-0.00019,-0.00379
-0.79679,0.41955,0.4348,0.00121,-0.00276,0.00226
-0.79682,0.41951,0.43477,0.00224,-0.00038,0.00098
-0.79689,0.41942,0.43474,0.00265,-0.00099,0.0007
-0.79696,0.41931,0.4347,0.00555,-0.0042,-0.00184
-0.79705,0.41922,0.43463,0.00304,-0.00385,-0.00021
-0.79713,0.41916,0.43454,0.00189,0.00045,-0.00151
-0.79722,0.41913,0.43442,0.00229,0.00215,-0.00314
-0.79729,0.41911,0.43431,0.00429,0.0022,-0.00142
-0.79733,0.4191,0.43424,0.00306,-0.00198,-0.00226
-0.79735,0.41907,0.43423,0.00345,-0.00063,0.00111
-0.79737,0.41904,0.43421,0.00137,0.00126,0.00174
-0.79741,0.41899,0.43419,-0.00255,0.00222,-2e-05
-0.79745,0.41897,0.43414,0.00186,-0.0004,-0.00447
-0.79747,0.41895,0.43412,0.00371,-0.00327,-0.00178
-0.79749,0.41891,0.43412,0.00291,-0.00071,-0.00084
-0.79754,0.41885,0.4341,0.00327,0.00145,-0.0007
-0.79759,0.41879,0.43406,0.0029,-0.0013,-0.00057
-0.79763,0.41874,0.43402,0.0029,0.00103,-0.00247
-0.79766,0.4187,0.43401,0.00042,0.00026,0.00076
-0.79768,0.41869,0.43399,0.00216,0.00017,0.00151
-0.7977,0.41869,0.43396,0.00313,0.00155,0.00084
-0.7977,0.41868,0.43396,0.0027,0.00122,-0.00115
-0.7977,0.41866,0.43399,0.00252,0.00078,-0.00134
-0.79772,0.41861,0.434,0.00533,-0.00053,-0.00072
-0.79775,0.41854,0.434,0.00236,-0.00108,0.00169
-0.79778,0.4185,0.43401,0.00209,0.00069,-0.00096
-0.79778,0.41845,0.43405,0.00389,-0.00101,-0.0007
-0.79782,0.41836,0.43406,0.00427,-0.00578,0.00267
-0.79786,0.4183,0.43404,0.00115,0.00313,-0.00228
-0.79791,0.41827,0.43396,0.0017,0.00215,-0.00244
-0.79798,0.41825,0.43386,-0.00098,0.00196,-0.00076
-0.79804,0.41825,0.43376,0.00391,-0.00212,-0.00073
-0.79806,0.41823,0.43373,0.00424,-0.00198,0.00093
-0.79809,0.41819,0.43373,0.0036,-0.00231,-0.00152
-0.79813,0.41813,0.43371,0.00428,-0.00383,-0.00076
-0.79819,0.41808,0.43364,0.00371,-0.00522,0.00038
-0.79825,0.41802,0.43358,0.00391,0.00089,-0.00251
-0.79832,0.41797,0.43351,-0.0006,0.00422,-0.00228
-0.79836,0.41795,0.43345,0.00289,0.00192,-0.00341
-0.79838,0.41791,0.43346,0.00404,-0.00411,-0.00316
-0.79838,0.41789,0.43348,0.00138,-0.00082,0.00155
-0.79837,0.41797,0.43341,-0.00398,-0.00063,0.00102
-0.79837,0.41813,0.43326,-0.00286,0.00247,-0.00221
-0.79837,0.41827,0.43312,-0.00253,0.00476,-0.00552
-0.79837,0.41832,0.43307,0.0049,0.00253,-0.00435
-0.79839,0.41826,0.4331,0.00653,0.00262,-0.00355
-0.79844,0.41807,0.43319,0.00477,0.00413,0.00134
-0.79856,0.41779,0.43325,0.00591,0.00159,-0.00037
-0.7987,0.41752,0.43324,0.00164,-0.00141,-0.00205
-0.79881,0.4173,0.43325,-0.0013,-1e-05,-0.00369
-0.79887,0.41713,0.4333,4e-05,-0.00226,-0.0023
-0.7989,0.41703,0.43335,0.00472,-0.00751,-0.00114
-0.79892,0.41694,0.43339,0.00623,-0.00592,0.00044
-0.79896,0.41691,0.43334,0.00499,-0.0081,0.00245
-0.79899,0.41693,0.43327,0.00291,-0.00581,0.00193
-0.79899,0.41701,0.4332,0.0013,-0.00562,0.00214
-0.79896,0.41713,0.43313,0.00442,-0.00633,0.00066
-0.79898,0.41721,0.43302,0.0032,-0.00228,-0.00056
-0.79901,0.41732,0.43285,0.00026,0.00157,-0.00077
-0.79904,0.41746,0.43267,0.00234,0.00135,-1e-05
-0.79904,0.4176,0.43254,0.00137,0.00386,-0.0036
-0.799,0.41774,0.43247,0.00376,0.00449,-0.00408
-0.79896,0.41779,0.43249,0.00394,0.00456,-0.0038
-0.79894,0.41778,0.43255,-0.00046,0.00614,-0.00048
-0.79893,0.41774,0.4326,0.00134,0.0068,-0.00208
-0.79896,0.41763,0.43266,0.00013,0.00306,-0.00498
-0.79898,0.4175,0.43273,0.00293,-0.00327,-0.00193
-0.799,0.41739,0.43281,0.00103,-0.00152,0.00082
-0.79904,0.41728,0.43284,0.0005,-0.00253,-0.00198
-0.79906,0.41717,0.43292,0.00269,-0.00333,-0.001
-0.79909,0.41707,0.43296,0.00319,-0.00375,0.00081
-0.79914,0.41701,0.43293,0.00524,-0.00309,0.00364
-0.7992,0.41698,0.43284,0.0029,0.00081,0.00208
-0.79924,0.41697,0.43278,0.00416,0.00252,0.00089
-0.7993,0.41694,0.43269,0.00598,0.00126,0.00041
-0.79937,0.41686,0.43264,0.00702,0.00042,-0.00036
-0.79944,0.41676,0.43261,0.00553,0.00068,0.00014
-0.79949,0.41667,0.43259,0.00518,0.00057,0.00129
-0.79957,0.41658,0.43254,0.00119,-0.00038,-0.00183
-0.79965,0.41652,0.43245,0.00018,-0.00299,-0.00146
-0.79968,0.4165,0.43241,0.0001,-0.00192,-0.00113
-0.79969,0.41652,0.43237,0.00144,-0.00072,-0.00215
-0.79971,0.41652,0.43233,0.00328,-0.00339,-0.00109
-0.79972,0.41654,0.4323,0.00192,-0.00311,-0.00068
-0.79973,0.41659,0.43224,0.0018,-0.00138,0.00057
-0.79971,0.41666,0.4322,0.00129,0.00205,-0.00087
-0.79967,0.41676,0.43217,0.00182,0.00281,-0.00198
-0.79964,0.41686,0.43215,0.00534,0.00157,-0.00214
-0.79959,0.41694,0.43214,0.00408,0.00264,-0.00158
-0.79957,0.41699,0.43215,0.00326,0.00464,-0.00083
-0.79954,0.41699,0.43219,0.00445,0.00272,-0.00074
-0.79952,0.41697,0.43225,0.00302,0.00203,-0.00034
-0.79951,0.41694,0.43229,0.00262,0.00041,7e-05
-0.79952,0.41691,0.43231,0.00163,-0.00052,0.00075
-0.79954,0.41687,0.4323,0.0002,-0.00069,-0.00313
-0.79957,0.41684,0.43229,0.00269,-0.00149,-0.00297
-0.79959,0.41679,0.43229,0.00453,-0.00133,-0.0024
-0.79962,0.41674,0.43229,0.00302,-0.0013,-0.0021
-0.79961,0.4167,0.43234,0.00185,0.00045,-0.00123
-0.79961,0.41667,0.43238,0.00569,-0.00243,-0.00225
-0.7996,0.41663,0.43244,0.00538,-0.00072,-0.00038
-0.79958,0.41663,0.43247,0.00327,-0.00142,0.00083
-0.79956,0.41665,0.43249,0.00165,-0.0003,0.00153
-0.79953,0.41672,0.43247,0.00016,-0.00077,-0.00016
-0.79951,0.4168,0.43245,0.0046,-0.00293,-0.00276
-0.7995,0.41684,0.43243,0.00386,0.00049,-0.00294
-0.79951,0.41682,0.43242,0.00442,0.00139,-0.00122
-0.79952,0.41677,0.43244,0.00572,0.00025,-0.001
-0.79956,0.41669,0.43245,0.00336,-2e-05,-0.00212
-0.79961,0.41661,0.43244,0.00167,0.0004,-0.00043
-0.79964,0.41656,0.43243,0.0017,0.00045,-0.00042
-0.79964,0.41656,0.43243,0.0009,0.00089,-0.00024
-0.79959,0.41663,0.43246,0.00432,-0.00622,-0.00039
-0.79951,0.41671,0.43253,0.00303,-0.00448,0.00297
-0.79944,0.41683,0.43255,0.00366,0.00012,0.00156
-0.79943,0.41693,0.43248,-0.00404,-3e-05,2e-05
-0.79945,0.41701,0.43236,-0.00298,0.00304,-0.00125
-0.79944,0.41712,0.43226,0.00064,-0.00197,-0.00639
-0.79938,0.41724,0.43225,0.00254,0.00167,-0.00391
-0.7993,0.41734,0.43231,0.00153,-0.00014,-0.00263
-0.79919,0.41742,0.43243,0.00096,-0.00121,-0.00424
-0.79908,0.41748,0.43258,0.00265,-0.00052,0.00115
-0.79897,0.41752,0.43273,0.00292,0.00086,-0.00086
-0.79888,0.41755,0.43288,0.00393,0.00184,-0.00197
-0.7988,0.41756,0.43302,0.00426,0.00129,-0.00054
-0.7987,0.41758,0.43317,0.00732,0.00131,0.0007
-0.79859,0.41762,0.43335,0.00556,-0.00215,0.00074
-0.79848,0.41765,0.43352,0.00633,-0.00033,0.00208
-0.7984,0.41767,0.43364,0.00446,-0.00161,0.00284
-0.79836,0.41771,0.4337,0.00084,-0.00232,0.00194
-0.79831,0.41779,0.43371,-0.00144,-0.00433,-0.00172
-0.79824,0.41792,0.4337,0.00181,-0.00169,0.0001
-0.79816,0.41806,0.43372,0.00225,-0.00233,-0.00126
-0.79809,0.41817,0.43375,0.00159,-0.00316,-0.00452
-0.79801,0.41827,0.43379,7e-05,0.00071,-0.00199
-0.79794,0.41838,0.43382,0.00142,0.00057,-0.00172
-0.79785,0.4185,0.43387,0.00211,0.0013,-0.00244
-0.79774,0.41859,0.43398,0.00375,0.00081,-0.00225
-0.79762,0.41869,0.43411,0.00378,0.00163,0.00048
-0.79748,0.4188,0.43425,0.00503,-0.00097,-0.00087
-0.79735,0.41892,0.43437,0.00205,0.00018,0.00308
-0.79724,0.41904,0.43446,0.0032,0.00133,0.00116
-0.79714,0.41915,0.43454,0.00115,-0.0006,-0.00091
-0.79703,0.41926,0.43463,0.00031,-0.00116,-0.00111
-0.79692,0.41937,0.43472,0.00202,0.0003,-0.00097
-0.79683,0.41946,0.4348,0.0047,0.00043,-0.00079
-0.79677,0.4195,0.43487,0.00413,0.00125,-0.00221
-0.79673,0.41951,0.43494,0.00427,0.00113,-0.00148
-0.79668,0.4195,0.43506,0.00264,0.00209,-0.00232
-0.79658,0.41953,0.43521,0.00265,0.00093,-0.00042
-0.79648,0.41958,0.43534,0.00247,-0.00218,-0.00017
-0.7964,0.41965,0.43542,0.0039,-0.00115,-0.00183
-0.79632,0.41973,0.4355,0.00268,-0.00116,-0.00111
-0.79624,0.41981,0.43557,0.00409,-0.00358,-0.0011
-0.79616,0.41991,0.43561,0.00292,-0.00278,0.00086
-0.79609,0.42003,0.43561,0.00337,-0.00182,0.00073
-0.79602,0.42014,0.43563,0.00219,-0.00031,-0.00246
-0.79595,0.42027,0.43564,0.00187,0.00146,-0.00171
-0.79591,0.42034,0.43565,0.00517,-0.00324,-0.00191
-0.79586,0.42043,0.43566,0.00197,0.00148,0.0003
-0.79579,0.42057,0.43564,0.00269,0.00808,-0.00406
-0.79572,0.42069,0.43565,0.00034,0.00413,-0.00311
-0.79565,0.42079,0.43569,-0.00074,-0.00063,-0.00285
-0.79555,0.4209,0.43577,0.00462,-0.00372,-0.00247
-0.79545,0.42094,0.43591,0.00324,-0.00215,-0.00142
-0.79541,0.42093,0.43598,0.00413,-0.00376,-0.00101
-0.79542,0.42091,0.43599,0.0032,-0.0036,-0.00011
-0.79542,0.42092,0.43598,0.00286,-0.00188,-0.00091
-0.79546,0.42093,0.4359,-0.00073,0.0018,0.00053
-0.79548,0.42096,0.43585,0.00704,0.00083,-0.00357
-0.79547,0.421,0.43581,0.00569,0.00382,-0.00277
-0.79546,0.42101,0.43583,0.00809,-5e-05,-0.0017
-0.79543,0.42096,0.43593,0.00624,0.0001,-0.00218
-0.79536,0.42094,0.43607,0.00149,0.00106,-0.00043
-0.79532,0.42094,0.43614,-0.00042,-0.00259,0.00108
-0.79533,0.42094,0.43613,0.00022,-0.00218,-0.00122
-0.79534,0.42091,0.43613,0.00274,-0.00307,-0.00104
-0.79539,0.42086,0.43609,0.0045,-0.00279,0.00112
-0.79548,0.42074,0.43605,0.00499,-0.00233,-0.00069
-0.79559,0.42062,0.43596,0.0024,-0.00346,-8e-05
-0.79569,0.42053,0.43586,0.00017,0.00149,-0.00286
-0.79574,0.42045,0.43585,0.00415,0.00183,-0.00169
-0.79577,0.42034,0.4359,0.00221,0.00063,-0.00096
-0.79584,0.4203,0.43582,0.00587,-0.00282,-0.00473
-0.79589,0.42028,0.43574,0.00729,-0.00579,-0.00572
-0.7959,0.4203,0.43571,0.00116,-0.00085,-0.00163
-0.79589,0.42031,0.43571,-0.00289,-0.00101,0.00063
-0.79588,0.42033,0.43572,-0.0019,-0.00126,-0.00035
-0.79585,0.42034,0.43575,0.00079,-0.00269,-0.0047
-0.79585,0.42033,0.43578,-0.00088,-0.00097,0.00123
-0.7959,0.42029,0.43571,0.00121,-0.00047,-0.00247
-0.79595,0.42024,0.43567,0.00201,0.00156,-0.00284
-0.79602,0.42016,0.4356,0.00464,0.00577,-0.00221
-0.79607,0.42006,0.43562,0.0042,0.00236,-0.00015
-0.79611,0.41995,0.43566,0.00538,-0.00017,-0.00124
-0.79616,0.41983,0.43568,0.00583,0.0023,0.00018
-0.79625,0.41965,0.43568,0.00733,-0.00458,0.002
-0.79637,0.41945,0.43566,-0.00034,-0.00423,0.0052
-0.79649,0.41928,0.4356,0.00413,-0.00358,-0.00268
-0.79659,0.41921,0.43549,-0.00111,0.0004,-0.00059
-0.7967,0.41915,0.43534,-0.00026,-0.00403,-0.00133
-0.79682,0.41914,0.43513,0.00452,-0.00545,-0.00084
-0.7969,0.41919,0.43494,0.00219,-0.00366,-0.00361
-0.79698,0.41919,0.43479,0.00191,-0.00174,-0.00242
-0.79709,0.41917,0.43461,0.00264,0.00114,-0.00315
-0.79716,0.41918,0.43448,0.00039,0.00144,-0.00183
-0.79717,0.41923,0.4344,-0.00015,0.00431,-0.00322
-0.79716,0.41927,0.43439,0.00091,0.00371,-0.00685
-0.79716,0.41927,0.43438,0.00371,0.00548,-0.00125
-0.79717,0.41924,0.4344,0.0027,0.00441,-0.00069
-0.79717,0.41917,0.43447,0.0062,0.00016,-0.00272
-0.79713,0.41909,0.43461,0.00433,0.00043,0.0002
-0.79712,0.41897,0.43475,0.00287,0.00054,0.00258
-0.79713,0.41886,0.43483,3e-05,-0.00053,0.00067
-0.79716,0.41877,0.43486,0.00413,-0.00092,1e-05
-0.7972,0.41869,0.43486,0.00308,-0.00098,0.00086
-0.79727,0.41862,0.43481,0.00488,-0.00461,-0.00081
-0.79734,0.41854,0.43476,0.00529,0.00039,0.00077
-0.79743,0.41845,0.43468,0.00457,0.00033,0.00113
-0.79752,0.4184,0.43457,0.00243,-0.00013,-0.00048
-0.79759,0.41836,0.43448,0.00119,0.00166,-0.00204
-0.79763,0.41833,0.43441,0.00392,0.0015,-0.00157
-0.7977,0.4183,0.43433,0.00345,-0.00016,-0.00259
-0.79778,0.41826,0.43423,0.00146,0.002,-0.00256
-0.79786,0.41822,0.43411,0.00228,0.00178,-0.00351
-0.79796,0.41814,0.43399,0.00443,0.00062,-0.00255
-0.79801,0.41809,0.43396,0.00098,0.00126,-0.0015
-0.79803,0.41805,0.43396,0.00155,0.00207,-0.00217
-0.79808,0.41801,0.43391,0.00136,-0.00057,9e-05
-0.7981,0.41799,0.43388,0.00263,0.00254,-0.00116
-0.79811,0.41796,0.4339,0.00428,-0.00112,0.00198
-0.79814,0.4179,0.43391,0.00309,0.00151,0.00152
-0.79816,0.41789,0.43388,0.00299,0.00266,-8e-05
-0.7982,0.4179,0.43378,0.00134,0.00494,-0.00135
-0.79826,0.41787,0.4337,0.00227,0.00355,-0.00115
-0.79832,0.41784,0.43362,0.00251,-0.00172,-0.00156
-0.79837,0.41781,0.43356,0.00328,-0.0023,-0.00149
-0.79841,0.41775,0.43355,0.00286,-0.00169,-0.00072
-0.79846,0.41766,0.43354,0.0033,-0.00075,3e-05
-0.79853,0.41757,0.4335,0.00449,-0.0025,-0.00011
-0.79859,0.41751,0.43345,0.00281,0.00043,-0.00076
-0.79866,0.41745,0.43338,0.00171,0.00103,-0.00032
-0.79874,0.4174,0.43329,0.00325,0.00266,-0.0009
-0.79879,0.41735,0.43323,0.00612,0.00119,-0.00107
-0.79883,0.41733,0.43319,0.00462,0.00267,-0.00082
-0.79887,0.41728,0.43315,0.00656,0.00188,-0.00174
-0.79893,0.41724,0.43308,0.00054,0.0038,-0.0012
-0.79898,0.41718,0.43304,0.00177,0.00094,-0.00079
-0.79902,0.41714,0.433,0.00224,-0.00053,-0.00203
-0.79906,0.41711,0.43297,0.00205,-0.00219,-0.00126
-0.79911,0.41706,0.43293,0.00082,-0.00359,-0.00203
-0.79916,0.41703,0.43287,0.00047,-0.00015,-0.00074
-0.79921,0.41698,0.43281,0.00114,0.00254,-0.00173
-0.79927,0.41695,0.43273,0.00236,-0.00026,-0.00019
-0.7993,0.4169,0.43271,0.00336,0.00283,-0.00399
-0.7993,0.41688,0.43274,0.00252,0.00155,-0.00011
-0.79929,0.41687,0.43277,0.00487,0.00383,-0.00073
-0.79929,0.41687,0.43277,0.00503,0.00275,-0.00013
-0.79932,0.41685,0.43274,0.00623,0.00105,0.00071
-0.79933,0.41683,0.43274,0.00454,-0.00016,0.00058
-0.79935,0.41681,0.43272,0.00066,-3e-05,0.00075
-0.79939,0.41678,0.43268,0.0014,0.00081,-0.00182
-0.79941,0.41676,0.43265,0.0037,-0.00024,-0.00264
-0.79945,0.41672,0.43262,0.00297,-0.00225,-0.00302
-0.79948,0.41669,0.43259,0.00289,0.00173,-0.00089
-0.79951,0.41668,0.43255,0.00198,0.00019,-0.00152
-0.79954,0.41667,0.43249,0.0025,0.00056,-0.00047
-0.79955,0.41666,0.43248,0.00353,0.00424,-0.00118
-0.79956,0.41664,0.43249,0.00368,0.00233,-0.00042
-0.79956,0.41662,0.43252,0.00224,0.0015,0.00071
-0.79956,0.4166,0.43254,0.0041,0.00105,0.00157
-0.79956,0.41659,0.43255,0.00393,0.00012,0.00063
-0.79956,0.41659,0.43254,0.00221,0.00055,-0.00015
-0.79958,0.41657,0.43253,0.00369,0.00121,9e-05
-0.79959,0.41656,0.43252,0.00162,-0.00053,-0.00126
-0.7996,0.41655,0.43251,0.00172,0.00112,-0.00255
-0.79959,0.41655,0.43253,0.00247,0.002,-0.00263
-0.79958,0.41654,0.43256,0.00197,0.00133,-0.00158
-0.79957,0.41654,0.43258,0.00359,0.00096,-0.00149
-0.79956,0.41653,0.4326,0.00313,-0.00015,-0.00034
-0.79955,0.41652,0.43262,0.00352,0.00041,-0.00115
-0.79954,0.4165,0.43266,0.00424,-0.0024,0.00065
-0.79953,0.41649,0.4327,0.00462,0.00176,0.00044
-0.79954,0.41649,0.43267,-8e-05,0.00093,-0.00054
-0.79958,0.41649,0.43261,-0.00244,0.00403,0.00219
-0.79962,0.41649,0.43253,0.00372,-0.00232,-0.00229
-0.79967,0.41648,0.43245,0.00384,-0.00205,-0.00146
-0.79973,0.41644,0.43238,0.0047,-0.00183,-0.00336
-0.79979,0.41637,0.43233,0.00531,0.00019,0.00034
-0.79984,0.41631,0.43231,0.00189,0.00027,-0.00309
-0.79987,0.41627,0.43229,0.00185,0.0,-0.00084
-0.79992,0.41624,0.43223,0.00365,0.00211,0.00077
-0.79996,0.41621,0.43218,0.00485,0.00179,-0.00205
-0.80001,0.41615,0.43214,0.00549,0.00142,2e-05
-0.80003,0.41611,0.43215,0.00704,0.00019,-0.0006
-0.80002,0.41608,0.43219,0.00778,-0.00235,-0.00327
-0.80001,0.41602,0.43226,0.00668,-0.00199,0.00147
-0.80002,0.41596,0.4323,0.00371,-0.00103,0.00075
-0.80006,0.41594,0.43224,-0.00021,-0.0009,0.00131
-0.80007,0.41601,0.43217,-0.00125,-0.00295,-0.00258
-0.80005,0.41612,0.4321,0.00348,-0.00107,-0.0027
-0.79999,0.41627,0.43207,0.00273,-0.00042,-0.00242
-0.79992,0.41641,0.43206,0.00105,0.00147,-0.00463
-0.79986,0.41652,0.43207,0.00127,0.00255,-0.00575
-0.79978,0.41659,0.43214,0.00173,0.00335,-0.00378
-0.79969,0.41665,0.43225,-0.00276,0.00542,-0.00436
-0.79958,0.41674,0.43237,-0.00059,0.0074,-0.00349
-0.79946,0.41679,0.43254,0.00358,0.00408,-0.00229
-0.79935,0.41679,0.43274,0.00624,0.00325,-0.00368
-0.79928,0.41672,0.43293,0.00619,0.00141,-0.00074
-0.79925,0.41662,0.43309,0.00185,0.0008,0.00303
-0.79924,0.4165,0.43323,0.00233,0.0011,0.00415
-0.79922,0.41639,0.43337,0.00448,-0.00468,0.00462
-0.79922,0.4163,0.43345,0.00705,-0.0038,0.00372
-0.79927,0.41622,0.43344,0.00856,-0.00113,0.00303
-0.79935,0.41614,0.43337,0.00607,-0.00229,0.0028
-0.79945,0.4161,0.43322,0.00476,-4e-05,0.00064
-0.79956,0.4161,0.43301,0.00636,-0.00135,-0.00046
-0.79966,0.4161,0.43283,0.00375,0.0005,-0.00367
-0.79977,0.41608,0.43265,0.00453,-0.00073,-0.00309
-0.79986,0.41606,0.43249,0.00407,0.0006,-0.00523
-0.79993,0.41606,0.43236,0.00239,-0.00159,-0.00623
-0.79998,0.41606,0.43228,0.00188,-0.00216,-0.00561
-0.79998,0.41607,0.43226,0.00148,-0.00129,-0.00408
-0.79996,0.41609,0.43228,-0.00038,-0.00061,-0.00518
-0.79994,0.41612,0.43229,0.00149,0.00049,-0.00015
-0.79988,0.41622,0.43231,6e-05,-0.00081,0.00052
-0.79981,0.41635,0.43232,0.00279,0.00326,-0.00118
-0.79972,0.41646,0.43237,0.00347,-0.00022,-0.00305
-0.79964,0.41651,0.43247,0.00548,0.00124,0.00155
-0.79958,0.41654,0.43255,0.00423,0.00666,0.00028
-0.79956,0.41657,0.43258,0.00172,0.00694,0.00183
-0.79955,0.41657,0.43258,-0.00204,0.0052,0.00072
-0.79956,0.41656,0.43259,0.00502,-0.0004,0.00052
-0.79955,0.41654,0.43261,0.00276,-0.00141,-0.00274
-0.79956,0.41654,0.43261,0.00349,4e-05,-0.00271
-0.79956,0.4165,0.43264,-0.00116,-0.0024,0.00031
-0.79953,0.41649,0.4327,-0.00136,-0.00055,-0.00251
-0.79949,0.41652,0.43274,-0.00248,0.00035,-0.00253
-0.79947,0.41657,0.43274,0.00369,0.00178,-0.00517
-0.79946,0.41659,0.43274,0.00809,0.0027,-0.00096
-0.79946,0.41658,0.43274,0.00555,0.00422,-0.00441
-0.79946,0.41657,0.43277,0.00627,0.00227,-0.0016
-0.79944,0.41656,0.43282,0.00432,0.0041,-0.00185
-0.79943,0.41652,0.43286,0.00244,0.00311,-3e-05
-0.79944,0.41646,0.4329,0.00315,0.00058,-0.0012
-0.79948,0.41637,0.43292,0.0033,-0.00146,-0.00083
-0.79952,0.41628,0.43292,0.00434,0.00103,0.00125
-0.79957,0.41617,0.43294,0.00254,-0.00038,-0.0034
-0.79958,0.41611,0.43297,0.00143,-0.00395,-0.00314
-0.79954,0.41614,0.43303,0.00035,-0.00538,-0.00216
-0.79947,0.41623,0.43307,-0.00047,-0.00293,-0.00049
-0.79942,0.41634,0.43305,0.00415,-0.00166,0.00041
-0.79941,0.41644,0.43297,0.00475,-0.00319,-0.00107
-0.79938,0.41655,0.43292,0.00451,0.00012,-0.00203
-0.79931,0.4167,0.4329,0.00375,0.00089,-0.00394
-0.79922,0.41688,0.43289,0.00101,0.00313,-0.00331
-0.79911,0.41708,0.43291,0.00329,0.00425,-0.00429
-0.79901,0.41725,0.43294,0.00366,0.00394,-0.00342
-0.7989,0.41734,0.43304,0.00206,0.00206,-0.00412
-0.79878,0.41739,0.43322,0.00377,0.00108,-0.00219
-0.79867,0.41744,0.43338,0.00167,0.00129,0.00025
-0.79855,0.41754,0.43351,0.00232,-0.00102,-0.00031
-0.79844,0.41766,0.4336,-0.00122,0.00045,-0.0015
-0.79831,0.41776,0.43374,0.00118,0.00239,-0.00294
-0.79816,0.41786,0.43391,0.00254,0.00174,-0.00294
-0.79802,0.41796,0.43407,0.00109,-0.0004,0.00029
-0.79791,0.41804,0.4342,0.00221,0.00168,-0.00313
-0.7978,0.41814,0.43432,0.00379,0.00052,-0.00228
-0.79768,0.41824,0.43445,0.00245,0.00103,-0.00072
-0.79757,0.41831,0.43457,0.00069,0.00492,-0.00128
-0.79746,0.41837,0.4347,0.00645,-0.0006,-0.00085
-0.79735,0.4184,0.4349,0.00568,0.00015,-0.00054
-0.79725,0.41841,0.43506,0.00207,0.00014,-0.00081
-0.79716,0.41842,0.43523,0.00191,-0.00521,0.00642
-0.79706,0.4185,0.43533,0.00557,0.00303,-0.00102
-0.79699,0.41858,0.43537,0.00615,0.00278,-0.0023
-0.79696,0.41862,0.4354,0.00323,-0.00215,-0.00179
-0.79692,0.41865,0.43543,0.00222,-0.00091,-0.00281
-0.79687,0.41873,0.43545,0.00335,-0.00368,7e-05
-0.79682,0.4188,0.43547,0.00085,-0.00378,0.00074
-0.79681,0.41883,0.43546,0.00303,-0.00231,-0.00062
-0.79681,0.41887,0.43543,0.00546,-0.00618,0.00011
-0.79681,0.41892,0.43537,0.00602,-0.00551,-7e-05
-0.7968,0.419,0.43531,0.00118,0.00229,-0.00184
-0.79677,0.4191,0.43527,0.00162,0.00419,-0.00156
-0.7967,0.41925,0.43526,0.0015,0.00055,-0.00311
-0.7966,0.41939,0.43531,0.00473,-0.00118,-0.00086
-0.79646,0.41955,0.4354,0.0054,0.00162,-0.00226
-0.79635,0.41968,0.43549,0.00333,-0.00038,-0.00043
-0.79627,0.41978,0.43554,0.00095,-0.00277,-0.00191
-0.7962,0.41988,0.43556,-0.00096,0.00075,-0.00131
-0.79612,0.41998,0.43561,-0.00088,-0.00098,-0.00057
-0.79603,0.42007,0.43569,-0.00033,-0.00113,-0.0024
-0.79594,0.42014,0.43579,0.00529,0.00044,-0.00369
-0.79588,0.42016,0.43587,0.00275,3e-05,-0.00197
-0.79583,0.4202,0.43593,0.00312,0.00091,-0.00177
-0.79577,0.42024,0.436,0.00346,0.00117,-0.0008
-0.7957,0.4203,0.43608,0.00407,0.00069,-0.00093
-0.79563,0.42037,0.43613,0.00446,-0.00019,-0.00046
-0.79559,0.42045,0.43613,0.00305,0.0012,-0.0006
-0.79557,0.42051,0.43611,0.0035,0.00015,0.00016
-0.79558,0.42052,0.43609,0.00442,0.0012,-0.00109
-0.7956,0.42048,0.43608,0.00491,0.00108,-0.00333
-0.79565,0.4204,0.43607,0.00339,0.00079,-0.00314
-0.79572,0.42029,0.43605,0.00189,0.00151,-0.00281
-0.79579,0.42018,0.43603,-0.00028,0.00064,-0.00407
-0.79586,0.42005,0.43603,0.00138,1e-05,-0.00357
-0.79592,0.41991,0.43604,0.00279,0.00097,-0.00353
-0.79599,0.41977,0.43606,0.0027,-0.00042,0.00016
-0.79604,0.41963,0.4361,0.00647,-0.0027,-0.00201
-0.79609,0.4195,0.43613,0.00465,-0.00063,-0.00015
-0.79614,0.41939,0.43616,0.00514,-0.00755,-0.0004
-0.79617,0.41934,0.43613,0.00307,-0.00522,0.00123
-0.79621,0.41935,0.43605,0.00439,0.00106,-0.00054
-0.79629,0.41934,0.43593,0.00191,0.00079,0.00084
-0.79637,0.41934,0.43577,0.00293,-0.00028,0.0006
-0.79648,0.41933,0.4356,0.0066,-0.00294,-0.00246
-0.79658,0.41927,0.43545,0.00336,-0.00185,-0.0031
-0.7967,0.41923,0.43527,0.00209,-0.00352,-0.00084
-0.79678,0.41921,0.43516,-0.00336,0.00075,-0.00316
-0.79683,0.41922,0.43505,-0.00273,0.00497,-0.00221
-0.79686,0.41924,0.43498,-0.00209,0.00581,-0.00319
-0.79688,0.41921,0.43497,0.00554,0.00142,-0.00277
-0.79687,0.41919,0.43501,0.00481,0.00214,-0.00149
-0.79685,0.41917,0.43507,0.00302,0.00041,-0.00062
-0.79683,0.41917,0.4351,0.00264,-0.00082,0.0011
-0.79679,0.41919,0.43515,0.00208,-0.0006,-0.00017
-0.79677,0.41926,0.43511,-9e-05,-0.00054,0.00017
-0.79679,0.41937,0.43499,-0.00224,0.00173,-0.00439
-0.79678,0.41951,0.43486,-0.0033,0.00058,-0.00421
-0.79675,0.41959,0.43483,0.00203,0.00124,-0.00578
-0.79672,0.41959,0.43489,0.00305,0.00199,-0.00397
-0.79671,0.41949,0.435,0.00294,0.0039,-0.001
-0.79674,0.41935,0.43508,0.00277,0.00272,2e-05
-0.79677,0.41923,0.43515,0.00388,0.0025,-0.00056
-0.79675,0.41909,0.43532,0.00326,0.00156,-0.00258
-0.79674,0.41899,0.43544,0.00563,-0.00471,0.00192
-0.7968,0.41889,0.43542,0.00845,0.00088,0.00435
-0.7969,0.41876,0.43535,0.00519,-0.00212,-0.00084
-0.79701,0.41859,0.43532,0.0049,-0.00148,-0.00216
-0.79711,0.41845,0.43529,0.00414,-0.00536,0.00063
-0.79722,0.41832,0.43519,0.00503,-0.00459,-0.00093
-0.79736,0.41824,0.43503,0.00274,-0.0051,-0.00075
-0.79751,0.41816,0.43484,0.00324,-0.00202,-0.0017
-0.79764,0.41809,0.43466,0.00124,-0.00334,-4e-05
-0.79775,0.41809,0.43444,0.00062,0.00092,-0.00247
-0.79787,0.41813,0.4342,0.0025,0.0048,-0.00586
-0.79798,0.41814,0.43398,0.00089,0.00241,-0.00447
-0.79807,0.41814,0.43382,0.00228,-0.0016,-0.00314
-0.79811,0.41806,0.43383,3e-05,0.00704,-0.00199
-0.79814,0.41804,0.43379,0.00495,-0.00453,-0.00101
-0.7982,0.41799,0.43372,0.00707,0.00099,7e-05
-0.79833,0.41788,0.4336,0.00453,0.00194,-0.00061
-0.79845,0.41778,0.43347,0.00304,-0.00039,-0.00424
-0.79855,0.41768,0.43338,0.00111,0.00196,-0.00402
-0.79861,0.41761,0.43333,0.00224,0.0064,-0.00167
-0.79866,0.41753,0.43332,0.00178,0.00411,-0.00394
-0.79868,0.41746,0.43335,0.00475,0.00064,-0.00449
-0.79868,0.41742,0.43339,0.00315,0.00092,0.00129
-0.7987,0.41737,0.4334,0.00214,0.00113,0.00138
-0.79875,0.41729,0.43338,0.00358,0.00172,-0.00165
-0.79881,0.4172,0.43335,0.00239,-0.00104,-0.00053
-0.79888,0.41711,0.43332,0.00377,0.00075,-0.00026
-0.79895,0.41702,0.43328,0.00351,-0.00227,-0.00159
-0.79902,0.41694,0.43321,0.00519,-0.00083,-0.00061
-0.7991,0.41688,0.43314,0.00245,0.00018,-0.00183
-0.79918,0.41683,0.43302,0.00327,-0.00274,0.00141
-0.79926,0.41683,0.43288,-0.00289,-0.00096,-0.00313
-0.79923,0.41684,0.43293,0.00085,0.0063,-0.00512
-0.7992,0.41683,0.43299,0.00237,-0.00045,-0.00179
-0.79919,0.41683,0.43301,0.00467,-0.00182,0.00186
-0.79922,0.41685,0.43294,0.00533,0.00071,-0.00178
-0.79922,0.41686,0.43293,0.00139,0.00129,-0.00214
-0.7992,0.41689,0.43294,0.00304,-0.00043,0.00105
-0.79919,0.41689,0.43295,0.00284,0.0023,0.00135
-0.79924,0.41687,0.43289,0.0014,0.00127,0.00039
-0.79928,0.41686,0.43282,0.00376,0.00125,-0.00255
-0.79931,0.4168,0.43282,0.00565,-0.00255,-0.00166
-0.79934,0.41675,0.4328,0.00268,0.00091,9e-05
-0.79938,0.41671,0.43277,0.00364,0.00259,-0.00195
-0.79943,0.41664,0.43275,0.00134,0.00202,-0.00319
-0.79947,0.41655,0.43276,0.00102,0.00163,6e-05
-0.79951,0.41649,0.43274,0.00175,-0.00107,0.00173
-0.79953,0.4165,0.4327,0.0033,-0.00324,0.0009
-0.79953,0.41656,0.43265,0.00161,-0.00495,-0.00297
-0.7995,0.41664,0.43261,0.00243,-0.00307,-0.00293
-0.79951,0.41672,0.43253,0.00188,-0.0,0.00053
-0.79951,0.41678,0.43247,0.00019,0.00296,-0.00373
-0.79952,0.41679,0.43243,0.00126,0.0031,-0.00216
-0.79952,0.41678,0.43244,0.00734,0.00334,-0.00352
-0.79951,0.41673,0.43251,0.00508,0.00403,-0.00271
-0.79951,0.41663,0.43261,0.00545,0.00111,-0.00235
-0.79953,0.41651,0.43269,0.0059,0.0008,-0.00033
-0.79954,0.4164,0.43277,0.00446,-0.00057,-0.00078
-0.79956,0.41629,0.43284,0.00392,-0.00315,0.0035
-0.79959,0.41623,0.43285,0.00329,-0.00355,0.00227
-0.79961,0.41622,0.43281,0.00368,-0.00408,0.00157
-0.79965,0.41622,0.43275,0.00291,-0.00435,-0.00064
-0.79968,0.41623,0.43268,0.00276,-0.00322,0.00085
-0.79972,0.41626,0.43258,0.00126,-0.0022,-0.00236
-0.79975,0.41631,0.43246,0.00193,-0.00016,-0.00122
-0.79976,0.41637,0.43238,0.00059,0.00352,-0.00349
-0.79976,0.41641,0.43235,0.00071,0.00382,-0.00274
-0.79977,0.41645,0.4323,0.00526,0.00321,-0.0056
-0.79977,0.41645,0.4323,0.0046,0.00267,-0.00212
-0.79974,0.41644,0.43236,0.00305,0.00122,-0.00137
-0.7997,0.41644,0.43242,4e-05,-9e-05,-0.00092
-0.79969,0.41643,0.43245,0.00051,-0.00017,0.00196
-0.79968,0.41641,0.4325,0.00116,-0.00018,0.00074
-0.79965,0.4164,0.43256,0.00398,-0.00051,-0.00229
-0.79962,0.41639,0.43262,0.00462,-0.0008,-0.00081
-0.7996,0.41638,0.43267,0.00279,0.00119,-0.00236
-0.79959,0.41637,0.43269,0.00342,0.00072,-0.00301
-0.79958,0.41637,0.43273,0.00374,0.00123,-0.00301
-0.79955,0.41638,0.43277,0.00344,0.0007,-0.00131
-0.79952,0.41639,0.43281,0.00347,-0.00071,-0.00095
-0.79949,0.41643,0.43282,0.00302,-0.00128,-0.00037
-0.79947,0.41644,0.43285,0.0031,0.00167,-0.00243
-0.79944,0.41644,0.4329,0.00356,-3e-05,0.00026
-0.79942,0.41645,0.43294,0.00418,-0.00116,0.00099
-0.79943,0.41644,0.43292,0.0041,-0.00049,0.00024
-0.79947,0.41642,0.43287,0.00531,0.00348,-0.00163
-0.79951,0.4164,0.43283,0.0035,0.00052,-0.00226
-0.79953,0.4164,0.43278,0.0034,-0.00026,-0.00032
-0.79955,0.4164,0.43274,0.0024,0.00038,0.00011
-0.79956,0.4164,0.43272,0.00369,-0.00037,0.0002
-0.79956,0.41642,0.43272,0.0038,-0.00203,-0.0021
-0.79957,0.41641,0.43271,0.00347,-0.00051,-0.00327
-0.79957,0.41635,0.43275,0.00275,-0.00225,-0.00213
-0.79958,0.41635,0.43274,0.00211,0.00029,-0.00228
-0.79957,0.41639,0.43272,-0.00214,0.00396,-0.00318
-0.79957,0.41642,0.43269,0.00234,0.00077,-0.00386
-0.79953,0.41647,0.43271,0.00043,-0.00429,-0.00429
-0.79948,0.4165,0.43279,0.00349,-0.0014,-0.0005
-0.79942,0.41654,0.43286,0.00358,-0.00133,-0.00158
-0.79939,0.41657,0.43289,0.00543,-0.00234,-0.00089
-0.79934,0.41659,0.43295,0.0025,-0.00225,-0.00019
-0.79932,0.41663,0.43296,0.00295,-0.00139,0.00026
-0.79929,0.41669,0.43296,0.00431,0.00302,-0.00062
-0.79924,0.41676,0.43297,0.00417,0.00363,-0.00307
-0.79917,0.41686,0.43301,0.00521,0.00254,-0.00299
-0.79907,0.41696,0.4331,0.0069,5e-05,-0.00171
-0.79896,0.41703,0.43323,0.0039,-0.00054,-0.00029
-0.79887,0.41711,0.43333,0.00149,0.00069,0.00281
-0.7988,0.41717,0.43339,0.00017,0.00065,0.00056
-0.79873,0.41725,0.43345,0.00146,-0.00274,-0.00202
-0.79865,0.41734,0.43351,0.002,-0.00332,-0.00209
-0.79858,0.41743,0.43354,0.00322,-0.00128,-0.00132
-0.79851,0.41751,0.4336,0.00251,-0.00067,-0.00189
-0.79843,0.4176,0.43366,0.00151,0.00046,-0.00199
-0.79834,0.41768,0.43375,0.00201,0.0038,-0.00243
-0.79825,0.41775,0.43384,0.00308,0.00157,-0.00052
-0.79814,0.41784,0.43395,0.00473,0.00119,-0.00121
-0.79803,0.41793,0.43407,0.00463,0.00052,0.00207
-0.79791,0.41803,0.43419,0.00566,0.00281,-0.00084
-0.79781,0.41812,0.4343,0.00314,-0.00175,0.00117
-0.79771,0.41819,0.4344,0.00387,-0.00183,-0.00117
-0.79763,0.41827,0.43448,0.00225,-0.0026,-0.00044
-0.79756,0.41833,0.43454,0.00168,-0.00236,-0.00183
-0.79749,0.4184,0.4346,0.00341,-0.0004,-0.00034
-0.79743,0.41846,0.43466,0.00299,-0.0006,-0.00256
-0.79735,0.41856,0.43471,0.00274,0.00034,-0.00084
-0.79727,0.41867,0.43476,0.00088,0.00125,-0.00207
-0.79718,0.41876,0.43482,0.00258,0.00142,-0.00373
-0.79709,0.41884,0.43492,0.00306,-0.00112,0.00057
-0.79695,0.41893,0.43508,0.00414,5e-05,-0.00186
-0.79686,0.419,0.43519,0.00299,-0.00066,0.00155
-0.79679,0.41906,0.43526,0.00288,-0.00019,-0.00043
-0.7967,0.41913,0.43534,0.00218,-0.0009,-0.00044
-0.79663,0.4192,0.4354,0.00305,-0.00203,-0.00142
-0.79657,0.41929,0.43543,0.00484,-0.0006,-0.00172
-0.79651,0.41937,0.43546,0.0038,-0.00123,-0.00119
-0.79644,0.41944,0.43551,0.00119,0.00036,-0.00191
-0.79637,0.4195,0.43559,0.00408,-0.00092,-0.00089
-0.79629,0.41954,0.4357,0.00374,-0.00288,0.00058
-0.79621,0.41963,0.43577,0.00216,0.00199,-0.0005
-0.79614,0.41974,0.43578,0.00039,0.00052,-0.00312
-0.7961,0.41982,0.43578,0.00051,0.00135,0.0005
-0.79604,0.41992,0.4358,0.00049,-0.0036,-0.00196
-0.79593,0.42001,0.43591,0.00122,-0.00348,-0.00143
-0.79584,0.42006,0.43603,0.00241,-0.00258,-0.00139
-0.79578,0.42009,0.43611,0.00444,-0.00357,-0.00114
-0.79575,0.42012,0.43614,0.00629,-0.00241,-0.00207
-0.79572,0.42019,0.43612,0.00316,-0.00025,-0.00228
-0.79569,0.42028,0.4361,0.00392,0.00353,-0.00075
-0.79563,0.42036,0.43611,0.00297,0.00282,-0.00221
-0.79556,0.42044,0.43617,0.00409,0.0037,0.00011
-0.79548,0.42048,0.43629,0.00602,-0.00011,-0.00321
-0.7954,0.42052,0.43638,0.00547,-0.00116,-0.00171
-0.79534,0.42056,0.43645,0.00308,-0.00186,0.00149
-0.79531,0.4206,0.43648,4e-05,-0.00271,-0.00105
-0.79528,0.42066,0.43647,0.00169,-0.00158,-0.00031
-0.79527,0.4207,0.43646,0.00456,-0.00345,-0.00419
-0.7953,0.42068,0.43642,0.00257,-0.00043,-0.00131
-0.79533,0.42065,0.43639,0.00317,-0.00053,0.00015
-0.79538,0.42059,0.43636,0.00305,0.00011,-0.00228
-0.79541,0.42054,0.43634,0.0024,0.00202,-0.0038
-0.79543,0.42048,0.43637,0.00265,0.0023,-0.00154
-0.79546,0.42042,0.43636,0.00561,0.00366,-0.00056
-0.79549,0.42036,0.43637,0.00518,-9e-05,-0.00143
-0.79554,0.42029,0.43637,0.00158,-0.00085,0.00019
-0.79559,0.4202,0.43636,0.00175,-0.00162,-0.00217
-0.79564,0.42012,0.43634,0.00239,-0.00226,-0.00081
-0.79571,0.42004,0.43628,0.00325,-0.00181,-8e-05
-0.7958,0.41997,0.43619,0.00118,-0.00225,-0.00116
-0.79588,0.41991,0.43609,0.00329,0.00039,-0.00198
-0.79595,0.41989,0.43599,0.00269,-0.00146,-0.00226
-0.79602,0.41984,0.43591,0.00314,-0.00187,-0.00176
-0.79609,0.41979,0.43583,0.00364,-0.00034,-0.00053
-0.79617,0.41975,0.43573,0.00262,0.00152,-0.00343
-0.79621,0.41972,0.43569,0.00061,0.00127,-0.00042
-0.79627,0.41966,0.43564,0.00253,0.00072,-0.00274
-0.79633,0.41957,0.43561,0.00141,0.0006,-0.00279
-0.79639,0.41949,0.43558,0.00484,-0.00353,-0.0
-0.79644,0.41946,0.43552,0.00121,0.00266,-0.00273
-0.7965,0.41939,0.43548,0.00626,0.00096,-0.00107
-0.79654,0.4193,0.43547,0.00089,-0.00239,-0.00061
-0.79658,0.41928,0.43543,0.00134,0.00466,-0.00123
-0.79661,0.41927,0.43538,-0.00209,0.00247,-0.00111
-0.79667,0.41924,0.4353,-0.00147,0.00389,0.00034
-0.79674,0.41925,0.43517,0.00427,0.00075,-0.00303
-0.79679,0.4192,0.43512,0.00304,0.00081,-0.00238
-0.79685,0.41909,0.43512,0.00599,-0.0028,-0.00166
-0.7969,0.41898,0.43513,0.00297,-0.00303,8e-05
-0.79697,0.4189,0.43508,0.00107,-0.0018,0.0011
-0.79703,0.41887,0.435,0.00102,0.00225,1e-05
-0.79709,0.41883,0.43492,0.00235,0.00037,-0.00285
-0.79715,0.41881,0.43483,0.00466,0.00224,-0.00231
-0.79722,0.41878,0.43474,0.00631,0.00142,-0.00103
-0.79726,0.41873,0.43471,0.00653,-0.00186,-0.00055
-0.79728,0.41869,0.43472,0.00605,0.00117,-0.0002
-0.7973,0.41865,0.43473,0.00177,-0.0003,0.00161
-0.79736,0.41859,0.43467,0.00178,-0.00236,-0.00108
-0.79742,0.41857,0.43458,0.00211,-0.00365,0.00077
-0.79747,0.41857,0.43449,0.00313,1e-05,-0.0028
