gravity.x,gravity.y,gravity.z,userAcceleration.x,userAcceleration.y,userAcceleration.z
0.40905,0.37804,-0.83052,-0.018,0.07228,-0.01773
0.40829,0.37998,-0.83001,0.00694,0.09744,-0.0182
0.4076,0.38116,-0.82981,-0.01644,0.08616,-0.02101
0.40764,0.38117,-0.82978,-0.02824,0.06949,-0.02404
0.40731,0.38134,-0.82986,-0.06823,0.0309,-0.02753
0.40719,0.38124,-0.82997,-0.0645,0.01604,-0.01129
0.407,0.37975,-0.83075,-0.06432,0.01753,-0.01052
0.40565,0.37963,-0.83146,-0.04793,0.01124,0.00202
0.40395,0.37933,-0.83242,-0.04007,0.01841,0.00433
0.40202,0.3794,-0.83333,-0.02721,0.03386,-0.00382
0.40036,0.37976,-0.83397,-0.01419,0.05092,-0.00446
0.39915,0.38027,-0.83431,-0.00752,0.06075,0.00403
0.3984,0.38094,-0.83436,-0.00732,0.06005,0.00862
0.39802,0.38167,-0.83421,0.00315,0.05815,0.01994
0.39802,0.38241,-0.83387,0.01488,0.05356,0.02337
0.39825,0.3831,-0.83345,0.02325,0.04557,0.02383
0.39838,0.3837,-0.8331,0.02953,0.04058,0.02927
0.39851,0.38421,-0.83281,0.02297,0.0427,0.02852
0.39859,0.38468,-0.83255,0.02183,0.0447,0.02652
0.39872,0.38513,-0.83228,0.01595,0.04154,0.02422
0.39898,0.38553,-0.83197,0.00919,0.04354,0.01752
0.39908,0.38591,-0.83175,0.00335,0.04564,0.00976
0.39912,0.38628,-0.83156,-0.00565,0.04516,0.00746
0.39907,0.38685,-0.83132,-0.01711,0.03828,8e-05
0.3987,0.38686,-0.83149,-0.01776,0.03732,-0.00242
0.39827,0.38718,-0.83155,-0.02203,0.0311,0.0003
0.39763,0.38779,-0.83157,-0.022,0.02647,-0.00426
0.39715,0.38788,-0.83176,-0.02024,0.02806,-0.00662
0.39631,0.38841,-0.83191,-0.02433,0.02849,-0.00802
0.3958,0.38856,-0.83209,-0.02663,0.02671,-0.00413
0.3951,0.38901,-0.83221,-0.02359,0.03152,-0.00721
0.39469,0.38925,-0.83229,-0.0195,0.03315,-0.00561
0.39454,0.38928,-0.83235,-0.01707,0.0331,-0.0021
0.39431,0.38943,-0.83238,-0.01461,0.03156,-0.00067
0.39393,0.38978,-0.8324,-0.01033,0.03234,0.00493
0.39394,0.38991,-0.83233,-0.00692,0.03131,0.00519
0.3937,0.39048,-0.83218,-0.00684,0.03058,0.0105
0.39361,0.39085,-0.83205,-0.00363,0.03478,0.0044
0.39355,0.39106,-0.83198,-0.00018,0.03736,0.0077
0.39338,0.39159,-0.83181,-3e-05,0.03506,0.01008
0.39329,0.39194,-0.83169,-0.00048,0.0346,0.0086
0.39321,0.39202,-0.83169,0.00162,0.03469,0.00561
0.39315,0.39243,-0.83152,0.00434,0.0375,0.00923
0.39321,0.39273,-0.83135,-0.00102,0.03494,0.00974
0.39336,0.39303,-0.83114,-0.00353,0.03368,0.0089
0.39348,0.39315,-0.83103,-0.00223,0.03643,0.00687
0.39347,0.39357,-0.83083,-0.00493,0.03166,0.00631
0.39342,0.39381,-0.83075,-0.0079,0.03043,0.00215
0.39337,0.39387,-0.83074,-0.01135,0.03217,0.00299
0.39322,0.39423,-0.83064,-0.00981,0.02788,-0.00125
0.39309,0.3944,-0.83062,-0.0117,0.02547,0.0026
0.39297,0.39452,-0.83062,-0.0122,0.0253,0.00231
0.39279,0.39462,-0.83066,-0.01028,0.02739,-0.00018
0.39254,0.3947,-0.83074,-0.0108,0.02303,-0.00023
0.39252,0.39472,-0.83074,-0.01382,0.02242,-0.00056
0.39275,0.39511,-0.83044,-0.01291,0.02475,-0.00843
0.39359,0.39564,-0.82979,-0.00645,0.03142,-0.00319
0.39437,0.39605,-0.82923,-0.00087,0.04006,0.00426
0.39387,0.39611,-0.82944,-0.00236,0.04081,0.01154
0.39289,0.39563,-0.83013,0.00317,0.03124,0.0084
0.39199,0.39498,-0.83086,0.00683,0.03065,0.00693
0.39158,0.39446,-0.83131,0.00541,0.02676,-0.00113
0.39182,0.39431,-0.83126,-0.0047,0.02272,-0.00416
0.39317,0.39458,-0.8305,-0.01623,0.02384,-0.00321
0.39494,0.39504,-0.82944,-0.01648,0.0357,0.00485
0.39587,0.3954,-0.82882,-0.0025,0.03279,0.00582
0.39586,0.3953,-0.82888,0.00075,0.02801,0.00556
0.39528,0.39519,-0.82921,-0.0032,0.02457,0.00731
0.39465,0.39511,-0.82955,-0.00205,0.0282,0.00078
0.39427,0.39463,-0.82995,-0.00572,0.0272,0.00111
0.39406,0.39432,-0.8302,-0.00811,0.03851,0.00067
0.39348,0.39409,-0.83058,-0.00221,0.02527,0.00795
0.39263,0.39384,-0.8311,0.00027,0.01885,0.01766
0.39189,0.39408,-0.83134,-0.0179,0.0204,0.0238
0.39113,0.39425,-0.83162,-0.02199,0.0162,0.01666
0.39044,0.39474,-0.83171,-0.0343,0.00453,-0.00105
0.38989,0.39521,-0.83175,-0.01042,-0.00286,-0.01815
0.38954,0.39588,-0.83159,0.00124,-0.00717,-0.02366
0.38979,0.39715,-0.83087,0.00738,-0.00956,-0.0304
0.39058,0.39843,-0.82988,-0.01537,0.02569,-0.01982
0.39243,0.39954,-0.82847,-0.02197,0.04106,-0.01906
0.39467,0.40004,-0.82716,-0.01957,0.05164,-0.02179
0.39784,0.39968,-0.82582,-0.01079,0.04803,-0.0143
0.40151,0.39828,-0.82472,0.00151,0.0273,0.00663
0.40417,0.39611,-0.82447,0.00275,0.01668,0.01439
0.40573,0.39388,-0.82477,0.05054,-0.10253,0.0977
0.40667,0.3923,-0.82506,-0.06502,-0.20734,0.16798
0.40311,0.39536,-0.82534,0.01057,-0.14589,0.11378
0.39809,0.39543,-0.82774,0.02359,0.19833,-0.00778
0.39659,0.39511,-0.82862,0.17638,-0.05096,-0.05619
0.39675,0.39642,-0.82791,0.14217,0.05093,-0.07724
0.39679,0.39626,-0.82797,0.01355,0.13128,0.0585
0.39772,0.39738,-0.82699,-0.05656,0.12154,0.09313
0.39829,0.39754,-0.82664,-0.07271,0.08783,0.04008
0.39845,0.39655,-0.82703,-0.0865,-0.00408,0.01183
0.39619,0.39624,-0.82827,-0.06205,0.01041,-0.01339
0.39313,0.39676,-0.82948,-0.0501,0.01288,-0.03058
0.3901,0.39809,-0.83027,-0.00277,0.03068,-0.02569
0.38683,0.39823,-0.83173,0.01721,0.04458,-0.01165
0.38314,0.3973,-0.83388,0.03419,0.03969,-0.00306
0.37972,0.39525,-0.83641,0.03609,0.02624,-0.01004
0.37725,0.3924,-0.83887,0.01382,0.01426,-0.01007
0.37563,0.38944,-0.84098,-0.00956,-0.00336,-0.00175
0.3746,0.3872,-0.84247,-0.02995,-0.00736,0.00729
0.37442,0.38604,-0.84308,-0.03465,-0.01612,0.0057
0.37489,0.38601,-0.84288,-0.03152,-4e-05,0.00186
0.37571,0.38684,-0.84213,-0.02208,0.01495,0.00354
0.37676,0.38833,-0.84098,-0.00782,0.0262,-0.01078
0.37826,0.38998,-0.83955,-0.00393,0.03061,-0.01298
0.3795,0.39148,-0.83829,-0.00202,0.03688,-0.00606
0.38066,0.39274,-0.83717,-0.00226,0.03621,-0.00242
0.38185,0.39332,-0.83635,-0.00296,0.03187,-0.00266
0.38255,0.3934,-0.836,-0.00285,0.02293,0.00451
0.38284,0.39311,-0.836,-0.00258,0.02418,0.00847
0.38281,0.39271,-0.8362,-0.00158,0.02265,0.00756
0.38268,0.3923,-0.83645,0.00257,0.02709,0.01051
0.38255,0.39182,-0.83674,0.00452,0.0273,0.01137
0.38239,0.39133,-0.83704,0.00642,0.02629,0.00513
0.38228,0.39088,-0.8373,0.00167,0.02492,0.00038
0.38227,0.39059,-0.83744,0.00236,0.01845,0.00052
0.3824,0.39043,-0.83746,0.00047,0.01236,-0.00097
0.38276,0.39045,-0.83728,0.00138,0.01371,-0.00129
0.38325,0.39062,-0.83698,0.00186,0.00901,0.00177
0.38382,0.39094,-0.83657,0.0032,0.01127,0.00573
0.38443,0.39139,-0.83608,0.00276,0.00696,0.00572
0.38503,0.39194,-0.83554,0.00077,0.01722,0.00302
0.38558,0.39238,-0.83508,0.00123,0.02343,0.00038
0.38609,0.39271,-0.8347,0.00388,0.03669,-0.00399
0.38656,0.39292,-0.83438,0.00398,0.01581,0.00909
0.38719,0.39299,-0.83405,-0.0006,0.00946,0.0138
0.38803,0.39298,-0.83367,-0.01057,0.00558,-0.00151
0.38881,0.39291,-0.83334,-0.01065,0.00742,-0.00298
0.38945,0.39324,-0.83288,0.00177,0.01548,-0.00554
0.38997,0.39402,-0.83226,0.00205,0.01951,0.00954
0.39026,0.39487,-0.83173,-0.00309,0.01918,0.00809
0.39005,0.39552,-0.83152,-0.0054,0.02225,0.00697
0.38971,0.39594,-0.83148,-0.00067,0.03039,-0.00298
0.38947,0.39611,-0.83151,0.00108,0.02855,-0.00698
0.38938,0.39632,-0.83145,0.00544,0.02278,-0.00565
0.38935,0.39664,-0.83131,-0.00762,0.0153,-0.00206
0.38938,0.39661,-0.83131,-0.0118,0.01389,-0.00357
0.38933,0.39643,-0.83143,-0.00615,0.01059,-0.00071
0.38935,0.39625,-0.8315,-0.00749,0.00736,0.00205
0.38942,0.39616,-0.83151,0.00023,0.00841,0.00111
0.38941,0.3962,-0.8315,0.00126,0.01226,0.00035
0.38947,0.39641,-0.83137,0.00345,0.01687,-1e-05
0.38952,0.39672,-0.83119,0.00176,0.02631,-0.0002
0.38958,0.39701,-0.83103,0.01055,0.02805,-0.00352
0.38959,0.39734,-0.83087,0.01364,0.02438,0.00328
0.38963,0.39764,-0.8307,0.01167,0.01983,0.00937
0.38973,0.39781,-0.83057,0.00865,0.02121,0.00997
0.38978,0.39789,-0.83051,0.0083,0.01716,0.00398
0.38989,0.39791,-0.83045,0.00534,0.0182,0.00193
0.39,0.39794,-0.83039,0.00255,0.01949,-0.00186
0.39,0.39801,-0.83035,-0.00435,0.0192,-0.00598
0.39004,0.3981,-0.83029,-0.01353,0.01477,-0.00684
0.39011,0.39813,-0.83024,-0.01688,0.01172,-0.00554
0.39007,0.3982,-0.83023,-0.01625,0.00855,-0.00537
0.39005,0.39838,-0.83015,-0.01565,0.00553,-0.00922
0.39009,0.39865,-0.83,-0.013,0.00665,-0.00983
0.39012,0.399,-0.82982,-0.0081,0.01024,-0.0059
0.39013,0.39941,-0.82962,-0.00254,0.00982,-0.00134
0.39012,0.39982,-0.82942,0.0022,0.01364,0.00162
0.39012,0.4002,-0.82924,0.00269,0.01688,0.00531
0.39017,0.40051,-0.82907,0.0052,0.01604,0.00514
0.39023,0.40077,-0.82892,0.00797,0.01589,0.0025
0.39038,0.40096,-0.82876,0.00824,0.02069,-0.0003
0.39055,0.40104,-0.82864,0.01075,0.02168,4e-05
0.39066,0.40109,-0.82856,0.00682,0.01774,0.00413
0.39078,0.40116,-0.82847,0.00482,0.01798,0.00196
0.39092,0.40127,-0.82835,0.00267,0.01484,0.00103
0.39093,0.40136,-0.8283,0.00265,0.01323,0.00072
0.39098,0.40159,-0.82817,-0.00203,0.01077,0.0025
0.39103,0.40187,-0.828,-0.00251,0.00958,-0.00097
0.39103,0.4021,-0.82789,-0.00028,0.00802,-0.00147
0.391,0.4024,-0.82776,0.00049,0.01244,-0.00508
0.39096,0.40263,-0.82767,-0.00069,0.01114,-0.00305
0.39093,0.40285,-0.82758,-0.00505,0.01268,-0.00148
0.39091,0.40298,-0.82752,-0.00598,0.0115,-0.00271
0.39092,0.40306,-0.82748,-0.00449,0.01364,-0.00356
0.39092,0.4032,-0.82741,-0.00405,0.01733,-0.00728
0.39087,0.40335,-0.82737,-0.00619,0.01763,-0.0012
0.39082,0.40348,-0.82732,-0.00497,0.01287,-0.00251
0.39076,0.40356,-0.82731,-0.0047,0.01195,-0.00395
0.3907,0.40356,-0.82734,-0.0013,0.0098,-0.00423
0.39062,0.4036,-0.82736,0.00142,0.00692,-0.00196
0.39058,0.40374,-0.82731,0.00353,0.00623,-0.00229
0.39057,0.40393,-0.82722,0.00422,0.00616,7e-05
0.39054,0.40416,-0.82712,0.00332,0.0085,0.00045
0.39059,0.40438,-0.827,0.00289,0.01233,0.00043
0.39066,0.40461,-0.82685,0.00308,0.01166,0.00073
0.39077,0.4048,-0.8267,0.00119,0.01272,0.00062
0.39089,0.40498,-0.82656,0.00113,0.01146,0.00287
0.39099,0.40519,-0.8264,0.00046,0.01096,-0.00415
0.39106,0.4054,-0.82627,0.00032,0.01128,-0.00486
0.39109,0.40561,-0.82615,0.00073,0.0118,-0.00252
0.3911,0.40584,-0.82604,-0.00174,0.01297,-0.00186
0.39107,0.40601,-0.82597,-0.00715,0.01218,-0.00315
0.39101,0.40609,-0.82595,-0.0057,0.00913,-0.00139
0.39093,0.40619,-0.82595,-0.00422,0.00884,-0.00454
0.39089,0.40631,-0.8259,-0.00051,0.01176,-0.00682
0.39082,0.40642,-0.82588,-0.00047,0.00888,-0.0038
0.39076,0.40652,-0.82586,-0.00079,0.0085,-0.00423
0.39071,0.40661,-0.82584,-0.00222,0.00881,-0.00314
0.39068,0.40669,-0.82581,-0.0019,0.00886,-0.00431
0.39066,0.40678,-0.82578,-3e-05,0.0109,-0.00485
0.39068,0.4069,-0.82571,-0.00054,0.01159,-0.00176
0.39074,0.40703,-0.82562,-0.00044,0.01285,-0.00369
0.39081,0.40714,-0.82553,0.0014,0.01168,-0.00198
0.39084,0.40726,-0.82546,0.00174,0.01066,0.00046
0.39081,0.40736,-0.82542,0.00287,0.00893,-0.00066
0.39073,0.40746,-0.82541,0.00268,0.00797,-0.00126
0.39066,0.40758,-0.82538,0.00257,0.00726,-0.00235
0.39059,0.40775,-0.82534,0.00068,0.00744,-0.00466
0.39055,0.4079,-0.82528,0.00441,0.00518,-0.00231
0.39053,0.40807,-0.82521,0.00099,0.00696,-0.00287
0.39051,0.40826,-0.82512,0.00155,0.00798,-0.00331
0.39048,0.40846,-0.82504,0.00097,0.00904,-0.00553
0.39041,0.40868,-0.82496,-0.00079,0.00972,-0.00349
0.39031,0.4089,-0.8249,-0.00119,0.01183,-0.00257
0.3902,0.40911,-0.82485,-0.00234,0.01019,-0.00444
0.39012,0.40926,-0.82481,-0.00394,0.01048,-0.00434
0.39,0.40937,-0.82481,-0.00356,0.0085,-0.00669
0.38989,0.40954,-0.82478,-0.00357,0.00602,-0.00278
0.38981,0.40968,-0.82475,-0.00338,0.00711,-0.00362
0.38973,0.4098,-0.82473,-0.00193,0.0052,-0.00222
0.38966,0.4099,-0.82471,0.00298,0.00502,-0.0032
0.38962,0.41,-0.82468,0.0017,0.00557,-0.00647
0.38959,0.41016,-0.82461,-0.00168,0.00983,-0.00234
0.38955,0.41037,-0.82453,-0.00033,0.00833,-0.00236
0.38952,0.41063,-0.82442,-1e-05,0.00612,-0.00017
0.38945,0.4108,-0.82436,0.00504,0.00665,-0.00497
0.38927,0.41091,-0.82439,0.006,0.0075,-0.00319
0.38912,0.41103,-0.8244,0.00198,0.00523,-0.00279
0.38907,0.41117,-0.82436,0.00079,0.00709,-0.00453
0.3891,0.41133,-0.82426,-0.00078,0.00749,-0.00411
0.38917,0.4115,-0.82414,-0.00465,0.01008,-0.00255
0.38925,0.41166,-0.82402,-0.00292,0.00952,-0.00381
0.38929,0.41178,-0.82395,0.00034,0.01272,-0.00507
0.3893,0.4118,-0.82393,0.00059,0.01055,-0.005
0.38928,0.41182,-0.82393,-0.00128,0.009,-0.00427
0.38928,0.41184,-0.82393,-0.00166,0.00806,-0.00507
0.38927,0.41181,-0.82394,-0.00071,0.00842,-0.00635
0.38923,0.41178,-0.82397,-0.00065,0.00605,-0.00597
0.3892,0.41179,-0.82399,0.0008,0.00356,-0.00425
0.38919,0.41176,-0.824,0.00326,0.00409,-0.00592
0.3892,0.41174,-0.82401,0.00415,0.00505,-0.00407
0.38921,0.41175,-0.824,-9e-05,0.00574,-0.00202
0.38923,0.41179,-0.82397,0.0008,0.00676,-0.00334
0.38923,0.41183,-0.82395,0.00112,0.00719,-0.00651
0.38926,0.41192,-0.82389,0.00307,0.00709,-0.0022
0.38928,0.412,-0.82384,0.00291,0.00877,-0.00441
0.38926,0.41204,-0.82383,0.00173,0.00789,-0.00346
0.38922,0.41206,-0.82384,0.00032,0.00968,-0.00396
0.38917,0.41204,-0.82388,0.0006,0.00649,-0.00556
0.38911,0.41202,-0.82391,-0.00146,0.00645,-0.00469
0.38902,0.412,-0.82396,-0.00154,0.00681,-0.00509
0.38894,0.412,-0.824,0.0022,0.00424,-0.00391
0.38891,0.41202,-0.82401,-0.00135,0.00444,-0.00509
0.38887,0.41201,-0.82403,0.0006,0.00407,-0.00653
0.38883,0.41203,-0.82404,0.00247,0.00503,-0.00613
0.38883,0.41207,-0.82402,0.00072,0.0033,-0.00488
0.38881,0.41213,-0.824,0.00044,0.00269,-0.00504
0.38884,0.41218,-0.82396,0.00023,0.00419,-0.00534
0.38886,0.41224,-0.82393,-0.00128,0.0075,-0.00409
0.38888,0.41231,-0.82388,-0.00281,0.00809,-0.0074
0.38892,0.41233,-0.82385,-0.00272,0.00766,-0.00526
0.38893,0.41236,-0.82383,-0.00073,0.00462,-0.00441
0.3889,0.41243,-0.82381,0.00231,0.00447,-0.00546
0.38887,0.41251,-0.82378,0.0025,0.00346,-0.00845
0.38882,0.41262,-0.82375,-4e-05,0.00741,-0.00489
0.38876,0.41274,-0.82372,-0.00093,0.00625,-0.00246
0.3887,0.41281,-0.82371,0.00358,0.00692,-0.00502
0.38862,0.41282,-0.82374,0.00658,0.0058,-0.00601
0.38859,0.41285,-0.82374,0.0051,0.00595,-0.00556
0.38864,0.41295,-0.82367,0.00092,0.00575,-0.00383
0.38874,0.41303,-0.82358,-0.00301,0.00352,-0.0053
0.38887,0.41305,-0.82351,-0.00275,0.00598,-0.00681
0.38898,0.41311,-0.82343,-0.00399,0.00633,-0.00459
0.38904,0.41316,-0.82338,-0.00089,0.0088,-0.00725
0.38909,0.41315,-0.82336,-0.0024,0.00654,-0.00643
0.38911,0.41313,-0.82336,-0.00195,0.00574,-0.00426
0.38911,0.41312,-0.82337,-0.00089,0.0016,-0.00648
0.38912,0.41309,-0.82337,0.00213,0.00152,-0.00657
0.38912,0.41305,-0.82339,0.00236,0.00368,-0.00507
0.3891,0.41304,-0.82341,0.00243,0.00235,-0.00188
0.38905,0.41304,-0.82343,0.00528,0.00389,-0.00162
0.38907,0.41304,-0.82342,0.00485,0.00594,-0.0042
0.38914,0.41305,-0.82338,0.00269,0.00523,-0.00434
0.38921,0.41309,-0.82333,0.0029,0.00467,-0.00226
0.38929,0.41313,-0.82327,-0.00156,0.00716,-0.00519
0.38933,0.41319,-0.82323,-0.00084,0.00382,-0.00713
0.38931,0.41325,-0.8232,-0.00124,0.00609,-0.00674
0.3893,0.41328,-0.8232,-0.00038,0.00774,-0.00525
0.38926,0.41326,-0.82322,9e-05,0.00783,-0.00474
0.38918,0.41319,-0.82329,0.00051,0.0059,-0.00775
0.3891,0.41306,-0.8234,-0.00041,0.00227,-0.00775
0.389,0.41292,-0.82352,0.00012,0.00256,-0.00492
0.38898,0.41281,-0.82358,0.00208,0.00115,-0.00419
0.38899,0.41273,-0.82361,0.00258,0.00147,-0.00728
0.38898,0.41268,-0.82365,0.00017,0.00043,-0.00327
0.38893,0.41267,-0.82367,-0.00156,0.00556,-0.0066
0.38896,0.41266,-0.82366,-0.00023,0.00409,-0.00343
0.38898,0.41266,-0.82365,0.00146,0.00533,-0.00618
0.389,0.41264,-0.82365,0.00234,0.00284,-0.00727
0.38902,0.41269,-0.82362,0.00011,0.00354,-0.00413
0.38903,0.41273,-0.8236,0.00056,0.00326,-0.00561
0.38906,0.41276,-0.82357,0.00071,0.00299,-0.00646
0.38903,0.41278,-0.82357,0.00197,0.00369,-0.00399
0.389,0.41283,-0.82356,-8e-05,0.00329,-0.00714
0.38896,0.41284,-0.82357,0.00114,0.00354,-0.00521
0.38894,0.41289,-0.82356,0.0021,0.00278,-0.00821
0.38889,0.41294,-0.82356,0.0018,0.00477,-0.00619
0.38884,0.41303,-0.82354,0.00115,0.00511,-0.0054
0.3888,0.4131,-0.82352,-0.00159,0.00482,-0.00361
0.38872,0.41313,-0.82354,0.00159,0.00417,-0.00283
0.38867,0.41311,-0.82358,0.00188,0.0048,-0.00615
0.38866,0.41314,-0.82357,0.00281,0.00144,-0.00557
0.38865,0.41318,-0.82355,0.00306,0.00082,-0.00743
0.38864,0.41321,-0.82354,-0.00209,-0.00113,-0.00583
0.38866,0.41316,-0.82355,-0.0011,0.00091,-0.00759
0.38864,0.41304,-0.82362,0.00208,0.00435,-0.00725
0.3886,0.41297,-0.82368,0.00043,0.00843,-0.0042
0.38885,0.41282,-0.82364,0.00515,0.00148,-0.00997
0.38896,0.41272,-0.82363,0.0004,0.0075,-0.00451
0.38899,0.41274,-0.82361,0.00127,0.00407,-0.00484
0.38911,0.41282,-0.82351,-0.00082,0.00694,-0.00676
0.3892,0.41287,-0.82345,0.00236,0.00617,-0.00666
0.38927,0.41294,-0.82337,0.00427,0.004,-0.00365
0.38934,0.413,-0.82332,0.00097,0.0012,-0.00446
0.38932,0.41294,-0.82335,0.00057,0.00107,-0.00469
0.38921,0.41287,-0.82344,0.00348,0.00217,-0.00412
0.38914,0.41282,-0.8235,0.00277,-2e-05,-0.00418
0.38906,0.41277,-0.82356,0.00138,0.00273,-0.00592
0.38898,0.41276,-0.8236,0.00207,0.00139,-0.00408
0.38895,0.4128,-0.8236,0.00148,0.00382,-0.00373
0.38895,0.41284,-0.82357,0.00071,0.00436,-0.0071
0.38897,0.41294,-0.82352,-2e-05,0.00411,-0.00886
0.38898,0.41304,-0.82346,-0.00216,0.00414,-0.00729
0.38896,0.4131,-0.82344,0.00066,0.00847,-0.01716
0.3886,0.41292,-0.8237,0.0126,0.0085,-0.01855
0.38824,0.41273,-0.82397,0.00246,0.00388,0.00164
0.38813,0.41256,-0.82411,-0.00725,0.00372,0.00218
0.38778,0.41208,-0.82451,0.00051,0.00584,-0.00174
0.38719,0.41163,-0.82501,0.00142,-0.00306,-0.00119
0.38654,0.41126,-0.8255,0.00175,-0.00606,0.00021
0.38606,0.41099,-0.82586,0.00309,-0.00609,0.00199
0.38586,0.41092,-0.82599,0.00532,0.00067,-0.01175
0.38584,0.41097,-0.82598,0.00372,0.00449,-0.01039
0.38591,0.41112,-0.82587,0.00023,0.00098,-0.00599
0.38608,0.41136,-0.82567,-0.004,0.00096,-0.0063
0.38645,0.41174,-0.8253,-0.00529,0.00058,-0.00579
0.38696,0.41215,-0.82486,-0.00677,0.00361,-0.00694
0.38749,0.41254,-0.82442,-0.00506,0.00313,-0.00768
0.388,0.41295,-0.82397,-0.00364,0.00743,-0.01
0.38847,0.41331,-0.82357,-0.003,0.00598,-0.00915
0.38883,0.41357,-0.82327,0.0004,0.00479,-0.00732
0.38912,0.41375,-0.82304,0.00424,0.00357,-0.00888
0.38933,0.41382,-0.8229,0.00054,0.00501,-0.00647
0.38946,0.41384,-0.82284,0.0002,0.00363,-0.00677
0.38952,0.41383,-0.82281,-0.00021,0.00762,-0.00782
0.38959,0.41382,-0.82278,-0.00275,0.00772,-0.00401
0.38955,0.41381,-0.8228,0.0039,0.00733,-0.00331
0.38946,0.41373,-0.82289,0.00744,0.00076,-0.00522
0.38931,0.41362,-0.82302,0.01183,-0.00648,-0.00537
0.38919,0.41358,-0.82309,0.01707,-0.01267,-0.00543
0.38922,0.41364,-0.82305,0.01456,-0.01321,-0.00235
0.38932,0.41385,-0.82289,0.01213,1e-05,0.00101
0.38947,0.41405,-0.82273,0.00558,0.01309,0.00335
0.38958,0.41406,-0.82266,0.00277,0.01727,0.00568
0.38958,0.41385,-0.82277,-0.00558,0.01598,-0.00192
0.38956,0.41359,-0.82291,-0.00928,0.01089,-0.01057
0.38953,0.41338,-0.82303,-0.01082,0.0099,-0.00845
0.38961,0.41317,-0.8231,-0.00469,0.00422,-0.01551
0.38998,0.41301,-0.823,0.00084,0.00618,-0.02459
0.39058,0.41302,-0.82272,-0.00159,0.00767,-0.02633
0.39131,0.41322,-0.82227,-0.00287,0.01611,-0.0504
0.39277,0.41384,-0.82126,-0.00034,0.02791,-0.05361
0.39504,0.41416,-0.82001,-0.01448,0.02313,-0.06019
0.39813,0.41382,-0.81868,-0.0464,0.03452,-0.00832
0.40091,0.41123,-0.81863,-0.03975,0.05476,0.00506
0.40325,0.40803,-0.81909,-0.0306,0.05074,-0.01311
0.40757,0.40526,-0.81832,-0.03902,0.03459,-0.03114
0.41327,0.40292,-0.81662,-0.01942,0.04686,-0.0316
0.42106,0.40057,-0.81379,0.0248,0.07059,-0.05314
0.43124,0.39685,-0.81027,0.04917,0.04773,-0.04855
0.44391,0.39198,-0.80579,0.04743,0.03799,-0.03883
0.45769,0.38525,-0.80131,0.04979,0.02701,-0.07354
0.47296,0.37696,-0.79637,0.06938,0.03216,-0.08209
0.4898,0.36815,-0.79029,0.01755,-0.00588,-0.04792
0.50644,0.35844,-0.78424,-0.03041,-0.05754,-0.02826
0.52243,0.34806,-0.77841,-0.04182,-0.06714,-0.01556
0.53763,0.33744,-0.77272,-0.01858,-0.02122,0.03152
0.55122,0.32519,-0.76838,-0.03681,-0.00456,0.07347
0.5586,0.3124,-0.76836,-0.16976,-0.17655,0.14754
0.55742,0.30058,-0.77391,-0.17131,-0.18727,0.13455
0.55532,0.28894,-0.77983,-0.05698,-0.09062,0.06216
0.55209,0.28007,-0.78534,0.02425,-0.04101,0.10171
0.54745,0.27619,-0.78995,0.12233,-0.06844,0.18188
0.53939,0.27882,-0.79455,0.12699,-0.09117,0.11859
0.53183,0.28893,-0.79603,-0.01114,-0.15903,0.14273
0.5232,0.29882,-0.7981,-0.00266,-0.05255,0.0652
0.50857,0.30215,-0.80627,0.15212,0.29307,-0.10375
0.49656,0.29949,-0.8147,0.2981,0.38525,-0.17692
0.49049,0.29788,-0.81896,0.09992,0.17487,-0.11917
0.4865,0.29844,-0.82113,-0.08553,-0.09303,-0.08477
0.48109,0.29966,-0.82387,-0.18784,-0.19643,-0.04052
0.47648,0.30204,-0.82568,-0.14239,-0.2607,0.10744
0.47473,0.30832,-0.82436,-0.11566,-0.29262,0.16011
0.47118,0.32008,-0.82191,-0.09699,-0.32432,0.1843
0.46116,0.33387,-0.82211,-0.07952,-0.02564,0.05127
0.44391,0.34563,-0.82673,-0.01456,0.28784,-0.09106
0.42445,0.35249,-0.83402,0.04765,0.4635,-0.16057
0.41505,0.35865,-0.83613,0.20957,-0.04207,-0.06501
0.41334,0.37268,-0.83081,-0.15742,-0.01317,0.09345
0.40684,0.3845,-0.82864,-0.21386,0.03666,0.06796
0.39968,0.39001,-0.82955,-0.0695,0.16521,-0.13267
0.39611,0.39043,-0.83106,0.0844,0.22143,-0.12835
0.39182,0.3901,-0.83325,0.07809,0.03449,0.0112
0.38872,0.38839,-0.83549,0.03395,-0.12799,0.06588
0.38576,0.38576,-0.83808,-0.00454,-0.25053,0.05166
0.38165,0.38597,-0.83986,0.00755,-0.10965,-0.03503
0.378,0.38882,-0.8402,0.05298,-0.04541,-0.04924
0.37562,0.39281,-0.83941,0.07505,0.08276,-0.07256
0.37526,0.39732,-0.83745,0.02991,0.12035,-0.02942
0.37719,0.40064,-0.83499,0.01287,0.09153,-0.00328
0.37895,0.40121,-0.83392,0.01396,0.07714,0.00029
0.38017,0.3988,-0.83452,-0.01669,0.08257,-0.01095
0.38128,0.39538,-0.83564,-0.00636,0.06104,-0.00937
0.38224,0.39296,-0.83635,-0.01497,0.01657,0.00612
0.38162,0.3907,-0.83768,-0.05161,-0.03929,0.02186
0.37712,0.38766,-0.84113,-0.04193,-0.03104,0.02185
0.36913,0.38464,-0.84605,0.04512,0.00971,0.02626
0.36326,0.3827,-0.84946,0.04581,0.01952,-0.02131
0.36058,0.38145,-0.85116,0.02661,-0.03268,0.00701
0.35841,0.38104,-0.85226,0.01148,-0.05223,0.00515
0.35644,0.38135,-0.85295,-0.07139,-0.02304,-0.02271
0.35455,0.38319,-0.85291,-0.03251,-0.04866,-0.0379
0.35437,0.3854,-0.85199,-0.02965,-0.05878,-0.03662
0.35384,0.38666,-0.85164,0.00068,0.002,-0.02857
0.3527,0.38794,-0.85153,0.0266,0.01789,-0.00722
0.35358,0.38946,-0.85047,0.04769,0.044,0.00492
0.35677,0.39021,-0.84879,0.04946,0.0484,-0.00497
0.36052,0.39043,-0.8471,0.0562,0.02457,-0.01013
0.36375,0.39091,-0.8455,0.02562,0.03008,-0.00203
0.36677,0.39172,-0.84382,-0.02638,-0.01627,-0.00164
0.37071,0.39328,-0.84137,-0.00878,-0.00177,0.00965
0.37456,0.39537,-0.83868,-0.03011,-0.01163,-0.0019
0.37693,0.39721,-0.83675,-0.02033,-0.00817,-0.0029
0.37666,0.39823,-0.83638,-0.00406,0.00051,0.00841
0.37452,0.39831,-0.8373,0.00974,0.02034,-0.00129
0.37105,0.39727,-0.83934,0.00714,0.01232,-0.01242
0.36726,0.3952,-0.84198,-0.03627,-0.01686,-0.01555
0.36333,0.393,-0.84471,-0.03035,-0.01886,0.00485
0.35969,0.39133,-0.84704,-0.01444,-0.01956,0.00868
0.35935,0.391,-0.84734,0.00808,-0.00237,-0.02571
0.36072,0.39123,-0.84665,0.01625,-0.00615,-0.01753
0.36202,0.39156,-0.84595,0.01738,-0.00243,-0.0096
0.36302,0.39198,-0.84532,0.03702,0.01631,0.00734
0.36403,0.39244,-0.84467,0.03601,0.01585,0.00669
0.36523,0.39263,-0.84406,0.00693,0.00011,-0.014
0.36593,0.39289,-0.84364,-0.00734,-0.01052,-0.01004
0.36591,0.39329,-0.84346,-0.0092,-0.01257,-0.0041
0.36545,0.39353,-0.84355,-0.00623,-0.00566,0.00119
0.36474,0.39348,-0.84388,-0.00123,0.00102,-0.00046
0.36389,0.39323,-0.84436,0.00882,0.00867,-0.00969
0.36276,0.393,-0.84496,0.01143,0.01068,-0.00468
0.36181,0.39284,-0.84544,0.00956,0.00958,-0.00371
0.36114,0.39267,-0.84581,0.01058,0.00662,-0.00492
0.36072,0.3925,-0.84606,0.01021,-0.00216,-0.00495
0.36055,0.39249,-0.84614,0.00839,-0.00332,-0.00606
0.36062,0.3926,-0.84606,0.00213,-0.00536,-0.00672
0.36081,0.39279,-0.84589,-0.00381,-0.00668,-0.01052
0.36108,0.39305,-0.84565,-0.007,-0.00732,-0.00803
0.36144,0.39327,-0.8454,-0.007,-0.00669,-0.00714
0.36187,0.39341,-0.84515,-0.00222,-0.00431,-0.00823
0.36246,0.39358,-0.84482,-0.00157,-7e-05,-0.00917
0.36311,0.39373,-0.84447,-0.00021,0.01003,-0.01213
0.36373,0.39369,-0.84422,-0.00162,0.01329,-0.01265
0.36402,0.39337,-0.84424,-0.00787,0.00452,-0.01313
0.36409,0.39302,-0.84438,-0.00911,0.00579,-0.00593
0.36408,0.39271,-0.84453,-0.00088,-0.00445,-0.00559
0.36378,0.39246,-0.84477,-0.00082,-0.00899,-0.00638
0.36326,0.39227,-0.84509,0.01209,-0.00805,-0.00639
0.36245,0.39219,-0.84547,0.01627,-0.01345,-0.00095
0.36164,0.39231,-0.84576,0.02108,-0.01014,0.00051
0.36117,0.39259,-0.84583,0.01798,-0.00713,-0.00018
0.36125,0.39283,-0.84568,0.012,-0.00267,-0.00507
0.36165,0.39292,-0.84547,0.01035,0.00096,-0.00533
0.3624,0.39288,-0.84517,0.00697,0.0129,-0.01408
0.36343,0.39289,-0.84472,0.00719,0.02011,-0.01893
0.3644,0.39313,-0.84419,0.01113,0.01065,-0.00077
0.36524,0.39384,-0.8435,0.00722,0.00469,0.00344
0.36584,0.39473,-0.84282,-0.00535,0.00377,-6e-05
0.36604,0.39535,-0.84245,-0.0108,0.00137,-0.00605
0.36571,0.39567,-0.84244,-0.00094,-0.00117,-0.01027
0.36524,0.39583,-0.84257,0.00144,-0.00255,-0.01302
0.36479,0.39581,-0.84277,-0.00092,-0.00557,-0.00719
0.3642,0.39564,-0.84311,-0.00478,-0.00753,-0.00447
0.3636,0.39544,-0.84346,-0.00299,-0.00953,-0.00783
0.3633,0.39521,-0.8437,-0.00302,-0.00979,-0.01084
0.36334,0.39488,-0.84383,-0.0059,-0.01163,-0.00883
0.36342,0.39448,-0.84398,-0.00449,-0.01152,-0.00587
0.36347,0.3942,-0.84409,0.01168,-0.00617,-0.00796
0.36374,0.39449,-0.84384,0.01282,-0.00215,-0.00908
0.36439,0.39524,-0.84321,0.0109,0.00543,-0.00762
0.36525,0.39606,-0.84245,0.00284,0.0054,-0.01146
0.36605,0.39682,-0.84175,-0.00185,0.00566,-0.01108
0.36679,0.39748,-0.84111,-0.00298,0.00799,-0.00979
0.36761,0.39808,-0.84047,0.00475,0.00712,-0.00389
0.3683,0.39864,-0.83991,0.00736,0.0053,-0.00558
0.36854,0.3991,-0.83958,0.00324,0.00332,-0.00156
0.36833,0.39934,-0.83956,0.00292,0.00264,-0.00301
0.36784,0.3993,-0.83979,0.00186,0.00694,-0.01063
0.36702,0.39896,-0.84031,0.00113,0.00348,-0.00887
0.36585,0.39849,-0.84104,-0.00085,-0.00195,0.00048
0.36464,0.39794,-0.84183,0.00565,-0.00124,-0.00193
0.36368,0.39718,-0.84261,0.00827,-0.00316,-0.00359
0.36277,0.39648,-0.84333,0.01199,-0.00462,-0.00276
0.36197,0.39609,-0.84386,0.01066,-0.00339,-0.00502
0.36166,0.39597,-0.84405,0.0079,-0.00516,-0.00896
0.36162,0.39589,-0.8441,-0.00063,-0.00795,-0.01438
0.3616,0.39592,-0.8441,-0.00137,-0.01016,-0.01082
0.36173,0.39607,-0.84397,-0.00583,-0.00972,-0.00322
0.362,0.39631,-0.84374,-0.00816,-0.00759,-0.0042
0.36241,0.39662,-0.84342,-0.00359,-0.00407,-0.01292
0.36279,0.39692,-0.84311,-0.00474,-0.00272,-0.0095
0.36292,0.39719,-0.84293,-0.00073,0.00033,-0.00682
0.36286,0.39743,-0.84284,-0.00202,-0.0014,-0.00462
0.36284,0.3977,-0.84272,0.00487,0.00158,-0.0049
0.36285,0.39795,-0.8426,0.00216,-6e-05,-0.00241
0.36278,0.39815,-0.84254,0.00624,0.00221,-0.00312
0.36265,0.39832,-0.84251,0.01051,0.00265,0.001
0.36256,0.39846,-0.84248,0.01137,0.00319,9e-05
0.3625,0.39852,-0.84248,0.01111,0.00492,-0.00572
0.36237,0.39848,-0.84255,0.00846,0.00433,-0.00326
0.36223,0.39839,-0.84266,0.0074,0.00419,-0.00381
0.36212,0.39825,-0.84277,0.00354,0.00126,-0.00419
0.36197,0.39812,-0.8429,-0.0004,0.00122,-0.00876
0.36185,0.39802,-0.843,-0.00143,-0.00306,-0.01142
0.3617,0.39791,-0.84311,-0.00187,-0.00301,-0.01266
0.36149,0.39786,-0.84323,-0.0049,-0.00444,-0.01043
0.36139,0.39785,-0.84328,-0.00687,-0.00377,-0.01056
0.36135,0.39783,-0.8433,-0.00661,-0.00339,-0.01065
0.3612,0.3978,-0.84338,-0.00164,-0.0026,-0.00835
0.36103,0.39785,-0.84343,0.00074,-0.00126,-0.004
0.36092,0.3979,-0.84345,0.00588,5e-05,-0.00613
0.36085,0.39791,-0.84348,0.00611,-0.00065,-0.00613
0.36076,0.3979,-0.84352,0.00691,0.00061,-0.00577
0.36068,0.3979,-0.84355,0.0086,8e-05,-0.00329
0.36063,0.39795,-0.84355,0.00741,0.00374,-0.00216
0.36068,0.39798,-0.84352,0.00874,0.00262,-0.00456
0.36073,0.39788,-0.84354,0.00657,0.00159,-0.0061
0.36066,0.39775,-0.84363,0.00335,0.0003,-0.00372
0.36058,0.39767,-0.8437,0.00387,0.00136,-0.00897
0.36053,0.39765,-0.84374,0.00262,0.00186,-0.00733
0.36041,0.39758,-0.84382,0.0002,-0.0003,-0.00708
0.36024,0.39749,-0.84394,-0.004,-0.0027,-0.0072
0.36018,0.39732,-0.84404,-0.00154,-0.00433,-0.01094
0.36022,0.39722,-0.84407,-0.001,-0.00449,-0.01054
0.36031,0.39726,-0.84401,-0.00066,-0.00375,-0.00703
0.36047,0.39734,-0.84391,0.00018,-0.00334,-0.00742
0.36067,0.39737,-0.84381,-0.00134,-0.00525,-0.00754
0.36076,0.39732,-0.84379,-0.0026,-0.00194,-0.00517
0.36085,0.39733,-0.84375,-0.00035,0.00098,-0.00619
0.36105,0.39737,-0.84365,0.00133,0.00289,-0.00843
0.36116,0.39738,-0.8436,-0.0005,0.00403,-0.00395
0.36123,0.39736,-0.84358,0.00549,0.00239,-0.0047
0.36131,0.39726,-0.84359,0.00462,-0.00091,-0.00643
0.36136,0.39715,-0.84362,0.00492,0.00072,-0.00599
0.36137,0.3971,-0.84364,0.00303,-0.00135,-0.00525
0.36136,0.39708,-0.84365,0.00189,-0.00044,-0.00628
0.36136,0.397,-0.84368,0.00312,-0.00249,-0.00774
0.36129,0.39693,-0.84375,0.00419,-0.00065,-0.00783
0.3612,0.39693,-0.84379,0.00481,-0.00078,-0.00619
0.36117,0.39692,-0.84381,0.00146,0.00175,-0.00815
0.36112,0.39683,-0.84387,-0.00039,0.00022,-0.00935
0.36103,0.3967,-0.84397,-0.00187,-0.00031,-0.00593
0.36096,0.39665,-0.84403,-0.00076,-1e-05,-0.00868
0.36094,0.39663,-0.84404,0.00036,0.00023,-0.00943
0.36088,0.39661,-0.84408,-0.00045,-0.00069,-0.00936
0.36071,0.39664,-0.84414,-1e-05,-0.00111,-0.00764
0.36061,0.39667,-0.84417,-0.00125,-0.00074,-0.00441
0.36054,0.39664,-0.84421,-0.0022,-0.00069,-0.01022
0.36044,0.39657,-0.84428,0.00283,-0.00064,-0.00633
0.36032,0.39656,-0.84434,0.0012,-0.00099,-0.00489
0.36034,0.3966,-0.84431,0.0036,-0.00124,-0.00592
0.36039,0.39655,-0.84431,0.00218,0.0003,-0.00789
0.36041,0.39648,-0.84434,0.00219,-0.00082,-0.00876
0.36042,0.39648,-0.84433,0.00084,-0.00223,-0.00419
0.36056,0.39654,-0.84425,0.00171,-0.00056,-0.00837
0.36071,0.39658,-0.84416,-0.00085,0.00108,-0.0098
0.36077,0.3966,-0.84413,-0.00023,-0.00078,-0.00571
0.36081,0.39663,-0.8441,-0.00206,-0.00163,-0.00638
0.36089,0.39665,-0.84406,0.0009,0.00171,-0.00838
0.36089,0.39663,-0.84406,0.0041,0.00114,-0.00915
0.36079,0.39661,-0.84412,0.00171,-0.00015,-0.00525
0.36074,0.39659,-0.84415,0.0014,0.00227,-0.00873
0.36073,0.39656,-0.84417,-0.00053,0.00455,-0.00933
0.36068,0.39655,-0.84419,-0.00092,0.00229,-0.00628
0.36063,0.39658,-0.8442,0.00067,0.00092,-0.00639
0.3606,0.39657,-0.84422,0.00423,0.00129,-0.00922
0.3605,0.39647,-0.84431,0.0033,-0.00238,-0.00758
0.36037,0.39642,-0.84438,0.00415,-0.00128,-0.00661
0.3603,0.39638,-0.84443,0.00446,-0.0019,-0.005
0.36027,0.39632,-0.84447,-0.00158,-0.00291,-0.00572
0.3602,0.39627,-0.84453,-0.00243,0.0004,-0.00658
0.36017,0.39618,-0.84458,-0.00298,-0.00046,-0.00895
0.36018,0.39605,-0.84464,-0.0025,0.00402,-0.00588
0.36019,0.39591,-0.8447,-0.00219,0.00397,-0.00695
0.36017,0.39574,-0.84479,-0.00327,0.00109,-0.00674
0.36009,0.39554,-0.84492,-0.00093,0.00044,-0.00971
0.35995,0.39538,-0.84505,-0.00036,-0.00331,-0.00648
0.35981,0.3953,-0.84515,0.00034,-0.00238,-0.00974
0.35976,0.39526,-0.84519,-0.00021,-0.00108,-0.0072
0.35975,0.39527,-0.84519,0.00052,-0.00067,-0.00931
0.35971,0.39534,-0.84517,0.00269,-0.00121,-0.00732
0.35969,0.39545,-0.84513,0.00232,-0.00229,-0.00499
0.35972,0.39555,-0.84507,0.00209,-0.00628,-0.00428
0.35971,0.39556,-0.84507,0.00342,0.00051,-0.00877
0.35969,0.39558,-0.84507,0.0037,0.00239,-0.00718
0.35981,0.39563,-0.84499,0.00258,0.00425,-0.00492
0.36008,0.39563,-0.84488,-0.0004,0.00644,-0.00635
0.36036,0.39559,-0.84478,-0.00182,0.00558,-0.00561
0.36059,0.39551,-0.84471,-0.00226,0.00035,-0.00755
0.36096,0.39558,-0.84452,-0.00134,0.00218,-0.00887
0.36154,0.39579,-0.84418,-0.00384,0.00307,-0.00627
0.36231,0.39607,-0.84372,-0.00118,0.00571,-0.00394
0.36342,0.39641,-0.84308,0.00355,0.00233,-0.02081
0.36477,0.39724,-0.8421,-0.01049,0.008,-0.02444
0.36584,0.39835,-0.84112,-0.019,0.01635,-0.01141
0.3677,0.39902,-0.83999,0.00845,0.03766,-0.06001
0.37141,0.40059,-0.83761,-0.04284,-0.0083,-0.02657
0.37407,0.40122,-0.83612,-0.00096,0.06678,-0.02499
0.37672,0.40045,-0.8353,0.0138,0.05086,-0.00465
0.37903,0.39694,-0.83593,0.05496,0.06293,0.01763
0.38083,0.39199,-0.83744,0.05984,0.03932,0.01593
0.38296,0.3874,-0.83861,0.03036,0.0349,-0.00598
0.3862,0.3829,-0.83919,-0.01125,0.08159,-0.03066
0.38793,0.37618,-0.84143,-0.00399,0.08496,-0.01578
0.38942,0.36667,-0.84493,0.02055,0.02278,0.00806
0.39146,0.35647,-0.84834,0.05329,-0.13641,0.04248
0.39249,0.34954,-0.85075,0.01026,-0.10947,0.04586
0.39216,0.34414,-0.8531,-0.08563,-0.05491,0.01089
0.39255,0.3365,-0.85596,-0.01567,0.01713,-0.09834
0.39472,0.32805,-0.85824,0.01506,0.0388,-0.0551
0.39953,0.32105,-0.85867,0.03684,0.0302,-0.00643
0.40429,0.31683,-0.858,0.09326,-0.02571,0.01991
0.40809,0.31374,-0.85733,-0.00723,-0.02625,-0.03492
0.40984,0.31044,-0.85771,-0.05783,-0.03256,-0.02736
0.40928,0.30773,-0.85895,-0.07279,-0.10157,0.04904
0.40772,0.3057,-0.86041,-0.03934,-0.08025,0.05975
0.40649,0.30419,-0.86153,0.00119,-0.06173,0.06612
0.40332,0.30567,-0.8625,0.06303,-0.07389,0.10651
0.39412,0.31234,-0.86435,-0.02198,-0.13176,0.05216
0.38189,0.32359,-0.86571,-0.04964,-0.15802,-0.12815
0.37972,0.33595,-0.86195,0.12269,-0.13731,-0.70287
0.40325,0.35277,-0.84436,0.27355,-0.05105,-0.71241
0.41866,0.38017,-0.82474,-0.12229,-0.64486,0.00021
0.42721,0.41303,-0.8043,-0.04672,-0.79526,0.34231
0.44349,0.44637,-0.77722,0.42522,0.07828,-0.15032
0.45572,0.47753,-0.75119,0.27161,0.09093,-0.07025
0.4541,0.49952,-0.73774,0.27396,0.02996,-0.09226
0.44378,0.51531,-0.73316,-0.03212,-0.13721,0.05525
0.43138,0.52611,-0.73288,-0.1241,-0.01795,0.0183
0.42008,0.53322,-0.73431,-0.05689,0.1043,0.04864
0.41203,0.53843,-0.73507,-0.02586,0.0321,0.09307
0.40537,0.54102,-0.73686,-0.0508,-0.07996,0.09576
0.40277,0.54194,-0.73762,-0.03854,-0.04622,0.09158
0.4058,0.54209,-0.73584,-0.05242,0.07148,-0.011
0.41283,0.53981,-0.73361,-0.03144,0.08982,-0.00274
0.41964,0.53358,-0.7343,-0.06355,0.02112,0.10054
0.42595,0.52592,-0.73619,-0.07033,-0.15049,0.12451
0.43212,0.51685,-0.73901,-0.08448,-0.13863,0.15872
0.43712,0.50721,-0.74274,-0.08512,-0.05663,0.17104
0.44059,0.49815,-0.74681,-0.12265,-0.06663,0.29361
0.443,0.48926,-0.75124,-0.20756,-0.0711,0.32085
0.44575,0.4809,-0.75501,-0.27152,-0.0557,0.255
0.45282,0.47551,-0.75422,-0.33741,0.17916,0.213
0.46217,0.47078,-0.75151,-0.26344,0.29296,-0.03414
0.46884,0.46236,-0.75261,-0.19195,0.43045,0.04629
0.47723,0.45593,-0.75125,-0.05386,0.33043,-0.38242
0.48565,0.44921,-0.7499,0.15915,0.47021,-0.51011
0.49507,0.44477,-0.74638,0.48753,0.48141,-0.44673
0.49601,0.43711,-0.75027,0.1148,0.34521,-0.09241
0.49503,0.42987,-0.75509,-0.18826,0.02292,0.13598
0.48917,0.42273,-0.7629,-0.16774,-0.18584,0.18644
0.48246,0.41556,-0.77107,-0.08301,-0.19543,0.10191
0.47439,0.41107,-0.77844,-0.02465,-0.17543,0.05444
0.46536,0.40976,-0.78456,0.09987,-0.10184,-0.02181
0.4558,0.41041,-0.78982,0.13232,-0.03433,0.01481
0.44749,0.41226,-0.79359,0.11673,-0.03937,0.02428
0.44174,0.41454,-0.79563,0.09905,0.00545,0.01591
0.43729,0.41621,-0.79721,0.11113,-0.00355,0.01213
0.43324,0.41717,-0.79892,0.12241,-0.00945,-0.00444
0.43238,0.41954,-0.79815,-0.02753,-0.02994,-0.05323
0.43352,0.42414,-0.79509,-0.0885,-0.00892,-0.0395
0.43564,0.42864,-0.79151,-0.10503,0.01717,-0.02887
0.43844,0.43255,-0.78783,-0.06846,0.10016,-0.1018
0.44256,0.4363,-0.78344,-0.06222,0.11723,-0.11188
0.44716,0.43843,-0.77963,-0.04496,0.09104,-0.05687
0.45114,0.43793,-0.77762,-0.02971,0.03425,-0.02022
0.45445,0.43456,-0.77759,-0.01188,0.0085,-0.01418
0.45767,0.42939,-0.77857,0.0136,-0.03493,-0.04887
0.46084,0.42376,-0.77978,0.0062,-0.0354,-0.05257
0.46446,0.41865,-0.78039,-0.00556,0.00246,0.00483
0.46869,0.41424,-0.78021,-0.02204,-0.01902,0.0538
0.47167,0.41052,-0.78039,-0.0448,-0.05425,0.09673
0.47221,0.408,-0.78138,-0.08052,-0.04095,0.09617
0.47014,0.40643,-0.78344,-0.05631,0.00577,0.06167
0.46583,0.40503,-0.78673,-0.00941,-0.0367,0.03492
0.459,0.40576,-0.79036,0.1092,-0.20443,0.0008
0.45261,0.40962,-0.79206,0.0883,0.06786,-0.09541
0.44819,0.41147,-0.79361,0.03452,0.15094,-0.08116
0.4458,0.41183,-0.79477,-0.01555,0.01363,-0.01554
0.44503,0.41247,-0.79487,-0.07352,-0.06523,0.0057
0.44353,0.41394,-0.79494,-0.08092,-0.06769,0.00185
0.4414,0.41588,-0.79512,-0.04346,-0.03154,-0.02271
0.43919,0.41761,-0.79543,0.00022,0.05314,-0.05746
0.43758,0.41945,-0.79535,0.01992,0.04328,-0.05385
0.43681,0.42138,-0.79475,-0.02508,0.02695,-0.03169
0.43713,0.42239,-0.79404,-0.03113,0.01067,-0.01922
0.43768,0.42264,-0.79361,-0.02271,0.01674,-0.01149
0.43782,0.42274,-0.79348,0.00272,-0.00718,-0.00853
0.43761,0.42275,-0.79358,0.01324,-0.02089,0.00325
0.43699,0.42296,-0.79382,0.01175,-0.02443,0.00788
0.43612,0.42368,-0.79391,0.00133,-0.00854,0.00471
0.43535,0.42488,-0.79369,0.00062,-0.00467,-0.01081
0.43429,0.42594,-0.7937,0.00895,-0.00065,-0.00715
0.43312,0.42681,-0.79388,0.00559,-0.00143,-0.00727
0.43215,0.42793,-0.7938,-0.00525,-0.01051,-0.01244
0.43148,0.42959,-0.79327,0.01341,0.00064,-0.00797
0.43096,0.43161,-0.79245,0.04209,0.00692,0.01679
0.43104,0.43383,-0.7912,0.02054,0.01727,0.02614
0.4314,0.43578,-0.78993,0.02198,0.02531,0.01881
0.43173,0.43724,-0.78894,0.04645,0.02118,0.01722
0.43222,0.43843,-0.78801,0.05222,0.02816,0.00572
0.43275,0.43964,-0.78705,0.03655,0.01404,0.0115
0.43296,0.4406,-0.78639,0.02933,0.01942,0.01524
0.43302,0.44115,-0.78605,0.01421,0.01663,-0.00369
0.43266,0.44127,-0.78618,0.01671,0.012,-0.0115
0.432,0.44137,-0.78649,-0.04231,0.01621,-0.01406
0.43097,0.44133,-0.78708,-0.03091,0.00177,-0.00032
0.42967,0.44104,-0.78795,-0.03344,0.0026,-0.02246
0.42808,0.44046,-0.78914,-0.01876,0.00676,-0.02574
0.42644,0.43981,-0.79039,-0.01132,0.00851,-0.03108
0.42484,0.43939,-0.79148,-0.03027,-0.00676,-0.03043
0.42373,0.43906,-0.79226,-0.03092,-0.01049,-0.02697
0.42289,0.43886,-0.79282,-0.02332,-0.01929,-0.03443
0.42209,0.43905,-0.79314,-0.02474,-0.00722,-0.03984
0.42164,0.43971,-0.79301,0.0011,-0.01211,-0.01611
0.42191,0.44094,-0.79219,-0.06916,-0.01209,-0.02762
0.42209,0.44191,-0.79155,-0.02838,-0.00597,-0.01241
0.42217,0.44275,-0.79104,0.00349,0.01373,-0.00304
0.42252,0.44348,-0.79044,-0.0028,0.00971,-0.00287
0.42295,0.4439,-0.78997,0.00986,0.00423,0.00706
0.42335,0.44396,-0.78973,0.04744,0.03291,0.00752
0.42377,0.44391,-0.78953,0.02001,1e-05,0.00948
0.42435,0.44368,-0.78935,0.03583,0.02276,0.01217
0.42503,0.44344,-0.78912,0.02073,0.01322,0.00512
0.42595,0.44338,-0.78866,0.01796,0.00196,0.00668
0.42696,0.44357,-0.788,0.00617,0.00066,0.00504
0.42761,0.44391,-0.78746,0.00202,0.00473,0.0031
0.42781,0.44421,-0.78718,-0.00502,0.01445,-0.00014
0.42757,0.44443,-0.78719,-0.00518,0.01479,-0.00357
0.42693,0.44437,-0.78757,-0.00622,0.01213,-0.01106
0.42592,0.44412,-0.78826,-0.00553,-0.00094,-0.02125
0.42496,0.44385,-0.78893,-0.00763,-0.00503,-0.02421
0.42403,0.44384,-0.78943,-0.01471,-0.00872,-0.02236
0.42319,0.44402,-0.78978,-0.02184,-0.01406,-0.01778
0.42242,0.44425,-0.79007,-0.0175,-0.01247,-0.0231
0.42146,0.44448,-0.79045,-0.00537,-0.01495,-0.0197
0.42037,0.44492,-0.79078,-0.01429,-0.01504,-0.01169
0.41932,0.44544,-0.79104,-0.0169,0.00149,-0.013
0.41795,0.44613,-0.79138,-0.03346,-0.02882,-0.03226
0.41592,0.4467,-0.79213,-0.03579,-0.00508,-0.029
0.41403,0.44705,-0.79292,-0.01087,0.00771,-0.02419
0.41257,0.44753,-0.79341,0.01538,0.02574,-0.00783
0.41144,0.44819,-0.79362,0.00442,0.04065,-0.00917
0.4104,0.44826,-0.79412,0.01951,0.06666,-7e-05
0.40995,0.44791,-0.79456,-0.00431,0.03584,0.01047
0.41017,0.44731,-0.79478,0.01115,0.01585,0.02123
0.41093,0.44671,-0.79473,0.0288,0.02337,0.0123
0.41242,0.44598,-0.79436,0.03419,0.01574,0.01603
0.41438,0.44554,-0.79359,0.02927,0.00664,0.01736
0.41644,0.44533,-0.79263,0.03374,-0.0017,-0.00113
0.41825,0.44489,-0.79192,0.03088,-0.0083,-0.00831
0.42003,0.44472,-0.79107,0.00946,-0.02522,-0.00406
0.42178,0.44481,-0.79009,-0.00756,-0.01817,-0.0039
0.42303,0.44498,-0.78933,-0.01402,-0.00683,-0.00268
0.42395,0.44494,-0.78886,-0.01923,0.00681,-0.00344
0.42462,0.4445,-0.78874,-0.01642,0.02108,-0.03049
0.42499,0.44389,-0.78889,-0.01923,0.01351,-0.02789
0.42534,0.44336,-0.789,-0.02402,0.00759,-0.0241
0.4257,0.44302,-0.789,-0.01789,-0.02096,-0.02036
0.42589,0.44286,-0.78898,-0.01463,-0.04186,-0.02672
0.42574,0.44317,-0.78889,-0.00994,-0.036,-0.04729
0.42498,0.44386,-0.78891,-0.00609,0.03463,-0.00924
0.42535,0.44475,-0.78821,-0.06817,0.07058,-0.00088
0.42697,0.44547,-0.78693,-0.08284,0.06233,0.00225
0.42838,0.44552,-0.78613,-0.03188,-0.01248,0.01551
0.42865,0.44515,-0.78619,0.01164,-0.02609,-0.01626
0.4278,0.44412,-0.78724,0.03252,-0.02706,-0.02839
0.42681,0.44348,-0.78814,0.03866,-0.02566,0.00374
0.42691,0.44355,-0.78804,0.01869,-0.02575,0.0139
0.42814,0.44376,-0.78726,-0.00785,0.0074,-0.00296
0.42965,0.44361,-0.78652,-0.00297,0.0186,-0.01031
0.43101,0.4432,-0.78601,0.0092,0.03314,-0.01448
0.43242,0.44274,-0.78549,0.00132,0.03526,-0.00342
0.43413,0.44218,-0.78486,-0.00483,0.03881,-0.00275
0.43596,0.44155,-0.7842,-0.01109,0.02466,-0.0001
0.43749,0.44088,-0.78373,-0.01023,0.00125,0.00222
0.43836,0.43997,-0.78375,-0.00497,0.00104,-0.00039
0.43858,0.4388,-0.78429,0.00805,-0.0009,-0.00458
0.43821,0.43765,-0.78513,0.01101,-0.0128,-0.00535
0.43745,0.43679,-0.78604,0.00097,-0.01593,-0.00373
0.4366,0.43599,-0.78695,-0.00252,-0.0107,-0.00637
0.43564,0.43517,-0.78794,-0.00719,0.00259,-0.01214
0.4346,0.43439,-0.78894,-0.00842,0.00537,-0.01384
0.43355,0.43351,-0.79,-0.00579,0.00649,-0.01716
0.43255,0.43256,-0.79107,-0.01467,-0.00042,-0.01891
0.43191,0.43178,-0.79185,-0.02148,-0.01093,-0.02084
0.43161,0.43121,-0.79232,-0.02791,-0.02053,-0.01949
0.43158,0.43089,-0.79251,-0.02235,-0.01452,-0.01459
0.43174,0.43078,-0.79249,-0.01264,-0.01158,-0.0095
0.4316,0.43074,-0.79258,-0.00853,-0.00431,-0.01839
0.43142,0.43078,-0.79266,-0.01062,-0.0001,-0.02261
0.43155,0.43119,-0.79237,-0.0142,0.00112,-0.0087
0.43169,0.43177,-0.79197,-0.01377,-0.00141,-0.01422
0.43154,0.43225,-0.79179,-0.0164,0.00574,-0.01154
0.43124,0.43268,-0.79172,-0.01175,0.00995,-0.01022
0.4308,0.43293,-0.79182,-0.00814,0.01109,-0.00601
0.43009,0.43304,-0.79215,0.00852,0.01628,-0.00546
0.42918,0.43303,-0.79265,0.01952,0.02203,-0.0018
0.42807,0.43289,-0.79332,0.02429,0.01761,0.0042
0.4266,0.43267,-0.79424,0.01084,0.02049,0.0094
0.42481,0.43212,-0.79549,0.00378,0.02183,-0.00263
0.42294,0.43138,-0.79689,-0.0148,0.01417,-0.01858
0.42139,0.43083,-0.79801,-0.02593,-0.00293,-0.01498
0.42004,0.43057,-0.79886,-0.03276,-0.01592,-0.01924
0.4184,0.43037,-0.79983,-0.01863,-0.01809,-0.01476
0.41657,0.43021,-0.80087,0.00326,-0.03062,-0.01653
0.41517,0.43036,-0.80151,-0.0073,-0.02748,-0.00841
0.41453,0.43094,-0.80153,-0.0097,-0.02177,-0.0093
0.4142,0.43172,-0.80129,-0.00713,-0.00668,-0.01948
0.41404,0.43271,-0.80084,-0.00199,0.01065,-0.01815
0.41413,0.43407,-0.80005,-9e-05,0.0151,-0.01726
0.41461,0.43565,-0.79894,-0.00869,0.00797,-0.01263
0.41555,0.43717,-0.79762,-0.01866,0.01223,-0.00737
0.41668,0.43859,-0.79625,-0.0149,0.02109,-0.00396
0.41703,0.43955,-0.79554,-0.01122,0.02176,-0.00697
0.41593,0.43978,-0.79599,0.03033,0.04789,0.01559
0.412,0.43846,-0.79876,0.0246,0.03908,0.01877
0.40645,0.43583,-0.80303,0.0253,0.04227,0.0194
0.40112,0.43266,-0.80741,-0.00357,0.03329,0.00794
0.39604,0.42901,-0.81185,-0.00645,0.03086,0.00663
0.39124,0.42512,-0.81621,-0.03281,0.03289,-0.00115
0.38663,0.42069,-0.8207,-0.04216,0.02345,-0.01266
0.38236,0.4161,-0.82502,-0.04758,-0.01226,-0.01034
0.37937,0.41239,-0.82826,0.06514,-0.02746,-0.03749
0.37985,0.41088,-0.82879,0.04183,-0.02387,-0.04511
0.38098,0.41052,-0.82845,-0.00229,-0.03424,-0.02165
0.38087,0.41017,-0.82867,-0.03598,-0.04093,-0.0057
0.38122,0.41004,-0.82858,-0.03419,-0.03389,-0.00924
0.38294,0.41034,-0.82763,-0.01088,-5e-05,-0.02484
0.38512,0.41095,-0.82632,-0.00503,0.01964,-0.02256
0.38702,0.41171,-0.82505,-0.00743,0.02167,-0.0127
0.38851,0.4123,-0.82405,-0.01694,0.01529,-0.00166
0.39003,0.41266,-0.82316,-0.00789,0.01361,0.0035
0.39168,0.41284,-0.82228,-0.00261,0.01375,-0.00111
0.39329,0.41299,-0.82144,-0.00329,0.01395,-0.00531
0.39462,0.41323,-0.82068,0.00091,0.0106,-0.00262
0.39539,0.4134,-0.82022,0.00091,0.00991,-0.00148
0.39547,0.41326,-0.82025,0.00057,0.00896,-0.00369
0.39505,0.41281,-0.82068,-0.00188,0.008,-0.00791
0.39466,0.41226,-0.82115,-0.00309,0.0023,-0.01259
0.39452,0.41178,-0.82146,-0.00435,-0.00086,-0.01042
0.3945,0.4114,-0.82165,-0.00495,-0.00257,-0.01009
0.39463,0.41105,-0.82176,-0.00224,-0.00125,-0.00813
0.39485,0.41078,-0.8218,-0.00316,0.00255,-0.00713
0.39514,0.41054,-0.82178,-0.00665,0.00327,-0.00842
0.39553,0.41032,-0.8217,-0.00988,0.00316,-0.00911
0.39604,0.41022,-0.82151,-0.01144,0.00508,-0.00926
0.39661,0.41013,-0.82128,-0.01644,0.00738,-0.01104
0.39718,0.40997,-0.82108,-0.01006,0.00737,-0.01234
0.39766,0.40972,-0.82097,-0.00869,0.00649,-0.01268
0.39813,0.40942,-0.82089,-0.00786,0.0053,-0.01164
0.39863,0.40909,-0.82081,-0.00947,0.00453,-0.01374
0.39904,0.40874,-0.82079,-0.00599,0.00416,-0.0114
0.39931,0.40849,-0.82078,-0.00742,0.00011,-0.01252
0.39957,0.40838,-0.82071,-0.00944,-0.00029,-0.00721
0.39987,0.40831,-0.82061,-0.00916,-0.00285,-0.00757
0.40011,0.40827,-0.82051,-0.00695,-0.00246,-0.00837
0.40041,0.40834,-0.82032,-0.00603,0.00066,-0.0107
0.40075,0.40848,-0.82009,-0.00457,0.00226,-0.0088
0.40107,0.40857,-0.81988,-0.00509,0.00428,-0.00725
0.40132,0.40865,-0.81973,-0.00294,0.00548,-0.00465
0.40159,0.4087,-0.81957,-0.00441,0.00573,-0.00503
0.40183,0.40871,-0.81944,-0.00286,0.00699,-0.00742
0.40202,0.4087,-0.81935,-0.0038,0.00527,-0.00766
0.40219,0.40873,-0.81925,-0.00257,0.00379,-0.00716
0.40238,0.40882,-0.81912,-0.00207,-0.00063,-0.00979
0.40259,0.40894,-0.81896,-0.00551,0.00087,-0.01097
0.40264,0.409,-0.8189,-0.00512,0.002,-0.00806
0.40256,0.40903,-0.81893,-0.00749,0.00413,-0.00912
0.40245,0.40907,-0.81896,-0.00854,0.00414,-0.00907
0.40237,0.40908,-0.81899,-0.00768,0.00501,-0.01054
0.40228,0.40911,-0.81903,-0.00824,0.00331,-0.01101
0.40216,0.40909,-0.81909,-0.00978,0.00556,-0.00832
0.40203,0.40908,-0.81916,-0.00872,0.00222,-0.01005
0.40192,0.40907,-0.81922,-0.01006,0.00332,-0.00846
0.40178,0.40908,-0.81928,-0.01112,0.00063,-0.01107
0.40168,0.4091,-0.81932,-0.01029,0.00168,-0.01014
0.40159,0.40917,-0.81934,-0.00988,0.00258,-0.01152
0.40149,0.40926,-0.81934,-0.0112,0.00041,-0.00982
0.40138,0.40936,-0.81934,-0.00817,0.00228,-0.0093
0.40133,0.40947,-0.81931,-0.00599,0.00196,-0.00842
0.40127,0.40959,-0.81928,-0.00609,7e-05,-0.01036
0.40127,0.40975,-0.8192,-0.00834,0.00518,-0.01015
0.40136,0.40991,-0.81907,-0.00411,0.00412,-0.01139
0.40153,0.4101,-0.8189,-0.00747,0.00317,-0.00996
0.40164,0.41024,-0.81877,-0.00872,0.00505,-0.01041
0.40162,0.41032,-0.81874,-0.00881,0.003,-0.00897
0.40158,0.41038,-0.81873,-0.00695,0.00416,-0.01243
0.40157,0.41044,-0.81871,-0.00678,0.00159,-0.01134
0.40155,0.41049,-0.81869,-0.00792,0.00266,-0.00972
0.4015,0.41052,-0.8187,-0.00779,0.00197,-0.0122
0.4014,0.41053,-0.81875,-0.00934,0.0019,-0.01184
0.40136,0.41058,-0.81874,-0.00878,0.00419,-0.01349
0.40132,0.41065,-0.81873,-0.00849,0.00149,-0.01146
0.40127,0.41069,-0.81873,-0.00986,0.00201,-0.01019
0.40121,0.41071,-0.81875,-0.01003,0.00116,-0.00971
0.40106,0.41069,-0.81883,-0.00903,-0.00103,-0.01276
0.40098,0.41068,-0.81888,-0.00895,-0.00102,-0.01271
0.40093,0.4107,-0.81889,-0.0066,0.00266,-0.01479
0.40083,0.4108,-0.81889,-0.01477,-8e-05,-0.00752
0.40081,0.41091,-0.81884,-0.0141,-0.00224,-0.00785
0.40087,0.41103,-0.81875,-0.00967,0.00091,-0.01304
0.40102,0.41115,-0.81862,-0.0081,0.00331,-0.0139
0.4011,0.41124,-0.81853,-0.0086,0.003,-0.01444
0.4011,0.41126,-0.81853,-0.00821,0.00225,-0.01082
0.40109,0.41124,-0.81854,-0.01175,0.00029,-0.01253
0.40115,0.4112,-0.81853,-0.01141,0.00231,-0.01161
0.40118,0.41117,-0.81853,-0.01144,0.00312,-0.00828
0.40129,0.41119,-0.81847,-0.01172,0.00238,-0.01098
0.40145,0.4112,-0.81838,-0.01095,0.00128,-0.01031
0.40159,0.41122,-0.81831,-0.01089,-0.00114,-0.01249
0.40169,0.41123,-0.81825,-0.00902,-0.00086,-0.01088
0.4018,0.41126,-0.81818,-0.00756,0.00018,-0.01152
0.40187,0.4113,-0.81813,-0.00761,1e-05,-0.01108
0.40192,0.41128,-0.81811,-0.00947,0.00065,-0.011
0.40195,0.41122,-0.81813,-0.00867,-0.00171,-0.00998
0.40199,0.4112,-0.81812,-0.00793,0.00138,-0.01361
0.40208,0.41122,-0.81806,-0.01078,-0.0001,-0.01268
0.40216,0.41126,-0.81801,-0.01162,-0.00086,-0.0125
0.40217,0.41127,-0.818,-0.01057,-2e-05,-0.01188
0.40217,0.41128,-0.81799,-0.01163,0.00097,-0.01363
0.40218,0.41128,-0.81799,-0.01353,0.00176,-0.01421
0.40209,0.4113,-0.81802,-0.01113,0.00024,-0.01328
0.40203,0.41135,-0.81802,-0.00987,-0.00034,-0.01338
0.40201,0.41141,-0.818,-0.01221,-0.00162,-0.01291
0.40203,0.41146,-0.81797,-0.01043,0.0003,-0.01426
0.40206,0.41152,-0.81793,-0.0118,0.00058,-0.01432
0.40205,0.41156,-0.81791,-0.01011,-0.00177,-0.01373
0.40206,0.41158,-0.81789,-0.0078,-0.00219,-0.01333
0.4021,0.41163,-0.81785,-0.0078,-0.00142,-0.01285
0.40214,0.41167,-0.81781,-0.01047,-0.00052,-0.0127
0.40218,0.41173,-0.81776,-0.01012,-0.00087,-0.01427
0.40225,0.41184,-0.81767,-0.01259,0.00088,-0.01465
0.40237,0.41196,-0.81755,-0.01304,-6e-05,-0.01392
0.40245,0.41208,-0.81745,-0.0128,-0.00199,-0.01416
0.40251,0.41218,-0.81737,-0.01006,-0.00065,-0.01559
0.40254,0.41229,-0.8173,-0.01138,0.00106,-0.01447
0.40258,0.41241,-0.81722,-0.01245,0.0,-0.01297
0.40262,0.41254,-0.81714,-0.01216,-0.00068,-0.01521
0.4026,0.4126,-0.81712,-0.01246,-0.00151,-0.01504
0.40256,0.41265,-0.81711,-0.01234,-0.00132,-0.01622
0.40252,0.4127,-0.81711,-0.01241,0.00208,-0.01705
0.40242,0.41276,-0.81712,-0.01401,0.00104,-0.01123
0.40242,0.41283,-0.81708,-0.01567,0.00047,-0.01385
0.40251,0.41289,-0.81701,-0.01402,0.00022,-0.01745
0.40259,0.41297,-0.81693,-0.00986,-0.00318,-0.01723
0.40265,0.41308,-0.81685,-0.01159,-0.00591,-0.01476
0.40279,0.41318,-0.81673,-0.01108,-0.00417,-0.01414
0.4029,0.41324,-0.81664,-0.01104,-0.00435,-0.01531
0.40298,0.41329,-0.81658,-0.01234,-0.002,-0.01396
0.40312,0.41337,-0.81647,-0.01361,-0.00204,-0.01518
0.40334,0.41347,-0.81631,-0.01336,0.00028,-0.01656
0.40362,0.41356,-0.81612,-0.0149,0.00174,-0.01514
0.40403,0.41368,-0.81586,-0.01319,-0.00358,-0.01417
0.40451,0.41383,-0.81554,-0.01375,-0.00386,-0.01546
0.40495,0.41401,-0.81523,-0.01198,-0.00635,-0.01655
0.40524,0.41417,-0.81501,-0.0137,-0.00376,-0.0129
0.40539,0.4143,-0.81487,-0.01356,-0.00299,-0.01411
0.40553,0.41442,-0.81474,-0.01567,-0.00352,-0.01607
0.40573,0.41459,-0.81456,-0.01492,-0.0019,-0.01673
0.40597,0.41474,-0.81436,-0.01459,-0.00164,-0.01566
0.40617,0.41487,-0.81419,-0.01171,-0.00069,-0.01602
0.40632,0.41496,-0.81407,-0.01057,-0.00064,-0.01697
0.40646,0.41502,-0.81397,-0.01176,-0.00268,-0.01488
0.40651,0.41507,-0.81392,-0.01326,-0.00302,-0.01637
0.40649,0.41514,-0.81389,-0.01361,-0.00199,-0.01303
0.40649,0.41526,-0.81384,-0.01376,-0.00351,-0.01418
0.4065,0.41536,-0.81378,-0.01192,-0.0037,-0.01618
0.40651,0.41546,-0.81372,-0.01146,-0.00253,-0.01619
0.40652,0.41556,-0.81367,-0.01295,-0.00042,-0.01466
0.40657,0.41564,-0.8136,-0.0124,-0.0031,-0.01553
0.40659,0.41568,-0.81357,-0.01278,-0.00415,-0.0137
0.4066,0.41573,-0.81354,-0.01344,-0.00232,-0.01503
0.4066,0.41576,-0.81352,-0.01442,-0.00495,-0.01602
0.40663,0.41583,-0.81347,-0.01465,-0.00495,-0.01891
0.40667,0.41589,-0.81342,-0.01607,-0.00419,-0.01612
0.40663,0.41592,-0.81343,-0.01546,-0.00318,-0.01941
0.4066,0.41593,-0.81344,-0.01658,-0.00374,-0.01839
0.40658,0.41593,-0.81345,-0.01549,-0.00378,-0.01776
0.40654,0.41593,-0.81347,-0.01555,-0.00405,-0.01821
0.40652,0.41599,-0.81345,-0.01534,-0.00515,-0.01704
0.40655,0.41607,-0.81339,-0.0137,-0.00472,-0.01985
0.40664,0.41619,-0.81328,-0.01426,-0.00427,-0.01893
0.40673,0.41631,-0.81317,-0.01482,-0.00561,-0.01869
0.40685,0.41642,-0.81306,-0.01424,-0.00322,-0.015
0.40695,0.41652,-0.81296,-0.0145,-0.00415,-0.01383
0.40701,0.41657,-0.8129,-0.01441,-0.00358,-0.01681
0.40699,0.41659,-0.8129,-0.01275,-0.00558,-0.0182
0.40691,0.41661,-0.81294,-0.01194,-0.00497,-0.01693
0.40679,0.4166,-0.813,-0.01463,-0.00303,-0.02011
0.40665,0.41663,-0.81305,-0.0162,-0.00478,-0.01543
0.40665,0.41668,-0.81303,-0.0192,-0.00614,-0.01693
0.40669,0.41671,-0.81299,-0.01709,-0.00588,-0.01969
0.40674,0.41679,-0.81293,-0.01613,-0.00591,-0.02107
0.4068,0.41692,-0.81283,-0.01472,-0.00794,-0.01845
0.40688,0.417,-0.81275,-0.01585,-0.00759,-0.01727
0.40692,0.41703,-0.81271,-0.01545,-0.00585,-0.01675
0.407,0.41709,-0.81264,-0.01531,-0.00498,-0.01725
0.40712,0.41713,-0.81256,-0.01633,-0.00321,-0.0164
0.40731,0.41719,-0.81243,-0.01516,-0.00517,-0.01969
0.40752,0.41725,-0.8123,-0.0169,-0.00328,-0.02034
0.4077,0.41729,-0.81219,-0.01769,-0.00583,-0.01671
0.40782,0.41732,-0.81211,-0.01584,-0.00669,-0.01824
0.40782,0.4173,-0.81212,-0.01486,-0.00675,-0.01601
0.40772,0.41729,-0.81218,-0.01426,-0.00533,-0.01707
0.40768,0.41732,-0.81218,-0.01445,-0.00534,-0.01887
0.4077,0.41735,-0.81216,-0.01669,-0.0069,-0.01902
0.40768,0.41737,-0.81216,-0.0145,-0.00651,-0.01963
0.40772,0.41741,-0.81212,-0.01645,-0.00571,-0.01877
0.40775,0.41745,-0.81208,-0.01645,-0.00489,-0.01599
0.40775,0.41742,-0.8121,-0.01727,-0.00446,-0.01992
0.40773,0.4174,-0.81212,-0.01908,-0.00585,-0.01796
0.4077,0.41742,-0.81212,-0.01477,-0.00577,-0.01971
0.4077,0.41745,-0.8121,-0.01998,-0.00749,-0.02051
0.40771,0.41751,-0.81207,-0.01652,-0.00779,-0.01872
0.40773,0.41758,-0.81202,-0.01716,-0.0074,-0.01902
0.40774,0.41766,-0.81198,-0.01542,-0.00614,-0.0183
0.40775,0.41773,-0.81194,-0.01613,-0.00628,-0.02003
0.40777,0.41782,-0.81188,-0.01637,-0.00574,-0.01884
0.40783,0.41786,-0.81183,-0.01539,-0.00694,-0.01904
0.40784,0.41789,-0.81181,-0.01479,-0.00686,-0.01972
0.40785,0.41793,-0.81178,-0.01346,-0.0089,-0.02005
0.40789,0.41799,-0.81173,-0.01341,-0.00822,-0.01838
0.40791,0.41804,-0.8117,-0.01522,-0.0059,-0.01841
0.40787,0.41806,-0.8117,-0.01736,-0.00675,-0.02016
0.40788,0.41811,-0.81167,-0.01728,-0.00682,-0.02065
0.40795,0.41816,-0.81161,-0.0195,-0.00628,-0.02134
0.40797,0.4182,-0.81158,-0.01673,-0.00693,-0.01657
0.40793,0.41825,-0.81158,-0.01729,-0.00702,-0.02111
0.40791,0.41831,-0.81156,-0.01594,-0.00565,-0.01999
0.40791,0.41837,-0.81153,-0.0171,-0.00895,-0.02119
0.40797,0.41842,-0.81147,-0.01688,-0.00677,-0.02239
0.40799,0.41845,-0.81145,-0.01657,-0.00571,-0.01976
0.40795,0.41847,-0.81146,-0.01713,-0.00549,-0.02137
0.40805,0.41851,-0.81138,-0.01859,-0.00754,-0.01952
0.40818,0.41852,-0.81131,-0.0186,-0.00643,-0.02134
0.40826,0.41855,-0.81126,-0.01739,-0.0054,-0.02176
0.40836,0.41856,-0.81121,-0.01804,-0.00719,-0.02003
0.40842,0.41855,-0.81118,-0.01929,-0.00808,-0.01808
0.40845,0.41852,-0.81118,-0.01723,-0.00747,-0.02047
0.40841,0.41853,-0.81119,-0.01654,-0.00897,-0.02082
0.40838,0.41857,-0.81118,-0.01817,-0.00906,-0.01987
0.40836,0.41865,-0.81116,-0.01282,-0.01069,-0.02065
0.40833,0.41877,-0.81111,-0.01071,-0.00985,-0.01934
0.40838,0.41898,-0.81098,-0.01168,-0.00786,-0.0184
0.40856,0.4192,-0.81077,-0.01557,-0.00914,-0.01787
0.40876,0.41941,-0.81056,-0.01666,-0.00631,-0.02252
0.40893,0.4196,-0.81038,-0.01769,-0.0046,-0.01877
0.40902,0.41972,-0.81027,-0.02039,-0.00285,-0.01866
0.40907,0.41977,-0.81022,-0.02116,-0.00402,-0.02131
0.40908,0.41977,-0.81022,-0.02176,-0.00432,-0.01905
0.40901,0.41969,-0.81029,-0.02194,-0.00666,-0.02238
0.40885,0.41956,-0.81044,-0.01868,-0.00756,-0.02176
0.40866,0.41944,-0.8106,-0.01826,-0.00797,-0.02
0.40845,0.41939,-0.81073,-0.0171,-0.00537,-0.02177
0.40824,0.41933,-0.81086,-0.01785,-0.01002,-0.01729
0.40818,0.41932,-0.8109,-0.01756,-0.00996,-0.01916
0.4082,0.41936,-0.81087,-0.01669,-0.00973,-0.02252
0.40821,0.4194,-0.81084,-0.01206,-0.01608,-0.02047
0.40831,0.4195,-0.81074,-0.01107,-0.01421,-0.02135
0.40846,0.4196,-0.81061,-0.01262,-0.01288,-0.02124
0.40864,0.41966,-0.81049,-0.01667,-0.00888,-0.01971
0.40887,0.41979,-0.81031,-0.01583,-0.00744,-0.02018
0.40911,0.41995,-0.8101,-0.01763,-0.00612,-0.01979
0.40938,0.4201,-0.80989,-0.02347,-0.00283,-0.02131
0.40961,0.42022,-0.80971,-0.02506,-0.00287,-0.02152
0.40967,0.42024,-0.80967,-0.0228,-0.00394,-0.0196
0.40965,0.42019,-0.80971,-0.01866,-0.00595,-0.02162
0.40952,0.4201,-0.80982,-0.01754,-0.00664,-0.01974
0.40931,0.41998,-0.80999,-0.0171,-0.00895,-0.02345
0.40915,0.41986,-0.81013,-0.01691,-0.01287,-0.02169
0.40904,0.41978,-0.81023,-0.01529,-0.01098,-0.02084
0.40904,0.41976,-0.81024,-0.01463,-0.01307,-0.02321
0.40915,0.41979,-0.81017,-0.01645,-0.01383,-0.02054
0.40928,0.41984,-0.81008,-0.01671,-0.0108,-0.02106
0.4094,0.41983,-0.81002,-0.01822,-0.01036,-0.02158
0.40948,0.41985,-0.80997,-0.02087,-0.00806,-0.01876
0.40954,0.4199,-0.80991,-0.01922,-0.00944,-0.01901
0.40957,0.41995,-0.80987,-0.01782,-0.00732,-0.02152
0.4096,0.42004,-0.80981,-0.01887,-0.00662,-0.01961
0.40965,0.42012,-0.80975,-0.01847,-0.00601,-0.02117
0.40966,0.42016,-0.80972,-0.01989,-0.00857,-0.01947
0.40963,0.42016,-0.80973,-0.0177,-0.00846,-0.02164
0.40961,0.42012,-0.80976,-0.0156,-0.01071,-0.02267
0.40959,0.42007,-0.8098,-0.01513,-0.00929,-0.02179
0.40956,0.42002,-0.80984,-0.01665,-0.01168,-0.02155
0.40958,0.42002,-0.80983,-0.01728,-0.01116,-0.0215
0.40962,0.42005,-0.80979,-0.01758,-0.01063,-0.02164
0.4097,0.42012,-0.80971,-0.01781,-0.00988,-0.02056
0.4098,0.4202,-0.80963,-0.01989,-0.00805,-0.02106
0.40984,0.42024,-0.80958,-0.01882,-0.00916,-0.01927
0.40987,0.42031,-0.80953,-0.0174,-0.0094,-0.02184
0.40991,0.4204,-0.80947,-0.01817,-0.00932,-0.02325
0.40997,0.42051,-0.80938,-0.01961,-0.01009,-0.02
0.40998,0.42063,-0.80931,-0.01847,-0.008,-0.02254
0.41,0.42077,-0.80923,-0.0164,-0.00794,-0.02242
0.41001,0.42087,-0.80917,-0.01843,-0.00936,-0.02118
0.41008,0.42099,-0.80908,-0.01945,-0.00889,-0.02021
0.41014,0.4211,-0.80899,-0.01818,-0.0094,-0.02312
0.41018,0.42121,-0.80891,-0.01882,-0.00939,-0.02251
0.41025,0.42133,-0.80881,-0.01741,-0.00873,-0.02213
0.41032,0.42144,-0.80872,-0.01805,-0.00939,-0.0215
0.41037,0.42154,-0.80864,-0.01952,-0.0102,-0.02162
0.41038,0.42164,-0.80859,-0.01916,-0.01006,-0.0223
0.41038,0.42173,-0.80854,-0.01718,-0.00906,-0.02246
0.41037,0.42179,-0.80851,-0.01646,-0.00797,-0.02094
0.41036,0.42184,-0.80849,-0.01723,-0.01108,-0.02048
0.41038,0.42191,-0.80844,-0.01817,-0.01082,-0.02171
0.41045,0.42201,-0.80836,-0.01672,-0.01209,-0.02464
0.41049,0.42211,-0.80829,-0.01891,-0.00886,-0.02031
0.41058,0.42222,-0.80818,-0.01974,-0.01136,-0.02168
0.41061,0.42228,-0.80813,-0.02026,-0.00918,-0.02129
0.41061,0.4223,-0.80812,-0.01799,-0.00903,-0.02205
0.41063,0.42235,-0.80809,-0.01848,-0.01177,-0.02229
0.41062,0.42239,-0.80807,-0.01999,-0.00902,-0.02393
0.41061,0.42246,-0.80804,-0.02009,-0.00805,-0.02196
0.4106,0.42261,-0.80797,-0.0228,-0.00987,-0.01883
0.4107,0.42278,-0.80783,-0.0205,-0.00901,-0.02388
0.41082,0.42295,-0.80768,-0.01786,-0.0096,-0.02609
0.41088,0.42305,-0.80759,-0.01443,-0.00907,-0.02153
0.41088,0.4231,-0.80757,-0.01592,-0.01111,-0.02167
0.41085,0.42303,-0.80762,-0.01751,-0.01233,-0.02294
0.41078,0.42292,-0.80771,-0.01808,-0.0131,-0.01864
0.41073,0.42283,-0.80778,-0.02048,-0.01016,-0.02164
0.41074,0.4228,-0.80779,-0.02215,-0.00979,-0.02401
0.4108,0.42278,-0.80777,-0.02109,-0.006,-0.02142
0.41085,0.42277,-0.80775,-0.02221,-0.01011,-0.02119
0.4109,0.42275,-0.80774,-0.0215,-0.00771,-0.02391
0.41088,0.42271,-0.80777,-0.02042,-0.00999,-0.0227
0.41078,0.42266,-0.80785,-0.01897,-0.01093,-0.02381
0.41061,0.42257,-0.80798,-0.01663,-0.01184,-0.02458
0.4105,0.42248,-0.80809,-0.019,-0.01215,-0.02223
0.41047,0.42238,-0.80815,-0.02005,-0.01392,-0.02347
0.41049,0.42231,-0.80817,-0.01766,-0.01362,-0.02349
0.41053,0.42225,-0.80819,-0.01797,-0.00952,-0.02246
0.4106,0.42219,-0.80819,-0.01972,-0.00988,-0.02351
0.41063,0.42208,-0.80823,-0.01883,-0.00881,-0.02239
0.41068,0.42201,-0.80824,-0.01888,-0.00875,-0.02238
0.41066,0.42195,-0.80828,-0.02098,-0.00693,-0.02203
0.41058,0.42189,-0.80835,-0.0183,-0.00725,-0.02249
0.41045,0.42183,-0.80845,-0.02097,-0.00874,-0.02332
0.41028,0.42172,-0.80859,-0.02174,-0.01086,-0.02203
0.41015,0.42164,-0.8087,-0.02005,-0.01346,-0.02344
0.41008,0.42157,-0.80877,-0.01923,-0.01323,-0.02483
0.41003,0.42154,-0.80881,-0.01735,-0.0136,-0.02076
0.41002,0.42154,-0.80882,-0.0185,-0.01366,-0.02349
0.41007,0.42154,-0.80879,-0.0184,-0.01369,-0.02196
0.4101,0.42157,-0.80876,-0.01886,-0.01256,-0.02328
0.4102,0.42164,-0.80868,-0.01992,-0.0092,-0.02349
0.41035,0.42172,-0.80856,-0.02125,-0.00849,-0.0201
0.41047,0.42176,-0.80848,-0.01968,-0.00773,-0.02342
0.41055,0.42179,-0.80842,-0.02192,-0.00864,-0.02392
0.41061,0.42181,-0.80838,-0.0215,-0.0119,-0.02291
0.41063,0.42182,-0.80836,-0.02088,-0.01052,-0.0235
0.41062,0.42182,-0.80837,-0.01961,-0.01095,-0.02398
0.4106,0.42182,-0.80838,-0.0192,-0.01184,-0.02347
0.41058,0.42178,-0.80841,-0.01713,-0.01091,-0.02219
0.41056,0.42175,-0.80844,-0.01742,-0.01142,-0.02437
0.41055,0.42171,-0.80846,-0.01779,-0.01105,-0.02377
0.41059,0.42171,-0.80844,-0.02051,-0.01163,-0.02331
0.41064,0.42171,-0.80842,-0.02044,-0.01235,-0.02261
0.41063,0.42173,-0.80841,-0.01951,-0.01236,-0.02353
0.41059,0.42172,-0.80844,-0.01966,-0.01098,-0.02294
0.41049,0.42172,-0.80849,-0.01805,-0.01129,-0.02329
0.41042,0.42173,-0.80852,-0.02123,-0.01139,-0.01904
0.41039,0.42173,-0.80853,-0.01844,-0.00965,-0.02303
0.41035,0.42172,-0.80856,-0.01833,-0.0117,-0.02382
0.41027,0.42169,-0.80861,-0.02131,-0.01021,-0.02305
0.41018,0.42165,-0.80868,-0.02125,-0.01129,-0.02527
0.41007,0.42165,-0.80873,-0.02071,-0.01076,-0.02133
0.41004,0.42168,-0.80873,-0.02244,-0.01099,-0.02254
0.41005,0.42172,-0.80871,-0.02139,-0.0117,-0.02468
0.41008,0.42176,-0.80868,-0.02083,-0.01151,-0.02622
0.41012,0.42179,-0.80864,-0.01966,-0.01231,-0.02344
0.41017,0.42182,-0.8086,-0.0185,-0.01303,-0.02299
0.41024,0.42181,-0.80857,-0.01857,-0.01391,-0.02191
0.41035,0.42182,-0.80851,-0.01765,-0.01087,-0.02244
0.4105,0.42186,-0.80841,-0.01818,-0.01045,-0.02271
0.41068,0.42189,-0.8083,-0.02114,-0.00921,-0.02417
0.41087,0.42191,-0.80819,-0.02385,-0.00818,-0.02392
0.411,0.42189,-0.80814,-0.02192,-0.00986,-0.02284
0.41105,0.42184,-0.80814,-0.02171,-0.01056,-0.02151
0.41107,0.42178,-0.80816,-0.02013,-0.01126,-0.0229
0.41101,0.42171,-0.80823,-0.01819,-0.01063,-0.02237
0.41088,0.42164,-0.80833,-0.01937,-0.01289,-0.02224
0.41078,0.42159,-0.80841,-0.01838,-0.01347,-0.02045
0.41073,0.42155,-0.80846,-0.01937,-0.01124,-0.02525
0.41071,0.42154,-0.80847,-0.0205,-0.01275,-0.02495
0.41072,0.42156,-0.80846,-0.01957,-0.01244,-0.02188
0.41074,0.42156,-0.80844,-0.01963,-0.01262,-0.02428
0.41075,0.42156,-0.80843,-0.01952,-0.01039,-0.02409
0.41081,0.42162,-0.80838,-0.02175,-0.01175,-0.02425
0.41086,0.42168,-0.80832,-0.01947,-0.01172,-0.02178
0.41093,0.42179,-0.80823,-0.02096,-0.01113,-0.02415
0.41101,0.42197,-0.80809,-0.01757,-0.01213,-0.02644
0.4111,0.42221,-0.80792,-0.01889,-0.01136,-0.02489
0.41122,0.42245,-0.80773,-0.01879,-0.01258,-0.02468
0.41132,0.42272,-0.80754,-0.01772,-0.01315,-0.02165
0.41136,0.42296,-0.80739,-0.01628,-0.0133,-0.02201
0.41145,0.42314,-0.80726,-0.01999,-0.00999,-0.02229
0.41163,0.42326,-0.8071,-0.01802,-0.01021,-0.02428
0.41183,0.42331,-0.80697,-0.02076,-0.01021,-0.02471
0.41201,0.42327,-0.8069,-0.0237,-0.00883,-0.02226
0.41213,0.42322,-0.80687,-0.02658,-0.01033,-0.02547
0.41215,0.42309,-0.80692,-0.02228,-0.01213,-0.02409
0.41209,0.423,-0.807,-0.02027,-0.01341,-0.01871
0.41206,0.42301,-0.80701,-0.02032,-0.01212,-0.02227
0.4121,0.42302,-0.80699,-0.01679,-0.00707,-0.02552
0.4121,0.42305,-0.80697,-0.01757,-0.00878,-0.02395
0.41214,0.42306,-0.80695,-0.0169,-0.01175,-0.02307
0.41225,0.42302,-0.80691,-0.0182,-0.01022,-0.02388
0.41235,0.42294,-0.8069,-0.01834,-0.0114,-0.02136
0.41243,0.42289,-0.80688,-0.02106,-0.01101,-0.02393
0.41247,0.4228,-0.80692,-0.01998,-0.01067,-0.02516
0.41244,0.42274,-0.80696,-0.02085,-0.01307,-0.02353
0.4124,0.42271,-0.807,-0.02081,-0.01078,-0.02336
0.41233,0.42271,-0.80703,-0.02056,-0.01043,-0.02523
0.41227,0.42272,-0.80706,-0.01818,-0.00971,-0.02479
0.41225,0.42273,-0.80706,-0.02037,-0.01105,-0.02289
0.41226,0.42272,-0.80706,-0.01948,-0.01209,-0.02474
0.41229,0.42271,-0.80705,-0.01951,-0.01333,-0.02446
0.41229,0.4227,-0.80706,-0.01894,-0.01326,-0.0245
0.41229,0.42268,-0.80707,-0.02052,-0.0139,-0.02396
0.41228,0.42264,-0.80709,-0.02019,-0.01262,-0.02279
0.4123,0.42263,-0.80709,-0.02072,-0.0098,-0.02629
0.41233,0.42269,-0.80704,-0.01921,-0.0088,-0.02376
0.41239,0.42276,-0.80697,-0.02311,-0.00967,-0.02132
0.41252,0.42282,-0.80688,-0.02165,-0.01143,-0.02235
0.41267,0.42288,-0.80677,-0.02036,-0.01312,-0.02351
0.41278,0.42294,-0.80668,-0.01903,-0.013,-0.02534
0.41284,0.42299,-0.80663,-0.02014,-0.01219,-0.02401
0.41281,0.42296,-0.80666,-0.01804,-0.01156,-0.01873
0.41281,0.42292,-0.80668,-0.02024,-0.012,-0.02224
0.41288,0.42292,-0.80664,-0.01844,-0.00977,-0.0249
0.41297,0.42293,-0.80659,-0.02019,-0.00854,-0.02225
0.41303,0.42288,-0.80658,-0.02293,-0.00921,-0.02423
0.41309,0.42287,-0.80656,-0.02277,-0.01087,-0.02349
0.41312,0.42285,-0.80656,-0.02204,-0.01118,-0.02348
0.41307,0.42279,-0.80661,-0.0212,-0.01454,-0.02709
0.41304,0.42274,-0.80665,-0.02218,-0.01053,-0.02543
0.41297,0.4227,-0.80671,-0.02134,-0.01149,-0.02513
0.41291,0.42264,-0.80677,-0.02091,-0.01285,-0.02536
0.41294,0.42264,-0.80676,-0.02161,-0.01339,-0.02442
0.41299,0.42264,-0.80673,-0.02164,-0.0141,-0.02333
0.41302,0.42266,-0.8067,-0.01984,-0.01325,-0.02534
0.41304,0.42268,-0.80668,-0.02004,-0.01117,-0.02363
0.41301,0.42268,-0.8067,-0.01921,-0.01251,-0.0246
0.41298,0.42267,-0.80672,-0.02011,-0.01234,-0.02291
0.41302,0.42272,-0.80667,-0.02097,-0.01031,-0.02362
0.41309,0.42278,-0.80661,-0.02086,-0.01028,-0.02431
0.41311,0.4228,-0.80658,-0.02138,-0.01014,-0.0245
0.41309,0.42281,-0.80659,-0.02295,-0.01068,-0.0219
0.41306,0.42278,-0.80663,-0.01952,-0.01369,-0.02516
0.41303,0.42276,-0.80664,-0.01862,-0.01127,-0.02284
0.41299,0.42275,-0.80668,-0.01873,-0.00977,-0.0241
0.41286,0.42268,-0.80677,-0.01787,-0.0137,-0.02259
0.41276,0.42259,-0.80687,-0.01679,-0.01277,-0.02255
0.41265,0.42252,-0.80697,-0.01737,-0.01184,-0.02294
0.41258,0.42246,-0.80703,-0.01909,-0.01287,-0.02542
0.41254,0.42242,-0.80708,-0.02166,-0.0137,-0.02332
0.41247,0.42237,-0.80714,-0.01878,-0.0115,-0.02515
0.41244,0.42233,-0.80717,-0.02541,-0.01141,-0.02368
0.41244,0.42231,-0.80719,-0.02607,-0.01033,-0.02448
0.41244,0.42229,-0.80719,-0.02237,-0.0098,-0.02591
0.41243,0.42227,-0.80721,-0.02348,-0.01291,-0.02308
0.41237,0.42224,-0.80726,-0.02112,-0.01231,-0.02741
0.41227,0.42221,-0.80733,-0.02196,-0.01141,-0.02591
0.41214,0.42217,-0.80741,-0.02074,-0.01259,-0.02566
0.4121,0.42218,-0.80743,-0.01899,-0.01564,-0.02569
0.4121,0.42224,-0.80739,-0.0194,-0.01462,-0.02325
0.41221,0.42238,-0.80727,-0.01972,-0.01319,-0.02301
0.41236,0.42253,-0.80711,-0.01808,-0.0121,-0.0235
0.41254,0.42267,-0.80694,-0.01836,-0.01152,-0.02507
0.4127,0.42277,-0.80681,-0.01876,-0.01032,-0.02171
0.41282,0.42285,-0.80671,-0.02213,-0.01075,-0.02193
0.41284,0.42285,-0.80669,-0.02236,-0.01041,-0.02369
0.41281,0.42283,-0.80673,-0.02258,-0.00976,-0.02344
0.41273,0.4228,-0.80678,-0.02082,-0.01022,-0.02226
0.41269,0.4228,-0.8068,-0.02193,-0.01064,-0.02123
0.41265,0.42279,-0.80683,-0.02056,-0.01121,-0.024
0.41253,0.42273,-0.80692,-0.01673,-0.01413,-0.02767
0.41242,0.42274,-0.80697,-0.01934,-0.01342,-0.02402
0.41234,0.42273,-0.80701,-0.02007,-0.01717,-0.02111
0.41231,0.42274,-0.80702,-0.02004,-0.01463,-0.02482
0.41224,0.42279,-0.80703,-0.01542,-0.01198,-0.02802
0.41223,0.42286,-0.80701,-0.02069,-0.01374,-0.02444
0.41235,0.42291,-0.80692,-0.02195,-0.01075,-0.027
0.4124,0.42299,-0.80685,-0.02195,-0.0107,-0.02331
0.41247,0.42312,-0.80675,-0.02604,-0.01125,-0.02348
0.41263,0.42327,-0.80658,-0.02427,-0.00896,-0.02269
0.41277,0.42342,-0.80643,-0.02332,-0.00619,-0.02465
0.41272,0.42346,-0.80644,-0.0211,-0.0085,-0.02555
0.41257,0.42339,-0.80655,-0.01928,-0.00919,-0.02427
0.41239,0.42326,-0.80671,-0.01885,-0.01153,-0.02143
0.41216,0.42311,-0.80691,-0.01672,-0.01395,-0.0209
0.41206,0.42302,-0.807,-0.01459,-0.01538,-0.02327
0.41215,0.42308,-0.80693,-0.0162,-0.01561,-0.02354
0.41234,0.42321,-0.80676,-0.01755,-0.01516,-0.0245
0.41258,0.42336,-0.80656,-0.02156,-0.01296,-0.02118
0.41286,0.42355,-0.80632,-0.02059,-0.01124,-0.02303
0.41306,0.42368,-0.80615,-0.02233,-0.01015,-0.02261
0.41314,0.42369,-0.8061,-0.02191,-0.00659,-0.02604
0.41314,0.42366,-0.80612,-0.02345,-0.00954,-0.02537
0.4131,0.42364,-0.80615,-0.02362,-0.01182,-0.02672
0.41306,0.42365,-0.80617,-0.02034,-0.01178,-0.0271
0.41305,0.4237,-0.80614,-0.01983,-0.01396,-0.0247
0.41305,0.42379,-0.8061,-0.02018,-0.01279,-0.02529
0.41307,0.42388,-0.80604,-0.01729,-0.01438,-0.02517
0.4131,0.424,-0.80596,-0.01733,-0.01176,-0.02362
0.41313,0.4241,-0.80589,-0.01692,-0.00964,-0.02285
0.41317,0.42418,-0.80583,-0.01864,-0.0096,-0.02245
0.41315,0.42424,-0.80581,-0.02116,-0.00915,-0.02567
0.41311,0.42424,-0.80583,-0.02335,-0.00922,-0.02193
0.41305,0.42424,-0.80586,-0.0192,-0.00968,-0.02509
0.41297,0.42424,-0.8059,-0.02146,-0.01341,-0.0259
0.41283,0.4242,-0.80599,-0.02173,-0.0133,-0.02338
0.41269,0.42419,-0.80607,-0.01993,-0.01291,-0.02368
0.41262,0.42419,-0.80611,-0.02091,-0.01348,-0.02478
0.41265,0.42422,-0.80608,-0.02207,-0.01157,-0.02399
0.41265,0.42424,-0.80606,-0.02342,-0.01236,-0.02251
0.41258,0.42421,-0.80611,-0.02024,-0.01095,-0.0238
0.41255,0.42416,-0.80616,-0.02073,-0.01283,-0.02241
0.41255,0.4241,-0.80619,-0.02095,-0.01303,-0.02313
0.41252,0.42404,-0.80624,-0.02086,-0.01022,-0.0232
0.41246,0.42397,-0.80631,-0.01989,-0.01027,-0.0255
0.41237,0.42389,-0.80639,-0.01863,-0.01008,-0.02346
0.41229,0.42378,-0.80649,-0.01814,-0.00998,-0.02275
0.41218,0.42364,-0.80662,-0.01923,-0.01023,-0.02268
0.4121,0.42352,-0.80672,-0.02003,-0.01009,-0.02134
0.4121,0.42342,-0.80678,-0.01791,-0.0112,-0.02097
0.41211,0.42333,-0.80682,-0.01964,-0.01371,-0.02277
0.41213,0.42327,-0.80684,-0.01931,-0.01249,-0.02533
0.41222,0.42323,-0.80681,-0.02363,-0.01257,-0.02586
0.4123,0.4232,-0.80679,-0.02595,-0.01539,-0.02614
0.41232,0.42317,-0.80679,-0.02185,-0.01336,-0.02554
0.4124,0.42318,-0.80675,-0.02168,-0.01381,-0.02501
0.41246,0.42324,-0.80669,-0.02008,-0.01186,-0.02453
0.41236,0.42327,-0.80672,-0.01686,-0.01198,-0.02154
0.4122,0.42324,-0.80682,-0.01725,-0.00818,-0.02344
0.41202,0.42316,-0.80695,-0.01626,-0.01255,-0.02002
0.41192,0.42307,-0.80705,-0.01684,-0.01141,-0.02454
0.41188,0.42301,-0.80711,-0.01603,-0.01296,-0.02541
0.41178,0.42298,-0.80717,-0.01765,-0.01002,-0.02701
0.41167,0.42299,-0.80722,-0.02332,-0.00936,-0.02098
0.41165,0.42296,-0.80725,-0.02517,-0.01001,-0.02173
0.41152,0.42286,-0.80737,-0.02226,-0.01188,-0.02373
0.41135,0.42278,-0.8075,-0.01943,-0.0139,-0.02565
0.41128,0.42271,-0.80757,-0.0232,-0.01295,-0.02249
0.4112,0.42258,-0.80768,-0.02298,-0.01476,-0.02353
0.41111,0.42244,-0.8078,-0.0218,-0.01338,-0.0242
0.41102,0.42233,-0.8079,-0.02116,-0.01199,-0.02414
0.41101,0.42228,-0.80793,-0.02218,-0.0111,-0.02369
0.41108,0.42225,-0.80791,-0.02412,-0.00883,-0.0251
0.41114,0.42222,-0.80789,-0.02247,-0.01144,-0.02048
0.41118,0.4222,-0.80789,-0.02262,-0.01391,-0.02543
0.41114,0.42224,-0.80789,-0.01924,-0.01209,-0.02312
0.41109,0.42239,-0.80783,-0.01665,-0.01704,-0.02298
0.41117,0.42265,-0.80766,-0.01356,-0.01739,-0.02444
0.41137,0.42297,-0.80738,-0.01525,-0.0145,-0.02282
0.41162,0.42333,-0.80707,-0.0146,-0.01158,-0.02306
0.41191,0.42358,-0.80679,-0.01997,-0.00562,-0.02065
0.41221,0.4237,-0.80658,-0.02508,-0.00161,-0.02329
0.41252,0.4237,-0.80641,-0.02612,-0.00151,-0.02246
0.4127,0.42355,-0.8064,-0.02708,-0.00387,-0.02522
0.41269,0.4233,-0.80654,-0.02586,-0.00705,-0.02444
0.41251,0.42298,-0.8068,-0.02535,-0.00861,-0.0238
0.41215,0.42268,-0.80714,-0.02235,-0.01662,-0.02089
0.41173,0.42241,-0.80749,-0.02144,-0.01596,-0.02426
0.41126,0.4221,-0.8079,-0.01658,-0.01655,-0.02288
0.41076,0.4218,-0.80831,-0.0119,-0.0164,-0.02557
0.41046,0.42156,-0.80858,-0.01229,-0.01598,-0.02211
0.41045,0.42142,-0.80866,-0.01195,-0.01627,-0.02297
0.41062,0.42141,-0.80858,-0.01339,-0.01805,-0.02134
0.41089,0.4215,-0.8084,-0.01868,-0.0183,-0.01973
0.41116,0.42163,-0.80819,-0.02012,-0.01673,-0.021
0.41142,0.42184,-0.80795,-0.019,-0.01105,-0.02263
0.4117,0.42207,-0.80769,-0.02095,-0.00686,-0.02475
0.41181,0.4222,-0.80756,-0.02527,-0.00185,-0.02569
0.41182,0.42219,-0.80756,-0.02495,-0.00236,-0.02232
0.4118,0.42208,-0.80763,-0.02551,-0.00225,-0.02478
0.41174,0.42194,-0.80773,-0.02588,-0.00456,-0.02337
0.41164,0.42178,-0.80787,-0.02263,-0.00886,-0.02469
0.41149,0.42158,-0.80805,-0.02104,-0.01235,-0.02508
0.41132,0.42137,-0.80825,-0.02001,-0.01424,-0.02302
0.41113,0.42118,-0.80844,-0.01873,-0.01508,-0.02333
0.41102,0.42103,-0.80858,-0.01791,-0.01338,-0.02501
0.41102,0.42097,-0.80861,-0.01457,-0.01315,-0.02356
0.41105,0.42095,-0.8086,-0.01675,-0.01507,-0.02299
0.41109,0.42092,-0.8086,-0.01627,-0.01252,-0.02377
0.41114,0.42096,-0.80856,-0.01784,-0.01165,-0.02087
0.41119,0.42102,-0.80849,-0.01747,-0.01037,-0.02236
0.41128,0.42109,-0.80841,-0.02202,-0.01043,-0.02475
0.41132,0.42122,-0.80832,-0.02093,-0.00884,-0.02163
0.41128,0.42134,-0.80828,-0.02023,-0.00796,-0.02157
0.41117,0.42137,-0.80832,-0.02311,-0.00783,-0.02305
0.41102,0.42138,-0.80839,-0.0216,-0.00782,-0.0232
0.4108,0.42131,-0.80854,-0.02106,-0.00789,-0.02486
0.41047,0.42116,-0.80879,-0.02054,-0.00878,-0.02431
0.41012,0.42101,-0.80904,-0.02064,-0.00961,-0.02329
0.40979,0.42087,-0.80929,-0.02247,-0.01114,-0.02262
0.40961,0.42077,-0.80942,-0.02431,-0.01426,-0.02656
0.40967,0.42078,-0.80939,-0.0235,-0.01362,-0.02604
0.40976,0.42082,-0.80933,-0.02069,-0.01254,-0.02666
0.40976,0.42086,-0.80931,-0.01792,-0.01349,-0.0244
0.40985,0.42088,-0.80925,-0.02008,-0.01511,-0.02295
0.41001,0.42088,-0.80917,-0.01815,-0.01225,-0.0238
0.41013,0.42089,-0.8091,-0.02096,-0.01002,-0.02263
0.41029,0.42089,-0.80902,-0.01962,-0.00826,-0.02316
0.41047,0.42091,-0.80892,-0.02105,-0.00782,-0.02297
0.41065,0.42094,-0.80881,-0.02181,-0.01052,-0.02465
0.41078,0.42097,-0.80873,-0.02194,-0.01056,-0.02474
0.41088,0.42098,-0.80868,-0.02042,-0.01112,-0.02453
0.41096,0.42097,-0.80863,-0.01742,-0.01081,-0.02297
0.41098,0.42095,-0.80864,-0.01892,-0.01294,-0.02345
0.41098,0.42094,-0.80864,-0.0179,-0.01239,-0.02304
0.41097,0.42095,-0.80864,-0.02053,-0.01234,-0.02686
0.41099,0.42096,-0.80863,-0.0188,-0.01074,-0.02542
0.41106,0.42097,-0.80859,-0.0194,-0.01187,-0.02392
0.41119,0.421,-0.8085,-0.01986,-0.00942,-0.02484
0.4113,0.42099,-0.80845,-0.01981,-0.01048,-0.02504
0.41135,0.42098,-0.80844,-0.02042,-0.01117,-0.02111
0.41143,0.42101,-0.80838,-0.02149,-0.01059,-0.02579
0.4115,0.42104,-0.80833,-0.02235,-0.01175,-0.02469
0.41154,0.42109,-0.80828,-0.0206,-0.00958,-0.02157
0.41159,0.42115,-0.80822,-0.01887,-0.01105,-0.02301
0.41168,0.42119,-0.80816,-0.02084,-0.01065,-0.02429
0.41173,0.4212,-0.80812,-0.01911,-0.00889,-0.02523
0.41177,0.4212,-0.80811,-0.01933,-0.01178,-0.02337
0.41181,0.4212,-0.80809,-0.01912,-0.01204,-0.01961
0.41184,0.42121,-0.80806,-0.01904,-0.01326,-0.02079
0.41184,0.42125,-0.80804,-0.01882,-0.01094,-0.02255
0.41184,0.42128,-0.80803,-0.0181,-0.00936,-0.02237
0.4118,0.42128,-0.80805,-0.01915,-0.00989,-0.02162
0.41177,0.42127,-0.80807,-0.02014,-0.01104,-0.02256
0.41176,0.42128,-0.80807,-0.01981,-0.00984,-0.02392
0.41172,0.42126,-0.8081,-0.02105,-0.01096,-0.02458
0.41168,0.42129,-0.8081,-0.01965,-0.01351,-0.02225
0.41166,0.4213,-0.80811,-0.02094,-0.01058,-0.02326
0.41158,0.42131,-0.80814,-0.0202,-0.01082,-0.02645
0.41145,0.42129,-0.80822,-0.02131,-0.01158,-0.02254
0.41134,0.42127,-0.80829,-0.02067,-0.01315,-0.02246
0.41127,0.42127,-0.80832,-0.01996,-0.01181,-0.02186
0.41123,0.42128,-0.80834,-0.01954,-0.01102,-0.02317
0.41123,0.42133,-0.80831,-0.01783,-0.01094,-0.02414
0.41123,0.42137,-0.80829,-0.01847,-0.00962,-0.0214
0.41117,0.42137,-0.80832,-0.02053,-0.00931,-0.02182
0.41112,0.42139,-0.80834,-0.02238,-0.00848,-0.02124
0.41109,0.42138,-0.80836,-0.01976,-0.00907,-0.02333
0.41102,0.42133,-0.80842,-0.0189,-0.0086,-0.0234
0.41095,0.42131,-0.80847,-0.02064,-0.0109,-0.02303
0.41091,0.42128,-0.8085,-0.01944,-0.01015,-0.02316
0.41091,0.42127,-0.80851,-0.01895,-0.01171,-0.02279
0.4109,0.42126,-0.80852,-0.01856,-0.01002,-0.02191
0.41087,0.42126,-0.80853,-0.01956,-0.01031,-0.02175
0.41083,0.42122,-0.80858,-0.02182,-0.01095,-0.02312
0.41081,0.42119,-0.8086,-0.02078,-0.01042,-0.02447
0.41078,0.42116,-0.80863,-0.01912,-0.01193,-0.02279
0.41075,0.42112,-0.80866,-0.01912,-0.01289,-0.02445
0.41073,0.42109,-0.80869,-0.0198,-0.01166,-0.02453
0.41067,0.42109,-0.80873,-0.02199,-0.00939,-0.02228
0.41064,0.42111,-0.80873,-0.02319,-0.01049,-0.02272
0.41071,0.42113,-0.80868,-0.02157,-0.01053,-0.02317
0.41081,0.42114,-0.80862,-0.01834,-0.01077,-0.02402
0.41089,0.42119,-0.80856,-0.01893,-0.0121,-0.02372
0.41094,0.42121,-0.80852,-0.01792,-0.01226,-0.024
0.41096,0.4212,-0.80852,-0.01654,-0.01117,-0.02252
0.41099,0.42119,-0.80851,-0.01859,-0.01003,-0.02215
0.41099,0.42117,-0.80852,-0.01728,-0.00886,-0.02154
0.41103,0.42114,-0.80851,-0.01929,-0.00902,-0.0216
0.41113,0.42112,-0.80848,-0.02091,-0.00979,-0.02305
0.41124,0.42109,-0.80844,-0.02098,-0.00884,-0.02217
0.41129,0.42105,-0.80843,-0.02062,-0.00987,-0.02197
0.41129,0.42101,-0.80845,-0.02035,-0.01186,-0.02447
0.41123,0.42096,-0.80851,-0.02025,-0.01105,-0.02345
0.41105,0.42088,-0.80864,-0.01893,-0.01072,-0.02322
0.41082,0.42075,-0.80882,-0.01896,-0.0128,-0.02262
0.41065,0.42066,-0.80895,-0.01986,-0.01417,-0.02413
0.41052,0.42065,-0.80903,-0.01851,-0.01721,-0.0249
0.41033,0.42074,-0.80908,-0.01618,-0.01337,-0.01979
0.41011,0.4209,-0.8091,-0.01799,-0.01055,-0.02055
0.40997,0.42106,-0.80909,-0.01603,-0.00841,-0.0261
0.40989,0.4213,-0.80901,-0.01563,-0.01145,-0.02523
0.40986,0.42165,-0.80884,-0.02002,-0.01,-0.02157
0.40991,0.42188,-0.8087,-0.02651,-0.01241,-0.02331
0.41004,0.422,-0.80856,-0.02253,-0.01534,-0.02908
0.41009,0.42219,-0.80844,-0.01983,-0.01393,-0.02366
0.41025,0.4225,-0.8082,-0.02139,-0.01128,-0.01666
0.41074,0.42294,-0.80772,-0.01358,-0.00863,-0.0152
0.41142,0.42349,-0.80709,-0.01254,-0.01313,-0.01701
0.41222,0.42414,-0.80634,-0.01167,-0.01243,-0.02222
0.41312,0.42485,-0.8055,-0.02585,-0.00737,-0.01937
0.41416,0.42549,-0.80463,-0.02857,-0.01171,-0.02229
0.41508,0.42609,-0.80384,-0.0292,-0.01498,-0.02274
0.41631,0.42676,-0.80285,-0.02082,-0.00136,-0.04432
0.41879,0.42797,-0.80091,-0.01698,0.00252,-0.04348
0.42144,0.42947,-0.79872,-0.02219,4e-05,-0.03739
0.4228,0.43034,-0.79753,-0.00508,0.00351,-0.01841
0.42391,0.43084,-0.79667,-0.00553,0.00208,-0.01728
0.42504,0.43107,-0.79594,-0.00799,0.00075,-0.01491
0.42593,0.43104,-0.79548,-0.02703,-0.02134,-0.02746
0.42674,0.43111,-0.79501,-0.02966,-0.02247,-0.03
0.42747,0.43127,-0.79453,-0.02863,-0.022,-0.0308
0.42839,0.43159,-0.79386,-0.02183,-0.01797,-0.03179
0.42974,0.43216,-0.79282,-0.02318,-0.0149,-0.03082
0.43139,0.43306,-0.79143,-0.03228,-0.01704,-0.02551
0.43348,0.43428,-0.78962,-0.02697,-0.01101,-0.02105
0.43566,0.43548,-0.78776,-0.02089,-0.00454,-0.02158
0.43718,0.43634,-0.78644,-0.00616,-0.00209,-0.02284
0.43813,0.43686,-0.78562,-0.00403,-0.00035,-0.01905
0.4391,0.43711,-0.78494,-0.00231,-0.00927,-0.01467
0.44014,0.43721,-0.7843,-0.00425,-0.02577,-0.01394
0.44165,0.43725,-0.78343,-0.0043,-0.01937,-0.02019
0.44343,0.43751,-0.78228,-0.00123,-0.02492,-0.02084
0.44554,0.43795,-0.78083,0.00174,-0.01482,-0.02337
0.4477,0.43861,-0.77922,-0.00562,-0.00584,-0.02123
0.44951,0.43918,-0.77786,-0.01481,0.00313,-0.01981
0.45079,0.43969,-0.77683,-0.02699,0.00877,-0.02284
0.45162,0.44009,-0.77612,-0.04219,0.01069,-0.02811
0.45209,0.44038,-0.77568,-0.03425,0.00161,-0.02629
0.45216,0.44049,-0.77558,-0.02975,-0.002,-0.03112
0.45192,0.44049,-0.77571,-0.0314,-0.01056,-0.03265
0.45146,0.44034,-0.77607,-0.03352,-0.01794,-0.03237
0.45101,0.44001,-0.77652,-0.02478,-0.02114,-0.03705
0.45066,0.43974,-0.77687,-0.02035,-0.02348,-0.03139
0.45062,0.43966,-0.77694,-0.01774,-0.02476,-0.02716
0.45086,0.43986,-0.77669,-0.01628,-0.01854,-0.0173
0.4513,0.44012,-0.77629,-0.01917,-0.01155,-0.01987
0.4518,0.44043,-0.77582,-0.01674,-0.0096,-0.02108
0.45228,0.44068,-0.7754,-0.01515,-0.01313,-0.02432
0.45273,0.44106,-0.77492,-0.02613,-0.01019,-0.02032
0.4532,0.44133,-0.77449,-0.0238,-0.01094,-0.02066
0.4536,0.44153,-0.77414,-0.01987,-0.00805,-0.02662
0.45394,0.4417,-0.77385,-0.02048,-0.00652,-0.0239
0.45424,0.44186,-0.77358,-0.00458,-0.01367,-0.02296
0.45454,0.44203,-0.77331,-0.01322,-0.0092,-0.01839
0.45467,0.44208,-0.7732,-0.01015,-0.01059,-0.02026
0.45478,0.44216,-0.77309,-0.00811,-0.01327,-0.01944
0.45493,0.44235,-0.7729,-0.01482,-0.01337,-0.02024
0.45499,0.44256,-0.77274,-0.01226,-0.01186,-0.01876
0.45505,0.44274,-0.7726,-0.01136,-0.00751,-0.02151
0.45508,0.44287,-0.77251,-0.01289,-0.00534,-0.02143
0.45502,0.44291,-0.77252,-0.01703,-0.00614,-0.02298
0.45488,0.44292,-0.7726,-0.01938,-0.0073,-0.02341
0.45466,0.44292,-0.77273,-0.01951,-0.00906,-0.02405
0.45435,0.44293,-0.77291,-0.02748,-0.01631,-0.02607
0.45401,0.44296,-0.77309,-0.02705,-0.01717,-0.02568
0.45362,0.44306,-0.77326,-0.02653,-0.01952,-0.0283
0.45325,0.44326,-0.77336,-0.02775,-0.01883,-0.02653
0.45296,0.4435,-0.77339,-0.02535,-0.01433,-0.02913
0.45273,0.44376,-0.77338,-0.02357,-0.01114,-0.02673
0.45271,0.44409,-0.7732,-0.02354,-0.01148,-0.02691
0.45282,0.4443,-0.77301,-0.01846,-0.00509,-0.02684
0.45303,0.44442,-0.77282,-0.02021,-0.00184,-0.02755
0.45339,0.44452,-0.77256,-0.02361,-0.00303,-0.02076
0.45388,0.44461,-0.77221,-0.0211,-0.00578,-0.02219
0.45439,0.44461,-0.77192,-0.01782,-0.00978,-0.02423
0.4548,0.44456,-0.7717,-0.01173,-0.01101,-0.02235
0.45521,0.44461,-0.77143,-0.00963,-0.00662,-0.02222
0.45563,0.44468,-0.77114,-0.01037,0.00066,-0.02102
0.45599,0.44469,-0.77092,-0.00851,-0.00248,-0.0196
0.45629,0.44467,-0.77075,-0.01969,0.0011,-0.02301
0.45648,0.4446,-0.77069,-0.01277,-0.00261,-0.01586
0.4565,0.44438,-0.7708,-0.00984,-0.0081,-0.01977
0.45637,0.44418,-0.77099,-0.00981,-0.01174,-0.02084
0.45615,0.44403,-0.77121,-0.01224,-0.01112,-0.01922
0.45585,0.44398,-0.77142,-0.01769,-0.01154,-0.02015
0.45547,0.44397,-0.77164,-0.02089,-0.01703,-0.02369
0.45503,0.44391,-0.77194,-0.0229,-0.01549,-0.02886
0.45467,0.44386,-0.77218,-0.02355,-0.01236,-0.03348
0.45449,0.44386,-0.77229,-0.02544,-0.0125,-0.0349
0.45449,0.4439,-0.77226,-0.02663,-0.01495,-0.02823
0.45455,0.44398,-0.77218,-0.02498,-0.01266,-0.02677
0.45467,0.44416,-0.77201,-0.0251,-0.01284,-0.02694
0.45476,0.44437,-0.77183,-0.02356,-0.0122,-0.0204
0.45481,0.44463,-0.77165,-0.02002,-0.00999,-0.02067
0.45484,0.44482,-0.77153,-0.01653,-0.00696,-0.0232
0.45486,0.44492,-0.77146,-0.01063,-0.00306,-0.02696
0.45494,0.44499,-0.77137,-0.01008,-0.00351,-0.02257
0.45517,0.44505,-0.7712,-0.01216,-0.00485,-0.01827
0.45545,0.44504,-0.77104,-0.01012,-0.00519,-0.01892
0.45562,0.44504,-0.77094,-0.01102,-0.006,-0.01888
0.45566,0.44514,-0.77086,-0.01471,-0.00788,-0.01611
0.45559,0.44526,-0.77083,-0.01939,-0.00879,-0.018
0.45536,0.44536,-0.77091,-0.01778,-0.00824,-0.02462
0.45503,0.44546,-0.77105,-0.02009,-0.006,-0.02884
0.45469,0.44551,-0.77122,-0.02105,-0.00457,-0.0264
0.45444,0.44546,-0.77139,-0.01914,-0.00687,-0.02576
0.45425,0.44527,-0.77161,-0.01982,-0.00874,-0.0276
0.45415,0.445,-0.77183,-0.02133,-0.00933,-0.02984
0.45422,0.44476,-0.77193,-0.02064,-0.01234,-0.02681
0.45444,0.44461,-0.77188,-0.02034,-0.01126,-0.02647
0.45466,0.44451,-0.77181,-0.02132,-0.00918,-0.02426
0.45483,0.44452,-0.77171,-0.02102,-0.0071,-0.02183
0.45494,0.44454,-0.77163,-0.0215,-0.00382,-0.02123
0.45497,0.44456,-0.7716,-0.01691,-0.00391,-0.02127
0.45487,0.44455,-0.77166,-0.01367,-0.00717,-0.01828
0.45471,0.44454,-0.77177,-0.01081,-0.01438,-0.01974
0.45454,0.44456,-0.77185,-0.00747,-0.01744,-0.01758
0.45441,0.44464,-0.77188,-0.00492,-0.01611,-0.0177
0.45436,0.44478,-0.77183,-0.00339,-0.01517,-0.01602
0.45432,0.44494,-0.77176,-0.00588,-0.0144,-0.02093
0.45429,0.4451,-0.77169,-0.01221,-0.00822,-0.02306
0.4543,0.44521,-0.77162,-0.01697,-0.00429,-0.02576
0.45435,0.44526,-0.77156,-0.02013,0.00089,-0.02226
0.4544,0.44523,-0.77155,-0.02561,-0.0029,-0.02549
0.45442,0.44514,-0.77159,-0.02423,-0.00217,-0.0253
0.45437,0.445,-0.7717,-0.02476,-0.00175,-0.02384
0.45427,0.44488,-0.77183,-0.02421,-0.00532,-0.02233
0.45415,0.44478,-0.77196,-0.02408,-0.00905,-0.02771
0.45396,0.44471,-0.77211,-0.01891,-0.0113,-0.02694
0.45374,0.44468,-0.77226,-0.01456,-0.01459,-0.02205
0.45357,0.44469,-0.77235,-0.01264,-0.01674,-0.02506
0.45346,0.44473,-0.77239,-0.00917,-0.01542,-0.02293
0.45342,0.44483,-0.77236,-0.00975,-0.01198,-0.0189
0.45349,0.445,-0.77222,-0.01078,-0.01052,-0.02026
0.45354,0.44513,-0.77211,-0.01169,-0.00792,-0.02127
0.45357,0.44524,-0.77204,-0.01183,-0.00931,-0.02011
0.45351,0.44543,-0.77196,-0.01274,-0.00928,-0.02255
0.45331,0.44564,-0.77196,-0.01565,-0.01149,-0.02591
0.45307,0.44593,-0.77193,-0.01517,0.00242,-0.03116
0.45291,0.44631,-0.7718,-0.01502,0.00204,-0.03128
0.45285,0.44662,-0.77166,-0.01848,0.00408,-0.0189
0.45292,0.44681,-0.77151,-0.01507,0.0002,-0.02132
0.45313,0.447,-0.77127,-0.01939,0.00021,-0.01649
0.45345,0.44728,-0.77092,-0.01432,-0.01237,-0.01838
0.45379,0.44754,-0.77057,-0.00428,-0.0131,-0.02548
0.45408,0.44785,-0.77022,0.0049,-0.00872,-0.02421
0.45443,0.44831,-0.76975,-0.00498,-0.01014,-0.0169
0.45471,0.44874,-0.76933,-0.01895,-0.01784,-0.0203
0.45475,0.44897,-0.76918,-0.02494,-0.0127,-0.01957
0.45479,0.44914,-0.76905,-0.01721,-0.00952,-0.02305
0.45491,0.44934,-0.76886,0.00451,-0.00715,-0.02514
0.45531,0.44965,-0.76844,-0.02039,-0.00661,-0.03103
0.45575,0.45,-0.76798,-0.00597,-0.01127,-0.02054
0.45637,0.45042,-0.76736,-0.02669,0.01749,-0.01996
0.4571,0.45102,-0.76658,-0.01377,-0.01483,-0.01159
0.45768,0.45155,-0.76592,-0.01511,-0.00866,-0.0213
0.45809,0.45211,-0.76534,-0.01349,-0.00601,-0.02355
0.45818,0.45257,-0.76502,-0.0196,-0.00709,-0.01399
0.45836,0.45298,-0.76466,-0.01963,-0.01498,-0.01387
0.4587,0.45341,-0.7642,-0.01823,0.00038,-0.01978
0.45882,0.45376,-0.76393,-0.00342,-0.00677,-0.02507
0.45885,0.4542,-0.76365,-0.00254,-0.0104,-0.03344
0.45848,0.45437,-0.76377,0.00348,-0.01934,-0.02163
0.4579,0.45431,-0.76416,-0.01994,-0.00159,-0.00713
0.45758,0.45453,-0.76421,-0.02324,-0.01759,-0.01319
0.45712,0.45446,-0.76453,-0.03058,0.00333,-0.01072
0.45678,0.45424,-0.76486,0.0086,-0.01105,-0.02733
0.45655,0.45417,-0.76504,0.00117,-0.00871,-0.02865
0.45635,0.45422,-0.76514,-0.03307,0.00457,-0.0119
0.45632,0.45468,-0.76488,-0.01775,-0.0147,-0.01804
0.45619,0.45474,-0.76492,-0.02359,-0.00546,-0.01301
0.45598,0.45496,-0.76492,-0.0184,-0.00279,-0.02073
0.45566,0.4552,-0.76496,-0.01821,0.00368,-0.01686
0.45548,0.45531,-0.765,-0.01574,0.00038,-0.02144
0.45524,0.45544,-0.76507,-0.0098,-0.00085,-0.0311
0.45483,0.45558,-0.76523,-0.00851,0.00018,-0.02322
0.45442,0.45581,-0.76534,-0.01018,-0.00755,-0.02484
0.4542,0.45633,-0.76516,-0.0086,-0.00709,-0.02311
0.45408,0.45706,-0.7648,-0.00847,-0.00782,-0.02347
0.45395,0.45781,-0.76443,-0.04365,-0.0111,-0.02648
0.45366,0.45832,-0.76429,-0.0045,-0.01627,-0.03205
0.45299,0.45865,-0.76449,-0.00379,-0.01334,-0.02671
0.45226,0.45892,-0.76476,0.03538,-0.04761,-0.00972
0.45205,0.45948,-0.76454,0.01172,-0.01431,-0.03125
0.45132,0.45982,-0.76477,0.01246,-0.01464,-0.03102
0.45082,0.46037,-0.76473,-0.02863,-0.01274,-0.01354
0.45022,0.46074,-0.76486,-0.01863,-0.01648,-0.00369
0.44968,0.46083,-0.76513,-0.02606,-0.00552,-0.00263
0.44927,0.46059,-0.76551,-0.0273,0.01069,-0.00846
0.44894,0.45999,-0.76607,-0.0229,0.02263,-0.01213
0.44882,0.45908,-0.76669,-0.02706,0.02948,-0.00435
0.44913,0.45782,-0.76726,-0.05002,0.03796,0.0042
0.44956,0.45603,-0.76807,-0.0489,0.01647,0.00168
0.44984,0.45376,-0.76925,-0.04881,0.01362,-0.00513
0.44967,0.45113,-0.77089,-0.0338,-0.00028,-0.02523
0.44903,0.44835,-0.77289,-0.00143,-0.01521,-0.03714
0.44812,0.4458,-0.77489,0.00513,-0.02234,-0.03413
0.44717,0.44401,-0.77646,0.01731,-0.04527,-0.03181
0.44644,0.44279,-0.77757,0.01516,-0.04135,-0.02376
0.44567,0.44214,-0.77839,0.00817,-0.03686,-0.02068
0.44491,0.442,-0.77891,-0.00422,-0.02513,-0.02386
0.44426,0.44211,-0.77921,-0.01245,-0.0115,-0.03033
0.44385,0.44245,-0.77925,-0.02017,0.00539,-0.03261
0.44392,0.44292,-0.77894,-0.02264,0.0194,-0.02925
0.44446,0.44331,-0.77842,-0.02263,0.02385,-0.02691
0.44517,0.44347,-0.77791,-0.02371,0.02496,-0.02065
0.44584,0.4433,-0.77763,-0.01459,0.01422,-0.01111
0.4463,0.4429,-0.7776,-0.01078,0.00447,-0.00829
0.44654,0.44244,-0.77772,-0.00254,-0.00524,-0.01065
0.44651,0.44201,-0.77798,0.00227,-0.01028,-0.0096
0.44621,0.44168,-0.77834,0.00654,-0.01203,-0.00761
0.44574,0.44142,-0.77876,0.00927,-0.00992,-0.00716
0.44521,0.4412,-0.77918,0.00942,-0.00881,-0.01024
0.44475,0.44093,-0.7796,0.00478,-0.00559,-0.01327
0.44443,0.4406,-0.77997,-0.00029,-0.00372,-0.01637
0.44427,0.44018,-0.7803,-0.00875,-0.00015,-0.02155
0.44423,0.43974,-0.78057,-0.01758,-0.00081,-0.02378
0.44425,0.43931,-0.7808,-0.0259,-0.0059,-0.02519
0.44429,0.43894,-0.78098,-0.02674,-0.00794,-0.0257
0.44429,0.43868,-0.78113,-0.02699,-0.00749,-0.02682
0.44422,0.43851,-0.78126,-0.0244,-0.00705,-0.02442
0.44411,0.43842,-0.78138,-0.0195,-0.00664,-0.02175
0.44396,0.43838,-0.78149,-0.01647,-0.00521,-0.01964
0.44386,0.43834,-0.78157,-0.00941,-0.00511,-0.01848
0.44381,0.43828,-0.78163,-0.00626,-0.00248,-0.01549
0.44388,0.43822,-0.78162,-0.00439,-0.00276,-0.01373
0.44403,0.43817,-0.78156,-0.00253,-0.00306,-0.01134
0.44417,0.43808,-0.78154,-0.0033,-0.00485,-0.00936
0.44429,0.43793,-0.78155,0.001,-0.00032,-0.01119
0.44438,0.43772,-0.78162,-0.0028,0.00268,-0.01605
0.44447,0.43753,-0.78168,-0.00949,0.00284,-0.01747
0.44457,0.43737,-0.78171,-0.01349,-0.00197,-0.0173
0.44451,0.43719,-0.78184,-0.01407,-0.00685,-0.01593
0.44418,0.43696,-0.78216,-0.00465,-0.00831,-0.01311
0.44372,0.43675,-0.78253,-0.0019,-0.00995,-0.0135
0.44325,0.43662,-0.78288,-0.00466,-0.00972,-0.01238
0.44289,0.43656,-0.78311,-0.00774,-0.00314,-0.01442
0.4427,0.43658,-0.78321,-0.01118,-0.00111,-0.01842
0.44263,0.43661,-0.78323,-0.0139,-0.00238,-0.01917
0.44266,0.43666,-0.78319,-0.0136,-0.00431,-0.0177
0.44277,0.43667,-0.78312,-0.01386,-0.00463,-0.02065
0.44289,0.43668,-0.78304,-0.01353,-0.00436,-0.01927
0.44297,0.43667,-0.78301,-0.01677,-0.00814,-0.0168
0.44299,0.4366,-0.78304,-0.01406,-0.00363,-0.01964
0.44303,0.43652,-0.78306,-0.00989,-0.0035,-0.01777
0.4431,0.4365,-0.78303,-0.00973,-0.00124,-0.01624
0.44322,0.43648,-0.78297,-0.00243,0.00156,-0.0132
0.44337,0.43641,-0.78292,-0.00114,0.00136,-0.01395
0.44348,0.43632,-0.78291,-0.00183,-0.00072,-0.01366
0.44356,0.4362,-0.78293,-0.01047,-0.00379,-0.01327
0.44361,0.43609,-0.78296,-0.00924,-0.00481,-0.01556
0.44362,0.43601,-0.783,-0.00965,-0.00576,-0.01534
0.44357,0.43597,-0.78305,-0.00748,-0.00539,-0.01321
0.44345,0.43593,-0.78314,-0.00626,-0.00336,-0.01404
0.44333,0.43588,-0.78324,-0.00709,-0.00508,-0.0136
0.44323,0.43584,-0.78331,-0.0076,-0.00469,-0.01512
0.4432,0.43581,-0.78335,-0.00836,-0.00434,-0.01827
0.4432,0.43577,-0.78338,-0.00989,-0.00491,-0.01556
0.4432,0.43576,-0.78339,-0.00609,-0.00398,-0.01546
0.44321,0.43577,-0.78337,-0.00856,-0.00389,-0.01254
0.44324,0.43584,-0.78331,-0.00949,-0.00408,-0.01338
0.44327,0.43592,-0.78325,-0.01003,-0.00062,-0.01526
0.44331,0.43599,-0.78319,-0.00942,0.00084,-0.01295
0.44331,0.43602,-0.78317,-0.0097,0.00291,-0.01505
0.44332,0.43604,-0.78316,-0.01053,0.00081,-0.01678
0.44327,0.43601,-0.7832,-0.01368,0.00442,-0.01398
0.44316,0.43596,-0.7833,-0.01701,0.0036,-0.01571
0.44303,0.43586,-0.78343,-0.01233,-0.00232,-0.01801
0.44287,0.43578,-0.78356,-0.00975,-0.00607,-0.01762
0.44267,0.43574,-0.78369,-0.00504,-0.00926,-0.01358
0.4425,0.43573,-0.78379,-0.00338,-0.0109,-0.0134
0.44235,0.4357,-0.7839,-0.0027,-0.00881,-0.01324
0.44226,0.43566,-0.78397,6e-05,-0.01113,-0.01478
0.44222,0.43565,-0.784,-0.00374,-0.01125,-0.01179
0.44225,0.43566,-0.78397,-0.00771,-0.00649,-0.01239
0.44238,0.43574,-0.78385,-0.0065,-0.00244,-0.01374
0.44254,0.43589,-0.78368,-0.00463,-0.00138,-0.01267
0.44266,0.43603,-0.78354,-0.00969,6e-05,-0.01043
0.44274,0.43615,-0.78342,-0.01032,0.00356,-0.01391
0.44278,0.43624,-0.78335,-0.01235,0.00196,-0.01329
0.44277,0.43629,-0.78333,-0.01183,0.00262,-0.01257
0.44272,0.43629,-0.78336,-0.01071,0.00315,-0.01644
0.44264,0.43624,-0.78343,-0.00943,-0.00216,-0.0169
0.44253,0.43618,-0.78352,-0.00981,-0.00112,-0.01761
0.44246,0.43611,-0.7836,-0.01185,-0.0051,-0.01712
0.44245,0.43605,-0.78364,-0.01217,-0.00633,-0.01869
0.4425,0.43602,-0.78363,-0.00969,-0.00579,-0.01843
0.44257,0.43603,-0.78359,-0.0069,-0.0063,-0.01481
0.44266,0.43607,-0.78352,-0.00897,-0.00769,-0.01446
0.44272,0.43612,-0.78345,-0.00688,-0.00414,-0.01434
0.44275,0.43621,-0.78338,-0.00585,-0.00134,-0.01153
0.44281,0.43635,-0.78328,-0.0063,0.0025,-0.0109
0.44284,0.43642,-0.78322,-0.00683,0.0012,-0.01187
0.4428,0.43645,-0.78322,-0.00326,-0.00013,-0.01431
0.44271,0.43647,-0.78327,-0.00399,-0.00068,-0.01114
0.44269,0.43649,-0.78327,-0.00836,-0.00039,-0.01143
0.44262,0.43654,-0.78327,-0.00668,-0.00201,-0.01589
0.44249,0.43661,-0.78331,-0.01198,-0.00225,-0.01416
0.44231,0.43665,-0.78339,-0.01037,-0.00187,-0.01515
0.44213,0.43668,-0.78347,-0.01179,-0.00131,-0.01534
0.442,0.43669,-0.78354,-0.00984,-0.00357,-0.01565
0.44192,0.4367,-0.78358,-0.0094,-0.00407,-0.01743
0.44189,0.43666,-0.78362,-0.01118,-0.0043,-0.0169
0.44194,0.43662,-0.78361,-0.00539,-0.00411,-0.01495
0.44197,0.43664,-0.78359,-0.00384,-0.00357,-0.01103
0.44197,0.43671,-0.78354,-0.00728,-0.00292,-0.01334
0.44206,0.4368,-0.78345,-0.00671,-0.00214,-0.00984
0.44223,0.43694,-0.78327,-0.00592,-0.00388,-0.01183
0.44237,0.43709,-0.78311,-0.00715,-0.00255,-0.01377
0.44253,0.43721,-0.78296,-0.01167,-0.00279,-0.01477
0.44283,0.43735,-0.78271,-0.01544,-0.0015,-0.02044
0.44312,0.43745,-0.78248,-0.01678,-0.00372,-0.02164
0.44328,0.43756,-0.78234,-0.01149,-0.00726,-0.01913
0.44336,0.43769,-0.78222,-0.00622,-0.00774,-0.01667
0.44336,0.43785,-0.78212,-0.00258,-0.00696,-0.00853
0.44329,0.43799,-0.78209,-0.0015,-0.00063,-0.00992
0.44314,0.43805,-0.78214,-0.00132,0.00209,-0.01225
0.44297,0.43803,-0.78224,0.00055,0.00312,-0.00931
0.44285,0.43798,-0.78234,0.00312,0.00331,-0.01264
0.4428,0.43793,-0.7824,0.00264,0.00361,-0.00938
0.44281,0.4379,-0.78241,-0.00439,0.00146,-0.00911
0.44284,0.43783,-0.78243,-0.00782,-0.00412,-0.01244
0.44288,0.43776,-0.78244,-0.01497,-0.00104,-0.0162
0.44286,0.43762,-0.78254,-0.01782,-0.00189,-0.02038
0.44273,0.43745,-0.7827,-0.02073,-0.00486,-0.01959
0.44254,0.43733,-0.78288,-0.0129,-0.0081,-0.02117
0.44235,0.43728,-0.78302,-0.01342,-0.00889,-0.01925
0.44216,0.43729,-0.78311,-0.01067,-0.00994,-0.0143
0.44206,0.43735,-0.78314,-0.01057,-0.01,-0.01427
0.44201,0.43739,-0.78315,-0.00616,-0.00358,-0.01585
0.44211,0.43745,-0.78306,-0.00296,-0.00285,-0.01736
0.44231,0.43754,-0.78289,-0.00434,0.00034,-0.01657
0.44257,0.43763,-0.78269,-0.00809,-0.00166,-0.01099
0.44277,0.43767,-0.78256,-0.00525,-0.00276,-0.01094
0.44283,0.43767,-0.78253,-0.00491,0.0011,-0.01044
0.44278,0.43769,-0.78255,-0.00633,0.00259,-0.00894
0.44271,0.43769,-0.78258,-0.0046,0.00318,-0.01179
0.4426,0.43766,-0.78266,-0.00626,0.00132,-0.01194
0.44248,0.43757,-0.78278,-0.00321,-0.00163,-0.01391
0.44233,0.43747,-0.78292,-0.00376,-0.0064,-0.01257
0.4422,0.43737,-0.78305,-0.00151,-0.00722,-0.0126
0.44208,0.43727,-0.78317,-0.0047,-0.00636,-0.01297
0.44196,0.43717,-0.7833,-0.00562,-0.00611,-0.01335
0.44186,0.43708,-0.7834,-0.00949,-0.00597,-0.01558
0.44178,0.43698,-0.78351,-0.00869,-0.00324,-0.01535
0.4417,0.43686,-0.78361,-0.00887,-0.00199,-0.01638
0.44164,0.43676,-0.78371,-0.01065,-0.00308,-0.01556
0.4416,0.43669,-0.78376,-0.01133,0.00041,-0.01766
0.44155,0.43666,-0.78381,-0.01212,-0.00157,-0.01604
0.44146,0.43664,-0.78387,-0.01159,-0.00624,-0.0139
0.44133,0.43659,-0.78397,-0.00693,-0.00644,-0.01568
0.44126,0.43657,-0.78403,-0.00118,-0.00517,-0.01364
0.44123,0.43659,-0.78403,-0.00114,-0.00292,-0.01384
0.44123,0.43658,-0.78403,-0.00297,-0.00288,-0.01217
0.44125,0.43655,-0.78404,-0.00475,-0.00348,-0.01353
0.4413,0.43651,-0.78404,-0.00271,-0.00311,-0.01224
0.44138,0.43647,-0.78401,-0.00669,-0.00071,-0.00981
0.4415,0.43642,-0.78397,-0.0074,-0.00356,-0.01287
0.44158,0.43633,-0.78398,-0.00799,-0.00356,-0.01403
0.44162,0.43625,-0.784,-0.00924,-0.00321,-0.01459
0.44163,0.4362,-0.78402,-0.00785,-0.00746,-0.01429
0.44163,0.43616,-0.78405,-0.00781,-0.00508,-0.01619
0.44161,0.43615,-0.78407,-0.00678,-0.00652,-0.0124
0.44157,0.43621,-0.78405,-0.00641,-0.00824,-0.01457
0.44156,0.43627,-0.78402,-0.00699,-0.00622,-0.01392
0.44153,0.43633,-0.78401,-0.00628,-0.00139,-0.01506
0.44149,0.43639,-0.78399,-0.00577,-0.00213,-0.01525
0.44146,0.43643,-0.78399,-0.00414,0.00054,-0.01467
0.4414,0.43642,-0.78403,-0.00546,-0.00142,-0.01428
0.44135,0.43636,-0.78409,-0.00688,-0.00042,-0.01422
0.4413,0.4363,-0.78415,-0.00866,-0.00132,-0.01209
0.44126,0.43621,-0.78422,-0.00516,-0.00178,-0.01378
0.44121,0.43614,-0.78429,-0.0058,-0.00206,-0.01277
0.44116,0.43608,-0.78436,-0.00535,-0.00151,-0.01496
0.4411,0.43602,-0.78443,-0.0084,-0.00354,-0.01535
0.44104,0.43597,-0.78448,-0.00754,-0.00552,-0.01406
0.44101,0.43595,-0.78451,-0.01019,-0.0067,-0.01512
0.44099,0.43595,-0.78452,-0.00657,-0.00651,-0.01699
0.44101,0.43598,-0.78449,-0.00741,-0.00607,-0.01546
0.44106,0.43603,-0.78444,-0.00823,-0.00488,-0.01473
0.44115,0.43609,-0.78436,-0.00615,-0.00198,-0.01508
0.44123,0.43614,-0.78428,-0.00699,-0.00383,-0.01453
0.44131,0.43619,-0.78421,-0.00501,-0.00011,-0.0145
0.44137,0.43622,-0.78416,-0.00559,-0.0024,-0.01308
0.44139,0.43624,-0.78413,-0.00392,-0.00403,-0.01344
0.44139,0.43628,-0.78411,-0.00479,-0.00313,-0.01432
0.44141,0.43632,-0.78408,-0.00449,-0.00325,-0.00947
0.44141,0.43637,-0.78405,-0.00523,-0.00217,-0.01286
0.44139,0.43642,-0.78404,-0.00445,-0.00246,-0.01519
0.44135,0.43649,-0.78402,-0.00507,-0.00273,-0.0128
0.44132,0.43652,-0.78402,-0.00838,-0.00234,-0.01549
0.44124,0.43655,-0.78405,-0.00856,-0.00263,-0.01641
0.44111,0.43655,-0.78412,-0.00834,-0.00221,-0.01571
0.44098,0.43652,-0.78421,-0.00836,-0.0027,-0.01628
0.44084,0.4365,-0.7843,-0.00817,-0.00529,-0.01551
0.44074,0.43649,-0.78436,-0.00641,-0.00694,-0.01453
0.44066,0.4365,-0.7844,-0.00662,-0.0064,-0.01454
0.44065,0.43655,-0.78438,-0.00534,-0.00573,-0.01683
0.44068,0.43661,-0.78433,-0.00679,-0.00407,-0.01366
0.44073,0.43669,-0.78426,-0.00526,-0.00545,-0.01262
0.44076,0.43676,-0.7842,-0.00596,-0.00495,-0.01307
0.44079,0.43681,-0.78415,-0.00457,-0.00542,-0.01507
0.4408,0.43686,-0.78412,-0.00411,-0.00471,-0.01391
0.44085,0.43696,-0.78404,-0.00416,-0.00481,-0.01399
0.44089,0.43707,-0.78396,-0.00562,-0.00013,-0.01272
0.44091,0.4372,-0.78387,-0.00666,-0.00384,-0.0116
0.44087,0.43731,-0.78383,-0.0061,-0.00361,-0.01213
0.44082,0.4374,-0.78381,-0.00363,-0.00274,-0.01308
0.44078,0.43749,-0.78378,-0.0052,-0.00567,-0.01603
0.44076,0.43754,-0.78376,-0.0056,-0.00175,-0.01448
0.44076,0.43754,-0.78376,-0.00504,-0.0057,-0.01288
0.4408,0.43754,-0.78375,-0.00753,-0.00755,-0.01272
0.44087,0.43755,-0.7837,-0.00456,-0.00357,-0.01168
0.4409,0.43757,-0.78367,-0.0043,-0.00469,-0.01444
0.44091,0.43761,-0.78364,-0.00852,-0.00284,-0.01468
0.44092,0.43767,-0.7836,-0.00682,-0.00234,-0.013
0.44094,0.43774,-0.78356,-0.00856,-0.00286,-0.01187
0.44096,0.43775,-0.78354,-0.00652,-0.00385,-0.01279
0.44094,0.43778,-0.78353,-0.00651,-0.00388,-0.0128
0.44091,0.43782,-0.78352,-0.00526,-0.0035,-0.01399
0.44087,0.43786,-0.78353,-0.00622,-0.00913,-0.01632
0.44082,0.4379,-0.78353,-0.00454,-0.00619,-0.01471
0.44078,0.43796,-0.78352,-0.00392,-0.00656,-0.01489
0.44078,0.43804,-0.78347,-0.00528,-0.00489,-0.0158
0.44079,0.43809,-0.78344,-0.00471,-0.00476,-0.01383
0.44079,0.43812,-0.78343,-0.00556,-0.00368,-0.01464
0.44079,0.43812,-0.78342,-0.00694,-0.00192,-0.01066
0.44079,0.43813,-0.78342,-0.009,-0.00226,-0.01471
0.44078,0.43812,-0.78343,-0.00793,-0.00329,-0.01359
0.44073,0.43811,-0.78346,-0.00622,-0.00078,-0.01326
0.44064,0.43809,-0.78353,-0.0089,-0.00393,-0.013
0.44057,0.43806,-0.78358,-0.00699,-0.00533,-0.01463
0.44052,0.43804,-0.78363,-0.00532,-0.00685,-0.01534
0.44049,0.43802,-0.78365,-0.00523,-0.00572,-0.01521
0.44047,0.438,-0.78367,-0.00464,-0.00793,-0.01383
0.44048,0.438,-0.78367,-0.0069,-0.00658,-0.014
0.44051,0.43796,-0.78367,-0.00591,-0.00574,-0.01214
0.44053,0.43796,-0.78366,-0.00433,-0.0084,-0.01497
0.44058,0.43798,-0.78362,-0.00387,-0.00405,-0.01487
0.44065,0.438,-0.78357,-0.00617,-0.00163,-0.01237
0.44073,0.438,-0.78353,-0.00622,-0.00215,-0.01379
0.4408,0.438,-0.78349,-0.00504,-0.00328,-0.01348
0.44084,0.438,-0.78346,-0.0033,-0.00344,-0.01123
0.44085,0.43804,-0.78344,-0.0057,-0.00327,-0.01324
0.44083,0.43806,-0.78343,-0.00332,-0.00122,-0.01539
0.44079,0.43809,-0.78344,-0.00523,-0.00373,-0.0131
0.44074,0.43811,-0.78346,-0.0029,-0.00369,-0.01259
0.44068,0.4381,-0.7835,-0.00551,-0.00554,-0.0147
0.44064,0.43808,-0.78353,-0.00526,-0.00372,-0.01417
0.44062,0.43805,-0.78356,-0.00666,-0.00454,-0.01336
0.44061,0.43802,-0.78358,-0.00712,-0.00379,-0.0143
0.44056,0.43801,-0.78361,-0.00667,-0.00598,-0.01408
0.44053,0.438,-0.78364,-0.00776,-0.00514,-0.01432
0.44047,0.43797,-0.78369,-0.00483,-0.00504,-0.01494
0.44042,0.43794,-0.78373,-0.00702,-0.00627,-0.01619
0.44039,0.43793,-0.78375,-0.00459,-0.00409,-0.0155
0.44039,0.43796,-0.78374,-0.00704,-0.00068,-0.01317
0.44036,0.43801,-0.78373,-0.00875,-0.00584,-0.01354
0.4403,0.43801,-0.78376,-0.00753,-0.00581,-0.01058
0.44023,0.43801,-0.7838,-0.00461,-0.00386,-0.01323
0.44019,0.43805,-0.7838,-0.0028,-0.00336,-0.01428
0.44019,0.43807,-0.78379,-0.00425,-0.00396,-0.01301
0.44024,0.43804,-0.78378,-0.0055,-0.0065,-0.01411
0.4403,0.43801,-0.78376,-0.0065,-0.00692,-0.0142
0.44037,0.43795,-0.78376,-0.00525,-0.00646,-0.01367
0.44047,0.43791,-0.78372,-0.00494,-0.00426,-0.01404
0.44054,0.43791,-0.78368,-0.00725,-0.00416,-0.01495
0.44056,0.43792,-0.78367,-0.00765,-0.00091,-0.01453
0.44056,0.43794,-0.78365,-0.00567,-0.00461,-0.01049
0.44056,0.43795,-0.78365,-0.00831,-0.00406,-0.0142
0.44054,0.43795,-0.78366,-0.00482,-0.00452,-0.01481
0.44049,0.43795,-0.78369,-0.0055,-0.00492,-0.01263
0.44044,0.43792,-0.78374,-0.00583,-0.00508,-0.01399
0.44038,0.43788,-0.78379,-0.00596,-0.00734,-0.01602
0.44034,0.43787,-0.78382,-0.00586,-0.00677,-0.01411
0.44032,0.43787,-0.78383,-0.00564,-0.00577,-0.01354
0.44032,0.43787,-0.78383,-0.00428,-0.00547,-0.01582
0.44033,0.43786,-0.78383,-0.00742,-0.00464,-0.01381
0.44034,0.43787,-0.78382,-0.00745,-0.0028,-0.01458
0.44034,0.43788,-0.78381,-0.00545,-0.00649,-0.01355
0.44034,0.43789,-0.7838,-0.00487,-0.00114,-0.01251
0.4403,0.4379,-0.78382,-0.00625,-0.00379,-0.01316
0.44026,0.43789,-0.78385,-0.00604,-0.00395,-0.01465
0.44021,0.43786,-0.7839,-0.00619,-0.00576,-0.01362
0.44017,0.43786,-0.78392,-0.00496,-0.00545,-0.01528
0.44013,0.43786,-0.78394,-0.00493,-0.00545,-0.01313
0.44009,0.43785,-0.78397,-0.00315,-0.00676,-0.0149
0.44006,0.43785,-0.78399,-0.00425,-0.0063,-0.01326
0.44006,0.43785,-0.78399,-0.00231,-0.0066,-0.01191
0.44009,0.43783,-0.78398,-0.00499,-0.0047,-0.0152
0.44012,0.43783,-0.78396,-0.00586,-0.00534,-0.01308
0.44016,0.43784,-0.78394,-0.00628,-0.00577,-0.01277
0.44018,0.43784,-0.78392,-0.00673,-0.00439,-0.01564
0.44019,0.43786,-0.78391,-0.00678,-0.00321,-0.01452
0.44019,0.43789,-0.7839,-0.0061,-0.00466,-0.01318
0.44018,0.43791,-0.78389,-0.00376,-0.00512,-0.01485
0.44016,0.43793,-0.78388,-0.00446,-0.00385,-0.0129
0.44015,0.43796,-0.78387,-0.00395,-0.00429,-0.0148
0.44016,0.43795,-0.78387,-0.00495,-0.00367,-0.01508
0.44014,0.43796,-0.78387,-0.00443,-0.00301,-0.01361
0.44014,0.43794,-0.78389,-0.00546,-0.00464,-0.01187
0.44012,0.43793,-0.78391,-0.00558,-0.005,-0.01365
0.4401,0.43792,-0.78392,-0.00748,-0.004,-0.01351
0.44007,0.43792,-0.78395,-0.00321,-0.00384,-0.01398
0.44004,0.43791,-0.78396,-0.00521,-0.00331,-0.01302
0.44002,0.4379,-0.78398,-0.00458,-0.00462,-0.01387
0.43999,0.43791,-0.78399,-0.00595,-0.00424,-0.01447
0.43997,0.43791,-0.784,-0.00681,-0.00499,-0.01565
0.43996,0.43791,-0.78401,-0.00519,-0.00569,-0.01372
0.43997,0.43793,-0.78399,-0.0072,-0.0036,-0.01424
0.43999,0.43797,-0.78396,-0.00664,-0.00409,-0.01392
0.44,0.438,-0.78393,-0.00621,-0.00569,-0.01422
0.44001,0.43802,-0.78392,-0.00376,-0.00592,-0.0147
0.44001,0.43804,-0.7839,-0.00215,-0.00409,-0.01239
0.44004,0.4381,-0.78386,-0.00382,-0.0048,-0.01406
0.44004,0.43816,-0.78383,-0.00324,-0.00231,-0.01445
0.44001,0.43818,-0.78382,-0.00769,-0.00367,-0.01235
0.43995,0.43817,-0.78387,-0.00824,-0.00209,-0.01373
0.43989,0.43814,-0.78392,-0.00546,-0.00087,-0.01543
0.43986,0.43817,-0.78392,-0.00613,-0.00703,-0.01307
0.43985,0.43819,-0.78391,-0.00427,-0.00597,-0.014
0.4398,0.43816,-0.78396,-0.00509,-0.00252,-0.01473
0.43977,0.43811,-0.784,-0.00279,-0.01156,-0.01464
0.43972,0.43803,-0.78407,0.00196,-0.01071,-0.01693
0.4397,0.43806,-0.78407,0.00376,-0.01152,-0.01717
0.43977,0.43818,-0.78396,-0.00362,-0.00593,-0.00925
0.43987,0.43832,-0.78383,-0.00536,-0.00636,-0.01122
0.4399,0.43846,-0.78374,-0.0071,-0.00147,-0.01366
0.43989,0.43857,-0.78368,-0.0117,0.00256,-0.0121
0.43986,0.43867,-0.78364,-0.01089,0.00281,-0.01455
0.43981,0.43869,-0.78366,-0.01019,0.00154,-0.01657
0.43972,0.43864,-0.78373,-0.00439,-0.00537,-0.01616
0.4397,0.43857,-0.78379,-0.00371,-0.00575,-0.01306
0.43977,0.43847,-0.7838,-0.00397,-0.00765,-0.01318
0.4399,0.43837,-0.78379,-0.00153,-0.0057,-0.01483
0.44006,0.43829,-0.78374,-0.0063,-0.00324,-0.01346
0.44023,0.43822,-0.78369,-0.00663,-0.00299,-0.01397
0.44036,0.43812,-0.78366,-0.00593,-0.00236,-0.01623
0.44037,0.43801,-0.78373,-0.00574,-0.00215,-0.0153
0.44034,0.43791,-0.7838,-0.00807,-0.00487,-0.01056
0.44031,0.43786,-0.78384,-0.00589,-0.00892,-0.01387
0.44025,0.43775,-0.78393,-0.0017,-0.00845,-0.01482
0.44017,0.43769,-0.78401,-0.00145,-0.00602,-0.01218
0.44022,0.43772,-0.78397,-0.00399,-0.0052,-0.01005
0.44036,0.43772,-0.78389,-0.00276,-0.00591,-0.01058
0.44045,0.4377,-0.78385,-0.00138,-0.00619,-0.01394
0.44046,0.4377,-0.78385,-0.00415,-0.00519,-0.00805
0.44042,0.43771,-0.78387,-0.00659,-0.00666,-0.01427
0.4404,0.43771,-0.78387,-0.00632,-0.00349,-0.01491
0.44039,0.43774,-0.78386,-0.00812,-0.00306,-0.01512
0.44038,0.43779,-0.78384,-0.00568,-0.0039,-0.013
0.44036,0.43781,-0.78384,-0.0028,-0.00496,-0.01468
0.44033,0.43782,-0.78385,-0.00463,-0.00714,-0.01508
0.44028,0.43783,-0.78387,-0.00529,-0.00663,-0.01404
0.44022,0.43782,-0.78391,-0.00527,-0.00539,-0.01357
0.44015,0.43784,-0.78394,-0.00355,-0.00774,-0.01438
0.44012,0.43788,-0.78394,-0.00662,-0.00526,-0.0142
0.44011,0.43793,-0.78391,-0.00336,-0.00402,-0.01501
0.44011,0.43798,-0.78389,-0.00307,-0.0022,-0.0136
0.44009,0.43801,-0.78388,-0.0031,-0.00158,-0.0123
0.44007,0.43797,-0.78391,-0.00443,-0.00228,-0.01267
0.44003,0.4379,-0.78398,-0.0052,-0.00131,-0.01157
0.44,0.43781,-0.78404,-0.00321,0.00042,-0.01202
0.43998,0.4377,-0.78412,-0.00708,-0.00046,-0.01127
0.43995,0.43753,-0.78422,-0.00503,-0.00201,-0.01631
0.43994,0.43738,-0.78431,-0.00502,-0.00186,-0.01622
0.43991,0.43726,-0.7844,-0.00726,-0.00871,-0.01263
0.43981,0.43715,-0.78452,-0.00432,-0.00778,-0.01699
0.43966,0.43709,-0.78463,-0.00386,-0.00929,-0.01494
0.43956,0.43709,-0.78469,-0.00472,-0.00653,-0.014
0.43953,0.43707,-0.78472,-0.00027,-0.00553,-0.01484
0.4395,0.43705,-0.78475,-0.0004,-0.00341,-0.01327
0.43951,0.43698,-0.78478,-0.00016,-0.00347,-0.0133
0.43954,0.43689,-0.78481,-0.00509,-0.0044,-0.01429
0.43961,0.43682,-0.78481,-0.00436,-0.0039,-0.01694
0.43963,0.43682,-0.7848,-0.00584,-0.00665,-0.01549
0.43963,0.43687,-0.78477,-0.00769,-0.00731,-0.01282
0.43959,0.43692,-0.78477,-0.00753,-0.00642,-0.0143
0.43949,0.437,-0.78478,-0.00444,-0.00699,-0.01519
0.43937,0.43707,-0.78481,-0.0052,-0.00482,-0.01347
0.43929,0.43716,-0.7848,-0.00414,-0.00288,-0.01242
0.43926,0.43721,-0.78479,-0.00011,-0.00557,-0.01378
0.43927,0.43724,-0.78477,-0.00227,-0.00643,-0.01409
0.43932,0.43729,-0.78471,-0.00229,-0.00588,-0.01387
0.43938,0.43734,-0.78465,-0.00235,-0.00218,-0.01227
0.43937,0.43742,-0.78461,-0.00451,-0.00437,-0.01165
0.4393,0.43745,-0.78463,-0.00809,-0.00494,-0.01316
0.43919,0.43746,-0.78469,-0.00459,-0.00367,-0.015
0.43912,0.43751,-0.7847,-0.00254,-0.00292,-0.01408
0.43907,0.43754,-0.78471,-0.00288,-0.00288,-0.01386
0.43905,0.43752,-0.78473,-0.0057,-0.00249,-0.01281
0.43909,0.43746,-0.78474,-0.00623,-0.00399,-0.01311
0.43915,0.4374,-0.78475,-0.00697,-0.00283,-0.01434
0.43922,0.4373,-0.78476,-0.00627,-0.00496,-0.01648
0.43926,0.43722,-0.78479,-0.006,-0.00283,-0.01479
0.43927,0.43713,-0.78483,-0.00572,-0.00634,-0.01508
0.43928,0.43706,-0.78487,-0.00771,-0.00352,-0.01458
0.43928,0.437,-0.7849,-0.00662,-0.00557,-0.01106
0.43932,0.43694,-0.7849,-0.00493,-0.00883,-0.01325
0.43935,0.43691,-0.78491,-0.00403,-0.00719,-0.01462
0.43935,0.4369,-0.78491,-0.00322,-0.0074,-0.01389
0.43934,0.43693,-0.7849,-0.00267,-0.00759,-0.01418
0.43934,0.43698,-0.78487,-0.00313,-0.00685,-0.01052
0.43937,0.43705,-0.78482,0.00019,-0.0102,-0.01181
0.43936,0.4372,-0.78474,-0.00023,-0.00972,-0.01311
0.43936,0.43743,-0.78461,0.00044,-0.0065,-0.01435
0.43934,0.43767,-0.78449,-0.00199,-0.00788,-0.01407
0.43932,0.43795,-0.78435,-0.00197,-0.00816,-0.01421
0.43934,0.43823,-0.78418,-0.00389,-0.00441,-0.00992
0.43938,0.43848,-0.78402,-0.00246,-0.00176,-0.01585
0.43939,0.43868,-0.7839,-0.00266,-0.00054,-0.01606
0.43946,0.43882,-0.78378,-0.00745,0.00135,-0.01163
0.43957,0.4389,-0.78367,-0.01202,-6e-05,-0.01401
0.4396,0.43889,-0.78366,-0.01276,0.00173,-0.01511
0.43955,0.43884,-0.78372,-0.01075,-0.0025,-0.01581
0.43948,0.43873,-0.78382,-0.00957,-0.00129,-0.01417
0.43943,0.43855,-0.78395,-0.00678,0.00102,-0.01673
0.43942,0.43833,-0.78408,-0.00569,-0.0003,-0.01287
0.43945,0.43806,-0.78421,-0.0027,-0.00581,-0.0141
0.43947,0.4378,-0.78435,0.00266,-0.0093,-0.01282
0.43948,0.4376,-0.78445,0.00373,-0.013,-0.01244
0.43949,0.43752,-0.78449,0.0037,-0.01646,-0.00853
0.43946,0.43752,-0.7845,0.00329,-0.01629,-0.01012
0.43943,0.43758,-0.78449,0.00193,-0.01192,-0.01316
0.43943,0.43769,-0.78443,-0.00508,-0.00405,-0.01227
0.43952,0.43776,-0.78434,-0.00698,-0.00171,-0.01284
0.43962,0.43776,-0.78428,-0.00922,-0.00103,-0.01709
0.43966,0.43774,-0.78427,-0.00842,-0.00205,-0.01427
0.43964,0.43772,-0.78429,-0.01073,-0.00186,-0.01277
0.43955,0.43769,-0.78436,-0.00903,-0.00312,-0.01276
0.43939,0.43766,-0.78446,-0.00595,-0.00225,-0.01636
0.43922,0.43764,-0.78457,-0.00384,-0.00318,-0.01328
0.43908,0.43763,-0.78466,0.00066,-0.00419,-0.01564
0.439,0.4376,-0.78472,0.00111,-0.00788,-0.01348
0.43896,0.43757,-0.78476,0.00229,-0.01011,-0.01329
0.43896,0.43758,-0.78475,1e-05,-0.00942,-0.01372
0.43899,0.43761,-0.78472,-0.00173,-0.00916,-0.01286
0.43905,0.43768,-0.78465,-0.0008,-0.00453,-0.01141
0.43911,0.43775,-0.78458,-0.00222,-0.00303,-0.01161
0.43918,0.43783,-0.78449,-0.00639,-0.00363,-0.01579
0.43923,0.43789,-0.78443,-0.00707,0.00037,-0.01487
0.43927,0.43793,-0.78438,-0.00952,0.00022,-0.01335
0.4393,0.43795,-0.78436,-0.00804,-0.00208,-0.01372
0.43927,0.43795,-0.78437,-0.00696,-0.00281,-0.01429
0.43922,0.43794,-0.7844,-0.00397,-0.00552,-0.01206
0.43915,0.43794,-0.78444,-0.00134,-0.00672,-0.01292
0.4391,0.43796,-0.78446,0.00015,-0.00634,-0.01443
0.43912,0.438,-0.78443,-0.00408,-0.005,-0.01323
0.43916,0.43804,-0.78438,-0.00294,-0.00417,-0.01199
0.43914,0.43809,-0.78437,-0.00217,-0.00595,-0.01232
0.43911,0.43812,-0.78437,-0.00603,-0.00786,-0.01248
0.43909,0.43819,-0.78434,-0.0,-0.00803,-0.01389
0.43907,0.43828,-0.7843,0.00076,-0.00772,-0.0144
0.43909,0.43836,-0.78425,-0.0027,-0.00251,-0.01537
0.43914,0.43842,-0.78418,-0.00596,-0.00525,-0.01263
0.43919,0.43846,-0.78413,-0.006,-0.0053,-0.01268
0.4392,0.43849,-0.78411,-0.00639,-0.00579,-0.01397
0.43919,0.4385,-0.78411,-0.00424,-0.00419,-0.01339
0.43916,0.43853,-0.78411,-0.00401,-0.00413,-0.01286
0.43911,0.43857,-0.78412,-0.00505,-0.00278,-0.0136
0.43908,0.4386,-0.78412,-0.00184,-0.00498,-0.01165
0.43906,0.43859,-0.78413,-0.00388,-0.00521,-0.01258
0.43907,0.43857,-0.78414,-0.00125,-0.0053,-0.01274
0.43906,0.43853,-0.78417,-0.00374,-0.00602,-0.01286
0.43904,0.43845,-0.78423,-0.00585,-0.00598,-0.01157
0.43902,0.43834,-0.7843,-0.00657,-0.00545,-0.01276
0.43896,0.43824,-0.78438,-0.00899,-0.00176,-0.01359
0.43891,0.43813,-0.78447,-0.00761,-0.00032,-0.01449
0.43887,0.43799,-0.78457,-0.01016,0.00047,-0.01468
0.43882,0.43785,-0.78468,-0.00957,-0.00589,-0.01607
0.43872,0.43775,-0.7848,-0.00511,-0.00902,-0.0171
0.43864,0.4377,-0.78487,-0.00097,-0.01138,-0.01405
0.43861,0.43772,-0.78487,0.00401,-0.01261,-0.0116
0.43861,0.43779,-0.78484,0.00304,-0.00918,-0.01268
0.43866,0.43787,-0.78476,0.00318,-0.00883,-0.01144
0.43877,0.438,-0.78463,-0.00164,-0.00604,-0.00959
0.43891,0.43813,-0.78447,-0.00527,-0.00074,-0.01323
0.43901,0.43826,-0.78434,-0.00484,-0.00026,-0.01304
0.43904,0.43836,-0.78427,-0.00369,0.00036,-0.0123
0.43899,0.43843,-0.78426,-0.00633,-0.00107,-0.01167
0.43889,0.43845,-0.78431,-0.00619,-0.00116,-0.01157
0.43876,0.43847,-0.78437,-0.00341,-0.00079,-0.0133
0.43867,0.43844,-0.78444,-0.00309,-0.00257,-0.01378
0.43859,0.43836,-0.78453,-0.00042,-0.00443,-0.0163
0.43855,0.43826,-0.7846,-0.0023,-0.00666,-0.0143
0.43852,0.43817,-0.78467,-0.0041,-0.00716,-0.01209
0.43853,0.43809,-0.78471,-0.00578,-0.00585,-0.01542
0.43852,0.438,-0.78476,-0.0038,-0.00711,-0.01605
0.43849,0.43794,-0.78481,-0.00312,-0.00348,-0.01546
0.43849,0.43791,-0.78483,-0.00831,-0.00359,-0.0138
0.43851,0.43788,-0.78484,-0.0065,-0.0037,-0.01246
0.43852,0.43786,-0.78484,-0.00888,-0.00496,-0.01677
0.43852,0.43786,-0.78484,-0.00827,-0.00546,-0.0131
0.43855,0.43786,-0.78483,-0.00446,-0.00387,-0.01386
0.43856,0.43787,-0.78481,-0.00393,-0.00387,-0.01295
0.43855,0.43789,-0.78481,-0.00259,-0.00637,-0.00881
0.43854,0.43788,-0.78482,-0.00034,-0.00586,-0.01171
0.43853,0.43789,-0.78482,0.00131,-0.00536,-0.01109
0.43851,0.43789,-0.78483,0.00103,-0.00547,-0.01534
0.43852,0.43789,-0.78483,-0.00048,-0.00596,-0.01324
0.43854,0.43787,-0.78483,-0.00051,-0.00594,-0.01324
0.43854,0.43782,-0.78485,-0.00122,-0.00736,-0.01404
0.43853,0.4378,-0.78487,-0.00259,-0.00591,-0.01373
0.43856,0.43783,-0.78484,-0.00541,-0.00238,-0.01356
0.43858,0.43789,-0.7848,-0.00619,-0.00376,-0.0133
0.43853,0.4379,-0.78481,-0.00907,-0.00557,-0.01384
0.43848,0.43786,-0.78487,-0.00755,-0.0041,-0.01445
0.43848,0.43784,-0.78488,-0.00618,-0.0032,-0.0163
0.4385,0.43783,-0.78487,-0.00559,-0.00544,-0.01415
0.43856,0.43776,-0.78488,-0.005,-0.00514,-0.01473
0.43865,0.43769,-0.78487,-0.0049,-0.00796,-0.01079
0.43872,0.43763,-0.78486,-0.00093,-0.00573,-0.01194
0.43878,0.43759,-0.78485,-0.00174,-0.00543,-0.01346
0.43884,0.43759,-0.78481,-0.00148,-0.0059,-0.01112
0.43888,0.4376,-0.78479,-0.00362,-0.00356,-0.00911
0.4389,0.43757,-0.78479,-0.00439,-0.00202,-0.01175
0.43891,0.43754,-0.78481,-0.00261,-0.00189,-0.01212
0.43893,0.43751,-0.78481,-0.00083,-0.00281,-0.01286
0.43893,0.4375,-0.78481,-0.00452,-0.00356,-0.01655
0.43892,0.43749,-0.78483,-0.01019,-0.00601,-0.01336
0.43896,0.43747,-0.78481,-0.00925,-0.00934,-0.0144
0.43904,0.43746,-0.78478,-0.00431,-0.00608,-0.01619
0.43907,0.43745,-0.78477,-0.00215,-0.00424,-0.01397
0.43906,0.43741,-0.78479,0.00119,-0.00832,-0.01187
0.43901,0.43738,-0.78484,0.00226,-0.00795,-0.01394
0.43894,0.43734,-0.7849,7e-05,-0.00593,-0.01072
0.43886,0.43733,-0.78495,0.00116,-0.00407,-0.00901
0.43879,0.43732,-0.78499,0.00144,-0.00316,-0.01032
0.43872,0.43733,-0.78503,0.00216,-0.00251,-0.01165
0.4386,0.43733,-0.78509,-0.00411,-0.0018,-0.01248
0.43847,0.43732,-0.78517,-0.0052,-0.00337,-0.01288
0.4383,0.43727,-0.78529,-0.0068,-0.0049,-0.01592
0.43813,0.43723,-0.78541,-0.00769,-0.00437,-0.0141
0.438,0.43722,-0.78549,-0.00787,-0.00798,-0.01691
0.43793,0.43722,-0.78553,-0.00851,-0.0058,-0.01935
0.43792,0.43721,-0.78554,-0.00798,-0.00599,-0.01418
0.43795,0.43724,-0.78551,-0.00719,-0.00555,-0.01542
0.438,0.43724,-0.78548,-0.00308,-0.00304,-0.01451
0.43807,0.43725,-0.78544,-0.00242,-0.00658,-0.01214
0.43813,0.43725,-0.7854,-0.00247,-0.00659,-0.01218
0.43817,0.43726,-0.78537,-0.00273,-0.00387,-0.01242
0.43821,0.43729,-0.78534,-0.00028,-0.0036,-0.01076
0.43824,0.4373,-0.78531,-0.00028,-0.00477,-0.01161
0.43826,0.43732,-0.78529,-0.00045,-0.00326,-0.01053
0.43825,0.43731,-0.78531,-0.00125,-0.00351,-0.01265
0.43824,0.43729,-0.78532,-0.00124,-0.0035,-0.01264
0.43821,0.43728,-0.78534,4e-05,-0.0077,-0.01173
0.43816,0.43729,-0.78537,-0.00275,-0.00572,-0.01145
0.43811,0.4373,-0.78538,-0.0027,-0.00487,-0.01202
0.43808,0.43733,-0.78538,-0.00441,-0.00686,-0.01576
0.43804,0.43735,-0.78539,-0.00359,-0.00502,-0.01403
0.43803,0.43739,-0.78538,-0.00519,-0.00513,-0.0129
0.43803,0.43739,-0.78538,-0.00586,-0.00432,-0.01244
0.43801,0.4374,-0.78538,-0.00476,-0.00339,-0.01273
0.43798,0.43741,-0.78539,-0.00566,-0.00335,-0.0122
0.43795,0.43742,-0.78541,-0.00543,-0.00592,-0.01205
0.43792,0.43741,-0.78543,-0.00252,-0.00537,-0.01351
0.43788,0.43739,-0.78546,-0.00204,-0.00464,-0.01401
0.43788,0.43739,-0.78546,-0.001,-0.00834,-0.01199
0.4379,0.4374,-0.78545,-0.00275,-0.00456,-0.01506
0.43789,0.43746,-0.78542,-0.00343,-0.0047,-0.01085
0.43789,0.43751,-0.78539,-0.00634,-0.00521,-0.0133
0.43786,0.43754,-0.78539,-0.00338,-0.00599,-0.01452
0.43785,0.43758,-0.78537,-0.0019,-0.00409,-0.01767
0.43788,0.43764,-0.78533,-0.00272,-0.00545,-0.013
0.43796,0.43764,-0.78528,-0.00596,-0.00678,-0.0141
0.43805,0.43762,-0.78524,-0.00617,-0.00718,-0.01391
0.43814,0.43761,-0.7852,-0.00318,-0.00681,-0.01239
0.43822,0.43762,-0.78514,-0.00297,-0.00334,-0.01451
0.43831,0.43765,-0.78508,-0.00247,-0.00382,-0.01004
0.43833,0.43767,-0.78505,-0.00498,-0.00324,-0.01171
0.43833,0.43769,-0.78504,-0.00377,-0.00227,-0.0097
0.43831,0.43772,-0.78504,-0.00234,-0.00485,-0.01101
0.43831,0.43774,-0.78503,-0.00171,-0.00534,-0.01517
0.43829,0.43776,-0.78503,-0.00143,-0.00221,-0.01085
0.43824,0.43777,-0.78505,-0.00401,-0.0054,-0.01247
0.4382,0.43777,-0.78507,-0.00322,-0.00814,-0.01299
0.43818,0.43778,-0.78507,-0.00201,-0.00839,-0.01507
0.43815,0.43785,-0.78506,-0.00279,-0.00476,-0.0151
0.43814,0.43791,-0.78503,-0.00218,-0.00416,-0.01394
0.43815,0.43794,-0.78501,-0.00426,-0.00306,-0.013
0.43814,0.43796,-0.785,-0.00567,-0.00436,-0.01407
0.43811,0.43799,-0.785,-0.00462,-0.00342,-0.01402
0.43809,0.43801,-0.785,-0.00463,-0.00497,-0.01172
0.43804,0.43805,-0.78501,-0.0031,-0.00434,-0.01442
0.43798,0.43807,-0.78503,-0.00376,-0.00156,-0.01487
0.4379,0.43807,-0.78507,-0.00225,-0.00677,-0.0133
0.43786,0.43806,-0.7851,-0.00221,-0.00676,-0.01327
0.43784,0.43807,-0.78511,-0.00449,-0.00635,-0.0129
0.43785,0.43806,-0.78511,-0.00419,-0.00468,-0.01294
0.43788,0.43807,-0.78509,-0.00465,-0.00656,-0.0133
0.43793,0.43808,-0.78505,-0.00575,-0.00506,-0.01429
0.43796,0.43808,-0.78503,-0.00615,-0.00424,-0.01234
0.43798,0.43808,-0.78502,-0.00295,-0.00261,-0.01295
0.43798,0.43809,-0.78501,-0.00438,-0.00314,-0.0118
0.43799,0.43808,-0.78502,-0.00449,-0.00535,-0.01412
0.43797,0.43807,-0.78503,-0.00198,-0.00377,-0.01328
0.43799,0.43803,-0.78504,-0.0007,-0.00415,-0.01348
0.438,0.43801,-0.78506,-0.00098,-0.00415,-0.00981
0.43803,0.43799,-0.78504,-0.00274,-0.00517,-0.01064
0.43804,0.43798,-0.78505,-0.00162,-0.00525,-0.01158
0.43802,0.43796,-0.78507,-0.00617,-0.00322,-0.01199
0.43798,0.43793,-0.7851,-0.00416,-0.00295,-0.01249
0.43796,0.4379,-0.78513,-0.00441,-0.00222,-0.01095
0.43791,0.43786,-0.78518,-0.00367,-0.00641,-0.01288
0.43784,0.43784,-0.78524,-0.003,-0.00586,-0.01223
0.4378,0.43781,-0.78527,-0.00284,-0.00614,-0.01377
0.43779,0.43778,-0.7853,-0.00322,-0.00601,-0.01529
0.43778,0.43774,-0.78532,-0.00315,-0.00601,-0.01572
0.43778,0.43771,-0.78534,-0.00355,-0.00329,-0.01105
0.43778,0.43766,-0.78537,-0.00496,-0.00515,-0.01371
0.43778,0.43761,-0.7854,-0.00263,-0.00912,-0.01363
0.4378,0.43758,-0.7854,-0.00398,-0.00409,-0.01474
0.43781,0.43762,-0.78537,-0.00291,-0.00065,-0.01471
0.4378,0.43767,-0.78535,-0.00384,-0.00377,-0.01157
0.43776,0.43765,-0.78538,-0.00343,-0.00394,-0.01485
0.43771,0.43763,-0.78542,-0.00268,-0.0052,-0.01334
0.43769,0.43764,-0.78543,-0.00191,-0.00486,-0.01291
0.43771,0.43762,-0.78543,-0.00287,-0.00613,-0.01253
0.43776,0.43756,-0.78543,-0.00334,-0.0071,-0.01414
0.43784,0.4375,-0.78542,-0.00537,-0.00679,-0.0091
0.43791,0.43743,-0.78542,-0.0002,-0.00447,-0.0131
0.43794,0.43737,-0.78544,-0.00049,-0.00541,-0.01394
0.43798,0.43734,-0.78543,-0.00454,-0.00267,-0.01495
0.43801,0.4373,-0.78544,-0.00519,-0.00566,-0.01183
0.43805,0.43723,-0.78545,-0.00267,-0.00381,-0.01278
0.43805,0.43719,-0.78548,-0.00031,-0.00451,-0.01222
0.43804,0.43716,-0.7855,-0.00222,-0.0052,-0.01069
0.43801,0.43714,-0.78553,-0.00429,-0.00666,-0.01603
0.43794,0.4371,-0.78559,-0.00485,-0.00676,-0.01295
0.43789,0.43709,-0.78562,-0.0033,-0.00521,-0.0126
0.43787,0.43711,-0.78562,-0.0053,-0.00598,-0.01504
0.43786,0.43711,-0.78563,-0.00074,-0.00498,-0.01475
0.43785,0.4371,-0.78564,-0.00472,-0.00547,-0.01481
0.43785,0.43708,-0.78565,-0.00421,-0.00558,-0.01436
0.43785,0.43706,-0.78566,-0.00608,-0.00399,-0.01223
0.43784,0.43705,-0.78568,-0.00382,-0.00458,-0.01227
0.43781,0.43708,-0.78567,-0.00343,-0.00367,-0.01363
0.4378,0.43709,-0.78567,-0.00292,-0.00364,-0.01371
0.43778,0.43707,-0.7857,-0.00173,-0.0041,-0.01321
0.43777,0.43706,-0.78571,-0.00163,-0.00316,-0.01237
0.43776,0.43703,-0.78573,-0.00154,-0.00692,-0.01287
0.43773,0.43702,-0.78576,-0.00227,-0.00583,-0.01303
0.4377,0.43699,-0.78579,-0.00311,-0.006,-0.01207
0.4377,0.43698,-0.78579,-0.00368,-0.00584,-0.01198
0.4377,0.43697,-0.7858,-0.00304,-0.00345,-0.01309
0.4377,0.43695,-0.78581,-0.00293,-0.0052,-0.01362
0.4377,0.43694,-0.78581,-0.0033,-0.00436,-0.01475
0.43768,0.43691,-0.78584,-0.00436,-0.00265,-0.01223
