gravity.x,gravity.y,gravity.z,userAcceleration.x,userAcceleration.y,userAcceleration.z
-0.56603,0.11747,0.81596,0.12872,0.07738,0.12012
-0.56586,0.1197,0.81576,0.15891,0.08087,0.13012
-0.56737,0.12208,0.81435,0.19652,0.11518,0.04749
-0.56782,0.12448,0.81368,0.17489,0.11805,0.02021
-0.56746,0.12604,0.81369,0.08999,0.12085,0.02777
-0.56675,0.12749,0.81396,0.07853,0.08963,0.02104
-0.5668,0.12851,0.81376,0.08148,0.06444,0.01082
-0.56491,0.12991,0.81485,0.05934,0.04587,0.00869
-0.56454,0.13175,0.81481,0.04986,0.00258,0.03879
-0.56645,0.13213,0.81343,0.05174,-0.01703,0.03189
-0.56781,0.13295,0.81234,0.03036,-0.04123,0.01023
-0.56962,0.13368,0.81095,0.00851,-0.06722,-0.01234
-0.57275,0.13407,0.80868,-0.00187,-0.07623,-0.01831
-0.57555,0.13407,0.80669,-0.02041,-0.08196,-0.00966
-0.57836,0.1337,0.80474,-0.01237,-0.06533,0.02553
-0.58173,0.1344,0.80219,-0.01278,-0.04977,0.03259
-0.58567,0.13506,0.79921,0.00205,-0.02946,0.01319
-0.58983,0.13563,0.79605,-0.00177,-0.00319,-0.00065
-0.59318,0.13689,0.79334,-0.01331,0.03517,-0.02039
-0.5958,0.13764,0.79124,-0.03808,0.06463,-0.04536
-0.59863,0.13843,0.78897,-0.0351,0.05789,-0.059
-0.60032,0.13883,0.78761,-0.02709,0.06377,-0.05746
-0.6013,0.13915,0.7868,0.01528,0.02984,-0.01895
-0.6009,0.1389,0.78716,0.00869,0.02809,0.0128
-0.59962,0.13891,0.78813,-0.00203,0.02434,0.04177
-0.59887,0.13944,0.7886,0.03015,0.02114,0.01113
-0.5988,0.13952,0.78864,0.04311,0.02859,-0.00262
-0.5992,0.1395,0.78834,0.05431,-0.02167,-0.01008
-0.59847,0.13954,0.78889,0.03684,-0.00963,0.04622
-0.59769,0.1396,0.78947,0.03245,0.01098,0.04561
-0.59768,0.13981,0.78944,0.03168,0.00872,0.05125
-0.59886,0.13983,0.78854,0.04572,-0.00512,0.00623
-0.60086,0.13982,0.78702,0.04601,0.01927,-0.01547
-0.60194,0.13981,0.7862,0.03862,-0.0107,-0.00951
-0.60232,0.13993,0.78589,0.00423,0.01905,0.00354
-0.60234,0.13969,0.78592,-0.00756,0.02584,0.01409
-0.60267,0.13929,0.78573,-0.00349,0.01583,-0.00107
-0.60304,0.13882,0.78553,0.02776,0.0243,0.00765
-0.60341,0.13829,0.78534,0.03301,0.0076,0.0137
-0.60414,0.13774,0.78487,0.02954,-0.03287,0.02131
-0.60449,0.13765,0.78463,0.02381,-0.01941,0.04107
-0.60502,0.13819,0.78412,0.01618,0.01128,0.03266
-0.60645,0.13901,0.78286,0.02206,0.03386,0.03211
-0.60817,0.13976,0.7814,0.02821,-0.00286,-0.0006
-0.60901,0.14045,0.78062,0.01389,0.01514,-0.01011
-0.60976,0.14112,0.77992,0.00922,0.02088,-0.00422
-0.61036,0.14198,0.77929,0.00181,0.02858,-0.00164
-0.611,0.14267,0.77866,-0.00888,0.00631,-0.0091
-0.61177,0.14317,0.77796,-0.01835,-0.00375,-0.00835
-0.61259,0.14386,0.77719,-0.03793,-0.01351,-0.00273
-0.61386,0.14482,0.77601,0.00913,0.00694,-0.01532
-0.61533,0.14565,0.77469,0.01846,-0.0021,0.00277
-0.61687,0.14672,0.77326,0.01979,-0.01354,0.04066
-0.61878,0.148,0.77149,0.01412,0.00067,0.02325
-0.62128,0.14977,0.76913,0.01699,0.00471,0.00516
-0.62425,0.15137,0.76641,0.01446,0.02287,-0.04232
-0.62543,0.15192,0.76534,0.05391,0.02582,-0.00693
-0.62562,0.15193,0.76518,0.05452,0.01762,0.01124
-0.62506,0.15197,0.76563,0.04125,0.02739,0.00899
-0.62475,0.1521,0.76586,0.00702,0.04055,0.01245
-0.62502,0.1521,0.76564,0.00768,0.04591,0.00968
-0.62467,0.15226,0.76589,0.00213,0.02423,-0.01126
-0.62399,0.15199,0.7665,0.00196,0.0196,-0.00937
-0.62281,0.15173,0.76751,-0.00085,0.01974,-0.00204
-0.62164,0.15167,0.76847,-0.00393,-0.00254,-0.01041
-0.6204,0.15133,0.76954,-0.00732,-0.01156,-0.00756
-0.61911,0.15106,0.77062,-0.00812,-0.02084,0.00376
-0.61808,0.15094,0.77148,0.00201,-0.0196,0.00864
-0.61738,0.15081,0.77207,0.0085,-0.01568,0.00903
-0.61699,0.15072,0.77239,0.02243,-0.01256,0.00547
-0.61663,0.15048,0.77272,0.02695,-0.00604,0.012
-0.61618,0.15037,0.7731,0.02413,-0.00164,0.0154
-0.61586,0.15033,0.77337,0.02621,0.00963,0.02005
-0.61569,0.15039,0.77349,0.02633,0.01921,0.01293
-0.61581,0.15053,0.77337,0.02592,0.02194,0.01128
-0.61587,0.15065,0.7733,0.01841,0.02738,0.00969
-0.61572,0.15082,0.77338,0.00557,0.01507,-0.00039
-0.61567,0.15086,0.77342,0.00329,0.01189,6e-05
-0.61551,0.15101,0.77351,0.00034,0.00589,-0.0032
-0.61536,0.15132,0.77358,-0.00772,0.00953,-0.00325
-0.61534,0.15142,0.77357,-0.00569,0.00994,-0.00561
-0.61534,0.15157,0.77354,-0.00052,0.00126,-0.00593
-0.61528,0.15162,0.77358,0.00728,-0.00302,0.00067
-0.61514,0.15164,0.77368,0.01617,0.00166,0.0074
-0.615,0.1517,0.77378,0.02017,0.00088,0.00723
-0.61494,0.15173,0.77383,0.02285,0.00078,0.01199
-0.61495,0.15177,0.77381,0.01518,0.01706,0.01017
-0.61509,0.15185,0.77368,0.01525,0.02042,0.00522
-0.61526,0.15188,0.77354,0.01517,0.01604,-0.00136
-0.61523,0.15184,0.77357,0.01639,0.00972,0.00545
-0.61515,0.15174,0.77365,0.01432,0.00628,0.00781
-0.61503,0.15174,0.77375,0.01458,-0.0059,0.00927
-0.61499,0.1519,0.77375,0.01503,-0.01377,0.01224
-0.6151,0.15206,0.77363,0.01604,-0.01299,0.01003
-0.6153,0.15238,0.77341,0.0152,0.00061,0.00955
-0.61561,0.15266,0.7731,0.00975,0.0067,-0.002
-0.61602,0.15294,0.77272,0.00723,0.00755,-0.00351
-0.6163,0.15304,0.77249,0.00579,0.01224,-0.00819
-0.6164,0.15308,0.77239,0.00204,0.02121,-0.00141
-0.61648,0.15304,0.77233,0.00216,0.02247,-0.00274
-0.61651,0.15293,0.77234,0.00439,0.01905,-0.00108
-0.61647,0.15283,0.77239,0.00694,0.00769,0.00229
-0.61642,0.15268,0.77246,0.00747,-0.00168,-0.00018
-0.61625,0.15267,0.77259,0.00346,-0.01263,0.00681
-0.61605,0.15281,0.77273,-0.00201,-0.01506,0.00249
-0.61592,0.15295,0.7728,-0.00312,-0.01532,0.00056
-0.61576,0.15309,0.7729,0.0052,0.0025,0.00113
-0.61553,0.15327,0.77305,0.00655,0.01022,0.0062
-0.61514,0.1534,0.77334,0.01539,0.02209,0.003
-0.6148,0.15342,0.7736,0.02177,-0.0026,0.0061
-0.61441,0.15338,0.77392,0.01989,0.0041,0.01172
-0.61394,0.15336,0.7743,0.01515,0.0131,0.01549
-0.61359,0.15348,0.77455,0.02044,0.01159,0.00435
-0.61354,0.15355,0.77458,0.02501,0.00618,0.00411
-0.61349,0.15353,0.77462,0.02327,-0.00256,0.01092
-0.61319,0.15361,0.77484,0.0113,-0.00149,0.00737
-0.61315,0.15369,0.77485,0.00933,-0.0001,0.00363
-0.61339,0.15385,0.77463,0.02071,-0.00067,0.00344
-0.61359,0.15393,0.77446,0.02335,0.00089,0.00674
-0.61381,0.15394,0.77429,0.0185,-0.00191,0.00765
-0.61421,0.15391,0.77397,0.02249,-0.00467,0.00247
-0.61466,0.15383,0.77363,-0.01372,-0.00085,0.00625
-0.61515,0.15394,0.77322,-0.01856,-0.00196,0.00315
-0.61552,0.15411,0.77289,-0.00816,0.01424,-0.01271
-0.61569,0.1542,0.77274,0.01288,0.02655,-0.00301
-0.61574,0.15433,0.77267,0.01296,0.02207,0.00012
-0.61571,0.15439,0.77268,-0.00118,0.00902,-0.0032
-0.61572,0.15441,0.77268,-0.00654,-0.00124,-0.00772
-0.61555,0.15448,0.7728,-0.00063,-0.01496,-0.00384
-0.61516,0.15439,0.77312,0.0033,-0.01047,0.00176
-0.61474,0.15443,0.77345,0.00457,0.00219,0.0071
-0.6145,0.1545,0.77363,0.01925,0.00245,0.00496
-0.61418,0.15451,0.77388,0.01972,0.00124,0.00882
-0.61387,0.15446,0.77413,0.01548,-0.00103,0.00922
-0.61364,0.15451,0.77431,0.01605,0.00332,0.0098
-0.61357,0.15462,0.77434,0.02002,0.00662,0.00872
-0.61347,0.15467,0.77441,0.02448,0.01005,0.00748
-0.61323,0.15461,0.77461,0.01681,-0.00103,0.01361
-0.6131,0.15452,0.77474,0.01553,-0.00074,0.01506
-0.61316,0.15456,0.77468,0.01207,-0.0015,0.00922
-0.61331,0.15476,0.77451,0.01012,-0.00208,-0.00018
-0.61357,0.1549,0.77429,0.00714,-0.00186,7e-05
-0.61377,0.15502,0.7741,0.00173,0.00531,0.00108
-0.61393,0.15513,0.77395,0.00078,0.00539,-0.00902
-0.61409,0.1552,0.77381,0.00504,0.00357,-0.00966
-0.61405,0.15511,0.77386,0.01043,-0.00251,-0.00222
-0.6139,0.15508,0.77399,0.00381,0.00236,0.00957
-0.61398,0.1552,0.77389,0.00411,0.00216,0.00517
-0.61432,0.15536,0.7736,0.00388,-0.00328,-0.00622
-0.6145,0.15539,0.77344,-0.00325,-0.00024,-0.00272
-0.61444,0.15538,0.7735,-0.00687,-0.00276,-0.00584
-0.61416,0.15538,0.77372,0.00552,-0.00479,0.00234
-0.61372,0.15535,0.77407,0.01022,0.00115,0.00501
-0.6132,0.15541,0.77448,0.01817,0.00786,0.01088
-0.61287,0.15548,0.77472,0.02732,0.00685,0.0153
-0.61279,0.15566,0.77475,0.02386,0.0093,0.0119
-0.61278,0.15584,0.77472,0.01473,0.00939,0.00626
-0.61264,0.15596,0.77481,0.01216,0.00701,0.0024
-0.61249,0.15588,0.77494,0.01167,0.00517,0.00679
-0.61225,0.15582,0.77514,0.01139,0.00082,0.00519
-0.61203,0.15578,0.77533,0.00804,-0.00252,0.00592
-0.612,0.15572,0.77536,0.01062,-0.00339,0.00316
-0.61202,0.15571,0.77535,0.0082,-0.00692,0.00019
-0.61201,0.15568,0.77536,0.00298,-0.00672,-0.00069
-0.61207,0.15566,0.77532,0.00296,-0.00648,0.0023
-0.61213,0.1557,0.77526,0.0012,0.0037,-0.00189
-0.6122,0.15575,0.7752,0.00598,0.00697,-0.00054
-0.6122,0.15579,0.77519,0.00734,0.00722,0.0022
-0.61212,0.15578,0.77526,0.01179,0.0012,0.00462
-0.61203,0.15587,0.77531,0.01044,0.00652,0.00374
-0.61196,0.15595,0.77535,0.0083,0.00303,0.00131
-0.61193,0.15598,0.77537,0.00605,-0.0018,-0.00038
-0.61182,0.15592,0.77547,0.00426,0.00013,-3e-05
-0.61164,0.15585,0.77562,0.00387,-0.00593,0.00078
-0.61147,0.15576,0.77578,0.00163,-0.00538,0.00294
-0.61131,0.15573,0.77591,0.00654,-0.00326,0.00578
-0.6112,0.15573,0.77599,0.01533,-0.00865,0.00624
-0.61112,0.15576,0.77605,0.01456,-0.00693,0.01315
-0.61111,0.15585,0.77604,0.01006,-0.00343,0.0101
-0.61114,0.15599,0.77599,0.01701,0.00187,0.00456
-0.61119,0.1561,0.77593,0.01866,-0.00249,0.00247
-0.61109,0.15613,0.776,0.0129,-0.00073,0.00766
-0.611,0.15619,0.77606,-0.00277,0.0027,0.00235
-0.61116,0.15632,0.77591,0.00667,0.00774,0.0021
-0.6113,0.15645,0.77577,0.01474,0.009,0.0033
-0.61129,0.15661,0.77575,0.01583,0.00863,0.0104
-0.61143,0.15682,0.7756,0.016,0.00819,0.00996
-0.61164,0.15698,0.77539,0.01519,-0.0028,0.00838
-0.61185,0.15714,0.7752,0.01294,-0.01107,0.00471
-0.61219,0.15725,0.77491,0.01282,-0.00525,0.00573
-0.61256,0.15733,0.7746,0.00737,0.00754,0.00345
-0.61298,0.15734,0.77426,-0.00946,0.00211,-0.01195
-0.61341,0.15727,0.77393,-0.01467,-0.0021,-0.01824
-0.61354,0.15705,0.77387,-0.01639,-0.00878,-0.01257
-0.61342,0.15681,0.77402,-0.01521,-0.00816,-0.01262
-0.61323,0.15668,0.7742,-0.01104,-0.01457,-0.01383
-0.61301,0.15655,0.7744,-0.02474,-0.01416,-0.00605
-0.61249,0.15647,0.77483,-0.02209,-0.00762,-0.0058
-0.61175,0.15652,0.7754,-0.0032,-0.00031,-0.00303
-0.61075,0.15662,0.77617,0.03289,0.00117,0.01758
-0.6095,0.15678,0.77712,0.03911,0.00288,0.02133
-0.60848,0.15697,0.77788,0.04321,0.00495,0.0249
-0.60788,0.15729,0.77829,0.04922,0.01016,0.02703
-0.60766,0.15758,0.7784,0.04818,0.01562,0.02872
-0.60766,0.15792,0.77832,0.04542,0.0214,0.02833
-0.60795,0.15833,0.77802,0.04577,0.0236,0.01493
-0.60857,0.15855,0.77749,0.04236,0.02085,0.01317
-0.60926,0.15851,0.77696,0.02381,0.00841,0.00838
-0.61011,0.15838,0.77631,-0.00375,-0.00822,-0.00578
-0.61125,0.1581,0.77547,-0.01065,-0.01507,-0.01408
-0.61218,0.15773,0.77482,-0.02283,-0.02948,-0.01652
-0.61283,0.15734,0.77438,-0.02705,-0.03304,-0.01537
-0.61337,0.15701,0.77402,-0.02619,-0.02874,-0.0168
-0.61378,0.15678,0.77374,-0.02741,-0.02558,-0.01989
-0.61403,0.15652,0.7736,-0.0359,-0.02374,-0.02354
-0.61401,0.15646,0.77362,-0.03858,-0.01407,-0.01926
-0.6134,0.15658,0.77408,-0.03471,-0.00151,-0.01712
-0.61253,0.15676,0.77474,-0.01694,0.00796,-0.00876
-0.61156,0.1569,0.77547,0.02062,0.02813,0.00738
-0.61026,0.1571,0.77645,0.03008,0.0327,0.01281
-0.60907,0.15723,0.77737,0.04721,0.03214,0.02254
-0.60812,0.15733,0.77809,0.05298,0.02617,0.03335
-0.60746,0.15739,0.77859,0.04862,0.02059,0.03209
-0.60708,0.15754,0.77886,0.03895,0.00596,0.02385
-0.60682,0.15772,0.77902,0.02873,-0.01232,0.009
-0.60684,0.15759,0.77903,0.0263,-0.01733,0.00516
-0.60683,0.15732,0.7791,0.01836,-0.0239,0.00711
-0.60694,0.15702,0.77907,0.00701,-0.01087,0.00743
-0.60744,0.15677,0.77873,0.00634,-0.01008,0.00829
-0.60815,0.15658,0.77821,-0.00281,-0.00483,0.00241
-0.60901,0.15647,0.77756,-0.00444,0.0142,-0.00415
-0.60977,0.15648,0.77696,-0.00386,0.01565,-0.00346
-0.61038,0.15648,0.77649,-0.00396,0.01307,-0.00664
-0.61081,0.15647,0.77615,-0.00427,-0.003,-0.01022
-0.61094,0.1565,0.77605,-0.00659,-0.00257,-0.00456
-0.61096,0.15668,0.77599,-0.00771,-0.00159,0.00129
-0.61106,0.15701,0.77585,0.00292,-0.0145,-0.00674
-0.61107,0.1572,0.7758,0.00046,-0.02619,-0.00435
-0.61092,0.15727,0.7759,0.00062,-0.01773,-0.00419
-0.61068,0.15733,0.77608,0.0065,-0.01774,-0.00147
-0.61037,0.15737,0.77631,0.01702,-0.01368,0.00548
-0.61008,0.15732,0.77655,0.01774,-0.0067,0.01228
-0.6099,0.15736,0.77669,0.01264,-0.00467,0.01058
-0.60991,0.15741,0.77667,0.01101,0.00546,0.00342
-0.60995,0.15749,0.77662,0.01211,0.01099,0.00127
-0.60998,0.1576,0.77658,0.01403,0.01068,0.00405
-0.60994,0.15767,0.77659,0.01348,0.01456,0.00757
-0.60993,0.15776,0.77658,0.01334,-0.00169,0.00239
-0.60999,0.15782,0.77652,0.00962,-0.00635,6e-05
-0.61004,0.15781,0.77649,0.00481,-0.01082,0.00205
-0.61001,0.15782,0.77651,0.00245,-0.01199,0.00038
-0.61002,0.15782,0.7765,0.00342,-0.01247,-0.0001
-0.61006,0.15783,0.77646,0.00196,-0.00701,-0.00063
-0.61013,0.15785,0.77641,-0.00063,0.00405,-0.00187
-0.61017,0.1579,0.77637,-0.00133,0.00435,-0.00374
-0.61019,0.15791,0.77635,0.007,0.00538,-0.00163
-0.6101,0.1579,0.77642,0.01293,0.0054,0.00944
-0.60993,0.15791,0.77655,0.01436,0.0081,0.00876
-0.60981,0.15796,0.77664,0.01366,-0.00291,0.00509
-0.60974,0.15792,0.7767,0.01042,-0.00502,0.00671
-0.60958,0.15786,0.77684,0.00674,-0.00501,0.00245
-0.60951,0.15782,0.7769,0.00666,-0.00498,0.00238
-0.6094,0.15782,0.77699,0.01185,-0.0044,-0.00025
-0.60928,0.15776,0.7771,0.00654,-0.00271,0.0063
-0.60915,0.15774,0.7772,0.00475,-0.00289,0.00391
-0.60916,0.15777,0.77719,0.00448,-0.00286,0.00096
-0.60924,0.15779,0.77712,0.00374,-0.00481,0.00092
-0.60924,0.15781,0.77711,0.00527,-0.00432,0.00199
-0.6092,0.15782,0.77714,0.00588,0.00095,0.00234
-0.60925,0.15785,0.7771,0.00814,-0.00928,0.00171
-0.6093,0.15788,0.77705,0.00735,-0.00612,0.0042
-0.60931,0.15796,0.77702,0.00478,-0.00138,0.00322
-0.60935,0.15807,0.77697,0.00719,-0.00959,0.00014
-0.60944,0.15817,0.77688,0.00697,-0.01028,0.00034
-0.60945,0.15823,0.77686,0.0114,-0.00617,0.00494
-0.60936,0.15831,0.77692,0.0076,-0.00502,0.00436
-0.60935,0.15841,0.7769,0.00726,-0.00291,0.00748
-0.60945,0.1585,0.77681,0.00749,-0.00596,0.00263
-0.6095,0.1586,0.77675,0.0086,-0.0079,0.00088
-0.60944,0.15867,0.77678,0.00483,-0.00693,0.0034
-0.60933,0.15878,0.77684,0.00652,-0.00462,0.00467
-0.60926,0.15891,0.77687,0.01263,-0.0073,0.0055
-0.60929,0.15907,0.77682,0.01485,-0.00382,0.00557
-0.60933,0.1592,0.77676,0.00964,0.00799,0.0029
-0.60945,0.15932,0.77665,0.00941,0.00299,-0.00197
-0.6095,0.15929,0.77661,0.00384,0.00126,0.00754
-0.60943,0.15928,0.77667,0.0063,0.00527,-0.00115
-0.60947,0.15925,0.77665,0.00673,0.00351,0.00169
-0.60944,0.15915,0.77669,0.00911,0.00314,0.00347
-0.60934,0.15905,0.77679,0.00277,-0.00248,0.00205
-0.60921,0.15899,0.7769,0.00151,-0.00274,-0.00145
-0.6092,0.15897,0.77691,0.00475,-0.00791,-0.00183
-0.60916,0.15894,0.77695,0.00209,-0.01122,-0.00021
-0.60899,0.15882,0.7771,-0.00102,-0.00584,0.00122
-0.60884,0.15872,0.77725,0.00174,-0.008,0.00011
-0.60873,0.15864,0.77735,0.00979,-0.00605,0.0034
-0.60859,0.15861,0.77747,0.0089,-0.00247,0.00609
-0.60845,0.15863,0.77757,0.0108,-0.00146,0.00845
-0.60843,0.15869,0.77757,0.01462,-0.00134,0.00604
-0.60853,0.15882,0.77747,0.01512,-0.00046,0.0065
-0.60856,0.15891,0.77743,0.02123,-0.00386,0.00899
-0.6085,0.15898,0.77746,0.02012,-0.00988,0.01092
-0.6085,0.15908,0.77744,0.01599,-0.01418,0.0121
-0.60869,0.15926,0.77725,0.01021,-0.01485,0.00604
-0.60904,0.15948,0.77693,0.00373,-0.0107,-0.00058
-0.60938,0.15965,0.77663,0.00187,0.00373,-0.00762
-0.60972,0.15975,0.77634,-0.00109,-0.00042,-0.00646
-0.60991,0.15971,0.7762,-0.00574,0.00502,-0.00036
-0.61007,0.15968,0.77609,-0.00485,0.01408,-0.00205
-0.61002,0.15962,0.77614,-0.00489,0.01415,-0.0021
-0.61004,0.15956,0.77613,-0.00182,-0.007,-0.00983
-0.60994,0.15944,0.77624,-0.00435,-0.01256,0.00428
-0.6096,0.1594,0.77651,-0.0038,-0.00802,0.00433
-0.60943,0.15953,0.77662,0.00558,-0.01083,0.00123
-0.60938,0.15958,0.77664,0.01508,-0.01036,0.004
-0.60914,0.15957,0.77684,0.01182,-0.00935,0.00696
-0.60886,0.15957,0.77706,0.01141,-0.00725,0.01063
-0.60876,0.15966,0.77712,0.0216,-0.00398,0.01074
-0.60881,0.15985,0.77704,0.02334,-0.006,0.00935
-0.60885,0.15988,0.777,0.02119,-0.0047,0.00555
-0.6089,0.15984,0.77697,0.01457,-0.00266,0.01083
-0.60898,0.15985,0.7769,0.01554,0.0002,0.01102
-0.60911,0.1599,0.77679,0.01104,0.00032,0.00614
-0.60928,0.15997,0.77665,0.00407,-0.00282,-0.00087
-0.60948,0.16001,0.77648,0.00098,-0.00613,-0.0004
-0.60958,0.16003,0.77639,-0.00153,-0.00085,-0.00436
-0.60968,0.16007,0.77631,-0.00118,0.00099,-0.00512
-0.60975,0.1601,0.77625,0.0016,0.00283,-0.00412
-0.60977,0.16009,0.77624,-0.00124,-0.00349,-0.00414
-0.60974,0.16004,0.77627,0.00032,-0.00736,-0.00469
-0.60967,0.15993,0.77635,0.00072,-0.00977,-0.00115
-0.60949,0.15983,0.77651,0.00726,-0.00839,0.00972
-0.60928,0.15979,0.77668,0.00773,-0.00543,0.00872
-0.60918,0.15981,0.77676,0.01296,-0.00836,0.00896
-0.60918,0.15985,0.77675,0.01442,-0.01166,0.00215
-0.60914,0.15991,0.77677,0.01151,-0.01029,0.00456
-0.60898,0.15995,0.77688,0.0073,-0.00712,0.00627
-0.6089,0.15998,0.77694,0.00865,-0.00773,0.00338
-0.60886,0.16001,0.77696,0.00727,-0.00485,0.00751
-0.60886,0.16008,0.77695,0.00498,0.00036,0.00484
-0.60898,0.16023,0.77682,0.01232,0.00073,-0.00084
-0.60911,0.16034,0.7767,0.01016,-0.00233,0.00049
-0.60911,0.16039,0.77669,0.00533,-0.00036,0.00514
-0.60907,0.1604,0.77672,0.00722,-0.00014,0.00053
-0.60915,0.16042,0.77665,0.00957,-0.00459,0.00187
-0.60918,0.16044,0.77662,0.00999,-0.0115,0.00348
-0.60908,0.16042,0.77671,0.00183,-0.00962,0.0009
-0.60901,0.16042,0.77676,0.00226,-0.01047,0.00049
-0.60904,0.16043,0.77674,0.00848,-0.01254,0.00225
-0.60911,0.16046,0.77668,0.00585,-0.00529,0.00268
-0.60916,0.16054,0.77662,0.004,0.00228,0.00231
-0.60921,0.16062,0.77656,0.00327,0.00189,0.00252
-0.60923,0.16066,0.77654,0.00732,-0.0011,0.0016
-0.60921,0.16067,0.77656,0.00708,-0.01148,0.00556
-0.60918,0.1607,0.77657,0.005,-0.01205,0.00356
-0.60914,0.16076,0.77659,0.00602,-0.0114,0.00143
-0.60902,0.16075,0.77668,0.00265,-0.00266,0.00251
-0.60891,0.16075,0.77677,0.00332,-0.00088,0.00168
-0.60887,0.16075,0.7768,0.00648,0.00011,0.00098
-0.6088,0.1608,0.77685,0.01192,-0.00358,0.00284
-0.60873,0.16089,0.77688,0.01204,-0.00803,0.00362
-0.60869,0.16097,0.7769,0.01462,-0.01229,0.00998
-0.60871,0.16107,0.77686,0.01266,-0.01094,0.01054
-0.6088,0.16123,0.77676,0.01674,-0.01149,0.00883
-0.60891,0.16134,0.77665,0.0157,-0.01331,0.00379
-0.60896,0.16137,0.7766,0.00495,-0.00363,0.0048
-0.60915,0.16152,0.77642,0.0037,-0.00322,0.00447
-0.60945,0.16171,0.77615,0.00487,-0.00028,0.00348
-0.60969,0.16185,0.77593,0.00156,0.00337,-0.00395
-0.60981,0.1619,0.77582,-0.00248,0.00242,-0.00611
-0.60982,0.16183,0.77583,0.0038,-0.00823,-0.00671
-0.60978,0.16174,0.77589,0.00402,-0.01526,-0.00228
-0.6096,0.16172,0.77603,-0.00231,-0.01479,0.00941
-0.60954,0.16182,0.77606,-0.00136,-0.0129,-0.00326
-0.60961,0.16196,0.77597,0.00055,-0.0125,-0.00591
-0.60965,0.16198,0.77593,-0.00012,-0.01034,-0.00706
-0.60955,0.16185,0.77604,0.00135,-0.00484,0.00098
-0.60926,0.16176,0.77628,0.00207,-0.00286,0.00143
-0.60898,0.1617,0.77652,0.00947,-0.00046,0.00684
-0.60875,0.16169,0.7767,0.01973,0.00402,0.01607
-0.60855,0.16174,0.77685,0.0267,0.00394,0.01399
-0.60845,0.16185,0.7769,0.03586,0.00978,0.01275
-0.6083,0.16189,0.77701,0.02118,-0.0064,0.01571
-0.60813,0.16176,0.77717,0.01261,-0.01204,0.01601
-0.60812,0.16164,0.77721,0.00746,-0.02425,0.00664
-0.60824,0.16167,0.7771,-0.00565,-0.03358,-0.00042
-0.6085,0.1618,0.77688,-0.01136,-0.03333,-0.00465
-0.60877,0.16197,0.77663,-0.00981,-0.02989,-0.01554
-0.60897,0.16193,0.77648,-0.0046,-0.00391,-0.00157
-0.60912,0.16194,0.77636,-0.00291,0.00532,-0.00013
-0.60929,0.16195,0.77623,0.00495,0.00984,0.00648
-0.60943,0.16197,0.77611,0.01873,0.03152,0.00801
-0.60947,0.16206,0.77606,0.01966,0.02831,0.00311
-0.60942,0.16215,0.77609,0.01762,0.00846,0.01281
-0.6093,0.16228,0.77614,0.00478,-0.01311,0.00672
-0.60936,0.16245,0.77606,0.00158,-0.02094,-0.00172
-0.60943,0.16253,0.77599,-0.00245,-0.03028,-0.00878
-0.60939,0.16254,0.77603,-0.00127,-0.02211,-0.00096
-0.60929,0.16244,0.77612,-0.00048,-0.02072,-0.00012
-0.60926,0.16224,0.77619,0.00757,-0.01421,-0.00146
-0.60925,0.16201,0.77625,0.01252,-0.00547,0.00207
-0.60911,0.16178,0.77641,0.01705,-0.00214,0.01163
-0.60904,0.16173,0.77647,0.01557,0.00116,0.01743
-0.60913,0.16186,0.77637,0.015,0.004,0.01309
-0.60924,0.1621,0.77624,0.00717,0.00292,-0.00249
-0.60931,0.16224,0.77615,0.00451,-0.001,-0.00465
-0.60926,0.16227,0.77618,0.00231,-0.00962,-0.00338
-0.60905,0.16216,0.77637,-0.00404,-0.01927,-0.00437
-0.60877,0.16199,0.77663,-0.00415,-0.02098,-0.00441
-0.6085,0.1618,0.77688,-0.00616,-0.02305,-0.00264
-0.60828,0.16162,0.77709,-0.00033,-0.01123,0.00138
-0.60811,0.16159,0.77723,0.00382,-0.00454,0.00335
-0.60795,0.16167,0.77733,0.00965,0.00074,0.00416
-0.60785,0.16173,0.7774,0.01334,0.00216,0.00814
-0.60779,0.16184,0.77743,0.01534,0.00153,0.00643
-0.60771,0.16197,0.77746,0.01809,0.00342,0.01319
-0.60762,0.16215,0.77749,0.02582,0.00307,0.01469
-0.60761,0.16231,0.77747,0.02582,0.00082,0.01585
-0.60766,0.16241,0.77741,0.01879,-0.00403,0.01336
-0.60784,0.1625,0.77725,0.01646,-0.01202,0.00507
-0.60814,0.16253,0.77701,0.01708,-0.01494,0.00279
-0.60844,0.16255,0.77677,-0.00162,-0.01176,0.00074
-0.60888,0.16258,0.77642,-0.00382,-0.00938,0.00015
-0.60941,0.16261,0.77599,-0.00491,-0.01015,-0.0046
-0.60995,0.16259,0.77557,-0.01607,-0.01062,-0.01422
-0.61033,0.16254,0.77529,-0.01838,-0.01436,-0.01541
-0.61041,0.16243,0.77525,-0.01644,-0.01295,-0.01171
-0.61027,0.1623,0.77538,-0.00047,0.0021,0.00117
-0.61005,0.16232,0.77555,-6e-05,0.00342,0.00045
-0.60985,0.16241,0.77569,-0.00186,-0.00143,-0.0008
-0.60968,0.16247,0.77581,0.00394,-0.0107,-0.00526
-0.6093,0.16245,0.77611,0.00814,-0.01018,-0.00278
-0.60864,0.16238,0.77664,0.01055,-0.01384,0.00476
-0.60797,0.16232,0.77719,0.01506,-0.01337,0.01421
-0.60749,0.16232,0.77756,0.01981,-0.01658,0.01263
-0.6072,0.16232,0.77779,0.01755,-0.01794,0.01232
-0.60704,0.16229,0.77791,0.0118,-0.01751,0.00825
-0.60695,0.16233,0.77797,0.01149,-0.01069,0.00918
-0.60692,0.16239,0.77799,0.01441,0.00042,0.00937
-0.60696,0.16248,0.77793,0.01602,-0.00222,0.00889
-0.60709,0.16264,0.7778,0.01539,-0.00384,0.00961
-0.60724,0.1628,0.77765,0.01212,-0.00092,0.00887
-0.60744,0.16301,0.77745,0.01503,-0.00435,0.00146
-0.60767,0.16318,0.77724,0.00769,-0.00507,0.00406
-0.60787,0.16331,0.77705,0.00581,-0.00465,0.00545
-0.60809,0.16343,0.77686,-0.00226,-0.00527,-0.00139
-0.60832,0.16348,0.77666,-0.00138,-0.00983,-0.0066
-0.60851,0.16346,0.77652,-0.0036,-0.01157,-0.00327
-0.60854,0.1634,0.77651,-0.00701,-0.0116,-0.004
-0.60856,0.16333,0.77651,-0.00166,-0.01178,-0.00045
-0.6086,0.16332,0.77648,0.0036,-0.00985,0.00013
-0.6086,0.16334,0.77647,0.00376,-0.00793,0.00151
-0.60861,0.16335,0.77646,0.00373,-0.00704,-0.00032
-0.60858,0.1634,0.77648,0.00585,-0.00968,0.00401
-0.60852,0.16345,0.77651,0.00966,-0.00261,0.00548
-0.60841,0.16347,0.7766,0.01412,-0.00513,0.00841
-0.60831,0.16352,0.77666,0.01624,-0.00701,0.00729
-0.60827,0.16354,0.77669,0.01362,-0.01122,0.00817
-0.60819,0.16357,0.77675,0.01,-0.01422,0.00667
-0.60821,0.1636,0.77672,0.00883,-0.01519,0.00396
-0.60825,0.16358,0.77669,0.00799,-0.01632,0.00067
-0.60824,0.16353,0.77672,0.00364,-0.01692,0.00388
-0.60827,0.16354,0.77669,0.00146,-0.01167,0.00227
-0.60841,0.16362,0.77656,0.00291,-0.00688,-0.0009
-0.60857,0.16367,0.77642,0.00323,-0.00211,-0.00036
-0.60864,0.16372,0.77637,0.00072,5e-05,0.00122
-0.60862,0.16373,0.77637,0.0028,-0.00182,0.00361
-0.60855,0.16376,0.77642,0.00618,-0.00248,0.00329
-0.60844,0.1638,0.77651,0.00555,-0.0068,0.00285
-0.60833,0.1638,0.77659,0.00859,-0.01462,0.00347
-0.60819,0.16378,0.77671,0.00684,-0.01476,0.0041
-0.60806,0.16379,0.7768,0.00409,-0.01163,0.00352
-0.60802,0.16383,0.77683,0.00893,-0.00827,0.00308
-0.60805,0.16387,0.77679,0.0127,-0.01056,0.00371
-0.60804,0.16388,0.7768,0.00988,-0.00943,0.00625
-0.60801,0.16382,0.77683,0.01059,-0.01008,0.00558
-0.60806,0.16381,0.7768,0.00977,-0.00791,0.00601
-0.60809,0.16381,0.77677,0.01165,-0.00959,0.00435
-0.60808,0.16382,0.77678,0.00598,-0.00719,0.00363
-0.60813,0.16385,0.77673,0.00432,-0.0087,0.0014
-0.60814,0.16385,0.77673,0.00511,-0.00699,0.00059
-0.6081,0.16383,0.77676,0.00442,-0.00839,0.00097
-0.60809,0.16383,0.77677,0.00431,-0.00848,0.00143
-0.60808,0.16384,0.77677,0.00626,-0.00994,0.0046
-0.60807,0.16386,0.77678,0.00689,-0.0118,0.00339
-0.60804,0.16387,0.7768,0.00532,-0.01233,0.00754
-0.60804,0.16388,0.77679,0.00563,-0.00685,0.00368
-0.60805,0.16392,0.77678,0.00654,-0.00712,-0.00094
-0.60802,0.16391,0.77681,0.00589,-0.0076,0.00058
-0.60797,0.1639,0.77684,0.00557,-0.00582,0.00312
-0.60793,0.16389,0.77689,0.00549,-0.00417,0.00311
-0.60789,0.1639,0.77691,0.00626,-0.00655,0.00202
-0.60787,0.16392,0.77693,0.00623,-0.00657,0.00201
-0.6078,0.1639,0.77699,0.0075,-0.00926,0.0035
-0.6077,0.16387,0.77707,0.00684,-0.01151,0.00391
-0.60766,0.16389,0.77709,0.00684,-0.01355,0.00399
-0.60762,0.16391,0.77712,0.00667,-0.01154,0.00487
-0.60758,0.16392,0.77715,0.00685,-0.00694,0.00315
-0.60758,0.16399,0.77714,0.00428,-0.00934,0.00494
-0.60761,0.16405,0.7771,0.00784,-0.00784,0.00086
-0.60759,0.16407,0.77711,0.00767,-0.00771,0.00453
-0.60755,0.16409,0.77714,0.00655,-0.00863,0.00335
-0.60752,0.1641,0.77716,0.00708,-0.00954,0.00751
-0.60754,0.16413,0.77714,0.0083,-0.0129,0.00309
-0.60754,0.16415,0.77713,0.00721,-0.01197,0.00305
-0.60753,0.16415,0.77714,0.00355,-0.00957,0.0022
-0.60752,0.16416,0.77714,0.00684,-0.00904,0.00128
-0.60753,0.16418,0.77714,0.0069,-0.009,0.0003
-0.60751,0.1642,0.77714,0.00337,-0.00578,0.00429
-0.60752,0.16426,0.77712,0.0047,-0.0066,0.0026
-0.60754,0.1643,0.7771,0.0083,-0.00765,0.00246
-0.60751,0.16429,0.77712,0.00682,-0.00962,0.00422
-0.60746,0.16427,0.77717,0.00585,-0.01051,0.00454
-0.60742,0.16426,0.7772,0.0062,-0.01232,0.0031
-0.6074,0.16427,0.77721,0.00448,-0.0126,0.00132
-0.60738,0.16432,0.77722,0.00454,-0.01142,0.00063
-0.60742,0.1644,0.77717,0.00629,-0.00998,0.00278
-0.60745,0.16443,0.77714,0.00678,-0.00954,0.00263
-0.60747,0.16449,0.77711,0.00846,-0.00879,0.0035
-0.60748,0.16454,0.7771,0.00904,-0.00882,0.00521
-0.60745,0.16456,0.77711,0.00911,-0.00862,0.0077
-0.60747,0.16463,0.77708,0.00879,-0.01154,0.00205
-0.6075,0.16463,0.77706,0.0088,-0.01061,0.00259
-0.60746,0.16464,0.77709,0.00058,-0.00675,0.00501
-0.60745,0.16473,0.77708,0.00258,-0.00816,0.00393
-0.60752,0.16481,0.77701,0.00501,-0.00753,0.00038
-0.60754,0.16485,0.77698,0.00781,-0.01135,0.00384
-0.60746,0.1649,0.77704,0.00559,-0.01197,0.00443
-0.60742,0.16489,0.77707,0.00469,-0.01314,0.00493
-0.60746,0.16491,0.77704,0.00945,-0.01059,0.00193
-0.60746,0.16492,0.77703,0.01011,-0.01069,0.00053
-0.6074,0.16489,0.77708,0.00551,-0.01027,0.00287
-0.60737,0.16489,0.77711,0.00669,-0.00825,0.00613
-0.6074,0.16492,0.77708,0.00673,-0.00976,0.0003
-0.60742,0.16497,0.77705,0.00711,-0.00681,0.00283
-0.60739,0.16501,0.77707,0.00592,-0.00488,0.00556
-0.60739,0.16502,0.77707,0.00673,-0.01163,0.00263
-0.60741,0.16504,0.77704,0.00744,-0.01252,0.00132
-0.6074,0.16504,0.77706,0.00541,-0.01484,0.00352
-0.60736,0.16506,0.77708,0.00539,-0.01316,0.00347
-0.60737,0.16511,0.77706,0.00494,-0.01295,0.00578
-0.60741,0.16516,0.77702,0.00699,-0.01021,0.00272
-0.60747,0.1652,0.77697,0.00293,-0.00933,0.00202
-0.60752,0.1653,0.77691,0.00415,-0.0096,0.00216
-0.60757,0.16536,0.77685,0.00715,-0.00925,0.00387
-0.60759,0.16541,0.77683,0.00975,-0.00839,0.00317
-0.6076,0.16545,0.77681,0.00806,-0.0103,0.00566
-0.60761,0.16549,0.7768,0.00672,-0.00831,0.00566
-0.60765,0.16554,0.77675,0.00832,-0.01104,0.00331
-0.60769,0.1656,0.77671,0.00828,-0.0126,0.00249
-0.60771,0.16565,0.77669,0.00575,-0.01918,0.00374
-0.6077,0.1657,0.77668,0.00507,-0.00978,0.00514
-0.6078,0.16586,0.77656,0.00537,-0.0085,9e-05
-0.60797,0.166,0.7764,0.01006,-0.00902,0.00064
-0.60809,0.1661,0.77629,0.00871,-0.00785,0.00194
-0.60811,0.16614,0.77626,0.00423,-0.0094,0.00317
-0.60811,0.16615,0.77626,0.00775,-0.01259,0.00642
-0.60819,0.16618,0.7762,0.01073,-0.01428,0.00353
-0.60822,0.1662,0.77616,0.00803,-0.0145,0.00496
-0.60819,0.1662,0.77619,0.00413,-0.01216,0.00418
-0.60822,0.16624,0.77616,0.00547,-0.01116,0.00229
-0.60827,0.16627,0.77611,0.009,-0.00926,0.00236
-0.60826,0.16626,0.77612,0.00705,-0.00429,0.00458
-0.60826,0.16631,0.77612,0.00811,-0.00625,0.00379
-0.60827,0.16633,0.7761,0.00805,-0.01033,0.00266
-0.60826,0.16629,0.77612,0.00604,-0.00925,0.00206
-0.60821,0.16621,0.77617,0.00692,-0.0112,0.00372
-0.60812,0.16614,0.77626,0.00715,-0.01207,0.00487
-0.60803,0.16609,0.77634,0.00668,-0.01269,0.00424
-0.60797,0.16609,0.77639,0.00567,-0.01436,0.00317
-0.60795,0.16609,0.7764,0.00468,-0.01311,0.00224
-0.60796,0.16611,0.77639,0.00581,-0.01348,0.00191
-0.60795,0.16617,0.77639,0.00439,-0.01427,0.00277
-0.60793,0.16622,0.77639,0.00225,-0.01668,0.00367
-0.60788,0.16625,0.77643,-0.0026,-0.00922,0.00125
-0.60781,0.16624,0.77649,-0.00328,-0.01861,-0.0021
-0.60768,0.16627,0.77658,-0.00334,-0.01353,-0.00028
-0.60746,0.16641,0.77672,0.00411,-0.00365,0.00273
-0.60721,0.16661,0.77687,0.029,0.00407,0.00988
-0.60706,0.16678,0.77695,0.03431,0.00863,0.01085
-0.60703,0.1668,0.77697,0.03823,0.00401,0.01837
-0.60701,0.16676,0.77699,0.01608,-0.00738,0.02077
-0.60726,0.16675,0.7768,0.0148,-0.00728,0.01362
-0.60766,0.16674,0.77649,0.01416,-0.02052,0.00134
-0.60793,0.16667,0.77629,-0.00417,-0.03102,-0.00444
-0.60813,0.16646,0.77618,-0.01206,-0.03446,-0.00699
-0.60828,0.16622,0.77612,-0.02949,-0.03885,-0.00912
-0.60843,0.166,0.77604,-0.01364,-0.02336,-0.01098
-0.60845,0.16598,0.77604,-0.00963,-0.0181,-0.00458
-0.60845,0.16615,0.776,0.00202,-0.00108,0.00282
-0.60852,0.16632,0.77591,0.00432,-0.00607,-0.00016
-0.60844,0.16655,0.77593,0.00367,0.00407,0.00688
-0.60842,0.1668,0.77589,0.00994,0.01838,0.01116
-0.60839,0.16707,0.77585,0.03089,7e-05,0.00867
-0.6083,0.16717,0.7759,0.027,-0.00796,0.00747
-0.60809,0.16709,0.77608,0.01498,-0.01922,0.01221
-0.6079,0.16694,0.77626,0.01819,-0.02069,0.01381
-0.60786,0.16683,0.77632,0.02142,-0.0171,0.01386
-0.60797,0.16675,0.77625,0.00426,-0.01655,0.00372
-0.60823,0.16673,0.77605,0.00017,-0.01527,-0.00064
-0.60848,0.16668,0.77586,-0.005,-0.0083,-0.00738
-0.60863,0.16664,0.77576,-0.00885,-0.00552,-0.00786
-0.6087,0.16659,0.77571,-0.01061,-0.00787,-0.00216
-0.60872,0.16656,0.7757,-0.00971,-0.01174,-0.00539
-0.60867,0.16656,0.77574,-0.00392,-0.01463,-0.00543
-0.60856,0.16657,0.77583,-0.00506,-0.0102,-4e-05
-0.60836,0.1666,0.77598,0.00608,-0.00156,0.00118
-0.60813,0.16658,0.77616,0.02053,-0.01797,0.01234
-0.60777,0.16652,0.77645,0.01854,-0.01595,0.01597
-0.60749,0.16654,0.77667,0.01105,-0.01477,0.01418
-0.60745,0.16665,0.77668,0.01905,-0.01608,0.00906
-0.60756,0.16678,0.77656,0.02118,-0.01497,0.00932
-0.60754,0.16684,0.77656,0.01446,-0.01419,0.00548
-0.60749,0.16677,0.77662,0.00656,-0.01687,0.00548
-0.60758,0.16674,0.77655,0.00677,-0.01409,0.00444
-0.60765,0.16675,0.7765,0.01091,-0.01563,0.00106
-0.60768,0.16675,0.77648,0.0013,-0.01679,0.00294
-0.60781,0.16683,0.77636,0.00419,-0.01336,0.0028
-0.60795,0.16695,0.77622,0.00238,-0.00948,-0.0028
-0.60806,0.16705,0.77611,0.00203,-0.00383,-0.00087
-0.6081,0.16708,0.77608,0.00674,-0.00546,0.00682
-0.60807,0.16712,0.77609,0.00828,-0.00513,0.00391
-0.60806,0.16714,0.77609,0.00751,-0.00853,0.00519
-0.60808,0.16715,0.77608,0.00656,-0.01257,0.00554
-0.60806,0.16713,0.7761,0.00621,-0.01277,0.00221
-0.60802,0.16708,0.77614,0.0084,-0.01293,0.0027
-0.60797,0.167,0.77619,0.0078,-0.01577,0.00521
-0.60793,0.16693,0.77624,0.00543,-0.0145,0.00455
-0.60788,0.1669,0.77629,0.00315,-0.0154,0.005
-0.60786,0.16688,0.77631,0.00364,-0.01156,0.00168
-0.60784,0.16692,0.77631,0.00553,-0.01043,0.00166
-0.60779,0.16695,0.77634,0.0057,-0.01064,-0.00019
-0.60767,0.16693,0.77644,0.00562,-0.00966,0.00308
-0.60754,0.16692,0.77655,0.00628,-0.0109,0.00308
-0.6074,0.16692,0.77666,0.00714,-0.01415,0.0054
-0.60732,0.16694,0.77672,0.00757,-0.01043,0.00445
-0.60727,0.16698,0.77675,0.0093,-0.01442,0.0009
-0.60718,0.167,0.77681,0.00995,-0.01414,0.00447
-0.60709,0.16704,0.77688,0.00774,-0.01366,0.00819
-0.60713,0.16716,0.77682,0.00689,-0.0105,0.00679
-0.60724,0.16722,0.77672,0.01125,-0.01312,0.0056
-0.60729,0.16731,0.77666,0.00793,-0.01292,0.00688
-0.60729,0.16737,0.77665,0.00858,-0.01188,0.00605
-0.60735,0.16741,0.7766,0.01125,-0.01437,0.00563
-0.60746,0.16747,0.77649,0.00814,-0.01513,0.00433
-0.60749,0.16747,0.77647,0.0023,-0.01682,0.00258
-0.60755,0.16748,0.77643,0.00167,-0.01239,0.00141
-0.60763,0.16754,0.77635,0.00431,-0.01063,0.00014
-0.60767,0.16754,0.77631,0.00416,-0.00872,0.00283
-0.60769,0.16756,0.77629,0.00163,-0.00716,0.00226
-0.6077,0.16766,0.77626,0.00263,-0.00814,0.00161
-0.60771,0.16776,0.77624,0.00529,-0.01073,-0.00057
-0.60764,0.16781,0.77628,0.0089,-0.01511,0.00096
-0.60746,0.16779,0.77643,0.00901,-0.01809,0.00504
-0.60725,0.1677,0.77661,0.00705,-0.02384,0.00341
-0.60711,0.16761,0.77674,0.00611,-0.02334,0.01008
-0.60706,0.16764,0.77677,0.00521,-0.01565,0.01058
-0.60715,0.16781,0.77667,0.00526,-0.00634,0.00559
-0.60728,0.16797,0.77653,0.01118,-0.00078,0.00193
-0.60735,0.16807,0.77645,0.013,0.0002,0.00329
-0.60729,0.16807,0.7765,0.01018,-0.0023,0.0074
-0.60721,0.16808,0.77656,0.00224,-0.01033,0.00339
-0.6072,0.16809,0.77656,0.00995,-0.0184,0.00411
-0.6072,0.16807,0.77657,0.00767,-0.01878,-0.00298
-0.60698,0.16802,0.77675,0.00766,-0.03289,0.00427
-0.60682,0.16801,0.77688,0.00811,-0.02716,0.01119
-0.60694,0.16818,0.77675,0.01139,-0.0297,0.00983
-0.60726,0.16843,0.77644,0.0136,-0.02201,0.00714
-0.60778,0.16879,0.77596,0.00591,-0.00213,0.00012
-0.60833,0.16921,0.77543,0.00457,-0.00095,0.00392
-0.60873,0.16948,0.77506,0.01059,-0.00092,0.005
-0.60895,0.1696,0.77486,0.00821,-0.00431,0.00402
-0.609,0.16961,0.77482,0.00514,-0.00337,0.00184
-0.60907,0.16952,0.77479,0.00475,-0.00892,0.00118
-0.60907,0.1694,0.77482,0.01054,-0.02029,-0.01262
-0.60838,0.16942,0.77535,-0.01188,-0.01722,-0.00038
-0.60844,0.16928,0.77533,-0.01537,-0.02503,0.00447
-0.60832,0.16936,0.77541,-0.00477,-0.01703,-0.01134
-0.60823,0.16953,0.77545,0.00187,-0.01557,-0.01115
-0.60781,0.16968,0.77574,0.00266,-0.01039,0.00635
-0.60749,0.1697,0.77599,0.01343,-0.00251,0.01249
-0.60729,0.16978,0.77613,0.02031,-0.00303,0.01253
-0.60716,0.16983,0.77622,0.02682,-0.00373,0.01235
-0.607,0.16972,0.77637,0.01943,-0.01038,0.0172
-0.60689,0.16957,0.77648,0.01969,-0.01192,0.01177
-0.60681,0.16946,0.77657,0.01915,-0.01517,0.00761
-0.60663,0.16936,0.77673,0.00896,-0.02016,0.00545
-0.60651,0.16925,0.77685,0.00557,-0.02542,0.00249
-0.60652,0.16915,0.77686,0.00012,-0.03334,0.0019
-0.60656,0.16915,0.77684,-0.00882,-0.02991,-0.00293
-0.60662,0.16931,0.77675,-0.00995,-0.02554,-0.00409
-0.60677,0.16952,0.77659,-0.00697,-0.01708,-0.00263
-0.60718,0.16964,0.77624,-0.00185,-0.0091,1e-05
-0.60776,0.16969,0.77578,0.00407,-0.00278,0.00246
-0.60836,0.1697,0.77531,0.01197,-0.003,0.00248
-0.60862,0.16971,0.7751,0.01117,-0.00023,0.00516
-0.6085,0.16972,0.77519,0.01109,-0.00743,0.00949
-0.60837,0.16969,0.7753,0.01792,-0.00965,0.01267
-0.60826,0.16963,0.7754,0.01527,-0.01159,0.0105
-0.60812,0.16958,0.77552,0.0085,-0.0136,0.00733
-0.60804,0.16954,0.77559,0.00831,-0.01803,-0.00031
-0.60802,0.16949,0.77562,0.00513,-0.01977,0.00015
-0.60795,0.16944,0.77569,0.00317,-0.02058,0.00039
-0.60782,0.16932,0.77581,0.0057,-0.0247,0.00625
-0.60781,0.16928,0.77583,0.00726,-0.02363,0.00487
-0.60789,0.1693,0.77576,0.00972,-0.02161,0.00491
-0.60802,0.16934,0.77565,0.01025,-0.01334,0.00747
-0.60816,0.16945,0.77552,0.01029,-0.01326,0.0054
-0.6083,0.16958,0.77537,0.00961,-0.00767,0.0062
-0.60846,0.1697,0.77523,0.00882,-0.0037,0.00387
-0.60859,0.16983,0.77509,0.0067,-0.00619,0.00292
-0.60865,0.16989,0.77503,0.00717,-0.01083,0.0026
-0.60864,0.1699,0.77504,0.00153,-0.01803,0.00028
-0.60863,0.16989,0.77505,0.00192,-0.01716,-9e-05
-0.60859,0.16984,0.7751,-0.00412,-0.01838,-0.00016
-0.60852,0.16983,0.77515,0.00081,-0.01834,0.00201
-0.60843,0.16987,0.77521,0.00274,-0.01848,7e-05
-0.60835,0.16995,0.77526,0.00433,-0.0136,0.00167
-0.60826,0.17002,0.77531,0.00696,-0.0118,0.00302
-0.60812,0.17004,0.77542,0.01051,-0.00871,0.00387
-0.608,0.17007,0.77551,0.01111,-0.00818,0.0058
-0.60791,0.17006,0.77558,0.01525,-0.01244,0.00865
-0.6078,0.17001,0.77567,0.01149,-0.01561,0.01044
-0.60771,0.16999,0.77575,0.0114,-0.01559,0.01037
-0.60773,0.17003,0.77573,0.01433,-0.01883,0.00918
-0.60778,0.17005,0.77569,0.00614,-0.01882,0.00181
-0.60782,0.17009,0.77564,0.0047,-0.0206,0.00631
-0.60783,0.17016,0.77562,0.00044,-0.01838,0.00296
-0.60789,0.17028,0.77555,0.00243,-0.01285,0.00249
-0.60805,0.17053,0.77537,0.00688,-0.01203,-0.00027
-0.60816,0.17074,0.77523,0.00117,-0.00955,5e-05
-0.60821,0.17091,0.77516,0.00483,-0.00787,-0.00512
-0.60818,0.17101,0.77516,0.00576,-0.01316,-0.00055
-0.60798,0.171,0.77531,0.00487,-0.02195,0.00585
-0.60778,0.17099,0.77548,0.01002,-0.02919,0.00763
-0.6077,0.17109,0.77552,0.01151,-0.03122,0.01069
-0.60766,0.17123,0.77552,0.01014,-0.01501,0.0095
-0.60773,0.17145,0.77542,0.01381,-0.01149,0.00653
-0.60788,0.17167,0.77525,0.01575,-0.00455,0.00603
-0.60804,0.17181,0.77509,0.01324,0.00275,0.00533
-0.60818,0.1719,0.77496,0.01187,0.00594,0.01117
-0.60823,0.17191,0.77492,0.01349,0.00603,0.00476
-0.60827,0.17181,0.77491,0.00953,-0.02549,-0.0021
-0.60825,0.1715,0.775,0.00292,-0.03945,0.00509
-0.60813,0.1712,0.77516,-0.00422,-0.05475,0.00669
-0.60805,0.17118,0.77522,-0.00907,-0.04192,0.00052
-0.60818,0.17139,0.77507,-0.00557,-0.033,-0.00542
-0.60843,0.17167,0.77482,-0.00281,-0.00771,0.00574
-0.6086,0.17195,0.77463,0.01347,0.01282,0.00134
-0.60884,0.1723,0.77435,0.0125,0.01149,-0.0004
-0.60902,0.17252,0.77416,0.01387,0.01001,0.00289
-0.60896,0.17248,0.77422,0.01337,0.01063,0.01216
-0.60864,0.17228,0.77452,0.01721,0.00295,0.01125
-0.60831,0.17206,0.77482,0.01803,-0.01041,0.01221
-0.6081,0.17188,0.77503,0.00921,-0.02178,0.00671
-0.60792,0.17169,0.77521,0.00796,-0.02716,-0.00026
-0.6077,0.1715,0.77543,-0.00184,-0.03406,-0.00281
-0.60751,0.1713,0.77562,-0.00612,-0.03585,0.00249
-0.6074,0.17119,0.77574,-0.00192,-0.03445,0.00284
-0.60728,0.17118,0.77582,0.00189,-0.03411,-0.00095
-0.60725,0.17119,0.77585,0.00126,-0.02895,0.00253
-0.60733,0.17133,0.77576,0.00204,-0.02281,0.00546
-0.60752,0.17158,0.77555,0.00686,-0.01609,0.0075
-0.60782,0.17186,0.77525,0.01288,-0.01052,0.00655
-0.60813,0.1721,0.77496,0.01544,-0.00103,0.00922
-0.60836,0.17236,0.77472,0.0168,0.00472,0.00721
-0.60854,0.17252,0.77454,0.0161,0.0044,0.00687
-0.60863,0.17249,0.77448,0.01427,-0.01,0.00887
-0.60863,0.17238,0.7745,0.00902,-0.01565,0.00593
-0.60859,0.17224,0.77456,0.001,-0.02211,0.00337
-0.6085,0.17214,0.77465,-0.00022,-0.01701,-0.00422
-0.60849,0.17213,0.77467,-0.0007,-0.01947,-0.00074
-0.60844,0.1721,0.77471,0.00215,-0.02249,0.00085
-0.60838,0.17207,0.77477,0.00149,-0.01788,0.00648
-0.60832,0.1721,0.77481,0.00297,-0.01645,0.00293
-0.6083,0.17217,0.77481,0.00665,-0.01177,0.00466
-0.60831,0.17221,0.77479,0.01374,-0.0114,0.00897
-0.60827,0.17224,0.77481,0.01338,-0.01403,0.00973
-0.60821,0.17228,0.77485,0.01245,-0.01344,0.01089
-0.60819,0.17231,0.77486,0.01171,-0.01496,0.00589
-0.60817,0.17231,0.77488,0.00821,-0.01392,0.00743
-0.60815,0.1723,0.7749,0.00817,-0.01695,0.0031
-0.60819,0.1723,0.77486,0.00832,-0.01878,0.0019
-0.60822,0.17228,0.77484,0.00507,-0.01731,0.00595
-0.60815,0.17222,0.77491,0.00172,-0.0103,0.00466
-0.6081,0.17224,0.77494,0.00222,-0.00903,0.00324
-0.60812,0.17228,0.77492,0.01007,-0.01147,0.00308
-0.60811,0.17227,0.77493,0.00751,-0.01573,0.00553
-0.60797,0.17223,0.77505,0.00468,-0.01537,0.00538
-0.60783,0.17215,0.77518,0.00622,-0.01794,0.00462
-0.60774,0.17207,0.77527,0.00735,-0.02266,0.00603
-0.6076,0.17202,0.77539,0.00802,-0.02192,0.00547
-0.60747,0.17193,0.77551,0.00555,-0.02272,0.00679
-0.60742,0.17187,0.77556,0.00845,-0.01987,0.00354
-0.60736,0.17185,0.77561,0.00767,-0.01791,0.0039
-0.60731,0.17184,0.77565,0.00781,-0.0137,0.00639
-0.60731,0.17185,0.77565,0.01081,-0.0165,0.00532
-0.60737,0.1719,0.7756,0.00837,-0.01874,0.00413
-0.60741,0.17194,0.77555,0.00896,-0.01696,0.00847
-0.60742,0.172,0.77553,0.01067,-0.01917,0.00664
-0.60745,0.1721,0.77549,0.00636,-0.01884,0.00647
-0.60751,0.17216,0.77543,0.00385,-0.01915,0.00509
-0.60754,0.17222,0.77539,0.00381,-0.01462,0.0044
-0.60762,0.17229,0.77531,0.00629,-0.01439,0.00342
-0.60774,0.17239,0.77519,0.00639,-0.01135,0.00706
-0.60787,0.1725,0.77507,0.01075,-0.01113,0.00558
-0.60792,0.17254,0.77502,0.00773,-0.00908,0.00692
-0.60793,0.17253,0.77501,0.00384,-0.01062,0.00474
-0.60797,0.17252,0.77499,0.00783,-0.01286,0.00678
-0.60796,0.17247,0.77501,0.00789,-0.02325,-8e-05
-0.60783,0.17234,0.77514,0.0028,-0.0231,0.00593
-0.60756,0.17221,0.77538,-0.0004,-0.01325,0.01298
-0.60742,0.17225,0.77548,0.01161,-0.01064,0.00359
-0.60747,0.17239,0.77541,0.01336,-0.01207,0.00107
-0.60749,0.17244,0.77538,0.01017,-0.01868,0.00284
-0.60733,0.17236,0.77552,0.00435,-0.01677,0.00713
-0.60716,0.17225,0.77569,0.00889,-0.01651,0.00485
-0.60711,0.17214,0.77574,0.01322,-0.02439,0.00529
-0.60705,0.17202,0.77582,0.00178,-0.02409,0.0075
-0.60698,0.17193,0.7759,0.00273,-0.02017,0.00809
-0.60701,0.17197,0.77586,0.00854,-0.01651,0.00539
-0.60713,0.17203,0.77575,0.00604,-0.01741,0.00463
-0.60727,0.17208,0.77563,0.00464,-0.01187,0.00475
-0.6074,0.17213,0.77552,0.01048,-0.01448,0.00479
-0.60752,0.1722,0.77541,0.01009,-0.01463,0.00678
-0.60761,0.17222,0.77533,0.00828,-0.01147,0.00768
-0.60765,0.17227,0.77529,0.03166,-0.04771,0.03064
-0.60774,0.17228,0.77522,-0.00069,0.00686,0.0013
-0.60763,0.1719,0.77539,0.00613,-0.01527,0.00766
-0.60715,0.1718,0.77579,0.00545,-0.01812,0.00589
-0.60715,0.17176,0.7758,0.00583,-0.02003,0.00234
-0.60709,0.17171,0.77585,0.00919,-0.01851,0.0014
-0.60681,0.1717,0.77607,0.00093,-0.01673,0.00483
-0.60635,0.1717,0.77644,-0.00106,-0.01317,0.00649
-0.60604,0.17178,0.77665,0.00299,-0.01547,0.00392
-0.60587,0.17195,0.77676,0.00996,-0.0162,0.00454
-0.60556,0.17211,0.77696,0.01045,-0.01589,0.00525
-0.60511,0.1722,0.77729,0.01056,-0.02154,0.00123
-0.60468,0.17228,0.77761,0.00893,-0.01932,0.01117
-0.60425,0.17234,0.77793,0.00854,-0.01882,0.01357
-0.60394,0.17249,0.77814,0.01183,-0.01667,0.00893
-0.60378,0.17264,0.77822,0.00864,-0.01688,0.00748
-0.60363,0.17283,0.7783,0.00612,-0.01551,0.00696
-0.60355,0.17305,0.77832,0.00443,-0.01394,0.0059
-0.60362,0.1732,0.77822,0.01077,-0.01803,0.00953
-0.60384,0.17333,0.77803,0.01262,-0.01934,0.006
-0.60397,0.1734,0.7779,0.00838,-0.01707,0.00309
-0.60405,0.17345,0.77783,0.0047,-0.01544,0.00387
-0.60413,0.17348,0.77776,0.00566,-0.01421,0.00503
-0.60424,0.17349,0.77768,0.00768,-0.01179,0.00824
-0.6044,0.17346,0.77756,0.0072,-0.00956,0.00414
-0.60455,0.17339,0.77746,0.00225,-0.01125,0.00408
-0.60472,0.17333,0.77734,0.00398,-0.01251,0.00189
-0.60494,0.17323,0.77719,0.00759,-0.01573,-0.00403
-0.60514,0.17304,0.77707,0.00689,-0.02169,0.00732
-0.60532,0.17287,0.77698,0.0049,-0.02066,0.00965
-0.6055,0.17274,0.77686,0.00552,-0.01943,0.0064
-0.60568,0.17256,0.77676,0.01004,-0.02162,0.00547
-0.60579,0.17235,0.77672,0.00856,-0.02637,0.00583
-0.6059,0.1722,0.77667,0.01076,-0.02678,0.00701
-0.606,0.17213,0.7766,0.00096,-0.01561,0.00533
-0.60617,0.17213,0.77647,0.00167,-0.01118,0.00481
-0.6064,0.17203,0.77632,0.00091,-0.00871,0.00417
-0.60656,0.17186,0.77623,0.01152,-0.02391,0.00142
-0.60665,0.17174,0.77618,0.00921,-0.01923,-0.00188
-0.60663,0.17164,0.77622,0.00823,-0.01062,-0.0
-0.60652,0.17134,0.77637,0.00756,-0.01349,0.0058
-0.60631,0.17083,0.77665,0.00708,-0.0136,0.01551
-0.60621,0.17028,0.77685,0.01132,-0.00751,0.01975
-0.60657,0.16964,0.77671,0.01654,-0.00998,0.01333
-0.60756,0.16867,0.77614,0.01676,-0.02037,-0.00454
-0.60799,0.16748,0.77607,0.00604,-0.02885,0.00152
-0.60798,0.16652,0.77628,0.00338,-0.0214,-0.00056
-0.60774,0.16574,0.77663,0.00194,-0.01501,0.00825
-0.60734,0.16501,0.77711,0.00712,-0.01294,0.01423
-0.60732,0.16438,0.77726,0.01705,-0.01112,0.00695
-0.60726,0.16372,0.77744,0.0199,-0.0104,0.00758
-0.60698,0.16297,0.77781,0.01261,-0.01023,0.00913
-0.60688,0.16229,0.77804,0.01011,-0.00866,0.0084
-0.60709,0.16173,0.77799,0.00825,-0.01688,0.00035
-0.60723,0.16126,0.77798,-0.00435,-0.02303,-0.008
-0.60717,0.16082,0.77811,-0.00379,-0.02746,-0.00286
-0.60687,0.16035,0.77845,-0.00224,-0.04961,0.01002
-0.60614,0.16008,0.77907,0.00375,-0.03716,0.00941
-0.6052,0.15995,0.77983,0.00745,-0.0328,0.00633
-0.60432,0.15992,0.78052,0.00624,-0.03549,0.00357
-0.60335,0.15979,0.78129,0.01671,-0.02602,0.00438
-0.60241,0.15942,0.78209,0.01707,-0.01627,0.00852
-0.60132,0.15915,0.78299,0.0145,-0.03473,0.01184
-0.60012,0.15893,0.78396,0.0142,0.00072,0.00956
-0.59885,0.15874,0.78496,0.02115,-0.00596,0.03402
-0.59811,0.1585,0.78558,0.03932,-0.0092,0.047
-0.59759,0.15838,0.786,0.04339,0.00712,0.05684
-0.59772,0.15894,0.78578,0.03469,-0.01038,0.02704
-0.59776,0.16044,0.78545,0.01446,0.01494,0.03578
-0.59824,0.16182,0.7848,0.00717,0.00415,0.02518
-0.59835,0.16357,0.78435,-0.01557,0.01405,0.04609
-0.59778,0.16557,0.78436,-0.02044,0.01186,0.03952
-0.59641,0.16767,0.78496,-0.04159,0.00755,-0.00161
-0.59444,0.17009,0.78594,-0.05192,0.03597,0.00172
-0.59223,0.17216,0.78716,-0.05526,0.03382,0.00665
-0.58951,0.17382,0.78883,-0.06593,0.00344,-0.02455
-0.58565,0.17606,0.7912,-0.03622,-0.01198,-0.05852
-0.58187,0.17886,0.79336,-0.02624,-0.02137,-0.0527
-0.57693,0.1811,0.79645,-0.01303,-0.02013,-0.03199
-0.56965,0.18245,0.80137,-0.01037,-0.00626,0.01752
-0.56154,0.18388,0.80675,0.0125,-0.00989,0.00689
-0.55313,0.1853,0.81221,0.06874,-0.02753,0.01844
-0.54511,0.1872,0.81719,0.04246,-0.05695,-0.00144
-0.53714,0.18924,0.82198,0.01336,-0.07551,-0.02375
-0.52937,0.19115,0.82657,0.03077,-0.11922,-0.04846
-0.5227,0.1927,0.83045,0.03591,-0.11007,-0.05518
-0.51709,0.19391,0.83367,0.05191,-0.08749,-0.04051
-0.51264,0.19452,0.83627,0.06125,-0.06211,-0.03563
-0.50971,0.1948,0.83799,0.07296,-0.05091,-0.03158
-0.50838,0.19457,0.83886,0.06996,-0.08808,-0.02875
-0.50836,0.19386,0.83903,0.0596,-0.03468,-0.03271
-0.50953,0.19271,0.83859,0.05595,-0.04299,-0.02194
-0.51213,0.19103,0.83739,0.05582,-0.0338,-0.00764
-0.51542,0.18913,0.8358,0.02551,0.01281,0.00606
-0.51847,0.18655,0.83449,0.01401,-0.00895,-0.00588
-0.52165,0.18321,0.83325,0.00932,-0.03407,-0.01766
-0.52528,0.17924,0.83183,-0.01346,-0.04956,0.0488
-0.52779,0.17439,0.83127,-0.0305,-0.04441,0.10551
-0.52855,0.1693,0.83184,-0.04889,-0.02836,0.12726
-0.53103,0.16594,0.83094,0.03816,0.01226,0.00682
-0.53687,0.16458,0.82745,0.04198,0.01311,-0.0157
-0.54308,0.16303,0.82369,0.0158,0.03976,-0.02972
-0.54854,0.16055,0.82056,-0.02768,-0.00459,0.04778
-0.55183,0.15742,0.81896,-0.03898,0.00051,0.06032
-0.55509,0.15498,0.81722,-0.0504,-0.01914,0.04077
-0.5589,0.15373,0.81485,-0.01651,-0.03085,0.01205
-0.5622,0.15289,0.81274,-0.01402,-0.01179,-0.03678
-0.56393,0.15166,0.81177,-0.02981,-0.01603,-0.04659
-0.56428,0.14974,0.81188,-0.04376,0.02551,-0.01394
-0.56369,0.14722,0.81275,-0.02108,0.04611,0.01712
-0.56258,0.14512,0.8139,-0.00265,0.02606,0.06376
-0.56154,0.14397,0.81481,-0.00073,-0.00608,0.06197
-0.56123,0.14404,0.81502,-0.03354,-0.07504,-0.01987
-0.5605,0.14502,0.81535,-0.04376,-0.08497,-0.04122
-0.55929,0.14607,0.81599,-0.04451,-0.06893,-0.06843
-0.55804,0.14701,0.81668,-0.06098,-0.01914,-0.03619
-0.5562,0.14783,0.81779,-0.03964,0.00409,-0.00698
-0.55283,0.14768,0.82009,-0.02436,0.01513,-0.00462
-0.54844,0.1466,0.82323,0.00793,0.04224,0.01024
-0.54315,0.14489,0.82703,0.04308,0.05786,0.01901
-0.53719,0.14323,0.8312,0.06072,0.0548,0.03498
-0.53127,0.14196,0.83521,0.06315,0.03886,0.064
-0.52601,0.14123,0.83866,0.05498,0.02914,0.05651
-0.52141,0.14158,0.84147,0.04032,-0.01082,0.05267
-0.51755,0.14297,0.84362,0.06665,-0.03396,0.05519
-0.51459,0.14497,0.84508,0.07486,-0.05247,0.05223
-0.51243,0.14754,0.84595,0.05561,-0.06272,0.07158
-0.51272,0.14999,0.84535,0.0515,-0.0792,0.0541
-0.51542,0.15296,0.84317,0.02856,-0.08371,0.02652
-0.52009,0.15682,0.83958,0.0077,-0.05165,-0.01786
-0.52589,0.16083,0.8352,-0.00191,-0.03699,-0.01422
-0.53229,0.16484,0.83035,-0.01018,-0.00176,-0.00114
-0.53805,0.16876,0.82584,-0.04471,0.03471,0.08559
-0.54276,0.17263,0.82195,-0.04183,0.03537,0.07101
-0.54616,0.17628,0.81891,-0.00873,0.03484,0.00128
-0.54851,0.18002,0.81652,0.00098,0.01575,-0.1499
-0.55046,0.1835,0.81443,0.01297,-0.00226,-0.14688
-0.55066,0.18591,0.81375,-0.02457,-0.03047,-0.13873
-0.54873,0.18699,0.81481,0.00754,-0.08066,-0.09157
-0.54574,0.18712,0.81678,0.0292,-0.09786,-0.07566
-0.54306,0.18664,0.81868,0.05552,-0.11278,-0.03862
-0.54063,0.18597,0.82044,0.03286,-0.10372,0.03638
-0.53832,0.18523,0.82212,0.01909,-0.10082,0.05457
-0.53697,0.1844,0.82319,0.03484,-0.07886,0.04891
-0.53736,0.1838,0.82307,0.07122,-0.0569,0.04657
-0.53956,0.18346,0.8217,0.07393,-0.05243,0.04047
-0.54324,0.183,0.81938,0.03523,-0.03406,0.01981
-0.54754,0.18256,0.81661,-0.04285,-0.0114,-0.00415
-0.55192,0.18196,0.81379,-0.0429,0.00513,-0.02855
-0.55567,0.18085,0.81149,-0.06488,-0.00451,-0.01263
-0.55797,0.17958,0.81019,-0.06926,0.02394,0.00424
-0.5592,0.17863,0.80955,-0.05593,0.04283,-0.00275
-0.56019,0.17755,0.8091,-0.02523,0.03773,-0.01029
-0.56016,0.17617,0.80942,-0.01681,0.02152,-0.00872
-0.55882,0.17447,0.81072,-0.01674,-0.00806,-0.0045
-0.55665,0.17281,0.81256,-0.01131,-0.01862,0.0031
-0.55419,0.17121,0.81458,0.00715,-0.04064,0.01399
-0.55171,0.16979,0.81656,0.01465,-0.0546,0.04347
-0.54956,0.16886,0.8182,0.01963,-0.05575,0.04682
-0.54816,0.16857,0.8192,0.02393,-0.05129,0.04277
-0.54748,0.16862,0.81964,0.03248,-0.02972,0.0224
-0.54728,0.16879,0.81974,0.03138,-0.0242,0.01812
-0.54738,0.169,0.81963,0.02986,-0.00796,0.00764
-0.5477,0.16912,0.81939,0.02755,0.00404,0.01031
-0.54803,0.16921,0.81915,0.02639,0.00761,0.01638
-0.54827,0.16933,0.81897,0.02028,0.00925,0.0208
-0.54851,0.16933,0.8188,0.01867,0.00616,0.01762
-0.54904,0.16918,0.81848,0.01913,-0.00068,0.00988
-0.54964,0.16889,0.81813,0.02001,-0.0122,0.00026
-0.55008,0.16862,0.81789,0.01662,-0.03317,0.00657
-0.55027,0.16839,0.81782,-0.00085,-0.05001,0.0189
-0.55026,0.16836,0.81783,-0.00741,-0.05171,0.02465
-0.55056,0.16879,0.81754,-0.00682,-0.05119,0.01553
-0.55172,0.16955,0.8166,0.00512,-0.05355,-0.00944
-0.55339,0.17032,0.81531,0.00555,-0.03669,-0.03008
-0.55458,0.17094,0.81437,-0.00044,-0.0283,-0.02762
-0.55502,0.17112,0.81403,-0.01743,-0.01222,-0.01311
-0.55496,0.1709,0.81412,-0.00514,0.00058,6e-05
-0.5547,0.17054,0.81437,-0.00351,0.003,0.00576
-0.5543,0.17008,0.81474,0.00013,0.01563,0.01085
-0.5538,0.16957,0.81519,0.00227,-0.00541,-0.00125
-0.55304,0.16902,0.81582,0.00325,-0.01469,-0.00755
-0.552,0.16853,0.81662,-0.00369,-0.02423,-0.00758
-0.55046,0.16805,0.81776,-0.00648,-0.03425,0.01136
-0.54866,0.16757,0.81907,-0.00924,-0.04086,0.01565
-0.54701,0.16722,0.82024,-0.00539,-0.03922,0.02302
-0.5459,0.16709,0.82101,0.01713,-0.0455,0.01461
-0.5453,0.1672,0.82138,0.02631,-0.04498,0.01198
-0.54497,0.16741,0.82155,0.03927,-0.03671,0.01242
-0.54493,0.16758,0.82155,0.04505,-0.01933,0.01689
-0.5452,0.16766,0.82135,0.04133,-0.01473,0.01712
-0.54577,0.16754,0.821,0.03567,-0.00915,0.0175
-0.54638,0.1674,0.82062,0.03926,-0.01182,0.02131
-0.54683,0.16723,0.82035,0.04119,-0.01437,0.02317
-0.547,0.16706,0.82028,0.02731,-0.02134,0.01891
-0.5471,0.16691,0.82024,0.00334,-0.02984,0.01187
-0.54722,0.16691,0.82016,-0.0088,-0.03532,0.00943
-0.54735,0.16709,0.82004,-0.01242,-0.03016,-0.00274
-0.54755,0.16725,0.81987,-0.01437,-0.02501,-0.00961
-0.54785,0.16731,0.81966,-0.01823,-0.02265,-0.0152
-0.54811,0.16736,0.81948,-0.01612,-0.0157,-0.01294
-0.54824,0.1673,0.8194,-0.00966,-0.01218,-0.0111
-0.54824,0.16715,0.81943,-0.00147,-0.00789,0.00094
-0.54809,0.16703,0.81956,0.00169,-0.00977,0.0062
-0.54786,0.16689,0.81974,0.00602,-0.01397,0.00822
-0.54751,0.16679,0.81999,0.01297,-0.02469,0.01307
-0.54704,0.16677,0.82031,0.01655,-0.0315,0.01062
-0.54662,0.16676,0.8206,0.01621,-0.03888,0.01374
-0.54622,0.16681,0.82086,0.01764,-0.03993,0.01517
-0.54587,0.16697,0.82105,0.01807,-0.03869,0.01299
-0.54564,0.16708,0.82118,0.01704,-0.02974,0.01114
-0.5456,0.16717,0.82119,0.02258,-0.0247,0.01316
-0.54573,0.16724,0.82109,0.02247,-0.01951,0.01275
-0.54587,0.16721,0.821,0.01453,-0.01512,0.01037
-0.54601,0.16723,0.8209,0.01583,-0.01246,0.0098
-0.54621,0.16723,0.82078,0.01427,-0.00788,0.00867
-0.54643,0.16717,0.82064,0.01359,-0.01136,0.00591
-0.54662,0.16706,0.82053,0.01153,-0.01817,0.00372
-0.5467,0.16692,0.82051,0.00404,-0.03231,0.00105
-0.54664,0.16681,0.82057,-0.01033,-0.04823,0.00458
-0.54648,0.16682,0.82068,-0.01234,-0.04729,0.00453
-0.5463,0.16695,0.82077,-0.00704,-0.0445,0.00258
-0.54633,0.16718,0.8207,-0.00578,-0.02956,0.00093
-0.54663,0.16753,0.82043,-0.00283,-0.02491,0.00231
-0.54701,0.1679,0.8201,0.00844,-0.01706,0.00041
-0.54718,0.16816,0.81994,0.01506,-0.00964,0.00529
-0.5471,0.16836,0.81995,0.01428,-0.00647,0.00767
-0.54698,0.16839,0.82003,0.02037,-0.00144,0.01707
-0.54694,0.16842,0.82005,0.02992,0.00668,0.01
-0.54699,0.16834,0.82003,0.02993,-0.0003,0.00492
-0.54691,0.16802,0.82015,0.02611,-0.02354,0.0061
-0.5464,0.16763,0.82057,0.00567,-0.05473,0.01273
-0.54572,0.16728,0.82109,-0.00271,-0.05775,0.01489
-0.54515,0.16714,0.8215,-0.01831,-0.05721,0.01836
-0.54505,0.16736,0.82152,-0.01579,-0.04558,0.0072
-0.54566,0.1678,0.82103,0.00279,-0.03425,-0.00874
-0.54648,0.16824,0.82039,0.01039,-0.01778,-0.00636
-0.54694,0.16851,0.82003,0.00885,-0.00332,0.00298
-0.5471,0.1686,0.8199,0.01846,0.00923,0.00528
-0.54719,0.16851,0.81986,0.01942,0.00575,0.01019
-0.54722,0.16831,0.81988,0.02447,-0.00712,0.0112
-0.54694,0.16812,0.82011,0.01847,-0.02989,0.01527
-0.54646,0.16788,0.82047,0.01412,-0.03831,0.01476
-0.54598,0.16771,0.82083,-0.00019,-0.04541,0.01633
-0.54575,0.16778,0.82097,8e-05,-0.04067,0.00428
-0.54588,0.16798,0.82085,0.00138,-0.03786,0.00221
-0.54622,0.16816,0.82058,0.00574,-0.03291,1e-05
-0.54656,0.16829,0.82032,0.00616,-0.01544,0.00193
-0.54678,0.16838,0.82016,0.00572,-0.01089,0.00032
-0.54696,0.16834,0.82005,0.01125,-0.0068,0.00575
-0.54706,0.16826,0.82,0.01902,-0.01685,0.01202
-0.54702,0.16819,0.82004,0.01665,-0.01854,0.0113
-0.54672,0.16812,0.82026,0.00628,-0.02395,0.01458
-0.54641,0.16813,0.82046,0.00229,-0.03111,0.01276
-0.54634,0.1683,0.82047,0.0046,-0.0314,0.00862
-0.54636,0.16845,0.82043,0.00693,-0.02753,0.00457
-0.54642,0.16862,0.82035,0.00623,-0.02647,0.00632
-0.54657,0.1687,0.82024,0.01232,-0.02197,0.00206
-0.54675,0.16869,0.82012,0.01453,-0.02104,0.00325
-0.5469,0.16863,0.82004,0.01301,-0.0226,0.00556
-0.54689,0.16852,0.82006,0.00923,-0.024,0.0132
-0.54676,0.16841,0.82017,0.00809,-0.02518,0.01171
-0.54664,0.1684,0.82025,0.00676,-0.02722,0.01181
-0.5466,0.16842,0.82027,0.00441,-0.02618,0.00927
-0.54665,0.16853,0.82022,0.00584,-0.02279,0.00352
-0.54679,0.1687,0.82009,0.01054,-0.02346,0.00462
-0.54692,0.1688,0.81998,0.01134,-0.02123,0.00385
-0.54699,0.1688,0.81994,0.01103,-0.02409,0.00566
-0.54698,0.16873,0.81996,0.01026,-0.02625,0.00785
-0.54692,0.16861,0.82002,0.01076,-0.02767,0.00757
-0.54683,0.1685,0.8201,0.00682,-0.02693,0.00869
-0.54673,0.16846,0.82018,0.00592,-0.02701,0.00921
-0.54669,0.16846,0.8202,0.00601,-0.02591,0.00809
-0.54671,0.16853,0.82018,0.00828,-0.02502,0.00737
-0.54678,0.16867,0.8201,0.00715,-0.02325,0.00787
-0.54689,0.16877,0.82,0.01142,-0.02185,0.00588
-0.54699,0.16882,0.81993,0.01095,-0.02438,0.00493
-0.54704,0.16878,0.81991,0.01086,-0.02378,0.0091
-0.54698,0.16875,0.81995,0.01037,-0.02207,0.00903
-0.54691,0.16867,0.82001,0.00872,-0.0268,0.00784
-0.54685,0.1686,0.82007,0.00722,-0.02769,0.00778
-0.54671,0.16857,0.82017,0.00246,-0.02707,0.00875
-0.54667,0.1686,0.82019,0.00592,-0.0232,0.00825
-0.54668,0.16868,0.82016,0.0098,-0.02494,0.00669
-0.5467,0.16876,0.82013,0.00769,-0.02764,0.00746
-0.54674,0.1688,0.8201,0.00879,-0.02665,0.0067
-0.54681,0.1688,0.82006,0.01086,-0.02535,0.00944
-0.54686,0.16881,0.82002,0.01368,-0.02336,0.00846
-0.54685,0.16878,0.82003,0.01111,-0.02327,0.01035
-0.5468,0.16871,0.82008,0.00805,-0.02229,0.01044
-0.54678,0.16869,0.8201,0.00988,-0.02346,0.00907
-0.54675,0.16868,0.82011,0.0089,-0.02357,0.0099
-0.54674,0.16868,0.82012,0.00924,-0.02544,0.00828
-0.54674,0.16871,0.82011,0.00617,-0.0244,0.00745
-0.54675,0.16875,0.8201,0.00638,-0.02434,0.00671
-0.54676,0.16878,0.82009,0.0052,-0.02564,0.00545
-0.54678,0.1688,0.82007,0.00574,-0.02629,0.00566
-0.54677,0.1688,0.82008,0.0079,-0.03079,0.00788
-0.54671,0.16883,0.82011,0.01128,-0.02936,0.01108
-0.54666,0.16889,0.82013,0.01012,-0.02891,0.01065
-0.5467,0.16899,0.82008,0.00724,-0.02204,0.00818
-0.5468,0.16915,0.81999,0.00992,-0.01754,0.00594
-0.54688,0.16931,0.8199,0.00933,-0.01973,0.00971
-0.54693,0.16941,0.81984,0.01254,-0.02624,0.00854
-0.54694,0.16949,0.81982,0.01032,-0.0275,0.00904
-0.54697,0.16957,0.81978,0.0108,-0.02622,0.00815
-0.547,0.1696,0.81976,0.01082,-0.02568,0.00995
-0.54702,0.16962,0.81974,0.01072,-0.02106,0.0088
-0.54712,0.16961,0.81967,0.011,-0.01898,0.00473
-0.54719,0.16954,0.81964,0.01217,-0.02264,0.0049
-0.54709,0.16946,0.81972,0.01369,-0.02384,0.00709
-0.54674,0.16931,0.81999,0.01221,-0.03055,0.00769
-0.54623,0.16918,0.82036,-0.00066,-0.04325,0.01395
-0.54581,0.16915,0.82065,-0.00415,-0.04496,0.01439
-0.54561,0.16929,0.82075,0.00015,-0.04217,0.00925
-0.54569,0.16958,0.82064,-0.00012,-0.02813,0.00601
-0.54583,0.16991,0.82047,0.00135,-0.02463,0.00695
-0.546,0.17014,0.82031,0.004,-0.01563,0.00193
-0.54618,0.17027,0.82017,0.01906,-0.00316,0.00304
-0.54624,0.17033,0.82012,0.02138,-0.00304,0.00677
-0.54622,0.17023,0.82015,0.01915,-0.00498,0.01155
-0.54615,0.17003,0.82024,0.0159,-0.01453,0.01524
-0.54608,0.16986,0.82032,0.01547,-0.01471,0.01386
-0.54602,0.16971,0.82039,0.01294,-0.02496,0.01271
-0.54598,0.16956,0.82044,0.0129,-0.03098,0.00806
-0.54601,0.16943,0.82045,0.01095,-0.03393,0.00865
-0.54614,0.16929,0.82039,0.00687,-0.03393,0.00701
-0.54636,0.16918,0.82027,0.00684,-0.0375,0.00501
-0.54666,0.16915,0.82007,0.00395,-0.0361,0.00747
-0.54702,0.16924,0.81982,0.00376,-0.03262,0.00675
-0.54744,0.16939,0.81951,0.00676,-0.02202,0.00526
-0.54791,0.16955,0.81916,0.01062,-0.01866,0.00825
-0.54837,0.16977,0.8188,0.01433,-0.01714,0.00642
-0.54873,0.16993,0.81853,0.01648,-0.02082,0.00756
-0.54891,0.17003,0.81839,0.0142,-0.01834,0.00797
-0.549,0.17006,0.81832,0.01609,-0.01914,0.00425
-0.54909,0.17001,0.81827,0.01197,-0.02532,0.00271
-0.54916,0.1699,0.81825,0.00326,-0.03605,0.00326
-0.54909,0.16979,0.81832,-0.00163,-0.04055,0.00522
-0.54888,0.16975,0.81847,-0.00077,-0.04698,0.00856
-0.54858,0.16975,0.81867,-0.00308,-0.05538,0.00114
-0.5483,0.16988,0.81883,-0.00761,-0.0496,0.00192
-0.54811,0.17012,0.81891,-0.00269,-0.03731,0.00511
-0.54806,0.17038,0.81889,0.01178,-0.02323,0.00835
-0.54799,0.1707,0.81887,0.01781,-0.01295,0.00949
-0.54784,0.17094,0.81892,0.01947,-0.00671,0.01296
-0.54763,0.17111,0.81903,0.01942,-0.00852,0.01388
-0.54743,0.17116,0.81914,0.02011,-0.00687,0.01308
-0.54731,0.17116,0.81923,0.01799,-0.01195,0.01383
-0.54727,0.17113,0.81926,0.01822,-0.00988,0.01447
-0.54718,0.17106,0.81933,0.0129,-0.01565,0.01404
-0.54716,0.1709,0.81938,0.01413,-0.02152,0.00745
-0.54725,0.17069,0.81937,0.01197,-0.02435,0.0042
-0.54735,0.1705,0.81934,0.01207,-0.02415,0.00422
-0.54743,0.17022,0.81934,0.00808,-0.0336,0.00349
-0.54747,0.1699,0.81938,0.00621,-0.03712,0.00516
-0.54746,0.1696,0.81945,0.00403,-0.03908,0.00441
-0.54734,0.16937,0.81958,-0.00194,-0.05049,0.00773
-0.54719,0.16933,0.81969,-0.00381,-0.05434,0.00778
-0.5471,0.16946,0.81972,-0.00388,-0.04514,0.00958
-0.54727,0.16975,0.81955,0.00203,-0.02768,0.00302
-0.5475,0.17016,0.81931,0.00388,-0.02517,0.00337
-0.5477,0.17053,0.81909,0.00698,-0.0116,0.0031
-0.54784,0.17078,0.81895,0.01742,0.00206,0.00419
-0.54792,0.17091,0.81887,0.02105,0.00057,0.00582
-0.54785,0.17082,0.81894,0.01988,-0.00171,0.01593
-0.54763,0.17071,0.81911,0.01613,-0.00462,0.01941
-0.54753,0.17063,0.81919,0.02354,-0.00591,0.01208
-0.54748,0.17037,0.81928,0.02949,-0.01358,0.00481
-0.54725,0.16991,0.81953,0.02,-0.03265,0.00652
-0.54686,0.16941,0.81989,0.00748,-0.05619,0.01466
-0.54647,0.16911,0.82021,-0.00103,-0.06504,0.01722
-0.54624,0.16903,0.82039,-0.01036,-0.06824,0.01221
-0.54632,0.16918,0.8203,-0.00209,-0.04859,0.00028
-0.54689,0.16957,0.81984,0.00026,-0.04208,-0.00131
-0.54755,0.17003,0.8193,0.00604,-0.02361,0.0
-0.548,0.17038,0.81893,0.00981,-0.00556,0.00497
-0.54828,0.17067,0.81868,0.01293,-0.00287,0.00628
-0.54848,0.17079,0.81853,0.01613,0.00228,0.01325
-0.54862,0.17081,0.81842,0.02106,0.00047,0.01513
-0.54872,0.17077,0.81836,0.0231,-0.00123,0.01376
-0.54873,0.17063,0.81839,0.02354,-0.00788,0.0093
-0.54852,0.17035,0.81859,0.01628,-0.02451,0.00902
-0.54817,0.16994,0.81891,0.01279,-0.0309,0.00722
-0.54782,0.16951,0.81923,0.00333,-0.04908,0.00771
-0.54745,0.16928,0.81952,-0.00939,-0.06253,0.00938
-0.54716,0.16922,0.81973,-0.01213,-0.06347,0.00635
-0.54709,0.16931,0.81976,-0.00259,-0.039,-0.00039
-0.54732,0.16968,0.81953,0.00302,-0.03155,0.00298
-0.54767,0.17006,0.81922,0.01294,-0.01638,0.00401
-0.54794,0.17036,0.81898,0.02055,-0.00513,0.01344
-0.54807,0.17062,0.81883,0.02206,-0.00311,0.01463
-0.54815,0.17072,0.81876,0.02469,0.00376,0.01758
-0.54815,0.17072,0.81876,0.03016,-0.00439,0.01487
-0.54815,0.17064,0.81878,0.02822,-0.00578,0.01222
-0.54796,0.17045,0.81894,0.01969,-0.01914,0.01167
-0.54758,0.17014,0.81926,0.00706,-0.04396,0.01275
-0.54721,0.16987,0.81956,0.00575,-0.05034,0.00881
-0.54688,0.16975,0.81981,-0.00942,-0.05855,0.00984
-0.54667,0.16984,0.81993,-0.00951,-0.05614,-0.00119
-0.54686,0.17006,0.81976,-0.00498,-0.04677,-0.0043
-0.54732,0.17031,0.8194,0.00214,-0.03242,-0.00386
-0.54778,0.17054,0.81905,0.00749,-0.01485,0.00771
-0.54803,0.17081,0.81882,0.00959,-0.01104,0.00997
-0.54822,0.17098,0.81866,0.01811,-0.00414,0.01186
-0.5484,0.17112,0.81851,0.02606,0.00204,0.01195
-0.54858,0.17116,0.81838,0.02657,0.00049,0.01409
-0.54854,0.17105,0.81843,0.02252,-0.00922,0.01177
-0.54827,0.17089,0.81864,0.0147,-0.03417,0.0121
-0.5479,0.17066,0.81894,0.00515,-0.04638,0.01025
-0.54753,0.17046,0.81923,0.00205,-0.05126,0.01036
-0.54728,0.17039,0.81941,-0.00392,-0.05599,0.00363
-0.54725,0.17045,0.81942,-0.00228,-0.05205,0.00274
-0.54744,0.17059,0.81926,-0.00196,-0.04289,0.0011
-0.54777,0.17082,0.81899,0.00246,-0.02863,0.00251
-0.54811,0.17104,0.81872,0.00871,-0.01373,0.00761
-0.54836,0.17127,0.8185,0.0113,-0.00788,0.01159
-0.54854,0.17141,0.81835,0.01854,-0.00289,0.01072
-0.54864,0.17145,0.81827,0.02517,-0.00309,0.0113
-0.54859,0.17144,0.81831,0.02334,-0.00971,0.01332
-0.54829,0.1713,0.81854,0.01754,-0.02658,0.01418
-0.54783,0.17113,0.81888,0.00979,-0.04556,0.01086
-0.54746,0.17102,0.81915,0.00448,-0.04791,0.01085
-0.54724,0.17101,0.81931,0.00234,-0.04961,0.00828
-0.54716,0.17111,0.81934,0.00283,-0.04382,0.00596
-0.54732,0.17132,0.81919,0.00472,-0.03793,0.00477
-0.54761,0.17153,0.81895,0.00178,-0.0232,0.00223
-0.54791,0.1717,0.81871,0.00953,-0.00785,0.00364
-0.5482,0.17184,0.81849,0.01303,-0.00567,0.00683
-0.54834,0.17181,0.81841,0.01948,-0.00622,0.01018
-0.54824,0.17169,0.81849,0.01922,-0.0164,0.01462
-0.54799,0.1715,0.8187,0.01344,-0.03017,0.01388
-0.54764,0.17133,0.81897,0.00667,-0.04504,0.01323
-0.54739,0.17123,0.81916,0.00549,-0.04725,0.00937
-0.54725,0.17125,0.81925,0.00105,-0.04594,0.00605
-0.54725,0.17132,0.81923,0.00329,-0.03399,0.00367
-0.54747,0.1715,0.81905,0.00737,-0.03008,0.00282
-0.5478,0.17162,0.8188,0.0101,-0.0182,0.00067
-0.54808,0.17164,0.81861,0.01489,-0.01306,0.01194
-0.54824,0.17164,0.8185,0.01609,-0.01374,0.01034
-0.54834,0.17158,0.81845,0.01558,-0.01525,0.00979
-0.54827,0.17148,0.81852,0.01258,-0.02467,0.01328
-0.54809,0.17133,0.81867,0.01231,-0.02891,0.01371
-0.54787,0.17121,0.81884,0.00969,-0.03457,0.01181
-0.54773,0.17118,0.81894,0.00364,-0.03832,0.00307
-0.5477,0.17122,0.81895,0.00432,-0.03927,0.00377
-0.54772,0.17124,0.81894,0.00379,-0.03884,0.00402
-0.54777,0.17127,0.81889,0.00871,-0.02785,0.00494
-0.5479,0.17132,0.8188,0.01158,-0.02746,0.00661
-0.54804,0.17133,0.8187,0.01215,-0.02286,0.00625
-0.54814,0.1713,0.81864,0.01267,-0.02036,0.0093
-0.54813,0.17131,0.81865,0.01466,-0.02116,0.00844
-0.54804,0.17132,0.81871,0.01342,-0.02285,0.01433
-0.54793,0.17133,0.81878,0.01166,-0.02248,0.01524
-0.5479,0.17136,0.81879,0.01511,-0.02867,0.00811
-0.54796,0.17138,0.81874,0.01128,-0.02948,0.00534
-0.54806,0.17139,0.81868,0.00835,-0.03107,0.00655
-0.54818,0.17139,0.81859,0.00682,-0.03014,0.0077
-0.54824,0.17137,0.81856,0.00605,-0.03013,0.00567
-0.54844,0.17138,0.81843,-0.00277,-0.03486,0.00221
-0.5487,0.17147,0.81823,-0.00284,-0.02746,0.00475
-0.54885,0.17168,0.81809,0.00181,-0.02805,0.00485
-0.549,0.17186,0.81795,0.00869,-0.02799,0.00778
-0.54901,0.17201,0.81791,0.0113,-0.02336,0.01224
-0.54886,0.17216,0.81798,0.01184,-0.01966,0.01363
-0.54884,0.17227,0.81797,0.01673,-0.01844,0.01496
-0.54903,0.17234,0.81783,0.02444,-0.02024,0.01674
-0.54925,0.17242,0.81766,0.02552,-0.02366,0.01928
-0.54949,0.17252,0.81748,0.02071,-0.0253,0.01774
-0.54973,0.17267,0.81729,0.01886,-0.03144,0.01032
-0.55007,0.17284,0.81702,0.01945,-0.03171,0.00865
-0.55042,0.17294,0.81676,0.01235,-0.03471,0.00414
-0.55073,0.17295,0.81656,0.00481,-0.0411,-0.0007
-0.551,0.17289,0.81639,-0.00023,-0.03947,-0.0037
-0.55121,0.17279,0.81626,-0.00721,-0.0332,-0.00099
-0.55136,0.17258,0.81621,-0.00784,-0.02994,-0.0014
-0.55136,0.17235,0.81626,-0.0022,-0.01617,3e-05
-0.55132,0.1722,0.81632,0.00362,-0.01856,0.00555
-0.55121,0.17216,0.8164,0.00851,-0.01782,0.00477
-0.551,0.17216,0.81654,0.00859,-0.02504,0.00553
-0.55059,0.17221,0.81681,0.00723,-0.0273,0.0142
-0.55007,0.17223,0.81715,0.00393,-0.02672,0.01556
-0.54968,0.17218,0.81743,0.0176,-0.03461,0.01329
-0.54939,0.17214,0.81763,0.02502,-0.04517,0.00988
-0.54914,0.17206,0.81782,0.01955,-0.04416,0.01246
-0.54873,0.17198,0.81811,0.01321,-0.03485,0.01758
-0.54849,0.17194,0.81828,0.01742,-0.02697,0.01597
-0.54848,0.172,0.81827,0.0194,-0.02386,0.01681
-0.54847,0.17208,0.81826,0.01821,-0.02016,0.01308
-0.54869,0.17228,0.81807,0.02548,-0.01374,0.01477
-0.54897,0.17252,0.81783,0.02381,-0.0109,0.01308
-0.54928,0.17275,0.81758,0.01969,-0.01285,0.01902
-0.54983,0.173,0.81715,0.01658,-0.01457,0.01064
-0.55069,0.17318,0.81654,0.01297,-0.01392,0.00738
-0.55149,0.17334,0.81597,0.00664,-0.01846,-0.00136
-0.5521,0.17336,0.81554,-0.00161,-0.03331,-0.00356
-0.55258,0.17322,0.81526,-0.00661,-0.03998,0.00297
-0.55284,0.1731,0.8151,-0.00796,-0.03741,0.00544
-0.55293,0.17304,0.81505,-0.00847,-0.03614,0.00111
-0.55303,0.17298,0.815,-0.01132,-0.0278,-0.00508
-0.55321,0.17291,0.81489,0.00193,-0.04353,-0.0007
-0.55306,0.17283,0.81501,0.01437,-0.04172,0.01107
-0.55269,0.17273,0.81528,0.01561,-0.03615,0.0171
-0.55237,0.17276,0.81549,0.01447,-0.02933,0.0153
-0.55232,0.17283,0.81551,0.02182,-0.02896,0.0144
-0.55237,0.17293,0.81546,0.02963,-0.02463,0.01645
-0.55239,0.17308,0.81541,0.02844,-0.02611,0.0149
-0.5524,0.17322,0.81537,0.01868,-0.02617,0.01643
-0.55237,0.1733,0.81538,0.00733,-0.0247,0.00948
-0.55244,0.17338,0.81532,0.01019,-0.02196,0.0035
-0.55261,0.17339,0.8152,0.00781,-0.02561,-0.00087
-0.55265,0.17328,0.81519,0.00518,-0.02963,0.00284
-0.55258,0.17314,0.81527,0.00347,-0.03108,0.00551
-0.55248,0.17301,0.81536,-0.00286,-0.02713,0.00757
-0.55259,0.17287,0.81532,-0.00113,-0.0309,0.00513
-0.55303,0.17275,0.81505,-0.00076,-0.02738,0.00258
-0.55388,0.17261,0.8145,-0.00208,-0.02848,0.01308
-0.55531,0.17259,0.81353,0.02759,-0.06839,0.00887
-0.55426,0.17282,0.81419,0.01544,0.0289,0.00813
-0.55442,0.17315,0.81402,0.0262,-0.04464,0.00446
-0.55419,0.17289,0.81423,0.0407,-0.05427,-0.00058
-0.5528,0.17229,0.81531,-0.00749,-0.02634,0.02132
-0.55243,0.17224,0.81556,0.02924,-0.03009,0.01522
-0.55296,0.17245,0.81516,0.03327,-0.0239,0.02674
-0.55298,0.17259,0.81512,0.03604,-0.02934,0.0212
-0.55305,0.17277,0.81503,0.01672,-0.04053,0.01653
-0.55346,0.17299,0.81471,0.00596,-0.04436,0.01522
-0.55397,0.17328,0.81429,0.00264,-0.03261,0.00196
-0.5547,0.17357,0.81374,-0.01443,-0.00301,-0.00498
-0.55643,0.17403,0.81246,-0.00608,-0.0227,-0.01305
-0.55909,0.17481,0.81046,-0.01071,-0.03075,-0.01011
-0.56182,0.17551,0.80842,0.01942,-0.02726,0.00454
-0.56235,0.17555,0.80805,0.01732,-0.01982,0.0114
-0.56146,0.17521,0.80874,0.00625,-0.01831,0.01699
-0.56056,0.17484,0.80944,-0.00977,-0.01492,0.00897
-0.56064,0.17483,0.80939,-0.00296,-0.01435,0.00557
-0.56173,0.17495,0.80861,0.01661,-0.03346,0.0007
-0.56284,0.17506,0.80781,0.02484,-0.04061,0.01929
-0.56328,0.17499,0.80751,0.01621,-0.03637,0.01069
-0.56303,0.17457,0.80778,0.01538,-0.02912,0.01039
-0.56291,0.17408,0.80797,0.02591,-0.02888,0.00097
-0.56312,0.17395,0.80785,0.01602,-0.02638,0.0218
-0.56377,0.17387,0.80742,0.01518,-0.03363,0.02333
-0.56486,0.17402,0.80663,0.02053,-0.04178,0.00982
-0.56645,0.17465,0.80537,0.02007,-0.02206,-0.00035
-0.56817,0.17539,0.804,0.00455,-0.02071,0.00841
-0.56922,0.17595,0.80313,-0.00773,-0.02245,0.00717
-0.56976,0.17602,0.80274,-0.00356,-0.01019,0.02406
-0.57027,0.17531,0.80253,0.01673,-0.03646,-0.00756
-0.57131,0.17503,0.80185,0.01753,-0.02697,0.00845
-0.57196,0.17483,0.80143,0.00696,-0.02431,0.01313
-0.5722,0.17438,0.80136,-0.00444,-0.02837,0.01475
-0.57213,0.17359,0.80158,0.02671,-0.04291,0.00877
-0.57139,0.17303,0.80222,0.0247,-0.03088,0.00516
-0.57078,0.17281,0.80271,0.01876,-0.02798,0.00675
-0.57063,0.17286,0.8028,0.01236,-0.02369,0.01238
-0.57065,0.17288,0.80278,0.00641,-0.02873,0.01356
-0.57098,0.17284,0.80256,0.01265,-0.02692,0.01328
-0.5717,0.17282,0.80205,0.02125,-0.03656,0.01112
-0.57229,0.17286,0.80163,0.01816,-0.0297,0.00985
-0.57264,0.17299,0.80135,0.01297,-0.03085,0.00885
-0.57276,0.17307,0.80124,0.00475,-0.02935,0.00622
-0.57271,0.17314,0.80127,0.00119,-0.02681,0.00852
-0.57263,0.17313,0.80132,0.00053,-0.02045,0.00835
-0.57274,0.17312,0.80125,0.01132,-0.02929,0.00657
-0.57298,0.17326,0.80104,0.01201,-0.03132,0.00601
-0.57317,0.17342,0.80087,0.00964,-0.0291,0.00643
-0.57324,0.17354,0.8008,0.00834,-0.02675,0.01091
-0.57332,0.17365,0.80071,0.01321,-0.0272,0.01017
-0.57352,0.17379,0.80054,0.01648,-0.03603,0.00793
-0.57361,0.17385,0.80047,0.01181,-0.03035,0.01493
-0.57349,0.17388,0.80055,0.01307,-0.02661,0.01636
-0.57342,0.17389,0.80059,0.00813,-0.02446,0.01223
-0.5736,0.17396,0.80045,0.01289,-0.02836,0.00967
-0.57364,0.17403,0.80041,0.01666,-0.03017,0.01074
-0.57356,0.174,0.80047,0.01263,-0.02592,0.00716
-0.57322,0.17388,0.80074,0.01342,-0.03221,0.00962
-0.57247,0.17364,0.80132,0.01229,-0.03288,0.01226
-0.5711,0.17315,0.80241,0.01754,-0.03562,0.00384
-0.56984,0.17266,0.80341,0.01185,-0.0308,0.00644
-0.56871,0.1723,0.80428,0.00597,-0.02478,0.01594
-0.56741,0.1719,0.80529,0.00473,-0.02962,0.01787
-0.5659,0.17134,0.80647,0.01566,-0.01571,0.0122
-0.56429,0.17089,0.80769,0.00562,-0.01576,0.01199
-0.56304,0.17059,0.80863,0.00376,-0.02375,0.01142
-0.56255,0.17047,0.809,0.00362,-0.02615,0.00863
-0.56232,0.1704,0.80917,0.0099,-0.03401,0.00548
-0.56217,0.1703,0.80929,0.00832,-0.03986,0.00858
-0.56206,0.17021,0.80939,0.005,-0.03979,0.00671
-0.56192,0.17015,0.8095,0.0065,-0.03308,0.00761
-0.5618,0.17011,0.80959,0.00883,-0.03123,0.00752
-0.56176,0.17013,0.80961,0.01217,-0.02829,0.01027
-0.56171,0.17011,0.80966,0.01647,-0.02246,0.01538
-0.56163,0.17016,0.8097,0.01886,-0.02237,0.01511
-0.56159,0.17024,0.80971,0.01926,-0.02051,0.01377
-0.56158,0.17031,0.8097,0.01809,-0.02143,0.0123
-0.56157,0.17034,0.80971,0.01654,-0.02555,0.01145
-0.56151,0.17033,0.80975,0.01256,-0.02754,0.00974
-0.56142,0.1703,0.80981,0.00852,-0.02849,0.00777
-0.56142,0.17025,0.80983,0.01151,-0.02909,0.00646
-0.56148,0.17016,0.80981,0.00655,-0.03039,0.00755
-0.56154,0.17008,0.80978,0.00734,-0.03249,0.01053
-0.56156,0.17007,0.80977,0.00751,-0.03225,0.01064
-0.56156,0.17009,0.80976,0.00448,-0.03009,0.00662
-0.56157,0.17013,0.80975,0.0065,-0.02548,0.00963
-0.5616,0.17024,0.8097,0.01569,-0.02728,0.0076
-0.5616,0.17032,0.80969,0.01349,-0.03392,0.00791
-0.56149,0.17036,0.80975,0.01294,-0.03439,0.01057
-0.56138,0.17035,0.80983,0.01232,-0.03644,0.01185
-0.56131,0.17032,0.80989,0.01161,-0.03801,0.00961
-0.56128,0.17033,0.80991,0.01024,-0.03752,0.00806
-0.56131,0.17035,0.80989,0.00913,-0.0332,0.00672
-0.56138,0.17038,0.80983,0.01189,-0.02959,0.00745
-0.56142,0.17046,0.80979,0.01115,-0.02732,0.01059
-0.56135,0.17054,0.80981,0.01546,-0.03029,0.01099
-0.56129,0.17058,0.80985,0.01434,-0.02477,0.01105
-0.56123,0.17065,0.80987,0.01394,-0.02832,0.01415
-0.56112,0.17074,0.80993,0.01227,-0.02503,0.01197
-0.561,0.1708,0.81,0.00735,-0.02671,0.00701
-0.56095,0.17083,0.81003,0.0095,-0.02273,0.00689
-0.56085,0.17085,0.81009,0.01079,-0.0229,0.00523
-0.56065,0.17081,0.81024,0.00574,-0.02921,0.0089
-0.56037,0.17067,0.81047,0.00302,-0.03061,0.00865
-0.5601,0.1705,0.81069,0.00808,-0.03262,0.00717
-0.55995,0.1704,0.81081,-0.00581,-0.04772,-0.01063
-0.56011,0.17074,0.81063,0.01043,-0.02593,0.01565
-0.56046,0.17116,0.8103,0.00253,-0.02933,0.01883
-0.5604,0.17113,0.81035,0.01204,-0.02074,0.00813
-0.56011,0.17118,0.81054,0.02104,-0.01997,0.00134
-0.56007,0.17114,0.81058,0.02731,-0.02668,0.00485
-0.55992,0.17103,0.81071,0.0178,-0.02521,0.01989
-0.55952,0.17106,0.81098,0.02672,-0.04136,0.01298
-0.5588,0.17138,0.8114,0.02247,-0.02101,0.02304
-0.55858,0.17144,0.81154,0.01924,-0.02078,0.01913
-0.55872,0.17138,0.81146,0.01334,-0.03569,0.01711
-0.55878,0.17133,0.81142,0.01302,-0.0389,0.01113
-0.55873,0.17152,0.81142,0.0173,-0.03821,0.00689
-0.55874,0.17178,0.81136,0.01253,-0.03406,0.0043
-0.55859,0.17201,0.81141,0.00594,-0.03547,0.007
-0.55836,0.17225,0.81151,0.00233,-0.03118,0.00701
-0.55836,0.17248,0.81147,0.00337,-0.02337,0.00796
-0.55859,0.17265,0.81127,0.00476,-0.02382,0.00559
-0.55881,0.17275,0.8111,0.00477,-0.02398,0.00384
-0.55879,0.17287,0.81109,-0.00052,-0.019,0.00266
-0.55865,0.17303,0.81115,-0.00063,-0.0205,0.00524
-0.5586,0.17314,0.81116,0.00469,-0.02155,0.01016
-0.55873,0.17317,0.81107,0.01508,-0.02644,0.0095
-0.55896,0.17311,0.81092,0.01549,-0.02907,0.00701
-0.55904,0.17303,0.81089,0.01457,-0.03074,0.00802
-0.55897,0.1729,0.81096,0.00937,-0.03893,0.01339
-0.55903,0.17275,0.81095,0.01492,-0.04116,0.00922
-0.55906,0.17265,0.81095,0.01653,-0.0344,0.0098
-0.55897,0.17274,0.811,0.01599,-0.03066,0.01426
-0.55889,0.17283,0.81103,0.01453,-0.02699,0.01221
-0.55874,0.17285,0.81113,0.01185,-0.02722,0.00691
-0.55847,0.17289,0.81131,0.01133,-0.02715,0.00795
-0.55819,0.17291,0.81149,0.01094,-0.02732,0.01137
-0.55789,0.17292,0.8117,0.01349,-0.02924,0.01391
-0.55768,0.17298,0.81183,0.01421,-0.0283,0.01239
-0.5576,0.17304,0.81187,0.0148,-0.03098,0.00689
-0.55754,0.17303,0.81192,0.01254,-0.03219,0.01041
-0.55756,0.17297,0.81191,0.01342,-0.03341,0.00738
-0.55757,0.17293,0.81192,0.01263,-0.03165,0.00881
-0.55754,0.17292,0.81194,0.01181,-0.03007,0.00904
-0.55759,0.17287,0.81191,0.0084,-0.03321,0.00619
-0.55774,0.17278,0.81183,0.00859,-0.03219,0.01086
-0.55791,0.17266,0.81174,0.00173,-0.02859,0.00819
-0.55809,0.17257,0.81163,0.00086,-0.02552,0.00569
-0.55851,0.17238,0.81139,-9e-05,-0.02891,0.00369
-0.5591,0.17204,0.81105,0.01047,-0.03177,0.00271
-0.55902,0.17189,0.81114,0.00734,-0.02081,0.00696
-0.55879,0.17203,0.81127,0.01199,-0.01395,0.01463
-0.55869,0.17215,0.81131,0.01423,-0.02226,0.00931
-0.55858,0.17225,0.81137,0.02239,-0.03174,0.0151
-0.55859,0.17223,0.81136,0.02022,-0.03115,0.0094
-0.55848,0.17218,0.81145,0.02319,-0.03381,0.01519
-0.55831,0.17216,0.81158,0.02466,-0.03577,0.02053
-0.55826,0.17213,0.81161,0.0273,-0.04552,0.01171
-0.55824,0.17197,0.81166,0.01759,-0.05224,0.00368
-0.55815,0.17174,0.81177,0.00316,-0.04982,0.01088
-0.55818,0.17171,0.81176,0.00377,-0.03818,0.01045
-0.55837,0.17185,0.8116,0.00803,-0.02182,0.00502
-0.55871,0.17204,0.81132,0.00302,-0.00824,0.00235
-0.55902,0.17225,0.81106,0.00163,-0.0051,0.00043
-0.55903,0.17247,0.81101,-0.00013,-0.007,0.00468
-0.55897,0.17262,0.81102,0.00656,-0.02342,0.00757
-0.55893,0.17271,0.81103,0.0058,-0.02645,0.01172
-0.55888,0.17261,0.81109,0.00568,-0.04085,0.00834
-0.55857,0.17243,0.81133,0.07717,-0.11841,-0.01444
-0.55557,0.17263,0.81335,0.05996,-0.06979,-0.05041
-0.54948,0.17321,0.81735,-0.10843,0.09904,0.05171
-0.55065,0.17193,0.81684,0.00524,-0.07319,0.0437
-0.55283,0.17096,0.81556,0.03567,-0.09862,0.02628
-0.55386,0.17146,0.81476,0.04736,-0.0428,0.00439
-0.55353,0.17237,0.8148,0.04252,-0.03393,0.01855
-0.55238,0.17282,0.81548,0.00114,-0.01005,0.02795
-0.55133,0.17278,0.8162,0.01543,-0.02256,0.01141
-0.5518,0.17287,0.81586,0.02482,-0.02582,0.01048
-0.55279,0.1731,0.81515,0.03034,-0.03,0.0129
-0.55309,0.17315,0.81493,0.02804,-0.02834,0.0072
-0.55277,0.17299,0.81518,0.02237,-0.02757,0.00834
-0.55227,0.17275,0.81558,0.00827,-0.02676,0.01266
-0.55197,0.17261,0.81581,0.00186,-0.03424,0.01147
-0.55211,0.17265,0.8157,-0.00014,-0.04017,0.00916
-0.55241,0.17276,0.81547,-0.00194,-0.04207,0.00185
-0.55254,0.17282,0.81537,-0.00578,-0.03501,-0.00257
-0.55262,0.17292,0.8153,-0.00327,-0.03002,4e-05
-0.5529,0.17304,0.81508,0.00276,-0.025,0.00258
-0.55324,0.17314,0.81483,0.01904,-0.02205,0.00527
-0.55342,0.17322,0.81469,0.01932,-0.02336,0.00637
-0.55345,0.17313,0.81469,0.01741,-0.02264,0.00833
-0.55326,0.17301,0.81484,0.0165,-0.0278,0.01519
-0.55296,0.17288,0.81508,0.01637,-0.02957,0.01831
-0.55269,0.17273,0.81529,0.01494,-0.03635,0.01552
-0.55252,0.17261,0.81543,0.01426,-0.04157,0.01274
-0.55246,0.17257,0.81548,0.01068,-0.03865,0.00704
-0.55244,0.17261,0.81548,0.01023,-0.03798,0.0076
-0.5524,0.1727,0.81549,0.00844,-0.03621,0.00814
-0.55244,0.17283,0.81544,0.0112,-0.0336,0.0081
-0.55261,0.17299,0.81529,0.00889,-0.03017,0.00626
-0.55277,0.17318,0.81514,0.00621,-0.0228,0.00897
-0.55317,0.1734,0.81482,0.00629,-0.02257,0.01295
-0.55391,0.17357,0.81428,0.01672,-0.03386,0.00745
-0.55449,0.17375,0.81385,0.01569,-0.03802,0.00938
-0.55486,0.17393,0.81356,0.0136,-0.03561,0.00915
-0.5551,0.17403,0.81337,0.01575,-0.03823,0.01469
-0.55537,0.17401,0.81319,0.01658,-0.03656,0.00907
-0.5555,0.17403,0.8131,0.01263,-0.03399,0.00862
-0.55547,0.17413,0.8131,0.0119,-0.03108,0.00802
-0.55534,0.17416,0.81318,0.00896,-0.03663,0.00883
-0.55511,0.17424,0.81332,0.01138,-0.02168,0.0074
-0.55483,0.17429,0.8135,0.01442,-0.01717,0.00762
-0.55453,0.17425,0.81372,0.01435,-0.01473,0.01044
-0.55423,0.17405,0.81396,0.01884,-0.02748,0.01306
-0.55388,0.17382,0.81425,0.01737,-0.0272,0.01461
-0.55358,0.1736,0.8145,0.01776,-0.03264,0.01407
-0.55331,0.17337,0.81473,0.01379,-0.03771,0.0133
-0.5531,0.17315,0.81492,0.01195,-0.03637,0.01349
-0.55296,0.17302,0.81505,0.0106,-0.03976,0.00818
-0.55299,0.17302,0.81502,0.01098,-0.03685,0.0079
-0.5531,0.17305,0.81495,0.00776,-0.03351,0.0037
-0.55321,0.17307,0.81486,0.00455,-0.02703,0.00511
-0.55327,0.17309,0.81482,0.00487,-0.02507,0.0072
-0.55329,0.17313,0.8148,0.00384,-0.02123,0.00692
-0.55362,0.17315,0.81457,0.01327,-0.03318,0.00446
-0.55406,0.17314,0.81427,0.01468,-0.03875,0.00482
-0.55415,0.1731,0.81422,0.00654,-0.03719,0.00988
-0.55406,0.17316,0.81427,0.00247,-0.02953,0.00719
-0.55434,0.17322,0.81406,0.00505,-0.03144,0.00718
-0.55489,0.17307,0.81372,0.00922,-0.03748,0.01093
-0.55537,0.17293,0.81343,0.02404,-0.03752,0.00615
-0.55517,0.17296,0.81355,0.01567,-0.03549,0.00839
-0.55466,0.17307,0.81388,0.01109,-0.03195,0.01827
-0.55462,0.17316,0.81389,0.01865,-0.02262,0.0168
-0.55485,0.17343,0.81367,0.02165,-0.02266,0.01288
-0.55512,0.17366,0.81344,0.02207,-0.02888,0.00523
-0.55513,0.17366,0.81343,0.00928,-0.03655,-0.00398
-0.55491,0.17346,0.81362,0.00665,-0.03961,-0.00028
-0.55459,0.1731,0.81392,0.00788,-0.05264,0.01144
-0.55435,0.17288,0.81413,0.01282,-0.04473,0.0298
-0.55444,0.17302,0.81404,0.01492,-0.04068,0.02401
-0.55491,0.17346,0.81363,0.009,-0.03302,0.01627
-0.55545,0.17405,0.81313,0.00079,-0.02005,0.00385
-0.5559,0.17471,0.81268,-0.00614,-0.00458,-0.00572
-0.55625,0.1752,0.81234,-0.00578,-0.00017,-0.00361
-0.55641,0.17535,0.8122,0.00167,-0.01203,-0.00116
-0.55644,0.17535,0.81217,0.01205,-0.04391,-6e-05
-0.55628,0.17524,0.81231,0.01328,-0.0484,0.00514
-0.55586,0.17499,0.81265,0.01558,-0.05065,0.01217
-0.55545,0.17467,0.813,0.0269,-0.04809,0.02601
-0.55537,0.17442,0.81311,0.03133,-0.04374,0.03058
-0.55556,0.17444,0.81297,0.03222,-0.02733,0.02721
-0.55603,0.17467,0.8126,0.02398,-0.01883,0.01375
-0.55666,0.17497,0.81211,0.02045,-0.02057,0.0085
-0.55719,0.17518,0.8117,0.00905,-0.02103,0.0044
-0.55759,0.1753,0.81139,0.00048,-0.01906,-0.0006
-0.55796,0.17533,0.81114,0.00179,-0.02349,1e-05
-0.55812,0.17531,0.81103,-0.00118,-0.02319,-0.00044
-0.55807,0.17514,0.8111,-0.00066,-0.04868,-0.00289
-0.55778,0.17483,0.81136,-0.0008,-0.05883,-0.00279
-0.55731,0.17447,0.81177,-0.00345,-0.06949,-0.00061
-0.55678,0.17418,0.8122,0.004,-0.0564,0.0121
-0.55622,0.17406,0.8126,0.01542,-0.03575,0.02054
-0.55571,0.1741,0.81294,0.03252,-0.02944,0.02332
-0.55539,0.17445,0.81309,0.0336,-0.03385,0.0261
-0.55538,0.17498,0.81298,0.0308,-0.02338,0.02841
-0.5556,0.17567,0.81268,0.02699,-0.00843,0.00977
-0.55597,0.17624,0.8123,0.02753,-0.01373,0.00281
-0.55632,0.17649,0.81201,0.00975,-0.02728,-0.00123
-0.55652,0.1766,0.81185,-0.0068,-0.02888,0.00234
-0.55658,0.17663,0.8118,-0.00788,-0.02373,0.00013
-0.55645,0.17652,0.81191,-0.00933,-0.02335,-0.00523
-0.55629,0.17622,0.81209,0.00133,-0.03257,-0.0023
-0.556,0.17583,0.81237,0.00326,-0.03351,0.00081
-0.5554,0.17541,0.81287,0.0106,-0.03515,0.00703
-0.55462,0.17504,0.81349,0.03222,-0.03539,0.02361
-0.55402,0.17474,0.81396,0.03357,-0.04183,0.02706
-0.55374,0.17461,0.81418,0.02958,-0.04598,0.03092
-0.55361,0.17477,0.81423,0.02236,-0.03551,0.01786
-0.5537,0.17508,0.8141,0.02125,-0.03627,0.01624
-0.55392,0.17537,0.81389,0.0173,-0.03522,0.00906
-0.55409,0.17556,0.81373,0.00696,-0.01663,0.00475
-0.55426,0.17564,0.8136,0.00604,-0.01765,0.00064
-0.55431,0.17567,0.81356,0.00698,-0.03339,0.0004
-0.55421,0.17564,0.81363,0.0063,-0.04642,0.00385
-0.554,0.17556,0.8138,7e-05,-0.04935,0.00838
-0.55378,0.17545,0.81397,0.00276,-0.04635,0.00862
-0.55367,0.17542,0.81405,0.00455,-0.04258,0.00791
-0.55368,0.17547,0.81403,0.00469,-0.0349,0.00792
-0.55376,0.17556,0.81396,0.00528,-0.02779,0.00806
-0.55378,0.17572,0.81391,0.00765,-0.0213,0.00886
-0.55372,0.17587,0.81392,0.01605,-0.01567,0.01122
-0.55365,0.17597,0.81395,0.01924,-0.01682,0.01298
-0.5536,0.17596,0.81398,0.0238,-0.01054,0.01445
-0.55355,0.17587,0.81403,0.02622,-0.01689,0.01542
-0.55349,0.17567,0.81412,0.02642,-0.02089,0.01642
-0.55338,0.17542,0.81424,0.02523,-0.03469,0.01594
-0.55332,0.17516,0.81435,0.01628,-0.0457,0.01549
-0.55342,0.17494,0.81432,0.01118,-0.04933,0.01316
-0.55357,0.17483,0.81425,0.00475,-0.05749,0.00471
-0.55359,0.17475,0.81425,-0.01038,-0.05811,0.00689
-0.55357,0.17477,0.81426,-0.00748,-0.05012,0.0052
-0.55371,0.1749,0.81414,-0.00028,-0.03247,0.00405
-0.55395,0.17508,0.81393,0.01086,-0.02553,0.00501
-0.55403,0.17535,0.81382,0.01232,-0.02202,0.00884
-0.55406,0.17546,0.81377,0.01924,-0.03041,0.01232
-0.55407,0.17555,0.81375,0.0186,-0.03352,0.01442
-0.55409,0.17566,0.81371,0.01673,-0.02823,0.01545
-0.55416,0.17575,0.81365,0.01998,-0.02321,0.01401
-0.55427,0.17578,0.81356,0.02002,-0.02545,0.01395
-0.55436,0.1757,0.81352,0.01746,-0.02774,0.01016
-0.55439,0.17556,0.81353,0.00982,-0.03278,0.00791
-0.55445,0.17545,0.81351,0.01012,-0.03295,0.00843
-0.55457,0.17537,0.81344,0.00941,-0.03464,0.01081
-0.55466,0.17534,0.8134,0.00494,-0.03313,0.00899
-0.55471,0.17535,0.81336,0.00509,-0.03326,0.00656
-0.55479,0.17534,0.8133,0.0101,-0.03588,0.00432
-0.55479,0.17528,0.81332,0.00791,-0.04189,0.00837
-0.55468,0.1752,0.81341,0.00782,-0.0399,0.00873
-0.55458,0.17512,0.81349,0.01017,-0.04019,0.0101
-0.55463,0.1751,0.81346,0.01696,-0.03624,0.01169
-0.5547,0.17516,0.8134,0.01777,-0.03763,0.01217
-0.55472,0.17524,0.81337,0.01593,-0.03607,0.01274
-0.55471,0.17532,0.81336,0.01495,-0.03451,0.01037
-0.55478,0.17542,0.81329,0.01413,-0.032,0.01221
-0.55488,0.17554,0.8132,0.01555,-0.02538,0.01166
-0.555,0.17563,0.8131,0.01628,-0.02686,0.00841
-0.5551,0.17565,0.81303,0.01259,-0.02802,0.00928
-0.55508,0.17558,0.81306,0.00956,-0.02891,0.01103
-0.55504,0.17552,0.81309,0.00992,-0.03361,0.00884
-0.55507,0.17552,0.81307,0.01124,-0.03374,0.01054
-0.55504,0.17553,0.81309,0.01059,-0.03488,0.01158
-0.55497,0.17552,0.81314,0.00648,-0.03844,0.00694
-0.55495,0.17546,0.81317,0.00841,-0.04373,0.00632
-0.55495,0.17544,0.81317,0.00896,-0.04081,0.01103
-0.55497,0.17551,0.81315,0.01088,-0.03736,0.01323
-0.55499,0.17554,0.81313,0.0093,-0.03371,0.00905
-0.55501,0.17559,0.8131,0.0077,-0.03365,0.00961
-0.55506,0.17563,0.81306,0.01172,-0.03476,0.01104
-0.55513,0.17565,0.81301,0.01556,-0.02928,0.00935
-0.55522,0.17571,0.81293,0.01664,-0.03286,0.00923
-0.55525,0.17576,0.8129,0.01439,-0.03259,0.01199
-0.55516,0.17579,0.81296,0.01382,-0.03087,0.01241
-0.55506,0.17577,0.81302,0.0137,-0.03354,0.01098
-0.55504,0.17583,0.81303,0.01422,-0.03461,0.01468
-0.55503,0.17595,0.813,0.00811,-0.02935,0.0101
-0.55512,0.17609,0.81292,0.00864,-0.02542,0.00761
-0.55535,0.17616,0.81274,0.00641,-0.02829,0.00532
-0.55553,0.17622,0.81261,0.00815,-0.02856,-3e-05
-0.55556,0.17612,0.81261,0.0116,-0.03641,0.0007
-0.55544,0.17577,0.81277,0.00974,-0.05279,0.01992
-0.55502,0.17539,0.81313,0.01387,-0.04835,0.02538
-0.55445,0.17522,0.81356,0.01743,-0.03725,0.02553
-0.55417,0.17528,0.81374,0.02149,-0.03278,0.01675
-0.5543,0.17562,0.81358,0.02457,-0.03245,0.01238
-0.55456,0.17609,0.8133,0.01993,-0.02828,0.00376
-0.55467,0.17651,0.81313,0.00949,-0.03135,0.00687
-0.55476,0.17673,0.81302,0.00636,-0.03514,0.00729
-0.55491,0.1768,0.81291,0.00805,-0.0364,0.00833
-0.55504,0.17674,0.81283,0.0071,-0.04132,0.00837
-0.55505,0.17658,0.81286,0.00618,-0.04105,0.00747
-0.55503,0.17641,0.81291,0.00717,-0.0393,0.01092
-0.55502,0.17636,0.81293,0.01161,-0.02671,0.00884
-0.55501,0.17638,0.81293,0.0116,-0.03014,0.00947
-0.55496,0.17638,0.81297,0.01171,-0.03057,0.00912
-0.55486,0.17641,0.81303,0.0118,-0.03712,0.00962
-0.55473,0.17649,0.8131,0.01173,-0.03783,0.01147
-0.55461,0.17655,0.81316,0.01375,-0.03489,0.01229
-0.55454,0.1766,0.8132,0.01605,-0.04383,0.01119
-0.5545,0.17666,0.81322,0.01735,-0.03891,0.01242
-0.55446,0.17671,0.81323,0.01612,-0.04052,0.01097
-0.55447,0.17672,0.81322,0.01618,-0.03598,0.01477
-0.5545,0.17676,0.81319,0.01417,-0.02818,0.01319
-0.5546,0.17677,0.81312,0.01419,-0.029,0.00911
-0.55466,0.17672,0.81309,0.01373,-0.03011,0.00865
-0.5546,0.17666,0.81315,0.01209,-0.03285,0.01072
-0.55453,0.17661,0.81321,0.00656,-0.03397,0.00944
-0.55449,0.17655,0.81325,0.00973,-0.04026,0.00672
-0.55444,0.17648,0.81329,0.01027,-0.04375,0.00977
-0.55436,0.17645,0.81336,0.01081,-0.0448,0.01297
-0.55432,0.17651,0.81337,0.01009,-0.04288,0.01015
-0.55434,0.17664,0.81333,0.01458,-0.03468,0.01075
-0.55435,0.17677,0.81329,0.01781,-0.03154,0.00961
-0.55434,0.17685,0.81329,0.02127,-0.03517,0.00927
-0.55422,0.17694,0.81335,0.01093,-0.03238,0.01582
-0.55407,0.17704,0.81343,0.00847,-0.03477,0.01386
-0.55408,0.17713,0.8134,0.00925,-0.02964,0.01132
-0.5542,0.17721,0.8133,0.00938,-0.02455,0.00898
-0.55425,0.1773,0.81325,0.00657,-0.02509,0.00644
-0.55421,0.17729,0.81328,0.00402,-0.02722,0.00261
-0.55416,0.1772,0.81333,0.0033,-0.03697,0.00053
-0.55411,0.17707,0.81339,0.00503,-0.04079,0.00247
-0.554,0.17686,0.81351,0.00702,-0.04118,0.00996
-0.5539,0.1767,0.81362,0.00861,-0.04213,0.01298
-0.55374,0.17656,0.81375,0.01709,-0.04084,0.01693
-0.55352,0.17647,0.81392,0.01943,-0.03866,0.01876
-0.55334,0.17651,0.81404,0.0188,-0.03799,0.01706
-0.55334,0.17658,0.81402,0.02184,-0.04157,0.01463
-0.55345,0.17671,0.81392,0.03389,-0.03146,0.02252
-0.55365,0.17693,0.81373,0.03467,-0.02285,0.02481
-0.55401,0.17727,0.81342,0.03344,-0.01696,0.02309
-0.55456,0.17759,0.81297,0.01989,-0.02978,0.01238
-0.55525,0.17789,0.81244,0.01533,-0.03137,0.00917
-0.55594,0.17807,0.81192,0.00948,-0.03567,0.00293
-0.55648,0.17815,0.81154,0.00283,-0.0277,-0.00217
-0.55685,0.17809,0.8113,0.00288,-0.02906,-0.0
-0.55709,0.17792,0.81117,0.00495,-0.03584,-0.00098
-0.55715,0.17763,0.81119,-0.00313,-0.04931,0.00741
-0.55694,0.17739,0.81139,-0.00161,-0.04893,0.00999
-0.5566,0.17722,0.81166,-0.00079,-0.05176,0.01106
-0.55627,0.17716,0.8119,0.00146,-0.04674,0.00507
-0.55601,0.17721,0.81206,0.00241,-0.04916,0.00225
-0.5558,0.1774,0.81217,0.00299,-0.04438,0.00251
-0.55546,0.17758,0.81236,0.01167,-0.03671,0.00959
-0.55511,0.17774,0.81256,0.01953,-0.03576,0.01112
-0.55481,0.17786,0.81274,0.02765,-0.03307,0.01593
-0.55453,0.17794,0.81291,0.02827,-0.03335,0.01942
-0.55433,0.17798,0.81304,0.02841,-0.03043,0.02467
-0.55426,0.17796,0.8131,0.02912,-0.02497,0.0209
-0.5543,0.1779,0.81308,0.03024,-0.03024,0.02182
-0.55432,0.17786,0.81308,0.0229,-0.03415,0.01836
-0.55436,0.17782,0.81306,0.01023,-0.03701,0.01139
-0.55453,0.1778,0.81295,0.00635,-0.03411,0.00437
-0.55466,0.17778,0.81286,0.00135,-0.03429,0.00503
-0.55472,0.17778,0.81282,-0.00037,-0.03596,0.00335
-0.55478,0.17772,0.81279,-0.00129,-0.04136,0.00517
-0.55485,0.17764,0.81276,0.00112,-0.03412,0.00552
-0.55485,0.17763,0.81277,0.00182,-0.03433,0.0053
-0.55493,0.17763,0.81271,0.00584,-0.03052,0.00673
-0.55496,0.1776,0.8127,0.01672,-0.03485,0.01287
-0.55489,0.17762,0.81274,0.01712,-0.03425,0.01436
-0.55476,0.17759,0.81284,0.02267,-0.03051,0.01613
-0.55466,0.17755,0.81291,0.0217,-0.04091,0.02065
-0.55463,0.1776,0.81292,0.02385,-0.04105,0.02104
-0.5547,0.17769,0.81286,0.02653,-0.03508,0.01249
-0.55481,0.17771,0.81277,0.01746,-0.04054,0.0134
-0.55481,0.17776,0.81277,0.01233,-0.03918,0.01511
-0.55478,0.17779,0.81278,0.00774,-0.03142,0.00686
-0.55497,0.17786,0.81263,0.00848,-0.03185,0.00467
-0.55522,0.17787,0.81246,0.00892,-0.03627,0.00202
-0.55531,0.17778,0.81242,0.00189,-0.04509,0.00909
-0.5552,0.1776,0.81253,0.00037,-0.04681,0.00975
-0.55499,0.17743,0.81271,0.00584,-0.04575,0.01266
-0.55489,0.17739,0.81279,0.0117,-0.03916,0.00963
-0.55485,0.17749,0.81279,0.01457,-0.03751,0.01281
-0.55468,0.17758,0.81289,0.01468,-0.03517,0.00846
-0.55446,0.17763,0.81303,0.01453,-0.03499,0.00827
-0.55431,0.17773,0.81311,0.01765,-0.03625,0.01309
-0.55417,0.17781,0.81319,0.01569,-0.03825,0.01806
-0.55406,0.17788,0.81325,0.02094,-0.02133,0.01587
-0.55414,0.17795,0.81318,0.02225,-0.02551,0.0092
-0.55435,0.17794,0.81304,0.01788,-0.03424,0.01087
-0.55433,0.17788,0.81307,0.00786,-0.02838,0.01265
-0.55417,0.17783,0.81319,0.00676,-0.02965,0.01405
-0.5541,0.17775,0.81325,0.01037,-0.03635,0.01047
-0.5541,0.17774,0.81325,0.009,-0.03452,0.01135
-0.55411,0.17779,0.81324,0.00649,-0.03175,0.01225
-0.55409,0.1778,0.81325,0.00541,-0.03481,0.00816
-0.55405,0.17775,0.81328,0.00901,-0.04286,0.00523
-0.55402,0.17769,0.81332,0.01035,-0.04597,0.00682
-0.55387,0.17767,0.81343,0.01049,-0.04665,0.01047
-0.5537,0.1777,0.81354,0.01317,-0.04524,0.01312
-0.55363,0.17782,0.81356,0.01106,-0.04197,0.01503
-0.55369,0.17799,0.81348,0.01419,-0.04112,0.01375
-0.5538,0.17822,0.81335,0.01161,-0.03613,0.01104
-0.5539,0.17845,0.81323,0.01512,-0.02712,0.01035
-0.55395,0.17862,0.81317,0.01398,-0.02089,0.00834
-0.55392,0.17867,0.81317,0.01394,-0.01528,0.0049
-0.55391,0.17854,0.81321,0.02168,-0.04528,0.01301
-0.55383,0.17832,0.81331,0.02088,-0.05026,0.01902
-0.55366,0.17815,0.81346,0.01551,-0.04651,0.02481
-0.55369,0.17814,0.81344,0.01657,-0.03654,0.01509
-0.55405,0.1783,0.81316,0.01717,-0.03583,0.0125
-0.55446,0.17851,0.81284,0.01865,-0.03737,0.00584
-0.55471,0.17858,0.81266,0.00566,-0.05447,0.00764
-0.55476,0.1786,0.81262,0.00015,-0.05737,0.01101
-0.55477,0.17864,0.8126,0.00189,-0.04571,0.01351
-0.55503,0.17879,0.81239,0.00695,-0.04152,0.00713
-0.5554,0.17898,0.8121,0.00639,-0.03801,0.00111
-0.55561,0.17911,0.81192,0.00477,-0.03098,-0.00096
-0.55559,0.1791,0.81194,0.00623,-0.02567,0.00758
-0.55542,0.17905,0.81207,0.00804,-0.02562,0.01299
-0.55527,0.179,0.81218,0.01362,-0.02841,0.01437
-0.55521,0.17892,0.81224,0.01718,-0.03189,0.01108
-0.55506,0.17877,0.81237,0.01839,-0.03311,0.01288
-0.55483,0.17862,0.81256,0.01897,-0.0369,0.02131
-0.55468,0.17859,0.81267,0.02195,-0.03937,0.01714
-0.55469,0.17855,0.81267,0.02306,-0.04184,0.0114
-0.5547,0.17844,0.81269,0.02438,-0.05578,0.01389
-0.55461,0.17838,0.81277,0.01858,-0.0463,0.02363
-0.55467,0.17847,0.81271,0.01434,-0.03404,0.01513
-0.55513,0.1786,0.81236,0.01291,-0.02729,0.00594
-0.55572,0.17873,0.81193,0.01159,-0.02895,0.00335
-0.55611,0.17876,0.81165,0.00414,-0.03399,0.00398
-0.55631,0.17876,0.81152,-0.00381,-0.03661,0.00241
-0.55643,0.17871,0.81145,-0.00178,-0.03717,-0.00142
-0.5566,0.17851,0.81138,0.00667,-0.04362,0.00466
-0.55666,0.17829,0.81138,0.0151,-0.04659,0.01946
-0.55646,0.17825,0.81153,0.01522,-0.04492,0.02177
-0.55619,0.17836,0.81169,0.01337,-0.03654,0.01976
-0.55612,0.17854,0.8117,0.02004,-0.03854,0.00854
-0.55622,0.17873,0.81159,0.02024,-0.03936,0.00947
-0.55622,0.17889,0.81155,0.02122,-0.03756,0.011
-0.55614,0.17896,0.81159,0.01932,-0.03352,0.01901
-0.55609,0.17894,0.81163,0.01956,-0.03334,0.01846
-0.55613,0.17882,0.81163,0.01847,-0.03847,0.01462
-0.55631,0.17875,0.81152,0.00831,-0.03997,0.01059
-0.55642,0.17876,0.81144,0.00582,-0.04305,0.00487
-0.55638,0.17877,0.81147,-0.00129,-0.04568,0.00615
-0.55639,0.17875,0.81147,-0.00282,-0.04026,0.00071
-0.55649,0.1788,0.81139,-0.00197,-0.04689,-0.00611
-0.55637,0.179,0.81142,0.01862,-0.05746,0.001
-0.55553,0.17927,0.81194,-0.00474,-0.02529,-0.02938
-0.55425,0.17968,0.81273,-0.00148,-0.00652,0.04155
-0.5551,0.17939,0.81221,0.02127,-0.02997,0.0443
-0.55563,0.17879,0.81198,0.04599,-0.05989,0.01391
-0.5552,0.17862,0.81231,0.03214,-0.04941,0.00591
-0.55446,0.17869,0.8128,0.01847,-0.04202,0.01383
-0.55413,0.17873,0.81302,0.0092,-0.04427,0.02061
-0.55399,0.17888,0.81308,0.01912,-0.04454,0.01448
-0.55404,0.17921,0.81297,0.02124,-0.03668,0.01447
-0.55411,0.17939,0.81288,0.00922,-0.02729,0.01675
-0.55415,0.17927,0.81288,0.0032,-0.03251,0.02017
-0.55441,0.17917,0.81273,0.0058,-0.03592,0.01177
-0.55487,0.17923,0.8124,0.01472,-0.03141,0.01041
-0.55532,0.17946,0.81204,0.00484,-0.02028,0.00299
-0.55548,0.1797,0.81188,0.0017,-0.02409,0.00841
-0.55539,0.17973,0.81194,0.00056,-0.03407,0.01051
-0.55491,0.17961,0.81229,0.00183,-0.02469,0.00641
-0.55446,0.17948,0.81263,-0.00084,-0.02765,0.00564
-0.5539,0.1794,0.81303,0.00414,-0.04062,0.01409
-0.55344,0.17932,0.81336,0.01592,-0.05618,0.00862
-0.55292,0.1793,0.81371,0.01627,-0.05705,0.00672
-0.55234,0.17923,0.81412,0.01953,-0.0568,0.01878
-0.55201,0.17927,0.81434,0.02455,-0.05156,0.01837
-0.55207,0.17944,0.81426,0.03204,-0.0338,0.0227
-0.55227,0.17961,0.81409,0.03112,-0.02946,0.02673
-0.55254,0.17982,0.81386,0.03127,-0.02189,0.02461
-0.5529,0.17996,0.81358,0.03325,-0.01616,0.01597
-0.55334,0.17997,0.81328,0.01966,-0.03663,0.01127
-0.55368,0.17998,0.81305,0.01532,-0.0408,0.01326
-0.55388,0.18002,0.8129,0.00571,-0.04028,0.0109
-0.55412,0.18001,0.81274,-0.00223,-0.051,0.00205
-0.55452,0.17991,0.81249,-0.00451,-0.05569,0.00082
-0.55491,0.17989,0.81222,-0.00449,-0.05416,-0.00444
-0.5552,0.17983,0.81204,0.00183,-0.04638,0.00763
-0.55531,0.17975,0.81198,0.00288,-0.04485,0.01063
-0.55538,0.1797,0.81195,0.00791,-0.03422,0.01674
-0.55566,0.17962,0.81178,0.00184,-0.02368,0.01748
-0.55624,0.17941,0.81142,0.00341,-0.01929,0.02805
-0.55773,0.1785,0.8106,0.02529,-0.02401,0.01082
-0.55827,0.17783,0.81038,0.01007,-0.03397,0.00164
-0.55778,0.17766,0.81075,0.00446,-0.03752,0.00965
-0.55766,0.17761,0.81084,0.00891,-0.05676,0.00877
-0.55725,0.17745,0.81116,0.01546,-0.05336,0.01567
-0.55663,0.17727,0.81163,0.02216,-0.05659,0.01628
-0.55608,0.17722,0.81201,0.02439,-0.05517,0.01494
-0.55571,0.17729,0.81225,0.01913,-0.04448,0.01879
-0.55566,0.17746,0.81225,0.01985,-0.03741,0.022
-0.55612,0.17766,0.81189,0.01994,-0.03794,0.01779
-0.55651,0.17794,0.81156,0.01827,-0.03191,0.01606
-0.55679,0.17825,0.8113,0.0056,-0.01886,0.00511
-0.55704,0.17863,0.81105,0.00943,-0.02391,0.00377
-0.55711,0.17891,0.81094,0.01161,-0.03038,0.01124
-0.55697,0.17901,0.81101,0.01523,-0.0361,0.00749
-0.55671,0.17899,0.81119,0.01273,-0.03553,0.00981
-0.55649,0.17894,0.81136,0.00952,-0.041,0.0065
-0.55637,0.17886,0.81146,0.0115,-0.04311,0.00903
-0.55642,0.17879,0.81144,0.01222,-0.05106,0.01561
-0.55656,0.17871,0.81136,0.0113,-0.05095,0.02408
-0.55676,0.17874,0.81122,0.0121,-0.04355,0.01105
-0.55697,0.17899,0.81101,0.01124,-0.03842,0.00867
-0.55702,0.17924,0.81093,0.01226,-0.03558,0.00949
-0.55687,0.17936,0.811,0.0078,-0.03693,0.00622
-0.55667,0.17945,0.81112,0.00766,-0.03905,0.00532
-0.55644,0.1795,0.81126,0.0139,-0.03869,0.00252
-0.55611,0.17951,0.81149,0.01792,-0.05634,0.01152
-0.55554,0.17956,0.81187,0.01917,-0.05458,0.02226
-0.55504,0.17969,0.81218,0.01573,-0.04009,0.02
-0.55483,0.18002,0.81226,0.01167,-0.03352,0.017
-0.55469,0.1804,0.81227,0.00699,-0.03924,0.01099
-0.55458,0.18076,0.81226,0.01079,-0.02575,0.00539
-0.55451,0.1811,0.81223,0.01302,-0.01942,0.00741
-0.55448,0.18135,0.8122,0.02117,-0.01661,0.01259
-0.55442,0.18152,0.8122,0.01957,-0.03252,0.01688
-0.5543,0.1816,0.81226,0.01547,-0.0378,0.01736
-0.5542,0.18157,0.81234,0.01445,-0.04526,0.01654
-0.5541,0.18151,0.81241,0.00895,-0.05291,0.01213
-0.55403,0.18149,0.81247,0.00607,-0.05067,0.01074
-0.55398,0.18153,0.8125,0.00321,-0.05183,0.00808
-0.55407,0.18167,0.8124,0.003,-0.04003,0.00736
-0.55419,0.18184,0.81229,0.00401,-0.03621,0.00708
-0.55427,0.18196,0.8122,0.01118,-0.03589,0.00483
-0.55427,0.18203,0.81219,0.01972,-0.03323,0.01301
-0.55413,0.18204,0.81228,0.02171,-0.03322,0.01689
-0.55402,0.18199,0.81237,0.02429,-0.0356,0.02157
-0.55396,0.18201,0.8124,0.01876,-0.04197,0.01847
-0.55397,0.18213,0.81237,0.01591,-0.04306,0.01531
-0.55406,0.18226,0.81228,0.01379,-0.04619,0.01307
-0.55412,0.18236,0.81222,0.01367,-0.03971,0.01095
-0.55419,0.18246,0.81214,0.01063,-0.03437,0.00988
-0.55434,0.1825,0.81203,0.00988,-0.03479,0.01171
-0.55446,0.18245,0.81196,0.01062,-0.03936,0.00905
-0.55455,0.18243,0.81191,0.01193,-0.04002,0.01033
-0.55464,0.18244,0.81184,0.01239,-0.03767,0.01301
-0.55478,0.18242,0.81175,0.01454,-0.03835,0.01425
-0.55501,0.18238,0.8116,0.01413,-0.04546,0.00983
-0.55523,0.18241,0.81144,0.01167,-0.04563,0.01157
-0.55539,0.18247,0.81132,0.00471,-0.04165,0.01253
-0.55548,0.18256,0.81124,0.00598,-0.03946,0.0085
-0.55545,0.18259,0.81125,0.00452,-0.04258,0.00715
-0.55537,0.18261,0.8113,0.00464,-0.03691,0.00376
-0.55531,0.18252,0.81137,0.00637,-0.04066,0.00498
-0.55509,0.18239,0.81155,0.01369,-0.04145,0.01034
-0.55482,0.18225,0.81176,0.01484,-0.03972,0.01342
-0.5546,0.18209,0.81195,0.02048,-0.03057,0.0172
-0.55446,0.18197,0.81207,0.02373,-0.0315,0.01584
-0.55432,0.18184,0.81219,0.02266,-0.03656,0.02036
-0.55415,0.1817,0.81234,0.01707,-0.03252,0.01618
-0.55409,0.18162,0.8124,0.01637,-0.03338,0.01345
-0.5541,0.18147,0.81243,0.01572,-0.03636,0.00743
-0.55404,0.18124,0.81252,0.01445,-0.05149,0.01164
-0.55396,0.18105,0.81262,0.01132,-0.05931,0.01403
-0.55398,0.1809,0.81264,-0.00188,-0.05527,0.02783
-0.55355,0.18123,0.81285,-0.00101,-0.05336,0.02578
-0.55377,0.18138,0.81268,0.00417,-0.04554,0.00956
-0.55429,0.1814,0.81231,0.01222,-0.03616,0.00225
-0.5546,0.18152,0.81208,0.01358,-0.0291,0.01371
-0.55469,0.18175,0.81197,0.02203,-0.02246,0.02057
-0.55478,0.18197,0.81185,0.02349,-0.02522,0.02091
-0.55474,0.18219,0.81183,0.02331,-0.0336,0.01707
-0.5547,0.18234,0.81182,0.0197,-0.03781,0.01244
-0.55468,0.18241,0.81182,0.03571,-0.06147,-0.00205
-0.55465,0.1826,0.8118,0.06779,-0.10493,-0.00894
-0.55319,0.18397,0.81249,0.0047,-0.05883,-0.02675
-0.5508,0.18582,0.81369,-0.04308,-0.00189,0.0652
-0.55283,0.18462,0.81259,0.00409,-0.07804,0.0458
-0.55443,0.18337,0.81178,0.05371,-0.09499,-0.02233
-0.55465,0.18385,0.81151,0.01727,-0.02028,-0.01111
-0.55394,0.18518,0.8117,-0.00601,-0.00945,0.02178
-0.5531,0.1856,0.81218,-0.02363,-0.00576,0.04587
-0.55274,0.18524,0.8125,0.02352,-0.03975,-0.00591
-0.55319,0.18505,0.81224,0.02963,-0.04072,-0.00261
-0.55334,0.18494,0.81216,0.02325,-0.04386,0.01947
-0.55276,0.18464,0.81263,0.01633,-0.04797,0.02887
-0.55222,0.18432,0.81306,0.02313,-0.04969,0.01103
-0.55206,0.18421,0.8132,0.0197,-0.04829,0.01015
-0.552,0.18427,0.81323,0.01754,-0.04575,0.02329
-0.55203,0.18437,0.81319,0.01736,-0.04406,0.01698
-0.55214,0.18447,0.81309,0.01436,-0.04277,0.0117
-0.55233,0.18462,0.81292,0.01157,-0.03773,0.00536
-0.55243,0.18478,0.81282,0.01056,-0.03816,0.01259
-0.55249,0.18495,0.81274,0.01012,-0.03877,0.01459
-0.5526,0.18503,0.81264,0.01304,-0.04282,0.01557
-0.55271,0.18505,0.81257,0.01098,-0.04377,0.01136
-0.55273,0.1851,0.81254,0.01261,-0.04356,0.00972
-0.55275,0.18519,0.81251,0.01234,-0.04223,0.01354
-0.55275,0.18521,0.81251,0.01148,-0.04426,0.0144
-0.55278,0.18526,0.81248,0.00985,-0.04166,0.01061
-0.5528,0.1853,0.81245,0.01044,-0.03885,0.00863
-0.55281,0.18539,0.81242,0.01047,-0.03593,0.01243
-0.55279,0.18548,0.81242,0.01203,-0.03834,0.01351
-0.55274,0.18553,0.81244,0.01284,-0.04077,0.01288
-0.55268,0.18553,0.81248,0.01505,-0.04246,0.01393
-0.55257,0.18554,0.81255,0.01405,-0.04342,0.01515
-0.55255,0.18559,0.81255,0.0168,-0.03872,0.01461
-0.55251,0.18569,0.81256,0.01302,-0.03992,0.01242
-0.55245,0.18574,0.81259,0.01368,-0.04184,0.0123
-0.55244,0.18571,0.8126,0.01695,-0.04484,0.01408
-0.55247,0.18573,0.81258,0.01734,-0.04293,0.01372
-0.55247,0.18576,0.81257,0.01707,-0.04512,0.01515
-0.55244,0.18577,0.81259,0.01223,-0.04079,0.01382
-0.55249,0.18583,0.81254,0.01252,-0.04156,0.01148
-0.55257,0.18586,0.81248,0.01314,-0.04193,0.01303
-0.55255,0.18591,0.81248,0.01062,-0.03985,0.01358
-0.55248,0.18602,0.8125,0.00949,-0.04104,0.01286
-0.55244,0.18612,0.81251,0.01214,-0.04648,0.0107
-0.55242,0.1862,0.8125,0.00833,-0.04757,0.01397
-0.55234,0.18631,0.81253,0.00788,-0.04499,0.01423
-0.55224,0.18642,0.81258,0.01147,-0.03355,0.01486
-0.55222,0.18647,0.81257,0.01286,-0.03861,0.01184
-0.5522,0.18652,0.81258,0.01125,-0.03706,0.01076
-0.55208,0.18668,0.81262,0.01351,-0.03671,0.00853
-0.55191,0.18681,0.81271,0.01478,-0.04303,0.01519
-0.55182,0.18675,0.81278,0.01299,-0.04013,0.01968
-0.55176,0.18658,0.81286,0.01792,-0.03883,0.01819
-0.55189,0.18634,0.81283,0.01771,-0.0356,0.0129
-0.55208,0.18588,0.8128,0.01807,-0.04124,0.01106
-0.55209,0.18531,0.81293,0.02069,-0.05317,0.0072
-0.55178,0.18472,0.81327,0.01525,-0.04401,0.01612
-0.55169,0.18398,0.81351,0.02508,-0.04851,0.02413
-0.55183,0.18342,0.81354,0.03018,-0.04935,0.02648
-0.55195,0.18333,0.81347,0.03544,-0.04902,0.02467
-0.55218,0.1835,0.81328,0.01521,-0.04527,0.01777
-0.55265,0.18357,0.81295,0.00837,-0.04528,0.01428
-0.55317,0.18373,0.81256,0.00866,-0.04781,0.01296
-0.55379,0.18395,0.81209,0.00166,-0.05291,0.00075
-0.55429,0.1842,0.81168,-0.00459,-0.03259,-0.00114
-0.55473,0.18421,0.81138,-0.00694,-0.02831,0.00037
-0.555,0.18395,0.81126,-0.00395,-0.03295,-0.0015
-0.55495,0.18351,0.81139,-0.00358,-0.03257,0.00271
-0.55478,0.18301,0.81162,0.00158,-0.03587,0.0166
-0.55454,0.18267,0.81186,0.0107,-0.03963,0.02009
-0.55432,0.18253,0.81204,0.01571,-0.04265,0.0164
-0.55415,0.18242,0.81218,0.02081,-0.04398,0.01265
-0.55388,0.18223,0.81241,0.02512,-0.04381,0.01952
-0.55354,0.18197,0.8127,0.02686,-0.04364,0.02209
-0.55332,0.18165,0.81292,0.03029,-0.04941,0.01647
-0.5533,0.18138,0.813,0.02415,-0.0596,0.02311
-0.55349,0.18113,0.81292,0.01898,-0.05262,0.02949
-0.55378,0.18105,0.81274,0.00419,-0.02901,0.02362
-0.55422,0.18128,0.81239,0.00545,-0.02477,0.01521
-0.55486,0.18159,0.81188,0.01264,-0.01504,7e-05
-0.55532,0.18175,0.81154,0.00949,-0.03027,0.00813
-0.55523,0.18171,0.8116,0.00617,-0.03366,0.00802
-0.55473,0.18143,0.81201,0.00671,-0.04906,0.00864
-0.55423,0.18111,0.81242,0.01192,-0.06379,0.00912
-0.55379,0.18098,0.81275,0.01192,-0.06716,0.01029
-0.55321,0.18093,0.81316,0.0126,-0.06575,0.01399
-0.55257,0.18088,0.8136,0.01513,-0.06445,0.01016
-0.55212,0.18085,0.81391,0.01458,-0.063,0.00911
-0.55184,0.18085,0.8141,0.01254,-0.06011,0.01019
-0.55153,0.18101,0.81428,0.01259,-0.03521,0.01814
-0.55114,0.18129,0.81448,0.01533,-0.02561,0.01937
-0.5509,0.18153,0.81459,0.02319,-0.02235,0.01795
-0.55075,0.1816,0.81468,0.01815,-0.02295,0.01877
-0.55045,0.18156,0.81489,0.01647,-0.02137,0.01599
-0.55027,0.1815,0.81502,0.01089,-0.02707,0.01272
-0.55013,0.18144,0.81513,0.00602,-0.04276,0.01069
-0.54979,0.18124,0.8154,0.01352,-0.04795,0.00288
-0.54921,0.18082,0.81589,0.02343,-0.04973,0.00338
-0.54893,0.17999,0.81626,0.02982,-0.05978,0.0281
-0.54967,0.17837,0.81612,0.0554,-0.05956,0.03871
-0.54889,0.17727,0.81688,0.03963,-0.04923,0.05145
-0.54816,0.17684,0.81746,0.02114,-0.04134,0.0509
-0.54916,0.17698,0.81676,0.02021,-0.02694,0.04121
-0.55057,0.17741,0.81572,0.0096,-0.04284,0.01302
-0.55143,0.17833,0.81494,-0.00893,-0.0417,-0.01188
-0.55171,0.17913,0.81458,-0.018,-0.03714,-0.00513
-0.55146,0.17974,0.8146,-0.0131,-0.03519,0.00346
-0.5507,0.18036,0.81498,-0.0105,-0.04231,0.01064
-0.54973,0.18105,0.81549,-0.01026,-0.05402,0.0054
-0.54848,0.18204,0.81611,-0.01138,-0.04514,0.00649
-0.54702,0.18299,0.81687,-0.00672,-0.04471,-0.00626
-0.54547,0.18363,0.81776,0.00137,-0.04017,-0.0134
-0.54326,0.18404,0.81914,-0.00078,-0.02795,-0.00765
-0.54049,0.18427,0.82092,0.00829,-0.05506,-0.00951
-0.5376,0.18427,0.82282,0.02587,-0.05756,0.04324
-0.53533,0.18421,0.82431,0.02901,-0.05431,0.04658
-0.5338,0.18422,0.8253,0.06004,-0.03535,0.06959
-0.53332,0.18425,0.8256,0.05375,-0.02606,0.08915
-0.53421,0.1854,0.82477,0.05017,-0.02911,0.07139
-0.53508,0.18748,0.82373,0.05593,-0.01347,0.06569
-0.53602,0.19028,0.82248,0.00432,0.00317,0.13185
-0.53889,0.19274,0.82003,0.01643,0.00367,0.13404
-0.541,0.19531,0.81803,-0.00471,0.00144,0.11935
-0.54204,0.19813,0.81666,0.00801,0.02177,0.03675
-0.54035,0.2033,0.81651,-0.04123,0.05468,-0.04644
-0.53476,0.20931,0.81867,-0.11273,0.14438,-0.0728
-0.52578,0.21444,0.82314,-0.06762,0.14612,-0.18079
-0.51394,0.21798,0.82966,-0.02037,0.11762,-0.18638
-0.5013,0.21989,0.83686,0.03362,-0.08857,-0.10002
-0.48909,0.2209,0.84379,0.01189,-0.11772,-0.07722
-0.47735,0.22122,0.85041,-0.00503,-0.15274,-0.04407
-0.46708,0.22107,0.85613,0.01712,-0.2404,-0.03433
-0.4585,0.22078,0.86083,0.01645,-0.25998,-0.01932
-0.4518,0.22,0.86456,0.03519,-0.28537,-0.01329
-0.44671,0.21868,0.86754,0.09388,-0.26072,0.04413
-0.44369,0.21713,0.86947,0.11584,-0.23482,0.04724
-0.44265,0.2163,0.87021,0.14644,-0.15849,0.09123
-0.44459,0.21642,0.86919,0.14128,-0.08213,0.05569
-0.44959,0.21754,0.86633,0.14266,-0.0718,0.04393
-0.45747,0.21936,0.86174,0.11707,-0.04204,0.03372
-0.4667,0.22107,0.85634,0.00993,-0.02084,0.00878
-0.47573,0.22216,0.85107,-0.01255,0.01542,0.00073
-0.48359,0.22242,0.84656,-0.0326,0.04116,-0.02161
-0.49019,0.22134,0.84304,-0.0224,0.00968,-0.01526
-0.49575,0.21974,0.8402,-0.02285,0.023,-0.01853
-0.5002,0.21809,0.83799,-0.04452,-0.01188,0.02607
-0.50362,0.21612,0.83645,-0.06531,-0.033,0.03225
-0.50659,0.21411,0.83517,-0.05151,-0.02755,0.00243
-0.50936,0.21245,0.83391,-0.01503,-0.0441,-0.00428
-0.51257,0.21044,0.83245,-0.00028,-0.04197,-0.00077
-0.51387,0.20749,0.83239,-0.02517,-0.05792,0.01205
-0.51458,0.20487,0.8326,-0.05515,-0.03523,0.00839
-0.51444,0.2021,0.83336,-0.02936,-0.02838,0.01156
-0.51472,0.1992,0.83389,0.00419,-0.0322,0.02814
-0.51445,0.19638,0.83473,0.0077,-0.02219,0.031
-0.51538,0.19347,0.83483,-0.00631,0.0043,0.01747
-0.51592,0.18993,0.83531,-0.00029,-0.04363,-6e-05
-0.51588,0.18647,0.83611,0.01368,-0.04806,0.01661
-0.51554,0.1834,0.837,0.02992,-0.04111,0.00997
-0.51409,0.18015,0.8386,0.04692,-0.06096,0.051
-0.51341,0.17728,0.83962,0.02971,-0.05858,0.06284
-0.51356,0.17515,0.83998,0.03117,-0.08526,0.05548
-0.51423,0.17422,0.83976,0.08176,-0.15217,0.0223
-0.51626,0.17463,0.83843,-0.01006,-0.01849,0.00314
-0.51736,0.17588,0.83749,-0.04654,-0.05898,0.01673
-0.51633,0.17696,0.8379,-0.0464,-0.0734,0.01299
-0.51578,0.17773,0.83807,-0.01143,-0.0479,0.00134
-0.51607,0.17897,0.83763,0.02095,-0.0457,0.00246
-0.51499,0.18034,0.838,-0.03794,-0.04335,-0.0078
-0.5129,0.18152,0.83903,-0.05676,-0.01761,-0.00437
-0.51076,0.18206,0.84021,-0.03748,0.00618,-0.00777
-0.50785,0.18206,0.84198,-0.00926,0.00704,0.0192
-0.50468,0.18149,0.844,0.02146,0.00856,0.00695
-0.50088,0.18069,0.84644,0.04745,0.00098,0.02826
-0.49665,0.18017,0.84904,0.04874,-0.0086,0.03565
-0.4927,0.18,0.85137,0.05176,-0.03581,0.03071
-0.48951,0.18052,0.8531,0.06801,-0.07695,0.025
-0.48766,0.18139,0.85397,0.07507,-0.08042,0.0337
-0.48692,0.1826,0.85414,0.05793,-0.06835,0.0556
-0.48666,0.18393,0.854,0.02088,-0.06266,0.0584
-0.48744,0.18564,0.85319,0.01552,-0.07308,0.04783
-0.48928,0.18792,0.85163,0.01651,-0.07554,0.0232
-0.49171,0.19029,0.8497,0.01152,-0.05112,-0.01201
-0.4946,0.19232,0.84757,0.00437,-0.04293,-0.01737
-0.49719,0.19377,0.84572,-0.0158,-0.02912,-0.00597
-0.49945,0.19498,0.84411,-0.04553,-0.02179,-0.00393
-0.50166,0.19628,0.84249,-0.04601,-0.02055,-0.00372
-0.50405,0.19728,0.84083,-0.02769,-0.01801,-0.0025
-0.50671,0.19744,0.83919,-0.01828,-0.04302,-0.01823
-0.50886,0.19728,0.83793,-0.01218,-0.04155,-0.0234
-0.51033,0.19706,0.83709,-0.00575,-0.04258,-0.01299
-0.51137,0.19684,0.8365,0.00148,-0.05153,0.03682
-0.51222,0.19627,0.83612,0.01087,-0.04568,0.04366
-0.51371,0.19562,0.83535,0.02417,-0.03496,0.04636
-0.51715,0.19542,0.83328,-0.00215,-0.09874,0.03608
-0.52076,0.19611,0.83086,0.07762,-0.04967,-0.02308
-0.52416,0.19673,0.82857,0.09513,-0.04372,-0.03617
-0.52667,0.1964,0.82706,0.05991,-0.08414,-0.0186
-0.52681,0.19544,0.8272,0.02714,-0.05205,0.00552
-0.52607,0.19405,0.828,0.0403,-0.04899,-0.00215
-0.52612,0.19229,0.82838,0.06518,-0.04625,0.01287
-0.52587,0.19052,0.82894,0.0711,-0.04489,0.04822
-0.52504,0.18909,0.8298,0.0472,-0.05083,0.07409
-0.52427,0.18844,0.83043,0.02413,-0.04102,0.06849
-0.52368,0.18854,0.83078,0.00296,-0.02292,0.0249
-0.52342,0.18926,0.83078,0.00752,-0.01589,-0.01158
-0.5231,0.19065,0.83066,-0.0244,-0.01342,-0.01598
-0.52282,0.19195,0.83054,-0.04614,-0.04425,-0.00745
-0.52279,0.19234,0.83047,-0.03465,-0.06934,-0.00722
-0.52311,0.1921,0.83033,-0.02534,-0.08306,0.00501
-0.52396,0.19161,0.8299,0.01322,-0.06957,0.00117
-0.52414,0.19153,0.82981,0.02483,-0.06698,0.00555
-0.52336,0.19184,0.83023,0.04619,-0.05535,-0.00047
-0.52219,0.1925,0.83081,0.03907,-0.0365,0.02747
-0.52078,0.19315,0.83155,0.01097,-0.0215,0.03573
-0.52018,0.19326,0.8319,-0.01357,-0.01945,0.02247
-0.52075,0.19316,0.83157,0.001,-0.02415,0.00507
-0.52116,0.19354,0.83122,0.02081,-0.02477,-0.02744
-0.52063,0.19432,0.83137,0.01433,-0.04767,0.01273
-0.51906,0.19476,0.83225,0.0031,-0.06271,0.02276
-0.51733,0.1948,0.83331,-0.00821,-0.07798,0.02983
-0.51632,0.1948,0.83394,-0.00996,-0.08716,0.01683
-0.51615,0.19503,0.83399,-0.0059,-0.08377,0.0148
-0.51687,0.19554,0.83343,0.0068,-0.06987,0.01452
-0.51789,0.19606,0.83267,0.03315,-0.04788,0.0134
-0.51861,0.19636,0.83215,0.03463,-0.03628,0.01338
-0.51903,0.19638,0.83189,0.03334,-0.01956,0.01766
-0.51937,0.19634,0.83168,0.02239,-0.01096,0.02056
-0.51985,0.19636,0.83138,0.02582,-0.01406,0.01892
-0.52038,0.19638,0.83104,0.03375,-0.01368,0.01898
-0.52075,0.19643,0.8308,0.04034,-0.01683,0.02421
-0.52091,0.19649,0.83069,0.03612,-0.02262,0.02052
-0.5208,0.19666,0.83071,0.03045,-0.04999,0.0182
-0.52049,0.197,0.83083,0.00343,-0.08443,0.01837
-0.52021,0.19748,0.83089,-0.00887,-0.08835,0.0184
-0.52012,0.19806,0.83081,-0.02236,-0.08853,0.00955
-0.52045,0.19863,0.83047,-0.02288,-0.06907,-0.00231
-0.5211,0.19915,0.82993,-0.01606,-0.05758,-0.00529
-0.52197,0.19976,0.82924,-0.0082,-0.0506,-0.00632
-0.52278,0.20026,0.82861,-0.00122,-0.03993,-0.001
-0.52327,0.20055,0.82823,0.00201,-0.02306,0.01021
-0.52361,0.20076,0.82796,0.00719,-0.01832,0.01345
-0.52389,0.20082,0.82777,0.01407,-0.01738,0.01771
-0.52395,0.20076,0.82775,0.02198,-0.02361,0.01841
-0.52391,0.20067,0.8278,0.03224,-0.02318,0.01821
-0.52393,0.20057,0.8278,0.03439,-0.02747,0.02083
-0.52376,0.2005,0.82793,0.03691,-0.04162,0.01931
-0.52325,0.20048,0.82826,0.0301,-0.05892,0.02211
-0.52267,0.20053,0.82861,0.00856,-0.07711,0.02083
-0.52226,0.20067,0.82884,-0.00954,-0.08316,0.01169
-0.5222,0.20099,0.8288,-0.01004,-0.08556,0.0092
-0.52248,0.20136,0.82853,-0.0057,-0.0709,-0.00016
-0.52295,0.20163,0.82816,0.0055,-0.04259,0.00229
-0.52332,0.2019,0.82787,0.00839,-0.03338,0.00384
-0.52354,0.20203,0.8277,0.01452,-0.01728,0.01341
-0.52368,0.20197,0.82763,0.01929,-0.01178,0.02003
-0.52372,0.20192,0.82761,0.02265,-0.01046,0.02198
-0.52377,0.20186,0.8276,0.03727,-0.03807,0.01534
-0.5237,0.20172,0.82767,0.0349,-0.04341,0.02244
-0.52337,0.20155,0.82793,0.02316,-0.06458,0.02475
-0.52297,0.20141,0.82821,0.00359,-0.08158,0.01648
-0.52274,0.20137,0.82837,-0.00379,-0.08375,0.01243
-0.52273,0.20135,0.82838,-0.01572,-0.07531,0.01255
-0.52291,0.20147,0.82823,-0.00123,-0.05285,0.00512
-0.5233,0.2017,0.82793,0.00012,-0.04381,0.00352
-0.52367,0.20185,0.82766,0.00655,-0.03024,0.00495
-0.52402,0.20192,0.82742,0.01754,-0.01665,0.01233
-0.52428,0.20189,0.82726,0.02103,-0.01692,0.01711
-0.52436,0.20177,0.82725,0.0194,-0.01973,0.02302
-0.52432,0.20165,0.8273,0.02118,-0.03864,0.01925
-0.52428,0.20164,0.82732,0.02288,-0.04667,0.02219
-0.52411,0.20166,0.82743,0.02214,-0.05976,0.02246
-0.52382,0.20162,0.82762,0.00139,-0.07242,0.01681
-0.5236,0.20164,0.82775,-0.00035,-0.0727,0.01388
-0.5236,0.20176,0.82773,-0.0014,-0.06604,0.00502
-0.52377,0.2019,0.82759,0.00443,-0.04986,0.00696
-0.52393,0.20205,0.82745,0.00315,-0.048,0.00758
-0.52411,0.20218,0.8273,0.0074,-0.03343,0.00795
-0.52433,0.20217,0.82717,0.0133,-0.02782,0.01393
-0.52442,0.20212,0.82712,0.01799,-0.02843,0.01564
-0.52444,0.20204,0.82712,0.02063,-0.02993,0.01991
-0.52445,0.20198,0.82714,0.02396,-0.03644,0.01831
-0.52435,0.20196,0.82721,0.02693,-0.05089,0.02066
-0.52416,0.2019,0.82734,0.02274,-0.05201,0.02108
-0.52392,0.20182,0.82751,0.01563,-0.06144,0.02127
-0.52372,0.20184,0.82763,0.00731,-0.06605,0.01112
-0.52369,0.20196,0.82762,0.00691,-0.063,0.00929
-0.52381,0.2021,0.82751,0.00314,-0.05574,0.00939
-0.52401,0.2022,0.82736,0.00283,-0.0474,0.00855
-0.52421,0.2023,0.8272,0.00679,-0.03809,0.00802
-0.52446,0.20238,0.82703,0.01234,-0.03184,0.01122
-0.52462,0.2024,0.82693,0.01328,-0.031,0.01266
-0.5246,0.20236,0.82695,0.01727,-0.03915,0.01555
-0.52445,0.20231,0.82705,0.01769,-0.04245,0.0179
-0.52424,0.20227,0.8272,0.01194,-0.05408,0.01909
-0.52404,0.20234,0.82731,0.00966,-0.05571,0.01674
-0.52394,0.20245,0.82734,0.00868,-0.0573,0.01464
-0.52395,0.20254,0.82732,0.00504,-0.05283,0.00833
-0.52398,0.20261,0.82728,0.0044,-0.04807,0.0114
-0.52408,0.20269,0.82719,0.00866,-0.04325,0.00966
-0.52426,0.20275,0.82706,0.01911,-0.03925,0.0126
-0.5243,0.20274,0.82704,0.01908,-0.04703,0.01362
-0.52412,0.20269,0.82717,0.01686,-0.04568,0.0229
-0.52389,0.20264,0.82733,0.01572,-0.04722,0.02297
-0.52374,0.20268,0.82741,0.01285,-0.04886,0.02143
-0.52375,0.20284,0.82737,0.00808,-0.05454,0.01179
-0.5239,0.20307,0.82722,0.00655,-0.05314,0.00684
-0.52408,0.20326,0.82706,0.00841,-0.04296,0.00847
-0.52428,0.2033,0.82692,0.01117,-0.04155,0.00987
-0.52446,0.20329,0.82681,0.01124,-0.03957,0.00913
-0.52453,0.20324,0.82678,0.01707,-0.03876,0.0106
-0.5245,0.20313,0.82682,0.01863,-0.04386,0.01711
-0.5243,0.20302,0.82697,0.01567,-0.04673,0.01729
-0.52406,0.2029,0.82716,0.01627,-0.05196,0.0176
-0.52388,0.20277,0.82731,0.01364,-0.06165,0.01426
-0.52368,0.20267,0.82746,0.01345,-0.062,0.01756
-0.52344,0.20268,0.8276,0.00922,-0.06295,0.01978
-0.52332,0.20278,0.82765,0.00799,-0.05225,0.01486
-0.52348,0.20298,0.82751,0.008,-0.04772,0.0124
-0.52378,0.20313,0.82727,0.01628,-0.04037,0.01202
-0.524,0.20325,0.82711,0.02159,-0.02912,0.016
-0.52412,0.20331,0.82702,0.02186,-0.02811,0.01711
-0.52415,0.20326,0.82701,0.02441,-0.03381,0.01651
-0.52411,0.20316,0.82706,0.0219,-0.0456,0.01486
-0.52392,0.20313,0.82719,0.01136,-0.05748,0.01734
-0.52367,0.20312,0.82735,0.00411,-0.06035,0.01837
-0.52351,0.20312,0.82745,-0.00072,-0.06139,0.01196
-0.52355,0.20317,0.82741,-0.0036,-0.05992,0.00704
-0.52373,0.20336,0.82726,-0.00231,-0.05522,0.00438
-0.52395,0.20356,0.82706,-0.00025,-0.0463,0.00664
-0.52409,0.20372,0.82694,0.00764,-0.0418,0.0122
-0.52413,0.20387,0.82687,0.01287,-0.03947,0.01456
-0.52424,0.20399,0.82678,0.01951,-0.03591,0.01535
-0.5244,0.20405,0.82666,0.02622,-0.03542,0.01944
-0.52449,0.20404,0.8266,0.0255,-0.03984,0.02007
-0.52448,0.20405,0.82661,0.0258,-0.03836,0.02036
-0.52444,0.20399,0.82665,0.0226,-0.04451,0.01919
-0.52438,0.20389,0.82671,0.01955,-0.04998,0.01677
-0.5243,0.20385,0.82677,0.01654,-0.05547,0.01391
-0.52419,0.20387,0.82684,0.00156,-0.06399,0.01229
-0.52412,0.20389,0.82688,-0.00176,-0.06546,0.01266
-0.52414,0.20392,0.82686,-0.00559,-0.06585,0.01135
-0.52427,0.20402,0.82675,0.00019,-0.05362,0.00611
-0.52451,0.20422,0.82655,0.00537,-0.04221,0.00789
-0.52479,0.20434,0.82634,0.01867,-0.02476,0.01421
-0.52491,0.2045,0.82622,0.02099,-0.02473,0.01709
-0.5249,0.20463,0.8262,0.01973,-0.03126,0.01935
-0.5248,0.20476,0.82623,0.0195,-0.04042,0.01942
-0.52469,0.20488,0.82627,0.02379,-0.03735,0.01841
-0.52463,0.2049,0.8263,0.02252,-0.04713,0.01491
-0.52459,0.20478,0.82636,0.01795,-0.06397,0.01098
-0.52447,0.20466,0.82647,0.01468,-0.06605,0.01117
-0.52414,0.20456,0.8267,-0.00014,-0.07165,0.01419
-0.52375,0.20446,0.82697,-0.00262,-0.06071,0.01234
-0.52355,0.20447,0.8271,0.00246,-0.0567,0.00841
-0.52377,0.20457,0.82693,0.00269,-0.0568,0.00858
-0.52407,0.20463,0.82673,0.01543,-0.03567,0.01421
-0.52411,0.20472,0.82668,0.01403,-0.03189,0.01663
-0.52402,0.20476,0.82673,0.01512,-0.03456,0.02047
-0.52397,0.2048,0.82675,0.02079,-0.04146,0.02081
-0.52398,0.20488,0.82672,0.02072,-0.04436,0.01794
-0.52397,0.20497,0.8267,0.02232,-0.051,0.01778
-0.5239,0.205,0.82674,0.01924,-0.05176,0.01557
-0.52387,0.20501,0.82676,0.01459,-0.05036,0.01383
-0.52385,0.20495,0.82678,0.00743,-0.0543,0.01234
-0.52386,0.20484,0.82681,-0.00145,-0.0548,0.00825
-0.52399,0.20473,0.82675,0.00128,-0.05181,0.00322
-0.52414,0.20465,0.82668,0.0004,-0.04699,0.00386
-0.52421,0.20457,0.82665,0.00404,-0.03785,0.00854
-0.52417,0.20449,0.82669,0.00812,-0.0368,0.02029
-0.52405,0.20447,0.82678,0.0114,-0.03792,0.01808
-0.524,0.20449,0.8268,0.01499,-0.0413,0.01801
-0.52396,0.2045,0.82683,0.02156,-0.04632,0.01692
-0.52381,0.20447,0.82693,0.02171,-0.0465,0.02041
-0.52367,0.20443,0.82703,0.0228,-0.04856,0.02084
-0.52364,0.20439,0.82706,0.02224,-0.04738,0.01868
-0.52359,0.20434,0.8271,0.02098,-0.04862,0.01723
-0.52345,0.20425,0.82721,0.02183,-0.05319,0.01938
-0.52334,0.20422,0.82729,0.01543,-0.05804,0.02026
-0.52328,0.20424,0.82732,0.0072,-0.05976,0.01441
-0.52342,0.2043,0.82722,0.01023,-0.05616,0.01348
-0.52363,0.20445,0.82705,0.0097,-0.05099,0.01397
-0.5238,0.20465,0.82689,0.00871,-0.04743,0.0146
-0.52405,0.20481,0.8267,0.00876,-0.04689,0.01414
-0.52439,0.20499,0.82643,0.01265,-0.04064,0.00783
-0.52464,0.20516,0.82623,0.01417,-0.03511,0.00767
-0.52469,0.2052,0.82619,0.01555,-0.03316,0.01206
-0.52466,0.20515,0.82622,0.01362,-0.04109,0.01307
-0.52453,0.20508,0.82632,0.00825,-0.04787,0.01363
-0.52423,0.205,0.82654,0.00578,-0.06192,0.01131
-0.52392,0.20487,0.82676,0.00724,-0.06338,0.01124
-0.52367,0.20481,0.82694,0.00715,-0.06143,0.01706
-0.52358,0.20484,0.82699,0.01009,-0.05271,0.01866
-0.5237,0.20493,0.82689,0.01419,-0.05045,0.01544
-0.52392,0.20499,0.82673,0.02072,-0.04317,0.01494
-0.5241,0.20503,0.82661,0.02158,-0.03457,0.01728
-0.52427,0.20502,0.8265,0.02307,-0.03811,0.01746
-0.5244,0.20495,0.82644,0.01785,-0.03945,0.01481
-0.52441,0.20487,0.82645,0.01477,-0.04353,0.0164
-0.52434,0.20476,0.82652,0.01276,-0.04471,0.01735
-0.5242,0.20461,0.82665,0.01004,-0.04857,0.01423
-0.52412,0.20452,0.82672,0.00824,-0.05223,0.01515
-0.52406,0.20446,0.82677,0.00906,-0.05627,0.01622
-0.52397,0.20445,0.82683,0.00909,-0.05699,0.01516
-0.52394,0.20449,0.82684,0.00664,-0.05434,0.01138
-0.52401,0.20456,0.82678,0.0088,-0.05316,0.01027
-0.52407,0.20457,0.82674,0.01757,-0.04253,0.01585
-0.52409,0.20461,0.82672,0.01815,-0.04304,0.02103
-0.52408,0.20467,0.82671,0.01776,-0.04286,0.01977
-0.52414,0.2047,0.82666,0.02002,-0.04505,0.02124
-0.52425,0.20481,0.82657,0.02056,-0.04773,0.02034
-0.52429,0.20491,0.82652,0.01644,-0.04964,0.01579
-0.52432,0.20499,0.82648,0.01571,-0.05017,0.01262
-0.5244,0.20499,0.82643,0.01296,-0.05028,0.01311
-0.52443,0.205,0.8264,0.00525,-0.05166,0.01213
-0.52449,0.20509,0.82635,0.0063,-0.05013,0.01373
-0.52453,0.20519,0.82629,0.00822,-0.04615,0.01184
-0.52451,0.20522,0.8263,0.0073,-0.04707,0.01225
-0.52454,0.20524,0.82628,0.00846,-0.04989,0.0102
-0.52457,0.2053,0.82624,0.01134,-0.0487,0.01459
-0.52458,0.20538,0.82622,0.01487,-0.04707,0.01617
-0.52457,0.20547,0.8262,0.01655,-0.04731,0.01456
-0.52459,0.20549,0.82618,0.01591,-0.04152,0.01086
-0.52462,0.20542,0.82618,0.0059,-0.04219,0.0257
-0.52492,0.20524,0.82604,0.00867,-0.04642,0.02717
-0.52555,0.20498,0.8257,0.01781,-0.04444,0.02861
-0.52644,0.20465,0.82521,0.02463,-0.04739,0.01799
-0.52701,0.20443,0.82491,0.02159,-0.05099,0.01115
-0.52701,0.20445,0.8249,0.01125,-0.04637,-0.00207
-0.52705,0.20448,0.82486,0.00365,-0.05938,0.00685
-0.52688,0.20431,0.82502,0.00573,-0.06387,0.0062
-0.52633,0.20412,0.82542,0.0078,-0.06908,0.01078
-0.52581,0.20405,0.82576,0.01631,-0.05558,0.01797
-0.52548,0.20426,0.82592,0.01944,-0.05571,0.02039
-0.52552,0.20444,0.82585,0.02198,-0.0497,0.02917
-0.52588,0.20464,0.82557,0.03116,-0.05288,0.02477
-0.52621,0.20493,0.82529,0.02606,-0.04402,0.02271
-0.52651,0.2052,0.82503,0.0214,-0.03183,0.02505
-0.52685,0.20547,0.82475,0.00837,-0.03107,0.01587
-0.52729,0.20575,0.82439,0.00195,-0.02941,0.01133
-0.52771,0.20597,0.82408,-0.00199,-0.03104,-0.00781
-0.52805,0.20588,0.82388,0.00315,-0.03709,-0.01032
-0.52788,0.20555,0.82407,-0.0012,-0.04746,0.00621
