gravity.x,gravity.y,gravity.z,userAcceleration.x,userAcceleration.y,userAcceleration.z
-0.42359,0.21927,0.87891,0.00633,0.00623,-0.0091
-0.42355,0.21996,0.87876,0.00772,0.01637,-0.00744
-0.42337,0.22073,0.87865,0.00919,0.02679,-0.00668
-0.42323,0.22126,0.87859,0.00917,0.02703,-0.00751
-0.42333,0.22156,0.87846,0.01195,0.01304,-0.00604
-0.42351,0.22192,0.87829,0.00842,0.00517,-0.00465
-0.42354,0.22237,0.87816,0.0058,0.00981,-0.00173
-0.42344,0.2228,0.8781,0.00475,0.01217,-0.00034
-0.4233,0.22312,0.87808,0.00309,0.00919,-0.00443
-0.42346,0.22314,0.878,0.00568,0.00992,-0.00541
-0.42361,0.22308,0.87795,0.00494,0.00286,-0.00545
-0.4236,0.22314,0.87794,0.00515,-0.00279,-0.00036
-0.42383,0.22334,0.87777,0.00447,-0.00385,0.00867
-0.42424,0.22361,0.87751,0.00438,-0.00501,0.0075
-0.42451,0.22385,0.87731,0.00772,-0.0003,0.00078
-0.42487,0.22396,0.87711,0.01171,0.00875,-0.0065
-0.42546,0.22402,0.87682,0.00895,0.01256,-0.00618
-0.42603,0.22388,0.87657,0.00454,0.01645,-0.00723
-0.42648,0.2234,0.87647,0.0094,0.01682,-0.01205
-0.42673,0.22247,0.87659,0.01363,0.01685,-0.01349
-0.42674,0.22138,0.87686,0.01471,0.003,-0.00602
-0.42683,0.22037,0.87707,0.00253,3e-05,-0.00789
-0.42658,0.21954,0.8774,-0.01105,-0.01612,-0.00388
-0.42576,0.21925,0.87787,-0.00472,-0.00012,0.00525
-0.4249,0.21919,0.8783,-0.00218,0.00245,0.00674
-0.42445,0.21929,0.8785,0.00494,0.0041,0.00635
-0.42432,0.21922,0.87857,0.01006,0.00042,0.00801
-0.42416,0.2192,0.87866,0.00596,-0.00187,0.00746
-0.42421,0.21933,0.8786,0.00092,-0.00925,0.00693
-0.42461,0.21976,0.8783,-0.00238,-0.0049,-0.00289
-0.42537,0.22037,0.87778,-0.00146,0.00349,-0.00729
-0.42604,0.22068,0.87738,-0.00845,0.01017,-0.00757
-0.42722,0.22082,0.87677,-0.01063,0.00843,-0.00525
-0.42954,0.22107,0.87557,-0.02728,-0.00161,0.0065
-0.4327,0.22188,0.87381,0.00201,-0.01201,0.00109
-0.43394,0.22298,0.87291,0.0153,-0.00401,-0.00118
-0.43369,0.22397,0.87278,0.02665,0.01358,-0.01452
-0.43384,0.22464,0.87254,0.02686,0.03113,-0.00886
-0.4339,0.22519,0.87236,0.018,0.02053,-0.0009
-0.434,0.22537,0.87227,0.00584,0.00803,-0.00545
-0.43416,0.22542,0.87217,-0.00231,-0.00739,-0.00045
-0.43446,0.22541,0.87203,-0.00252,-0.00446,-0.00284
-0.43478,0.22559,0.87182,-0.00277,-0.0121,0.00168
-0.43552,0.22564,0.87144,0.00832,-0.00671,-0.00479
-0.43629,0.22551,0.87109,0.0158,-0.00061,-0.00501
-0.4366,0.2252,0.87101,0.0137,0.00194,0.01142
-0.43662,0.22467,0.87114,0.00641,0.00235,0.00639
-0.43622,0.22417,0.87147,-0.00292,-0.00484,-0.01537
-0.43596,0.22435,0.87156,0.00909,0.00298,-0.02912
-0.4356,0.22511,0.87154,-0.00273,0.00091,0.00338
-0.43434,0.22607,0.87192,0.01942,0.01189,-0.01866
-0.43297,0.22667,0.87244,0.01805,0.01128,-0.01919
-0.43168,0.22743,0.87289,0.01299,0.01935,-0.00735
-0.42966,0.22851,0.8736,0.01462,0.02387,-0.00734
-0.42762,0.22969,0.87429,0.02159,0.0106,-0.00358
-0.42591,0.23126,0.87471,0.02369,-0.00858,0.00082
-0.42446,0.23337,0.87486,0.00823,-0.00545,0.02869
-0.42368,0.23569,0.87461,-0.00588,-0.00383,0.0317
-0.42424,0.23796,0.87373,-0.01697,0.00112,0.01867
-0.42539,0.23976,0.87267,-0.00631,0.02437,0.00956
-0.4265,0.24033,0.87197,-0.01953,0.01817,-0.02252
-0.42755,0.24067,0.87136,-0.03106,-0.00187,-0.01486
-0.42873,0.2413,0.87061,-0.04949,-0.02118,-0.01285
-0.42921,0.24199,0.87018,-0.06097,-0.02661,-0.02316
-0.42877,0.24265,0.87021,-0.05092,-0.01577,-0.0286
-0.4271,0.24355,0.87079,-0.05659,-0.02153,-0.02197
-0.42504,0.24454,0.87151,-0.0402,-0.00974,-0.00256
-0.42323,0.24574,0.87206,-0.017,0.02268,0.00464
-0.42209,0.24684,0.8723,0.02458,-0.02274,0.00379
-0.41982,0.24776,0.87313,0.03182,-0.05052,-0.01748
-0.41576,0.24975,0.87451,0.02279,-0.04139,-7e-05
-0.41295,0.25286,0.87494,0.02429,-0.02938,0.02096
-0.41189,0.25615,0.87449,0.02927,-0.03262,0.02119
-0.41146,0.25862,0.87396,0.06122,-0.02413,0.00687
-0.41096,0.26234,0.87309,0.0576,-0.03522,0.02241
-0.41037,0.26671,0.87204,0.05806,-0.0446,0.02588
-0.4111,0.27024,0.87061,0.03397,-0.00153,0.02392
-0.41419,0.27288,0.86832,0.03485,-0.0018,0.00334
-0.41669,0.27478,0.86652,0.00486,0.02947,0.02876
-0.41862,0.27633,0.8651,-0.00525,-0.00225,-0.02217
-0.42091,0.27813,0.8634,-0.03546,0.00713,-0.00409
-0.42215,0.27916,0.86247,-0.04609,-9e-05,-0.05032
-0.42441,0.28038,0.86096,-0.00686,-0.02773,-0.03953
-0.42414,0.28367,0.86002,-0.02134,0.00825,-0.0055
-0.42347,0.28752,0.85907,-0.03976,0.04803,-0.00987
-0.42339,0.29108,0.85791,-0.04889,0.04678,-0.00937
-0.42307,0.29469,0.85683,-0.0205,0.01699,-0.03005
-0.42149,0.29893,0.85614,-0.01758,-0.01213,-0.00661
-0.42105,0.30345,0.85477,-0.01671,-0.00559,-0.00104
-0.42018,0.30799,0.85357,-0.01795,0.03289,-0.0067
-0.41862,0.31213,0.85283,-0.00928,0.00474,-0.03351
-0.41806,0.31596,0.8517,0.01538,-0.05437,-0.02711
-0.41688,0.32008,0.85074,-0.02264,-0.04522,-0.03376
-0.41554,0.32475,0.84962,-0.04011,0.02243,-0.0156
-0.41417,0.32878,0.84874,-0.0231,0.06557,-0.01994
-0.41165,0.33149,0.84891,-0.00494,0.05387,-0.03177
-0.40747,0.33316,0.85027,-0.00495,0.03198,-0.01942
-0.40238,0.33414,0.85231,-0.01466,0.01283,-0.00498
-0.39694,0.33585,0.85419,0.03884,0.05139,0.03648
-0.39064,0.33757,0.85641,0.04648,0.07375,0.03948
-0.38402,0.33916,0.85877,0.08994,0.10766,0.0333
-0.37791,0.33974,0.86125,0.10115,0.04716,0.04294
-0.37336,0.34089,0.86278,0.08165,0.03889,0.04732
-0.37062,0.34363,0.86288,0.05197,0.04637,0.03829
-0.36778,0.34755,0.86252,0.05282,0.05757,0.01446
-0.36299,0.35147,0.86296,0.06194,0.04931,-0.01611
-0.35759,0.35539,0.86361,0.07765,0.06496,-0.0097
-0.35291,0.35966,0.86377,0.05358,0.09514,-0.04753
-0.34946,0.3649,0.86297,0.02081,0.08101,-0.03718
-0.34619,0.3713,0.86155,0.00739,0.03889,-0.05318
-0.3426,0.377,0.86051,0.01202,-0.00432,-0.06269
-0.33883,0.38146,0.86004,0.01396,-0.03495,-0.05575
-0.3362,0.38499,0.8595,0.00839,-0.0353,-0.04191
-0.33461,0.3879,0.85882,-0.00136,-0.0537,-0.03701
-0.33287,0.38982,0.85862,-0.00826,-0.05892,-0.03135
-0.3309,0.39059,0.85903,-0.01322,-0.07858,-0.02054
-0.32961,0.39054,0.85955,-0.02217,-0.09652,-0.0245
-0.32876,0.38938,0.8604,-0.02343,-0.10477,-0.03469
-0.32807,0.38747,0.86153,0.00231,-0.12735,-0.00836
-0.32746,0.38533,0.86272,-0.00353,-0.12214,0.00142
-0.32721,0.38308,0.86381,-0.00834,-0.10681,0.00298
-0.32777,0.37961,0.86513,0.00023,-0.04463,0.02349
-0.33006,0.37455,0.86646,0.01063,-0.02876,0.02654
-0.33358,0.3693,0.86737,0.02633,-0.0412,0.02809
-0.33634,0.36557,0.86789,-0.02543,-0.02104,0.07958
-0.33897,0.36302,0.86793,-0.00856,-0.04026,0.01328
-0.33933,0.36179,0.8683,-0.06273,0.02809,0.09138
-0.34213,0.35919,0.86829,-0.05509,0.08078,-0.0062
-0.34486,0.35513,0.86887,-0.05888,0.05312,-0.00298
-0.34658,0.35003,0.87026,-0.05928,0.04581,-0.01832
-0.34732,0.34482,0.87204,-0.05388,0.02568,-0.06235
-0.34694,0.34106,0.87367,-0.03336,0.0181,-0.046
-0.34624,0.33812,0.87509,-0.02481,-0.01797,-0.04536
-0.34429,0.33631,0.87655,-0.00945,-0.04421,-0.02311
-0.34169,0.33543,0.87791,0.01422,-0.04525,0.00521
-0.33974,0.33481,0.8789,0.03708,-0.0387,0.01398
-0.33873,0.33445,0.87943,0.05171,-0.02899,0.01907
-0.33873,0.33413,0.87955,0.04045,-0.02123,0.03044
-0.34031,0.33354,0.87916,0.02146,-0.00665,-0.00369
-0.34346,0.33253,0.87832,0.01593,-0.02706,0.00596
-0.34653,0.33244,0.87715,-0.00383,0.01053,0.02883
-0.35031,0.33221,0.87573,-0.01556,0.02424,0.02583
-0.35518,0.33218,0.87378,-0.01313,0.01996,0.01268
-0.36009,0.33211,0.87179,-0.01231,-0.02826,-0.03186
-0.36314,0.33253,0.87037,-0.02709,-0.01431,-0.02961
-0.36546,0.33279,0.8693,-0.03467,-0.00065,-0.02234
-0.36794,0.33217,0.86849,-0.03398,-0.01458,-0.00575
-0.37048,0.3311,0.86782,-0.01754,-0.0312,0.0099
-0.37341,0.32974,0.86708,0.00673,-0.02871,0.02718
-0.37689,0.32788,0.86628,0.03176,-0.01747,0.01911
-0.38066,0.32638,0.86519,0.04156,-0.01869,0.00703
-0.38464,0.32563,0.86371,0.04765,-0.01029,0.00549
-0.38819,0.32544,0.8622,0.03081,0.01616,0.0161
-0.39091,0.32535,0.861,0.02044,0.02114,0.0125
-0.39298,0.32487,0.86024,-0.00032,0.00397,0.00051
-0.3942,0.32552,0.85943,-0.00791,0.01788,-0.02104
-0.39411,0.32725,0.85882,-0.00355,0.02139,-0.03213
-0.39156,0.32889,0.85936,0.00417,0.03601,-0.04068
-0.38813,0.3306,0.86026,0.01984,-0.00184,-0.00241
-0.38503,0.33243,0.86094,0.01456,-0.01767,0.002
-0.38209,0.33399,0.86165,-0.01421,-0.04465,-0.00717
-0.37902,0.33607,0.8622,-0.04125,-0.04666,-0.01262
-0.37656,0.33815,0.86246,-0.04372,-0.04874,-0.01288
-0.3753,0.33984,0.86234,0.00761,0.00595,0.01353
-0.37551,0.34171,0.86151,0.00854,0.01416,0.02148
-0.37593,0.34424,0.86032,0.00201,0.01742,0.0274
-0.37679,0.34695,0.85886,0.00274,0.00184,0.0078
-0.37809,0.34923,0.85736,0.03058,0.00447,-0.01285
-0.37994,0.35135,0.85567,0.04588,-0.00188,-0.02538
-0.38083,0.35355,0.85437,0.03449,-0.01012,-0.01913
-0.38149,0.35561,0.85322,-0.00518,-0.05616,0.00876
-0.38311,0.35786,0.85155,-0.02519,-0.08111,0.00924
-0.38438,0.35996,0.8501,-0.05617,-0.03512,0.017
-0.38586,0.36128,0.84886,-0.03033,0.02696,-0.00501
-0.38814,0.36219,0.84744,-0.01584,0.0384,-0.01492
-0.39125,0.36271,0.84578,0.01327,0.02391,0.01571
-0.39421,0.3632,0.8442,0.02098,0.01989,0.01776
-0.39583,0.36369,0.84323,0.00515,0.01298,0.00165
-0.39699,0.36448,0.84234,-0.00607,0.00767,-0.01647
-0.39744,0.36516,0.84183,-0.01619,0.00383,-0.01358
-0.397,0.36584,0.84175,-0.01386,0.00144,-0.00038
-0.3963,0.36647,0.8418,0.00981,-0.01369,0.01208
-0.39565,0.36703,0.84186,0.01331,-0.01813,0.00645
-0.39479,0.36778,0.84194,0.00783,-0.01955,0.00791
-0.39419,0.36882,0.84177,0.00899,-0.01165,0.00993
-0.39397,0.37016,0.84128,0.01088,-0.00622,0.01027
-0.39394,0.37162,0.84065,0.01812,-0.0092,0.00605
-0.39393,0.37284,0.84012,0.01996,-0.01595,-0.00053
-0.39396,0.37382,0.83967,0.01687,-0.02163,-0.00561
-0.3939,0.37467,0.83932,0.00615,-0.01612,-0.0081
-0.39367,0.37539,0.83911,-0.00579,-0.0089,-0.00865
-0.39357,0.37588,0.83893,-0.01671,-0.00314,-0.00159
-0.39371,0.37605,0.83879,-0.01833,-0.00727,-0.00212
-0.39391,0.37637,0.83855,-0.01504,-0.00586,-0.00543
-0.3942,0.37722,0.83804,-0.00879,0.00058,-0.00532
-0.39434,0.37819,0.83753,-0.00767,-0.00293,-0.00049
-0.39424,0.37912,0.83716,-0.00314,-0.00827,-0.00146
-0.39391,0.38013,0.83686,-0.00263,-0.01062,-0.00293
-0.39338,0.38126,0.83659,-0.00719,-0.01645,0.00467
-0.39275,0.38235,0.83639,-0.00471,-0.01613,0.00547
-0.39225,0.38339,0.83615,0.00031,-0.01399,0.0022
-0.392,0.38437,0.83581,0.00654,-0.00823,0.00113
-0.39197,0.38529,0.83541,0.00565,-0.00931,0.00059
-0.39215,0.38604,0.83497,0.00452,-0.00323,0.00042
-0.39255,0.38654,0.83456,0.00273,0.0023,-0.00038
-0.39294,0.38678,0.83426,0.00267,0.00299,-0.00244
-0.39331,0.38695,0.83401,0.00302,-0.00413,8e-05
-0.39372,0.38727,0.83366,0.00261,-0.00629,0.00053
-0.39415,0.38775,0.83324,0.00164,-0.0072,0.00082
-0.39441,0.38824,0.83289,-0.00245,-0.00865,0.00235
-0.39454,0.38866,0.83263,-0.00698,-0.01177,-0.00077
-0.39457,0.38896,0.83248,-0.00778,-0.01367,-0.00251
-0.39454,0.38917,0.83239,-0.00785,-0.01269,-0.00153
-0.39443,0.3894,0.83234,-0.00912,-0.01562,-0.00197
-0.39432,0.38969,0.83225,-0.01014,-0.01204,0.00124
-0.39436,0.38992,0.83213,-0.00326,-0.00876,-0.00146
-0.3945,0.39013,0.83196,0.00104,-0.00594,0.0002
-0.39467,0.39029,0.8318,0.00034,-0.00794,0.00032
-0.39478,0.39045,0.83168,-0.00151,-0.00802,0.00211
-0.39487,0.39061,0.83156,0.00121,-0.00882,0.00316
-0.39498,0.39083,0.83141,0.00284,-0.01142,0.00071
-0.39502,0.39111,0.83125,-0.00101,-0.01178,0.00369
-0.39497,0.39139,0.83115,0.00236,-0.01203,0.0023
-0.39494,0.39156,0.83108,0.00284,-0.00899,0.00152
-0.39497,0.39175,0.83098,-0.00066,-0.01144,-0.00082
-0.39504,0.39197,0.83084,-0.00127,-0.01245,0.00235
-0.39513,0.39215,0.83071,-0.00281,-0.00965,-0.00031
-0.39524,0.39229,0.8306,-0.00323,-0.01292,-0.00357
-0.39534,0.39243,0.83048,-0.00122,-0.0137,-0.00483
-0.39547,0.39266,0.83031,-0.00489,-0.01113,0.00042
-0.39565,0.39304,0.83004,-0.00645,-0.00555,-0.00044
-0.39574,0.3935,0.82979,-0.00579,-0.00435,0.00096
-0.39574,0.39376,0.82966,-0.00379,-0.01014,-0.00268
-0.39566,0.39395,0.8296,-0.00332,-0.01167,-0.00243
-0.39549,0.39419,0.82958,-0.00356,-0.01273,-0.00229
-0.39532,0.39439,0.82956,-0.00206,-0.01236,-0.00043
-0.3952,0.39462,0.82951,-0.00108,-0.00772,-0.00051
-0.39517,0.39485,0.82941,-0.00134,-0.00794,-0.00189
-0.39526,0.39499,0.8293,0.0011,-0.00833,-0.0008
-0.39532,0.39513,0.82921,-0.00049,-0.00969,-0.00131
-0.39532,0.39528,0.82914,-0.00541,-0.00976,0.00025
-0.39532,0.39536,0.8291,-0.0048,-0.00884,-0.00242
-0.39535,0.39538,0.82908,-0.00179,-0.00918,-0.00071
-0.39538,0.39541,0.82905,-0.00313,-0.00611,-0.00385
-0.39537,0.39546,0.82903,-0.0043,-0.00721,-0.00135
-0.3953,0.3955,0.82904,-0.00539,-0.00823,-0.00145
-0.39525,0.3955,0.82907,-0.007,-0.00945,-0.00094
-0.39527,0.39551,0.82905,-0.00711,-0.00988,-0.00232
-0.39527,0.39553,0.82904,-0.005,-0.00799,-0.00606
-0.39517,0.39552,0.82909,-0.00504,-0.00627,-0.00263
-0.39504,0.3955,0.82917,-0.00406,-0.00645,-0.00106
-0.39494,0.39547,0.82923,-0.0063,-0.00731,-0.00092
-0.39492,0.39543,0.82926,-0.0027,-0.00913,-0.00232
-0.39487,0.3954,0.82929,-0.00409,-0.00941,-0.00296
-0.39481,0.39534,0.82935,-0.00549,-0.00658,0.00131
-0.39473,0.39524,0.82944,-0.00348,-0.00501,-0.00116
-0.39471,0.39511,0.82951,-0.00265,-0.00654,-0.00151
-0.39467,0.395,0.82958,-0.00475,-0.00585,-0.00126
-0.39461,0.3949,0.82965,-0.00454,-0.00601,-0.00403
-0.39459,0.39476,0.82973,-0.00305,-0.00905,-0.00338
-0.39456,0.39464,0.8298,-0.0044,-0.00977,-0.00084
-0.39454,0.39457,0.82985,-0.00947,-0.00778,-0.00014
-0.39456,0.39445,0.8299,-0.00607,-0.00624,-0.0027
-0.39457,0.39428,0.82997,-0.00502,-0.00714,-0.00094
-0.39461,0.39415,0.83001,-0.00632,-0.00578,-0.00287
-0.39465,0.39402,0.83005,-0.00479,-0.0062,-0.00306
-0.39462,0.39391,0.83012,-0.0042,-0.00581,-0.00224
-0.39454,0.39372,0.83025,-0.00373,-0.00795,-0.0026
-0.3945,0.39352,0.83037,-0.0068,-0.00968,-0.0047
-0.39444,0.39334,0.83047,-0.00855,-0.00795,-0.00372
-0.39437,0.39316,0.8306,-0.00698,-0.00377,-0.00269
-0.39437,0.39294,0.8307,-0.00691,-0.00691,-0.00532
-0.39439,0.39275,0.83078,-0.00512,-0.00504,-0.00501
-0.39434,0.39258,0.83088,-0.0042,-0.00298,-0.00167
-0.39429,0.39239,0.831,-0.00891,-0.00462,-0.00355
-0.39419,0.39226,0.83111,-0.00733,-0.00929,-0.00353
-0.39407,0.39213,0.83122,-0.00699,-0.00753,-0.00301
-0.394,0.39198,0.83133,-0.0059,-0.00822,-0.00397
-0.39391,0.39178,0.83146,-0.00868,-0.00719,-0.00276
-0.39388,0.39161,0.83156,-0.00804,-0.00472,-0.00428
-0.39387,0.39141,0.83166,-0.00649,-0.00192,-0.0051
-0.39382,0.39121,0.83178,-0.00796,-0.00361,-0.00484
-0.39375,0.39103,0.83189,-0.00687,-0.00584,-0.0039
-0.39365,0.39088,0.83201,-0.00704,-0.00671,-0.0036
-0.39352,0.39075,0.83213,-0.00851,-0.00535,-0.00616
-0.39342,0.39062,0.83225,-0.00702,-0.00613,-0.00379
-0.39333,0.39051,0.83234,-0.00887,-0.00483,-0.00714
-0.39325,0.39041,0.83242,-0.00806,-0.00465,-0.00445
-0.39316,0.39031,0.83251,-0.00863,-0.00599,-0.00301
-0.39305,0.39019,0.83262,-0.00703,-0.00432,-0.00758
-0.39298,0.39005,0.83272,-0.00767,-0.00452,-0.00616
-0.39287,0.38991,0.83283,-0.00781,-0.00579,-0.00617
-0.39275,0.38978,0.83295,-0.00584,-0.00303,-0.00426
-0.39267,0.38966,0.83305,-0.00749,-0.00384,-0.0069
-0.39255,0.38957,0.83315,-0.00711,-0.00312,-0.0054
-0.39241,0.38952,0.83323,-0.00793,-0.00466,-0.00317
-0.39232,0.38951,0.83328,-0.01022,-0.00278,-0.00572
-0.39227,0.38949,0.83331,-0.00919,-0.00237,-0.00713
-0.39215,0.38941,0.8334,-0.00786,-0.0062,-0.00752
-0.39199,0.38936,0.8335,-0.00963,-0.00534,-0.00617
-0.39188,0.38931,0.83358,-0.00937,-0.00322,-0.00611
-0.39182,0.38926,0.83363,-0.00834,-1e-05,-0.00639
-0.39173,0.38918,0.83371,-0.00746,-0.00156,-0.00539
-0.39164,0.38903,0.83383,-0.00892,-0.00381,-0.00753
-0.39153,0.38891,0.83393,-0.00972,-0.00285,-0.00926
-0.39142,0.3888,0.83404,-0.01048,-0.0008,-0.00606
-0.39132,0.38869,0.83413,-0.00866,-0.001,-0.007
-0.39115,0.38856,0.83427,-0.00948,-0.00178,-0.00795
-0.39096,0.38842,0.83443,-0.00791,-0.00307,-0.00568
-0.39079,0.38822,0.8346,-0.00902,-0.00416,-0.00704
-0.39062,0.38802,0.83478,-0.00896,-0.00217,-0.00773
-0.39046,0.3878,0.83496,-0.00999,-0.00172,-0.00787
-0.39028,0.38756,0.83515,-0.0091,-0.00119,-0.00681
-0.39013,0.38735,0.83532,-0.00982,-0.00222,-0.00647
-0.38994,0.38714,0.8355,-0.01036,-0.00073,-0.00811
-0.38974,0.38695,0.83569,-0.01113,-8e-05,-0.00878
-0.38953,0.38674,0.83588,-0.01264,-0.00138,-0.0065
-0.38932,0.38654,0.83607,-0.01137,-0.00194,-0.00481
-0.3891,0.38637,0.83625,-0.01245,-0.0029,-0.00471
-0.38889,0.38619,0.83643,-0.00863,-0.00161,-0.00762
-0.38868,0.38602,0.8366,-0.00838,-0.00141,-0.00572
-0.38849,0.3859,0.83675,-0.00851,-0.00129,-0.00835
-0.38826,0.38572,0.83694,-0.01315,-0.00256,-0.0061
-0.38806,0.38554,0.83712,-0.01119,-0.00105,-0.00982
-0.38792,0.38535,0.83727,-0.01174,-0.00148,-0.00609
-0.38775,0.38518,0.83742,-0.01059,-0.00142,-0.0096
-0.38757,0.38502,0.83758,-0.00984,0.00132,-0.00677
-0.3874,0.38486,0.83774,-0.00916,0.0024,-0.00738
-0.38723,0.38469,0.83789,-0.01107,-0.00012,-0.00787
-0.38708,0.38453,0.83803,-0.01235,-0.0003,-0.01186
-0.38692,0.38438,0.83817,-0.0121,-0.00096,-0.00806
-0.38675,0.38428,0.8383,-0.01138,-0.00087,-0.00866
-0.38661,0.38416,0.83841,-0.01239,-0.00054,-0.00754
-0.38646,0.38404,0.83854,-0.01128,0.0003,-0.00987
-0.38628,0.38389,0.83869,-0.01216,0.00022,-0.01054
-0.38613,0.38374,0.83883,-0.01184,-0.00056,-0.0059
-0.38603,0.38362,0.83893,-0.01232,-3e-05,-0.00672
-0.38596,0.38354,0.839,-0.01472,0.00124,-0.00978
-0.38586,0.38347,0.83908,-0.01226,-0.00045,-0.0125
-0.38568,0.3834,0.83919,-0.01122,-0.00101,-0.01087
-0.38553,0.38331,0.8393,-0.01141,0.00041,-0.012
-0.38542,0.38323,0.83939,-0.0089,-0.00065,-0.00989
-0.38528,0.38312,0.8395,-0.01068,0.00067,-0.01146
-0.38516,0.38298,0.83963,-0.01322,0.0016,-0.0076
-0.38509,0.38283,0.83973,-0.01323,0.00248,-0.00969
-0.38502,0.38272,0.8398,-0.01346,0.00271,-0.00985
-0.38497,0.38264,0.83986,-0.01229,-0.00041,-0.01206
-0.3849,0.38255,0.83994,-0.01279,0.00062,-0.01131
-0.38479,0.38249,0.84002,-0.01069,-0.00027,-0.01325
-0.38471,0.38244,0.84007,-0.01254,-0.00032,-0.0107
-0.38467,0.38243,0.8401,-0.01574,0.00249,-0.01049
-0.38466,0.3824,0.84011,-0.01164,0.00052,-0.0084
-0.38465,0.38237,0.84013,-0.01299,0.00163,-0.0123
-0.38464,0.38239,0.84013,-0.01574,0.00521,-0.01194
-0.38463,0.38246,0.8401,-0.0126,0.00269,-0.01184
-0.38457,0.38253,0.8401,-0.01265,0.00108,-0.01071
-0.38449,0.38258,0.84011,-0.01543,0.00049,-0.01107
-0.38442,0.38269,0.84009,-0.0124,0.00034,-0.01178
-0.38437,0.3828,0.84006,-0.01097,-0.00025,-0.00913
-0.38431,0.38293,0.84004,-0.01194,0.00074,-0.01107
-0.38419,0.38311,0.84001,-0.01112,0.00264,-0.01034
-0.38404,0.38329,0.83999,-0.01362,0.00109,-0.0093
-0.38385,0.38341,0.84003,-0.01407,0.0005,-0.01097
-0.38359,0.3835,0.8401,-0.01601,0.00119,-0.01169
-0.38326,0.38352,0.84025,-0.01544,0.00865,-0.01357
-0.38286,0.38344,0.84047,-0.01013,0.00856,-0.01359
-0.38249,0.38323,0.84072,-0.01271,0.00923,-0.01361
-0.3821,0.38299,0.84101,-0.01102,0.0035,-0.01104
-0.38167,0.38278,0.8413,-0.0122,0.00123,-0.01443
-0.3811,0.38249,0.84169,-0.01933,0.00638,-0.00814
-0.3803,0.38166,0.84244,-0.02545,0.00776,-0.00984
-0.37946,0.38019,0.84348,-0.01326,0.00013,-0.00609
-0.3788,0.37857,0.8445,-0.00403,0.00264,-0.01273
-0.37826,0.37717,0.84537,-0.00283,-0.00063,-0.0164
-0.37771,0.37634,0.84598,-0.00769,-0.0,-0.01302
-0.37731,0.37603,0.8463,-0.0131,-0.00534,-0.00117
-0.37728,0.37591,0.84637,-0.01538,-0.00889,-0.00605
-0.3774,0.37589,0.84632,-0.01493,-0.00242,-0.0148
-0.37749,0.37607,0.8462,-0.0152,0.00433,-0.01864
-0.37742,0.37647,0.84606,-0.02208,-0.00321,-0.01543
-0.37729,0.37701,0.84587,-0.02182,-0.00543,-0.01178
-0.37695,0.37768,0.84573,-0.0169,-0.00283,-0.01165
-0.37654,0.37854,0.84552,-0.01621,0.00109,-0.00937
-0.37654,0.37947,0.84511,-0.01593,0.00113,-0.00656
-0.37669,0.3804,0.84462,-0.01319,0.00238,-0.00899
-0.37652,0.38142,0.84424,-0.01122,0.01031,-0.01895
-0.37631,0.38265,0.84378,-0.0101,0.00885,-0.01606
-0.37622,0.3841,0.84316,-0.01439,0.00819,-0.01087
-0.37618,0.38556,0.84251,-0.01211,0.00857,-0.00984
-0.37636,0.38691,0.84181,-0.0137,-0.0003,-0.00772
-0.37683,0.38844,0.8409,-0.01214,-0.00503,-0.00421
-0.37727,0.3902,0.83988,-0.00972,-0.00629,-0.00818
-0.37788,0.39227,0.83864,-0.01821,0.00122,-0.00794
-0.37847,0.3944,0.83738,-0.02397,0.00177,-0.01038
-0.37898,0.3965,0.83615,-0.01927,0.0022,-0.01212
-0.37928,0.39876,0.83494,-0.0006,0.00353,-0.01684
-0.37899,0.40109,0.83395,-0.00227,0.00267,-0.01083
-0.37854,0.40336,0.83307,-0.01067,0.0044,-0.00523
-0.37829,0.40567,0.83206,-0.0104,-0.00023,-0.01133
-0.37801,0.40798,0.83105,-0.008,-0.0011,-0.01319
-0.37719,0.4105,0.83018,-0.00237,-0.00082,-0.01649
-0.37626,0.4132,0.82927,-0.01387,0.01766,-0.0076
-0.37611,0.41561,0.82813,-0.01409,0.02651,-0.00861
-0.37651,0.41746,0.82702,-0.02089,0.00843,-0.02253
-0.37698,0.41921,0.82591,-0.02111,-0.00184,-0.01804
-0.37776,0.42102,0.82464,-0.02173,-0.00151,-0.01603
-0.37877,0.42272,0.8233,-0.02627,-0.0028,-0.01323
-0.37967,0.42438,0.82203,-0.03115,-0.00917,-0.01001
-0.38046,0.42627,0.82069,-0.02904,0.00116,-0.01038
-0.38104,0.4282,0.81941,-0.02791,0.00826,-0.0121
-0.38147,0.4301,0.81822,-0.02767,0.00853,-0.01214
-0.38192,0.43181,0.81711,-0.01762,0.00885,-0.01187
-0.38242,0.43331,0.81607,-0.01765,0.00475,-0.01943
-0.3828,0.43471,0.81515,-0.01944,0.01154,-0.02909
-0.3828,0.43607,0.81443,-0.01739,0.01369,-0.02445
-0.38259,0.43742,0.8138,-0.01951,0.01757,-0.01195
-0.38238,0.43849,0.81332,-0.02042,0.01492,-0.00985
-0.38221,0.43935,0.81294,-0.02076,0.00944,-0.01788
-0.38173,0.44019,0.81271,-0.02072,0.00334,-0.01892
-0.38113,0.44116,0.81246,-0.02073,0.00897,-0.0201
-0.38039,0.44214,0.81228,-0.01606,0.00171,-0.01531
-0.37955,0.44293,0.81224,-0.01288,0.00117,-0.02043
-0.37843,0.4437,0.81235,-0.00756,-0.00019,-0.01469
-0.37723,0.44452,0.81245,-0.00385,0.00123,-0.01456
-0.37625,0.44547,0.81239,-0.00354,-0.00441,-0.00244
-0.37557,0.44656,0.81211,-0.00479,-0.00837,-0.00234
-0.37504,0.44786,0.81163,-0.0093,-0.00144,-0.00289
-0.37447,0.44917,0.81117,-0.00477,0.00725,-0.00586
-0.37399,0.45018,0.81084,0.00038,0.01811,-0.02101
-0.3738,0.45098,0.81048,0.00201,0.01842,-0.02123
-0.3738,0.45162,0.81012,0.0017,0.01448,-0.0196
-0.37386,0.45211,0.80982,-0.00694,0.01251,-0.01699
-0.37385,0.45254,0.80959,-0.01374,0.01188,-0.01801
-0.3738,0.45291,0.8094,-0.01253,0.00876,-0.01608
-0.3738,0.45329,0.80919,-0.00132,0.00895,-0.01439
-0.37376,0.45372,0.80897,-0.00279,0.00807,-0.0139
-0.3733,0.45425,0.80889,0.00521,0.01435,-0.01265
-0.3732,0.45469,0.80868,-0.0142,0.01324,-0.01826
-0.37286,0.45504,0.80864,-0.01993,0.01384,-0.01634
-0.37229,0.45532,0.80875,-0.01899,0.00864,-0.01929
-0.37161,0.45561,0.8089,-0.02035,0.00319,-0.01811
-0.37106,0.45585,0.80902,-0.02217,-0.0038,-0.01371
-0.37062,0.45608,0.80908,-0.0247,-0.00739,-0.00867
-0.37033,0.45636,0.80906,-0.02325,-0.00291,-0.004
-0.37017,0.45665,0.80897,-0.01994,-3e-05,-0.00711
-0.37014,0.45703,0.80877,-0.01913,0.0055,-0.0138
-0.37009,0.45744,0.80856,-0.01994,0.00575,-0.01782
-0.36998,0.45776,0.80843,-0.01485,0.00553,-0.01796
-0.36992,0.45793,0.80837,-0.01068,0.01188,-0.01659
-0.36976,0.45795,0.80842,-0.0087,0.0116,-0.0154
-0.36981,0.45789,0.80844,-0.00751,0.01192,-0.01162
-0.37014,0.45779,0.80834,-0.00421,0.01504,-0.01315
-0.37045,0.45762,0.80829,-0.00656,0.01556,-0.01296
-0.37082,0.45744,0.80823,-0.01478,0.0154,-0.0155
-0.37124,0.45711,0.80822,-0.0188,0.00967,-0.0165
-0.37157,0.45672,0.80829,-0.01899,0.00794,-0.01706
-0.37179,0.45639,0.80837,-0.02157,0.00438,-0.01414
-0.37191,0.45609,0.80849,-0.02314,0.00316,-0.01378
-0.37189,0.45583,0.80864,-0.0219,0.00502,-0.01563
-0.37178,0.45568,0.80878,-0.02098,0.0043,-0.01183
-0.37165,0.45558,0.8089,-0.01682,0.00992,-0.0109
-0.37152,0.45555,0.80897,-0.01466,0.00782,-0.013
-0.37143,0.45548,0.80905,-0.01662,0.00748,-0.01349
-0.37144,0.4554,0.8091,-0.01108,0.00626,-0.01929
-0.37145,0.45536,0.80911,-0.0135,0.00729,-0.01477
-0.37144,0.45531,0.80914,-0.01222,0.00802,-0.01744
-0.37147,0.45523,0.80917,-0.01366,0.00966,-0.01117
-0.37165,0.45514,0.80914,-0.01019,0.01243,-0.01077
-0.37202,0.45498,0.80906,-0.00779,0.01552,-0.00839
-0.37273,0.45485,0.80881,-0.01165,0.01413,-0.01516
-0.37354,0.4546,0.80858,-0.01318,0.01115,-0.01573
-0.37425,0.45434,0.80839,-0.02019,0.00215,-0.01657
-0.37481,0.4542,0.80821,-0.01438,0.00846,-0.01233
-0.37547,0.45417,0.80793,-0.00939,0.01158,-0.0103
-0.37631,0.45408,0.80758,-0.01157,0.00657,-0.0126
-0.37717,0.45393,0.80727,-0.01951,0.00625,-0.01665
-0.37783,0.45378,0.80704,-0.01925,0.00252,-0.0217
-0.37827,0.4537,0.80688,-0.02122,0.00545,-0.02252
-0.37859,0.45369,0.80674,-0.02264,0.00725,-0.01665
-0.37875,0.45369,0.80666,-0.02346,0.00711,-0.01472
-0.37877,0.45363,0.80668,-0.02462,0.00752,-0.01346
-0.37881,0.4536,0.80669,-0.01571,0.00767,-0.01649
-0.37884,0.45355,0.8067,-0.01313,0.00946,-0.01782
-0.37888,0.45345,0.80674,-0.01442,0.00906,-0.01755
-0.37896,0.45328,0.8068,-0.01345,0.00855,-0.01548
-0.37907,0.45309,0.80685,-0.01236,0.01118,-0.01153
-0.37922,0.4529,0.80689,-0.01015,0.0135,-0.01145
-0.37938,0.45268,0.80693,-0.01155,0.00992,-0.01416
-0.37951,0.45247,0.80699,-0.01767,0.00578,-0.01866
-0.37969,0.45232,0.80699,-0.01745,0.0047,-0.01816
-0.3798,0.45221,0.807,-0.01768,0.00708,-0.0178
-0.37973,0.45212,0.80708,-0.02307,0.00453,-0.01214
-0.37951,0.45204,0.80723,-0.02699,0.00842,-0.01368
-0.37933,0.45196,0.80736,-0.02016,0.00209,-0.01433
-0.37915,0.45196,0.80744,-0.02072,-0.00021,-0.01286
-0.37887,0.45218,0.80745,-0.02397,0.00202,-0.01358
-0.37843,0.45251,0.80748,-0.01991,0.0109,-0.02414
-0.37786,0.45279,0.80758,-0.01423,0.01258,-0.02569
-0.37727,0.45317,0.80765,-0.00694,0.00273,-0.01482
-0.37661,0.45366,0.80768,-0.01437,0.00427,-0.00615
-0.37598,0.45412,0.80772,-0.0155,0.00575,-0.00713
-0.37566,0.45454,0.80763,-0.00973,0.00315,-0.00807
-0.37552,0.45506,0.8074,-0.01301,0.00418,-0.0075
-0.3754,0.4558,0.80704,-0.01844,0.00419,-0.00685
-0.37532,0.45658,0.80663,-0.02022,0.0127,-0.01087
-0.37538,0.45732,0.80619,-0.02025,0.00873,-0.01855
-0.37548,0.45814,0.80568,-0.02209,0.00487,-0.02102
-0.37539,0.45905,0.8052,-0.02308,0.00557,-0.02046
-0.37505,0.45986,0.80489,-0.0153,0.01522,-0.02111
-0.37471,0.46057,0.80465,-0.01792,0.01068,-0.01555
-0.37465,0.46129,0.80426,-0.02067,0.01066,-0.01143
-0.37489,0.46199,0.80375,-0.01444,0.02113,-0.01578
-0.37506,0.46258,0.80333,-0.01184,0.0139,-0.01875
-0.37525,0.46295,0.80303,-0.00326,0.0116,-0.02378
-0.3755,0.46311,0.80282,0.0027,0.0128,-0.02169
-0.37581,0.46313,0.80267,-0.00046,0.01359,-0.01946
-0.37614,0.46306,0.80255,-0.01001,0.01171,-0.01955
-0.3764,0.46288,0.80253,-0.01098,0.00988,-0.01835
-0.37663,0.46257,0.80261,-0.00933,0.0112,-0.01878
-0.37677,0.46214,0.80278,-0.00882,0.0061,-0.02021
-0.37679,0.46172,0.80302,-0.01719,0.00369,-0.01869
-0.37672,0.46135,0.80326,-0.01959,0.00953,-0.01415
-0.3767,0.46094,0.8035,-0.01946,0.01087,-0.01606
-0.37672,0.4605,0.80375,-0.01581,0.00561,-0.0178
-0.37673,0.46015,0.80394,-0.01433,0.0062,-0.01735
-0.37671,0.45991,0.80409,-0.01574,0.01418,-0.01507
-0.37665,0.45967,0.80426,-0.01201,0.01752,-0.01619
-0.37671,0.45943,0.80436,-0.00891,0.01666,-0.01358
-0.37725,0.45929,0.8042,-0.01796,0.00892,-0.01022
-0.37794,0.45923,0.8039,-0.02289,0.00343,-0.01345
-0.37842,0.45918,0.80371,-0.01918,0.0085,-0.01654
-0.37875,0.45914,0.80357,-0.0146,0.0088,-0.02064
-0.37896,0.45915,0.80347,-0.01723,0.00415,-0.01924
-0.37914,0.45916,0.80338,-0.01899,0.00617,-0.01665
-0.37942,0.45905,0.80331,-0.01731,0.01096,-0.01654
-0.37973,0.45887,0.80327,-0.01405,0.00952,-0.01851
-0.37994,0.45869,0.80327,-0.01488,0.01192,-0.01909
-0.38012,0.45853,0.80328,-0.01902,0.01346,-0.0146
-0.38029,0.45837,0.80329,-0.02289,0.01116,-0.01775
-0.38041,0.45816,0.80335,-0.0252,0.00935,-0.01674
-0.38045,0.45802,0.80341,-0.01958,0.01061,-0.01795
-0.38023,0.45793,0.80356,-0.02124,0.0085,-0.0183
-0.3799,0.45786,0.80376,-0.02192,0.00848,-0.01769
-0.37969,0.45773,0.80394,-0.01675,0.00419,-0.018
-0.37945,0.45757,0.80414,-0.0131,0.0093,-0.01782
-0.3792,0.45745,0.80432,-0.01366,0.00979,-0.01674
-0.37902,0.45739,0.80444,-0.01327,0.00804,-0.01505
-0.37896,0.45724,0.80456,-0.01421,0.00989,-0.01583
-0.37898,0.4571,0.80463,-0.01423,0.00861,-0.01625
-0.37898,0.45702,0.80467,-0.01533,0.00815,-0.01978
-0.3789,0.45692,0.80477,-0.01543,0.01218,-0.01947
-0.37876,0.45675,0.80493,-0.01742,0.01237,-0.02008
-0.3786,0.45656,0.80511,-0.01515,0.00694,-0.01829
-0.37846,0.45643,0.80525,-0.01799,0.00962,-0.01404
-0.37831,0.45625,0.80543,-0.01821,0.00872,-0.01409
-0.37823,0.45604,0.80558,-0.01923,0.00995,-0.01567
-0.37821,0.45587,0.80568,-0.01572,0.00987,-0.01926
-0.37813,0.45575,0.80579,-0.01668,0.01006,-0.01585
-0.37802,0.45564,0.8059,-0.01698,0.01004,-0.01611
-0.37799,0.45552,0.80599,-0.01465,0.01166,-0.01796
-0.37793,0.45538,0.8061,-0.01542,0.00709,-0.01871
-0.3778,0.45527,0.80622,-0.01456,0.00589,-0.01779
-0.37769,0.45517,0.80632,-0.01799,0.01048,-0.01598
-0.37767,0.45507,0.80639,-0.01741,0.00938,-0.01664
-0.37765,0.45494,0.80647,-0.01592,0.01353,-0.0172
-0.37762,0.45481,0.80656,-0.0174,0.01082,-0.01874
-0.37762,0.45468,0.80663,-0.01683,0.01029,-0.01834
-0.37756,0.45453,0.80674,-0.01428,0.01353,-0.01648
-0.37751,0.45437,0.80686,-0.01496,0.01116,-0.01807
-0.37744,0.45422,0.80698,-0.01637,0.01264,-0.01647
-0.37742,0.45409,0.80706,-0.01948,0.01193,-0.0153
-0.37739,0.45394,0.80716,-0.01628,0.01127,-0.01736
-0.37736,0.45379,0.80726,-0.01722,0.01013,-0.0183
-0.37735,0.45372,0.8073,-0.02282,0.00905,-0.01389
-0.37736,0.45368,0.80732,-0.01932,0.01224,-0.01667
-0.37729,0.45363,0.80739,-0.01813,0.01349,-0.01893
-0.37714,0.45352,0.80751,-0.01717,0.01109,-0.0179
-0.3771,0.45343,0.80759,-0.01517,0.01149,-0.01645
-0.37704,0.45331,0.80768,-0.01608,0.011,-0.01724
-0.37699,0.45321,0.80776,-0.01594,0.01044,-0.01862
-0.37694,0.45311,0.80784,-0.01739,0.01181,-0.01966
-0.37682,0.45302,0.80794,-0.01819,0.01006,-0.02006
-0.37672,0.45289,0.80806,-0.01888,0.01194,-0.01956
-0.37663,0.45276,0.80818,-0.0152,0.01234,-0.01729
-0.37652,0.45256,0.80835,-0.01196,0.01233,-0.01855
-0.37644,0.45239,0.80847,-0.01258,0.01041,-0.01594
-0.37642,0.45232,0.80852,-0.01848,0.00993,-0.01514
-0.37642,0.45222,0.80858,-0.0199,0.01034,-0.01778
-0.37644,0.45214,0.80862,-0.0166,0.00904,-0.02024
-0.3764,0.45206,0.80868,-0.01761,0.01312,-0.02054
-0.37635,0.45198,0.80875,-0.01673,0.01546,-0.01961
-0.37631,0.45187,0.80882,-0.01753,0.01634,-0.01855
-0.37624,0.45175,0.80892,-0.01988,0.01285,-0.01974
-0.37615,0.45166,0.80902,-0.02056,0.01098,-0.01769
-0.37609,0.45164,0.80906,-0.02175,0.00993,-0.01808
-0.37599,0.45158,0.80914,-0.02021,0.00871,-0.01757
-0.37582,0.45151,0.80926,-0.01828,0.01076,-0.018
-0.37563,0.45144,0.80938,-0.01713,0.01123,-0.01652
-0.37548,0.4514,0.80947,-0.01571,0.01352,-0.01823
-0.3754,0.45135,0.80954,-0.01675,0.01265,-0.0155
-0.37536,0.45132,0.80958,-0.01943,0.0113,-0.01789
-0.37528,0.45132,0.80961,-0.02084,0.01161,-0.01839
-0.37521,0.45131,0.80965,-0.0173,0.01274,-0.02277
-0.37519,0.45122,0.80971,-0.01251,0.01235,-0.02291
-0.37517,0.45116,0.80976,-0.0162,0.01122,-0.01679
-0.37513,0.45114,0.80979,-0.01967,0.01525,-0.01595
-0.37509,0.45113,0.80981,-0.01941,0.01306,-0.01994
-0.37508,0.45115,0.8098,-0.01895,0.01012,-0.01711
-0.37504,0.45116,0.80982,-0.02029,0.00832,-0.01474
-0.37499,0.4511,0.80987,-0.01887,0.01139,-0.0205
-0.37493,0.45102,0.80994,-0.0158,0.01262,-0.0205
-0.3749,0.45096,0.80999,-0.01645,0.01431,-0.01852
-0.37489,0.45091,0.81003,-0.01705,0.01208,-0.02061
-0.37491,0.45083,0.81006,-0.02026,0.0138,-0.01892
-0.37496,0.45076,0.81007,-0.01809,0.01312,-0.01999
-0.37496,0.45067,0.81013,-0.01891,0.01259,-0.01992
-0.37494,0.45055,0.8102,-0.01735,0.0123,-0.01902
-0.37495,0.45042,0.81027,-0.01369,0.00987,-0.01878
-0.3749,0.45033,0.81034,-0.0167,0.01056,-0.01815
-0.37492,0.45028,0.81036,-0.02009,0.01145,-0.01681
-0.37497,0.45026,0.81035,-0.02182,0.01019,-0.01906
-0.37498,0.45025,0.81035,-0.02019,0.00799,-0.01805
-0.37499,0.45027,0.81034,-0.01944,0.0097,-0.02053
-0.37499,0.45028,0.81033,-0.0192,0.01513,-0.01904
-0.375,0.45029,0.81032,-0.01763,0.01402,-0.01984
-0.37497,0.45029,0.81033,-0.01646,0.01387,-0.01848
-0.37495,0.45031,0.81033,-0.01801,0.01411,-0.01962
-0.37497,0.45031,0.81032,-0.01895,0.01349,-0.01918
-0.37501,0.4503,0.81031,-0.01792,0.0139,-0.02173
-0.37502,0.45027,0.81032,-0.01904,0.01185,-0.02139
-0.37501,0.45024,0.81034,-0.019,0.01428,-0.01996
-0.375,0.45021,0.81036,-0.01932,0.01163,-0.02098
-0.37492,0.45015,0.81042,-0.01593,0.01176,-0.02072
-0.37486,0.45013,0.81047,-0.01837,0.01322,-0.01641
-0.37486,0.45017,0.81045,-0.01851,0.01336,-0.01757
-0.37486,0.45013,0.81047,-0.01851,0.0134,-0.01759
-0.37489,0.45013,0.81046,-0.0183,0.01181,-0.01906
-0.37487,0.45013,0.81046,-0.0183,0.01122,-0.01937
-0.37484,0.45012,0.81048,-0.01925,0.01289,-0.02163
-0.37479,0.45013,0.8105,-0.01891,0.01134,-0.01808
-0.37476,0.45015,0.81051,-0.01903,0.01312,-0.01717
-0.37478,0.45019,0.81047,-0.01811,0.01509,-0.01869
-0.37477,0.45029,0.81042,-0.01888,0.01414,-0.01929
-0.37476,0.45038,0.81038,-0.02038,0.01285,-0.01863
-0.37478,0.45038,0.81037,-0.01723,0.01368,-0.02101
-0.3748,0.45036,0.81037,-0.01782,0.012,-0.02113
-0.37478,0.45033,0.81039,-0.01642,0.01403,-0.01875
-0.37476,0.4503,0.81042,-0.01725,0.01509,-0.01969
-0.37476,0.45024,0.81045,-0.01917,0.01405,-0.02052
-0.37477,0.4502,0.81047,-0.01809,0.01434,-0.02024
-0.37477,0.45013,0.81051,-0.01877,0.01378,-0.02178
-0.37478,0.45006,0.81054,-0.01762,0.01297,-0.02107
-0.37479,0.44999,0.81058,-0.01849,0.0114,-0.02015
-0.3748,0.44993,0.81061,-0.01764,0.01179,-0.02054
-0.37477,0.44989,0.81064,-0.01862,0.01151,-0.01816
-0.37477,0.44987,0.81065,-0.0176,0.01341,-0.01852
-0.37478,0.44988,0.81064,-0.01898,0.01284,-0.016
-0.37481,0.44991,0.81061,-0.0187,0.01156,-0.01937
-0.37485,0.44994,0.81057,-0.02082,0.01217,-0.02098
-0.37488,0.44998,0.81054,-0.01851,0.0144,-0.02248
-0.37482,0.45,0.81056,-0.01762,0.01741,-0.0209
-0.37475,0.44999,0.81059,-0.01861,0.01651,-0.01852
-0.37472,0.45005,0.81057,-0.01928,0.01275,-0.02204
-0.37468,0.4501,0.81056,-0.02062,0.01276,-0.02022
-0.37461,0.45012,0.81059,-0.01881,0.01602,-0.02017
-0.37455,0.45009,0.81063,-0.01588,0.01393,-0.02039
-0.37454,0.45001,0.81068,-0.01616,0.01581,-0.01974
-0.37454,0.45,0.81068,-0.01862,0.0146,-0.01822
-0.37454,0.45004,0.81066,-0.02036,0.01268,-0.01597
-0.37454,0.45001,0.81068,-0.02083,0.01289,-0.02209
-0.37452,0.44999,0.8107,-0.01787,0.01338,-0.02171
-0.37448,0.44994,0.81074,-0.0165,0.01482,-0.02287
-0.37445,0.44992,0.81077,-0.01786,0.01523,-0.01971
-0.37444,0.44991,0.81078,-0.01733,0.01382,-0.01822
-0.3744,0.44992,0.8108,-0.01771,0.01355,-0.02029
-0.37445,0.44996,0.81075,-0.02133,0.01251,-0.02124
-0.37452,0.44999,0.8107,-0.01891,0.01203,-0.02014
-0.37447,0.44994,0.81075,-0.01961,0.01237,-0.0212
-0.37446,0.44995,0.81075,-0.0195,0.01725,-0.01806
-0.37455,0.44998,0.81069,-0.01832,0.0164,-0.01873
-0.37457,0.45002,0.81066,-0.01654,0.01512,-0.02216
-0.37454,0.45007,0.81065,-0.02173,0.01062,-0.01954
-0.37453,0.45011,0.81063,-0.01903,0.01376,-0.0215
-0.37451,0.45007,0.81066,-0.01807,0.01273,-0.02226
-0.37447,0.45001,0.81071,-0.01669,0.01301,-0.01947
-0.37445,0.44996,0.81075,-0.01755,0.01554,-0.01999
-0.37443,0.44989,0.81079,-0.01903,0.01545,-0.0212
-0.3744,0.4498,0.81086,-0.01798,0.01629,-0.02051
-0.37438,0.44973,0.81091,-0.01934,0.01424,-0.01965
-0.37438,0.44971,0.81092,-0.02053,0.01275,-0.02021
-0.37433,0.44963,0.81099,-0.01756,0.01429,-0.02084
-0.37428,0.44955,0.81106,-0.018,0.01246,-0.02024
-0.37418,0.44949,0.81114,-0.01884,0.01468,-0.0205
-0.37404,0.44948,0.8112,-0.01916,0.01384,-0.02001
-0.37391,0.4495,0.81126,-0.02047,0.01207,-0.01992
-0.37381,0.44952,0.81129,-0.01996,0.01303,-0.01633
-0.37383,0.44952,0.81128,-0.01962,0.0165,-0.01844
-0.37392,0.44946,0.81127,-0.01945,0.01549,-0.02077
-0.37394,0.4494,0.81129,-0.01889,0.01506,-0.02315
-0.37393,0.44934,0.81133,-0.01762,0.01605,-0.02062
-0.37394,0.44929,0.81136,-0.01794,0.0151,-0.02007
-0.37394,0.44921,0.8114,-0.0192,0.01173,-0.02034
-0.37393,0.44912,0.81146,-0.01954,0.01267,-0.02137
-0.37387,0.44903,0.81154,-0.01909,0.01326,-0.02204
-0.37379,0.44898,0.8116,-0.02117,0.01355,-0.01791
-0.37364,0.44891,0.8117,-0.02107,0.01137,-0.01979
-0.37347,0.44886,0.81181,-0.01913,0.01156,-0.02206
-0.37335,0.44885,0.81187,-0.01987,0.01079,-0.0207
-0.37323,0.44886,0.81192,-0.01671,0.01293,-0.01628
-0.3731,0.4488,0.81201,-0.01484,0.01573,-0.01569
-0.37298,0.44871,0.81212,-0.01686,0.01487,-0.01865
-0.3729,0.44861,0.81221,-0.02641,0.01142,-0.01547
-0.37291,0.44861,0.8122,-0.02815,0.02047,-0.01681
-0.37299,0.44856,0.8122,-0.02929,0.02608,-0.02174
-0.37303,0.44843,0.81225,-0.02484,0.01693,-0.02943
-0.3729,0.44829,0.81239,-0.02049,0.01455,-0.02793
-0.3726,0.44817,0.8126,-0.01711,0.01958,-0.02884
-0.37218,0.44804,0.81286,-0.01294,0.01184,-0.02299
-0.37175,0.44804,0.81305,-0.01836,0.00771,-0.01124
-0.3714,0.44807,0.81319,-0.01608,0.00745,-0.00951
-0.37125,0.44809,0.81326,-0.01672,0.0087,-0.00948
-0.37127,0.44807,0.81326,-0.01295,0.0111,-0.01223
-0.37139,0.44796,0.81326,-0.01604,0.01177,-0.01312
-0.37166,0.44784,0.8132,-0.01283,0.01662,-0.01652
-0.372,0.44775,0.8131,-0.01682,0.0193,-0.02499
-0.37234,0.4477,0.81297,-0.02069,0.01949,-0.02575
-0.37256,0.44758,0.81294,-0.02135,0.01881,-0.02902
-0.37259,0.44741,0.81301,-0.02087,0.01729,-0.03057
-0.37248,0.44727,0.81314,-0.02299,0.0162,-0.0266
-0.37226,0.44714,0.81331,-0.02381,0.0177,-0.02401
-0.37197,0.44705,0.81349,-0.02198,0.00836,-0.01471
-0.37178,0.44698,0.81362,-0.02094,0.0061,-0.01331
-0.37178,0.44697,0.81363,-0.02054,0.01102,-0.01286
-0.37187,0.44701,0.81357,-0.01824,0.01112,-0.01819
-0.37201,0.44704,0.81349,-0.01826,0.01015,-0.0227
-0.37217,0.44714,0.81335,-0.01611,0.01311,-0.02428
-0.37229,0.44729,0.81321,-0.01723,0.01836,-0.02354
-0.37244,0.44741,0.81309,-0.01828,0.01762,-0.02015
-0.37252,0.44743,0.81304,-0.01727,0.01633,-0.02117
-0.37253,0.44744,0.81302,-0.01838,0.01358,-0.02105
-0.37251,0.44747,0.81302,-0.01923,0.01485,-0.02202
-0.37248,0.4475,0.81302,-0.01739,0.01329,-0.01904
-0.37245,0.44746,0.81305,-0.01952,0.01323,-0.0193
-0.37243,0.44742,0.81309,-0.01779,0.01091,-0.02049
-0.3724,0.44739,0.81311,-0.01969,0.01268,-0.02057
-0.37237,0.44737,0.81314,-0.01977,0.01536,-0.01952
-0.37237,0.44733,0.81316,-0.02169,0.0117,-0.02056
-0.3724,0.44733,0.81315,-0.02141,0.01286,-0.02044
-0.37247,0.44733,0.81311,-0.01746,0.01439,-0.02019
-0.37254,0.44735,0.81307,-0.01924,0.01406,-0.01929
-0.37256,0.44732,0.81308,-0.02041,0.01438,-0.01945
-0.37256,0.44728,0.8131,-0.01876,0.01523,-0.02184
-0.37258,0.44728,0.81309,-0.0185,0.01256,-0.01834
-0.37258,0.44732,0.81307,-0.01994,0.01163,-0.01772
-0.37259,0.44738,0.81303,-0.02143,0.01266,-0.02065
-0.37262,0.44743,0.81299,-0.01907,0.01428,-0.02185
-0.37263,0.44749,0.81296,-0.01889,0.0122,-0.01887
-0.37265,0.44749,0.81295,-0.01794,0.0136,-0.01847
-0.37268,0.44746,0.81295,-0.01845,0.01406,-0.02285
-0.37268,0.44744,0.81296,-0.01788,0.01464,-0.02489
-0.37272,0.44747,0.81293,-0.02103,0.01497,-0.0184
-0.37277,0.44743,0.81292,-0.02055,0.01377,-0.01997
-0.37283,0.44738,0.81292,-0.02016,0.01469,-0.02484
-0.37287,0.44731,0.81295,-0.01879,0.01617,-0.02103
-0.3729,0.44722,0.81298,-0.02054,0.01505,-0.02186
-0.37295,0.44719,0.81297,-0.01783,0.01312,-0.01802
-0.37293,0.4472,0.81298,-0.02104,0.00959,-0.02109
-0.3729,0.44721,0.81299,-0.01963,0.01221,-0.02015
-0.37292,0.44726,0.81295,-0.01982,0.01372,-0.02048
-0.37293,0.44728,0.81293,-0.01988,0.01491,-0.01889
-0.37292,0.44728,0.81294,-0.01876,0.01469,-0.02015
-0.37299,0.44727,0.81291,-0.0179,0.01237,-0.01886
-0.37303,0.44731,0.81287,-0.01774,0.01399,-0.02236
-0.37304,0.44738,0.81283,-0.01752,0.01525,-0.01834
-0.37303,0.44742,0.81281,-0.01849,0.01657,-0.02121
-0.37304,0.44747,0.81278,-0.01946,0.01438,-0.01918
-0.37307,0.44752,0.81274,-0.01836,0.01133,-0.02131
-0.37311,0.44757,0.81269,-0.02071,0.01441,-0.01956
-0.37311,0.44763,0.81266,-0.01788,0.0128,-0.02054
-0.37312,0.44765,0.81264,-0.01777,0.01131,-0.01775
-0.37314,0.44766,0.81263,-0.0204,0.01254,-0.01993
-0.37314,0.44771,0.8126,-0.01778,0.01338,-0.02003
-0.37315,0.44777,0.81256,-0.01973,0.01373,-0.01819
-0.37321,0.44783,0.8125,-0.01915,0.01545,-0.01791
-0.37328,0.44786,0.81246,-0.01457,0.01293,-0.01931
-0.37333,0.44787,0.81242,-0.01561,0.01356,-0.02095
-0.37336,0.44793,0.81238,-0.01931,0.01269,-0.01979
-0.37339,0.448,0.81232,-0.02001,0.01349,-0.02202
-0.37339,0.44799,0.81233,-0.0205,0.01421,-0.02269
-0.37338,0.44803,0.81231,-0.02052,0.01451,-0.01689
-0.37345,0.44807,0.81226,-0.02015,0.01195,-0.01819
-0.37351,0.44811,0.81221,-0.02058,0.01448,-0.01904
-0.37354,0.44817,0.81216,-0.01905,0.01444,-0.02183
-0.37354,0.4482,0.81215,-0.01826,0.01272,-0.01922
-0.37355,0.44819,0.81215,-0.01886,0.01355,-0.02137
-0.37355,0.44822,0.81213,-0.01987,0.01346,-0.01898
-0.37354,0.44822,0.81213,-0.01948,0.01239,-0.01976
-0.37355,0.44818,0.81215,-0.01839,0.01279,-0.02082
-0.37358,0.44815,0.81215,-0.01762,0.01398,-0.01976
-0.37359,0.44814,0.81215,-0.01889,0.01385,-0.01842
-0.37361,0.44814,0.81215,-0.01676,0.01474,-0.01942
-0.37366,0.4481,0.81214,-0.01616,0.01146,-0.0203
-0.37367,0.44809,0.81214,-0.01862,0.01284,-0.01966
-0.37369,0.44809,0.81214,-0.01906,0.01154,-0.01926
-0.37373,0.44811,0.81211,-0.01998,0.01268,-0.02042
-0.37377,0.44814,0.81207,-0.01909,0.01328,-0.01912
-0.37381,0.44817,0.81203,-0.01965,0.01342,-0.02009
-0.37385,0.44823,0.81199,-0.01957,0.01256,-0.02033
-0.37387,0.44829,0.81194,-0.02054,0.01512,-0.02029
-0.37388,0.44834,0.81191,-0.02007,0.0135,-0.02016
-0.37388,0.44837,0.8119,-0.01814,0.01347,-0.01963
-0.37388,0.44843,0.81186,-0.01788,0.01244,-0.01929
-0.37388,0.44848,0.81183,-0.01888,0.01422,-0.01779
-0.3739,0.44849,0.81182,-0.01885,0.01515,-0.02009
-0.37395,0.44849,0.8118,-0.01881,0.01262,-0.01913
-0.37396,0.44849,0.81179,-0.0206,0.01336,-0.01941
-0.37396,0.44851,0.81178,-0.01589,0.01185,-0.02019
-0.37395,0.44854,0.81177,-0.01895,0.01338,-0.01732
-0.37394,0.44855,0.81177,-0.01854,0.01178,-0.02112
-0.37396,0.44857,0.81175,-0.01944,0.01178,-0.01994
-0.37397,0.44859,0.81173,-0.01895,0.01166,-0.01709
-0.37399,0.4486,0.81172,-0.01638,0.01212,-0.01787
-0.37402,0.44865,0.81168,-0.01742,0.01401,-0.01638
-0.37406,0.44865,0.81166,-0.01902,0.01272,-0.01831
-0.37406,0.44865,0.81166,-0.018,0.01124,-0.02029
-0.37406,0.4487,0.81163,-0.01963,0.01148,-0.01987
-0.37405,0.44872,0.81163,-0.02094,0.01393,-0.0196
-0.37403,0.4487,0.81165,-0.01948,0.0148,-0.01804
-0.37405,0.44873,0.81162,-0.01913,0.01294,-0.01772
-0.37407,0.44879,0.81158,-0.01844,0.01503,-0.0187
-0.37405,0.44879,0.81159,-0.01914,0.01457,-0.02027
-0.37401,0.44881,0.81159,-0.01721,0.01303,-0.01963
-0.37394,0.44879,0.81164,-0.01915,0.01418,-0.01862
-0.37387,0.44872,0.81171,-0.02138,0.01438,-0.01918
-0.3738,0.44869,0.81176,-0.01806,0.01252,-0.02102
-0.3737,0.44862,0.81184,-0.01768,0.01198,-0.0177
-0.37362,0.44854,0.81192,-0.02,0.01284,-0.0165
-0.37358,0.44846,0.81199,-0.01954,0.01254,-0.01961
-0.37351,0.4484,0.81205,-0.01924,0.01379,-0.02088
-0.37348,0.44836,0.81209,-0.01752,0.0133,-0.01776
-0.37344,0.44831,0.81213,-0.01631,0.01109,-0.01988
-0.37332,0.44825,0.81222,-0.01579,0.01068,-0.02098
-0.37321,0.44819,0.8123,-0.01999,0.01379,-0.01726
-0.37311,0.44815,0.81237,-0.02086,0.01257,-0.01826
-0.37309,0.44813,0.81239,-0.02171,0.01199,-0.02011
-0.37309,0.4481,0.81241,-0.01668,0.01322,-0.01968
-0.37305,0.44806,0.81245,-0.0179,0.01505,-0.02019
-0.373,0.44802,0.81249,-0.02086,0.01457,-0.01946
-0.37294,0.448,0.81253,-0.01669,0.01398,-0.01698
-0.37284,0.44796,0.8126,-0.01965,0.01409,-0.01598
-0.37275,0.44793,0.81266,-0.01905,0.0153,-0.01887
-0.3727,0.44787,0.81271,-0.01895,0.01355,-0.02199
-0.37265,0.44778,0.81278,-0.01719,0.01165,-0.01881
-0.37256,0.44769,0.81288,-0.01538,0.0115,-0.01947
-0.37253,0.44761,0.81293,-0.01738,0.01451,-0.01842
-0.37254,0.44754,0.81297,-0.01917,0.0121,-0.01766
-0.37254,0.44751,0.81299,-0.0191,0.01156,-0.01666
-0.37252,0.44752,0.81299,-0.01855,0.01327,-0.0167
-0.3725,0.44751,0.813,-0.02116,0.01226,-0.02156
-0.37249,0.44749,0.81302,-0.01877,0.01288,-0.01935
-0.37242,0.44745,0.81307,-0.01862,0.01075,-0.02063
-0.3723,0.44743,0.81314,-0.01993,0.01267,-0.01962
-0.37224,0.44744,0.81316,-0.01521,0.01205,-0.01843
-0.3722,0.44743,0.81319,-0.01793,0.0129,-0.0183
-0.37212,0.44741,0.81323,-0.01775,0.01313,-0.01779
-0.37209,0.4474,0.81325,-0.01756,0.01216,-0.02096
-0.37208,0.44736,0.81328,-0.01671,0.01182,-0.01784
-0.37209,0.44739,0.81326,-0.01875,0.01018,-0.01613
-0.37212,0.44747,0.8132,-0.01835,0.01266,-0.01842
-0.37212,0.44754,0.81316,-0.01957,0.01096,-0.01711
-0.37209,0.4476,0.81314,-0.01978,0.01395,-0.01953
-0.37203,0.44763,0.81316,-0.01982,0.01218,-0.01834
-0.37195,0.44762,0.8132,-0.01705,0.01469,-0.0198
-0.37193,0.44764,0.8132,-0.01937,0.01463,-0.01579
-0.37194,0.44764,0.81319,-0.01915,0.01441,-0.01975
-0.37196,0.44761,0.8132,-0.01772,0.01271,-0.01981
-0.37199,0.44757,0.81321,-0.01821,0.01482,-0.01982
-0.37197,0.44755,0.81322,-0.01714,0.01346,-0.0199
-0.37195,0.44752,0.81325,-0.01872,0.01564,-0.01729
-0.37194,0.44749,0.81327,-0.01753,0.01275,-0.01589
-0.37191,0.44745,0.81331,-0.01775,0.01052,-0.01794
-0.37189,0.44746,0.81331,-0.01912,0.0111,-0.01824
-0.37188,0.44747,0.81331,-0.01788,0.01058,-0.01601
-0.3719,0.44748,0.8133,-0.0182,0.01,-0.01657
-0.3719,0.44751,0.81328,-0.01755,0.01064,-0.01756
-0.37192,0.44757,0.81324,-0.01677,0.01198,-0.01903
-0.37197,0.44761,0.81319,-0.01626,0.01323,-0.0174
-0.37199,0.44764,0.81316,-0.01733,0.01352,-0.02136
-0.37202,0.44767,0.81314,-0.0175,0.01279,-0.0193
-0.37206,0.4477,0.8131,-0.01761,0.01267,-0.01719
-0.37211,0.44772,0.81307,-0.01811,0.01233,-0.01862
-0.37214,0.44772,0.81305,-0.01842,0.01135,-0.01852
-0.37217,0.44773,0.81304,-0.01681,0.01014,-0.01984
-0.3722,0.44776,0.813,-0.01591,0.01391,-0.01843
-0.37223,0.44774,0.813,-0.01609,0.01278,-0.01861
-0.37227,0.44772,0.813,-0.01731,0.0122,-0.02056
-0.37233,0.44776,0.81295,-0.017,0.01315,-0.01812
-0.37238,0.44777,0.81291,-0.0188,0.01283,-0.01808
-0.37242,0.44776,0.8129,-0.01654,0.01142,-0.01773
-0.37249,0.44777,0.81286,-0.0146,0.01166,-0.01863
-0.37254,0.44781,0.81282,-0.01763,0.01168,-0.01837
-0.37258,0.44783,0.81279,-0.01665,0.01091,-0.01912
-0.37266,0.44788,0.81272,-0.02077,0.01215,-0.01425
-0.37276,0.44795,0.81264,-0.01895,0.01282,-0.01964
-0.37283,0.44799,0.81259,-0.02018,0.01329,-0.01872
-0.37286,0.44804,0.81254,-0.01822,0.0123,-0.02011
-0.37287,0.44807,0.81252,-0.01872,0.01317,-0.01679
-0.3729,0.44809,0.8125,-0.0176,0.01448,-0.02222
-0.37295,0.4481,0.81247,-0.01886,0.01167,-0.01788
-0.37302,0.44811,0.81243,-0.01644,0.0128,-0.0173
-0.37307,0.44808,0.81243,-0.01689,0.01376,-0.01773
-0.37313,0.44803,0.81243,-0.01728,0.01175,-0.0185
-0.3732,0.44798,0.81242,-0.01566,0.01437,-0.02072
-0.37326,0.44795,0.81241,-0.01561,0.01059,-0.01776
-0.37329,0.44794,0.8124,-0.0166,0.01133,-0.01775
-0.37334,0.44796,0.81237,-0.01869,0.00902,-0.01757
-0.37337,0.44798,0.81234,-0.01832,0.01053,-0.01925
-0.37343,0.44798,0.81232,-0.01736,0.01253,-0.01758
-0.3735,0.44799,0.81228,-0.01818,0.01156,-0.01513
-0.37357,0.44806,0.81221,-0.01681,0.01148,-0.01721
-0.37361,0.44813,0.81215,-0.02188,0.01012,-0.01798
-0.37368,0.44819,0.81208,-0.01883,0.01021,-0.01948
-0.37371,0.44824,0.81205,-0.01704,0.01238,-0.01903
-0.37368,0.44828,0.81204,-0.01748,0.01179,-0.01878
-0.37367,0.44832,0.81202,-0.01676,0.0136,-0.01666
-0.37369,0.44832,0.81201,-0.01399,0.01319,-0.01963
-0.37372,0.44831,0.812,-0.01583,0.01293,-0.01781
-0.37376,0.44832,0.81198,-0.01717,0.01189,-0.0164
-0.37381,0.44832,0.81196,-0.01669,0.01048,-0.01891
-0.37386,0.44833,0.81193,-0.01829,0.00798,-0.01843
-0.37386,0.44836,0.81191,-0.01718,0.00934,-0.01662
-0.37385,0.44839,0.8119,-0.01856,0.01197,-0.01748
-0.37387,0.4484,0.81188,-0.01411,0.01089,-0.01876
-0.37388,0.4484,0.81188,-0.01432,0.01408,-0.01805
-0.37391,0.44842,0.81185,-0.01568,0.01349,-0.01533
-0.37396,0.44847,0.81181,-0.01627,0.01008,-0.01853
-0.37398,0.44851,0.81177,-0.01838,0.0104,-0.01773
-0.37399,0.44854,0.81175,-0.01874,0.00978,-0.01806
-0.37402,0.44856,0.81173,-0.01627,0.01139,-0.01705
-0.37401,0.44856,0.81173,-0.01671,0.01038,-0.01482
-0.37402,0.44861,0.8117,-0.01766,0.01175,-0.01585
-0.37406,0.44868,0.81164,-0.0156,0.01292,-0.01583
-0.3741,0.44876,0.81158,-0.01669,0.01181,-0.0175
-0.3741,0.44881,0.81155,-0.01793,0.00906,-0.01825
-0.37412,0.44884,0.81153,-0.01597,0.01148,-0.01857
-0.37414,0.44885,0.81151,-0.01497,0.01245,-0.01963
-0.3742,0.44888,0.81146,-0.01473,0.01146,-0.0172
-0.37422,0.44887,0.81146,-0.01663,0.01169,-0.01768
-0.37427,0.44885,0.81145,-0.01559,0.01287,-0.01891
-0.37431,0.44886,0.81142,-0.01683,0.01131,-0.0171
-0.37436,0.44887,0.81139,-0.01794,0.01049,-0.01702
-0.37441,0.44887,0.81137,-0.01648,0.0101,-0.01709
-0.37442,0.44885,0.81138,-0.0131,0.00862,-0.0192
-0.37445,0.44885,0.81137,-0.0163,0.01,-0.016
-0.37447,0.44888,0.81134,-0.01681,0.01175,-0.01637
-0.37453,0.44892,0.81129,-0.01672,0.01124,-0.01706
-0.37456,0.44897,0.81125,-0.01998,0.01035,-0.0166
-0.3746,0.44912,0.81115,-0.01715,0.0153,-0.02053
-0.37459,0.44921,0.8111,-0.01094,0.01142,-0.02538
-0.37451,0.44934,0.81107,-0.01618,0.00393,-0.02046
-0.37431,0.4497,0.81096,-0.01543,0.0039,-0.012
-0.37416,0.44999,0.81087,-0.01882,0.01321,-0.00187
-0.37431,0.45003,0.81078,-0.0174,0.01472,-0.00182
-0.37476,0.44987,0.81066,-0.01228,0.0183,-0.01015
-0.37533,0.44959,0.81055,-0.01042,0.02078,-0.03037
-0.37586,0.44939,0.81041,-0.01439,0.02052,-0.02756
-0.37623,0.44936,0.81026,-0.02156,0.02384,-0.03206
-0.37639,0.44922,0.81026,-0.02266,0.01033,-0.03226
-0.37631,0.44909,0.81037,-0.01865,0.00531,-0.02699
-0.37588,0.44918,0.81052,-0.02834,-0.00082,-0.0148
-0.37513,0.44946,0.81072,-0.02628,-0.0021,-0.00447
-0.37439,0.44971,0.81091,-0.02353,-0.00332,-0.00253
-0.37396,0.44993,0.81099,-0.01196,0.00046,-0.00249
-0.37392,0.45001,0.81097,-0.00357,0.00702,-0.00499
-0.37409,0.45002,0.81088,0.00019,0.01643,-0.0126
-0.37457,0.44997,0.81069,0.0004,0.0213,-0.01977
-0.37527,0.44995,0.81038,-0.01219,0.025,-0.02643
-0.37599,0.44992,0.81006,-0.01613,0.02575,-0.02663
-0.37652,0.44995,0.80979,-0.02302,0.02159,-0.02774
-0.37668,0.44997,0.80971,-0.02667,0.01759,-0.02405
-0.37656,0.44992,0.8098,-0.02569,0.01162,-0.02162
-0.37622,0.44988,0.80998,-0.02154,0.00372,-0.02012
-0.37557,0.44997,0.81023,-0.02152,-0.00437,-0.01437
-0.37469,0.45023,0.81049,-0.02193,-0.00515,-0.00565
-0.37394,0.45042,0.81073,-0.01731,-0.00057,-0.00343
-0.37364,0.45046,0.81085,-0.00635,0.0094,-0.00633
-0.37373,0.45036,0.81086,-0.00083,0.01482,-0.0147
-0.37407,0.45024,0.81078,-0.00168,0.01772,-0.01834
-0.37467,0.45012,0.81056,-0.00905,0.02139,-0.02208
-0.37542,0.45009,0.81023,-0.01659,0.02233,-0.02312
-0.37604,0.45005,0.80996,-0.02046,0.01986,-0.02972
-0.37631,0.44994,0.8099,-0.02228,0.0157,-0.02935
-0.37616,0.44986,0.81001,-0.02088,0.00492,-0.02649
-0.37567,0.44988,0.81023,-0.02592,0.0014,-0.01445
-0.37495,0.44996,0.81052,-0.02607,-0.00043,-0.01165
-0.37412,0.45003,0.81086,-0.01837,-0.004,-0.00673
-0.37342,0.45005,0.81118,-0.0104,0.00252,-0.00493
-0.37305,0.45006,0.81134,-0.00851,0.00785,-0.0048
-0.37317,0.45,0.81132,-0.00434,0.014,-0.01191
-0.37359,0.44996,0.81115,-0.01232,0.01834,-0.01652
-0.37413,0.44997,0.81089,-0.01286,0.02223,-0.01957
-0.37465,0.44998,0.81064,-0.018,0.02354,-0.02914
-0.37498,0.45,0.81048,-0.02039,0.01154,-0.02971
-0.37494,0.45006,0.81047,-0.02153,0.00807,-0.02647
-0.37459,0.45013,0.81059,-0.02275,0.00689,-0.01584
-0.37407,0.45015,0.81082,-0.01631,0.0058,-0.00628
-0.37376,0.4501,0.81099,-0.01043,0.0085,-0.00644
-0.37366,0.45,0.81109,-0.00851,0.01166,-0.0078
-0.3737,0.44988,0.81114,-0.00594,0.01113,-0.01085
-0.374,0.44979,0.81105,-0.01344,0.00944,-0.01813
-0.37447,0.44978,0.81084,-0.01666,0.01214,-0.01852
-0.37498,0.4498,0.81059,-0.01746,0.01692,-0.02069
-0.37541,0.44979,0.8104,-0.01862,0.01361,-0.02503
-0.37562,0.44973,0.81033,-0.01999,0.01,-0.02641
-0.37554,0.44972,0.81037,-0.01671,0.00743,-0.02302
-0.37524,0.44977,0.81049,-0.01803,0.00331,-0.01332
-0.37479,0.44982,0.81067,-0.01913,0.00134,-0.01134
-0.37442,0.44979,0.81086,-0.01758,0.00507,-0.00875
-0.3742,0.4497,0.81101,-0.00868,0.00668,-0.01012
-0.3742,0.44965,0.81103,-0.01039,0.01127,-0.00859
-0.3744,0.4497,0.81092,-0.01592,0.01476,-0.01535
-0.37471,0.44981,0.81071,-0.01611,0.01406,-0.02098
-0.37499,0.44994,0.81051,-0.01477,0.01666,-0.02284
-0.37511,0.45,0.81042,-0.01495,0.01257,-0.02349
-0.37507,0.45,0.81044,-0.01315,0.01257,-0.02174
-0.37486,0.44996,0.81056,-0.01758,0.0092,-0.01471
-0.37462,0.44993,0.81069,-0.01566,0.00951,-0.00952
-0.37445,0.44987,0.8108,-0.01587,0.00698,-0.0098
-0.37439,0.44979,0.81087,-0.01335,0.00721,-0.01332
-0.37445,0.44971,0.81089,-0.01606,0.00874,-0.01478
-0.37453,0.44965,0.81088,-0.01426,0.01032,-0.01878
-0.37467,0.44962,0.81083,-0.0142,0.01359,-0.02066
-0.3748,0.44964,0.81077,-0.01442,0.01359,-0.01963
-0.37487,0.44969,0.81071,-0.01526,0.01044,-0.01751
-0.37487,0.44975,0.81067,-0.01839,0.00966,-0.01898
-0.37482,0.4498,0.81067,-0.01576,0.0085,-0.01529
-0.37473,0.44986,0.81067,-0.01693,0.00666,-0.01241
-0.37466,0.4499,0.81069,-0.0151,0.00947,-0.01252
-0.37462,0.44991,0.8107,-0.0129,0.00962,-0.01533
-0.37462,0.44994,0.81068,-0.01512,0.0105,-0.01521
-0.3747,0.44997,0.81063,-0.01532,0.01173,-0.0171
-0.37478,0.45002,0.81056,-0.01793,0.01192,-0.01773
-0.3749,0.45007,0.81048,-0.01467,0.01257,-0.01695
-0.37501,0.4501,0.81041,-0.01416,0.01026,-0.01746
-0.37505,0.4501,0.81039,-0.01307,0.0103,-0.01762
-0.37509,0.45008,0.81039,-0.01432,0.0119,-0.01713
-0.37516,0.45003,0.81038,-0.01296,0.00906,-0.01485
-0.37521,0.44998,0.81039,-0.01513,0.00729,-0.01673
-0.37526,0.44997,0.81037,-0.01625,0.00839,-0.01452
-0.37531,0.44999,0.81034,-0.01618,0.00696,-0.01378
-0.37539,0.44999,0.8103,-0.01716,0.00689,-0.01638
-0.37545,0.45002,0.81026,-0.01565,0.01078,-0.01599
-0.37548,0.45006,0.81022,-0.0118,0.01154,-0.01736
-0.37555,0.4501,0.81017,-0.01374,0.01119,-0.0161
-0.37561,0.45015,0.81011,-0.01553,0.01175,-0.01325
-0.37568,0.45022,0.81003,-0.01562,0.01133,-0.01411
-0.37576,0.45028,0.80997,-0.01483,0.01184,-0.01672
-0.37583,0.4503,0.80993,-0.01486,0.01203,-0.01648
-0.37584,0.45029,0.80992,-0.01463,0.01266,-0.01518
-0.37585,0.45025,0.80994,-0.01316,0.01147,-0.0179
-0.37586,0.45024,0.80994,-0.01462,0.01167,-0.01622
-0.3759,0.45024,0.80992,-0.01297,0.01141,-0.01541
-0.37594,0.45024,0.8099,-0.01493,0.01093,-0.01561
-0.376,0.45023,0.80988,-0.01368,0.01158,-0.01632
-0.37608,0.45019,0.80987,-0.01417,0.01292,-0.01664
-0.37612,0.45013,0.80988,-0.01393,0.01129,-0.01633
-0.37616,0.45013,0.80987,-0.01465,0.01015,-0.01769
-0.37618,0.4501,0.80987,-0.01587,0.00914,-0.01632
-0.37618,0.45007,0.80989,-0.01604,0.00893,-0.01579
-0.37619,0.45007,0.80988,-0.01333,0.01345,-0.01333
-0.37622,0.45009,0.80986,-0.01634,0.01149,-0.01604
-0.37625,0.45013,0.80982,-0.01826,0.00891,-0.0177
-0.37635,0.4502,0.80974,-0.01508,0.01069,-0.01744
-0.37643,0.45027,0.80966,-0.01189,0.01053,-0.01692
-0.37644,0.45033,0.80962,-0.01437,0.01247,-0.01674
-0.37641,0.45037,0.80961,-0.01313,0.01205,-0.01698
-0.37639,0.45039,0.80961,-0.01317,0.01204,-0.01515
-0.3764,0.4504,0.8096,-0.01461,0.01356,-0.01523
-0.37643,0.45038,0.8096,-0.01359,0.00761,-0.01761
-0.37648,0.45034,0.80959,-0.01388,0.00733,-0.01673
-0.37651,0.45031,0.8096,-0.01311,0.00878,-0.01538
-0.37653,0.45031,0.80959,-0.01559,0.00852,-0.01388
-0.37654,0.45033,0.80957,-0.01427,0.00835,-0.01389
-0.37655,0.45034,0.80956,-0.01481,0.01191,-0.01426
-0.37658,0.45033,0.80956,-0.01455,0.00857,-0.01558
-0.37666,0.45031,0.80953,-0.01386,0.00995,-0.01679
-0.37676,0.4503,0.80949,-0.01352,0.00918,-0.01599
-0.37678,0.45031,0.80947,-0.01619,0.00708,-0.01554
-0.37681,0.45036,0.80944,-0.01649,0.00892,-0.01622
-0.37682,0.4504,0.80941,-0.0166,0.01046,-0.01812
-0.37682,0.45042,0.80939,-0.01476,0.01026,-0.01836
-0.37682,0.45043,0.80939,-0.01447,0.01098,-0.01322
-0.37683,0.45046,0.80936,-0.01509,0.0111,-0.01378
-0.37688,0.4505,0.80932,-0.01458,0.00874,-0.01618
-0.37691,0.45057,0.80927,-0.01357,0.00815,-0.01421
-0.37689,0.45062,0.80924,-0.01452,0.00952,-0.01293
-0.37693,0.45064,0.80922,-0.01434,0.01003,-0.01454
-0.37695,0.45059,0.80923,-0.01517,0.00869,-0.01651
-0.37699,0.45055,0.80924,-0.01324,0.00957,-0.01485
-0.37708,0.4505,0.80922,-0.0132,0.00929,-0.01447
-0.37716,0.45046,0.80921,-0.01369,0.00854,-0.01627
-0.37718,0.45043,0.80922,-0.01477,0.01136,-0.01646
-0.37719,0.45043,0.80921,-0.01635,0.01017,-0.01295
-0.37721,0.45041,0.80921,-0.01534,0.0088,-0.01356
-0.37726,0.45042,0.80918,-0.01222,0.00823,-0.01634
-0.37729,0.45042,0.80917,-0.01286,0.00723,-0.01332
-0.37732,0.45047,0.80913,-0.01757,0.00577,-0.01215
-0.37738,0.45063,0.80902,-0.01807,0.0075,-0.01362
-0.37742,0.45087,0.80886,-0.01759,0.00508,-0.01681
-0.3774,0.45115,0.80871,-0.01415,0.00625,-0.01588
-0.37736,0.45146,0.80856,-0.01607,0.00847,-0.00964
-0.37738,0.45179,0.80836,-0.01599,0.01202,-0.00949
-0.37749,0.45204,0.80817,-0.01153,0.01431,-0.01367
-0.37764,0.45225,0.80798,-0.01236,0.01248,-0.01854
-0.37774,0.45252,0.80779,-0.01653,0.01455,-0.01636
-0.37777,0.45272,0.80766,-0.01339,0.01423,-0.01954
-0.37775,0.4529,0.80757,-0.01469,0.01244,-0.01692
-0.37769,0.45317,0.80745,-0.01712,0.01179,-0.01478
-0.37753,0.45359,0.80728,-0.01857,0.0083,-0.01227
-0.37725,0.45415,0.8071,-0.01801,0.00091,-0.0146
-0.37692,0.4548,0.80689,-0.01636,-0.00241,-0.01363
-0.37662,0.45546,0.80666,-0.02005,0.00273,-0.01088
-0.37632,0.45608,0.80645,-0.01553,0.01012,-0.01679
-0.37597,0.45648,0.80639,-0.00933,0.01264,-0.01802
-0.37568,0.45671,0.80639,-0.00234,0.02036,-0.01913
-0.37555,0.4569,0.80635,-0.00528,0.0208,-0.0186
-0.37549,0.45711,0.80625,-0.00928,0.02116,-0.01553
-0.37546,0.45714,0.80625,-0.004,0.01629,-0.01963
-0.37549,0.45701,0.80631,-0.00266,0.01482,-0.01906
-0.37557,0.45684,0.80637,-0.01283,0.00813,-0.01656
-0.37568,0.45664,0.80643,-0.01409,0.00982,-0.011
-0.37579,0.45641,0.80651,-0.01243,0.01165,-0.0101
-0.3759,0.45611,0.80663,-0.00993,0.00835,-0.01482
-0.37604,0.45571,0.80678,-0.006,0.00654,-0.01349
-0.37624,0.45531,0.80692,-0.0148,0.00294,-0.01195
-0.37646,0.45503,0.80697,-0.02136,0.00394,-0.01205
-0.37668,0.45484,0.80698,-0.02033,0.00637,-0.01265
-0.37688,0.45472,0.80695,-0.01551,0.00988,-0.01307
-0.37713,0.45457,0.80692,-0.01325,0.00945,-0.01935
-0.3775,0.45443,0.80683,-0.01665,0.00762,-0.02078
-0.37779,0.45434,0.80674,-0.01392,0.0115,-0.01737
-0.37801,0.45429,0.80667,-0.01201,0.01333,-0.01539
-0.37822,0.45423,0.8066,-0.01095,0.01053,-0.01235
-0.37847,0.45414,0.80654,-0.01046,0.00852,-0.01233
-0.37873,0.45405,0.80647,-0.01179,0.00507,-0.01373
-0.37896,0.45396,0.8064,-0.01786,0.00563,-0.01632
-0.37916,0.45387,0.80636,-0.01563,0.00598,-0.01511
-0.37928,0.45383,0.80633,-0.01573,0.00914,-0.01359
-0.37934,0.45382,0.80631,-0.01398,0.00779,-0.01637
-0.37939,0.45376,0.80632,-0.01385,0.00823,-0.01602
-0.37941,0.4537,0.80634,-0.01247,0.00864,-0.0138
-0.3794,0.45365,0.80637,-0.01411,0.01125,-0.01258
-0.37936,0.4535,0.80648,-0.01058,0.01175,-0.01441
-0.37935,0.45331,0.80659,-0.00935,0.01262,-0.01626
-0.37933,0.45309,0.80672,-0.00858,0.01003,-0.01464
-0.37932,0.45283,0.80687,-0.01454,0.00844,-0.01493
-0.37928,0.45258,0.80703,-0.01475,0.00725,-0.01742
-0.37918,0.45229,0.80724,-0.01886,0.00723,-0.01622
-0.37908,0.45202,0.80744,-0.01774,0.00773,-0.01546
-0.37893,0.45185,0.80761,-0.01928,0.00496,-0.01135
-0.37867,0.45177,0.80778,-0.01812,0.00429,-0.01278
-0.3784,0.45172,0.80793,-0.01797,0.0045,-0.01241
-0.3782,0.45171,0.80803,-0.01365,0.00609,-0.01483
-0.378,0.45177,0.80809,-0.01194,0.00345,-0.01721
-0.37781,0.45198,0.80806,-0.00863,0.0068,-0.01462
-0.37759,0.4522,0.80804,-0.01005,0.00966,-0.01165
-0.37736,0.45237,0.80805,-0.00762,0.00649,-0.01192
-0.37716,0.45255,0.80805,-0.0099,0.00671,-0.01645
-0.37697,0.45273,0.80803,-0.01128,0.01057,-0.01276
-0.37683,0.45289,0.80801,-0.01446,0.01501,-0.01062
-0.37679,0.45301,0.80795,-0.01208,0.0122,-0.01262
-0.37682,0.45314,0.80787,-0.01286,0.01195,-0.01611
-0.37682,0.45331,0.80778,-0.01771,0.01211,-0.01311
-0.37673,0.45343,0.80775,-0.01675,0.00863,-0.01423
-0.37665,0.45343,0.80779,-0.0159,0.00863,-0.01801
-0.37661,0.45333,0.80786,-0.01516,0.01069,-0.01923
-0.37657,0.45319,0.80796,-0.01496,0.01453,-0.01972
-0.37643,0.453,0.80814,-0.01389,0.01393,-0.01726
-0.37626,0.45277,0.80834,-0.00998,0.01302,-0.01655
-0.37616,0.45257,0.8085,-0.01235,0.01215,-0.01587
-0.37617,0.45244,0.80857,-0.01298,0.00695,-0.01192
-0.37621,0.45233,0.80861,-0.01197,0.00574,-0.01339
-0.37623,0.45226,0.80864,-0.01141,0.00788,-0.01418
-0.37628,0.45228,0.80861,-0.01358,0.00686,-0.0095
-0.37642,0.4523,0.80853,-0.01045,0.00382,-0.01305
-0.37658,0.45237,0.80842,-0.01037,0.00558,-0.01689
-0.37668,0.45261,0.80823,-0.01274,0.00912,-0.0138
-0.37673,0.45291,0.80805,-0.016,0.00562,-0.01596
-0.37667,0.45318,0.80792,-0.01676,0.00617,-0.01521
-0.37659,0.45338,0.80785,-0.01494,0.00864,-0.01442
-0.37654,0.4535,0.8078,-0.0124,0.01026,-0.01468
-0.37652,0.45357,0.80777,-0.01267,0.01123,-0.01541
-0.3765,0.45362,0.80775,-0.0133,0.01057,-0.01468
-0.37651,0.45363,0.80774,-0.01153,0.01199,-0.01521
-0.37653,0.45366,0.80772,-0.01103,0.00989,-0.01646
-0.37652,0.45369,0.8077,-0.01508,0.00871,-0.01504
-0.37651,0.45365,0.80773,-0.01392,0.00954,-0.01394
-0.37647,0.45354,0.80781,-0.01324,0.01013,-0.01304
-0.37644,0.45341,0.8079,-0.01112,0.00752,-0.01405
-0.37647,0.45332,0.80793,-0.0127,0.00829,-0.01382
-0.37652,0.45328,0.80793,-0.01444,0.00926,-0.01348
-0.37656,0.45325,0.80793,-0.0115,0.00396,-0.0135
-0.37656,0.45321,0.80796,-0.01204,0.00538,-0.01366
-0.37656,0.45319,0.80797,-0.00935,0.00676,-0.01185
-0.37661,0.4532,0.80794,-0.01288,0.00876,-0.01152
-0.37674,0.45317,0.80789,-0.01387,0.00889,-0.01688
-0.37685,0.45318,0.80784,-0.01441,0.01174,-0.01542
-0.37693,0.4532,0.80779,-0.01559,0.00652,-0.01552
-0.37695,0.45321,0.80777,-0.01527,0.00471,-0.01482
-0.37692,0.45322,0.80778,-0.01382,0.00784,-0.01597
-0.37684,0.45325,0.8078,-0.01225,0.00671,-0.01526
-0.3768,0.45327,0.80781,-0.01247,0.01014,-0.01448
-0.37674,0.45328,0.80783,-0.00963,0.00934,-0.01207
-0.37671,0.45327,0.80785,-0.00799,0.00887,-0.01424
-0.37673,0.45326,0.80785,-0.01035,0.00768,-0.01245
-0.37678,0.45326,0.80782,-0.01308,0.00791,-0.01301
-0.37686,0.45326,0.80779,-0.01242,0.00571,-0.01462
-0.37696,0.4532,0.80777,-0.01265,0.00773,-0.01403
-0.37705,0.45316,0.80775,-0.01044,0.01178,-0.01678
-0.37717,0.45313,0.80771,-0.01206,0.00857,-0.01477
-0.37727,0.45312,0.80767,-0.01172,0.00739,-0.01336
-0.37737,0.45312,0.80763,-0.01323,0.00615,-0.01492
-0.37747,0.45314,0.80757,-0.01346,0.00858,-0.01564
-0.37757,0.45311,0.80754,-0.01474,0.00792,-0.01478
-0.37769,0.45304,0.80752,-0.01452,0.00758,-0.01516
-0.37778,0.45298,0.80751,-0.01458,0.00907,-0.01537
-0.37785,0.45297,0.80749,-0.01169,0.00972,-0.01429
-0.37789,0.45296,0.80747,-0.01087,0.00795,-0.01476
-0.37791,0.45299,0.80744,-0.01188,0.00807,-0.01354
-0.37793,0.45302,0.80742,-0.01158,0.0083,-0.01544
-0.37793,0.45307,0.80739,-0.01299,0.00744,-0.01517
-0.37791,0.45313,0.80736,-0.01287,0.00492,-0.01363
-0.37793,0.45321,0.80731,-0.01428,0.00729,-0.0128
-0.37795,0.45328,0.80726,-0.01085,0.00619,-0.01449
-0.378,0.45334,0.80721,-0.01174,0.00744,-0.01418
-0.37805,0.45346,0.80711,-0.01291,0.00708,-0.0139
-0.37808,0.45358,0.80703,-0.01248,0.00675,-0.01409
-0.37809,0.45368,0.80697,-0.0126,0.01011,-0.01348
-0.37811,0.45376,0.80692,-0.01209,0.0107,-0.01581
-0.37812,0.45379,0.8069,-0.01408,0.01022,-0.01236
-0.37816,0.45381,0.80687,-0.01213,0.01202,-0.01225
-0.37823,0.45384,0.80681,-0.01232,0.0112,-0.01125
-0.37832,0.45386,0.80677,-0.01165,0.01122,-0.01439
-0.3784,0.45384,0.80674,-0.01457,0.0098,-0.01415
-0.37847,0.45373,0.80676,-0.01479,0.00763,-0.0147
-0.37852,0.45359,0.80682,-0.01243,0.00784,-0.01628
-0.37855,0.45348,0.80687,-0.01315,0.00991,-0.01572
-0.37854,0.45337,0.80694,-0.01275,0.00818,-0.01436
-0.37856,0.45325,0.80699,-0.0131,0.00686,-0.01205
-0.37856,0.45316,0.80704,-0.01046,0.00877,-0.01402
-0.37855,0.45314,0.80706,-0.01348,0.01082,-0.01184
-0.37858,0.4531,0.80706,-0.01026,0.00982,-0.011
-0.37861,0.45301,0.8071,-0.01119,0.00635,-0.01479
-0.37868,0.45293,0.80711,-0.0108,0.00602,-0.01671
-0.37875,0.45288,0.80711,-0.0122,0.00372,-0.01605
-0.3788,0.45286,0.8071,-0.01187,0.00763,-0.01553
-0.37883,0.45287,0.80708,-0.01219,0.00976,-0.01394
-0.3788,0.45294,0.80706,-0.01241,0.00522,-0.0113
-0.37879,0.45303,0.80701,-0.01257,0.00541,-0.01256
-0.37881,0.45312,0.80695,-0.01251,0.00664,-0.01326
-0.37883,0.45322,0.80688,-0.01165,0.00848,-0.01611
-0.37886,0.45331,0.80682,-0.01119,0.01024,-0.01532
-0.37889,0.45336,0.80678,-0.01026,0.01275,-0.01416
-0.37897,0.4534,0.80672,-0.011,0.00995,-0.01506
-0.37905,0.45339,0.80668,-0.01106,0.00977,-0.01422
-0.37913,0.45335,0.80667,-0.01231,0.00857,-0.01454
-0.37918,0.45327,0.80669,-0.01315,0.00865,-0.01566
-0.37922,0.45317,0.80673,-0.01319,0.00892,-0.01308
-0.37922,0.45309,0.80677,-0.01288,0.00843,-0.01399
-0.37925,0.453,0.80681,-0.01286,0.00852,-0.01402
-0.3793,0.45294,0.80682,-0.01288,0.00542,-0.01471
-0.37933,0.45285,0.80686,-0.01343,0.00629,-0.01123
-0.3793,0.45281,0.80689,-0.01114,0.00713,-0.01157
-0.37927,0.45279,0.80692,-0.01078,0.0083,-0.01207
-0.37924,0.45276,0.80695,-0.01203,0.00654,-0.01406
-0.37918,0.45277,0.80697,-0.01236,0.00705,-0.01499
-0.37912,0.45279,0.80699,-0.01187,0.00676,-0.01492
-0.37906,0.45284,0.80699,-0.01143,0.00642,-0.01327
-0.379,0.4529,0.80698,-0.01076,0.00703,-0.00899
-0.379,0.45295,0.80696,-0.0141,0.00708,-0.01165
-0.379,0.453,0.80693,-0.01063,0.00701,-0.01181
-0.37895,0.45302,0.80694,-0.01326,0.00682,-0.01256
-0.37892,0.45299,0.80697,-0.01604,0.00853,-0.01437
-0.37893,0.45293,0.807,-0.01177,0.00868,-0.01458
-0.37892,0.45284,0.80705,-0.00898,0.00875,-0.01355
-0.37888,0.45276,0.80711,-0.01155,0.00891,-0.01415
-0.37888,0.45265,0.80717,-0.01198,0.00859,-0.01355
-0.37888,0.4525,0.80726,-0.01351,0.0095,-0.01362
-0.37883,0.45231,0.80739,-0.00952,0.00727,-0.01373
-0.3788,0.45206,0.80754,-0.01265,0.00393,-0.01586
-0.37877,0.45181,0.8077,-0.01161,0.00693,-0.01224
-0.37865,0.45165,0.80784,-0.01168,0.0097,-0.01285
-0.37858,0.45152,0.80795,-0.00958,0.01023,-0.0116
-0.3785,0.45142,0.80804,-0.01237,0.00601,-0.01091
-0.37848,0.45135,0.80809,-0.01448,0.00513,-0.01291
-0.37845,0.45132,0.80812,-0.0159,0.0049,-0.01244
-0.37838,0.45127,0.80818,-0.01174,0.0079,-0.01224
-0.37832,0.45121,0.80825,-0.01013,0.00806,-0.01078
-0.37827,0.45115,0.8083,-0.01148,0.00796,-0.01231
-0.3782,0.45108,0.80837,-0.01094,0.00903,-0.01186
-0.37817,0.45104,0.80841,-0.01153,0.00927,-0.01371
-0.37811,0.45103,0.80844,-0.01224,0.00835,-0.01305
-0.37806,0.45101,0.80848,-0.01142,0.00892,-0.01604
-0.37798,0.45098,0.80853,-0.01208,0.00765,-0.01411
-0.37788,0.45094,0.8086,-0.00997,0.00806,-0.01426
-0.37776,0.45089,0.80868,-0.01189,0.00878,-0.01349
-0.37765,0.45082,0.80877,-0.01161,0.00575,-0.01022
-0.37758,0.45075,0.80885,-0.01129,0.00711,-0.01199
-0.37754,0.45069,0.8089,-0.01007,0.00619,-0.01393
-0.3775,0.45067,0.80893,-0.01167,0.00754,-0.01118
-0.37748,0.45065,0.80895,-0.01411,0.00778,-0.01119
-0.37747,0.45061,0.80897,-0.01274,0.00675,-0.01364
-0.37744,0.45056,0.80902,-0.01015,0.00737,-0.01682
-0.37734,0.45052,0.80909,-0.00784,0.00767,-0.01162
-0.37729,0.4505,0.80912,-0.0121,0.00873,-0.00921
-0.37729,0.45053,0.8091,-0.01176,0.00906,-0.01279
-0.37732,0.45058,0.80906,-0.01288,0.00584,-0.01289
-0.37732,0.45064,0.80903,-0.01227,0.00627,-0.01158
-0.37729,0.45067,0.80902,-0.01201,0.00727,-0.01346
-0.37725,0.45065,0.80906,-0.00985,0.00911,-0.01459
-0.37722,0.4506,0.8091,-0.0105,0.00851,-0.01604
-0.37717,0.45058,0.80913,-0.00962,0.00963,-0.01357
-0.37714,0.45056,0.80916,-0.01123,0.00819,-0.01396
-0.37715,0.45055,0.80916,-0.01081,0.0078,-0.01336
-0.37717,0.45052,0.80917,-0.01105,0.00631,-0.01276
-0.37719,0.45051,0.80916,-0.01294,0.00918,-0.01306
-0.37724,0.45051,0.80914,-0.01,0.01162,-0.01283
-0.37727,0.4505,0.80913,-0.01004,0.0084,-0.01482
-0.37727,0.45052,0.80912,-0.01391,0.00515,-0.01336
-0.3773,0.45053,0.8091,-0.01386,0.00625,-0.01335
-0.37735,0.45053,0.80907,-0.01259,0.00711,-0.01315
-0.3774,0.45059,0.80902,-0.01342,0.00763,-0.01332
-0.37746,0.45063,0.80897,-0.01214,0.00932,-0.01379
-0.37756,0.45065,0.80891,-0.01261,0.00798,-0.01382
-0.37763,0.45064,0.80889,-0.0113,0.00894,-0.01393
-0.37766,0.45064,0.80887,-0.01286,0.00902,-0.01369
-0.37766,0.45062,0.80888,-0.01002,0.01032,-0.01282
-0.37765,0.45057,0.80891,-0.01139,0.00671,-0.01085
-0.37767,0.45055,0.80892,-0.00886,0.00875,-0.01015
-0.37773,0.45055,0.80889,-0.00824,0.00761,-0.01201
-0.37784,0.45056,0.80883,-0.01074,0.00609,-0.00928
-0.37792,0.45056,0.80879,-0.01145,0.0071,-0.01025
-0.37799,0.45057,0.80876,-0.01232,0.00588,-0.01376
-0.37807,0.45057,0.80872,-0.01205,0.00799,-0.01387
-0.37815,0.4506,0.80866,-0.01171,0.00767,-0.01313
-0.3782,0.45064,0.80861,-0.01049,0.01072,-0.01276
-0.37826,0.45069,0.80856,-0.01028,0.00905,-0.01323
-0.37833,0.45074,0.8085,-0.01051,0.00823,-0.00868
-0.37843,0.45081,0.80842,-0.01345,0.00858,-0.0102
-0.37851,0.45088,0.80834,-0.01425,0.006,-0.01481
-0.37859,0.45093,0.80827,-0.01121,0.00893,-0.01196
-0.37865,0.45098,0.80822,-0.01304,0.00535,-0.01058
-0.37868,0.45103,0.80817,-0.01211,0.008,-0.01247
-0.3787,0.45103,0.80816,-0.01101,0.00701,-0.01431
-0.37873,0.45106,0.80813,-0.00926,0.0088,-0.013
-0.37877,0.45107,0.80811,-0.01123,0.00557,-0.01169
-0.37884,0.45105,0.80809,-0.01089,0.0067,-0.01201
-0.37886,0.45105,0.80807,-0.01184,0.00467,-0.01576
-0.3789,0.45106,0.80805,-0.0122,0.00764,-0.01253
-0.37895,0.45107,0.80802,-0.01245,0.00733,-0.01293
-0.37898,0.45107,0.80801,-0.0104,0.00757,-0.01085
-0.379,0.45107,0.808,-0.01068,0.00671,-0.01391
-0.37901,0.45109,0.80798,-0.01321,0.00523,-0.01196
-0.37904,0.4511,0.80796,-0.00918,0.0083,-0.01072
-0.37909,0.45112,0.80792,-0.01191,0.00506,-0.00974
-0.37913,0.45118,0.80787,-0.0116,0.00724,-0.01168
-0.37919,0.45122,0.80782,-0.01244,0.00677,-0.01429
-0.37924,0.45123,0.80779,-0.01131,0.00675,-0.0116
-0.37929,0.45124,0.80777,-0.01077,0.00865,-0.01275
-0.3793,0.45126,0.80775,-0.01078,0.00805,-0.01446
-0.37928,0.45127,0.80775,-0.01029,0.00622,-0.01489
-0.37923,0.4513,0.80776,-0.01046,0.00712,-0.01358
-0.37921,0.45133,0.80775,-0.01072,0.00718,-0.01207
-0.37927,0.45134,0.80772,-0.01077,0.00703,-0.01275
-0.37935,0.45135,0.80767,-0.01083,0.00718,-0.01125
-0.37941,0.45138,0.80763,-0.00972,0.00741,-0.01085
-0.37947,0.4514,0.80759,-0.01207,0.00645,-0.01213
-0.37956,0.45142,0.80754,-0.01168,0.00761,-0.01257
-0.37962,0.45141,0.80752,-0.01251,0.00639,-0.01316
-0.37963,0.45141,0.80751,-0.00982,0.00997,-0.01276
-0.37965,0.45142,0.80749,-0.01111,0.00883,-0.01321
-0.37967,0.45145,0.80747,-0.0096,0.00711,-0.01244
-0.37967,0.45149,0.80745,-0.01069,0.00646,-0.00915
-0.37969,0.45154,0.80741,-0.01376,0.00775,-0.01082
-0.37977,0.45158,0.80735,-0.00947,0.00752,-0.01322
-0.37983,0.4516,0.80731,-0.00987,0.00609,-0.00865
-0.37985,0.45163,0.80728,-0.01366,0.00809,-0.0094
-0.37988,0.45164,0.80726,-0.01239,0.00939,-0.01268
-0.37991,0.45166,0.80724,-0.0085,0.00621,-0.01543
-0.37992,0.4517,0.80721,-0.01087,0.00651,-0.01369
-0.37989,0.45173,0.80721,-0.00927,0.00698,-0.01028
-0.37989,0.45178,0.80718,-0.01171,0.00907,-0.01009
-0.3799,0.45181,0.80716,-0.00926,0.00784,-0.01176
-0.3799,0.45182,0.80715,-0.00989,0.0054,-0.01101
-0.37999,0.45184,0.8071,-0.01229,0.00296,-0.01132
-0.38009,0.45185,0.80705,-0.01071,0.00376,-0.01141
-0.38012,0.45185,0.80703,-0.01299,0.00596,-0.01338
-0.38012,0.45185,0.80703,-0.01128,0.00673,-0.01296
-0.3801,0.45186,0.80703,-0.00795,0.00698,-0.01049
-0.38009,0.45191,0.80701,-0.00809,0.00606,-0.01166
-0.38011,0.45199,0.80696,-0.00924,0.00888,-0.01066
-0.38016,0.45209,0.80688,-0.01209,0.00508,-0.01136
-0.3802,0.45215,0.80682,-0.01109,0.00542,-0.01193
-0.38024,0.45219,0.80679,-0.01165,0.00903,-0.01192
-0.38027,0.4522,0.80676,-0.01088,0.00892,-0.01193
-0.38027,0.4522,0.80676,-0.01093,0.00643,-0.01222
-0.38026,0.45219,0.80677,-0.01018,0.0078,-0.0115
-0.38025,0.45221,0.80677,-0.00846,0.00719,-0.00858
-0.38027,0.4522,0.80677,-0.01058,0.00706,-0.01186
-0.38029,0.4522,0.80676,-0.01087,0.00599,-0.01191
-0.38032,0.45225,0.80672,-0.01453,0.00498,-0.01219
-0.38036,0.4523,0.80667,-0.01159,0.00487,-0.01252
-0.38035,0.4523,0.80667,-0.00934,0.0049,-0.01413
-0.38029,0.45225,0.80673,-0.00887,0.00589,-0.01184
-0.38025,0.45224,0.80676,-0.01199,0.00777,-0.0095
-0.38022,0.45222,0.80678,-0.00985,0.00634,-0.01242
-0.3802,0.45221,0.8068,-0.01014,0.00562,-0.01113
-0.38018,0.45223,0.80679,-0.01066,0.00289,-0.01198
-0.38018,0.45222,0.80679,-0.01047,0.00397,-0.01204
-0.38015,0.45216,0.80685,-0.01071,0.00367,-0.01066
-0.38008,0.45214,0.80689,-0.01082,0.00228,-0.00969
-0.38007,0.45219,0.80686,-0.01314,0.00873,-0.01232
-0.38006,0.4522,0.80686,-0.01177,0.00866,-0.01185
-0.37999,0.45224,0.80688,-0.01097,0.00367,-0.01043
-0.37994,0.45222,0.80691,-0.00896,0.00848,-0.01241
-0.3799,0.45214,0.80697,-0.00904,0.0088,-0.01261
-0.37988,0.45209,0.80701,-0.01028,0.00879,-0.01314
-0.37983,0.45204,0.80707,-0.00872,0.00643,-0.013
-0.37981,0.45197,0.80711,-0.00923,0.00817,-0.01309
-0.37979,0.4519,0.80716,-0.00806,0.00686,-0.0116
-0.37975,0.45181,0.80723,-0.00923,0.00724,-0.01008
-0.37972,0.45173,0.80729,-0.00997,0.00461,-0.01064
-0.3797,0.4517,0.80731,-0.00903,0.00423,-0.01473
-0.37965,0.45167,0.80735,-0.01218,0.00388,-0.01115
-0.3796,0.45167,0.80738,-0.01103,0.00355,-0.00997
-0.37958,0.45167,0.80739,-0.00995,0.00404,-0.01375
-0.37945,0.45168,0.80744,-0.01398,0.00253,-0.01234
-0.37923,0.45173,0.80751,-0.0122,0.00647,-0.01291
-0.37898,0.45177,0.80761,-0.01114,0.00787,-0.01133
-0.3788,0.45181,0.80768,-0.00853,0.00823,-0.01425
-0.37865,0.45184,0.80773,-0.01038,0.00698,-0.01067
-0.37847,0.45182,0.80782,-0.00929,0.00666,-0.01121
-0.37834,0.45181,0.80789,-0.00664,0.00534,-0.01066
-0.37827,0.45178,0.80794,-0.0062,0.0086,-0.01
-0.37822,0.45174,0.80799,-0.00892,0.006,-0.008
-0.3782,0.4517,0.80802,-0.00874,0.00465,-0.00815
-0.37818,0.45166,0.80805,-0.01166,0.00204,-0.01244
-0.37815,0.45166,0.80806,-0.01225,0.0025,-0.00965
-0.37808,0.45171,0.80807,-0.01317,0.00381,-0.0106
-0.37798,0.45174,0.8081,-0.01186,0.00386,-0.01234
-0.37785,0.45176,0.80815,-0.01279,0.00689,-0.01094
-0.37778,0.45182,0.80815,-0.01072,0.00625,-0.0122
-0.37774,0.45188,0.80814,-0.01077,0.00619,-0.01219
-0.3777,0.45193,0.80813,-0.00855,0.00512,-0.01023
-0.37765,0.45196,0.80813,-0.00871,0.00809,-0.01087
-0.37765,0.45198,0.80812,-0.00627,0.00813,-0.013
-0.37768,0.45198,0.80811,-0.00793,0.00589,-0.01132
-0.37773,0.45201,0.80807,-0.00747,0.00899,-0.0093
-0.37784,0.45204,0.808,-0.01195,0.00678,-0.01041
-0.37794,0.45207,0.80793,-0.01079,0.00709,-0.01273
-0.37801,0.45215,0.80786,-0.01405,0.00508,-0.01126
-0.37807,0.45221,0.8078,-0.01254,0.00589,-0.01071
-0.37809,0.45224,0.80777,-0.01145,0.00417,-0.01229
-0.37807,0.45226,0.80776,-0.01014,0.00472,-0.0119
-0.37809,0.45227,0.80775,-0.01113,0.00738,-0.01149
-0.37811,0.45225,0.80776,-0.01392,0.00663,-0.01103
-0.37818,0.45222,0.80774,-0.00916,0.00492,-0.0137
-0.37823,0.45219,0.80773,-0.01011,0.00737,-0.01198
-0.37832,0.45219,0.80769,-0.01042,0.00518,-0.01257
-0.3784,0.45219,0.80765,-0.01068,0.0031,-0.01186
-0.37846,0.4522,0.80762,-0.01003,0.003,-0.01137
-0.3785,0.45224,0.80758,-0.01119,0.00414,-0.00956
-0.37859,0.45227,0.80752,-0.00857,0.00371,-0.01071
-0.37867,0.45228,0.80748,-0.00843,0.00497,-0.01173
-0.37874,0.45232,0.80742,-0.00944,0.00511,-0.0114
-0.3788,0.45239,0.80736,-0.00833,0.00552,-0.00955
-0.37887,0.45247,0.80728,-0.01165,0.0068,-0.01211
-0.37892,0.45251,0.80723,-0.00863,0.00524,-0.01278
-0.37895,0.45249,0.80723,-0.01218,0.00574,-0.01194
-0.37897,0.45244,0.80725,-0.01086,0.00845,-0.00892
-0.37906,0.4523,0.80729,-0.01256,0.00607,-0.00855
-0.37919,0.45224,0.80725,-0.01429,0.00694,-0.00926
-0.37931,0.45218,0.80723,-0.01491,0.00879,-0.01226
-0.37949,0.45206,0.80721,-0.00779,0.00959,-0.02138
-0.37956,0.452,0.80722,-0.00643,0.00145,-0.0292
-0.37931,0.45213,0.80726,-0.00726,-0.00299,-0.01504
-0.37881,0.45251,0.80728,-0.01026,-0.00644,0.00279
-0.37834,0.45295,0.80725,-0.00923,-0.0046,0.01265
-0.37815,0.45338,0.8071,-0.00515,-0.01061,0.00622
-0.37827,0.45389,0.80676,-0.00845,-0.00096,0.00019
-0.37859,0.45441,0.80632,-0.0088,0.01341,-0.01353
-0.37909,0.45477,0.80588,-0.00673,0.0133,-0.01828
-0.37968,0.45487,0.80554,-0.00733,0.018,-0.02108
-0.38031,0.45484,0.80527,-0.01425,0.02534,-0.02064
-0.38083,0.45465,0.80512,-0.01579,0.03151,-0.01978
-0.38117,0.45428,0.80518,-0.01413,0.02398,-0.02296
-0.38132,0.45387,0.80534,-0.01508,0.01285,-0.02424
-0.38115,0.45349,0.80562,-0.01652,0.00798,-0.02111
-0.38076,0.4531,0.80603,-0.01292,-0.00208,-0.00762
-0.38024,0.45263,0.80654,-0.0113,-0.00671,-0.00243
-0.37978,0.45218,0.80701,-0.00862,-0.00967,-0.00389
-0.37943,0.45186,0.80735,-0.00195,-0.01085,-0.00625
-0.3791,0.45177,0.80756,-0.00196,-0.0131,-0.00316
-0.37889,0.45194,0.80757,-0.00829,-0.01154,0.00019
-0.37885,0.45231,0.80737,-0.00938,-0.01112,-0.00122
-0.37902,0.45273,0.80706,-0.00538,-0.0039,0.00017
-0.37931,0.45321,0.80666,-0.00287,0.00501,-0.00627
-0.3797,0.4537,0.8062,-0.00594,0.01713,-0.01095
-0.38023,0.45407,0.80574,-0.0075,0.02333,-0.0152
-0.38086,0.4542,0.80536,-0.00654,0.02337,-0.02148
-0.38137,0.45415,0.80515,-0.00701,0.02145,-0.02413
-0.38165,0.45398,0.80511,-0.0104,0.01869,-0.01987
-0.38168,0.45369,0.80526,-0.01182,0.0139,-0.01843
-0.38156,0.45336,0.80551,-0.0149,0.01262,-0.01738
-0.38138,0.45307,0.80575,-0.01962,-0.00199,-0.00751
-0.3812,0.45276,0.80602,-0.02066,-0.00349,-0.00818
-0.38096,0.45243,0.80632,-0.01894,-0.00406,-0.00718
-0.38078,0.45221,0.80652,-0.01001,-0.0058,-0.00797
-0.38067,0.45216,0.8066,-0.00769,-0.00513,-0.00753
-0.38056,0.45233,0.80656,-0.0053,-0.00394,-0.00944
-0.38042,0.45273,0.8064,-0.00617,-0.00511,-0.00717
-0.38023,0.45324,0.8062,-0.00541,-0.0043,-0.00603
-0.38011,0.4537,0.806,-0.00725,-0.00338,-0.00447
-0.3802,0.45406,0.80575,-0.00431,0.01107,-0.00395
-0.38046,0.45438,0.80546,-0.00294,0.01523,-0.00827
-0.3809,0.45456,0.80515,-0.00439,0.01871,-0.01367
-0.38139,0.45456,0.80491,-0.00501,0.01856,-0.01977
-0.38179,0.45444,0.80479,-0.00817,0.01521,-0.0225
-0.38206,0.45419,0.8048,-0.01225,0.01415,-0.01902
-0.3822,0.45386,0.80492,-0.01531,0.01333,-0.01671
-0.38223,0.45351,0.8051,-0.01847,0.00703,-0.01349
-0.38214,0.45315,0.80535,-0.01869,0.00339,-0.01276
-0.38189,0.45283,0.80565,-0.01696,-0.00082,-0.01341
-0.38152,0.45253,0.80599,-0.01609,-0.00687,-0.00591
-0.38115,0.45234,0.80627,-0.01291,-0.00553,-0.00511
-0.38081,0.45231,0.80645,-0.0096,-0.00417,-0.0097
-0.38047,0.45249,0.80651,-0.00535,-0.00574,-0.00977
-0.38017,0.45292,0.80641,-0.00416,-0.0063,-0.00349
-0.37992,0.45341,0.80626,-0.007,0.00345,-0.00119
-0.37989,0.45376,0.80607,-0.00758,0.00417,-0.00022
-0.38012,0.45398,0.80584,-0.00238,0.00751,-0.00873
-0.38038,0.45416,0.80562,-0.00353,0.01194,-0.01454
-0.38059,0.45424,0.80547,-0.00395,0.01402,-0.01525
-0.38074,0.45421,0.80542,-0.00654,0.01624,-0.01764
-0.3808,0.45404,0.80548,-0.00567,0.013,-0.01469
-0.38082,0.45378,0.80562,-0.01021,0.01002,-0.01125
-0.38085,0.45343,0.8058,-0.01188,0.00995,-0.01128
-0.38092,0.45302,0.806,-0.01568,0.00479,-0.01175
-0.38096,0.45258,0.80623,-0.0149,0.00078,-0.01155
-0.38093,0.45212,0.8065,-0.01455,0.0007,-0.01193
-0.38083,0.45167,0.8068,-0.01552,-0.00031,-0.01052
-0.38069,0.45138,0.80703,-0.01198,-0.00091,-0.01562
-0.38044,0.45126,0.80721,-0.00719,-0.00251,-0.01377
-0.38012,0.45134,0.80732,-0.00553,-0.00417,-0.00465
-0.37981,0.45157,0.80734,-0.00726,-0.0038,0.00083
-0.37964,0.45185,0.80726,-0.00846,-0.005,0.00417
-0.37968,0.45215,0.80708,-0.00872,-0.00081,-0.00515
-0.37978,0.45246,0.80685,-0.0084,0.00555,-0.00751
-0.37997,0.45274,0.80661,-0.00875,0.01209,-0.01086
-0.38018,0.45288,0.80643,-0.00716,0.01518,-0.01656
-0.38032,0.45295,0.80632,-0.00647,0.01542,-0.01552
-0.38039,0.45292,0.80631,-0.00596,0.01417,-0.01596
-0.38042,0.4528,0.80636,-0.00816,0.01215,-0.01413
-0.38043,0.45256,0.80649,-0.00931,0.01313,-0.01534
-0.38041,0.45221,0.8067,-0.00971,0.00911,-0.01275
-0.38037,0.45186,0.80691,-0.01439,0.00574,-0.00928
-0.38034,0.45148,0.80714,-0.016,0.00299,-0.00942
-0.3803,0.45111,0.80736,-0.01704,4e-05,-0.00968
-0.38017,0.45085,0.80758,-0.01019,-0.00244,-0.00661
-0.37997,0.45067,0.80777,-0.01139,-0.00317,-0.00563
-0.37978,0.45059,0.8079,-0.00983,-0.00497,-0.00733
-0.37968,0.45069,0.80789,-0.00397,-0.00191,-0.00562
-0.37962,0.45091,0.8078,-0.00522,0.00095,-0.00528
-0.37957,0.45118,0.80767,-0.00768,0.00206,-0.00853
-0.37964,0.45146,0.80748,-0.00673,0.00096,-0.00958
-0.37973,0.45171,0.8073,-0.00764,0.00641,-0.01183
-0.37982,0.45192,0.80714,-0.01153,0.01018,-0.012
-0.37995,0.45204,0.80701,-0.00871,0.01138,-0.01464
-0.3801,0.45206,0.80693,-0.00543,0.0124,-0.01477
-0.38022,0.45197,0.80692,-0.00745,0.01208,-0.01455
-0.38031,0.45184,0.80695,-0.00886,0.01161,-0.01327
-0.38043,0.45165,0.807,-0.01049,0.00878,-0.01288
-0.3805,0.45143,0.8071,-0.01408,0.00373,-0.01256
-0.3805,0.45117,0.80724,-0.01547,0.00438,-0.01169
-0.3805,0.45086,0.80741,-0.01375,0.00424,-0.00874
-0.38048,0.45053,0.8076,-0.00999,-0.00186,-0.01117
-0.38038,0.45031,0.80777,-0.009,-0.00256,-0.0101
-0.38026,0.45026,0.80786,-0.00779,-0.00078,-0.00619
-0.38012,0.45032,0.80789,-0.00604,7e-05,-0.00657
-0.38001,0.45052,0.80783,-0.00674,-0.00019,-0.00499
-0.37998,0.4508,0.80769,-0.00776,-0.0046,-0.00502
-0.38003,0.45109,0.80751,-0.00639,0.00147,-0.00608
-0.38014,0.4514,0.80728,-0.00812,0.00127,-0.00752
-0.38027,0.45169,0.80706,-0.00775,0.00821,-0.0086
-0.38041,0.45197,0.80683,-0.00776,0.01154,-0.01113
-0.38057,0.45218,0.80664,-0.00624,0.00821,-0.01408
-0.38072,0.45231,0.8065,-0.00684,0.00883,-0.01513
-0.38079,0.45228,0.80648,-0.00798,0.01082,-0.01632
-0.3809,0.45214,0.80651,-0.00677,0.01228,-0.01234
-0.38103,0.45194,0.80656,-0.01349,0.01039,-0.01106
-0.38118,0.45174,0.8066,-0.01555,0.00755,-0.01338
-0.38132,0.45154,0.80664,-0.01333,0.00412,-0.01198
-0.38136,0.45134,0.80674,-0.0119,-0.00091,-0.01042
-0.38133,0.45112,0.80687,-0.00953,-0.00188,-0.00916
-0.38122,0.45091,0.80704,-0.00648,-0.00339,-0.00823
-0.38108,0.45081,0.80717,-0.00558,-6e-05,-0.00968
-0.38091,0.45084,0.80723,-0.00761,-0.00085,-0.00483
-0.38077,0.45102,0.8072,-0.00691,0.00139,-0.0057
-0.38072,0.45124,0.80709,-0.00595,-0.00202,-0.00622
-0.38076,0.45151,0.80693,-0.00753,-0.00047,-0.00499
-0.38083,0.45184,0.80671,-0.00832,0.00232,-0.00692
-0.38092,0.45217,0.80648,-0.00711,0.00422,-0.0064
-0.38107,0.45246,0.80625,-0.00712,0.00451,-0.00802
-0.38126,0.45266,0.80604,-0.00655,0.00943,-0.01497
-0.38146,0.45278,0.80589,-0.00674,0.00972,-0.01557
-0.3816,0.45282,0.80579,-0.00721,0.00735,-0.01586
-0.38168,0.45279,0.80577,-0.00979,0.01195,-0.01471
-0.38175,0.45265,0.80581,-0.01005,0.01019,-0.01402
-0.38182,0.45247,0.80589,-0.00801,0.00923,-0.01062
-0.38188,0.45229,0.80596,-0.01235,0.00577,-0.00849
-0.3819,0.45207,0.80607,-0.01234,0.00229,-0.0084
-0.38191,0.45187,0.80618,-0.01013,-0.00251,-0.01231
-0.38186,0.45168,0.80631,-0.00683,-0.00378,-0.00916
-0.38167,0.45162,0.80643,-0.00551,-0.00393,-0.00971
-0.3814,0.45176,0.80648,-0.00682,-0.00043,-0.00914
-0.38113,0.452,0.80647,-0.00861,-0.00051,-0.00591
-0.38099,0.45232,0.80636,-0.00886,-0.00243,-0.00244
-0.38097,0.45269,0.80617,-0.00723,-0.00173,-0.00189
-0.38111,0.45302,0.80591,-0.00909,0.00847,-0.00745
-0.3813,0.45328,0.80568,-0.0089,0.00821,-0.00722
-0.38158,0.45341,0.80547,-0.00564,0.01158,-0.01482
-0.38186,0.45342,0.80534,-0.00467,0.01105,-0.01765
-0.38206,0.45333,0.80529,-0.00695,0.01298,-0.01611
-0.38218,0.45314,0.80534,-0.01079,0.01489,-0.01054
-0.3823,0.4529,0.80542,-0.01286,0.00827,-0.01013
-0.38239,0.45267,0.80551,-0.0133,0.00588,-0.01266
-0.38246,0.45241,0.80562,-0.01155,0.00076,-0.01094
-0.38242,0.45219,0.80576,-0.01257,-0.00272,-0.00922
-0.38229,0.452,0.80593,-0.0131,-0.00641,-0.00948
-0.3821,0.45195,0.80605,-0.00911,-0.00543,-0.00991
-0.38184,0.45207,0.8061,-0.00796,-0.00717,-0.00652
-0.38159,0.45234,0.80607,-0.0069,-0.00269,-0.00276
-0.38149,0.45267,0.80593,-0.00872,-0.00015,-0.0034
-0.38154,0.45302,0.80571,-0.00734,-0.00143,-0.00649
-0.38167,0.45339,0.80544,-0.00671,0.00502,-0.00545
-0.38186,0.45372,0.80517,-0.00611,0.01129,-0.01081
-0.38211,0.45394,0.80493,-0.00622,0.01184,-0.01213
-0.38237,0.45402,0.80475,-0.00363,0.01123,-0.0164
-0.38254,0.454,0.80468,-0.00761,0.01379,-0.01506
-0.38267,0.45387,0.8047,-0.0092,0.01324,-0.0111
-0.3828,0.45361,0.80478,-0.00936,0.0086,-0.0115
-0.38285,0.45331,0.80493,-0.01424,0.00668,-0.00983
-0.38285,0.45302,0.80509,-0.01243,0.00035,-0.00977
-0.38283,0.45269,0.80528,-0.01462,-0.00274,-0.01079
-0.38271,0.45241,0.8055,-0.01339,-0.00573,-0.00951
-0.38256,0.45221,0.80568,-0.00962,-0.00434,-0.00623
-0.3824,0.45212,0.80581,-0.00632,-0.00101,-0.00634
-0.38224,0.4522,0.80584,-0.00434,-0.00129,-0.00668
-0.38205,0.45246,0.80578,-0.00392,-0.00237,-0.00352
-0.38194,0.45278,0.80566,-0.007,-0.00283,-0.00448
-0.38195,0.45308,0.80548,-0.00713,0.00222,-0.00641
-0.38206,0.45332,0.80529,-0.00785,0.004,-0.00765
-0.38219,0.45351,0.80512,-0.00575,0.01164,-0.01066
-0.38233,0.45362,0.805,-0.00334,0.01047,-0.01272
-0.38243,0.45365,0.80493,-0.00513,0.00959,-0.01396
-0.38249,0.45357,0.80495,-0.00605,0.0099,-0.01172
-0.38249,0.4534,0.80505,-0.0083,0.00827,-0.01241
-0.38244,0.45313,0.80522,-0.01117,0.00561,-0.01217
-0.38238,0.45281,0.80543,-0.0125,0.0027,-0.01025
-0.3823,0.45243,0.80568,-0.01226,-0.00313,-0.01235
-0.38214,0.45203,0.80598,-0.01406,-0.00373,-0.01192
-0.38194,0.4517,0.80626,-0.01044,-0.00046,-0.00495
-0.38177,0.45152,0.80644,-0.00572,0.0016,-0.00373
-0.38162,0.45147,0.80654,-0.00322,-0.00289,-0.00346
-0.38147,0.45155,0.80657,-0.00398,-0.00344,-0.00396
-0.38129,0.45172,0.80656,-0.00571,-0.00052,-0.00835
-0.38124,0.45191,0.80647,-0.00803,0.00063,-0.00923
-0.38127,0.45206,0.80638,-0.00896,0.00105,-0.00746
-0.38127,0.45215,0.80633,-0.00942,0.00395,-0.00799
-0.38133,0.45221,0.80626,-0.0069,0.00534,-0.00861
-0.38137,0.4523,0.8062,-0.00726,0.00727,-0.008
-0.3814,0.45235,0.80615,-0.00594,0.00848,-0.00981
-0.38141,0.45232,0.80616,-0.00737,0.00754,-0.01341
-0.38142,0.45218,0.80624,-0.0077,0.00537,-0.01216
-0.38141,0.45198,0.80636,-0.00807,0.00762,-0.00632
-0.38143,0.45172,0.80649,-0.00892,0.00587,-0.00922
-0.38147,0.45145,0.80662,-0.01016,0.00189,-0.01095
-0.38146,0.45122,0.80676,-0.0138,-0.00046,-0.01106
-0.38138,0.45106,0.80689,-0.01446,-0.0023,-0.00902
-0.3812,0.45097,0.80702,-0.01056,-0.0032,-0.00912
-0.38095,0.45091,0.80717,-0.00896,-0.00157,-0.00925
-0.3807,0.45093,0.80728,-0.00668,-0.00137,-0.00652
-0.3805,0.45109,0.80729,-0.00541,0.00079,-0.00414
-0.38035,0.45133,0.80722,-0.00637,-0.00093,-0.00209
-0.38025,0.45158,0.80713,-0.00497,0.00224,-0.00668
-0.38023,0.45179,0.80702,-0.00565,0.00551,-0.00702
-0.38027,0.45195,0.80691,-0.00413,0.01097,-0.0085
-0.38035,0.45205,0.80682,-0.00583,0.0099,-0.0095
-0.38048,0.45206,0.80675,-0.00732,0.01109,-0.01252
-0.38055,0.45199,0.80675,-0.00682,0.01027,-0.01154
-0.38058,0.45183,0.80683,-0.00912,0.00752,-0.01172
-0.38061,0.45163,0.80693,-0.00933,0.00623,-0.01084
-0.38063,0.4514,0.80705,-0.01315,0.00464,-0.01092
-0.38062,0.45118,0.80718,-0.01217,0.0015,-0.00926
-0.38056,0.45098,0.80732,-0.01316,-0.00245,-0.01125
-0.38047,0.45082,0.80745,-0.01035,-0.00418,-0.0101
-0.38031,0.45079,0.80754,-0.00893,-0.00518,-0.00644
-0.3801,0.45083,0.80762,-0.00715,-0.00512,-0.00577
-0.3799,0.45105,0.80759,-0.01035,-0.00355,-0.00188
-0.37983,0.45135,0.80746,-0.01072,-0.00129,-0.00143
-0.37988,0.45165,0.80727,-0.00658,0.00012,-0.00224
-0.38001,0.4519,0.80706,-0.00401,0.00809,-0.0066
-0.38017,0.45211,0.80687,-0.00171,0.01076,-0.0093
-0.38036,0.45221,0.80673,-0.00374,0.01219,-0.01306
-0.38053,0.45223,0.80663,-0.00754,0.00881,-0.01714
-0.38064,0.45216,0.80662,-0.0079,0.00977,-0.01303
-0.38068,0.45199,0.8067,-0.01036,0.00834,-0.0113
-0.38074,0.45176,0.8068,-0.00928,0.00341,-0.01052
-0.38074,0.45153,0.80693,-0.01065,0.00128,-0.00824
-0.38066,0.4514,0.80704,-0.01109,-0.00206,-0.00726
-0.3806,0.45132,0.80711,-0.01132,-0.01009,-0.00784
-0.38054,0.45131,0.80715,-0.01236,-0.00729,-0.00606
-0.38052,0.45138,0.80711,-0.0113,-0.00627,-0.00432
-0.38055,0.4515,0.80703,-0.00998,-0.00367,-0.00283
-0.38064,0.45165,0.80691,-0.00759,0.0012,-0.00839
-0.38071,0.45184,0.80677,-0.00596,0.0032,-0.00963
-0.38081,0.45201,0.80663,-0.00423,0.00736,-0.01053
-0.38096,0.45212,0.80649,-0.00556,0.00958,-0.00951
-0.38109,0.4522,0.80638,-0.004,0.00852,-0.01111
-0.38121,0.45221,0.80632,-0.00258,0.00617,-0.01169
-0.38128,0.4522,0.8063,-0.00693,0.00579,-0.00918
-0.3813,0.45215,0.80632,-0.01112,0.00089,-0.00889
-0.38129,0.45209,0.80635,-0.01056,-0.00229,-0.00678
-0.38124,0.45204,0.8064,-0.00949,-0.00238,-0.00866
-0.38125,0.45199,0.80643,-0.01107,-0.00132,-0.00708
-0.38129,0.45197,0.80642,-0.01137,-0.00063,-0.00811
-0.38131,0.45202,0.80639,-0.01014,0.00132,-0.00663
-0.38133,0.4521,0.80633,-0.00676,0.00063,-0.0076
-0.3814,0.45217,0.80626,-0.00541,0.00222,-0.00799
-0.38148,0.45225,0.80617,-0.00615,0.00426,-0.00957
-0.38151,0.4523,0.80613,-0.00655,0.00455,-0.00882
-0.38154,0.45233,0.8061,-0.00501,0.00374,-0.00593
-0.38158,0.45235,0.80607,-0.00933,0.00342,-0.00613
-0.38162,0.45238,0.80603,-0.00906,0.00149,-0.00827
-0.38168,0.45242,0.80598,-0.00775,0.00226,-0.00862
-0.38175,0.45245,0.80593,-0.00716,0.00209,-0.00733
-0.38179,0.45248,0.80589,-0.0081,0.0013,-0.00473
-0.38182,0.45253,0.80586,-0.00789,0.00247,-0.00648
-0.38187,0.45259,0.8058,-0.00866,0.00102,-0.01049
-0.38196,0.45266,0.80572,-0.00883,0.00073,-0.01045
-0.38202,0.45272,0.80566,-0.00955,0.00136,-0.00962
-0.38207,0.45276,0.80561,-0.00908,0.00246,-0.00896
-0.38214,0.45278,0.80557,-0.008,0.00312,-0.00967
-0.3822,0.45281,0.80552,-0.00744,0.00419,-0.00904
-0.38224,0.45284,0.80549,-0.00773,0.00074,-0.00791
-0.38225,0.45285,0.80548,-0.00911,0.00218,-0.00747
-0.38227,0.45285,0.80547,-0.00596,0.00209,-0.00874
-0.38228,0.45284,0.80546,-0.00739,-0.00119,-0.00996
-0.38232,0.45286,0.80544,-0.00777,0.0005,-0.00669
-0.38233,0.45289,0.80542,-0.00756,0.00073,-0.00552
-0.38234,0.45295,0.80538,-0.00653,0.00205,-0.00795
-0.38239,0.45299,0.80533,-0.00693,0.00177,-0.00906
-0.38248,0.45301,0.80528,-0.00778,0.00255,-0.00869
-0.38251,0.45303,0.80525,-0.00692,0.00251,-0.0097
-0.38253,0.45302,0.80525,-0.0098,0.00309,-0.00801
-0.38257,0.45303,0.80522,-0.00718,0.00324,-0.00844
-0.3826,0.45305,0.80519,-0.00845,0.00296,-0.00956
-0.38262,0.45307,0.80517,-0.00898,0.00153,-0.0073
-0.38266,0.45309,0.80515,-0.00695,0.00019,-0.00745
-0.38266,0.4531,0.80514,-0.00852,-0.0007,-0.00814
-0.38266,0.45313,0.80512,-0.00679,0.00224,-0.00805
-0.38265,0.45316,0.80511,-0.00752,0.00137,-0.00744
-0.38266,0.45319,0.80508,-0.00598,0.00268,-0.0094
-0.38267,0.45322,0.80507,-0.00704,0.00374,-0.00808
-0.38268,0.45321,0.80507,-0.00777,0.00444,-0.00631
-0.38271,0.4532,0.80506,-0.00622,0.00461,-0.00693
-0.38277,0.45319,0.80503,-0.00443,0.00489,-0.00245
-0.38292,0.45319,0.80496,-0.00511,-0.00069,-0.00832
-0.38311,0.45318,0.80488,-0.00929,-0.0005,-0.01144
-0.38317,0.45314,0.80487,-0.01193,0.00064,-0.00803
-0.38324,0.45312,0.80485,-0.01294,0.00609,-0.00672
-0.38336,0.45312,0.80479,-0.01332,0.00338,-0.00838
-0.38352,0.45307,0.80475,-0.00956,0.00056,-0.00781
-0.38362,0.45308,0.80469,-0.00882,-0.00199,-0.00585
-0.38362,0.45319,0.80463,-0.00829,-0.00075,-0.00725
-0.38356,0.45327,0.80461,-0.00342,0.00269,-0.00917
-0.38348,0.45335,0.8046,-0.00519,0.00461,-0.00576
-0.38345,0.45338,0.8046,-0.0024,0.00556,-0.00762
-0.38346,0.4533,0.80464,-0.005,0.00311,-0.00975
-0.38353,0.45323,0.80464,-0.00606,0.00247,-0.00612
-0.38364,0.45325,0.80459,-0.01003,0.00133,-0.00817
-0.38373,0.45326,0.80454,-0.01131,-0.00057,-0.01209
-0.38376,0.45322,0.80454,-0.00966,-0.00048,-0.00956
-0.38373,0.45318,0.80458,-0.0074,0.00383,-0.00251
-0.38372,0.45315,0.8046,-0.00689,0.00204,-0.00515
-0.38381,0.45315,0.80456,-0.00906,-7e-05,-0.01048
-0.38386,0.45319,0.80451,-0.00921,0.00028,-0.01037
-0.38386,0.45327,0.80447,-0.00939,-0.00069,-0.00682
-0.38388,0.45334,0.80442,-0.00987,3e-05,-0.0062
-0.38389,0.45338,0.80439,-0.00838,0.00277,-0.00975
-0.3838,0.45339,0.80443,-0.00646,0.00433,-0.01009
-0.38374,0.45339,0.80446,-0.00478,0.00652,-0.0076
-0.38376,0.4534,0.80444,-0.00632,0.00381,-0.00542
-0.38382,0.45342,0.8044,-0.00715,0.00255,-0.00774
-0.38385,0.45341,0.80439,-0.00714,-0.00222,-0.00831
-0.38382,0.45339,0.80442,-0.00881,0.00079,-0.00686
-0.38378,0.45335,0.80446,-0.00955,-0.00032,-0.00612
-0.38372,0.4533,0.80452,-0.00608,0.00155,-0.00644
-0.38363,0.45327,0.80458,-0.00744,0.00273,-0.00735
-0.38358,0.45325,0.80461,-0.00691,0.00189,-0.00656
-0.38357,0.45325,0.80461,-0.00714,0.00029,-0.00806
-0.38357,0.45325,0.80462,-0.00816,-0.00156,-0.00737
-0.38356,0.45327,0.80461,-0.00727,-0.00086,-0.00682
-0.38348,0.45332,0.80462,-0.00857,0.00112,-0.00705
-0.38342,0.45335,0.80463,-0.00539,0.00294,-0.00574
-0.38333,0.45334,0.80468,-0.00367,0.0044,-0.0083
-0.38325,0.45327,0.80475,-0.00536,0.00409,-0.00545
-0.38323,0.45318,0.80482,-0.00733,0.00669,-0.00594
-0.38322,0.45306,0.80489,-0.00539,0.0067,-0.00919
-0.38327,0.45289,0.80496,-0.00581,0.00796,-0.01088
-0.38337,0.45265,0.80505,-0.00369,0.0089,-0.00924
-0.38338,0.45232,0.80523,-0.00536,0.00061,-0.01208
-0.38326,0.45205,0.80544,-0.00576,-0.01081,-0.0109
-0.38292,0.45201,0.80562,-0.01152,-0.00981,-0.00762
-0.38254,0.45222,0.80568,-0.01521,-0.00662,-0.00026
-0.38227,0.4525,0.80566,-0.00915,0.00042,0.00434
-0.38222,0.45259,0.80563,-0.00928,0.00017,0.00335
-0.38244,0.45245,0.8056,-0.00257,0.0016,-0.00648
-0.38284,0.45223,0.80554,-0.00335,0.00608,-0.01483
-0.38319,0.45208,0.80546,-0.00281,0.01406,-0.0194
-0.38334,0.45192,0.80547,-0.0085,0.01488,-0.01936
-0.38338,0.4517,0.80558,-0.01015,0.01259,-0.01586
-0.38333,0.45139,0.80577,-0.0112,-0.0001,-0.01735
-0.38311,0.45111,0.80603,-0.00979,-0.00197,-0.01413
-0.38277,0.45098,0.80627,-0.00935,-0.00829,-0.00341
-0.38235,0.45096,0.80648,-0.00809,-0.01436,0.00448
-0.382,0.45104,0.8066,-0.00809,-0.01544,0.01217
-0.3818,0.4512,0.80661,-0.0055,-0.01088,0.00748
-0.38178,0.45133,0.80654,-0.00497,-0.00297,-0.00094
-0.38199,0.45142,0.80639,-0.00257,0.00637,-0.01234
-0.38244,0.45143,0.80618,-3e-05,0.01629,-0.01559
-0.38294,0.45139,0.80596,-0.00425,0.02038,-0.0174
-0.38336,0.45126,0.80583,-0.00504,0.02026,-0.01782
-0.38361,0.45112,0.80579,-0.00654,0.01907,-0.01348
-0.38373,0.45094,0.80584,-0.01117,0.00724,-0.01143
-0.38372,0.45075,0.80595,-0.01142,-0.00032,-0.01111
-0.38353,0.45068,0.80608,-0.01203,-0.0078,-0.01012
-0.38316,0.45081,0.80618,-0.01986,-0.01756,0.0022
-0.38273,0.45099,0.80628,-0.02022,-0.01728,0.00431
-0.38241,0.45112,0.80636,-0.01744,-0.01857,0.0017
-0.38226,0.45121,0.80638,-0.00851,-0.00514,0.00035
-0.38217,0.45138,0.80633,-0.0055,0.00025,-0.00213
-0.38223,0.45161,0.80617,-0.00308,0.00354,-0.00405
-0.38245,0.45187,0.80592,-0.00058,0.01642,-0.01459
-0.3827,0.45216,0.80564,-0.00156,0.01961,-0.0173
-0.38292,0.45231,0.80545,-0.00192,0.0185,-0.01671
-0.38308,0.45229,0.80539,-0.00449,0.00854,-0.01471
-0.38308,0.45214,0.80547,-0.00518,0.00415,-0.01087
-0.38291,0.45189,0.80569,-0.00848,0.00021,-0.00789
-0.38267,0.45176,0.80588,-0.01502,-0.01026,0.00389
-0.38247,0.4517,0.80601,-0.01192,-0.01198,0.00203
-0.38236,0.45167,0.80608,-0.01306,-0.01637,-0.00202
-0.38229,0.45172,0.80609,-0.01026,-0.00976,-0.00413
-0.38223,0.45181,0.80606,-0.00754,0.00058,-0.00514
-0.38223,0.45186,0.80604,-0.00171,0.01096,-0.00788
-0.38233,0.45187,0.80598,0.00182,0.01204,-0.01548
-0.38253,0.45192,0.80586,0.00251,0.00996,-0.01644
-0.38271,0.45199,0.80574,-0.00334,0.00564,-0.0103
-0.38275,0.45201,0.8057,-0.008,0.0032,-0.00759
-0.38276,0.45195,0.80573,-0.01238,1e-05,-0.00693
-0.38279,0.45184,0.80578,-0.01104,-0.00169,-0.0033
-0.38278,0.45174,0.80584,-0.0121,-0.00405,-0.00507
-0.38278,0.4517,0.80587,-0.00989,-0.00638,-0.00663
-0.38277,0.45173,0.80585,-0.00791,-0.00662,-0.00522
-0.38277,0.45181,0.8058,-0.00763,-0.00072,-0.00785
-0.38282,0.45188,0.80575,-0.00733,0.00114,-0.01026
-0.38293,0.45191,0.80567,-0.00481,0.00275,-0.00883
-0.38304,0.45195,0.8056,-0.0041,0.0072,-0.00934
-0.38316,0.45203,0.8055,-0.00773,0.00394,-0.00728
-0.3833,0.45214,0.80537,-0.00827,-0.00265,-0.00785
-0.38339,0.45225,0.80526,-0.01172,-0.00204,-0.00465
-0.38342,0.45235,0.8052,-0.01299,-0.00069,-0.00441
-0.38342,0.45239,0.80517,-0.01056,-0.00174,-0.00616
-0.38345,0.45241,0.80515,-0.00864,-0.0011,-0.00619
-0.38349,0.45244,0.80511,-0.00628,0.00317,-0.00692
-0.38353,0.45249,0.80506,-0.00498,0.00314,-0.00753
-0.38359,0.45254,0.805,-0.00434,0.00709,-0.00729
-0.38367,0.45253,0.80498,-0.00302,0.00548,-0.00803
-0.38371,0.4525,0.80497,-0.00653,0.00128,-0.01031
-0.38374,0.4525,0.80496,-0.0051,0.00125,-0.01017
-0.38371,0.45255,0.80495,-0.00795,0.0014,-0.00766
-0.38367,0.45264,0.80491,-0.00978,-0.00413,-0.00495
-0.38362,0.45273,0.80489,-0.00939,-0.00563,-0.00421
-0.38358,0.45281,0.80486,-0.01042,-0.00197,-0.00724
-0.38359,0.4529,0.8048,-0.00917,-0.00017,-0.00425
-0.38368,0.45305,0.80468,-0.00712,0.00348,-0.00426
-0.38381,0.45317,0.80455,-0.00486,0.00457,-0.00712
-0.38397,0.45322,0.80444,-0.00459,0.00668,-0.00891
-0.38408,0.45325,0.80437,-0.00387,0.0086,-0.00672
-0.38418,0.45326,0.80432,-0.00496,0.00869,-0.0097
-0.38427,0.45326,0.80428,-0.00575,0.0048,-0.0077
-0.3843,0.45332,0.80423,-0.00431,-0.00134,-0.00514
-0.38423,0.45347,0.80418,-0.00441,-0.00205,-0.00434
-0.3841,0.45371,0.80411,-0.00738,-0.00495,-0.00686
-0.38394,0.45395,0.80404,-0.01428,-0.01055,-0.00789
-0.38384,0.45414,0.80398,-0.01424,-0.00979,-0.00576
-0.38384,0.45429,0.8039,-0.01501,-0.00982,-0.00669
-0.38389,0.45441,0.80381,-0.00939,0.00013,-0.00499
-0.38398,0.45454,0.80369,-0.00808,0.00328,-0.0068
-0.38411,0.45465,0.80357,-0.00486,0.00688,-0.00976
-0.38425,0.45476,0.80344,-0.00339,0.00646,-0.00655
-0.38438,0.45484,0.80334,-0.00103,0.00633,-0.01136
-0.38443,0.45489,0.80328,-0.007,0.00192,-0.01188
-0.38441,0.45491,0.80327,-0.006,0.00305,-0.00652
-0.38434,0.45496,0.80329,-0.00943,8e-05,-0.00394
-0.38421,0.45496,0.80334,-0.01214,-0.00862,-0.00711
-0.38395,0.45498,0.80346,-0.00636,-0.00919,-0.00186
-0.38367,0.45508,0.80354,-0.00337,-0.00573,0.00202
-0.38358,0.4553,0.80346,-0.00507,0.00021,0.00137
-0.38359,0.45548,0.80335,-0.00056,0.00347,-0.00731
-0.38366,0.45567,0.8032,-0.00375,0.00659,-0.01158
-0.38381,0.45589,0.80301,-0.00893,0.0079,-0.01285
-0.384,0.45607,0.80282,-0.0091,0.00779,-0.01482
-0.38418,0.4561,0.80271,-0.01084,0.00621,-0.01752
-0.38426,0.45601,0.80273,-0.00585,0.00645,-0.01533
-0.38422,0.45586,0.80283,-0.00661,0.00621,-0.00865
-0.38412,0.45571,0.80296,-0.00574,0.00303,-0.00372
-0.38394,0.45559,0.80312,-0.00633,-0.00431,-0.00264
-0.38373,0.4555,0.80327,-0.00932,-0.00756,-0.00195
-0.38359,0.45547,0.80336,-0.01008,-0.00956,-0.00178
-0.38351,0.45542,0.80342,-0.00848,-0.00724,-0.00287
-0.38346,0.45536,0.80347,-0.00694,-0.0029,-0.00533
-0.38346,0.45541,0.80345,-0.00657,0.00139,-0.00564
-0.38348,0.45554,0.80336,-0.0058,0.007,-0.00873
-0.38352,0.45565,0.80328,-0.00358,0.00501,-0.00798
-0.38357,0.45572,0.80322,-0.00487,0.00229,-0.00514
-0.38366,0.45574,0.80317,-0.00457,0.00474,-0.00808
-0.38371,0.45575,0.80313,-0.00882,-0.00092,-0.0112
-0.38373,0.45574,0.80313,-0.00755,-0.00267,-0.00757
-0.38373,0.45574,0.80313,-0.00855,-0.00213,-0.00789
-0.38375,0.45571,0.80314,-0.00819,-0.00243,-0.00526
-0.38378,0.45565,0.80316,-0.00802,-0.00047,-0.00752
-0.3838,0.45561,0.80317,-0.0059,0.00064,-0.00689
-0.38388,0.45558,0.80316,-0.00615,0.00153,-0.00526
-0.384,0.45557,0.8031,-0.00675,0.00303,-0.00691
-0.38409,0.45558,0.80305,-0.00736,-0.00144,-0.00662
-0.38416,0.45558,0.80302,-0.00715,0.00267,-0.00975
-0.3842,0.45555,0.80301,-0.00649,0.00229,-0.00777
-0.3842,0.4555,0.80304,-0.00774,0.0016,-0.00844
-0.38419,0.45548,0.80306,-0.00844,-0.00081,-0.0077
-0.38411,0.4555,0.80309,-0.00958,-0.00226,-0.00658
-0.38396,0.4556,0.8031,-0.01018,-0.00055,-0.00331
-0.38383,0.45579,0.80305,-0.00806,-0.0032,-0.00549
-0.38377,0.45591,0.80302,-0.00648,-0.0016,-0.0057
-0.38383,0.45599,0.80294,-0.00362,0.00335,-0.0042
-0.38394,0.45603,0.80287,-0.00344,0.00291,-0.0064
-0.38401,0.45602,0.80284,-0.00445,0.002,-0.00744
-0.38411,0.45593,0.80284,-0.00804,0.00153,-0.00978
-0.38414,0.45584,0.80288,-0.0087,0.00171,-0.0089
-0.3841,0.45573,0.80296,-0.01176,0.00348,-0.01111
-0.38401,0.45563,0.80306,-0.00939,-0.0026,-0.00826
-0.3839,0.45558,0.80314,-0.00901,-0.0016,-0.00752
-0.38378,0.45554,0.80322,-0.00653,-0.00589,-0.00301
-0.38368,0.45545,0.80332,-0.00687,-0.00359,-0.00422
-0.38357,0.45536,0.80342,-0.00603,0.0004,-0.00499
-0.3835,0.45529,0.80349,-0.00785,0.00058,-0.00683
-0.38345,0.45522,0.80356,-0.00499,0.00282,-0.01056
-0.3834,0.4551,0.80365,-0.00451,0.0053,-0.00914
-0.38332,0.455,0.80375,-0.00459,0.00264,-0.00404
-0.38328,0.45491,0.80382,-0.00925,-0.0012,-0.00332
-0.3833,0.4549,0.80381,-0.01001,0.00131,-0.00663
-0.38332,0.45489,0.80381,-0.00816,0.00212,-0.0086
-0.38329,0.45486,0.80384,-0.01009,-0.00239,-0.00685
-0.38318,0.45482,0.80391,-0.00666,-0.00225,-0.00357
-0.38307,0.45475,0.80401,-0.00636,-0.00228,-0.00543
-0.38301,0.45469,0.80407,-0.00716,-0.00234,-0.00529
-0.38294,0.45464,0.80413,-0.00611,0.00108,-0.00607
-0.38289,0.45458,0.80419,-0.00903,0.00142,-0.00693
-0.38291,0.45452,0.80421,-0.00752,0.00185,-0.00845
-0.38298,0.45446,0.80422,-0.00792,0.00248,-0.00902
-0.38303,0.45439,0.80424,-0.00732,0.0019,-0.00678
-0.38303,0.45431,0.80428,-0.00516,-0.00112,-0.00836
-0.38298,0.45421,0.80435,-0.00693,-0.00287,-0.01003
-0.38288,0.45408,0.80448,-0.00814,-0.00282,-0.00826
-0.38278,0.45398,0.80458,-0.00741,3e-05,-0.00305
-0.38268,0.45393,0.80466,-0.0081,-0.00233,-0.00515
-0.38259,0.45394,0.80469,-0.00681,-0.00247,-0.00524
-0.38256,0.454,0.80467,-0.00568,-0.00147,-0.00392
-0.38256,0.45406,0.80464,-0.005,0.00083,-0.00783
-0.38261,0.45407,0.80461,-0.0079,0.00049,-0.00791
-0.38267,0.45404,0.8046,-0.00883,0.00472,-0.01028
-0.38273,0.45402,0.80458,-0.00622,0.00586,-0.00986
-0.38279,0.45402,0.80455,-0.00692,0.00337,-0.00765
-0.38281,0.45401,0.80455,-0.00667,-0.00098,-0.00601
-0.3828,0.45397,0.80458,-0.00998,-0.00059,-0.00633
-0.38276,0.45399,0.80459,-0.0077,-0.00222,-0.00294
-0.38274,0.45402,0.80458,-0.00732,-0.00288,-0.00432
-0.38271,0.45407,0.80456,-0.00944,-0.00421,-0.00723
-0.3827,0.45417,0.80451,-0.00814,-0.0041,-0.00498
-0.38267,0.4543,0.80445,-0.00836,-0.00095,-0.00847
-0.3826,0.45447,0.80439,-0.00574,0.00072,-0.00837
-0.38251,0.45463,0.80434,-0.00432,0.0028,-0.00948
-0.38241,0.45475,0.80432,-0.00515,0.00454,-0.00691
-0.38236,0.45476,0.80434,-0.00535,0.00523,-0.00693
-0.38237,0.45477,0.80433,-0.00828,0.00717,-0.00377
-0.38245,0.45474,0.80431,-0.00621,0.0056,-0.01056
-0.38256,0.45465,0.80431,-0.0062,0.00029,-0.0106
-0.38262,0.45457,0.80433,-0.00872,-0.00057,-0.00786
-0.38261,0.45447,0.80439,-0.00614,-0.0011,-0.00821
-0.3826,0.45432,0.80447,-0.00621,-0.00257,-0.00805
-0.38259,0.45419,0.80455,-0.00451,-0.0027,-0.00409
-0.38259,0.45407,0.80462,-0.0045,-0.00258,-0.00338
-0.38261,0.45395,0.80468,-0.00395,-0.00225,-0.00457
-0.38266,0.45386,0.8047,-0.0058,-0.00062,-0.00295
-0.38276,0.45384,0.80467,-0.00553,-0.00058,-0.00475
-0.38288,0.45389,0.80458,-0.00685,-0.00162,-0.00739
-0.38301,0.45397,0.80448,-0.00773,-0.00093,-0.00912
-0.3831,0.45406,0.80438,-0.00737,0.00109,-0.0069
-0.38316,0.45413,0.80432,-0.00942,0.00069,-0.00659
-0.38322,0.45419,0.80425,-0.00969,0.00253,-0.00773
-0.38329,0.45422,0.8042,-0.0127,0.00612,-0.01007
-0.38335,0.45421,0.80418,-0.01471,0.00325,-0.00767
-0.3833,0.45419,0.80422,-0.01491,0.00344,-0.00545
-0.38312,0.45416,0.80432,-0.01337,-4e-05,-0.00825
-0.38288,0.45418,0.80442,-0.00631,-0.00298,-0.00932
-0.3826,0.45428,0.8045,-0.00549,-0.00293,-0.00829
-0.38227,0.45445,0.80456,-0.0055,-0.00651,-0.00533
-0.38193,0.45459,0.80464,-0.00395,-0.00134,0.0
-0.3817,0.45471,0.80468,-0.00304,0.00014,2e-05
-0.38166,0.4548,0.80465,-0.00041,0.00307,-0.00332
-0.38172,0.45483,0.8046,-0.00293,0.00194,-0.01032
-0.38176,0.45487,0.80456,-0.00414,-0.00071,-0.01098
-0.38176,0.45493,0.80453,-0.00857,-2e-05,-0.00847
-0.38173,0.45495,0.80453,-0.00828,0.00399,-0.00781
-0.38175,0.45493,0.80453,-0.00687,0.00352,-0.00642
-0.38176,0.45484,0.80458,-0.00972,0.00196,-0.00617
-0.38176,0.45467,0.80467,-0.00747,0.00098,-0.00729
-0.38178,0.45447,0.80478,-0.00368,0.00279,-0.00957
-0.38171,0.45434,0.80489,-0.00658,0.00211,-0.00882
-0.3816,0.45424,0.805,-0.00978,-0.00011,-0.00679
-0.38151,0.45411,0.80511,-0.00776,-0.00095,-0.00233
-0.38144,0.45398,0.80521,-0.00782,-0.00103,-0.00402
-0.38139,0.45391,0.80528,-0.00481,-0.00085,-0.00549
-0.38138,0.454,0.80523,-0.00512,0.00297,-0.0009
-0.3815,0.45412,0.80511,-0.01004,-0.00019,-0.00741
-0.38163,0.45421,0.805,-0.00916,0.00119,-0.01322
-0.38176,0.45424,0.80492,-0.01079,0.0044,-0.01352
-0.38182,0.4543,0.80486,-0.01123,0.00514,-0.011
-0.38179,0.45431,0.80487,-0.01151,0.0048,-0.00869
-0.38171,0.45427,0.80492,-0.00779,0.00361,-0.00555
-0.3816,0.45426,0.80498,-0.00319,-0.00032,-0.0042
-0.38154,0.45424,0.80502,-0.00378,-0.00248,-0.0027
-0.38151,0.45425,0.80503,-0.0053,-0.00311,-0.00387
-0.38153,0.45423,0.80503,-0.00575,-0.00251,-0.00584
-0.38159,0.45421,0.80502,-0.0054,0.00203,-0.0086
-0.38168,0.45419,0.80498,-0.00513,-0.00026,-0.00478
-0.38184,0.45417,0.80492,-0.00741,-0.0014,-0.0065
-0.38197,0.45417,0.80486,-0.008,0.00082,-0.00931
-0.38201,0.45414,0.80486,-0.00534,0.00182,-0.01025
-0.382,0.45414,0.80486,-0.00629,0.00184,-0.00234
-0.38207,0.45415,0.80482,-0.00996,0.00166,-0.00558
-0.38221,0.45412,0.80477,-0.00713,-0.00046,-0.00757
-0.38234,0.45412,0.80471,-0.00639,-0.00052,-0.00528
-0.38247,0.45413,0.80464,-0.00698,-0.00095,-0.00395
-0.38261,0.45413,0.80458,-0.00913,-0.00134,-0.00658
-0.38271,0.45412,0.80454,-0.0093,0.00032,-0.00723
-0.38277,0.45417,0.80448,-0.00941,0.00135,-0.00872
-0.38282,0.45422,0.80443,-0.00613,0.00034,-0.00635
-0.38286,0.45425,0.80439,-0.00691,0.0,-0.0069
-0.38284,0.4543,0.80437,-0.00628,0.00226,-0.00948
-0.38279,0.45435,0.80437,-0.00502,0.00087,-0.00853
-0.38273,0.45441,0.80436,-0.00567,0.00125,-0.00256
-0.38272,0.45449,0.80432,-0.00636,0.00071,-0.00345
-0.3828,0.45459,0.80423,-0.00697,-0.00036,-0.0054
-0.38286,0.45472,0.80412,-0.00595,-0.00112,-0.00397
-0.38293,0.45492,0.80398,-0.01064,0.00255,-0.00547
-0.38298,0.45508,0.80387,-0.01098,0.00024,-0.00692
-0.38303,0.45521,0.80377,-0.00888,0.00037,-0.01089
-0.38302,0.45534,0.8037,-0.00989,0.00139,-0.00951
-0.38301,0.45543,0.80365,-0.00737,0.00068,-0.00728
-0.38298,0.45549,0.80363,-0.0054,0.00325,-0.00677
-0.38291,0.45554,0.80364,-0.00349,0.00366,-0.00746
-0.38287,0.45558,0.80363,-0.0027,0.00191,-0.00758
-0.38289,0.45559,0.80361,-0.00648,0.00119,-0.00697
-0.38291,0.4556,0.8036,-0.00466,0.00063,-0.00521
-0.38297,0.45556,0.8036,-0.00424,-0.00175,-0.01025
-0.38302,0.45548,0.80362,-0.00672,0.00016,-0.00571
-0.38304,0.45542,0.80364,-0.0068,0.00096,-0.00628
-0.38305,0.4554,0.80365,-0.00687,-0.00174,-0.0054
-0.38306,0.45539,0.80365,-0.00592,0.00181,-0.0073
-0.38311,0.45538,0.80364,-0.0072,0.00121,-0.00691
-0.38312,0.45535,0.80365,-0.00801,0.00293,-0.00882
-0.38311,0.45529,0.80369,-0.00505,0.003,-0.0058
-0.38312,0.45521,0.80373,-0.00402,0.00183,-0.00685
-0.38315,0.45513,0.80376,-0.00804,-0.00213,-0.00768
-0.38315,0.45507,0.80379,-0.00812,-0.00123,-0.00782
-0.38313,0.455,0.80384,-0.00652,-0.00278,-0.00359
-0.38306,0.45495,0.8039,-0.00589,0.00021,-0.00576
-0.383,0.4549,0.80396,-0.00733,-0.00063,-0.00373
-0.38297,0.45485,0.804,-0.00754,-1e-05,-0.00472
-0.38293,0.45483,0.80403,-0.00574,0.00043,-0.00799
-0.3829,0.4548,0.80406,-0.00681,0.00035,-0.00757
-0.38287,0.45478,0.80409,-0.0066,0.00144,-0.00688
-0.38281,0.45478,0.80412,-0.00691,0.00171,-0.00732
-0.38274,0.45472,0.80418,-0.00697,0.00109,-0.00692
-0.38266,0.45465,0.80426,-0.00688,0.00156,-0.00726
-0.38256,0.45462,0.80432,-0.00637,0.00294,-0.00858
-0.38246,0.45457,0.8044,-0.00648,0.00133,-0.00717
-0.38238,0.45449,0.80448,-0.00333,-0.0001,-0.00579
-0.3823,0.45441,0.80456,-0.00834,-0.00153,-0.00519
-0.38226,0.45437,0.80461,-0.0073,-0.00029,-0.0066
-0.38218,0.45434,0.80466,-0.006,0.00109,-0.00416
-0.38214,0.45432,0.80469,-0.00658,0.00198,-0.00457
-0.38209,0.45432,0.80472,-0.00505,0.00302,-0.00575
-0.38206,0.45425,0.80477,-0.00564,0.00331,-0.00983
-0.38208,0.45419,0.80479,-0.00438,0.00251,-0.00908
-0.38206,0.45416,0.80482,-0.00671,0.00342,-0.0067
-0.38204,0.45409,0.80487,-0.00594,0.00064,-0.00726
-0.38201,0.45398,0.80494,-0.00635,0.00108,-0.00584
-0.38198,0.45389,0.80501,-0.00649,0.00144,-0.00732
-0.38198,0.45385,0.80503,-0.00593,0.00013,-0.00405
-0.38194,0.45385,0.80505,-0.00667,-0.00011,-0.00644
-0.38189,0.45381,0.8051,-0.00829,-0.00151,-0.00571
-0.38185,0.45376,0.80514,-0.00656,-0.00097,-0.00552
-0.38186,0.45374,0.80515,-0.0073,0.00052,-0.00542
-0.38186,0.45373,0.80516,-0.00603,-0.00042,-0.00651
-0.3818,0.45378,0.80516,-0.0068,0.00226,-0.00548
-0.38173,0.45383,0.80516,-0.00755,0.00282,-0.00815
-0.38166,0.45387,0.80518,-0.0056,0.00161,-0.00742
-0.38159,0.45387,0.80521,-0.00503,-0.0013,-0.0092
-0.38149,0.45389,0.80524,-0.00651,0.00164,-0.00632
-0.38142,0.45394,0.80525,-0.00773,0.00036,-0.00245
-0.38139,0.45397,0.80525,-0.00527,-0.00031,-0.00529
-0.38137,0.45399,0.80524,-0.0037,0.00034,-0.00748
-0.38135,0.45406,0.80522,-0.00555,-0.00133,-0.00584
-0.38135,0.45414,0.80517,-0.00653,0.00086,-0.00567
-0.38135,0.45423,0.80512,-0.00674,0.00096,-0.00644
-0.38134,0.45432,0.80507,-0.00686,0.00275,-0.00648
-0.38134,0.45445,0.805,-0.00621,0.00223,-0.00749
-0.38137,0.45457,0.80491,-0.00615,0.0011,-0.00852
-0.38139,0.45467,0.80485,-0.00835,0.0005,-0.00767
-0.38136,0.45476,0.80481,-0.00724,0.00358,-0.00864
-0.38132,0.45478,0.80482,-0.00341,0.00277,-0.00832
-0.3813,0.45479,0.80482,-0.00543,0.00261,-0.00383
-0.38133,0.45484,0.80478,-0.00769,0.00095,-0.00511
-0.3814,0.4549,0.80471,-0.00827,0.00121,-0.00938
-0.38144,0.45494,0.80467,-0.00464,0.00189,-0.00895
-0.38143,0.45494,0.80467,-0.00584,0.00022,-0.00296
-0.38143,0.4549,0.8047,-0.00149,0.0006,-0.00151
-0.38147,0.45485,0.80471,-0.00305,-0.00124,-0.00667
-0.38154,0.45484,0.80468,-0.00509,-0.00247,-0.00631
-0.38164,0.45484,0.80463,-0.00475,0.00046,-0.00603
-0.38177,0.45483,0.80458,-0.00522,-0.00176,-0.00589
-0.3819,0.45479,0.80454,-0.00546,0.00134,-0.00647
-0.382,0.45473,0.80453,-0.00379,0.00247,-0.00657
-0.38213,0.45467,0.80449,-0.00593,0.00225,-0.00598
-0.38227,0.45466,0.80444,-0.00704,-0.0012,-0.00842
-0.38237,0.45468,0.80438,-0.00881,-0.00275,-0.00891
-0.38242,0.45474,0.80432,-0.00959,6e-05,-0.00779
-0.38245,0.45481,0.80427,-0.00734,0.00024,-0.00594
-0.3825,0.45485,0.80422,-0.00939,-0.00452,-0.00916
-0.38254,0.45492,0.80416,-0.00778,-0.00302,-0.00294
-0.38256,0.45499,0.80411,-0.00659,-0.00242,-0.00562
-0.38257,0.45503,0.80409,-0.00592,0.00377,-0.00626
-0.38255,0.45504,0.80409,-0.00569,0.00258,-0.00587
-0.38256,0.45502,0.8041,-0.00691,0.00349,-0.0066
-0.38256,0.45499,0.80411,-0.0069,0.00352,-0.00661
-0.38263,0.45489,0.80414,-0.00424,0.00319,-0.00628
-0.38274,0.45471,0.80419,-0.00447,0.00037,-0.0063
-0.38286,0.45453,0.80423,-0.00491,0.00119,-0.00471
-0.38298,0.45436,0.80427,-0.00556,-0.00051,-0.00648
-0.3831,0.45416,0.80432,-0.00618,-0.00163,-0.00511
-0.38318,0.45394,0.80441,-0.00755,-0.00036,-0.00604
-0.3833,0.4537,0.80449,-0.00731,-0.00322,-0.0083
-0.38343,0.45351,0.80454,-0.00744,-0.00179,-0.0051
-0.38353,0.45341,0.80454,-0.00343,-0.00463,-0.00747
-0.38355,0.45334,0.80457,-0.00404,-0.00182,-0.00799
-0.38351,0.45333,0.8046,-0.00592,-0.00154,-0.00334
-0.38348,0.45336,0.80459,-0.0082,-0.00248,-0.00154
-0.38351,0.45347,0.80452,-0.00657,-0.00138,-0.0011
-0.38357,0.45362,0.80441,-0.0053,-0.00246,-0.00688
-0.38365,0.45384,0.80425,-0.00299,-0.00065,-0.0069
-0.3837,0.4541,0.80407,-0.00722,-0.00111,-0.00482
-0.38374,0.45437,0.8039,-0.00647,0.00063,-0.00684
-0.38375,0.45463,0.80375,-0.00522,-0.00037,-0.00787
-0.38375,0.45494,0.80357,-0.00764,0.00122,-0.00612
-0.38376,0.45522,0.80341,-0.00728,0.00029,-0.00631
-0.38377,0.4554,0.80331,-0.00559,-0.00024,-0.00622
-0.38382,0.45552,0.80321,-0.00527,0.00111,-0.00692
-0.38387,0.45562,0.80313,-0.00494,0.00213,-0.00552
-0.38395,0.45568,0.80306,-0.00669,0.00537,-0.004
-0.38408,0.45566,0.80301,-0.00596,0.00366,-0.00848
-0.38422,0.45559,0.80298,-0.00495,0.00437,-0.00569
-0.38435,0.45547,0.80299,-0.00694,0.00047,-0.00698
-0.38445,0.45531,0.80303,-0.00659,-0.00057,-0.00637
-0.38449,0.45509,0.80313,-0.00763,-0.00062,-0.0067
-0.38453,0.45489,0.80323,-0.00683,-0.00041,-0.00488
-0.38455,0.45469,0.80334,-0.00574,-0.00135,-0.00649
-0.38461,0.45451,0.80341,-0.00586,-0.00189,-0.00504
-0.38468,0.45438,0.80345,-0.00674,-0.00176,-0.00363
-0.38473,0.45429,0.80348,-0.00763,-0.00302,-0.00624
-0.38481,0.45426,0.80345,-0.00624,-0.00393,-0.00737
-0.38486,0.45429,0.80341,-0.00534,-0.00391,-0.00747
-0.38482,0.45439,0.80338,-0.00437,-0.00094,-0.00777
-0.38472,0.4545,0.80336,-0.00455,-0.00031,-0.00504
-0.38461,0.45464,0.80334,-0.00364,-0.00172,-0.00648
-0.38451,0.45483,0.80328,-0.00271,-0.00189,-0.00279
-0.3844,0.45506,0.8032,-0.00438,-0.00106,-0.00457
-0.38434,0.45528,0.8031,-0.00333,-0.00198,-0.00429
-0.38433,0.45553,0.80297,-0.00258,-0.00204,-0.00121
-0.38435,0.45574,0.80284,-0.0054,0.00221,-0.00123
-0.38446,0.45587,0.80271,-0.00423,0.00332,-0.00326
-0.38464,0.45588,0.80262,-0.0058,0.00382,-0.00628
-0.38486,0.45582,0.80254,-0.00575,0.00652,-0.01023
-0.38506,0.45572,0.80251,-0.00555,0.00662,-0.0102
-0.38521,0.45557,0.80252,-0.00967,0.00321,-0.00897
-0.38532,0.45538,0.80258,-0.01187,0.00371,-0.00948
-0.38536,0.4552,0.80266,-0.01112,0.00363,-0.00814
-0.38531,0.45503,0.80278,-0.00944,-0.00236,-0.00581
-0.38516,0.45491,0.80292,-0.00949,-0.00484,-0.00314
-0.38497,0.45481,0.80306,-0.00751,-0.00459,-0.0022
-0.38478,0.45479,0.80317,-0.00641,-0.00695,-0.00654
-0.38457,0.45489,0.80321,-0.00281,-0.00611,-0.00667
-0.38433,0.45508,0.80322,-0.00268,-0.00415,-0.00398
-0.38412,0.45527,0.80321,-0.00232,-0.00438,-0.00446
-0.38398,0.45547,0.80317,-0.00353,-0.00199,-0.00133
-0.38394,0.45564,0.80309,-0.00294,0.00065,-0.00252
-0.38398,0.45575,0.80301,-0.00216,0.00354,-0.00476
-0.38403,0.45577,0.80297,0.00302,0.00381,-0.00776
-0.38409,0.45573,0.80297,0.00194,0.00533,-0.00899
-0.38412,0.45566,0.80299,-0.00588,0.00317,-0.00855
-0.38413,0.45553,0.80306,-0.00762,8e-05,-0.00556
-0.3841,0.45536,0.80317,-0.00758,-0.00024,-0.00758
-0.38407,0.4552,0.80327,-0.00878,-0.0022,-0.00626
-0.38405,0.45505,0.80337,-0.01152,-0.00216,-0.00692
-0.38398,0.45488,0.8035,-0.01044,-0.00273,-0.00766
-0.38389,0.45466,0.80366,-0.0056,-0.00212,-0.00865
-0.38377,0.45444,0.80384,-0.00299,0.00082,-0.00553
-0.38365,0.45424,0.80402,-0.00257,0.00088,-0.00609
-0.38355,0.45406,0.80417,0.0006,-0.00067,-0.00754
-0.38343,0.45389,0.80432,-0.00131,0.00024,-0.00583
-0.38333,0.45378,0.80443,-0.00302,-0.00275,-0.00232
-0.38325,0.45375,0.80449,-0.0031,-0.00375,-0.00286
-0.38321,0.45373,0.80452,-0.00293,-0.00412,-0.00026
-0.38321,0.45374,0.80451,-0.00311,-0.00146,-0.0021
-0.38326,0.45376,0.80448,-0.00402,-0.00118,-0.00357
-0.38333,0.45375,0.80445,-0.00376,0.00129,-0.00363
-0.38342,0.4537,0.80443,-0.00487,0.00348,-0.00821
-0.38353,0.45364,0.80441,-0.00726,0.00468,-0.00682
-0.38366,0.45355,0.8044,-0.00716,0.00619,-0.01061
-0.38368,0.45346,0.80445,-0.00922,0.00241,-0.01033
-0.38359,0.45334,0.80455,-0.01057,0.00198,-0.0102
-0.38343,0.45318,0.80472,-0.00853,0.00094,-0.00855
-0.38324,0.45296,0.80494,-0.00871,-0.00499,-0.00452
-0.38308,0.45277,0.80512,-0.00741,-0.00726,-0.00368
-0.38297,0.45266,0.80523,-0.00668,-0.00136,-0.00374
-0.38291,0.45261,0.80529,-0.00673,-0.00132,-0.00379
-0.38282,0.45261,0.80533,-0.00359,-0.00043,-0.00411
-0.38272,0.45263,0.80537,-0.00012,0.00075,-0.00532
-0.38264,0.45264,0.8054,0.00089,-0.00017,-0.01117
-0.38252,0.45267,0.80544,0.00292,-0.00021,-0.00777
-0.38236,0.45276,0.80546,-0.00239,-0.00013,-0.00335
-0.38226,0.45279,0.80549,1e-05,0.00014,-0.00097
-0.38235,0.45278,0.80546,-0.00299,0.00065,-0.00071
-0.38254,0.45274,0.80539,-0.00612,0.00043,-0.00496
-0.38273,0.45268,0.80534,-0.00595,0.00283,-0.00674
-0.38296,0.4526,0.80527,-0.00783,0.00195,-0.00848
-0.38317,0.45251,0.80522,-0.00916,0.00393,-0.0117
-0.38325,0.45241,0.80524,-0.00916,0.00332,-0.01009
-0.38328,0.45229,0.80529,-0.00962,0.00433,-0.01044
-0.3833,0.45221,0.80533,-0.01023,-0.00129,-0.00874
-0.38325,0.45217,0.80538,-0.00872,-0.00134,-0.00675
-0.38313,0.45218,0.80543,-0.00797,-0.00262,-0.00597
-0.38305,0.45222,0.80544,-0.00584,-0.00291,-0.00631
-0.38298,0.45227,0.80545,-0.00269,-0.00412,-0.004
-0.38288,0.45237,0.80544,-0.00131,-0.00388,-0.00188
-0.38277,0.45251,0.80541,-0.00049,-0.00293,-0.00112
-0.38276,0.45266,0.80533,-0.00068,0.00014,-0.00043
-0.38283,0.45277,0.80524,-0.00076,0.00201,-0.00191
-0.38296,0.45284,0.80513,-0.00182,0.00489,-0.00491
-0.38315,0.45291,0.80501,-0.00027,0.00405,-0.00742
-0.38336,0.45295,0.80489,-0.00466,0.00332,-0.01031
-0.38351,0.45296,0.80481,-0.00521,0.00229,-0.008
-0.38363,0.45292,0.80477,-0.00799,0.00143,-0.0055
-0.38374,0.45283,0.80477,-0.00949,8e-05,-0.00644
-0.38385,0.45272,0.80478,-0.0099,-0.00117,-0.00532
-0.38395,0.45259,0.8048,-0.00815,-0.00082,-0.00952
-0.38397,0.45251,0.80484,-0.00505,-0.00369,-0.00793
-0.38393,0.45249,0.80487,-0.00699,-0.00475,-0.0052
-0.38387,0.45256,0.80486,-0.00615,-0.00117,-0.00674
-0.38383,0.45271,0.80479,-0.00655,-0.00251,-0.00598
-0.38376,0.4529,0.80472,-0.00261,-0.00052,-0.00397
-0.38367,0.4531,0.80465,-0.00231,0.00164,-0.00071
-0.38361,0.45322,0.80461,-0.00056,0.00155,-0.00377
-0.38363,0.4533,0.80456,0.00243,0.00177,-0.00561
-0.38371,0.45333,0.8045,-0.00063,0.0028,-0.00653
-0.38384,0.45332,0.80445,-0.00346,0.00428,-0.00615
-0.38398,0.45323,0.80443,-0.00312,0.00455,-0.00915
-0.38415,0.45308,0.80443,-0.00469,0.00192,-0.00759
-0.38427,0.45295,0.80445,-0.0066,0.0028,-0.00708
-0.38432,0.45286,0.80448,-0.00878,-0.00033,-0.00705
-0.38429,0.45278,0.80453,-0.00817,-0.00027,-0.00986
-0.38422,0.45275,0.80458,-0.00668,-0.00258,-0.00585
-0.38415,0.45274,0.80462,-0.00853,-0.00626,-0.00541
-0.38411,0.45277,0.80463,-0.0066,-0.00633,-0.00101
-0.38409,0.45288,0.80457,-0.00623,-0.00371,-0.0041
-0.38408,0.45302,0.8045,-0.00457,-0.00199,-0.00542
-0.38412,0.4532,0.80438,-0.00327,0.00026,-0.00431
-0.38417,0.45337,0.80426,-0.0037,0.0027,-0.00612
-0.3842,0.4535,0.80417,0.00015,0.00301,-0.0071
-0.38423,0.4536,0.8041,-0.0021,0.00504,-0.00442
-0.38426,0.45363,0.80406,-0.0026,0.00506,-0.00537
-0.38434,0.45363,0.80403,-0.00175,0.00415,-0.00511
-0.38445,0.45357,0.80401,-0.0054,0.00355,-0.00648
-0.38453,0.45351,0.80401,-0.00596,0.0001,-0.00974
-0.38456,0.45344,0.80403,-0.0057,-0.00212,-0.00745
-0.38454,0.45337,0.80408,-0.00773,-0.00307,-0.00539
-0.38451,0.45331,0.80413,-0.00834,-0.00148,-0.00474
-0.38448,0.45333,0.80413,-0.00825,-0.00412,-0.00328
-0.38446,0.45335,0.80413,-0.00563,-0.00447,-0.00625
-0.38445,0.45347,0.80407,-0.00445,-0.00149,-0.00237
-0.38445,0.45366,0.80396,-0.00581,-0.0026,-0.00423
-0.38446,0.45389,0.80383,-0.0035,-0.00206,-0.00271
-0.38447,0.45416,0.80367,-0.00135,-0.00104,-0.00153
-0.38449,0.45455,0.80344,-0.00322,-0.0044,-0.00664
-0.38448,0.45503,0.80317,-0.00611,-0.00616,-0.00698
-0.38431,0.45556,0.80295,-0.01205,-0.00996,0.00291
-0.38412,0.45607,0.80276,-0.02207,-0.00828,0.01063
-0.38422,0.45648,0.80247,-0.0188,-0.0011,0.00049
-0.38449,0.45667,0.80224,-0.00528,0.0112,-0.01298
-0.38471,0.45666,0.80214,0.00501,0.01604,-0.01171
-0.38495,0.45668,0.80201,0.00367,0.01822,-0.00956
-0.3853,0.45662,0.80187,0.00227,0.014,-0.01293
-0.38559,0.45645,0.80183,-0.00058,0.00708,-0.0132
-0.3858,0.45628,0.80183,-0.00536,0.00797,-0.01237
-0.38595,0.45602,0.8019,-0.01487,0.00156,-0.00652
-0.38612,0.45557,0.80208,-0.01867,0.00371,-0.00338
-0.38658,0.45485,0.80227,-0.00562,-0.00134,-0.01386
-0.38699,0.45386,0.80263,0.00384,0.00176,-0.01796
-0.38716,0.45271,0.80319,0.01436,0.01672,-0.02005
-0.3871,0.45121,0.80407,0.01106,0.01268,-0.00406
-0.38722,0.44945,0.805,0.01244,0.00745,0.00062
-0.38737,0.44756,0.80597,0.02046,0.00376,-0.00441
-0.38762,0.44556,0.80696,0.02565,-0.002,-0.004
-0.38818,0.44365,0.80774,0.02107,0.00059,0.00204
-0.38911,0.44192,0.80824,0.00078,0.01073,0.00551
-0.39058,0.43982,0.80868,0.00224,0.01283,0.00507
-0.39236,0.43735,0.80916,0.00022,0.00419,-0.01936
-0.39406,0.43472,0.80975,-0.00888,0.00247,-0.01669
-0.39564,0.43191,0.81048,-0.0163,-0.00115,-0.01208
-0.39708,0.4289,0.81138,-0.02029,-0.00131,-0.00635
-0.39834,0.42568,0.81245,-0.03049,-0.00976,-0.00769
-0.39938,0.42234,0.81368,-0.02848,-0.00583,-0.01118
-0.40008,0.4191,0.81501,-0.0279,-0.00226,-0.01779
-0.4002,0.41604,0.81652,-0.02541,0.00168,-0.01296
-0.4001,0.41298,0.81812,-0.02307,0.0042,-0.01389
-0.39996,0.40984,0.81976,-0.01749,0.00127,-0.01547
-0.3996,0.40678,0.82147,-0.01182,0.00886,-0.01276
-0.39914,0.40389,0.82311,0.00124,0.00797,-0.00083
-0.39896,0.40103,0.82459,0.00979,0.00871,0.00461
-0.39887,0.39782,0.82619,0.01114,0.00748,-0.0049
-0.39883,0.39427,0.82791,0.01989,0.00336,-0.00084
-0.39953,0.39061,0.82931,0.03069,-0.00479,0.00875
-0.40036,0.38737,0.83043,0.00642,-0.0248,0.01869
-0.40083,0.38453,0.83152,-0.01312,-0.02599,0.01623
-0.40143,0.38164,0.83256,-0.01609,-0.01786,-0.00744
-0.40208,0.37869,0.83359,-0.01038,-0.01717,-0.00275
-0.4026,0.3759,0.8346,-0.01375,-0.01738,0.00364
-0.40347,0.37342,0.8353,-0.01888,-0.01775,-0.00209
-0.404,0.37165,0.83583,-0.03544,-0.01866,-0.00192
-0.40419,0.37021,0.83637,-0.03564,-0.01026,-0.0035
-0.40452,0.36871,0.83688,-0.0088,0.02715,-0.02937
-0.40444,0.36743,0.83748,0.01128,0.02701,-0.02084
-0.40412,0.36651,0.83804,0.01503,0.02441,-0.01463
-0.40385,0.36534,0.83868,0.01889,-0.00154,-0.00125
