gravity.x,gravity.y,gravity.z,userAcceleration.x,userAcceleration.y,userAcceleration.z
0.23163,0.93554,-0.26667,0.00162,-0.52669,0.01563
0.20102,0.94739,-0.24907,-0.04021,-0.28395,-0.06032
0.17889,0.95679,-0.22924,0.01163,0.01079,-0.07861
0.16534,0.96323,-0.21175,-0.05947,0.02313,0.13477
0.15408,0.96877,-0.19427,-0.20475,0.0265,0.14858
0.14078,0.97373,-0.17894,-0.22199,0.15084,0.0051
0.12595,0.97826,-0.16471,-0.22446,-0.05558,0.07168
0.11536,0.98227,-0.14776,-0.26966,-0.13727,0.07322
0.11213,0.98556,-0.12683,-0.13975,0.11757,-0.011
0.11319,0.98805,-0.10462,-0.09982,0.32352,0.1484
0.11512,0.98835,-0.09947,-0.22792,0.232,0.25258
0.11119,0.98719,-0.11441,-0.17523,0.64877,0.1023
0.10289,0.98729,-0.1211,-0.14595,1.11105,-0.02382
0.09913,0.98919,-0.10805,0.37123,0.70081,-0.04584
0.10357,0.98984,-0.09734,0.36095,0.39941,0.21503
0.11239,0.9896,-0.08976,0.27276,-0.21434,0.24383
0.11558,0.98922,-0.08987,0.0655,-0.3776,0.19227
0.11578,0.98878,-0.09439,-0.08137,-0.42608,0.02443
0.11554,0.98869,-0.09563,-0.06621,-0.23136,0.03471
0.1152,0.98934,-0.08903,-0.20422,-0.00742,0.08653
0.1165,0.9898,-0.08196,-0.09375,-0.13007,-0.03106
0.11979,0.98955,-0.08026,-0.04432,-0.19717,-0.05933
0.12488,0.98879,-0.08178,-0.01013,-0.28797,-0.06666
0.1282,0.98839,-0.08147,0.11293,-0.17846,0.02055
0.12522,0.98887,-0.08036,0.19117,-0.10088,0.09859
0.12179,0.98921,-0.08143,0.19971,-0.15551,0.00352
0.12146,0.98875,-0.08722,0.222,-0.12167,-0.06223
0.11786,0.98847,-0.09504,0.38714,-0.10721,-0.07863
0.1124,0.98812,-0.10473,0.45083,-0.00523,0.03656
0.10918,0.98744,-0.11414,0.20373,-0.13171,0.22158
0.10779,0.9861,-0.12643,0.11581,-0.20712,0.31764
0.11104,0.98288,-0.14704,-0.08844,-0.28688,0.37618
0.12087,0.97555,-0.18355,-0.4741,-0.10988,0.04178
0.13911,0.96394,-0.22684,-0.5153,0.09462,-0.19622
0.16616,0.95247,-0.25532,-0.00543,0.46138,0.13029
0.19442,0.941,-0.27695,0.0913,0.2754,0.21241
0.21469,0.93063,-0.29636,0.20888,0.10033,0.12615
0.22795,0.92285,-0.31045,-0.03689,0.87335,0.02232
0.2422,0.91797,-0.31411,-0.2587,0.40727,0.00509
0.2526,0.91625,-0.31094,-0.41978,0.22249,-0.04831
0.26192,0.91757,-0.29911,-0.19591,-0.21089,-0.01618
0.26446,0.9213,-0.28507,-0.03589,-0.31273,0.04476
0.25648,0.92754,-0.27183,-0.00233,-0.31671,0.03397
0.23756,0.93637,-0.25841,0.23928,-0.32974,0.04252
0.20908,0.94624,-0.24681,0.31404,-0.3679,0.01917
0.17655,0.9558,-0.23507,0.28934,-0.38537,-0.0094
0.14894,0.96395,-0.2205,0.05084,-0.22605,-0.07444
0.13083,0.97016,-0.20411,-0.03266,0.02932,-0.01432
0.1202,0.97474,-0.1882,-0.06765,0.11855,0.01743
0.1097,0.97879,-0.17303,-0.27262,0.20127,0.08443
0.09668,0.98268,-0.15805,-0.22109,0.00111,0.11719
0.084,0.98602,-0.14385,-0.19426,-0.26028,0.04059
0.07497,0.98836,-0.13231,-0.18322,-0.28367,-0.04259
0.07464,0.99009,-0.1189,-0.11729,-0.13105,0.13593
0.0807,0.99119,-0.10502,-0.01803,0.13659,0.19972
0.08445,0.99,-0.11298,0.09415,1.11341,-0.21993
0.08512,0.98716,-0.13511,0.11875,1.70691,-0.14509
0.07082,0.98902,-0.12968,-0.01871,1.97994,0.29298
0.06489,0.98833,-0.13782,0.54586,-0.20492,-0.07441
0.08067,0.98562,-0.14842,0.12335,-0.28235,0.18433
0.09351,0.98575,-0.13978,0.06051,-0.3229,0.27168
0.09154,0.9871,-0.1313,-0.02818,0.00739,0.03761
0.08306,0.98939,-0.11914,-0.06873,0.08657,0.06432
0.07986,0.99168,-0.10096,0.01276,0.05828,0.09231
0.08192,0.9925,-0.09072,0.07255,-0.03582,0.03084
0.08516,0.99215,-0.09152,-0.03946,-0.23001,-0.12766
0.0869,0.99204,-0.09111,-0.04878,-0.35814,-0.05104
0.08428,0.99274,-0.08573,0.02809,-0.37142,-0.0221
0.0789,0.9933,-0.08435,0.126,-0.30762,-0.02545
0.07205,0.99375,-0.08521,0.23379,-0.19424,0.05952
0.06442,0.99405,-0.08782,0.26303,-0.17085,0.0842
0.05896,0.99381,-0.09407,0.28942,-0.17645,0.04349
0.05574,0.99303,-0.10382,0.30821,-0.22087,0.09078
0.05436,0.99174,-0.11616,0.23346,-0.24761,0.1221
0.05393,0.98965,-0.13293,0.1629,-0.38776,0.2565
0.05753,0.98625,-0.15488,0.02265,-0.44579,0.30037
0.0705,0.9799,-0.18661,-0.22476,-0.21432,0.12113
0.09461,0.97046,-0.22192,-0.14922,0.56274,0.1004
0.13007,0.95988,-0.24843,-0.00194,0.81063,0.1049
0.15997,0.94969,-0.26923,0.63219,1.07544,-0.37995
0.17861,0.9434,-0.27944,0.3682,1.15216,-0.22654
0.19398,0.93834,-0.28615,0.08125,1.0579,-0.16507
0.20968,0.93314,-0.29203,-0.12,0.28372,-0.10277
0.22235,0.92926,-0.29502,-0.18089,0.16095,-0.07661
0.22636,0.92858,-0.29411,-0.1309,0.0431,0.0096
0.22136,0.93102,-0.29017,-0.00954,-0.14208,0.13299
0.2075,0.93509,-0.28729,-0.00673,-0.21407,0.11743
0.18803,0.94058,-0.28274,-0.0008,-0.28783,0.10118
0.16365,0.94773,-0.27388,-0.01781,-0.44769,0.11966
0.13629,0.9554,-0.26195,-0.01699,-0.46412,0.11639
0.10686,0.96205,-0.25106,-0.04431,-0.50414,0.1345
0.07871,0.96746,-0.24046,-0.06632,-0.42757,0.16934
0.05482,0.9714,-0.23102,-0.04281,-0.32801,0.10207
0.03455,0.9742,-0.22299,0.00303,-0.12447,-0.03038
0.01748,0.97651,-0.21476,0.02739,-0.00843,0.02029
0.00526,0.97739,-0.21138,0.03368,-0.01608,0.03898
-0.00064,0.97755,-0.2107,-0.02889,-0.2382,-0.05668
-0.00241,0.97798,-0.20867,-0.03884,-0.30716,-0.03438
-0.00182,0.97887,-0.20445,-0.0043,-0.23453,-0.09603
-0.00015,0.97973,-0.20032,0.02952,-0.18252,-0.15228
0.00082,0.97931,-0.20233,0.18345,0.30677,-0.21996
0.01053,0.97908,-0.20319,0.0807,0.35355,0.16553
0.03405,0.97913,-0.20033,0.16374,0.6291,0.41065
0.04535,0.97969,-0.19533,0.08471,0.47265,0.6208
0.03573,0.97742,-0.20826,-0.21223,0.48428,-0.01573
-0.00104,0.97578,-0.21875,0.0091,1.33881,-0.14939
-0.0216,0.97635,-0.21507,0.90783,0.23049,0.6312
-0.00987,0.97729,-0.21168,0.27208,0.05668,0.1049
-0.00404,0.9805,-0.19644,-0.21928,0.17625,0.12823
-0.01779,0.98561,-0.16807,-0.34316,0.36513,0.29011
-0.03515,0.99056,-0.13243,0.12231,0.41942,0.35382
-0.04885,0.99376,-0.10025,0.15473,0.25843,0.23155
-0.06013,0.99479,-0.08231,0.21983,0.00213,0.08324
-0.0721,0.99508,-0.06782,0.2296,-0.23906,0.05232
-0.08909,0.9949,-0.04712,0.16163,-0.34642,0.1073
-0.10756,0.9938,-0.02805,0.13933,-0.42274,0.0456
-0.1229,0.99233,-0.01261,0.09696,-0.39958,-0.03866
-0.13452,0.9909,0.00325,0.13263,-0.28831,-0.04327
-0.14521,0.98924,0.01731,0.19178,-0.2679,-0.04624
-0.15539,0.9874,0.02965,0.1575,-0.26885,-0.07123
-0.16428,0.98547,0.04294,0.17081,-0.1528,-0.06773
-0.17203,0.98356,0.05478,0.3357,-0.01132,-0.01775
-0.17738,0.98232,0.05974,0.49756,-0.02599,0.0307
-0.17979,0.98195,0.05863,0.69442,-0.03005,0.02615
-0.17925,0.98223,0.05549,0.65645,0.02355,-0.01837
-0.17335,0.98365,0.04874,0.59827,-0.05767,0.29376
-0.1602,0.98656,0.03209,0.27378,0.03859,0.23695
-0.13353,0.99104,-0.00159,0.10457,0.31444,0.19561
-0.09761,0.99411,-0.04692,0.08453,0.66855,0.21973
-0.06621,0.99376,-0.08968,0.02359,0.65588,0.31761
-0.04039,0.992,-0.11952,0.08745,0.68219,0.21574
-0.01607,0.98912,-0.14618,0.05094,0.4122,0.06273
0.00792,0.98579,-0.16779,0.00743,0.37278,0.1504
0.03187,0.98201,-0.18608,0.00629,0.24524,0.15448
0.0497,0.97786,-0.20324,0.0719,0.16104,0.12489
0.06509,0.97327,-0.22025,0.2335,0.02077,0.09712
0.08056,0.96797,-0.23777,0.16159,0.04787,0.27499
0.09565,0.96351,-0.24999,0.15185,-0.01339,0.26899
0.10799,0.95953,-0.26007,0.11342,-0.19235,0.289
0.11448,0.95674,-0.26745,0.12629,-0.25215,0.32154
0.11438,0.95545,-0.27207,0.14483,-0.27408,0.33791
0.11104,0.95529,-0.27402,0.0805,-0.32096,0.40821
0.10707,0.95584,-0.27369,-0.07013,-0.26867,0.44803
0.1011,0.95688,-0.2723,-0.15348,-0.23328,0.44665
0.08909,0.95851,-0.27077,-0.26093,-0.18098,0.36133
0.07272,0.96067,-0.268,-0.17997,-0.18015,0.20151
0.05503,0.96243,-0.26588,-0.08408,-0.15568,0.0728
0.03673,0.96467,-0.26087,0.24133,-0.02879,-0.17938
0.01922,0.96735,-0.2527,0.56853,0.09216,-0.03644
0.00774,0.96866,-0.24823,0.61383,0.17477,0.02994
0.00735,0.96611,-0.25803,0.56966,0.26049,0.01149
0.01856,0.96335,-0.2676,0.43338,0.19341,-0.06833
0.03198,0.96358,-0.2655,0.36565,-0.14131,-0.16083
0.04142,0.96546,-0.25722,0.34554,-0.19274,-0.27354
0.04526,0.96572,-0.25559,0.62338,0.72855,0.39956
0.05361,0.9685,-0.24317,-0.3054,0.40844,0.33271
0.05082,0.97665,-0.20874,-0.38457,0.4071,0.06647
0.03019,0.97937,-0.19981,-0.28618,0.18079,0.49563
0.01035,0.97629,-0.21621,0.02311,-0.17184,0.53663
-0.00766,0.97441,-0.22462,0.08733,-0.27583,0.54448
-0.0276,0.97552,-0.21816,0.07506,-0.27995,0.39582
-0.04631,0.97903,-0.19835,-0.03166,0.03435,0.19364
-0.06485,0.98242,-0.17502,-0.05152,0.26416,0.15872
-0.08142,0.98504,-0.15187,0.16925,0.10278,0.06272
-0.08316,0.98875,-0.12426,0.32179,-0.09738,0.05791
-0.084,0.99189,-0.09532,0.13007,-0.26356,0.03732
-0.09387,0.99333,-0.06689,-0.0062,-0.33266,-0.00544
-0.10869,0.99325,-0.04029,-0.02932,-0.1528,0.03457
-0.12231,0.99238,-0.01495,0.06872,-0.02379,0.07147
-0.13204,0.99121,0.00691,0.14269,-0.06643,-0.00611
-0.13733,0.99017,0.02642,0.21317,-0.12837,-0.03796
-0.1403,0.98901,0.04661,0.17971,-0.08541,-0.04802
-0.14292,0.98744,0.06726,0.20278,-0.05116,-0.02716
-0.14585,0.98567,0.08464,0.25448,-0.11203,-0.05638
-0.14881,0.98398,0.09811,0.24006,-0.09623,-0.02279
-0.1532,0.98182,0.11205,0.21091,0.00764,0.06225
-0.15919,0.97911,0.12648,0.18792,0.20165,0.04273
-0.16766,0.97625,0.13714,0.21928,0.25066,0.00794
-0.17661,0.97384,0.14293,0.54457,0.04042,0.05198
-0.18363,0.97185,0.14756,0.62646,0.02479,0.03962
-0.18688,0.97046,0.15258,0.59796,0.00482,-0.05425
-0.1849,0.97006,0.15741,0.38698,0.18513,0.12195
-0.17732,0.97149,0.15734,0.22812,0.3466,-0.03004
-0.15951,0.97641,0.14549,0.07141,0.28537,0.14224
-0.13703,0.98238,0.12707,0.17925,-0.07739,0.21568
-0.1109,0.98909,0.0969,-0.05529,-0.01854,0.10088
-0.07752,0.99521,0.05955,-0.1507,0.11457,0.1306
-0.03678,0.99895,0.02714,-0.12162,0.33201,0.10448
0.00356,0.99999,0.00014,-0.23813,0.4412,-0.08962
0.04168,0.9989,-0.02109,-0.15386,0.53642,-0.03149
0.07609,0.99622,-0.04184,-0.14962,0.42332,0.06076
0.10665,0.99245,-0.06047,-0.1319,0.26257,0.03964
0.13339,0.98807,-0.07696,-0.01349,0.006,-0.08553
0.1601,0.9825,-0.09512,-0.02427,-0.09995,0.04534
0.18597,0.97637,-0.11003,-0.00266,-0.23302,0.22009
0.21036,0.97055,-0.11737,-0.03884,-0.15524,-0.11454
0.22242,0.96602,-0.13162,-0.00091,-0.17943,0.02036
0.23081,0.96196,-0.14611,-0.04035,-0.32214,0.14114
0.23629,0.9591,-0.15583,-0.11683,-0.53433,0.16004
0.23452,0.95865,-0.16118,-0.05875,-0.6534,0.18011
0.22575,0.96042,-0.16317,-0.04739,-0.63895,0.09458
0.21163,0.96352,-0.16379,-0.04099,-0.63276,0.03437
0.19368,0.96734,-0.1635,-0.04785,-0.55859,-0.01956
0.17545,0.97139,-0.16003,0.0404,-0.25914,0.02543
0.15831,0.97546,-0.15298,0.08428,-0.15796,0.06081
0.14173,0.979,-0.14649,0.07134,-0.02008,0.04727
0.12662,0.98217,-0.13895,-0.04168,0.08088,-0.00769
0.11145,0.98608,-0.1234,-0.12508,0.23782,0.0164
0.09418,0.99044,-0.10073,-0.17342,0.22716,0.05186
0.07688,0.99391,-0.07887,-0.08328,-0.12762,-0.03
0.06308,0.99605,-0.06236,-0.06511,-0.30974,-0.02576
0.05849,0.99694,-0.05179,-0.05856,-0.6903,0.0122
0.06053,0.99742,-0.0385,-0.11722,-1.05778,-0.07315
0.06521,0.99757,-0.02435,-0.06431,-0.85054,-0.08811
0.07449,0.99691,-0.02455,0.0107,0.46042,-0.25758
0.08772,0.99566,-0.03079,-0.05831,2.64798,0.10555
0.08715,0.99615,-0.0089,-0.19532,0.65384,0.39882
0.09691,0.99521,-0.01279,0.08814,0.18205,-0.0326
0.09529,0.99529,-0.01751,0.34964,-0.13776,0.16308
0.09609,0.99526,-0.01481,0.37916,-0.26966,0.14625
0.09507,0.99534,-0.01617,0.37188,-0.39739,-0.07609
0.09516,0.99528,-0.0186,0.14382,0.48461,-0.184
0.09252,0.99554,-0.01848,0.13372,0.58872,-0.06509
0.09664,0.9951,-0.02072,0.21055,-0.22062,-0.04995
0.10497,0.9939,-0.03359,0.16446,-0.3695,-0.03881
0.11232,0.99239,-0.05041,0.09935,-0.58176,0.10006
0.12262,0.98932,-0.0787,-0.16961,-0.65641,0.13254
0.13588,0.98352,-0.11925,-0.22496,-0.6772,0.23694
0.15393,0.97541,-0.15769,-0.18356,-0.69374,0.23888
0.17712,0.96585,-0.1891,-0.13441,-0.21863,0.02777
0.20725,0.95318,-0.22021,-0.01991,0.79566,-0.05529
0.23897,0.93812,-0.25062,-0.03278,1.24765,0.0147
0.25863,0.92869,-0.26579,0.17392,0.7439,-0.14884
0.27036,0.92418,-0.2698,0.06016,0.68899,-0.25828
0.28417,0.92285,-0.26,-0.21498,0.61501,-0.28401
0.29306,0.92327,-0.24835,-0.07594,-0.08853,-0.23341
0.289,0.92774,-0.23617,0.02066,-0.30939,-0.12557
0.26994,0.93699,-0.22174,0.07996,-0.35991,0.0091
0.24387,0.94878,-0.20086,0.1047,-0.38277,-0.02581
0.21644,0.96066,-0.17399,0.16214,-0.25299,-0.13993
0.18959,0.97055,-0.14859,0.23347,-0.08774,-0.26743
0.16634,0.97814,-0.12474,0.17004,-0.14471,-0.22053
0.14522,0.98405,-0.10272,0.03416,-0.20263,-0.08151
0.12796,0.98813,-0.08491,-0.13737,-0.25684,-0.00458
0.11521,0.99093,-0.06906,-0.23423,-0.16197,-0.01683
0.10524,0.99325,-0.0487,-0.29129,-0.35311,0.00675
0.10129,0.99461,-0.02218,-0.29564,-0.28646,0.06312
0.1009,0.99489,-0.00028,-0.20077,0.30598,-0.17629
0.09736,0.99524,0.00427,-0.09521,1.21354,0.12381
0.09096,0.99584,0.00397,0.07915,1.12804,-0.07018
0.0905,0.99589,0.00282,0.27651,1.06606,-0.09927
0.09619,0.99535,0.00377,0.42487,-0.15035,0.27962
0.10624,0.99432,-0.00516,0.60227,-0.37924,-0.01981
0.1127,0.99352,-0.01459,0.1768,-0.46221,-0.12702
0.11723,0.99305,-0.01047,-0.17805,-0.03951,-0.07396
0.11054,0.99387,0.00219,-0.22231,0.26863,0.05218
0.1043,0.99437,0.01867,-0.10877,0.18181,0.15438
0.10664,0.99395,0.02605,-0.12674,-0.08181,0.02556
0.10917,0.99388,0.01673,0.02304,-0.11529,-0.18749
0.10944,0.99399,0.00046,0.06142,-0.22652,-0.12593
0.11247,0.99358,-0.01182,0.0529,-0.4256,-0.14492
0.11158,0.99339,-0.02669,0.04225,-0.5437,-0.17021
0.10637,0.99348,-0.04102,0.06145,-0.43661,-0.11883
0.09996,0.99365,-0.05164,0.37998,-0.14988,-0.08314
0.0954,0.99348,-0.0623,0.40312,-0.21837,0.02322
0.09806,0.99227,-0.076,0.22065,-0.48009,0.25045
0.11127,0.98878,-0.09958,0.0628,-0.40094,0.27899
0.13459,0.98081,-0.14102,-0.41783,0.30705,-0.36354
0.17054,0.96896,-0.17897,-0.47321,0.795,0.04661
0.20608,0.9566,-0.20602,-0.40905,0.76459,0.23715
0.23293,0.94468,-0.23091,-0.02716,0.69369,-0.20496
0.26107,0.93589,-0.23655,0.52012,1.24579,-0.23987
0.28059,0.92927,-0.24026,0.44292,0.87121,-0.33091
0.29051,0.92724,-0.23627,0.12769,0.376,-0.23526
0.29618,0.92756,-0.2278,-0.1867,-0.23277,-0.1345
0.28875,0.93138,-0.22169,-0.19332,-0.37269,-0.0111
0.27171,0.93887,-0.21142,-0.13917,-0.55158,0.11873
0.24683,0.94866,-0.19778,0.0576,-0.83783,-0.00622
0.21611,0.95953,-0.18052,0.0888,-0.91534,-0.07534
0.18325,0.96958,-0.16226,0.11007,-0.90249,-0.17483
0.15145,0.97738,-0.14759,0.12756,-0.53358,-0.01178
0.12924,0.98235,-0.13519,0.08189,-0.09025,0.05143
0.11676,0.9857,-0.12142,0.02449,-0.01445,0.06722
0.10802,0.98864,-0.10447,-0.20182,0.45074,-0.11897
0.09618,0.99151,-0.08745,-0.30731,0.33788,-0.1413
0.0847,0.99405,-0.06837,-0.21445,-0.02657,-0.16198
0.07693,0.99555,-0.05434,-0.29498,0.19593,-0.29937
0.07117,0.99631,-0.04785,-0.25872,0.34524,-0.06659
0.07305,0.99613,-0.04871,-0.05285,0.17382,0.047
0.07403,0.99628,-0.04407,0.11214,-0.00915,0.15796
0.0716,0.99642,-0.04486,0.32136,0.20892,0.11008
0.07204,0.99623,-0.04824,0.37106,0.57744,-0.22214
0.0732,0.99631,-0.04469,0.45814,0.90983,0.05184
0.08751,0.99546,-0.03734,0.36052,-0.13224,0.16025
0.09783,0.99421,-0.04424,0.18306,-0.00903,-0.19645
0.09876,0.9941,-0.04462,0.02976,0.07081,-0.03311
0.09772,0.99481,-0.02828,-0.04368,0.07851,0.11953
0.09668,0.99526,-0.00957,-0.07666,-0.06683,0.05771
0.09555,0.99541,0.00391,-0.00677,-0.21286,-0.05786
0.09251,0.99568,0.00757,-0.07478,-0.23672,-0.09755
0.09058,0.99585,0.00795,-0.12102,-0.22782,-0.0859
0.08976,0.99592,0.00867,-0.10635,-0.26754,-0.08847
0.08964,0.99592,0.0097,-0.0108,-0.26768,-0.01276
0.08716,0.99618,0.00526,0.14425,-0.25916,-0.07749
0.08377,0.99647,-0.00477,0.23459,-0.18287,-0.1022
0.0805,0.99662,-0.01618,0.40006,-0.19721,-0.07014
0.08082,0.99636,-0.02699,0.53624,-0.26887,0.01048
0.08669,0.99538,-0.04117,0.28881,-0.37999,0.18155
0.09726,0.99321,-0.06374,0.10069,-0.52996,0.38876
0.1117,0.98858,-0.10107,-0.19024,-0.4557,0.33914
0.13376,0.97883,-0.15491,-0.41267,0.56368,-0.23181
0.1748,0.968,-0.18004,-0.33236,0.93173,-0.11211
0.21588,0.95545,-0.20128,-0.00817,0.83645,0.07681
0.24482,0.94365,-0.22268,0.31362,0.24506,-0.16126
0.26346,0.93781,-0.22603,0.28823,0.42974,-0.13583
0.27507,0.93544,-0.22201,-0.0184,0.56473,-0.34528
0.28472,0.93493,-0.21173,-0.19404,0.08616,-0.17115
0.28893,0.936,-0.20101,-0.19007,-0.10925,-0.19187
0.28436,0.93919,-0.19248,-0.10139,-0.26814,-0.02918
0.26994,0.94555,-0.18184,0.03873,-0.2983,-0.1582
0.24372,0.95514,-0.16821,0.21757,-0.24683,-0.21295
0.20902,0.96615,-0.1512,0.32943,-0.18778,-0.21556
0.17543,0.9756,-0.13195,0.39636,-0.09651,-0.11774
0.15258,0.98199,-0.11141,0.32283,-0.1291,-0.14137
0.1366,0.98659,-0.08932,0.08566,-0.17006,-0.0863
0.12087,0.99037,-0.06741,-0.21365,-0.25482,-0.03477
0.10442,0.99318,-0.05172,-0.36453,-0.4746,0.06258
0.09185,0.9948,-0.04397,-0.34268,-0.88919,-0.05956
0.08231,0.99616,-0.02967,-0.20508,-0.9887,0.08598
0.08016,0.99677,-0.00387,-0.13323,-0.48284,-0.06612
0.08336,0.9965,0.00464,0.03447,1.23375,0.03232
0.08665,0.99619,-0.00954,0.20171,0.78332,-0.01504
0.09951,0.99483,-0.0202,0.25878,0.51247,-0.0127
0.11222,0.99324,-0.02958,0.20125,-0.14085,0.17173
0.12455,0.9916,-0.03484,0.44634,-0.31101,-0.02437
0.13465,0.98998,-0.04238,0.39636,-0.48316,-0.06602
0.14008,0.98934,-0.03968,0.26936,0.09583,-0.02983
0.137,0.99024,-0.02536,0.08128,0.4952,0.11778
0.13131,0.99131,-0.00765,-0.16184,0.41871,-0.02575
0.127,0.9919,-0.00106,0.01196,0.24487,-0.16677
0.12237,0.99248,-0.00022,0.15964,0.11197,-0.12374
0.11811,0.993,-0.00154,0.17657,-0.0938,-0.09886
0.11354,0.9935,-0.00749,0.07628,-0.2195,-0.13472
0.10547,0.99423,-0.01927,0.07938,-0.29524,0.06037
0.09965,0.9943,-0.03766,0.04092,-0.43345,0.18584
0.10144,0.99278,-0.06396,-0.11163,-0.55243,0.11908
0.11178,0.98912,-0.09558,-0.1714,-0.62158,0.14679
0.12599,0.98328,-0.13144,-0.15153,-0.64605,0.05511
0.1439,0.97551,-0.16634,-0.09904,-0.34601,-0.07382
0.16628,0.96567,-0.19955,-0.02063,0.24391,0.05253
0.18597,0.95467,-0.23242,0.32351,0.82971,-0.01818
0.19795,0.94659,-0.2545,0.40133,0.79366,-0.08342
0.20436,0.94304,-0.26251,-0.05487,0.8209,-0.38652
0.21315,0.9421,-0.25886,-0.07233,0.75425,-0.27333
0.21964,0.942,-0.25373,-0.30972,0.29237,-0.23929
0.22383,0.94374,-0.24342,-0.22705,-0.01658,-0.06214
0.22142,0.94787,-0.22916,-0.15186,-0.12989,0.0078
0.20907,0.95497,-0.21051,-0.02154,-0.08111,-0.04721
0.18699,0.96438,-0.18706,0.11625,-0.12869,-0.14099
0.15919,0.974,-0.16119,0.18144,-0.17657,-0.12438
0.13458,0.98148,-0.13633,0.26584,-0.29652,0.01647
0.11672,0.98633,-0.11626,0.11892,-0.39347,-0.01081
0.10203,0.98985,-0.09893,0.03069,-0.37936,-0.05328
0.08813,0.99287,-0.08021,-0.11757,-0.30574,-0.09055
0.07383,0.99534,-0.06191,-0.21598,-0.05165,-0.10295
0.0621,0.99691,-0.0481,-0.21227,-0.0049,-0.05543
0.05597,0.99768,-0.03861,-0.14072,-0.53508,-0.0689
0.05378,0.99815,-0.02833,-0.18772,-0.69787,0.01174
0.0561,0.99833,-0.0132,-0.13103,-0.54582,-0.06741
0.062,0.99806,0.00381,-0.16169,0.10637,0.05649
0.06588,0.99782,0.002,-0.14593,0.92338,0.19787
0.06672,0.99764,-0.01604,-0.20793,1.42707,0.15815
0.05866,0.99811,-0.01806,0.38647,0.91125,-0.19805
0.05457,0.99802,-0.03116,0.79971,0.61284,0.04391
0.071,0.99715,-0.02539,0.73985,0.31239,0.1124
0.08128,0.99633,-0.02667,0.39202,0.09147,-0.04936
0.08075,0.99651,-0.02093,0.14906,0.38786,0.01551
0.07156,0.99743,0.00133,-0.06243,0.12601,0.11215
0.06152,0.99771,0.02807,-0.00984,0.01461,0.05364
0.04609,0.99759,0.05186,0.02641,-0.13987,-0.01867
0.02927,0.99671,0.07553,0.00941,-0.24979,0.0253
0.01335,0.99526,0.09624,-0.01346,-0.28159,-0.04188
-0.00361,0.99389,0.11031,-0.03882,-0.2741,-0.10791
-0.02006,0.99273,0.11861,0.02253,-0.27699,-0.10335
-0.03441,0.99193,0.12201,0.11046,-0.37122,-0.1642
-0.04658,0.99136,0.12256,0.19308,-0.35324,-0.07844
-0.05674,0.99127,0.11895,0.24286,-0.34731,-0.01966
-0.06563,0.99167,0.11078,0.30321,-0.34665,-0.11919
-0.07298,0.99208,0.10215,0.43706,-0.25675,-0.17047
-0.07849,0.99252,0.09344,0.61349,-0.26515,-0.06468
-0.081,0.99327,0.08274,0.68637,-0.33997,-0.14049
-0.08166,0.99413,0.07088,0.62965,-0.31173,-0.16233
-0.0813,0.99476,0.06195,0.40105,-0.20106,-0.13913
-0.0798,0.99551,0.05082,0.35557,-0.29576,0.0589
-0.07432,0.99655,0.03695,0.11584,-0.32617,0.16795
-0.05876,0.99806,0.0205,-0.20069,-0.14386,0.13589
-0.03168,0.99949,0.00022,-0.39239,0.31966,0.17114
0.00601,0.99982,-0.01802,-0.00105,0.8329,0.18694
0.03897,0.99877,-0.03045,0.20708,1.07603,0.17756
0.06476,0.99694,-0.04362,0.23158,1.07273,0.15452
0.09233,0.99417,-0.05564,-0.03158,1.42168,0.07294
0.11682,0.99083,-0.0678,-0.00953,1.05636,0.16091
0.1357,0.98705,-0.08553,0.16092,0.69944,-0.09945
0.14922,0.98349,-0.10231,0.21769,0.57385,-0.07949
0.16255,0.98036,-0.11164,0.20347,0.49468,0.02154
0.1755,0.97752,-0.11682,0.22746,0.00815,0.03776
0.18036,0.97639,-0.11889,0.15048,-0.28553,0.11535
0.1795,0.97681,-0.11669,0.09877,-0.38434,0.15171
0.17364,0.97821,-0.11376,-0.04072,-0.61141,0.26254
0.16273,0.98007,-0.11392,-0.1571,-0.7051,0.30616
0.14755,0.98225,-0.1158,-0.2148,-0.72386,0.32699
0.12852,0.98464,-0.11816,-0.33629,-0.66179,0.36932
0.107,0.98628,-0.12571,-0.31531,-0.54962,0.07257
0.08597,0.98734,-0.13327,-0.09508,-0.39219,-0.42688
0.06816,0.98947,-0.12763,0.01882,-0.31836,-0.35453
0.06081,0.98911,-0.13397,0.35063,0.1202,-0.03836
0.06899,0.9839,-0.16486,0.35367,0.2677,0.00739
0.09862,0.97772,-0.18527,0.2511,0.02693,0.02178
0.1323,0.97432,-0.18217,0.42414,-0.24782,-0.36736
0.14488,0.97247,-0.18251,0.41156,-0.24597,-0.36702
0.1461,0.97094,-0.18955,0.64597,1.13596,0.05829
0.15453,0.97198,-0.17715,0.26144,1.36033,0.7729
0.15492,0.9793,-0.13026,-0.57969,0.00108,0.35792
0.14626,0.9813,-0.12513,-0.59414,-0.24903,0.19521
0.13518,0.97641,-0.16834,-0.18212,-0.43595,-0.05462
0.12479,0.97292,-0.19454,-0.12318,-0.4433,0.34345
0.1126,0.97487,-0.19221,0.04182,-0.1807,0.37338
0.08577,0.98138,-0.17186,0.19469,0.64748,0.32657
0.05652,0.98738,-0.14793,0.0577,0.85862,0.14344
0.03852,0.9893,-0.14071,0.18596,0.01824,0.02433
0.03286,0.9914,-0.12662,0.4098,-0.23248,-0.00967
0.02919,0.99493,-0.09618,0.20343,-0.25752,0.18825
0.01629,0.99779,-0.06442,-0.06248,-0.30533,0.21145
-0.00236,0.99945,-0.03304,-0.32677,-0.2314,0.11498
-0.02117,0.99977,0.00241,-0.40964,-0.13043,0.12055
-0.03787,0.99872,0.03354,-0.13652,-0.0323,0.1689
-0.05094,0.99709,0.05666,0.11455,-0.06273,0.05559
-0.06391,0.99474,0.07994,0.09277,-0.17034,-0.02106
-0.07796,0.99185,0.10074,0.11124,-0.15596,0.03546
-0.093,0.98859,0.11846,0.13667,-0.13132,0.00236
-0.10678,0.98507,0.13502,0.10086,0.02258,-0.01957
-0.11725,0.98203,0.14788,0.08612,0.05603,0.0098
-0.125,0.9799,0.15546,0.2502,0.10917,-0.04563
-0.12817,0.97938,0.15613,0.45799,0.15888,-0.17484
-0.12507,0.98064,0.15066,0.57218,0.01318,-0.09617
-0.11549,0.98312,0.14189,0.82968,-0.10771,0.20197
-0.10176,0.98655,0.12793,0.82939,0.07069,0.15285
-0.08459,0.9909,0.10464,0.10255,0.22661,0.29468
-0.06546,0.99531,0.07118,-0.39971,0.42173,0.23253
-0.03939,0.99902,0.01993,-0.49753,0.48081,0.21936
-0.00204,0.99955,-0.0299,-0.34584,0.54095,0.17907
0.03384,0.99751,-0.06175,-0.09074,0.56337,0.05594
0.06455,0.99442,-0.08345,0.01965,0.36472,0.08838
0.09205,0.98975,-0.10913,0.25596,0.00672,0.13225
0.11877,0.98365,-0.13539,0.31835,0.00183,0.17261
0.14102,0.9768,-0.16117,0.15508,0.01377,0.04818
0.15602,0.97039,-0.1844,0.05704,-0.0053,0.23305
0.17474,0.96354,-0.20261,-0.1476,-0.06295,-0.09355
0.19341,0.95655,-0.21819,-0.17798,-0.06501,0.13325
0.20499,0.94941,-0.2379,-0.13011,-0.06446,0.26316
0.21511,0.94246,-0.25591,-0.07026,-0.07234,0.29465
0.22008,0.93694,-0.27148,-0.05795,-0.06887,0.3553
0.22063,0.93398,-0.28106,-0.10091,-0.17158,0.35639
0.21866,0.93307,-0.2856,-0.21671,-0.22234,0.29825
0.21507,0.93419,-0.28467,-0.24987,-0.21394,0.27066
0.20714,0.9379,-0.27827,-0.20873,-0.20375,0.18817
0.1935,0.94385,-0.26776,-0.14696,-0.18222,0.14552
0.17589,0.95038,-0.25658,-0.08117,-0.09012,0.09635
0.15672,0.95622,-0.24713,0.01265,0.09668,-0.01516
0.13785,0.96235,-0.23423,0.12471,0.18677,-0.30199
0.1215,0.96762,-0.22124,0.18636,0.01209,-0.03448
0.11131,0.96635,-0.2319,0.25586,0.1127,0.10344
0.1134,0.96052,-0.25403,0.23999,0.21871,-0.04215
0.12659,0.95937,-0.25213,0.21865,-0.04331,0.12002
0.14227,0.96067,-0.23846,0.16928,-0.19924,-0.06742
0.15177,0.96168,-0.22833,0.42765,0.50135,0.07736
0.1624,0.96252,-0.21721,-0.07332,0.32766,0.23439
0.16584,0.96646,-0.19607,-0.19334,0.31581,0.18524
0.15847,0.9709,-0.17954,-0.22493,0.32106,0.08064
0.14396,0.97132,-0.18923,-0.03509,-0.05388,0.35027
0.12931,0.97085,-0.2018,0.05032,-0.17976,0.43154
0.11307,0.97214,-0.20531,0.01802,-0.20888,0.49712
0.09779,0.97608,-0.19419,-0.2739,0.01221,0.2278
0.08614,0.98101,-0.17378,-0.43071,0.07199,0.20655
0.07617,0.98518,-0.15367,-0.39895,0.11121,0.26356
0.08054,0.98742,-0.13606,0.17125,-0.02967,0.20242
0.09384,0.98929,-0.11178,0.16733,-0.13174,0.17128
0.09987,0.99098,-0.08936,0.14097,-0.15215,0.08181
0.09605,0.99232,-0.07785,-0.097,-0.22876,0.0914
0.08921,0.99356,-0.06981,-0.04972,-0.22589,0.13789
0.08614,0.99443,-0.06068,-0.00379,-0.15777,0.14495
0.08918,0.99444,-0.05587,-0.07409,-0.15025,0.0317
0.09672,0.99353,-0.0595,-0.12295,-0.20524,-0.07027
0.10452,0.99211,-0.06923,-0.09341,-0.22373,-0.1165
0.1098,0.99085,-0.0784,-0.03859,-0.38106,0.0138
0.11836,0.98935,-0.08465,0.02343,-0.58237,0.13821
0.12851,0.98729,-0.09343,0.03738,-0.67107,0.01021
0.13409,0.98545,-0.10435,0.09279,-0.44424,-0.06925
0.13201,0.98504,-0.11072,0.19619,-0.0542,-8e-05
0.12648,0.98575,-0.11088,0.45209,-0.01933,0.10048
0.12606,0.98572,-0.11161,0.38399,-0.09851,0.1175
0.12818,0.98449,-0.11974,0.20775,-0.12829,0.12171
0.13311,0.98191,-0.13464,-0.01704,-0.30324,0.34852
0.14406,0.97693,-0.15762,-0.0932,-0.40463,0.47
0.1647,0.96676,-0.19555,-0.24209,-0.45465,0.44751
0.19487,0.94831,-0.25044,-0.39608,0.05543,-0.48111
0.23649,0.92973,-0.28225,-0.15486,0.92119,0.21772
0.2768,0.91096,-0.30582,-0.04215,1.19332,-0.17705
0.30148,0.8986,-0.31879,0.19851,1.02502,-0.11984
0.31997,0.89138,-0.32102,0.15966,0.6298,-0.16526
0.32752,0.8887,-0.32084,-0.05798,-0.01957,-0.12575
0.33116,0.88862,-0.31732,0.04027,-0.04717,-0.00924
0.33064,0.89142,-0.30992,-0.09628,-0.00366,-0.05963
0.32546,0.89731,-0.29816,-0.16664,0.1878,-0.15753
0.31291,0.90689,-0.28219,-0.14427,0.15684,-0.19297
0.29062,0.91836,-0.26861,-0.06197,0.06954,-0.26807
0.2638,0.93204,-0.24839,0.16601,-0.09426,-0.00283
0.23404,0.94529,-0.22727,0.27759,0.01965,0.05945
0.20772,0.9566,-0.20435,-0.03908,-0.23109,0.18133
0.19107,0.96457,-0.18192,-0.13974,-0.44903,0.1522
0.17838,0.97025,-0.16369,-0.18673,-0.93759,0.13318
0.16486,0.97552,-0.14552,-0.13074,-1.21907,0.01127
0.14708,0.98099,-0.12655,-0.20725,-1.21503,0.06231
0.13863,0.98456,-0.10686,-0.40968,-0.90021,-0.04375
0.15082,0.98274,-0.10714,-0.18404,0.88339,-0.06952
0.17272,0.98049,-0.09379,-0.07069,2.13987,0.33862
0.18641,0.97823,-0.09121,0.22211,0.59523,0.16053
0.18685,0.97496,-0.12056,-0.09522,0.49759,-0.10472
0.19383,0.97277,-0.12702,0.20821,0.14112,0.1881
0.19904,0.97093,-0.13294,0.29807,-0.36143,0.08654
0.20115,0.96935,-0.14106,0.3294,0.01478,-0.24383
0.19707,0.97189,-0.12878,0.12692,0.50769,0.04414
0.19285,0.97552,-0.10564,0.03087,0.1211,0.35906
0.19399,0.97602,-0.09873,-0.03081,-0.16076,0.24466
0.19228,0.97514,-0.11015,0.02991,-0.05453,-0.10805
0.18717,0.97431,-0.12526,0.1199,0.08548,-0.08527
0.181,0.97357,-0.13927,0.12815,-0.18843,0.07297
0.17639,0.97127,-0.15972,0.05184,-0.35424,0.14362
0.17993,0.96683,-0.18126,0.0078,-0.40008,0.07322
0.18975,0.96072,-0.2025,-0.00343,-0.44882,0.24751
0.20352,0.95099,-0.23278,0.00561,-0.48267,0.34606
0.2232,0.93728,-0.26773,-0.19604,-0.15428,-0.04451
0.2508,0.92194,-0.29517,-0.20815,0.44404,0.13065
0.27316,0.90584,-0.32377,-0.04193,0.64367,0.25559
0.28455,0.89585,-0.3413,0.19172,1.0932,-0.30839
0.30016,0.88945,-0.34466,-0.00647,1.25155,-0.14481
0.31022,0.88559,-0.34566,-0.16892,0.40979,-0.22082
0.31704,0.88558,-0.33946,-0.09034,-0.00097,-0.04989
0.31625,0.8886,-0.33221,-0.14401,-0.11755,0.01356
0.31102,0.89494,-0.31991,-0.14104,-0.19754,0.08157
0.30035,0.90446,-0.3029,-0.04318,-0.22089,0.0885
0.28246,0.91555,-0.28632,-0.00655,-0.30102,0.05324
0.25695,0.92829,-0.26878,-0.0299,-0.41779,0.0359
0.22683,0.94197,-0.24748,-0.02878,-0.40411,0.07459
0.19874,0.95386,-0.22504,0.00496,-0.36461,0.0378
0.17645,0.96316,-0.20296,0.03592,-0.24129,0.07877
0.15678,0.97076,-0.18175,0.0081,-0.18874,0.12447
0.13898,0.97619,-0.16653,-0.01463,-0.18756,0.09683
0.12593,0.97979,-0.15537,-0.17473,-0.09044,0.07366
0.11908,0.98272,-0.14171,-0.33721,-0.35457,-0.05653
0.12143,0.9853,-0.12015,-0.2971,-0.32252,0.19478
0.13147,0.98635,-0.09908,-0.23294,-0.05583,0.10924
0.13596,0.98568,-0.09975,-0.11538,0.67021,-0.03326
0.12573,0.98649,-0.10498,-0.09694,1.35173,0.00489
0.11543,0.98771,-0.10536,0.38219,2.23328,-0.04888
0.12494,0.98611,-0.10942,0.41861,-0.29013,0.45748
0.14633,0.98062,-0.13024,0.59288,-0.37538,-0.0107
0.15543,0.97817,-0.13793,-0.00343,-0.58806,-0.18201
0.15676,0.97911,-0.12952,0.08964,-0.03862,-0.02188
0.14913,0.98255,-0.11117,0.11826,0.40851,0.18414
0.1462,0.98522,-0.08927,-0.10695,0.22613,0.25653
0.14952,0.98567,-0.07807,-0.18205,-0.04957,-0.04969
0.15326,0.98575,-0.06938,-0.10527,-0.19233,-0.0222
0.15515,0.98597,-0.06155,-0.08695,-0.34194,0.18218
0.15679,0.98592,-0.05813,-0.14444,-0.45107,0.02069
0.15709,0.98584,-0.05872,-0.1857,-0.47593,-0.03735
0.15267,0.98637,-0.06143,-0.14705,-0.22224,0.03767
0.14513,0.98698,-0.06934,0.01581,0.19767,-0.01431
0.13694,0.98769,-0.07557,0.43441,0.20553,0.11308
0.13532,0.98739,-0.08219,0.51126,-0.22051,0.13037
0.13793,0.98569,-0.09693,0.45251,-0.4178,0.14586
0.14426,0.98257,-0.1172,0.13612,-0.44824,0.23644
0.1575,0.97577,-0.15189,-0.10611,-0.34004,0.26041
0.17882,0.96219,-0.20548,-0.29507,-0.09044,0.15441
0.20719,0.94426,-0.25583,-0.08728,0.41178,0.02088
0.23828,0.92407,-0.29887,0.02617,0.71885,0.08741
0.25656,0.90589,-0.33696,0.10208,0.93794,-0.38779
0.26829,0.89698,-0.35134,-0.06395,1.05008,-0.53445
0.27566,0.89261,-0.35673,-0.3105,0.50706,-0.05807
0.28174,0.89164,-0.3544,-0.17399,-0.02065,-0.09645
0.2835,0.89377,-0.34758,-0.1478,-0.08417,-0.06365
0.28012,0.89973,-0.3347,-0.1172,-0.54061,-0.03316
0.27388,0.90984,-0.31173,0.04579,-0.51432,0.09325
0.25988,0.92199,-0.28704,0.05007,-0.48678,-0.02865
0.23357,0.9349,-0.26722,0.06721,-0.45408,-0.08686
0.20339,0.94815,-0.24422,0.02683,-0.35586,0.09908
0.17488,0.95913,-0.22243,-0.06174,-0.27502,0.14762
0.15389,0.96711,-0.20251,-0.13009,-0.30258,0.17132
0.14196,0.97286,-0.18275,-0.20084,-0.21062,0.12388
0.13657,0.97639,-0.16738,-0.33048,0.09773,0.09749
0.1375,0.97845,-0.15406,-0.34097,0.16375,0.06166
0.14102,0.98076,-0.13495,-0.13925,-0.06092,0.12327
0.14411,0.98256,-0.11751,-0.10088,-0.10721,0.06224
0.14628,0.98422,-0.09957,0.036,0.04252,-0.08417
0.14595,0.9854,-0.08768,-0.03652,0.21059,0.09567
0.14447,0.98534,-0.09072,-0.06514,0.20806,0.2098
0.13878,0.98524,-0.10017,0.06123,0.99375,0.07308
0.13277,0.98677,-0.09297,0.16686,0.48149,-0.00996
0.12968,0.98789,-0.08514,0.29297,0.49763,-0.17626
0.13104,0.98818,-0.07949,0.11843,-0.0015,0.22029
0.13755,0.9876,-0.07568,0.20977,-0.22003,0.14578
0.13908,0.98738,-0.07567,0.03135,-0.42742,0.14063
0.14157,0.98704,-0.07559,-0.0219,-0.4397,0.02684
0.1427,0.987,-0.07391,-0.16687,-0.05461,0.06819
0.14298,0.98745,-0.06706,-0.21201,0.1394,-0.03133
0.14337,0.98779,-0.06088,-0.14299,0.0764,0.00393
0.14531,0.98772,-0.05745,-0.06539,0.01067,0.01742
0.14724,0.98745,-0.05714,0.0503,-0.11574,-0.0619
0.14437,0.98771,-0.05988,0.16507,-0.26482,-0.02355
0.13882,0.98818,-0.06499,0.2308,-0.2749,-0.07968
0.13319,0.98829,-0.07439,0.2988,-0.23156,-0.11527
0.13085,0.98767,-0.08596,0.38725,-0.27395,-0.01014
0.13351,0.98622,-0.09769,0.23951,-0.39314,0.14414
0.14263,0.9828,-0.11729,0.10408,-0.44481,0.2616
0.161,0.97492,-0.15362,-0.10093,-0.37129,0.34626
0.18827,0.96036,-0.20555,-0.36093,-0.12205,-0.12755
0.22253,0.94497,-0.23981,-0.29949,0.421,-0.01258
0.25181,0.93099,-0.26429,-0.20741,0.5975,0.20772
0.26284,0.91938,-0.29267,-0.13397,0.33647,0.07393
0.26938,0.91111,-0.31195,0.22487,0.2832,0.16777
0.27273,0.90708,-0.32066,0.10078,0.15307,0.05642
0.28119,0.90822,-0.30995,-0.30426,0.59601,-0.22964
0.29151,0.91177,-0.2893,-0.208,0.75145,-0.26361
0.29125,0.91659,-0.27393,-0.19323,0.37299,-0.35056
0.27604,0.925,-0.26112,0.13313,-0.06277,-0.16712
0.24869,0.93666,-0.24661,0.53032,-0.06087,0.04474
0.21745,0.94997,-0.2242,0.60988,0.06895,0.03063
0.1933,0.96181,-0.1938,0.18943,0.04953,-0.06249
0.1783,0.97003,-0.16505,0.00636,-0.1563,-0.11173
0.16168,0.97622,-0.14438,-0.27296,-0.78398,0.23514
0.14163,0.98109,-0.13189,-0.30668,-0.93905,0.33967
0.1217,0.98478,-0.12408,-0.15545,-1.05653,0.24266
0.10191,0.98833,-0.11317,-0.19213,-1.21864,-0.08255
0.09509,0.99169,-0.08659,-0.28426,-1.09193,0.03326
0.10777,0.9919,-0.0672,0.02587,0.41864,-0.23479
0.13526,0.98715,-0.08509,-0.00162,0.42339,-0.2169
0.14204,0.9873,-0.07116,-0.18446,0.562,0.51766
0.1388,0.98615,-0.09072,0.0312,-0.18424,0.18207
0.12045,0.98679,-0.10831,0.55341,1.29045,-0.15076
0.11865,0.98801,-0.09877,0.64063,0.16447,0.30374
0.1336,0.98617,-0.09807,0.67137,-0.40383,0.09122
0.13735,0.98431,-0.11076,0.41351,-0.37229,-0.2984
0.13335,0.98363,-0.12119,0.13176,0.27603,-0.16139
0.12561,0.98411,-0.12552,0.07018,0.26335,0.10676
0.12164,0.98393,-0.13073,-0.0946,-0.17086,0.22852
0.11967,0.98223,-0.14456,-0.14816,-0.43999,0.32011
0.12396,0.97776,-0.16918,-0.2498,-0.54775,0.3199
0.13437,0.96902,-0.20724,-0.38977,-0.57822,0.2915
0.14788,0.95756,-0.24739,-0.38506,-0.50989,0.09973
0.16986,0.9449,-0.27984,0.11028,0.13284,0.28985
0.2054,0.92895,-0.30799,0.12901,0.33481,0.31332
0.241,0.9104,-0.33629,0.15931,0.57599,0.26035
0.25922,0.89705,-0.35791,0.50501,1.33761,-0.3963
0.2679,0.89277,-0.3622,0.07997,1.37554,-0.44421
0.27518,0.88975,-0.36418,-0.08844,0.82342,-0.20752
0.2797,0.88726,-0.3668,-0.07079,0.18803,-0.1667
0.28036,0.88893,-0.36221,0.03028,-0.07092,-0.02785
0.26942,0.89647,-0.35178,-0.01536,-0.20736,0.14114
0.25096,0.90763,-0.33649,0.06708,-0.29914,0.1294
0.22668,0.9199,-0.31999,0.03978,-0.29997,0.01818
0.19595,0.93286,-0.30228,-0.02448,-0.28119,0.05391
0.1639,0.9446,-0.28437,-0.01177,-0.25521,0.11423
0.13677,0.95383,-0.2674,-0.02704,-0.25704,0.12264
0.11487,0.9615,-0.24964,-0.03066,-0.2998,0.15205
0.09156,0.96844,-0.23181,-0.03646,-0.26293,0.11907
0.06381,0.97447,-0.21527,-0.06497,-0.07556,0.07715
0.04083,0.97849,-0.20219,-0.11224,-0.0359,0.12571
0.0289,0.98087,-0.19251,-0.125,-0.15589,0.05988
0.02492,0.98244,-0.18492,-0.08658,-0.27635,-0.01042
0.02655,0.98317,-0.18073,0.11338,-0.37278,-0.08529
0.03195,0.9826,-0.18299,0.15621,-0.33048,-0.10888
0.04672,0.98124,-0.18706,-0.00851,0.03679,-0.19175
0.06727,0.98212,-0.17583,-0.01252,0.38194,0.29664
0.07822,0.98252,-0.16894,0.10622,0.56692,0.4521
0.0754,0.98181,-0.17426,-0.02514,0.74138,0.14003
0.05819,0.98042,-0.18813,-0.17155,0.47468,0.4373
0.03724,0.98166,-0.18698,0.03343,0.66225,0.15884
0.02687,0.98523,-0.16911,0.46366,0.67415,0.50531
0.02678,0.98897,-0.14566,0.36733,0.32395,0.33023
0.02412,0.9902,-0.13758,-0.10097,0.46822,0.24079
0.01202,0.99275,-0.11963,-0.30923,0.31173,0.28462
-0.00123,0.99568,-0.09279,-0.06972,0.28419,0.25054
-0.01412,0.99711,-0.07461,-0.00181,0.12722,0.1647
-0.02489,0.99757,-0.0651,0.02045,-0.14626,0.0929
-0.03637,0.99788,-0.05403,0.05314,-0.365,0.06559
-0.05064,0.99784,-0.0418,0.12747,-0.44053,0.04254
-0.06672,0.99729,-0.03096,0.25428,-0.42264,0.06104
-0.08154,0.99644,-0.02124,0.38864,-0.41295,0.00845
-0.09398,0.99551,-0.0111,0.44249,-0.40555,-0.05241
-0.10437,0.99454,-0.00054,0.3983,-0.32285,-0.03784
-0.11447,0.99336,0.01111,0.28091,-0.18302,0.03731
-0.12649,0.99162,0.0261,0.09318,-0.12543,0.06762
-0.14102,0.98906,0.04331,0.08238,-0.07797,0.03895
-0.15631,0.986,0.05811,0.24533,0.08317,0.05633
-0.16926,0.98307,0.07023,0.41783,0.15597,0.06
-0.17842,0.98081,0.07861,0.48788,0.21743,0.02914
-0.18306,0.97951,0.08391,0.55868,0.28319,0.03516
-0.18237,0.97996,0.08018,0.5843,0.1343,0.29627
-0.17574,0.98229,0.06504,0.53722,0.08726,0.34525
-0.15905,0.98663,0.03546,0.41166,0.13254,0.33912
-0.13312,0.99106,-0.00842,0.20483,0.04533,0.17493
-0.10381,0.99253,-0.06408,0.03791,0.38673,0.15095
-0.07656,0.99148,-0.10538,0.02926,0.53194,0.28469
-0.05389,0.98992,-0.13096,0.40947,0.6703,0.28228
-0.02816,0.98687,-0.15905,0.41328,0.46794,0.37118
-0.00235,0.9825,-0.18626,0.36417,0.27699,0.38147
0.01888,0.97741,-0.21051,0.1423,0.04964,0.28105
0.03207,0.97247,-0.2308,0.17873,-0.00905,0.21015
0.03969,0.96802,-0.2477,0.19851,-0.02939,0.27632
0.04399,0.96388,-0.26268,0.22721,-0.13324,0.38007
0.04929,0.95994,-0.27583,0.26089,-0.08516,0.33904
0.0539,0.95667,-0.28614,0.27204,0.05718,0.35198
0.05497,0.9547,-0.29246,0.2627,0.08638,0.38841
0.05479,0.95455,-0.29298,0.18041,0.02809,0.43025
0.05377,0.95533,-0.2906,-0.05307,-0.09368,0.49656
0.05224,0.95645,-0.28718,-0.12092,-0.09139,0.49676
0.04958,0.95842,-0.28101,-0.26961,-0.12338,0.42231
0.04357,0.96119,-0.27243,-0.28438,-0.30028,0.31365
0.03265,0.96398,-0.26396,-0.20369,-0.30329,0.12355
0.01735,0.96639,-0.25651,-0.08438,-0.27695,-0.05475
0.00043,0.96987,-0.24362,0.19395,-0.15327,-0.13661
-0.01361,0.97243,-0.23279,0.32098,0.17834,-0.27593
-0.02206,0.97327,-0.22859,0.37748,0.33122,-0.24968
-0.01927,0.9711,-0.23791,0.3056,0.41938,-0.21891
-0.00749,0.96762,-0.25231,0.24777,0.13715,-0.27604
0.00611,0.96777,-0.25177,0.29308,-0.13021,-0.29489
0.01444,0.97015,-0.24206,0.55741,-0.62247,-0.19537
0.01939,0.96886,-0.24685,0.4636,0.25082,0.3574
0.0357,0.96721,-0.25146,0.26581,1.32665,0.70228
0.02755,0.97449,-0.22274,-0.44735,0.91631,0.25221
-0.00027,0.97396,-0.22673,-0.32988,0.14297,0.26225
-0.01264,0.96959,-0.24443,0.12907,-0.16212,0.48187
-0.01172,0.96994,-0.24306,0.3239,-0.42406,0.5585
-0.01355,0.97253,-0.2324,0.30314,-0.45925,0.47887
-0.02183,0.97848,-0.20519,0.04572,-0.01435,0.21223
-0.03807,0.98501,-0.16824,-0.0305,0.57024,0.25214
-0.05635,0.98836,-0.14131,-0.02179,0.30862,0.1559
-0.06189,0.99067,-0.12139,0.13147,-0.05742,-0.01584
-0.06088,0.99382,-0.09279,0.06708,-0.25309,0.05475
-0.06993,0.99552,-0.06368,0.02209,-0.40036,0.06554
-0.0878,0.99547,-0.03653,0.05051,-0.41333,0.03519
-0.10482,0.99445,-0.00849,0.07961,-0.14126,0.15288
-0.11434,0.99332,0.01527,0.16929,-0.06619,0.08443
-0.11872,0.99231,0.03501,0.17992,-0.0329,-0.09337
-0.12319,0.99067,0.05822,0.17186,-0.07032,-0.1084
-0.12976,0.98816,0.08182,0.26742,-0.0923,-0.08194
-0.13551,0.98579,0.0993,0.33504,-0.12191,-0.1027
-0.14053,0.98383,0.11104,0.37093,-0.14902,-0.12804
-0.14666,0.98157,0.12252,0.13349,0.11804,-0.02774
-0.15301,0.97925,0.13284,0.14924,0.1666,0.00267
-0.15689,0.9778,0.13886,0.19681,0.14553,0.03085
-0.15094,0.97917,0.13577,0.5627,-0.00205,-0.00314
-0.14597,0.97997,0.13544,0.57514,-0.04279,0.0525
-0.13686,0.98224,0.12836,0.56872,0.02452,0.10273
-0.11992,0.98636,0.11278,-0.09946,0.31824,0.08859
-0.0944,0.992,0.08375,-0.1378,0.35031,0.1511
-0.06204,0.99703,0.0456,-0.14697,0.22601,0.28532
-0.0274,0.99961,0.00544,-0.07803,0.18963,0.15186
0.00701,0.99946,-0.03207,-0.00373,0.31041,-0.0016
0.03743,0.99742,-0.06119,-0.00824,0.33522,0.01511
0.06735,0.99436,-0.08188,0.01907,0.11927,0.1123
0.09744,0.98983,-0.10364,-0.03549,0.0977,0.07833
0.12595,0.98416,-0.12472,-0.10798,0.18774,0.03891
0.15216,0.97803,-0.14246,-0.0883,0.12344,0.16504
0.17588,0.97074,-0.16349,-0.08089,0.0174,0.39745
0.20475,0.96314,-0.17448,-0.17985,-0.0949,-0.16936
0.22593,0.95622,-0.18602,-0.1699,-0.20741,0.01549
0.23647,0.95097,-0.19934,-0.1151,-0.25878,0.10318
0.24124,0.94751,-0.20982,-0.10022,-0.27976,0.13354
0.24385,0.94575,-0.21471,-0.09338,-0.29802,0.16655
0.24791,0.94517,-0.21258,0.03526,-0.36036,0.07913
0.2493,0.94593,-0.20752,0.09749,-0.43598,0.07477
0.242,0.94849,-0.20444,0.01752,-0.47608,0.08643
0.22725,0.95238,-0.20328,0.02422,-0.46653,0.10042
0.20812,0.95702,-0.20199,0.01108,-0.443,0.01771
0.18877,0.96176,-0.19845,0.02351,-0.37167,-0.02478
0.17123,0.96618,-0.1928,0.00833,-0.26971,0.02427
0.15665,0.97016,-0.18509,-0.11209,-0.1702,0.07017
0.1429,0.97383,-0.17675,-0.1233,0.03347,0.03212
0.12301,0.97897,-0.16273,-0.12779,0.22524,-0.02603
0.09835,0.98522,-0.14027,-0.02831,0.19786,-0.02552
0.07748,0.9904,-0.11445,0.05112,0.02913,-0.08415
0.06386,0.99364,-0.09276,0.06844,-0.10938,-0.12309
0.05732,0.99515,-0.07991,0.00112,-0.30205,-0.07516
0.06086,0.99567,-0.0702,-0.04458,-0.46929,0.02582
0.06892,0.99587,-0.05919,-0.07632,-0.50003,0.03438
0.07541,0.99588,-0.05042,-0.02595,-0.05774,0.01015
0.07737,0.99615,-0.04124,0.01437,0.92072,-0.04204
0.07796,0.99637,-0.0343,-0.03353,1.32546,0.17718
0.08601,0.99592,-0.02715,0.11855,0.90863,0.1356
0.095,0.99514,-0.0258,-0.10356,0.1533,0.28007
0.10307,0.99434,-0.02581,0.08858,-0.38307,0.17606
0.10418,0.994,-0.03334,0.22939,-0.72712,0.02439
0.10448,0.99396,-0.03364,0.10043,-0.50798,-0.22108
0.10397,0.99425,-0.02561,0.20607,0.31625,-0.23197
0.1061,0.99425,-0.01442,0.17646,0.61305,0.01032
0.1117,0.9937,-0.00967,0.05376,-0.0052,-0.02795
0.11659,0.99308,-0.01427,0.27814,-0.19202,-0.16468
0.11306,0.99337,-0.02075,0.31736,-0.28196,-0.11215
0.11112,0.99335,-0.02997,0.19938,-0.30213,0.06867
0.11381,0.99241,-0.04652,0.14771,-0.34547,0.10883
0.12058,0.99011,-0.0717,-0.04503,-0.57298,0.28981
0.13506,0.98519,-0.10568,-0.12461,-0.6487,0.38103
0.15945,0.97527,-0.15308,-0.32312,-0.54225,0.0143
0.19204,0.96286,-0.18978,-0.30178,0.44868,0.15457
0.22471,0.94886,-0.22173,-0.12753,0.74234,0.26189
0.24191,0.93672,-0.25304,0.22968,0.48363,0.08492
0.25454,0.92761,-0.2734,0.13467,0.7356,-0.37252
0.26754,0.92273,-0.27747,0.0431,0.94148,-0.43534
0.28021,0.92069,-0.2717,-0.00114,0.66458,-0.30716
0.28292,0.92155,-0.26588,-0.43545,-0.24683,-0.04249
0.27975,0.92602,-0.25344,-0.35902,-0.38357,0.05253
0.26794,0.93439,-0.23479,-0.2176,-0.43239,0.00632
0.24496,0.94663,-0.20948,0.13576,-0.49186,-0.12737
0.21392,0.95952,-0.18319,0.29753,-0.27048,-0.23307
0.18134,0.97068,-0.1578,0.42167,0.11361,-0.25874
0.15798,0.97838,-0.13346,0.36806,0.22905,-0.15274
0.14771,0.98283,-0.11058,0.2545,0.10921,-0.09279
0.13603,0.98667,-0.08926,-0.1106,-0.18597,0.00277
0.11875,0.98997,-0.07656,-0.29143,-0.34402,0.05542
0.1026,0.9927,-0.06347,-0.14828,-0.60573,0.04635
0.09278,0.99505,-0.03555,-0.12211,-0.79917,0.04927
0.09145,0.99579,-0.00599,-0.07192,-0.36055,-0.02071
0.09456,0.99551,0.00478,0.08385,1.06751,0.03112
0.0931,0.99565,0.00209,0.07416,1.73275,0.18002
0.105,0.99444,-0.00823,0.11638,-0.16976,-0.08579
0.11411,0.99325,-0.02067,0.26996,0.87715,-0.20804
0.12016,0.99259,-0.01827,0.30578,-0.09804,0.19723
0.12787,0.99161,-0.01876,0.35162,-0.37102,0.07014
0.13077,0.9912,-0.02077,0.18503,-0.38832,-0.08342
0.13312,0.99097,-0.01628,0.17325,-0.02487,-0.14685
0.13223,0.99118,-0.00814,0.01469,0.23103,0.00031
0.13222,0.99122,0.00088,-0.11995,0.22675,-0.01841
0.13596,0.99071,0.0008,-0.13654,-0.0973,-0.0621
0.13782,0.99044,-0.00594,0.04216,-0.28901,-0.08047
0.13428,0.99077,-0.0187,0.19187,-0.32852,-0.04773
0.13054,0.99077,-0.03647,0.19948,-0.34633,0.00076
0.13465,0.98927,-0.05672,0.11366,-0.48176,0.16672
0.14898,0.98524,-0.08436,-0.05534,-0.58088,0.24538
0.17242,0.97683,-0.12681,-0.17903,-0.50345,0.1601
0.20319,0.96306,-0.17674,-0.26564,-0.28746,-0.14372
0.24132,0.94835,-0.20591,0.02249,0.9696,0.30657
0.26526,0.93627,-0.2303,0.06685,0.66679,0.20349
0.2789,0.92754,-0.24876,0.14263,0.48588,0.0131
0.28605,0.92331,-0.25627,-0.19277,0.77281,-0.41581
0.29563,0.92245,-0.24837,-0.1746,0.7836,-0.49887
0.30202,0.92382,-0.23526,0.0915,0.34831,-0.18543
0.30604,0.92594,-0.22129,-0.22701,-0.27264,-0.13148
0.29928,0.93076,-0.21003,-0.28181,-0.43842,-0.0136
0.28109,0.9397,-0.1948,-0.1169,-0.49354,0.0864
0.25341,0.95169,-0.17342,0.04906,-0.55818,-0.02704
0.21789,0.9647,-0.1479,0.12667,-0.45358,-0.06841
0.18298,0.97561,-0.12123,0.1709,-0.17129,-0.0515
0.15749,0.98267,-0.09776,0.17442,-0.14995,-0.06307
0.14105,0.98698,-0.07729,0.08514,-0.13765,-0.03397
0.12688,0.9902,-0.05844,-0.19493,-0.07635,-0.10111
0.11349,0.99246,-0.04616,-0.26643,-0.00231,-0.08334
0.10382,0.99398,-0.03488,-0.18947,-0.16349,0.01005
0.10342,0.99455,-0.01307,-0.26166,-0.0863,0.19424
0.11024,0.99385,0.00998,-0.1167,0.22715,0.06275
0.11075,0.99351,0.02584,0.06111,0.95584,-0.15108
0.10378,0.99458,0.00678,0.04992,0.84022,-0.1009
0.10024,0.99489,-0.01225,0.32057,0.8831,0.02771
0.10391,0.99443,-0.01761,0.56906,-0.41591,0.10893
0.11527,0.99283,-0.03154,0.62069,-0.31473,-0.02899
0.12788,0.9912,-0.03402,0.12163,-0.39106,-0.01766
0.13518,0.99043,-0.02768,0.01845,-0.01117,-0.02786
0.13471,0.99075,-0.01651,-0.13428,0.16967,0.06027
0.13679,0.9906,-0.00012,-0.15728,0.09119,-0.03673
0.13766,0.99042,0.01057,-0.07731,-0.01545,-0.1034
0.13894,0.9901,0.02014,-0.03603,-0.12134,-0.01348
0.1395,0.98981,0.02843,-0.07585,-0.11918,-0.03368
0.13503,0.99039,0.02996,-0.01695,-0.06037,-0.09965
0.12534,0.99179,0.02518,0.03801,-0.02933,-0.10448
0.11634,0.99309,0.01546,0.14766,-0.14778,-0.06862
0.1115,0.99376,-5e-05,0.2718,-0.3704,0.07884
0.11639,0.99304,-0.01792,0.17943,-0.57828,0.19989
0.13372,0.9901,-0.0427,-0.02506,-0.65248,0.18031
0.1584,0.98417,-0.07951,-0.19596,-0.6431,0.13972
0.18439,0.97485,-0.12519,-0.20769,-0.34791,-0.23942
0.2158,0.96311,-0.16078,0.12703,0.56872,-0.02299
0.2503,0.94892,-0.1921,0.19556,0.68638,0.01715
0.27521,0.9353,-0.22244,0.24325,0.65527,0.01524
0.29094,0.92569,-0.24177,0.15399,0.52464,-0.45051
0.30037,0.92278,-0.24135,-0.16989,0.84068,-0.52696
0.3081,0.92135,-0.23703,-0.01464,0.92324,-0.4266
0.31125,0.92218,-0.22959,-0.36991,-0.13788,-0.23532
0.30976,0.92554,-0.21777,-0.27701,-0.10878,-0.09653
0.29586,0.93278,-0.20589,-0.21049,-0.07621,-0.05793
0.27142,0.94445,-0.1853,0.1934,-0.16142,-0.19673
0.23688,0.9588,-0.1568,0.2839,-0.06799,-0.22081
0.20016,0.97127,-0.12875,0.38754,0.02147,-0.17514
0.17418,0.97919,-0.10415,0.15356,-0.2471,-0.05066
0.15768,0.98423,-0.08015,0.04294,-0.30493,-0.04573
0.1366,0.98883,-0.05965,-0.10454,-0.45558,0.00427
0.11173,0.99265,-0.04641,-0.20925,-0.58685,0.14411
0.09311,0.99483,-0.04051,-0.26055,-0.79048,0.18541
0.08074,0.99614,-0.0345,-0.25885,-1.07643,-0.01561
0.08161,0.99662,-0.00965,-0.25733,-1.03823,0.02717
0.09495,0.99539,0.01354,-0.15276,-0.28677,-0.11478
0.10274,0.99458,0.01588,-0.1351,3.0698,-0.07136
0.10333,0.99453,0.0153,0.10733,0.30674,0.3252
0.11103,0.99378,-0.00884,0.29043,0.26889,-0.30276
0.11267,0.99345,-0.019,0.37301,-0.12718,0.16515
0.12335,0.99195,-0.02881,0.41684,-0.26641,0.04005
0.12593,0.99111,-0.04296,0.3884,-0.45282,-0.18378
0.11986,0.992,-0.0395,0.19938,0.48909,-0.11635
0.10907,0.99372,-0.02504,-0.11536,0.3316,0.07227
0.10429,0.99447,-0.01254,-0.19435,-0.19423,-0.06702
0.10027,0.99489,-0.01207,0.02284,-0.17431,-0.03734
0.09606,0.9952,-0.01854,0.08626,-0.23693,-0.01993
0.09431,0.99519,-0.02645,0.08337,-0.31785,-0.05399
0.09341,0.99491,-0.03786,0.07297,-0.40648,0.05824
0.09578,0.9938,-0.05636,0.08401,-0.52354,0.13777
0.10624,0.99079,-0.08393,0.03277,-0.58378,0.19523
0.12544,0.98536,-0.11542,-0.03493,-0.6499,0.2435
0.14922,0.97627,-0.15694,-0.12129,-0.53555,0.01563
