gravity.x,gravity.y,gravity.z,userAcceleration.x,userAcceleration.y,userAcceleration.z
0.28751,0.94254,-0.17012,0.11384,-0.2642,0.2446
0.28013,0.94589,-0.16371,-0.036,-0.48067,-0.14252
0.27544,0.94873,-0.155,-0.03131,-0.48351,-0.15123
0.27231,0.95,-0.15275,0.18605,-0.34774,-0.23626
0.27108,0.94997,-0.15512,0.40326,-0.08463,-0.11372
0.26453,0.95183,-0.15501,0.32557,0.06227,0.2906
0.24966,0.95591,-0.1546,-0.09879,-0.3601,0.40399
0.23164,0.95975,-0.15877,-0.22343,-0.36957,0.02825
0.21521,0.96223,-0.16668,0.11113,-0.14389,-0.23128
0.20123,0.9625,-0.18192,0.11405,-0.46733,0.00942
0.19349,0.95975,-0.20354,-0.00959,-0.8058,0.31424
0.1908,0.95659,-0.22027,-0.13593,-0.696,0.45681
0.1893,0.95339,-0.23496,-0.24617,0.09375,0.30077
0.19011,0.94665,-0.26018,-0.16269,1.30918,0.24979
0.19674,0.9354,-0.2938,0.06773,0.57332,0.08233
0.21023,0.92425,-0.31868,0.11408,0.43594,0.01171
0.22394,0.91387,-0.33865,0.26034,1.06282,-0.1501
0.24158,0.9015,-0.35906,-0.13713,1.02964,-0.30699
0.254,0.89359,-0.3701,-0.36214,0.56233,-0.29975
0.26648,0.88928,-0.37169,-0.07802,0.12294,-0.02348
0.27544,0.88653,-0.37173,0.34157,-0.29555,0.18658
0.28027,0.88774,-0.36517,0.38983,-0.60631,0.1298
0.28213,0.89505,-0.34536,-0.20414,-0.82282,-0.16437
0.28181,0.90411,-0.32118,-0.47475,-0.42791,-0.18755
0.28096,0.90989,-0.30521,-0.52242,-0.15317,-0.05557
0.28125,0.91246,-0.29714,-0.16351,-0.35291,0.17823
0.2824,0.91346,-0.29298,-0.16849,-0.60457,0.13708
0.28506,0.91563,-0.28347,-0.20744,-0.62626,0.12871
0.28924,0.91959,-0.26586,-0.23205,-0.59319,-0.01777
0.2899,0.92458,-0.24716,-0.21468,-0.30355,-0.08527
0.28749,0.92798,-0.23703,-0.21329,-0.05996,-0.19758
0.28236,0.93009,-0.23492,-0.06079,0.47596,-0.1597
0.27568,0.9321,-0.23488,-0.03635,0.3943,-0.00775
0.27883,0.93257,-0.22924,-0.02711,-0.451,0.25407
0.29219,0.93169,-0.21578,-0.06721,-1.04546,0.15482
0.30917,0.93063,-0.19576,-0.36711,-1.02359,0.32187
0.31391,0.93124,-0.18503,-0.48184,-0.82904,0.54259
0.30606,0.93366,-0.18599,0.22971,1.24656,0.13015
0.29102,0.93638,-0.19619,0.97181,2.61208,0.23871
0.28726,0.93739,-0.19689,0.77226,1.82308,-0.31771
0.2948,0.93209,-0.21043,0.61455,1.13018,-0.04718
0.30466,0.92815,-0.21379,0.32742,-0.56883,-0.39326
0.30379,0.92822,-0.21474,0.38424,-0.77853,0.0024
0.30523,0.92758,-0.21543,0.20387,-0.00264,0.27362
0.30761,0.92981,-0.20204,-0.05838,0.3033,0.31418
0.30058,0.93572,-0.18458,-0.41528,0.43081,0.10101
0.29626,0.9394,-0.17245,-0.18307,-0.10504,-0.08021
0.29479,0.94,-0.1717,0.03051,-0.51779,-0.16477
0.29515,0.93915,-0.17572,0.11205,-0.59073,-0.06663
0.29551,0.93853,-0.17841,0.12972,-0.51163,0.09372
0.28986,0.94077,-0.17587,0.07376,-0.1014,-0.00847
0.27488,0.9454,-0.17509,0.03587,-0.05271,-0.0615
0.25951,0.94868,-0.18069,0.09784,-0.12283,-0.11644
0.24987,0.94921,-0.19119,0.17127,-0.49171,0.15321
0.24519,0.94707,-0.20717,0.07007,-0.66636,0.38732
0.24095,0.94309,-0.22916,-0.12983,-0.68772,0.40786
0.23723,0.93856,-0.25063,-0.23374,-0.5532,0.3707
0.23428,0.93321,-0.27243,-0.6278,0.01055,0.13764
0.24041,0.92155,-0.30485,-0.32296,1.3378,0.07142
0.25699,0.90404,-0.34156,0.04188,1.38512,0.31156
0.27587,0.88911,-0.36521,0.5298,0.60992,-0.15678
0.2832,0.88175,-0.37724,0.41094,0.78094,0.03053
0.2893,0.87395,-0.39052,0.01454,0.96299,-0.2771
0.29234,0.87033,-0.39631,-0.16868,0.72426,-0.18029
0.29342,0.87136,-0.39323,-0.35704,-0.27871,-0.04261
0.30358,0.8705,-0.38739,-0.03826,-0.55325,0.07337
0.31473,0.86918,-0.3814,0.0753,-0.57758,0.12397
0.31586,0.87323,-0.37106,-0.02534,-0.33387,0.12834
0.31105,0.88278,-0.35205,-0.151,-0.19903,-0.0374
0.30508,0.89478,-0.32603,-0.2257,-0.19443,-0.1056
0.29981,0.90545,-0.30044,-0.2276,-0.33383,0.05686
0.29781,0.91186,-0.28249,-0.22732,-0.42114,0.03884
0.29709,0.91555,-0.2711,-0.25349,-0.41015,0.03363
0.29671,0.91858,-0.26108,-0.33002,-0.04219,0.02702
0.29656,0.9206,-0.25406,-0.07856,0.46937,-0.12215
0.29574,0.92307,-0.2459,-0.00669,0.49426,-0.12977
0.30354,0.92399,-0.23259,-0.00288,-0.21966,-0.07443
0.31649,0.92331,-0.21752,-0.02244,-0.60357,0.18767
0.32815,0.92314,-0.20031,-0.29171,-0.88389,0.3817
0.32921,0.92613,-0.18411,-0.57409,-0.92579,0.48002
0.32038,0.93133,-0.17313,-0.39322,-0.21294,0.41628
0.30855,0.93596,-0.16958,0.08867,1.08808,0.10209
0.30492,0.93592,-0.17624,0.78581,1.97909,-0.06224
0.31246,0.93254,-0.1809,-0.00043,0.19032,-0.10366
0.31879,0.92943,-0.1858,0.27714,0.09825,-0.18192
0.32389,0.92686,-0.18979,0.5666,0.23965,-0.3113
0.32375,0.92734,-0.18769,0.60515,0.30202,-0.18527
0.31764,0.9306,-0.18189,0.24484,0.1706,0.0193
0.31266,0.93383,-0.17376,-0.14158,0.00649,-0.00483
0.30784,0.93643,-0.16827,0.00706,0.12227,-0.07457
0.30665,0.93683,-0.16824,0.22794,-0.00598,-0.15801
0.30921,0.93574,-0.16961,0.24067,-0.36269,-0.12304
0.31515,0.9331,-0.17316,0.06864,-0.38249,-0.13229
0.3171,0.93141,-0.17862,0.07188,-0.21179,-0.16231
0.30988,0.9324,-0.18599,0.16755,0.1018,-0.10537
0.30218,0.93308,-0.19503,0.24229,-0.21287,0.18958
0.2996,0.93112,-0.20794,0.15667,-0.36415,0.28082
0.2968,0.9278,-0.22601,-0.23294,-0.56097,0.38038
0.29047,0.9242,-0.24791,-0.32976,-0.58329,0.38016
0.27931,0.9217,-0.26914,-0.52128,-0.50065,0.29125
0.26816,0.91915,-0.2885,-0.32994,0.50893,-0.02365
0.2647,0.91232,-0.3124,-0.15968,1.06612,-0.02745
0.2749,0.89649,-0.34746,0.20685,1.44502,0.1366
0.29086,0.88402,-0.36593,0.16858,0.38814,0.02105
0.2951,0.88037,-0.37129,0.20205,0.17913,-0.12309
0.30257,0.87453,-0.379,0.14132,0.5605,-0.3026
0.31502,0.86682,-0.3865,-0.21601,0.8034,-0.24764
0.32349,0.86319,-0.38762,-0.22884,0.03784,-0.10815
0.33083,0.86233,-0.3833,-0.17156,-0.23878,-0.06012
0.33914,0.86174,-0.37734,0.11929,-0.5287,0.23339
0.34235,0.8644,-0.36823,0.01544,-0.6961,0.15247
0.33429,0.87408,-0.35245,-0.10962,-0.65518,0.0684
0.32301,0.88716,-0.32955,-0.29019,-0.39973,-0.00825
0.31377,0.89957,-0.30382,-0.30623,-0.30558,0.06879
0.30836,0.90779,-0.2843,-0.2881,-0.32858,-0.0638
0.30633,0.91255,-0.27092,-0.36012,-0.32941,-0.0651
0.30451,0.91632,-0.26003,-0.36193,-0.00875,0.00194
0.29782,0.92136,-0.24976,-0.01513,0.71397,-0.00036
0.29599,0.92525,-0.23724,0.15976,0.36367,-0.07131
0.31248,0.92275,-0.22555,0.07155,-0.5581,-0.00031
0.3292,0.91938,-0.21529,0.0599,-0.92768,0.1245
0.33228,0.92021,-0.20684,-0.28396,-0.74117,0.34703
0.32272,0.92335,-0.20802,-0.15199,-0.1367,0.48236
0.31054,0.9262,-0.21381,0.60043,1.38392,0.2766
0.30928,0.92695,-0.21238,0.72676,1.04521,-0.27395
0.32675,0.92455,-0.19603,-0.2301,0.42866,-0.40237
0.34092,0.91539,-0.21406,0.66685,1.40404,-0.19187
0.3414,0.91229,-0.22619,0.23346,0.40111,-0.28082
0.32465,0.91888,-0.22415,0.06924,-0.39505,0.19733
0.32049,0.92092,-0.22176,0.05547,-0.39419,0.27326
0.32573,0.92205,-0.20909,0.07781,-0.07892,0.07944
0.33066,0.92376,-0.19316,-0.06511,0.19946,-0.03629
0.33442,0.92433,-0.18377,-0.05065,0.07702,-0.03024
0.33449,0.92524,-0.17898,-0.06089,-0.23464,0.03272
0.32848,0.92805,-0.17554,-0.13486,-0.40278,0.13785
0.31467,0.93427,-0.16764,-0.09328,-0.324,0.02288
0.29934,0.94058,-0.16027,0.04918,-0.21225,-0.29967
0.287,0.94432,-0.1609,0.36306,-0.22468,-0.14546
0.27631,0.94721,-0.16259,0.49368,-0.23407,-0.0855
0.26421,0.95094,-0.16093,0.52505,-0.30782,-0.0278
0.24696,0.9561,-0.15767,0.14072,-0.30434,0.18408
0.22657,0.96036,-0.16237,0.04725,-0.27219,0.23498
0.20681,0.96271,-0.17435,-0.38911,-0.49133,0.33226
0.18777,0.96414,-0.18753,-0.55157,-0.54278,0.37228
0.17558,0.96343,-0.20239,-0.4595,0.11292,0.35354
0.17262,0.95922,-0.22382,-0.0688,1.11696,0.22124
0.17912,0.948,-0.26307,0.17148,1.41753,0.22676
0.18762,0.93813,-0.29104,0.1807,1.10583,-0.11615
0.1988,0.93181,-0.30362,0.09368,0.58561,-0.03541
0.21775,0.92321,-0.31663,0.17183,0.27468,-0.19098
0.23318,0.91775,-0.32148,0.12798,0.21087,-0.16605
0.24406,0.91606,-0.31821,-0.01008,-0.22026,-0.02556
0.2565,0.91527,-0.31061,-0.0981,-0.47562,-0.05034
0.26557,0.91677,-0.29831,-0.14675,-0.53599,-0.0552
0.26642,0.92156,-0.28236,-0.14858,-0.45091,0.09142
0.26372,0.9271,-0.26632,-0.10112,-0.4681,0.16762
0.26183,0.9319,-0.25098,-0.11663,-0.46578,0.10918
0.26041,0.93651,-0.23477,-0.2157,-0.57188,-0.08778
0.25646,0.94042,-0.2232,-0.28638,-0.55102,-0.16757
0.25216,0.94383,-0.21352,-0.30092,-0.46861,-0.06755
0.24857,0.94666,-0.20504,-0.30478,-0.0152,0.25615
0.2561,0.94677,-0.19502,-0.21638,-0.42321,0.31213
0.27441,0.94386,-0.1839,-0.18538,-0.73561,0.22207
0.28607,0.94302,-0.16989,-0.32718,-0.74052,0.18493
0.28593,0.94365,-0.1666,-0.23765,-0.36114,0.34068
0.28264,0.94294,-0.17597,0.8515,1.36967,-0.37843
0.28081,0.94177,-0.18491,1.68258,2.34662,0.00347
0.28622,0.9423,-0.1736,-0.0263,-0.16752,-0.33141
0.30248,0.93837,-0.16722,-0.1303,0.1346,-0.28303
0.30343,0.93605,-0.17812,1.12831,1.70343,-0.37347
0.28955,0.94094,-0.17543,0.47859,0.45933,-0.08582
0.28342,0.94486,-0.164,-0.04163,-0.25242,-0.07773
0.28051,0.94784,-0.15133,-0.05947,-0.21482,0.06921
0.2702,0.95343,-0.134,0.16776,0.14788,0.01979
0.25396,0.96065,-0.11245,0.19561,0.10078,-0.01415
0.24196,0.96526,-0.0985,0.28692,-0.30232,-0.08067
0.22945,0.96942,-0.08699,0.34931,-0.46518,-0.25168
0.21343,0.97384,-0.07791,0.35635,-0.44557,-0.28104
0.19693,0.97775,-0.07211,0.3798,-0.35301,-0.08865
0.18537,0.98039,-0.06682,0.15601,-0.46174,0.07921
0.17208,0.98291,-0.06534,0.099,-0.4983,-0.00654
0.15559,0.98518,-0.07216,0.10433,-0.56295,0.03997
0.14028,0.98593,-0.09081,0.01478,-0.64641,0.18969
0.12957,0.98507,-0.1133,-0.03666,-0.48131,0.29551
0.12449,0.98207,-0.14154,-0.06036,0.34148,0.27973
0.12719,0.97585,-0.17757,0.33431,1.04034,0.3906
0.13737,0.96791,-0.21042,0.63401,0.6287,-0.00303
0.14773,0.96015,-0.23721,0.26206,1.02038,0.17695
0.15751,0.95263,-0.26015,0.24815,1.17175,0.18186
0.16559,0.94594,-0.27886,0.2198,1.24083,-0.07174
0.17068,0.9409,-0.29252,0.28107,0.81444,-0.25879
0.18337,0.93544,-0.30217,0.33326,0.64312,-0.09076
0.1961,0.93099,-0.30788,0.43306,0.12505,0.10761
0.20296,0.93042,-0.30514,0.25394,-0.45893,0.23585
0.20004,0.93515,-0.29236,-0.03626,-0.44996,0.35654
0.18603,0.94366,-0.27366,-0.16714,-0.46061,0.38173
0.16748,0.95252,-0.25428,-0.47273,-0.54719,0.33521
0.14995,0.95947,-0.23857,-0.48241,-0.52048,0.0468
0.13903,0.96304,-0.23067,-0.35587,-0.48671,-0.11615
0.1318,0.96445,-0.22904,-0.04743,-0.49806,0.0371
0.12861,0.96426,-0.23162,0.22974,-0.33934,0.05889
0.12942,0.96302,-0.23628,0.29557,-0.23591,0.0166
0.12902,0.96292,-0.23693,0.17492,0.22379,-0.12269
0.13096,0.96255,-0.23734,0.01243,0.27597,-0.47616
0.13328,0.9617,-0.23951,0.02639,-0.02881,-0.55233
0.14075,0.95962,-0.24354,0.21757,-0.04417,0.29969
0.15296,0.95047,-0.27055,0.33006,0.54541,0.24341
0.16485,0.9449,-0.28282,0.48836,0.70736,0.26354
0.15988,0.94773,-0.27612,0.10767,1.15283,0.31468
0.14542,0.94942,-0.2783,0.54658,-0.21583,-0.01135
0.137,0.94955,-0.28211,0.48556,-0.53258,0.19289
0.14312,0.94761,-0.28556,0.44346,-0.56982,0.41499
0.16123,0.94712,-0.27743,0.41842,0.40552,0.15867
0.16105,0.95178,-0.26109,0.46743,1.42186,-0.00727
0.14505,0.96236,-0.2298,-0.09757,0.20402,0.23122
0.14449,0.9692,-0.1994,-0.15568,-0.55566,0.46215
0.15629,0.97192,-0.17589,-0.23733,-0.53761,0.37073
0.16051,0.97544,-0.1508,-0.18045,-0.44785,0.18198
0.14856,0.98086,-0.12581,0.06394,-0.16049,0.04189
0.13229,0.98526,-0.10838,0.33138,0.05296,0.06119
0.12776,0.98725,-0.09486,0.38512,-0.25434,0.14205
0.12988,0.98827,-0.08029,0.18865,-0.43604,0.09745
0.12956,0.98953,-0.06347,0.10008,-0.29983,0.03453
0.12622,0.99088,-0.04705,0.06438,-0.12163,-0.08391
0.12241,0.99187,-0.03463,0.09769,-0.00923,-0.11226
0.11843,0.99257,-0.0278,0.11895,0.02532,-0.10378
0.11425,0.99317,-0.02355,0.14611,0.1347,-0.17096
0.10906,0.9938,-0.02109,0.44101,0.15611,-0.08996
0.10168,0.99458,-0.02164,0.57365,0.15147,-0.10589
0.09492,0.99514,-0.02585,0.58484,0.02587,-0.09602
0.09191,0.99528,-0.03099,0.42921,0.18935,0.1074
0.09363,0.99485,-0.03876,0.32741,0.14383,0.19381
0.09787,0.99378,-0.05295,0.26073,-0.15849,0.16658
0.10207,0.992,-0.07415,0.35755,-0.02554,0.20337
0.10377,0.98934,-0.10215,0.5801,0.35797,0.28019
0.10952,0.98526,-0.13134,0.46755,0.32566,0.12712
0.11767,0.9814,-0.15164,0.36449,0.24335,0.08987
0.12156,0.978,-0.1695,0.09971,0.19403,0.10151
0.12264,0.97449,-0.18793,0.09959,0.16301,0.10349
0.1274,0.97023,-0.20594,0.25322,0.15059,0.01069
0.13496,0.96616,-0.21979,0.3135,0.10551,0.03325
0.13969,0.96334,-0.22902,0.29427,0.00602,0.076
0.14032,0.96168,-0.23553,0.20647,-0.14256,0.22905
0.13665,0.9608,-0.24119,0.11401,-0.29897,0.3215
0.12793,0.96105,-0.24497,0.03635,-0.37224,0.34931
0.11575,0.96311,-0.24293,-0.11207,-0.40586,0.35074
0.10336,0.96592,-0.23731,-0.22616,-0.31151,0.32743
0.09553,0.96813,-0.2315,-0.29628,-0.25212,0.24259
0.09414,0.96946,-0.22644,-0.23002,-0.21435,0.04602
0.09806,0.97019,-0.22161,-0.10424,-0.10587,-0.08839
0.10167,0.97088,-0.21689,0.24556,-0.06889,-0.09914
0.10227,0.97154,-0.21366,0.3446,-0.08984,-0.09988
0.10196,0.97258,-0.20899,0.37628,-0.08415,-0.12426
0.10318,0.97377,-0.20276,0.25784,0.15881,-0.32989
0.10787,0.97366,-0.20087,0.21128,-0.16956,-0.29068
0.11864,0.97211,-0.20228,0.20223,-0.24649,-0.30802
0.13376,0.9707,-0.19959,0.18982,-0.07323,-0.18025
0.15167,0.96705,-0.20445,0.44149,0.52489,0.04492
0.16772,0.96239,-0.21368,0.53908,0.56124,0.00494
0.17589,0.96492,-0.19487,-0.29832,0.14053,0.15225
0.17053,0.96926,-0.17735,-0.43361,0.22571,0.27128
0.15412,0.97148,-0.18016,0.13348,0.23527,0.19825
0.13757,0.97303,-0.18515,0.48009,-0.2156,0.31366
0.13579,0.97372,-0.18283,0.40495,-0.2656,0.30316
0.15009,0.97378,-0.17094,0.18303,0.02718,0.0383
0.16721,0.97393,-0.15327,0.07457,0.28179,-0.11783
0.1762,0.97465,-0.13787,0.13699,-0.09872,0.24674
0.17931,0.97598,-0.12366,0.10718,-0.25304,0.28742
0.18478,0.97616,-0.11384,0.01871,-0.30744,0.35548
0.18935,0.97683,-0.09966,-0.19216,-0.20036,0.1506
0.18904,0.97906,-0.07545,-0.22045,-0.15995,0.04133
0.18632,0.98098,-0.05425,-0.12231,-0.00737,-0.03079
0.18796,0.98124,-0.04268,0.19812,0.04688,-0.07881
0.19518,0.98018,-0.03392,0.22613,-0.07119,-0.04868
0.20411,0.97864,-0.02445,0.22611,-0.4088,0.07696
0.21201,0.97722,-0.00903,0.23733,-0.30489,0.06154
0.21384,0.97675,0.01485,0.24937,-0.11853,0.02219
0.20911,0.97718,0.03711,0.10809,0.11719,0.01953
0.20341,0.97778,0.05056,0.03177,0.03246,-0.05258
0.19799,0.97857,0.05639,-0.06307,0.03752,-0.17168
0.19222,0.97975,0.05601,0.18551,0.15821,-0.15202
0.18663,0.98084,0.05577,0.31012,0.0802,-0.11382
0.18191,0.9817,0.05623,0.37893,-0.00402,-0.12487
0.1793,0.98218,0.05626,0.23977,-0.05389,-0.18792
0.17757,0.98259,0.05448,0.20602,0.022,-0.22419
0.17569,0.98316,0.05024,0.21374,0.17386,-0.20663
0.17403,0.98382,0.04247,0.25123,0.13753,0.13238
0.17261,0.9846,0.02751,0.22192,0.0804,0.38786
0.17468,0.9846,0.00656,0.13356,0.00361,0.36503
0.18591,0.98218,-0.02726,0.03171,0.1797,0.20696
0.19682,0.97864,-0.05928,-0.09429,0.39558,0.16692
0.20662,0.97465,-0.08573,0.01053,0.51291,0.03506
0.21525,0.97084,-0.10545,0.05993,0.32994,-0.07548
0.22301,0.96687,-0.12416,-0.03051,5e-05,-0.05479
0.23487,0.96083,-0.14705,-0.05613,0.01127,0.0062
0.24656,0.95378,-0.17179,-0.09443,-0.0082,-0.00808
0.25475,0.94721,-0.19466,0.04382,0.15635,-0.04194
0.25971,0.94163,-0.2142,0.11678,0.12548,0.06395
0.26406,0.93662,-0.23025,0.10903,-0.16092,0.17179
0.26954,0.9323,-0.24115,-0.03022,-0.46103,0.22011
0.2747,0.9296,-0.24572,-0.21577,-0.66539,0.13714
0.27628,0.92899,-0.24626,-0.41938,-0.54608,0.05709
0.27615,0.9292,-0.24561,-0.25308,-0.27269,0.08266
0.27697,0.92939,-0.24394,-0.1999,-0.28412,0.08196
0.27938,0.92908,-0.24239,-0.08906,-0.31198,0.0333
0.28431,0.92837,-0.23936,0.09562,-0.49177,-0.02735
0.28881,0.92852,-0.23331,0.09898,-0.51748,-0.08375
0.28894,0.93126,-0.22195,0.03281,-0.53224,-0.12276
0.28533,0.93601,-0.20606,-0.15258,-0.51594,-0.00581
0.28201,0.94042,-0.18995,-0.21256,-0.50212,0.0255
0.28173,0.94318,-0.17616,-0.2669,-0.3783,0.0632
0.28301,0.94465,-0.16593,-0.19933,0.09798,-0.01135
0.28505,0.94563,-0.15661,-0.17174,0.31962,-0.09115
0.28705,0.94646,-0.14765,-0.19222,0.5006,-0.1316
0.29219,0.94627,-0.13852,-0.25349,-0.35357,-0.03834
0.29624,0.94598,-0.13174,-0.27518,-0.47448,0.14641
0.29856,0.94487,-0.13446,-0.11288,-0.60627,0.32475
0.29771,0.9439,-0.1429,0.5972,0.43008,0.33757
0.29481,0.94372,-0.14991,1.15647,1.45422,0.02715
0.2988,0.94216,-0.1518,0.21435,1.37788,-0.33885
0.30451,0.93989,-0.15449,-0.27164,1.07058,-0.32941
0.3023,0.93744,-0.17265,-0.41732,1.12304,-0.09533
0.29731,0.93817,-0.17728,0.58106,0.06828,-0.306
0.29821,0.9373,-0.18038,0.35897,-0.14833,0.20237
0.30843,0.93412,-0.17968,0.06941,-0.23476,0.28792
0.31935,0.93336,-0.16386,-0.52713,0.07314,0.26576
0.31555,0.93841,-0.14071,-0.32771,0.11917,-0.0332
0.30935,0.94305,-0.12227,-0.05593,-0.06399,-0.05626
0.30414,0.94617,-0.11068,0.15131,-0.51223,-0.12127
0.3,0.94822,-0.10423,0.1006,-0.57873,0.03299
0.29755,0.94947,-0.09983,0.07108,-0.55834,0.05113
0.29384,0.95125,-0.09365,0.07405,-0.25454,-0.15785
0.28575,0.95409,-0.08968,0.19265,-0.10445,-0.24167
0.27504,0.95705,-0.09167,0.2897,-0.11942,-0.19106
0.26479,0.95932,-0.09789,0.31547,-0.30119,-0.10769
0.25465,0.96119,-0.10612,0.35071,-0.2555,0.16448
0.24308,0.9629,-0.11716,0.26658,-0.27854,0.25084
0.23183,0.96395,-0.13056,-0.20019,-0.38492,0.20185
0.22414,0.96361,-0.14564,-0.36652,-0.50453,0.14004
0.22216,0.96043,-0.16796,-0.72999,-0.17878,-0.0245
0.22856,0.95215,-0.20286,-0.54291,0.74859,-0.26069
0.24445,0.93771,-0.24685,0.29249,1.26403,0.309
0.26213,0.92287,-0.28211,0.63263,0.86361,-0.15473
0.27036,0.91452,-0.30091,0.38505,0.37344,-0.22909
0.2806,0.90666,-0.315,-0.21748,0.82573,-0.42826
0.29389,0.89991,-0.32216,-0.31044,0.76983,-0.30877
0.30653,0.89513,-0.32369,-0.27403,0.04482,-0.063
0.31535,0.89258,-0.32226,-0.08395,-0.50131,0.09997
0.32055,0.89451,-0.31161,0.01695,-0.68967,0.14669
0.32126,0.90102,-0.29146,0.02611,-0.62598,0.0034
0.31694,0.91086,-0.26433,-0.04156,-0.47188,-0.12863
0.30811,0.92045,-0.2405,-0.1591,-0.39913,-0.22873
0.29781,0.92804,-0.22369,-0.14038,-0.37366,-0.1759
0.294,0.93212,-0.21145,-0.19466,-0.29319,-0.10073
0.29897,0.93304,-0.20009,-0.23316,-0.28735,-0.0376
0.30678,0.93309,-0.18768,-0.2744,-0.11441,-0.00095
0.30837,0.93556,-0.1721,-0.28267,0.38774,0.08841
0.30295,0.94024,-0.15541,-0.3062,0.44649,0.00515
0.29995,0.94345,-0.14114,-0.31457,0.14261,0.02931
0.30667,0.94289,-0.12998,-0.11799,-0.63775,0.02081
0.31627,0.94076,-0.1222,-0.1734,-0.8211,0.00985
0.31857,0.94096,-0.11443,-0.2072,-0.9507,-0.00238
0.31315,0.94297,-0.11285,0.08538,-0.53016,0.28287
0.31517,0.94073,-0.12524,0.41156,0.18004,0.44303
0.32215,0.93613,-0.14095,0.84514,2.36854,-0.03134
0.32867,0.93615,-0.12485,0.24147,1.69749,-0.52119
0.32575,0.93468,-0.14232,-0.02484,1.28216,0.12438
0.33042,0.93214,-0.14812,0.32521,-0.58726,-0.53651
0.33087,0.9312,-0.15291,0.51886,-0.75424,-0.07691
0.333,0.93014,-0.15475,0.71869,-0.32886,0.19688
0.33674,0.93113,-0.13999,-0.36959,0.49583,0.26116
0.32144,0.93838,-0.12693,-0.75146,0.38792,-0.09355
0.30812,0.94365,-0.12072,-0.6257,0.15474,-0.26627
0.30511,0.94453,-0.12147,0.3098,-0.18338,-0.24616
0.30427,0.9444,-0.12457,0.45137,-0.56212,-0.16335
0.30556,0.94351,-0.12813,0.29178,-0.62893,0.03744
0.30016,0.94515,-0.12879,0.05522,-0.33509,-0.08345
0.28669,0.94963,-0.12646,0.31005,0.01883,-0.14409
0.27246,0.95348,-0.12894,0.38141,-0.00435,-0.16545
0.26449,0.95483,-0.1354,0.11078,-0.35769,0.04448
0.25984,0.95471,-0.14491,-0.03008,-0.47967,0.22671
0.25388,0.95413,-0.15866,-0.09418,-0.48426,0.33801
0.24644,0.95352,-0.17337,-0.29951,-0.496,0.29001
0.23891,0.95215,-0.19057,-0.44479,-0.05396,0.15404
0.23637,0.94697,-0.21764,-0.47054,0.32119,-0.07356
0.24452,0.93645,-0.25152,0.05655,1.16987,0.17135
0.25916,0.92488,-0.27825,0.34037,0.48056,-0.22191
0.27043,0.91781,-0.29066,0.17751,-0.02029,-0.10596
0.28026,0.91249,-0.29802,0.25103,0.3332,-0.1794
0.29239,0.90627,-0.30523,-0.00995,0.83967,-0.30763
0.30603,0.89994,-0.31056,-0.15018,0.25496,-0.26561
0.31433,0.89685,-0.3112,-0.13385,-0.32087,-0.1894
0.31806,0.8977,-0.30491,0.09072,-0.36556,0.0882
0.3171,0.90254,-0.2913,0.08321,-0.3547,0.09864
0.31215,0.91075,-0.27034,0.01199,-0.28615,-0.0455
0.30446,0.92059,-0.24456,-0.10422,-0.18834,-0.20312
0.29403,0.93015,-0.21992,-0.1307,-0.15019,-0.17458
0.28227,0.93818,-0.20031,-0.14824,-0.03084,0.00244
0.27573,0.94331,-0.18474,-0.24625,-0.12054,0.04904
0.27836,0.94521,-0.17052,-0.27557,-0.18035,-0.00185
0.28562,0.94534,-0.15729,-0.21555,-0.15021,-0.1032
0.28978,0.94626,-0.14356,-0.22886,-0.07567,-0.02607
0.29024,0.94789,-0.13139,-0.27517,-0.22135,-0.02237
0.29523,0.9473,-0.12432,-0.1686,-0.74738,0.03334
0.30364,0.94564,-0.11641,-0.21636,-0.95507,0.03891
0.31113,0.9442,-0.10806,-0.17791,-0.82172,-0.07744
0.31703,0.94201,-0.10997,-0.08143,-0.54382,0.02223
0.32456,0.93735,-0.12665,1.02446,1.1743,-0.03905
0.33047,0.93269,-0.14445,1.32983,1.83009,0.10127
0.33741,0.93361,-0.1205,-0.46625,0.59627,-0.37097
0.34031,0.93188,-0.12561,0.17007,1.73949,0.12337
0.3378,0.92983,-0.14594,0.59825,0.17871,-0.70159
0.32606,0.93402,-0.14591,0.46601,-0.48652,-0.03039
0.3159,0.93744,-0.14631,0.47162,-0.56497,0.14746
0.31635,0.93853,-0.13808,-0.11815,0.04581,0.09695
0.31444,0.94083,-0.12634,-0.25475,0.66343,-0.10937
0.30208,0.9454,-0.12226,-0.03652,0.15417,-0.21343
0.29424,0.94767,-0.1238,0.12087,-0.3666,-0.20631
0.29156,0.94804,-0.12733,0.27947,-0.62293,-0.01471
0.28791,0.94866,-0.13092,0.25303,-0.58814,0.03983
0.27817,0.95106,-0.13455,0.25782,-0.3245,0.16203
0.26607,0.95338,-0.14237,0.02074,-0.36967,0.10945
0.25456,0.95511,-0.1515,-0.18746,-0.44008,0.11268
0.24368,0.95603,-0.16314,-0.37182,-0.57466,0.06927
0.23331,0.9558,-0.1789,-0.41112,-0.56399,0.06919
0.2265,0.95381,-0.19733,-0.2953,-0.08604,-0.11811
0.22783,0.94797,-0.22235,0.16345,1.00873,0.0296
0.23432,0.93715,-0.25855,0.57417,1.15102,0.07176
0.24742,0.92943,-0.27373,-0.07569,0.43043,-0.02224
0.26091,0.92397,-0.27963,-0.14617,0.16198,-0.20137
0.27192,0.91986,-0.28268,-0.14192,0.75423,-0.22542
0.28492,0.9146,-0.28693,-0.07053,0.59926,-0.24651
0.30178,0.90838,-0.28942,0.04171,0.17826,-0.18502
0.31524,0.90558,-0.2838,0.13311,-0.41748,0.05052
0.31966,0.90943,-0.26599,0.15199,-0.57206,0.07873
0.3169,0.91765,-0.23978,0.1536,-0.69815,0.04182
0.30634,0.92854,-0.20965,-0.18444,-0.60007,-0.04013
0.29533,0.93741,-0.1845,-0.39005,-0.56844,-0.09924
0.28673,0.94332,-0.16709,-0.45521,-0.53928,-0.09644
0.28693,0.94534,-0.1549,-0.4954,-0.4768,-0.15257
0.29205,0.9457,-0.14265,-0.19738,0.16796,0.01128
0.28538,0.9494,-0.13112,-0.12484,0.32387,0.08446
0.28322,0.95087,-0.125,-0.13034,-0.16503,0.25248
0.30005,0.94715,-0.11347,-0.19106,-0.81798,0.21324
0.31726,0.94319,-0.0986,-0.37137,-0.80234,0.03026
0.32567,0.93974,-0.10399,-0.28149,0.07167,0.20543
0.32432,0.93858,-0.11779,1.44823,1.49228,-0.14755
0.32207,0.93885,-0.12177,1.45048,1.49201,-0.14356
0.32929,0.9378,-0.10991,-0.02457,-0.00206,-0.4624
0.33874,0.93343,-0.11815,0.75434,2.5374,0.02809
0.33369,0.9325,-0.13817,0.75939,2.53833,0.04811
0.32122,0.93695,-0.13758,0.13745,-0.16719,-0.34529
0.32118,0.93699,-0.13742,0.03926,-0.42338,0.24808
0.32859,0.93543,-0.13033,0.04604,0.01376,0.11686
0.32721,0.93805,-0.11395,-0.37818,0.35957,-0.00224
0.31168,0.94479,-0.10106,-0.30041,0.23648,0.01128
0.29271,0.95149,-0.09474,0.13441,-0.28238,-0.06456
0.27414,0.95766,-0.08792,0.20671,-0.69029,-0.01543
0.26126,0.96207,-0.0784,0.10046,-0.73818,0.0932
0.25343,0.96476,-0.07068,0.0295,-0.65026,0.05067
0.24357,0.9676,-0.06649,-0.12455,-0.51345,-0.16326
0.22951,0.9711,-0.06544,-0.07789,-0.31135,-0.05471
0.21467,0.97402,-0.07204,0.0864,-0.1845,0.0133
0.1995,0.97649,-0.08165,0.12661,-0.25224,0.18432
0.18516,0.97815,-0.09452,-0.0396,-0.40542,0.20182
0.17339,0.97865,-0.11027,-0.16244,-0.55153,0.12028
0.1656,0.97779,-0.12841,-0.35857,-0.73934,0.0994
0.16681,0.97355,-0.1561,-0.348,0.37696,-0.19596
0.18235,0.96199,-0.20326,0.6332,1.72978,0.05899
0.19951,0.94791,-0.24829,0.49542,0.98092,-0.23047
0.21604,0.94146,-0.2588,0.24145,0.6163,-0.32443
0.23754,0.93379,-0.26758,0.24655,0.41495,-0.23705
0.26323,0.92273,-0.28154,0.11415,1.02705,-0.40066
0.27736,0.91528,-0.2921,0.03625,0.49935,-0.29367
0.28548,0.91296,-0.29155,-0.01727,0.14027,-0.23098
0.28891,0.91469,-0.28261,0.0621,-0.62669,0.06002
0.29249,0.91736,-0.26997,0.08812,-0.74296,0.08447
0.29239,0.92244,-0.25222,-0.11162,-0.59036,0.04137
0.28744,0.9287,-0.23428,-0.21571,-0.47269,0.10262
0.2824,0.93435,-0.21732,-0.26277,-0.48747,0.13464
0.27864,0.93959,-0.1988,-0.33931,-0.51221,-0.06778
0.27701,0.9447,-0.17548,-0.27404,-0.64793,-0.0322
0.27213,0.9504,-0.15062,-0.20975,-0.61684,0.058
0.26,0.957,-0.1286,-0.16574,-0.30429,-0.07814
0.24879,0.96223,-0.11045,-0.3336,-0.28821,0.19024
0.2532,0.96215,-0.10073,-0.36266,-0.47483,0.05635
0.26708,0.95891,-0.09563,-0.26924,-0.61714,-0.07972
0.27873,0.95619,-0.08949,-0.15727,-0.83294,-0.06131
0.28904,0.95325,-0.08811,0.041,-0.3001,0.29919
0.30004,0.94837,-0.10274,0.55982,0.63592,-0.25132
0.29921,0.9474,-0.1136,1.4943,1.67785,0.02918
0.2849,0.95398,-0.09356,-0.28322,-0.38284,-0.34536
0.2919,0.9517,-0.09519,-0.38562,0.0245,-0.34414
0.29632,0.94821,-0.11435,1.64342,2.57345,-0.2676
0.2875,0.95142,-0.11015,-0.08863,-0.26682,0.058
0.28919,0.95221,-0.09826,-0.40902,-0.46979,0.15377
0.2868,0.95428,-0.08415,-0.62025,-0.20063,0.15511
0.27174,0.96029,-0.0631,-0.11804,0.2535,-0.16325
0.25145,0.96662,-0.04909,0.29997,0.20576,-0.19676
0.23688,0.97057,-0.04325,0.46648,-0.4249,-0.10733
0.22696,0.97326,-0.03517,0.35031,-0.78631,-0.15321
0.21559,0.97622,-0.02246,0.27591,-0.81884,-0.18559
0.20106,0.97951,-0.0114,0.30733,-0.41701,-0.16142
0.18688,0.98233,-0.00992,0.38665,-0.17784,-0.11307
0.17248,0.9849,-0.01452,0.23906,-0.25751,-0.05189
0.15793,0.98715,-0.02394,0.11618,-0.57733,-0.12501
0.14467,0.98852,-0.04336,-0.04788,-0.94868,-0.00278
0.135,0.9884,-0.06956,0.01611,-0.80556,0.18064
0.13123,0.98603,-0.10253,0.01197,0.27477,0.25723
0.14251,0.97926,-0.14397,0.31511,1.47164,0.45381
0.15776,0.97219,-0.17308,0.41946,0.90269,0.1324
0.1651,0.96719,-0.19308,0.58115,0.73598,0.21295
0.17198,0.96196,-0.21222,0.4723,1.68859,0.05115
0.19013,0.95536,-0.22611,0.23275,1.82171,-0.2998
0.20947,0.94696,-0.24366,0.08627,0.59157,-0.46314
0.22465,0.93739,-0.26614,0.3622,0.00085,-0.08569
0.23925,0.93128,-0.27471,0.43301,-0.13996,0.11587
0.25266,0.929,-0.27038,0.23173,-0.53086,0.36677
0.25931,0.92981,-0.26114,-0.20409,-0.35614,0.34424
0.25523,0.93499,-0.24626,-0.31848,-0.25245,0.34829
0.24458,0.94166,-0.23118,-0.25578,-0.33716,0.24291
0.23365,0.94751,-0.21822,-0.21115,-0.52823,0.22212
0.22621,0.95221,-0.20522,-0.1373,-0.6048,0.15969
0.22133,0.95549,-0.19506,-0.21467,-0.49809,0.03659
0.21738,0.95768,-0.18864,-0.22854,-0.34339,-0.04854
0.21189,0.95991,-0.18348,-0.09975,-0.24566,-0.07616
0.20046,0.96367,-0.17648,0.04412,0.12723,-0.26915
0.18468,0.96805,-0.16962,0.28823,0.27237,-0.31654
0.17776,0.96977,-0.16713,0.27732,0.01201,-0.46068
0.18301,0.96769,-0.17342,0.16055,-0.01243,-0.29881
0.19484,0.96174,-0.19259,0.13306,0.41807,0.0442
0.21096,0.9542,-0.2121,0.34078,0.5008,0.23532
0.22509,0.95088,-0.2125,0.12652,0.82296,0.33601
0.22962,0.95105,-0.20683,0.38598,0.01923,-0.17099
0.22725,0.95232,-0.20354,0.34903,-0.58388,0.28634
0.22343,0.95161,-0.21096,0.45254,-0.47981,0.37202
0.22612,0.95192,-0.20665,0.27295,0.42978,0.46107
0.2209,0.95779,-0.18395,0.22612,0.7356,0.28337
0.20664,0.96655,-0.15189,-0.26148,0.55771,-0.04117
0.20774,0.96989,-0.12707,0.053,-0.19348,0.29885
0.2201,0.96886,-0.11342,0.02648,-0.22523,0.34374
0.23373,0.96739,-0.0976,-0.05892,-0.13163,0.19274
0.23624,0.96895,-0.07301,-0.03576,-0.08845,-0.05932
0.22994,0.9718,-0.05216,0.03343,-0.05426,-0.09284
0.22616,0.97327,-0.03976,0.01708,-0.191,-0.03126
0.22683,0.97351,-0.02865,-0.04642,-0.37001,0.02824
0.22693,0.97379,-0.01488,-0.00418,-0.44816,-0.00431
0.22515,0.97432,0.00197,0.08271,-0.39462,-0.06987
0.22386,0.97441,0.01996,0.18202,-0.21397,-0.09546
0.22364,0.97397,0.03698,0.15414,-0.15149,-0.0943
0.22064,0.97408,0.04979,0.02596,0.06939,-0.12805
0.21239,0.97549,0.05753,-0.0082,0.32833,-0.2311
0.20166,0.97742,0.06302,0.15632,0.29334,-0.25221
0.19238,0.9792,0.06447,0.50618,0.15221,-0.27932
0.18737,0.98028,0.0628,0.79585,0.06071,-0.0469
0.19007,0.97992,0.06014,0.7839,0.19871,0.04222
0.19867,0.97867,0.05228,0.27314,0.20255,0.19282
0.20806,0.97743,0.03658,0.11938,0.07265,0.28876
0.21585,0.97641,0.00385,0.1851,0.13835,0.24422
0.2201,0.97489,-0.03382,0.27004,0.4413,0.27843
0.224,0.97228,-0.06705,0.06446,0.34036,0.1156
0.23016,0.96823,-0.09771,0.02287,0.29152,-0.0014
0.23323,0.96429,-0.12545,0.01858,0.23706,0.01714
0.23654,0.95977,-0.15126,0.09049,0.11317,0.00343
0.23889,0.95493,-0.17617,0.14127,0.07145,-0.02138
0.23956,0.95088,-0.19602,0.04552,-0.14226,0.05684
0.23919,0.94811,-0.20944,0.00778,-0.31624,0.05998
0.23634,0.94663,-0.21915,-0.00705,-0.42615,0.0571
0.23164,0.94627,-0.22564,-0.0303,-0.40427,0.19569
0.22484,0.94691,-0.2298,-0.03621,-0.37217,0.19339
0.21789,0.94869,-0.22912,-0.10028,-0.28839,0.17861
0.21147,0.95103,-0.22544,-0.23871,-0.3603,0.11622
0.20589,0.95283,-0.22295,-0.23313,-0.36211,0.11373
0.20381,0.95344,-0.22228,-0.16277,-0.37345,0.02975
0.20475,0.95232,-0.22618,-0.07969,-0.21881,-0.09531
0.20683,0.95074,-0.23088,-0.04957,-0.2108,-0.08991
0.20263,0.95138,-0.23197,0.08521,0.1419,-0.07109
0.19262,0.9536,-0.2314,0.07903,0.19312,-0.20336
0.18692,0.95358,-0.2361,0.07805,0.06765,-0.18002
0.19095,0.94978,-0.24789,0.05279,0.27729,0.02332
0.20339,0.94254,-0.26504,0.14741,0.5439,0.1369
0.22061,0.93564,-0.27551,0.15695,0.31958,0.00659
0.23113,0.93358,-0.27385,0.12222,0.25051,0.25528
0.22542,0.93285,-0.281,0.33112,-0.02191,0.15783
0.21191,0.9341,-0.28729,0.48714,-0.29949,0.42517
0.20882,0.93577,-0.2841,0.43775,-0.18068,0.55409
0.21666,0.93881,-0.26774,0.11877,0.17154,0.36934
0.22083,0.94393,-0.24542,-0.23791,0.4196,0.11821
0.2179,0.9497,-0.22492,-0.2448,0.27366,0.11385
0.21745,0.95344,-0.20894,0.08716,0.08614,0.21892
0.22715,0.95366,-0.1973,0.19724,-0.16599,0.29044
0.24385,0.95239,-0.18299,0.03121,-0.33078,0.23467
0.25931,0.95219,-0.16153,-0.054,-0.39172,0.03961
0.26676,0.9535,-0.14023,0.03828,-0.31958,-0.03004
0.27053,0.95466,-0.12418,0.22955,-0.19578,0.07538
0.27713,0.95453,-0.10985,0.23491,-0.15744,0.0707
0.28414,0.95402,-0.09545,0.11097,-0.07692,0.01782
0.28601,0.95456,-0.08374,0.07018,-0.09929,0.01251
0.28245,0.95644,-0.07379,0.01861,-0.1532,-0.00395
0.27658,0.9587,-0.06631,-0.01979,0.04719,-0.19401
0.27114,0.96047,-0.06299,-0.04582,0.09028,-0.18637
0.26616,0.96215,-0.05843,-0.02147,0.04804,-0.10413
0.26213,0.96356,-0.05322,0.22416,0.0231,-0.01954
0.25921,0.96442,-0.05193,0.34652,0.11571,0.01012
0.25604,0.96526,-0.05206,0.32781,0.01589,0.00459
0.25513,0.96536,-0.0545,0.21629,-0.08429,0.06237
0.2566,0.96435,-0.06464,0.16641,0.0395,0.17125
0.25791,0.96233,-0.086,0.10885,0.0473,0.28572
0.25683,0.95986,-0.11269,0.02505,-0.07149,0.52274
0.25559,0.95468,-0.15248,-0.26499,0.2681,0.43326
0.26669,0.94526,-0.18801,-0.13517,0.61974,0.36649
0.28,0.93507,-0.21736,0.20835,0.6462,0.01702
0.28803,0.92705,-0.24,0.26052,0.5138,-0.09263
0.29126,0.92121,-0.25793,0.09512,0.29684,0.05399
0.29451,0.91489,-0.2761,0.1513,0.21745,0.00451
0.29841,0.90932,-0.28997,0.07775,0.18605,0.02273
0.30303,0.90436,-0.30048,-0.01377,0.01785,0.05056
0.30697,0.90104,-0.30641,-0.01266,-0.34982,0.06725
0.30714,0.90097,-0.30643,0.03984,-0.44997,0.16416
0.30381,0.90312,-0.30344,-0.02778,-0.48336,0.20516
0.29699,0.90708,-0.29831,-0.14678,-0.55285,0.17885
0.28819,0.91125,-0.29422,-0.33895,-0.41034,0.06678
0.28255,0.91468,-0.289,-0.29806,-0.3538,0.04918
0.28117,0.91604,-0.28602,-0.25412,-0.34208,0.07728
0.28369,0.91484,-0.28736,-0.16994,-0.34595,0.19483
0.28769,0.91353,-0.28756,-0.08803,-0.23663,0.1438
0.29002,0.91502,-0.28038,-0.02952,-0.17906,0.16628
0.29141,0.91794,-0.26918,-0.03366,-0.16987,0.00338
0.29653,0.91907,-0.25955,-0.11077,-0.26972,0.07949
0.30372,0.9185,-0.25321,-0.18057,-0.28742,0.13233
0.30891,0.91879,-0.24577,-0.23246,-0.11016,0.16205
0.30889,0.92171,-0.23458,-0.17274,0.20987,0.0523
0.30934,0.92431,-0.2235,-0.14849,0.32657,-0.02283
0.31835,0.92329,-0.21492,-0.06719,-0.05613,-0.1255
0.32963,0.92124,-0.20656,-0.2349,-0.4447,-0.03783
0.33799,0.92013,-0.19779,-0.2218,-0.62647,0.10466
0.34017,0.92112,-0.18927,-0.18703,-0.71859,0.06166
0.33863,0.92166,-0.18938,0.05079,-0.21686,0.18288
0.33995,0.91974,-0.19622,0.67028,0.81067,0.34797
0.34993,0.91563,-0.19791,1.0522,1.10758,0.30102
0.35937,0.91484,-0.18415,-0.1769,0.74001,-0.22934
0.35947,0.91191,-0.19795,0.05901,0.85652,-0.41081
0.36153,0.91025,-0.20183,0.20326,0.09047,-0.58952
0.35969,0.90976,-0.20724,0.31623,-0.53188,-0.16937
0.36001,0.90934,-0.20854,0.57962,-0.39361,0.00135
0.35836,0.9126,-0.19678,0.34473,0.16114,0.02783
0.34551,0.91982,-0.18587,0.01641,0.80119,0.12168
0.33857,0.92427,-0.1763,-0.22605,-0.08745,-0.0015
0.33737,0.92525,-0.17344,-0.06639,-0.46674,-0.00539
0.33629,0.9256,-0.17369,-0.0572,-0.53433,0.06874
0.33245,0.92696,-0.17378,-0.00566,-0.36498,-0.00555
0.32388,0.92945,-0.1767,0.09331,-0.28836,-0.03379
0.315,0.93161,-0.1813,0.16695,-0.29579,0.01639
0.30953,0.93253,-0.18592,0.057,-0.25809,0.24721
0.30615,0.93222,-0.19293,-0.21256,-0.33707,0.27418
0.3002,0.93163,-0.2048,-0.2794,-0.39676,0.39289
0.2909,0.93095,-0.22071,-0.33684,-0.49706,0.35859
0.28211,0.92892,-0.23982,-0.39114,-0.09927,0.32198
0.27979,0.92184,-0.26817,-0.22253,1.00841,-0.01903
0.2915,0.90588,-0.30724,0.2583,1.40158,0.09409
0.30467,0.89311,-0.33094,0.1496,0.84993,-0.14481
0.30743,0.88827,-0.34124,0.28765,0.15215,-0.13451
0.31467,0.88311,-0.34799,0.16407,0.55766,-0.14907
0.32995,0.87586,-0.35212,-0.02117,0.67927,-0.12712
0.35238,0.86646,-0.35365,-0.25162,0.39138,-0.14576
0.36787,0.86276,-0.34687,-0.24024,-0.54025,0.07995
0.37195,0.86644,-0.33307,-0.16934,-0.72458,0.12381
0.36748,0.87567,-0.31328,0.09591,-0.83864,0.06236
0.35948,0.88756,-0.2881,-0.00916,-0.59126,-0.09694
0.35317,0.89692,-0.26609,-0.0465,-0.60796,-0.19836
0.34641,0.90379,-0.2513,-0.19409,-0.2084,-0.0733
0.34255,0.90856,-0.23907,-0.25714,-0.07039,-0.0975
0.34054,0.9122,-0.22786,-0.28369,0.25863,-0.04824
0.33147,0.91815,-0.21704,-0.23235,0.59239,0.10051
0.31667,0.92541,-0.20816,-0.23787,0.59208,0.11676
0.31857,0.92705,-0.19767,-0.22946,-0.51102,0.08589
0.32418,0.92813,-0.18295,-0.25537,-0.6829,0.10765
0.33396,0.92792,-0.16562,-0.30779,-0.685,0.13805
0.33996,0.92685,-0.15927,-0.18391,-0.28952,0.12261
0.3362,0.9257,-0.17331,0.36802,0.78118,0.26422
0.32749,0.92481,-0.19356,1.04971,1.25933,0.34503
0.324,0.92778,-0.18502,0.09127,0.473,-0.23046
0.33243,0.92684,-0.17453,0.30313,1.93767,0.12518
0.3344,0.92227,-0.19385,0.29135,0.55878,-0.4658
0.32756,0.92451,-0.19486,0.19865,-0.5448,-0.12299
0.33137,0.9223,-0.19884,0.36197,-0.1602,0.16834
0.34657,0.91827,-0.19146,0.1432,-0.16128,0.16726
0.3535,0.91974,-0.17059,-0.1331,0.52003,0.26396
0.34379,0.92688,-0.15068,-0.35154,0.14147,0.18301
0.33994,0.93036,-0.13735,-0.02193,-0.3244,0.10633
0.3362,0.93304,-0.12803,-0.14698,-0.37953,-0.0236
0.33165,0.93578,-0.11962,-0.13417,-0.35108,-0.03465
0.32509,0.93769,-0.12265,0.01114,-0.49529,0.07155
0.31222,0.94058,-0.13349,0.07461,-0.50447,0.06468
0.29474,0.94496,-0.14199,0.1645,-0.40416,-0.16444
0.27868,0.94838,-0.15134,0.29057,-0.31859,-0.23291
0.26733,0.9496,-0.16366,0.23868,-0.45529,-0.06483
0.26106,0.94866,-0.17855,0.06502,-0.60853,0.17119
0.25653,0.94761,-0.1903,-0.11779,-0.41325,0.42271
0.25259,0.94636,-0.20148,-0.17492,-0.36295,0.33549
0.25128,0.94309,-0.21779,-0.34958,-0.1489,0.1932
0.25551,0.93297,-0.25352,-0.50738,0.57835,-0.18583
0.27115,0.91231,-0.30685,-0.01831,1.61512,0.17222
0.29373,0.88839,-0.35282,0.50249,1.20512,-0.32298
0.29753,0.88063,-0.36872,0.10216,0.1114,-0.32725
0.29303,0.88106,-0.3713,0.10207,0.4227,-0.21053
0.30996,0.87459,-0.37284,0.35867,0.93837,-0.13771
0.33098,0.86765,-0.37098,0.08626,0.40992,-0.23832
0.34318,0.8666,-0.36225,-0.02769,-0.14956,-0.30181
0.34822,0.86942,-0.35048,-0.03653,-0.20064,-0.05559
0.34676,0.8739,-0.34064,-0.07139,-0.36437,0.13279
0.3419,0.88007,-0.32951,-0.11525,-0.48244,0.20516
0.33483,0.88838,-0.31412,-0.14872,-0.66866,0.2747
0.32547,0.898,-0.29608,-0.22111,-0.87451,0.22199
0.31275,0.90995,-0.27235,-0.26514,-0.85732,0.1861
0.30021,0.92234,-0.2432,-0.44056,-0.43366,0.07297
0.29106,0.9315,-0.21816,-0.37422,-0.00907,0.07958
0.28502,0.93721,-0.20099,-0.25786,0.34046,-0.17085
0.28359,0.93941,-0.19255,-0.2387,0.37239,-0.02865
0.28792,0.93803,-0.19283,-0.29323,0.2498,0.12712
0.29467,0.93615,-0.1918,-0.31683,-0.17563,0.30404
0.30462,0.93499,-0.18161,-0.18482,-0.63487,0.07543
0.31533,0.93343,-0.17106,-0.15578,-0.76934,0.10677
0.32192,0.93105,-0.17175,0.06485,-0.26302,0.20529
0.3236,0.92866,-0.18126,0.54664,0.9944,-0.09433
0.32203,0.92574,-0.19822,0.99765,1.50843,-0.07204
0.32082,0.92704,-0.19408,-0.03259,0.34217,-0.34662
0.33232,0.92487,-0.18483,0.18959,0.72428,0.07445
0.3465,0.91625,-0.20105,0.68788,0.82002,-0.03119
0.35296,0.91481,-0.19629,0.30757,0.22116,-0.33322
0.35279,0.91504,-0.19551,-0.0384,-0.37099,0.11799
0.35793,0.91319,-0.19483,0.15285,-0.12638,0.24977
0.36191,0.91488,-0.17889,0.16051,0.03988,0.11761
0.35553,0.91994,-0.16519,-0.11394,0.45318,-0.03096
0.34331,0.92466,-0.16469,0.12661,-0.06866,-0.01466
0.33443,0.92727,-0.16828,0.15226,-0.29024,-0.03212
0.32873,0.92922,-0.16874,-0.04143,-0.62363,0.09075
0.32274,0.93064,-0.17246,-0.0298,-0.40699,0.05414
0.31311,0.93114,-0.1869,-0.02017,-0.40749,0.06859
0.30069,0.93163,-0.20404,-0.12628,-0.37925,0.32307
0.28864,0.93165,-0.22066,-0.36186,-0.56064,0.36822
0.27904,0.93041,-0.23761,-0.44957,-0.72781,0.26738
0.27237,0.92854,-0.25221,-0.20891,-0.25955,0.09168
0.26815,0.92295,-0.27614,0.11599,0.80217,-0.07508
0.27284,0.90922,-0.31444,0.7365,1.58499,0.19102
0.29033,0.89668,-0.33416,0.20139,0.91629,0.08999
0.30075,0.88996,-0.3428,-0.09569,0.40863,-0.12532
0.30437,0.88458,-0.35336,-0.01633,0.66179,-0.2634
0.31073,0.87997,-0.35928,-0.25344,0.38141,-0.18902
0.32362,0.87503,-0.35997,-0.3533,-0.29959,-0.15488
0.34138,0.86765,-0.36144,-0.08812,-0.48607,-0.06267
0.34994,0.86477,-0.36015,0.41139,-0.22024,0.11692
0.34194,0.87204,-0.35016,0.23959,-0.01595,0.03557
0.33056,0.8849,-0.32814,0.02936,0.18017,-0.08946
0.32492,0.89713,-0.2993,-0.37158,-0.10765,-0.1209
0.32267,0.90551,-0.27554,-0.34378,-0.44784,-0.12111
0.32065,0.91091,-0.25965,-0.3076,-0.55011,-0.09258
0.32014,0.91418,-0.24854,-0.26767,-0.6045,-0.00842
0.32157,0.91628,-0.23877,-0.16479,-0.29473,0.08481
0.32238,0.91893,-0.22724,-0.15621,-0.06376,-0.04247
0.32429,0.92094,-0.21608,-0.13934,-0.71353,-0.04082
0.33199,0.91987,-0.20882,-0.19949,-0.91253,0.14473
0.33937,0.91896,-0.20083,-0.25627,-0.94015,0.51443
0.34536,0.91738,-0.1978,0.06196,0.50759,0.47261
0.35111,0.9134,-0.20595,1.00686,2.57479,-0.27121
0.34676,0.91441,-0.20881,0.93359,1.58704,-0.55637
0.35106,0.91356,-0.2053,0.11789,0.11161,0.10934
0.36285,0.90984,-0.20131,0.44353,1.10368,-0.13417
0.36062,0.90895,-0.20917,0.74658,1.97252,0.10594
0.34374,0.91685,-0.203,0.02465,-0.17752,-0.08967
0.34164,0.92024,-0.19089,-0.21528,-0.38281,-0.11745
0.35143,0.9168,-0.1896,0.02012,0.20571,-0.15459
0.35108,0.91762,-0.1863,0.02408,-0.1314,0.03333
0.33828,0.92213,-0.18767,-0.01149,-0.29094,0.19358
0.32405,0.92625,-0.19248,-0.00206,-0.43671,0.23874
0.3109,0.93145,-0.18901,0.0742,-0.67955,-0.01677
0.30056,0.93561,-0.18516,0.03056,-0.79892,-0.04295
0.29418,0.93767,-0.18502,-0.06212,-0.8453,0.06249
0.28694,0.93822,-0.19337,-0.12689,-0.66138,0.22508
0.27685,0.93799,-0.20862,-0.07521,-0.57738,0.29305
0.26387,0.9388,-0.22141,-0.02894,-0.405,0.32363
0.2536,0.93754,-0.2381,-0.22505,-0.542,0.24202
0.24932,0.93212,-0.26264,-0.41443,-0.39912,0.16326
0.25274,0.92277,-0.29087,-0.26522,0.581,0.05012
0.26544,0.90415,-0.33474,0.49937,1.91974,0.04134
0.28477,0.88393,-0.37089,0.84551,1.55912,-0.28168
0.29332,0.87641,-0.38191,0.27376,0.88717,-0.21369
0.30881,0.86681,-0.39149,0.1985,1.06898,-0.35951
0.32512,0.85541,-0.4032,-0.10016,1.10385,-0.36969
0.3324,0.85103,-0.40651,-0.07225,0.23932,-0.18272
0.33667,0.85123,-0.40256,0.15105,-0.721,-0.05366
0.33821,0.85528,-0.39254,0.16539,-0.80025,0.08296
0.33557,0.86291,-0.37786,0.02196,-0.60786,0.18076
0.3272,0.87301,-0.36163,-0.20136,-0.2772,0.17632
0.31721,0.88456,-0.34194,-0.26863,-0.25469,0.16687
0.30257,0.89781,-0.31996,-0.32094,-0.2108,0.14731
0.28768,0.91034,-0.2975,-0.31297,-0.36194,0.10292
0.27928,0.91932,-0.2772,-0.26382,-0.63015,0.15933
0.28054,0.92424,-0.25898,-0.27447,-0.70413,0.17542
0.28733,0.92629,-0.24377,-0.22701,-0.39522,0.11008
0.28897,0.92869,-0.23244,-0.18252,0.16604,-0.04875
0.28689,0.93206,-0.22124,-0.24545,-0.22056,-0.03824
0.29672,0.93177,-0.20916,-0.23527,-0.7934,0.08076
0.31239,0.92954,-0.19584,-0.33546,-0.72181,0.37077
0.3201,0.92875,-0.18692,-0.15668,-0.1064,0.1938
0.31312,0.92879,-0.19822,1.11645,2.49205,0.46417
0.29481,0.9305,-0.21735,1.27318,1.44618,-0.2999
0.29242,0.93231,-0.2128,0.70386,0.2605,-0.68472
0.31146,0.92668,-0.21036,0.50888,0.16456,-0.26816
0.32299,0.92097,-0.2179,0.74912,0.61591,-0.19286
0.32316,0.92021,-0.22085,0.62062,1.34821,-0.09571
0.3166,0.92494,-0.21032,0.03603,0.22603,-0.01342
0.31508,0.92856,-0.19621,0.01728,0.05617,0.0746
0.31414,0.93306,-0.1752,0.00801,-0.04912,0.15809
0.30742,0.9399,-0.14853,-0.26185,0.0946,0.11734
0.29678,0.94648,-0.12681,-0.31108,-0.00419,0.13251
0.28824,0.95136,-0.10867,-0.02865,-0.24583,0.10591
0.27767,0.95637,-0.0908,0.15321,-0.52316,-0.03815
0.26354,0.96149,-0.07788,0.1565,-0.5923,-0.05509
0.24476,0.96703,-0.07025,0.24142,-0.63575,-0.04465
0.22554,0.97244,-0.05902,0.29082,-0.61486,-0.09613
0.20891,0.97675,-0.04788,0.46191,-0.28741,-0.13603
0.19439,0.98008,-0.04059,0.54685,-0.05071,-0.18043
0.18072,0.98274,-0.0393,0.46659,-0.19099,-0.23491
0.16717,0.98494,-0.04394,0.47785,-0.41526,-0.14956
0.15391,0.98681,-0.05003,0.24375,-0.54781,0.03495
0.14304,0.98802,-0.05778,-0.0952,-0.47208,0.35488
0.1347,0.98822,-0.0725,-0.18437,0.1517,0.50191
0.13093,0.98567,-0.10631,-0.25845,0.67691,0.4036
0.14228,0.9786,-0.14864,0.04662,0.99254,0.47548
0.16545,0.9676,-0.19069,0.5325,0.76673,0.14992
0.18572,0.95595,-0.22729,0.45153,0.99527,0.1327
0.1939,0.9493,-0.24743,0.25499,1.35607,0.03954
0.20117,0.9447,-0.25895,0.12341,0.99267,-0.19766
0.20902,0.93793,-0.27675,0.21974,0.34833,-0.18984
0.22298,0.92888,-0.29571,0.10521,-0.05843,0.04866
0.24236,0.9202,-0.30739,-0.03407,-0.32292,0.26746
0.2622,0.91281,-0.31308,0.03506,-0.36091,0.27712
0.26776,0.90947,-0.31804,0.21013,-0.4159,0.2739
0.25232,0.91591,-0.31213,0.18758,-0.4123,0.38925
0.23047,0.92631,-0.29802,-0.19138,-0.33159,0.41137
0.2157,0.9334,-0.28674,-0.41012,-0.30892,0.34989
0.20509,0.93789,-0.2798,-0.27606,-0.45921,0.04139
0.19415,0.94232,-0.27263,-0.19498,-0.50096,0.00443
0.1818,0.94833,-0.26001,-0.07282,-0.49374,0.04648
0.17142,0.95354,-0.24771,0.06148,-0.43613,0.07537
0.16324,0.95639,-0.24219,0.2399,0.33075,-0.1336
0.15365,0.95856,-0.23988,0.4007,0.85714,-0.17515
0.14553,0.95956,-0.24095,0.31664,0.22187,-0.47963
0.14669,0.95948,-0.24055,0.18449,-0.09753,-0.34419
0.15611,0.95688,-0.24495,0.33745,0.16777,-0.00666
0.16522,0.94991,-0.26525,0.4454,0.36157,-0.00611
0.17279,0.94668,-0.27191,0.34408,0.22556,0.26123
0.17633,0.94761,-0.26631,-0.03082,0.47693,0.23344
0.17099,0.94952,-0.26297,0.41075,0.1542,0.18695
0.15674,0.95265,-0.26055,0.59478,-0.12904,0.3807
0.144,0.95435,-0.26168,0.54642,-0.26309,0.59101
0.14216,0.95783,-0.24967,0.16879,-0.02525,0.42273
0.13842,0.96465,-0.22421,-0.06382,0.11733,0.1787
0.13161,0.97086,-0.20022,-0.2986,0.18483,0.07929
0.12895,0.97423,-0.18501,-0.0052,-0.0683,0.21152
0.13694,0.97464,-0.17696,0.15373,-0.15924,0.28196
0.1515,0.97422,-0.16711,0.2562,-0.13024,0.26405
0.16377,0.9757,-0.14548,-0.00108,-0.20642,0.07901
0.16743,0.97861,-0.11949,-0.10319,-0.23805,0.0006
0.16295,0.9816,-0.09941,-0.10268,-0.11875,-0.00688
0.15861,0.98347,-0.08728,0.03997,-0.13311,0.0137
0.15879,0.98405,-0.08013,0.08724,-0.19019,0.02899
0.15912,0.98476,-0.07015,0.2484,-0.24188,0.01639
0.15511,0.98642,-0.05379,0.37068,-0.17168,-0.00497
0.14797,0.98843,-0.03297,0.41645,-0.01585,-0.00748
0.13902,0.99014,-0.01675,0.25785,0.11608,-0.0851
0.12978,0.99151,-0.00691,0.07555,0.15858,-0.17161
0.12039,0.99272,-0.00065,0.23539,0.20578,-0.15287
0.11232,0.99366,0.00076,0.61939,0.13329,-0.2254
0.10629,0.99433,-0.001,0.7516,0.03019,-0.23132
0.10292,0.99468,-0.00305,0.71969,0.04814,-0.11273
0.10283,0.99467,-0.00582,0.6277,0.12373,0.04208
0.10499,0.99439,-0.01209,0.27143,-0.08559,0.12836
0.10746,0.99401,-0.01923,0.06286,-0.28555,0.37734
0.11112,0.99333,-0.03051,0.30943,-0.27212,0.45949
0.11741,0.99179,-0.05047,0.54926,0.30253,0.40804
0.12789,0.98903,-0.07386,0.32915,0.63021,0.39695
0.14375,0.98502,-0.09521,-0.12769,0.65189,0.15776
0.15705,0.98046,-0.1184,-0.34861,0.54745,-0.02021
0.16516,0.97504,-0.14833,-0.06693,0.18653,0.05026
0.172,0.96916,-0.17643,0.18751,-0.10541,0.10166
0.17345,0.96579,-0.19273,0.36618,-0.29407,-0.0401
0.16954,0.96429,-0.20345,0.31989,-0.27187,-0.01732
0.1626,0.96294,-0.21515,0.19183,-0.16616,-0.05118
0.15601,0.96227,-0.22291,0.08862,-0.13306,0.15613
0.15169,0.96189,-0.22748,0.05038,-0.33457,0.2674
0.14804,0.96226,-0.22831,-0.07129,-0.41703,0.33267
0.14276,0.9637,-0.2256,-0.16391,-0.38786,0.31183
0.13783,0.96559,-0.22052,-0.29789,-0.18959,0.23323
0.13619,0.96714,-0.21466,-0.23734,-0.19137,0.08983
0.13886,0.96792,-0.20936,-0.1498,-0.20546,0.05275
0.14349,0.96802,-0.20575,-0.00842,-0.18227,-0.04811
0.14723,0.96815,-0.20247,0.33666,0.02321,-0.21595
0.14622,0.96954,-0.19648,0.37206,0.09904,-0.27605
0.14221,0.97141,-0.19008,0.24394,0.05047,-0.26576
0.14419,0.97165,-0.18732,0.2046,-0.17731,-0.22291
0.15219,0.97016,-0.1887,0.13315,0.00907,-0.17251
0.16255,0.96712,-0.19556,0.24561,0.5095,-0.07911
0.1741,0.96226,-0.20914,0.15661,0.30088,0.12378
0.18858,0.95811,-0.21554,-0.06328,0.38233,0.21276
0.20595,0.95324,-0.22117,-0.11714,0.54336,0.14088
0.21512,0.95164,-0.2193,0.34588,-0.33174,0.25048
0.21239,0.95282,-0.21683,0.38275,-0.56511,0.39165
0.21068,0.95347,-0.21562,0.30879,-0.3995,0.41096
0.21335,0.95532,-0.20451,0.05098,0.22507,0.25308
0.20887,0.96025,-0.18516,-0.01736,0.48911,0.11886
0.20239,0.96543,-0.16422,-0.11253,0.45922,0.01028
0.20984,0.9662,-0.14971,0.10646,-0.1111,0.32879
0.22378,0.96471,-0.13869,0.0037,-0.15687,0.32445
0.23456,0.96478,-0.11906,-0.13571,-0.19257,0.11366
0.23718,0.96654,-0.09768,-0.14103,-0.10725,0.03687
0.23451,0.96856,-0.08291,0.01337,-0.01471,0.01246
0.23382,0.96961,-0.07192,0.12519,-0.13572,0.00658
0.23759,0.96934,-0.06251,0.14179,-0.29649,0.07465
0.24258,0.96867,-0.05306,0.1481,-0.29753,0.01735
0.24587,0.96842,-0.04108,0.09741,-0.14292,-0.07546
0.24734,0.96845,-0.03009,0.0491,-0.02644,-0.2177
0.24787,0.96846,-0.02515,0.09978,-0.04841,-0.2096
0.24683,0.96882,-0.02109,0.19244,-0.11508,-0.10246
0.24423,0.96958,-0.01579,0.24132,-0.04923,-0.0351
0.23995,0.9707,-0.01188,0.20159,0.10103,-0.03808
0.23696,0.97143,-0.01244,0.16472,0.20327,-0.11225
0.23635,0.97148,-0.01864,0.19151,0.16453,-0.08329
0.23542,0.97145,-0.02928,0.30657,0.10976,0.03462
0.23233,0.97176,-0.04108,0.24382,-0.00713,0.07653
0.22922,0.97155,-0.05955,0.03578,-0.14423,0.2593
0.228,0.97003,-0.08392,-0.29839,-0.02632,0.28974
0.22975,0.9663,-0.11609,-0.34613,0.08354,0.19139
0.23765,0.9601,-0.14741,0.31831,0.4675,-0.00094
0.24777,0.95272,-0.17587,0.49766,0.44699,-0.1653
0.25785,0.94603,-0.1963,0.5453,0.34687,-0.23403
0.26073,0.94252,-0.20895,0.2126,-0.02234,-0.079
0.26647,0.93737,-0.22431,0.10292,0.00382,-0.07449
0.27601,0.93004,-0.24255,-0.08021,0.10237,-0.06116
0.28055,0.92436,-0.25854,-0.06872,0.04409,-0.00248
0.27771,0.92216,-0.26922,-0.01392,0.0007,0.05553
0.27304,0.92199,-0.27456,0.04189,-0.31543,0.10131
0.26922,0.92214,-0.27779,0.00574,-0.39838,0.15979
0.26588,0.92268,-0.27922,-0.04554,-0.40806,0.17919
0.26157,0.92397,-0.279,-0.25204,-0.24722,0.13672
0.25806,0.92607,-0.27528,-0.22417,-0.18003,0.13171
0.25568,0.92871,-0.26853,-0.12879,-0.14272,0.0858
0.2554,0.93093,-0.261,-0.05592,-0.11904,0.03963
0.25666,0.93249,-0.2541,0.00295,-0.18417,-0.0065
0.25612,0.93415,-0.2485,-0.03099,-0.2124,-0.00891
0.25521,0.93648,-0.24056,-0.08586,-0.23099,0.03829
0.25494,0.93963,-0.22823,-0.10942,-0.21171,0.03028
0.25381,0.94302,-0.21512,-0.10847,-0.26137,0.06484
0.25433,0.94555,-0.20308,-0.07031,-0.39019,0.02999
0.25672,0.94734,-0.19137,-0.03103,-0.42958,-0.03078
0.25954,0.9487,-0.18056,-0.00862,-0.3757,-0.04872
0.26439,0.9491,-0.17113,0.04206,-0.13276,-0.00722
0.2756,0.94777,-0.16051,-0.02073,-0.12349,0.00829
0.29058,0.94529,-0.14822,-0.08721,-0.0379,-0.16035
0.30247,0.94339,-0.13605,-0.10984,-0.01517,-0.1788
0.30776,0.94325,-0.12468,-0.09818,0.00128,-0.16711
0.3104,0.94364,-0.11484,-0.06315,-0.14095,-0.17204
0.31736,0.94231,-0.1064,-0.15137,-0.35556,-0.12217
0.32734,0.93985,-0.0975,-0.21034,-0.41408,-0.02219
0.33298,0.93846,-0.09165,0.07643,0.16842,0.25972
0.33111,0.93875,-0.09543,0.32244,0.45656,0.20801
0.32549,0.94019,-0.10041,0.53802,0.67681,0.29484
0.31901,0.94261,-0.09851,0.30846,0.75127,-0.05112
0.32003,0.94329,-0.08812,-0.25633,0.44532,-0.11844
0.32177,0.94099,-0.10483,-0.16578,0.95487,-0.06515
0.31,0.94284,-0.12225,0.66757,0.65561,-0.42126
0.30228,0.94495,-0.12521,0.3332,-0.32888,-0.14395
0.30958,0.94191,-0.13018,0.13356,-0.5896,0.13604
0.32154,0.93898,-0.12212,-0.09805,-0.35869,0.23269
0.32746,0.93948,-0.10069,-0.16793,0.07064,0.19194
0.3239,0.94307,-0.07545,-0.24716,0.39738,0.03127
0.32336,0.94465,-0.05538,-0.04428,-0.07871,0.0346
0.3248,0.94483,-0.04225,-0.08491,-0.22988,-0.01848
0.32347,0.94566,-0.03297,0.01237,-0.29163,-0.09018
0.31813,0.94766,-0.02685,0.01772,-0.29364,-0.0963
0.31244,0.94962,-0.02426,0.1211,-0.22165,-0.15367
0.30719,0.95128,-0.02608,0.17272,-0.22312,-0.23019
0.30133,0.95291,-0.03401,0.17461,-0.27659,-0.2483
0.29629,0.95404,-0.04471,0.15175,-0.4234,-0.20552
0.29245,0.95481,-0.05297,0.09499,-0.49297,-0.06657
0.28826,0.95574,-0.05875,0.154,-0.39776,-0.04577
0.27869,0.95815,-0.0654,0.24021,-0.14833,-0.18267
0.2652,0.96121,-0.07569,0.30087,0.05244,-0.17971
0.25174,0.9636,-0.08991,0.16325,-0.10775,-0.08367
0.24257,0.96449,-0.10444,-0.01721,-0.35188,-0.00262
0.23626,0.96431,-0.11946,-0.04439,-0.51888,0.09816
0.23322,0.96304,-0.13476,-0.1749,-0.50421,0.20846
0.23389,0.95991,-0.15446,-0.40053,0.19005,0.09681
0.24058,0.95227,-0.18786,-0.15659,1.23398,0.08999
0.25004,0.94019,-0.23134,0.30915,1.06835,0.04169
0.25789,0.93035,-0.26066,0.13987,0.6649,-0.19076
0.26553,0.92477,-0.27256,0.10419,0.08234,-0.04374
0.28307,0.9159,-0.28461,0.00507,0.54475,-0.31518
0.30171,0.90602,-0.29681,-0.01218,0.83962,-0.33408
0.31625,0.89885,-0.30339,-0.08239,0.17248,-0.28799
0.32677,0.89594,-0.30082,0.04264,-0.3841,-0.1052
0.33346,0.89638,-0.29206,0.07301,-0.69545,0.03692
0.33652,0.89984,-0.27756,0.07576,-0.62092,0.12178
0.33331,0.9063,-0.25985,-0.19846,-0.29935,0.02522
0.32872,0.91304,-0.24144,-0.32626,-0.26376,-0.07786
0.32271,0.9194,-0.22485,-0.33579,-0.2588,-0.01157
0.31692,0.92517,-0.20886,-0.24518,-0.49656,0.0093
0.31232,0.9301,-0.19328,-0.20793,-0.54749,0.03022
0.31017,0.93387,-0.17798,-0.18691,-0.41728,0.02719
0.30577,0.93807,-0.16286,-0.18991,-0.05079,-0.1157
0.29569,0.944,-0.14636,-0.03173,0.49683,-0.1568
0.28951,0.94759,-0.13507,-0.15111,0.55474,-0.04954
0.29512,0.94682,-0.12814,-0.17,-0.71445,-0.02005
0.30355,0.9455,-0.11776,-0.17301,-0.9595,-0.10349
0.31649,0.94381,-0.09506,-0.20915,-1.11637,-0.09332
0.32647,0.9418,-0.08018,-0.21982,-0.52694,-0.04018
0.33271,0.93845,-0.09271,0.2253,0.18507,0.20941
0.33101,0.93572,-0.12184,1.25061,2.24483,-0.21797
0.32275,0.93947,-0.11494,0.49996,1.17223,-0.27603
0.32705,0.93832,-0.11215,-0.19779,0.40236,-0.05894
0.33392,0.93412,-0.12613,0.93291,0.63047,-0.22018
0.32401,0.93745,-0.12722,0.32967,0.00137,-0.10691
0.31547,0.94058,-0.12565,0.22627,-0.27464,0.30031
0.31899,0.94067,-0.11562,-0.15236,-0.12822,0.1328
0.32525,0.94016,-0.10145,-0.21568,0.23185,0.00925
0.32134,0.94204,-0.09636,-0.12633,-0.00102,-0.10117
0.31203,0.94527,-0.09535,-0.001,-0.1604,-0.05985
0.30583,0.94689,-0.09927,0.03951,-0.44894,-0.1516
0.30255,0.94757,-0.10275,0.14273,-0.57509,-0.11023
0.2991,0.94834,-0.10574,0.22327,-0.43111,-0.1706
0.29384,0.94905,-0.11376,0.22644,-0.29165,-0.0358
0.28578,0.94954,-0.12918,0.07833,-0.3517,0.20678
0.27504,0.95031,-0.14576,-0.1584,-0.53529,0.30384
0.26482,0.95062,-0.16184,-0.19064,-0.59411,0.27693
0.26207,0.9476,-0.18266,-0.33941,-0.45366,0.21404
0.26672,0.93913,-0.21652,-0.41361,0.69806,-0.28672
0.27932,0.92405,-0.26095,-0.02342,1.4746,0.01163
0.28758,0.91341,-0.28806,0.61069,1.18315,-0.10235
0.2896,0.9114,-0.29236,0.15965,0.12924,-0.27337
0.29594,0.90917,-0.29296,0.20161,0.29906,-0.22357
0.31047,0.90266,-0.29801,0.10689,0.69946,-0.30779
0.32432,0.89767,-0.29833,-0.31412,0.4269,-0.19081
0.33476,0.89585,-0.29219,-0.29742,-0.25517,-0.20402
0.34075,0.89779,-0.27903,-0.05651,-0.68156,-0.02877
0.34151,0.90271,-0.26167,0.04509,-0.62177,0.048
0.33838,0.90963,-0.24095,0.01259,-0.52127,-0.11555
0.33095,0.9182,-0.21763,-0.06639,-0.48163,-0.19154
0.31897,0.92772,-0.19385,-0.1987,-0.34365,-0.07032
0.30927,0.93518,-0.17255,-0.24494,-0.17656,0.09328
0.30822,0.93874,-0.15412,-0.2451,-0.07499,0.1226
0.31376,0.93985,-0.13497,-0.2164,0.15409,0.01286
0.31722,0.94127,-0.11563,-0.24944,0.36028,-0.18831
0.32089,0.94173,-0.10079,-0.12006,-0.05079,-0.16929
0.32804,0.93983,-0.09537,-0.23481,-0.51284,0.06386
0.33511,0.93745,-0.09422,-0.16176,-0.68383,-0.02504
0.34164,0.9352,-0.09314,-0.07394,-0.45264,0.15628
0.34658,0.93243,-0.10223,0.29728,0.07543,0.12597
0.3553,0.92713,-0.1191,1.07689,1.22677,-0.1501
0.35961,0.92473,-0.1247,0.60716,1.1303,0.04468
0.35454,0.92819,-0.11294,-0.26123,1.3906,-0.14118
0.34531,0.93018,-0.12458,-0.02598,0.96415,-0.16265
0.3409,0.93024,-0.13574,0.3164,-0.08484,-0.32459
0.33783,0.92944,-0.14833,0.53508,-0.12254,0.06221
0.33922,0.92912,-0.14713,0.38918,-0.29283,0.26967
0.34499,0.93001,-0.12666,0.08138,-0.22107,0.24426
0.3434,0.9333,-0.10493,-0.37838,0.22606,0.01477
0.33664,0.93705,-0.09276,-0.14986,-0.07227,-0.03762
0.32928,0.94012,-0.08794,-0.00732,-0.32768,-0.11384
0.32499,0.9416,-0.08813,-0.01389,-0.5543,-0.06579
0.32088,0.94273,-0.09103,-0.06961,-0.63026,-0.01958
0.31551,0.94434,-0.09308,-0.04843,-0.56202,-0.08147
0.3077,0.94676,-0.09462,0.1214,-0.34259,-0.04515
0.298,0.94973,-0.09584,0.24077,-0.12065,-0.07831
0.28749,0.95259,-0.09952,0.16776,-0.1033,-0.08376
0.27782,0.95454,-0.10793,0.01903,-0.35393,0.02045
0.26885,0.95541,-0.12207,-0.01933,-0.46923,0.07541
0.26121,0.95527,-0.1386,-0.02177,-0.53997,0.18335
0.2574,0.95355,-0.15645,-0.15984,-0.45161,0.28351
0.25713,0.94916,-0.18156,-0.24969,-0.13739,0.11051
0.26473,0.93855,-0.22143,-0.23348,0.99495,-0.26021
0.28186,0.92184,-0.26599,0.34784,1.21225,-0.27669
0.29637,0.9111,-0.28644,0.25239,0.89543,-0.40915
0.30237,0.90653,-0.29456,0.25656,0.126,-0.34572
0.31901,0.8967,-0.30684,0.00363,0.97343,-0.5138
0.34334,0.88331,-0.31917,0.07062,0.96398,-0.23496
0.36064,0.87338,-0.32731,-0.01884,-0.14444,-0.15757
0.36274,0.87283,-0.32647,0.05814,-0.51949,0.08979
0.35647,0.87913,-0.3163,0.05996,-0.64287,0.16246
0.34593,0.89002,-0.29696,-0.21226,-0.47825,0.19443
0.33636,0.90037,-0.27602,-0.37064,-0.35923,0.09047
0.32871,0.90863,-0.25753,-0.41611,-0.40998,0.08872
0.32134,0.91559,-0.2417,-0.42106,-0.41989,0.14299
0.31482,0.92163,-0.22686,-0.38109,-0.48743,0.06011
0.31179,0.92678,-0.20942,-0.29226,-0.49384,-0.05341
0.31075,0.93091,-0.19191,-0.19098,-0.36731,-0.01103
0.31082,0.93379,-0.17722,-0.10178,-0.02777,-0.05537
0.31412,0.93504,-0.16435,-0.25519,0.12148,-0.23189
0.32465,0.93271,-0.15695,-0.37492,-0.01448,-0.09825
0.3347,0.92919,-0.15674,-0.16934,-0.34051,-0.00871
0.34031,0.92828,-0.14992,-0.02053,-0.45686,-0.13843
0.34093,0.92986,-0.13824,-0.03537,-0.18059,-0.08071
0.33748,0.93,-0.14559,0.25566,0.24786,-0.00966
0.33738,0.92618,-0.16837,1.00168,1.55388,0.11167
0.34355,0.92099,-0.18367,0.99552,1.55907,0.12697
0.35053,0.92083,-0.17084,0.07745,0.03445,-0.11636
0.36573,0.91517,-0.1694,0.19925,0.85174,-0.20108
0.37338,0.91034,-0.1785,0.66281,1.19477,-0.20609
0.3656,0.91445,-0.17351,0.15694,0.3068,-0.13296
0.36438,0.91571,-0.16938,0.03473,-0.07674,0.19271
0.37013,0.9155,-0.1576,-0.10416,-0.27192,0.24513
0.37266,0.91837,-0.13305,-0.1541,-0.10938,0.07409
0.36999,0.92272,-0.10806,-0.12354,-0.01267,-0.04047
0.37029,0.92431,-0.0923,-0.01556,-0.26789,0.03127
0.37243,0.9247,-0.07877,-0.0059,-0.33643,0.0049
0.37098,0.92631,-0.06556,-0.03887,-0.26408,-0.05768
0.36479,0.92919,-0.05923,-0.01746,-0.25189,-0.09777
0.3576,0.93184,-0.06142,0.07799,-0.20168,-0.0285
0.35129,0.93375,-0.06847,0.04845,-0.27378,-0.11846
0.34486,0.93521,-0.08022,0.03006,-0.3759,-0.10731
0.33661,0.93676,-0.09565,0.12121,-0.51579,-0.10577
0.32796,0.93824,-0.11015,0.14408,-0.45119,-0.10011
0.32046,0.93906,-0.12433,0.2511,-0.23107,-0.01697
0.3121,0.93985,-0.13877,0.14383,-0.2658,-0.06607
0.30142,0.9411,-0.15317,0.06935,-0.29907,-0.07709
0.28967,0.9425,-0.16662,0.06079,-0.37256,0.14016
0.27982,0.94269,-0.18171,-0.03376,-0.50678,0.17491
0.27318,0.94121,-0.19871,-0.12404,-0.54764,0.20575
0.27159,0.9376,-0.21708,-0.30002,0.08029,0.01288
0.27815,0.92898,-0.24416,-0.14836,1.32717,-0.16785
0.29476,0.91239,-0.28399,-0.00696,1.79382,0.07336
0.3106,0.89735,-0.31349,0.14962,0.4126,-0.42356
0.3153,0.89036,-0.32839,0.22615,0.2445,-0.18255
0.32397,0.8829,-0.33988,0.28656,0.37784,-0.11659
0.33929,0.87284,-0.35074,0.11769,1.17142,-0.36876
0.35321,0.86644,-0.35286,0.03221,0.57814,-0.26887
0.35845,0.8649,-0.35134,0.07054,0.27721,-0.21066
0.35908,0.86588,-0.34828,0.16447,-0.49018,-0.06249
0.35632,0.87141,-0.33715,0.16624,-0.49899,0.08416
0.3457,0.8817,-0.32108,0.02571,-0.43316,0.09139
0.33036,0.89273,-0.30641,-0.2476,-0.38707,0.16135
0.31321,0.90435,-0.28989,-0.2734,-0.38964,0.19226
0.29793,0.91609,-0.26833,-0.29352,-0.39058,0.1444
0.28475,0.92627,-0.24683,-0.30001,-0.45694,0.14214
0.27557,0.93341,-0.22975,-0.27146,-0.4905,0.164
0.27492,0.93743,-0.21359,-0.28081,-0.4887,0.07881
0.27849,0.93956,-0.19914,-0.325,-0.4673,-0.01752
0.27495,0.94237,-0.19062,-0.22373,0.11283,0.03769
0.26748,0.94642,-0.18092,-0.26429,0.0461,0.0082
0.27114,0.94714,-0.17146,-0.20085,-0.12232,0.04389
0.28328,0.94462,-0.16563,-0.12929,-0.27767,-0.13052
0.30039,0.94025,-0.16027,-0.17284,-0.29389,-0.19453
0.3184,0.93522,-0.15485,-0.22443,-0.32192,-0.22708
0.33174,0.93112,-0.15152,-0.06819,-0.44014,0.04347
0.33314,0.92951,-0.15817,0.37047,0.29428,0.01862
0.32294,0.92943,-0.17849,0.70069,1.14461,0.213
0.31701,0.9316,-0.17783,0.14891,-0.04628,-0.26028
