gravity.x,gravity.y,gravity.z,userAcceleration.x,userAcceleration.y,userAcceleration.z
0.02514,0.9866,-0.16118,0.27726,-0.17211,0.19797
0.02516,0.97891,-0.20275,-0.09325,-0.01499,0.23694
0.02238,0.96302,-0.26851,-0.45164,0.50546,0.06231
0.01887,0.93572,-0.35224,-0.67118,1.16583,-0.02356
0.02169,0.90381,-0.42738,-0.76165,0.72454,-0.04282
0.02869,0.87648,-0.48058,-0.6677,0.33562,-0.09899
0.04054,0.85649,-0.51458,-0.35861,0.25902,-0.25228
0.05667,0.84047,-0.53888,-0.11219,0.4171,-0.33281
0.07405,0.83302,-0.54826,-0.21184,0.61525,-0.24165
0.09568,0.83365,-0.54393,-0.29106,0.44431,-0.22172
0.119,0.84235,-0.52563,-0.31051,0.16779,-0.0669
0.13858,0.85618,-0.49774,-0.21985,-0.26326,0.15221
0.14849,0.87122,-0.46789,-0.13244,-0.4199,0.21505
0.1468,0.88682,-0.43819,0.03166,-0.58057,0.23491
0.13347,0.90254,-0.40941,0.09161,-0.64233,0.2455
0.10832,0.91767,-0.3823,0.08587,-0.69312,0.17811
0.07422,0.9321,-0.35451,0.08674,-0.7006,0.15826
0.03459,0.94417,-0.32763,0.0036,-0.62891,0.10305
-0.0055,0.95344,-0.30154,-0.12003,-0.36582,-0.06232
-0.04145,0.96118,-0.27278,-0.1314,-0.29842,-0.16714
-0.06544,0.96869,-0.23951,-0.14959,-0.09939,-0.3558
-0.07588,0.97511,-0.20831,-0.16073,0.11809,-0.11978
-0.07835,0.97779,-0.19438,-0.05195,-0.14022,0.11234
-0.07285,0.97712,-0.19982,-0.00549,-0.26734,0.11768
-0.05959,0.97746,-0.20252,-0.09713,-0.31648,-0.03625
-0.04002,0.98157,-0.18687,-0.15809,-0.29494,-0.05896
-0.02051,0.98815,-0.15214,-0.31653,0.51849,-0.02361
-0.01389,0.99249,-0.12153,-0.38032,1.21668,0.15547
-0.00852,0.99388,-0.11017,-0.245,0.42989,0.28661
0.00376,0.99395,-0.10978,0.44009,0.10876,-0.00117
0.01044,0.99453,-0.10391,0.32169,0.52196,-0.23415
0.00552,0.99574,-0.09203,0.23593,1.53238,-0.25328
0.00216,0.99638,-0.08502,0.10015,1.72603,-0.07151
0.02246,0.99593,-0.08733,0.06809,-0.04726,-0.0067
0.03519,0.99513,-0.09211,0.12022,-0.21348,-0.12699
0.03436,0.99562,-0.08692,0.0551,-0.22743,-0.0527
0.02597,0.99689,-0.07439,0.05661,-0.12029,0.0827
0.01643,0.99815,-0.05862,0.08899,-0.02669,0.01263
0.00663,0.99926,-0.03782,0.09885,-0.01269,0.00688
-0.00202,0.9999,-0.01374,0.03052,-0.15538,0.02696
-0.00948,0.99992,0.0083,0.05628,-0.27458,-0.06085
-0.01599,0.99954,0.0259,0.06541,-0.305,-0.114
-0.02093,0.99908,0.03736,0.07992,-0.26253,-0.14593
-0.02193,0.99892,0.04087,0.1619,-0.26582,-0.11384
-0.01597,0.99929,0.03406,0.21829,-0.29608,-0.082
-0.0014,0.9999,0.01373,0.24491,-0.34358,-0.27828
0.01396,0.9998,-0.01451,0.21333,-0.35939,-0.1771
0.02473,0.99878,-0.04284,0.20884,-0.31283,-0.05624
0.0307,0.9974,-0.06519,0.33128,-0.16584,-0.00942
0.03177,0.99627,-0.08026,0.5063,-0.11701,0.02429
0.0293,0.9953,-0.09229,0.44917,-0.1246,0.04135
0.02521,0.99393,-0.10709,0.27083,-0.13843,0.03997
0.02189,0.99113,-0.13105,0.12895,-0.08823,0.07664
0.02208,0.98457,-0.1736,-0.18379,0.07608,0.09133
0.02672,0.97068,-0.2389,-0.44562,0.38005,0.02911
0.03361,0.94681,-0.32004,-0.47776,0.63925,-0.06192
0.04369,0.91687,-0.39677,-0.60973,0.81764,-0.18632
0.06109,0.89157,-0.44875,-0.53428,0.6834,-0.16466
0.08128,0.87231,-0.48215,-0.07998,0.40499,-0.25496
0.09586,0.85566,-0.50859,0.00516,0.44871,-0.29998
0.10901,0.84522,-0.52318,-0.13306,0.57299,-0.31745
0.12723,0.84316,-0.52238,-0.204,0.29726,-0.15475
0.14616,0.84992,-0.50623,-0.19193,0.12026,-0.03723
0.16132,0.86251,-0.47963,-0.19259,-0.19683,0.14139
0.17015,0.87785,-0.44769,-0.14331,-0.44399,0.23372
0.17121,0.89372,-0.41468,-0.10947,-0.50289,0.20832
0.16339,0.90987,-0.38137,0.0027,-0.63178,0.22498
0.14277,0.92716,-0.3464,0.06268,-0.78377,0.13488
0.1121,0.94478,-0.30793,0.05831,-0.73465,0.18369
0.07495,0.96028,-0.2688,-0.01902,-0.64843,0.13891
0.03415,0.97293,-0.22856,-0.05199,-0.61395,0.07247
-0.00744,0.98226,-0.18738,-0.15951,-0.30964,-0.0967
-0.04231,0.98764,-0.1509,-0.2679,0.00187,-0.12783
-0.06262,0.98945,-0.13064,-0.31348,0.08395,-0.122
-0.06914,0.98885,-0.13187,-0.17491,-0.13909,-0.02048
-0.06555,0.98721,-0.14529,-0.09334,-0.28508,-0.15413
-0.05341,0.98574,-0.15959,-0.26996,-0.15438,-0.26218
-0.03361,0.9861,-0.16275,-0.32444,0.50504,0.1311
-0.02132,0.98763,-0.15536,-0.26348,0.78737,0.36478
-0.00554,0.98751,-0.15746,0.12741,0.40769,0.38233
0.00645,0.9881,-0.15368,0.4934,0.25958,0.33922
0.01536,0.98944,-0.14416,0.75048,0.88303,-0.90575
0.02501,0.99143,-0.12821,0.77083,1.79212,0.07055
0.04727,0.9911,-0.12443,0.08739,0.39154,0.0651
0.05661,0.99036,-0.12641,-0.03865,-0.09232,0.04156
0.04641,0.99077,-0.12739,0.14836,0.15074,-0.01233
0.03129,0.99184,-0.12359,0.08621,0.0742,0.0796
0.01896,0.99365,-0.11087,-0.0889,-0.08809,0.15616
0.01103,0.99569,-0.09212,-0.14214,-0.12942,0.14227
0.00524,0.99765,-0.0683,-0.20358,-0.18144,0.10294
-0.00033,0.99891,-0.04675,-0.22649,-0.30488,-0.12723
-0.00671,0.9995,-0.03086,-0.04901,-0.35544,-0.20307
-0.01321,0.9997,-0.02044,0.03797,-0.37177,-0.16528
-0.0178,0.9997,-0.01657,0.22599,-0.4345,-0.04785
-0.01806,0.99964,-0.01962,0.31109,-0.45616,-0.17706
-0.01527,0.99946,-0.02904,0.3013,-0.42329,-0.17082
-0.01347,0.99896,-0.04345,0.30768,-0.27765,-0.15102
-0.01373,0.99827,-0.05714,0.45602,-0.04379,-0.1582
-0.01586,0.9974,-0.07034,0.62241,0.14028,-0.08246
-0.01672,0.99618,-0.0857,0.68878,0.01406,0.01256
-0.02151,0.99451,-0.10242,0.62887,-0.11632,0.0806
-0.03086,0.99148,-0.12657,0.4124,-0.22422,0.27726
-0.03924,0.98531,-0.16618,0.08056,-0.24606,0.31485
-0.0433,0.97278,-0.22764,-0.36437,0.16642,0.22573
-0.04044,0.95156,-0.3048,-0.64304,0.64109,-0.00114
-0.03356,0.92533,-0.37768,-0.72944,0.89533,0.14445
-0.01527,0.90173,-0.43204,-0.98044,0.31942,0.00836
0.02304,0.88697,-0.46124,-0.89144,0.23606,-0.04871
0.06861,0.87602,-0.47738,-0.17211,0.03019,-0.08203
0.10186,0.86568,-0.49013,0.2015,0.30313,-0.04942
0.12604,0.861,-0.49273,0.17172,0.37224,-0.03737
0.14484,0.86494,-0.48052,0.00645,-0.06912,0.02971
0.15311,0.87725,-0.45496,-0.03554,-0.22449,0.03304
0.15295,0.89495,-0.41913,-0.08704,-0.49955,0.01503
0.14494,0.91458,-0.37754,-0.13455,-0.60483,-0.0398
0.12786,0.93373,-0.33436,-0.1018,-0.6528,-0.07949
0.10399,0.94995,-0.29457,0.08597,-0.6342,-0.0711
0.07593,0.96303,-0.25847,0.11375,-0.63219,-0.13565
0.04571,0.97463,-0.2191,0.04265,-0.4202,-0.19112
0.0125,0.98372,-0.1793,-0.13567,0.01099,-0.12426
-0.01379,0.9881,-0.1532,-0.2394,0.23994,-0.02525
-0.02356,0.98874,-0.14781,-0.36059,0.12816,0.06688
-0.01458,0.98899,-0.14727,-0.2284,-0.03742,0.14118
-0.00284,0.9909,-0.13454,-0.0785,-0.02421,0.22223
-0.00122,0.9929,-0.11892,-0.08801,0.08414,0.16949
-0.00695,0.99462,-0.10334,-0.09247,0.29389,0.06088
-0.01508,0.99692,-0.0769,0.30541,0.77064,-0.00239
-0.00799,0.99872,-0.04986,0.75469,1.27802,-0.34846
0.01267,0.99975,-0.01837,0.77796,1.45041,-0.03227
0.03358,0.99943,-0.00313,0.19023,0.1495,-0.04525
0.03375,0.99942,-0.00488,0.15726,0.08115,-0.0137
0.02045,0.9997,-0.01311,0.05424,0.01464,0.1906
0.00218,0.99986,-0.01664,-0.13153,0.08294,0.10633
-0.01612,0.99981,-0.01129,-0.28765,0.01786,0.11631
-0.03249,0.99947,0.00068,-0.25763,-0.06994,0.09856
-0.04942,0.99871,0.01166,-0.15924,-0.30366,0.046
-0.07082,0.99729,0.02009,0.1453,-0.4792,-0.00023
-0.09285,0.99528,0.02809,0.23554,-0.50239,-0.04744
-0.11393,0.9928,0.03705,0.35061,-0.54758,-0.09196
-0.13298,0.99004,0.04622,0.41581,-0.58942,-0.13062
-0.15018,0.98709,0.05565,0.43651,-0.57082,-0.12787
-0.16618,0.98387,0.06621,0.39197,-0.40806,-0.10627
-0.18006,0.98043,0.07956,0.44709,-0.07108,-0.11804
-0.19063,0.97698,0.09578,0.50353,0.32258,-0.06411
-0.19955,0.97374,0.10961,0.6324,0.11565,-0.09869
-0.20868,0.9711,0.11585,0.68247,-0.01809,-0.1606
-0.21709,0.97003,0.10916,0.67183,-0.03898,-0.29585
-0.22737,0.97007,0.08531,0.63441,-0.10843,-0.00326
-0.23521,0.97086,0.046,0.27269,0.05986,0.01652
-0.22699,0.97388,0.00576,-0.42462,0.76179,0.01381
-0.20338,0.97822,-0.04142,-0.79221,0.57167,0.27564
-0.17037,0.98,-0.10278,-1.0456,1.28969,0.26202
-0.13136,0.97841,-0.15952,-1.06116,1.10427,0.28991
-0.08523,0.97611,-0.19984,-0.31044,0.76201,-0.04345
-0.03707,0.97276,-0.22884,0.62249,0.92081,-0.16659
0.01193,0.96652,-0.25632,0.5586,0.79816,-0.17724
0.0582,0.957,-0.28417,0.22023,0.64732,0.0035
0.09646,0.94593,-0.3097,0.05297,0.46681,0.01389
0.12069,0.93498,-0.33354,-0.11021,0.07212,0.10297
0.12373,0.92801,-0.35141,-0.2134,-0.28502,0.32624
0.11245,0.92496,-0.36305,-0.14863,-0.49573,0.39731
0.09169,0.92482,-0.3692,-0.09395,-0.57992,0.37253
0.06655,0.92818,-0.36613,-0.00189,-0.76038,0.24552
0.04016,0.93471,-0.35312,0.00488,-0.76374,0.2293
0.01451,0.94225,-0.33458,-0.04166,-0.76148,0.22162
-0.00628,0.94878,-0.31589,-0.11863,-0.66284,0.23294
-0.0217,0.95453,-0.29733,-0.04724,-0.46735,0.05682
-0.03107,0.95921,-0.28098,-0.02799,-0.30858,-0.00822
-0.03182,0.95967,-0.27931,-0.13715,0.53802,-0.10758
-0.02486,0.95457,-0.29694,0.13697,0.68756,-0.18945
-0.00388,0.94537,-0.32596,0.27639,0.42059,-0.20515
0.01578,0.93721,-0.34842,-0.00994,-0.63029,-0.05781
0.02706,0.9312,-0.3635,-0.15389,0.0776,0.11143
0.0387,0.92722,-0.37252,-0.08677,1.09691,0.05499
0.03785,0.92522,-0.37754,0.38925,1.95823,0.63283
0.03646,0.92806,-0.37063,0.07,0.66212,0.44024
0.03713,0.93034,-0.36482,0.02842,-0.08638,0.38801
0.02823,0.9364,-0.34981,0.14889,-0.11427,0.55173
-0.00505,0.94338,-0.33167,0.2279,-0.12405,0.60688
-0.05056,0.94864,-0.31231,0.18668,0.11516,0.53507
-0.09315,0.95301,-0.28826,-0.08345,0.43162,0.28696
-0.12358,0.95938,-0.2536,-0.17403,0.39845,0.16017
-0.13836,0.96748,-0.21177,-0.09489,0.02834,0.14956
-0.14662,0.97379,-0.17389,-0.15679,-0.19677,0.10994
-0.15628,0.9774,-0.14237,-0.06207,-0.28494,-0.00626
-0.16783,0.97932,-0.11296,-0.05798,-0.29423,-0.10666
-0.17991,0.97988,-0.08636,0.05177,-0.32214,0.00161
-0.19277,0.97894,-0.06724,0.18827,-0.42184,0.13993
-0.20518,0.97737,-0.05155,0.25015,-0.45521,0.24368
-0.21663,0.97568,-0.03349,0.20222,-0.31378,0.33691
-0.22847,0.97341,-0.01681,0.13361,-0.04776,0.16119
-0.24096,0.97054,-1e-05,0.11982,0.32039,-0.09791
-0.25376,0.96703,0.02128,0.20973,0.55258,-0.204
-0.2637,0.96382,0.03886,0.38232,0.23595,-0.20982
-0.26927,0.96176,0.05018,0.49028,0.13006,-0.09687
-0.27259,0.96045,0.05677,0.58478,0.31697,0.01338
-0.27954,0.95842,0.05737,0.4873,0.42885,-0.14216
-0.28543,0.95686,0.05426,0.45021,0.43068,-0.18706
-0.28847,0.95645,0.04455,0.44198,0.35936,0.03275
-0.2837,0.95865,0.02274,0.44999,0.34449,0.15857
-0.26765,0.96349,-0.00736,0.13535,-0.01026,0.17166
-0.24306,0.96894,-0.04554,-0.15356,0.14376,0.04865
-0.21519,0.97217,-0.09266,-0.25345,0.32106,0.09635
-0.18684,0.97192,-0.14304,-0.33037,0.51969,0.24466
-0.16301,0.96792,-0.1912,-0.2379,0.62806,0.38931
-0.13993,0.96257,-0.23213,-0.11291,0.53788,0.32018
-0.10993,0.95775,-0.26576,0.05846,0.48176,0.17178
-0.07501,0.95188,-0.29716,0.1509,0.33256,0.10293
-0.04087,0.94331,-0.32939,0.13451,0.26336,0.17549
-0.01002,0.93269,-0.36053,0.09161,0.20618,0.23315
0.01157,0.92083,-0.38979,-0.06995,-0.07712,0.34638
0.02685,0.90935,-0.41517,-0.0599,-0.17181,0.36408
0.03366,0.90038,-0.43379,-0.07609,-0.24349,0.39174
0.02638,0.8938,-0.44769,-0.08121,-0.45631,0.50305
0.01242,0.88958,-0.45662,-0.06983,-0.47107,0.46995
-0.00426,0.88841,-0.45902,-0.04535,-0.50406,0.41499
-0.0223,0.89035,-0.45474,-0.10079,-0.45572,0.31767
-0.0364,0.89554,-0.44349,-0.15512,-0.38504,0.18843
-0.04214,0.90442,-0.42456,-0.20075,-0.31866,0.04362
-0.03882,0.9159,-0.39953,-0.21798,-0.17052,-0.00785
-0.03048,0.92734,-0.37298,-0.16544,0.12352,-0.09811
-0.0201,0.9363,-0.35061,0.06599,0.50429,-0.26161
-0.00932,0.94116,-0.33784,0.19844,0.51641,-0.18296
0.00115,0.94106,-0.33824,0.27521,0.14378,-0.14965
0.01273,0.9375,-0.34776,0.29889,0.01137,-0.18903
0.02354,0.93343,-0.35798,0.21984,-0.19124,-0.24151
0.03056,0.93094,-0.36388,0.22246,-0.05544,-0.13269
0.03572,0.92621,-0.37532,0.25319,0.55629,0.09044
0.03813,0.92029,-0.38938,0.15163,0.74147,0.25439
0.03466,0.92014,-0.39006,-0.2452,-0.01456,0.25211
0.02832,0.92395,-0.38146,-0.23234,-0.22896,0.38457
0.01743,0.93115,-0.36421,-0.04709,-0.36392,0.47736
-0.0006,0.94134,-0.33747,0.20549,-0.15624,0.49322
-0.02589,0.94977,-0.31188,0.37976,0.19557,0.43839
-0.05137,0.95617,-0.28827,0.41327,0.3872,0.38369
-0.07062,0.96214,-0.26325,-0.02553,0.38629,0.29554
-0.08014,0.96823,-0.23689,-0.21197,0.08874,0.19662
-0.08635,0.97401,-0.20938,-0.16316,-0.06699,0.12814
-0.09665,0.9784,-0.18275,0.01906,-0.13622,0.1799
-0.11144,0.9813,-0.15696,0.15586,-0.11971,0.16683
-0.12421,0.98351,-0.13142,0.21134,-0.12286,0.14566
-0.1353,0.98484,-0.10853,0.21095,-0.22096,0.17822
-0.14411,0.98569,-0.08744,0.10801,-0.30471,0.2392
-0.15291,0.98594,-0.06744,0.06642,-0.19008,0.18087
-0.16287,0.9856,-0.04543,0.0663,-0.13904,0.11063
-0.17434,0.9845,-0.01907,0.09515,0.13383,-0.09518
-0.18535,0.98262,0.00993,0.11445,0.02621,-0.20633
-0.19317,0.98071,0.02993,0.15243,0.0011,-0.24892
-0.194,0.98037,0.03519,0.37442,0.22987,-0.05329
-0.18927,0.98144,0.03078,0.29561,0.17322,-0.10011
-0.17867,0.98367,0.02167,0.32687,0.02538,-0.14585
-0.16459,0.98635,0.00391,0.33271,-0.1168,-0.1892
-0.14933,0.98817,-0.03501,0.56308,0.07563,0.14452
-0.13387,0.98621,-0.09727,0.327,0.53634,0.10952
-0.11142,0.97903,-0.17056,0.08894,0.36596,0.26867
-0.08386,0.96485,-0.24907,-0.5383,0.73622,0.16727
-0.05651,0.94491,-0.32242,-0.89515,0.98785,0.32421
-0.02651,0.92624,-0.376,-1.02759,0.73973,0.34238
0.00787,0.91197,-0.41018,-0.11874,0.30275,-0.00551
0.03815,0.89735,-0.43968,0.23788,0.4264,0.11091
0.06857,0.87961,-0.47073,0.23059,0.50824,0.17657
0.09572,0.86136,-0.4989,0.08542,0.09633,0.21753
0.11159,0.85247,-0.51073,0.00365,-0.00788,0.13954
0.12772,0.84701,-0.51601,-0.03789,-0.0158,0.06914
0.13265,0.84382,-0.51998,-0.17988,-0.28348,0.15603
0.12132,0.84456,-0.52154,-0.17239,-0.50201,0.3634
0.09853,0.84879,-0.51947,-0.12386,-0.55318,0.40465
0.07043,0.85714,-0.51025,0.02039,-0.65079,0.30687
0.04255,0.86956,-0.49199,0.06945,-0.6789,0.20026
0.02039,0.88298,-0.46897,0.05521,-0.64659,0.13302
0.00518,0.89533,-0.44538,0.02288,-0.52669,0.10418
-0.00419,0.9066,-0.42197,0.01052,-0.50627,0.12807
-0.01038,0.91683,-0.39915,-0.02493,-0.44054,0.16694
-0.01616,0.92555,-0.37828,-0.04672,-0.28074,0.1736
-0.01973,0.9319,-0.36218,-0.01719,-0.11545,0.19746
-0.02185,0.93527,-0.35326,-0.01965,-0.06038,0.22225
-0.02205,0.93712,-0.34831,-0.06865,-0.17716,0.12941
-0.02038,0.94088,-0.33812,-0.05822,-0.24276,-0.01587
-0.01949,0.94756,-0.31899,0.01249,-0.26435,-0.0251
-0.02107,0.95547,-0.29432,0.06817,-0.25517,-0.02653
-0.0253,0.96447,-0.26299,0.02298,-0.27727,-0.04091
-0.03212,0.97314,-0.22798,-0.12773,-0.0362,-0.14811
-0.04417,0.97901,-0.19896,-0.34349,1.12485,0.05975
-0.05081,0.98338,-0.17433,-0.53436,0.96302,0.582
-0.03911,0.98498,-0.1682,0.15615,0.11822,0.16933
-0.03028,0.98642,-0.16141,0.30421,0.13081,-0.07634
-0.02829,0.99006,-0.1378,0.33743,1.1502,-0.44511
-0.01955,0.99256,-0.12017,0.60167,1.89138,-0.00823
0.01598,0.99212,-0.12423,0.36535,0.30677,0.17524
0.02902,0.99073,-0.13269,-0.0162,-0.26107,0.26137
0.02188,0.98881,-0.14759,0.02838,-0.18604,0.21103
0.00733,0.9881,-0.15367,-0.08503,-0.17421,0.20882
-0.00773,0.98889,-0.14848,-0.25657,-0.21476,0.23329
-0.01991,0.99063,-0.13513,-0.2597,-0.23916,0.19066
-0.0272,0.99246,-0.11953,-0.1231,-0.35861,0.04666
-0.03127,0.99367,-0.10792,-0.08068,-0.39326,-0.0156
-0.03347,0.99417,-0.10251,0.06977,-0.44659,-0.06045
-0.03291,0.99377,-0.10649,0.31892,-0.48938,-0.04445
-0.02748,0.99246,-0.11947,0.36124,-0.45352,-0.08264
-0.01565,0.99038,-0.13752,0.3494,-0.45144,-0.06459
0.00016,0.98738,-0.15839,0.23597,-0.14038,0.04064
0.01499,0.98298,-0.18311,0.20548,-0.09391,0.08394
0.02465,0.97719,-0.21095,0.28393,-0.16528,0.11662
0.02965,0.97033,-0.23996,0.54555,-0.38027,0.24965
0.02659,0.96048,-0.27708,0.57732,-0.38287,0.36774
0.0246,0.94333,-0.33095,0.2973,-0.13946,0.28638
0.03114,0.91539,-0.40137,-0.12249,1.02039,-0.40487
0.04326,0.88006,-0.47289,-0.3386,1.59319,-0.56097
0.05865,0.8522,-0.51992,-0.67277,1.62739,-0.2103
0.08037,0.8309,-0.55059,-0.83197,0.50368,-0.33742
0.1129,0.81672,-0.56588,-0.39562,0.4466,-0.23006
0.13663,0.80726,-0.57416,-0.25191,0.3514,-0.16057
0.15645,0.80341,-0.5745,0.11207,0.44573,-0.21232
0.1723,0.806,-0.56628,0.07258,0.25233,-0.00827
0.1802,0.8146,-0.55132,0.02248,0.15035,0.057
0.1773,0.82784,-0.53221,-0.04316,-0.29706,0.10778
0.16672,0.84484,-0.50838,-0.03258,-0.31407,0.08395
0.15176,0.86286,-0.48212,-0.07389,-0.449,0.15195
0.13153,0.87993,-0.45654,-0.0465,-0.59575,0.15573
0.10272,0.89646,-0.43105,-0.05193,-0.67405,0.12086
0.0673,0.91338,-0.40151,0.00676,-0.70058,0.14972
0.02956,0.92862,-0.36985,0.10518,-0.67339,0.21984
-0.00522,0.94099,-0.33841,0.03211,-0.51337,0.12758
-0.03089,0.95128,-0.30679,0.03487,-0.33426,0.09672
-0.04786,0.95997,-0.27598,0.07471,-0.13487,0.06286
-0.05906,0.96615,-0.25112,-0.01441,-0.00291,0.05357
-0.06424,0.96949,-0.23656,-0.17183,0.01885,0.01184
-0.06699,0.97163,-0.22684,-0.3087,-0.0808,-0.06666
-0.06954,0.97513,-0.21043,-0.43091,-0.10282,-0.12198
-0.07023,0.97984,-0.18705,-0.42636,-0.14228,-0.0513
-0.07036,0.98368,-0.1656,-0.38456,-0.05801,-0.05795
-0.07054,0.98553,-0.1541,-0.36388,0.39241,-0.03802
-0.06964,0.98503,-0.1577,-0.26929,0.46068,0.04071
-0.06154,0.98388,-0.16789,0.17637,0.06151,0.38288
-0.04205,0.98322,-0.17749,0.4992,0.05271,0.2144
-0.03266,0.9851,-0.16887,0.43392,0.64134,-0.25809
-0.02223,0.98553,-0.16802,1.21376,2.18665,-0.32426
0.01863,0.98365,-0.17912,0.71149,0.23067,-0.01004
0.0336,0.98143,-0.18887,0.2578,-0.14123,-0.02191
0.02638,0.9801,-0.19675,0.39667,0.00098,0.11418
0.01226,0.97872,-0.20483,0.32341,0.0039,0.14475
0.00117,0.97827,-0.20732,-0.12193,-0.08731,0.13838
-0.00491,0.9788,-0.20475,-0.1906,-0.14025,0.06178
-0.00706,0.98115,-0.1931,-0.11902,-0.30093,-0.03488
-0.0085,0.98458,-0.17474,-0.07766,-0.44231,-0.08355
-0.01246,0.98722,-0.15888,0.06955,-0.28156,-0.03759
-0.0164,0.98852,-0.15018,0.16795,-0.18287,-0.03295
-0.01857,0.98913,-0.1459,0.29762,-0.11194,-0.05872
-0.01501,0.98929,-0.14517,0.43141,-0.00727,-0.02681
-0.01053,0.98865,-0.1499,0.37277,-0.03344,-0.00163
-0.00928,0.987,-0.16047,0.32126,-0.15956,0.07372
-0.0137,0.98393,-0.17805,0.37944,-0.33946,0.19401
-0.02277,0.97867,-0.20417,0.39139,-0.35846,0.34405
-0.03102,0.96837,-0.2476,0.18438,-0.23956,0.34002
-0.03512,0.94848,-0.31489,-0.19056,0.37855,0.0901
-0.0304,0.91508,-0.40213,-0.34054,1.11907,-0.22573
-0.02053,0.87753,-0.47908,-0.52891,1.49135,-0.09132
-0.00917,0.84963,-0.5273,-0.83388,0.38998,0.08459
0.02184,0.83185,-0.55457,-0.89423,0.2631,-0.02216
0.06824,0.81746,-0.57193,-0.05875,0.30916,-0.25708
0.10252,0.80422,-0.58543,-0.00903,0.70068,-0.22067
0.13142,0.79844,-0.58755,0.02991,0.72765,-0.32638
0.15802,0.80486,-0.57204,0.15284,0.21436,-0.14946
0.17626,0.81877,-0.54639,0.01318,-0.26248,0.1186
0.18269,0.83445,-0.51992,-0.08596,-0.51247,0.20721
0.17583,0.85017,-0.49628,-0.06103,-0.54199,0.22729
0.1541,0.86466,-0.47813,-0.0515,-0.59301,0.30176
0.12151,0.87857,-0.46191,-0.0089,-0.74769,0.33201
0.08542,0.89438,-0.43907,0.05774,-0.86682,0.28857
0.05005,0.91268,-0.4056,0.07431,-0.87447,0.25742
0.01705,0.93105,-0.36448,-0.02899,-0.83955,0.08874
-0.01338,0.9487,-0.31588,-0.0389,-0.7978,-0.005
-0.04214,0.9651,-0.25848,-0.10729,-0.55255,-0.10575
-0.06571,0.97696,-0.20304,-0.1559,-0.00238,0.14735
-0.0802,0.98103,-0.17649,-0.33664,0.60956,0.28876
-0.077,0.98048,-0.1809,-0.29159,0.66234,-0.12809
-0.05221,0.97955,-0.19431,-0.40043,0.32019,0.0237
-0.02134,0.98167,-0.18941,-0.45421,0.0601,0.11917
0.00218,0.9821,-0.18836,-0.26654,-0.15019,0.07195
0.01778,0.98027,-0.19684,0.20667,-0.1176,0.17765
0.0167,0.98183,-0.18902,0.41473,0.65238,0.30734
0.01305,0.98464,-0.17412,0.97793,2.21226,-0.51228
0.04843,0.98565,-0.16172,0.95323,1.02992,0.10289
0.07178,0.98426,-0.16147,0.06327,-0.19312,0.06785
0.06896,0.98326,-0.16865,0.22063,-0.05632,0.07061
0.05278,0.98272,-0.17739,0.30809,0.01712,0.08611
0.03796,0.983,-0.17961,0.13836,-0.03536,0.19371
0.02867,0.98394,-0.17619,-0.1938,-0.12237,0.14429
0.02443,0.98596,-0.16516,-0.24501,-0.16204,0.09431
0.02291,0.98857,-0.14902,-0.23676,-0.27011,0.02193
0.01775,0.99081,-0.13411,-0.0595,-0.41515,-0.03076
0.00963,0.9921,-0.12505,-0.05138,-0.41645,-0.03982
0.00168,0.99262,-0.12127,0.13301,-0.48893,-0.02255
-0.00521,0.99288,-0.11901,0.32673,-0.5077,-0.05405
-0.01011,0.99276,-0.11965,0.36425,-0.45648,-0.03551
-0.01376,0.99174,-0.12751,0.37775,-0.25503,-0.02882
-0.01555,0.98896,-0.14738,0.48528,0.14169,0.10148
-0.01476,0.98347,-0.18049,0.43998,-0.05102,0.28293
-0.00974,0.97325,-0.22952,0.39506,-0.2248,0.3611
-0.00456,0.95463,-0.29775,-0.04944,-0.07213,0.20102
0.00295,0.92372,-0.38306,-0.32352,0.41934,-0.08639
0.00877,0.88219,-0.47082,-0.5646,1.55334,-0.24648
0.02159,0.84964,-0.52693,-0.78521,0.62296,-0.10181
0.05755,0.83101,-0.55327,-0.6468,0.33971,-0.17759
0.09826,0.81895,-0.56539,-0.27417,0.27988,-0.23655
0.13031,0.81155,-0.56957,0.04645,0.35176,-0.21039
0.1503,0.81196,-0.56403,0.17529,0.36188,-0.17985
0.16093,0.82288,-0.54496,0.2174,0.16933,-0.03384
0.16057,0.84088,-0.51686,0.10078,-0.18812,0.11968
0.15203,0.86279,-0.48216,0.00255,-0.41682,0.12524
0.13788,0.88598,-0.44274,0.02758,-0.6085,0.09176
0.11613,0.90897,-0.40035,-0.00528,-0.75106,0.04539
0.08731,0.92976,-0.35766,0.06644,-0.82225,0.08177
0.05528,0.94706,-0.31626,0.08394,-0.81642,0.13193
0.02184,0.96177,-0.27298,-0.02031,-0.83242,0.07547
-0.01654,0.97413,-0.22537,-0.07954,-0.53184,0.01244
-0.05413,0.98185,-0.18174,-0.27097,0.07823,0.05053
-0.07564,0.9841,-0.16068,-0.40339,0.33461,0.22103
-0.07441,0.98452,-0.15868,-0.22423,0.01587,0.10442
-0.05897,0.98609,-0.15542,-0.10102,-0.40427,-0.02894
-0.03648,0.98823,-0.1486,-0.0663,-0.25628,0.0619
-0.01454,0.9895,-0.14381,-0.02947,-0.12735,0.3935
0.00345,0.98792,-0.15494,0.10406,0.25251,-0.01918
0.01496,0.98718,-0.1589,0.14803,1.47586,0.03524
0.03223,0.98768,-0.1531,0.70756,0.91487,0.20564
0.0577,0.98659,-0.15268,0.61314,0.58224,-0.30686
0.07486,0.98499,-0.15553,0.22316,0.39624,-0.01125
0.07769,0.98285,-0.16721,0.11678,0.20553,0.09689
0.069,0.98112,-0.18067,0.20688,0.06113,0.01856
0.05871,0.98024,-0.18889,0.10128,-0.11572,0.02118
0.04895,0.98061,-0.18975,-0.03108,-0.27318,-0.03842
0.03945,0.98155,-0.18708,-0.03713,-0.33727,-0.20312
0.03225,0.98265,-0.18261,-0.00179,-0.32679,-0.16744
0.02677,0.98351,-0.17885,-0.02234,-0.34626,-0.06464
0.01899,0.98361,-0.17931,0.13627,-0.37536,0.03743
0.00937,0.98293,-0.18373,0.24434,-0.30532,0.07367
0.00013,0.98095,-0.19425,0.35992,-0.15853,0.08428
-0.0066,0.97601,-0.21763,0.38997,-0.13642,0.17118
-0.01253,0.96513,-0.26146,0.30269,-0.18845,0.39282
-0.02005,0.94622,-0.32291,0.0549,-0.23064,0.42326
-0.02775,0.91797,-0.39567,-0.20539,-0.07728,0.33897
-0.03272,0.88245,-0.46927,-0.52667,0.67915,-0.14168
-0.03687,0.8474,-0.52968,-0.63996,1.22125,-0.07526
-0.03027,0.82381,-0.56606,-0.74257,1.24305,0.08092
-0.0,0.80965,-0.58691,-0.71083,0.12553,-0.24577
0.04827,0.80342,-0.59346,-0.59789,0.26055,-0.35004
0.09081,0.80165,-0.59086,-0.24703,0.48616,-0.106
0.1226,0.8081,-0.57615,-0.06044,0.13107,-0.01382
0.14519,0.82505,-0.54609,0.17279,-0.28807,0.11851
0.15476,0.84774,-0.50733,0.22189,-0.39979,0.08898
0.14665,0.87185,-0.4673,0.34653,-0.55624,0.00029
0.12204,0.89601,-0.42694,0.3024,-0.59103,-0.23688
0.0868,0.91786,-0.3873,0.40652,-0.64154,-0.29167
0.04851,0.93473,-0.35203,0.56863,-0.53387,-0.18886
0.01292,0.94715,-0.32054,0.39629,-0.47577,-0.06948
-0.01666,0.95833,-0.28519,0.1535,-0.42116,0.04824
-0.04685,0.96859,-0.2442,-0.197,0.23391,0.07917
-0.06482,0.97332,-0.2201,-0.97116,0.32598,0.09608
-0.06813,0.9767,-0.20353,-0.76028,0.16775,0.09639
-0.07351,0.97997,-0.18507,-0.58289,0.04867,0.19217
-0.0822,0.98124,-0.17442,-0.14182,0.14329,0.28556
-0.08829,0.98059,-0.17509,0.26852,-0.1295,-0.0393
-0.08072,0.98166,-0.17272,0.31258,0.25502,-0.13345
-0.06866,0.98519,-0.15715,0.39721,0.65146,0.01809
-0.06314,0.98769,-0.14312,0.63689,0.4945,0.01543
-0.05833,0.98985,-0.12962,0.77901,0.71293,0.04568
-0.05496,0.99142,-0.11858,0.73396,0.36565,0.18727
-0.05589,0.99198,-0.11339,0.34403,0.0113,0.25187
-0.06398,0.99182,-0.11042,0.23146,-0.08902,0.23141
-0.07805,0.99133,-0.10573,0.09666,-0.17428,0.17211
-0.09673,0.99037,-0.09901,-0.07543,-0.25705,0.04605
-0.11724,0.98889,-0.09143,-0.09439,-0.26203,-0.00366
-0.13662,0.98711,-0.08337,-0.0386,-0.24324,-0.02088
-0.15335,0.98525,-0.07595,0.17267,-0.17609,0.0279
-0.16833,0.98321,-0.07043,0.33131,-0.09713,-0.01897
-0.18209,0.98103,-0.06653,0.39733,-0.04351,-0.03088
-0.19482,0.97883,-0.06276,0.48985,0.01971,-0.04794
-0.20749,0.97641,-0.05981,0.6498,-0.01374,0.03774
-0.22295,0.9731,-0.05805,0.66124,-0.09548,0.04753
-0.24134,0.96854,-0.06077,0.6894,-0.30014,0.03234
-0.26065,0.96275,-0.07188,0.62414,-0.33537,0.12023
-0.27818,0.95588,-0.09441,0.59759,-0.17971,0.14064
-0.28656,0.95016,-0.12281,0.11023,0.14451,0.00608
-0.27888,0.94751,-0.15635,-0.55939,0.53538,0.27325
-0.25954,0.94473,-0.20031,-0.709,0.60028,0.38887
-0.22681,0.94223,-0.24648,-0.69611,0.71759,0.48264
-0.17408,0.94236,-0.28574,-0.09072,1.07305,-0.27822
-0.10759,0.94484,-0.30935,0.21154,1.04425,-0.45966
-0.04666,0.94654,-0.31919,0.44024,0.90612,-0.44847
0.00463,0.94606,-0.32397,0.51863,0.60961,0.04544
0.04493,0.94111,-0.3351,0.47833,0.61455,0.05656
0.06964,0.93262,-0.35407,0.06955,0.14568,0.29026
0.07453,0.92385,-0.37543,-0.11762,-0.1534,0.373
0.06166,0.91747,-0.393,-0.15113,-0.32305,0.43197
0.03667,0.91371,-0.40471,-0.17317,-0.42454,0.40905
0.00771,0.91247,-0.40908,-0.23116,-0.47878,0.35856
-0.01972,0.91453,-0.40404,-0.23527,-0.53269,0.29294
-0.04345,0.92045,-0.38843,-0.15428,-0.53054,0.16863
-0.0634,0.92972,-0.36278,-0.09735,-0.53051,0.04657
-0.0802,0.93966,-0.33257,-0.07721,-0.46566,-0.01139
-0.09459,0.94819,-0.30328,-0.0726,-0.35185,-0.0198
-0.10394,0.95319,-0.28393,0.05472,0.09782,-0.26891
-0.10083,0.95337,-0.28446,0.1816,0.91501,-0.1083
-0.08584,0.9498,-0.30086,0.20275,0.74818,-0.0632
-0.06032,0.9434,-0.32612,0.30618,-0.09364,-0.26616
-0.03853,0.937,-0.34719,0.12521,-0.65275,-0.23678
-0.02879,0.93369,-0.35692,0.06395,-0.83851,-0.01475
-0.02641,0.93394,-0.35645,-0.09336,-0.64012,-0.01185
-0.03552,0.93566,-0.3511,0.45657,1.86876,0.33624
-0.0447,0.9408,-0.33601,0.35276,0.81358,0.67125
-0.05368,0.94264,-0.32948,0.2345,0.15415,0.30856
-0.07172,0.94546,-0.31773,0.47849,-0.2422,0.58726
-0.09909,0.94936,-0.29817,0.49788,-0.12738,0.43931
-0.13116,0.95284,-0.27367,0.05729,0.16024,0.39088
-0.16091,0.95644,-0.24358,-0.10582,0.36132,0.27928
-0.17761,0.96256,-0.20477,-0.22785,0.29576,0.23379
-0.18541,0.96885,-0.16415,-0.07413,-0.13257,0.16794
-0.19031,0.97354,-0.12649,-0.0072,-0.16425,0.13589
-0.19829,0.97577,-0.09245,0.01363,-0.22173,0.11451
-0.20815,0.97588,-0.06578,0.06566,-0.27006,0.02054
-0.21904,0.97456,-0.04748,0.12762,-0.3052,0.00631
-0.23217,0.97216,-0.03163,0.23638,-0.28675,0.02689
-0.24781,0.96874,-0.01174,0.28568,-0.1003,0.12166
-0.26548,0.96406,0.01009,0.27711,0.07663,0.00697
-0.28362,0.95845,0.03042,0.28736,0.18387,-0.07058
-0.29907,0.95292,0.05,0.24547,0.23072,-0.12939
-0.31004,0.94866,0.06256,0.41122,0.11207,-0.06839
-0.31604,0.94625,0.0687,0.60996,0.23031,0.00655
-0.32227,0.94396,0.07128,0.62976,0.32584,-0.1294
-0.32623,0.94295,0.06649,0.69311,0.39763,-0.24725
-0.32669,0.94371,0.05184,0.53038,0.59678,-0.0482
-0.31858,0.94757,0.0249,0.3493,0.45964,0.08892
-0.29916,0.95415,-0.01052,0.3105,0.02062,0.18439
-0.27171,0.96124,-0.04681,0.19476,-0.07887,0.20721
-0.24086,0.96655,-0.08811,-0.06877,0.06282,0.071
-0.20631,0.96893,-0.13639,-0.22551,0.50603,0.10838
-0.1745,0.96706,-0.18532,-0.35583,0.83087,0.33487
-0.14888,0.96199,-0.22896,-0.12393,0.48995,0.17924
-0.12256,0.95601,-0.26652,0.08487,0.34468,0.09754
-0.09245,0.94878,-0.30212,0.1753,0.25456,0.08178
-0.06083,0.93987,-0.33608,0.13775,0.21974,0.06949
-0.02983,0.9309,-0.36405,0.07118,0.13605,0.08438
-0.00293,0.92276,-0.38536,0.0249,0.07115,0.1298
0.02008,0.91585,-0.40102,-0.00576,-0.10613,0.30607
0.0345,0.90993,-0.41333,0.03493,-0.23136,0.36987
0.03585,0.90545,-0.42294,0.05456,-0.38787,0.45454
0.02772,0.90372,-0.42723,-0.02029,-0.51467,0.45417
0.01596,0.90569,-0.42363,-0.08876,-0.56301,0.30649
0.00424,0.91166,-0.41092,-0.12138,-0.51052,0.18134
-0.00412,0.92006,-0.39175,-0.17505,-0.3546,-0.01692
-0.00897,0.92888,-0.37026,-0.20671,-0.23119,-0.11852
-0.01066,0.93652,-0.35045,-0.19932,-0.15071,-0.15421
-0.00904,0.94265,-0.33366,-0.02444,0.29255,-0.1889
-0.00618,0.94628,-0.32329,-0.03186,0.53196,-0.21351
-0.00085,0.94729,-0.32038,0.00265,0.34005,-0.20927
0.00657,0.94598,-0.32416,0.0837,-0.27113,-0.04658
0.01961,0.94309,-0.33197,0.18986,-0.37016,0.05688
0.04348,0.94414,-0.32667,0.10841,-0.33609,0.135
0.06757,0.95106,-0.30154,0.14236,1.23885,0.19703
0.07161,0.95916,-0.27365,0.12077,1.32122,0.25968
0.07112,0.9609,-0.26763,-0.16864,0.38548,0.17693
0.06113,0.96272,-0.26351,0.10768,-0.13214,0.4038
0.03853,0.96589,-0.25608,0.33743,-0.18516,0.43883
0.00846,0.96954,-0.24478,0.25477,-0.257,0.42273
-0.02073,0.97399,-0.22564,0.09158,0.15614,0.36844
-0.04313,0.97865,-0.20097,0.01478,0.31066,0.26855
-0.05222,0.9839,-0.17092,-0.0958,0.35952,0.13403
-0.05248,0.98912,-0.13744,-0.19591,-0.08792,0.09108
-0.05354,0.9927,-0.10807,-0.13229,-0.16015,0.10308
-0.0596,0.99462,-0.08476,-0.00664,-0.2257,0.11105
-0.06902,0.99546,-0.06557,0.0874,-0.23179,0.03889
-0.07995,0.99557,-0.04939,0.19607,-0.19842,0.00857
-0.09,0.99525,-0.037,0.19521,-0.12709,-0.09691
-0.09599,0.995,-0.02745,0.17317,-0.06461,-0.17572
-0.09381,0.99537,-0.02086,0.15638,-0.02993,-0.17568
-0.08151,0.99638,-0.02427,0.11936,0.0451,-0.14891
-0.05932,0.99747,-0.03911,0.18176,0.07287,0.04032
-0.02576,0.99698,-0.07328,0.29746,0.10986,0.0322
0.01715,0.99085,-0.13388,0.27304,0.31463,-0.25693
0.06272,0.97432,-0.21623,0.00034,0.38125,-0.16927
0.0989,0.94704,-0.30552,-0.432,0.27049,-0.08985
0.11416,0.91652,-0.38336,-0.64953,0.53319,0.10343
0.10484,0.89201,-0.4397,-0.3083,0.54865,0.17528
0.09754,0.8761,-0.47217,-0.04765,0.26098,-0.04419
0.12079,0.86409,-0.48862,0.00114,0.38328,-0.18196
0.15313,0.85363,-0.49786,-0.02472,0.2579,-0.0614
0.16835,0.8477,-0.50306,-0.08032,-0.4618,0.27102
0.16694,0.84862,-0.50197,-0.10124,-0.5676,0.3352
0.16004,0.85587,-0.4918,-0.08592,-0.65717,0.36741
0.15298,0.86863,-0.47126,-0.09053,-0.75371,0.32886
0.14306,0.88553,-0.442,-0.07704,-0.83631,0.18572
0.12928,0.905,-0.40529,-0.04184,-0.88062,0.10318
0.11368,0.92428,-0.3644,0.02911,-0.90386,0.03142
0.09475,0.94131,-0.32398,0.03516,-0.93037,0.05846
0.07,0.9552,-0.28755,0.00481,-0.84446,0.03749
0.03842,0.96675,-0.25284,-0.00693,-0.50407,-0.0047
0.00812,0.97659,-0.21495,-0.06235,-0.04396,0.0013
-0.0106,0.98334,-0.18147,-0.15197,0.24374,0.01866
-0.01022,0.98624,-0.16503,-0.56908,0.42574,0.06722
0.00359,0.98556,-0.1693,-0.62198,0.48769,-0.16199
0.0163,0.98478,-0.17305,-0.50853,0.22334,-0.06363
0.02881,0.98331,-0.17965,0.16333,-0.02911,0.12968
0.04296,0.98297,-0.17869,0.26669,0.68027,0.33659
0.0484,0.98544,-0.163,1.10022,1.76075,-0.86175
0.07471,0.98501,-0.15545,1.00992,1.04762,-0.15742
0.09199,0.98459,-0.14874,0.27988,0.03651,0.13502
0.0869,0.98495,-0.14941,0.18249,0.17969,0.09886
0.07529,0.98546,-0.15232,0.12024,0.1606,0.16701
0.06382,0.98663,-0.14997,-0.07943,0.04891,0.2704
0.05338,0.98778,-0.1464,-0.34917,-0.1377,0.13514
0.04725,0.98954,-0.13632,-0.34151,-0.1928,0.05056
0.04249,0.99135,-0.12417,-0.24343,-0.16742,-0.0291
0.03769,0.99241,-0.11708,-0.11025,-0.21174,-0.17414
0.03499,0.9927,-0.11543,0.03649,-0.30761,-0.2195
0.03308,0.99263,-0.11657,0.10675,-0.37287,-0.16406
0.0308,0.99207,-0.12187,0.24213,-0.47603,-0.08598
0.02865,0.99103,-0.13055,0.24684,-0.45572,-0.02306
0.0267,0.98916,-0.1444,0.21072,-0.36106,0.07157
0.0266,0.98474,-0.172,0.33871,-0.32408,0.22391
0.03114,0.97483,-0.22078,0.35266,-0.14586,0.23923
0.03969,0.9548,-0.29458,0.05604,0.2737,0.02401
0.04785,0.92188,-0.38451,-0.194,0.64055,-0.13159
0.05704,0.88423,-0.46355,-0.61107,1.02986,-0.08723
0.0675,0.85062,-0.52143,-0.67863,0.7269,-0.13469
0.0865,0.82604,-0.55694,-0.44424,0.32277,-0.20914
0.11092,0.80816,-0.57842,-0.38076,0.2309,-0.29344
0.13663,0.79739,-0.58779,-0.14502,0.28274,-0.3089
0.15454,0.79787,-0.58268,-0.06511,0.15635,-0.25353
0.16622,0.81248,-0.5588,0.01372,-0.11223,-0.1022
0.17106,0.83655,-0.5205,0.03914,-0.222,0.01245
0.16758,0.86377,-0.47519,0.06542,-0.27126,0.25348
0.15908,0.8898,-0.42772,0.23542,-0.21703,0.03035
0.15701,0.91309,-0.37632,0.33053,-0.6724,-0.15864
0.15595,0.93575,-0.31631,-0.05845,-1.40873,-0.10681
0.13715,0.95675,-0.25654,-0.00432,-1.28699,-0.07546
0.10141,0.97416,-0.2018,-0.06105,-1.08416,-0.07916
0.06043,0.98496,-0.16185,-0.2365,-0.38432,0.12799
0.02495,0.98974,-0.14069,-0.36676,0.51162,0.13722
0.00775,0.99066,-0.13616,-0.43055,0.57413,0.14663
0.01463,0.98945,-0.14413,-0.51457,0.48931,0.12669
0.02662,0.98847,-0.14904,-0.39657,0.26818,-0.24969
0.029,0.9894,-0.14228,-0.26915,0.09648,0.448
0.02834,0.9904,-0.13531,-0.12643,-0.03018,0.36618
0.02595,0.99188,-0.12452,-0.05879,1.05001,0.20878
0.03479,0.99343,-0.10905,0.68533,1.18474,-0.51219
0.05844,0.99366,-0.09605,1.07512,0.60987,-0.0095
0.07835,0.99218,-0.09716,0.8017,0.52964,-0.06985
0.08756,0.99088,-0.10238,0.04309,0.21046,0.07971
0.08587,0.98996,-0.11224,-0.07339,0.15145,0.15731
0.07785,0.9893,-0.12342,-0.14606,-0.02514,0.12016
0.06923,0.9896,-0.12605,-0.26358,-0.19943,0.10896
0.0613,0.99071,-0.12139,-0.27078,-0.33184,0.07466
0.05423,0.99197,-0.11427,-0.20782,-0.38702,0.03529
0.04703,0.99294,-0.1089,-0.08017,-0.51741,-0.04751
0.04029,0.99335,-0.10788,0.02183,-0.53448,-0.05549
0.03574,0.99297,-0.1128,0.06177,-0.54179,-0.07555
0.03443,0.99202,-0.12132,0.10592,-0.5388,-0.08449
0.03646,0.99045,-0.13293,0.13392,-0.38424,-0.08426
0.04221,0.98796,-0.14884,0.16781,-0.20685,-0.05441
0.05025,0.98431,-0.16911,0.26962,-0.12718,0.04697
0.05872,0.97915,-0.19449,0.39725,-0.13149,0.13163
0.06729,0.97144,-0.22753,0.45306,-0.17838,0.24568
0.07314,0.95904,-0.27368,0.40889,-0.18255,0.25949
0.07888,0.93961,-0.33303,-0.03541,0.54127,-0.19146
0.09187,0.9133,-0.39679,-0.29537,1.21005,-0.36
0.10635,0.88809,-0.4472,-0.52174,1.21994,-0.32464
0.12058,0.86776,-0.48214,-1.07207,0.70694,-0.31722
0.14924,0.8551,-0.49652,-0.52643,0.58666,-0.31686
0.17478,0.84798,-0.50039,-0.1457,0.26453,-0.12585
0.19671,0.84508,-0.49715,0.09765,0.25162,-0.25099
0.21128,0.8474,-0.4871,0.08886,0.42373,-0.10419
0.21751,0.8534,-0.47371,-0.0623,0.13626,0.04117
0.21628,0.86304,-0.45649,-0.13608,-0.19709,0.07875
0.20692,0.87693,-0.4338,-0.16345,-0.33119,0.05511
0.18987,0.89416,-0.40551,-0.07382,-0.5488,0.04706
0.16333,0.91182,-0.3767,-0.01229,-0.70381,-0.07725
0.12873,0.92995,-0.34442,0.07902,-0.81613,-0.09845
0.09285,0.94622,-0.3099,0.10746,-0.87106,0.01973
0.05951,0.96087,-0.27052,0.04186,-0.9015,0.10155
0.02315,0.97214,-0.23326,-0.04553,-0.77162,0.08261
-0.00729,0.97985,-0.19962,-0.03807,-0.48343,0.06766
-0.02854,0.98511,-0.16953,-0.00573,-0.02059,0.07533
-0.03923,0.9878,-0.15071,-0.11472,0.28829,-0.00525
-0.03706,0.98887,-0.14412,-0.23853,0.27503,-0.09178
-0.03026,0.98966,-0.14023,-0.5287,0.13089,-0.40544
-0.02494,0.99108,-0.13087,-0.66133,0.23035,-0.3204
-0.02053,0.9928,-0.11803,-0.78602,0.52971,0.13497
-0.00949,0.99289,-0.11868,0.32288,-0.03456,0.44075
0.00859,0.99153,-0.12963,0.53766,-0.02699,0.34244
0.02031,0.99229,-0.12223,0.54083,0.24452,-0.18285
0.02361,0.99401,-0.10675,0.81068,1.5883,-0.75665
0.03046,0.99455,-0.09973,0.89498,2.29964,-0.02526
0.05289,0.99323,-0.10342,-0.05073,-0.00608,0.0189
0.06082,0.99285,-0.1027,-0.01252,0.01121,0.01741
0.05502,0.99294,-0.10504,0.04857,0.1054,0.02359
0.04483,0.99355,-0.10417,0.03597,0.00792,0.14509
0.03859,0.99414,-0.10102,-0.09628,-0.10415,0.11372
0.03494,0.99485,-0.0951,-0.16782,-0.18193,0.11428
0.03184,0.99572,-0.08677,-0.19478,-0.39718,0.07664
0.02815,0.99634,-0.0807,-0.14869,-0.4646,-0.00887
0.02326,0.99664,-0.07853,-0.02083,-0.4714,-0.04511
0.01847,0.99666,-0.07949,0.12186,-0.45904,-0.05344
0.01617,0.9965,-0.08202,0.22532,-0.48037,-0.06807
0.01637,0.99625,-0.08497,0.2283,-0.48972,-0.07125
0.01876,0.9958,-0.08965,0.24008,-0.39268,-0.09474
0.02191,0.99488,-0.0987,0.24453,-0.04981,-0.04876
0.02654,0.99293,-0.11567,0.26819,0.04862,-0.0001
0.03447,0.98927,-0.14198,0.30684,-0.12785,0.09819
0.04262,0.98242,-0.18176,0.28491,-0.21037,0.15481
0.04954,0.96926,-0.24101,0.03124,-0.00449,0.0891
0.05742,0.94488,-0.32234,-0.13192,0.29065,0.0296
0.06616,0.90849,-0.41264,-0.40254,1.3814,-0.16256
0.07702,0.87115,-0.48494,-0.48098,0.95321,-0.02345
0.09533,0.8403,-0.53368,-0.56539,0.44971,-0.2604
0.12637,0.81927,-0.5593,-0.25597,0.4939,-0.42765
0.15458,0.80496,-0.57283,-0.11784,0.40884,-0.22693
0.17635,0.79772,-0.57667,-0.04649,0.21974,-0.21624
0.19357,0.80068,-0.56696,0.07892,0.18419,-0.12786
0.20425,0.81301,-0.54525,0.05714,-0.10511,0.02557
0.20646,0.83181,-0.51523,-0.01406,-0.27455,0.03229
0.20094,0.8531,-0.4815,-0.07932,-0.36578,0.02726
0.18592,0.87319,-0.45053,-0.10444,-0.48892,0.06523
0.16008,0.89256,-0.42155,-0.06024,-0.59575,0.07385
0.12567,0.91225,-0.38988,0.06662,-0.58986,0.04942
0.08691,0.931,-0.35453,0.06618,-0.52841,0.10523
0.05068,0.94623,-0.3195,0.03671,-0.4747,0.14493
0.02771,0.96074,-0.27608,0.00032,-0.42579,0.27076
0.01198,0.97342,-0.22873,-0.25047,-0.23106,0.08578
-0.0006,0.98181,-0.18984,-0.30543,-0.17835,-0.0212
-0.00916,0.98616,-0.16556,-0.31499,-0.12785,-0.11886
-0.01305,0.98772,-0.15566,-0.16345,-0.08419,-0.08111
-0.01074,0.98818,-0.15294,-0.10746,-0.08139,-0.07492
-0.00441,0.98921,-0.14644,-0.27728,-0.1284,0.01196
0.0025,0.99108,-0.13323,-0.32185,-0.09547,-0.00666
0.00804,0.99243,-0.12257,-0.41963,0.23382,-0.41736
0.007,0.99285,-0.11918,-0.54638,0.64698,0.0692
0.00751,0.99342,-0.11425,0.28169,0.00191,0.37176
0.01606,0.99371,-0.11079,0.51903,-0.06911,0.22483
0.02246,0.99548,-0.09231,0.44331,0.15401,0.09674
0.01843,0.99794,-0.06147,0.76758,1.2722,-0.54483
0.01909,0.99939,-0.02925,1.06204,2.51421,-0.23758
0.05422,0.99831,-0.02079,0.14286,0.07993,-0.14724
0.06976,0.99734,-0.02119,-0.19101,-0.33859,-0.11698
0.06319,0.9975,-0.03171,-0.01404,-0.05075,0.16513
0.05048,0.99791,-0.04023,-0.06795,-0.02961,0.14211
0.04185,0.99835,-0.03938,-0.05935,-0.04855,0.13159
0.03784,0.99881,-0.0307,-0.22676,-0.19388,0.17624
0.03552,0.99921,-0.01791,-0.32482,-0.19919,0.16015
0.03447,0.9994,-0.00398,-0.2616,-0.26891,0.08429
0.03118,0.9995,0.00418,-0.21488,-0.30122,-0.00511
0.02655,0.99963,0.00518,0.05587,-0.3456,-0.25669
0.02446,0.9997,0.0022,0.13611,-0.35849,-0.26522
0.0273,0.99962,-0.00303,0.26672,-0.49933,-0.19186
0.03101,0.99945,-0.01206,0.25458,-0.49856,-0.18036
0.03255,0.99913,-0.02621,0.20565,-0.37747,-0.19011
0.03041,0.99852,-0.04513,0.24528,-0.16707,-0.12647
0.02763,0.99728,-0.06829,0.36045,0.02405,-0.05113
0.0263,0.9949,-0.09739,0.37784,-0.02818,0.08836
0.02604,0.9902,-0.13718,0.40678,-0.25966,0.36982
0.02487,0.98049,-0.19501,0.17208,-0.22807,0.3676
0.03011,0.96209,-0.27106,-0.18337,0.19167,0.14512
0.04547,0.9322,-0.35908,-0.39116,0.82557,-0.26174
0.07025,0.8976,-0.43517,-0.68481,1.58326,-0.4036
0.10071,0.87116,-0.48055,-0.92567,0.94463,-0.31938
0.14207,0.85361,-0.50116,-0.5928,0.33128,-0.40275
0.18244,0.84178,-0.50805,-0.10144,0.15367,-0.25577
0.20979,0.83531,-0.50819,0.11292,0.21717,-0.18798
0.22664,0.83647,-0.49896,0.09433,0.27333,-0.14103
0.23446,0.84462,-0.48129,0.10896,0.21923,-0.06799
0.23379,0.85848,-0.45646,-0.06787,-0.14933,0.10456
0.22515,0.87709,-0.4243,-0.13218,-0.35121,0.12639
0.20931,0.89791,-0.38723,-0.11979,-0.42747,0.09902
0.18635,0.91876,-0.34806,-0.07161,-0.69865,-0.02349
0.15784,0.93687,-0.31202,-0.01475,-0.74939,-0.0239
0.12376,0.95168,-0.28107,0.03032,-0.71289,0.00435
0.08379,0.96414,-0.25183,-0.03862,-0.74925,0.04881
0.0432,0.97561,-0.21521,-0.14092,-0.36607,0.11977
0.00828,0.98396,-0.17818,-0.30766,-0.0669,0.10933
-0.01417,0.98783,-0.15487,-0.31336,0.01792,0.1097
-0.02461,0.98913,-0.14493,-0.22932,-0.00867,-0.05157
-0.02442,0.98923,-0.14435,-0.26844,-0.05691,-0.27033
-0.01519,0.98983,-0.14142,-0.4786,0.0268,-0.16483
-0.00648,0.99142,-0.13057,-0.51084,0.13525,-0.14492
-0.00259,0.99251,-0.12212,-0.47965,0.25801,0.35346
0.00622,0.99237,-0.12315,0.13416,0.26303,0.40773
0.01467,0.99212,-0.12445,0.33006,0.31222,0.33421
0.02145,0.99248,-0.12054,0.93026,0.98659,-1.07857
0.03319,0.99292,-0.11405,1.15788,1.75139,-0.40229
0.05103,0.99129,-0.12144,0.63749,0.5266,0.0457
0.05445,0.99134,-0.11953,0.05915,-0.055,-0.00262
0.03939,0.99235,-0.11696,0.19984,0.20042,-0.0176
0.02142,0.99406,-0.10674,0.19574,0.25874,0.08715
0.00734,0.9962,-0.08682,-0.09457,-0.00399,0.14463
-0.00727,0.9981,-0.06114,-0.15281,-0.17539,0.15045
-0.022,0.99916,-0.03461,-0.16396,-0.2252,0.08745
-0.03844,0.99918,-0.01288,-0.0891,-0.22292,-0.02201
-0.05589,0.99844,0.00111,0.05846,-0.25019,-0.09102
-0.07232,0.99735,0.00774,0.21451,-0.30498,-0.07919
-0.08651,0.99621,0.00881,0.35244,-0.38733,-0.06145
-0.09828,0.99514,0.00572,0.45776,-0.40202,-0.08409
-0.10796,0.99415,-0.00065,0.48744,-0.30078,-0.10747
-0.11655,0.99315,-0.00837,0.48096,-0.16101,-0.06072
-0.12472,0.99212,-0.01229,0.5097,-0.1285,-0.03358
-0.13167,0.99122,-0.01228,0.5262,-0.16193,-0.02205
-0.13837,0.99032,-0.01077,0.49748,-0.14611,-0.03281
-0.14644,0.98916,-0.01104,0.45959,-0.1328,-0.03466
-0.15595,0.98762,-0.01682,0.3033,-0.17047,-0.02747
-0.16734,0.9853,-0.03446,0.24143,-0.12064,0.1216
-0.17745,0.98173,-0.06865,-0.29743,0.35594,0.05623
-0.17767,0.97742,-0.1144,-0.46064,0.47,0.09988
-0.16729,0.97112,-0.17011,-0.55399,0.48071,0.19125
-0.14669,0.96212,-0.2298,-0.57849,0.64147,0.32369
-0.10943,0.95311,-0.28214,-0.56012,0.98437,0.22144
-0.05018,0.94629,-0.31941,-0.17396,1.22531,-0.20329
0.01671,0.94123,-0.33735,0.34185,0.89292,-0.35094
0.07817,0.93556,-0.3444,0.56705,0.64764,-0.2846
0.12604,0.92858,-0.34909,0.52806,0.6244,-0.10692
0.16086,0.92112,-0.3545,0.2815,0.36848,0.04829
0.17616,0.91666,-0.35875,0.02243,0.02369,0.11752
0.17288,0.91651,-0.36072,-0.198,-0.33691,0.32823
0.1576,0.91863,-0.36233,-0.19555,-0.39797,0.29598
0.13468,0.92231,-0.36222,-0.18305,-0.45335,0.30991
0.10694,0.9267,-0.36026,-0.17981,-0.55712,0.41931
0.07878,0.93168,-0.35462,-0.19787,-0.58157,0.38308
0.0542,0.93868,-0.3405,-0.21121,-0.59563,0.30339
0.03339,0.94751,-0.31796,-0.25477,-0.55692,0.19821
0.01594,0.95574,-0.29379,-0.28121,-0.51958,0.17547
0.00155,0.96163,-0.27435,-0.33948,-0.28406,-0.10099
-0.00618,0.96278,-0.27021,-0.10919,0.45272,-0.2874
-0.00221,0.95823,-0.28599,0.19378,0.79334,-0.17865
0.01369,0.95051,-0.31038,0.31132,0.58153,-0.1379
0.0393,0.94118,-0.33561,0.17569,-0.24918,-0.41125
0.06009,0.93333,-0.35395,-0.08686,0.19561,-0.29482
0.07542,0.92711,-0.36712,0.2659,0.94054,-0.00325
0.10307,0.92554,-0.36434,0.32179,0.19583,0.60984
0.11877,0.92954,-0.34908,-0.41505,-0.32619,-0.04738
0.11472,0.93299,-0.34112,-0.22199,-0.03167,-0.03531
0.09289,0.93954,-0.32959,-0.1196,-0.32298,0.38816
0.05498,0.94966,-0.30842,0.22958,-0.24672,0.46969
0.01049,0.95706,-0.2897,0.27882,-0.03409,0.5096
-0.03017,0.96089,-0.2753,0.22348,0.44167,0.37001
-0.06178,0.96551,-0.25292,0.13861,0.62271,0.22211
-0.08025,0.97136,-0.22366,0.06473,0.08882,0.18921
-0.09065,0.97678,-0.19413,-0.04306,-0.18169,0.03586
-0.10157,0.98056,-0.16787,0.00189,-0.27181,0.07048
-0.11533,0.9827,-0.14487,0.01623,-0.28434,0.12818
-0.13099,0.98366,-0.12348,0.01566,-0.21777,0.10254
-0.14551,0.98404,-0.10239,0.10709,-0.18859,0.07393
-0.1582,0.98407,-0.08109,0.15243,-0.16275,0.10103
-0.17129,0.98337,-0.06027,0.16304,-0.15842,0.16529
-0.18654,0.98169,-0.03852,0.14399,-0.06821,0.14574
-0.20562,0.97854,-0.01328,0.16192,0.12365,0.01673
-0.22608,0.97399,0.01534,0.20058,0.14868,-0.13819
-0.24291,0.96932,0.03763,0.37139,0.11522,-0.16879
-0.25262,0.96643,0.0468,0.54896,0.18982,-0.1172
-0.25713,0.96531,0.04538,0.60405,0.3433,-0.00628
-0.25714,0.96568,0.03654,0.60217,0.35651,0.08406
-0.25234,0.96749,0.01716,0.47938,0.49931,0.10113
-0.23886,0.97097,-0.01288,0.40058,0.43629,0.14554
-0.21593,0.97498,-0.05291,0.25951,0.15204,0.12606
-0.19046,0.97627,-0.10309,0.00952,0.18541,0.19626
-0.16526,0.97342,-0.15857,-0.17798,0.27454,0.21695
-0.14032,0.96699,-0.2127,-0.4518,0.71299,0.47463
-0.11849,0.95849,-0.25936,-0.26605,0.48255,0.34645
-0.09287,0.94958,-0.29944,0.06933,0.42092,0.13492
-0.05954,0.94204,-0.33017,0.24279,0.33907,0.06586
-0.02503,0.93406,-0.35623,0.22124,0.23557,0.09895
0.00667,0.92465,-0.38075,0.12683,0.07225,0.18671
0.02963,0.91448,-0.40355,0.06511,-0.11318,0.30494
0.04451,0.90406,-0.42508,-0.00274,-0.24142,0.3638
0.0472,0.89569,-0.44217,-0.03749,-0.35758,0.46964
0.03703,0.89094,-0.45261,-0.06734,-0.46418,0.53336
0.01944,0.88936,-0.4568,-0.07637,-0.54298,0.52783
-0.00123,0.89074,-0.4545,-0.1352,-0.49043,0.40482
-0.02194,0.89543,-0.44465,-0.18405,-0.41432,0.24403
-0.03732,0.9031,-0.4278,-0.20659,-0.32463,0.11109
-0.04371,0.91262,-0.40646,-0.23762,-0.19963,0.0272
-0.04137,0.92219,-0.38451,-0.26861,-0.10115,0.00577
-0.03279,0.93045,-0.36495,-0.20874,0.44012,-0.19809
-0.01926,0.93644,-0.3503,0.03113,0.59686,-0.30651
-0.0077,0.93819,-0.34605,0.02695,0.4198,-0.28052
0.00265,0.9354,-0.35357,0.21412,-0.14597,-0.19512
0.01492,0.93095,-0.36484,0.38629,-0.29506,-0.1812
0.02547,0.92899,-0.36923,0.24761,-0.13329,-0.1728
0.0383,0.92805,-0.37048,0.35351,1.13642,0.18576
0.04723,0.92895,-0.36717,0.42344,1.31774,0.70115
0.04794,0.93122,-0.3613,-0.48161,-0.12151,0.12625
0.0389,0.93308,-0.35757,-0.36336,-0.29727,0.1529
0.02243,0.93825,-0.34522,0.08261,-0.46773,0.5457
-0.00359,0.94642,-0.32293,0.22191,-0.25879,0.52056
-0.03626,0.95418,-0.29702,0.278,-0.18426,0.5084
-0.06901,0.96053,-0.26948,0.14302,0.39259,0.37891
-0.09279,0.96617,-0.24064,-0.19314,0.5235,0.28642
-0.10193,0.97222,-0.21071,-0.10028,0.07476,0.1498
-0.10509,0.9776,-0.18238,-0.05109,-0.13374,0.07057
-0.10995,0.98117,-0.15878,0.08171,-0.23126,0.10933
-0.11755,0.98345,-0.13791,0.13511,-0.21747,0.13108
-0.1254,0.98488,-0.11951,0.20429,-0.21408,0.12555
-0.13363,0.98578,-0.10191,0.22818,-0.19612,0.12794
-0.1424,0.98648,-0.08113,0.22216,-0.19832,0.13136
-0.15229,0.98665,-0.05773,0.18419,-0.04237,0.11548
-0.16108,0.98643,-0.03189,0.171,0.12133,-0.03087
-0.1689,0.98563,-0.00339,0.09087,0.11024,-0.19105
-0.17463,0.9845,0.01627,0.08667,0.0242,-0.21838
-0.17587,0.9842,0.02043,0.19418,0.04171,-0.06483
-0.1716,0.98508,0.01336,0.22983,0.04189,-0.02839
-0.1604,0.98705,-0.00152,0.30461,0.07275,0.1118
-0.14522,0.989,-0.02814,0.38193,0.20985,0.06421
-0.12705,0.98973,-0.0655,0.38059,0.31485,-0.02881
-0.10097,0.98763,-0.11997,0.09409,0.21774,0.09383
-0.07327,0.97882,-0.19113,-0.08223,0.2489,0.14881
-0.04636,0.96192,-0.26936,-0.39992,0.50564,0.25607
-0.01996,0.94016,-0.34015,-0.62432,0.87622,0.364
0.00918,0.91975,-0.39241,-0.62291,0.61683,0.3182
0.04279,0.90242,-0.42872,-0.27076,0.32643,0.11546
0.07791,0.88584,-0.4574,0.16925,0.36356,0.04663
0.1084,0.8693,-0.48225,0.22022,0.33744,0.09965
0.12902,0.85389,-0.50421,0.19723,0.24814,0.11907
0.14279,0.84165,-0.52081,0.04328,-0.16162,0.15437
0.14779,0.83402,-0.53157,-0.00634,-0.31599,0.25959
0.14231,0.83234,-0.53569,-0.02042,-0.37018,0.2982
0.13002,0.83613,-0.5329,-0.05516,-0.50765,0.32568
0.11443,0.84467,-0.52292,-0.00209,-0.64835,0.30403
0.09589,0.85702,-0.50628,0.05435,-0.7102,0.25889
0.0753,0.87109,-0.48531,0.08687,-0.7214,0.301
0.05561,0.88458,-0.46306,0.02944,-0.74992,0.33482
0.03738,0.89768,-0.43905,-0.08217,-0.75726,0.32724
0.01841,0.91143,-0.41103,-0.14539,-0.70318,0.23188
-0.00124,0.92462,-0.38089,-0.1488,-0.55231,0.18135
-0.02047,0.93549,-0.35275,-0.19157,-0.26774,0.13722
-0.04053,0.94396,-0.32757,-0.20619,0.06747,0.14881
-0.05977,0.95028,-0.30562,-0.21759,0.32012,0.1346
-0.07199,0.95473,-0.28863,-0.21682,0.40971,0.01776
-0.07091,0.96024,-0.27003,-0.19574,0.07269,-0.08543
-0.06079,0.96744,-0.24571,-0.13814,-0.13144,-0.11638
-0.04614,0.97447,-0.21974,-0.16207,-0.15759,-0.08962
-0.03153,0.9804,-0.19447,-0.31848,0.11031,-0.05811
-0.02297,0.98562,-0.16741,-0.23971,0.73092,0.346
-0.00924,0.98875,-0.14926,0.32799,0.1122,0.43049
0.00532,0.98916,-0.14674,0.60608,0.16384,-0.11814
0.01312,0.98955,-0.1436,0.34496,1.54599,-0.54611
0.02125,0.98879,-0.14777,0.77035,2.16158,0.11475
0.06756,0.98279,-0.17191,0.37886,0.19291,-0.08858
0.07994,0.97988,-0.18289,-0.30911,-0.62134,0.30931
0.06638,0.97977,-0.18879,0.12155,-0.28418,0.24967
0.04684,0.98087,-0.18893,0.17044,-0.16868,0.09558
0.03184,0.9836,-0.17753,-0.08833,-0.09262,0.32281
0.02161,0.98694,-0.15962,-0.15151,-0.00896,0.31345
0.01719,0.99031,-0.13781,-0.2283,0.00965,0.25361
0.01828,0.99281,-0.11833,-0.21814,-0.13993,-0.05821
0.0185,0.99366,-0.1109,-0.19825,-0.22019,-0.15844
0.01923,0.99345,-0.11266,0.09016,-0.36933,-0.10761
0.02255,0.99263,-0.11903,0.2459,-0.50231,0.04323
0.02826,0.99071,-0.133,0.34682,-0.51079,-0.06883
0.03547,0.9874,-0.1542,0.26922,-0.47376,-0.02426
0.04077,0.98306,-0.17868,0.21393,-0.4194,0.00179
0.04238,0.97738,-0.2072,0.25143,-0.23641,0.10274
0.0417,0.97032,-0.23819,0.43742,-0.13879,0.13625
0.03753,0.96217,-0.26986,0.44982,-0.16424,0.18418
0.03078,0.95148,-0.30617,0.47618,-0.24851,0.32049
0.02671,0.93581,-0.3515,0.21095,0.1721,0.00716
0.02894,0.91275,-0.4075,0.06934,0.51605,-0.06493
0.03708,0.88378,-0.46643,-0.2973,1.32984,-0.22223
0.04618,0.85653,-0.51403,-0.846,0.75994,-0.05183
0.06304,0.83445,-0.54747,-0.79241,0.50662,-0.23472
0.0894,0.81871,-0.5672,-0.41821,0.54132,-0.29765
0.11118,0.8105,-0.57509,-0.11728,0.4041,-0.19363
0.13135,0.81031,-0.57109,0.13783,0.16307,-0.20916
0.15148,0.81685,-0.5566,0.03102,0.22505,0.01823
0.1667,0.82711,-0.53675,-0.06129,0.03483,0.15785
0.17163,0.84056,-0.51381,-0.14627,-0.16231,0.22637
0.16748,0.85646,-0.48829,-0.12811,-0.31279,0.24771
0.15693,0.87316,-0.46149,-0.11646,-0.45047,0.23138
0.13972,0.88986,-0.43431,-0.09874,-0.55034,0.16957
0.11446,0.9069,-0.40549,-0.01851,-0.67399,0.03947
0.08177,0.92273,-0.37667,-0.04752,-0.62947,0.07345
0.04696,0.93684,-0.34659,0.03335,-0.56958,0.07068
0.0119,0.94941,-0.31383,0.0306,-0.46224,-0.02181
-0.01991,0.95916,-0.28216,-0.01837,-0.29191,-0.11794
-0.041,0.96578,-0.25612,0.00566,-0.0531,-0.10701
-0.04996,0.96959,-0.2396,0.03295,0.0392,-0.07827
-0.04872,0.97147,-0.2321,-0.15554,-0.14573,-0.04757
-0.04519,0.97281,-0.22714,-0.51452,0.01159,-0.04436
-0.04394,0.97624,-0.21218,-0.70809,0.30441,0.02776
-0.04109,0.9799,-0.1952,-0.8306,0.70563,0.14639
-0.02984,0.9811,-0.19118,0.49492,-0.12363,0.30042
-0.01194,0.98036,-0.19687,0.59293,-0.04261,0.16492
-0.00087,0.98247,-0.18639,0.58023,0.11988,0.04011
0.00771,0.98409,-0.1775,0.85525,1.93186,-0.09899
0.02886,0.98251,-0.18394,0.40077,0.90842,0.25941
0.05115,0.98083,-0.18805,0.08787,0.03549,0.08396
0.0509,0.98092,-0.18761,0.19842,0.07154,0.03343
0.0387,0.98218,-0.18394,0.24185,0.06261,0.05549
0.02683,0.98439,-0.17393,0.2374,0.01848,0.1335
0.01915,0.98691,-0.16012,-0.05664,-0.10669,0.16395
0.01324,0.9898,-0.14187,-0.12277,-0.14081,0.18782
0.00787,0.99249,-0.12206,-0.18659,-0.24187,0.07519
0.00193,0.99456,-0.10414,-0.07885,-0.24944,-0.04276
-0.00297,0.9958,-0.09154,-0.00444,-0.25794,-0.07907
-0.00476,0.99644,-0.08415,0.11395,-0.33938,-0.06661
-0.00396,0.9964,-0.08473,0.18105,-0.37263,-0.07837
-0.00175,0.99572,-0.09237,0.25796,-0.44371,-0.03608
-0.00029,0.99448,-0.10491,0.29772,-0.34768,-0.03068
0.00018,0.99274,-0.12026,0.34149,-0.21397,-0.01454
0.00088,0.99047,-0.13774,0.38947,-0.13662,0.01029
0.00462,0.98751,-0.15748,0.45981,-0.12046,0.08768
0.00851,0.98311,-0.18281,0.44817,-0.25437,0.17479
0.00781,0.97588,-0.21817,0.34113,-0.22011,0.27823
0.0038,0.96361,-0.26728,0.02268,0.04013,0.17067
0.00249,0.9446,-0.32822,-0.27792,0.6912,-0.10091
0.00693,0.91854,-0.39526,-0.47671,1.30698,0.00096
0.01579,0.89073,-0.45426,-0.73667,0.82775,0.14262
0.02921,0.86676,-0.49788,-0.76476,0.48638,-0.00476
0.05468,0.8475,-0.52797,-0.5686,0.57692,-0.32436
0.08577,0.8318,-0.54842,-0.09407,0.67309,-0.32477
0.11144,0.82131,-0.5595,0.10043,0.54353,-0.21544
0.13788,0.81707,-0.55981,0.15857,0.42394,-0.17656
0.16198,0.81875,-0.55083,0.1512,0.23649,0.00918
0.17933,0.82541,-0.5353,-0.04038,-0.11062,0.14261
0.18901,0.8341,-0.51822,-0.07845,-0.32229,0.37314
0.18481,0.84697,-0.49848,-0.09096,-0.4556,0.15229
0.16788,0.86124,-0.47967,-0.04572,-0.57167,0.23896
0.14087,0.87598,-0.46133,-0.02543,-0.55605,0.27464
0.10884,0.89162,-0.43952,0.04007,-0.76439,0.27349
0.07389,0.90817,-0.41202,0.00571,-0.7549,0.20146
0.03771,0.92459,-0.37909,-0.0113,-0.76021,0.13718
0.00168,0.93931,-0.34308,-0.05913,-0.65108,0.07968
-0.03158,0.95263,-0.3025,-0.09617,-0.53551,0.00755
-0.0628,0.96417,-0.25775,-0.06027,-0.22979,-0.08507
-0.08937,0.97155,-0.21931,-0.0673,-0.02247,-0.08843
-0.10354,0.9744,-0.19955,-0.22141,0.34117,0.08058
-0.10308,0.97489,-0.1974,-0.24553,0.08807,-0.02828
-0.09137,0.97553,-0.2,-0.18623,-0.07811,-0.10575
-0.07073,0.9782,-0.19527,-0.28171,0.13702,-0.03346
-0.0468,0.98129,-0.18679,-0.20118,0.41698,0.22252
-0.03359,0.98159,-0.18805,0.02586,0.45459,0.26761
-0.01554,0.9812,-0.19236,0.59836,0.20428,0.06088
0.00329,0.98239,-0.18682,0.57954,0.2031,0.05533
0.00712,0.98424,-0.17669,0.71069,1.91353,-0.16207
0.01887,0.98281,-0.18368,0.70354,0.53692,0.04267
0.04504,0.98093,-0.18905,0.43659,0.19875,0.09709
0.04824,0.98086,-0.18864,0.02569,-0.11435,0.27193
0.03552,0.98213,-0.18483,0.04671,-0.04606,0.2681
0.02136,0.98364,-0.17886,0.02353,0.01523,0.16923
0.01168,0.98615,-0.16546,-0.17647,-0.12149,0.21745
0.00443,0.98938,-0.14531,-0.17807,-0.11494,0.18968
-0.00051,0.99248,-0.12239,-0.15343,-0.09809,0.16504
-0.00463,0.99431,-0.10643,-0.09592,-0.12326,-0.00029
-0.00885,0.99471,-0.10231,0.02387,-0.16148,-0.02423
-0.01224,0.9942,-0.10681,0.09176,-0.21324,0.01571
-0.01433,0.99295,-0.11765,0.26145,-0.41194,0.02353
-0.01528,0.99088,-0.13389,0.25454,-0.50077,-0.01707
-0.01641,0.98848,-0.15048,0.18542,-0.45308,-0.06163
-0.0174,0.98598,-0.16594,0.22141,-0.26604,-0.04638
-0.01571,0.98321,-0.1818,0.2705,-0.04942,-0.02841
-0.01112,0.9799,-0.19917,0.37094,-0.00619,0.04939
