gravity.x,gravity.y,gravity.z,userAcceleration.x,userAcceleration.y,userAcceleration.z
0.44726,0.89257,-0.05721,-0.04744,-0.19509,-0.19454
0.4375,0.89763,-0.05343,0.0532,-0.27025,-0.34974
0.43396,0.89872,-0.06305,0.07115,-0.47416,-0.25781
0.43476,0.89672,-0.08292,-0.00207,-0.50478,0.01653
0.43679,0.89469,-0.0935,0.10726,-0.31078,-0.0646
0.43983,0.89172,-0.10666,0.11478,-0.25412,-0.00834
0.43888,0.88819,-0.13601,0.16939,-0.23665,0.10498
0.43418,0.88666,-0.15911,0.33513,-0.13376,0.21047
0.42924,0.88585,-0.17612,0.33087,-0.13424,0.10226
0.42584,0.88353,-0.19499,0.31915,-0.11927,0.0065
0.42036,0.88058,-0.21878,0.15428,-0.08021,-0.12962
0.40988,0.87525,-0.25678,0.19478,-0.02515,0.01319
0.3984,0.86381,-0.30841,0.20697,0.06799,0.09404
0.38153,0.84601,-0.37242,0.1514,0.58207,-0.11028
0.34965,0.82463,-0.44467,0.15201,0.85352,0.28355
0.31073,0.80351,-0.50776,0.15557,0.91471,0.49258
0.27764,0.78174,-0.55839,0.20295,0.9082,0.55801
0.26538,0.76093,-0.59208,-0.17641,1.20896,-0.33908
0.26257,0.742,-0.61684,-0.00766,0.86062,-0.35313
0.2608,0.73251,-0.62882,-0.10478,-0.0126,0.26386
0.26727,0.73279,-0.62577,-0.13751,0.04532,0.54456
0.27801,0.73767,-0.61527,-0.14474,0.00398,0.55651
0.28715,0.74841,-0.59785,-0.17761,-0.19295,0.42641
0.29324,0.76344,-0.57547,-0.32072,-0.39192,0.40605
0.29695,0.78275,-0.54693,-0.34216,-0.46007,0.42701
0.2951,0.80557,-0.51379,-0.22924,-0.46896,0.51431
0.28662,0.83,-0.47849,-0.13895,-0.40988,0.51599
0.27701,0.85489,-0.43868,0.00537,-0.29156,0.47412
0.27455,0.87912,-0.38957,0.08284,-0.27301,0.39447
0.28274,0.89902,-0.33439,0.04529,0.12933,-0.23444
0.29478,0.90993,-0.29177,-0.0173,0.11947,-0.4219
0.30202,0.91869,-0.25453,-0.17576,-0.00741,-0.32398
0.30578,0.92478,-0.22646,-0.24238,-0.17467,0.04229
0.31541,0.92607,-0.20714,-0.2567,-0.13119,0.1319
0.33639,0.92319,-0.18591,-0.23059,0.09825,0.12299
0.36002,0.91862,-0.16285,-0.42925,0.36007,-0.24766
0.37273,0.91594,-0.14875,-0.54875,0.1945,-0.1155
0.37498,0.91462,-0.15122,-0.3555,-0.22596,0.39225
0.37697,0.91138,-0.16515,-0.03781,-0.32667,0.47123
0.37436,0.9073,-0.19145,0.22387,-0.07701,0.27036
0.36468,0.91341,-0.1808,0.86057,0.57153,0.21935
0.34952,0.91975,-0.1786,1.80583,2.81397,-1.16829
0.34195,0.91979,-0.19251,1.32748,2.16386,-0.476
0.3404,0.91533,-0.21519,0.21606,-0.34832,1.09301
0.34837,0.90969,-0.22605,0.2345,-0.40688,0.40169
0.35471,0.91105,-0.21015,0.17535,-0.1866,0.54867
0.36551,0.91538,-0.16877,0.10518,0.31434,0.56927
0.37488,0.9198,-0.11589,-0.43445,-0.02036,-0.28143
0.3752,0.92302,-0.08516,-0.49439,-0.03969,-0.19542
0.36591,0.9284,-0.0647,-0.03178,-0.25623,-0.12701
0.34997,0.93548,-0.04904,0.15574,-0.28207,-0.19733
0.33316,0.94209,-0.03839,0.3044,-0.31507,-0.30526
0.31818,0.94756,-0.02966,0.33711,-0.43713,-0.36631
0.30694,0.9513,-0.02867,0.20957,-0.38689,-0.33463
0.29416,0.95499,-0.0382,0.10159,-0.38697,-0.24301
0.277,0.95915,-0.0575,0.43649,-0.33322,0.23519
0.26144,0.96247,-0.07275,0.41081,-0.35308,0.2727
0.25364,0.96404,-0.07938,0.34426,-0.3725,0.23534
0.24732,0.96582,-0.07759,0.45982,-0.21059,-0.03168
0.23671,0.96865,-0.07533,0.4395,-0.17848,-0.04858
0.22634,0.97146,-0.07097,0.46129,-0.23129,-0.09633
0.215,0.9741,-0.06997,0.33813,-0.34309,-0.32211
0.20311,0.9757,-0.08221,0.62456,-0.13498,0.01089
0.19382,0.97423,-0.11534,0.62166,0.10757,-0.0027
0.19153,0.96904,-0.15584,0.36211,0.4937,0.24702
0.1905,0.96053,-0.2027,0.33106,0.90534,0.82585
0.19031,0.94805,-0.25492,0.19138,1.98905,-0.09753
0.18093,0.93287,-0.31149,0.01208,1.78942,0.38656
0.17887,0.91406,-0.36401,-0.16384,0.77151,0.09111
0.18141,0.88867,-0.42113,0.26905,0.4022,0.16813
0.17594,0.8692,-0.46211,0.52222,0.08196,0.24865
0.17745,0.85311,-0.49062,0.65285,0.22029,0.19603
0.18958,0.84162,-0.5057,0.4541,0.11741,0.36052
0.19646,0.83427,-0.51516,0.07266,-0.11645,0.62283
0.18891,0.83117,-0.52295,-0.26734,-0.4843,0.79138
0.17119,0.83413,-0.52432,-0.22306,-0.58482,0.80097
0.15462,0.84081,-0.51877,-0.1955,-0.52679,0.75515
0.14513,0.84949,-0.50725,-0.27088,-0.40941,0.65574
0.14213,0.85751,-0.49444,-0.33259,-0.35929,0.54568
0.14343,0.86483,-0.48114,-0.36472,-0.38688,0.36454
0.14971,0.87278,-0.46458,-0.37308,-0.3901,0.14289
0.16068,0.88291,-0.44118,-0.34979,-0.31722,0.11616
0.16813,0.89632,-0.41029,-0.17419,-0.07724,0.00163
0.16737,0.90976,-0.37989,0.4652,0.73536,-0.91045
0.15574,0.91646,-0.36857,0.69196,0.92058,-1.13552
0.14906,0.91143,-0.38351,0.83342,0.51911,-0.98325
0.16241,0.9022,-0.39957,0.29046,-0.35031,-0.5572
0.18319,0.8982,-0.3996,0.21956,-0.52751,-0.4994
0.20371,0.89979,-0.38584,0.21612,-0.57177,-0.16816
0.22843,0.90585,-0.35672,0.21797,0.55748,0.49757
0.24373,0.91479,-0.32212,0.1441,1.36732,0.35833
0.20843,0.91495,-0.34556,-0.00149,2.22782,-0.46062
0.17994,0.90998,-0.37356,-0.60207,-1.24139,1.10692
0.17909,0.91535,-0.36062,-0.31639,-1.08187,0.80296
0.18005,0.92508,-0.33438,0.346,-0.11317,1.11536
0.1572,0.93563,-0.31604,0.3486,0.13743,0.95656
0.10958,0.94465,-0.30924,0.42603,0.63952,0.75594
0.08977,0.9568,-0.27655,1.14765,0.53908,0.1972
0.10728,0.96475,-0.24031,0.60773,-0.24673,0.20835
0.12674,0.97106,-0.20242,0.32692,-0.29466,0.35409
0.15854,0.97463,-0.158,0.03378,-0.14108,0.27065
0.19142,0.97575,-0.10614,-0.17267,-0.08547,0.07115
0.2134,0.97506,-0.06092,-0.24981,0.02842,-0.21174
0.21985,0.97516,-0.02693,-0.1429,-0.18125,-0.05344
0.22106,0.97525,0.00405,0.05169,-0.25612,-0.26145
0.22004,0.97505,0.0291,0.29114,-0.12389,-0.27269
0.21532,0.97532,0.04878,0.34542,0.00449,-0.21846
0.20909,0.97559,0.06703,0.32514,-0.03965,-0.26108
0.20312,0.97563,0.08298,0.30201,-0.11178,-0.26894
0.20012,0.97492,0.09734,0.31083,-0.15255,-0.14243
0.1944,0.97449,0.11215,0.31009,-0.11736,-0.11816
0.1848,0.97475,0.12536,0.28856,-0.12497,-0.09613
0.17686,0.97485,0.13562,0.35871,-0.08128,-0.07127
0.17033,0.97493,0.14317,0.44756,0.07938,-0.17004
0.16727,0.97382,0.15391,0.42912,0.32513,-0.21472
0.16832,0.97265,0.16002,0.47607,0.36716,-0.33096
0.16728,0.97434,0.15056,0.48411,0.19727,-0.41167
0.16327,0.97805,0.12945,0.50253,0.17234,-0.4158
0.15967,0.98315,0.08899,0.53316,-0.08163,-0.38435
0.15292,0.98757,0.0364,0.79862,0.24882,-0.05747
0.14234,0.98958,-0.02171,0.82749,0.25659,0.25736
0.13965,0.98725,-0.07634,0.67641,0.06562,0.61659
0.13749,0.98223,-0.12775,0.44756,0.42433,0.21915
0.13525,0.97317,-0.18613,0.56203,0.48824,-0.00748
0.12854,0.96356,-0.23458,0.65018,0.45729,0.31693
0.11942,0.95374,-0.27589,0.52497,0.26869,0.35056
0.11134,0.94392,-0.31083,0.39579,-0.03009,0.26514
0.11068,0.93358,-0.34084,0.43682,-0.07595,0.33493
0.11518,0.9239,-0.36488,0.35422,-0.20144,0.38551
0.12003,0.91763,-0.37887,0.28116,-0.34265,0.51953
0.12004,0.91339,-0.38898,0.2186,-0.43076,0.57654
0.11172,0.91238,-0.39379,0.13922,-0.4499,0.62953
0.10575,0.9148,-0.38981,-0.02735,-0.3822,0.52495
0.10475,0.91924,-0.37949,-0.17585,-0.33128,0.49691
0.11017,0.92361,-0.36715,-0.22993,-0.22984,0.346
0.12319,0.9274,-0.35319,-0.19872,-0.22033,0.25816
0.14006,0.93062,-0.33812,-0.18797,-0.22341,0.15655
0.15762,0.93385,-0.32105,-0.19912,-0.29654,-0.04326
0.17119,0.93905,-0.29812,-0.1287,-0.26223,-0.16448
0.1792,0.94736,-0.26532,0.29573,0.0128,-0.65384
0.18771,0.95552,-0.22749,0.42802,0.20804,-0.78038
0.19843,0.95921,-0.20134,0.56715,0.49907,-0.87605
0.21078,0.957,-0.19928,0.32934,0.36058,-0.75181
0.23,0.95032,-0.20974,0.01043,0.07654,-0.64259
0.24873,0.94524,-0.21134,-0.24584,-0.37053,-0.5294
0.26447,0.94309,-0.20157,0.23212,0.37481,0.65707
0.27259,0.94457,-0.18296,0.25562,0.79678,0.57276
0.25635,0.94572,-0.19973,0.15196,1.36397,-0.75955
0.24708,0.94395,-0.21886,-0.30035,-0.82567,0.83153
0.25147,0.94539,-0.20737,-0.22986,-0.6994,0.6021
0.24923,0.95137,-0.18106,0.15214,-0.3365,0.66536
0.2232,0.96142,-0.16079,0.24348,0.01496,0.50381
0.1774,0.97315,-0.14668,0.39374,0.33685,0.43098
0.15665,0.98079,-0.11625,1.02059,0.81563,0.27185
0.16868,0.9831,-0.07116,0.50612,-0.28783,-0.05262
0.18774,0.9817,-0.03198,0.28216,-0.26473,-0.00172
0.21425,0.97673,0.00971,0.05433,-0.12752,0.00771
0.23872,0.96965,0.05288,-0.18857,-0.09611,-0.13415
0.26074,0.96116,0.09045,-0.20366,-0.00146,-0.1506
0.27256,0.95431,0.12247,-0.18583,-0.19297,-0.14188
0.27815,0.94914,0.1475,-0.00563,-0.13857,-0.15364
0.27653,0.94632,0.16733,0.06145,-0.10163,-0.14622
0.27119,0.94348,0.19052,0.16962,-0.04686,-0.19053
0.26325,0.93887,0.22184,0.2929,-0.06569,-0.40104
0.25647,0.93338,0.25104,0.31202,-0.07263,-0.44542
0.25346,0.92771,0.27407,0.20768,0.02652,-0.41132
0.24876,0.92357,0.29177,0.25211,0.11633,-0.5137
0.24473,0.92178,0.30069,0.27762,0.12882,-0.50366
0.24113,0.92198,0.303,0.37233,0.15241,-0.28885
0.23703,0.92414,0.29962,0.42171,0.2089,-0.33563
0.23646,0.92566,0.29535,0.42136,0.16914,-0.34076
0.24214,0.92744,0.285,0.39751,0.0817,-0.45823
0.24988,0.93101,0.26604,0.44838,0.16131,-0.43447
0.25817,0.93738,0.23379,0.45132,0.1451,-0.4515
0.26874,0.94514,0.18568,0.44775,0.15041,-0.07724
0.28179,0.95057,0.13043,0.06748,0.40701,0.02396
0.29532,0.95312,0.06591,-0.34333,0.27384,0.27079
0.29705,0.95486,-0.00176,-0.37582,0.3612,0.31778
0.28888,0.95433,-0.07616,0.00676,0.88179,0.06819
0.28007,0.94888,-0.14556,0.28754,0.82755,0.22318
0.27236,0.94015,-0.20478,0.32076,0.67228,0.46776
0.26898,0.92757,-0.25936,0.29308,-0.00661,0.16137
0.27273,0.91047,-0.31091,0.30848,-0.08018,0.14536
0.28056,0.89165,-0.3553,0.32704,-0.19607,0.21159
0.29016,0.87348,-0.39095,0.13633,-0.29664,0.25847
0.29136,0.85998,-0.41897,-0.10617,-0.41531,0.43994
0.28704,0.85079,-0.44018,-0.34536,-0.58462,0.55029
0.27948,0.84678,-0.45261,-0.43969,-0.68627,0.57116
0.27402,0.84797,-0.45371,-0.46736,-0.65159,0.48713
0.26969,0.85325,-0.44634,-0.41148,-0.53612,0.42571
0.26764,0.86035,-0.43378,-0.20509,-0.52971,0.24726
0.26971,0.86812,-0.41669,-0.02519,-0.50938,0.16797
0.27459,0.87756,-0.39304,-0.00454,-0.47371,0.14841
0.28001,0.88957,-0.36091,-0.05999,-0.40489,0.1567
0.28209,0.90381,-0.32181,-0.08395,-0.43061,0.18371
0.28192,0.91694,-0.28238,-0.11681,-0.45513,0.15187
0.28337,0.92689,-0.24612,-0.13003,-0.40675,0.17588
0.28754,0.93466,-0.20911,-0.11771,0.11626,0.06698
0.29975,0.94044,-0.16038,-0.12716,0.33906,-0.01608
0.32184,0.94147,-0.10025,-0.28454,0.45552,-0.31507
0.33926,0.93905,-0.05547,-0.39116,0.23679,-0.38337
0.34759,0.93726,-0.02706,-0.44684,0.13931,-0.34286
0.35257,0.93571,-0.01182,0.03217,-0.15899,0.06907
0.35033,0.93649,-0.0161,0.0344,-0.15977,0.07335
0.34262,0.93842,-0.04435,0.51529,0.35318,0.07758
0.33915,0.94022,-0.03094,1.25245,1.13349,-0.85012
0.34045,0.93947,-0.03864,0.87034,1.61121,-0.93723
0.33937,0.93847,-0.06394,0.55667,0.42841,0.50687
0.34053,0.93553,-0.09397,0.21018,-0.22895,0.63687
0.34856,0.93165,-0.10262,-0.087,-0.046,0.16338
0.35261,0.93194,-0.08457,-0.10646,0.01104,0.23111
0.3531,0.93343,-0.06343,-0.09755,-0.19944,-0.10074
0.35514,0.93341,-0.05111,-0.11874,-0.25459,-0.06924
0.35892,0.93223,-0.046,-0.31108,-0.39598,-0.36664
0.35888,0.93226,-0.04579,-0.44735,-0.40638,-0.32741
0.35333,0.9339,-0.05467,-0.14072,-0.44145,-0.20367
0.34748,0.9354,-0.06536,0.01627,-0.43454,0.04157
0.3426,0.93641,-0.07583,-0.00804,-0.44911,0.10505
0.33934,0.93679,-0.08527,0.13149,-0.4024,-0.02246
0.3374,0.93639,-0.09659,0.28372,-0.36326,-0.13039
0.33636,0.93545,-0.10857,0.62525,-0.28384,-0.19563
0.33338,0.93509,-0.12022,0.70455,-0.18375,-0.33277
0.33279,0.9329,-0.13763,0.6762,-0.12652,-0.35692
0.33571,0.92614,-0.17194,0.46516,0.1724,-0.34311
0.33641,0.91392,-0.2271,0.35137,0.40479,-0.3614
0.33164,0.89662,-0.29341,0.13751,0.82375,-0.25005
0.31984,0.8777,-0.35685,0.00539,0.8087,0.09874
0.30186,0.8581,-0.41539,0.02152,0.42134,0.26534
0.28312,0.84358,-0.45631,0.01945,0.40665,0.23896
0.28259,0.83432,-0.47334,0.14609,0.1474,-0.26799
0.28599,0.82845,-0.48154,0.10426,0.07342,-0.00628
0.30001,0.82992,-0.47034,-0.00733,0.05828,0.26545
0.31943,0.8339,-0.45009,-0.34931,-0.19097,0.42612
0.33525,0.84191,-0.42284,-0.51169,-0.38618,0.31607
0.34021,0.85387,-0.3939,-0.5598,-0.46422,0.26158
0.33659,0.86875,-0.36328,-0.44879,-0.48368,0.17157
0.32881,0.88495,-0.32977,-0.20494,-0.4409,0.12017
0.31923,0.90076,-0.29448,-0.05138,-0.34272,0.06265
0.3115,0.91408,-0.25965,0.1289,-0.20819,-0.02683
0.30758,0.92361,-0.22875,0.29662,-0.23366,0.06087
0.30721,0.93186,-0.19301,0.07819,-0.36532,0.02402
0.32003,0.93542,-0.15021,-0.07524,-0.25555,-0.15697
0.33988,0.93403,-0.10987,-0.2329,-0.15615,-0.2589
0.35607,0.93117,-0.07836,-0.35626,-0.09523,-0.19245
0.36787,0.92847,-0.0511,-0.452,-0.03498,-0.08731
0.37957,0.92499,-0.01804,-0.57903,0.16377,-0.23364
0.3883,0.92145,0.01262,-0.68337,0.21399,-0.33928
0.39067,0.92028,0.02128,-0.36844,-0.16824,0.06574
0.38808,0.92162,0.00259,0.0322,-0.15113,0.43919
0.378,0.9255,-0.0239,0.53193,0.53262,-0.66476
0.36585,0.93066,-0.00486,1.16443,1.44686,-0.43252
0.35998,0.93246,-0.03058,1.05252,0.88767,-0.09894
0.36108,0.93207,-0.02929,0.78896,0.49212,-0.16629
0.36405,0.93107,-0.02414,0.49722,0.31991,-0.02268
0.3677,0.92988,-0.01057,0.20664,0.08612,0.09055
0.37577,0.92664,0.01158,0.16537,0.03531,-0.04375
0.38263,0.92309,0.03862,-0.09045,0.0101,0.06527
0.38832,0.91935,0.06323,-0.32543,-0.0529,-0.08387
0.39174,0.91596,0.08688,-0.4216,-0.16788,-0.26903
0.38977,0.91502,0.10404,-0.32302,-0.24775,-0.39532
0.3842,0.9169,0.10807,-0.2662,-0.28743,-0.35443
0.37588,0.92054,0.10643,-0.2035,-0.46168,-0.23122
0.36794,0.92444,0.10011,-0.1355,-0.62066,-0.33884
0.36539,0.92707,0.0838,0.03273,-0.57486,-0.30899
0.36464,0.92905,0.06245,0.02113,-0.41146,-0.20604
0.35898,0.93255,0.03844,-0.00896,-0.26442,-0.17582
0.3507,0.93641,0.01207,0.15827,-0.19119,-0.14834
0.34338,0.93907,-0.01546,0.42698,-0.21673,-0.10781
0.33302,0.94192,-0.04337,0.64578,-0.16139,-0.22877
0.325,0.94367,-0.06217,0.63875,-0.09989,-0.37005
0.32513,0.94204,-0.08275,0.54672,0.02338,-0.54771
0.32665,0.93704,-0.12352,0.21545,0.24466,-0.45778
0.32136,0.92699,-0.19346,0.12032,0.79312,-0.45545
0.30372,0.91165,-0.27684,0.18006,0.95318,-0.10135
0.28054,0.89287,-0.35225,0.1238,0.55304,0.32155
0.25294,0.87294,-0.41713,0.30624,0.37119,0.42022
0.23261,0.85274,-0.46769,0.3098,0.48938,0.20733
0.24211,0.83168,-0.49969,0.09227,0.95436,-0.54418
0.25899,0.81355,-0.52064,-0.02005,0.14033,-0.06128
0.27832,0.80344,-0.52633,-0.12118,0.0166,0.1606
0.29554,0.79836,-0.52467,-0.20176,-0.28086,0.33189
0.31154,0.7995,-0.51355,-0.22947,-0.31084,0.23318
0.31972,0.8069,-0.49667,-0.25314,-0.34955,0.25558
0.32409,0.81734,-0.47635,-0.37726,-0.48571,0.27692
0.32845,0.82993,-0.45094,-0.41048,-0.5551,0.38792
0.33214,0.84533,-0.41846,-0.35568,-0.53968,0.4306
0.33269,0.8638,-0.37838,-0.26025,-0.42137,0.37463
0.32968,0.88239,-0.33569,-0.16493,-0.29766,0.20154
0.32356,0.89846,-0.29678,-0.09357,-0.21429,-0.09392
0.31646,0.91287,-0.25791,-0.00556,-0.05466,-0.389
0.31179,0.9262,-0.21198,0.10006,0.21337,-0.37566
0.30923,0.93527,-0.17221,0.103,0.18244,-0.19159
0.30926,0.94021,-0.14269,-0.05474,-0.15272,-0.09825
0.31778,0.94146,-0.11258,-0.09392,-0.34969,-0.01851
0.3285,0.94127,-0.07805,-0.12728,-0.27566,-0.00508
0.33818,0.94008,-0.04342,-0.12727,-0.06764,-0.18177
0.34977,0.93676,-0.01168,-0.1815,0.13669,-0.47124
0.36018,0.9328,0.01196,-0.35331,0.06507,-0.54524
0.36471,0.93084,0.02294,-0.36493,-0.12948,-0.07619
0.36545,0.93059,0.02111,-0.14994,-0.41713,0.28933
0.36392,0.93142,-0.00378,-0.11278,-0.53468,0.26522
0.36195,0.93177,-0.02824,0.45127,-0.00524,-0.06735
0.3535,0.93543,0.00194,1.07524,1.10017,-0.25799
0.35446,0.93507,-0.0006,1.47771,2.76978,-0.8556
0.34888,0.93685,-0.02417,0.62199,0.64815,0.13403
0.34476,0.93756,-0.04605,0.48953,-0.47371,0.38777
0.35117,0.93529,-0.04369,0.38601,-0.32525,0.31304
0.3593,0.93296,-0.02221,0.04367,0.02065,0.41511
0.3668,0.93004,0.02195,-0.2364,0.14238,0.07721
0.37123,0.92596,0.06924,-0.35519,0.0102,-0.25219
0.37572,0.9221,0.09259,-0.52645,-0.1821,-0.38129
0.37319,0.92089,0.11265,-0.38392,-0.25925,-0.4248
0.362,0.92398,0.12332,-0.12808,-0.23363,-0.42072
0.34831,0.92913,0.12407,0.19444,-0.26168,-0.41736
0.33686,0.93355,0.12248,0.1267,-0.3669,-0.47095
0.32937,0.93739,0.11319,0.08445,-0.4691,-0.55292
0.32734,0.94021,0.0941,0.15823,-0.31741,-0.19453
0.32453,0.94312,0.07211,0.1864,-0.25141,-0.13733
0.32144,0.94541,0.05354,0.28434,-0.27937,-0.15356
0.32022,0.94679,0.03237,0.27836,-0.39016,0.00976
0.32199,0.94666,0.01238,0.47742,-0.36181,-0.17081
0.32706,0.94499,-0.00442,0.63127,-0.31169,-0.39581
0.33133,0.94309,-0.02843,0.22685,-0.17714,-0.04623
0.33279,0.94128,-0.05701,0.05674,-0.1782,-0.35186
0.32972,0.93846,-0.10285,0.13059,-0.15002,-0.11364
0.32061,0.93282,-0.16451,0.30773,0.25059,-0.16253
0.30329,0.92401,-0.23283,0.21245,0.6428,-0.04754
0.28391,0.91092,-0.29938,0.16089,0.70801,0.1055
0.26781,0.89582,-0.35467,-0.15774,0.95335,0.10193
0.25566,0.8786,-0.40337,0.05373,0.75866,0.14835
0.25184,0.86184,-0.44023,-0.15258,0.74173,-0.20435
0.26607,0.84674,-0.46069,0.05968,0.16675,-0.38628
0.28198,0.83773,-0.46765,0.04874,-0.05402,-0.06708
0.30326,0.83627,-0.45682,-0.06858,-0.02679,0.29286
0.32329,0.8387,-0.43825,-0.17444,-0.14738,0.36639
0.33775,0.8456,-0.41337,-0.38784,-0.37672,0.32979
0.34713,0.85622,-0.38261,-0.55317,-0.52823,0.28133
0.35226,0.86965,-0.34586,-0.54261,-0.54161,0.26353
0.35002,0.88591,-0.30439,-0.23869,-0.38243,0.36777
0.34054,0.90202,-0.26532,-0.13969,-0.31002,0.34477
0.33096,0.9148,-0.23153,-0.03233,-0.17372,0.26379
0.32952,0.92383,-0.19483,0.05678,-0.16582,0.088
0.33711,0.92962,-0.1489,-0.02424,-0.05408,-0.22355
0.34833,0.9318,-0.10205,-0.10004,-0.02766,-0.47392
0.35888,0.93127,-0.06281,-0.22856,-0.02314,-0.50943
0.36463,0.93018,-0.0426,-0.31292,-0.06475,-0.39048
0.36901,0.92904,-0.02677,-0.29525,-0.09673,-0.09792
0.37764,0.92595,-0.00242,-0.20621,0.01628,-0.02621
0.39236,0.91955,0.02199,-0.33729,0.20591,-0.13651
0.40671,0.91279,0.03739,-0.61387,0.09362,-0.52074
0.41233,0.91037,0.03486,-0.50083,-0.10276,-0.26791
0.40968,0.91212,0.01401,0.05567,-0.212,0.35336
0.40035,0.91631,-0.00956,0.49266,0.06437,-0.04421
0.38896,0.92118,0.0116,1.47604,0.9891,-0.67599
0.39363,0.91926,0.00372,1.5513,2.16408,-1.25186
0.39707,0.91767,-0.01487,0.54692,1.26538,0.52911
0.39553,0.91799,-0.02926,0.14927,-0.43434,0.29183
0.4001,0.91582,-0.03452,0.12279,-0.3089,0.28559
0.40481,0.91424,-0.01713,-0.15308,0.06426,0.24337
0.41253,0.9106,0.02499,-0.24914,0.25737,-0.15467
0.4188,0.90619,0.0585,-0.36038,0.15865,-0.09268
0.41735,0.9056,0.0755,-0.55619,-0.10715,-0.41483
0.40787,0.90809,0.09492,-0.49391,-0.17604,-0.43496
0.39478,0.91311,0.10188,-0.12431,-0.23877,-0.36846
0.38079,0.91928,0.09957,0.19819,-0.35739,-0.4164
0.37076,0.92404,0.09315,0.17229,-0.4325,-0.43333
0.36586,0.92696,0.08305,0.21521,-0.51236,-0.37595
0.36554,0.92786,0.07385,0.13073,-0.39806,-0.32421
0.36209,0.9303,0.05858,0.05522,-0.27034,-0.10689
0.35846,0.93279,0.03742,0.12306,-0.26556,0.02929
0.35674,0.93404,0.01759,0.37525,-0.26947,-0.10457
0.35563,0.93462,0.00235,0.63263,-0.18393,-0.21831
0.35472,0.93488,-0.01335,0.46779,-0.18187,-0.04317
0.35449,0.93455,-0.03079,0.26154,-0.17315,-0.29967
0.35668,0.93246,-0.05735,0.28109,-0.11447,-0.42101
0.36173,0.92669,-0.10194,0.13333,0.04288,-0.23899
0.36001,0.9176,-0.16854,0.03063,0.22664,-0.29069
0.34103,0.90724,-0.24619,0.15161,0.54402,0.05415
0.30611,0.89635,-0.32071,0.09775,0.7133,0.26053
0.27351,0.88114,-0.38573,0.05248,0.74977,0.33885
0.25194,0.86327,-0.43737,0.18795,0.69409,0.52146
0.24093,0.84757,-0.47285,-0.38382,0.84244,-0.02657
0.24573,0.83181,-0.4977,-0.05524,0.22192,-0.34512
0.25357,0.82168,-0.51043,-0.08542,-0.13487,-0.19358
0.27379,0.82283,-0.49798,-0.07731,-0.15077,0.19813
0.30057,0.83024,-0.46943,-0.06232,-0.22463,0.29598
0.32528,0.84234,-0.42972,-0.15691,-0.33753,0.28629
0.34606,0.85731,-0.38112,-0.37936,-0.39987,0.22998
0.36106,0.87411,-0.32491,-0.46255,-0.45351,0.18154
0.36642,0.89141,-0.26667,-0.42222,-0.4496,0.08708
0.35935,0.90782,-0.21618,-0.25525,-0.34974,0.05524
0.34172,0.92294,-0.17721,-0.04327,-0.15251,0.03884
0.32339,0.9346,-0.14814,0.13589,0.23954,-0.12814
0.3163,0.9401,-0.12716,0.02963,0.05128,-0.14115
0.32231,0.94185,-0.09506,-0.10822,-0.18185,-0.23252
0.32981,0.94247,-0.05458,-0.19953,-0.11341,-0.34202
0.33602,0.94132,-0.03167,-0.19629,-0.12679,-0.25652
0.34408,0.93871,-0.02061,-0.18688,-0.07653,-0.17583
0.35596,0.9345,-0.00249,-0.23686,0.19877,-0.30749
0.36788,0.92948,0.02712,-0.30691,0.24121,-0.44562
0.37514,0.9261,0.04,-0.37424,-0.0242,-0.29168
0.37675,0.92572,0.03311,-0.27748,-0.33009,-0.09762
0.375,0.92672,0.02376,-0.18496,-0.46899,0.03749
0.37211,0.92819,-0.00104,0.24563,-0.49849,0.05779
0.37098,0.92775,-0.04064,0.53815,-0.03969,0.11334
0.36972,0.92894,-0.01948,0.7263,0.40313,0.32685
0.36797,0.92953,0.02392,2.8546,4.9256,-3.73694
0.35975,0.93301,-0.00855,0.26401,-0.50366,1.55646
0.34951,0.9363,-0.03426,0.25759,-0.82714,1.05452
0.35353,0.93499,-0.02828,0.28309,-0.32386,0.45239
0.363,0.9317,0.01245,0.17801,0.41191,0.61047
0.37734,0.92366,0.06678,0.05758,0.36073,0.52657
0.38775,0.91149,0.13728,-0.81002,0.09456,-0.89023
0.39619,0.90219,0.17055,-0.95072,-0.12074,0.14388
0.38116,0.90472,0.19028,-0.81275,-0.28535,-0.13674
0.36222,0.91027,0.2005,0.2147,-0.50836,-0.43242
0.3459,0.91469,0.20905,0.23786,-0.43103,-0.48946
0.33318,0.9176,0.21677,0.22328,-0.31368,-0.57628
0.32149,0.92141,0.21828,0.39924,0.00015,-0.55765
0.30648,0.92685,0.21682,0.62128,-0.0692,-0.50693
0.29067,0.93479,0.20414,0.55535,-0.31125,-0.15492
0.27732,0.94265,0.18574,0.55454,-0.35789,-0.04365
0.26828,0.94738,0.17462,0.58755,-0.42081,-0.1154
0.26633,0.94894,0.16905,0.43691,-0.31811,-0.14527
0.26819,0.94843,0.16896,0.37709,-0.27174,-0.01967
0.27056,0.94681,0.1742,0.25083,-0.19467,0.113
0.272,0.94435,0.18498,0.14184,-0.13092,-0.05468
0.27263,0.94222,0.19466,-0.08115,-0.2298,-0.86069
0.27736,0.9441,0.17815,0.27095,-0.1195,-0.53983
0.27995,0.94916,0.14397,0.31849,-0.13328,-0.36002
0.28163,0.95484,0.0947,0.46122,0.03041,0.08415
0.28915,0.9566,0.03626,0.22207,0.30615,0.23528
0.30379,0.95236,-0.02665,0.46831,1.04747,0.14646
0.32579,0.94175,-0.08343,0.5712,2.04548,-0.1428
0.34617,0.9298,-0.12501,0.21342,1.64484,-0.01797
0.35818,0.91742,-0.1733,-0.05519,0.5308,-0.11913
0.35844,0.90658,-0.22278,-0.0269,0.07287,0.25913
0.35734,0.89666,-0.26135,0.56178,0.01336,0.1781
0.36735,0.88207,-0.29497,0.55483,0.07594,0.12529
0.38671,0.86706,-0.31409,0.11977,-0.08162,0.07825
0.39637,0.8585,-0.32538,-0.32986,-0.33828,0.44827
0.39032,0.85796,-0.334,-0.34801,-0.44313,0.59818
0.3777,0.8623,-0.33731,-0.35978,-0.44484,0.66738
0.36614,0.86892,-0.33303,-0.44534,-0.36514,0.6629
0.35822,0.87468,-0.32651,-0.528,-0.32273,0.44577
0.35379,0.87933,-0.31877,-0.53821,-0.26101,0.30392
0.34911,0.88413,-0.31054,-0.36239,-0.36298,0.10612
0.34008,0.89121,-0.30015,-0.22489,-0.23864,-0.07201
0.32359,0.90325,-0.28184,0.04332,0.06993,-0.55124
0.30354,0.91718,-0.25815,0.2343,0.35318,-0.87283
0.28914,0.92453,-0.24826,0.01502,0.8486,-0.8644
0.28858,0.92101,-0.26163,-0.05216,0.20171,-0.44811
0.30386,0.91005,-0.28192,-0.05597,-0.26551,-0.19539
0.32406,0.89939,-0.2934,-0.15791,-0.39074,-0.2214
0.34085,0.89195,-0.29707,0.03162,-0.14453,-0.48207
0.35957,0.88688,-0.2901,0.22428,0.30592,-0.20894
0.36281,0.88785,-0.28302,0.20783,1.82311,0.00908
0.3501,0.8838,-0.31035,-0.40105,-0.71194,0.9168
0.35134,0.8853,-0.30463,-0.54218,-0.9088,0.82721
0.33973,0.89811,-0.27926,0.25703,-0.4117,0.90408
0.30343,0.91773,-0.25632,0.48862,-0.11846,0.87778
0.25299,0.93811,-0.23654,0.95598,0.86785,0.46658
0.24794,0.94509,-0.21289,0.99012,0.28823,0.28282
0.26365,0.94773,-0.17969,0.28997,-0.08367,0.31731
0.29002,0.94668,-0.14032,-0.05171,-0.04038,0.28303
0.32333,0.94172,-0.09282,-0.36733,0.07288,0.0574
0.34863,0.93627,-0.04297,-0.46981,0.0717,0.01596
0.36392,0.93143,-0.00153,-0.46315,0.02634,0.08211
0.37329,0.92699,0.03662,-0.35329,-0.08925,0.05955
0.38091,0.92147,0.07612,-0.28769,-0.07583,-0.12227
0.38391,0.91703,0.10802,-0.15208,-0.06037,-0.09718
0.38368,0.91417,0.13072,0.02881,-0.08215,-0.03709
0.38046,0.91128,0.15754,0.05828,-0.00924,-0.12028
0.3754,0.90703,0.19068,0.11021,0.01117,-0.2976
0.37325,0.90133,0.21973,0.06225,0.1124,-0.40713
0.37122,0.89634,0.2424,0.06371,0.19341,-0.33371
0.36373,0.89553,0.25638,0.15885,0.28502,-0.53419
0.35563,0.89691,0.26282,0.26395,0.21588,-0.4537
0.34808,0.90026,0.26148,0.33284,0.19046,-0.34077
0.34399,0.90265,0.25862,0.21638,0.21058,-0.27911
0.34665,0.90331,0.25269,0.23534,0.19306,-0.24374
0.35109,0.90598,0.23649,0.53467,0.13607,-0.28306
0.35741,0.9111,0.20531,0.58563,0.24918,0.07115
0.36647,0.91666,0.15948,0.46161,0.22929,0.2486
0.37415,0.92086,0.10961,-0.02575,0.09765,0.01666
0.37534,0.92532,0.05376,-0.37685,0.06764,0.05534
0.3687,0.92944,-0.01427,-0.22064,0.23449,0.07191
0.36128,0.92873,-0.0833,0.15941,0.56657,0.27901
0.35525,0.92428,-0.13961,0.20505,0.64469,0.28004
0.35501,0.91565,-0.18858,0.20785,0.53366,0.28912
0.35583,0.90365,-0.23833,0.05677,0.15562,0.37842
0.34692,0.89244,-0.28844,-0.03904,-0.23512,0.41075
0.32511,0.88504,-0.33317,0.20584,-0.18837,0.19935
0.30692,0.87556,-0.3731,0.19563,-0.04618,0.2739
0.30121,0.86277,-0.40607,0.15338,-0.0601,0.39717
0.30275,0.85042,-0.43026,0.04758,-0.13372,0.5402
0.30445,0.83854,-0.45185,-0.17982,-0.26973,0.54709
0.30613,0.82982,-0.46656,-0.18392,-0.33231,0.53141
0.30835,0.82415,-0.47509,-0.21055,-0.31955,0.56865
0.30891,0.82195,-0.47851,-0.25501,-0.25566,0.47459
0.31362,0.82236,-0.47472,-0.29683,-0.22214,0.39141
0.3249,0.82495,-0.46249,-0.34931,-0.18928,0.22703
0.33918,0.83025,-0.44232,-0.11512,-0.04642,0.05372
0.34989,0.83955,-0.41561,-0.05967,0.01827,0.00411
0.35609,0.85245,-0.38278,0.02649,0.20816,-0.34213
0.35854,0.86328,-0.35524,0.21824,0.48755,-0.6265
0.36148,0.8652,-0.34751,0.34909,0.52637,-0.47817
0.37223,0.85756,-0.355,-0.02195,0.29826,-0.33395
0.38577,0.84844,-0.36239,-0.28021,-0.04745,-0.14744
0.39664,0.84068,-0.3687,-0.13794,-0.37364,0.05417
0.4134,0.83371,-0.36609,0.05852,0.23636,0.46796
0.4253,0.8366,-0.34527,0.19796,1.04537,-0.09856
0.41271,0.84232,-0.34664,0.04797,0.60871,0.51655
0.40656,0.84206,-0.35446,-0.41491,-0.37622,0.93387
0.41331,0.84628,-0.33612,-0.3138,-0.39718,0.63391
0.408,0.85957,-0.30768,-0.07108,-0.13681,0.75687
0.38215,0.8801,-0.28174,-0.00631,0.00916,0.6685
0.33616,0.90273,-0.26847,0.27927,0.47134,0.61289
0.30336,0.91553,-0.26412,0.81042,0.14403,0.2201
0.30089,0.92504,-0.23186,0.45961,-0.09147,0.00837
0.31135,0.92824,-0.20351,0.11673,-0.02955,0.25539
0.33608,0.92664,-0.1685,-0.02133,-0.03682,0.25896
0.36269,0.92313,-0.12763,-0.24057,-0.0004,0.00369
0.38236,0.91922,-0.09398,-0.28318,0.03816,-0.0757
0.38831,0.91886,-0.07009,-0.14731,-0.07215,-0.08409
0.38889,0.91975,-0.05306,-0.04884,-0.13377,0.02425
0.38766,0.92099,-0.03858,0.00759,-0.08315,0.0201
0.38414,0.92298,-0.02343,0.07354,-0.04601,-0.06977
0.37937,0.92521,-0.00798,0.16024,0.01016,-0.04782
0.37351,0.92755,0.01137,0.17245,-0.04393,-0.15891
0.36924,0.92881,0.0311,0.19629,0.00237,-0.27466
0.36709,0.92899,0.04715,0.18166,0.06699,-0.322
0.36688,0.92865,0.05479,0.10972,0.10738,-0.41339
0.36569,0.92924,0.05271,0.10805,0.13999,-0.35753
0.3641,0.93044,0.04139,0.10119,0.14917,-0.36526
0.36303,0.93149,0.02279,0.05997,0.14306,-0.34182
0.35918,0.93325,-0.00436,0.05267,0.05857,-0.36901
0.35093,0.93522,-0.04688,0.16598,-0.04908,-0.18894
0.34103,0.93283,-0.11625,0.66136,0.53477,0.38253
0.34161,0.92002,-0.19198,0.2898,0.62253,0.33507
0.34698,0.90252,-0.25505,-0.11507,0.77007,0.12143
0.33223,0.88688,-0.32104,-0.20491,0.602,0.51913
0.30572,0.86889,-0.3893,-0.02182,0.59386,0.49727
0.27978,0.84939,-0.4475,0.22627,0.50339,0.54781
0.25876,0.82839,-0.49679,0.17178,0.2103,0.22121
0.25233,0.80538,-0.53637,0.20469,0.12214,0.3339
0.25078,0.78547,-0.56582,0.17125,-0.02155,0.35163
0.24508,0.76812,-0.59155,0.14907,-0.2228,0.42604
0.23542,0.75558,-0.61129,0.0504,-0.28828,0.60155
0.23053,0.74848,-0.62179,-0.07552,-0.39668,0.61589
0.2299,0.74657,-0.62432,-0.20902,-0.48015,0.5927
0.2321,0.75058,-0.61868,-0.25441,-0.49232,0.58398
0.2354,0.75992,-0.6059,-0.26672,-0.36172,0.57059
0.23969,0.77258,-0.58794,-0.18791,-0.33381,0.56114
0.24703,0.78802,-0.56391,-0.13538,-0.2929,0.47466
0.25763,0.80476,-0.53478,-0.07727,-0.23925,0.32837
0.27138,0.81972,-0.50439,-0.04381,-0.20856,0.12287
0.28644,0.83337,-0.4727,-0.05211,-0.1506,0.03425
0.29612,0.84987,-0.43593,-0.10384,-0.12245,0.13238
0.2983,0.86876,-0.39531,-0.14223,-0.14168,0.26951
0.30007,0.88569,-0.35428,-0.14027,-0.04206,0.30455
0.30716,0.89686,-0.31825,-0.14312,0.10894,0.30391
0.31958,0.9036,-0.28527,-0.15425,0.16523,0.14982
0.33473,0.90909,-0.24802,-0.19948,0.37024,-0.23968
0.34513,0.91429,-0.21202,-0.289,0.4002,-0.37133
0.35243,0.91698,-0.1869,-0.34891,0.10418,-0.17641
0.362,0.91571,-0.17442,-0.34169,-0.21687,0.15409
0.37112,0.91014,-0.18414,-0.14945,-0.37593,0.66519
0.37731,0.90079,-0.21498,0.03577,-0.24323,0.52655
0.38174,0.89638,-0.22532,0.37067,0.19265,0.09502
0.37729,0.90263,-0.20715,1.17048,1.24943,-0.23667
0.37864,0.89573,-0.23301,1.00054,2.5071,-1.84456
0.37825,0.88444,-0.27329,0.3204,-0.37691,1.03606
0.39322,0.8681,-0.30295,0.04559,-0.51948,0.45226
0.40776,0.86173,-0.30191,-0.06816,-0.22146,0.66793
0.41157,0.86618,-0.28343,-0.17916,-0.01459,0.18655
0.4115,0.87335,-0.26061,-0.20211,-0.02324,0.21604
0.40949,0.88046,-0.23898,-0.22253,-0.01385,0.10065
0.40512,0.8871,-0.22121,-0.08927,-0.06634,-0.28243
0.40174,0.88728,-0.22656,-0.06355,-0.07199,-0.32402
0.39503,0.88782,-0.23606,-0.14348,-0.27909,-0.36462
0.38914,0.88937,-0.23997,-0.15173,-0.30216,-0.06387
0.38014,0.89014,-0.25128,-0.09686,-0.36475,0.10315
0.37029,0.89052,-0.26429,0.11082,-0.40883,0.01799
0.36328,0.89023,-0.27479,0.31909,-0.27727,0.05221
0.35817,0.8885,-0.28683,0.47115,-0.19344,0.0175
0.35502,0.88446,-0.3028,0.47282,-0.24414,0.06628
0.3504,0.87595,-0.33155,0.58794,-0.1856,-0.19619
0.33945,0.86255,-0.37522,0.44426,0.01984,-0.20193
0.31537,0.84406,-0.43371,0.10694,0.61455,0.03497
0.28123,0.82139,-0.49621,-0.0751,0.74128,0.18934
0.24715,0.79659,-0.55168,-0.03206,0.88079,0.39455
0.20636,0.77352,-0.59923,0.10248,0.98234,0.44243
0.17197,0.75148,-0.63694,-0.00204,1.02923,0.3345
0.16608,0.73392,-0.65862,-0.24245,0.84327,0.12351
0.17587,0.71901,-0.67238,-0.17042,0.05171,0.0806
0.18842,0.71356,-0.67479,-0.09285,0.00172,0.21446
0.20677,0.71771,-0.66494,-0.09156,-0.06658,0.48047
0.22811,0.72721,-0.6474,-0.16579,-0.34258,0.57799
0.24678,0.74151,-0.6239,-0.19716,-0.43199,0.53543
0.26139,0.76086,-0.59393,-0.22973,-0.49957,0.47869
0.27157,0.78479,-0.55709,-0.29032,-0.33707,0.49056
0.27776,0.81171,-0.51379,-0.26149,-0.27512,0.46885
0.27775,0.83781,-0.47003,-0.14375,-0.09597,0.43744
0.27701,0.86091,-0.42673,-0.10013,0.01914,0.29907
0.28673,0.88275,-0.3722,0.03695,0.41669,0.05457
0.29852,0.89588,-0.32906,-0.08588,0.13912,-0.39389
0.30248,0.90285,-0.30555,-0.26173,-0.07305,-0.28254
0.31467,0.91075,-0.26743,-0.13794,0.02423,0.05992
0.3331,0.91346,-0.23372,-0.10255,0.0667,0.20602
0.35448,0.90929,-0.218,-0.28814,0.07894,0.19219
0.37554,0.9046,-0.20167,-0.51452,0.20704,-0.12946
0.38475,0.90498,-0.18156,-0.55576,0.07097,-0.10129
0.38299,0.90615,-0.17945,-0.25726,-0.10036,-0.05558
0.37936,0.90571,-0.18914,-0.08712,-0.13096,0.00222
0.37814,0.9035,-0.20172,0.26666,-0.24374,0.06285
0.38338,0.90092,-0.20336,0.30044,-0.0377,0.40354
0.39643,0.89705,-0.19531,0.52008,0.28646,0.20355
0.41284,0.89098,-0.18895,0.79072,0.82233,-0.55734
0.42284,0.88552,-0.19253,0.44551,0.93759,0.52419
0.42516,0.88427,-0.19316,0.3259,0.61456,0.36435
0.42354,0.88773,-0.18042,0.53361,0.65276,-0.5907
0.42456,0.88651,-0.18397,0.08474,0.16432,0.44522
0.43148,0.88432,-0.1783,-0.09419,0.04994,0.43606
0.43951,0.88294,-0.16506,-0.19415,-0.06363,0.28133
0.44445,0.88305,-0.15057,-0.32643,-0.13733,0.19825
0.44775,0.88401,-0.13434,-0.38554,-0.08806,0.13322
0.4475,0.88676,-0.11569,-0.36721,-0.10858,0.06233
0.4437,0.89049,-0.10075,-0.28184,-0.18978,-0.13302
0.4395,0.89306,-0.09636,0.08182,-0.12707,-0.36706
0.43556,0.8948,-0.09811,0.1234,-0.15767,-0.32049
0.43435,0.89478,-0.10347,0.04186,-0.24315,-0.18198
0.43824,0.89254,-0.10635,0.04218,-0.30091,-0.00632
0.44676,0.888,-0.10883,0.11044,-0.27115,-0.06847
0.45292,0.88361,-0.11871,0.23283,-0.19732,0.03981
0.45331,0.88117,-0.13432,0.36091,-0.18493,0.12769
0.45048,0.88047,-0.14776,0.53145,-0.21952,-0.00603
0.44863,0.87988,-0.15663,0.2474,-0.13879,-0.14659
0.44639,0.87874,-0.16895,0.16488,-0.12473,-0.10863
0.43916,0.87814,-0.18977,0.08783,-0.15304,-0.15586
0.42902,0.87517,-0.22364,0.08753,-0.01778,0.02045
0.41544,0.86624,-0.27756,0.06417,0.11718,0.09148
0.39772,0.85041,-0.34442,-0.01143,0.33964,-0.11307
0.35653,0.83231,-0.42443,0.03542,0.68608,0.61983
0.30361,0.81253,-0.4976,-0.03436,0.8139,0.5356
0.26236,0.78899,-0.55557,-0.04987,0.94784,0.2254
0.22585,0.75606,-0.6143,0.09267,0.72174,0.38469
0.20834,0.72561,-0.65581,0.18784,0.62551,0.27464
0.20561,0.7019,-0.68195,-0.02285,0.46103,0.19376
0.21547,0.68378,-0.69715,-0.06879,-0.20463,0.09584
0.22996,0.67844,-0.69773,-0.21116,-0.30224,0.3643
0.2484,0.6851,-0.68478,-0.24279,-0.27727,0.47835
0.26419,0.69924,-0.66429,-0.26194,-0.4016,0.57743
0.28118,0.71937,-0.63518,-0.282,-0.45939,0.53694
0.29565,0.74452,-0.59856,-0.31511,-0.46855,0.47803
0.30267,0.77443,-0.55557,-0.31393,-0.39215,0.37562
0.30043,0.8078,-0.50715,-0.16089,-0.14968,0.27476
0.28796,0.84066,-0.45866,0.06595,0.1114,0.1098
0.27804,0.87108,-0.40487,0.12918,0.46007,-0.13882
0.28371,0.88896,-0.35953,-0.00577,0.39516,-0.19283
0.29051,0.90077,-0.32281,-0.16378,-0.10883,-0.23583
0.29905,0.91207,-0.28054,-0.1508,-0.0977,-0.06205
0.31469,0.91904,-0.23733,-0.09659,0.01684,0.16006
0.33461,0.91959,-0.20589,-0.21034,-0.01634,0.13566
0.35601,0.9169,-0.18038,-0.45324,0.13368,-0.30588
0.36571,0.91619,-0.16383,-0.50306,-0.14924,0.17703
0.36731,0.91457,-0.16924,-0.24981,-0.2685,0.55248
0.37225,0.90815,-0.19157,0.05297,-0.20073,0.50131
0.38225,0.89984,-0.21016,0.91662,0.84537,0.01649
0.3858,0.90439,-0.18233,1.16062,0.99074,-0.17839
0.38107,0.90527,-0.18777,1.11882,0.99687,-0.09746
0.38583,0.90187,-0.19434,0.68633,0.70949,-0.4872
0.39278,0.89435,-0.21414,0.08737,0.16279,0.57968
0.40312,0.88559,-0.23069,0.09332,0.01173,0.45553
0.41284,0.88007,-0.23459,-0.0053,-0.12212,0.23967
0.41734,0.87909,-0.23027,-0.24981,-0.25368,0.38313
0.422,0.87866,-0.2233,-0.31513,-0.36655,0.2101
0.42317,0.88072,-0.21272,-0.29432,-0.41049,0.19742
0.42169,0.88493,-0.19767,-0.27908,-0.38485,0.22103
0.41861,0.88971,-0.18212,-0.16011,-0.21567,-0.01688
0.41122,0.89465,-0.17463,0.24506,0.00251,-0.32092
0.4085,0.89424,-0.18293,0.24081,0.00103,-0.13399
0.40896,0.89363,-0.18486,-0.07311,-0.22232,-0.13507
0.40749,0.89337,-0.18932,-0.09357,-0.19331,-0.05611
0.40058,0.89377,-0.20176,0.09422,-0.11435,0.05111
0.38716,0.89688,-0.21379,0.37167,-0.20584,-0.00053
0.37208,0.89933,-0.22971,0.39777,-0.20917,0.00809
0.36239,0.8989,-0.24628,0.33994,-0.19103,-0.02827
0.35867,0.89453,-0.26678,0.16677,-0.06143,-0.11075
0.35424,0.88605,-0.29905,0.10528,0.00943,-0.20057
0.34012,0.87272,-0.35026,-0.01243,0.28073,-0.0389
0.31274,0.85627,-0.41108,0.00028,0.64542,0.24573
0.27142,0.84087,-0.46826,0.03319,0.71882,0.44264
0.23161,0.82372,-0.51753,0.10738,0.84435,0.39941
0.20252,0.80345,-0.55987,0.10327,0.57616,0.48159
0.18945,0.78478,-0.59011,0.01134,0.54431,0.37192
0.19676,0.76908,-0.60811,-0.05094,0.4827,0.13103
0.21151,0.75668,-0.61862,0.05731,0.14807,0.04251
0.23389,0.75277,-0.61533,-0.02956,-0.02847,0.27266
0.26142,0.75702,-0.59881,-0.15253,-0.21388,0.46776
0.28557,0.76685,-0.57479,-0.17443,-0.4262,0.57336
0.30261,0.78149,-0.54562,-0.23915,-0.55885,0.53759
0.31102,0.80133,-0.51102,-0.30704,-0.60409,0.50498
0.3095,0.8242,-0.47424,-0.31568,-0.55313,0.45187
0.3009,0.84698,-0.43827,-0.21805,-0.3777,0.36268
0.29196,0.86945,-0.39852,-0.05178,-0.14061,0.33468
0.29497,0.89243,-0.3414,0.05807,0.45747,0.09657
0.30619,0.90975,-0.28036,-0.02728,0.46583,-0.18505
0.30333,0.92151,-0.24251,-0.08993,0.46573,-0.4063
0.29834,0.9304,-0.21297,-0.35224,0.14524,-0.45689
0.30883,0.93134,-0.19295,-0.23913,-0.01645,-0.01837
0.33122,0.92729,-0.17441,-0.30656,-0.00186,-0.04971
0.35195,0.92155,-0.16393,-0.62995,0.0441,-0.41084
0.35942,0.916,-0.17819,-0.53154,-0.15569,0.00144
0.35495,0.91054,-0.21194,0.17383,-0.41161,0.81193
0.34929,0.9033,-0.24909,0.18796,-0.30905,0.68256
0.35552,0.90024,-0.25132,0.86755,0.46145,0.15487
0.36496,0.90462,-0.22016,1.40236,1.3561,-0.85652
0.36516,0.90033,-0.23677,0.61221,1.19575,0.2429
0.37148,0.89653,-0.2413,0.4757,0.40791,0.0314
0.38502,0.88955,-0.24587,0.08062,0.15143,0.36934
0.40065,0.88394,-0.24108,0.00587,0.03963,0.29444
0.4081,0.88188,-0.23607,-0.07906,0.01291,0.10977
0.40851,0.88273,-0.23216,-0.26251,-0.05519,0.29275
0.40726,0.88452,-0.2275,-0.30441,-0.20645,0.0783
0.40222,0.88701,-0.22676,-0.31646,-0.31157,0.11083
0.39625,0.89016,-0.22494,-0.31352,-0.35781,0.2138
0.39091,0.89336,-0.22157,-0.12388,-0.38797,-0.0207
0.3892,0.8937,-0.22322,0.10622,-0.29426,-0.01914
0.39387,0.89098,-0.22586,0.27914,-0.25777,-0.03133
0.39998,0.88752,-0.22873,0.26686,-0.28668,-0.08575
0.40124,0.88519,-0.23546,0.40958,-0.11332,-0.15266
0.39919,0.88256,-0.24845,0.36812,-0.17736,-0.1418
0.39077,0.88128,-0.26578,0.3076,-0.25141,-0.03082
0.37616,0.88018,-0.28945,0.43217,-0.22413,-0.08178
0.36196,0.8755,-0.32012,0.5503,0.00722,0.05054
0.34915,0.86348,-0.36399,0.21872,0.32504,-0.17724
0.32689,0.84823,-0.41671,0.06877,0.584,0.16796
0.28658,0.83372,-0.472,-0.06248,0.57924,0.74017
0.25435,0.81923,-0.51397,-0.2695,0.67587,0.24237
0.22241,0.80444,-0.55082,-0.25569,0.72386,0.30735
0.19608,0.79037,-0.5804,-0.03562,0.52587,0.54674
0.19282,0.78121,-0.59374,-0.22977,0.52658,-0.01002
0.20198,0.77373,-0.60045,-0.10034,0.35179,-0.0854
0.2162,0.77308,-0.59632,-0.01365,-0.01927,0.16648
0.23635,0.78045,-0.57882,0.02395,-0.15178,0.37162
0.25427,0.79132,-0.55602,-0.02027,-0.21771,0.42838
0.26536,0.80637,-0.52854,-0.12526,-0.29974,0.49746
0.2689,0.82694,-0.49381,-0.20785,-0.26675,0.44679
0.26966,0.84846,-0.45541,-0.19991,-0.21816,0.26176
0.26811,0.86749,-0.41903,-0.1435,-0.19865,0.0769
0.26827,0.88567,-0.37897,-0.04215,-0.03006,0.07791
0.27427,0.904,-0.32795,-0.011,-0.0032,0.16541
0.27838,0.91885,-0.27966,-0.01998,0.00867,0.10691
0.2813,0.9301,-0.23619,-0.09467,0.1429,-0.21599
0.28537,0.93766,-0.19839,-0.20506,0.10083,-0.11368
0.29156,0.93961,-0.17921,-0.23672,0.07186,0.01176
0.30324,0.93824,-0.16655,-0.40615,0.02581,-0.08881
0.31309,0.93714,-0.15408,-0.62048,-0.00579,-0.24893
0.31774,0.93557,-0.15408,-0.52582,-0.24932,-0.0882
0.31729,0.93195,-0.17546,-0.06328,-0.49999,0.55012
0.31742,0.92458,-0.21072,0.02571,-0.67032,0.49078
0.3267,0.91446,-0.23878,0.14501,-0.56222,0.36358
0.34148,0.91145,-0.22945,0.54524,0.27117,0.6149
0.35014,0.9175,-0.18864,1.14163,1.33239,0.21246
0.34475,0.92224,-0.17496,1.6522,2.4059,-1.87617
0.34879,0.91707,-0.1932,0.15777,0.06218,0.68793
0.35767,0.90839,-0.21655,0.29281,-0.15819,0.45846
0.36626,0.90237,-0.2271,0.20001,-0.16781,0.36228
0.3666,0.90485,-0.21643,-0.1771,-0.15147,0.72763
0.37319,0.91012,-0.18001,-0.19239,0.05983,0.52623
0.37984,0.91463,-0.13845,-0.16888,-0.01562,-0.08945
0.37678,0.91863,-0.11894,-0.1773,-0.15325,-0.35377
0.36616,0.92312,-0.11735,-0.22434,-0.26792,0.03631
0.35628,0.92791,-0.10975,0.004,-0.28498,-0.0409
0.34681,0.93169,-0.10803,0.1256,-0.29061,-0.03194
0.34104,0.93386,-0.10765,0.12426,-0.40098,-0.04745
0.33796,0.93498,-0.10763,0.16078,-0.4354,-0.15128
0.33249,0.93661,-0.11046,0.29281,-0.15403,0.12187
0.32868,0.93807,-0.10953,0.44955,-0.05327,0.0857
0.32251,0.94166,-0.09624,0.71086,-0.05485,0.03136
0.31311,0.94634,-0.07995,0.37962,-0.14538,-0.32004
0.3016,0.95102,-0.06771,0.36251,-0.12439,-0.37168
0.28769,0.95573,-0.06169,0.38069,-0.13441,-0.29685
0.273,0.95988,-0.06397,0.31474,-0.15153,-0.00971
0.26267,0.9618,-0.0771,0.25079,-0.02201,-0.15557
0.25506,0.96066,-0.10986,0.24415,0.30193,0.10884
0.24914,0.95618,-0.15376,0.23533,0.39549,0.40871
0.24615,0.94818,-0.20092,0.16145,0.7582,0.24233
0.24475,0.93617,-0.25235,0.271,1.02457,0.20799
0.24485,0.92182,-0.3005,0.31714,1.15674,0.20516
0.24471,0.90656,-0.34389,0.33129,0.99499,0.09032
0.23449,0.89358,-0.38278,0.28772,0.42923,0.25563
0.21924,0.88284,-0.41536,0.47392,0.0141,0.2621
0.21754,0.87196,-0.43858,0.54031,-0.05884,0.30372
0.21821,0.86662,-0.44871,0.36767,-0.24916,0.43193
0.21457,0.86718,-0.44941,0.01988,-0.32062,0.50564
0.2056,0.87282,-0.44263,-0.14525,-0.40045,0.56331
0.19324,0.88154,-0.43074,-0.27254,-0.42646,0.61339
0.17899,0.89091,-0.41742,-0.34954,-0.41813,0.54993
0.16323,0.89935,-0.40561,-0.26995,-0.368,0.50452
0.14642,0.90791,-0.39277,-0.2597,-0.38398,0.50226
0.13043,0.91732,-0.37619,-0.27982,-0.31224,0.40066
0.11528,0.92684,-0.35733,-0.1559,-0.17913,0.1652
0.10414,0.93487,-0.33937,-0.02335,0.13837,-0.39403
0.09616,0.93897,-0.33029,0.05727,0.45257,-0.76047
0.09116,0.93753,-0.33575,0.37173,0.34508,-0.80435
0.0945,0.93121,-0.35201,0.43307,0.09125,-0.61134
0.11008,0.92475,-0.36431,0.35555,-0.19477,-0.40139
0.12637,0.92113,-0.36817,0.18686,-0.36882,-0.39357
0.14463,0.9207,-0.36248,0.20797,-0.09494,-0.40177
0.16374,0.92387,-0.34589,0.26422,0.33502,-0.39298
0.16084,0.92571,-0.34232,0.4281,2.39838,-0.23259
0.13549,0.91499,-0.38005,-0.4177,-0.65496,1.27808
0.14104,0.91792,-0.37086,-0.76397,-1.52801,0.87049
0.14343,0.9275,-0.34521,0.13538,-0.78674,0.43639
0.1254,0.93569,-0.32978,0.94053,-0.04563,1.53006
0.08475,0.94281,-0.32237,0.87291,0.37877,0.66695
0.07721,0.9501,-0.30225,1.27756,1.14187,-0.09241
0.07726,0.95851,-0.27438,0.63965,-0.0103,0.37623
0.09194,0.96718,-0.23689,0.26847,-0.15574,0.50775
0.10962,0.97589,-0.18872,-0.12967,-0.19843,0.04306
0.11809,0.98275,-0.14232,0.03497,-0.00576,-0.04564
0.12805,0.98676,-0.0995,0.26135,-0.02802,0.01794
0.14236,0.98826,-0.0554,0.20628,-0.14238,-0.02086
0.15771,0.98741,-0.01244,0.15286,-0.20558,-0.01851
0.16932,0.98517,0.02783,-0.21073,-0.12257,-0.08932
0.17437,0.98256,0.06452,-0.18218,-0.08196,-0.03898
0.17412,0.98015,0.09475,-0.01961,-0.06989,0.02312
0.17024,0.97765,0.12331,0.36554,-0.18629,-0.25963
0.16749,0.97367,0.15466,0.36829,-0.1823,-0.29098
0.16448,0.9686,0.18645,0.49018,-0.11525,-0.18941
0.15939,0.96388,0.21336,0.35802,0.17487,-0.50335
0.15615,0.95911,0.23604,0.33829,0.28761,-0.59948
0.15187,0.95742,0.24551,0.36053,0.30346,-0.46595
0.14284,0.9596,0.24242,0.4232,0.20334,-0.30939
0.13553,0.96237,0.23553,0.41475,0.1283,-0.22889
0.13258,0.96416,0.22979,0.43073,0.04003,-0.27508
0.13181,0.96771,0.21486,0.94558,0.14527,-0.14131
0.13293,0.97485,0.17887,0.88556,0.1552,0.08433
0.14352,0.98155,0.12628,0.76502,0.22198,0.30305
0.15874,0.98422,0.07819,0.39228,-0.01762,0.11232
0.16383,0.98582,0.03624,-0.05189,-0.00573,0.00457
0.16108,0.98672,-0.02106,0.1793,0.3188,0.16482
0.15542,0.98432,-0.08335,0.46404,0.47046,0.20452
0.15365,0.97763,-0.14362,0.50272,0.40021,0.21238
0.15278,0.96765,-0.20076,0.29098,0.18678,0.31958
0.14808,0.95873,-0.24269,0.15548,-0.10522,0.45593
0.14018,0.95156,-0.27362,0.43121,-0.20378,0.24689
0.13158,0.94319,-0.3051,0.55531,-0.18987,0.22035
0.13184,0.93538,-0.32814,0.54751,-0.14368,0.37289
0.14191,0.92876,-0.34245,0.34319,-0.20575,0.42267
0.15086,0.92367,-0.35224,0.15624,-0.26322,0.48387
0.15691,0.92056,-0.3577,-0.04335,-0.26689,0.45834
0.16273,0.91923,-0.35852,-0.09269,-0.32032,0.40154
0.16962,0.91913,-0.35557,-0.05472,-0.30829,0.39069
0.1776,0.92048,-0.3481,-0.1326,-0.20504,0.32242
0.18866,0.92242,-0.33697,-0.17244,-0.15823,0.19504
0.19926,0.92449,-0.32498,-0.19663,-0.16761,0.15731
0.20623,0.92784,-0.31076,-0.24046,-0.1825,0.10491
0.20862,0.93388,-0.29042,-0.16519,-0.29899,0.03564
0.20778,0.94301,-0.25992,0.04032,-0.23724,-0.13754
0.20811,0.95287,-0.22075,0.17228,-0.01325,-0.46402
0.21256,0.9587,-0.18895,0.24848,0.43301,-0.89573
0.22272,0.95828,-0.17915,0.43849,0.59783,-0.97434
0.24229,0.9522,-0.18602,0.24607,0.15688,-0.5095
0.26347,0.94541,-0.19177,-0.09236,-0.1921,-0.38385
0.28134,0.93966,-0.19465,-0.00694,-0.39132,-0.27002
0.29955,0.93566,-0.18654,0.27737,0.2482,0.28162
0.30057,0.93568,-0.18485,0.1736,1.55848,-0.21646
0.27914,0.93428,-0.2218,0.09256,0.03751,0.39886
0.2763,0.93456,-0.22418,-0.24748,-0.92765,0.76591
0.27307,0.93999,-0.20459,-0.14538,-0.75954,0.57561
0.25222,0.94973,-0.18546,0.13728,-0.1816,0.74796
0.21221,0.96225,-0.17042,0.27205,0.31827,0.46503
0.16953,0.97454,-0.14676,0.49412,0.70889,0.36053
0.16214,0.98051,-0.11093,1.06361,0.65952,0.03119
0.17446,0.98152,-0.07855,0.20151,-0.20638,0.28034
0.19757,0.97921,-0.04587,0.17841,-0.20407,0.24767
0.22518,0.9743,-0.00485,0.08879,-0.12396,0.1407
0.24945,0.96767,0.03726,-0.22496,0.00703,-0.25261
0.26473,0.96167,0.07147,-0.19368,-0.032,-0.28868
0.27384,0.9564,0.10156,-0.10843,-0.09255,-0.1341
0.27779,0.95187,0.12951,-0.03862,-0.17739,-0.2241
0.28011,0.94837,0.14874,0.02604,-0.07954,-0.14578
0.27861,0.94591,0.16622,0.04793,-0.03331,-0.07626
0.27081,0.94367,0.19013,0.06103,-0.07084,-0.11273
0.26257,0.94085,0.21412,0.1314,-0.10301,-0.22828
0.25723,0.93669,0.23758,0.228,-0.10377,-0.32146
0.2514,0.93015,0.2676,0.29185,0.01507,-0.47088
0.24898,0.92227,0.29569,0.31533,0.08277,-0.56601
0.25095,0.91782,0.3076,0.24734,0.16132,-0.60046
0.24915,0.91978,0.30318,0.33354,0.22115,-0.4824
0.24276,0.92449,0.29393,0.42448,0.21379,-0.34302
0.24149,0.92859,0.28178,0.4574,0.14808,-0.28373
0.2476,0.93287,0.26162,0.61502,0.20415,-0.19033
0.26389,0.93706,0.22863,0.71348,0.31735,-0.12201
0.28868,0.93964,0.18368,0.52162,0.33255,-0.18823
0.30311,0.94323,0.13579,-0.18497,0.08222,-0.13205
0.30586,0.94908,0.0755,-0.2753,0.02352,0.12751
0.29889,0.95426,0.00758,-0.24565,0.18526,0.29395
0.28646,0.95636,-0.05748,-0.09275,0.80059,0.14696
0.27216,0.95485,-0.11908,0.1009,0.80496,0.29645
0.26175,0.94817,-0.18017,0.14071,0.45152,0.3187
0.25255,0.93769,-0.23866,0.12646,0.15086,0.34487
0.24716,0.92486,-0.28905,0.15841,-0.06414,0.24164
0.24532,0.91111,-0.33119,0.27066,-0.12873,0.0719
0.24834,0.89741,-0.36467,0.27556,-0.14714,0.1282
0.25067,0.88534,-0.39159,0.06218,-0.21342,0.1747
0.24786,0.8768,-0.41204,-0.09939,-0.29972,0.36063
0.24586,0.87056,-0.42624,-0.25609,-0.43724,0.42577
0.24757,0.8666,-0.43325,-0.29292,-0.47665,0.38653
0.25178,0.86478,-0.43447,-0.29246,-0.41408,0.24993
0.25572,0.86561,-0.43048,-0.15413,-0.29989,0.13732
0.26153,0.86814,-0.42181,-0.04972,-0.27561,0.12008
0.27006,0.8718,-0.40869,0.00225,-0.31414,0.12901
0.27798,0.87689,-0.39217,0.0236,-0.38,0.15627
0.2853,0.88327,-0.37207,0.00634,-0.3685,0.13423
0.29192,0.8913,-0.34695,-0.03849,-0.33728,0.1182
0.29752,0.89958,-0.31976,-0.11914,-0.35226,0.13032
0.30187,0.90665,-0.29474,-0.13597,-0.34639,0.08681
0.30313,0.91287,-0.27346,-0.13083,-0.25421,0.02574
0.30251,0.91969,-0.25031,-0.11566,0.02233,-0.07763
0.30439,0.92654,-0.22104,-0.10339,0.07947,-0.10401
0.31277,0.93095,-0.18844,-0.1524,0.13245,-0.07443
0.32594,0.93279,-0.15381,-0.2162,0.07435,-0.05862
0.33603,0.93394,-0.12178,-0.22704,0.03281,-0.12855
0.34375,0.93456,-0.09179,-0.15654,-0.05372,-0.1952
0.35011,0.93473,-0.06086,-0.06254,0.1138,-0.16772
0.35796,0.9333,-0.02856,-0.0704,0.11523,-0.20002
0.36676,0.93031,0.00312,-0.22601,0.05338,-0.29132
0.37365,0.92706,0.03072,-0.37809,-0.2507,-0.22477
0.37696,0.92549,0.03699,-0.27987,-0.33653,-0.00913
0.37526,0.92674,0.01844,0.17806,-0.16639,0.21261
0.37364,0.92757,0.0026,0.64447,0.56369,-0.05264
0.36871,0.92912,0.02806,1.0358,0.99291,-1.13722
0.37519,0.92685,0.01355,0.56821,1.30022,-0.29391
0.37985,0.92493,0.01433,0.4142,0.78489,-0.66094
0.38003,0.92495,-0.00697,0.23539,-0.10779,0.421
0.37651,0.92602,-0.02665,0.16818,-0.13757,0.313
0.38297,0.92312,-0.03431,0.02653,-0.18655,0.03591
0.38828,0.92127,-0.02222,-0.13982,-0.21868,-0.03316
0.39007,0.92076,-0.00715,-0.13613,-0.09988,-0.20534
0.38914,0.92118,-0.00139,-0.20126,-0.30142,-0.21118
0.38629,0.92237,-0.00306,-0.1693,-0.39907,-0.24435
0.38341,0.92353,-0.00865,-0.24169,-0.43866,-0.38993
0.38055,0.92465,-0.01382,-0.05589,-0.38616,-0.14087
0.37509,0.92677,-0.02021,0.09472,-0.36042,-0.0888
0.3708,0.92817,-0.03187,0.16564,-0.26992,-0.20737
0.36886,0.9284,-0.04482,0.27161,-0.18359,-0.24915
0.36601,0.92863,-0.06063,0.47407,-0.30806,-0.13984
0.35816,0.93032,-0.07891,0.47167,-0.31786,-0.14759
0.35031,0.9318,-0.09497,0.56784,-0.19494,-0.36272
0.34519,0.93134,-0.11595,0.47889,-0.0481,-0.26388
0.3397,0.92834,-0.15093,0.30699,0.09169,-0.32146
0.33195,0.92095,-0.20412,0.15698,0.49023,-0.24959
0.31341,0.90946,-0.27322,0.08663,0.74471,-0.00237
0.2864,0.89484,-0.3424,0.1052,0.66145,0.33413
0.26505,0.87709,-0.40057,-0.09219,0.63818,0.23463
0.24056,0.85866,-0.45258,-0.16373,0.75552,0.26319
0.22277,0.8379,-0.49829,-0.19201,0.85505,-0.25029
0.22196,0.81617,-0.53348,0.03496,0.20145,0.02388
0.23196,0.80066,-0.55239,-0.14159,-0.09838,0.16546
0.24304,0.79179,-0.56036,-0.21096,-0.23852,0.2669
0.2547,0.78944,-0.55849,-0.19657,-0.32423,0.22761
0.26467,0.79593,-0.54446,-0.26098,-0.38019,0.15741
0.2718,0.80874,-0.5216,-0.34615,-0.42324,0.24627
0.27729,0.82523,-0.49204,-0.3445,-0.50437,0.38058
0.27808,0.84426,-0.45814,-0.32665,-0.54026,0.40304
0.27184,0.8659,-0.4199,-0.02188,-0.25972,0.18623
0.2592,0.88776,-0.38039,0.18808,0.01284,-0.02941
0.24849,0.90546,-0.34407,0.20406,0.03803,-0.19088
0.2497,0.91821,-0.30748,-0.01282,-0.06576,-0.39273
0.26014,0.92736,-0.26894,-0.18943,-0.10455,-0.2236
0.27128,0.9342,-0.23166,-0.16667,-0.13196,-0.12642
0.28318,0.93936,-0.19342,-0.13526,-0.04908,-0.13022
0.29479,0.94283,-0.1555,-0.1866,-0.07059,-0.11115
0.30615,0.94473,-0.11725,-0.23198,-0.04266,-0.09803
0.31532,0.9455,-0.08125,-0.3429,0.08657,-0.05962
0.32262,0.94514,-0.05122,-0.38883,0.12738,-0.1143
0.32895,0.94399,-0.02587,-0.44021,0.07723,-0.19378
0.33473,0.94228,-0.00798,-0.34996,0.01733,-0.46044
0.33976,0.9405,-0.00507,-0.14152,0.03715,-0.53262
0.34061,0.94002,-0.0185,0.11941,-0.00739,-0.41615
0.33707,0.94075,-0.037,0.56946,0.25921,0.2054
0.33468,0.94134,-0.04334,0.46798,0.96223,-0.39753
0.33804,0.94011,-0.04386,0.62076,0.78806,0.39318
0.33586,0.93994,-0.06088,0.50812,0.77675,-0.34144
0.32971,0.9419,-0.06404,0.65652,0.01009,0.27885
0.33388,0.94016,-0.06797,0.50297,0.05903,0.32166
0.34473,0.93711,-0.05468,0.1938,0.16687,0.15354
0.35796,0.93322,-0.03094,0.06703,0.12432,0.17019
0.36835,0.92968,-0.00408,0.04678,-0.00948,-0.02771
0.37582,0.92629,0.02739,0.00232,-0.10748,-0.08958
0.37949,0.9235,0.05608,-0.10159,-0.30205,-0.19145
0.38144,0.92111,0.07781,-0.17943,-0.25023,-0.35505
0.38125,0.9196,0.09479,-0.10963,-0.22772,-0.34443
0.37954,0.91915,0.10535,-0.01741,-0.29126,-0.32159
0.37712,0.91967,0.10947,-0.01499,-0.29177,-0.3257
0.37528,0.92045,0.10922,0.01721,-0.27127,-0.32389
0.37462,0.92172,0.10045,0.0724,-0.11862,-0.435
0.37257,0.92396,0.08655,0.09744,-0.04304,-0.25882
0.36805,0.92721,0.06947,0.10147,-0.12092,-0.25707
0.36413,0.92983,0.05317,0.08881,-0.24484,-0.02632
0.36204,0.93149,0.03541,0.06031,-0.25679,-0.04806
0.36069,0.93251,0.01784,0.08168,-0.18004,-0.12202
0.35845,0.93352,0.00678,0.12767,-0.15531,-0.0562
0.3555,0.93467,-0.0016,0.23358,-0.06729,-0.16653
0.35681,0.93414,-0.00829,0.32053,-0.00866,-0.24537
0.35784,0.93365,-0.01557,0.27774,-0.00702,-0.34231
0.3546,0.93469,-0.02487,0.22104,-0.06625,-0.28513
0.34974,0.93582,-0.04379,0.25765,-0.11858,-0.25208
0.34718,0.93459,-0.07754,0.2438,-0.10665,-0.46772
0.34246,0.93025,-0.13173,-0.06451,0.38202,-0.19141
0.32691,0.92239,-0.20572,-0.05805,0.43402,0.00973
0.29666,0.91264,-0.28121,-0.04901,0.43123,0.45349
0.25325,0.90292,-0.34726,-0.26544,0.43423,0.14463
0.21334,0.88528,-0.41323,0.2935,0.55013,0.27996
0.1873,0.86342,-0.46843,0.48029,0.51718,0.31307
0.18157,0.84121,-0.5093,-0.05642,0.98857,-0.30213
0.19636,0.81914,-0.53893,-0.13597,0.23318,-0.47712
0.21073,0.80388,-0.55621,-0.15561,-0.18701,-0.19482
0.2285,0.80082,-0.5536,-0.10072,-0.45359,0.44821
0.2449,0.80401,-0.54184,-0.07617,-0.31985,0.41069
0.26146,0.81235,-0.52128,-0.14029,-0.38766,0.20945
0.27479,0.82666,-0.49105,-0.27819,-0.46363,0.193
0.28216,0.84471,-0.45481,-0.32586,-0.48765,0.16386
0.28201,0.86517,-0.41467,-0.30379,-0.45563,0.1582
0.27461,0.88718,-0.3708,-0.1154,-0.22637,0.33766
0.25985,0.90942,-0.32471,0.04336,-0.14807,0.29218
0.25265,0.92645,-0.27902,0.1383,0.17413,-0.08283
0.26354,0.933,-0.24506,0.0712,0.33747,-0.3813
0.27574,0.93638,-0.21715,-0.19862,-0.02054,-0.53892
0.28452,0.94081,-0.18418,-0.25357,-0.03781,-0.19903
0.2985,0.94426,-0.13881,-0.09272,0.02136,-0.07884
0.30979,0.94536,-0.1016,-0.08556,-0.02632,-0.03771
0.32123,0.94362,-0.07991,-0.16338,-0.11051,-0.00382
0.33551,0.94022,-0.05841,-0.22101,-0.02239,-0.09649
0.34654,0.93761,-0.02824,-0.33574,0.17409,-0.36154
0.35234,0.93586,-0.00314,-0.34787,0.15955,-0.26949
0.35797,0.93372,0.0052,-0.26249,0.05386,-0.21992
0.36277,0.93185,0.00709,-0.24969,-0.12394,-0.36029
0.36502,0.93095,0.00902,-0.15533,-0.40048,0.10353
0.35935,0.93319,0.0041,-0.03834,-0.443,0.47504
0.35083,0.9363,-0.0163,-0.02809,-0.46624,0.41467
0.35005,0.93628,-0.02891,0.66298,0.28595,-0.24688
0.34957,0.9369,-0.00522,1.16803,1.1766,-0.3394
0.35713,0.934,-0.01045,1.28248,2.00585,-1.1695
0.35853,0.93306,-0.029,0.05452,-0.12896,0.74131
0.35622,0.93291,-0.05283,0.24055,-0.46242,0.27358
0.36541,0.92909,-0.0572,0.21174,-0.11161,0.22864
0.37475,0.92619,-0.04151,-0.03712,0.12526,0.13993
0.38192,0.92414,-0.01045,-0.10787,0.17149,-0.24034
0.38842,0.92138,0.01339,-0.21716,-0.08671,-0.11309
0.3935,0.91908,0.02114,-0.20596,-0.19412,-0.34786
0.39308,0.91932,0.01834,-0.30181,-0.2268,-0.41778
0.38561,0.92243,0.02078,-0.09347,-0.19603,-0.27476
0.37747,0.9258,0.02009,0.10313,-0.30356,-0.19366
0.3715,0.92825,0.01827,0.06237,-0.42776,-0.11228
0.36927,0.92917,0.01673,0.20722,-0.32735,-0.1814
0.3719,0.92822,0.01024,0.33547,-0.18629,-0.25467
0.37342,0.92765,0.00544,0.39648,-0.25359,-0.12531
0.37165,0.92837,-0.0008,0.30171,-0.29771,-0.13626
0.37086,0.92862,-0.01099,0.299,-0.27758,-0.2308
0.36803,0.92951,-0.02377,0.21408,-0.18381,-0.26679
0.36347,0.93063,-0.0425,0.17207,-0.14145,-0.25291
0.35831,0.93099,-0.06976,0.14221,-0.16082,-0.18901
0.35257,0.92944,-0.10884,0.02904,-0.08692,-0.12814
0.34458,0.92463,-0.16226,-0.011,0.10093,-0.09653
0.32723,0.91752,-0.22598,-0.01178,0.33611,0.01152
0.29518,0.91014,-0.29071,0.03221,0.56174,0.15816
0.26117,0.89964,-0.34992,0.06152,0.74779,0.15441
0.23756,0.88694,-0.3961,0.10097,0.737,0.31791
0.22941,0.87325,-0.42988,-0.14159,0.75298,0.08372
0.23967,0.85878,-0.45283,-0.03576,0.15135,-0.23585
0.25457,0.84633,-0.46789,-0.12289,-0.28087,-0.0782
0.2781,0.84187,-0.4625,-0.19929,-0.23311,0.20445
0.30615,0.84261,-0.44303,-0.23948,-0.24513,0.3854
0.33403,0.84603,-0.41553,-0.27514,-0.33812,0.28078
0.35431,0.85393,-0.38114,-0.32111,-0.39087,0.22747
0.36402,0.86664,-0.34121,-0.35581,-0.415,0.11808
0.36387,0.88298,-0.29656,-0.27832,-0.31485,0.02436
0.35356,0.90167,-0.24898,-0.25583,-0.27716,-0.01547
0.33814,0.92012,-0.19758,-0.13204,-0.03058,0.01785
0.33358,0.93203,-0.14156,0.0641,0.60955,-0.22676
0.34007,0.93497,-0.10089,-0.03277,0.31782,-0.40192
0.34481,0.9358,-0.07339,-0.18256,-0.00112,-0.51339
0.3507,0.9359,-0.03303,-0.18578,-0.00182,-0.19767
0.35634,0.93435,0.00129,-0.15983,-0.05478,-0.12606
0.36243,0.93184,0.01769,-0.3017,-0.17522,-0.27573
0.37143,0.92803,0.02826,-0.55057,-0.35854,-0.77298
0.37879,0.92516,0.02454,-0.14475,-0.55957,-0.0629
0.3801,0.92495,-6e-05,0.02722,-0.55478,0.70562
0.38105,0.92407,-0.03001,0.01789,-0.54695,0.38389
0.39172,0.91896,-0.04547,0.62172,0.69522,0.07171
