gravity.x,gravity.y,gravity.z,userAcceleration.x,userAcceleration.y,userAcceleration.z
-0.15072,0.9629,-0.22384,0.01895,0.00036,-0.04254
-0.12839,0.97406,-0.18632,-0.22565,-0.05988,-0.36768
-0.11395,0.97835,-0.17276,-0.2632,-0.19829,-0.44268
-0.10619,0.97795,-0.1798,-0.21919,-0.21694,-0.29739
-0.10816,0.97592,-0.18942,-0.15321,-0.1632,-0.01309
-0.11815,0.97281,-0.19921,-0.08345,-0.17824,0.04193
-0.13162,0.9683,-0.21231,0.25981,0.51054,0.39981
-0.13951,0.96643,-0.21576,0.70564,0.76055,0.34018
-0.13301,0.96761,-0.21456,0.08859,0.36984,0.26385
-0.1098,0.97082,-0.21318,-0.13215,0.41127,-0.13951
-0.0833,0.97459,-0.20794,-0.02534,0.45445,-0.10658
-0.06245,0.977,-0.2039,-0.158,1.20962,-0.30196
-0.05636,0.97651,-0.20794,-0.31925,1.53011,-0.79182
-0.06548,0.97397,-0.21699,-0.00451,-0.3275,0.17026
-0.0596,0.9757,-0.21084,0.63837,0.33723,0.09561
-0.04853,0.97831,-0.20135,0.54097,0.45978,0.28046
-0.0365,0.98342,-0.17762,-0.02258,0.03511,0.13261
-0.02925,0.9877,-0.15358,-0.13094,-0.39061,-0.20185
-0.02955,0.9894,-0.14217,-0.13693,-0.44986,-0.19492
-0.03699,0.98998,-0.13627,-0.0979,-0.25695,-0.10395
-0.04605,0.99103,-0.12542,-0.11227,-0.2139,-0.20015
-0.05455,0.99209,-0.11303,-0.14815,-0.24937,-0.30046
-0.06812,0.99152,-0.11062,0.03675,-0.50526,-0.18485
-0.08604,0.98993,-0.11235,0.1768,-0.45687,-0.15048
-0.10166,0.98826,-0.11403,0.16973,-0.32897,-0.15578
-0.1131,0.98728,-0.11171,0.03223,-0.16598,-0.35347
-0.12178,0.98689,-0.10586,0.12094,-0.18471,-0.3989
-0.12675,0.98686,-0.1002,0.28851,-0.06379,-0.266
-0.1318,0.98551,-0.10675,-0.02277,-0.16062,-0.1401
-0.1472,0.98052,-0.13003,-0.30575,0.08024,0.22355
-0.17402,0.97131,-0.16208,-0.2738,0.48396,-0.06563
-0.20195,0.95869,-0.2003,0.11121,0.84935,-0.0435
-0.22507,0.94549,-0.23536,0.3745,1.02676,0.07783
-0.24424,0.93275,-0.26518,0.43273,1.02161,0.19133
-0.26372,0.91957,-0.29126,0.23848,0.87098,0.19853
-0.28551,0.90064,-0.3276,-0.27647,0.68506,0.15338
-0.31723,0.87541,-0.36473,-0.42928,0.37446,0.20011
-0.33838,0.85319,-0.39693,-0.294,-0.33801,-0.07992
-0.34838,0.83994,-0.41609,0.17718,-0.457,-0.15791
-0.3567,0.83827,-0.41239,0.31594,-0.34912,0.07177
-0.36743,0.84121,-0.39668,0.03643,-0.39874,0.68817
-0.37589,0.84493,-0.38051,-0.00432,-0.50477,0.52376
-0.36967,0.85232,-0.36998,-0.04247,-0.50961,0.41565
-0.35328,0.86777,-0.34954,0.03997,-0.46156,0.10389
-0.3265,0.89234,-0.31163,0.05537,-0.45265,0.01218
-0.2918,0.91941,-0.26369,0.14825,-0.31826,-0.09446
-0.25548,0.94256,-0.21518,0.09076,-0.0334,-0.31415
-0.22419,0.95959,-0.17008,-0.07345,0.34126,-0.43096
-0.20758,0.96837,-0.13847,-0.27816,0.28508,-0.83319
-0.21284,0.96616,-0.14573,-0.17432,-0.24017,-0.30759
-0.22348,0.95758,-0.18191,-0.06525,-0.38288,-0.07995
-0.23928,0.94925,-0.20413,-0.09713,-0.10605,-0.01297
-0.26382,0.93849,-0.22279,0.3144,0.35913,0.85677
-0.26557,0.93431,-0.23778,0.86016,0.82955,0.40279
-0.23407,0.94486,-0.229,1.05033,0.34362,-0.08076
-0.20314,0.95809,-0.20198,0.43699,0.40426,0.60678
-0.16676,0.97281,-0.16072,-0.34598,3.39845,0.19299
-0.1806,0.97514,-0.12841,-0.48825,2.66584,-0.72796
-0.18988,0.97356,-0.12697,0.07578,-0.1451,-0.08998
-0.18067,0.97607,-0.12102,0.36643,0.279,0.02814
-0.15995,0.98193,-0.10117,0.40059,0.31838,0.30935
-0.13798,0.98858,-0.06061,0.28724,-0.10468,0.61388
-0.11753,0.99303,-0.00864,0.08869,-0.45659,0.10608
-0.10565,0.99373,0.03649,-0.03022,-0.47193,-0.56282
-0.10387,0.99275,0.06039,0.00157,-0.34604,-0.40272
-0.1077,0.99161,0.07144,0.14229,-0.35646,-0.0976
-0.11144,0.99,0.08653,0.23609,-0.28064,-0.0117
-0.11167,0.9879,0.10765,0.27319,-0.16271,-0.31169
-0.1099,0.98547,0.12951,0.2158,-0.1258,-0.45975
-0.10977,0.98318,0.14595,0.01171,-0.03154,-0.53757
-0.11294,0.98119,0.15657,0.04151,0.1761,-0.24554
-0.11815,0.9783,0.1702,0.18899,0.25957,-0.20176
-0.12082,0.97558,0.1834,0.28888,0.33882,-0.13772
-0.11934,0.97407,0.19218,0.04502,0.45329,-0.28434
-0.11684,0.97363,0.19591,-0.19004,0.4162,-0.68141
-0.1171,0.97443,0.19176,-0.05328,0.21159,-0.59001
-0.12667,0.97719,0.17043,0.23859,0.01367,-0.14228
-0.14561,0.98048,0.13209,0.28874,0.03507,-0.01878
-0.17162,0.98186,0.08061,0.36131,0.22084,0.05373
-0.19683,0.98026,0.01872,0.3706,0.68716,0.23689
-0.2085,0.97707,-0.04306,0.10187,0.41209,0.24634
-0.21315,0.97256,-0.09321,0.15858,0.3389,0.3444
-0.21783,0.96727,-0.13014,0.51936,0.26274,0.49077
-0.22549,0.9611,-0.15948,0.55275,0.30715,0.21185
-0.23464,0.95462,-0.18341,0.49259,0.28859,0.13016
-0.25252,0.94735,-0.19688,0.34518,0.16102,0.19316
-0.2818,0.93682,-0.20725,0.22682,-0.06265,0.33776
-0.30969,0.92463,-0.22168,0.22209,-0.09045,0.34471
-0.33016,0.91272,-0.2407,0.25927,0.0056,0.27499
-0.34597,0.9032,-0.25401,0.20652,-0.06589,0.41756
-0.3529,0.89775,-0.26362,0.20054,-0.0938,0.36531
-0.35402,0.89656,-0.26619,0.06219,-0.22361,0.25816
-0.34734,0.89893,-0.26697,0.01822,-0.15899,0.22917
-0.33612,0.90292,-0.26787,-0.02249,-0.13977,0.25205
-0.32318,0.90808,-0.26636,0.08781,-0.31244,0.20198
-0.31093,0.91439,-0.25925,0.08223,-0.31545,0.13944
-0.29766,0.92277,-0.24473,0.06631,-0.3122,0.1576
-0.28094,0.93375,-0.22176,0.04678,-0.2683,0.1258
-0.26018,0.94629,-0.19193,-0.00662,-0.12945,-0.03196
-0.23655,0.95826,-0.16053,-0.11678,0.15929,-0.35547
-0.22074,0.96503,-0.14136,0.13382,0.80957,-0.87429
-0.22523,0.96059,-0.16291,-0.08426,0.30862,-0.73818
-0.24776,0.94723,-0.2034,0.16556,-0.18037,-0.51025
-0.26981,0.9394,-0.2115,0.49631,-0.63642,-0.40854
-0.27433,0.93997,-0.20295,0.52164,-0.11655,0.07539
-0.26233,0.94362,-0.2019,0.18863,0.13896,0.04714
-0.24262,0.94818,-0.20516,-0.25476,0.72036,0.12337
-0.23642,0.94922,-0.20755,-0.03247,0.3887,1.02973
-0.24833,0.94744,-0.20169,-0.05632,-0.3825,1.04587
-0.2624,0.94735,-0.18351,0.12636,-0.6792,0.47173
-0.26428,0.94933,-0.17009,0.75616,0.45379,-0.07349
-0.26259,0.95252,-0.15412,0.64935,0.71716,0.27572
-0.25889,0.95658,-0.13392,0.12551,0.0945,-0.05065
-0.23958,0.96464,-0.10987,0.03361,-0.01785,-0.18637
-0.22056,0.97201,-0.08092,0.00877,-0.06922,-0.09954
-0.20734,0.97656,-0.0578,0.08486,-0.04673,0.0183
-0.20052,0.97866,-0.04492,0.15002,-0.01857,0.03178
-0.19803,0.97954,-0.03586,0.16294,-0.05429,0.1162
-0.19536,0.98043,-0.02407,0.02297,-0.00115,0.00789
-0.19131,0.98147,-0.01022,0.10859,0.0024,-0.07393
-0.18704,0.98234,0.00455,0.17739,-0.00759,-0.12119
-0.18192,0.98309,0.02084,0.23182,-0.04667,-0.12327
-0.17577,0.9837,0.03787,0.17989,-0.07347,-0.13063
-0.16891,0.98411,0.05462,0.15141,-0.0876,-0.14502
-0.16238,0.98407,0.07231,0.12115,-0.09431,-0.16739
-0.15692,0.98329,0.0922,0.1103,-0.06667,-0.18552
-0.15307,0.98171,0.11317,0.11334,-0.03824,-0.21588
-0.15057,0.97948,0.13394,0.13931,0.04121,-0.3136
-0.14735,0.97716,0.15307,0.18568,0.14005,-0.34756
-0.14199,0.97528,0.16931,0.18138,0.19405,-0.35461
-0.13613,0.9745,0.17838,0.32588,0.19495,-0.24042
-0.13162,0.97498,0.17911,0.14517,0.43096,-0.20639
-0.13079,0.97647,0.17141,-0.02381,0.41439,-0.33106
-0.13209,0.97903,0.15507,-0.00214,0.21616,-0.30163
-0.13955,0.98241,0.12407,0.104,0.13374,-0.17071
-0.15681,0.98477,0.07509,0.16292,0.10873,0.04747
-0.17904,0.9837,0.01666,0.23796,0.25518,0.24934
-0.1964,0.97982,-0.03693,0.17361,0.28456,0.14085
-0.20182,0.97582,-0.08387,0.29205,0.24206,0.14956
-0.20139,0.97237,-0.118,0.35667,0.34309,0.26044
-0.20262,0.96839,-0.14546,0.31679,0.27964,0.22306
-0.21495,0.96201,-0.16832,0.25395,0.05841,0.23687
-0.23515,0.95206,-0.19562,0.22418,-0.02133,0.17214
-0.25543,0.93983,-0.22686,0.05439,-0.10223,0.1575
-0.27044,0.92825,-0.25537,-0.04561,-0.17056,0.20385
-0.28138,0.91849,-0.27784,-0.0235,-0.14803,0.28603
-0.29066,0.91121,-0.2919,-0.03765,-0.16439,0.30455
-0.29544,0.9072,-0.29949,-0.03502,-0.174,0.26219
-0.29408,0.9062,-0.30383,-0.01918,-0.18968,0.20806
-0.28788,0.90767,-0.30538,0.00724,-0.25509,0.16508
-0.27687,0.91184,-0.30312,0.05168,-0.31471,0.17293
-0.26621,0.91788,-0.29432,0.00237,-0.31307,0.09551
-0.25371,0.92683,-0.2768,-0.04475,-0.31846,-0.02247
-0.23854,0.93916,-0.24713,-0.03017,-0.28473,-0.0496
-0.22015,0.9531,-0.20769,-0.08465,-0.02704,-0.12554
-0.19969,0.96365,-0.17747,0.1569,0.55737,-0.64442
-0.18152,0.96894,-0.16795,0.10634,0.65036,-0.87066
-0.18267,0.96541,-0.18604,0.0842,0.12893,-0.46103
-0.19517,0.9577,-0.21145,0.18856,-0.1194,-0.32382
-0.20142,0.95347,-0.22432,0.15241,-0.4016,-0.07433
-0.19708,0.95256,-0.23191,0.27985,-0.16121,0.21721
-0.18673,0.95351,-0.23651,0.19082,-0.08999,0.31169
-0.17595,0.95367,-0.24403,-0.02453,-0.02612,0.43046
-0.17525,0.95149,-0.25288,-0.02675,1.18234,0.33816
-0.18867,0.94862,-0.254,0.01522,-0.00191,0.25264
-0.20458,0.94371,-0.2599,-0.11491,-0.32839,0.50148
-0.20613,0.94427,-0.25663,-0.10991,0.23136,0.00306
-0.20835,0.94543,-0.25049,0.34827,0.58622,0.0768
-0.19024,0.9524,-0.23818,0.63128,0.6164,0.07171
-0.16681,0.96189,-0.21664,0.36316,-0.0012,0.0025
-0.14327,0.97024,-0.19519,0.11187,-0.24196,-0.10224
-0.1228,0.97745,-0.1718,-0.0497,-0.26915,-0.10927
-0.1092,0.98315,-0.14656,-0.36623,-0.19067,-0.25157
-0.10144,0.9864,-0.12927,-0.14703,-0.21704,-0.28128
-0.095,0.98795,-0.12218,0.02615,-0.17897,-0.3046
-0.09166,0.98819,-0.12277,0.21964,-0.27687,-0.19261
-0.0926,0.98753,-0.12732,0.00714,-0.39173,-0.23489
-0.09645,0.98583,-0.13726,-0.06875,-0.43508,-0.30599
-0.10618,0.98192,-0.1567,-0.17034,-0.43976,-0.25694
-0.12051,0.97586,-0.18213,-0.23547,-0.52052,-0.07719
-0.13154,0.96988,-0.20502,-0.19906,-0.52585,-0.01179
-0.13795,0.9679,-0.21007,0.11364,-0.14629,-0.22235
-0.14486,0.96631,-0.21272,0.21756,-0.12476,0.15815
-0.14564,0.96583,-0.21438,0.19267,-0.23129,0.158
-0.14359,0.96662,-0.21219,0.12276,-0.29028,0.13657
-0.14401,0.9669,-0.21061,0.1287,-0.15874,-0.02455
-0.14925,0.96675,-0.20764,0.20232,0.00705,-0.01697
-0.15524,0.9663,-0.20534,0.10922,0.27598,-0.04444
-0.16682,0.96181,-0.217,0.06587,0.30053,0.00655
-0.18134,0.9525,-0.24467,-0.09486,0.47354,0.04971
-0.20345,0.93827,-0.27975,-0.0855,0.83482,-0.08089
-0.23463,0.9187,-0.31772,-0.07404,0.86878,-0.14826
-0.26622,0.89682,-0.35332,-0.02651,0.50485,0.07699
-0.2967,0.87519,-0.3821,-0.14789,0.89316,-0.05377
-0.31522,0.85581,-0.41015,-0.40809,0.48226,0.08594
-0.32851,0.8383,-0.43513,-0.51375,0.15099,0.14583
-0.3427,0.82091,-0.45679,-0.09716,-0.02144,0.02109
-0.35346,0.80429,-0.47769,0.16848,-0.34216,0.02489
-0.3622,0.79495,-0.48669,0.10364,-0.23582,0.19238
-0.37114,0.79466,-0.48039,-0.06819,-0.32006,0.58996
-0.37829,0.80135,-0.46339,-0.06915,-0.45252,0.57289
-0.37501,0.80895,-0.45274,0.01173,-0.64632,0.34759
-0.35947,0.81953,-0.44627,0.07712,-0.71011,0.15483
-0.33545,0.83603,-0.4342,0.16428,-0.72929,0.06414
-0.30516,0.8595,-0.41004,0.30984,-0.65303,0.00619
-0.26724,0.88724,-0.37601,0.06077,-0.49511,0.02371
-0.22458,0.91786,-0.32726,-0.08467,-0.32453,0.0162
-0.18303,0.94497,-0.27115,-0.09368,-0.21759,-0.10374
-0.14766,0.96387,-0.22168,0.14286,0.05064,-0.31561
-0.12685,0.9742,-0.18664,0.00468,-0.23432,-0.00231
-0.11784,0.97607,-0.18275,-0.11766,-0.3654,0.07478
-0.11871,0.97317,-0.19707,0.02383,0.0363,0.47213
-0.11607,0.97354,-0.19683,0.26391,1.1306,0.24125
-0.1068,0.9772,-0.18349,0.25181,1.42026,-0.20441
-0.09902,0.97842,-0.18133,-0.00276,0.12805,0.08012
-0.07973,0.98208,-0.17075,-0.27741,1.42383,-0.48288
-0.07107,0.98459,-0.15977,-0.43411,2.66217,-0.88042
-0.08278,0.97911,-0.1857,0.26926,-0.44565,0.23738
-0.08182,0.97186,-0.2209,0.15369,-0.96893,0.43947
-0.07152,0.9698,-0.23317,0.11143,-0.72025,0.20416
-0.06126,0.97223,-0.22585,0.27412,-0.00693,0.48888
-0.05229,0.97722,-0.20566,0.34454,-0.2323,0.4912
-0.03297,0.98568,-0.16536,0.20878,-0.24419,0.31511
-0.01421,0.99237,-0.12243,-0.11891,0.10299,-0.7046
-0.01585,0.9942,-0.10638,-0.50301,0.05079,-0.74376
-0.03415,0.9931,-0.1122,-0.62199,-0.92414,0.04114
-0.04691,0.99188,-0.11823,-0.41354,-0.84501,-0.315
-0.05998,0.99009,-0.12694,0.36213,-0.26921,-0.17848
-0.06525,0.98851,-0.1363,0.46502,0.13292,-0.10502
-0.06867,0.9874,-0.14253,-0.01045,-0.43171,0.04015
-0.07468,0.98624,-0.14747,0.00732,-0.36886,-0.31401
-0.08164,0.98598,-0.14553,0.44648,0.16615,-0.21415
-0.08215,0.9872,-0.13669,0.42768,0.43391,-0.08298
-0.083,0.98676,-0.13933,-0.05101,-0.23032,-0.05722
-0.09562,0.98183,-0.16388,-0.5344,-0.16874,0.0777
-0.13217,0.96974,-0.20528,-0.68163,0.38009,0.01729
-0.17507,0.95171,-0.25218,-0.28323,0.96829,-0.13866
-0.21413,0.93039,-0.29754,0.32651,0.72516,0.12975
-0.25166,0.90869,-0.33308,0.48436,0.42883,0.31525
-0.28913,0.88469,-0.36568,0.0689,0.43751,-0.07864
-0.31741,0.86317,-0.39267,-0.21503,0.74976,-0.28081
-0.32305,0.8481,-0.41994,-0.61919,0.40453,0.04586
-0.32739,0.8325,-0.44694,-0.43331,-0.02334,0.07343
-0.33631,0.81703,-0.46835,0.26103,-0.31506,-0.03742
-0.34256,0.8121,-0.47239,0.57228,-0.18179,0.17105
-0.34312,0.81979,-0.45848,0.20799,-0.00458,0.43205
-0.34488,0.83271,-0.43317,-0.34454,-0.20382,0.64473
-0.34153,0.84682,-0.40774,-0.42945,-0.48206,0.62588
-0.3236,0.86329,-0.38731,-0.19561,-0.55377,0.34649
-0.29969,0.88193,-0.36384,0.04017,-0.53193,0.0601
-0.26867,0.90373,-0.33329,0.34633,-0.34712,-0.02558
-0.23476,0.92452,-0.30025,0.23957,-0.33161,-0.04673
-0.20166,0.94335,-0.26348,-0.07143,-0.28356,0.13372
-0.16892,0.96019,-0.22248,-0.23248,-0.31648,0.10208
-0.14425,0.97307,-0.17979,-0.24463,-0.17299,-0.08617
-0.12792,0.98111,-0.14508,-0.22776,-0.03888,-0.19497
-0.11839,0.98521,-0.12382,-0.10558,0.10449,-0.31496
-0.11123,0.98706,-0.1155,-0.08757,-0.02963,-0.33094
-0.10736,0.98762,-0.11434,-0.15142,-0.08317,-0.27123
-0.10499,0.98764,-0.11632,-0.20314,0.31253,-0.15458
-0.10608,0.9868,-0.12232,-0.1788,0.23774,-0.18313
-0.1159,0.98369,-0.13754,-0.09683,0.26053,-0.0044
-0.12803,0.97969,-0.15432,0.58743,-0.07431,0.48647
-0.12756,0.98012,-0.15198,0.27627,-0.31939,-0.12475
-0.11633,0.98311,-0.1413,0.10022,-0.04559,-0.30153
-0.09756,0.98564,-0.1378,0.12625,1.10391,0.13013
-0.07817,0.98828,-0.13107,-0.05444,1.27218,-0.35055
-0.06613,0.98948,-0.12863,0.05663,0.76439,-0.6111
-0.05964,0.98851,-0.1389,0.22003,-0.16948,0.08983
-0.05591,0.98809,-0.14336,0.05237,-0.02434,0.25857
-0.05172,0.98833,-0.14329,0.00128,0.16385,0.23754
-0.0467,0.98951,-0.13672,0.05599,0.10536,0.2157
-0.04289,0.99105,-0.12636,0.01816,-0.11473,0.00841
-0.04095,0.99277,-0.1128,0.01927,-0.16253,-0.113
-0.03988,0.99399,-0.10196,0.00767,-0.32748,-0.07356
-0.03897,0.99495,-0.09251,-0.04181,-0.31619,-0.08503
-0.03881,0.99578,-0.08314,-0.04196,-0.31702,-0.0944
-0.03987,0.99626,-0.07662,-0.05777,-0.33894,-0.39975
-0.04131,0.99654,-0.07217,-0.0541,-0.44346,-0.43681
-0.04559,0.99647,-0.07051,0.07869,-0.19253,-0.43059
-0.05353,0.99562,-0.07664,0.09029,-0.11732,-0.35194
-0.06288,0.99427,-0.08642,-0.10979,-0.46293,-0.10798
-0.07361,0.99321,-0.09005,0.01651,-0.45667,-0.23301
-0.08359,0.99232,-0.09112,0.32042,-0.02557,-0.15444
-0.09245,0.99173,-0.08904,0.33251,-0.14164,0.00413
-0.10139,0.99057,-0.09207,0.08012,-0.18926,-0.07658
-0.12089,0.98681,-0.10767,-0.33605,0.04,-0.37443
-0.14777,0.98101,-0.12557,0.1258,-0.01191,-0.10954
-0.16759,0.97573,-0.14095,0.15952,0.34474,0.06463
-0.18795,0.96827,-0.16467,-0.09803,0.56218,0.15102
-0.20847,0.95873,-0.19332,-0.09242,0.94891,0.04071
-0.22742,0.94854,-0.22032,-0.03462,0.97293,0.02441
-0.24496,0.93704,-0.2489,-0.09057,0.60857,0.09616
-0.26797,0.92209,-0.27919,0.15741,0.43621,0.05031
-0.28932,0.90635,-0.30794,0.11704,0.42582,-0.05058
-0.29961,0.89427,-0.33244,-0.20679,0.53913,-0.11388
-0.30649,0.88648,-0.34671,-0.16195,0.43815,0.1215
-0.31721,0.88046,-0.35237,-0.07387,0.15946,0.21307
-0.32481,0.87599,-0.35655,0.06805,-0.1787,0.28186
-0.32689,0.87396,-0.35964,0.14407,-0.40577,0.28559
-0.32429,0.87588,-0.35731,0.00448,-0.39147,0.34686
-0.31764,0.88196,-0.34821,-0.03651,-0.44446,0.39078
-0.30771,0.8907,-0.33461,-0.05008,-0.4774,0.33008
-0.29249,0.90258,-0.31591,-0.0672,-0.50791,0.22787
-0.27112,0.91828,-0.28853,0.16174,-0.57975,0.10536
-0.24529,0.93481,-0.25682,0.19527,-0.5703,0.10261
-0.21401,0.95019,-0.22657,0.04254,-0.34793,0.05199
-0.17988,0.96384,-0.19661,-0.20878,-0.0324,0.05046
-0.15312,0.9747,-0.16283,-0.20539,-0.07596,0.01047
-0.13521,0.9817,-0.13412,-0.1818,-0.12765,-0.05821
-0.12735,0.98461,-0.11968,-0.15487,-0.1583,-0.25146
-0.12459,0.98494,-0.11988,-0.15568,-0.02441,-0.48394
-0.12327,0.98438,-0.12573,-0.0866,-0.05241,-0.42723
-0.12087,0.98321,-0.13671,-0.06223,-0.20587,0.1392
-0.11907,0.98154,-0.14965,-0.01797,-0.25706,0.17567
-0.12248,0.98,-0.15686,0.21214,-0.04015,0.1399
-0.12637,0.98047,-0.15066,0.55502,0.53944,0.07779
-0.12542,0.98158,-0.14411,0.29315,0.5771,0.07158
-0.11833,0.98225,-0.14552,-0.11833,0.64966,0.08337
-0.10445,0.98393,-0.14483,-0.31685,0.55033,-0.43246
-0.09121,0.98563,-0.14215,0.19438,0.07792,0.05596
-0.07139,0.98787,-0.13793,0.26401,0.14653,-0.01426
-0.0469,0.99093,-0.12594,0.24328,0.74653,-0.13408
-0.02328,0.99393,-0.10748,0.11944,1.14077,-0.21832
-0.0086,0.99592,-0.08981,-0.14199,-0.06883,-0.06904
-0.00117,0.99665,-0.08177,-0.21132,-0.41875,0.07192
-0.00685,0.99676,-0.08008,-0.1096,-0.30011,-0.03547
-0.01094,0.99699,-0.07678,0.14438,-0.02383,0.09245
-0.00742,0.99786,-0.06497,0.11919,-0.24314,0.11262
0.00268,0.99887,-0.04752,0.06954,-0.36692,-0.18315
0.01195,0.99936,-0.03375,0.01044,-0.29091,-0.34502
0.01416,0.99951,-0.02797,-0.23551,-0.19798,-0.45489
0.0091,0.9995,-0.03045,-0.19342,-0.41716,-0.31902
-0.00265,0.99918,-0.04038,-0.12476,-0.46592,-0.22813
-0.01714,0.99848,-0.05233,0.07271,-0.42179,-0.08067
-0.03055,0.99754,-0.06314,0.09618,-0.21569,-0.14839
-0.04387,0.99641,-0.07239,0.1848,-0.19795,-0.12462
-0.05544,0.99523,-0.08024,0.45966,-0.21929,0.08344
-0.06696,0.99386,-0.0881,-0.02164,0.16413,-0.23657
-0.08325,0.99188,-0.09616,-0.13622,0.2036,-0.32454
-0.09631,0.99012,-0.10192,0.06663,-0.00458,-0.1788
-0.11026,0.98688,-0.11795,-0.097,0.31399,-0.04682
-0.13023,0.97946,-0.15393,-0.21376,0.56277,-0.07528
-0.15032,0.96902,-0.19595,-0.33696,0.69194,-0.12423
-0.16922,0.95836,-0.23004,-0.21089,0.44144,0.21522
-0.194,0.94704,-0.25589,-0.07223,0.56157,0.31004
-0.22806,0.9347,-0.27263,0.0797,1.06594,0.22984
-0.25704,0.92156,-0.29095,0.02281,1.13752,0.16343
-0.26958,0.90768,-0.32162,-0.66182,0.02365,-0.05611
-0.28066,0.89255,-0.35298,-0.10936,0.12425,-0.1327
-0.29427,0.87807,-0.37736,0.31814,0.10082,-0.03415
-0.3051,0.86901,-0.38953,0.33889,0.04939,0.06666
-0.30876,0.86803,-0.38883,0.23056,-0.12343,0.27235
-0.31218,0.87196,-0.37713,-0.10272,-0.31727,0.53367
-0.31136,0.87742,-0.36496,-0.2026,-0.36445,0.55596
-0.30446,0.88377,-0.35532,-0.07659,-0.48701,0.28652
-0.29227,0.89262,-0.34322,0.02283,-0.51384,0.18552
-0.27435,0.90611,-0.32201,0.14485,-0.50807,0.11545
-0.25092,0.92281,-0.29234,0.15299,-0.49893,0.04411
-0.22268,0.94038,-0.25711,0.20108,-0.48962,0.02223
-0.18855,0.95705,-0.22023,0.18027,-0.38187,0.02654
-0.15405,0.97173,-0.17891,-0.20116,-0.09223,-0.01248
-0.12762,0.98252,-0.13553,-0.28393,-0.00512,-0.28738
-0.11479,0.98767,-0.10648,-0.15238,-0.05619,-0.30308
-0.11121,0.98821,-0.10526,-0.31649,-0.06236,-0.25053
-0.11016,0.98679,-0.11878,-0.33704,-0.12551,-0.19261
-0.11133,0.98493,-0.13234,-0.26239,-0.25353,0.00177
-0.1126,0.98376,-0.13974,-0.15517,0.28609,0.11461
-0.11853,0.98281,-0.14151,-0.14924,0.28704,0.11638
-0.12381,0.98312,-0.13473,0.50518,0.83675,-0.00915
-0.12463,0.98371,-0.12954,0.78687,0.21047,0.1524
-0.11447,0.98534,-0.12648,0.541,-0.39095,0.32913
-0.08659,0.98951,-0.11565,-0.04355,0.6022,-0.37559
-0.0625,0.99324,-0.09784,0.02112,1.53162,0.09131
-0.04435,0.99524,-0.08675,-0.03336,0.93084,0.15763
-0.02711,0.9962,-0.08276,-0.24343,-0.01939,-0.16973
-0.02709,0.99569,-0.08869,-0.02145,0.41746,-0.06895
-0.0293,0.99521,-0.09328,0.47813,0.26533,0.06886
-0.01872,0.99609,-0.0863,0.49342,0.04944,0.17041
-0.00091,0.99786,-0.06531,-0.03105,-0.13683,0.02763
0.01005,0.99902,-0.04305,-0.07945,-0.07548,-0.11262
0.01354,0.99948,-0.02931,-0.04523,-0.12613,-0.16409
0.01288,0.99972,-0.01993,-0.026,-0.28837,-0.13547
0.0102,0.99989,-0.01111,0.0526,-0.32232,-0.23146
0.0054,0.99997,-0.00577,0.04038,-0.28102,-0.27237
-0.00207,0.99997,-0.00758,-0.0996,-0.50026,-0.30965
-0.01325,0.99978,-0.01618,-0.19378,-0.62455,-0.13014
-0.031,0.99916,-0.02688,-0.18488,-0.56332,-0.15685
-0.05323,0.99787,-0.03776,0.16053,-0.15502,-0.28256
-0.07118,0.99621,-0.05003,0.36186,-0.14954,-0.15395
-0.08432,0.99492,-0.0549,0.26263,-0.2405,-0.22854
-0.09707,0.9937,-0.05598,0.29081,-0.24959,-0.19132
-0.10748,0.99263,-0.05602,-0.03063,0.17455,-0.44773
-0.11638,0.99157,-0.05692,-0.11097,0.23929,-0.49852
-0.12161,0.99067,-0.06158,0.09411,-0.01764,-0.31626
-0.12911,0.98896,-0.07277,-0.13253,0.03396,0.06064
-0.14948,0.98431,-0.0938,-0.28054,0.09254,0.06014
-0.1803,0.97593,-0.12265,-0.41185,0.15108,0.05889
-0.21088,0.9657,-0.15149,0.04413,0.81239,-0.04045
-0.2359,0.95501,-0.17976,0.31488,1.01487,-0.05239
-0.25375,0.94628,-0.2004,0.24521,0.91566,-0.0066
-0.26513,0.93861,-0.22073,0.1068,0.70809,0.08641
-0.27503,0.92949,-0.24577,-0.02722,0.54446,0.12978
-0.27573,0.92024,-0.27774,-0.21032,0.32136,0.06561
-0.27273,0.91176,-0.30709,-0.0907,0.41055,0.08554
-0.27658,0.90418,-0.32551,0.25101,-0.02111,0.15986
-0.2815,0.89957,-0.33397,0.2902,-0.18707,0.09877
-0.28209,0.90041,-0.3312,0.12648,-0.22244,0.24051
-0.28043,0.90323,-0.32486,-0.17106,-0.35677,0.3827
-0.27742,0.90615,-0.31925,-0.21623,-0.44494,0.43923
-0.27363,0.90996,-0.31161,-0.10132,-0.40418,0.29705
-0.26711,0.91577,-0.30005,0.07396,-0.38632,0.20547
-0.2579,0.92306,-0.28537,0.06014,-0.53538,0.19096
-0.24942,0.93106,-0.2663,0.03179,-0.59401,0.19156
-0.24151,0.94005,-0.2408,-0.00146,-0.61412,0.18299
-0.23507,0.94929,-0.20879,-0.08215,-0.46935,0.15801
-0.23031,0.95775,-0.17224,-0.15125,-0.28727,0.05984
-0.22432,0.96491,-0.13651,-0.17679,-0.2175,-0.08275
-0.21296,0.97106,-0.10814,0.01137,0.01347,-0.47426
-0.19756,0.97609,-0.0907,0.23884,0.40732,-0.71105
-0.19293,0.97683,-0.09268,0.16068,0.57679,-0.62771
-0.19877,0.97293,-0.11791,-0.48749,0.19179,-0.40461
-0.20506,0.9683,-0.14267,-0.25193,-0.45379,-0.67161
-0.21482,0.96395,-0.15702,-0.24217,-0.44944,-0.65727
-0.23371,0.95798,-0.1663,-0.24206,0.86401,-0.16623
-0.27688,0.9432,-0.18363,0.22624,0.36988,1.05667
-0.31153,0.92634,-0.21178,0.26088,0.38674,1.08483
-0.28834,0.93027,-0.22685,0.79016,0.35716,-0.67736
-0.26353,0.94019,-0.21585,0.4275,0.98092,0.55702
-0.22355,0.95367,-0.20133,0.38752,0.96744,0.5425
-0.2025,0.96506,-0.16631,0.05229,1.42169,-0.06042
-0.20214,0.96818,-0.14751,0.1584,-0.03615,0.30814
-0.19148,0.97273,-0.1309,0.0069,-0.01771,-0.00945
-0.1696,0.97898,-0.11332,-0.02753,0.21466,0.26019
-0.14596,0.98544,-0.08718,0.06855,-0.0865,0.31359
-0.12565,0.99071,-0.05193,0.00326,-0.20983,0.30111
-0.11341,0.99352,-0.008,0.00319,-0.39052,0.12222
-0.10576,0.99384,0.0332,0.21362,-0.3248,-0.39596
-0.09837,0.99346,0.05791,0.21452,-0.2481,-0.35211
-0.09398,0.99297,0.07198,0.10718,-0.26268,-0.20531
-0.09235,0.99184,0.08789,0.07743,-0.18674,-0.09465
-0.09122,0.98991,0.10844,0.07236,-0.12057,-0.12194
-0.08965,0.98733,0.13092,0.08809,-0.04332,-0.22498
-0.0877,0.98459,0.15133,0.08507,-0.03599,-0.3182
-0.08638,0.98152,0.17077,0.07927,0.03403,-0.30779
-0.08757,0.97764,0.1912,0.07831,0.37034,-0.11517
-0.08959,0.97417,0.20729,0.08057,0.37367,-0.10985
-0.08932,0.9722,0.21645,0.13986,0.31247,-0.29813
-0.08911,0.97138,0.22018,-0.10906,0.38822,-0.56906
-0.09316,0.97092,0.22053,-0.14684,0.24636,-0.69939
-0.10606,0.97183,0.21045,0.11056,0.10605,-0.51172
-0.12675,0.97396,0.18798,0.34277,0.1861,-0.14756
-0.15129,0.97659,0.1529,0.38765,0.26749,0.00646
-0.17675,0.97858,0.10554,0.41532,0.29635,0.12949
-0.19407,0.97968,0.05064,0.11993,0.27281,0.2175
-0.20134,0.97952,-0.00126,-0.0092,0.15902,0.18656
-0.20422,0.97776,-0.0477,0.15498,0.22823,0.25894
-0.20712,0.97458,-0.08536,0.46946,0.23811,0.48018
-0.21158,0.97091,-0.1121,0.31264,0.32967,0.24954
-0.21682,0.96784,-0.12755,0.24699,0.29897,0.17484
-0.2259,0.96336,-0.14461,0.17996,0.20802,0.18143
-0.24083,0.95639,-0.16526,0.25583,0.0673,0.226
-0.25721,0.94748,-0.19008,0.31184,-0.005,0.19519
-0.27211,0.93828,-0.21352,0.31035,-0.02972,0.21169
-0.28417,0.93126,-0.22803,0.28181,-0.00721,0.32819
-0.29249,0.92705,-0.2346,0.25156,-0.03871,0.34439
-0.29638,0.92405,-0.24145,0.0826,-0.1784,0.267
-0.29581,0.92179,-0.25061,0.04569,-0.13094,0.17257
-0.29142,0.92069,-0.25965,0.00287,-0.11758,0.18084
-0.28544,0.92105,-0.26493,0.03057,-0.17278,0.21828
-0.28181,0.92197,-0.26561,0.00599,-0.21151,0.21375
-0.27877,0.92374,-0.26266,0.01532,-0.25705,0.21612
-0.2752,0.92672,-0.25584,-0.01777,-0.28768,0.18289
-0.26771,0.93204,-0.24422,-0.01356,-0.25355,0.09269
-0.2551,0.93925,-0.22965,-0.05843,-0.16351,-0.0238
-0.23979,0.94725,-0.21265,-0.13746,-0.06753,-0.17816
-0.22582,0.95459,-0.19431,-0.08945,0.07513,-0.40907
-0.21996,0.95816,-0.18314,-0.05832,0.53079,-0.65823
-0.2289,0.95301,-0.19844,-0.26727,0.49806,-0.75303
-0.2454,0.94347,-0.22281,0.0048,-0.38913,-0.40183
-0.25921,0.93821,-0.22928,0.09608,-0.51257,-0.28297
-0.26596,0.93775,-0.22336,0.31297,-0.39941,-0.08118
-0.26102,0.93977,-0.22066,-0.19699,0.93277,-0.09692
-0.26052,0.93712,-0.23225,-0.38893,1.79746,-0.18574
-0.28256,0.92417,-0.25706,0.08828,0.93211,0.68273
-0.29786,0.9206,-0.25253,0.63109,-1.27024,1.01759
-0.28536,0.93077,-0.22855,0.51201,-0.74677,0.7052
-0.26299,0.94212,-0.20796,0.46195,0.74999,-0.34552
-0.25798,0.94779,-0.18745,0.64929,0.6928,0.74087
-0.23423,0.95701,-0.1711,0.05021,-0.079,0.21601
-0.20747,0.9662,-0.153,-0.19701,-0.15325,-0.17417
-0.18605,0.97366,-0.13183,-0.21243,-0.07273,-0.17005
-0.1655,0.9802,-0.10873,0.23948,0.03518,0.0276
-0.14933,0.98478,-0.08895,0.2851,-0.06597,0.08911
-0.13697,0.98767,-0.07576,0.17913,-0.16526,0.03534
-0.12759,0.98983,-0.06284,0.06365,-0.17028,0.00942
-0.121,0.99161,-0.04555,0.0226,-0.13667,0.01282
-0.11395,0.99317,-0.02526,0.04958,-0.12201,-0.02247
-0.1055,0.99441,-0.00474,0.12032,-0.12557,-0.04324
-0.09613,0.99529,0.01271,0.0865,-0.17,0.00655
-0.08609,0.99591,0.02725,0.09462,-0.09745,0.03376
-0.07647,0.99612,0.04355,0.06658,0.01882,-8e-05
-0.06736,0.99579,0.0622,0.05846,0.01103,-0.06737
-0.05815,0.99484,0.08319,0.05668,-0.03498,-0.09759
-0.04925,0.99311,0.10634,0.06086,-0.00962,-0.16137
-0.04079,0.99071,0.12972,0.02059,0.04693,-0.29625
-0.0328,0.98801,0.15087,0.07395,0.06895,-0.35386
-0.02649,0.98561,0.16696,0.12906,0.08403,-0.28775
-0.02281,0.98373,0.17819,0.13617,0.14527,-0.17168
-0.02206,0.98644,0.16261,0.06324,0.30023,-0.24229
-0.02114,0.98683,0.16036,0.00167,0.35872,-0.29461
-0.02177,0.98713,0.15843,-0.02144,0.10529,-0.3423
-0.02728,0.98813,0.15114,-0.00864,0.03375,-0.32702
-0.03581,0.99017,0.13523,0.02786,0.01437,-0.29871
-0.04905,0.99289,0.10842,0.06646,-0.01395,-0.11521
-0.0712,0.99527,0.06606,0.07422,0.21867,0.11593
-0.09984,0.99498,0.00645,0.19006,0.36842,0.27079
-0.12115,0.9907,-0.06186,0.14724,0.78215,0.4738
-0.1271,0.98376,-0.12675,-0.10437,0.50219,0.26635
-0.131,0.97469,-0.18114,0.01265,0.42358,0.37647
-0.14142,0.96441,-0.22342,0.29831,0.27923,0.42427
-0.15952,0.95422,-0.25302,0.06393,0.23852,0.34519
-0.18436,0.94232,-0.27936,0.08878,0.25041,0.37152
-0.21554,0.92574,-0.31073,0.01818,-0.14482,0.35965
-0.24646,0.90382,-0.34982,0.09035,-0.15777,0.24066
-0.27419,0.88147,-0.38448,0.1099,-0.17275,0.1296
-0.29516,0.86538,-0.40498,0.12069,-0.09264,0.25976
-0.31303,0.85638,-0.41063,0.08899,-0.21149,0.4071
-0.3252,0.85182,-0.41066,-0.0059,-0.34856,0.41988
-0.32796,0.85189,-0.40832,-0.00932,-0.30106,0.30376
-0.3209,0.85524,-0.40692,0.04686,-0.18752,0.03188
-0.30841,0.8596,-0.40738,0.0415,-0.22302,-0.04117
-0.29568,0.86537,-0.4046,0.07964,-0.26378,0.03761
-0.28267,0.87377,-0.39577,0.06635,-0.27503,0.20895
-0.26917,0.88228,-0.38617,0.03613,-0.31351,0.22867
-0.25517,0.88936,-0.37938,0.00647,-0.33525,0.23864
-0.24012,0.89677,-0.37167,0.00288,-0.30759,0.17437
-0.2257,0.90579,-0.35861,0.0156,-0.30292,0.14219
-0.2108,0.91648,-0.34005,0.06542,-0.20221,0.09875
-0.19539,0.92763,-0.31833,0.13413,0.06439,-0.07218
-0.18017,0.93779,-0.29681,0.12898,0.18271,-0.12414
-0.16702,0.94482,-0.2818,0.12938,0.05722,-0.08499
-0.15645,0.94841,-0.27576,0.12543,0.02242,-0.07171
-0.1452,0.95199,-0.26951,0.08767,0.03631,-0.1808
-0.12951,0.958,-0.25586,-0.05819,0.0971,-0.08197
-0.11408,0.96354,-0.24202,-0.1715,0.0109,0.01926
-0.10445,0.96671,-0.23358,-0.22167,-0.14391,0.20438
-0.1007,0.96863,-0.2272,-0.11971,-0.1271,-0.04214
-0.09864,0.9712,-0.21687,-0.09896,-0.12664,-0.10483
-0.09711,0.97359,-0.20662,-0.01571,-0.01178,-0.06888
-0.10164,0.97333,-0.20568,0.10855,0.5183,0.2016
-0.10961,0.97065,-0.21406,0.2132,0.67086,0.31557
-0.11256,0.96943,-0.21801,0.62594,0.01629,0.29429
-0.10632,0.96977,-0.21963,0.14718,0.19713,0.07367
-0.09795,0.96809,-0.23067,-0.11206,-0.09878,0.32751
-0.0848,0.97008,-0.22748,-0.05846,-0.11676,0.30471
-0.06921,0.97627,-0.20518,-0.07163,1.95886,-0.27792
-0.06176,0.98148,-0.18135,-0.13123,1.55061,-0.79563
-0.06769,0.98183,-0.17728,0.0302,-0.0391,-0.37349
-0.06992,0.98215,-0.1746,0.09695,-0.66039,0.00531
-0.06977,0.98253,-0.17253,0.1793,-0.04238,0.23725
-0.06519,0.98443,-0.16323,0.00733,0.21587,0.17822
-0.06109,0.98746,-0.14555,0.0552,-0.07691,-0.03625
-0.06108,0.98938,-0.13188,0.13235,-0.27803,-0.23441
-0.06694,0.98929,-0.12969,-0.03765,-0.32448,-0.30215
-0.07846,0.98799,-0.13312,-0.10879,-0.39488,-0.04159
-0.09161,0.98694,-0.13251,-0.00568,-0.28392,-0.11036
-0.10318,0.9856,-0.13397,0.09704,-0.21649,-0.21855
-0.11246,0.98374,-0.14003,0.04826,-0.32545,-0.10584
-0.12165,0.98158,-0.14729,0.0848,-0.37395,-0.00435
-0.13012,0.97974,-0.15223,0.13303,-0.26185,0.01371
-0.13373,0.97989,-0.14807,0.20389,-0.01632,-0.1532
-0.13421,0.98123,-0.13847,0.35551,0.02909,0.0128
-0.13325,0.98253,-0.12989,0.03416,-0.2114,0.00856
-0.14195,0.98167,-0.12717,-0.23966,0.03432,-0.26286
-0.15493,0.97892,-0.13312,0.31581,0.30622,0.04956
-0.16317,0.97511,-0.15014,0.17698,0.25922,0.05477
-0.1748,0.9675,-0.18269,-0.17586,0.27708,0.14098
-0.19442,0.95482,-0.22478,-0.31782,0.77367,0.05203
-0.21424,0.93924,-0.26818,-0.22603,0.78523,0.12361
-0.23286,0.92373,-0.30415,-0.08822,0.59718,0.2834
-0.25879,0.90709,-0.33197,0.08452,0.7523,0.39193
-0.29342,0.8894,-0.35054,0.09342,0.85316,0.23903
-0.32031,0.87066,-0.37331,-0.11794,0.98824,-0.02197
-0.33925,0.85265,-0.39737,-0.17016,-0.1053,0.02518
-0.35596,0.83613,-0.41734,-0.06219,-0.22868,0.11748
-0.36879,0.82407,-0.43001,0.17391,-0.26422,0.24216
-0.37762,0.8192,-0.43164,0.21811,-0.338,0.42735
-0.38181,0.82029,-0.42584,0.01424,-0.41889,0.57623
-0.37961,0.82553,-0.41761,0.00405,-0.51552,0.48674
-0.36831,0.83706,-0.40458,0.09593,-0.60006,0.37298
-0.3497,0.85359,-0.38612,0.18341,-0.56976,0.10034
-0.32493,0.87289,-0.36398,0.35812,-0.52702,0.00563
-0.29198,0.89334,-0.34159,0.24329,-0.44643,0.01593
-0.2509,0.91496,-0.31607,0.01325,-0.32106,0.06587
-0.20941,0.93646,-0.28141,-0.04627,-0.14689,0.06007
-0.17563,0.95359,-0.24457,0.077,-0.05319,-0.04887
-0.1526,0.96462,-0.21501,-0.03443,-0.09506,-0.26764
-0.13763,0.9706,-0.19746,-0.36264,-0.00344,-0.39292
-0.12617,0.97388,-0.1888,-0.29348,0.02911,-0.29126
-0.11744,0.97479,-0.18971,-0.19788,0.01004,-0.08582
-0.11687,0.97262,-0.20088,-0.32838,0.27677,-0.00962
-0.13029,0.96741,-0.21711,-0.20525,0.65498,0.03524
-0.14236,0.9643,-0.22331,0.49496,0.49011,0.44105
-0.14258,0.96357,-0.22628,0.58116,0.17753,0.20249
-0.13993,0.96179,-0.23533,0.14469,0.52596,0.0192
-0.12871,0.96211,-0.24037,0.13106,0.60883,-0.05933
-0.11323,0.96598,-0.23252,0.20414,0.65675,0.1305
-0.09111,0.9707,-0.22234,0.1175,0.42862,0.06612
-0.06818,0.97496,-0.21166,0.05081,0.03761,0.17262
-0.05001,0.97928,-0.19624,-0.06463,0.00244,0.29249
-0.03926,0.98211,-0.18416,-0.21173,0.05935,0.12234
-0.03798,0.98324,-0.17834,-0.08984,0.24977,-0.04074
-0.03951,0.98364,-0.17576,0.09861,0.04819,-0.11492
-0.03963,0.98406,-0.17338,0.13914,-0.24623,-0.03889
-0.04034,0.98472,-0.16939,0.09909,-0.38523,-0.00276
-0.04523,0.98464,-0.16866,-0.02619,-0.36275,-0.05359
-0.05287,0.9841,-0.16955,-0.23014,-0.21855,-0.25649
-0.06198,0.98342,-0.17044,-0.14064,-0.26894,-0.32525
-0.07002,0.98211,-0.17478,0.17241,-0.48124,-0.21411
-0.07675,0.98037,-0.18162,0.11125,-0.48742,0.07005
-0.08513,0.97841,-0.18834,0.04372,-0.40562,0.02791
-0.09622,0.97659,-0.1924,0.11899,-0.14825,-0.1584
-0.10598,0.97556,-0.1925,0.29242,-0.04279,0.03268
-0.11316,0.97481,-0.19217,0.15961,-0.05526,-0.03636
-0.12419,0.97313,-0.19391,-0.01773,0.14012,-0.31749
-0.14047,0.96886,-0.20389,0.04889,-0.02666,-0.01744
-0.15786,0.962,-0.22277,0.03862,-0.00871,0.09127
-0.18223,0.95092,-0.25009,-0.21338,0.31847,0.07905
-0.20869,0.93767,-0.27789,-0.11423,0.65718,0.08539
-0.23456,0.92341,-0.3038,-0.01849,0.64657,0.12388
-0.26004,0.9075,-0.32988,0.20012,0.54299,0.24036
-0.28518,0.88905,-0.35813,0.10821,1.00232,0.07905
-0.30811,0.87057,-0.38362,0.04032,1.23355,0.04935
-0.3266,0.8513,-0.41063,-0.3998,-0.14522,0.16985
-0.33568,0.8324,-0.44093,-0.296,-0.10027,0.02449
-0.34384,0.81459,-0.46714,-0.06392,0.01998,-0.10424
-0.35562,0.80029,-0.48277,0.38068,-0.0448,0.13933
-0.36432,0.79564,-0.48398,0.27039,-0.00709,0.26108
-0.3726,0.80085,-0.46884,0.11444,-0.0147,0.38681
-0.379,0.80944,-0.44852,-0.1592,-0.22525,0.53271
-0.37892,0.81765,-0.43343,-0.03574,-0.28883,0.26751
-0.37281,0.82745,-0.41993,0.02199,-0.28033,0.18276
-0.36012,0.84019,-0.40545,0.09015,-0.26777,0.12767
-0.34153,0.85552,-0.38916,0.04635,-0.35686,0.10235
-0.31955,0.8732,-0.36797,0.01991,-0.40954,0.08483
-0.29458,0.8917,-0.34364,0.00089,-0.46598,0.13089
-0.26477,0.91093,-0.31638,0.00449,-0.38789,0.18978
-0.23391,0.92986,-0.28397,0.01714,-0.31132,0.23683
-0.206,0.94623,-0.24942,0.08095,-0.16102,0.19611
-0.1835,0.95844,-0.21843,0.10387,-0.07108,-0.09831
-0.16767,0.96666,-0.19352,-0.01293,0.00317,-0.27653
-0.1562,0.9714,-0.17882,-0.30175,0.02017,-0.4315
-0.1492,0.97221,-0.18041,-0.20424,-0.15577,-0.32859
-0.14941,0.96921,-0.19574,-0.17381,-0.2744,-0.12401
-0.15232,0.96539,-0.21172,-0.10397,-0.23326,-0.07403
-0.15877,0.96231,-0.2208,-0.28798,0.1794,-0.02436
-0.16878,0.95923,-0.22668,0.05545,0.56161,0.22863
-0.17197,0.95795,-0.22969,0.58177,0.44858,0.37661
-0.1733,0.95793,-0.22877,0.57833,0.03684,0.55142
-0.15817,0.9615,-0.22472,0.12481,0.2888,-0.16774
-0.13278,0.96711,-0.21695,0.22735,1.01218,-0.16296
-0.10772,0.97224,-0.2077,0.12768,1.4039,0.10884
-0.09223,0.9739,-0.20739,-0.22124,0.26967,-0.10722
-0.09182,0.97266,-0.2133,0.04253,-0.10941,0.13398
-0.09141,0.97208,-0.21609,0.09327,-0.01409,0.11568
-0.07818,0.97473,-0.20925,0.30672,0.33725,0.08025
-0.05894,0.98055,-0.18722,0.37959,0.08838,0.38142
-0.03892,0.98733,-0.15382,-0.05561,-0.20376,0.05361
-0.02914,0.9921,-0.12206,-0.10141,-0.23868,-0.14396
-0.0261,0.99456,-0.10087,-0.06314,-0.25016,-0.15841
-0.02736,0.99551,-0.09065,-0.08856,-0.13728,-0.2627
-0.03184,0.9954,-0.09031,-0.0689,-0.13595,-0.27381
-0.03747,0.99461,-0.0967,-0.04134,-0.33703,-0.38042
-0.04433,0.99318,-0.10778,0.03223,-0.5318,-0.21512
-0.05233,0.99102,-0.12302,0.01499,-0.50947,-0.13211
-0.0647,0.98837,-0.13761,-0.00243,-0.40301,-0.06818
-0.08099,0.98563,-0.14826,0.16891,-0.20319,-0.08427
-0.09822,0.98276,-0.15662,0.33897,-0.19849,0.02193
-0.11181,0.98033,-0.16261,0.38391,-0.21662,0.1419
-0.12245,0.97874,-0.16453,0.21777,-0.20215,0.11303
-0.13564,0.97636,-0.16826,-0.13554,0.24119,-0.29365
-0.15132,0.97274,-0.17573,0.13461,0.14654,-0.40383
-0.15849,0.96975,-0.18563,0.25757,0.06279,-0.02222
-0.16523,0.96367,-0.20986,-0.02818,0.35869,0.08006
-0.1781,0.95326,-0.24407,-0.36665,0.51535,-0.00292
-0.19215,0.94163,-0.27642,-0.18584,0.33614,-0.03456
-0.20614,0.93031,-0.30337,0.05127,0.34514,0.25892
-0.224,0.91692,-0.33028,0.15538,0.88402,0.23664
-0.24398,0.90607,-0.3457,0.16488,1.05131,0.29519
-0.2627,0.89681,-0.35598,0.12835,1.09466,0.23519
-0.27638,0.88441,-0.37607,-0.42944,0.33661,0.10453
-0.28355,0.87117,-0.40082,-0.18332,-0.07415,0.00527
-0.28906,0.86008,-0.42036,0.08651,0.12115,-0.04791
-0.29615,0.85447,-0.42681,0.38898,0.29811,0.20425
-0.30508,0.8551,-0.41921,0.12102,-0.0517,0.38245
-0.31389,0.85894,-0.40458,-0.04385,-0.17192,0.48007
-0.31586,0.86318,-0.3939,-0.21634,-0.36554,0.47503
-0.31277,0.8674,-0.38703,0.00229,-0.37393,0.15609
-0.30735,0.87498,-0.3741,0.04972,-0.35027,0.13079
-0.29767,0.88569,-0.35629,0.14917,-0.31317,0.15428
-0.28304,0.89859,-0.33531,-0.03108,-0.43391,0.20497
-0.26649,0.91232,-0.31089,-0.04762,-0.44764,0.18055
-0.24898,0.92622,-0.28307,0.05755,-0.54237,0.16706
-0.22767,0.9396,-0.25556,0.06009,-0.41632,0.11159
-0.20274,0.95294,-0.22538,0.01051,-0.1536,-0.02436
-0.18302,0.96446,-0.1906,-0.0194,-0.07209,-0.14017
-0.17209,0.97107,-0.16554,-0.02186,-0.11495,-0.22278
-0.16719,0.97332,-0.15718,-0.20723,-0.13456,-0.3306
-0.16635,0.9728,-0.16123,-0.39582,-0.03891,-0.37988
-0.17123,0.97001,-0.1725,-0.29808,-0.15322,0.05118
-0.18312,0.9641,-0.19229,-0.18557,-0.17069,0.12788
-0.19585,0.95791,-0.2099,0.18274,0.09391,0.22208
-0.20011,0.95785,-0.2061,0.44902,0.77143,0.23447
-0.1963,0.95993,-0.20001,0.25059,0.39757,0.17451
-0.18538,0.96132,-0.2037,0.13656,0.50285,-0.03577
-0.16618,0.96338,-0.21045,0.11233,0.82642,0.01122
-0.1431,0.9661,-0.21488,0.11714,0.63925,0.06815
-0.12129,0.9707,-0.20742,0.2393,0.18668,0.14115
-0.10105,0.97581,-0.19386,0.18633,0.32325,0.03981
-0.08407,0.98062,-0.17696,0.08242,0.52881,-0.05738
-0.06983,0.98418,-0.16282,0.13698,0.11328,0.07116
-0.05656,0.98727,-0.14867,0.0854,-0.03423,0.05539
-0.05122,0.9893,-0.13661,-0.03876,-0.27659,-0.0059
-0.05117,0.99036,-0.1287,-0.02864,-0.20878,0.01406
-0.0525,0.99135,-0.12026,0.01511,-0.16199,-0.06914
-0.05311,0.99239,-0.11112,0.07399,-0.17035,-0.17377
-0.05442,0.99301,-0.1047,-0.00093,-0.24416,-0.3371
-0.05935,0.99263,-0.10565,-0.07404,-0.30435,-0.38733
-0.07115,0.99084,-0.11474,-0.13045,-0.4499,-0.16402
-0.0859,0.98852,-0.12427,0.26029,-0.36042,-0.20955
-0.09538,0.98683,-0.13064,0.42764,-0.2863,-0.16554
-0.09963,0.98582,-0.13499,0.22498,-0.21629,-0.01398
-0.10751,0.9842,-0.14069,0.17065,-0.22568,0.0803
-0.12166,0.98146,-0.14808,0.20103,-0.01123,-0.21772
-0.1376,0.97886,-0.1513,0.24821,0.15468,-0.186
-0.14865,0.97701,-0.15283,0.1943,0.091,-0.0809
-0.15647,0.97414,-0.16297,-0.11519,0.02474,0.04224
-0.17422,0.96702,-0.18578,-0.46651,0.23099,-0.05081
-0.20025,0.95665,-0.21148,0.21022,0.42733,0.12771
-0.22086,0.94693,-0.23355,0.26946,0.49271,0.18219
-0.24108,0.93605,-0.25629,0.12187,0.46942,0.23684
-0.26333,0.92045,-0.28882,-0.01711,0.69386,0.17235
-0.28486,0.90609,-0.31283,-0.01182,0.85806,0.17487
-0.30725,0.89263,-0.32987,0.05801,0.80317,0.15553
-0.32983,0.8756,-0.3529,0.23805,0.3302,0.03744
-0.3477,0.8591,-0.37556,0.09381,0.15681,-0.10319
-0.35961,0.84671,-0.39213,0.04405,0.22817,-0.06959
-0.36818,0.84184,-0.39464,0.10064,0.18347,0.04108
-0.3742,0.84208,-0.38842,0.05537,-0.1179,0.30672
-0.37545,0.84613,-0.37827,0.03523,-0.16169,0.35093
-0.37191,0.85232,-0.36773,-0.01806,-0.2708,0.37075
-0.36469,0.86022,-0.3564,0.0248,-0.34194,0.24348
-0.35469,0.87025,-0.34184,0.0148,-0.35197,0.22892
-0.33986,0.88378,-0.32159,0.13187,-0.32117,0.11394
-0.31729,0.9003,-0.29797,0.03215,-0.28908,0.11407
-0.29123,0.91716,-0.27203,-0.07399,-0.28383,0.17932
-0.26305,0.933,-0.24558,-0.07107,-0.25852,0.14495
-0.23746,0.94706,-0.21608,0.10483,-0.22268,0.23235
-0.21439,0.95814,-0.18975,0.10066,-0.22613,0.0865
-0.19653,0.96484,-0.17452,0.03791,-0.18896,-0.18593
-0.18346,0.96814,-0.17045,-0.07408,-0.13418,-0.24752
-0.17038,0.96992,-0.17386,-0.10375,-0.12447,-0.20515
-0.15474,0.97222,-0.17559,-0.10574,-0.11297,-0.15637
-0.14,0.97484,-0.17345,0.03943,-0.09637,-0.16683
-0.12918,0.97658,-0.17207,0.06309,-0.1059,-0.20692
-0.12101,0.97801,-0.16986,-0.01169,-0.1186,-0.27927
-0.11565,0.97952,-0.1648,-0.13541,-0.04126,0.05793
-0.11376,0.98071,-0.15896,-0.12713,0.14225,0.1911
-0.1163,0.98143,-0.1525,0.23154,0.28189,0.23482
-0.11858,0.98179,-0.14837,0.33813,0.10924,0.10948
-0.11623,0.98317,-0.14096,0.34434,0.16282,0.28137
-0.11142,0.98432,-0.13671,0.01225,0.37201,-0.20954
-0.09986,0.98504,-0.14044,0.11621,0.32356,-0.12154
-0.07459,0.98795,-0.13562,0.21484,0.74454,-0.0407
-0.04475,0.99181,-0.11961,0.10659,0.52578,0.01747
-0.01656,0.9951,-0.09746,-0.0045,0.10115,0.19205
0.00081,0.99721,-0.07461,-0.16988,-0.11441,0.36941
0.00513,0.9984,-0.05634,-0.37707,0.08008,0.17969
0.0021,0.99884,-0.04809,-0.19412,0.32332,-0.03862
0.00146,0.99913,-0.04152,0.09567,-0.0,-0.13338
0.00118,0.99955,-0.02989,0.23492,-0.29791,-0.06581
0.00065,0.99984,-0.01764,0.28951,-0.41119,-0.0623
0.00023,0.99998,-0.00572,0.11325,-0.40448,-0.14885
-0.00162,0.99999,0.00347,-0.05363,-0.42255,-0.08901
-0.00561,0.99987,0.01515,-0.01425,-0.30875,-0.22364
-0.01062,0.99948,0.03039,0.16933,-0.24402,-0.23473
-0.01632,0.99873,0.04767,0.1084,-0.37458,-0.18532
-0.02477,0.99776,0.06215,-0.05655,-0.38672,-0.33754
-0.03768,0.99674,0.07131,-0.13975,-0.20379,-0.52001
-0.05215,0.99553,0.07872,0.4514,-0.0639,-0.20476
-0.06651,0.99409,0.08575,0.33214,-0.0308,-0.26302
-0.085,0.99265,0.0861,0.25877,0.04366,-0.30078
-0.10624,0.9907,0.08499,0.17186,-0.00236,-0.23115
-0.13428,0.98762,0.08103,-0.1434,-0.0166,-0.30622
-0.16883,0.98331,0.06782,-0.01824,0.23488,-0.07384
-0.20105,0.97873,0.04076,-0.1897,0.97662,0.16056
-0.22192,0.97505,-0.00545,0.10151,0.69927,0.00556
-0.23086,0.97195,-0.0449,0.29542,0.94346,0.13662
-0.23399,0.96867,-0.08323,0.6215,1.30298,0.46527
-0.22728,0.96366,-0.14031,0.34868,0.75736,0.20562
-0.21009,0.95708,-0.19963,0.16242,0.91551,0.14029
-0.20736,0.9503,-0.23225,-0.00502,0.69704,0.35211
-0.21997,0.94305,-0.24955,0.19307,0.25515,0.41311
-0.23273,0.93487,-0.26805,0.35506,0.19762,0.32344
-0.24752,0.92852,-0.27672,0.46301,-0.08863,0.40958
-0.26564,0.92461,-0.27301,0.28446,-0.32277,0.59956
-0.28838,0.92129,-0.26088,0.168,-0.36671,0.56464
-0.30593,0.92028,-0.24389,-0.02436,-0.52488,0.48735
-0.30457,0.92334,-0.23384,-0.10554,-0.57968,0.19521
-0.30048,0.92715,-0.22385,0.02578,-0.52093,0.23467
-0.29822,0.93018,-0.21408,0.33248,-0.46511,0.25705
-0.2944,0.93379,-0.20337,0.02107,-0.22323,0.17978
-0.28732,0.93911,-0.18844,-0.01819,-0.17262,0.20977
-0.27901,0.94444,-0.17372,-0.0494,0.06766,0.12227
-0.27205,0.94812,-0.1645,-0.24925,0.17075,-0.06862
-0.26639,0.95041,-0.16048,-0.31218,0.211,-0.35763
-0.26823,0.9505,-0.15684,-0.11469,0.35342,-0.50379
-0.28118,0.94558,-0.16378,0.03477,0.3685,-0.55365
-0.2945,0.93833,-0.18112,0.44183,0.1387,-0.43282
-0.30136,0.93538,-0.18505,0.42952,-0.12611,-0.26002
-0.29876,0.93724,-0.17976,0.31762,-0.16649,-0.24665
-0.2843,0.94198,-0.17844,0.11693,-0.07159,-0.15998
-0.26384,0.94877,-0.17386,-0.11787,0.19654,-0.08136
-0.24392,0.95632,-0.16112,-0.14927,0.52131,0.10883
-0.23231,0.96186,-0.14443,-0.02286,0.43794,0.31175
-0.23104,0.96399,-0.1317,0.05671,-0.16895,0.20514
-0.23745,0.96391,-0.12041,0.03141,-0.32041,0.12799
-0.25177,0.96159,-0.10936,0.34593,-0.31796,0.34764
-0.26346,0.95996,-0.0952,0.54467,-0.02125,0.27025
-0.26155,0.9619,-0.07959,0.67041,0.40942,0.07525
-0.24879,0.96613,-0.06853,0.6764,0.39189,-0.14788
-0.23551,0.97054,-0.05091,0.22528,0.14334,0.07233
-0.22126,0.97463,-0.03376,0.09101,0.05981,0.15409
-0.20814,0.9779,-0.0199,-0.02596,-0.03064,0.22832
-0.1998,0.97983,-0.00281,0.11589,0.03663,0.16388
-0.19573,0.98051,0.01708,0.19739,0.06499,0.13204
-0.19286,0.98059,0.0352,0.16416,0.04648,0.12387
-0.18792,0.98067,0.05443,0.15001,-0.03438,-0.03095
-0.18036,0.98074,0.07497,0.16356,-0.09889,-0.10064
-0.1721,0.9802,0.09787,0.15594,-0.09176,-0.1286
-0.16475,0.97935,0.11714,0.10403,-0.08604,-0.0995
-0.15996,0.97781,0.13525,0.07498,-0.10191,-0.1029
-0.1567,0.97542,0.1549,0.09098,-0.0914,-0.14382
-0.15434,0.97214,0.1764,0.11334,-0.02014,-0.2583
-0.15321,0.96789,0.19927,0.11067,0.04633,-0.36035
-0.15299,0.96271,0.22309,0.1178,0.04928,-0.41006
-0.15311,0.9576,0.24402,0.23938,0.11903,-0.31108
-0.15456,0.9553,0.25202,0.39978,0.23258,-0.23627
-0.15488,0.95581,0.24989,0.43859,0.2365,-0.23989
-0.15297,0.95744,0.24477,-0.01404,0.35511,-0.44622
-0.15117,0.95991,0.23605,0.00901,0.17995,-0.3626
-0.15512,0.96381,0.2168,0.27331,0.11984,-0.18755
-0.16365,0.96901,0.18503,0.32547,0.16142,-0.08561
-0.17856,0.9737,0.1415,0.11957,0.42446,0.02534
-0.19558,0.97706,0.08422,0.02916,0.39437,0.00438
-0.20633,0.97824,0.02171,0.20188,0.31969,0.0839
-0.21098,0.97689,-0.03411,0.35599,0.40885,0.28479
-0.21226,0.975,-0.06566,0.36682,0.41747,0.40468
-0.21675,0.97248,-0.08541,0.42067,0.17979,0.29542
-0.22377,0.96877,-0.10683,0.42502,0.08841,0.2028
-0.23481,0.96283,-0.13353,0.3138,0.00489,0.17239
-0.2515,0.95418,-0.16213,0.18033,-0.12929,0.16289
-0.26903,0.94466,-0.18771,0.11347,-0.1601,0.15395
-0.28416,0.93682,-0.20399,0.01747,-0.16691,0.3057
-0.29313,0.93136,-0.21595,-0.04783,-0.16167,0.36097
-0.29726,0.92739,-0.22712,-0.01492,-0.2259,0.18154
-0.29767,0.92527,-0.23509,0.00784,-0.21507,0.16061
-0.29126,0.9262,-0.23942,0.06825,-0.20881,0.18047
-0.27718,0.93033,-0.24011,-0.005,-0.34538,0.12459
-0.26164,0.93658,-0.23314,-0.06732,-0.38682,0.08194
-0.24726,0.94465,-0.21562,-0.05574,-0.38475,0.00917
-0.23132,0.95523,-0.18446,0.03692,-0.12645,-0.10819
-0.20965,0.96716,-0.14372,-0.05712,0.04539,-0.18885
-0.18445,0.97657,-0.11087,-0.03816,0.63343,-0.66345
-0.16667,0.98085,-0.10081,-0.08532,0.72432,-0.90662
-0.17181,0.97837,-0.11517,-0.22089,0.23523,-0.64731
-0.18453,0.97356,-0.13466,0.24256,-0.35462,-0.2542
-0.18652,0.9722,-0.14153,0.29468,-0.38317,-0.02332
-0.17495,0.97463,-0.1396,0.35384,0.17594,0.15708
-0.15495,0.97776,-0.14132,0.15885,0.86115,0.18475
-0.14328,0.97862,-0.14757,-0.03342,0.20626,0.47008
-0.14585,0.97862,-0.14502,-0.26965,-0.71234,1.00394
-0.15301,0.98103,-0.11908,0.17383,-0.03509,0.04203
-0.15313,0.98325,-0.09887,0.37049,0.66353,-0.29254
-0.14397,0.98625,-0.08114,0.43664,0.59458,-0.07945
-0.12591,0.99028,-0.05915,0.22346,0.07744,0.18315
-0.1004,0.9943,-0.03579,0.06396,-0.02461,0.19089
-0.08116,0.99667,-0.00707,0.01221,-0.02585,0.12289
-0.07198,0.99726,0.01721,0.02195,-0.0466,0.08243
-0.06738,0.99714,0.03426,0.05638,-0.06742,-0.01987
-0.06337,0.99671,0.05061,0.09866,-0.04968,-0.1097
-0.0577,0.99622,0.0649,0.1144,-0.05599,-0.26356
-0.05131,0.99579,0.07593,0.09489,-0.08911,-0.17807
-0.04728,0.99516,0.08613,0.05368,-0.14424,-0.11134
-0.04481,0.99407,0.09904,0.06509,-0.22531,-0.05016
-0.04393,0.99246,0.11443,0.10962,-0.07077,-0.14732
-0.04412,0.99052,0.13008,0.09757,0.0107,-0.20657
-0.04247,0.98855,0.14481,0.0147,0.01788,-0.44651
-0.03766,0.98649,0.15945,0.0809,0.07046,-0.47563
-0.03331,0.98474,0.17081,0.07656,0.0722,-0.48698
-0.03369,0.98501,0.16915,0.07414,0.31934,-0.33291
-0.03631,0.98756,0.15299,-0.01542,0.23113,-0.15119
-0.03862,0.99083,0.12945,-0.09252,0.04059,-0.12681
-0.04463,0.99365,0.10324,-0.20856,-0.16022,-0.14191
-0.06019,0.99595,0.06675,-0.15395,0.02533,0.01926
-0.09105,0.99579,0.01078,-0.1461,0.26161,0.09757
-0.12947,0.98974,-0.06046,-0.03927,0.76139,0.11297
-0.16232,0.97799,-0.1311,0.20423,0.83002,0.04037
-0.19199,0.96276,-0.19036,0.62395,0.80015,0.4039
-0.21719,0.94833,-0.23129,0.62764,0.55893,0.31721
-0.23768,0.93507,-0.26298,0.12237,-0.05305,0.24498
-0.26142,0.92125,-0.28803,0.01804,-0.13225,0.30237
-0.28946,0.90585,-0.30925,-0.12323,-0.28089,0.2728
-0.31343,0.89014,-0.33077,-0.08454,-0.34418,0.07362
-0.32891,0.87687,-0.3506,-0.00491,-0.32776,0.10629
-0.33962,0.86755,-0.36335,0.14078,-0.24238,0.2029
-0.346,0.86336,-0.36728,0.11725,-0.37821,0.29905
-0.3462,0.86516,-0.36281,0.08642,-0.39768,0.28466
-0.33796,0.87256,-0.35272,0.09156,-0.3393,0.1128
-0.32215,0.88356,-0.3399,0.0595,-0.2817,0.0332
-0.29889,0.89511,-0.3308,-0.01223,-0.24651,-0.12858
-0.27504,0.90424,-0.32664,-0.02321,-0.34107,-0.13141
-0.25864,0.914,-0.31259,-0.0021,-0.35943,0.00804
-0.24365,0.92506,-0.29136,0.01839,-0.321,0.21385
-0.22746,0.93552,-0.2703,0.05882,-0.24964,0.21078
-0.20911,0.9451,-0.25113,0.08339,-0.22976,0.12955
-0.18912,0.95449,-0.2306,0.04446,-0.01633,-0.16545
-0.17007,0.96352,-0.20663,-0.11553,0.09437,-0.20357
-0.15412,0.97079,-0.18388,-0.07429,-0.06797,-0.09294
-0.14348,0.9745,-0.1725,0.00548,-0.13016,-0.20289
-0.13592,0.97672,-0.16593,0.01887,-0.0601,-0.3482
-0.1259,0.97991,-0.15468,-0.05168,0.10261,-0.29728
-0.11259,0.98365,-0.14056,-0.11834,-0.00902,-0.04057
-0.10229,0.98515,-0.13789,-0.12701,-0.32873,0.07313
-0.1001,0.98432,-0.14523,-0.00324,-0.54615,0.20349
-0.10132,0.98417,-0.14542,0.09521,-0.24642,0.19524
-0.09832,0.98673,-0.1292,0.06961,0.53846,0.1012
-0.09782,0.98848,-0.11548,-0.0835,0.68437,0.1467
-0.10181,0.98727,-0.1222,0.10878,0.02291,0.19241
-0.09621,0.98604,-0.1359,0.31661,-0.04581,-0.45745
-0.07988,0.98522,-0.15155,0.55557,0.60258,0.03644
-0.05836,0.98749,-0.1465,0.54243,1.07302,-0.08598
-0.04037,0.99075,-0.12954,0.17146,1.03289,-0.24056
-0.02992,0.99255,-0.11813,-0.23042,-0.3213,0.03601
-0.03222,0.9921,-0.1212,-0.17246,-0.37702,0.21316
-0.04226,0.99115,-0.12583,-0.10418,-0.18768,-0.03718
-0.04807,0.99044,-0.12927,0.28983,-0.02717,0.27232
-0.04448,0.99186,-0.11927,0.28624,-0.02859,0.26232
-0.03269,0.99423,-0.10218,0.10282,-0.50466,-0.19881
-0.02547,0.99552,-0.09099,-0.2063,-0.42439,-0.43594
-0.02952,0.99545,-0.09055,-0.33388,-0.51894,-0.19122
-0.03958,0.99523,-0.08916,0.0504,-0.10569,-0.49813
-0.05248,0.99454,-0.0902,0.09093,-0.28061,-0.20535
-0.06538,0.99338,-0.09448,0.04668,-0.45171,-0.10306
-0.08175,0.99151,-0.1011,0.10094,-0.61282,-0.21993
-0.10186,0.98865,-0.11045,0.47364,-0.07033,-0.21583
-0.11706,0.98636,-0.11575,0.50205,-0.05616,-0.14047
-0.12957,0.98415,-0.12111,0.20186,-0.12338,-0.06474
-0.14713,0.97944,-0.13802,-0.08816,0.16996,0.1022
-0.17194,0.97062,-0.16832,-0.23788,0.43337,0.07406
-0.20272,0.95636,-0.21042,-0.34972,0.88071,-0.07536
-0.22944,0.94072,-0.24982,0.11121,0.85497,0.01959
-0.25206,0.92419,-0.28695,0.14038,0.65075,0.06298
-0.27512,0.90154,-0.33396,0.00812,0.23045,-0.0701
-0.29845,0.87717,-0.37616,-0.17694,1.09417,-0.21055
-0.30813,0.85991,-0.40695,-0.70934,0.95341,-0.05301
-0.31158,0.84567,-0.43331,-0.5484,0.15068,0.121
-0.31996,0.83032,-0.45628,-0.18584,0.10648,0.10264
-0.32795,0.81507,-0.4776,0.30273,-0.14576,0.02745
-0.33066,0.80753,-0.48843,0.02143,-0.25363,0.09025
-0.33289,0.8126,-0.47839,-0.08987,-0.18557,0.20554
-0.33351,0.82572,-0.45492,-0.24433,-0.27726,0.45939
-0.33177,0.8372,-0.43476,-0.10467,-0.48806,0.30465
-0.32461,0.84853,-0.41788,0.09396,-0.47943,0.06946
-0.31004,0.8649,-0.39475,0.12069,-0.45495,0.0281
-0.28725,0.88453,-0.36755,-0.00012,-0.31342,0.0272
-0.26198,0.90251,-0.34182,-0.08612,-0.3773,0.10587
-0.24308,0.91749,-0.31482,-0.06811,-0.41305,0.17223
-0.23052,0.93089,-0.28337,0.03236,-0.24418,0.15941
-0.21778,0.94253,-0.25337,0.14895,-0.10135,-0.03739
-0.20347,0.95049,-0.23488,0.16021,-0.05973,-0.14041
-0.19202,0.9542,-0.22941,-0.1331,-0.23098,-0.18015
-0.18293,0.95666,-0.22657,-0.20767,-0.27624,-0.15629
-0.17294,0.96059,-0.21761,-0.19335,-0.28127,-0.15432
-0.1617,0.96567,-0.20332,-0.04603,-0.15165,-0.03037
-0.15125,0.97,-0.19031,0.07224,-0.17651,-0.04886
-0.1433,0.97312,-0.18029,0.01751,-0.21305,-0.01721
-0.13527,0.97657,-0.16736,0.00828,-0.07967,0.1309
-0.12928,0.97986,-0.15219,0.04375,0.22134,0.24602
-0.12564,0.982,-0.14102,0.0825,0.48582,0.15459
-0.12188,0.98293,-0.13783,0.08123,0.85089,-0.16287
-0.11544,0.98263,-0.14531,0.06431,0.63064,-0.36183
-0.10522,0.98032,-0.16704,-0.03234,0.30766,-0.00199
-0.09252,0.97901,-0.18162,0.25807,0.44725,-0.02491
-0.08273,0.98015,-0.18015,0.46116,0.19415,0.13037
-0.06865,0.984,-0.16437,0.32372,0.29279,0.05507
-0.05915,0.98749,-0.14617,0.08836,0.45973,-0.32836
-0.05165,0.98953,-0.13472,-0.00312,-0.12544,-0.08265
-0.04497,0.99152,-0.12193,-0.17996,-0.27957,-0.1068
-0.04253,0.99335,-0.10694,-0.11047,-0.23353,-0.01119
-0.03947,0.99533,-0.08804,0.10432,-0.25806,0.07864
-0.03281,0.99719,-0.06736,0.08876,-0.30168,-0.04109
-0.02767,0.99847,-0.04774,0.03536,-0.14958,-0.30663
-0.02693,0.9991,-0.03284,-0.06408,-0.12855,-0.401
-0.03031,0.99909,-0.02979,-0.25483,-0.4217,-0.40719
-0.04074,0.99855,-0.03518,-0.36515,-0.56616,-0.33326
-0.05775,0.99748,-0.04124,0.25591,-0.47128,-0.12499
-0.07355,0.99601,-0.05045,0.33046,-0.43006,0.01394
-0.08774,0.99436,-0.05961,-0.00234,-0.32791,-0.04829
-0.1055,0.9921,-0.06788,0.41933,-0.19763,-0.16668
-0.11876,0.99048,-0.06954,0.59012,-0.19924,-0.17287
-0.1283,0.98936,-0.06862,0.47281,0.03693,-0.12877
-0.14443,0.98636,-0.07895,-0.03693,0.16301,0.00574
-0.16626,0.98037,-0.10592,-0.21957,0.27947,0.09328
-0.19147,0.97135,-0.14079,-0.45794,0.46471,-0.20319
-0.21553,0.9607,-0.17491,-0.20178,0.69782,0.01503
-0.23043,0.95093,-0.20649,-0.05042,0.73535,0.17223
-0.24141,0.94022,-0.24021,-0.30194,1.03994,0.265
-0.25471,0.93021,-0.26425,-0.27393,1.12777,0.33353
-0.26633,0.92073,-0.28518,-0.24601,0.9437,0.24653
-0.27739,0.90575,-0.32043,-0.39474,0.01381,-0.15636
-0.29243,0.88832,-0.35407,0.13993,0.03866,-0.09225
-0.30941,0.87056,-0.38262,0.25299,0.04177,-0.07594
-0.32229,0.85916,-0.39746,0.20713,-0.12158,0.15202
-0.32989,0.8582,-0.39327,0.05148,-0.25366,0.41709
-0.33289,0.86422,-0.37724,-0.06548,-0.37156,0.51444
-0.32804,0.87247,-0.36219,-0.14378,-0.51061,0.50939
-0.31547,0.8806,-0.35357,-0.08075,-0.5183,0.34084
-0.29756,0.89101,-0.34287,0.01324,-0.45363,0.08251
-0.27303,0.90517,-0.32576,0.03124,-0.41045,-0.0412
-0.2429,0.9216,-0.30272,-0.02916,-0.474,-0.01401
-0.21014,0.93755,-0.27718,-0.06467,-0.5364,0.0032
-0.17911,0.95129,-0.25094,-0.01377,-0.45963,0.3111
-0.15111,0.96453,-0.21643,-0.00661,-0.29729,0.2626
-0.12266,0.97645,-0.17745,-0.05116,-0.18061,0.03505
-0.09725,0.98455,-0.1456,-0.16513,0.13543,-0.50499
-0.08138,0.98878,-0.12525,-0.29076,-0.04739,-0.4106
-0.0729,0.98974,-0.12284,-0.19127,-0.13169,-0.27138
-0.07076,0.98896,-0.13014,-0.18684,-0.08456,-0.12284
-0.07222,0.98835,-0.13396,-0.37326,0.25854,-0.0737
-0.07807,0.98745,-0.13728,-0.22072,0.4058,-0.16051
-0.09018,0.98503,-0.1469,0.46733,0.29915,0.23745
-0.0937,0.9833,-0.15603,0.74563,0.31787,0.30177
-0.08725,0.98438,-0.1529,0.15037,0.00198,0.04195
-0.06983,0.98658,-0.14757,-0.16651,0.54296,-0.22887
-0.05059,0.98909,-0.13833,0.08142,1.51585,-0.0812
-0.03313,0.99111,-0.12887,0.06247,1.24629,-0.13062
-0.01806,0.99109,-0.13194,-0.29136,-0.31374,0.03566
-0.01837,0.98992,-0.14041,-0.20146,-0.34016,0.13601
-0.01902,0.98945,-0.14357,0.03215,0.25505,-0.05619
-0.01282,0.99121,-0.13167,0.51158,0.36985,0.23347
0.00213,0.99437,-0.10592,0.06175,-0.20026,-0.02259
0.01919,0.99675,-0.07814,-0.06419,-0.26255,-0.20878
0.02455,0.9979,-0.05982,-0.14546,-0.25456,-0.16482
0.02403,0.99839,-0.05141,-0.16356,-0.27553,-0.27421
0.02065,0.99861,-0.04849,-0.14252,-0.24943,-0.32113
0.01526,0.99865,-0.04961,-0.02298,-0.31693,-0.39212
0.00824,0.99824,-0.05874,-0.00855,-0.53643,-0.20691
-0.00175,0.99736,-0.07255,-0.05895,-0.56677,-0.14092
-0.01677,0.996,-0.08776,0.01401,-0.45202,-0.19758
-0.03502,0.99419,-0.10172,0.44591,-0.08845,0.04239
-0.04867,0.99236,-0.11336,0.55253,-0.0479,0.02131
-0.05818,0.99131,-0.118,0.19805,-0.19925,0.10513
-0.07014,0.99018,-0.12089,-0.40883,-0.12313,-0.33462
-0.08868,0.9878,-0.12797,-0.39232,0.03113,-0.44756
-0.10246,0.98547,-0.13543,0.07595,0.18648,-0.35137
-0.11136,0.98227,-0.15079,0.04771,0.24747,-0.0619
-0.12251,0.97676,-0.17585,-0.10877,0.3817,-0.11357
-0.13588,0.96962,-0.20337,-0.20042,0.49829,0.0811
-0.14914,0.96253,-0.22647,-0.2245,0.67214,0.12538
-0.16993,0.95165,-0.25588,-0.02376,0.60223,0.14118
-0.19768,0.93879,-0.28211,0.05924,0.68981,0.09194
-0.22044,0.9278,-0.30098,-0.11632,0.76936,-0.05207
-0.23541,0.91776,-0.31983,-0.26459,0.51504,0.05717
-0.25026,0.90705,-0.33858,-0.14536,-0.00388,0.09014
-0.26121,0.89755,-0.35519,-0.01148,0.07614,0.09065
-0.27268,0.89088,-0.36328,0.10849,0.1565,0.12869
-0.28398,0.88762,-0.36261,0.13234,-0.08197,0.25755
-0.29107,0.88736,-0.35757,-0.11309,-0.35332,0.34131
-0.29404,0.88945,-0.34989,-0.17656,-0.39779,0.3472
-0.29372,0.89378,-0.33895,-0.08552,-0.436,0.25561
-0.2905,0.90022,-0.32437,0.07574,-0.37127,0.17246
-0.28376,0.90939,-0.30412,0.11852,-0.35577,0.14972
-0.27139,0.9206,-0.28079,0.10943,-0.26249,0.11415
-0.2526,0.9332,-0.25558,-0.00526,-0.28893,0.07079
-0.22954,0.94581,-0.22968,-0.09441,-0.34348,0.04755
-0.20625,0.95713,-0.20336,-0.05147,-0.35084,0.02501
-0.18636,0.96593,-0.17957,0.06635,-0.32393,0.03797
-0.16907,0.97267,-0.15915,0.09438,-0.26591,0.02724
-0.15353,0.97789,-0.14194,0.02759,-0.12099,-0.12418
-0.14228,0.98105,-0.13147,-0.17053,-0.06319,-0.19482
-0.13435,0.98237,-0.12998,-0.2554,-0.04113,-0.24013
-0.12718,0.9829,-0.13316,-0.27028,-0.0866,-0.26615
-0.12077,0.98331,-0.13604,-0.33849,-0.22155,-0.31724
-0.1164,0.98362,-0.13764,-0.24405,-0.2361,-0.28207
-0.11676,0.98292,-0.14224,-0.05002,-0.24461,-0.1808
-0.12161,0.98135,-0.14888,-0.11888,-0.04214,-0.02924
-0.12795,0.9801,-0.15174,-0.01939,0.39638,0.17542
-0.12708,0.98116,-0.14549,0.14831,0.51092,0.05813
-0.12203,0.98294,-0.13759,0.20011,0.3851,0.09999
-0.12095,0.9827,-0.14025,0.1481,0.271,0.14192
-0.11542,0.9823,-0.14752,0.07445,0.16991,-0.3005
-0.10271,0.98328,-0.15038,0.58518,0.3999,0.20583
-0.07118,0.98668,-0.14627,0.49593,0.52495,0.2163
-0.03488,0.99128,-0.12708,0.02891,1.11456,-0.19657
-0.02082,0.99392,-0.10812,-0.40654,-0.19852,-0.07409
-0.0182,0.99421,-0.1059,-0.42851,-0.41997,0.19159
-0.02001,0.99449,-0.10289,-0.01199,-0.46792,0.02519
-0.01574,0.99474,-0.10121,0.31057,0.29811,0.19726
-0.00664,0.99614,-0.08746,0.22072,0.22418,0.25972
0.0089,0.99806,-0.06158,0.13232,-0.0961,-0.04838
0.02209,0.999,-0.03877,-0.01483,-0.30508,-0.30642
0.02696,0.99934,-0.02416,-0.0899,-0.24345,-0.25951
0.02523,0.99957,-0.01496,-0.06486,-0.14695,-0.12942
0.02301,0.99971,-0.00689,0.00217,-0.11418,-0.22554
0.02385,0.99971,-0.0014,0.00326,-0.18025,-0.4036
0.02638,0.99965,-0.00157,-0.01869,-0.29608,-0.42977
0.02247,0.99967,-0.01219,-0.2279,-0.41062,-0.09814
0.01085,0.99951,-0.02911,-0.15586,-0.40241,-0.00651
-0.0048,0.99886,-0.04752,-0.0711,-0.32408,-0.0647
-0.02173,0.99795,-0.06024,0.05572,-0.19074,-0.15729
-0.0356,0.99707,-0.06769,0.29272,-0.03277,-0.02935
-0.04477,0.99618,-0.07492,-0.15603,-0.28208,-0.06535
-0.05454,0.99536,-0.07921,-0.16758,-0.27672,-0.32394
-0.06598,0.9944,-0.08246,0.14316,0.01806,-0.2046
-0.07479,0.99368,-0.08371,-0.06252,0.03585,-0.30405
-0.08514,0.99218,-0.0913,-0.05217,0.03735,-0.29646
-0.1009,0.98921,-0.10615,-0.07781,0.1201,-0.07032
-0.12864,0.98303,-0.13075,-0.07312,0.33837,0.01164
-0.15593,0.97556,-0.15479,0.08555,0.62567,0.28379
-0.17262,0.9689,-0.17727,-0.10763,0.61704,0.22037
-0.18735,0.96246,-0.19639,0.07195,0.59031,0.04997
-0.20595,0.95602,-0.20883,0.05979,0.93314,0.02482
-0.219,0.94886,-0.22739,0.07018,1.02566,-0.03051
-0.22948,0.94075,-0.24966,-0.02221,0.62432,0.15989
-0.24377,0.92951,-0.27674,-0.11689,0.28096,0.01542
-0.25933,0.91835,-0.29895,-0.07812,0.19388,-0.07952
-0.26799,0.91205,-0.3104,0.03476,-0.01921,-0.00383
-0.27284,0.90984,-0.31266,0.04278,0.09653,0.08823
-0.27624,0.90985,-0.3096,0.04724,0.01094,0.14857
-0.27635,0.91151,-0.30458,0.12022,-0.36932,0.30208
-0.2738,0.91469,-0.29726,0.09048,-0.44872,0.24865
-0.26756,0.91957,-0.28775,0.08425,-0.45359,0.23914
-0.25722,0.92516,-0.27914,-0.01326,-0.25507,0.06922
-0.24561,0.93137,-0.26875,-0.01884,-0.3029,0.02536
-0.23196,0.93902,-0.25381,-0.03249,-0.31056,0.01042
-0.21814,0.94637,-0.23833,-0.01352,-0.27448,0.10759
-0.20317,0.95319,-0.22394,-0.11655,-0.31943,0.12854
-0.18658,0.96018,-0.20795,-0.10806,-0.39833,0.00863
-0.17397,0.96635,-0.18947,-0.00748,-0.35884,0.02295
-0.16341,0.97193,-0.16921,0.09064,-0.18312,0.24151
-0.14852,0.97714,-0.1521,-0.07812,-0.10785,0.12451
-0.1347,0.98111,-0.13879,-0.26332,-0.17073,-0.10617
-0.12714,0.98332,-0.13007,-0.26478,-0.16039,-0.30104
-0.12351,0.98479,-0.12219,-0.22604,-0.15714,-0.33769
-0.12105,0.98588,-0.1157,-0.15951,-0.12733,-0.34086
-0.11568,0.98678,-0.1135,-0.02616,-0.13142,-0.12387
-0.10675,0.98788,-0.11267,0.01699,-0.14468,-0.11826
-0.0978,0.98904,-0.11057,0.02204,-0.1632,-0.23179
-0.09048,0.99043,-0.10417,-0.12488,-0.17296,-0.11513
-0.0851,0.99166,-0.09678,-0.21478,-0.12436,-0.02539
-0.08719,0.99164,-0.09505,-0.14272,0.46154,-0.02212
-0.09281,0.99126,-0.09367,0.21589,0.29816,-0.06731
-0.08798,0.99145,-0.09635,0.55505,0.24251,0.45661
-0.07976,0.99279,-0.08942,0.05626,0.49938,0.05029
-0.07257,0.99346,-0.08811,-0.13011,0.39474,0.09155
-0.05506,0.99486,-0.08497,-0.07029,0.7258,-0.07101
