gravity.x,gravity.y,gravity.z,userAcceleration.x,userAcceleration.y,userAcceleration.z
0.49166,0.45301,-0.74367,-0.01452,0.01479,-0.00364
0.49307,0.44922,-0.74504,-0.01408,-0.02008,0.00225
0.49335,0.446,-0.74679,-0.0193,-0.02499,0.01835
0.49391,0.44351,-0.74789,-0.01022,-0.02368,0.02725
0.49479,0.44195,-0.74824,0.0589,-0.02756,0.03565
0.49545,0.44152,-0.74806,0.09058,0.00345,0.02746
0.49518,0.44184,-0.74805,0.05476,0.00905,0.04065
0.4963,0.44182,-0.74731,0.05472,0.0051,0.00081
0.50038,0.44192,-0.74453,0.07991,-0.01525,0.01017
0.50734,0.44371,-0.73873,0.08656,-0.00534,0.01333
0.51565,0.44649,-0.73126,0.05219,-0.0017,0.00843
0.52256,0.44921,-0.72466,0.028,-0.00747,-0.00459
0.52824,0.45132,-0.71921,-0.02081,-0.03271,-0.01754
0.53376,0.45331,-0.71387,-0.05822,-0.03577,-0.03623
0.53773,0.45541,-0.70953,-0.03282,0.01627,-0.00409
0.53964,0.45803,-0.70639,-0.01425,0.04006,0.00224
0.54092,0.4608,-0.7036,0.0043,0.0636,-0.00052
0.54296,0.46278,-0.70073,0.03489,0.04641,-0.00212
0.54611,0.46415,-0.69737,0.01909,0.01348,0.01009
0.54918,0.46555,-0.69401,-0.01453,-0.00414,0.0104
0.55059,0.46678,-0.69207,-0.00899,-0.00067,-0.02022
0.5517,0.46842,-0.69007,-0.00695,0.00249,-0.01966
0.55242,0.47001,-0.68841,-0.00167,0.00574,-0.00581
0.55236,0.47137,-0.68754,0.0053,0.00632,0.0065
0.55239,0.47255,-0.6867,0.00517,0.00568,-0.01184
0.55232,0.47386,-0.68585,0.00043,0.00631,-0.01392
0.55272,0.47544,-0.68444,0.00011,-0.00084,-0.01256
0.55333,0.4775,-0.6825,0.00571,-0.00282,-0.01063
0.55406,0.47983,-0.68027,0.00594,0.00381,-0.00938
0.55483,0.48239,-0.67783,-0.01076,0.00452,-0.00074
0.55549,0.48487,-0.67552,-0.02128,-0.01343,0.01521
0.55563,0.48706,-0.67383,-0.00437,-0.02959,0.01891
0.55436,0.48881,-0.6736,0.02525,-0.0236,0.02343
0.55193,0.48968,-0.67497,0.10399,0.03528,0.05915
0.55011,0.48903,-0.67692,0.08997,0.08969,0.01817
0.55023,0.48739,-0.67801,0.06266,0.057,-0.00298
0.55206,0.48555,-0.67784,-0.0185,-0.02809,0.01364
0.5533,0.48428,-0.67774,-0.02707,-0.03988,0.01366
0.55285,0.48336,-0.67875,-0.01818,-0.0303,0.00532
0.55212,0.48314,-0.6795,0.01364,0.00114,-0.02016
0.5519,0.48324,-0.67962,0.03082,0.00712,-0.01936
0.55229,0.48361,-0.67904,0.03487,0.00595,-0.00753
0.55275,0.48369,-0.6786,0.03951,0.00237,0.02383
0.55298,0.48354,-0.67852,0.03354,-0.00791,0.00832
0.55303,0.48336,-0.67861,0.02856,-0.01309,0.00023
0.55283,0.48348,-0.67869,0.01464,-0.01653,0.00849
0.5524,0.48378,-0.67883,-0.00096,-0.01266,0.02131
0.55189,0.48412,-0.679,-0.01371,-0.00696,0.01834
0.55109,0.48458,-0.67932,-0.02014,-0.00874,-0.00349
0.54979,0.48527,-0.67988,-0.01983,0.00212,-0.00161
0.54846,0.48607,-0.68038,-0.01363,0.01437,0.00176
0.5474,0.48686,-0.68068,-0.00571,0.01551,-0.00185
0.54646,0.48749,-0.68097,0.00211,0.02774,0.00382
0.54552,0.48802,-0.68135,0.00345,0.02779,-0.00305
0.54496,0.48854,-0.68143,0.00091,0.02458,-0.00307
0.54442,0.48902,-0.68151,0.00346,0.02117,0.00968
0.54436,0.48953,-0.68119,-0.00478,0.00408,0.00067
0.54411,0.48993,-0.68111,-0.00978,0.00631,0.00525
0.54331,0.49025,-0.68152,-0.00272,0.01065,0.00708
0.54206,0.4903,-0.68247,-0.00347,0.00756,0.0116
0.54097,0.49047,-0.68321,-0.00531,0.00376,0.00766
0.5401,0.49096,-0.68355,0.02624,0.00832,-0.0101
0.53934,0.49134,-0.68388,0.01574,0.01243,0.00099
0.53888,0.49134,-0.68424,0.00662,0.01468,0.00484
0.53916,0.49159,-0.68384,-0.00295,0.00351,-0.00469
0.5389,0.49179,-0.6839,0.0107,0.01104,0.01023
0.53853,0.49201,-0.68404,0.00423,0.00063,0.01648
0.538,0.49223,-0.6843,0.00584,-9e-05,0.01044
0.5372,0.49237,-0.68483,0.00989,0.01017,-0.00321
0.53651,0.49246,-0.6853,0.01504,0.00876,0.00485
0.53614,0.49249,-0.68556,0.00553,0.00171,0.00896
0.53611,0.49272,-0.68543,0.01504,0.00628,0.00315
0.53593,0.49298,-0.68538,0.01835,0.0039,0.00693
0.5358,0.49321,-0.68531,0.01179,0.00164,0.00567
0.53601,0.49346,-0.68497,0.00797,-0.00103,-0.00012
0.53635,0.49381,-0.68445,0.00628,0.00195,0.00419
0.53672,0.49419,-0.68389,0.00701,0.00898,0.00098
0.53701,0.49451,-0.68343,0.0049,0.00401,0.01036
0.53722,0.49481,-0.68304,0.00483,0.00563,0.00917
0.53762,0.49519,-0.68246,0.00535,-0.00081,-0.00413
0.53803,0.4956,-0.68184,0.00802,-0.00428,0.0054
0.53824,0.49598,-0.68139,0.009,0.00546,0.00614
0.53819,0.4963,-0.6812,0.00817,0.00364,0.00273
0.53805,0.49661,-0.68108,0.02012,0.00296,0.00237
0.53817,0.49696,-0.68073,0.04476,0.01096,0.01531
0.53729,0.49685,-0.68151,0.01906,0.03804,0.01483
0.53656,0.4965,-0.68234,0.01967,0.00331,0.0185
0.53611,0.49632,-0.68282,-0.00241,0.00304,0.00138
0.53591,0.4964,-0.68292,0.00115,-0.00383,-0.00405
0.53565,0.49661,-0.68297,0.00127,-0.00422,-0.01962
0.53576,0.49696,-0.68263,-0.00196,-0.00458,0.00081
0.53586,0.49707,-0.68247,0.00807,-0.00235,0.01691
0.53552,0.49695,-0.68283,0.02711,0.00613,0.02037
0.53573,0.4971,-0.68255,0.00873,0.01872,-0.01223
0.5358,0.49719,-0.68244,0.0151,0.01487,0.01396
0.53589,0.49725,-0.68232,0.00303,0.00401,0.01052
0.53654,0.49753,-0.6816,-0.00349,-0.00429,0.00457
0.53721,0.4978,-0.68088,0.00907,0.00034,-0.00395
0.53742,0.49799,-0.68057,0.01794,0.00693,0.00282
0.53755,0.49808,-0.68041,0.01971,0.00578,0.0132
0.53787,0.49814,-0.68011,0.01228,0.01036,0.00628
0.53821,0.49834,-0.67969,0.01576,0.00532,0.00353
0.53811,0.49851,-0.67965,0.01076,0.00287,0.00585
0.53815,0.49881,-0.67939,0.01597,-0.00236,0.00378
0.53846,0.49923,-0.67884,0.00397,0.00297,0.00654
0.53856,0.49952,-0.67855,0.02407,0.01165,0.0079
0.53864,0.4998,-0.67828,0.02608,0.00386,0.00886
0.53912,0.50019,-0.6776,0.00322,-0.00247,0.00506
0.53905,0.50032,-0.67757,0.01491,0.00047,0.01186
0.53854,0.50044,-0.67789,0.01703,0.00028,0.00344
0.53767,0.50055,-0.67849,0.02151,0.00547,0.00933
0.53668,0.50047,-0.67934,0.01807,0.01987,0.01554
0.53559,0.50015,-0.68043,0.01052,0.01534,0.01834
0.53439,0.49976,-0.68166,0.01152,0.0126,0.0089
0.53359,0.49959,-0.68241,0.00611,0.00704,-0.00195
0.53396,0.49997,-0.68185,0.00324,0.0035,-0.02284
0.53422,0.50016,-0.6815,0.00756,0.00323,-0.00527
0.53444,0.5003,-0.68123,0.00312,-0.00387,0.00253
0.53455,0.50035,-0.6811,-0.00496,0.00249,0.00525
0.53509,0.50049,-0.68058,0.00013,0.0103,0.00616
0.53558,0.50057,-0.68013,0.00739,0.01284,0.00406
0.53577,0.50065,-0.67993,0.01341,0.00674,0.00695
0.53585,0.50079,-0.67975,0.01851,0.00533,0.01035
0.53606,0.50094,-0.67948,0.02557,0.00906,0.0127
0.53603,0.50089,-0.67954,0.02885,0.00867,0.01522
0.53596,0.50079,-0.67967,0.01943,0.00778,0.01385
0.53554,0.50058,-0.68016,0.02138,0.0088,0.01203
0.53477,0.50023,-0.68103,0.02143,0.00089,0.0099
0.53469,0.50013,-0.68116,-0.00594,-0.00873,0.0026
0.53527,0.50013,-0.6807,0.0041,0.00998,-0.00088
0.53554,0.50004,-0.68055,0.00058,0.0108,-0.00145
0.53535,0.50007,-0.68068,0.01345,-0.00207,-0.00235
0.5352,0.50025,-0.68066,0.02168,0.00213,0.00066
0.53542,0.50041,-0.68038,0.00627,0.0044,0.00826
0.53563,0.50046,-0.68017,-0.00365,-0.00345,0.01063
0.53611,0.50076,-0.67957,-0.01954,-0.00886,-0.00375
0.5366,0.50109,-0.67894,-0.04017,-0.0051,-0.00715
0.53783,0.50207,-0.67724,0.06499,0.01889,0.01047
0.53685,0.50154,-0.67842,0.03708,0.0451,0.03762
0.53624,0.50082,-0.67943,0.02504,0.01609,0.02077
0.53541,0.50005,-0.68065,0.025,0.02019,0.01811
0.53493,0.49967,-0.6813,0.01115,0.00612,-0.00275
0.53518,0.49952,-0.68121,0.00809,0.00271,-0.00075
0.53541,0.499,-0.68142,0.01616,0.00086,0.01386
0.53573,0.49838,-0.68161,0.00853,0.00477,0.01159
0.53723,0.49838,-0.68044,-0.00845,-0.00265,-0.00975
0.53827,0.49818,-0.67976,0.02058,-0.00074,0.00725
0.53843,0.49765,-0.68002,0.02863,-0.00324,0.01109
0.5395,0.49826,-0.67873,0.01836,-0.00978,-0.01182
0.541,0.49908,-0.67693,0.02426,0.01606,0.0203
0.54278,0.49964,-0.67509,0.00472,0.00079,0.02266
0.54339,0.49995,-0.67437,0.0438,0.00584,0.02419
0.54258,0.49991,-0.67505,0.03881,0.01222,0.00687
0.54204,0.50004,-0.67539,0.01277,0.01255,0.0118
0.54233,0.50037,-0.67491,0.01305,0.01208,0.01019
0.54272,0.50065,-0.67439,0.00883,0.00727,0.00461
0.54291,0.50107,-0.67392,0.01452,-0.00049,0.00605
0.54295,0.50148,-0.67359,-0.00046,0.00853,-0.00769
0.54321,0.5018,-0.67313,0.01605,0.01196,0.0109
0.54341,0.50191,-0.67289,0.00616,0.0054,0.00878
0.54308,0.50188,-0.67318,0.01287,0.00961,0.00945
0.54264,0.5019,-0.67353,0.00436,-0.00097,0.00065
0.54251,0.50192,-0.67362,0.00031,0.00069,0.00628
0.54212,0.50152,-0.67422,0.00033,0.00605,0.00583
0.54168,0.50131,-0.67474,0.00555,0.00465,0.00065
0.54115,0.50112,-0.6753,0.01114,0.00365,-0.0007
0.54109,0.50117,-0.67532,0.01072,0.00298,0.00228
0.5418,0.50168,-0.67436,0.00149,-0.00208,-0.00055
0.54245,0.5024,-0.67331,0.01217,0.00146,0.00723
0.54256,0.50304,-0.67274,0.02244,0.00534,0.02227
0.54207,0.50339,-0.67288,0.03333,0.02088,0.0167
0.54108,0.50326,-0.67376,0.02876,0.02016,0.01378
0.54,0.50279,-0.67498,0.02351,0.01801,0.0081
0.53889,0.50204,-0.67643,0.02065,0.01857,0.01073
0.53753,0.50096,-0.6783,0.02054,0.01438,0.01932
0.53636,0.49991,-0.68,0.01926,0.01242,0.01379
0.53499,0.49876,-0.68192,0.02128,0.01189,0.01991
0.53372,0.49767,-0.68371,0.01192,-0.00085,0.0123
0.53275,0.49694,-0.685,0.00071,-0.00246,-0.0012
0.53188,0.49638,-0.68608,0.00177,-0.00026,-0.00142
0.5316,0.49617,-0.68645,0.00251,0.00075,-0.00231
0.53143,0.49595,-0.68674,0.00621,-0.00048,0.00213
0.53141,0.49585,-0.68683,-0.00405,-0.00235,0.00023
0.53151,0.49596,-0.68667,0.0198,0.0065,0.00486
0.53148,0.49607,-0.68661,0.00485,0.00158,0.00117
0.53166,0.49633,-0.68629,0.01431,0.01134,0.01044
0.53137,0.49621,-0.6866,0.02559,0.01971,0.02034
0.53091,0.49587,-0.68721,0.01643,0.0096,0.00944
0.53029,0.49543,-0.68799,0.02037,0.0167,0.01352
0.52971,0.49479,-0.68891,0.026,0.01437,0.0112
0.52895,0.49417,-0.68993,0.01591,0.00725,0.01656
0.52819,0.49356,-0.69095,0.01867,0.00542,0.00486
0.52729,0.49315,-0.69193,0.01354,0.00266,0.00458
0.52654,0.49279,-0.69275,0.01101,0.0029,0.00977
0.52608,0.49244,-0.69336,0.01025,0.00222,0.00572
0.52587,0.4921,-0.69376,0.01159,0.00627,0.00675
0.52568,0.49181,-0.6941,0.01184,0.0078,0.00492
0.52548,0.49169,-0.69435,0.00585,-0.00336,0.00639
0.52533,0.49174,-0.69441,0.01399,0.00337,0.0067
0.52493,0.49172,-0.69474,0.01536,0.0051,0.01103
0.5247,0.49179,-0.69485,0.01421,0.01158,0.00931
0.52449,0.49181,-0.695,0.01937,0.01293,0.00953
0.52418,0.49166,-0.69534,0.01056,0.00834,0.01385
0.52383,0.49155,-0.69568,0.01845,0.00405,0.00612
0.52347,0.49151,-0.69599,0.01192,0.00364,0.00426
0.52361,0.49167,-0.69576,0.00082,0.00689,0.00318
0.52426,0.49203,-0.69503,0.00556,0.0053,0.00212
0.52479,0.49243,-0.69434,0.00506,0.00992,0.01051
0.52534,0.49292,-0.69357,0.01208,0.00528,0.00087
0.52539,0.49308,-0.69342,0.01121,0.012,0.00419
0.5255,0.49303,-0.69337,0.02599,0.01222,0.01616
0.52538,0.49281,-0.69362,0.0227,0.01288,0.02294
0.52512,0.49276,-0.69385,0.01896,0.00303,0.01636
0.525,0.49297,-0.69379,0.01357,0.00573,0.00739
0.52523,0.49335,-0.69335,0.00462,0.00258,-0.00081
0.52561,0.49373,-0.69279,-9e-05,0.009,0.00209
0.5261,0.49406,-0.69218,0.0052,0.0079,0.00101
0.52639,0.49425,-0.69183,0.00972,0.00832,0.0067
0.52626,0.49416,-0.69199,0.02156,0.01128,0.01591
0.52625,0.49394,-0.69216,0.01991,0.00849,0.02272
0.5268,0.49402,-0.69168,0.01002,0.00575,0.01281
0.52742,0.49435,-0.69097,0.0077,0.00986,0.00417
0.52758,0.49466,-0.69063,0.01287,0.00335,-0.00017
0.52726,0.49482,-0.69076,0.01937,0.00376,0.0016
0.52685,0.49468,-0.69117,0.02742,0.01253,0.02201
0.5262,0.49438,-0.69188,0.03221,0.01622,0.02693
0.52558,0.4942,-0.69248,0.02942,0.01665,0.0253
0.52532,0.49419,-0.69268,0.01736,0.01267,0.01109
0.52536,0.49417,-0.69267,0.00076,0.00539,0.00631
0.52516,0.49399,-0.69295,0.006,0.009,0.00051
0.5249,0.49369,-0.69336,-0.00317,0.004,-0.00265
0.52454,0.4932,-0.69398,0.01498,0.01167,0.00773
0.52416,0.49266,-0.69465,0.01153,0.00569,0.01783
0.52404,0.49238,-0.69494,0.00542,-0.00036,0.01069
0.52431,0.49249,-0.69466,0.00403,-0.00256,0.0007
0.52481,0.49296,-0.69395,0.00098,0.00042,-0.00304
0.5253,0.49344,-0.69324,0.00634,0.00706,-0.00021
0.52575,0.49372,-0.6927,0.01562,0.01322,0.0088
0.52596,0.49374,-0.69252,0.02848,0.02062,0.02034
0.52606,0.49358,-0.69256,0.02976,0.02,0.02361
0.52623,0.49356,-0.69244,0.02176,0.01065,0.02124
0.52653,0.49381,-0.69204,0.01253,0.00428,0.01183
0.52674,0.49411,-0.69166,0.01083,0.00617,0.00973
0.52711,0.49453,-0.69108,0.00472,0.0047,0.0039
0.5276,0.49488,-0.69045,0.00777,0.01063,0.00519
0.52827,0.49516,-0.68975,0.0028,0.00992,0.00248
0.52926,0.49564,-0.68863,0.00136,0.007,0.00036
0.53048,0.49635,-0.68718,0.00295,0.00136,0.00618
0.53171,0.4972,-0.68562,0.01008,0.0068,0.00967
0.53265,0.49794,-0.68435,0.02224,0.01036,0.01617
0.53318,0.4985,-0.68353,0.02125,0.01069,0.01436
0.53363,0.49899,-0.68283,0.01406,0.01275,0.00659
0.53374,0.4992,-0.68258,0.0191,0.01847,0.01178
0.53378,0.49912,-0.68261,0.01337,0.00987,0.01417
0.53382,0.49893,-0.68272,0.0139,0.01096,0.01547
0.53368,0.49885,-0.68289,0.01762,0.01562,0.00708
0.53355,0.49881,-0.68301,0.0148,0.01273,0.01115
0.53347,0.49877,-0.68311,0.0142,0.00617,0.01192
0.53337,0.49881,-0.68316,0.01599,0.00324,0.00754
0.53328,0.49895,-0.68313,0.01762,0.00233,0.00718
0.53327,0.49913,-0.683,0.01608,0.00981,0.01122
0.53324,0.49924,-0.68294,0.01229,0.01084,0.01412
0.5332,0.49926,-0.68297,0.00811,0.0119,0.01394
0.53313,0.49929,-0.68299,0.00436,0.007,0.00532
0.53306,0.49939,-0.68297,0.00197,0.00682,0.00257
0.53305,0.49944,-0.68294,0.00236,0.00863,0.00057
0.53318,0.4995,-0.6828,0.00329,0.01069,0.002
0.53335,0.49949,-0.68268,0.00768,0.00792,0.00644
0.53349,0.49947,-0.68258,0.00546,0.00662,0.008
0.53375,0.49943,-0.6824,-0.0008,0.00272,0.013
0.53392,0.49945,-0.68226,0.01659,0.01465,0.00047
0.53406,0.4996,-0.68204,0.00905,0.00792,0.00063
0.53428,0.49976,-0.68175,0.01657,0.0106,0.01001
0.53461,0.49985,-0.68143,0.0082,0.01888,0.02067
0.53504,0.49976,-0.68115,0.01415,0.00201,0.02234
0.53499,0.49987,-0.68112,0.03305,0.02464,0.00492
0.53482,0.50001,-0.68115,0.02431,0.01253,0.01722
0.53492,0.50002,-0.68106,0.01832,0.00758,0.01982
0.53497,0.50001,-0.68103,0.01331,0.00778,0.01912
0.53463,0.50008,-0.68124,0.01809,0.01631,0.00632
0.53446,0.50008,-0.68137,0.00992,0.0103,0.01316
0.53447,0.49998,-0.68144,0.01071,0.01227,0.00902
0.53453,0.49992,-0.68144,0.00461,0.00844,0.00422
0.53459,0.49986,-0.68144,0.00301,0.01206,0.00265
0.53469,0.49971,-0.68147,0.0023,0.01108,0.00143
0.53489,0.4996,-0.68139,0.00583,0.00896,0.0044
0.53513,0.49943,-0.68132,0.00622,0.00758,0.00934
0.5353,0.49926,-0.68132,0.00757,0.0093,0.00674
0.5354,0.49911,-0.68135,0.011,0.01005,0.00768
0.5355,0.49894,-0.68139,0.01099,0.00734,0.01063
0.53558,0.49884,-0.68141,0.01564,0.0076,0.01063
0.53566,0.49875,-0.68141,0.01279,0.00665,0.01242
0.53568,0.49869,-0.68144,0.01573,0.00656,0.00937
0.53569,0.49869,-0.68143,0.01421,0.00592,0.01056
0.53573,0.49875,-0.68135,0.01374,0.01059,0.01131
0.53578,0.49883,-0.68126,0.01683,0.01112,0.01123
0.53578,0.49887,-0.68122,0.01439,0.01296,0.014
0.53574,0.49886,-0.68127,0.01346,0.01055,0.01496
0.53561,0.4988,-0.68141,0.01734,0.00998,0.01259
0.53553,0.49872,-0.68154,0.01385,0.01062,0.01007
0.53546,0.49864,-0.68165,0.00882,0.01017,0.00852
0.53543,0.49854,-0.68174,0.00264,0.00802,0.00521
0.53543,0.49847,-0.68179,0.00067,0.00362,-9e-05
0.53545,0.49851,-0.68175,-0.0002,0.00569,-9e-05
0.53555,0.49854,-0.68164,0.00445,0.01105,0.00342
0.53562,0.49851,-0.68161,0.01529,0.01037,0.01111
0.53563,0.49845,-0.68166,0.01711,0.01167,0.01413
0.53554,0.49842,-0.68174,0.02061,0.01246,0.01368
0.53541,0.49846,-0.68182,0.01917,0.01118,0.01635
0.53522,0.4985,-0.68193,0.00978,0.00829,0.00938
0.53505,0.49853,-0.68204,0.0048,0.00971,0.00805
0.53507,0.4986,-0.68198,-0.00182,0.00822,-0.00065
0.53529,0.49863,-0.68178,-0.00288,0.00802,-0.00456
0.53565,0.49863,-0.6815,-0.00147,0.01057,-0.00269
0.53603,0.49864,-0.68119,0.01101,0.00957,0.00526
0.5365,0.49857,-0.68088,0.01054,0.00964,0.00494
0.53696,0.49846,-0.68059,0.01264,0.01451,0.02239
0.53722,0.49829,-0.68051,0.02113,0.0144,0.01337
0.5373,0.49811,-0.68058,0.0222,0.01332,0.01359
0.53725,0.49795,-0.68074,0.02044,0.01469,0.0115
0.53718,0.4978,-0.68091,0.01844,0.00989,0.01394
0.53696,0.49761,-0.68122,0.01428,0.00874,0.01076
0.53667,0.49753,-0.68151,0.01277,0.00634,0.00902
0.53641,0.49754,-0.68169,0.0111,0.00317,0.00361
0.53631,0.49762,-0.68172,0.00782,0.003,0.0073
0.53633,0.49773,-0.68162,0.00844,0.00733,0.00723
0.5364,0.49784,-0.68149,0.00373,0.00524,0.00791
0.53639,0.49789,-0.68146,0.00815,0.01005,0.00343
0.53642,0.49795,-0.68139,0.00998,0.01009,0.00958
0.53647,0.498,-0.68132,0.00836,0.00896,0.0099
0.53646,0.49807,-0.68127,0.00846,0.01044,0.00973
0.5364,0.49819,-0.68124,0.00889,0.01295,0.00676
0.53623,0.49827,-0.68131,0.00879,0.01175,0.00751
0.53611,0.49834,-0.68136,0.00764,0.00938,0.00719
0.53607,0.49838,-0.68135,0.00809,0.01384,0.00632
0.53612,0.49833,-0.68135,0.01031,0.0119,0.00908
0.5362,0.49826,-0.68134,0.0115,0.01172,0.01033
0.53624,0.4982,-0.68135,0.01477,0.01181,0.01068
0.53621,0.49812,-0.68143,0.01555,0.01396,0.01249
0.53614,0.49804,-0.68155,0.01075,0.00962,0.01195
0.53606,0.49795,-0.68168,0.00699,0.00779,0.00909
0.53603,0.49795,-0.6817,0.00239,0.0046,0.00363
0.53612,0.498,-0.68159,-0.00344,0.00651,0.00115
0.5364,0.49808,-0.68132,-0.00225,0.00661,0.00029
0.53675,0.49815,-0.68099,0.00236,0.01085,0.00276
0.53714,0.49821,-0.68064,0.00847,0.0093,0.00918
0.53745,0.49824,-0.68036,0.0181,0.01045,0.01203
0.53764,0.49827,-0.6802,0.02155,0.01409,0.0163
0.53764,0.49827,-0.6802,0.0235,0.01403,0.01987
0.53751,0.49819,-0.68035,0.02821,0.01569,0.01933
0.53732,0.49809,-0.68058,0.02413,0.01289,0.01745
0.53711,0.49792,-0.68087,0.02101,0.01376,0.01939
0.53686,0.49778,-0.68117,0.01514,0.00855,0.01322
0.5366,0.49775,-0.68139,0.00983,0.00574,0.00839
0.53644,0.49777,-0.68151,0.00761,0.00644,0.0079
0.53631,0.49778,-0.68161,0.00365,0.00936,0.00705
0.53634,0.49783,-0.68155,0.00127,0.00878,0.00467
0.53648,0.49787,-0.6814,0.00119,0.01061,0.00365
0.53669,0.49796,-0.68117,0.00124,0.00724,0.00257
0.53686,0.4981,-0.68093,0.00161,0.00669,0.00309
0.537,0.49826,-0.68071,0.00197,0.00963,0.00468
0.53712,0.49837,-0.68053,0.003,0.01278,0.00346
0.53724,0.49839,-0.68043,0.00784,0.01752,0.00483
0.53735,0.49833,-0.68039,0.00975,0.01777,0.00946
0.53744,0.49814,-0.68045,0.01459,0.01657,0.01071
0.53751,0.4979,-0.68057,0.01804,0.0133,0.01571
0.53758,0.49768,-0.68068,0.02126,0.01003,0.01675
0.53741,0.49754,-0.68092,0.01324,0.00543,0.01767
0.53696,0.49752,-0.68128,0.00516,0.00091,0.01429
0.53618,0.49756,-0.68187,0.02719,0.01345,0.01846
0.53576,0.49754,-0.68222,0.01591,0.01638,0.01782
0.53551,0.49757,-0.68239,0.02722,0.00877,0.01871
0.53571,0.49764,-0.68218,0.02801,0.01547,0.01285
0.53632,0.49777,-0.68161,-0.0073,0.01047,0.00735
0.53616,0.49775,-0.68174,-0.01256,0.00582,0.01632
0.53594,0.49775,-0.68192,0.00966,0.00797,0.00351
0.53547,0.49779,-0.68226,0.00565,0.00272,0.01011
0.53496,0.49769,-0.68273,0.01356,0.01907,0.01072
0.53453,0.49731,-0.68334,0.00107,0.01395,0.01052
0.53428,0.49694,-0.68381,0.00212,0.01632,0.0074
0.53397,0.49653,-0.68434,0.00296,0.00585,0.00634
0.53357,0.4963,-0.68483,0.00267,0.00431,0.00534
0.53305,0.49606,-0.68541,0.00826,0.00948,0.01188
0.5323,0.49575,-0.68621,0.01476,0.00973,0.01658
0.53101,0.49518,-0.68762,0.01139,0.01015,0.02238
0.53002,0.49471,-0.68872,0.00956,0.00967,0.00769
0.52957,0.49469,-0.68909,0.01398,0.01497,0.00073
0.52982,0.49489,-0.68874,0.0138,0.0169,0.00597
0.53042,0.4951,-0.68814,0.01462,0.01603,0.01
0.53082,0.49519,-0.68776,0.0124,0.01095,0.01228
0.531,0.49515,-0.68765,0.00692,0.00917,0.01146
0.53106,0.49505,-0.68768,0.00471,0.01055,0.01263
0.53104,0.49497,-0.68775,0.00781,0.01103,0.00697
0.53109,0.49501,-0.68768,0.00664,0.01141,0.00195
0.53118,0.4951,-0.68755,0.00891,0.01377,0.00614
0.5312,0.49512,-0.68752,0.01441,0.01242,0.00951
0.53106,0.49511,-0.68763,0.01778,0.01274,0.01446
0.53086,0.49506,-0.68782,0.01693,0.01081,0.01741
0.53054,0.49503,-0.68809,0.01609,0.01379,0.01737
0.53015,0.49506,-0.68837,0.01375,0.01234,0.01608
0.52982,0.49517,-0.68855,0.00605,0.0086,0.00627
0.52945,0.49529,-0.68874,0.01401,0.01853,0.00826
0.52921,0.49527,-0.68894,0.00742,0.01627,0.00715
0.52936,0.49525,-0.68884,0.00109,0.01038,0.00473
0.5297,0.4953,-0.68854,0.00062,0.01292,0.00362
0.53011,0.49551,-0.68808,-0.00405,0.00722,0.00717
0.53047,0.49577,-0.68762,0.00031,0.00933,0.00608
0.53068,0.49597,-0.6873,0.00597,0.00909,0.00841
0.5309,0.49618,-0.68699,0.00708,0.01046,0.00721
0.53109,0.49634,-0.68673,0.013,0.01065,0.00812
0.53133,0.49658,-0.68636,0.01247,0.01003,0.0106
0.53164,0.49688,-0.68591,0.01193,0.01226,0.01042
0.53193,0.49713,-0.6855,0.01328,0.01233,0.01297
0.53206,0.49726,-0.6853,0.01074,0.01336,0.0182
0.53209,0.4973,-0.68525,0.01762,0.01611,0.0194
0.53196,0.49722,-0.68541,0.02366,0.0167,0.01154
0.53183,0.49712,-0.68559,0.01742,0.01459,0.01565
0.53181,0.49698,-0.6857,0.01573,0.01481,0.01288
0.53188,0.49692,-0.68569,0.00864,0.00873,0.01046
0.5318,0.49689,-0.68578,0.00662,0.00904,0.01164
0.5318,0.49696,-0.68572,0.01048,0.00557,0.00626
0.53192,0.49717,-0.68548,0.00767,0.01168,0.00416
0.53216,0.49742,-0.68511,0.00266,0.01254,0.00689
0.53239,0.4976,-0.6848,0.00591,0.0131,0.00931
0.53222,0.49764,-0.68491,0.01557,0.01426,0.01322
0.53158,0.49754,-0.68548,0.02749,0.0183,0.01389
0.53097,0.49742,-0.68604,0.01661,0.01325,0.0172
0.53036,0.4972,-0.68667,0.01669,0.01586,0.02004
0.52941,0.49691,-0.68761,0.01369,0.01391,0.01561
0.52847,0.4966,-0.68856,0.00038,0.00799,0.00704
0.5279,0.49634,-0.68917,-0.0019,0.00967,-0.00245
0.52765,0.49605,-0.68958,0.00251,0.01573,-0.00197
0.52761,0.49566,-0.68989,-0.01071,0.01255,0.00318
0.52758,0.49528,-0.69018,-0.0086,0.0095,0.00459
0.5276,0.49513,-0.69028,-0.00353,0.00534,-0.00193
0.52778,0.49523,-0.69007,0.00119,0.00338,-0.00019
0.5282,0.49547,-0.68958,0.01076,0.00758,0.00786
0.52855,0.49562,-0.6892,0.0123,0.01348,0.01831
0.52856,0.49564,-0.68917,0.01701,0.01634,0.01893
0.52839,0.49567,-0.68929,0.01814,0.01617,0.01422
0.52825,0.49564,-0.68942,0.02626,0.02118,0.01378
0.52796,0.49537,-0.68983,0.03266,0.02142,0.01997
0.5275,0.49496,-0.69048,0.03122,0.02515,0.02457
0.52706,0.49458,-0.69109,0.024,0.01755,0.01413
0.52682,0.49422,-0.69153,0.02424,0.01791,0.01457
0.52722,0.49416,-0.69127,-0.00862,0.00032,-0.00251
0.52778,0.49428,-0.69075,-0.00683,0.00137,-0.00208
0.52807,0.49435,-0.69047,-0.00525,0.00434,0.00018
0.52811,0.49432,-0.69047,-0.0026,0.00961,0.00346
0.5281,0.49418,-0.69057,0.02306,0.02072,0.01377
0.528,0.4939,-0.69085,0.02612,0.0246,0.01324
0.52788,0.49357,-0.69118,0.01242,0.01203,0.01018
0.52776,0.49336,-0.69142,0.00877,0.00739,0.01468
0.52738,0.49314,-0.69187,0.01609,0.00979,0.01612
0.52702,0.493,-0.69224,0.0081,0.01578,0.01259
0.5268,0.49276,-0.69258,0.01317,0.01803,0.01332
0.52665,0.49242,-0.69294,0.00602,0.01727,0.01018
0.52653,0.49216,-0.69321,0.00533,0.01003,0.00536
0.52672,0.49195,-0.69322,0.00333,0.00673,0.00303
0.52695,0.49184,-0.69313,0.00072,0.00713,0.00338
0.52712,0.49188,-0.69297,0.00788,0.00994,0.00615
0.52726,0.49192,-0.69283,0.00993,0.01068,0.01525
0.52743,0.49196,-0.69267,0.01247,0.0155,0.01537
0.52745,0.49198,-0.69264,0.02286,0.01766,0.01585
0.52706,0.49186,-0.69303,0.0242,0.01534,0.02092
0.52641,0.49144,-0.69382,0.01917,0.01796,0.02036
0.52574,0.49081,-0.69477,0.01279,0.01732,0.00908
0.52471,0.49017,-0.696,0.0079,0.01457,0.00401
0.52373,0.48967,-0.69708,-0.00197,0.00915,0.00078
0.52302,0.48937,-0.69783,0.00376,0.01374,0.00769
0.52235,0.48904,-0.69856,0.01637,0.00748,0.00691
0.52146,0.48868,-0.69948,0.00952,0.01539,0.00887
0.5214,0.48862,-0.69957,0.00196,0.01222,0.01506
0.52149,0.48859,-0.69952,0.01902,0.01897,0.01216
0.52112,0.48837,-0.69995,-0.00772,0.001,-0.00746
0.52128,0.48853,-0.69972,-0.01658,0.00149,-0.00859
0.52224,0.48901,-0.69867,-0.00512,0.01165,-0.00092
0.52306,0.48938,-0.6978,-0.01613,-0.00477,-0.00612
0.5244,0.49027,-0.69616,0.00765,0.01156,-0.0067
0.52574,0.49127,-0.69445,0.01533,0.01856,0.02257
0.52654,0.49169,-0.69353,0.02387,0.02829,0.02824
0.52645,0.49154,-0.69371,0.02759,0.02776,0.02359
0.52622,0.4913,-0.69406,0.03649,0.02618,0.02056
0.52584,0.49091,-0.69463,0.03015,0.01472,0.01332
0.52539,0.49037,-0.69535,0.01256,0.01421,0.01128
0.52507,0.4899,-0.69591,-0.00141,-0.00322,0.006
0.5252,0.48976,-0.69591,0.00249,0.01048,0.00976
0.52569,0.48986,-0.69548,0.0126,0.01092,0.00026
0.52625,0.49006,-0.69491,0.01495,0.01371,0.01127
0.52672,0.49013,-0.69451,0.01889,0.01176,0.02025
0.52665,0.49004,-0.69462,0.02051,0.01397,0.0184
0.52615,0.48988,-0.69511,0.01955,0.01688,0.022
0.52552,0.48978,-0.69566,0.01765,0.01549,0.00868
0.52469,0.48973,-0.69632,0.01319,0.00982,0.00055
0.52412,0.48982,-0.69669,0.00159,0.0093,-0.00291
0.5239,0.48998,-0.69674,0.01107,0.01283,-0.00118
0.52353,0.49037,-0.69674,0.01835,-0.00275,-0.03702
0.5237,0.49188,-0.69556,0.0238,0.02646,0.01488
0.52386,0.49315,-0.69454,0.01874,0.02466,0.02585
0.52388,0.49386,-0.69401,0.01483,0.01573,0.01797
0.52397,0.49491,-0.6932,0.0115,0.0155,0.00455
0.52459,0.49639,-0.69167,0.01089,0.01402,0.00302
0.52537,0.49779,-0.69006,0.02773,0.01887,0.00888
0.52712,0.49923,-0.68769,0.0245,0.01913,0.02457
0.52948,0.5007,-0.6848,0.00881,0.01784,0.02783
0.53208,0.50218,-0.68169,-0.04628,-0.02046,0.02038
0.53455,0.50411,-0.67833,-0.06053,-0.0342,-0.00525
0.53465,0.50543,-0.67727,0.0185,0.0305,-0.00311
0.53492,0.50639,-0.67633,0.00254,0.03299,0.01242
0.53611,0.50718,-0.6748,-0.00906,0.01711,0.02316
0.53692,0.50731,-0.67406,0.00363,0.02833,0.01198
0.53743,0.50739,-0.6736,0.00797,0.02695,-0.00517
0.53795,0.50739,-0.67318,0.03033,0.02586,0.01729
0.53876,0.50692,-0.67289,0.02741,0.01972,0.0216
0.53971,0.50673,-0.67226,0.01319,0.00261,0.01134
0.53968,0.50682,-0.67222,0.01235,0.00661,0.0173
0.53906,0.50691,-0.67265,0.01503,0.02959,0.02284
0.53823,0.50673,-0.67345,0.02034,0.00705,0.02052
0.5374,0.50652,-0.67427,0.02594,-0.01066,0.01017
0.53684,0.50686,-0.67446,0.01994,-0.01037,0.0049
0.53625,0.50752,-0.67443,0.0189,-0.00012,0.00299
0.5357,0.50808,-0.67445,0.02441,0.00937,-7e-05
0.53551,0.50879,-0.67406,0.02635,0.01329,0.00338
0.53726,0.51004,-0.67172,-0.00314,-0.00826,-0.00336
0.53846,0.51128,-0.66981,-0.01914,-0.01255,0.00378
0.53658,0.5117,-0.67101,-0.0504,-0.00382,0.0076
0.53454,0.51206,-0.67236,-0.03573,0.00686,0.01348
0.53267,0.51152,-0.67424,0.01271,0.01611,0.04149
0.53156,0.51067,-0.67576,0.01901,0.00944,-0.02115
0.53156,0.51076,-0.67571,-0.01096,0.02382,-0.02307
0.53155,0.51062,-0.67582,-0.04584,0.02304,0.02378
0.5311,0.50948,-0.67703,-0.06155,0.02054,0.04541
0.53025,0.50746,-0.67921,-0.03792,0.02145,0.01021
0.52896,0.50542,-0.68173,0.01737,0.02525,-0.025
0.52789,0.50373,-0.6838,0.05837,0.03405,-0.01755
0.52822,0.50249,-0.68446,0.05942,0.03322,0.0079
0.52991,0.50166,-0.68376,0.04037,0.02104,0.01887
0.53176,0.50135,-0.68255,0.01965,0.00998,0.01745
0.53295,0.50134,-0.68163,0.01687,0.00649,0.01601
0.53342,0.50142,-0.6812,0.01402,0.01083,0.00705
0.5333,0.50151,-0.68124,0.01832,0.01362,0.00266
0.53294,0.50152,-0.68151,0.02015,0.01516,0.00187
0.53257,0.50142,-0.68188,0.01565,0.01288,0.0055
0.53213,0.50126,-0.68233,0.01255,0.01231,0.00667
0.53173,0.50115,-0.68273,0.0088,0.00576,0.01012
0.5315,0.50116,-0.6829,0.00977,0.00995,0.01157
0.53146,0.50126,-0.68285,0.00868,0.01064,0.01221
0.53157,0.50144,-0.68264,0.00958,0.01486,0.00904
0.53172,0.5016,-0.6824,0.00989,0.01477,0.01031
0.5318,0.50171,-0.68225,0.00845,0.01223,0.00795
0.53181,0.50178,-0.6822,0.0096,0.01241,0.00727
0.53183,0.50185,-0.68214,0.00531,0.01038,0.00465
0.53191,0.50192,-0.68202,-0.00034,0.01027,0.00517
0.53195,0.50203,-0.68191,0.00189,0.00981,0.00084
0.53191,0.50218,-0.68183,0.00279,0.01044,0.00438
0.53185,0.5023,-0.68178,0.00591,0.01047,0.00619
0.53182,0.50239,-0.68174,0.00228,0.01055,0.00597
0.53178,0.50248,-0.68171,0.0024,0.01476,0.00574
0.53172,0.50254,-0.68171,0.00409,0.01247,0.00725
0.53166,0.50255,-0.68174,0.00404,0.01301,0.00733
0.53162,0.50252,-0.6818,0.00495,0.01134,0.0054
0.5316,0.50246,-0.68186,0.00705,0.01184,0.00611
0.53166,0.50245,-0.68182,0.0077,0.01208,0.0098
0.53168,0.50242,-0.68183,0.01068,0.01122,0.01084
0.53168,0.50242,-0.68182,0.01123,0.01071,0.01138
0.5317,0.50249,-0.68176,0.01083,0.01229,0.01024
0.53167,0.50253,-0.68175,0.00902,0.01218,0.00955
0.5317,0.50259,-0.68169,0.0077,0.01191,0.01007
0.53181,0.50271,-0.68151,0.00614,0.01438,0.00697
0.53188,0.50283,-0.68137,0.00638,0.01108,0.00621
0.53186,0.50292,-0.68132,0.00484,0.01246,0.00633
0.53181,0.50303,-0.68128,0.00295,0.01154,0.00536
0.53179,0.50315,-0.68121,0.00458,0.01423,0.00751
0.5318,0.50321,-0.68115,0.00694,0.01432,0.00528
0.53178,0.50319,-0.68118,0.00498,0.01332,0.00713
0.53181,0.50321,-0.68114,-0.00042,0.01159,0.00336
0.5318,0.50327,-0.6811,-0.00054,0.01136,0.00767
0.53174,0.50328,-0.68115,0.00304,0.01139,0.00801
0.5316,0.50325,-0.68127,0.00694,0.01358,0.00214
0.53149,0.50326,-0.68136,0.00974,0.01223,0.00449
0.53145,0.50328,-0.68138,0.01018,0.0131,0.00979
0.53142,0.50327,-0.68141,0.00862,0.01164,0.01048
0.53136,0.50326,-0.68146,0.00879,0.01406,0.00802
0.53131,0.50324,-0.68151,0.00672,0.01295,0.00744
0.53127,0.50319,-0.68157,0.00506,0.01475,0.00749
0.53126,0.50313,-0.68163,0.00574,0.01315,0.00725
0.53126,0.50305,-0.68169,0.00394,0.01207,0.00876
0.53125,0.50296,-0.68176,0.00689,0.01239,0.00877
0.53129,0.5029,-0.68178,0.0082,0.01102,0.00852
0.53133,0.5029,-0.68175,0.00578,0.01062,0.00894
0.53138,0.50292,-0.68169,0.00598,0.01367,0.00622
0.53146,0.50295,-0.68161,0.00614,0.013,0.00711
0.53151,0.50298,-0.68155,0.00536,0.01277,0.00932
0.53152,0.50301,-0.68151,0.00604,0.01231,0.0076
0.53153,0.50303,-0.68149,0.00666,0.01519,0.00774
0.53157,0.50302,-0.68147,0.0063,0.01338,0.00604
0.5316,0.503,-0.68146,0.00498,0.01159,0.00684
0.5316,0.50299,-0.68148,0.00331,0.01308,0.00649
0.53156,0.50296,-0.68153,0.00268,0.01256,0.00288
0.53151,0.50291,-0.6816,0.00421,0.01192,0.0042
0.53149,0.50287,-0.68164,0.00569,0.01227,0.00632
0.53152,0.5028,-0.68168,0.00613,0.01441,0.00646
0.53156,0.50275,-0.68168,0.0049,0.01104,0.00747
0.53162,0.50267,-0.68169,0.00256,0.01137,0.00897
0.53165,0.50261,-0.68172,0.0025,0.01056,0.00589
0.5316,0.50258,-0.68177,0.00587,0.01221,0.00445
0.53154,0.50255,-0.68184,0.00752,0.01382,0.00609
0.53152,0.50255,-0.68185,0.00916,0.01289,0.01035
0.53156,0.50254,-0.68183,0.00709,0.01325,0.00875
0.53161,0.50255,-0.68178,0.006,0.01452,0.00767
0.53163,0.50257,-0.68176,0.00566,0.01211,0.00745
0.53161,0.50257,-0.68177,0.00385,0.01493,0.00977
0.53157,0.50255,-0.68182,0.00595,0.01241,0.00671
0.53153,0.50252,-0.68188,0.0085,0.01154,0.00788
0.53152,0.5025,-0.68189,0.00791,0.01041,0.00695
0.53158,0.5025,-0.68185,0.00321,0.01117,0.00739
0.53161,0.50255,-0.68178,0.00273,0.011,0.00795
0.53161,0.50264,-0.68172,0.00538,0.01266,0.00545
0.53162,0.50269,-0.68168,0.00587,0.01403,0.00617
0.53165,0.50274,-0.68162,0.00639,0.01264,0.00681
0.53167,0.50276,-0.68158,0.0042,0.01362,0.00591
0.53165,0.50278,-0.68159,0.00536,0.01367,0.0059
0.53162,0.50278,-0.68161,0.00381,0.01513,0.00421
0.53159,0.50276,-0.68165,0.00207,0.0143,0.005
0.53157,0.50272,-0.6817,0.00417,0.01239,0.00357
0.53155,0.50267,-0.68174,0.0053,0.01347,0.00643
0.53154,0.50265,-0.68176,0.00526,0.01436,0.00873
0.53155,0.50265,-0.68176,0.00787,0.01255,0.00549
0.53158,0.50264,-0.68175,0.00593,0.01373,0.00883
0.53163,0.50264,-0.6817,0.00809,0.01448,0.0085
0.53171,0.50265,-0.68164,0.00713,0.01261,0.00773
0.53179,0.50264,-0.68158,0.00373,0.01356,0.0093
0.53182,0.50265,-0.68154,0.006,0.01407,0.00756
0.53184,0.50269,-0.68151,0.00991,0.0146,0.00434
0.5319,0.50272,-0.68143,0.00724,0.0117,0.00988
0.532,0.50278,-0.68131,0.00479,0.01121,0.01034
0.53216,0.50285,-0.68114,0.00518,0.01217,0.00736
0.53236,0.5029,-0.68094,0.00544,0.0127,0.00644
0.53256,0.50292,-0.68077,0.00411,0.01452,0.00951
0.53271,0.50289,-0.68067,0.00383,0.01598,0.00892
0.53284,0.50286,-0.6806,0.00566,0.01436,0.0061
0.53301,0.50283,-0.68049,0.00413,0.01052,0.00341
0.53327,0.5028,-0.6803,0.00541,0.0104,0.00692
0.53349,0.50289,-0.68007,0.00521,0.01026,0.00642
0.53369,0.50299,-0.67984,0.00451,0.0123,0.00511
0.53392,0.50307,-0.6796,0.00647,0.01234,0.00798
0.53408,0.50316,-0.6794,0.00539,0.01469,0.00812
0.5342,0.50323,-0.67926,0.00251,0.0143,0.00616
0.53416,0.50329,-0.67925,0.00306,0.01185,0.00597
0.53395,0.50331,-0.67939,0.00086,0.01127,0.00419
0.53366,0.5033,-0.67963,0.0,0.01393,0.00034
0.53336,0.50326,-0.67989,0.00226,0.01356,0.00266
0.5331,0.50318,-0.68016,0.00207,0.01495,0.0055
0.53285,0.50308,-0.68043,0.00022,0.01544,0.00307
0.53268,0.50292,-0.68068,0.00133,0.01521,0.0032
0.53259,0.50269,-0.68092,0.00148,0.01388,0.00388
0.53255,0.50248,-0.68111,0.00584,0.01097,0.01035
0.53243,0.50232,-0.68132,0.00656,0.01025,0.01019
0.53227,0.50226,-0.68149,0.00705,0.01225,0.0085
0.53221,0.50218,-0.68159,0.00809,0.01259,0.00776
0.53217,0.50219,-0.68161,0.00862,0.01375,0.0077
0.53213,0.50227,-0.68159,0.01069,0.01059,0.01112
0.53214,0.50236,-0.68151,0.01117,0.01404,0.01088
0.53221,0.50247,-0.68138,0.0115,0.01294,0.00944
0.53235,0.50262,-0.68115,0.00787,0.01334,0.00839
0.5325,0.50276,-0.68094,0.00528,0.01501,0.00836
0.53259,0.50282,-0.68082,0.00565,0.01485,0.0071
0.53263,0.50284,-0.68078,0.00358,0.01436,0.00331
0.53266,0.5028,-0.68079,0.00326,0.01338,0.00445
0.53271,0.50276,-0.68077,0.0016,0.01158,0.00339
0.53269,0.50277,-0.68078,-0.00092,0.01294,0.00074
0.53262,0.50279,-0.68083,-0.00265,0.01311,0.00262
0.53255,0.50278,-0.68088,0.00143,0.01359,0.00573
0.53248,0.50277,-0.68095,0.00358,0.01472,0.00477
0.53241,0.50273,-0.68103,0.00331,0.01564,0.00522
0.53236,0.50265,-0.68112,0.00302,0.01306,0.00462
0.53231,0.5026,-0.6812,0.00374,0.01255,0.00857
0.53227,0.50258,-0.68126,0.00609,0.01508,0.00828
0.53226,0.50257,-0.68127,0.00523,0.01306,0.00822
0.53229,0.50257,-0.68124,0.00764,0.01286,0.00844
0.53236,0.50258,-0.68118,0.00437,0.01379,0.00749
0.53243,0.50259,-0.68111,0.00392,0.01419,0.00942
0.53249,0.50261,-0.68105,0.00596,0.01372,0.009
0.53255,0.50261,-0.68101,0.00603,0.01425,0.00758
0.53259,0.5026,-0.68099,0.00418,0.01202,0.00684
0.53262,0.50262,-0.68095,0.00336,0.01536,0.00476
0.53256,0.50264,-0.68099,0.00352,0.0159,0.00504
0.53249,0.50264,-0.68104,0.00583,0.01288,0.00451
0.53249,0.50264,-0.68104,0.00422,0.0147,0.00687
0.53251,0.50268,-0.68099,0.00301,0.0151,0.00794
0.53254,0.50268,-0.68096,0.00149,0.01445,0.00433
0.53255,0.50263,-0.68099,0.00268,0.01333,0.00666
0.53252,0.50254,-0.68108,0.00362,0.01311,0.00571
0.53248,0.50243,-0.6812,0.00394,0.01315,0.00707
0.5325,0.50236,-0.68122,0.00395,0.01093,0.00424
0.53256,0.50235,-0.68119,0.00382,0.01131,0.00709
0.53261,0.50238,-0.68113,0.00428,0.01254,0.00738
0.53268,0.50246,-0.68102,0.00325,0.01214,0.00862
0.5327,0.50254,-0.68094,0.00412,0.01663,0.00777
0.53269,0.50262,-0.68089,0.00584,0.015,0.00511
0.53266,0.50274,-0.68083,0.00711,0.01476,0.00556
0.53263,0.50289,-0.68074,0.00408,0.01114,0.00464
0.53256,0.50304,-0.68068,0.0059,0.01226,0.00484
0.5325,0.50325,-0.68057,0.00569,0.01155,0.00168
0.53255,0.50339,-0.68043,0.00016,0.01822,0.00666
0.53269,0.50335,-0.68035,-0.00111,0.01705,0.0101
0.5328,0.50322,-0.68036,0.00135,0.01482,0.00822
0.5328,0.50308,-0.68047,0.0028,0.01111,0.00829
0.53268,0.50299,-0.68063,0.0079,0.00951,0.00787
0.53256,0.503,-0.68071,0.01059,0.00882,0.00815
0.53251,0.50311,-0.68067,0.00834,0.01201,0.00779
0.53246,0.50324,-0.68061,0.00695,0.01356,0.00893
0.53236,0.50334,-0.68062,0.00559,0.01454,0.00555
0.53221,0.50341,-0.68069,0.00461,0.01342,0.00398
0.5321,0.50341,-0.68077,0.00198,0.01687,0.00449
0.53202,0.50338,-0.68085,0.00205,0.01839,0.00191
0.53197,0.50334,-0.68092,0.00392,0.01704,0.00304
0.53199,0.50331,-0.68093,0.00402,0.01499,0.0064
0.53204,0.50333,-0.68088,0.00391,0.01302,0.00539
0.53213,0.50335,-0.68079,0.00026,0.01493,0.00487
0.53225,0.50328,-0.68074,0.00149,0.01335,0.0075
0.53234,0.50318,-0.68075,-0.00072,0.01284,0.00543
0.53236,0.50306,-0.68082,-0.00037,0.01716,0.00405
0.53239,0.50292,-0.6809,0.00036,0.00983,0.00581
0.53245,0.5028,-0.68095,0.00275,0.01172,0.00782
0.53251,0.50277,-0.68092,0.00539,0.01332,0.00558
0.53258,0.50275,-0.68088,0.00409,0.01319,0.0096
0.53264,0.50272,-0.68086,0.00854,0.01267,0.00889
0.53269,0.50266,-0.68087,0.00828,0.01328,0.00615
0.53272,0.50264,-0.68085,0.01136,0.01575,0.0076
0.53279,0.50256,-0.68086,0.00867,0.01773,0.01109
0.53286,0.50245,-0.68089,0.00456,0.01856,0.0084
0.5328,0.50233,-0.68102,0.00297,0.01264,0.00777
0.53271,0.50226,-0.68114,0.00397,0.01266,0.00502
0.53267,0.50222,-0.6812,0.00134,0.01283,0.00081
0.53269,0.50218,-0.68122,0.00162,0.01224,0.00495
0.53273,0.50219,-0.68118,0.00038,0.01428,0.0033
0.53276,0.50221,-0.68114,0.00156,0.01526,0.00319
0.53284,0.50223,-0.68106,0.00105,0.01454,0.00401
0.53292,0.50224,-0.68099,0.00121,0.0144,0.00442
0.53296,0.50225,-0.68095,0.00162,0.01523,0.00432
0.53298,0.5022,-0.68098,0.00213,0.01495,0.00543
0.53299,0.50212,-0.68102,0.00604,0.01742,0.00494
0.53313,0.50209,-0.68094,0.00358,0.01829,0.00844
0.53325,0.50202,-0.6809,0.00261,0.01591,0.00617
0.53327,0.50203,-0.68087,0.00285,0.01205,0.00109
0.53327,0.50204,-0.68086,0.01056,0.01065,0.01026
0.53334,0.50203,-0.68082,0.01005,0.01099,0.00767
0.53336,0.50209,-0.68076,0.0079,0.01285,0.01087
0.53338,0.5022,-0.68066,0.00544,0.01595,0.00892
0.53336,0.50227,-0.68063,0.00474,0.01668,0.00721
0.53329,0.50226,-0.68068,0.00137,0.0158,0.00789
0.53321,0.50224,-0.68077,0.00358,0.01409,0.00564
0.53316,0.50219,-0.68084,0.00364,0.01402,0.00422
0.53318,0.50216,-0.68085,0.0026,0.01302,0.00235
0.53322,0.50219,-0.68079,0.0004,0.01362,0.00318
0.53326,0.50226,-0.68071,0.00032,0.0123,0.004
0.53325,0.50234,-0.68066,0.0032,0.01524,0.00374
0.53323,0.50239,-0.68064,0.00216,0.01518,0.00534
0.53323,0.50241,-0.68062,0.00319,0.0137,0.00507
0.53325,0.50245,-0.68058,0.0027,0.01426,0.00516
0.53329,0.50247,-0.68054,0.0032,0.01378,0.00624
0.53332,0.50246,-0.68051,0.00214,0.01407,0.00719
0.53334,0.50246,-0.6805,0.00429,0.01463,0.00606
0.53332,0.50248,-0.6805,0.0033,0.01322,0.00706
0.53332,0.5025,-0.68049,0.00623,0.01483,0.00715
0.53335,0.50254,-0.68043,0.00416,0.0141,0.0079
0.53339,0.50257,-0.68038,0.00458,0.01416,0.00676
0.53341,0.50263,-0.68032,0.00111,0.01539,0.00761
0.5334,0.50265,-0.68031,0.00294,0.01247,0.00672
0.53339,0.50269,-0.68029,0.00517,0.01176,0.0037
0.5334,0.50274,-0.68024,0.00113,0.01445,0.00629
0.53343,0.50279,-0.68018,-0.00115,0.01441,0.00735
0.53342,0.50284,-0.68016,0.00123,0.01355,0.00368
0.53337,0.50291,-0.68015,0.00681,0.01362,0.00308
0.53335,0.50298,-0.6801,0.00414,0.01489,0.00831
0.53338,0.50304,-0.68004,0.00505,0.01328,0.00958
0.53337,0.50312,-0.67999,0.0022,0.01592,0.00917
0.53337,0.50315,-0.67997,0.00059,0.01379,0.0058
0.53336,0.50315,-0.67998,0.00047,0.01492,0.00462
0.53334,0.50311,-0.68002,0.00254,0.01385,0.00241
0.53336,0.50305,-0.68005,0.0046,0.0148,0.00373
0.53346,0.50304,-0.67998,0.00394,0.014,0.007
0.53356,0.50305,-0.6799,0.00259,0.01421,0.00688
0.53354,0.50308,-0.67989,0.00398,0.01413,0.00824
0.53345,0.50311,-0.67993,0.00193,0.01538,0.00827
0.53341,0.50312,-0.67996,0.00245,0.01455,0.00786
0.53339,0.50311,-0.67997,0.00179,0.01562,0.00459
0.53339,0.5031,-0.67999,0.00112,0.01335,0.00326
0.53338,0.50308,-0.68001,0.0024,0.01539,0.00326
0.53341,0.50303,-0.68002,0.00324,0.0145,0.00404
0.53343,0.50303,-0.68001,0.00147,0.01432,0.00629
0.53343,0.50301,-0.68002,0.00075,0.01253,0.0059
0.53342,0.50301,-0.68003,0.00013,0.01346,0.00368
0.53341,0.50303,-0.68003,0.00384,0.01522,0.00705
0.53343,0.50303,-0.68001,0.00375,0.01446,0.0036
0.53347,0.50301,-0.67999,0.00225,0.01671,0.00476
0.53349,0.50299,-0.67999,0.00104,0.01609,0.00295
0.53351,0.50294,-0.68002,0.00176,0.01366,0.00585
0.53353,0.50289,-0.68004,0.00195,0.01518,0.00744
0.53359,0.50283,-0.68004,0.00213,0.01522,0.00625
0.5336,0.50279,-0.68006,0.0036,0.014,0.00168
0.5336,0.50277,-0.68006,0.00641,0.01398,0.00697
0.53364,0.50277,-0.68003,0.00376,0.01392,0.00956
0.53369,0.50278,-0.67999,0.00365,0.01408,0.01112
0.53371,0.5028,-0.67995,0.00324,0.01467,0.005
0.53371,0.50281,-0.67995,0.00236,0.01521,0.00646
0.53371,0.50277,-0.67998,0.00226,0.01558,0.00495
0.53368,0.50272,-0.68005,0.00122,0.01331,0.0026
0.53366,0.50264,-0.68012,0.00257,0.01384,0.00339
0.53366,0.50256,-0.68018,0.002,0.01143,0.00653
0.53369,0.50251,-0.68018,0.00264,0.01239,0.00613
0.53372,0.50249,-0.68018,0.00052,0.01262,0.00704
0.53373,0.50253,-0.68014,0.00127,0.0134,0.00725
0.53371,0.50257,-0.68012,0.00231,0.01406,0.00459
0.53371,0.50261,-0.6801,0.0029,0.01585,0.00604
0.53373,0.50261,-0.68008,0.00053,0.01574,0.00406
0.53375,0.5026,-0.68008,0.00298,0.01479,0.00408
0.53379,0.50257,-0.68007,0.00396,0.01576,0.00508
0.53382,0.50253,-0.68007,0.00207,0.01504,0.00634
0.53381,0.50251,-0.6801,0.00263,0.01348,0.00778
0.5338,0.50248,-0.68013,0.00348,0.01321,0.00563
0.53378,0.50245,-0.68016,0.00424,0.01322,0.00585
0.53377,0.50244,-0.68017,0.00239,0.01421,0.00722
0.53378,0.50244,-0.68017,0.00453,0.01476,0.00582
0.53379,0.50243,-0.68017,0.00078,0.01345,0.0052
0.53379,0.50242,-0.68018,0.0006,0.01399,0.00655
0.53376,0.50242,-0.6802,0.00351,0.01319,0.00416
0.53372,0.50242,-0.68023,0.00237,0.01604,0.00513
0.53369,0.50242,-0.68026,0.00413,0.01502,0.00548
0.5337,0.50242,-0.68025,0.00379,0.01498,0.00751
0.53371,0.50245,-0.68022,0.00253,0.01373,0.00504
0.53372,0.50249,-0.68018,0.0027,0.01293,0.0031
0.53373,0.50247,-0.68019,0.00198,0.01657,0.00561
0.53369,0.50241,-0.68027,0.00071,0.01563,0.00345
0.53366,0.50231,-0.68036,0.00208,0.01364,0.0049
0.53365,0.50224,-0.68042,0.00378,0.01288,0.00706
0.53366,0.5022,-0.68045,0.0026,0.01097,0.00503
0.53363,0.50221,-0.68046,0.00325,0.01326,0.00506
0.53362,0.50234,-0.68038,0.00377,0.01417,0.00635
0.53359,0.50246,-0.6803,0.00515,0.0154,0.00699
0.53354,0.50265,-0.68021,0.00177,0.01546,0.00336
0.53348,0.50288,-0.68008,0.00444,0.01608,0.00535
0.53343,0.50304,-0.68,0.00342,0.01419,0.00659
0.53338,0.50314,-0.67997,0.00425,0.01605,0.0078
0.53335,0.50319,-0.67995,0.00263,0.01903,0.00281
0.53336,0.50311,-0.68,0.00366,0.02045,0.00553
0.53339,0.50295,-0.6801,0.00019,0.01827,0.00743
0.53336,0.50286,-0.68019,-0.00218,0.01045,0.00493
0.53334,0.50279,-0.68026,0.00183,0.00949,0.00381
0.53334,0.50279,-0.68026,0.00082,0.01149,0.00748
0.53341,0.50282,-0.68018,0.00434,0.01358,0.00461
0.53351,0.50287,-0.68007,0.00195,0.01302,0.0063
0.53354,0.50292,-0.68001,0.00126,0.01417,0.00863
0.53352,0.50295,-0.68,0.00186,0.01382,0.00547
0.53344,0.50299,-0.68004,0.00291,0.01529,0.00636
0.53337,0.50301,-0.68007,0.00324,0.01582,0.00512
0.53334,0.50301,-0.68009,0.00158,0.01501,0.00763
0.5333,0.50305,-0.6801,0.00263,0.01717,0.00375
0.53328,0.50307,-0.6801,0.00247,0.01556,0.00634
0.53329,0.50305,-0.6801,0.00429,0.01278,0.00707
0.53331,0.50304,-0.6801,0.00309,0.01173,0.00464
0.53332,0.50308,-0.68006,0.00264,0.0143,0.00671
0.53334,0.50309,-0.68004,0.00339,0.01319,0.00678
0.53335,0.50307,-0.68005,-0.00204,0.0182,0.00318
0.53333,0.50298,-0.68012,-0.00053,0.01695,0.00338
0.53328,0.50286,-0.68025,0.00163,0.0147,0.00162
0.53328,0.50276,-0.68033,0.00047,0.01141,0.0072
0.53332,0.50271,-0.68033,0.00211,0.01026,0.00495
0.53336,0.50274,-0.68029,0.00208,0.01161,0.00498
0.53338,0.5028,-0.68022,0.00258,0.01357,0.0055
0.53339,0.50287,-0.68016,0.00203,0.01522,0.00701
0.53337,0.50293,-0.68014,0.0031,0.01621,0.00686
0.53332,0.50292,-0.68017,0.00373,0.01577,0.00877
0.53328,0.5029,-0.68022,0.00408,0.01544,0.00542
0.53324,0.50292,-0.68024,0.00275,0.01497,0.00463
0.53323,0.50289,-0.68027,0.00277,0.01499,0.00465
0.53324,0.50294,-0.68023,0.00206,0.01514,0.00741
0.53326,0.503,-0.68017,0.00182,0.01351,0.00461
0.53326,0.50304,-0.68014,0.00162,0.01486,0.00649
0.53326,0.50309,-0.6801,0.00259,0.01414,0.00351
0.53327,0.50316,-0.68004,0.00189,0.01515,0.00412
0.53329,0.50318,-0.68,0.00186,0.01513,0.00409
0.5333,0.50323,-0.67996,0.00075,0.01395,0.00465
0.5333,0.50326,-0.67994,0.00105,0.01436,0.00599
0.5333,0.5033,-0.67991,0.00265,0.01492,0.00441
0.53333,0.50332,-0.67988,0.00218,0.01577,0.00637
0.53335,0.50331,-0.67986,-0.00225,0.0146,0.00643
0.53333,0.50331,-0.67988,0.00231,0.01381,0.00455
0.53331,0.50332,-0.67989,0.00391,0.01459,0.00493
0.53334,0.50335,-0.67984,0.00508,0.01262,0.00606
0.53341,0.50339,-0.67976,0.00391,0.01344,0.0073
0.53348,0.50345,-0.67966,0.00471,0.01546,0.00665
0.53352,0.50349,-0.6796,0.00255,0.0149,0.00626
0.53353,0.50348,-0.6796,0.0021,0.01552,0.00649
0.53348,0.50343,-0.67967,0.0009,0.01572,0.00284
0.53343,0.50336,-0.67976,0.0014,0.01167,0.00251
0.53344,0.5033,-0.67979,0.00196,0.01328,0.00504
0.53349,0.5033,-0.67977,0.0015,0.01146,0.00662
0.53351,0.50333,-0.67973,-0.00084,0.01265,0.00456
0.53351,0.50339,-0.67968,0.00223,0.0138,0.00599
0.5335,0.50345,-0.67965,0.00071,0.01602,0.00539
0.53348,0.50347,-0.67964,0.00245,0.01639,0.00371
0.53347,0.50348,-0.67964,0.00144,0.01448,0.00516
0.53349,0.50348,-0.67963,0.00176,0.01354,0.0045
0.5335,0.50348,-0.67963,0.00024,0.01506,0.00363
0.53352,0.50344,-0.67964,0.0008,0.01695,0.00624
0.53349,0.50337,-0.67971,0.00118,0.01474,0.00617
0.53347,0.50334,-0.67974,0.00394,0.01337,0.00628
0.53351,0.5033,-0.67974,0.00338,0.01365,0.00834
0.53352,0.50328,-0.67975,0.00565,0.01569,0.00536
0.5335,0.50323,-0.67981,0.00263,0.01402,0.00602
0.53352,0.50317,-0.67984,0.00178,0.01531,0.00653
0.53354,0.50309,-0.67988,0.00119,0.0142,0.00472
0.53355,0.50306,-0.67989,0.00069,0.01177,0.00309
0.53356,0.50304,-0.6799,0.00095,0.01257,0.00517
0.5336,0.50301,-0.67989,0.00171,0.01141,0.00452
0.53363,0.50299,-0.67988,-0.00018,0.01626,0.004
0.53367,0.50298,-0.67985,0.00383,0.01385,0.00374
0.53372,0.503,-0.6798,0.00272,0.01668,0.00382
0.53377,0.50301,-0.67976,0.00447,0.0151,0.00712
0.5338,0.50303,-0.67972,0.00251,0.01589,0.00746
0.53383,0.50304,-0.67968,0.00338,0.0144,0.00511
0.53385,0.50303,-0.67968,0.00063,0.01292,0.00706
0.53387,0.50297,-0.67971,0.00053,0.01459,0.00573
0.53385,0.50287,-0.6798,0.00113,0.01626,0.0028
0.53384,0.50277,-0.67988,0.00236,0.01316,0.00534
0.53388,0.50269,-0.67991,0.00102,0.0119,0.00608
0.53396,0.50266,-0.67986,0.00169,0.01218,0.00597
0.53402,0.5027,-0.67979,0.00063,0.01508,0.00401
0.53407,0.50275,-0.67971,0.00138,0.01273,0.00294
0.53413,0.50279,-0.67964,0.00123,0.01287,0.00485
0.53417,0.50282,-0.67958,0.00221,0.01292,0.00439
0.53425,0.50283,-0.67952,0.00247,0.0155,0.00534
0.53432,0.50282,-0.67947,-0.00076,0.01577,0.00534
0.53436,0.50282,-0.67944,-0.00068,0.01553,0.00548
0.53439,0.50279,-0.67943,0.00136,0.01557,0.00505
0.53442,0.50276,-0.67943,0.00123,0.01463,0.00565
0.53442,0.50279,-0.67941,0.00481,0.0142,0.0072
0.53445,0.50279,-0.67939,0.00588,0.01433,0.00599
0.53447,0.50281,-0.67936,0.00234,0.01651,0.00811
0.53448,0.50284,-0.67933,0.00339,0.01552,0.00415
0.53445,0.50285,-0.67934,0.00226,0.01628,0.00727
0.53445,0.50289,-0.67931,0.00301,0.0143,0.00758
0.5345,0.50294,-0.67924,0.00193,0.01356,0.00552
0.53458,0.50301,-0.67912,0.00056,0.01126,0.00504
0.53463,0.50313,-0.679,-0.00094,0.01311,0.00141
0.53467,0.50329,-0.67884,0.00449,0.01477,0.00068
0.53473,0.50346,-0.67867,0.00493,0.01412,0.00684
0.5348,0.50359,-0.67852,0.00434,0.01515,0.00965
0.53482,0.50369,-0.67843,0.00403,0.01627,0.00837
0.53482,0.50378,-0.67836,0.00261,0.01575,0.00644
0.53483,0.50383,-0.67832,-0.00177,0.01647,0.0056
0.53486,0.50382,-0.6783,-0.00149,0.01657,0.00228
0.5349,0.50377,-0.67831,-0.00125,0.01491,0.00163
0.53501,0.5037,-0.67827,0.0003,0.01339,0.0048
0.53519,0.50364,-0.67818,0.00325,0.01275,0.00747
0.53537,0.50364,-0.67803,0.00432,0.01571,0.00723
0.53553,0.50365,-0.6779,0.00296,0.01306,0.00722
0.53562,0.50364,-0.67783,0.00124,0.01278,0.0053
0.53568,0.50363,-0.67779,0.00196,0.01596,0.00382
0.53574,0.50361,-0.67776,-0.00159,0.01532,0.00085
0.53583,0.50357,-0.67772,-0.00134,0.01174,0.00229
0.53591,0.5035,-0.67771,-0.00222,0.01328,0.00479
0.53599,0.50345,-0.67768,0.00144,0.0135,0.00128
0.53609,0.50345,-0.67761,0.00526,0.01381,0.00472
0.53625,0.50345,-0.67747,0.00304,0.01405,0.00535
0.53636,0.50352,-0.67734,8e-05,0.01363,0.00638
0.53636,0.5036,-0.67728,0.00295,0.01447,0.00409
0.53626,0.50364,-0.67732,0.00036,0.01608,0.00681
0.53611,0.50367,-0.67742,0.00445,0.01423,0.00637
0.53597,0.50374,-0.67748,0.00486,0.01187,0.00969
0.53585,0.50381,-0.67753,0.00288,0.01325,0.00765
0.53569,0.50392,-0.67758,0.00913,0.01298,0.00626
0.53556,0.5041,-0.67754,0.00651,0.01648,0.00662
0.53548,0.5042,-0.67753,0.00445,0.01742,0.00666
0.53533,0.5042,-0.67765,0.0034,0.01725,0.00725
0.53518,0.50421,-0.67776,-0.00477,0.01221,0.00525
0.5351,0.50421,-0.67782,-0.00582,0.01508,0.00016
0.53512,0.50419,-0.67781,-0.00639,0.01416,0.00107
0.53518,0.5042,-0.67776,-0.00048,0.01481,-0.00017
0.53533,0.50417,-0.67767,-0.00378,0.01554,0.0015
0.53551,0.50411,-0.67757,-0.00133,0.01521,0.00204
0.53558,0.50407,-0.67754,0.00214,0.01216,0.00704
0.53555,0.50407,-0.67757,0.00316,0.01259,0.00629
0.53546,0.5041,-0.67762,0.0021,0.01488,0.00573
0.53538,0.50414,-0.67765,0.00596,0.013,0.0048
0.53534,0.50419,-0.67765,0.00412,0.01492,0.0048
0.53536,0.50421,-0.67762,0.00291,0.0167,0.00926
0.53536,0.50417,-0.67765,0.00361,0.01736,0.00545
0.5353,0.50412,-0.67773,0.00483,0.01492,0.00759
0.53528,0.50413,-0.67774,0.00525,0.01626,0.00683
0.53526,0.50412,-0.67776,0.00412,0.01543,0.00687
0.53527,0.50409,-0.67777,0.00217,0.01503,0.00256
0.53527,0.50404,-0.67781,-0.00088,0.0144,0.00402
0.53528,0.50401,-0.67783,-0.00201,0.01511,0.00345
0.5353,0.50401,-0.67781,-0.00415,0.01114,0.00206
0.53534,0.50406,-0.67774,-0.00191,0.01428,0.00077
0.53539,0.50409,-0.67768,-0.00196,0.0118,0.00225
0.53542,0.50411,-0.67764,0.00059,0.01639,0.00235
0.53544,0.50413,-0.67762,0.00268,0.01594,0.00432
0.53546,0.50413,-0.67759,0.00528,0.01391,0.00639
0.5355,0.50414,-0.67756,0.00486,0.01315,0.00791
0.53554,0.50416,-0.67751,0.00369,0.01476,0.00699
0.53556,0.50419,-0.67747,0.00388,0.01547,0.00683
0.5356,0.50423,-0.67741,0.00336,0.01729,0.00672
0.53559,0.50418,-0.67746,0.00325,0.01551,0.00447
0.53554,0.50409,-0.67756,0.00246,0.01514,0.00457
0.53553,0.50401,-0.67762,0.00199,0.0152,0.00316
0.53556,0.50398,-0.67763,0.00267,0.01155,0.00473
0.53559,0.50402,-0.67758,-0.00074,0.00872,-0.00121
0.53554,0.50403,-0.67761,-0.00351,0.00601,0.00788
0.53547,0.50406,-0.67763,-0.00045,0.00933,0.00062
0.53543,0.50411,-0.67764,0.00148,0.01311,0.00302
0.53543,0.50413,-0.67762,0.00158,0.01453,0.00352
0.53541,0.50416,-0.67761,-0.00097,0.01152,0.00427
0.53539,0.5042,-0.6776,0.00208,0.01324,0.00327
0.53535,0.5042,-0.67763,0.00017,0.01478,0.00465
0.53532,0.5042,-0.67765,0.00211,0.01339,0.00488
0.53535,0.5042,-0.67763,0.00281,0.01561,0.00798
0.53539,0.50417,-0.67762,0.00276,0.01462,0.00616
0.53542,0.50416,-0.6776,0.00195,0.01384,0.00583
0.53544,0.50416,-0.67758,0.00045,0.01811,0.00664
0.53543,0.50409,-0.67765,-0.0002,0.01673,0.00771
0.53534,0.50396,-0.67781,0.00082,0.01551,0.00533
0.53524,0.50396,-0.67789,0.00646,0.00859,0.00523
0.5352,0.50402,-0.67788,0.0033,0.01225,0.00767
0.5352,0.50412,-0.6778,0.00656,0.01459,0.00472
0.53518,0.5042,-0.67776,-0.00091,0.01731,0.00509
0.53515,0.50424,-0.67775,-0.00199,0.01098,0.00412
0.53511,0.50434,-0.67771,-0.00064,0.0144,0.00038
0.53511,0.50436,-0.6777,-0.00104,0.0146,0.0063
0.53514,0.50431,-0.67771,-0.00083,0.01511,0.00338
0.5352,0.50425,-0.67771,0.00188,0.01196,0.00236
0.53525,0.50417,-0.67773,0.0027,0.01431,0.0057
0.53533,0.50411,-0.67771,0.00109,0.01113,0.00677
0.5354,0.50406,-0.67769,-0.00064,0.01245,0.00421
0.53544,0.50405,-0.67767,0.00188,0.01225,0.00486
0.53542,0.50408,-0.67767,0.00331,0.01498,0.00229
0.53543,0.50408,-0.67766,0.00304,0.01393,0.00726
0.53542,0.50406,-0.67768,0.00429,0.01422,0.00736
0.53541,0.50407,-0.67768,0.00319,0.01346,0.00873
0.53541,0.50411,-0.67765,0.004,0.01544,0.00727
0.53539,0.50412,-0.67766,0.00343,0.01524,0.00511
0.53535,0.50412,-0.67768,0.00186,0.01693,0.00419
0.53532,0.50409,-0.67774,4e-05,0.01468,0.0044
0.53527,0.50406,-0.6778,0.00046,0.01515,0.00411
0.53522,0.50403,-0.67786,-0.00075,0.01332,0.00481
0.53521,0.50402,-0.67788,0.00083,0.01304,0.00304
0.53521,0.504,-0.67789,0.0006,0.01365,8e-05
0.53519,0.50398,-0.67791,-0.00019,0.01436,0.00281
0.53519,0.50393,-0.67795,-0.00042,0.0163,0.00316
0.53529,0.50391,-0.6779,-0.00135,0.00772,-0.00176
0.53526,0.50383,-0.67797,-0.00133,0.00779,-0.00169
0.53515,0.50374,-0.67813,-0.00088,0.0117,0.0029
0.53504,0.50378,-0.67818,0.00613,0.015,0.00704
0.53498,0.50385,-0.67818,0.0063,0.01334,0.00603
0.53496,0.50396,-0.67812,0.00346,0.01122,0.00705
0.53497,0.50413,-0.67798,0.00603,0.01316,0.00843
0.53498,0.5043,-0.67785,0.00182,0.01391,0.00573
0.53494,0.50443,-0.67779,0.00156,0.01767,0.00329
0.53494,0.50447,-0.67775,0.00106,0.01982,0.00415
0.53494,0.50442,-0.67779,0.00157,0.01995,0.00213
0.53498,0.50428,-0.67786,0.00054,0.01866,0.00112
0.53505,0.50409,-0.67794,-0.00247,0.0131,0.00302
0.53512,0.5039,-0.67803,-0.00312,0.01018,0.00164
0.53515,0.50374,-0.67814,-0.00097,0.0121,0.00432
0.53517,0.50363,-0.67819,-0.00024,0.01132,0.00531
0.5352,0.50358,-0.67821,-0.00032,0.01276,0.00533
0.53523,0.50358,-0.67819,0.00165,0.01362,0.00775
0.53523,0.50358,-0.67818,0.00284,0.01218,0.00615
0.53522,0.50361,-0.67817,0.00332,0.01063,0.00642
0.53519,0.50363,-0.67818,0.00162,0.01189,0.00692
0.53519,0.50368,-0.67814,0.00275,0.01376,0.00589
0.53514,0.50372,-0.67815,0.0049,0.01211,0.00725
0.53512,0.50384,-0.67808,0.00474,0.01326,0.00405
0.5351,0.5039,-0.67805,0.0045,0.01723,0.00915
0.53509,0.5039,-0.67806,0.00256,0.014,0.00308
0.53503,0.50393,-0.67808,0.00178,0.01403,0.00233
0.53495,0.50396,-0.67812,-2e-05,0.01451,0.00383
0.53494,0.50396,-0.67814,-0.00057,0.01545,0.00361
0.53493,0.50392,-0.67817,-0.00178,0.01445,0.00144
0.53488,0.50386,-0.67826,-0.00102,0.01113,0.00213
0.53479,0.5038,-0.67837,-0.0013,0.01145,0.00592
0.53473,0.50382,-0.6784,0.00283,0.01116,0.00168
0.53468,0.50393,-0.67836,0.00265,0.01212,0.00517
0.53468,0.50407,-0.67825,0.00232,0.01302,0.0076
0.53469,0.5042,-0.67815,0.00272,0.01524,0.00632
0.53472,0.50433,-0.67803,0.00227,0.01862,0.00368
0.53478,0.50439,-0.67794,-0.00026,0.02053,0.00347
0.53485,0.50431,-0.67794,0.00102,0.02169,0.00724
0.53502,0.50417,-0.67791,0.00055,0.01812,-0.00382
0.53501,0.50391,-0.67812,0.0034,0.01579,0.00864
0.53504,0.50371,-0.67824,0.00086,0.00821,0.00251
0.53516,0.50364,-0.6782,0.00348,0.0119,0.00494
0.53529,0.50362,-0.67811,0.00022,0.01163,0.00399
0.53537,0.50367,-0.67801,0.00015,0.01016,0.00588
0.5354,0.50375,-0.67793,0.00313,0.01182,0.00578
0.53541,0.50379,-0.67789,0.00263,0.01082,0.00307
0.53533,0.50383,-0.67792,0.00344,0.01323,0.00803
0.53527,0.50385,-0.67795,0.00298,0.01309,0.00661
0.53525,0.50388,-0.67795,0.00179,0.01274,0.00733
0.53521,0.50398,-0.6779,0.00132,0.0129,0.00606
0.53516,0.50406,-0.67788,0.00323,0.01413,0.00314
0.53509,0.50412,-0.6779,0.00094,0.01373,0.0033
0.53502,0.50417,-0.67791,0.00219,0.01623,0.00366
0.53494,0.5042,-0.67795,9e-05,0.0129,0.00243
0.5349,0.50423,-0.67796,0.00054,0.01444,0.00326
0.53488,0.50426,-0.67796,0.00066,0.01505,0.00466
0.53482,0.50423,-0.67802,0.00065,0.01276,0.00302
0.53479,0.50419,-0.67808,-0.00015,0.0115,0.0034
0.53474,0.50416,-0.67814,-4e-05,0.01274,0.00184
0.53473,0.5042,-0.67812,9e-05,0.01318,0.00623
0.53477,0.50424,-0.67806,-8e-05,0.01605,0.00235
0.53477,0.50429,-0.67802,0.00214,0.01533,0.00349
0.53477,0.5043,-0.67801,0.00336,0.01367,0.00182
0.53477,0.50427,-0.67804,0.00346,0.01448,0.00722
0.53483,0.50432,-0.67795,0.00631,0.01764,0.00705
0.53495,0.50433,-0.67785,0.00031,0.01525,0.00805
0.53505,0.5043,-0.6778,0.00124,0.01568,0.0056
0.53507,0.50426,-0.67781,-0.00032,0.01409,0.005
0.53503,0.50417,-0.6779,0.00208,0.01359,0.00393
0.53501,0.50409,-0.67798,0.00152,0.01296,0.00382
0.53504,0.50404,-0.678,0.00092,0.00974,0.00266
0.53506,0.50407,-0.67796,0.00029,0.01324,0.00466
0.53507,0.50414,-0.6779,0.00218,0.01256,0.00342
0.53503,0.50425,-0.67785,0.00122,0.01205,0.00483
0.53499,0.50437,-0.67779,0.00227,0.01385,0.00498
0.53496,0.5045,-0.67771,0.0033,0.01563,0.00431
0.53496,0.50459,-0.67764,0.00414,0.01468,0.00217
0.53501,0.50464,-0.67757,0.00132,0.017,0.0067
0.53506,0.50469,-0.67749,0.00311,0.01572,0.00153
0.53509,0.50472,-0.67745,0.00331,0.01697,0.00321
0.5351,0.50474,-0.67743,0.00097,0.01269,0.00389
0.53512,0.50474,-0.67741,0.0044,0.01188,0.0046
0.53511,0.50477,-0.67739,0.00276,0.01385,0.0034
0.53513,0.5048,-0.67736,0.00149,0.01295,0.00617
0.53517,0.50485,-0.67729,0.00196,0.01316,0.00352
0.5352,0.50488,-0.67724,0.00058,0.01328,0.00331
0.53522,0.5049,-0.67721,0.00061,0.01282,0.00311
0.53524,0.5049,-0.6772,0.00204,0.01283,0.00546
0.53522,0.50494,-0.67718,0.00294,0.01279,0.00356
0.53524,0.505,-0.67712,0.00122,0.01363,0.00509
0.53526,0.50506,-0.67706,0.0016,0.01487,0.00811
0.53525,0.50512,-0.67703,0.00255,0.01081,0.00149
0.5352,0.50522,-0.67698,0.00664,0.0119,0.00404
0.53523,0.50531,-0.6769,0.0039,0.01538,0.00867
0.53527,0.50539,-0.6768,0.00161,0.01663,0.0065
0.53529,0.50544,-0.67676,0.00213,0.01547,0.00418
0.53528,0.50544,-0.67676,-0.00165,0.01474,0.00426
0.53527,0.50539,-0.6768,-0.00167,0.01246,0.00056
0.53526,0.50534,-0.67685,-0.00131,0.00986,0.00331
0.53532,0.5053,-0.67684,0.0013,0.01321,0.00201
0.5354,0.5053,-0.67677,0.00119,0.01263,0.00534
0.53543,0.50533,-0.67673,0.00297,0.01185,0.00644
0.5354,0.50537,-0.67672,0.00261,0.01105,0.0049
0.53536,0.50541,-0.67673,-0.00012,0.01281,0.00655
0.53529,0.50545,-0.67674,0.00325,0.01516,0.00283
0.5353,0.5055,-0.67671,0.00189,0.01517,0.00437
0.53531,0.50553,-0.67668,0.00172,0.01451,0.00723
0.53532,0.50557,-0.67664,0.00295,0.01369,0.00289
0.53531,0.50559,-0.67662,0.00215,0.01498,0.00574
0.5353,0.50559,-0.67663,0.0034,0.01353,0.00523
0.53532,0.50557,-0.67663,0.0036,0.01481,0.00379
0.53534,0.50558,-0.67661,0.00052,0.01482,0.00327
0.53533,0.50555,-0.67664,-0.00251,0.01524,0.00598
0.5353,0.5055,-0.6767,-0.00045,0.01124,-0.00112
0.53523,0.50545,-0.67679,0.00658,0.01582,0.00446
0.53519,0.50539,-0.67687,0.00128,0.01219,0.00533
0.53519,0.50533,-0.67691,0.0022,0.01437,0.00547
0.53521,0.50526,-0.67695,0.00137,0.01336,0.0036
0.53526,0.50521,-0.67695,-0.00231,0.01043,0.00258
0.53523,0.50519,-0.67699,0.00129,0.01147,0.00154
0.53517,0.50523,-0.677,0.00526,0.01394,0.00035
0.5352,0.50528,-0.67694,0.00587,0.01317,0.0076
0.53535,0.50529,-0.67682,0.00152,0.01399,0.0088
0.53545,0.50531,-0.67672,0.00238,0.01208,0.00497
0.53542,0.50533,-0.67673,0.00013,0.01579,0.00501
0.53537,0.50526,-0.67682,0.00049,0.01117,0.00472
0.53527,0.50517,-0.67697,0.00243,0.01586,0.00178
0.53522,0.50506,-0.67709,0.00149,0.01226,0.00282
0.53523,0.50499,-0.67714,0.00152,0.01064,0.0043
0.53528,0.50495,-0.67712,0.00236,0.0098,0.00313
0.53527,0.50494,-0.67714,0.00359,0.0104,0.00638
0.53523,0.50496,-0.67716,0.00183,0.01307,0.00519
0.53514,0.50498,-0.67721,0.00058,0.01372,0.00561
0.53504,0.505,-0.67728,0.002,0.01219,0.00452
0.53497,0.505,-0.67733,0.00026,0.01261,0.00399
0.53493,0.50496,-0.6774,0.00303,0.01372,0.0031
0.53489,0.50493,-0.67745,0.00276,0.01303,0.00599
0.53483,0.50492,-0.6775,0.00029,0.014,0.00387
0.5348,0.50489,-0.67756,0.00245,0.01313,0.00438
0.53475,0.50484,-0.67763,0.00063,0.01446,0.00386
0.53472,0.50481,-0.67768,0.00346,0.01303,0.00414
0.53471,0.50477,-0.67771,0.00207,0.01291,0.00606
0.53471,0.50473,-0.67774,0.00214,0.01116,0.0045
0.5347,0.5047,-0.67778,0.00012,0.01136,0.00369
0.5347,0.50466,-0.67779,0.00236,0.01398,0.00438
0.53469,0.50463,-0.67783,0.0015,0.01368,0.00603
0.53465,0.50459,-0.67789,-5e-05,0.0119,0.00514
0.53462,0.50458,-0.67792,0.0033,0.01354,0.00278
0.53463,0.5046,-0.6779,0.00456,0.01311,0.00176
0.53465,0.50463,-0.67786,0.0045,0.01399,0.00641
0.53469,0.50466,-0.67781,0.00271,0.0115,0.00493
0.5347,0.50469,-0.67777,0.00372,0.01353,0.00692
0.53472,0.50468,-0.67777,0.00072,0.01517,0.00611
0.53467,0.50465,-0.67783,0.00426,0.01461,0.00466
0.53462,0.50459,-0.67792,-0.00196,0.01447,0.00426
0.53461,0.50453,-0.67797,0.0018,0.01268,0.00343
0.53465,0.50445,-0.678,0.00091,0.01142,0.00271
0.53466,0.50442,-0.67801,0.00243,0.01151,0.00394
0.53462,0.50446,-0.67801,0.00121,0.01286,0.00546
0.53458,0.50449,-0.67802,0.00025,0.01535,0.00514
0.53457,0.50453,-0.678,0.00228,0.01253,0.00555
0.53456,0.50454,-0.678,0.00219,0.01331,0.00376
0.53455,0.50455,-0.678,0.00316,0.01424,0.00438
0.53454,0.50456,-0.678,0.00352,0.01388,0.00492
0.53454,0.50454,-0.67801,-0.00052,0.01365,0.00199
0.53454,0.50453,-0.67802,0.00176,0.01492,0.00369
0.53453,0.50453,-0.67803,0.00267,0.0136,0.00579
0.53453,0.50452,-0.67804,0.0029,0.01341,0.00334
0.53451,0.5045,-0.67807,0.00481,0.01341,0.00394
0.53451,0.50449,-0.67807,0.00255,0.01417,0.00464
0.5345,0.50449,-0.67808,0.0022,0.01313,0.00493
0.53448,0.50447,-0.67811,0.00244,0.0117,0.0036
0.53449,0.50447,-0.67811,0.00239,0.0133,0.00429
0.53448,0.50447,-0.67811,0.00103,0.01529,0.00428
0.53445,0.50448,-0.67813,0.00092,0.01408,0.00462
0.53445,0.50451,-0.67811,0.00398,0.01504,0.00595
0.53448,0.50451,-0.67809,0.00214,0.01556,0.00585
0.53448,0.5045,-0.67809,0.00319,0.01313,0.0043
0.53448,0.50453,-0.67807,0.00292,0.01505,0.0015
0.53452,0.50455,-0.67802,0.00138,0.01361,0.00279
0.53455,0.50455,-0.678,0.00379,0.01332,0.00778
0.53459,0.50459,-0.67794,0.00288,0.01151,0.00164
0.53464,0.50463,-0.67787,0.00217,0.01565,0.00658
0.53465,0.50462,-0.67787,0.00213,0.01613,0.00415
0.53461,0.50456,-0.67794,0.0005,0.01502,0.00436
0.53459,0.5045,-0.678,0.0004,0.01288,0.00568
0.53459,0.50444,-0.67805,0.00039,0.01294,0.00573
0.53462,0.50442,-0.67804,0.00269,0.01197,0.00502
0.53463,0.50445,-0.67801,0.00268,0.01094,0.00401
0.53464,0.5045,-0.67797,0.00118,0.01461,0.00437
0.53464,0.50455,-0.67793,0.00302,0.01295,0.00442
0.53462,0.50458,-0.67792,0.00148,0.01468,0.00251
0.53462,0.5046,-0.67791,0.00228,0.01461,0.00555
0.53462,0.50459,-0.67792,-0.00026,0.01227,0.00355
0.53465,0.50458,-0.6779,0.00333,0.0152,0.00362
0.53461,0.50455,-0.67796,0.00426,0.00885,0.00217
0.53456,0.50452,-0.67801,0.00143,0.01364,0.00209
0.53453,0.50455,-0.67802,0.00426,0.01218,0.00407
0.53451,0.50455,-0.67802,0.00324,0.01351,0.00409
0.53453,0.50457,-0.678,3e-05,0.01229,0.00489
0.53454,0.50458,-0.67798,0.00081,0.01281,0.00385
0.53453,0.50461,-0.67797,0.0047,0.01354,0.00594
0.53453,0.5046,-0.67797,0.00254,0.01215,0.00506
0.53456,0.50461,-0.67795,0.00236,0.01222,0.00516
0.53457,0.50461,-0.67794,0.00106,0.01196,0.00259
0.53454,0.50463,-0.67794,0.00241,0.01374,0.00153
0.53455,0.50466,-0.67792,0.00168,0.01228,0.00527
0.53457,0.50467,-0.67789,0.00117,0.01254,0.00499
0.53458,0.50467,-0.67789,0.00284,0.01393,0.00253
0.53453,0.50467,-0.67792,0.00619,0.01236,0.00307
0.53452,0.50467,-0.67793,0.00702,0.01208,0.00523
0.53455,0.50471,-0.67788,0.00171,0.01108,0.00553
0.53449,0.50478,-0.67788,0.00242,0.01297,0.00393
0.53445,0.50483,-0.67787,0.0017,0.01253,0.00503
0.53446,0.50483,-0.67786,-0.00139,0.01493,0.00527
0.53446,0.50476,-0.67791,0.00245,0.0156,0.00334
0.53442,0.5047,-0.67799,0.00045,0.01012,0.00185
0.5344,0.50469,-0.67801,0.00091,0.01167,0.00353
0.53445,0.50472,-0.67796,0.0004,0.01135,0.00512
0.5345,0.50477,-0.67788,0.00122,0.01081,0.00499
0.5345,0.50485,-0.67782,0.00081,0.01207,0.00375
0.53449,0.5049,-0.67779,0.00057,0.0125,0.00287
0.53448,0.50493,-0.67777,0.00454,0.01403,0.00541
0.53451,0.50495,-0.67774,0.00549,0.01263,0.00569
0.53452,0.50499,-0.67769,0.00233,0.01098,0.00368
0.53454,0.50504,-0.67765,0.00137,0.01394,0.0029
0.53455,0.50504,-0.67763,0.00241,0.01327,0.00565
0.53454,0.50509,-0.67761,0.00367,0.01487,0.00595
0.53454,0.50511,-0.67759,0.00311,0.01149,0.00459
0.53452,0.50516,-0.67757,0.00251,0.01315,0.0065
0.53453,0.5052,-0.67753,0.00061,0.01172,0.00528
0.53453,0.50524,-0.6775,0.00151,0.01305,0.00376
0.53454,0.50531,-0.67744,0.00249,0.01146,0.00374
0.53452,0.50534,-0.67743,0.00152,0.01219,0.00447
0.53451,0.50538,-0.67742,-0.00076,0.01431,0.0033
0.53447,0.50539,-0.67744,0.00113,0.01177,0.00401
0.53445,0.50541,-0.67743,0.00128,0.01148,0.00435
0.53448,0.50549,-0.67736,0.001,0.01284,0.00394
0.53448,0.50555,-0.6773,0.00194,0.01093,0.00369
0.53442,0.50565,-0.67728,0.00345,0.01155,0.00251
0.53435,0.50574,-0.67727,0.00653,0.01289,0.00365
0.53438,0.50577,-0.67723,0.00173,0.0139,0.00999
0.53433,0.5058,-0.67725,0.00275,0.01022,0.00613
0.53427,0.50587,-0.67723,0.00319,0.01226,0.00249
0.53423,0.50595,-0.67721,0.00158,0.01099,0.00419
0.53419,0.50601,-0.67719,0.00412,0.01488,0.00361
0.53421,0.50605,-0.67715,0.00249,0.01641,0.00308
0.53428,0.50604,-0.67711,0.00514,0.01717,0.00114
0.53444,0.50592,-0.67706,0.00028,0.01954,1e-05
0.53459,0.50571,-0.67711,-0.00111,0.01684,-0.00093
0.5347,0.50547,-0.6772,-0.00293,0.01298,0.00156
0.53475,0.50527,-0.6773,0.00343,0.01217,0.00239
0.53482,0.50513,-0.67736,-0.00204,0.01098,0.00281
0.53492,0.50501,-0.67736,-0.00242,0.01051,0.00385
0.53505,0.50495,-0.67731,-0.00261,0.00698,0.00172
0.53515,0.50496,-0.67722,-0.00173,0.00629,0.00298
0.53526,0.50506,-0.67706,-3e-05,0.00602,0.00679
0.53535,0.50522,-0.67687,0.00509,0.00855,0.00533
0.53533,0.5054,-0.67674,0.00306,0.0092,0.00867
0.53523,0.50562,-0.67666,0.00922,0.01009,0.01187
0.53506,0.50587,-0.67661,0.01028,0.0135,0.00922
0.53485,0.50607,-0.67663,0.01091,0.01665,0.00706
0.53461,0.50626,-0.67668,0.00667,0.01665,0.00508
0.53439,0.50639,-0.67676,0.00521,0.01522,0.0033
0.53422,0.50646,-0.67684,0.00219,0.01628,0.00162
0.53409,0.50648,-0.67692,-0.00169,0.01889,0.0029
0.53408,0.50646,-0.67694,-0.00309,0.01803,0.00056
0.53411,0.50642,-0.67695,-0.00579,0.01567,-0.00176
0.53413,0.50635,-0.67699,-0.00108,0.01306,-0.00181
0.53414,0.50631,-0.67701,0.00088,0.01014,-0.00248
0.53417,0.50628,-0.67701,0.0013,0.01292,0.00074
0.53423,0.50629,-0.67695,0.0009,0.01324,0.00465
0.53434,0.5063,-0.67686,-0.00113,0.01464,0.00322
0.53444,0.5062,-0.67686,-0.00188,0.01691,0.00195
0.53456,0.50604,-0.67688,-0.00475,0.01502,0.0018
0.53471,0.50583,-0.67692,-0.00217,0.01387,0.00063
0.53489,0.50566,-0.6769,-0.00081,0.01136,0.00251
0.53514,0.50559,-0.67676,0.00481,0.00773,0.00768
0.53533,0.50556,-0.67663,0.00507,0.00923,0.01025
0.53542,0.50557,-0.67655,0.0061,0.00727,0.00749
0.53542,0.50564,-0.67649,0.00854,0.0114,0.0103
0.53532,0.50574,-0.6765,0.00927,0.00938,0.00685
0.53521,0.50584,-0.67652,0.00691,0.0102,0.00977
0.53505,0.50593,-0.67657,0.00539,0.01523,0.00593
0.53487,0.50603,-0.67664,0.00219,0.01325,0.0028
0.53469,0.50609,-0.67675,0.00073,0.01259,0.00249
0.53449,0.50608,-0.6769,9e-05,0.01552,0.00233
0.53432,0.50607,-0.67705,0.00063,0.01334,0.00223
0.53428,0.50607,-0.67708,-0.0012,0.01154,0.00107
0.53431,0.50608,-0.67705,-0.00197,0.01084,0.00035
0.53431,0.50608,-0.67704,-0.00424,0.01189,-0.00101
0.53429,0.50607,-0.67707,-0.00165,0.01057,0.00154
0.53428,0.50607,-0.67708,-0.00054,0.01432,0.00063
0.5343,0.50606,-0.67707,5e-05,0.00943,0.00325
0.53432,0.50608,-0.67704,0.00234,0.01176,0.00378
0.53433,0.50612,-0.677,0.0054,0.01463,0.00038
0.53434,0.50617,-0.67696,0.00408,0.01304,0.00563
0.53436,0.50617,-0.67694,0.0051,0.01463,0.00762
0.53441,0.50613,-0.67694,0.007,0.01577,0.00741
0.53447,0.50611,-0.6769,0.00545,0.0149,0.00357
0.53454,0.50609,-0.67686,0.00422,0.01699,0.00367
0.53459,0.50597,-0.6769,0.00119,0.01384,0.00158
0.53462,0.50581,-0.67701,0.00118,0.01128,0.00104
0.53462,0.50565,-0.67712,-0.00017,0.01111,0.00367
0.53465,0.50552,-0.6772,0.00098,0.00938,0.00169
0.53469,0.50544,-0.67722,0.00028,0.01044,0.00472
0.53471,0.50539,-0.67725,0.00116,0.00749,0.00515
0.53467,0.50543,-0.67725,0.00183,0.0108,0.0057
0.53461,0.50546,-0.67727,0.00047,0.01008,0.00293
0.53456,0.50551,-0.67727,0.00354,0.01184,0.00244
0.53454,0.50558,-0.67724,0.00176,0.01246,0.00471
0.53452,0.50564,-0.67721,0.00259,0.01257,0.00561
0.53453,0.50568,-0.67717,0.00272,0.01397,0.0048
0.53451,0.50571,-0.67717,0.00247,0.01309,0.00394
0.53448,0.5057,-0.6772,0.00419,0.01313,0.00335
0.53447,0.50568,-0.67722,0.0033,0.01409,0.00391
0.53448,0.50567,-0.67722,0.00376,0.01227,0.00441
0.53447,0.50564,-0.67725,0.00111,0.01321,0.003
0.53446,0.50559,-0.6773,-0.0011,0.0131,0.00312
0.53443,0.50556,-0.67734,0.00152,0.01375,0.00165
0.53437,0.50553,-0.67741,0.00262,0.01351,0.00457
0.53432,0.5055,-0.67747,0.00114,0.01099,0.00509
0.5343,0.5055,-0.67749,0.00095,0.00996,0.00253
0.53428,0.50552,-0.67749,0.00132,0.00959,0.00299
0.53426,0.50554,-0.67749,-0.00025,0.01463,0.00232
0.53424,0.50556,-0.67749,0.0034,0.01178,0.00378
0.5342,0.50562,-0.67747,0.00329,0.01251,0.00036
0.53421,0.50565,-0.67745,0.004,0.0139,0.0035
0.53425,0.50566,-0.67741,0.00202,0.01177,0.00463
0.5343,0.50567,-0.67736,0.00199,0.01272,0.00338
0.53432,0.50567,-0.67734,0.00204,0.01262,0.00367
0.53432,0.50568,-0.67734,0.00308,0.01384,0.00301
0.53428,0.50561,-0.67742,0.00208,0.01403,0.00485
0.53424,0.5055,-0.67754,0.00141,0.01177,0.00235
0.53424,0.50539,-0.67762,0.00143,0.01098,0.004
0.53426,0.50532,-0.67766,0.00117,0.00808,0.00201
0.53429,0.50531,-0.67763,0.00056,0.00824,0.00184
0.53432,0.50534,-0.67759,0.0019,0.01128,0.0041
0.53433,0.50539,-0.67755,0.00362,0.01291,0.00427
0.53432,0.50546,-0.67751,0.00271,0.01165,0.00387
0.53437,0.5055,-0.67743,0.00077,0.01367,0.00455
0.53434,0.50551,-0.67745,0.00532,0.00893,-0.00269
0.53433,0.50557,-0.67741,0.00251,0.01161,0.00305
0.53433,0.50554,-0.67744,0.00153,0.01619,0.00811
0.53438,0.50553,-0.6774,0.00289,0.01287,0.00105
0.53441,0.50553,-0.67738,0.00133,0.01309,0.00601
0.53438,0.50552,-0.67741,0.00444,0.01406,0.00438
0.53436,0.50552,-0.67743,0.00352,0.01264,0.00439
0.53436,0.50549,-0.67745,0.00229,0.01372,0.00525
0.53434,0.50546,-0.67748,0.00184,0.01257,0.00237
0.53434,0.50545,-0.6775,0.0016,0.01163,0.00346
0.53434,0.50546,-0.67749,0.00121,0.0127,0.00149
0.53437,0.50548,-0.67745,0.00216,0.01244,0.00458
0.53436,0.50545,-0.67748,-0.00064,0.01188,0.00824
0.53436,0.50547,-0.67746,0.00299,0.01599,0.00112
0.53432,0.50554,-0.67745,0.00351,0.01378,0.00289
0.53431,0.50556,-0.67744,0.00102,0.01055,0.0051
0.53435,0.50558,-0.67739,0.00307,0.01319,0.00443
0.5344,0.50562,-0.67732,0.00155,0.01231,0.00276
0.53443,0.50565,-0.67727,0.00199,0.0151,0.00405
0.53446,0.50564,-0.67726,0.00074,0.01343,0.00293
0.53446,0.50559,-0.6773,-0.0006,0.01353,0.00256
0.53442,0.50552,-0.67738,0.00257,0.01092,0.00177
0.5344,0.5055,-0.67741,0.00262,0.01216,0.00441
0.53443,0.50546,-0.67742,0.00143,0.01066,0.00591
0.53443,0.50547,-0.6774,0.00122,0.01113,0.00164
0.53443,0.50552,-0.67737,0.00238,0.01041,0.0026
0.5344,0.5056,-0.67733,0.00245,0.01067,0.00315
0.53438,0.50567,-0.6773,0.00081,0.01234,0.00351
0.53436,0.50569,-0.67729,0.00082,0.01231,0.0035
0.53437,0.5057,-0.67728,0.0023,0.01218,0.00281
0.53438,0.50579,-0.67721,0.00258,0.01312,0.00444
0.53441,0.50582,-0.67717,-0.00096,0.01299,0.00421
0.53443,0.50581,-0.67715,0.00091,0.01186,0.00386
0.53443,0.50582,-0.67714,0.00066,0.012,0.00175
0.5344,0.50584,-0.67716,0.00324,0.01009,0.00322
0.53442,0.50587,-0.67712,0.0017,0.01147,0.00291
0.53444,0.50586,-0.67711,0.00461,0.01488,0.00458
0.53446,0.50587,-0.67709,4e-05,0.01024,0.00218
0.53447,0.50587,-0.67708,0.00324,0.01242,0.00405
0.53447,0.50589,-0.67707,0.00276,0.0106,0.00188
0.53447,0.50593,-0.67703,0.00145,0.01082,0.00609
0.53453,0.50598,-0.67695,0.0002,0.01315,0.0014
0.53455,0.50606,-0.67688,0.00028,0.01073,0.00045
0.53449,0.50608,-0.6769,0.00478,0.01406,0.00494
0.53446,0.5061,-0.67691,0.00463,0.00875,0.00182
0.53448,0.50616,-0.67686,0.00641,0.01531,0.0055
0.53448,0.50624,-0.67679,0.00437,0.01188,0.00354
0.53449,0.50634,-0.67671,0.00042,0.01099,0.00267
0.53449,0.50636,-0.6767,-0.00051,0.01082,0.0023
0.53444,0.50635,-0.67674,-0.00171,0.01242,0.0006
0.53442,0.50633,-0.67677,-0.00018,0.01045,0.00062
0.53449,0.50633,-0.67672,0.00138,0.0083,0.00365
0.53459,0.50636,-0.67662,0.00119,0.01142,0.00498
0.53466,0.50641,-0.67652,0.00351,0.0104,0.00413
0.53466,0.50649,-0.67647,0.00065,0.01247,0.00473
0.53463,0.50657,-0.67644,0.00195,0.01026,0.00143
0.53461,0.50664,-0.67639,0.00467,0.01088,0.00165
0.5346,0.50669,-0.67636,0.00321,0.01105,0.00294
0.53464,0.50673,-0.6763,0.00235,0.01287,0.00241
0.53468,0.50677,-0.67624,0.0033,0.01065,0.00345
0.5347,0.5068,-0.6762,0.00226,0.01453,0.00433
0.5347,0.50682,-0.67619,0.00146,0.01412,0.0039
0.53471,0.50684,-0.67617,0.00217,0.0121,0.00426
0.53471,0.50682,-0.67618,0.00284,0.01032,0.00337
0.53472,0.50682,-0.67617,0.00129,0.01011,0.00271
0.53471,0.50684,-0.67616,0.00135,0.00894,0.00348
0.5347,0.50685,-0.67616,-0.00201,0.01192,0.00441
0.53474,0.50686,-0.67613,-0.00033,0.01028,0.00178
0.53477,0.50688,-0.67609,0.00187,0.0116,0.00238
0.53479,0.50693,-0.67604,0.00464,0.01428,-0.00013
0.53478,0.507,-0.67599,0.0034,0.00976,0.00764
0.53479,0.50699,-0.67599,0.00258,0.01079,0.00364
0.5348,0.50701,-0.67596,0.00388,0.01342,0.00542
0.53477,0.50702,-0.67598,0.00348,0.01466,0.00513
0.53476,0.50701,-0.676,-0.00023,0.01308,0.00022
0.53474,0.50696,-0.67605,-0.00109,0.01082,-0.00032
0.53473,0.5069,-0.6761,0.00169,0.01077,-0.00041
0.53474,0.50687,-0.67612,0.00191,0.01024,0.00468
0.53476,0.50685,-0.67612,0.00194,0.00827,0.0031
0.53475,0.50688,-0.6761,0.00131,0.0112,0.00183
0.53473,0.50693,-0.67608,0.00186,0.01103,0.00355
0.53469,0.50695,-0.6761,0.00272,0.01169,0.00257
0.53462,0.50695,-0.67615,0.00101,0.01296,0.00147
0.53461,0.50696,-0.67616,-0.00069,0.01195,-5e-05
0.53463,0.50695,-0.67614,0.00159,0.01156,0.00019
0.53466,0.50696,-0.67611,0.00052,0.0109,0.00252
0.53469,0.50697,-0.67609,-0.0006,0.01102,0.00104
0.53468,0.50697,-0.6761,0.00381,0.01225,0.00251
0.53469,0.50697,-0.67608,0.00295,0.01347,0.00385
0.53472,0.50696,-0.67607,0.0023,0.01365,0.00329
0.53475,0.50694,-0.67606,0.00078,0.01073,0.00075
0.53476,0.50691,-0.67607,9e-05,0.01053,0.00361
0.53475,0.50687,-0.67611,0.00021,0.00935,0.00345
0.53473,0.50687,-0.67612,0.00244,0.01068,0.00251
0.53479,0.50688,-0.67607,0.00261,0.01329,0.00194
0.53481,0.50688,-0.67606,0.0023,0.01177,0.00389
0.53477,0.50687,-0.6761,0.00329,0.01114,9e-05
0.53472,0.5069,-0.67611,0.00577,0.01169,0.00651
0.53475,0.50692,-0.67608,0.00436,0.01214,0.00544
0.53478,0.50697,-0.67601,0.00016,0.01215,0.00641
0.53479,0.50703,-0.67596,0.00158,0.01291,0.00539
0.53478,0.50707,-0.67594,-0.00113,0.01368,0.00097
0.53479,0.50706,-0.67594,-0.00227,0.01305,-0.00092
0.53483,0.50704,-0.67592,-0.00097,0.01147,-0.00317
0.53492,0.50705,-0.67584,-0.00019,0.00946,0.00039
0.53503,0.50704,-0.67576,0.00107,0.00873,0.00301
0.53509,0.50705,-0.67571,0.00411,0.01074,0.00592
0.53506,0.50706,-0.67572,0.00354,0.01234,0.00592
0.53497,0.50707,-0.67579,0.00337,0.01307,0.00396
0.53486,0.50706,-0.67588,0.00319,0.01182,0.00507
0.53479,0.50702,-0.67596,0.00229,0.01173,0.00464
0.53479,0.507,-0.67598,0.0003,0.01177,0.00234
0.53481,0.50699,-0.67597,5e-05,0.0115,0.00228
0.53484,0.50699,-0.67595,-0.00134,0.01377,0.00198
0.53486,0.50698,-0.67594,0.0017,0.01283,0.00352
0.53487,0.50694,-0.67597,0.00093,0.0104,0.00397
0.53485,0.5069,-0.67601,0.00196,0.0123,0.00051
0.53484,0.50689,-0.67602,0.00132,0.01275,0.00338
0.53487,0.50684,-0.67604,-0.00162,0.01009,0.00173
0.53488,0.5068,-0.67606,0.00035,0.01055,0.00188
0.53488,0.50678,-0.67608,0.00061,0.00947,0.0024
0.53486,0.50681,-0.67607,0.00228,0.00902,0.00305
0.53485,0.50682,-0.67607,0.00403,0.00934,0.00752
0.53485,0.50681,-0.67608,0.00115,0.01188,0.00311
0.5348,0.50684,-0.6761,0.00483,0.01289,0.00293
0.53478,0.50687,-0.67609,0.00525,0.01047,0.00322
0.53479,0.50689,-0.67606,0.00428,0.01108,0.0057
0.53479,0.50691,-0.67605,0.00345,0.00975,0.00663
0.53481,0.50696,-0.67599,0.00233,0.01212,0.00103
0.53485,0.507,-0.67594,0.00075,0.01566,0.00177
0.5349,0.50696,-0.67592,-0.00042,0.01515,0.00255
0.53494,0.50685,-0.67597,0.0,0.01436,0.00042
0.53495,0.50669,-0.67609,-0.00015,0.00973,0.00083
0.53502,0.50655,-0.67613,-0.00141,0.01064,0.00295
0.53505,0.50648,-0.67617,0.0013,0.00851,0.00121
0.53512,0.50648,-0.67611,0.00128,0.00875,0.00464
0.53519,0.50655,-0.676,0.00226,0.0095,0.0064
0.53526,0.50665,-0.67587,0.00322,0.01169,0.0016
0.5353,0.50674,-0.67577,0.00584,0.01232,0.00361
0.53534,0.5068,-0.6757,0.00449,0.00978,0.0057
0.53534,0.50687,-0.67564,0.00361,0.01202,0.00526
0.53534,0.50692,-0.67561,0.00495,0.01211,0.00349
0.53532,0.50694,-0.67561,0.00391,0.01328,0.00472
0.53531,0.50693,-0.67562,0.00136,0.01316,0.00321
0.53527,0.50692,-0.67567,0.00196,0.01185,0.00147
0.53522,0.50689,-0.67572,0.00106,0.01192,0.00164
0.53518,0.50688,-0.67576,0.00057,0.01063,0.00095
0.53512,0.50689,-0.67581,-0.00048,0.01016,0.00219
0.53506,0.50687,-0.67586,-0.00081,0.0104,0.00188
0.53505,0.50689,-0.67585,0.0005,0.01102,0.00279
0.53504,0.50688,-0.67587,-0.00057,0.01173,0.00163
0.53504,0.50687,-0.67588,-0.00211,0.01135,0.00273
0.53502,0.50687,-0.67589,0.00242,0.01165,0.00176
0.535,0.50686,-0.67592,0.00615,0.01074,0.00245
0.53499,0.50686,-0.67593,0.00325,0.00901,0.00462
0.53501,0.50691,-0.67587,0.00477,0.0141,0.00453
0.53504,0.50697,-0.6758,0.00176,0.0128,0.0069
0.53506,0.507,-0.67577,0.00321,0.01272,0.00447
0.53504,0.50696,-0.67581,0.00175,0.01344,0.00267
0.53498,0.50687,-0.67593,0.00303,0.01052,0.00289
0.53492,0.50679,-0.67603,0.0003,0.00929,-0.00014
0.53494,0.50675,-0.67605,0.00167,0.01015,0.0012
0.53497,0.50673,-0.67604,0.00146,0.01031,0.00364
0.53495,0.50675,-0.67605,0.0014,0.00713,0.00237
0.53489,0.50675,-0.67609,0.00147,0.01131,0.00424
0.53483,0.50677,-0.67612,0.00274,0.00884,0.00251
0.53477,0.50678,-0.67616,0.00255,0.00999,0.00398
0.53475,0.50679,-0.67617,0.00045,0.00992,0.00335
0.53475,0.50678,-0.67617,0.00181,0.00994,0.00216
0.53472,0.50675,-0.67622,0.00348,0.01132,0.00154
0.53466,0.50671,-0.67629,0.00074,0.01157,0.00178
0.53464,0.50667,-0.67635,-0.0009,0.01119,0.00586
0.53463,0.50664,-0.67638,0.00083,0.01202,0.00313
0.53465,0.50664,-0.67636,0.00118,0.01182,0.00418
0.53467,0.50665,-0.67634,0.00189,0.0114,0.00181
0.5347,0.50666,-0.67631,0.00157,0.01312,0.00193
0.5347,0.50662,-0.67634,0.00328,0.01023,0.00263
0.53471,0.50665,-0.67631,0.00055,0.01045,0.00268
0.53469,0.50665,-0.67632,0.00195,0.01137,0.0037
0.53468,0.50666,-0.67632,0.00107,0.0093,0.00217
0.53467,0.50669,-0.67631,-0.00071,0.00953,0.0037
0.53464,0.50672,-0.67631,-0.00159,0.01036,0.00052
0.53457,0.50677,-0.67632,0.00524,0.00888,0.00043
0.53457,0.50685,-0.67627,0.0042,0.00982,0.00508
0.53457,0.50688,-0.67625,0.00457,0.01206,0.00553
0.53456,0.50695,-0.6762,0.00276,0.01478,0.00283
0.53455,0.50702,-0.67616,0.0027,0.01474,0.0034
0.53456,0.50702,-0.67615,0.00084,0.01386,0.00336
0.53455,0.50696,-0.6762,0.00048,0.01039,0.00126
0.53455,0.50689,-0.67625,0.00121,0.00573,-0.00029
0.53458,0.50686,-0.67625,0.00277,0.00815,0.0023
0.53464,0.50686,-0.67621,-0.0005,0.00517,0.00397
0.53465,0.5069,-0.67616,0.00153,0.01049,0.00375
0.53464,0.50697,-0.67612,0.00372,0.01128,0.0046
0.53461,0.50702,-0.67611,0.00404,0.01243,0.00338
0.53461,0.50704,-0.67609,0.00296,0.01125,0.00215
0.53461,0.50707,-0.67607,0.00422,0.01167,0.00242
0.53461,0.50713,-0.67603,0.00163,0.01103,0.00331
0.5346,0.50716,-0.67601,0.00189,0.01163,0.00488
0.5346,0.5072,-0.67599,0.0026,0.01226,0.00251
0.5346,0.50723,-0.67596,0.00126,0.0116,0.00126
0.53462,0.50726,-0.67592,0.00317,0.00923,0.00206
0.53466,0.5073,-0.67586,0.00137,0.01229,0.00324
0.53465,0.50734,-0.67583,0.00133,0.01012,0.00295
0.53465,0.50736,-0.67582,0.0012,0.01034,0.00398
0.53464,0.50737,-0.67582,0.00049,0.01173,0.00378
0.53462,0.50738,-0.67583,0.0031,0.01006,0.0031
0.53464,0.50741,-0.67579,0.00266,0.0107,0.00341
0.53467,0.50744,-0.67574,-0.00235,0.01074,0.00161
0.53467,0.50745,-0.67574,0.00125,0.01138,0.00223
0.5346,0.50748,-0.67577,0.00594,0.00791,0.00141
0.5346,0.50753,-0.67573,0.00654,0.0111,0.00437
0.5346,0.50759,-0.67569,0.004,0.01216,0.00479
0.53463,0.50763,-0.67563,0.00116,0.01193,0.00423
0.53466,0.50767,-0.67558,0.0017,0.0119,0.00197
0.53468,0.50765,-0.67558,-0.00081,0.01254,0.00016
0.53468,0.50759,-0.67563,-0.00123,0.01229,0.00056
0.53467,0.50754,-0.67568,0.00107,0.00937,0.00255
0.5347,0.5075,-0.67568,0.0017,0.00957,0.00432
0.53474,0.5075,-0.67564,0.00037,0.0083,0.0063
0.53475,0.50752,-0.67562,0.00129,0.00844,0.00515
0.53473,0.50755,-0.67561,0.00404,0.01155,0.00426
0.53468,0.50754,-0.67566,0.0036,0.011,0.00267
0.53466,0.50755,-0.67567,0.00343,0.01267,0.00319
0.53465,0.50754,-0.67569,0.00417,0.00936,0.00217
0.53464,0.50754,-0.67569,0.00106,0.0108,0.00465
0.53466,0.50755,-0.67567,0.00285,0.01113,0.00468
0.53465,0.50755,-0.67568,0.00446,0.01141,0.0031
0.53464,0.50754,-0.67569,0.0015,0.0124,0.00188
0.53462,0.50752,-0.67573,0.00034,0.01147,0.00443
0.5346,0.50749,-0.67576,0.0015,0.01167,0.00338
0.53461,0.50749,-0.67575,-0.00022,0.01024,0.00025
0.53461,0.50745,-0.67578,0.0014,0.0131,0.0056
0.53459,0.50743,-0.67582,0.00262,0.0116,0.00158
0.53455,0.50744,-0.67584,0.00032,0.01219,0.00217
0.53451,0.50741,-0.67589,0.00259,0.0105,0.00035
0.5345,0.50741,-0.6759,0.00232,0.0102,0.00553
0.53453,0.50741,-0.67587,0.00177,0.01054,0.00232
0.53453,0.50743,-0.67586,0.00435,0.01075,0.00255
0.53451,0.50745,-0.67586,0.00618,0.00981,0.00316
0.53454,0.50748,-0.67581,0.00467,0.01059,0.00542
0.53457,0.50751,-0.67577,0.00513,0.01036,0.00393
0.5346,0.50755,-0.67571,-0.00066,0.01386,0.00297
0.53462,0.50755,-0.6757,-0.00149,0.00938,0.00158
0.53461,0.5075,-0.67575,-0.00069,0.00993,0.00081
0.53461,0.50745,-0.67578,-0.00022,0.01045,0.00093
0.53463,0.50739,-0.67581,0.0006,0.00929,0.00189
0.53467,0.50735,-0.67581,0.00296,0.0089,0.00317
0.5347,0.50737,-0.67578,0.00153,0.0101,0.00456
0.53465,0.5074,-0.67579,0.00148,0.01064,0.00439
0.5346,0.50742,-0.67581,0.00458,0.01268,0.00301
0.53459,0.50747,-0.67579,0.00413,0.01151,0.0046
0.53459,0.50745,-0.6758,0.00223,0.01088,0.0021
0.53457,0.50744,-0.67583,0.00393,0.00977,0.00279
0.53456,0.5075,-0.67579,0.0026,0.01136,0.00027
0.53455,0.50751,-0.67579,0.00095,0.01077,0.00356
0.53456,0.50749,-0.6758,0.00062,0.01207,0.00233
0.53452,0.50749,-0.67583,0.00462,0.00945,0.00223
0.53446,0.50755,-0.67583,0.00183,0.0099,0.00488
0.53441,0.50761,-0.67582,0.00129,0.01201,0.00379
0.53436,0.50764,-0.67584,0.00247,0.01367,0.00432
0.53428,0.50768,-0.67587,0.00332,0.01267,-0.00116
0.53422,0.50771,-0.6759,0.00255,0.01394,0.00234
0.53421,0.50769,-0.67592,0.00059,0.01207,0.00243
0.53415,0.5077,-0.67596,0.00145,0.00857,0.00267
0.53409,0.50771,-0.676,0.00129,0.00972,0.00184
0.5341,0.50768,-0.67602,-0.00138,0.01292,0.00132
0.53414,0.50764,-0.67601,0.00048,0.00609,0.00281
0.53415,0.50761,-0.67603,0.00112,0.00802,0.00408
0.53412,0.50762,-0.67604,0.00401,0.00875,0.0045
0.53412,0.50777,-0.67593,0.00563,0.01041,0.00398
0.53418,0.50797,-0.67574,0.00562,0.01072,0.00125
0.53419,0.50817,-0.67558,0.00485,0.01353,0.00141
0.53417,0.50823,-0.67554,-0.00161,0.01511,0.00246
0.53411,0.50817,-0.67564,0.00159,0.01539,-0.00031
0.53406,0.50804,-0.67578,0.00235,0.01451,0.00105
0.53406,0.50785,-0.67591,0.0008,0.01115,0.00311
0.53413,0.50766,-0.676,0.00128,0.00768,0.0032
0.53419,0.50755,-0.67604,0.00319,0.00723,-0.0008
0.53425,0.50755,-0.67599,0.00207,0.00749,0.00018
0.53428,0.50758,-0.67595,7e-05,0.01014,0.00427
0.53427,0.50755,-0.67598,0.00428,0.0101,0.00082
0.53425,0.50759,-0.67596,0.0015,0.01304,0.00305
0.53422,0.50754,-0.67603,0.00356,0.01015,0.00522
0.5342,0.50754,-0.67604,0.00578,0.00909,0.0021
0.53421,0.50761,-0.67598,0.00259,0.01206,0.00426
0.53422,0.50759,-0.67599,0.00287,0.01113,0.00435
0.5342,0.50759,-0.67601,0.00355,0.01221,0.00552
0.53415,0.50756,-0.67606,0.0036,0.00892,0.00347
0.53411,0.50762,-0.67606,0.00374,0.0103,0.0006
0.53409,0.50763,-0.67606,0.00153,0.01178,0.00196
0.53407,0.50761,-0.67609,0.00356,0.01128,0.00206
0.53407,0.50768,-0.67605,0.00315,0.00992,0.00086
0.53407,0.50767,-0.67604,0.00295,0.01117,0.00188
0.53405,0.50763,-0.67609,0.00234,0.01218,0.003
0.53402,0.50758,-0.67615,0.00198,0.00897,0.00109
0.53399,0.50757,-0.67618,-0.00015,0.00973,-0.00129
0.53397,0.50757,-0.6762,0.00308,0.01098,0.00226
0.53396,0.50757,-0.6762,0.00295,0.0103,0.00151
0.53396,0.50757,-0.6762,0.00273,0.00976,-0.00033
0.53397,0.50759,-0.67618,0.00515,0.01012,0.00412
0.534,0.50763,-0.67613,0.00276,0.01214,0.00397
0.53402,0.50766,-0.67609,0.00402,0.01305,0.0015
0.53406,0.50761,-0.67611,-0.00032,0.01617,0.00116
0.53406,0.50749,-0.67619,-0.0002,0.01584,0.0025
0.53407,0.50733,-0.6763,0.00093,0.01165,0.00124
0.53412,0.50715,-0.6764,0.00188,0.00879,0.00112
0.53419,0.50701,-0.67644,0.00063,0.00935,0.00187
0.53423,0.50695,-0.67646,0.00232,0.00792,0.00276
0.53425,0.50692,-0.67647,0.00336,0.0085,0.00273
0.53426,0.50691,-0.67646,0.00362,0.00893,0.0046
0.53426,0.50691,-0.67646,0.00271,0.00971,0.00586
0.53424,0.50691,-0.67648,0.00321,0.00975,0.00259
0.53421,0.50694,-0.67649,0.00365,0.00898,0.00477
0.53418,0.50697,-0.67648,0.00423,0.01166,0.00273
0.53416,0.507,-0.67648,0.00312,0.01319,0.00389
0.53414,0.50702,-0.67648,0.00304,0.01041,0.00408
0.53413,0.50704,-0.67647,0.00039,0.01039,0.00162
0.5341,0.50707,-0.67648,0.00161,0.01002,0.00039
0.53409,0.5071,-0.67646,0.00237,0.01228,0.00298
0.53407,0.50709,-0.67648,0.00285,0.01065,0.0024
0.53401,0.50705,-0.67656,-0.00081,0.00711,0.00103
0.53397,0.50702,-0.67661,0.00369,0.01215,0.00179
0.53396,0.507,-0.67663,0.00472,0.01322,0.00199
0.53398,0.507,-0.67662,0.0002,0.00877,0.00139
0.53399,0.50699,-0.67662,0.00193,0.01005,0.00055
0.53398,0.50698,-0.67663,0.00078,0.00962,0.00378
0.53397,0.507,-0.67663,0.00061,0.00853,0.00282
0.53397,0.50704,-0.6766,0.00267,0.01231,0.00195
0.53397,0.5071,-0.67655,0.00387,0.01022,0.0022
0.53397,0.50714,-0.67652,0.0031,0.011,0.00257
0.534,0.50718,-0.67647,0.00441,0.00937,0.00342
0.53403,0.50723,-0.67641,0.00288,0.01093,0.00319
0.53404,0.50728,-0.67637,0.00251,0.01491,0.00231
0.53405,0.50726,-0.67637,0.00103,0.01033,0.00322
0.53404,0.50723,-0.6764,0.00288,0.01226,0.00077
0.53399,0.50713,-0.67651,0.00071,0.01135,0.00139
0.53399,0.50701,-0.67661,0.00123,0.00772,0.00112
0.53403,0.50694,-0.67662,-0.0008,0.00862,0.00327
0.53407,0.50691,-0.67661,0.00079,0.00826,0.00207
0.53408,0.50692,-0.6766,0.00071,0.00932,7e-05
0.53408,0.50694,-0.67659,0.00299,0.01032,0.00153
0.53408,0.50696,-0.67657,0.00199,0.00876,0.00242
0.53413,0.50695,-0.67654,0.00323,0.01165,0.00206
0.53415,0.50696,-0.67651,0.00137,0.00897,0.00349
0.53415,0.50699,-0.67649,0.00154,0.01086,0.00131
0.53417,0.50702,-0.67645,0.00216,0.0123,0.005
0.53421,0.50705,-0.6764,0.00033,0.01259,0.00147
0.53426,0.50707,-0.67635,0.00328,0.01121,0.004
0.5343,0.50709,-0.6763,0.00179,0.01,0.00345
0.53434,0.50708,-0.67627,0.00294,0.01065,0.00402
0.53437,0.50709,-0.67625,0.00047,0.01054,0.00346
0.53439,0.50708,-0.67624,0.002,0.01055,0.00335
0.5344,0.50707,-0.67623,-0.00101,0.01066,-0.00062
0.53443,0.50708,-0.67621,0.00103,0.01044,0.00087
0.53445,0.50711,-0.67617,0.00194,0.00826,0.00246
0.53444,0.50716,-0.67613,0.00263,0.00749,0.00108
0.53447,0.5072,-0.67608,0.00145,0.0078,0.0036
0.53449,0.50723,-0.67604,0.00343,0.00928,0.00198
0.53448,0.50731,-0.67599,0.00276,0.0103,-0.00074
0.53445,0.50742,-0.67593,0.00644,0.01162,0.00456
0.53447,0.5075,-0.67585,0.00587,0.00879,0.00453
0.53448,0.50759,-0.67579,0.00437,0.01203,0.00379
0.53449,0.50767,-0.67571,0.00016,0.01224,0.00374
0.53451,0.50773,-0.67566,0.00199,0.01246,0.00032
0.53451,0.50771,-0.67566,-0.00105,0.01224,-0.00022
0.53453,0.50762,-0.67572,0.00243,0.01058,0.00122
0.53457,0.50758,-0.67572,0.0034,0.0107,0.00122
0.53466,0.5076,-0.67563,0.00123,0.008,-0.00109
0.53473,0.50761,-0.67556,0.00193,0.00942,0.00465
0.53473,0.50763,-0.67555,0.00169,0.00756,0.00552
0.53469,0.50766,-0.67556,0.00361,0.00953,0.00339
0.53465,0.50769,-0.67557,0.00531,0.009,0.00133
0.53466,0.50771,-0.67555,0.00241,0.00918,0.00253
0.53468,0.50777,-0.67549,0.00091,0.00978,0.0038
0.53473,0.50782,-0.67542,0.00281,0.01138,0.00057
0.53475,0.50787,-0.67536,0.00074,0.01204,9e-05
0.53475,0.50793,-0.67531,0.00361,0.01323,0.00491
0.53472,0.50798,-0.6753,0.00328,0.01091,0.00019
0.53472,0.50806,-0.67523,0.00314,0.0116,0.00339
0.53471,0.50811,-0.67521,0.0017,0.00807,0.00366
0.5347,0.50814,-0.6752,0.00211,0.01272,0.0009
0.53467,0.50818,-0.67519,0.0017,0.01229,0.00406
0.53466,0.50821,-0.67517,0.00274,0.01068,0.00168
0.53463,0.50824,-0.67517,0.00146,0.0099,0.00259
0.53464,0.50828,-0.67513,-3e-05,0.00797,0.00158
0.53467,0.50831,-0.67509,-0.00105,0.00947,0.00453
0.53469,0.50834,-0.67505,0.00204,0.00971,-0.00018
0.53468,0.50843,-0.67499,0.00206,0.00956,-0.00141
0.53467,0.50852,-0.67493,0.00595,0.01156,0.00278
0.53471,0.50857,-0.67486,0.00529,0.0092,0.00506
0.53478,0.50859,-0.67479,0.0027,0.01266,0.00309
0.53482,0.5086,-0.67476,0.00078,0.00939,-8e-05
0.53484,0.50858,-0.67475,0.00186,0.01095,0.00097
0.53486,0.5085,-0.67479,0.00055,0.0108,-0.00023
0.5349,0.50843,-0.67482,0.0033,0.00821,0.0003
0.53495,0.50841,-0.67479,0.00353,0.0097,0.00237
0.535,0.50839,-0.67477,0.00128,0.00745,0.00381
0.53504,0.50841,-0.67473,0.00097,0.00875,0.00253
0.53504,0.50843,-0.67471,0.00247,0.01459,0.00238
0.535,0.50842,-0.67475,0.00298,0.00883,0.00361
0.53501,0.50844,-0.67472,0.00371,0.01251,0.00155
0.53505,0.50844,-0.67469,0.00149,0.009,0.00379
0.53507,0.50844,-0.67468,0.00175,0.00971,0.00219
0.53507,0.50844,-0.67468,0.00168,0.01061,0.00209
0.53506,0.50843,-0.67469,0.00218,0.01179,0.00372
0.53507,0.50841,-0.6747,0.00247,0.01007,0.00055
0.53509,0.50841,-0.67468,0.00057,0.00978,0.00301
0.5351,0.50839,-0.67469,0.00155,0.0102,0.00225
0.53511,0.50835,-0.67471,0.00047,0.00861,0.00168
0.53513,0.50831,-0.67473,0.00227,0.0106,0.00087
0.53512,0.50832,-0.67472,0.00134,0.01016,0.00181
0.53517,0.50833,-0.67468,-0.00031,0.01003,0.00484
0.53519,0.50833,-0.67466,0.00183,0.0117,0.00084
0.53515,0.50829,-0.67472,0.00417,0.01124,-0.00091
0.53511,0.50828,-0.67476,0.00365,0.0118,-0.00055
0.53513,0.50833,-0.67471,0.00251,0.00942,0.00476
0.53521,0.50838,-0.6746,0.00269,0.01014,0.00578
0.53524,0.5084,-0.67457,0.0017,0.01298,0.00268
0.53519,0.50836,-0.67464,-0.00109,0.01153,0.00312
0.53522,0.50831,-0.67466,0.00084,0.01112,-0.0006
0.53522,0.50823,-0.67471,-0.00011,0.00953,0.00093
0.53522,0.50819,-0.67474,0.00289,0.00796,-0.00075
0.53527,0.50818,-0.67471,0.0026,0.00778,0.00166
0.5353,0.50821,-0.67466,0.00121,0.01069,0.0024
0.53531,0.50826,-0.67462,0.00276,0.00982,0.00449
0.5353,0.5083,-0.67459,0.00491,0.00987,0.00245
0.53528,0.50831,-0.67461,0.0045,0.01223,0.00324
0.53527,0.50832,-0.67461,0.00434,0.01095,0.00203
0.53529,0.50834,-0.67457,0.00323,0.01087,0.00117
0.5353,0.50836,-0.67455,0.00192,0.01039,0.00342
0.53532,0.50841,-0.6745,0.00142,0.00805,0.00155
0.53534,0.50844,-0.67446,-0.00147,0.01043,0.0036
0.53535,0.50844,-0.67445,0.0027,0.00911,0.0027
0.53534,0.50843,-0.67447,0.00405,0.01107,0.00308
0.53534,0.50845,-0.67446,0.00324,0.0118,0.00066
0.53535,0.50842,-0.67447,0.00264,0.01325,0.00377
0.53534,0.50837,-0.67452,0.00127,0.00895,-0.00137
0.53527,0.50831,-0.67461,0.00342,0.00975,0.00214
0.53526,0.50826,-0.67466,0.00164,0.00861,0.00205
0.53528,0.50824,-0.67466,0.00277,0.01228,0.00133
0.53529,0.50823,-0.67466,0.00284,0.0096,0.00025
0.53527,0.50823,-0.67467,0.0044,0.01137,0.0016
0.53527,0.50822,-0.67469,0.00358,0.01142,0.00275
0.53525,0.50819,-0.67472,0.00235,0.00888,0.00483
0.53525,0.50817,-0.67474,0.00235,0.0089,0.00484
0.53526,0.50815,-0.67474,-0.00024,0.01042,0.00277
0.53525,0.50811,-0.67478,0.00018,0.01122,0.00315
0.53523,0.50802,-0.67486,-0.00088,0.00995,0.00189
0.53522,0.50794,-0.67493,0.00323,0.00897,0.00207
0.53524,0.50787,-0.67497,0.00076,0.00908,0.00498
0.53524,0.50782,-0.675,0.00193,0.00951,0.00175
0.53522,0.5078,-0.67504,0.0016,0.00772,0.00086
0.53521,0.5078,-0.67505,0.00208,0.01053,0.00438
0.53517,0.50781,-0.67507,0.00404,0.0108,0.00254
0.53516,0.5078,-0.67508,0.00311,0.00901,0.00347
0.53514,0.50781,-0.6751,0.00232,0.01148,0.00324
0.53511,0.50781,-0.67511,0.00235,0.01148,0.00325
0.53513,0.50781,-0.6751,0.00458,0.01312,0.00427
0.53512,0.5078,-0.67512,0.003,0.0099,0.00094
0.5351,0.50778,-0.67515,0.00131,0.01053,0.00251
0.53507,0.50775,-0.67519,0.00293,0.01164,0.00237
0.53501,0.50775,-0.67524,0.00137,0.01117,0.00032
0.53497,0.50773,-0.67529,0.00317,0.01324,0.00156
0.53498,0.5077,-0.6753,0.00298,0.01015,0.00106
0.53498,0.50768,-0.67532,0.00207,0.00811,9e-05
0.53497,0.50768,-0.67532,0.00162,0.00851,0.00108
0.53494,0.5077,-0.67534,0.00099,0.00897,0.00197
0.53494,0.50769,-0.67534,0.0013,0.01171,0.00069
0.53492,0.50769,-0.67536,0.00444,0.01037,0.00246
0.5349,0.5077,-0.67536,0.00513,0.01159,0.00087
0.53488,0.50772,-0.67536,0.00452,0.01075,0.00364
0.53489,0.50775,-0.67534,0.00379,0.00805,0.00447
0.53491,0.50779,-0.67529,0.00273,0.01132,0.00385
0.53494,0.50783,-0.67524,0.00224,0.0113,0.00178
0.53493,0.50783,-0.67525,0.00201,0.01143,0.0011
0.53493,0.50776,-0.6753,0.00223,0.01155,2e-05
0.53491,0.5077,-0.67536,0.00133,0.0104,0.00272
0.53491,0.50766,-0.67539,0.00225,0.00934,0.00151
0.53494,0.50765,-0.67537,0.00165,0.00856,0.00306
0.53494,0.50768,-0.67535,0.00121,0.0087,0.0021
0.53491,0.50772,-0.67534,0.00314,0.01041,0.00055
0.53488,0.50776,-0.67534,0.00469,0.01158,0.0033
0.53486,0.50779,-0.67533,0.00232,0.01128,0.00184
0.53487,0.50779,-0.67532,0.00169,0.01146,0.00264
0.53484,0.5078,-0.67533,0.00237,0.0122,0.00174
0.53482,0.5078,-0.67536,0.00194,0.01056,0.00198
0.53482,0.50779,-0.67536,0.00147,0.00975,0.00121
0.53481,0.50778,-0.67538,0.00384,0.01087,0.0021
0.53479,0.50778,-0.67539,0.00355,0.00943,0.00208
0.53473,0.50777,-0.67545,0.00304,0.0095,-0.00028
0.53467,0.50772,-0.67554,0.0018,0.00015,-0.00386
0.5347,0.50782,-0.67543,0.0039,0.01886,0.00285
0.53474,0.50778,-0.67543,-0.00158,0.00717,0.00011
0.53467,0.50781,-0.67546,0.00268,0.01111,-0.0001
0.53463,0.50783,-0.67548,0.00196,0.00758,0.00143
0.53463,0.50784,-0.67547,0.00208,0.00986,0.00093
0.53462,0.50786,-0.67546,0.00255,0.00839,0.00049
0.53461,0.5079,-0.67544,0.0026,0.00876,0.00203
0.5346,0.50793,-0.67543,0.00272,0.01154,0.00235
0.53462,0.50796,-0.67539,0.00314,0.00948,0.00282
0.53464,0.50801,-0.67534,0.00105,0.01343,0.00092
0.53463,0.50801,-0.67535,0.00106,0.01343,0.00092
0.53456,0.50797,-0.67543,0.00072,0.00988,0.00374
0.5345,0.50793,-0.67551,0.00129,0.00996,0.00217
0.53448,0.50787,-0.67558,0.00285,0.00783,0.00208
0.5345,0.50786,-0.67556,0.00129,0.0077,-0.00103
0.53453,0.50788,-0.67553,0.00133,0.00913,0.00164
0.53453,0.50792,-0.6755,0.00133,0.0091,0.00161
0.5345,0.50798,-0.67547,0.00542,0.01016,0.00355
0.53448,0.50803,-0.67546,0.00453,0.00966,0.00128
0.53445,0.50807,-0.67545,0.00431,0.01102,0.00325
0.53443,0.50808,-0.67545,0.00103,0.00849,0.00234
0.53441,0.50812,-0.67544,0.00298,0.01021,-3e-05
0.53438,0.50817,-0.67543,0.00107,0.00947,0.00111
0.53436,0.5082,-0.67542,-0.00067,0.01168,0.00056
0.53439,0.50827,-0.67534,-0.00428,0.00833,-0.00244
0.53414,0.50808,-0.67568,0.01222,0.02404,0.01046
0.53421,0.50828,-0.67548,0.00324,0.02317,0.00868
0.5344,0.50827,-0.67534,-0.0018,0.0053,0.00128
0.53435,0.50828,-0.67537,-0.00168,0.00663,-0.00067
0.53425,0.50836,-0.67539,0.00393,0.01029,0.00185
0.53426,0.50838,-0.67536,0.00296,0.011,0.00187
0.53429,0.50839,-0.67534,0.00394,0.01058,0.00279
0.5343,0.50842,-0.6753,0.00229,0.0068,0.00401
0.53427,0.50852,-0.67525,0.0033,0.00941,-0.00088
0.53423,0.50862,-0.6752,0.00427,0.01071,0.00012
0.53424,0.5087,-0.67513,0.00177,0.01042,0.00598
0.53425,0.50875,-0.67509,0.00222,0.01183,0.00325
0.53421,0.5088,-0.67509,0.0017,0.01119,0.00251
0.53417,0.5088,-0.67512,0.0016,0.00961,0.00109
0.53414,0.50878,-0.67515,0.00097,0.00883,-0.00232
0.53414,0.50876,-0.67517,-0.00107,0.01117,0.00032
0.53416,0.50874,-0.67517,0.00068,0.00847,0.00166
0.53422,0.5087,-0.67515,0.00411,0.00746,0.00222
0.53425,0.50874,-0.6751,0.00199,0.00835,0.00238
0.53424,0.5088,-0.67506,0.00418,0.00954,0.00364
0.53422,0.50885,-0.67504,0.00398,0.0096,0.00542
0.5342,0.50889,-0.67503,0.00382,0.01048,0.00215
0.53418,0.50892,-0.67502,0.00206,0.01122,0.00136
0.53416,0.50893,-0.67503,0.00289,0.01178,0.00108
0.53414,0.50896,-0.67502,0.00357,0.00979,0.00274
0.53414,0.50898,-0.675,0.00294,0.01117,0.00145
0.53416,0.50899,-0.67498,0.00109,0.01056,0.00209
0.53418,0.50899,-0.67497,-0.00056,0.00757,0.00212
0.53419,0.50901,-0.67494,0.00011,0.00963,-0.00034
0.53421,0.50905,-0.6749,0.00188,0.00765,0.00081
0.53423,0.5091,-0.67484,0.00361,0.00941,0.00115
0.53424,0.50913,-0.67481,0.00161,0.00704,0.00074
0.53426,0.50919,-0.67476,0.00157,0.01021,0.00142
0.53424,0.50922,-0.67475,0.00183,0.01089,-0.00082
0.53421,0.50928,-0.67473,0.00402,0.00639,0.00139
0.53422,0.50937,-0.67465,0.00554,0.00885,0.00482
0.53425,0.50946,-0.67456,0.00243,0.00806,0.00392
0.53424,0.50956,-0.67449,0.00365,0.01173,0.0021
0.53426,0.50963,-0.67442,0.00034,0.01097,9e-05
0.53428,0.50962,-0.67441,-0.0001,0.01105,0.00156
0.5343,0.50958,-0.67442,0.001,0.00893,0.0006
0.53433,0.50958,-0.6744,0.00086,0.01012,-1e-05
0.53439,0.50959,-0.67435,0.00299,0.00828,0.00351
0.53448,0.50962,-0.67426,0.00352,0.0088,0.00247
0.53445,0.50963,-0.67427,0.00175,0.00772,0.00323
0.53437,0.50966,-0.67432,0.00236,0.00362,-0.00018
0.53433,0.50965,-0.67435,0.00317,0.00112,0.00232
0.53438,0.50973,-0.67425,0.00496,0.01792,0.00437
0.53444,0.50976,-0.67418,0.00253,0.01098,0.00168
0.53442,0.5098,-0.67416,0.00357,0.01106,0.00108
0.53441,0.50982,-0.67415,0.00373,0.00933,0.00092
0.53442,0.50981,-0.67416,0.00258,0.01172,0.00312
0.53442,0.50979,-0.67418,0.00425,0.00875,0.00265
0.5344,0.50979,-0.67419,0.00306,0.00966,0.00188
0.53438,0.5098,-0.67419,0.00026,0.0089,0.00018
0.53436,0.5098,-0.67421,-0.00068,0.01125,-0.00073
0.53435,0.50979,-0.67423,0.00114,0.00662,0.00218
0.53431,0.50978,-0.67427,0.0004,0.00911,0.00171
0.53428,0.50977,-0.6743,0.00295,0.00905,0.00159
0.53429,0.50974,-0.67432,0.00101,0.00702,0.00215
0.53432,0.50972,-0.6743,0.00032,0.00891,0.00176
0.53432,0.50971,-0.67431,0.00243,0.01115,0.00103
0.53431,0.50969,-0.67434,0.00444,0.01006,-0.00059
0.53433,0.50967,-0.67434,0.00579,0.00814,0.00313
0.53436,0.50969,-0.6743,0.00411,0.01,0.00607
0.5344,0.5097,-0.67426,0.00334,0.00968,0.00145
0.5344,0.50966,-0.67428,0.002,0.01258,0.00283
0.53436,0.50958,-0.67439,7e-05,0.0082,0.00207
0.53429,0.5095,-0.67449,0.00301,0.00813,0.00115
0.53428,0.50942,-0.67457,0.00303,0.00821,0.00123
0.5343,0.5094,-0.67456,0.00235,0.00841,0.00339
0.53434,0.5094,-0.67453,0.00159,0.01013,0.00087
0.53436,0.50944,-0.67449,0.00158,0.01009,0.00083
0.53433,0.50949,-0.67447,0.00498,0.01104,0.00209
0.53428,0.50951,-0.67449,0.00423,0.01108,0.00199
0.53425,0.50949,-0.67453,0.00426,0.01111,0.00203
0.53424,0.50944,-0.67458,0.00235,0.00954,0.00279
0.53424,0.50943,-0.67459,0.00349,0.00687,0.00193
0.53426,0.50942,-0.67458,0.00206,0.01025,0.00273
0.53426,0.50941,-0.67459,0.00122,0.01079,0.00104
0.53424,0.50938,-0.67463,0.00128,0.00965,0.00092
0.53423,0.50935,-0.67466,0.0017,0.01009,0.00061
0.53421,0.50932,-0.67469,0.0046,0.00853,0.00353
0.53419,0.5093,-0.67472,-0.00097,0.00861,-0.0013
0.53416,0.5093,-0.67475,0.00405,0.0086,0.00161
0.53415,0.50928,-0.67477,0.00252,0.00948,0.00083
0.53411,0.50927,-0.67481,0.00257,0.01046,0.00219
0.53408,0.50927,-0.67483,0.00263,0.01125,0.0003
0.53404,0.50926,-0.67488,0.00618,0.01113,-0.00052
0.53402,0.50926,-0.67489,0.00106,0.00707,0.00481
0.53404,0.50928,-0.67486,0.0025,0.01025,0.00307
0.53405,0.50933,-0.67481,0.0017,0.0106,-0.00074
0.53408,0.50934,-0.67478,0.00297,0.01064,0.00251
0.5341,0.5093,-0.6748,0.00297,0.01048,0.00276
0.53409,0.50923,-0.67486,0.00267,0.00925,0.0001
0.5341,0.50916,-0.6749,0.00321,0.00915,0.0004
0.53415,0.50911,-0.6749,0.0018,0.00641,0.00118
0.53416,0.50909,-0.6749,0.00232,0.00815,0.00266
0.53417,0.50912,-0.67488,0.00207,0.00831,0.00106
0.5342,0.50918,-0.6748,0.00239,0.00949,0.002
0.53425,0.50924,-0.67472,0.00318,0.01064,0.00301
0.53432,0.5093,-0.67462,0.00169,0.01134,-0.00027
0.53439,0.50935,-0.67452,0.00206,0.00932,-0.00048
0.53447,0.50939,-0.67444,-0.00113,0.00985,0.00134
0.53453,0.50936,-0.67441,0.00026,0.00367,0.00363
0.53467,0.5094,-0.67427,0.00398,0.00716,0.00136
0.53476,0.50948,-0.67414,4e-05,0.01087,-0.00049
0.53484,0.50954,-0.67403,0.00134,0.01019,0.00176
0.53487,0.50955,-0.674,0.00358,0.01056,0.00357
0.53486,0.50957,-0.67399,0.00659,0.00846,0.00349
0.53481,0.50965,-0.67397,0.00695,0.01053,0.00588
0.53472,0.50972,-0.67399,0.00369,0.00889,0.00751
0.5346,0.50982,-0.67401,0.00604,0.00984,-0.00049
0.5345,0.50991,-0.67402,0.00441,0.01304,0.00213
0.53446,0.5099,-0.67406,0.00013,0.01238,-0.00014
0.53444,0.50982,-0.67414,9e-05,0.01451,-0.0009
0.53444,0.50975,-0.67419,0.00014,0.01072,-0.00475
0.53449,0.50965,-0.67422,0.0019,0.00834,-0.00391
0.5346,0.50953,-0.67422,-0.00163,0.00953,0.00044
0.53466,0.50942,-0.67426,-0.00144,0.00709,0.00021
0.53471,0.50932,-0.6743,-0.00245,0.00865,-0.00109
0.53474,0.50926,-0.67432,0.00131,0.00978,0.00159
0.53471,0.50921,-0.67438,0.00101,0.00809,0.00178
0.53463,0.50918,-0.67446,0.00216,0.00931,0.00237
0.53457,0.50917,-0.67452,0.00426,0.00794,0.00507
0.53455,0.50919,-0.67452,0.00529,0.00663,0.00274
0.53456,0.50926,-0.67446,0.00235,0.00735,0.00335
0.53457,0.50941,-0.67434,0.00438,0.00923,0.00285
0.5346,0.50956,-0.6742,0.00592,0.01005,0.00316
0.53462,0.50964,-0.67412,0.00673,0.01277,0.00615
0.53461,0.50962,-0.67414,0.00709,0.01224,0.00962
0.53459,0.50951,-0.67425,0.00692,0.01137,0.00319
0.53454,0.50937,-0.6744,0.00393,0.00946,0.00309
0.5345,0.50924,-0.67452,-0.00244,0.006,-0.00219
0.53445,0.50916,-0.67462,-0.00508,0.00702,-0.00218
0.53445,0.50909,-0.67467,-0.00439,0.0071,-0.00242
0.53448,0.50904,-0.67469,0.00341,0.00718,-0.00195
0.53431,0.50887,-0.67495,0.00329,0.0131,0.00347
0.53437,0.50875,-0.67499,0.00228,0.01026,-0.00382
0.53433,0.50867,-0.67509,0.00115,0.01227,0.00029
0.53433,0.50859,-0.67515,0.00192,0.00763,0.00422
0.5343,0.50852,-0.67522,0.00641,0.00945,0.00449
0.53427,0.50845,-0.67531,0.00635,0.01073,0.0029
0.53421,0.50835,-0.67542,0.00566,0.01014,0.00399
0.53414,0.50828,-0.67554,0.00599,0.00884,0.00421
0.53409,0.50826,-0.67559,0.00302,0.00902,0.002
0.53405,0.50821,-0.67565,0.00052,0.00843,0.00185
0.53402,0.50814,-0.67574,0.00325,0.00761,0.00179
0.53401,0.50805,-0.6758,-0.00169,0.00549,0.00047
0.53406,0.50799,-0.67581,-0.00151,0.00505,-0.00292
0.53416,0.508,-0.67572,-0.00172,0.00553,-0.00287
0.53428,0.50806,-0.67559,-0.00017,0.00603,-0.00083
0.53427,0.50808,-0.67558,0.00228,0.00983,0.0009
0.53417,0.508,-0.67572,0.0051,0.01182,0.00474
0.53409,0.50793,-0.67584,0.00757,0.01141,0.005
0.53407,0.5079,-0.67587,0.00519,0.00875,0.00145
0.53411,0.50788,-0.67586,0.00367,0.01017,0.00171
0.53412,0.50788,-0.67585,0.00028,0.00592,4e-05
0.53413,0.50784,-0.67587,0.00292,0.01264,-0.00015
0.53411,0.50774,-0.67596,0.00294,0.01273,-6e-05
0.53416,0.50766,-0.67598,0.00516,0.0048,0.00421
0.53434,0.50765,-0.67585,-0.00073,0.00582,0.00365
0.53444,0.50771,-0.67572,-0.00084,0.00576,0.00352
0.5344,0.50777,-0.67571,0.0054,0.00838,-0.00184
0.5343,0.50782,-0.67575,0.00723,0.01211,0.00465
0.53425,0.50784,-0.67578,0.00728,0.01209,0.00468
0.53429,0.50783,-0.67576,0.00563,0.00752,0.00533
0.53437,0.50792,-0.67562,0.00278,0.00696,0.00485
0.53439,0.50803,-0.67552,0.00039,0.00863,0.00214
0.5343,0.50812,-0.67553,0.00172,0.00983,0.00214
0.53421,0.50816,-0.67557,0.00341,0.01158,0.00199
0.53416,0.50818,-0.67559,0.00237,0.00869,0.00351
0.53418,0.50822,-0.67555,0.00106,0.01133,-0.00255
0.53424,0.50829,-0.67545,0.00148,0.00873,-0.00372
0.53434,0.50836,-0.67532,-0.00023,0.00942,-0.0035
0.53441,0.5084,-0.67523,0.0009,0.00599,0.00143
0.5344,0.50845,-0.6752,0.00401,0.00834,0.00316
0.53438,0.50851,-0.67517,0.00575,0.01143,0.00388
0.53438,0.50853,-0.67515,0.00355,0.011,0.00042
0.53441,0.50849,-0.67516,-0.00052,0.00923,-0.00179
0.53433,0.50843,-0.67527,-0.00011,0.00928,0.00081
0.53419,0.50841,-0.67539,-0.00011,0.0059,0.00315
0.53403,0.50843,-0.67551,0.0024,0.00525,0.00263
0.53387,0.50846,-0.67561,0.0047,0.00948,0.00439
0.53368,0.50849,-0.67573,0.00701,0.00698,0.00554
0.53354,0.50856,-0.67579,0.00848,0.00979,0.00631
0.53345,0.50865,-0.6758,0.00183,0.00794,0.00229
0.53334,0.5087,-0.67585,0.00055,0.00858,0.00083
0.53321,0.50871,-0.67594,0.00156,0.01108,0.00133
0.5331,0.50872,-0.67602,0.00056,0.0107,0.00019
0.53304,0.50874,-0.67606,0.00144,0.01013,-0.0002
0.53303,0.50876,-0.67605,0.00017,0.01114,-0.00087
0.53303,0.50873,-0.67607,0.00132,0.00854,-0.00072
0.533,0.5087,-0.67611,0.00359,0.00832,0.00068
0.53301,0.50868,-0.67612,0.00251,0.0082,-0.00016
0.53307,0.50871,-0.67605,0.00452,0.00929,0.00176
0.53313,0.50877,-0.67597,0.00133,0.00925,0.00261
0.53315,0.50882,-0.67591,0.00359,0.00881,-0.00051
0.53316,0.50887,-0.67586,0.00355,0.00741,0.00248
0.53317,0.50894,-0.6758,0.00471,0.00748,0.00359
0.53319,0.50903,-0.67572,0.00337,0.01119,0.00232
0.53326,0.50911,-0.6756,0.0033,0.0111,0.0022
0.53331,0.50921,-0.67549,0.00366,0.00958,0.00068
0.53331,0.50934,-0.67539,0.00411,0.00819,8e-05
0.5333,0.50945,-0.67531,0.00527,0.01021,0.00445
0.53333,0.50955,-0.67522,0.00438,0.00895,0.00395
0.53336,0.50965,-0.67512,0.00076,0.01062,0.0025
0.53335,0.50973,-0.67506,0.00077,0.01054,0.00244
0.5333,0.50975,-0.67509,-0.00168,0.0107,-0.00011
0.53318,0.50967,-0.67524,0.00142,0.00784,-0.00187
0.53309,0.50961,-0.67536,0.00158,0.00781,-0.00055
0.53308,0.50958,-0.67539,0.00298,0.00714,0.00533
0.5331,0.50958,-0.67537,0.001,0.00688,0.00356
0.5331,0.50963,-0.67533,0.00228,0.00729,0.00214
0.53313,0.50971,-0.67525,0.00198,0.00726,8e-05
0.53316,0.50977,-0.67519,0.00504,0.01012,3e-05
0.5332,0.50983,-0.6751,0.00534,0.01202,0.00424
0.53326,0.50989,-0.67501,0.00302,0.00827,0.00141
0.5333,0.50997,-0.67492,0.00279,0.00773,0.0033
0.53333,0.51005,-0.67484,0.0026,0.0074,0.00215
0.53337,0.51012,-0.67475,0.00235,0.01,0.00301
0.53338,0.51015,-0.67473,0.00146,0.00911,0.00073
0.53337,0.51016,-0.67472,0.00229,0.00917,0.00225
0.53339,0.51021,-0.67467,0.00191,0.00953,0.00095
0.53342,0.51023,-0.67463,0.00319,0.00926,0.00025
0.53346,0.51024,-0.67459,-0.00016,0.0085,5e-05
0.53349,0.51028,-0.67453,0.00239,0.00943,0.00214
0.53354,0.51033,-0.67446,0.00373,0.00869,0.00089
0.53365,0.51035,-0.67436,0.00136,0.00945,0.00394
0.53367,0.51036,-0.67433,0.00033,0.00995,0.00093
0.53361,0.5104,-0.67436,0.00431,0.00925,-0.00188
0.53357,0.51048,-0.67433,0.0071,0.00802,-0.00051
0.53358,0.51053,-0.67428,0.00611,0.01073,0.00269
0.53355,0.51054,-0.67429,0.00292,0.00966,0.00674
0.53355,0.51051,-0.67432,0.00093,0.00999,0.00275
0.53356,0.51045,-0.67435,0.00101,0.00868,-0.00035
0.53356,0.5104,-0.6744,0.00238,0.00968,-0.00312
0.53357,0.5103,-0.67445,0.00201,0.00851,-5e-05
0.53358,0.51021,-0.67452,0.00555,0.00681,0.00147
0.53361,0.51017,-0.67452,0.00188,0.00338,0.00528
0.53364,0.51021,-0.67447,0.00239,0.00611,0.00086
0.53366,0.51029,-0.67439,-0.00101,0.00788,0.00142
0.53367,0.51033,-0.67436,2e-05,0.00766,-0.00301
0.53368,0.51035,-0.67433,0.00224,0.0115,-0.00238
0.53375,0.51029,-0.67432,0.00211,0.01089,0.00174
0.53378,0.51023,-0.67435,0.00267,0.01047,0.00127
0.5338,0.51019,-0.67436,0.00143,0.00891,0.00155
0.53379,0.51017,-0.67439,0.00325,0.00858,0.00178
0.53373,0.51013,-0.67446,0.00439,0.00924,0.00084
0.53364,0.51006,-0.67458,0.00553,0.00575,0.00321
0.53356,0.51005,-0.67466,0.00613,0.0066,0.00257
0.53348,0.51006,-0.67471,0.00679,0.00997,0.00412
0.53337,0.5101,-0.67477,0.00326,0.00739,0.00088
0.53326,0.51014,-0.67483,0.00281,0.00817,0.00121
0.53317,0.51014,-0.6749,0.00214,0.00797,-0.00099
0.5331,0.51016,-0.67494,0.00221,0.00795,-0.00095
0.53305,0.51019,-0.67495,0.00328,0.00975,0.00024
0.53302,0.51026,-0.67492,0.00254,0.00871,0.00094
0.53303,0.51028,-0.6749,0.00234,0.01164,0.0031
0.53304,0.51028,-0.67489,0.00214,0.01042,-0.0003
0.53309,0.51026,-0.67487,0.00021,0.01552,-0.00108
0.53309,0.51017,-0.67493,0.00102,0.01263,-0.00094
0.53307,0.51004,-0.67505,6e-05,0.01064,-0.00102
0.53307,0.50989,-0.67516,0.00249,0.00914,-0.0005
0.53312,0.50976,-0.67522,0.00092,0.00759,-0.00063
0.53316,0.50968,-0.67525,0.00267,0.00309,0.00292
0.53315,0.50965,-0.67529,0.00401,0.00343,0.00065
0.53312,0.50969,-0.67528,0.00488,0.00615,0.00382
0.53312,0.50972,-0.67525,0.00319,0.00564,0.00376
0.53317,0.50982,-0.67514,0.00635,0.0091,0.00207
0.53317,0.50995,-0.67504,0.00571,0.01102,0.00202
0.53307,0.51001,-0.67507,0.00411,0.00887,0.00294
0.53298,0.51006,-0.67511,0.00489,0.01065,0.00215
0.53295,0.51004,-0.67515,0.00424,0.01252,0.00206
0.5329,0.51005,-0.67518,0.0007,0.01074,-0.00186
0.53286,0.51004,-0.67522,0.00011,0.00869,-0.00157
0.53285,0.51001,-0.67525,0.00064,0.01073,-0.0011
0.53286,0.50996,-0.67527,-0.00087,0.00966,-0.00206
0.53292,0.50988,-0.67529,-0.00167,0.00773,0.00229
0.53296,0.50988,-0.67526,0.00125,0.00749,0.00106
0.53302,0.50986,-0.67523,0.00157,0.00625,0.00054
0.5331,0.50982,-0.6752,0.00093,0.00854,0.00174
0.53309,0.50981,-0.67521,0.00203,0.01117,0.00175
0.53301,0.50979,-0.67528,0.00449,0.00783,-0.00061
0.533,0.50979,-0.6753,0.0053,0.00689,0.00553
0.53305,0.50981,-0.67524,0.00247,0.00894,0.00336
0.53309,0.50986,-0.67517,0.00234,0.00965,0.00409
0.53311,0.5099,-0.67512,0.00383,0.01029,0.00094
0.53314,0.50988,-0.67512,0.00307,0.00927,0.00196
0.53313,0.50978,-0.6752,0.00236,0.00938,0.00103
0.53309,0.50973,-0.67527,0.00202,0.0082,0.00024
0.53306,0.50971,-0.67531,0.00286,0.00683,0.00111
0.53303,0.50971,-0.67534,0.00215,0.00769,0.00363
0.53301,0.5097,-0.67535,0.00117,0.0102,0.00133
0.533,0.50974,-0.67533,0.00132,0.00924,-0.00136
0.53292,0.50974,-0.6754,7e-05,0.01062,0.00355
0.53283,0.50969,-0.67551,0.00653,0.00957,-0.00029
0.5328,0.50969,-0.67554,0.00492,0.01,0.00094
0.53275,0.50961,-0.67563,0.00187,0.00927,0.00397
0.53277,0.5096,-0.67561,0.00209,0.00762,0.00055
0.53284,0.50968,-0.67551,0.00203,0.00755,0.00044
0.53284,0.50969,-0.6755,0.0009,0.00987,-0.00053
0.53287,0.50968,-0.67548,0.00426,0.00918,0.00075
0.53294,0.50964,-0.67546,0.00418,0.00922,0.00073
0.53297,0.50959,-0.67546,0.00104,0.01072,0.00113
0.53302,0.50958,-0.67543,0.00553,0.00681,0.00162
0.53308,0.50957,-0.6754,0.0059,0.00962,0.00105
0.53317,0.50954,-0.67536,0.00211,0.00824,-0.00076
0.53323,0.50951,-0.67532,0.0013,0.00727,0.00157
0.53332,0.50952,-0.67525,-0.00193,0.00775,0.00188
0.53339,0.50955,-0.67517,0.00203,0.00693,0.00348
0.5335,0.50958,-0.67506,0.00207,0.00842,-0.00242
0.53367,0.50963,-0.67489,0.00253,0.01013,-0.00034
0.53382,0.50962,-0.67477,0.00323,0.01105,0.00094
0.53396,0.5096,-0.67467,0.00162,0.00976,0.00336
0.53408,0.50956,-0.67462,0.0047,0.00877,0.00302
0.53416,0.50957,-0.67455,0.00211,0.00716,-0.00064
0.53419,0.50959,-0.67451,0.0024,0.00984,0.00297
0.53416,0.50956,-0.67455,0.00139,0.00909,0.00257
0.53409,0.50951,-0.67465,0.00363,0.00854,0.00119
0.534,0.50946,-0.67476,0.00316,0.00716,0.00271
0.53387,0.50943,-0.67488,0.00441,0.00528,0.0023
0.53371,0.50946,-0.67498,0.00292,0.00566,0.00335
0.53353,0.50957,-0.67504,0.00369,0.00951,0.00219
0.53334,0.50978,-0.67504,0.00493,0.00862,-0.00248
0.53329,0.51003,-0.67489,0.00121,0.0118,0.00011
0.53332,0.51019,-0.67474,0.00198,0.01254,-0.0015
0.53339,0.51021,-0.67467,-0.0019,0.01226,-0.0008
0.53348,0.51012,-0.67466,-0.00196,0.01135,-0.0008
0.5336,0.51003,-0.67464,0.00014,0.00925,-0.0001
0.53368,0.50994,-0.67464,-0.00117,0.00773,-0.00092
0.53373,0.50984,-0.67469,-0.00118,0.00789,0.00133
0.53369,0.50974,-0.67479,0.00228,0.00607,0.00264
0.53363,0.50967,-0.67489,0.00377,0.00773,0.00593
0.53364,0.50967,-0.67488,0.00092,0.00754,0.00264
0.53366,0.50967,-0.67486,0.00381,0.00942,0.00592
0.53368,0.50969,-0.67483,0.00388,0.00847,0.00155
0.53366,0.5097,-0.67484,0.00653,0.00772,0.00513
0.53368,0.50974,-0.67479,0.00324,0.00681,0.00324
0.53367,0.5098,-0.67476,0.00502,0.00834,0.00262
0.5337,0.50987,-0.67468,0.00505,0.01152,-0.00293
0.53371,0.5099,-0.67465,0.00079,0.0083,-0.00065
0.53372,0.50993,-0.67462,0.0013,0.00893,0.00024
0.53367,0.50991,-0.67467,0.00077,0.00843,-0.00079
0.5337,0.50989,-0.67467,-0.00272,0.01062,-0.00133
0.53375,0.50981,-0.67469,-0.00264,0.00937,-0.00072
0.53367,0.50971,-0.67483,0.00263,0.01063,-0.001
0.5336,0.50954,-0.67501,0.00231,0.0072,0.00443
0.53356,0.50936,-0.67518,0.00117,0.00526,0.00174
0.53353,0.50925,-0.67528,0.0043,0.0059,-0.00071
0.5335,0.50916,-0.67538,0.00474,0.01471,0.00964
0.53333,0.50897,-0.67565,0.00491,0.0149,0.00991
0.53329,0.50899,-0.67567,0.00548,0.01,0.00065
0.53327,0.50883,-0.67581,0.00171,0.00203,0.00869
0.53319,0.50883,-0.67587,0.00149,0.00033,-0.00469
0.53321,0.50891,-0.67579,-0.00303,0.01159,-0.00501
0.53319,0.50884,-0.67586,0.00123,0.00995,-0.00052
0.53315,0.50873,-0.67598,-0.00042,0.00918,-0.00238
0.5332,0.50863,-0.67601,0.00418,0.01049,0.00365
0.53329,0.50857,-0.67598,0.00119,0.00672,-0.00087
0.53333,0.50854,-0.67598,0.00055,0.01009,-0.00238
0.53328,0.50848,-0.67606,0.00151,0.0081,-0.00065
0.5332,0.50844,-0.67616,0.00625,0.0054,0.00207
0.53321,0.50846,-0.67614,0.00506,0.00714,0.00292
0.53331,0.50853,-0.676,9e-05,0.00448,0.00383
0.53331,0.5086,-0.67595,0.00165,0.00928,-0.00151
0.53292,0.50856,-0.67629,0.00744,0.01018,0.00098
0.53238,0.50839,-0.67684,0.00683,0.00646,0.00594
0.53214,0.50827,-0.67712,0.00725,0.00647,0.0068
0.53216,0.50828,-0.67709,0.00687,0.01033,0.00297
0.5323,0.5084,-0.67689,-0.00195,0.00936,-0.00376
0.53241,0.50849,-0.67674,-0.00248,0.01034,-0.00461
0.53238,0.50846,-0.67679,-0.00242,0.01344,-0.00099
0.5322,0.50836,-0.677,0.00183,0.00603,0.0018
0.53202,0.50829,-0.67719,0.00146,0.0079,0.00067
0.53199,0.50827,-0.67724,0.00195,0.00713,0.00043
0.53204,0.50829,-0.67718,0.00314,0.00898,-2e-05
0.5321,0.50833,-0.6771,0.00162,0.00902,-0.00045
0.53215,0.50832,-0.67707,0.00263,0.00807,0.0017
0.53216,0.50832,-0.67706,0.00401,0.00922,0.00334
0.53223,0.50834,-0.67699,0.00398,0.00866,0.00242
0.53234,0.5084,-0.67686,0.00729,0.00768,0.00309
0.53246,0.50844,-0.67673,0.00591,0.00966,0.00411
0.53255,0.50848,-0.67664,0.00103,0.00703,0.0018
0.53261,0.50852,-0.67656,0.00454,0.00822,0.00076
0.53265,0.50857,-0.67649,0.00028,0.00675,0.00071
0.53268,0.50865,-0.67641,6e-05,0.0084,0.00407
0.5327,0.50869,-0.67636,0.00053,0.00915,-0.00075
0.53273,0.50874,-0.6763,0.00146,0.00946,-0.00228
0.53279,0.50879,-0.67622,0.00182,0.00638,-0.00034
0.53289,0.50883,-0.6761,0.00149,0.00801,0.00038
0.533,0.50889,-0.67598,0.0009,0.00975,0.00067
0.53309,0.50893,-0.67588,0.00184,0.00673,0.00023
0.53312,0.50898,-0.67581,0.00509,0.00911,0.00186
0.53317,0.50903,-0.67574,0.00232,0.00718,0.00029
0.5332,0.50909,-0.67566,0.00377,0.00772,0.00157
0.53328,0.50918,-0.67554,0.0018,0.00806,0.003
0.53336,0.50928,-0.67539,0.00399,0.00928,0.00135
0.53335,0.5094,-0.67531,0.0015,0.01114,-0.00023
0.53327,0.50955,-0.67527,0.00209,0.00672,0.00118
0.53312,0.50974,-0.67524,0.00306,0.00569,-0.00341
0.53311,0.50987,-0.67515,0.00232,0.00902,0.00389
0.53325,0.50985,-0.67506,0.00217,0.01014,0.00384
0.53335,0.50981,-0.675,0.00432,0.01193,0.00021
0.53341,0.50974,-0.67501,0.0042,0.0119,0.00048
0.5334,0.50963,-0.6751,0.00368,0.00952,0.00564
0.53331,0.50953,-0.67524,0.00406,0.00692,0.00506
0.53318,0.50947,-0.67539,0.00645,0.00591,0.00242
0.53311,0.50944,-0.67547,0.00403,0.00838,-0.00228
0.53311,0.50946,-0.67546,0.00233,0.00629,0.0001
0.53317,0.5095,-0.67538,-0.00068,0.00637,0.00242
0.5332,0.50956,-0.67531,-0.00272,0.00545,-0.00291
0.53325,0.50964,-0.67521,-0.00318,0.0063,-0.00161
0.53334,0.50969,-0.6751,-0.00302,0.00897,-0.00273
0.53344,0.50974,-0.67498,-0.0017,0.01249,-0.00331
0.53354,0.50973,-0.67491,-5e-05,0.00957,-0.0002
0.5336,0.50969,-0.67489,0.0005,0.00764,-0.00116
0.53357,0.50967,-0.67494,-0.00011,0.00649,0.00393
0.53339,0.50964,-0.6751,0.0027,0.00782,-0.00095
0.53314,0.50962,-0.67531,0.00412,0.00844,-0.00086
0.53296,0.5096,-0.67546,0.00647,0.01058,0.00106
0.53291,0.50952,-0.67557,0.00569,0.01225,0.00131
0.53291,0.50932,-0.67572,0.00243,0.0105,-0.0031
0.53298,0.50899,-0.67592,0.003,0.00852,0.00011
0.53311,0.50862,-0.67609,0.00412,0.00838,0.0053
0.53332,0.5083,-0.67616,-0.00224,0.00755,0.00123
0.53333,0.5079,-0.67646,0.0082,0.01317,0.00255
0.53344,0.50747,-0.67669,0.00344,0.01218,-0.00336
0.53352,0.50686,-0.67709,0.00216,0.01085,-0.00098
0.53331,0.50605,-0.67785,-0.00329,0.00902,-0.00327
0.53291,0.50505,-0.67892,-0.00058,0.00902,-0.00245
0.53232,0.50391,-0.68022,-0.00096,0.00596,-0.00317
0.53165,0.50282,-0.68156,0.00029,0.00473,0.00114
0.53094,0.50189,-0.6828,0.0021,0.00599,0.00233
0.53016,0.50105,-0.68402,0.00448,0.00939,0.00325
0.52946,0.50019,-0.68518,0.00456,0.00903,0.00208
0.52863,0.49933,-0.68645,0.00022,0.00888,0.00171
0.52753,0.49841,-0.68796,-0.00014,0.00871,-0.00205
0.52626,0.49733,-0.68971,0.00206,0.01234,-0.00171
0.52511,0.49618,-0.69142,0.00366,0.01287,-0.00293
0.52408,0.49501,-0.69304,-0.00075,0.00903,0.00282
0.52293,0.49385,-0.69473,0.0004,0.01019,0.00452
0.52152,0.49273,-0.69659,-0.00458,0.00349,0.00222
0.51989,0.49156,-0.69863,-0.00955,0.01,-0.01073
0.51807,0.49025,-0.70089,-0.00384,0.01404,-0.0121
0.51644,0.4887,-0.70318,-0.00081,0.01576,-0.00832
0.51505,0.48698,-0.70539,0.00794,0.00914,-0.00018
0.51343,0.48533,-0.70771,0.00493,0.01077,0.00822
0.51197,0.48375,-0.70984,0.01256,0.01053,0.00664
0.51062,0.48239,-0.71174,0.01117,0.00825,0.0071
0.5097,0.48115,-0.71323,0.01144,0.01494,0.01071
0.50919,0.48006,-0.71433,0.00503,0.00937,0.00184
0.50883,0.47893,-0.71534,-0.00059,0.00799,0.00568
0.5082,0.47773,-0.71659,0.00214,0.01377,-0.00137
0.5076,0.47642,-0.71789,0.00607,0.00869,-0.00404
0.50734,0.47504,-0.71898,0.003,0.00747,0.00107
0.50671,0.4737,-0.72031,-0.00253,0.0058,-0.00281
0.50535,0.47208,-0.72233,-0.00845,0.01594,-0.01022
0.50395,0.46962,-0.72491,-0.01576,0.02062,-0.00805
0.502,0.46632,-0.72838,-0.01169,0.02202,-0.01732
0.49996,0.46245,-0.73224,-0.01514,0.01019,-0.00582
0.49732,0.45845,-0.73654,-0.00259,0.0012,0.00512
0.49415,0.45467,-0.741,-0.00241,0.00045,0.01157
0.49094,0.45139,-0.74513,0.00414,-0.00896,0.01785
0.48849,0.44896,-0.74821,0.01382,-0.00789,0.02994
0.4871,0.44763,-0.74991,0.03518,0.00903,0.01962
0.48591,0.44717,-0.75095,0.03504,0.01156,0.01947
0.48553,0.44721,-0.75118,0.02743,0.00605,0.01993
0.48595,0.44777,-0.75057,0.02417,0.00221,0.02062
0.4871,0.44887,-0.74916,0.00379,0.00116,0.01137
0.48842,0.45031,-0.74744,-0.01105,0.00466,-0.00066
0.48917,0.45189,-0.74599,-0.01471,0.00594,-0.00155
0.4892,0.45352,-0.74499,-0.01436,-0.00028,-0.0068
0.48899,0.45536,-0.744,-0.00659,-0.00123,0.00207
0.48923,0.45749,-0.74254,-0.00113,0.0013,-0.00017
0.49009,0.45967,-0.74062,0.01644,0.02227,-0.00203
0.49188,0.46172,-0.73815,0.02541,0.02285,0.00373
0.49467,0.46396,-0.73487,0.02457,0.01539,0.00376
0.49819,0.46649,-0.73088,0.01159,0.00545,0.01317
0.50184,0.46897,-0.72679,-0.00514,0.00384,-0.00302
0.50492,0.47131,-0.72313,-0.00427,0.00157,-0.0087
0.50759,0.47371,-0.71969,-0.00275,0.00259,-0.00249
0.50985,0.47612,-0.71649,-0.0024,0.01327,0.00218
0.51161,0.47841,-0.71371,-0.00417,0.01099,-0.0006
0.51297,0.48037,-0.7114,0.00163,0.01989,-0.00921
0.51426,0.482,-0.70937,0.00113,0.02201,-0.01311
0.51558,0.48318,-0.70761,-0.00095,0.02198,-0.01106
0.5168,0.48382,-0.70628,-0.00527,0.0156,-0.00936
0.51761,0.48411,-0.70549,-0.0092,0.00616,-0.00758
0.51787,0.48425,-0.7052,-0.01356,0.0026,-0.00603
0.51768,0.48431,-0.7053,-0.01132,8e-05,-0.0038
0.51721,0.48445,-0.70555,-0.00569,0.00215,-0.00197
0.5167,0.48483,-0.70566,0.00123,0.00296,0.00269
0.5164,0.4855,-0.70542,0.00387,0.00274,0.00665
0.51645,0.48644,-0.70473,0.00039,0.00348,0.00576
0.51664,0.48758,-0.70381,0.00392,0.00543,-0.00028
0.51683,0.48887,-0.70278,0.004,0.00962,-0.00352
0.51697,0.49014,-0.70179,0.00067,0.01281,-0.00231
0.51709,0.49123,-0.70093,0.00114,0.0135,-0.00323
0.51716,0.49206,-0.7003,-0.00116,0.01462,-0.00488
0.51716,0.49262,-0.6999,-0.00337,0.01541,-0.00646
0.51713,0.49287,-0.69975,-0.00312,0.0154,-0.00692
0.51701,0.49288,-0.69983,0.00147,0.01032,-0.00076
0.51689,0.49272,-0.70004,0.00507,0.00704,0.00038
0.51677,0.49255,-0.70024,0.00868,0.00466,0.00559
0.51674,0.49252,-0.70028,0.01179,0.00595,0.00459
0.51681,0.49266,-0.70014,0.01105,0.00708,0.00801
0.517,0.49297,-0.69978,0.01016,0.00648,0.00665
0.51725,0.49337,-0.69931,0.0064,0.00779,0.0047
0.51748,0.49379,-0.69884,0.00544,0.00881,0.00178
0.51772,0.49414,-0.69842,0.0036,0.01223,-0.00331
0.51793,0.49438,-0.69809,-4e-05,0.01374,-0.00291
0.51818,0.49448,-0.69784,-0.00261,0.01118,-0.00364
0.5184,0.49449,-0.69767,-0.0029,0.01131,-0.00622
0.51862,0.49443,-0.69754,-0.00265,0.00931,-0.00401
0.51884,0.49434,-0.69745,-0.00239,0.00604,-0.004
0.51905,0.49423,-0.69737,-0.00011,0.00742,-0.00295
0.51925,0.49416,-0.69726,-0.00033,0.00607,-0.00099
0.51942,0.49411,-0.69718,-0.00169,0.00545,0.00077
0.5196,0.49407,-0.69707,-0.00088,0.01,-0.00086
0.51979,0.49403,-0.69696,0.00383,0.00812,-0.00159
0.51986,0.49402,-0.69691,0.00405,0.00906,-0.00226
0.51996,0.49398,-0.69686,0.00447,0.00744,0.00155
0.52009,0.49393,-0.6968,0.00284,0.00833,0.00249
0.52021,0.49389,-0.69674,0.00074,0.00697,0.00384
0.52028,0.49389,-0.6967,0.00101,0.00781,0.00265
0.52025,0.49389,-0.69671,0.00111,0.00868,0.00117
0.52009,0.49389,-0.69683,0.0017,0.00895,-0.00237
0.51987,0.49386,-0.69701,0.00103,0.00583,-0.00211
0.51969,0.49381,-0.69719,0.00117,0.00709,-0.00015
0.51953,0.49376,-0.69734,-0.00087,0.00482,-0.00014
0.51935,0.49378,-0.69747,-0.00203,0.00626,0.00136
0.51914,0.49381,-0.6976,-0.00146,0.0068,0.00077
0.51893,0.49387,-0.69771,0.00078,0.01068,0.00113
0.51873,0.49393,-0.69781,0.00098,0.01062,0.00123
0.51858,0.49395,-0.69791,0.00413,0.0107,-0.00042
0.51847,0.49391,-0.69802,0.00176,0.01137,-5e-05
0.51845,0.49381,-0.69811,0.00178,0.01147,3e-05
0.51847,0.49369,-0.69818,0.0035,0.01094,0.00073
0.5185,0.49356,-0.69825,0.00027,0.00797,-0.00086
0.51853,0.49342,-0.69833,0.00053,0.01029,0.00222
0.51858,0.49329,-0.69838,0.0035,0.00895,0.0003
0.51866,0.49319,-0.69839,0.00366,0.00802,0.00171
0.51871,0.49308,-0.69843,0.00264,0.00672,0.00188
0.51873,0.49297,-0.69849,0.00261,0.00878,-3e-05
0.51876,0.49288,-0.69854,0.00129,0.00742,0.00051
0.51871,0.49284,-0.6986,0.00091,0.0089,-0.00056
0.51862,0.49283,-0.69867,0.00376,0.0079,0.0007
0.51855,0.4928,-0.69875,0.0041,0.00711,0.0019
0.51846,0.49277,-0.69884,0.00149,0.01009,0.00374
0.51841,0.4927,-0.69893,-0.00033,0.00873,0.00105
0.51839,0.49258,-0.69902,-0.00047,0.00872,0.00142
0.51834,0.49245,-0.69915,-0.00059,0.0058,0.00012
0.51826,0.49236,-0.69928,0.00176,0.00329,-0.00182
0.5182,0.49235,-0.69933,0.00252,0.00599,0.00105
0.51816,0.49242,-0.6993,0.00476,0.00541,0.00047
0.51812,0.49259,-0.69921,0.00435,0.01033,-0.00074
