gravity.x,gravity.y,gravity.z,userAcceleration.x,userAcceleration.y,userAcceleration.z
0.44561,0.15356,-0.88195,-0.00277,0.01077,-0.00131
0.44166,0.15137,-0.88432,-0.00788,0.00393,0.00348
0.43668,0.14884,-0.88722,-0.0029,-0.00815,-0.00139
0.43196,0.14638,-0.88993,-0.00164,-0.00653,-0.00197
0.42811,0.14462,-0.89208,-0.00823,-0.00543,-0.00694
0.42539,0.14352,-0.89356,-0.00668,-0.00074,-0.00839
0.42428,0.14324,-0.89413,-0.01023,0.01154,-0.0125
0.42419,0.14342,-0.89415,-0.00536,0.0238,-0.00951
0.42416,0.14363,-0.89412,-0.0032,0.02918,-0.0099
0.42387,0.14356,-0.89427,0.0032,0.02424,-0.01221
0.42353,0.14339,-0.89446,-0.00032,0.01638,-0.00974
0.42312,0.14314,-0.8947,-0.00552,0.00728,-0.00826
0.4229,0.143,-0.89482,-0.00136,-0.00164,-0.00331
0.42297,0.14298,-0.89479,-0.00325,-0.00225,-0.00024
0.42326,0.14307,-0.89464,-0.001,-0.00026,0.00109
0.42353,0.14314,-0.8945,-0.00023,0.00314,0.00289
0.4238,0.14317,-0.89437,-0.00224,0.00123,-0.00109
0.42421,0.14328,-0.89416,-0.00342,0.00016,-0.00114
0.42503,0.14361,-0.89372,-0.00953,0.00086,-0.00635
0.42634,0.14422,-0.89299,-0.00564,0.01317,-0.00999
0.42776,0.145,-0.89219,-0.00502,0.01483,-0.00958
0.42916,0.14569,-0.8914,-0.0073,0.01268,-0.00765
0.43053,0.14632,-0.89064,0.00048,0.01362,-0.00696
0.43187,0.14689,-0.88989,0.00033,0.01633,-0.00705
0.43303,0.14725,-0.88927,-0.00681,0.01252,-0.01089
0.43432,0.14783,-0.88854,-0.0043,0.01463,-0.00568
0.43527,0.1483,-0.888,0.00647,0.01596,9e-05
0.43537,0.14833,-0.88795,0.01142,0.01635,0.00556
0.43435,0.14777,-0.88854,0.00575,0.00911,0.00676
0.43299,0.14697,-0.88933,-0.00119,0.0008,0.00165
0.43201,0.14627,-0.88993,-0.00353,0.00035,-0.00089
0.43159,0.146,-0.89018,-0.01372,-0.00703,-0.0051
0.43173,0.14615,-0.89008,-0.01599,-0.0006,-0.00462
0.43214,0.14644,-0.88984,-0.01653,0.00825,-0.0034
0.43219,0.14654,-0.8898,-0.01268,0.01183,-0.00499
0.43126,0.14617,-0.89031,-0.01193,0.01298,-0.00575
0.42958,0.14546,-0.89124,-0.01453,0.01177,-0.0059
0.42772,0.14459,-0.89227,-0.01009,0.00217,-0.00037
0.42606,0.14385,-0.89319,-0.00515,-0.00948,-0.00975
0.4251,0.14374,-0.89366,0.00763,0.00284,-0.01486
0.42488,0.14407,-0.89371,0.00624,0.01128,-0.00557
0.42507,0.14448,-0.89355,0.00446,0.02068,-0.00292
0.42518,0.14478,-0.89345,0.00738,0.02269,-0.00288
0.4251,0.14477,-0.89349,0.00536,0.02573,-0.00444
0.42483,0.14464,-0.89364,0.00498,0.027,-0.00478
0.4245,0.14439,-0.89384,0.00348,0.02231,-0.00859
0.4241,0.14405,-0.89409,0.00042,0.01331,-0.00568
0.42369,0.14367,-0.89434,-0.00245,0.00617,-0.00161
0.42341,0.14334,-0.89453,-0.00596,-0.00676,0.00111
0.42334,0.14333,-0.89456,-0.00768,-0.0086,-0.00118
0.42357,0.14347,-0.89443,-0.01062,-0.00698,-0.00308
0.42398,0.14377,-0.89419,-0.01024,0.0039,-0.0027
0.42444,0.14402,-0.89393,-0.00775,0.00993,-0.00704
0.42482,0.14426,-0.89371,-0.00777,0.01332,-0.00581
0.42495,0.14434,-0.89363,-0.01234,0.01089,-0.01317
0.42508,0.14452,-0.89355,-0.00641,0.01378,-0.00831
0.42535,0.14468,-0.89339,-0.00725,0.00749,-0.00699
0.4257,0.14492,-0.89318,-0.00425,0.00903,-0.00423
0.42592,0.14509,-0.89305,-0.00799,0.00582,-0.00395
0.42593,0.1452,-0.89303,0.01137,0.02713,0.00506
0.42515,0.14488,-0.89345,0.00277,0.00578,-0.00468
0.42482,0.14472,-0.89364,0.0043,0.00876,-0.00451
0.42497,0.14473,-0.89356,0.00312,0.00798,-0.00165
0.42526,0.14486,-0.8934,-0.00313,0.00951,0.00072
0.42537,0.14488,-0.89335,0.00161,0.0105,-0.0016
0.42543,0.14487,-0.89332,-0.00052,0.00906,-0.0028
0.42545,0.14483,-0.89332,0.001,0.01058,-0.00634
0.42544,0.14476,-0.89334,-0.00382,0.00775,-0.00652
0.42555,0.14477,-0.89328,-0.00657,0.0055,-0.00712
0.42574,0.14487,-0.89317,-0.00544,0.0078,-0.00481
0.42603,0.14501,-0.89301,-0.00812,0.00923,-0.00745
0.42628,0.14515,-0.89287,-0.00611,0.00873,-0.00505
0.42657,0.14527,-0.89271,-0.00653,0.01079,-0.00586
0.4269,0.14543,-0.89253,-0.00231,0.01082,-0.00364
0.42713,0.14556,-0.8924,0.00204,0.01535,-0.00138
0.42686,0.14537,-0.89256,0.00963,0.01883,0.00649
0.42568,0.14458,-0.89325,0.01321,0.02006,0.00551
0.42401,0.14358,-0.8942,0.01417,0.00959,-0.00273
0.42306,0.14288,-0.89476,0.00748,0.00268,-0.00147
0.42319,0.14279,-0.89472,-0.00182,0.00721,-0.00897
0.42394,0.1431,-0.89431,-0.00239,0.01233,-0.00107
0.4244,0.14324,-0.89407,-0.00196,0.01382,0.00481
0.42465,0.14317,-0.89396,-0.01625,-0.00098,-0.00138
0.42506,0.14318,-0.89377,-0.01878,0.00083,-0.00931
0.4257,0.14342,-0.89343,-0.02314,0.00281,-0.01543
0.42645,0.14379,-0.89301,-0.02679,0.00363,-0.01918
0.42725,0.14416,-0.89256,-0.01568,0.01133,-0.01597
0.42766,0.14438,-0.89233,-0.00668,0.01299,-0.00902
0.42758,0.14439,-0.89237,0.00284,0.01387,-0.00246
0.42718,0.14429,-0.89258,0.00626,0.01173,-0.00087
0.42661,0.14416,-0.89287,0.01414,0.02268,0.00059
0.42594,0.14396,-0.89322,0.00379,0.0113,-0.00064
0.4256,0.1438,-0.89341,0.0051,0.00998,0.00029
0.42568,0.14381,-0.89338,0.00606,0.00555,0.00638
0.42607,0.14397,-0.89316,-0.00017,-0.0024,0.00249
0.42693,0.14436,-0.89269,-0.00105,-0.00158,0.00162
0.42838,0.14512,-0.89187,-0.01056,-0.00273,-0.00349
0.42999,0.14602,-0.89094,-0.00899,0.01569,-0.00852
0.43128,0.14673,-0.89021,-0.01026,0.01857,-0.01151
0.4321,0.1471,-0.88975,-0.01014,0.01954,-0.0127
0.43231,0.1472,-0.88963,-0.01607,0.00508,-0.01012
0.43263,0.14733,-0.88945,-0.01639,0.00495,-0.0103
0.43339,0.14785,-0.889,-0.00938,0.00712,-0.01063
0.43434,0.14862,-0.8884,0.00568,0.02377,-0.00797
0.43494,0.14917,-0.88802,0.00224,0.02815,-0.00676
0.43533,0.14938,-0.88779,0.00159,0.02307,-0.00296
0.43553,0.14936,-0.8877,0.00066,0.008,0.00692
0.43578,0.14941,-0.88757,0.00313,-0.01039,0.01254
0.43628,0.14975,-0.88726,0.01543,-0.00996,0.01585
0.43673,0.15006,-0.88699,0.01768,-0.00375,0.01469
0.43705,0.15019,-0.88681,0.00855,-0.00272,0.00934
0.43718,0.15026,-0.88673,0.00843,-0.00188,0.00462
0.43729,0.15031,-0.88667,0.00128,0.0073,0.00304
0.4373,0.15027,-0.88667,-0.00119,0.01803,-0.01053
0.43687,0.15008,-0.88692,-0.00175,0.02256,-0.01422
0.43619,0.14969,-0.88732,-0.00954,0.02301,-0.01336
0.43532,0.14924,-0.88782,-0.01602,0.02728,-0.01473
0.43435,0.14876,-0.88838,-0.01612,0.02301,-0.01806
0.43353,0.14832,-0.88885,-0.01306,0.01941,-0.01943
0.43283,0.14791,-0.88926,-0.01515,0.01469,-0.01434
0.43209,0.14746,-0.8897,-0.01155,0.01216,-0.00772
0.43119,0.14697,-0.89021,-0.00276,0.00419,-0.00383
0.43036,0.14658,-0.89067,0.00643,0.00153,0.00402
0.42953,0.14609,-0.89116,0.00958,-0.00104,0.00326
0.42858,0.14566,-0.89169,0.01184,-0.00413,0.00724
0.42788,0.14541,-0.89206,0.01309,0.00099,0.00576
0.42763,0.1454,-0.89218,0.00764,0.00953,-0.0004
0.42784,0.14553,-0.89206,-0.00327,0.01812,-0.00346
0.4285,0.14569,-0.89172,-0.01029,0.01893,-0.00843
0.42932,0.14591,-0.89129,-0.01156,0.02323,-0.01231
0.43002,0.146,-0.89094,-0.01196,0.02418,-0.01367
0.43012,0.14578,-0.89092,-0.01412,0.0279,-0.01412
0.42941,0.14514,-0.89137,-0.01367,0.00373,-0.0067
0.42836,0.14431,-0.89201,-0.01011,-0.02339,0.00222
0.42763,0.14379,-0.89244,-0.00435,-0.03969,0.01244
0.42746,0.1438,-0.89252,0.00068,-0.03725,0.01499
0.42756,0.14431,-0.8924,0.0098,-0.00683,0.00848
0.42785,0.1449,-0.89216,0.01394,0.01479,0.00155
0.42818,0.14544,-0.89191,0.01559,0.02386,-0.00155
0.42843,0.14562,-0.89176,0.00812,0.0355,-0.00784
0.42855,0.14572,-0.89169,0.01043,0.03738,-0.00853
0.42875,0.1457,-0.8916,-0.00012,0.03555,-0.00951
0.42892,0.14556,-0.89154,-0.00508,0.03051,-0.01229
0.42883,0.1453,-0.89163,-0.0042,0.02024,-0.0089
0.4286,0.14502,-0.89178,-0.00648,0.00924,-0.00574
0.4283,0.14483,-0.89195,-0.00722,-0.0033,-0.0018
0.42803,0.14468,-0.89211,-0.00688,-0.00505,-0.00178
0.42777,0.14457,-0.89225,-0.00745,-0.00336,-0.00127
0.42748,0.14456,-0.89239,-0.01032,0.00619,-0.00768
0.42721,0.1445,-0.89253,-0.00474,0.01533,-0.01029
0.42686,0.14441,-0.89271,-0.00621,0.01975,-0.00827
0.42655,0.14421,-0.89289,-0.00728,0.01798,-0.00437
0.42614,0.14393,-0.89313,-0.00733,0.01183,-0.00272
0.42576,0.14365,-0.89336,-0.0045,0.00355,-0.00276
0.42564,0.14352,-0.89344,-0.0031,0.00117,-0.00052
0.42563,0.14351,-0.89344,-0.00193,7e-05,0.00112
0.42562,0.14354,-0.89344,0.00118,0.0041,0.00158
0.42559,0.14355,-0.89346,0.00402,0.00813,-8e-05
0.42547,0.14347,-0.89353,0.00199,0.00848,0.00216
0.42526,0.14336,-0.89365,0.00222,0.00981,-0.00113
0.42517,0.14333,-0.89369,0.00171,0.01104,-0.00168
0.4252,0.14335,-0.89368,0.00194,0.01084,-0.00271
0.42528,0.14342,-0.89362,0.0014,0.01576,-0.00382
0.42535,0.14344,-0.89359,-0.00047,0.01177,-0.00444
0.42533,0.1434,-0.89361,0.00086,0.01215,-0.00575
0.42516,0.14329,-0.8937,-0.00251,0.01439,-0.00884
0.42497,0.14318,-0.89381,-0.00311,0.01452,-0.0078
0.42481,0.14311,-0.8939,-0.00621,0.01192,-0.01105
0.42483,0.14315,-0.89388,-0.00461,0.00868,-0.01003
0.42502,0.14331,-0.89377,-0.00562,0.0076,-0.00276
0.42514,0.14345,-0.89369,-0.00731,0.01102,-0.00356
0.42523,0.1435,-0.89364,-0.00906,0.00803,-0.00544
0.42531,0.14354,-0.89359,-0.0066,0.00633,-0.00471
0.42539,0.14361,-0.89354,-0.00721,0.00438,-0.00365
0.42554,0.1437,-0.89346,-0.00505,0.00875,-0.00326
0.42571,0.14378,-0.89336,-0.00408,0.00756,-0.00536
0.4258,0.14389,-0.8933,9e-05,0.00968,-0.00134
0.42589,0.14395,-0.89325,0.00046,0.01031,-0.00204
0.42593,0.14401,-0.89322,0.00298,0.01135,-0.00114
0.42593,0.14402,-0.89322,0.00152,0.00996,-0.00097
0.42586,0.14401,-0.89325,0.00343,0.00699,0.0001
0.42587,0.14401,-0.89325,0.00227,0.01153,-0.00142
0.42588,0.144,-0.89325,0.00388,0.01216,-7e-05
0.4258,0.14395,-0.8933,0.00276,0.01012,-0.00258
0.42575,0.14393,-0.89332,-3e-05,0.01048,-0.00304
0.42582,0.14396,-0.89328,-0.00247,0.00951,-0.00313
0.42586,0.14398,-0.89326,-0.00347,0.00908,-0.00536
0.42572,0.14388,-0.89334,-0.00809,0.00571,-0.00206
0.42561,0.1438,-0.89341,-0.00972,0.00546,-0.00721
0.42552,0.14375,-0.89346,-0.01089,0.00731,-0.00725
0.42538,0.14375,-0.89353,-0.00672,0.00725,-0.00444
0.42523,0.14373,-0.8936,-0.00508,0.00509,-0.00583
0.42504,0.14374,-0.89369,0.00315,0.01126,-0.00337
0.42476,0.1437,-0.89382,0.0072,0.01416,-0.00283
0.42437,0.14358,-0.89404,0.00746,0.01693,-0.00219
0.42389,0.14343,-0.89428,0.0062,0.01708,-0.00324
0.42363,0.14331,-0.89443,0.00257,0.01471,-0.00421
0.42363,0.14328,-0.89443,-0.00021,0.01271,-0.001
0.42382,0.14331,-0.89434,-0.00299,0.01042,-0.00488
0.42421,0.14347,-0.89412,-0.00284,0.00826,-0.0068
0.42478,0.14374,-0.89381,-0.00271,0.00926,-0.00249
0.42539,0.14398,-0.89348,-0.01055,0.00713,-0.00654
0.42579,0.14418,-0.89326,-0.0075,0.01063,-0.00588
0.42592,0.14427,-0.89318,-0.00737,0.00833,-0.00954
0.42602,0.14438,-0.89312,0.00097,0.01635,-0.0059
0.4259,0.14434,-0.89318,-0.00852,0.00434,-0.00271
0.42569,0.1443,-0.89329,-0.00054,0.0076,0.00046
0.42543,0.14422,-0.89343,-0.00282,0.00739,0.00057
0.4252,0.14418,-0.89354,-0.00068,0.0076,-0.00021
0.4251,0.14418,-0.89359,0.00119,0.00964,-0.00112
0.42511,0.14422,-0.89358,0.00157,0.01394,-0.00156
0.42498,0.14419,-0.89364,0.00178,0.01485,-0.00156
0.42468,0.14406,-0.89381,0.00502,0.01486,0.00045
0.42434,0.14387,-0.894,0.00233,0.01057,-0.00126
0.42404,0.14371,-0.89417,0.00212,0.00949,0.00055
0.42386,0.14358,-0.89427,0.00153,0.00924,-0.0032
0.42382,0.14356,-0.8943,-0.00342,0.00679,-0.00159
0.42395,0.14362,-0.89423,-0.00057,0.01347,-0.00319
0.42406,0.14364,-0.89417,-0.00467,0.00643,-0.00184
0.42411,0.14366,-0.89415,-0.00505,0.00995,-0.00539
0.42416,0.14367,-0.89412,-0.00477,0.01342,-0.00621
0.42425,0.14375,-0.89406,-0.00532,0.01064,-0.00657
0.42431,0.14377,-0.89403,-0.00599,0.01166,-0.0066
0.42431,0.14379,-0.89402,-0.00243,0.01173,-0.00539
0.42428,0.14377,-0.89405,-0.00321,0.0106,-0.00352
0.42408,0.1437,-0.89415,-0.00085,0.00672,-0.00281
0.42382,0.14363,-0.89428,-0.00294,0.00703,-0.00177
0.42366,0.14357,-0.89437,-0.00425,0.00513,-0.00524
0.4234,0.1435,-0.8945,-0.00186,0.00925,-0.00206
0.4231,0.1434,-0.89466,0.00115,0.00808,-0.00403
0.42291,0.14336,-0.89476,0.00049,0.01385,-0.00333
0.42284,0.14332,-0.8948,-0.00035,0.01011,-0.00413
0.42279,0.14333,-0.89482,0.00056,0.01174,-0.00504
0.4229,0.14342,-0.89476,0.00174,0.0116,-0.0028
0.42311,0.14356,-0.89463,-0.00272,0.01005,-0.00356
0.42333,0.14369,-0.89451,-0.00049,0.01395,-0.00252
0.42346,0.14374,-0.89444,-0.002,0.01365,-0.00698
0.42355,0.14379,-0.89439,-0.00241,0.01074,-0.00367
0.42362,0.14378,-0.89435,-0.00503,0.00789,-0.00399
0.42363,0.14376,-0.89435,-0.00292,0.00683,-0.00402
0.42359,0.14372,-0.89438,-0.00183,0.00728,-0.00143
0.42358,0.14375,-0.89438,-0.00073,0.01041,-0.00244
0.42357,0.14373,-0.89439,-0.00137,0.01146,-0.00397
0.42358,0.14372,-0.89438,-0.00172,0.01074,-0.0053
0.42363,0.14372,-0.89436,-0.00229,0.01022,-0.00218
0.42369,0.14375,-0.89433,-0.00296,0.00855,-0.00243
0.42382,0.1438,-0.89426,-0.00098,0.00743,-0.00352
0.424,0.14388,-0.89416,0.00151,0.00958,-0.00124
0.42411,0.14396,-0.8941,-0.00308,0.01056,-0.00462
0.42421,0.14399,-0.89405,-0.0018,0.01012,-0.00378
0.42428,0.14403,-0.894,-0.00306,0.01125,-0.00654
0.42432,0.14405,-0.89398,-0.00307,0.00965,-0.00449
0.42433,0.14404,-0.89398,-0.00281,0.01049,-0.00385
0.42432,0.14403,-0.89398,-0.00104,0.01045,-0.00528
0.42424,0.144,-0.89403,-0.00103,0.01001,-0.0013
0.42416,0.14397,-0.89407,-0.00227,0.00896,-0.00408
0.42409,0.14394,-0.89411,-0.00015,0.00931,-0.0039
0.42399,0.1439,-0.89416,-0.00021,0.00841,-0.00421
0.42395,0.14389,-0.89418,-0.0002,0.01027,-0.00401
0.42395,0.14389,-0.89418,-0.00335,0.0077,-0.00398
0.42404,0.14392,-0.89414,-0.0031,0.00883,-0.00415
0.42418,0.14399,-0.89406,-0.00285,0.01066,-0.0047
0.42426,0.144,-0.89402,-0.00497,0.00567,-0.00963
0.42432,0.14401,-0.89399,-0.00242,0.01139,-0.00741
0.42428,0.14396,-0.89402,-0.00515,0.00988,-0.00404
0.42419,0.14392,-0.89406,-0.00398,0.0086,-0.00784
0.42406,0.14386,-0.89413,-0.00248,0.00807,-0.00417
0.42406,0.14385,-0.89414,-0.00208,0.00667,-0.00087
0.42398,0.14386,-0.89417,-0.00375,0.00817,-0.0024
0.42392,0.14388,-0.8942,-0.00305,0.01254,-0.00451
0.42388,0.1439,-0.89422,0.00023,0.01041,-0.00694
0.42397,0.14395,-0.89416,-0.00244,0.01092,-0.00435
0.42409,0.14399,-0.8941,-0.00197,0.00921,-0.00229
0.42414,0.14401,-0.89407,-0.00109,0.00864,-0.00154
0.42414,0.144,-0.89408,-0.00364,0.00903,-0.00218
0.42415,0.14399,-0.89407,-0.00119,0.00698,-0.00099
0.4242,0.14402,-0.89405,-0.00266,0.01063,-0.00227
0.42423,0.14402,-0.89403,-0.00106,0.00673,-0.00537
0.42429,0.14406,-0.894,-0.00412,0.00926,-0.00363
0.42434,0.14408,-0.89397,-0.00285,0.00746,-0.00484
0.42438,0.14408,-0.89395,-0.0021,0.00742,-0.00359
0.42438,0.14405,-0.89395,-0.00498,0.00809,-0.00488
0.42439,0.14406,-0.89395,-0.00249,0.00784,-0.00338
0.42449,0.14413,-0.89389,-0.00154,0.00906,-0.00543
0.42463,0.14419,-0.89381,-0.00136,0.01102,-0.00308
0.42465,0.14419,-0.8938,-0.00347,0.01001,-0.00268
0.4246,0.14415,-0.89383,-0.0019,0.01071,-0.00419
0.42455,0.14413,-0.89386,-0.00098,0.01091,-0.00467
0.42456,0.14413,-0.89385,-0.00173,0.01043,-0.00432
0.42461,0.14413,-0.89383,-0.00235,0.0083,-0.00127
0.42465,0.14419,-0.8938,-0.00369,0.00981,-0.0047
0.42466,0.1442,-0.8938,-0.00277,0.00923,-0.00438
0.42467,0.14421,-0.89379,-0.00482,0.00892,-0.00408
0.42469,0.14423,-0.89378,-0.00362,0.00975,-0.00375
0.4247,0.14425,-0.89377,-0.00314,0.00826,-0.00551
0.42471,0.14426,-0.89376,-0.00287,0.00844,-0.00526
0.42469,0.14428,-0.89377,-0.00086,0.00895,-0.00395
0.42463,0.14425,-0.8938,0.00091,0.0104,-0.001
0.42443,0.14411,-0.89392,0.00071,0.00956,-0.00142
0.42414,0.14396,-0.89408,0.00243,0.01065,-0.00456
0.42387,0.1438,-0.89424,0.0017,0.00952,-0.00345
0.42352,0.14361,-0.89443,0.00122,0.0099,-0.00469
0.4232,0.14348,-0.8946,-0.00469,0.00685,-0.00197
0.42283,0.14325,-0.89482,-0.00194,0.01129,-0.00278
0.42256,0.14305,-0.89497,-0.00419,0.00679,-0.01349
0.42267,0.14309,-0.89492,-0.00807,0.00922,-0.0085
0.42293,0.1432,-0.89478,-0.0129,0.0113,-0.00497
0.42313,0.14326,-0.89467,-0.01156,0.00829,-0.00929
0.42334,0.14333,-0.89456,-0.007,0.00847,-0.00682
0.42358,0.14345,-0.89443,-0.00249,0.00688,-0.00514
0.4237,0.14353,-0.89436,-0.00118,0.00841,-0.00243
0.42373,0.14352,-0.89435,-0.00284,0.00849,-0.00345
0.42353,0.14343,-0.89445,0.0003,0.00926,0.00101
0.42332,0.14334,-0.89457,0.0022,0.00762,-0.00178
0.42331,0.14332,-0.89458,0.00387,0.0066,-0.00316
0.42345,0.1434,-0.8945,0.00055,0.00713,-0.00205
0.42361,0.1435,-0.8944,-0.00078,0.01012,-0.00081
0.42373,0.14357,-0.89434,0.00069,0.0126,-0.0028
0.42382,0.1436,-0.89429,0.00103,0.00995,-0.00335
0.42397,0.14365,-0.89421,-0.0064,0.00904,-0.0063
0.42419,0.1437,-0.8941,-0.00814,0.00824,-0.00582
0.42431,0.14375,-0.89403,-0.00436,0.00812,-0.00878
0.4243,0.14375,-0.89404,-0.00524,0.00886,-0.00608
0.42418,0.14362,-0.89412,-0.00095,0.0116,-0.00711
0.42403,0.14346,-0.89421,-0.00652,0.00977,-0.00766
0.4242,0.14356,-0.89412,-0.0057,0.00319,-0.00865
0.42485,0.1439,-0.89375,-0.00531,0.00705,-0.00447
0.4256,0.1443,-0.89333,-0.00282,0.00997,-0.00282
0.42624,0.14464,-0.89297,0.00114,0.01149,-0.001
0.42661,0.14481,-0.89277,0.00152,0.00978,4e-05
0.42667,0.14482,-0.89274,0.0045,0.01297,-0.00065
0.42645,0.14469,-0.89286,0.00119,0.00845,-0.00254
0.42619,0.14452,-0.89301,0.00094,0.00865,-0.00347
0.4261,0.14447,-0.89307,-0.00032,0.00748,-0.00317
0.42617,0.14453,-0.89302,-0.00521,0.00684,-0.00442
0.42627,0.14463,-0.89296,-0.00392,0.008,-0.0015
0.42631,0.14466,-0.89294,-0.00856,0.00795,-0.00337
0.42634,0.14468,-0.89292,-0.00762,0.00992,-0.00793
0.42637,0.14472,-0.8929,-0.00619,0.00912,-0.00705
0.42639,0.14478,-0.89288,-0.00448,0.0112,-0.00681
0.42643,0.14488,-0.89284,-0.00376,0.00841,-0.00668
0.4265,0.14502,-0.89279,-0.00551,0.00987,-0.00474
0.42659,0.14508,-0.89273,-0.00409,0.00975,-0.00546
0.42666,0.14513,-0.89269,-0.00332,0.00859,-0.00691
0.42667,0.14514,-0.89269,-0.00351,0.01002,-0.00343
0.42672,0.14513,-0.89266,-0.0035,0.00679,-0.00468
0.42687,0.14516,-0.89259,-0.00254,0.00783,-0.00489
0.42714,0.14532,-0.89243,-0.00568,0.0037,-0.0035
0.42747,0.14549,-0.89225,-0.00182,0.00778,8e-05
0.42754,0.14552,-0.89221,0.00026,0.01073,0.00129
0.42756,0.14554,-0.89219,0.00196,0.01153,-0.00699
0.42762,0.14558,-0.89216,-0.0008,0.01105,-0.00382
0.42771,0.14563,-0.89211,-0.00196,0.00969,-0.00206
0.42786,0.14572,-0.89202,-0.00031,0.00871,-0.00437
0.42798,0.14578,-0.89195,-0.00014,0.00918,-0.00149
0.42797,0.14578,-0.89196,-0.00158,0.00688,-0.0037
0.42795,0.14577,-0.89197,-0.00275,0.00794,-0.00334
0.42814,0.14588,-0.89186,-0.00608,0.00759,-0.00828
0.42845,0.14609,-0.89168,-0.00425,0.00865,-0.00825
0.42885,0.14638,-0.89144,-0.00495,0.01085,-0.007
0.42891,0.14642,-0.8914,-0.00664,0.00937,-0.00383
0.42876,0.14637,-0.89148,-0.00458,0.01102,-0.00644
0.42846,0.14619,-0.89165,-0.01009,0.00769,-0.00556
0.42803,0.14598,-0.8919,-0.00734,0.00482,-0.00839
0.42771,0.14586,-0.89207,-0.0033,0.01033,-0.00481
0.42731,0.14571,-0.89228,-0.00281,0.01009,-0.00324
0.42677,0.14549,-0.89258,0.0032,0.01076,0.00064
0.42611,0.1452,-0.89294,0.00225,0.00915,0.00322
0.42543,0.14487,-0.89332,0.00643,0.00675,0.00033
0.42489,0.14461,-0.89362,0.00408,0.00662,0.00036
0.42468,0.14448,-0.89374,-0.00345,0.00164,0.00057
0.42479,0.1445,-0.89368,-0.00529,0.00497,-0.00335
0.42508,0.14462,-0.89353,-0.00557,0.00839,-0.00764
0.42538,0.14479,-0.89336,-0.01058,0.00983,-0.01179
0.42567,0.14494,-0.8932,-0.01066,0.01217,-0.00826
0.42588,0.14505,-0.89308,-0.00878,0.00901,-0.01038
0.42606,0.14516,-0.89297,-0.0163,0.00062,-0.00972
0.42616,0.1453,-0.8929,-0.00558,0.00697,9e-05
0.4261,0.14535,-0.89293,-0.00507,0.0095,-0.00679
0.42606,0.14539,-0.89294,-0.00171,0.0132,-0.0051
0.42605,0.14541,-0.89294,0.00016,0.01176,-0.00333
0.426,0.14538,-0.89297,0.00286,0.01332,-0.00489
0.42591,0.14535,-0.89302,0.00589,0.01333,-0.00136
0.42577,0.14528,-0.89309,0.0061,0.01187,-0.00043
0.42566,0.1452,-0.89316,0.00186,0.0079,-0.00061
0.42577,0.14523,-0.8931,0.00835,0.01694,0.00307
0.4256,0.14508,-0.8932,-0.00765,0.00204,0.00105
0.42546,0.14502,-0.89328,0.00159,0.0052,-0.00561
0.4254,0.14496,-0.89332,-0.00081,0.00615,-0.00367
0.42541,0.14493,-0.89332,-0.00983,0.00591,-0.00556
0.42539,0.14487,-0.89334,-0.0098,0.00598,-0.00554
0.4253,0.14483,-0.89339,-0.00896,0.00881,-0.00714
0.42522,0.14481,-0.89343,-0.00619,0.00662,-0.00719
0.42523,0.14482,-0.89343,-0.00622,0.00932,-0.00756
0.42524,0.14488,-0.89341,-0.00584,0.00624,-0.00691
0.42518,0.14492,-0.89343,-0.00351,0.00962,-0.00278
0.42507,0.14491,-0.89348,0.00059,0.01279,-0.00486
0.42493,0.14484,-0.89356,-0.00089,0.0118,-0.00294
0.42479,0.14477,-0.89364,0.00168,0.0092,-0.00387
0.42468,0.1447,-0.89371,-8e-05,0.00854,-0.00291
0.42479,0.14478,-0.89364,-0.00082,0.01119,-0.00484
0.42493,0.14484,-0.89356,-0.00362,0.00863,-0.00048
0.42499,0.14484,-0.89353,0.00067,0.00781,-0.00251
0.42506,0.14485,-0.8935,-0.00154,0.00862,-0.00601
0.42512,0.14487,-0.89347,-0.00465,0.00941,-0.005
0.42506,0.14483,-0.8935,-0.00613,0.00744,-0.00486
0.42501,0.14479,-0.89353,-0.00822,0.00936,-0.00588
0.42499,0.14476,-0.89355,-0.00559,0.00522,-0.00544
0.42494,0.14475,-0.89358,-0.00465,0.00726,-0.00653
0.42491,0.14475,-0.89359,-0.00359,0.00842,-0.00419
0.42483,0.14478,-0.89362,-0.00361,0.00764,-0.00636
0.42479,0.14482,-0.89363,-0.00269,0.00857,-0.00543
0.4248,0.14487,-0.89362,-0.00328,0.01038,-0.00459
0.4248,0.14492,-0.89361,-0.0036,0.00926,-0.00413
0.42478,0.14493,-0.89362,-0.00272,0.01019,-0.00732
0.42471,0.1449,-0.89366,-0.00296,0.01164,-0.00423
0.42464,0.14485,-0.8937,-0.00405,0.00778,-0.00323
0.42459,0.14481,-0.89373,-0.0001,0.00681,-0.00523
0.42457,0.14479,-0.89374,-0.00376,0.00714,-0.00019
0.42459,0.14483,-0.89373,-0.0025,0.00756,-0.0037
0.42466,0.14486,-0.89369,-0.00426,0.00771,-0.00464
0.42472,0.14488,-0.89366,-0.00369,0.00797,-0.00554
0.42479,0.1449,-0.89362,-0.00352,0.00911,-0.00492
0.42486,0.14492,-0.89358,-0.00231,0.00914,-0.00275
0.42494,0.14498,-0.89354,-0.00337,0.00759,-0.00112
0.42517,0.14512,-0.8934,-0.00296,0.0081,-0.00452
0.42533,0.1452,-0.89332,-0.0049,0.00577,-0.00358
0.42546,0.14526,-0.89324,-0.00247,0.00748,-0.00579
0.42562,0.14535,-0.89315,-0.00353,0.00847,-0.00296
0.42571,0.14541,-0.8931,-0.00353,0.0098,-0.00338
0.42571,0.1454,-0.8931,-0.00241,0.00963,-0.00585
0.42569,0.14541,-0.89311,-0.00168,0.01008,-0.00527
0.42573,0.14542,-0.89309,-0.00325,0.00987,-0.00424
0.42579,0.14546,-0.89305,-0.00164,0.0102,-0.00493
0.4258,0.14547,-0.89305,-0.0022,0.00876,-0.00194
0.42574,0.14543,-0.89308,-0.00304,0.00909,-0.00423
0.42566,0.14536,-0.89313,-0.00238,0.00714,-0.00326
0.42561,0.14531,-0.89316,-0.00147,0.00853,-0.00327
0.42558,0.14529,-0.89318,-0.00127,0.00739,-0.00295
0.42549,0.14525,-0.89323,0.00135,0.00958,-0.0024
0.42538,0.14521,-0.89329,-0.00269,0.00796,-0.00785
0.42527,0.14516,-0.89335,-0.00259,0.00733,-0.0051
0.42519,0.14511,-0.8934,-0.00545,0.00634,-0.00246
0.42514,0.14506,-0.89343,-0.00461,0.00478,-0.00547
0.42514,0.14508,-0.89342,-0.00495,0.00953,-0.00645
0.42524,0.14515,-0.89336,-0.00297,0.00669,-0.00637
0.42533,0.14524,-0.89331,-0.00407,0.00876,-0.00557
0.42536,0.14534,-0.89328,-0.00242,0.00797,-0.00536
0.42536,0.1454,-0.89327,-0.00254,0.00783,-0.00468
0.42525,0.14541,-0.89332,-0.00278,0.00771,-0.0035
0.42527,0.14547,-0.8933,-0.00258,0.00978,-0.00442
0.42528,0.14549,-0.89329,-0.00509,0.00843,-0.00571
0.42537,0.14552,-0.89324,-0.00501,0.00996,-0.00519
0.42546,0.14554,-0.8932,-0.00314,0.00889,-0.00393
0.4255,0.14556,-0.89318,-0.00428,0.00804,-0.0058
0.42545,0.14552,-0.89321,-0.00293,0.01091,-0.00285
0.42527,0.14544,-0.89331,-0.00234,0.00829,-0.00066
0.42506,0.14538,-0.89342,2e-05,0.00732,-0.00317
0.42476,0.14526,-0.89357,0.0006,0.00651,-0.00111
0.4245,0.14513,-0.89372,0.00209,0.00701,-0.00145
0.42429,0.14505,-0.89384,-9e-05,0.00682,-0.00099
0.42423,0.14504,-0.89386,-0.00092,0.00788,-0.00384
0.42431,0.1451,-0.89382,-0.00274,0.01016,-0.00696
0.42449,0.14521,-0.89371,-0.00685,0.01165,-0.00722
0.4247,0.14531,-0.8936,-0.00815,0.01295,-0.01078
0.42486,0.14539,-0.89351,-0.00686,0.00998,-0.00853
0.42492,0.14542,-0.89348,-0.0082,0.01013,-0.008
0.42493,0.14544,-0.89347,-0.00879,0.00688,-0.00952
0.42501,0.1455,-0.89342,-0.00657,0.00888,-0.00818
0.42507,0.14558,-0.89338,-0.00531,0.00543,-0.00343
0.42512,0.14564,-0.89334,-0.00076,0.00675,-0.00351
0.42516,0.1457,-0.89331,-0.00016,0.0069,-0.00138
0.4252,0.14574,-0.89329,0.00265,0.00667,-0.00257
0.42527,0.14581,-0.89324,0.00237,0.00714,-0.00098
0.42543,0.14589,-0.89316,0.00135,0.00752,-0.00147
0.42556,0.14595,-0.89309,0.00105,0.00767,0.00023
0.42566,0.146,-0.89303,0.00139,0.0103,-0.00332
0.42575,0.14602,-0.89298,-0.0018,0.00955,-0.00241
0.4258,0.14605,-0.89295,-0.00449,0.00878,-0.00584
0.42585,0.14605,-0.89293,-0.00275,0.00713,-0.00688
0.42591,0.14606,-0.8929,-0.00418,0.00674,-0.00588
0.42594,0.14608,-0.89288,-0.0063,0.00608,-0.00545
0.42597,0.14608,-0.89286,-0.00663,0.0071,-0.00679
0.42593,0.1461,-0.89288,-0.00407,0.00931,-0.0054
0.42587,0.14613,-0.8929,-0.00128,0.0065,-0.00553
0.42587,0.14618,-0.8929,-0.00369,0.00731,-0.00324
0.42592,0.14624,-0.89287,-0.00419,0.00891,-0.00368
0.42595,0.1463,-0.89284,-0.00156,0.00963,-0.00522
0.42596,0.14635,-0.89283,-0.00188,0.0076,-0.0041
0.426,0.14637,-0.8928,-0.00292,0.00898,-0.00457
0.42604,0.14638,-0.89278,-6e-05,0.00928,-0.00537
0.42605,0.14641,-0.89278,-0.00486,0.00822,-0.00385
0.42604,0.14641,-0.89278,-0.00107,0.00784,-0.00557
0.42602,0.1464,-0.89279,-0.00464,0.00441,-0.00296
0.42604,0.14639,-0.89278,-0.003,0.00697,-0.00375
0.42605,0.14639,-0.89277,-0.00409,0.00598,-0.00565
0.42607,0.14643,-0.89276,-0.00225,0.00712,-0.00443
0.42612,0.14646,-0.89273,-0.0025,0.00672,-0.00393
0.42615,0.14649,-0.89271,-0.00281,0.00746,-0.00411
0.42624,0.14653,-0.89266,-0.00279,0.00785,-0.00588
0.42633,0.14657,-0.89261,-0.00399,0.00702,-0.0052
0.42641,0.14663,-0.89257,-0.00157,0.01046,-0.00511
0.42645,0.14664,-0.89255,-0.00078,0.0098,-0.00466
0.42648,0.14664,-0.89253,-0.00238,0.00819,-0.0036
0.42644,0.14662,-0.89255,-0.00361,0.00684,-0.00321
0.42642,0.14661,-0.89256,-0.00281,0.00592,-0.0043
0.4264,0.14662,-0.89258,-0.00447,0.0064,-0.00261
0.42638,0.14662,-0.89258,-0.00173,0.00737,-0.0036
0.42637,0.14662,-0.89259,-0.00451,0.00823,-0.00457
0.42635,0.14663,-0.89259,-0.00225,0.00765,-0.00487
0.42635,0.14664,-0.89259,-0.00373,0.00703,-0.00568
0.42641,0.14669,-0.89256,-0.00296,0.00965,-0.00423
0.42646,0.14672,-0.89253,-0.00344,0.00875,-0.00387
0.42649,0.14674,-0.89251,-0.00257,0.00927,-0.00515
0.42646,0.14672,-0.89253,-0.00202,0.00599,-0.00272
0.42641,0.14667,-0.89256,-0.0042,0.00692,-0.00291
0.42635,0.14665,-0.89259,-0.00495,0.00456,-0.00331
0.42634,0.14667,-0.89259,-0.00324,0.00436,-0.00391
0.42643,0.14673,-0.89254,-0.00211,0.00953,-0.00669
0.42651,0.1468,-0.89249,-0.00401,0.01121,-0.0068
0.42652,0.14682,-0.89248,-0.00675,0.00695,-0.00387
0.42648,0.14681,-0.8925,-0.00244,0.00892,-0.00565
0.42638,0.14676,-0.89256,-0.00295,0.00999,-0.00504
0.4263,0.14673,-0.8926,-0.00186,0.00755,-0.00979
0.42625,0.14677,-0.89262,7e-05,0.00585,-0.00707
0.42637,0.14688,-0.89254,-0.00079,0.00885,-0.00243
0.42653,0.14702,-0.89244,-0.00211,0.0064,-0.00386
0.42671,0.14715,-0.89234,-0.00116,0.00927,-0.00323
0.42684,0.14723,-0.89226,-0.0046,0.00623,-0.00474
0.42688,0.14725,-0.89224,-0.00597,0.00898,-0.00638
0.42694,0.14728,-0.89221,-0.00048,0.01128,-0.00561
0.42701,0.1473,-0.89217,-0.00631,0.00679,-0.00438
0.42706,0.14732,-0.89214,-0.0041,0.0058,-0.00332
0.42719,0.1474,-0.89206,-0.0024,0.00531,-0.00714
0.42735,0.1475,-0.89197,-0.00233,0.00668,-0.00332
0.42747,0.14758,-0.8919,-0.0014,0.00537,-0.00361
0.42764,0.14767,-0.89181,-0.00028,0.00595,-0.00607
0.42782,0.14778,-0.8917,0.00106,0.01132,-0.00195
0.42798,0.14789,-0.89161,-0.00308,0.00397,-0.00468
0.42825,0.14805,-0.89145,0.00207,0.01324,-0.0002
0.42834,0.14808,-0.8914,-0.00397,0.00786,-0.00487
0.42836,0.14812,-0.89138,-0.00206,0.00839,-0.00516
0.42837,0.14812,-0.89138,-0.0029,0.00895,-0.00494
0.42842,0.14811,-0.89136,-0.00367,0.00965,-0.00636
0.42846,0.14811,-0.89134,-0.00488,0.0043,-0.00472
0.42851,0.14813,-0.89131,-0.00352,0.00532,-0.00595
0.42856,0.14815,-0.89129,-0.00526,0.00617,-0.00445
0.42854,0.14817,-0.89129,-0.00498,0.00552,-0.00249
0.42849,0.14814,-0.89132,-0.002,0.00631,-0.00364
0.42844,0.14817,-0.89134,-0.00257,0.00729,-0.00388
0.42841,0.14817,-0.89135,-0.00401,0.00577,-0.00417
0.42837,0.14818,-0.89137,-0.00328,0.00752,-0.00455
0.42835,0.1482,-0.89138,-0.00171,0.00869,-0.00584
0.42839,0.14827,-0.89135,-0.00145,0.0097,-0.00656
0.42839,0.14832,-0.89134,-0.00268,0.01082,-0.00634
0.42822,0.14825,-0.89143,-0.00166,0.01229,-0.00574
0.42789,0.14808,-0.89162,-0.00465,0.0115,-0.00605
0.42753,0.14786,-0.89183,-0.00028,0.01174,-0.00603
0.42721,0.14763,-0.89202,-0.00319,0.00393,-0.0048
0.42704,0.14747,-0.89212,-0.00446,0.00328,-0.00077
0.42692,0.1474,-0.89219,-0.00442,0.00055,-0.00219
0.42695,0.14744,-0.89218,-0.004,0.00492,-0.00406
0.42715,0.1475,-0.89207,-0.00531,0.00757,-0.00329
0.42729,0.14765,-0.89198,-0.00075,0.00987,-0.00698
0.42749,0.14779,-0.89186,-0.00208,0.01134,-0.00579
0.42767,0.14792,-0.89175,-0.00316,0.01217,-0.00586
0.42775,0.14796,-0.8917,-0.00356,0.00718,-0.00394
0.42771,0.14793,-0.89173,-0.00351,0.00721,-0.00391
0.42761,0.14789,-0.89179,-0.00159,0.00552,-0.0038
0.42753,0.14786,-0.89183,0.00063,0.00743,-0.00222
0.42758,0.14787,-0.8918,0.00015,0.01079,-0.00255
0.42766,0.14788,-0.89176,-0.00072,0.00961,-0.0035
0.42763,0.14784,-0.89178,-0.00101,0.00777,-0.00307
0.42755,0.14776,-0.89183,-0.00186,0.00457,-0.00261
0.42746,0.14767,-0.8919,-0.00237,0.00839,-0.00216
0.42724,0.14754,-0.89202,-0.00335,0.00581,-0.00323
0.42702,0.14746,-0.89214,-0.00402,0.00815,-0.0065
0.42687,0.14739,-0.89222,-0.00371,0.01221,-0.00634
0.42672,0.14727,-0.89231,-0.00616,0.01158,-0.00594
0.42648,0.1471,-0.89245,-0.00549,0.00814,-0.0066
0.42625,0.14696,-0.89259,-0.00776,0.0052,-0.00553
0.42612,0.1469,-0.89266,-0.00531,0.0057,-0.00365
0.42603,0.14687,-0.89271,-0.00466,0.00579,-0.00568
0.42603,0.14692,-0.8927,0.00111,0.00858,-0.00435
0.42611,0.147,-0.89265,-0.00166,0.00901,-0.00355
0.42618,0.14708,-0.8926,-0.00084,0.01024,-0.00382
0.42616,0.1471,-0.89261,-0.00248,0.00966,-0.00186
0.42609,0.14704,-0.89265,-0.0015,0.00835,-0.00612
0.42601,0.147,-0.89269,-0.00151,0.00531,-0.0048
0.42601,0.14702,-0.8927,-0.00176,0.00677,-0.00435
0.42604,0.14707,-0.89267,0.0002,0.00932,-0.00433
0.426,0.14705,-0.89269,-0.0008,0.00516,-0.00272
0.42591,0.14699,-0.89275,-0.00435,0.00594,-0.00133
0.42578,0.14692,-0.89282,-0.00416,0.00585,-0.00389
0.42574,0.14688,-0.89285,-0.0036,0.00894,-0.00715
0.42578,0.14692,-0.89282,-3e-05,0.0084,-0.00476
0.42585,0.14695,-0.89278,-0.00222,0.00783,-0.0021
0.42585,0.14695,-0.89278,-0.00165,0.00496,-0.00356
0.42571,0.14691,-0.89285,-0.00552,0.00613,-0.00194
0.42561,0.14687,-0.89291,-0.00027,0.00781,-0.00486
0.42551,0.14689,-0.89295,-0.00084,0.01098,-0.00677
0.42547,0.14691,-0.89297,-0.00134,0.00907,-0.00254
0.4254,0.14688,-0.89301,-0.00328,0.00636,-0.00272
0.42531,0.14683,-0.89306,-0.00488,0.0069,-0.00425
0.42524,0.14681,-0.89309,-0.00379,0.00768,-0.00733
0.42518,0.14682,-0.89312,-0.00183,0.00864,-0.00568
0.42517,0.14679,-0.89313,-0.00206,0.00863,-0.00464
0.42514,0.14676,-0.89315,-0.0011,0.00722,-0.00451
0.42514,0.14675,-0.89315,-0.00268,0.00737,-0.00496
0.42511,0.1467,-0.89318,-0.00372,0.00687,-0.00128
0.42501,0.14662,-0.89323,-0.00143,0.00626,-0.0033
0.42489,0.14654,-0.89331,-0.00034,0.00617,-0.00538
0.42471,0.14644,-0.89341,-0.00016,0.00627,-0.00527
0.42457,0.14638,-0.89349,-0.00102,0.00519,-0.00286
0.4246,0.14638,-0.89347,-0.00406,0.00725,-0.00388
0.42476,0.14646,-0.89338,-0.00374,0.00619,-0.00347
0.42489,0.14652,-0.89331,-0.00212,0.00613,-0.00159
0.42503,0.14659,-0.89323,-9e-05,0.0096,-0.00144
0.42507,0.1466,-0.89321,-0.00253,0.00963,-0.0046
0.42491,0.1465,-0.8933,-0.00222,0.00887,-0.00498
0.42472,0.14641,-0.89341,-0.00441,0.00723,-0.00632
0.42463,0.14635,-0.89346,-0.00433,0.00729,-0.00628
0.42464,0.14638,-0.89345,-0.00339,0.00743,-0.00369
0.42462,0.14638,-0.89346,-0.00205,0.00659,-0.00294
0.42462,0.14639,-0.89346,-0.00418,0.00647,-0.00342
0.42461,0.1464,-0.89346,-0.00294,0.0068,-0.00225
0.4246,0.14639,-0.89347,-0.00234,0.00701,-0.00547
0.42461,0.14641,-0.89346,-0.00355,0.0084,-0.00492
0.42471,0.14651,-0.89339,-0.0004,0.01133,-0.00428
0.42487,0.14661,-0.8933,-0.00323,0.00963,-0.00535
0.42493,0.14666,-0.89327,-5e-05,0.01013,-0.00354
0.42479,0.14663,-0.89334,-0.00187,0.00927,-0.00232
0.42457,0.14651,-0.89346,0.00175,0.00978,-0.00552
0.4243,0.14638,-0.89361,0.00088,0.0099,-0.00327
0.42376,0.14612,-0.89391,-0.00795,0.00122,-0.00166
0.42308,0.14584,-0.89428,-0.00299,0.00458,-0.00447
0.42269,0.14572,-0.89448,-0.00171,0.00471,-0.00658
0.42261,0.14573,-0.89452,-0.00018,0.00947,-0.00286
0.42261,0.14578,-0.89451,-0.00271,0.00727,-0.00364
0.42263,0.14582,-0.8945,-0.00524,0.00772,-0.00608
0.42258,0.14583,-0.89451,-0.00422,0.01038,-0.00508
0.42245,0.14579,-0.89458,-0.00082,0.00588,-0.00558
0.42245,0.14577,-0.89459,-0.00137,0.00799,-0.00404
0.42258,0.14582,-0.89452,-0.00357,0.00634,-0.00563
0.42292,0.146,-0.89433,-0.00095,0.00871,-0.0033
0.4232,0.14611,-0.89418,-0.00041,0.00787,-0.00252
0.42343,0.14615,-0.89406,-0.00511,0.00418,-0.00319
0.42352,0.1461,-0.89403,-0.0065,-0.00224,-0.0018
0.4236,0.14611,-0.89399,0.00239,0.00408,-0.00442
0.42379,0.14624,-0.89388,-0.00246,0.0062,-0.00412
0.42414,0.14643,-0.89368,-0.00218,0.00657,-0.00073
0.4244,0.1466,-0.89353,0.00085,0.00988,-0.00471
0.42446,0.14666,-0.89349,-0.00243,0.01096,-0.00235
0.4244,0.14664,-0.89352,0.00293,0.01066,-0.00345
0.424,0.14647,-0.89374,-0.00269,0.00814,-0.00203
0.42327,0.14614,-0.89414,0.0013,0.00916,-0.00276
0.42271,0.14588,-0.89445,0.00266,0.00388,-0.00657
0.42261,0.14581,-0.89451,-0.00403,0.00611,-0.00123
0.42253,0.14578,-0.89455,-0.00968,0.00379,-0.00148
0.42244,0.14581,-0.89459,-0.00196,0.00866,-0.0062
0.42242,0.14588,-0.89459,0.00048,0.01338,-0.00732
0.42253,0.146,-0.89451,-0.00076,0.01504,-0.00861
0.42269,0.14607,-0.89443,-0.00541,0.01087,-0.00508
0.42274,0.14606,-0.8944,-0.00654,0.00767,-0.00603
0.42275,0.14602,-0.8944,-0.00584,0.00413,-0.00327
0.42283,0.14602,-0.89437,-0.00365,0.00079,-0.00253
0.423,0.1461,-0.89427,-0.00197,0.00157,-0.00249
0.42332,0.14631,-0.89409,0.00035,0.00647,-0.00662
0.42376,0.14657,-0.89384,-0.00181,0.01232,-0.00396
0.4241,0.14675,-0.89365,-0.00225,0.01205,-0.00291
0.42417,0.14682,-0.8936,0.00208,0.0136,-0.00461
0.42412,0.14687,-0.89362,0.00496,0.01182,-0.0032
0.42396,0.14681,-0.8937,0.00348,0.01451,-0.00121
0.42363,0.14665,-0.89389,-0.00331,0.00553,-0.00318
0.42355,0.14663,-0.89393,0.00689,0.00884,-0.00033
0.42357,0.14664,-0.89392,0.00552,0.00722,0.00057
0.42362,0.14663,-0.89389,0.00016,0.00811,-0.0016
0.42365,0.14658,-0.89389,-0.00849,0.00203,-0.00144
0.42374,0.14658,-0.89384,-0.00876,0.00225,-0.00478
0.42392,0.14669,-0.89374,-0.00863,0.00611,-0.00816
0.4242,0.14687,-0.89358,-0.01096,0.00569,-0.00837
0.42462,0.1471,-0.89334,-0.00947,0.0057,-0.00743
0.42499,0.14729,-0.89313,-0.01035,0.00678,-0.00915
0.4252,0.14745,-0.89301,-0.00468,0.00886,-0.00407
0.42525,0.1475,-0.89297,-0.00208,0.00916,-0.00232
0.4252,0.1475,-0.893,-0.00128,0.00577,-0.00385
0.4251,0.14752,-0.89305,-0.00137,0.00468,-0.00124
0.42504,0.14758,-0.89306,0.00398,0.00835,-0.00205
0.4251,0.14766,-0.89302,0.0054,0.00993,-0.00075
0.42517,0.14769,-0.89298,0.00434,0.01036,-0.00144
0.42514,0.14763,-0.89301,0.00472,0.00796,-0.00129
0.42505,0.14758,-0.89306,0.00168,0.00811,-0.00266
0.42505,0.14753,-0.89307,-0.00236,0.00451,-0.00358
0.42514,0.14756,-0.89302,-0.00736,0.00651,-0.0046
0.42535,0.14763,-0.89291,-0.00882,0.00659,-0.00454
0.42555,0.1477,-0.8928,-0.01021,0.00557,-0.00722
0.42567,0.14775,-0.89273,-0.00897,0.00612,-0.00853
0.42582,0.14781,-0.89265,-0.00869,0.00601,-0.00824
0.42596,0.14788,-0.89257,-0.00515,0.00671,-0.00743
0.42604,0.14793,-0.89253,-0.00456,0.00803,-0.00437
0.42602,0.14793,-0.89254,-0.00355,0.00621,-0.00186
0.42603,0.14793,-0.89254,0.00168,0.00758,-0.00415
0.42607,0.14798,-0.89251,0.00258,0.00621,-0.00282
0.42616,0.14807,-0.89245,0.00441,0.00433,-0.00086
0.4263,0.14819,-0.89236,0.00444,0.00853,0.00113
0.42636,0.14829,-0.89232,0.00358,0.00659,0.0007
0.42645,0.14835,-0.89226,0.00081,0.00816,-0.00338
0.42655,0.14842,-0.89221,-0.00217,0.01064,-0.00587
0.42661,0.14845,-0.89217,-0.00515,0.01026,-0.00653
0.42657,0.1484,-0.8922,-0.00675,0.01036,-0.0074
0.4264,0.1483,-0.89229,-0.00436,0.00783,-0.00529
0.42616,0.14814,-0.89243,-0.00708,0.0073,-0.00697
0.4259,0.14799,-0.89258,-0.00552,0.00443,-0.00497
0.42571,0.14789,-0.89269,-0.00634,0.00641,-0.0033
0.4256,0.14782,-0.89275,-0.00355,0.00593,-0.00439
0.42559,0.14779,-0.89277,-0.00023,0.00709,-0.00399
0.42559,0.14779,-0.89277,-0.00155,0.00472,-0.00125
0.42565,0.14781,-0.89273,-0.00054,0.00394,-0.00169
0.42571,0.14783,-0.8927,-0.00074,0.0057,-0.00186
0.42574,0.14786,-0.89268,-0.0006,0.00529,-0.00339
0.42582,0.14793,-0.89263,-0.00013,0.00693,-0.00638
0.42612,0.14813,-0.89246,0.00254,0.00809,-0.00592
0.42652,0.14836,-0.89223,-0.00137,0.00902,-0.00389
0.42673,0.14842,-0.89212,-0.00365,0.00992,-0.00374
0.42675,0.14838,-0.89211,-0.00373,0.01014,-0.00422
0.42669,0.14834,-0.89215,-0.00877,0.00163,-0.00653
0.4266,0.14828,-0.8922,-0.00904,0.00162,-0.00479
0.42654,0.14822,-0.89224,-0.00569,0.00231,-0.00469
0.42653,0.14825,-0.89224,-0.00342,0.00852,-0.00511
0.42647,0.14824,-0.89227,-0.00524,0.0072,-0.00464
0.42634,0.14817,-0.89235,-0.00637,0.00668,-0.00446
0.42616,0.14809,-0.89244,-0.00104,0.00767,-0.00558
0.42603,0.14806,-0.89251,-0.00065,0.00752,-0.00573
0.42601,0.14806,-0.89252,0.00107,0.00673,-0.00517
0.42602,0.14808,-0.89251,0.00043,0.00565,-0.00126
0.42608,0.14812,-0.89248,-0.0007,0.00565,-0.00247
0.42611,0.14816,-0.89246,-0.00107,0.00784,-0.00451
0.42614,0.14819,-0.89244,0.00102,0.00723,-0.00348
0.42617,0.14825,-0.89241,-0.00074,0.00656,-0.00676
0.42655,0.14854,-0.89218,0.00319,0.0107,-0.00883
0.42691,0.14869,-0.89199,0.00324,0.01048,0.00116
0.42686,0.14864,-0.89202,-0.00299,0.00731,-0.0074
0.42675,0.14856,-0.89209,-0.02128,-0.00067,-0.00434
0.42674,0.14852,-0.8921,-0.00764,0.00509,-0.00616
0.42676,0.14857,-0.89208,-0.00519,0.00401,-0.00561
0.42682,0.14862,-0.89204,-0.00063,0.00931,-0.00606
0.42669,0.14855,-0.89212,-0.0013,0.0093,-0.00331
0.42633,0.14836,-0.89232,-0.00225,0.00815,-0.00487
0.42582,0.1481,-0.89261,0.00182,0.00734,-0.00142
0.42535,0.14788,-0.89286,0.00654,0.00741,-0.00379
0.42508,0.14777,-0.89301,0.00557,0.00597,-0.00027
0.42502,0.14774,-0.89305,0.00395,0.00624,0.00308
0.42502,0.14771,-0.89305,0.00185,0.00567,-0.00023
0.42505,0.1477,-0.89304,-0.00234,0.00289,-0.00221
0.42518,0.14778,-0.89296,-0.0068,0.00251,-0.00378
0.42542,0.14794,-0.89282,-0.00621,0.00721,-0.008
0.4257,0.14812,-0.89266,-0.00771,0.01239,-0.0117
0.42592,0.14826,-0.89253,-0.01163,0.01205,-0.0103
0.42596,0.14826,-0.89251,-0.00906,0.0082,-0.00587
0.42578,0.14817,-0.89261,-0.00665,0.00588,-0.00647
0.42553,0.14806,-0.89275,-0.00152,0.00257,-0.00372
0.42539,0.14801,-0.89282,-0.00127,0.0046,-0.00374
0.42546,0.14808,-0.89278,-0.00052,0.00753,-0.00068
0.42554,0.14813,-0.89274,-0.00079,0.00293,-0.00225
0.42566,0.14818,-0.89267,-0.00072,0.00455,-0.00231
0.42574,0.14819,-0.89263,-0.00086,0.0043,-0.00346
0.42581,0.14822,-0.89259,-0.00011,0.00662,-0.00205
0.42584,0.14825,-0.89257,0.00195,0.00923,-0.00274
0.42586,0.14825,-0.89256,-0.00012,0.00785,-0.00313
0.42588,0.14826,-0.89255,-0.00265,0.00687,-0.00419
0.42597,0.1483,-0.8925,-0.00164,0.00601,-0.00661
0.42624,0.14845,-0.89235,-0.00193,0.00884,-0.00463
0.42654,0.14861,-0.89218,-0.0014,0.00544,-0.00193
0.42671,0.14871,-0.89208,-0.00095,0.00565,-0.00261
0.42675,0.14873,-0.89206,-0.00087,0.00593,-0.0016
0.42674,0.14874,-0.89206,0.00067,0.00628,-0.00411
0.42674,0.14872,-0.89206,-0.00174,0.00833,-0.00391
0.42666,0.14866,-0.89211,-0.0017,0.00893,-0.00314
0.42643,0.1485,-0.89225,-0.00412,0.0078,-0.00454
0.42615,0.14831,-0.89241,-0.00206,0.0096,-0.00458
0.42596,0.14818,-0.89252,-0.0029,0.00468,-0.00384
0.42593,0.14815,-0.89254,-0.00307,0.00419,-0.00399
0.42599,0.14818,-0.89251,-0.00328,0.00499,-0.00323
0.42608,0.14824,-0.89246,-0.00364,0.00855,-0.00731
0.42609,0.14826,-0.89245,-0.00174,0.01063,-0.00728
0.42607,0.14825,-0.89246,-0.00624,0.00751,-0.00613
0.42611,0.1483,-0.89243,-0.00361,0.00748,-0.00831
0.42661,0.14862,-0.89214,0.00302,0.00975,-0.00608
0.42742,0.14905,-0.89168,-0.00192,0.01129,-0.00102
0.42799,0.14933,-0.89136,-0.00125,0.00736,0.00354
0.42806,0.14934,-0.89133,0.00152,0.00642,-0.00078
0.42787,0.1492,-0.89144,0.00017,0.0047,-0.00243
0.42762,0.14903,-0.89159,0.00162,0.00214,-0.00377
0.4275,0.14894,-0.89166,-0.00366,0.00447,-0.00186
0.42752,0.14893,-0.89165,-0.00426,0.00573,-0.00272
0.42749,0.14889,-0.89168,-0.00361,0.01026,-0.00307
0.42741,0.14878,-0.89173,-0.00684,0.00532,-0.00619
0.42738,0.1487,-0.89176,-0.00797,0.00746,-0.00634
0.42722,0.14859,-0.89186,-0.00664,0.00676,-0.00562
0.42684,0.14839,-0.89207,-0.00663,0.00578,-0.00536
0.42638,0.14812,-0.89234,-0.00194,0.00431,-0.00412
0.42596,0.14789,-0.89258,-0.0001,0.00492,-0.00202
0.42574,0.14775,-0.8927,0.00275,0.00465,-0.0034
0.42557,0.14769,-0.89279,0.00161,0.00667,-0.00047
0.42544,0.14764,-0.89286,0.00336,0.00665,0.00077
0.42532,0.14755,-0.89294,0.00463,0.00646,-0.00209
0.42518,0.14748,-0.89301,0.00159,0.00379,-0.00323
0.4251,0.14743,-0.89306,0.00227,0.00677,-0.00057
0.4252,0.14751,-0.893,0.00021,0.00675,-0.00576
0.42551,0.14773,-0.89282,-0.00215,0.00579,-0.00385
0.42598,0.14801,-0.89254,-0.00458,0.00636,-0.00598
0.42649,0.14832,-0.89225,-0.00351,0.00909,-0.00564
0.42684,0.1485,-0.89205,-0.00579,0.01101,-0.00605
0.42705,0.14857,-0.89194,-0.006,0.01095,-0.00616
0.42706,0.14855,-0.89194,-0.00682,0.0067,-0.00566
0.42694,0.14845,-0.89201,-0.00185,0.0067,-0.00359
0.42681,0.14838,-0.89209,-0.00304,0.00245,-0.00438
0.42671,0.14834,-0.89214,-0.00287,0.00598,-0.00574
0.42639,0.1482,-0.89232,-0.00284,0.00569,-0.0065
0.42609,0.14805,-0.89248,0.00019,0.00675,-0.00489
0.42589,0.14797,-0.89259,0.00211,0.00676,-0.00208
0.42574,0.14791,-0.89267,0.00162,0.00662,-0.00132
0.4256,0.14787,-0.89275,0.00431,0.008,0.00087
0.42531,0.14775,-0.89291,0.00091,0.00774,0.00083
0.42502,0.14761,-0.89307,0.00087,0.0087,-0.00575
0.42488,0.14753,-0.89315,0.00133,0.01046,-0.00561
0.42472,0.14743,-0.89324,-0.00201,0.00978,-0.00398
0.42439,0.14726,-0.89342,-0.00299,0.00827,-0.00408
0.42392,0.14703,-0.89369,-0.00166,0.00625,-0.00245
0.42351,0.14683,-0.89391,-0.00245,0.00339,-0.00479
0.42336,0.14672,-0.894,-0.00449,0.00486,-0.00807
0.4234,0.14672,-0.89398,-0.00722,0.00275,-0.00557
0.42341,0.14677,-0.89397,-0.00501,0.00381,-0.00407
0.42334,0.14676,-0.89401,-0.00267,0.00771,-0.00356
0.4233,0.14674,-0.89403,-0.0017,0.00887,-0.00299
0.42332,0.14677,-0.89401,-0.00096,0.00839,-0.00462
0.42334,0.14676,-0.894,-0.00119,0.00506,-0.00221
0.42325,0.14672,-0.89405,-0.00214,0.00553,-0.00301
0.42312,0.14666,-0.89413,-0.00118,0.00505,-0.00361
0.42295,0.14659,-0.89422,0.00173,0.00788,-0.0021
0.42284,0.14655,-0.89427,0.00036,0.00755,-0.0049
0.42276,0.14649,-0.89432,-0.00021,0.00797,-0.00456
0.4226,0.14644,-0.89441,-0.00124,0.00554,-0.00307
0.42241,0.14635,-0.89451,-0.00269,0.00413,-0.00242
0.42219,0.14624,-0.89464,-0.00442,0.0063,-0.0038
0.42202,0.14617,-0.89473,-8e-05,0.00949,-0.00696
0.42191,0.14612,-0.89478,-0.00277,0.00645,-0.00606
0.42188,0.14611,-0.8948,-0.00397,0.00649,-0.00545
0.42191,0.14611,-0.89479,-0.00416,0.00822,-0.00612
0.42191,0.14612,-0.89478,-0.0028,0.00754,-0.00344
0.42187,0.1461,-0.89481,-0.003,0.00727,-0.00399
0.42183,0.14608,-0.89483,-0.0024,0.00433,-0.00523
0.42184,0.14609,-0.89482,-0.00098,0.00398,-0.00448
0.42187,0.14613,-0.8948,-0.00021,0.00277,-0.00134
0.4219,0.14616,-0.89479,-0.00153,0.00513,-0.00039
0.42198,0.14623,-0.89473,0.00098,0.00744,-0.00489
0.42207,0.1463,-0.89468,-0.0003,0.00878,-0.00385
0.42216,0.14635,-0.89463,0.00051,0.00685,-0.00515
0.42224,0.14638,-0.89459,-0.00062,0.00799,-0.00751
0.42229,0.14644,-0.89455,-0.00426,0.01056,-0.00619
0.42235,0.14644,-0.89453,-0.00291,0.0048,-0.00573
0.42239,0.14644,-0.89451,-0.00376,0.00375,-0.00455
0.42249,0.1465,-0.89445,-0.00417,0.0008,-0.00148
0.42263,0.14663,-0.89436,-0.00367,0.00655,-0.00764
0.42279,0.14676,-0.89427,-0.00258,0.01364,-0.00663
0.42291,0.1468,-0.8942,-0.00116,0.01291,-0.00868
0.4228,0.14675,-0.89426,0.00095,0.00717,-0.00514
0.42259,0.14663,-0.89438,0.00337,0.00144,0.00017
0.4224,0.14653,-0.89449,0.00434,0.00021,0.00223
0.42228,0.14654,-0.89454,0.00434,0.00479,0.00083
0.42216,0.14653,-0.8946,0.00374,0.0064,0.00158
0.42197,0.14646,-0.8947,0.00317,0.00851,-0.00365
0.42187,0.14635,-0.89477,-0.00161,0.00735,-0.00385
0.42196,0.14634,-0.89473,-0.00141,0.00664,-0.00418
0.42215,0.14643,-0.89462,-0.00353,0.00747,-0.00902
0.42244,0.1466,-0.89446,-0.00549,0.00548,-0.00985
0.42268,0.14679,-0.89431,-0.00447,0.00963,-0.00545
0.42279,0.14684,-0.89425,-0.00414,0.00433,-0.00164
0.42277,0.14685,-0.89426,-0.00473,0.00433,-0.00337
0.42272,0.14684,-0.89428,-0.00308,0.00497,-0.00327
0.42278,0.14691,-0.89425,-0.00204,0.00735,-0.00561
0.42299,0.14704,-0.89413,-0.00014,0.00883,-0.00323
0.42321,0.14714,-0.894,-0.00054,0.00815,-0.00266
0.42328,0.14718,-0.89396,-0.00049,0.00776,-0.00196
0.42327,0.14717,-0.89397,-0.00278,0.00574,-0.00308
0.42326,0.14717,-0.89398,0.00159,0.0084,-0.00359
0.42333,0.14719,-0.89394,0.00383,0.00683,-0.0056
0.42334,0.14719,-0.89393,-0.00024,0.01,-0.00347
0.42325,0.14714,-0.89399,-0.00361,0.00841,-0.00248
0.42301,0.147,-0.89412,-0.00572,0.00371,-0.00195
0.4228,0.14692,-0.89423,0.00064,0.00782,-0.0062
0.42281,0.14694,-0.89423,-0.00028,0.00651,-0.00772
0.423,0.14702,-0.89412,-0.0044,0.00595,-0.00451
0.42316,0.1471,-0.89404,-0.00415,0.00795,-0.00662
0.42313,0.14712,-0.89405,-0.00285,0.0071,-0.00611
0.42298,0.14705,-0.89413,-0.00356,0.00708,-0.00718
0.42281,0.14697,-0.89422,0.00021,0.00634,-0.00457
0.42272,0.14693,-0.89427,0.00038,0.00348,-0.00276
0.42269,0.14693,-0.89428,-5e-05,0.0073,-0.00219
0.42267,0.14692,-0.89429,-0.00112,0.00632,-0.00182
0.42266,0.14691,-0.8943,-0.00039,0.00735,-0.00246
0.42262,0.14687,-0.89433,0.00162,0.0061,-0.00261
0.4226,0.14684,-0.89434,-0.00073,0.00382,-0.00378
0.42265,0.14685,-0.89431,-0.0029,0.00488,-0.00313
0.42272,0.14688,-0.89428,-0.00263,0.00766,-0.00488
0.42269,0.14687,-0.89429,-0.00364,0.00572,-0.00485
0.4226,0.14681,-0.89435,-0.00417,0.00422,-0.00261
0.42242,0.14674,-0.89445,-0.00068,0.00565,-0.00663
0.42224,0.14666,-0.89454,-0.00203,0.00591,-0.00585
0.42204,0.14659,-0.89465,-0.00053,0.00843,-0.00466
0.42186,0.14653,-0.89474,-0.00127,0.00636,-0.00217
0.42179,0.14648,-0.89478,-0.00193,0.00687,-0.00286
0.42175,0.14648,-0.8948,-0.00359,0.00524,-0.00439
0.42175,0.14649,-0.8948,-0.00449,0.00586,-0.00597
0.42182,0.14655,-0.89476,-0.00441,0.00802,-0.00479
0.42191,0.14661,-0.8947,-0.00316,0.00903,-0.00543
0.42199,0.14666,-0.89466,-0.00266,0.00779,-0.00625
0.42202,0.14669,-0.89464,-0.00165,0.00915,-0.00323
0.42203,0.14671,-0.89463,-2e-05,0.00818,-0.00515
0.42197,0.14668,-0.89466,0.00096,0.00786,-0.00391
0.42187,0.14663,-0.89472,0.00173,0.00525,-0.00173
0.42172,0.14657,-0.8948,0.00289,0.00457,-0.00064
0.42161,0.14652,-0.89486,0.00207,0.00483,-0.00065
0.42157,0.14653,-0.89488,0.00241,0.00194,-0.00049
0.42162,0.14657,-0.89485,-0.00051,0.00469,-0.00162
0.42166,0.14661,-0.89482,-0.00084,0.0067,-0.00204
0.42167,0.1466,-0.89482,-0.00744,0.00262,-0.007
0.42164,0.1466,-0.89484,-0.00748,0.00488,-0.00612
0.42172,0.14669,-0.89478,-0.01007,0.00442,-0.01185
0.42195,0.14691,-0.89464,-0.01067,0.00524,-0.00801
0.42227,0.14711,-0.89445,-0.00907,0.00723,-0.01059
0.42261,0.14738,-0.89425,-0.0081,0.00592,-0.01337
0.42265,0.14751,-0.89421,-0.00357,0.00652,-0.00594
0.42272,0.14762,-0.89415,-0.00043,0.0075,-0.00672
0.42282,0.14776,-0.89409,0.00822,0.00935,0.0039
0.4228,0.14781,-0.89409,0.00942,0.00899,0.0011
0.42264,0.14781,-0.89416,0.01313,0.01007,0.00108
0.42254,0.14772,-0.89423,0.00741,0.0067,0.00279
0.42227,0.14756,-0.89438,0.00606,0.00793,0.00388
0.42197,0.14736,-0.89455,0.00138,0.0057,7e-05
0.42166,0.14712,-0.89474,-0.00097,0.0026,-0.00175
0.42141,0.14696,-0.89488,-0.00154,0.0055,-0.00437
0.42129,0.14685,-0.89496,-0.00701,0.00232,-0.00595
0.42125,0.14682,-0.89498,-0.01202,0.00101,-0.0088
0.42132,0.14685,-0.89495,-0.01777,0.00169,-0.00793
0.42148,0.14696,-0.89485,-0.01308,0.00753,-0.00757
0.42161,0.14705,-0.89477,-0.01268,0.00833,-0.01421
0.42161,0.1471,-0.89477,-0.0082,0.01221,-0.0107
0.42163,0.14715,-0.89475,-0.00599,0.00516,-0.01135
0.42172,0.14723,-0.89469,-0.00749,4e-05,-0.00815
0.42204,0.14747,-0.8945,0.00234,0.01297,-0.00477
0.42226,0.14762,-0.89437,0.00317,0.00946,-0.00065
0.42248,0.14777,-0.89424,0.00957,0.00779,-0.00136
0.42284,0.14798,-0.89404,0.00987,0.00701,0.00468
0.42318,0.14816,-0.89385,0.00646,0.00539,-0.00039
0.42355,0.14833,-0.89364,0.00391,0.00464,-0.0004
0.42404,0.14851,-0.89338,-0.00447,0.00502,-0.00193
0.42458,0.14872,-0.89309,-0.00383,0.00238,-0.00354
0.42497,0.14889,-0.89288,-0.00355,0.00466,-0.00658
0.42523,0.149,-0.89274,-0.00636,0.01158,-0.0061
0.4252,0.14899,-0.89275,-0.00633,0.01159,-0.00608
0.42486,0.14883,-0.89294,-0.00395,0.00989,-0.00512
0.42421,0.14852,-0.8933,-0.00154,0.00795,-0.00286
0.4235,0.14811,-0.89371,-0.00121,0.0067,-0.0034
0.42296,0.14779,-0.89402,-0.00056,0.00457,-0.00334
0.42269,0.14762,-0.89417,-0.00176,0.00472,-0.00278
0.42266,0.14759,-0.89419,-0.00181,0.00463,-0.00475
0.42275,0.14763,-0.89414,-0.00216,0.00441,-0.00256
0.42277,0.14762,-0.89413,-0.00505,0.00832,-0.00791
0.42269,0.14757,-0.89418,-0.00605,0.00574,-0.00549
0.42257,0.1475,-0.89425,-0.00438,0.00791,-0.0079
0.42247,0.14744,-0.8943,-0.00507,0.00805,-0.01045
0.42248,0.14743,-0.8943,-0.00506,0.00361,-0.00697
0.4226,0.14748,-0.89424,-0.00556,0.00604,-0.0063
0.42277,0.14758,-0.89414,-0.00065,0.00695,-0.00494
0.42291,0.14765,-0.89406,-0.00027,0.00515,-0.00459
0.42297,0.1477,-0.89402,0.00073,0.00231,-0.00112
0.42314,0.14781,-0.89392,0.0027,0.00664,-0.00205
0.42325,0.14791,-0.89386,0.00319,0.00483,-0.00134
0.42336,0.14799,-0.89379,0.00187,0.00862,-0.00276
0.42347,0.14804,-0.89373,1e-05,0.00522,-0.00115
0.42357,0.14808,-0.89368,-0.00379,0.00417,-0.00296
0.42358,0.1481,-0.89367,-0.00384,0.00421,-0.00451
0.42356,0.1481,-0.89368,-0.00584,0.00488,-0.00359
0.42347,0.14809,-0.89373,-0.00365,0.00796,-0.00755
0.42332,0.14805,-0.8938,-0.00468,0.0061,-0.00666
0.42319,0.14799,-0.89387,-0.0036,0.00804,-0.00705
0.42298,0.14788,-0.89399,-0.00451,0.00525,-0.00542
0.42275,0.14775,-0.89412,-0.00274,0.00595,-0.0063
0.42256,0.14763,-0.89423,-0.00113,0.00473,-0.00451
0.4224,0.14749,-0.89433,-0.00507,0.00285,-0.00158
0.42224,0.14736,-0.89443,-0.005,0.00166,-0.00216
0.42205,0.14725,-0.89454,-0.00453,0.00279,-0.00563
0.42186,0.14717,-0.89464,-0.00142,0.00713,-0.00792
0.42168,0.14708,-0.89474,-0.00281,0.00877,-0.00573
0.42149,0.14699,-0.89484,-0.00193,0.01101,-0.00682
0.42131,0.1469,-0.89494,0.00148,0.00891,-0.00545
0.42115,0.14682,-0.89503,-0.00042,0.00641,-0.00464
0.42098,0.14672,-0.89513,9e-05,0.0047,-0.00391
0.42082,0.14665,-0.89521,6e-05,0.00752,-0.00318
0.42073,0.1466,-0.89526,-0.00122,0.00536,-0.00488
0.42063,0.14653,-0.89532,-0.00139,0.00548,-0.00394
0.42053,0.14646,-0.89538,-0.00043,0.00537,-0.00387
0.42046,0.1464,-0.89542,-0.00454,0.00401,-0.00585
0.42042,0.14638,-0.89545,-0.00266,0.0038,-0.00342
0.42043,0.14639,-0.89544,-0.00419,0.00147,-0.00643
0.42048,0.14641,-0.89541,-0.00304,0.00573,-0.0022
0.42051,0.14644,-0.89539,-0.00393,0.00479,-0.00523
0.42052,0.14644,-0.89539,-0.00405,0.00686,-0.00593
0.42055,0.14645,-0.89537,-0.00311,0.00633,-0.00599
0.42061,0.14648,-0.89534,-0.00216,0.00645,-0.00499
0.42068,0.14653,-0.8953,-0.00101,0.00621,-0.0046
0.42069,0.14654,-0.89529,-0.00034,0.0069,-0.00356
0.42059,0.14648,-0.89535,-0.00243,0.00429,-0.00411
0.42052,0.14643,-0.89539,-0.00126,0.00223,-0.0043
0.4206,0.14647,-0.89534,-0.00443,0.00454,-0.00401
0.42077,0.14657,-0.89525,-0.00106,0.00745,-0.00752
0.42103,0.1467,-0.8951,-0.00254,0.0041,-0.00233
0.42121,0.14675,-0.89501,-0.00396,0.00181,-0.00126
0.42137,0.14682,-0.89493,-0.0026,0.00107,-0.00705
0.42172,0.14712,-0.89471,-0.00119,0.00379,-0.00241
0.42223,0.1475,-0.89441,-0.00222,0.00907,-0.00365
0.42258,0.14773,-0.8942,-0.00153,0.01614,-0.00671
0.42257,0.14774,-0.89421,-0.00152,0.01612,-0.0067
0.42237,0.14757,-0.89433,-0.00313,0.0023,-0.0063
0.42219,0.14743,-0.89444,-0.006,-0.00249,-0.0033
0.4223,0.14746,-0.89438,-0.00604,-0.00508,-0.00239
0.42263,0.14767,-0.89419,-0.00835,-0.00242,-0.0022
0.42313,0.14797,-0.8939,-0.0057,0.00117,-0.00455
0.42365,0.14828,-0.89361,-0.00359,0.00887,-0.00823
0.42398,0.14845,-0.89342,-0.00485,0.01294,-0.00657
0.42395,0.14841,-0.89344,-0.00511,0.00923,-0.00895
0.42358,0.14823,-0.89365,-0.00583,0.00929,-0.00659
0.42304,0.14797,-0.89395,0.00407,0.00895,-0.00279
0.42264,0.14779,-0.89417,0.01009,0.00614,-0.00274
0.42254,0.14774,-0.89422,0.01008,0.00322,-0.00101
0.4228,0.14786,-0.89408,0.00948,0.00185,0.00121
0.42325,0.14808,-0.89383,0.00723,0.00434,0.00159
0.42356,0.14828,-0.89365,0.00131,0.00625,-0.0007
0.42371,0.14841,-0.89356,0.00053,0.01235,-0.00683
0.42374,0.14843,-0.89354,-0.00309,0.01461,-0.00716
0.42376,0.14833,-0.89355,-0.00919,0.00814,-0.00619
0.42348,0.14807,-0.89372,-0.00917,0.00269,-0.0059
0.42295,0.14777,-0.89402,-0.01148,0.0005,-0.00774
0.42245,0.14752,-0.8943,-0.01347,0.00082,-0.00662
0.42213,0.1473,-0.89449,-0.01181,-0.00012,-0.01021
0.42192,0.14721,-0.8946,-0.00917,-0.00203,-0.00551
0.42185,0.14717,-0.89464,-0.0085,-0.00208,-0.00578
0.42189,0.1472,-0.89462,-0.00311,-0.00024,-0.00377
0.42204,0.1473,-0.89453,-0.00352,0.00249,-0.00116
0.42222,0.14744,-0.89442,-9e-05,0.00399,-0.00096
0.42227,0.14753,-0.89438,0.00361,0.00847,-0.00416
0.42227,0.14757,-0.89438,0.00423,0.00967,-0.00354
0.42232,0.14764,-0.89434,0.00454,0.01119,-0.00477
0.42247,0.14772,-0.89426,0.00588,0.01262,-0.00514
0.42263,0.14779,-0.89417,0.00453,0.01117,-0.00579
0.42284,0.14788,-0.89405,0.00127,0.00741,-0.002
0.42322,0.148,-0.89386,-0.00119,0.0062,-0.0045
0.42365,0.14817,-0.89363,-0.0057,0.00433,-0.00446
0.42411,0.14836,-0.89338,-0.00424,0.00566,-0.00694
0.42467,0.14858,-0.89307,-0.00455,0.00784,-0.00954
0.42527,0.14883,-0.89275,-0.00637,0.0075,-0.0054
0.42568,0.14895,-0.89253,-0.00913,0.00417,-0.00577
0.42592,0.14902,-0.8924,-0.00733,0.00433,-0.00642
0.42617,0.1491,-0.89227,-0.00739,0.00228,-0.00501
0.42634,0.14915,-0.89218,-0.0075,0.00042,-0.00529
0.42642,0.14917,-0.89214,-0.00695,-0.00173,-0.00436
0.42642,0.14913,-0.89215,-0.00558,0.00199,-0.00184
0.42636,0.14906,-0.89219,-0.00065,0.00213,-0.00276
0.42634,0.14904,-0.8922,0.00064,0.00435,-0.00248
0.42636,0.14902,-0.89219,0.00051,0.0019,-0.0037
0.42644,0.14904,-0.89215,0.00281,0.00496,-0.00133
0.42646,0.14906,-0.89214,0.00276,0.00525,0.00011
0.42634,0.14901,-0.89221,-0.00071,0.00451,-0.00132
0.4261,0.14886,-0.89234,-0.00048,0.00466,-0.00118
0.42587,0.14873,-0.89247,0.00072,0.00743,-0.00577
0.42565,0.14863,-0.8926,-0.00438,0.00509,-0.00549
0.42547,0.14851,-0.8927,-0.00506,0.00451,-0.00659
0.42543,0.14843,-0.89274,-0.00656,0.00647,-0.0073
0.42542,0.14842,-0.89274,-0.0079,0.00212,-0.00553
0.42536,0.14835,-0.89278,-0.0082,0.00205,-0.00515
0.42528,0.14831,-0.89283,-0.00289,0.00626,-0.00621
0.42525,0.14829,-0.89285,-0.00357,0.00341,-0.00845
0.42527,0.14834,-0.89282,-0.00456,0.00536,-0.00609
0.42534,0.14838,-0.89279,-0.00562,0.00558,-0.00733
0.42539,0.14841,-0.89276,-0.00592,0.00596,-0.00546
0.42538,0.14839,-0.89276,-0.00691,0.00134,-0.00231
0.42531,0.14833,-0.89281,-0.00316,0.00427,-0.00828
0.42499,0.14822,-0.89298,0.00173,0.00923,-0.00718
0.42442,0.14801,-0.89329,-0.00033,0.00502,0.0019
0.42356,0.14757,-0.89376,0.0046,0.01057,0.00039
0.42228,0.14687,-0.89449,0.00677,0.00873,0.00485
0.42082,0.146,-0.89532,0.00628,0.00302,0.00332
0.41947,0.14523,-0.89607,0.00338,-0.00687,-0.00236
0.41876,0.14488,-0.89646,0.00313,-0.00532,-0.00403
0.41874,0.14489,-0.89647,-0.00255,-0.00231,-0.00326
0.41906,0.14508,-0.89629,-0.01023,0.00315,-0.01097
0.41936,0.14529,-0.89612,-0.01262,0.00933,-0.01366
0.41964,0.1455,-0.89595,-0.01812,0.01545,-0.01228
0.42004,0.14572,-0.89573,-0.01781,0.01033,-0.01556
0.42024,0.14575,-0.89563,-0.01456,0.00603,-0.01004
0.42008,0.14567,-0.89572,-0.01061,0.00166,-0.00688
0.41989,0.14552,-0.89584,-0.00315,-0.00467,-0.00213
0.41994,0.1454,-0.89583,0.00305,-0.00879,0.00144
0.42017,0.14543,-0.89571,0.01176,-0.00841,0.00543
0.42038,0.14561,-0.89559,0.01211,-0.00445,0.00782
0.4205,0.14577,-0.8955,0.01117,0.00239,0.005
0.42052,0.14593,-0.89547,0.00876,0.00929,-0.00455
0.42056,0.14616,-0.89541,0.00815,0.01711,-0.00607
0.42055,0.14636,-0.89539,-0.00029,0.02105,-0.01019
0.42041,0.14644,-0.89544,-0.00659,0.02117,-0.0151
0.42026,0.14644,-0.89551,-0.00425,0.02321,-0.01608
0.42004,0.14625,-0.89565,-0.0106,0.01844,-0.01384
0.4197,0.14596,-0.89585,-0.00749,0.01417,-0.0131
0.41941,0.14564,-0.89604,-0.0107,0.0041,-0.01134
0.41919,0.14541,-0.89618,-0.01374,-0.00026,-0.00738
0.41891,0.14513,-0.89636,-0.01244,-0.00411,-0.00544
0.41867,0.14492,-0.8965,-0.00919,-0.00095,-0.0018
0.41849,0.14475,-0.89661,-0.01298,-0.00925,-0.00288
0.41855,0.14478,-0.89658,-0.01301,-0.00855,-0.00479
0.41891,0.14504,-0.89637,-0.00643,-0.00589,-0.0002
0.41959,0.14542,-0.89599,-0.00095,-0.00786,0.00314
0.42028,0.1458,-0.8956,1e-05,-0.01001,0.00185
0.42079,0.14609,-0.89532,0.00533,-0.00958,0.0093
0.42109,0.14627,-0.89515,0.00796,-0.00929,0.00757
0.42122,0.14644,-0.89506,0.00955,-0.005,0.00674
0.42129,0.14664,-0.89499,0.00993,-0.0001,0.00304
0.42146,0.147,-0.89485,0.01056,0.00919,-0.00336
0.42185,0.14748,-0.89459,0.00862,0.02119,-0.0087
0.42227,0.14788,-0.89433,0.00444,0.02502,-0.00991
0.42243,0.14804,-0.89422,0.00091,0.02852,-0.01042
0.42238,0.14799,-0.89426,-0.00291,0.02157,-0.01478
0.42207,0.14779,-0.89443,-0.00612,0.01788,-0.01421
0.42161,0.14746,-0.8947,-0.00877,0.00927,-0.01379
0.42096,0.14704,-0.89508,-0.01441,0.00518,-0.01286
0.42034,0.14663,-0.89544,-0.01369,0.00292,-0.01101
0.41991,0.14633,-0.89569,-0.01545,0.0032,-0.00964
0.41971,0.14611,-0.89582,-0.01492,-0.00162,-0.00722
0.41967,0.146,-0.89586,-0.0144,-0.00438,-0.00752
0.41981,0.14601,-0.89579,-0.01058,-0.00459,-0.00773
0.42013,0.14617,-0.89561,-0.00975,-0.00292,-0.00586
0.42067,0.14648,-0.89531,-0.00224,0.00225,-0.00279
0.42135,0.14684,-0.89493,0.00109,0.00356,-0.00331
0.42192,0.14715,-0.89461,0.00243,0.00173,0.00293
0.42232,0.14735,-0.89439,0.00418,0.00091,0.00691
0.42258,0.14745,-0.89425,0.00818,-0.00483,0.00622
0.42266,0.14748,-0.89421,0.0131,-0.00869,0.00987
0.42273,0.14753,-0.89417,0.01185,-0.00302,0.00943
0.42281,0.14758,-0.89412,0.00743,2e-05,0.00238
0.42292,0.14764,-0.89406,0.004,0.00461,0.00094
0.42303,0.14773,-0.89399,0.00204,0.01018,-0.00376
0.42308,0.14781,-0.89395,-0.0027,0.01267,-0.01378
0.42313,0.14782,-0.89393,-0.00814,0.01281,-0.00994
0.42307,0.14775,-0.89397,-0.00954,0.01071,-0.01053
0.42295,0.14765,-0.89404,-0.009,0.01105,-0.01471
0.4227,0.14747,-0.89419,-0.0121,0.00884,-0.01367
0.42224,0.14723,-0.89445,-0.01271,0.00426,-0.01263
0.42182,0.14698,-0.89469,-0.00831,0.0053,-0.01317
0.42161,0.14688,-0.8948,-0.00528,0.00424,-0.01024
0.42163,0.14687,-0.8948,-0.00803,0.00217,-0.01026
0.4217,0.14693,-0.89475,-0.00938,0.00112,-0.0033
0.42176,0.14696,-0.89472,-0.00593,-0.00128,-0.00437
0.42188,0.14704,-0.89465,0.00024,-0.00164,-0.00423
0.42214,0.14721,-0.8945,0.00206,0.00157,-0.00086
0.42243,0.14736,-0.89433,0.00202,0.00071,0.00052
0.42254,0.14751,-0.89426,0.00695,0.0021,0.00238
0.42258,0.14757,-0.89423,0.00812,0.00182,0.00106
0.42262,0.14764,-0.8942,0.00841,0.00485,-0.0012
0.42273,0.14773,-0.89413,0.00327,0.00536,-0.00197
0.42282,0.14782,-0.89408,0.00011,0.00852,-0.00371
0.42288,0.14788,-0.89404,-0.00337,0.0097,-0.00637
0.42294,0.1479,-0.89401,-0.00427,0.01011,-0.00969
0.42301,0.14792,-0.89397,-0.00842,0.00689,-0.00929
0.42298,0.14789,-0.89399,-0.00817,0.00659,-0.01032
0.42287,0.14781,-0.89405,-0.00936,0.00507,-0.0089
0.4227,0.1477,-0.89415,-0.01015,-0.00059,-0.00905
0.42253,0.14761,-0.89425,-0.00731,0.00336,-0.00692
0.42239,0.14754,-0.89433,-0.00773,0.00015,-0.00854
0.42226,0.14749,-0.8944,-0.00447,-0.0018,-0.00296
0.4222,0.1475,-0.89442,-0.00143,0.00051,-0.00244
0.42228,0.1476,-0.89437,0.00083,0.00078,-0.00149
0.42237,0.1477,-0.89431,0.00063,0.00535,-0.00181
0.42251,0.14781,-0.89423,0.00276,0.00638,-0.00313
0.42257,0.14788,-0.89418,0.00324,0.00647,-0.0021
0.42257,0.1479,-0.89418,0.00031,0.00458,-0.00353
0.42251,0.14788,-0.89421,-0.00131,0.00634,-0.00383
0.42238,0.14778,-0.89429,-0.0024,0.00555,-0.00465
0.42224,0.14769,-0.89437,-0.00269,0.00674,-0.00652
0.42215,0.14761,-0.89443,-0.0033,0.00436,-0.00851
0.42213,0.14754,-0.89445,-0.007,-0.00057,-0.00433
0.42206,0.1475,-0.89449,-0.00733,0.0026,-0.00659
0.42203,0.14747,-0.89451,-0.00812,0.00315,-0.00701
0.42205,0.14748,-0.8945,-0.00869,0.00488,-0.00849
0.42211,0.14752,-0.89446,-0.00522,0.00221,-0.00599
0.42218,0.14754,-0.89442,-0.00484,0.00211,-0.00569
0.42219,0.14756,-0.89441,-0.00699,0.00498,-0.00439
0.42217,0.14757,-0.89443,-0.00069,0.00252,-0.00605
0.42215,0.14759,-0.89443,0.00176,0.00391,-0.00577
0.42219,0.14765,-0.8944,0.00124,0.00248,-0.00073
0.42223,0.14771,-0.89437,0.00233,0.00062,-0.00309
0.42224,0.14771,-0.89437,-0.00011,0.00219,-0.00457
0.42229,0.14775,-0.89434,-0.00099,0.00415,-0.00536
0.42229,0.14775,-0.89434,-0.0037,0.0047,-0.00559
0.42226,0.14774,-0.89435,-0.00293,0.00628,-0.00797
0.42222,0.14767,-0.89438,-0.00358,0.00704,-0.00745
0.42207,0.14756,-0.89448,-0.00887,0.00294,-0.00677
0.42184,0.14745,-0.8946,-0.00555,0.0019,-0.00626
0.42168,0.14737,-0.89469,-0.00677,0.00397,-0.00485
0.42158,0.14731,-0.89475,-0.00335,0.00023,-0.00543
0.42154,0.14728,-0.89477,-0.00363,0.00383,-0.00566
0.42149,0.14725,-0.8948,-0.00227,0.00289,-0.00543
0.42147,0.14724,-0.89481,-0.00495,0.00267,-0.00425
0.42146,0.14724,-0.89481,-0.00036,0.00556,-0.00373
0.42151,0.14727,-0.89478,-0.00167,0.00341,-0.00466
0.42156,0.14729,-0.89476,-0.0055,0.00052,1e-05
0.4216,0.14727,-0.89475,-0.00259,0.00076,0.00192
0.42156,0.14722,-0.89477,-0.0035,0.0009,-0.00092
0.42161,0.14726,-0.89474,0.00269,-0.00239,-0.00277
0.42182,0.14737,-0.89462,-0.00099,-0.00284,-0.00162
0.42211,0.14757,-0.89445,-0.00033,-0.00465,-0.00075
0.42237,0.14785,-0.89428,3e-05,0.00538,-0.00942
0.42269,0.14822,-0.89407,-0.00353,0.01237,-0.00929
0.42304,0.14857,-0.89385,-0.00475,0.01141,-0.01217
0.42338,0.14887,-0.89364,-0.00916,0.02279,-0.01957
0.4236,0.14902,-0.89351,-0.00694,0.02234,-0.01645
0.42347,0.14889,-0.89359,-0.00979,0.00957,-0.00881
0.42297,0.14853,-0.89389,-0.00784,0.00666,-0.00986
0.42234,0.14814,-0.89425,-0.00309,0.00475,-0.00838
0.42181,0.14778,-0.89456,-0.00306,-0.00112,-0.00533
0.42139,0.1475,-0.8948,-0.0028,-0.00855,0.00239
0.42099,0.14734,-0.89502,0.00113,-0.00911,0.00182
0.4207,0.14725,-0.89517,0.00035,-0.00339,0.00131
0.42052,0.14721,-0.89526,0.00129,-0.00071,0.00142
0.42056,0.14722,-0.89524,0.00113,-0.00589,-0.00114
0.4208,0.14736,-0.89511,-0.0004,-0.00194,-0.00074
0.42112,0.14758,-0.89492,-0.0053,0.00148,-0.00453
0.42144,0.14783,-0.89473,-0.00512,0.00319,-0.00771
0.42163,0.14797,-0.89461,-0.00384,0.00837,-0.00559
0.42163,0.14797,-0.89461,-0.00223,0.00619,-0.00698
0.42155,0.14792,-0.89466,-0.00255,0.00991,-0.01
0.42142,0.14783,-0.89473,-0.00484,0.00089,-0.00325
0.42123,0.14771,-0.89484,-0.00453,-0.00142,-0.00179
0.42106,0.1476,-0.89494,-0.00343,-0.00132,-0.00191
0.42092,0.14752,-0.89502,-0.00504,0.00087,-0.00561
0.42089,0.14749,-0.89504,-0.00259,-0.00053,-0.00404
0.42105,0.14752,-0.89496,-0.00229,-0.00166,-0.00154
0.42124,0.14759,-0.89486,-0.00173,-0.00264,-8e-05
0.42136,0.14763,-0.89479,-0.00047,-0.0042,-0.001
0.42141,0.14767,-0.89477,-0.00025,-0.00245,-0.00317
0.4214,0.14772,-0.89476,-0.00345,0.00113,-0.0048
0.42137,0.14782,-0.89476,-0.00266,0.00532,-0.00633
0.42137,0.14796,-0.89474,0.00103,0.00992,-0.01217
0.42145,0.14812,-0.89467,-0.00193,0.01544,-0.01068
0.42154,0.14819,-0.89462,-0.0006,0.01729,-0.01127
0.42146,0.14813,-0.89466,-0.00397,0.01569,-0.01012
0.42119,0.14794,-0.89483,-0.0052,0.0089,-0.01112
0.42081,0.1477,-0.89504,-0.00408,0.01023,-0.00993
0.42044,0.14745,-0.89526,-0.00298,0.0097,-0.01119
0.42009,0.14724,-0.89546,-0.0076,0.00333,-0.00905
0.41982,0.14706,-0.89561,-0.00873,9e-05,-0.00745
0.41968,0.14695,-0.8957,-0.00853,-0.00057,-0.00924
0.41966,0.14691,-0.89572,-0.00472,0.00122,-0.0085
0.41976,0.14692,-0.89567,-0.00796,-0.00051,-0.00625
0.42,0.14702,-0.89554,-0.0085,0.00041,-0.00647
0.42034,0.1472,-0.89535,-0.01034,0.00168,-0.00451
0.42061,0.14733,-0.8952,-0.00271,0.00124,-0.00425
0.42102,0.14753,-0.89497,-0.00402,-0.00085,-0.00147
0.42145,0.14777,-0.89473,-0.00708,-0.00592,-0.00039
0.42161,0.14794,-0.89463,0.00446,-0.00719,0.00544
0.42175,0.14808,-0.89454,0.00231,-0.0053,0.0043
0.42188,0.14823,-0.89445,0.00532,-0.00181,0.00243
0.42206,0.14837,-0.89435,0.00383,0.004,-0.00182
0.42222,0.14848,-0.89425,0.00201,0.00627,-0.00339
0.42227,0.14853,-0.89422,-0.00037,0.00628,-0.00712
0.4222,0.14861,-0.89424,-0.00376,0.00529,-0.00692
0.42201,0.14858,-0.89433,-0.00251,0.00767,-0.00543
0.42177,0.14849,-0.89446,0.00021,0.01101,-0.01213
0.42167,0.14847,-0.89451,-0.00683,0.01359,-0.0129
0.42158,0.14845,-0.89456,-0.00747,0.01242,-0.01111
0.42142,0.14836,-0.89465,-0.01085,0.01144,-0.01639
0.42122,0.14823,-0.89476,-0.01099,0.01115,-0.01114
0.42095,0.14803,-0.89493,-0.00942,0.00609,-0.01105
0.42076,0.14784,-0.89504,-0.00498,0.00306,-0.00922
0.42074,0.14774,-0.89507,-0.0097,-0.00349,-0.00616
0.42086,0.14779,-0.89501,-0.0093,-0.0034,-0.0047
0.42107,0.14795,-0.89488,-0.00463,0.0031,-0.00283
0.42128,0.14811,-0.89475,-0.00267,0.00341,-0.00063
0.4214,0.1482,-0.89469,-0.00196,0.0008,-0.00584
0.42149,0.14827,-0.89463,-0.00152,-0.00142,-0.00074
0.42157,0.14833,-0.89458,-0.00204,-0.00337,-0.00171
0.42169,0.14844,-0.89451,-6e-05,-0.0033,0.00103
0.42184,0.14855,-0.89442,0.001,-0.00397,0.00063
0.422,0.14868,-0.89432,0.00225,-0.00515,0.00044
0.4222,0.14883,-0.8942,0.00483,-0.00215,0.00388
0.42236,0.14897,-0.8941,0.00252,0.00379,-0.00554
0.42256,0.14908,-0.89399,-0.00062,0.00454,-0.00239
0.4227,0.14916,-0.89391,6e-05,0.00422,-0.00546
0.42286,0.14926,-0.89382,-0.00154,0.00577,-0.00657
0.42309,0.14941,-0.89369,-0.00431,0.00423,-0.01122
0.4234,0.14961,-0.8935,-0.00376,0.01029,-0.00866
0.42364,0.14972,-0.89337,-0.00539,0.00621,-0.01106
0.42387,0.14983,-0.89324,-0.00828,0.00601,-0.01188
0.42385,0.14981,-0.89326,-0.00605,0.00969,-0.00971
0.42365,0.14972,-0.89337,-0.00659,0.00835,-0.01334
0.42347,0.14962,-0.89347,-0.00575,0.00707,-0.01132
0.42343,0.14956,-0.8935,-0.00421,0.00425,-0.00953
0.42342,0.14952,-0.89351,-0.00817,0.00377,-0.00656
0.42333,0.14944,-0.89357,-0.00847,0.00078,-0.00489
0.4232,0.14938,-0.89364,-0.0072,-0.00163,-0.00598
0.42313,0.14943,-0.89366,-0.00563,0.00116,-0.00671
0.42324,0.14953,-0.8936,-0.00151,0.00178,-0.00544
0.42331,0.14961,-0.89355,-0.00225,0.00371,-0.00506
0.42331,0.14966,-0.89354,-0.00046,-0.00185,0.00123
0.42329,0.14967,-0.89355,-0.00199,-0.00102,-0.00172
0.42336,0.14971,-0.8935,-0.00198,-0.00056,0.00047
0.42352,0.14983,-0.89341,-0.00183,0.00044,-0.00178
0.42363,0.14989,-0.89335,0.00082,-0.00145,-0.00147
0.42369,0.1499,-0.89332,0.00395,-0.00112,-0.0005
0.42374,0.14991,-0.89329,3e-05,-0.00016,-0.00138
0.42368,0.14987,-0.89333,0.00141,-0.00076,-0.00416
0.42363,0.14988,-0.89335,0.00116,0.00104,-0.00407
0.42364,0.14994,-0.89333,-0.00422,0.00898,-0.00532
0.42369,0.15001,-0.8933,-0.00425,0.00801,-0.0126
0.42376,0.1501,-0.89325,-0.00293,0.01131,-0.00925
0.42376,0.15009,-0.89325,-0.00715,0.00702,-0.01294
0.42369,0.15005,-0.8933,-0.00768,0.00617,-0.01048
0.42355,0.14996,-0.89337,-0.00662,0.00494,-0.01074
0.42339,0.14989,-0.89346,-0.00682,0.00578,-0.01126
0.42322,0.14978,-0.89356,-0.00679,0.00618,-0.00981
0.42304,0.14967,-0.89366,-0.00765,0.00391,-0.00903
0.42288,0.14957,-0.89375,-0.00484,0.00107,-0.00571
0.42278,0.14948,-0.89382,-0.00415,-0.0005,-0.00653
0.42269,0.14943,-0.89387,-0.00213,0.0001,-0.00229
0.42257,0.14937,-0.89394,-0.00402,-0.00182,-0.00103
0.42242,0.1493,-0.89402,-0.00151,-0.00156,-0.00427
0.42238,0.14929,-0.89404,-0.0004,-0.00241,-0.00398
0.42254,0.14941,-0.89395,-0.00162,-0.00214,-0.00417
0.42275,0.14955,-0.89382,0.00057,0.00125,-0.00199
0.42287,0.14967,-0.89375,0.00046,0.00113,-0.00207
0.42286,0.14972,-0.89374,0.00146,0.00356,-0.00386
0.4228,0.14975,-0.89376,-0.00311,0.00694,-0.00609
0.42278,0.14974,-0.89378,-0.0048,0.00679,-0.00767
0.42279,0.14974,-0.89377,-0.00476,0.00672,-0.00799
0.4228,0.14973,-0.89376,-0.00377,0.00766,-0.00766
0.42276,0.14969,-0.89379,-0.00757,0.00604,-0.00915
0.4227,0.14963,-0.89383,-0.00821,0.00378,-0.0077
0.42269,0.14958,-0.89384,-0.00823,0.00309,-0.00897
0.42271,0.14955,-0.89384,-0.00812,-2e-05,-0.00678
0.42265,0.14952,-0.89387,-0.00676,-0.00016,-0.00705
0.42251,0.14948,-0.89395,-0.00499,0.00025,-0.00641
0.42241,0.14949,-0.89399,-0.00116,0.00229,-0.00722
0.42235,0.14951,-0.89402,-0.00173,0.00418,-0.00392
0.42228,0.14949,-0.89405,-0.00156,0.00223,-0.00629
0.42213,0.14946,-0.89413,-0.00175,0.00156,-0.00339
0.42204,0.14943,-0.89418,-0.00341,0.00407,-0.00611
0.42194,0.14944,-0.89422,0.00016,0.0051,-0.00681
0.42188,0.14944,-0.89425,-0.002,0.00321,-0.00255
0.42181,0.14942,-0.89429,-0.00347,0.00262,-0.00519
0.4217,0.14939,-0.89435,-0.00106,0.00393,-0.0063
0.42158,0.14935,-0.89441,-0.00364,0.00335,-0.00667
0.42147,0.14929,-0.89447,-0.00422,0.00331,-0.00794
0.42134,0.14924,-0.89454,-0.00797,0.00091,-0.00654
0.4212,0.14918,-0.89461,-0.0052,0.00149,-0.00613
0.42113,0.14915,-0.89465,-0.0032,0.00231,-0.00891
0.42107,0.14914,-0.89468,-0.00376,0.00277,-0.00763
0.42104,0.14913,-0.8947,-0.00377,0.00424,-0.00734
0.42108,0.1491,-0.89469,-0.00671,0.00133,-0.00615
0.42103,0.14905,-0.89472,-0.00677,-0.00154,-0.00444
0.4209,0.14899,-0.89479,-0.00251,-0.00137,-0.00406
0.42075,0.14894,-0.89486,-0.00283,-0.00165,-0.00154
0.42067,0.14898,-0.8949,0.00457,0.00527,-0.00119
0.42062,0.14898,-0.89492,0.00336,0.00589,-0.00257
0.42047,0.14893,-0.895,0.0013,0.00282,-0.00254
0.42024,0.14886,-0.89512,0.00232,0.00291,-0.00391
0.42005,0.14882,-0.89522,0.00137,0.00299,-0.00475
0.41994,0.14883,-0.89527,-0.00282,0.0038,-0.00343
0.41992,0.14886,-0.89527,-0.0057,0.00586,-0.01023
0.42007,0.14894,-0.89519,-0.00399,0.01059,-0.01288
0.42021,0.14899,-0.89511,-0.00682,0.01044,-0.01162
0.42027,0.14894,-0.89509,-0.01037,0.00757,-0.00969
0.42017,0.14881,-0.89516,-0.00678,0.00757,-0.01042
0.42006,0.14869,-0.89523,-0.0044,0.00277,-0.00867
0.41992,0.14854,-0.89532,-0.00534,0.00156,-0.00539
0.41976,0.14839,-0.89542,-0.00806,-0.00424,-0.00228
0.41961,0.14828,-0.89551,-0.00185,-0.00581,0.00089
0.41954,0.14826,-0.89555,-0.00279,-0.00481,-0.00205
0.41954,0.14826,-0.89555,0.00084,-0.00204,0.00126
0.41959,0.14829,-0.89552,0.00114,-0.00217,-0.00144
0.41962,0.14836,-0.8955,0.00343,-0.00287,-0.00168
0.4197,0.14847,-0.89543,0.00011,0.00021,-0.00048
0.41975,0.14858,-0.8954,0.00062,0.0041,-0.00431
0.4198,0.14868,-0.89535,0.00035,0.01087,-0.00807
0.41985,0.14873,-0.89533,-0.00406,0.0103,-0.0095
0.41975,0.14869,-0.89538,-0.00236,0.01081,-0.00858
0.41945,0.14854,-0.89555,-0.0074,0.00519,-0.0107
0.41909,0.14835,-0.89575,-0.00366,0.00647,-0.01008
0.4189,0.1482,-0.89586,-0.00514,0.00591,-0.01105
0.41894,0.14818,-0.89584,-0.00728,0.0041,-0.011
0.419,0.14817,-0.89581,-0.01141,0.00161,-0.00917
0.41901,0.14812,-0.89582,-0.00667,-0.00102,-0.00443
0.41897,0.14805,-0.89585,-0.00689,0.00016,-0.00552
0.41896,0.14803,-0.89586,-0.00658,0.00125,-0.00519
0.41911,0.14807,-0.89578,-0.00387,-0.00078,-0.00598
0.41934,0.14821,-0.89565,-0.00302,0.00224,-0.00485
0.41954,0.14835,-0.89553,-0.00084,0.00169,-0.00085
0.41972,0.14845,-0.89543,0.00108,0.00217,-0.00261
0.4198,0.14849,-0.89539,-0.0002,0.00028,0.00034
0.41992,0.14857,-0.89532,0.00257,-0.00108,-0.00242
0.4201,0.14867,-0.89522,0.00088,0.00053,-0.00139
0.42028,0.14878,-0.89511,-0.00197,0.00174,-0.00407
0.42039,0.14883,-0.89505,0.00045,0.00324,-0.00284
0.42036,0.14885,-0.89507,-0.00352,0.00639,-0.00534
0.42024,0.14883,-0.89512,-0.00475,0.0082,-0.01006
0.4202,0.14883,-0.89514,-0.00724,0.00881,-0.01256
0.42032,0.14889,-0.89508,-0.0038,0.00901,-0.01006
0.42041,0.1489,-0.89503,-0.00824,0.00661,-0.01088
0.42039,0.14886,-0.89505,-0.00549,0.00375,-0.0103
0.42026,0.14875,-0.89513,-0.00653,0.00262,-0.00922
0.42011,0.14864,-0.89521,-0.00517,0.00109,-0.00675
0.42008,0.1486,-0.89524,-0.0035,0.00202,-0.00474
0.42016,0.14861,-0.8952,-0.00337,-0.00161,-0.00193
0.42024,0.14861,-0.89516,-0.00133,-0.0012,-0.00137
0.42025,0.1486,-0.89516,-0.00057,-0.00156,0.0004
0.42022,0.14859,-0.89517,-0.0021,-0.00623,0.00066
0.4202,0.14862,-0.89518,0.00211,-0.00482,-0.00048
0.42021,0.14867,-0.89517,0.00394,-0.00337,0.00067
0.42023,0.14878,-0.89514,0.002,0.00426,-0.00371
0.42027,0.14889,-0.8951,0.00041,0.00687,-0.00618
0.42042,0.14903,-0.89501,0.00198,0.01096,-0.00822
0.42054,0.14912,-0.89493,-0.0048,0.0098,-0.011
0.4206,0.14914,-0.8949,-0.00446,0.01076,-0.01217
0.42059,0.14908,-0.89492,-0.00604,0.01083,-0.01142
0.42049,0.14897,-0.89498,-0.00707,0.00707,-0.01159
0.42034,0.1488,-0.89508,-0.00895,0.00368,-0.00929
0.42022,0.14865,-0.89516,-0.00865,-0.0022,-0.00761
0.42012,0.14854,-0.89523,-0.00872,-0.00112,-0.00612
0.42003,0.14846,-0.89529,-0.0072,-0.00325,-0.00204
0.42001,0.14844,-0.8953,-0.0052,-0.00378,-0.00493
0.42007,0.14848,-0.89526,-0.0025,-0.00478,-9e-05
0.42011,0.14852,-0.89524,-5e-05,-0.00358,0.00097
0.42015,0.14858,-0.89521,-0.00206,-0.00228,-0.0008
0.42014,0.14863,-0.8952,0.00254,-0.003,-0.00032
0.42008,0.14867,-0.89523,0.00456,0.00244,-0.00047
0.42002,0.14872,-0.89525,0.00489,0.00388,-0.00385
0.41991,0.14877,-0.89529,0.00041,0.00602,-0.0024
0.41974,0.14873,-0.89538,-0.00405,0.01105,-0.007
0.41959,0.14869,-0.89545,-0.00161,0.0133,-0.01242
0.41953,0.14863,-0.89549,-0.00433,0.01166,-0.01127
0.41944,0.1485,-0.89556,-0.00994,0.00713,-0.01059
0.41933,0.14831,-0.89564,-0.00897,0.0059,-0.00959
0.41927,0.14815,-0.89569,-0.01065,0.00038,-0.01184
0.41922,0.14804,-0.89573,-0.01256,-0.00131,-0.00769
0.41916,0.14796,-0.89577,-0.00893,-0.00085,-0.00868
0.41918,0.148,-0.89576,-0.00693,-0.00135,-0.0075
0.4194,0.14813,-0.89563,-0.00432,-0.00624,0.00168
0.41969,0.14831,-0.89547,-0.00259,-0.00687,0.00184
0.41993,0.14848,-0.89533,-0.00132,-0.00709,-6e-05
0.42005,0.14864,-0.89525,0.00338,0.00139,-0.00305
0.42018,0.14881,-0.89516,0.0029,0.00218,-0.00235
0.4203,0.14897,-0.89507,0.0032,0.00504,-0.00166
0.42047,0.14909,-0.89497,-0.00099,0.0115,-0.00584
0.42065,0.14921,-0.89487,-0.00409,0.01104,-0.00542
0.4207,0.14922,-0.89485,-0.00407,0.0105,-0.01069
0.42062,0.14913,-0.89489,-0.00673,0.0085,-0.01033
0.42042,0.14895,-0.89502,-0.00764,0.00441,-0.01073
0.42011,0.14872,-0.8952,-0.0093,0.00173,-0.00948
0.41982,0.14851,-0.89537,-0.00735,-0.00247,-0.00834
0.41966,0.14837,-0.89547,-0.00723,-0.00089,-0.00628
0.41958,0.14832,-0.89552,-0.00919,-0.00258,-0.0038
0.41951,0.14828,-0.89556,-0.0089,-0.00564,-0.00254
0.41945,0.14826,-0.89559,-0.00276,-0.00139,-0.00271
0.41945,0.14826,-0.89559,-0.00031,0.00086,-0.00237
0.4195,0.14829,-0.89556,-0.00027,-0.00114,-0.00234
0.41956,0.14836,-0.89552,-0.00233,0.00048,-0.00204
0.41957,0.14845,-0.8955,0.00084,0.00473,-0.00469
0.41958,0.14853,-0.89548,7e-05,0.00698,-0.00465
0.41956,0.14856,-0.89549,-0.0022,0.00729,-0.00626
0.41954,0.14856,-0.8955,-0.00343,0.00639,-0.00639
0.41954,0.14856,-0.8955,-0.00647,0.00555,-0.01022
0.41961,0.14857,-0.89546,-0.00634,0.00664,-0.00935
0.41964,0.14852,-0.89546,-0.00674,0.00672,-0.00872
0.41957,0.14842,-0.8955,-0.00805,0.00313,-0.00817
0.4195,0.14833,-0.89556,-0.00696,0.00197,-0.00816
0.41949,0.14827,-0.89557,-0.00604,0.00067,-0.0076
0.41952,0.14823,-0.89556,-0.0067,-0.00153,-0.00526
0.41959,0.14823,-0.89553,-0.00549,-0.00164,-0.00324
0.41967,0.14827,-0.89549,-0.00428,-0.00265,-0.00254
0.41974,0.14833,-0.89544,-0.00162,-0.00018,-0.00252
0.41985,0.14843,-0.89538,-0.00084,0.00202,-0.00305
0.41995,0.14854,-0.89531,-0.00134,0.00303,-0.00375
0.42007,0.1486,-0.89524,-0.00261,0.00619,-0.00506
0.42012,0.14861,-0.89522,-0.00108,0.00583,-0.00381
0.42011,0.14858,-0.89523,-0.00131,0.00394,-0.00544
0.42006,0.14855,-0.89525,-0.00598,0.00315,-0.00512
0.42001,0.14848,-0.89529,-0.00471,0.00064,-0.00948
0.41997,0.14845,-0.89531,-0.00733,0.00196,-0.00808
0.41999,0.14848,-0.8953,-0.00523,0.00057,-0.00715
0.42012,0.14854,-0.89523,-0.00649,0.00116,-0.00619
0.42018,0.14857,-0.8952,-0.00753,0.00175,-0.0033
0.42028,0.14863,-0.89514,-0.00561,0.00389,-0.00794
0.42039,0.1487,-0.89508,-0.00523,0.00447,-0.00717
0.42042,0.14872,-0.89506,-0.00339,0.00346,-0.00385
0.42045,0.14873,-0.89504,-0.00378,0.0021,-0.00431
0.42053,0.14875,-0.895,-0.00535,0.0015,-0.00495
0.42056,0.14876,-0.89499,-0.00186,0.00432,-0.00406
0.42045,0.14873,-0.89504,-0.00011,0.00259,-0.00428
0.42031,0.14864,-0.89512,-0.00421,0.00053,-0.00623
0.42008,0.14852,-0.89525,-0.00162,0.00312,-0.00537
0.41993,0.14844,-0.89533,-0.00521,9e-05,-0.00196
0.41972,0.14833,-0.89545,-0.00636,-0.00101,-0.00164
0.41943,0.14818,-0.89561,-0.00157,0.00048,-0.00451
0.41913,0.14804,-0.89578,-0.00426,-0.0004,-0.00759
0.4188,0.1479,-0.89595,-0.00589,0.00287,-0.00645
0.41856,0.14779,-0.89608,-0.00677,0.00414,-0.00818
0.41846,0.14773,-0.89614,-0.00756,0.00244,-0.00935
0.41839,0.1477,-0.89618,-0.00301,0.00649,-0.00385
0.4182,0.14761,-0.89628,-0.00522,0.00087,-0.00583
0.41811,0.14756,-0.89633,-0.0052,0.00235,-0.00662
0.41793,0.1475,-0.89642,-0.00296,0.00177,-0.00673
0.41789,0.1475,-0.89645,-0.00011,0.00301,-0.00925
0.41806,0.14758,-0.89635,0.00025,0.00516,-0.00628
0.41844,0.14772,-0.89615,0.00019,0.00559,-0.00618
0.41888,0.14787,-0.89592,-0.01447,-0.00729,-0.0021
0.41901,0.14787,-0.89586,-0.01349,-0.00462,-0.00249
0.41879,0.14777,-0.89598,-0.00861,-0.00179,-0.00369
0.41843,0.14766,-0.89616,0.00207,0.00281,-0.00899
0.41823,0.1476,-0.89627,0.00098,0.00419,-0.00922
0.41837,0.1477,-0.89619,-0.00378,0.00291,-0.00874
0.41854,0.14775,-0.8961,-0.00404,0.00144,-0.00116
0.41842,0.14771,-0.89616,0.00065,0.00334,-0.00614
0.41833,0.14766,-0.89621,-0.00454,0.00099,-0.00354
0.41825,0.1476,-0.89626,-0.00494,-0.00095,-0.00526
0.41829,0.14759,-0.89624,-0.0051,8e-05,-0.00825
0.41841,0.14766,-0.89617,-0.00844,0.00058,-0.00558
0.41855,0.14771,-0.8961,-0.00441,-0.00075,-0.00711
0.41859,0.14774,-0.89608,-0.00813,-9e-05,-0.00439
0.41856,0.14776,-0.89609,-0.00809,-0.00011,-0.00438
0.41848,0.14775,-0.89613,-0.00226,0.00416,-0.00998
0.41855,0.14786,-0.89608,-0.00438,0.00406,-0.00869
0.41882,0.14802,-0.89592,-0.0039,0.00334,-0.00377
0.41903,0.14813,-0.89581,-0.00293,0.00267,-0.00413
0.41906,0.14816,-0.89579,-0.00115,0.00226,-0.00662
0.41901,0.14814,-0.89581,-0.00387,0.00373,-0.00804
0.41895,0.14811,-0.89585,-0.00371,0.00132,-0.00915
0.419,0.1481,-0.89583,-0.00272,0.00291,-0.00606
0.4191,0.14813,-0.89577,-0.00399,0.00234,-0.00387
0.41921,0.14817,-0.89572,-0.008,8e-05,-0.00434
0.41926,0.14819,-0.89569,-0.00658,0.00286,-0.00549
0.41926,0.14818,-0.89569,-0.00413,0.00231,-0.00874
0.41924,0.14817,-0.8957,-0.00562,0.00242,-0.0087
0.41915,0.14808,-0.89576,-0.00296,0.00362,-0.00898
0.41904,0.148,-0.89583,-0.00545,-0.00048,-0.00975
0.41894,0.14793,-0.89589,-0.00738,-0.00274,-0.00598
0.41884,0.14786,-0.89594,-0.00492,-0.00388,-0.00465
0.41878,0.14786,-0.89597,-0.0026,0.0007,-0.00441
0.41877,0.14788,-0.89597,-0.00051,-0.00162,-0.00326
0.41885,0.14792,-0.89593,0.00281,0.00486,-0.00477
0.41881,0.14792,-0.89595,-0.00412,0.00258,-0.00466
0.41873,0.14787,-0.89599,-0.00589,0.00279,-0.00895
0.41853,0.14778,-0.8961,-0.00378,0.00345,-0.00524
0.41833,0.1477,-0.8962,-0.00634,0.00127,-0.00809
0.41821,0.14767,-0.89626,-0.00517,0.00074,-0.00458
0.41818,0.14764,-0.89629,-0.00793,0.00087,-0.00537
0.41814,0.14762,-0.89631,-0.00932,0.0008,-0.00471
0.41802,0.14757,-0.89637,-0.00661,0.00199,-0.0096
0.41789,0.14753,-0.89644,-0.00656,0.00093,-0.00551
0.41775,0.14745,-0.89652,-0.00464,-0.00014,-0.00601
0.41768,0.14744,-0.89655,-0.00525,-0.0008,-0.00654
0.41768,0.14745,-0.89655,-0.00335,0.00257,-0.00401
0.41773,0.1475,-0.89652,-0.00434,0.00042,-0.00494
0.41776,0.14756,-0.89649,-0.00334,0.00462,-0.00279
0.41776,0.14755,-0.8965,-0.00349,0.00093,-0.00162
0.4177,0.1475,-0.89654,-0.00339,-0.00113,-0.00271
0.41758,0.14744,-0.8966,-0.00772,-0.00408,-0.0073
0.41758,0.14743,-0.8966,-0.00104,-9e-05,-0.00425
0.41759,0.14744,-0.89659,0.00048,0.00121,-0.00639
0.41762,0.14743,-0.89658,-0.00199,-0.00348,-0.00169
0.41755,0.14743,-0.89661,5e-05,0.00119,-0.00398
0.41735,0.1474,-0.89671,-0.00355,0.00473,-0.00814
0.41714,0.14739,-0.89681,-0.00234,0.01385,-0.01151
0.41694,0.14743,-0.8969,-0.00735,0.01714,-0.01383
0.41688,0.14739,-0.89693,-0.00829,0.01571,-0.01702
0.41676,0.14725,-0.89701,-0.01103,0.01365,-0.01488
0.41654,0.147,-0.89716,-0.01141,0.00584,-0.01172
0.41639,0.14678,-0.89726,-0.01142,0.0038,-0.01499
0.41627,0.14663,-0.89734,-0.00851,-0.00539,-0.00711
0.41611,0.1466,-0.89742,-0.00594,-0.00116,-0.0081
0.41628,0.14668,-0.89733,-0.00296,-0.00099,-0.00949
0.41654,0.14677,-0.89719,-0.00403,0.0029,-0.00534
0.41679,0.14686,-0.89706,-0.00357,-0.00069,-0.0022
0.41689,0.14685,-0.89702,-0.00347,-0.0013,-0.0015
0.41688,0.14683,-0.89702,-0.00154,-0.00462,-0.00042
0.41701,0.14686,-0.89696,0.00372,-0.00112,-0.00056
0.41728,0.14694,-0.89682,0.00345,-0.0012,-0.0007
0.41765,0.14709,-0.89662,-0.00801,-0.00473,0.00015
0.41787,0.14717,-0.89651,-0.00579,-0.00064,-0.00179
0.41784,0.14715,-0.89653,-0.00307,-0.00029,-0.00264
0.41769,0.1471,-0.8966,-0.00366,-0.00026,-0.00567
0.41755,0.14705,-0.89667,-0.00344,-0.00026,-0.00561
0.41741,0.14697,-0.89675,-0.00329,0.00648,-0.00844
0.41725,0.14686,-0.89685,-9e-05,0.00879,-0.01235
0.41696,0.14666,-0.89702,-0.0087,0.00174,-0.00353
0.41653,0.14642,-0.89725,-0.00302,0.00078,-0.00712
0.41623,0.14623,-0.89742,-0.00604,0.00068,-0.00758
0.41603,0.1461,-0.89754,-0.00382,-0.00096,-0.00626
0.41606,0.14606,-0.89753,-0.00198,-0.00221,-0.00813
0.41628,0.14611,-0.89742,-0.00413,-0.00071,-0.00575
0.41649,0.14625,-0.8973,-0.00621,0.00083,-0.00346
0.41654,0.1463,-0.89727,-0.00799,0.00017,-0.00935
0.41652,0.14635,-0.89727,-0.00776,0.00532,-0.01197
0.41664,0.1465,-0.89719,-0.00482,0.01377,-0.01222
0.41672,0.14664,-0.89713,-0.00533,0.01188,-0.01217
0.41674,0.14667,-0.89712,-0.0111,0.01014,-0.01412
0.41671,0.14664,-0.89713,-0.0059,0.01265,-0.01553
0.41663,0.14652,-0.89719,-0.0077,0.00858,-0.01403
0.41643,0.14636,-0.89731,-0.00718,0.00232,-0.00792
0.41618,0.14614,-0.89746,-0.00762,-0.00183,-0.0076
0.41601,0.14602,-0.89756,-0.00723,-0.00075,-0.00643
0.41589,0.14595,-0.89763,-0.00462,-0.00069,-0.00685
0.41585,0.14591,-0.89765,-0.00411,-0.00383,-0.00643
0.41584,0.14593,-0.89765,-0.00859,-0.00625,-0.00466
0.41592,0.146,-0.8976,-0.0052,-0.00531,-0.00082
0.41603,0.14606,-0.89754,-0.00371,-0.00562,-0.00323
0.41623,0.14617,-0.89743,-0.00435,-0.00617,-0.00273
0.41655,0.14635,-0.89726,-0.0063,-0.00334,-0.00152
0.4169,0.14653,-0.89706,-0.00459,-0.00132,-0.00188
0.41715,0.14671,-0.89692,-0.00416,-0.00041,-0.00401
0.41725,0.1468,-0.89686,-0.00242,0.00242,-0.00176
0.41725,0.14682,-0.89685,-0.00046,0.00184,-0.00642
0.4172,0.14681,-0.89688,-0.00027,0.00082,-0.0058
0.41722,0.14682,-0.89687,-0.00117,0.00186,-0.00732
0.41723,0.1468,-0.89686,-0.00882,-0.00074,-0.0078
0.41707,0.14668,-0.89696,-0.00821,0.00175,-0.00738
0.41678,0.14653,-0.89712,-0.00906,0.0011,-0.00675
0.41669,0.14644,-0.89717,-0.00849,-0.00379,-0.00891
0.41691,0.14651,-0.89706,-0.00842,-0.0019,-0.00682
0.41721,0.14664,-0.8969,-0.00893,-0.00233,-0.0066
0.41739,0.14673,-0.89681,-0.00778,-0.00482,-0.00568
0.41746,0.14679,-0.89676,-0.00912,-0.00444,-0.00671
0.41752,0.14691,-0.89671,-0.00504,0.00028,-0.00928
0.41752,0.14703,-0.89669,-0.00329,0.0092,-0.00858
0.41752,0.14714,-0.89667,-0.00419,0.01066,-0.00929
0.41745,0.14718,-0.8967,-0.00357,0.01145,-0.01051
0.41746,0.14718,-0.8967,-0.01246,0.00692,-0.00469
0.41739,0.14707,-0.89675,-0.00122,0.01123,-0.00683
0.4172,0.14688,-0.89686,-0.00711,0.00399,-0.01071
0.4172,0.14678,-0.89689,-0.01154,0.00039,-0.00688
0.41713,0.14667,-0.89693,-0.00929,-0.00188,-0.00532
0.41719,0.14664,-0.89691,-0.00631,-0.00409,-0.01022
0.41726,0.14663,-0.89688,-0.00953,-0.0022,-0.00407
0.41734,0.14663,-0.89684,-0.0077,-0.00204,-0.0055
0.41737,0.14665,-0.89682,-0.00403,0.00272,-0.00718
0.41733,0.14662,-0.89685,-0.00655,-0.00081,-0.00554
0.41731,0.14657,-0.89687,-0.00677,-0.00328,-0.0071
0.41729,0.14653,-0.89688,-0.00997,-0.00623,-0.00334
0.41736,0.14657,-0.89684,-0.00798,-0.0075,-0.00376
0.41759,0.14669,-0.89672,-0.00566,-0.00832,-0.00129
0.41782,0.14682,-0.89659,-0.0038,-0.00737,0.00094
0.41804,0.14696,-0.89646,-0.00332,-0.00326,0.0016
0.41819,0.14707,-0.89638,0.00068,-0.00197,0.00026
0.4182,0.1471,-0.89636,-0.00277,0.00089,-0.0065
0.41809,0.1471,-0.89642,-0.00459,0.00288,-0.00719
0.41796,0.14709,-0.89648,-0.00428,0.00277,-0.0055
0.41784,0.14708,-0.89653,-0.0066,0.0021,-0.00964
0.41772,0.14709,-0.89659,-0.00566,0.00395,-0.00738
0.4177,0.14711,-0.8966,-0.00584,0.00375,-0.00981
0.4178,0.14718,-0.89654,-0.00853,0.00626,-0.0104
0.41795,0.14725,-0.89646,-0.00993,0.00537,-0.01054
0.41802,0.14724,-0.89643,-0.01072,0.00538,-0.01097
0.418,0.14722,-0.89644,-0.00725,0.00441,-0.01179
0.41798,0.14719,-0.89645,-0.0081,0.00264,-0.01209
0.41805,0.14719,-0.89642,-0.01098,0.00409,-0.01243
0.41822,0.14722,-0.89633,-0.01014,0.00251,-0.01312
0.4184,0.1473,-0.89624,-0.00985,0.00367,-0.00894
0.41861,0.14736,-0.89613,-0.01036,0.00088,-0.00774
0.41875,0.1474,-0.89606,-0.00701,0.0007,-0.00844
0.41893,0.14746,-0.89597,-0.00793,-0.00145,-0.00723
0.41913,0.14756,-0.89586,-0.007,-8e-05,-0.00786
0.4192,0.14759,-0.89582,-0.00656,0.00037,-0.00667
0.41909,0.14755,-0.89588,-0.00663,0.00063,-0.0054
0.41889,0.14747,-0.89598,-0.00487,-0.0016,-0.00743
0.41878,0.14743,-0.89604,-0.00379,5e-05,-0.00818
0.4188,0.14744,-0.89603,-0.00559,-0.00092,-0.00668
0.4189,0.14747,-0.89598,-0.00791,-0.00448,-0.00568
0.41899,0.14745,-0.89594,-0.00451,-0.00274,-0.00531
0.41898,0.14743,-0.89595,-0.00748,-0.00395,-0.0019
0.419,0.14743,-0.89594,-0.01131,-0.00746,-0.00099
0.41907,0.14742,-0.89591,-0.00818,-0.00663,-0.00162
0.41919,0.14744,-0.89585,-0.00275,-0.00404,-0.0012
0.41929,0.14749,-0.89579,-0.00416,-0.00343,-0.00287
0.41945,0.14753,-0.89571,-0.00334,-0.00218,-0.00316
0.41948,0.14754,-0.89569,-0.00238,-0.00133,-0.00258
0.41945,0.14749,-0.89572,-0.00374,-0.0012,-0.00525
0.41928,0.14745,-0.8958,-0.00165,-0.0011,-0.00523
0.41912,0.14742,-0.89588,-0.00612,-0.00474,-0.00591
0.4191,0.14746,-0.89589,-0.00603,-0.00244,-0.00543
0.41906,0.14756,-0.89589,-0.00779,-0.00234,-0.00658
0.41896,0.14764,-0.89592,-0.00351,0.00942,-0.0184
0.41885,0.14768,-0.89597,-0.00697,0.01015,-0.01726
0.41872,0.14767,-0.89603,-0.01594,0.00928,-0.01594
0.41856,0.14759,-0.89612,-0.01418,0.00976,-0.01804
0.41836,0.14751,-0.89622,-0.01324,0.01156,-0.01967
0.41817,0.14738,-0.89633,-0.01057,0.00558,-0.01579
0.41801,0.14724,-0.89643,-0.01102,0.00412,-0.01292
0.41796,0.14714,-0.89647,-0.01106,0.0015,-0.00891
0.41794,0.14709,-0.89649,-0.00608,-0.00176,-0.00586
0.41794,0.14704,-0.8965,-0.00465,-0.00248,-0.00411
0.41792,0.147,-0.89651,-0.00505,-0.00049,-0.00439
0.41788,0.14694,-0.89654,-0.00319,-0.00097,-0.00158
0.4178,0.14685,-0.89659,-0.0042,-0.00379,-0.00192
0.4177,0.14673,-0.89666,-0.0076,-0.00549,-0.00277
0.41762,0.14661,-0.89672,-0.00865,-0.01147,-0.00232
0.41773,0.14659,-0.89667,-0.00859,-0.01297,-0.00082
0.418,0.14669,-0.89653,-0.00928,-0.01522,-0.00051
0.41827,0.14683,-0.89638,-0.00621,-0.01357,0.00209
0.41853,0.14702,-0.89622,-0.00588,-0.01094,-0.00208
0.41879,0.14728,-0.89606,-0.00794,-0.00678,-0.00478
0.41902,0.14755,-0.89591,-0.0055,0.00347,-0.01158
0.41922,0.14781,-0.89577,-0.00559,0.00533,-0.00946
0.41933,0.14806,-0.89568,-0.00725,0.00465,-0.01089
0.41934,0.14825,-0.89564,-0.00403,0.01179,-0.01508
0.41934,0.14837,-0.89563,-0.00613,0.01248,-0.01331
0.41931,0.14842,-0.89563,-0.00841,0.01253,-0.01352
0.41916,0.14835,-0.89571,-0.01055,0.00941,-0.00958
0.41888,0.14815,-0.89587,-0.0072,0.00566,-0.01309
0.41862,0.14792,-0.89603,-0.01089,0.00051,-0.01499
0.4184,0.14772,-0.89617,-0.01503,0.00011,-0.01168
0.4183,0.14758,-0.89624,-0.01701,-0.00071,-0.01495
0.41834,0.14754,-0.89623,-0.01444,0.00074,-0.00999
0.41849,0.14756,-0.89615,-0.00951,-0.00088,-0.00875
0.41864,0.14757,-0.89608,-0.00615,0.00028,-0.00641
0.41878,0.14758,-0.89602,-0.01343,-0.0072,-0.00413
0.41883,0.14758,-0.89599,-0.0057,-0.00117,-0.00689
0.41876,0.14751,-0.89604,-0.00285,-0.00347,-0.00364
0.41873,0.14745,-0.89606,-0.00256,-0.00256,-0.00262
0.41872,0.14737,-0.89608,-0.00268,-0.00885,-0.0005
0.4187,0.1473,-0.8961,-0.00185,-0.01368,0.00167
0.41873,0.14735,-0.89608,0.00046,-0.0105,0.00232
0.41893,0.14756,-0.89595,0.00156,-0.00942,-0.00086
0.41923,0.14785,-0.89576,0.00017,0.00598,-0.00712
0.41947,0.14808,-0.89561,-0.00213,0.00832,-0.00971
0.41962,0.14821,-0.89552,-0.0077,0.01141,-0.01133
0.41969,0.14827,-0.89548,-0.00833,0.00902,-0.0121
0.41968,0.14823,-0.89549,-0.00936,0.00733,-0.01473
0.41959,0.14814,-0.89555,-0.01381,0.00518,-0.01594
0.41946,0.14804,-0.89562,-0.01672,0.00212,-0.01507
0.41933,0.1479,-0.8957,-0.01527,0.00446,-0.01433
0.41936,0.14781,-0.89571,-0.00845,0.00345,-0.00883
0.4193,0.1477,-0.89575,-0.01801,-0.00551,-0.01108
0.41936,0.14766,-0.89573,-0.01529,-0.00569,-0.00861
0.4195,0.1477,-0.89566,-0.00904,-0.00875,-0.00456
0.41979,0.14784,-0.8955,-0.0074,-0.00842,-0.00315
0.42006,0.14802,-0.89534,-0.00464,-0.00678,-0.0025
0.42022,0.14818,-0.89524,0.00388,-0.00247,-0.00144
0.42028,0.14828,-0.8952,0.00244,-0.00015,-0.00178
0.42029,0.14836,-0.89518,0.00361,-0.00172,-0.00285
0.42047,0.1485,-0.89507,-0.0004,0.00094,-0.00697
0.42074,0.14873,-0.89491,-0.00384,0.00491,-0.00797
0.42099,0.14895,-0.89475,-0.00307,0.00892,-0.01031
0.42113,0.14902,-0.89467,-0.01051,0.01055,-0.01296
0.42111,0.14897,-0.89469,-0.01314,0.00138,-0.01246
0.42104,0.14883,-0.89475,-0.01372,-0.00102,-0.01378
0.42095,0.14877,-0.8948,-0.01171,0.00157,-0.01325
0.42087,0.14875,-0.89484,-0.01688,0.00221,-0.0135
0.42082,0.14872,-0.89487,-0.01683,0.00224,-0.01347
0.42076,0.14866,-0.89491,-0.01283,-0.00367,-0.00731
0.42073,0.14865,-0.89493,-0.0106,-0.00633,-0.00641
0.42082,0.14872,-0.89487,-0.00976,-0.00807,-0.00636
0.421,0.14886,-0.89476,-0.00879,-0.00247,-0.00507
0.42121,0.149,-0.89464,-0.00538,-0.00363,-0.00497
0.42137,0.14911,-0.89455,-0.00638,-0.00389,-0.00563
0.42149,0.1492,-0.89448,-0.00049,-0.00282,-0.00445
0.42159,0.14932,-0.89441,0.00036,0.0046,-0.00613
0.42169,0.1494,-0.89434,-0.00188,0.00338,-0.00745
0.42172,0.14941,-0.89433,-0.00529,0.00204,-0.0073
0.42167,0.14936,-0.89436,-0.00596,0.00196,-0.00706
0.42157,0.14927,-0.89443,-0.00902,0.00132,-0.01074
0.42152,0.1492,-0.89446,-0.00918,-0.00109,-0.00994
0.42146,0.14913,-0.8945,-0.01353,-0.00159,-0.00987
0.42138,0.14908,-0.89455,-0.01331,-0.00228,-0.01302
0.42127,0.14904,-0.8946,-0.01234,-0.00211,-0.00837
0.42107,0.14893,-0.89472,-0.01479,-0.00073,-0.00892
0.42076,0.14876,-0.89489,-0.01156,-0.00477,-0.00844
0.42055,0.14868,-0.895,-0.01546,-0.00235,-0.01195
0.42045,0.14867,-0.89505,-0.00825,-0.00296,-0.00862
0.42045,0.14869,-0.89505,-0.00964,-0.00256,-0.00727
0.42049,0.14873,-0.89502,-0.00705,-0.00281,-0.00494
0.42048,0.14877,-0.89502,-0.00693,0.00243,-0.00865
0.42045,0.14882,-0.89503,-0.00574,0.00337,-0.00822
0.42042,0.14883,-0.89504,-0.00332,0.00611,-0.00904
0.42039,0.1488,-0.89506,-0.00411,0.00012,-0.00647
0.42033,0.14869,-0.89511,-0.00636,-0.00143,-0.00451
0.42021,0.14856,-0.89519,-0.00564,-0.0105,-0.00133
0.4201,0.1485,-0.89524,-0.00743,-0.00883,-0.00379
0.42018,0.14857,-0.8952,-0.00798,-0.0049,-0.00614
0.42035,0.1487,-0.8951,-0.00755,0.00142,-0.0096
0.42041,0.14883,-0.89504,-0.00815,0.00296,-0.01078
0.42046,0.14891,-0.89501,-0.0117,0.00627,-0.01289
0.42034,0.14885,-0.89508,-0.01418,0.00178,-0.01601
0.42002,0.14873,-0.89524,-0.01642,-0.00113,-0.01184
0.41969,0.1486,-0.89542,-0.01277,0.00041,-0.00992
0.41928,0.14845,-0.89564,-0.00331,0.00652,-0.0126
0.41901,0.14833,-0.89578,-0.01299,-0.00278,-0.00781
0.4188,0.14818,-0.89591,-0.0158,-0.00789,-0.00782
0.41863,0.14812,-0.896,-0.01293,-0.00363,-0.01094
0.41855,0.14806,-0.89605,-0.01299,-0.00241,-0.01013
0.41849,0.14803,-0.89608,-0.01126,-0.00316,-0.00784
0.41838,0.14796,-0.89614,-0.0077,-0.00262,-0.00799
0.4183,0.14793,-0.89618,-0.00692,0.00078,-0.00875
0.41829,0.14797,-0.89618,-0.00691,0.00075,-0.00876
0.4183,0.14799,-0.89617,-0.00365,-0.00174,-0.00507
0.41828,0.148,-0.89618,-0.00535,-0.00269,-0.00421
0.41823,0.14797,-0.89621,-0.0053,-0.00266,-0.00418
0.41821,0.14793,-0.89623,-0.00662,-0.00434,-0.00627
0.41826,0.14793,-0.8962,-0.00462,-0.00296,-0.0093
0.4185,0.14801,-0.89607,-0.00487,-0.00304,-0.00943
0.41871,0.1481,-0.89596,-0.0087,-0.00012,-0.00898
0.41871,0.14806,-0.89597,-0.01092,-0.00372,-0.00966
0.41861,0.14798,-0.89603,-0.01494,-0.00258,-0.01047
0.41857,0.1479,-0.89606,-0.0165,-0.00363,-0.01196
0.41863,0.14792,-0.89603,-0.01618,-0.00113,-0.01153
0.41871,0.14797,-0.89598,-0.01623,-0.00178,-0.00912
0.41871,0.14801,-0.89598,-0.01055,6e-05,-0.01165
0.41866,0.14803,-0.896,-0.00898,0.00261,-0.01053
0.41862,0.148,-0.89602,-0.00819,-0.00105,-0.00782
0.41868,0.14802,-0.89599,-0.00532,-0.00089,-0.00962
0.41885,0.14811,-0.8959,-0.00581,0.00125,-0.00498
0.41895,0.14815,-0.89584,-0.00446,0.00149,-0.00605
0.41887,0.14805,-0.8959,-0.00408,0.00237,-0.00526
0.4187,0.14789,-0.896,-0.00479,-0.00145,-0.00453
0.41859,0.14778,-0.89607,-0.00545,-0.00169,-0.00742
0.41871,0.14781,-0.89601,-0.00657,-0.0031,-0.00841
0.41892,0.14789,-0.8959,-0.00916,-0.00046,-0.0053
0.41904,0.14793,-0.89583,-0.00976,-0.00061,-0.00997
0.41916,0.14796,-0.89577,-0.01276,-1e-05,-0.0098
0.41911,0.14792,-0.8958,-0.0144,0.00126,-0.00599
0.4188,0.14775,-0.89598,-0.01086,-0.00216,-0.01003
0.41845,0.14758,-0.89617,-0.01067,-0.00589,-0.00732
0.41827,0.1475,-0.89626,-0.01173,-0.00698,-0.0096
0.4183,0.14756,-0.89624,-0.00707,-0.001,-0.0106
0.41841,0.14763,-0.89618,-0.0035,0.00463,-0.00563
0.41836,0.14763,-0.8962,-0.00683,-0.00427,-0.00402
0.41824,0.14763,-0.89626,-0.00581,-0.0051,-0.00688
0.41838,0.14771,-0.89618,-0.00802,-0.00251,-0.00867
0.41877,0.14793,-0.89596,-0.00706,-0.00053,-0.00794
0.41893,0.14804,-0.89587,-0.00929,0.00104,-0.00728
0.41885,0.14804,-0.89591,-0.00891,0.00608,-0.01515
0.41866,0.14795,-0.89601,-0.01157,0.00411,-0.00817
0.41819,0.14769,-0.89627,-0.01226,-1e-05,-0.00734
0.41757,0.14742,-0.8966,-0.00757,-0.00492,-0.00875
0.41715,0.14727,-0.89683,-0.00806,0.00095,-0.0098
0.41715,0.14732,-0.89681,-0.00807,0.0009,-0.00982
0.4174,0.14745,-0.89668,-0.01062,0.00088,-0.00878
0.41778,0.14761,-0.89648,-0.01011,-0.00076,-0.00997
0.41819,0.14775,-0.89626,-0.00624,7e-05,-0.01132
0.41864,0.14792,-0.89602,-0.00188,0.00255,-0.00298
0.419,0.14799,-0.89585,-0.01005,-0.00309,-0.00877
0.41935,0.14806,-0.89567,-0.01039,-0.00316,-0.00895
0.41956,0.14808,-0.89556,-0.01358,-0.0091,-0.00669
0.41975,0.14809,-0.89548,-0.00791,-0.0056,-0.00613
0.42,0.14819,-0.89534,-0.00688,-0.00581,-0.00761
0.42023,0.14827,-0.89522,-0.01307,-0.0058,-0.00743
0.42039,0.14836,-0.89513,-0.0152,-0.00673,-0.00984
0.4204,0.14845,-0.89511,-0.01636,0.00084,-0.0105
0.41967,0.14822,-0.89549,0.00962,0.01471,-0.00145
0.4181,0.14755,-0.89634,0.00227,0.00858,-0.01595
0.41681,0.14696,-0.89704,-0.01001,0.00054,-0.01667
0.41621,0.14669,-0.89736,-0.01037,-0.00173,-0.01182
0.41612,0.14664,-0.89741,-0.00648,-0.0009,-0.00921
0.41617,0.1467,-0.89737,-0.00654,-0.00097,-0.00924
0.41618,0.1467,-0.89737,-0.0026,0.00269,-0.00607
0.41603,0.14657,-0.89746,-0.0108,-0.00329,-0.0105
0.41582,0.14643,-0.89758,-0.01079,-0.00112,-0.01097
0.41569,0.14635,-0.89765,-0.01294,-0.00166,-0.01105
0.41568,0.14634,-0.89766,-0.01601,-0.00517,-0.01233
0.41578,0.14642,-0.8976,-0.01853,-0.00785,-0.01115
0.41606,0.14658,-0.89744,-0.01898,-0.00535,-0.00903
0.41653,0.14679,-0.89719,-0.0158,-0.00016,-0.01017
0.41687,0.14699,-0.897,-0.0109,0.00229,-0.01099
0.4169,0.14708,-0.89697,-0.01143,0.00206,-0.0092
0.41675,0.14705,-0.89705,-0.0092,-0.00299,-0.00906
0.41654,0.14698,-0.89716,-0.00894,-0.0077,-0.00602
0.41639,0.14697,-0.89723,-0.0106,-0.00546,-0.00475
0.41642,0.14706,-0.8972,-0.0033,0.00099,-0.00636
0.4166,0.14722,-0.89709,-0.00202,0.00214,-0.00629
0.41684,0.14735,-0.89695,-0.00275,0.00305,-0.00746
0.417,0.14744,-0.89687,-0.00496,0.00244,-0.00697
0.41701,0.14741,-0.89687,-0.00613,0.00278,-0.00825
0.41691,0.14732,-0.89693,-0.00919,-0.00361,-0.00868
0.41682,0.14723,-0.89699,-0.00964,-0.00532,-0.00784
0.41689,0.1472,-0.89696,-0.00812,-0.00243,-0.00891
0.41702,0.14728,-0.89689,-0.01509,-0.00083,-0.01069
0.41715,0.14733,-0.89682,-0.01524,-0.00243,-0.01271
0.41735,0.14741,-0.89671,-0.01786,-0.00274,-0.01377
0.41762,0.14753,-0.89657,-0.01312,1e-05,-0.01502
0.41806,0.14772,-0.89633,-0.01024,0.00146,-0.01037
0.41864,0.14797,-0.89602,-0.01081,0.00122,-0.01067
0.4191,0.14818,-0.89576,-0.01096,6e-05,-0.00812
0.41945,0.14834,-0.89558,-0.0063,0.00104,-0.006
0.41969,0.14845,-0.89545,-0.00654,0.00093,-0.00614
0.41987,0.14854,-0.89535,-0.00473,-0.00034,-0.00749
0.42003,0.1486,-0.89526,-0.00686,0.0005,-0.00459
0.41991,0.14855,-0.89532,-0.00675,0.00055,-0.00453
0.41946,0.14835,-0.89557,-0.00308,-0.00446,-0.00726
0.41886,0.14814,-0.89589,-0.00865,-0.00811,-0.00676
0.41842,0.14799,-0.89612,-0.01032,-0.00708,-0.00574
0.41795,0.14787,-0.89636,-0.01031,0.00232,-0.01011
0.41757,0.14776,-0.89655,-0.01029,0.00135,-0.01347
0.41764,0.14779,-0.89651,-0.0093,0.00437,-0.01465
0.41808,0.14796,-0.89628,-0.01145,-0.00103,-0.0126
0.41859,0.14817,-0.89601,-0.01655,-0.00654,-0.0067
0.41894,0.14833,-0.89582,-0.01646,-0.00322,-0.00682
0.41924,0.14847,-0.89566,-0.00748,-0.00117,-0.00924
0.41959,0.14863,-0.89546,-0.01061,-0.00258,-0.00906
0.42003,0.14878,-0.89523,-0.01122,-0.00515,-0.0065
0.4204,0.14895,-0.89503,-0.00878,-0.00286,-0.0076
0.42068,0.14909,-0.89487,-0.00621,0.00086,-0.0108
0.42093,0.14923,-0.89474,-0.00439,0.00193,-0.00979
0.42119,0.14936,-0.89459,-0.00765,-0.00271,-0.00641
0.42145,0.14947,-0.89445,-0.00895,-0.00231,-0.00863
0.42164,0.14958,-0.89434,-0.01244,-0.00282,-0.01006
0.42175,0.14965,-0.89428,-0.01016,9e-05,-0.00804
0.42172,0.14965,-0.89429,-0.0101,-0.00138,-0.01115
0.42168,0.14961,-0.89432,-0.01097,0.0002,-0.01018
0.42164,0.1496,-0.89434,-0.01022,0.00066,-0.00781
0.42158,0.14956,-0.89437,-0.00924,0.00025,-0.00934
0.42143,0.14948,-0.89446,-0.01078,-0.00215,-0.00775
0.42124,0.14939,-0.89456,-0.01224,-0.00304,-0.00853
0.42105,0.14929,-0.89467,-0.00781,-0.00488,-0.01087
0.42096,0.14927,-0.89471,-0.00857,-0.00288,-0.00874
0.42102,0.14932,-0.89468,-0.00966,-0.00287,-0.00579
0.42111,0.14938,-0.89462,-0.01007,-0.00169,-0.00827
0.42114,0.14944,-0.8946,-0.00956,-0.00248,-0.00887
0.42117,0.14949,-0.89458,-0.01109,-0.00116,-0.01094
0.42129,0.14955,-0.89451,-0.00863,0.00249,-0.00927
0.42133,0.14956,-0.89449,-0.01049,0.00038,-0.00811
0.42117,0.14947,-0.89458,-0.01094,-0.0004,-0.0086
0.42093,0.1494,-0.8947,-0.00795,-0.00529,-0.00942
0.42059,0.14927,-0.89489,-0.00761,-0.00517,-0.00924
0.42026,0.14915,-0.89506,-0.01462,-0.00097,-0.00704
0.42003,0.14902,-0.89519,-0.01245,-0.00455,-0.00975
0.41991,0.14897,-0.89525,-0.00988,-0.0048,-0.01128
0.41986,0.149,-0.89528,-0.00671,-0.00052,-0.0105
0.4199,0.14907,-0.89524,-0.0078,0.00513,-0.0092
0.4199,0.14905,-0.89525,-0.00924,0.00429,-0.01042
0.41994,0.14903,-0.89523,-0.00817,-0.00273,-0.01065
0.42011,0.14908,-0.89514,-0.01159,-0.00821,-0.00479
0.42033,0.14915,-0.89503,-0.01231,-0.00374,-0.00484
0.42048,0.14923,-0.89494,-0.01098,-0.00106,-0.01039
0.42063,0.14932,-0.89486,-0.00716,0.00075,-0.01134
0.42078,0.14938,-0.89478,-0.00803,0.00194,-0.01175
0.42102,0.14946,-0.89465,-0.01413,0.00023,-0.0085
0.42125,0.14952,-0.89453,-0.01393,-0.00464,-0.0088
0.4213,0.14954,-0.89451,-0.01317,-0.00463,-0.00735
0.42131,0.14955,-0.8945,-0.0109,-0.00371,-0.00935
0.42129,0.14959,-0.8945,-0.0106,-0.00417,-0.01063
0.4215,0.14971,-0.89438,-0.00883,-0.00651,-0.00772
0.42216,0.15,-0.89403,-0.00069,0.00396,-0.0069
0.42301,0.15038,-0.89356,0.00338,0.00486,-0.00571
0.42392,0.15075,-0.89306,-0.00242,0.00565,-0.00727
0.4246,0.15098,-0.8927,-0.01423,0.00073,-0.0039
0.42474,0.15094,-0.89264,-0.00975,-0.00336,-0.0093
0.42458,0.1508,-0.89274,-0.0095,-0.00418,-0.00922
0.42451,0.15073,-0.89279,-0.01319,-0.00591,-0.00838
0.42467,0.15078,-0.8927,-0.01475,0.00064,-0.01289
0.42493,0.1509,-0.89256,-0.01501,0.00052,-0.01304
0.42508,0.15097,-0.89248,-0.01256,-8e-05,-0.01104
0.42504,0.15096,-0.8925,-0.00941,0.00185,-0.00921
0.42493,0.15091,-0.89256,-0.00815,-0.00246,-0.00696
0.42489,0.15088,-0.89258,-0.01036,-0.00375,-0.00856
0.42498,0.15092,-0.89253,-0.00924,-0.00485,-0.00787
0.42514,0.15101,-0.89244,-0.00561,-0.00137,-0.00584
0.42522,0.15107,-0.8924,-0.01029,-0.0011,-0.00922
0.4252,0.15107,-0.8924,-0.00824,-0.00086,-0.00962
0.42511,0.15103,-0.89245,-0.01045,0.00158,-0.0076
0.425,0.15097,-0.89251,-0.01008,-0.00351,-0.00815
0.42481,0.15092,-0.89262,-0.00949,0.0001,-0.00898
0.42454,0.15083,-0.89276,-0.00774,0.00082,-0.0081
0.42424,0.15066,-0.89293,-0.00898,0.00048,-0.01112
0.42396,0.15053,-0.89308,-0.01013,-0.00498,-0.00877
0.42389,0.1505,-0.89312,-0.01246,-0.00576,-0.00857
0.42399,0.15056,-0.89307,-0.00973,-0.00269,-0.00737
0.4241,0.15064,-0.893,-0.00947,-0.0024,-0.00657
0.42411,0.15068,-0.89299,-0.00532,0.00315,-0.0121
0.42394,0.1506,-0.89308,-0.00724,0.00444,-0.01088
0.42373,0.1505,-0.8932,-0.00811,-0.00149,-0.00977
0.42352,0.1504,-0.89331,-0.01005,-0.00285,-0.00908
0.42339,0.15039,-0.89338,-0.01129,-0.0059,-0.00703
0.42335,0.15042,-0.89339,-0.0079,-0.00525,-0.00721
0.42345,0.15052,-0.89333,-0.00687,-0.00407,-0.00677
0.42363,0.15063,-0.89323,-0.01463,-0.00144,-0.00944
0.42371,0.15068,-0.89318,-0.00976,0.00385,-0.0116
0.42359,0.15063,-0.89324,-0.01008,0.0003,-0.01177
0.42349,0.15058,-0.8933,-0.00978,-0.00228,-0.01208
0.42359,0.15065,-0.89324,-0.01097,-0.00336,-0.01107
0.42371,0.15077,-0.89316,-0.01204,-0.00524,-0.00773
0.42368,0.15081,-0.89317,-0.00626,0.00605,-0.00599
0.42331,0.15066,-0.89337,-0.0069,0.00087,-0.01302
0.42289,0.15048,-0.8936,-0.00648,0.00106,-0.01279
0.42259,0.1503,-0.89377,-0.00735,-0.00447,-0.00932
0.42262,0.15027,-0.89376,-0.00918,-0.00595,-0.00698
0.42284,0.15038,-0.89364,-0.01115,-0.00456,-0.0064
0.42304,0.15049,-0.89353,-0.01241,-0.00038,-0.00742
0.42301,0.1505,-0.89354,-0.0109,0.00386,-0.01266
0.42278,0.15041,-0.89366,-0.00783,0.00416,-0.01384
0.42249,0.15027,-0.89382,-0.01087,7e-05,-0.00956
0.42219,0.15013,-0.89399,-0.00767,-0.00453,-0.00773
0.42199,0.15007,-0.89409,-0.00727,-0.00436,-0.00799
0.42186,0.15007,-0.89415,-0.00521,-0.00279,-0.00454
0.42176,0.15007,-0.8942,-0.00844,-0.00471,-0.0078
0.42175,0.1501,-0.8942,-0.00744,-0.00211,-0.00715
0.42183,0.15016,-0.89415,-0.00941,-0.00084,-0.0112
0.42191,0.15021,-0.89411,-0.01258,0.00107,-0.00882
0.42185,0.15021,-0.89414,-0.00913,0.00201,-0.01154
0.42152,0.1501,-0.89431,-0.00575,0.00034,-0.00722
0.42091,0.14982,-0.89464,-0.01203,0.0011,-0.00872
0.42015,0.14947,-0.89506,-0.01063,0.00481,-0.01086
0.41909,0.14902,-0.89563,-0.00279,6e-05,-0.01573
0.41809,0.14863,-0.89616,-0.00494,-0.00903,-0.00801
0.41748,0.14839,-0.89649,-0.007,-0.01024,-0.00279
0.41706,0.14822,-0.89671,-0.0071,-0.01235,0.00227
0.41661,0.14803,-0.89695,-0.01009,-0.00936,-0.00257
0.41618,0.14785,-0.89718,-0.01096,-0.00354,-0.00769
0.41606,0.14778,-0.89725,-0.01236,0.0007,-0.01239
0.41634,0.14789,-0.8971,-0.01532,0.00357,-0.01551
0.4165,0.14794,-0.89702,-0.01149,0.00749,-0.01373
0.41648,0.14787,-0.89704,-0.01227,0.00673,-0.01631
0.41637,0.14775,-0.89711,-0.0118,0.00415,-0.01511
0.41622,0.1476,-0.89721,-0.01022,0.00075,-0.01057
0.41619,0.14751,-0.89723,-0.00994,-0.00563,-0.00357
0.41635,0.14746,-0.89717,-0.01069,-0.00917,-0.00026
0.4165,0.14742,-0.8971,-0.0132,0.00201,-0.00725
0.41626,0.14731,-0.89723,-0.00543,0.00525,-0.02096
0.41578,0.1472,-0.89747,0.00086,0.00445,-0.01724
0.41558,0.14721,-0.89757,-0.00199,0.00213,-0.0159
0.41565,0.14735,-0.89751,-0.00447,-0.01263,0.00221
0.41576,0.14745,-0.89744,-0.00779,-0.01652,0.00416
0.41576,0.14752,-0.89743,-0.00778,-0.01658,0.00415
0.4159,0.1477,-0.89734,-0.011,-0.00387,-0.00606
0.41638,0.14797,-0.89707,-0.01096,0.00913,-0.01605
0.41682,0.14819,-0.89683,-0.01139,0.00891,-0.01629
0.41705,0.14824,-0.89671,-0.01228,0.016,-0.0212
0.41702,0.14811,-0.89675,-0.01187,0.00967,-0.01652
0.41665,0.14779,-0.89697,-0.0115,0.00999,-0.0163
0.41595,0.14731,-0.89738,-0.01014,-0.00752,-0.00712
0.41503,0.14681,-0.89788,-0.01148,-0.01386,-0.00568
0.41447,0.1465,-0.8982,-0.01092,-0.01354,-0.00537
0.41442,0.14653,-0.89821,-0.00932,-0.01528,0.00061
0.41486,0.14685,-0.89796,-0.00612,-0.00864,-0.00333
0.41554,0.14729,-0.89757,-0.00507,-0.00314,-0.00386
0.41615,0.14771,-0.89722,-0.0032,0.00583,-0.011
0.41659,0.14796,-0.89697,-0.00878,0.00866,-0.01243
0.4167,0.14797,-0.89692,-0.01088,0.00596,-0.01075
0.41643,0.14778,-0.89708,-0.00732,0.00315,-0.01
0.41607,0.14755,-0.89728,-0.01036,-0.00613,-0.00639
0.4159,0.14739,-0.89738,-0.00976,-0.00549,-0.00755
0.41591,0.14738,-0.89739,-0.00979,-0.00573,-0.00818
0.416,0.14743,-0.89733,-0.00687,-0.00177,-0.00724
0.41607,0.1475,-0.89729,-0.00511,0.00126,-0.00805
0.41611,0.14757,-0.89726,-0.00911,0.0069,-0.0111
0.41597,0.14754,-0.89733,-0.00865,0.01146,-0.01882
0.41554,0.14743,-0.89755,-0.00902,0.01138,-0.01722
0.41506,0.1472,-0.89781,-0.01056,0.00356,-0.00928
0.41456,0.14685,-0.89809,-0.01141,-0.00919,-0.00462
0.41396,0.14644,-0.89844,-0.01083,-0.01306,-0.00113
0.4134,0.1461,-0.89875,-0.00701,-0.01784,0.0023
0.41312,0.14595,-0.8989,-0.00675,-0.01581,-0.00205
0.41333,0.14608,-0.89879,-0.00557,-0.00837,-0.004
0.41387,0.14641,-0.89849,-0.00833,-0.00047,-0.00996
0.41446,0.14675,-0.89816,-0.0098,0.00607,-0.01529
0.41482,0.14697,-0.89796,-0.006,0.01392,-0.0154
0.41493,0.14713,-0.89788,-0.01045,0.00976,-0.01585
0.41499,0.14719,-0.89784,-0.01127,0.003,-0.01242
0.41489,0.14715,-0.89789,-0.01069,0.00387,-0.00947
0.41473,0.14705,-0.89798,-0.01138,-0.00469,-0.0095
0.41458,0.14699,-0.89806,-0.00758,-8e-05,-0.00767
0.41451,0.14693,-0.8981,-0.00562,0.00053,-0.00804
0.41453,0.14689,-0.8981,-0.00888,-0.00036,-0.00707
0.41463,0.14691,-0.89805,-0.0065,-0.00296,-0.01055
0.41474,0.14693,-0.898,-0.00578,-0.00329,-0.00688
0.41481,0.14697,-0.89796,-0.00376,-0.00067,-0.00805
0.41486,0.14699,-0.89793,-0.00853,-0.0058,-0.00623
0.41487,0.14697,-0.89793,-0.00855,-0.00579,-0.00623
0.41488,0.14698,-0.89793,-0.01022,-0.00887,-0.00626
0.41496,0.14705,-0.89788,-0.00908,-0.00136,-0.00847
0.41521,0.14721,-0.89773,-0.00933,-0.00152,-0.00861
0.41558,0.14743,-0.89753,-0.00861,0.00861,-0.01047
0.41579,0.14755,-0.89741,-0.012,0.001,-0.01227
0.41584,0.14756,-0.89739,-0.01298,0.00037,-0.01263
0.41575,0.14755,-0.89743,-0.00886,-0.00104,-0.01122
0.41573,0.14754,-0.89744,-0.00816,-0.00112,-0.00838
0.41588,0.14759,-0.89736,-0.0096,-0.00194,-0.00704
0.41608,0.14766,-0.89726,-0.00958,-0.00382,-0.0063
0.41634,0.14776,-0.89712,-0.00771,-1e-05,-0.00428
0.41655,0.14784,-0.89701,-0.00473,0.00061,-0.00481
0.4166,0.14782,-0.89699,-0.00972,-0.00326,-0.00695
0.4166,0.14779,-0.89699,-0.01218,-0.00413,-0.0099
0.41685,0.14788,-0.89686,-0.01517,-0.00294,-0.01021
0.41704,0.14796,-0.89677,-0.01092,-0.0019,-0.01
0.41701,0.14792,-0.89679,-0.00656,-0.0022,-0.00825
0.41693,0.14789,-0.89683,-0.00045,0.00138,-0.0075
0.41674,0.1478,-0.89693,-0.00234,-0.0,-0.00706
0.41658,0.14768,-0.89702,-0.00693,-0.00313,-0.00534
0.41642,0.14757,-0.89712,-0.00533,-0.00271,-0.00656
0.41627,0.14748,-0.8972,-0.00828,-0.0008,-0.01111
0.4162,0.14744,-0.89724,-0.00851,-0.00081,-0.01057
0.41619,0.14743,-0.89725,-0.00973,0.00061,-0.00795
0.41619,0.1474,-0.89725,-0.014,-0.0029,-0.00891
0.41618,0.14738,-0.89726,-0.0157,-0.00326,-0.0134
0.41621,0.1474,-0.89724,-0.01225,-0.0025,-0.00933
0.41625,0.14746,-0.89721,-0.01276,-0.00128,-0.00748
0.4163,0.14752,-0.89718,-0.01279,-0.00038,-0.01114
0.41632,0.14756,-0.89716,-0.01184,-0.00044,-0.01081
0.41634,0.14762,-0.89715,-0.00884,-1e-05,-0.01117
0.41642,0.14769,-0.89709,-0.00921,-0.00168,-0.00891
0.41651,0.14773,-0.89705,-0.00839,0.0014,-0.00885
0.41653,0.14771,-0.89704,-0.00831,-0.00187,-0.00771
0.41648,0.14767,-0.89707,-0.00732,-0.00334,-0.00863
0.41646,0.14764,-0.89709,-0.00601,-0.00216,-0.00576
0.41649,0.14763,-0.89707,-0.00748,-0.00383,-0.00582
0.4165,0.1476,-0.89707,-0.00494,-0.00052,-0.00883
0.41654,0.14759,-0.89706,-0.00816,-0.00097,-0.00642
0.41651,0.14755,-0.89707,-0.00834,-0.0011,-0.00776
0.41645,0.14751,-0.89711,-0.00824,-0.0015,-0.01111
0.41639,0.14747,-0.89715,-0.01083,-0.00082,-0.01
0.41632,0.14743,-0.89718,-0.0091,-0.00165,-0.0096
0.41627,0.14738,-0.89722,-0.00912,-0.00021,-0.00989
0.41619,0.14733,-0.89726,-0.0162,-0.00365,-0.01038
0.41609,0.14729,-0.89732,-0.009,0.00107,-0.01087
0.41598,0.14724,-0.89738,-0.00861,0.00263,-0.00921
0.41591,0.14719,-0.89741,-0.01341,-0.00382,-0.01115
0.41599,0.14722,-0.89738,-0.01357,-0.0067,-0.0097
0.41615,0.14731,-0.89728,-0.0158,-0.00847,-0.01054
0.41636,0.14744,-0.89717,-0.01342,-0.00159,-0.00847
0.41651,0.14757,-0.89708,-0.00789,0.00287,-0.01169
0.41658,0.14763,-0.89704,-0.00781,0.00251,-0.00961
0.41657,0.14761,-0.89704,-0.0093,0.00108,-0.00719
0.41649,0.14752,-0.89709,-0.00888,-0.00651,-0.00563
0.41634,0.14746,-0.89717,-0.00457,-0.00672,-0.00357
0.41622,0.14741,-0.89723,-0.00305,-0.00413,-0.00667
0.41613,0.14742,-0.89728,-0.00204,0.00055,-0.006
0.41615,0.14741,-0.89727,-0.00862,-0.00137,-0.00845
0.41622,0.1474,-0.89724,-0.00921,-0.00312,-0.01028
0.41629,0.14739,-0.89721,-0.01233,-0.00485,-0.00968
0.41638,0.14743,-0.89716,-0.01036,-0.0038,-0.01385
0.41662,0.14753,-0.89703,-0.01367,-0.00352,-0.01294
0.41695,0.14769,-0.89685,-0.01641,-0.00335,-0.01087
0.41728,0.14785,-0.89667,-0.01818,-0.00313,-0.01137
0.41745,0.14794,-0.89658,-0.01503,-0.00121,-0.01079
0.41755,0.148,-0.89652,-0.01314,-0.00286,-0.01068
0.4177,0.14806,-0.89644,-0.01327,-0.00211,-0.00983
0.4179,0.14813,-0.89634,-0.01455,-0.00339,-0.01008
0.41803,0.1482,-0.89626,-0.01057,-0.00344,-0.00785
0.418,0.14822,-0.89627,-0.00577,-0.00241,-0.00715
0.41779,0.14817,-0.89638,-0.00674,-0.00151,-0.00548
0.41747,0.14806,-0.89655,-0.00483,-0.00191,-0.00883
0.41728,0.148,-0.89665,-0.00518,-0.00155,-0.00467
0.41717,0.148,-0.8967,-0.00428,-0.00159,-0.00778
0.41716,0.14803,-0.8967,-0.00475,0.00073,-0.00728
0.41725,0.1481,-0.89664,-0.00502,-0.0018,-0.00967
0.41743,0.1482,-0.89654,-0.00805,-0.00281,-0.00749
0.41773,0.14837,-0.89638,-0.01215,-0.00323,-0.01196
0.41813,0.1486,-0.89615,-0.01139,-0.00039,-0.0125
0.41861,0.14885,-0.89588,-0.01236,0.0007,-0.01316
0.41887,0.14898,-0.89574,-0.01498,0.00233,-0.01245
0.41882,0.14897,-0.89577,-0.01271,0.00263,-0.01335
0.41861,0.14885,-0.89589,-0.01139,0.00154,-0.01178
0.4184,0.14871,-0.896,-0.01121,-0.00142,-0.00857
0.41829,0.14861,-0.89607,-0.01559,-0.01156,-0.006
0.41825,0.14861,-0.89609,-0.00069,-0.00164,-0.00611
0.41843,0.14868,-0.896,-0.0069,-0.00451,-0.00683
0.41884,0.14886,-0.89577,-0.01452,-0.00811,-0.00819
0.41935,0.14907,-0.8955,-0.01846,-0.01038,-0.00658
0.41976,0.14927,-0.89528,-0.01716,-0.00905,-0.00646
0.41992,0.14941,-0.89518,-0.01903,-0.00594,-0.01127
0.42001,0.1496,-0.8951,-0.00134,0.00635,-0.01058
0.42024,0.14981,-0.89496,0.00185,0.00571,-0.0119
0.42066,0.15005,-0.89472,0.00514,0.00682,-0.00658
0.4209,0.15016,-0.89459,0.00018,0.00337,-0.00272
0.42076,0.15005,-0.89467,-0.00197,0.0024,-0.00163
0.42034,0.1498,-0.89492,-0.00852,-0.00259,-0.00611
0.42001,0.14955,-0.89511,-0.0067,-0.00272,-0.01212
0.42012,0.14951,-0.89507,-0.01362,0.00038,-0.01503
0.42032,0.14951,-0.89497,-0.02398,-0.00134,-0.01685
0.42068,0.14954,-0.8948,-0.02956,-0.00293,-0.01358
0.42063,0.14944,-0.89484,-0.02282,-0.00709,-0.01252
0.42061,0.1494,-0.89486,-0.01587,-0.00383,-0.01567
0.42074,0.14946,-0.89479,-0.01214,-0.00122,-0.01241
0.4209,0.14952,-0.8947,-0.01181,-0.00404,-0.00743
0.42089,0.14954,-0.8947,-0.00666,-0.00332,-0.00522
0.42099,0.1496,-0.89464,-0.01175,-0.01151,-0.00323
0.42129,0.1497,-0.89449,-0.01437,-0.00464,-0.00705
0.42155,0.14985,-0.89434,-0.00748,0.00104,-0.00952
0.42159,0.14997,-0.8943,0.00152,0.00611,-0.01166
0.42146,0.14997,-0.89436,0.00854,0.00889,-0.01183
0.4214,0.14992,-0.8944,0.00362,0.00741,-0.00847
0.42131,0.14976,-0.89447,-0.00513,0.00034,-0.00582
0.42088,0.14947,-0.89472,-0.009,-0.00203,-0.00511
0.42029,0.14912,-0.89505,-0.00841,-0.00168,-0.00477
0.41975,0.14884,-0.89535,-0.01068,-0.00423,-0.01287
0.41954,0.14867,-0.89548,-0.01359,-0.00477,-0.01258
0.4197,0.14868,-0.8954,-0.02039,-0.00822,-0.0134
0.42004,0.14882,-0.89522,-0.02203,-0.00305,-0.01036
0.42017,0.14888,-0.89515,-0.01955,-0.00123,-0.01002
0.42006,0.14884,-0.89521,-0.01196,-0.00198,-0.00836
0.41991,0.14877,-0.89529,-0.01041,-0.00191,-0.01175
0.41971,0.1487,-0.89539,-0.00535,-0.00035,-0.00854
0.41956,0.14866,-0.89547,-0.00434,-0.00217,-0.00387
0.41947,0.14864,-0.89552,-0.00045,-0.00339,-0.00474
0.41946,0.14865,-0.89552,-0.00161,-0.0052,-0.00511
0.41938,0.14865,-0.89556,-0.00533,-0.00122,-0.0055
0.41929,0.14865,-0.8956,-0.00656,-0.00272,-0.00496
0.41922,0.14868,-0.89563,-0.01108,-0.00479,-0.00995
0.41931,0.14875,-0.89558,-0.01722,-8e-05,-0.01258
0.41949,0.14886,-0.89547,-0.0174,-0.00019,-0.01268
0.41963,0.14894,-0.89539,-0.02159,-0.00186,-0.01559
0.41966,0.14897,-0.89538,-0.01554,0.00128,-0.01328
0.4195,0.14892,-0.89546,-0.01751,-0.00129,-0.01279
0.41928,0.14884,-0.89557,-0.01192,-0.00046,-0.01083
0.41905,0.14874,-0.8957,-0.01242,-0.00359,-0.00846
0.41885,0.14867,-0.8958,-0.00711,-0.00027,-0.00865
0.41872,0.14861,-0.89587,-0.0062,-0.00161,-0.0082
0.41868,0.14859,-0.8959,-0.00513,-0.00338,-0.00561
0.41873,0.1486,-0.89587,-0.00565,-0.00392,-0.0056
0.41883,0.14864,-0.89582,-0.00693,-0.00126,-0.00788
0.41888,0.14866,-0.89579,-0.00706,0.00233,-0.01042
0.41887,0.14864,-0.8958,-0.00957,0.00238,-0.01257
0.41868,0.14854,-0.8959,-0.00945,0.00381,-0.01039
0.41832,0.14832,-0.89611,-0.01566,-0.00106,-0.01141
0.41791,0.14805,-0.89634,-0.01373,-0.00398,-0.01131
0.41758,0.14784,-0.89653,-0.01289,-0.00935,-0.01005
0.41748,0.14775,-0.89659,-0.01386,-0.00615,-0.00944
0.41757,0.14778,-0.89654,-0.01265,-0.00507,-0.00954
0.41773,0.14788,-0.89646,-0.01304,-0.001,-0.01073
0.41791,0.14797,-0.89636,-0.01335,-0.00034,-0.01406
0.41817,0.1481,-0.89621,-0.00778,0.00246,-0.012
0.41845,0.14827,-0.89606,-0.0082,0.00121,-0.0091
0.41864,0.1484,-0.89595,-0.00596,0.00106,-0.00518
0.41864,0.14842,-0.89594,-0.00582,-0.00066,-0.00645
0.41848,0.14834,-0.89603,-0.00634,-0.00425,-0.00566
0.41824,0.14821,-0.89616,-0.00649,-0.00273,-0.00665
0.41797,0.14809,-0.89631,-0.00499,0.00437,-0.01009
0.41772,0.14797,-0.89645,-0.00143,9e-05,-0.00837
0.4175,0.14784,-0.89657,-0.01119,-0.00357,-0.01287
0.41739,0.14779,-0.89663,-0.01401,-0.00408,-0.00874
0.41726,0.14772,-0.8967,-0.01479,-0.00226,-0.01008
0.41699,0.14761,-0.89685,-0.01452,-0.00329,-0.01166
0.41671,0.14749,-0.897,-0.01499,-0.00255,-0.01603
0.41679,0.1475,-0.89695,-0.01394,-0.00091,-0.01338
0.41739,0.14775,-0.89663,-0.01126,-0.00136,-0.01546
0.41832,0.14814,-0.89614,-0.01392,-0.00167,-0.01484
0.41924,0.14853,-0.89564,-0.01209,-0.00289,-0.00853
0.42014,0.14885,-0.89517,-0.01179,-0.00249,-0.01015
0.42125,0.14931,-0.89457,-0.00755,-0.00181,-0.01072
0.42238,0.14981,-0.89395,-0.00449,0.0039,-0.00931
0.4232,0.15019,-0.8935,-0.00758,0.0035,-0.00515
0.42365,0.15034,-0.89326,-0.00587,-0.00246,-0.00517
0.42392,0.15041,-0.89312,-0.00438,-0.00675,-0.00527
0.42426,0.15051,-0.89295,-0.01595,-0.00261,-0.00856
0.42452,0.15061,-0.8928,-0.01571,-0.00052,-0.01004
0.42451,0.15064,-0.8928,-0.0145,0.00234,-0.01175
0.42405,0.1505,-0.89305,-0.01443,0.00133,-0.00965
0.42314,0.15013,-0.89354,-0.01352,0.0017,-0.00915
0.42246,0.14978,-0.89392,-0.00299,-0.0053,-0.0176
0.42255,0.14982,-0.89387,-0.01148,-0.00764,-0.00261
0.42279,0.14998,-0.89373,-0.01171,-0.0078,-0.00275
0.42263,0.14997,-0.89381,-0.00329,-0.00196,-0.00152
0.42219,0.14981,-0.89404,-0.00247,-0.00426,-0.01018
0.42213,0.14979,-0.89407,-0.00241,-0.00423,-0.01015
0.42248,0.14995,-0.89389,-0.00615,0.00145,-0.01398
0.423,0.15018,-0.8936,-0.01548,0.00257,-0.00969
0.42332,0.15038,-0.89341,-0.0163,0.0018,-0.00942
0.42334,0.15037,-0.8934,-0.01615,-0.00191,-0.01201
0.42321,0.15031,-0.89348,-0.01675,-0.00193,-0.01459
0.42301,0.15024,-0.89358,-0.0151,3e-05,-0.01136
0.42265,0.15007,-0.89378,-0.00331,0.00267,-0.01149
0.42236,0.14994,-0.89394,-0.0091,0.00186,-0.00985
0.42207,0.1498,-0.8941,-0.01083,-0.00035,-0.00757
0.42172,0.14963,-0.8943,-0.01147,-0.00185,-0.01095
0.42163,0.14959,-0.89435,-0.01211,-0.00141,-0.01177
0.42183,0.1497,-0.89423,-0.01033,-0.00042,-0.01038
0.42213,0.14983,-0.89407,-0.00988,-0.00082,-0.0096
0.42238,0.14993,-0.89394,-0.0102,0.00043,-0.00899
0.42242,0.14993,-0.89391,-0.00548,-0.00119,-0.00489
0.42228,0.14983,-0.894,-0.0039,-0.00099,-0.00781
0.42198,0.14968,-0.89416,-0.00821,-0.00648,-0.00476
0.42171,0.14951,-0.89432,-0.00911,-0.00675,-0.00926
0.42145,0.14939,-0.89446,-0.00665,-0.00543,-0.0059
0.42119,0.14925,-0.89461,-0.00566,-0.00497,-0.00452
0.42101,0.14918,-0.8947,-0.00799,-0.00161,-0.00879
0.42086,0.14914,-0.89478,-0.01092,0.00145,-0.01118
0.4207,0.14902,-0.89488,-0.01277,-0.00182,-0.012
0.42047,0.14891,-0.895,-0.01342,-0.0,-0.01152
0.42021,0.14884,-0.89514,-0.01315,0.00254,-0.01322
0.42002,0.14875,-0.89524,-0.01502,0.00186,-0.01273
0.41975,0.14862,-0.89539,-0.01355,0.00114,-0.0119
0.41941,0.14848,-0.89557,-0.00845,-0.00137,-0.01149
0.41909,0.14834,-0.89574,-0.00944,0.00146,-0.01258
0.41896,0.14828,-0.89581,-0.00028,0.00378,-0.01332
0.41885,0.14814,-0.89589,-0.01229,-0.00304,-0.00535
0.41852,0.14795,-0.89608,-0.0045,-0.00269,-0.00816
0.41827,0.14778,-0.89622,-0.01086,-0.00597,-0.00805
0.41819,0.14775,-0.89626,-0.00815,-0.00532,-0.00559
0.41823,0.14774,-0.89624,-0.01145,-0.00276,-0.00641
0.41824,0.14771,-0.89624,-0.01048,-0.00259,-0.0081
0.41827,0.14772,-0.89623,-0.0124,-0.00085,-0.00912
0.41823,0.14773,-0.89625,-0.01074,0.00034,-0.00945
0.4182,0.14771,-0.89627,-0.01067,-0.0002,-0.01363
0.41823,0.14775,-0.89624,-0.01124,-0.003,-0.00767
0.4184,0.14783,-0.89615,-0.01203,-0.00325,-0.00641
0.41872,0.14798,-0.89598,-0.01312,-0.00409,-0.00655
0.41899,0.14813,-0.89582,-0.00971,0.00026,-0.01037
0.4193,0.14834,-0.89565,-0.00249,0.0046,-0.00964
0.41953,0.14848,-0.89551,-0.00889,0.00023,-0.01209
0.41995,0.14871,-0.89528,-0.01298,0.00336,-0.00954
0.42015,0.1488,-0.89517,-0.00592,0.00122,-0.01245
0.42043,0.14891,-0.89502,-0.00275,0.00151,-0.01068
0.42067,0.14903,-0.89489,-0.00337,-0.00246,-0.00906
0.42089,0.14913,-0.89477,-0.01289,-0.00037,-0.00646
0.42087,0.14907,-0.89479,-0.01038,-0.00074,-0.00923
0.42076,0.149,-0.89485,-0.01022,-0.0041,-0.00747
0.42081,0.14902,-0.89483,-0.01065,-0.00325,-0.00851
0.42099,0.14911,-0.89472,-0.01141,-0.00152,-0.00799
0.42126,0.14925,-0.89458,-0.01322,0.00015,-0.01193
0.42142,0.14933,-0.89449,-0.00733,0.00036,-0.00841
0.42146,0.14936,-0.89446,-0.00688,0.00198,-0.00886
0.42147,0.14935,-0.89446,-0.01012,-0.00219,-0.00857
0.42161,0.1494,-0.89439,-0.01081,-0.00174,-0.00806
0.42188,0.1495,-0.89424,-0.01155,-0.00236,-0.00883
0.42209,0.14962,-0.89412,-0.00616,0.00261,-0.01007
0.42226,0.14968,-0.89403,-0.00418,0.00477,-0.00913
0.42248,0.14975,-0.89392,-0.00689,0.00066,-0.0103
0.42272,0.14981,-0.89379,-0.01336,-0.00159,-0.00725
0.42289,0.14984,-0.8937,-0.01095,-0.00473,-0.00766
0.42303,0.1499,-0.89363,-0.01007,-0.00192,-0.00733
0.42316,0.14993,-0.89356,-0.00773,-0.00133,-0.01055
0.42347,0.15007,-0.89339,-0.00784,0.00097,-0.0093
0.42367,0.15016,-0.89328,-0.0062,0.00238,-0.00927
0.4237,0.15015,-0.89327,-0.00982,0.00138,-0.00945
0.42365,0.1501,-0.8933,-0.01006,0.00205,-0.01081
0.42352,0.15001,-0.89338,-0.01154,-0.00453,-0.00701
0.42336,0.14994,-0.89347,-0.01015,-0.00244,-0.00743
0.42326,0.14993,-0.89351,-0.0094,-0.0005,-0.009
0.42326,0.14997,-0.89351,-0.00668,0.0026,-0.00893
0.42331,0.15001,-0.89348,-0.00871,0.00101,-0.01013
0.42331,0.15003,-0.89348,-0.00857,-9e-05,-0.01018
0.42326,0.15,-0.89351,-0.01215,0.00228,-0.00798
0.42316,0.14994,-0.89356,-0.00673,0.00273,-0.00873
0.42301,0.14985,-0.89365,-0.00708,-0.00176,-0.00927
0.42295,0.14981,-0.89369,-0.00867,-0.00206,-0.00802
0.42296,0.1498,-0.89368,-0.0092,-0.00049,-0.00618
0.42297,0.1498,-0.89367,-0.00834,0.00066,-0.00617
0.42295,0.14979,-0.89369,-0.00866,0.0,-0.00658
0.42283,0.14972,-0.89375,-0.00837,-0.00191,-0.0069
0.42257,0.14962,-0.89389,-0.00749,-0.00146,-0.00995
0.42238,0.14952,-0.894,-0.00914,-0.00147,-0.00938
0.42232,0.14952,-0.89403,-0.01035,-0.00111,-0.00705
0.42231,0.14952,-0.89404,-0.00712,-0.00074,-0.00782
0.42232,0.14952,-0.89403,-0.00765,-0.00112,-0.00859
0.42234,0.14954,-0.89402,-0.00993,-0.00021,-0.00901
0.42236,0.14954,-0.89401,-0.01027,-0.00128,-0.00831
0.42234,0.14951,-0.89402,-0.00976,-0.00017,-0.00826
0.42233,0.14948,-0.89403,-0.00625,-0.00187,-0.00761
0.4223,0.14948,-0.89404,-0.01077,-0.00063,-0.00859
0.42229,0.14948,-0.89405,-0.00881,-0.00046,-0.00936
0.42224,0.14944,-0.89408,-0.00823,-0.00067,-0.00992
0.42214,0.1494,-0.89414,-0.00593,0.00109,-0.00948
0.42207,0.14936,-0.89417,-0.00771,-0.00023,-0.00977
0.42199,0.14932,-0.89422,-0.00964,-0.00332,-0.00617
0.42198,0.14926,-0.89423,-0.00893,-0.00193,-0.00773
0.42197,0.14925,-0.89424,-0.0072,-0.0035,-0.00871
0.42195,0.14927,-0.89425,-0.00698,0.00046,-0.00805
0.42202,0.14931,-0.89421,-0.00755,0.0015,-0.00802
0.42214,0.14937,-0.89414,-0.00916,1e-05,-0.00835
0.42222,0.14939,-0.8941,-0.00947,0.00196,-0.01056
0.42227,0.14941,-0.89407,-0.01066,2e-05,-0.00998
0.42225,0.1494,-0.89408,-0.00964,0.00076,-0.00733
0.42219,0.14935,-0.89412,-0.00614,0.00082,-0.00992
0.42215,0.14932,-0.89414,-0.01059,-0.00166,-0.00985
0.42214,0.14931,-0.89415,-0.0092,-0.0005,-0.00885
0.42209,0.1493,-0.89418,-0.0078,0.00067,-0.00953
0.42209,0.14932,-0.89417,-0.00981,-0.00219,-0.00884
