gravity.x,gravity.y,gravity.z,userAcceleration.x,userAcceleration.y,userAcceleration.z
0.42106,0.05254,-0.90551,0.01186,0.007,-0.0077
0.42133,0.05413,-0.90529,-0.00456,-0.0095,0.01651
0.42205,0.0556,-0.90487,0.00764,0.00867,0.01601
0.42229,0.05646,-0.9047,0.00414,0.0104,0.00699
0.4231,0.05612,-0.90434,0.00543,-0.00978,0.01543
0.42394,0.05484,-0.90403,-0.00991,-0.01667,-0.00466
0.42428,0.05395,-0.90392,-0.02028,-0.02345,-0.01348
0.42455,0.05235,-0.90389,0.00968,0.00379,-0.0316
0.42331,0.04982,-0.90462,-0.07149,-0.05663,-0.04521
0.4123,0.05142,-0.9096,-0.01685,-0.15564,0.10422
0.40942,0.05478,-0.9107,0.03535,0.11736,-0.03292
0.41241,0.05581,-0.90929,0.01464,0.05889,-0.06129
0.41738,0.05547,-0.90704,-0.01264,0.03534,-0.03439
0.42226,0.05432,-0.90484,-0.02665,0.00872,-0.00638
0.42448,0.05414,-0.90382,-0.03013,-3e-05,0.01537
0.42662,0.05529,-0.90274,-0.0018,0.06057,0.11449
0.43242,0.05886,-0.89975,0.0077,0.09113,0.08681
0.43955,0.06345,-0.89597,0.00547,0.00981,-0.03891
0.44481,0.06559,-0.89322,0.02263,0.00694,-0.08397
0.44916,0.06475,-0.8911,0.02905,0.01137,-0.06062
0.45239,0.06314,-0.88959,0.02531,0.01962,-0.04312
0.45379,0.06292,-0.88889,0.00623,-0.03089,-0.00845
0.45372,0.06312,-0.8889,-0.01043,-0.00124,-0.00238
0.45194,0.06416,-0.88974,0.04072,-0.09624,-0.00426
0.45062,0.06438,-0.89039,0.02071,-0.01113,-0.01393
0.44917,0.06403,-0.89115,0.03523,-0.02143,-0.00724
0.44785,0.06382,-0.89183,0.03983,-0.02219,0.00671
0.44688,0.06389,-0.89231,0.03596,-0.01209,0.01082
0.44624,0.06424,-0.8926,0.01836,-0.0007,0.00988
0.44578,0.0647,-0.8928,0.00955,0.00979,0.00547
0.44521,0.06509,-0.89306,0.00375,0.01938,-0.00047
0.4443,0.06525,-0.8935,0.00039,0.02526,-0.00386
0.44283,0.06646,-0.89414,-0.00737,0.0194,-0.00502
0.44172,0.06635,-0.8947,-0.00956,0.01489,-0.00675
0.44092,0.06608,-0.89511,-0.01208,0.00968,-0.00204
0.44027,0.0656,-0.89547,-0.01057,-0.00344,0.00228
0.44022,0.06516,-0.89552,-0.01086,-0.00335,0.00068
0.43994,0.06469,-0.8957,-0.01178,-0.00228,-0.00199
0.4399,0.06489,-0.8957,-0.01205,0.00652,-0.00446
0.44017,0.06518,-0.89555,-0.00867,0.00666,-0.00549
0.4402,0.06559,-0.8955,-0.0089,0.00989,-0.00538
0.43971,0.06669,-0.89566,-0.0016,0.0111,-0.00545
0.43982,0.06701,-0.89558,0.00025,0.01163,-0.00368
0.43995,0.0672,-0.8955,0.00148,0.00914,-0.0028
0.44067,0.06811,-0.89508,0.00719,0.00911,0.00239
0.4412,0.0683,-0.89481,0.00801,0.00945,0.00137
0.44192,0.0684,-0.89445,0.00834,0.00721,0.0017
0.44339,0.06884,-0.89368,0.01134,0.00662,0.003
0.44434,0.06887,-0.89321,0.01116,0.00811,0.00131
0.44539,0.06884,-0.89269,0.01198,0.00756,0.0015
0.44713,0.06895,-0.89181,0.01318,0.00544,0.00025
0.44809,0.06895,-0.89132,0.01254,0.00573,-0.00138
0.44894,0.06889,-0.8909,0.01039,0.00186,-0.00232
0.44977,0.06884,-0.89049,0.00924,0.0005,-0.00351
0.4503,0.06882,-0.89022,0.00896,0.00144,-0.00371
0.45075,0.06881,-0.88999,0.00171,-6e-05,-0.00449
0.45099,0.06884,-0.88987,0.00188,0.00071,-0.00306
0.4511,0.06889,-0.88981,0.00021,0.0006,-0.00353
0.45111,0.06912,-0.88979,-0.00037,0.00366,-0.00366
0.45106,0.06938,-0.88979,-0.00143,0.00445,-0.00498
0.45107,0.06949,-0.88978,-0.00192,0.00368,-0.00322
0.45109,0.06977,-0.88975,-0.0012,0.006,-0.00249
0.45114,0.07009,-0.8897,-0.001,0.00593,-0.00276
0.45132,0.07016,-0.8896,-0.00116,0.00452,-0.00206
0.45154,0.0703,-0.88948,-0.00062,0.00433,-0.00047
0.45178,0.07023,-0.88936,-0.00335,0.00092,-0.00099
0.45215,0.07033,-0.88917,0.00344,0.00363,-0.00303
0.45255,0.07039,-0.88896,0.00416,0.00251,-0.00245
0.45289,0.07045,-0.88878,0.00381,0.00308,-0.00572
0.45319,0.07066,-0.88861,0.00389,0.00594,-0.00369
0.45335,0.07096,-0.8885,0.00303,0.00709,-0.00635
0.45331,0.07108,-0.88851,0.00152,0.00125,-0.00231
0.4533,0.07113,-0.88851,0.00255,-2e-05,-0.0001
0.45331,0.07117,-0.88851,0.00371,3e-05,-0.00068
0.45335,0.07115,-0.88849,0.0056,-0.00147,-0.00327
0.4534,0.07137,-0.88844,0.004,0.00471,-0.00294
0.45331,0.07142,-0.88849,0.00093,0.00184,-0.00113
0.45325,0.07153,-0.88851,0.00282,0.00433,-0.00173
0.45316,0.07166,-0.88854,0.00138,0.0044,-0.00132
0.45309,0.07175,-0.88858,0.00213,0.00316,-0.00159
0.45302,0.07181,-0.8886,0.00258,0.00378,0.00019
0.45293,0.07172,-0.88865,0.00266,0.00561,-0.00133
0.45287,0.0717,-0.88869,-0.00211,0.00186,-0.00102
0.45294,0.07168,-0.88865,-0.0013,0.00527,-0.0026
0.45299,0.07171,-0.88863,-0.0018,0.00612,-0.00226
0.45311,0.07154,-0.88858,-0.00277,0.00346,-0.00291
0.45319,0.07139,-0.88855,-0.00133,0.00169,-0.00244
0.45346,0.07122,-0.88843,-0.00105,0.00262,-0.00453
0.45385,0.07109,-0.88824,0.00056,0.00052,-0.00632
0.45459,0.07112,-0.88785,0.00914,0.00153,-0.00761
0.4554,0.07138,-0.88742,0.01179,0.00276,-0.00894
0.45648,0.07208,-0.88681,0.01585,0.00165,-0.00989
0.45788,0.07356,-0.88597,0.00872,0.00604,-0.00924
0.45857,0.0749,-0.8855,0.0024,0.0026,-0.01016
0.4584,0.07594,-0.88549,-0.00407,0.00301,-0.00754
0.45762,0.07705,-0.8858,-0.00019,0.00936,-0.00444
0.45657,0.07807,-0.88626,-0.00143,0.01493,-0.00786
0.45511,0.07859,-0.88696,-0.00463,0.01566,-0.0084
0.45304,0.07856,-0.88802,-0.00765,0.00026,0.01159
0.45126,0.07774,-0.889,-0.00536,0.00166,0.01087
0.45006,0.07723,-0.88965,0.00252,-0.00119,0.00438
0.44913,0.07688,-0.89015,0.00484,-0.00063,0.00142
0.44818,0.07627,-0.89068,0.00824,-0.00119,-0.00171
0.44783,0.07525,-0.89095,0.01396,-0.01104,-0.00213
0.44762,0.07439,-0.89112,0.01031,-0.0112,-0.00084
0.44754,0.07386,-0.89121,0.00547,-0.00814,0.00121
0.44748,0.07333,-0.89128,-0.00534,-6e-05,0.00273
0.44725,0.07304,-0.89142,-0.00573,0.00221,-0.00039
0.44699,0.0728,-0.89157,-0.00446,0.00474,-0.00183
0.44664,0.07286,-0.89174,0.00374,0.015,-0.00846
0.4462,0.07293,-0.89196,0.00348,0.0174,-0.00692
0.44569,0.07285,-0.89222,0.0009,0.01094,-0.00427
0.44504,0.07271,-0.89255,-0.00126,0.01002,-0.00157
0.44443,0.0725,-0.89288,0.00183,0.00464,-0.00567
0.44395,0.07217,-0.89314,0.00455,-0.00102,-0.006
0.44351,0.0717,-0.89339,0.00079,-0.00507,-0.00785
0.4431,0.07116,-0.89365,-0.00082,-0.00602,-0.00334
0.44261,0.07068,-0.89392,-0.00472,-0.00503,-0.00076
0.44222,0.07035,-0.89414,-0.00193,-0.00174,-0.00045
0.44194,0.07011,-0.8943,-0.00048,0.00137,-0.00109
0.44176,0.06994,-0.8944,-0.00095,0.00268,-0.00085
0.44156,0.06985,-0.89451,-0.00107,0.0034,-0.00114
0.44145,0.06968,-0.89458,0.00159,0.00212,6e-05
0.44144,0.06945,-0.8946,0.00016,0.00178,0.00141
0.44185,0.06915,-0.89442,0.0035,0.00047,0.00159
0.44246,0.06886,-0.89414,0.00359,0.00018,0.00162
0.44296,0.06853,-0.89392,0.00218,0.00447,0.00225
0.44349,0.0684,-0.89367,0.00277,0.00493,-0.00521
0.44397,0.06827,-0.89344,0.00467,0.00638,-0.0046
0.44446,0.06817,-0.8932,0.00464,0.00665,-0.00314
0.44518,0.06808,-0.89285,0.00595,0.00229,-7e-05
0.4458,0.06785,-0.89256,0.00305,-0.00082,0.0005
0.44631,0.06751,-0.89233,0.00411,-0.00094,-0.00462
0.44669,0.06715,-0.89216,0.00302,-0.00224,-0.00375
0.44695,0.06672,-0.89206,0.00333,-0.00109,-0.00735
0.44716,0.06661,-0.89197,0.00119,0.00232,-0.00819
0.44725,0.06667,-0.89192,-0.00154,0.00553,-0.00768
0.44715,0.06694,-0.89195,-0.00319,0.00848,-0.00514
0.44719,0.06704,-0.89192,-0.00546,0.00662,-0.00468
0.44725,0.06712,-0.89189,-0.00358,0.00766,-0.00397
0.44733,0.06737,-0.89183,0.00322,0.00475,-0.00371
0.44742,0.06727,-0.89179,0.00302,0.00209,-0.00484
0.44761,0.06724,-0.8917,0.00741,0.00313,-0.00437
0.44779,0.06724,-0.89161,0.0084,0.00211,-0.00079
0.44789,0.06742,-0.89155,0.00472,0.00451,-0.00108
0.44788,0.06751,-0.89154,0.00404,0.00134,-0.00109
0.44764,0.06753,-0.89166,0.00415,0.00138,0.00032
0.44749,0.06752,-0.89173,0.0058,0.00067,0.00111
0.44734,0.06755,-0.89181,0.00228,0.00088,-0.0021
0.44723,0.06758,-0.89186,-0.00169,0.00366,-0.00122
0.44721,0.06768,-0.89186,-0.00237,0.0026,-0.00011
0.44722,0.06776,-0.89185,-0.00502,0.0023,-0.001
0.44736,0.06776,-0.89179,-0.00546,0.00143,-0.00011
0.44767,0.06772,-0.89163,-0.0016,0.00058,-0.00125
0.44799,0.06769,-0.89147,-0.00217,0.00028,-0.00373
0.44834,0.06764,-0.8913,-0.00042,-0.00175,-0.00445
0.44866,0.06749,-0.89115,0.0003,-0.00207,-0.0036
0.44899,0.06741,-0.89099,0.00241,-0.00354,-0.00458
0.44926,0.06761,-0.89084,0.00208,0.00403,-0.00278
0.44951,0.06798,-0.89068,0.00126,0.0065,-0.00078
0.44979,0.06836,-0.89051,0.00161,0.00865,0.00047
0.45016,0.0687,-0.8903,0.00294,0.00793,-0.00081
0.45056,0.06895,-0.89008,0.00437,0.00681,-0.00076
0.45104,0.06907,-0.88982,0.00409,0.00411,-0.00173
0.45155,0.06909,-0.88957,0.00461,0.00399,-0.00393
0.452,0.0691,-0.88934,0.00395,0.00468,-0.00274
0.45237,0.06903,-0.88916,0.00227,0.00231,-0.00364
0.45257,0.06901,-0.88905,0.00019,0.00389,-0.0047
0.45272,0.06884,-0.88899,0.0017,0.00422,-0.00392
0.45272,0.06877,-0.889,0.00128,0.00329,-0.00627
0.45266,0.06862,-0.88904,-9e-05,0.00286,-0.00212
0.45257,0.06849,-0.88909,0.00051,0.00194,-0.00223
0.45249,0.06835,-0.88915,0.00329,0.00152,-0.00188
0.45242,0.06825,-0.88919,0.00151,0.00352,-0.00408
0.45244,0.0681,-0.88919,0.00439,0.00144,-0.00336
0.45248,0.06791,-0.88919,0.00189,0.00018,-0.00355
0.45248,0.06782,-0.88919,0.00175,0.00152,-0.00485
0.45242,0.06773,-0.88923,0.00127,0.00177,-0.00384
0.45231,0.06765,-0.88929,0.00212,0.00156,-0.00324
0.4522,0.06771,-0.88934,0.00369,0.00253,-0.00287
0.45204,0.06771,-0.88942,0.00305,0.00233,-0.00218
0.45181,0.0677,-0.88954,0.00249,0.00424,-0.0044
0.45153,0.06772,-0.88968,-0.00088,0.0003,-0.00088
0.4513,0.06761,-0.88981,0.0027,0.00153,0.00153
0.45111,0.06749,-0.88991,0.00059,0.00092,0.0008
0.45102,0.06756,-0.88995,0.00204,0.00514,-0.00177
0.45096,0.06747,-0.88999,-0.00032,0.00337,-0.00317
0.45083,0.06744,-0.89006,-0.00052,0.0036,-0.00199
0.45081,0.0673,-0.89008,0.00307,0.00329,-0.00369
0.4507,0.06714,-0.89015,-3e-05,0.00297,-0.0015
0.45059,0.06692,-0.89022,-0.00055,0.00054,-0.00387
0.4505,0.0667,-0.89028,0.00067,8e-05,-0.0014
0.45044,0.06652,-0.89032,0.00096,0.00095,-0.00113
0.4505,0.06636,-0.8903,0.00241,-7e-05,-0.00252
0.45056,0.0663,-0.89028,0.00337,0.0032,-0.00362
0.45064,0.06627,-0.89024,0.00423,0.00308,-0.00314
0.45069,0.06632,-0.89021,0.00137,0.00252,-0.00172
0.45072,0.06632,-0.8902,0.00033,0.00198,-0.00104
0.4508,0.06638,-0.89015,0.00248,0.0043,-0.00183
0.45086,0.06635,-0.89012,0.00167,0.00302,-0.00244
0.45096,0.06635,-0.89007,0.00213,0.00448,-0.00325
0.45105,0.06633,-0.89003,0.00295,0.0041,-0.00251
0.45108,0.06631,-0.89002,0.00159,0.00334,-0.00247
0.45112,0.06623,-0.89,0.00282,0.0015,-0.00291
0.45117,0.06615,-0.88998,0.00069,0.00071,-0.00102
0.45121,0.06609,-0.88997,0.00163,0.00124,-0.00206
0.45118,0.06611,-0.88998,0.00113,0.00434,-0.0031
0.45114,0.06611,-0.89,0.00047,0.00332,-0.00391
0.45122,0.06609,-0.88996,0.00186,0.00159,-0.0022
0.45126,0.06607,-0.88994,0.00057,0.00238,-0.0037
0.4513,0.06606,-0.88992,0.00107,0.00271,-0.00464
0.45138,0.06608,-0.88988,0.00388,0.00381,-0.00189
0.45145,0.06614,-0.88984,0.00151,0.00308,-0.00205
0.45151,0.06608,-0.88982,0.00311,0.00182,-0.00299
0.45159,0.06602,-0.88978,0.00213,0.00124,-0.00079
0.45172,0.06605,-0.88971,0.00305,0.00364,-0.00224
0.45181,0.06598,-0.88967,0.00194,0.00146,-0.0022
0.45197,0.06594,-0.88959,0.00529,0.00138,-0.00364
0.45222,0.06611,-0.88945,0.00487,0.00359,-0.00403
0.45227,0.06613,-0.88943,0.00103,0.00321,-0.00295
0.45217,0.06608,-0.88948,-0.00056,0.00147,-0.00188
0.45208,0.06601,-0.88953,0.00057,0.0012,-0.00012
0.45204,0.06599,-0.88956,0.00185,0.00145,-0.0024
0.45206,0.06596,-0.88955,0.00174,0.00363,-0.00186
0.45209,0.06604,-0.88953,0.0005,0.00221,-0.00255
0.45202,0.06601,-0.88956,0.00068,0.00427,-0.00363
0.45198,0.06594,-0.88959,0.00273,0.00338,-0.00261
0.45187,0.06585,-0.88965,0.00026,-0.00018,-0.0029
0.45179,0.06577,-0.8897,0.00028,0.00073,-0.00307
0.45178,0.06574,-0.8897,0.00211,0.00135,-0.00234
0.45174,0.06561,-0.88973,0.00227,-0.00079,-0.00104
0.45167,0.06555,-0.88978,0.00244,-0.00038,-0.00222
0.4517,0.06569,-0.88975,0.00454,0.00324,-0.00289
0.45167,0.06581,-0.88976,0.00126,0.0034,-0.00336
0.4516,0.06586,-0.88979,0.00252,0.00278,-0.00224
0.45147,0.06599,-0.88984,0.00138,0.00171,0.00027
0.45142,0.06607,-0.88986,-0.00025,0.00152,-0.00281
0.4515,0.06611,-0.88982,0.00536,0.00316,-0.00232
0.45159,0.06616,-0.88977,0.00318,0.00235,-0.00405
0.4516,0.06622,-0.88976,0.00248,0.00261,-0.00514
0.45163,0.06623,-0.88974,0.00286,-5e-05,-0.00436
0.45163,0.06626,-0.88974,-0.0,0.00262,-0.00337
0.45156,0.0663,-0.88977,0.00112,0.00056,-0.00251
0.45149,0.06638,-0.8898,-0.00158,0.0027,-0.00168
0.45148,0.06652,-0.8898,0.00131,0.00279,-0.00261
0.45149,0.06666,-0.88978,0.00249,0.00492,-0.00168
0.45151,0.06683,-0.88976,0.00122,0.0046,-0.00274
0.45154,0.06687,-0.88974,0.00159,8e-05,0.0006
0.45155,0.06692,-0.88973,0.00202,0.00058,-0.00266
0.45155,0.067,-0.88973,0.00304,0.00261,-0.00355
0.45153,0.06712,-0.88973,0.00128,0.00334,-0.00404
0.4515,0.06719,-0.88974,0.00167,0.00231,-0.00202
0.45144,0.0673,-0.88976,0.00115,0.00263,-0.00172
0.45141,0.06736,-0.88977,0.00191,0.00178,-0.00217
0.45139,0.06747,-0.88977,0.00138,0.00247,-0.00195
0.45137,0.06755,-0.88978,0.00346,0.00401,-0.00294
0.45141,0.06762,-0.88975,0.00364,0.00149,-0.00241
0.45141,0.0678,-0.88974,0.00343,0.00463,-0.0042
0.45133,0.06793,-0.88977,0.00301,0.00375,-0.00421
0.45115,0.068,-0.88985,0.00022,0.00304,-0.00477
0.451,0.06804,-0.88993,0.00287,0.00034,-0.00302
0.45089,0.0681,-0.88998,0.00298,0.00027,-0.00297
0.45079,0.06819,-0.89002,0.00104,0.00147,-0.00526
0.45069,0.06836,-0.89006,-0.00033,0.00331,-0.00188
0.45064,0.0684,-0.89008,0.00104,0.00352,-0.00341
0.45059,0.06839,-0.89011,0.0008,0.00275,-0.00149
0.45064,0.06854,-0.89007,0.00278,0.00321,-0.00057
0.45055,0.06852,-0.89012,0.00224,0.00147,-0.00156
0.45041,0.06851,-0.89019,0.00346,0.00285,-0.00147
0.45029,0.06847,-0.89025,0.00172,-0.00028,-0.00072
0.45015,0.0685,-0.89032,0.00048,0.00141,-0.00221
0.45011,0.06859,-0.89034,0.00313,0.00245,-0.00375
0.45004,0.06872,-0.89036,0.0005,0.00301,-0.00428
0.44997,0.06877,-0.89039,0.00088,0.00348,-0.00228
0.44997,0.06888,-0.89038,0.00187,0.0009,-0.00122
0.44997,0.06896,-0.89038,0.00041,0.00235,0.0007
0.44998,0.06903,-0.89037,0.00127,0.0023,-0.00409
0.45003,0.06914,-0.89033,0.00194,0.00172,-0.00165
0.45008,0.06922,-0.8903,0.00481,0.00204,-0.00298
0.45002,0.06922,-0.89033,0.00147,0.00298,-0.0037
0.45,0.06927,-0.89034,0.00082,0.00202,-0.00195
0.44994,0.06923,-0.89037,0.00108,0.00275,-0.00157
0.44987,0.0692,-0.89041,0.0002,0.00358,-0.00338
0.44981,0.06922,-0.89044,0.00097,0.00323,-0.00257
0.44979,0.06918,-0.89045,0.00158,0.00359,-0.00234
0.44974,0.06914,-0.89048,0.00177,0.0023,-0.00266
0.44979,0.06913,-0.89046,0.00352,0.00382,-0.00257
0.44978,0.06905,-0.89046,0.00192,0.00279,-0.00507
0.44986,0.06891,-0.89044,0.00161,-3e-05,-0.0019
0.44994,0.06879,-0.8904,0.00184,0.00154,-0.00167
0.44998,0.06865,-0.8904,0.00122,0.00082,-0.00369
0.45003,0.06862,-0.89038,0.00165,0.00159,-0.0021
0.45008,0.06862,-0.89035,0.00292,0.00322,-0.0019
0.45014,0.06863,-0.89032,0.00449,0.00252,-0.00013
0.45025,0.06861,-0.89026,0.00192,0.00162,-0.00167
0.45029,0.06861,-0.89024,0.00256,0.00387,-0.00487
0.45026,0.06855,-0.89026,0.0004,0.00161,-0.00285
0.45017,0.06839,-0.89032,-0.0005,0.0007,-0.00028
0.45014,0.06824,-0.89034,0.00074,-0.00167,-0.00201
0.45021,0.0682,-0.89032,0.00139,0.00206,-0.00089
0.45028,0.06808,-0.89029,0.00118,0.00141,-0.00241
0.45032,0.06809,-0.89027,-0.00069,0.00378,-0.00242
0.45032,0.06797,-0.89027,0.0001,0.00307,-0.00351
0.45038,0.06789,-0.89025,0.00322,0.0017,-0.00263
0.45046,0.0678,-0.89022,0.00316,0.001,-0.00213
0.4505,0.06777,-0.8902,0.001,0.00323,-0.00214
0.45051,0.06775,-0.8902,0.00159,0.00329,-0.00327
0.45055,0.06766,-0.89019,0.00252,-0.00017,-0.0009
0.45064,0.06766,-0.89014,0.00311,0.00319,-0.00422
0.45077,0.06765,-0.89007,0.00358,0.00251,-0.00296
0.45085,0.06764,-0.89003,0.0029,0.00342,-0.00332
0.45091,0.06767,-0.89,0.00103,0.00202,0.00023
0.45095,0.06767,-0.88998,0.00039,0.00215,-0.00213
0.45106,0.06766,-0.88993,0.00279,0.00255,-0.00384
0.45125,0.06769,-0.88982,0.00393,0.00134,-0.00454
0.45143,0.06771,-0.88973,0.00444,0.00231,-0.00431
0.45169,0.0678,-0.88959,0.00691,0.00169,-0.00242
0.45208,0.06806,-0.88938,0.00212,0.00273,-0.00262
0.45223,0.0682,-0.88929,0.00033,0.00209,-0.00239
0.45232,0.06835,-0.88923,0.00079,0.00254,-0.00286
0.45232,0.06855,-0.88921,-0.00069,0.00083,0.00086
0.4524,0.06866,-0.88917,0.0007,0.00269,2e-05
0.45248,0.06874,-0.88912,0.00097,0.00264,-0.00019
0.45246,0.06886,-0.88912,0.00162,0.00155,-0.0036
0.45242,0.06883,-0.88914,0.00378,0.0003,-0.00496
0.45234,0.06882,-0.88918,0.00409,0.00157,-0.00318
0.45231,0.06888,-0.8892,0.00196,0.00168,-0.00182
0.45228,0.0689,-0.88921,0.00074,0.00056,-0.00241
0.45223,0.06901,-0.88923,-0.00067,0.00254,-0.00149
0.45216,0.069,-0.88926,-0.00099,0.00158,0.00059
0.45211,0.06897,-0.88929,-0.00103,0.00148,-0.00245
0.45217,0.069,-0.88926,0.00448,0.00273,-0.00404
0.45226,0.0691,-0.88921,0.00271,0.003,-0.00409
0.45241,0.06908,-0.88913,0.00665,0.00121,-0.00279
0.45254,0.06918,-0.88906,0.00548,0.00326,-0.00335
0.45255,0.0692,-0.88905,0.00424,0.00172,-0.00299
0.45238,0.06918,-0.88914,-0.00057,0.00189,-0.00279
0.45228,0.06916,-0.88919,0.00338,-0.00173,-0.00226
0.45226,0.06912,-0.8892,0.00094,0.00109,-0.00254
0.45229,0.06907,-0.88919,0.00184,0.00031,-0.00233
0.45227,0.0691,-0.8892,0.00038,0.00181,-0.00171
0.45216,0.06907,-0.88926,-0.00038,0.002,-0.00181
0.45206,0.06906,-0.88931,0.00015,0.00339,-0.00185
0.45194,0.06901,-0.88938,0.0003,0.00181,-0.00468
0.45181,0.0689,-0.88945,0.00055,0.00061,-0.00215
0.45177,0.06878,-0.88948,0.00412,0.00077,-0.00261
0.45171,0.06863,-0.88952,0.00321,-0.0018,-0.00016
0.4518,0.06841,-0.88949,0.00424,-0.00362,-0.00017
0.45189,0.06837,-0.88945,0.00389,0.00132,-0.00263
0.45201,0.06841,-0.88939,0.00435,0.00047,-0.00276
0.452,0.06836,-0.8894,0.00137,-0.00051,-0.00376
0.45196,0.06832,-0.88942,-0.00056,0.0024,-0.00209
0.45194,0.06842,-0.88942,0.00103,0.00321,-0.00072
0.45192,0.06842,-0.88943,0.00281,0.0036,-0.00281
0.45185,0.06842,-0.88946,0.00271,0.00333,-0.00539
0.45176,0.06847,-0.88951,0.00114,0.00369,-0.00197
0.45164,0.06841,-0.88957,0.00092,0.00274,0.00046
0.45156,0.06838,-0.88961,-0.00052,0.00204,6e-05
0.45149,0.06825,-0.88966,0.00037,0.00177,-0.00134
0.45135,0.06812,-0.88975,0.0025,8e-05,-0.00553
0.45125,0.06801,-0.8898,0.00239,0.00133,-0.00329
0.45119,0.06788,-0.88985,0.00383,0.00025,-0.00347
0.45116,0.06789,-0.88986,0.00227,0.00308,-0.00078
0.45107,0.0679,-0.8899,-0.00103,0.00543,-0.00168
0.45112,0.06789,-0.88988,0.00189,0.00394,0.00107
0.45123,0.06783,-0.88983,0.00322,-1e-05,-0.00274
0.45124,0.06773,-0.88983,0.0026,0.00086,-0.00524
0.45128,0.06762,-0.88982,0.00221,1e-05,-0.00322
0.45142,0.06759,-0.88975,0.00488,0.00189,-0.00315
0.45147,0.06758,-0.88972,0.00321,0.00194,-0.00385
0.45152,0.06757,-0.8897,0.00326,0.00163,-0.00129
0.45163,0.06754,-0.88964,0.00455,-5e-05,-0.00057
0.45173,0.06756,-0.8896,0.00155,0.00047,0.00158
0.45184,0.06757,-0.88953,0.00424,0.00111,-0.00245
0.45194,0.06759,-0.88949,0.0036,-0.0001,-0.00389
0.45225,0.0677,-0.88932,0.00612,3e-05,-0.00508
0.45267,0.06796,-0.88908,0.01022,0.00205,-0.00778
0.45306,0.06833,-0.88886,0.00559,0.00276,-0.00696
0.45326,0.06862,-0.88873,0.00066,0.00117,-0.00645
0.45335,0.06895,-0.88866,-0.0004,0.00235,0.002
0.45351,0.06932,-0.88855,0.00133,0.00401,-0.00073
0.45368,0.06962,-0.88844,0.00037,0.00454,0.00019
0.45371,0.07003,-0.88839,-0.00057,0.00323,-0.00206
0.45371,0.07018,-0.88838,-0.00019,0.00081,-0.00139
0.45363,0.07025,-0.88842,-0.00093,0.0023,-0.0026
0.45358,0.07037,-0.88843,0.00197,0.00304,-0.00195
0.45347,0.07042,-0.88849,0.00066,0.00186,-0.00313
0.45336,0.07052,-0.88853,0.00306,0.0044,-0.00394
0.45327,0.07055,-0.88858,0.00319,-0.0008,-0.00269
0.45326,0.07048,-0.88859,0.0052,-0.00235,-0.00425
0.45331,0.07057,-0.88856,0.00328,0.00078,-0.00253
0.45327,0.07064,-0.88857,0.00129,-0.00034,-0.00335
0.45311,0.07073,-0.88865,0.00011,0.00116,-0.00196
0.45288,0.07084,-0.88875,-0.00159,0.00241,-0.00058
0.45269,0.07088,-0.88885,-0.00026,0.00172,-0.00118
0.45256,0.07098,-0.8889,0.00264,0.00404,9e-05
0.45249,0.07099,-0.88894,0.00374,0.00476,-0.00251
0.45242,0.07096,-0.88898,0.0032,0.00225,0.00113
0.45246,0.07089,-0.88896,0.0026,0.0016,-0.00072
0.45241,0.0708,-0.889,0.00256,3e-05,-0.00136
0.45235,0.07072,-0.88903,0.003,0.00014,-0.0038
0.45221,0.07068,-0.88911,0.00193,0.00232,-0.00442
0.45212,0.0707,-0.88915,-0.0004,0.00312,-0.0012
0.4521,0.07076,-0.88915,-0.00133,0.00218,0.00021
0.4521,0.07067,-0.88916,0.00106,-0.00089,-0.00102
0.45209,0.07058,-0.88918,-0.00114,0.00047,-0.00285
0.45208,0.07049,-0.88919,0.00154,0.00251,-0.00053
0.45213,0.07054,-0.88916,0.00263,0.00338,0.00012
0.45211,0.07049,-0.88917,0.00115,0.00245,-0.00327
0.45216,0.07045,-0.88915,0.00204,0.00255,-0.00195
0.45231,0.0704,-0.88907,0.00322,0.00166,-0.00356
0.45234,0.0703,-0.88907,0.00292,3e-05,-0.0052
0.45236,0.07022,-0.88907,0.00527,-0.00022,-0.00269
0.45249,0.07022,-0.889,0.00522,0.00137,-0.00263
0.45253,0.07022,-0.88898,0.0038,0.00141,-0.0023
0.4526,0.07025,-0.88894,0.00192,0.00379,-0.0013
0.45263,0.07032,-0.88892,0.00141,0.00289,-0.00172
0.45267,0.07037,-0.8889,0.00266,0.00274,-0.00218
0.45263,0.07037,-0.88892,0.00176,0.00286,-0.00337
0.45255,0.0705,-0.88895,-0.00017,0.00132,-0.00111
0.45233,0.07036,-0.88907,-0.00045,-0.0008,-0.00232
0.45213,0.07025,-0.88918,0.00111,-0.00024,-0.0003
0.45201,0.0701,-0.88925,0.00161,-0.00155,-0.00416
0.45196,0.06997,-0.88929,0.00187,0.00098,-0.00335
0.45193,0.06994,-0.8893,0.00273,0.00175,-0.00239
0.45191,0.06989,-0.88932,0.00221,0.00126,-0.00295
0.45184,0.06977,-0.88937,0.00184,0.0003,-0.00449
0.45188,0.06966,-0.88935,0.0022,-0.00042,-0.0021
0.45191,0.06964,-0.88934,0.00301,0.0036,-0.00167
0.45191,0.06956,-0.88935,0.00234,0.00037,-0.00189
0.45189,0.06951,-0.88936,0.004,-0.00094,-0.00271
0.45202,0.06944,-0.8893,0.00558,-1e-05,-0.00068
0.45203,0.06947,-0.88929,0.00056,0.00255,-0.00283
0.45206,0.0695,-0.88928,0.00293,0.00288,-0.00011
0.45198,0.06952,-0.88932,0.00176,0.00189,-0.00305
0.45196,0.06944,-0.88933,0.00214,0.00031,-0.00494
0.45209,0.06936,-0.88927,0.00389,6e-05,-0.00335
0.45221,0.06924,-0.88922,0.00388,-0.0028,-0.00046
0.45237,0.06921,-0.88914,0.005,-0.0006,-0.0031
0.45248,0.06931,-0.88908,0.00371,0.00176,-0.0032
0.45253,0.06942,-0.88905,0.00199,0.00259,-0.00281
0.45262,0.06955,-0.88899,0.00278,0.00211,-0.00357
0.45257,0.06965,-0.889,-0.00042,0.00055,-0.00422
0.45255,0.06977,-0.889,0.00096,0.00298,-0.00147
0.45257,0.06979,-0.88899,0.00072,0.00134,0.00011
0.45253,0.06979,-0.88902,0.00234,0.00152,-0.00271
0.45248,0.06981,-0.88904,0.00161,0.00201,-0.00116
0.45245,0.06979,-0.88906,0.00089,0.0026,-0.00274
0.4524,0.06972,-0.88908,0.00177,0.00156,-0.00189
0.45235,0.06972,-0.88911,0.00351,0.00213,-0.00299
0.45224,0.06964,-0.88918,0.00106,0.00071,-0.00206
0.45211,0.06958,-0.88925,0.00019,0.00142,-0.00106
0.45205,0.06944,-0.88929,0.00218,0.00011,-0.00067
0.45194,0.06935,-0.88935,0.0019,0.00215,-0.00192
0.45177,0.06928,-0.88944,0.0016,0.0003,-0.00343
0.45163,0.06911,-0.88952,0.00477,-0.00237,-0.0029
0.45145,0.069,-0.88962,0.00246,-0.00162,-0.00277
0.45134,0.0689,-0.88969,0.00253,-0.00149,-0.00193
0.45142,0.06875,-0.88966,0.00427,-0.00181,0.00064
0.45143,0.06871,-0.88966,0.00322,-0.00161,-0.00529
0.45157,0.06875,-0.88958,0.00322,-0.00314,-0.00406
0.45202,0.06906,-0.88933,0.0064,0.0029,-0.0077
0.4523,0.06937,-0.88916,0.00313,0.00261,-0.0054
0.45252,0.06973,-0.88902,0.00293,0.00101,-0.00502
0.45286,0.07016,-0.88882,0.00393,0.00236,-0.00049
0.45305,0.07057,-0.88869,0.00485,0.00318,-0.00353
0.45321,0.07087,-0.88858,0.00305,0.00405,-0.00341
0.453,0.07168,-0.88862,-0.00577,0.00922,0.00035
0.4529,0.07189,-0.88866,-0.00581,0.00997,-0.00077
0.4528,0.07199,-0.8887,-0.0006,0.00272,-0.00027
0.45278,0.07185,-0.88872,0.00039,0.00084,-0.00062
0.45277,0.07157,-0.88875,0.00332,0.00037,-0.00485
0.45264,0.07121,-0.88884,0.00329,-0.00181,-0.00448
0.45253,0.07082,-0.88893,0.00507,-0.00484,-0.00337
0.45237,0.07056,-0.88904,0.00498,-0.00739,-0.00212
0.45223,0.07038,-0.88912,0.00377,-0.00269,-0.00405
0.452,0.07025,-0.88925,-0.00185,-0.00076,0.00057
0.45177,0.0702,-0.88937,-0.00162,0.00123,-0.00139
0.45165,0.07016,-0.88943,-5e-05,0.00081,-0.0004
0.45169,0.07014,-0.88941,0.00095,0.00221,-0.00149
0.45176,0.07008,-0.88938,0.00209,0.0001,-0.00156
0.45186,0.07008,-0.88933,0.00305,0.00146,-0.00535
0.45189,0.07005,-0.88932,0.00161,0.00093,-0.0033
0.45185,0.07009,-0.88934,0.0024,0.00242,-0.00311
0.45177,0.0702,-0.88937,0.00142,0.00447,-0.00423
0.45167,0.07026,-0.88941,-0.00029,0.00322,-0.00207
0.45163,0.07027,-0.88944,0.00194,0.00136,-0.00063
0.45167,0.07026,-0.88941,0.00185,0.0025,-0.00092
0.45173,0.07026,-0.88938,0.00319,0.00288,-0.00385
0.45186,0.07019,-0.88932,0.00485,0.00142,-0.00121
0.45191,0.07012,-0.8893,0.00434,-0.00156,-0.0028
0.45198,0.07004,-0.88927,0.0029,-0.00052,-0.0032
0.45199,0.06999,-0.88927,0.00539,-0.00035,-0.00447
0.45208,0.06997,-0.88923,0.00106,0.00247,-0.00082
0.45215,0.06989,-0.8892,0.0013,-0.0008,-7e-05
0.45219,0.06981,-0.88919,0.0001,-0.00055,0.00022
0.45228,0.06977,-0.88914,0.00238,1e-05,-0.00144
0.45235,0.06978,-0.88911,0.00057,0.00132,-0.0026
0.45241,0.06978,-0.88908,0.00334,0.00055,-0.00257
0.45255,0.06986,-0.889,0.00384,0.00042,-0.00237
0.45271,0.06998,-0.88891,0.001,0.00105,-0.00117
0.45279,0.07003,-0.88886,0.00138,0.00177,-0.00316
0.45276,0.07022,-0.88886,0.00043,0.00423,-0.00185
0.45254,0.07028,-0.88897,-0.00083,-0.00096,-0.00254
0.45236,0.07039,-0.88905,0.0015,0.00204,-0.00165
0.45225,0.07044,-0.88911,0.00364,-0.0,-0.00269
0.45221,0.07057,-0.88912,0.00165,0.00014,-0.00171
0.45212,0.07067,-0.88915,0.00256,0.00294,-0.0024
0.45199,0.07074,-0.88921,0.00182,0.00168,-0.00254
0.45186,0.07094,-0.88926,0.00203,0.00489,-0.00354
0.45181,0.07105,-0.88928,0.00333,0.00517,-0.00257
0.45179,0.07115,-0.88928,0.00274,0.00185,-0.00204
0.4518,0.07118,-0.88927,0.00372,0.00159,-0.00359
0.45183,0.07114,-0.88926,0.00673,-0.0033,-0.00377
0.452,0.07106,-0.88918,0.00564,-0.00111,-0.00492
0.45227,0.07115,-0.88904,0.00725,-0.00053,-0.00389
0.45245,0.07132,-0.88893,0.00614,-0.00197,-0.00537
0.45263,0.07167,-0.88881,0.00736,0.00043,-0.00692
0.45295,0.0725,-0.88858,0.0095,0.00602,-0.01103
0.45273,0.07333,-0.88863,0.00127,0.00293,-0.01202
0.45125,0.07399,-0.88933,-0.00454,0.00747,-0.01477
0.44926,0.07468,-0.89028,-0.00844,0.01183,-0.00833
0.44699,0.07466,-0.89142,-0.01132,0.00725,-0.0003
0.44397,0.07443,-0.89294,-0.00727,0.00559,0.00874
0.44121,0.07357,-0.89438,-0.0049,0.00092,0.00812
0.43918,0.07288,-0.89544,0.00381,-0.0002,0.01114
0.43806,0.07199,-0.89606,0.00479,-0.0102,0.00395
0.43701,0.0711,-0.89664,0.00654,-0.01334,-0.0018
0.43619,0.07066,-0.89708,0.00966,-0.01367,-0.00281
0.43579,0.06965,-0.89735,0.00978,-0.0129,-0.00231
0.43505,0.06937,-0.89773,0.00513,-0.00467,-0.0051
0.43431,0.06951,-0.89808,0.00449,0.00443,-0.00577
0.4335,0.07011,-0.89842,0.00501,0.01159,-0.01022
0.43237,0.07074,-0.89892,-0.00425,0.01205,0.00015
0.43127,0.07106,-0.89942,-0.00958,0.01027,0.00868
0.43064,0.07125,-0.89971,-0.00448,0.00865,0.00734
0.43027,0.07131,-0.89988,-0.00614,0.00798,0.00614
0.43018,0.07083,-0.89996,-0.00992,0.00029,0.00735
0.43047,0.07023,-0.89987,-0.00229,0.00112,0.00361
0.4312,0.06945,-0.89958,0.00672,-0.00197,-0.01015
0.43232,0.06859,-0.89911,0.01218,-0.00345,-0.01253
0.43346,0.06775,-0.89862,0.00796,-0.00499,-0.01005
0.43435,0.06721,-0.89823,0.00392,-0.00045,-0.00827
0.43468,0.06728,-0.89807,3e-05,0.00593,-0.01233
0.43463,0.06757,-0.89807,0.00603,0.00748,-0.0132
0.43459,0.06788,-0.89807,0.00915,0.00323,-0.00768
0.43423,0.06782,-0.89825,0.00566,-0.00028,-0.00334
0.434,0.06748,-0.89838,0.00044,-0.00771,0.00928
0.43381,0.06705,-0.8985,0.00137,-0.00825,0.00161
0.43366,0.0669,-0.89859,0.00284,-0.00453,-0.0005
0.43354,0.06673,-0.89866,0.00297,-0.00346,-0.00278
0.43365,0.06663,-0.89861,0.00435,0.00098,-0.0015
0.43373,0.06654,-0.89859,0.00242,0.00113,0.00134
0.43379,0.06653,-0.89855,0.00177,0.00178,0.00022
0.43384,0.0668,-0.89851,0.00411,0.0084,-0.00446
0.43375,0.06692,-0.89854,0.00446,0.0079,-0.00855
0.43367,0.06698,-0.89858,0.00874,0.00628,-0.00282
0.4337,0.06718,-0.89855,0.00932,0.00812,-0.00491
0.43366,0.06741,-0.89855,0.00935,0.00865,-0.00587
0.43363,0.06779,-0.89854,0.00262,0.00635,-0.01006
0.43299,0.06766,-0.89886,-0.00753,-0.00067,-0.00294
0.4318,0.06704,-0.89948,-0.01383,-0.00444,0.00255
0.43054,0.06627,-0.90013,-0.00737,-0.00514,0.00925
0.42951,0.06566,-0.90067,-0.0075,-0.00507,0.00785
0.42891,0.06506,-0.901,-0.00581,-0.0123,0.00633
0.42896,0.06388,-0.90106,0.00722,-0.01104,-0.00049
0.42939,0.06323,-0.9009,0.00966,-0.01135,-0.00352
0.43027,0.06279,-0.90051,0.01207,-0.00821,-0.00396
0.43143,0.06271,-0.89997,0.00975,0.00218,-0.01245
0.43226,0.06328,-0.89953,0.00735,0.01309,-0.00912
0.43266,0.06426,-0.89927,0.00109,0.02411,-0.00856
0.43279,0.06542,-0.89912,-0.00189,0.02665,-0.00808
0.43275,0.06623,-0.89908,-0.00123,0.01422,-0.00371
0.43248,0.06647,-0.89919,0.0015,0.00046,-0.00565
0.43209,0.06604,-0.89941,0.00413,-0.01229,-0.00272
0.43166,0.06536,-0.89966,0.00056,-0.01551,0.00175
0.43131,0.06482,-0.89987,-0.00438,-0.00851,0.00507
0.43107,0.06441,-0.90002,-0.00475,-0.00495,0.00672
0.4311,0.06417,-0.90002,0.00185,-0.00067,0.00454
0.4315,0.06406,-0.89983,0.00371,0.00183,0.00117
0.43223,0.06388,-0.8995,0.0043,0.00151,-0.00134
0.43305,0.06371,-0.89912,0.0034,0.00272,-0.0024
0.43383,0.06346,-0.89876,-0.00169,0.00267,0.00273
0.43433,0.063,-0.89855,-0.00574,0.00171,0.00287
0.43468,0.06253,-0.89841,-0.0038,-7e-05,-0.00314
0.43509,0.06214,-0.89824,-0.00084,-0.00041,-0.00824
0.43573,0.06193,-0.89795,-0.00125,0.00246,-0.01012
0.4363,0.06181,-0.89767,0.00047,0.00093,-0.00514
0.43694,0.06155,-0.89738,0.0038,-0.00175,-0.00411
0.43757,0.06125,-0.8971,0.00509,-0.002,-0.00096
0.43811,0.06101,-0.89685,0.00411,0.00252,-0.00075
0.43857,0.06073,-0.89664,0.00427,0.00117,-0.00175
0.43898,0.06049,-0.89646,0.00304,0.00137,-0.00346
0.43918,0.06028,-0.89637,0.00392,-0.0029,-0.00785
0.43913,0.06017,-0.8964,0.00243,-0.0038,-0.0119
0.43876,0.06015,-0.89659,0.00631,0.0002,-0.01038
0.43829,0.06027,-0.89681,0.00849,0.0015,-1e-05
0.43788,0.06046,-0.897,0.00912,0.00415,0.01101
0.4373,0.06054,-0.89728,0.00433,-0.00962,0.00744
0.43754,0.06093,-0.89713,0.01134,0.00198,0.00329
0.43766,0.06103,-0.89707,0.00872,0.00604,0.00462
0.43775,0.06114,-0.89702,0.0023,0.00563,0.00361
0.43782,0.06151,-0.89696,0.00217,0.00609,-0.00267
0.43776,0.06151,-0.89698,0.00222,0.00609,-0.00264
0.43756,0.06153,-0.89708,5e-05,-0.00257,-0.0065
0.43722,0.06151,-0.89725,0.00132,-0.00462,-0.00642
0.43677,0.06146,-0.89747,-0.00112,-0.00796,-0.00576
0.43615,0.06156,-0.89776,-0.00451,-0.00163,-0.00459
0.43544,0.06188,-0.89809,-0.00639,0.00155,-0.00483
0.43489,0.06218,-0.89833,-0.00449,0.00136,-0.00448
0.43429,0.06261,-0.8986,-0.00445,0.00365,-0.00434
0.43393,0.06294,-0.89875,-0.00085,0.00253,-0.00177
0.43374,0.06319,-0.89882,-0.0003,0.00148,-0.00097
0.43361,0.06338,-0.89887,0.00216,-0.00023,-0.00512
0.43367,0.06364,-0.89882,0.00554,0.00141,-0.00378
0.43364,0.06391,-0.89882,0.00563,0.00251,-0.00458
0.43371,0.06428,-0.89876,0.00598,0.00454,-0.00139
0.43371,0.06458,-0.89874,0.00268,0.00379,-0.00011
0.43375,0.06478,-0.8987,0.00325,0.00342,0.00277
0.43395,0.06517,-0.89858,-0.0002,0.00623,0.00104
0.43422,0.06513,-0.89845,0.00034,0.00376,-0.00165
0.43457,0.06503,-0.89829,-0.00344,0.0006,0.00126
0.43506,0.06466,-0.89808,-6e-05,-0.00318,0.00095
0.43569,0.06435,-0.8978,-0.00037,-0.00169,-0.00105
0.43632,0.06411,-0.8975,-7e-05,-0.00012,-0.00245
0.43696,0.06391,-0.89721,-0.00075,-0.0001,-0.00365
0.43758,0.06377,-0.89692,-0.00119,0.0004,-0.00523
0.43835,0.06361,-0.89655,0.00072,0.00109,-0.00381
0.43916,0.06343,-0.89617,0.00191,-0.0004,-0.00225
0.44005,0.06332,-0.89574,0.00196,0.00111,-0.00063
0.44094,0.06319,-0.89531,0.00212,-5e-05,-0.0031
0.44183,0.06305,-0.89488,0.00325,-0.00039,-0.00461
0.44261,0.06287,-0.89451,0.00429,0.00015,-0.00511
0.44331,0.0628,-0.89416,0.0052,0.00137,-0.00414
0.44402,0.06282,-0.89381,0.00444,0.00265,-0.00096
0.44455,0.0628,-0.89355,0.00441,0.00093,-0.00345
0.44499,0.0627,-0.89334,0.0047,-0.00293,-0.00191
0.44532,0.06262,-0.89318,0.00387,-0.00165,-0.00404
0.44552,0.06265,-0.89308,0.00323,0.00115,-0.00571
0.44559,0.06272,-0.89304,0.00377,0.0036,-0.00438
0.44552,0.06281,-0.89306,0.00457,0.00332,-0.00553
0.4454,0.06311,-0.89311,0.00176,0.00373,-0.00083
0.44514,0.0632,-0.89323,0.0031,0.00243,-0.00088
0.44482,0.06329,-0.89338,0.00205,0.00136,-0.00069
0.44442,0.06333,-0.89358,0.00113,-0.00134,-0.00391
0.44404,0.06337,-0.89376,0.00175,-0.00203,-0.00379
0.44368,0.0635,-0.89393,0.00127,-0.00045,-0.00266
0.44334,0.06365,-0.89409,-0.00027,-0.00088,-0.00042
0.4431,0.06379,-0.8942,-3e-05,-0.00102,-0.00032
0.44296,0.06388,-0.89426,-0.00065,-0.00064,-0.00172
0.44275,0.06393,-0.89436,-0.0025,-0.00177,-0.00389
0.44256,0.06404,-0.89445,-0.00136,-0.00168,-0.00364
0.44233,0.06408,-0.89456,0.00055,-0.00222,-0.00348
0.44211,0.0642,-0.89466,0.00167,0.00016,-0.00303
0.44194,0.06437,-0.89474,0.00217,0.00245,-0.00364
0.44179,0.06458,-0.89479,0.0021,0.00263,-0.0015
0.44168,0.06494,-0.89482,0.00236,0.00696,-0.00025
0.44159,0.06506,-0.89486,0.00243,0.0069,-0.00025
0.44146,0.06528,-0.8949,0.00099,0.00766,-0.00204
0.44135,0.06527,-0.89496,0.00259,-0.00047,-0.0007
0.44132,0.06501,-0.89499,0.00558,-0.00362,-0.00166
0.4414,0.06482,-0.89497,0.00791,-0.00186,-0.00366
0.44172,0.06443,-0.89484,0.00495,-0.00495,-0.00333
0.44188,0.06422,-0.89477,0.00247,-0.00355,-0.00614
0.44184,0.06429,-0.89479,-0.00176,0.00224,-0.00499
0.44171,0.06441,-0.89484,-0.00132,0.00533,-0.0032
0.44145,0.06445,-0.89497,-0.00183,0.0029,-0.00469
0.44114,0.06446,-0.89512,-0.00076,0.00095,-0.00487
0.44087,0.06436,-0.89526,0.0001,-0.00193,-0.00315
0.4407,0.06421,-0.89535,0.00313,-0.00316,-0.00235
0.44067,0.06386,-0.8954,0.00056,-0.00369,-0.00116
0.44083,0.06383,-0.89532,0.00317,-0.00113,-0.00272
0.44097,0.06388,-0.89525,0.00349,0.00104,-0.00396
0.44111,0.06397,-0.89517,0.00033,0.00274,-0.00333
0.44119,0.06415,-0.89512,0.00148,0.00461,-0.00202
0.44128,0.06423,-0.89507,0.00034,0.00707,-0.00253
0.44139,0.0643,-0.89501,0.00286,0.00342,-0.00325
0.44156,0.06419,-0.89493,0.00561,0.00106,-0.00302
0.44178,0.06406,-0.89484,0.00575,-0.00044,-0.00246
0.4419,0.06405,-0.89477,0.00394,0.00388,-0.00046
0.44178,0.0639,-0.89484,-0.00402,-0.00297,-0.00459
0.44184,0.06391,-0.89482,0.00462,0.00019,-0.00097
0.44188,0.06375,-0.89481,0.00454,0.00024,-0.00563
0.44183,0.06378,-0.89483,0.00254,0.00092,-0.00211
0.44164,0.06373,-0.89493,-0.00109,-0.00298,-0.00395
0.44145,0.06378,-0.89501,-0.00057,0.00317,0.00038
0.44131,0.06383,-0.89508,-0.00184,0.00671,-0.00137
0.4411,0.06383,-0.89519,-0.00381,0.00483,-0.00288
0.44094,0.06375,-0.89527,-0.00095,-0.0018,-0.00175
0.44105,0.06352,-0.89523,0.00464,-0.00524,-0.00232
0.44116,0.06337,-0.89519,0.0023,-0.00344,-0.00224
0.44135,0.06323,-0.8951,0.00245,-0.0041,-0.0032
0.44153,0.06309,-0.89503,0.0011,-0.00179,-0.0019
0.44173,0.06311,-0.89493,0.0009,-0.00181,-0.002
0.44193,0.06316,-0.89482,0.00079,0.00157,-0.00517
0.44205,0.06329,-0.89475,0.0011,0.00296,-0.0067
0.44214,0.06323,-0.89471,-0.00131,0.00276,-0.00501
0.44213,0.06321,-0.89472,-0.00048,0.00191,0.00072
0.44229,0.06317,-0.89465,0.00286,-0.00035,0.00062
0.44248,0.06312,-0.89455,0.00428,-0.00033,-0.00117
0.44271,0.06311,-0.89444,0.00263,0.0022,-0.00276
0.44289,0.0631,-0.89435,0.00232,0.00242,-0.00184
0.443,0.06303,-0.8943,0.00082,0.00028,-0.00418
0.44321,0.06296,-0.89421,0.00307,-0.00025,-0.00119
0.44335,0.06288,-0.89414,0.00311,-0.00079,-0.0036
0.44341,0.06283,-0.89411,0.0043,0.0005,-0.00378
0.44337,0.06288,-0.89413,0.00238,0.0013,-0.00199
0.44339,0.06285,-0.89412,0.00154,-0.00079,-0.00261
0.44346,0.06285,-0.89409,0.00276,8e-05,-0.00292
0.44339,0.063,-0.89411,0.00063,0.0027,-0.00284
0.44334,0.063,-0.89414,0.00159,-0.00021,-0.00087
0.44324,0.06305,-0.89418,6e-05,-0.00067,-0.00181
0.44311,0.06307,-0.89425,0.00018,0.00058,-0.00164
0.44301,0.06312,-0.89429,0.00184,0.00032,-0.00219
0.44293,0.06308,-0.89433,0.00331,-0.00139,-0.0042
0.4429,0.06302,-0.89435,0.00322,0.00107,-0.00201
0.44288,0.06295,-0.89437,0.00129,-0.00024,-0.00081
0.44284,0.06292,-0.89439,0.00119,-0.00096,-0.00156
0.44267,0.06293,-0.89447,-0.00067,-0.00075,-0.00398
0.44261,0.06289,-0.89451,0.00127,-0.00065,-0.0017
0.44255,0.0629,-0.89454,0.00182,-0.00087,-0.00396
0.44252,0.06299,-0.89454,0.00189,0.00115,-0.00341
0.44248,0.06302,-0.89456,0.00151,0.00174,-0.00128
0.44239,0.06302,-0.89461,-0.0006,-0.00011,-0.00146
0.44231,0.06305,-0.89465,0.00017,0.002,-0.00562
0.44231,0.06312,-0.89464,0.00295,0.00197,-0.00412
0.44235,0.06313,-0.89462,0.00129,-0.00035,-0.00159
0.44236,0.06312,-0.89461,0.00165,-0.00028,0.00084
0.44231,0.06313,-0.89464,0.00112,-0.00037,-0.00142
0.44228,0.06319,-0.89465,0.00172,0.00102,-0.004
0.44226,0.0632,-0.89466,0.00213,-0.00149,-0.00551
0.44232,0.06317,-0.89463,0.00281,-0.0011,-0.00347
0.44242,0.0632,-0.89458,0.00393,3e-05,-0.00201
0.44254,0.06332,-0.89451,0.00298,0.00175,-0.00549
0.44257,0.06349,-0.89449,0.00136,0.00313,-0.00255
0.44249,0.06353,-0.89452,0.00114,0.00164,-0.00165
0.4425,0.06358,-0.89451,0.00269,0.0001,-0.00237
0.44258,0.06358,-0.89447,0.00381,-0.00039,-0.00387
0.44271,0.06362,-0.89441,0.00389,0.00152,-0.00409
0.44297,0.06361,-0.89428,0.00634,-0.00241,-0.00573
0.44337,0.06382,-0.89406,0.01004,-0.00168,-0.0081
0.44399,0.06447,-0.89371,0.01608,-0.0001,-0.01024
0.44482,0.06552,-0.89322,0.00757,0.00174,-0.01028
0.44507,0.06637,-0.89303,-0.00901,-0.00236,-0.00268
0.44455,0.06687,-0.89326,-0.01907,0.00571,0.00646
0.44375,0.06725,-0.89363,-0.00776,0.01107,0.00965
0.44349,0.06765,-0.89372,-0.00029,0.00859,0.0056
0.44338,0.06765,-0.89378,0.0014,0.00421,-0.00202
0.44321,0.06733,-0.89389,0.00256,-0.00153,-0.0078
0.44329,0.06678,-0.89389,0.00698,-0.00791,-0.00435
0.44337,0.06646,-0.89387,0.00777,-0.0098,-0.00574
0.44348,0.06621,-0.89384,0.00576,-0.00571,-0.00425
0.44337,0.06611,-0.8939,0.00126,0.00251,-0.00324
0.44322,0.06626,-0.89396,-0.00028,0.0048,-0.005
0.44307,0.06679,-0.894,-0.00187,0.007,1e-05
0.443,0.06702,-0.89402,-0.00276,0.00579,0.00133
0.44297,0.067,-0.89403,-0.00114,0.00133,-0.00041
0.44289,0.06689,-0.89408,0.00174,-0.00156,-0.00254
0.44283,0.06662,-0.89413,-0.00011,-0.00424,-0.0039
0.4428,0.06642,-0.89416,0.00192,-0.0029,-0.00361
0.44267,0.06623,-0.89424,0.00089,-0.00077,-0.00529
0.44263,0.06612,-0.89426,0.00273,0.00237,-0.00256
0.44259,0.06597,-0.8943,0.00248,0.00234,-0.00117
0.44255,0.06586,-0.89432,0.00166,-0.00052,-0.00114
0.4425,0.06572,-0.89436,0.00324,0.00059,-0.00379
0.44249,0.06555,-0.89438,0.00409,0.00046,-0.00112
0.44255,0.06529,-0.89436,0.00211,-0.00184,-0.00163
0.44255,0.06496,-0.89439,0.00114,-0.00168,-0.00162
0.44253,0.06467,-0.89442,-0.00156,-0.00083,-0.0029
0.44257,0.06444,-0.89442,0.00049,0.00197,-0.00333
0.44263,0.06424,-0.8944,0.00165,0.00108,-0.00231
0.4427,0.06404,-0.89438,0.00423,0.00093,-0.00543
0.44282,0.06384,-0.89433,0.00486,0.00106,-0.00448
0.44289,0.0637,-0.89431,0.00534,5e-05,-0.00431
0.44284,0.06353,-0.89435,0.00403,-0.00255,-0.00296
0.44266,0.06343,-0.89445,0.00137,-0.00288,-0.00089
0.44253,0.06333,-0.89451,0.00281,-0.0015,-0.0008
0.44246,0.06339,-0.89455,0.00337,0.00291,-0.00227
0.44244,0.06334,-0.89456,0.00383,0.00087,-0.00315
0.44236,0.06333,-0.8946,0.00376,0.00108,-0.00285
0.4423,0.06331,-0.89463,0.00336,0.00058,-0.00343
0.44227,0.06333,-0.89464,0.00355,0.00145,-0.00462
0.44217,0.06335,-0.89469,-0.002,0.0041,-0.00135
0.44202,0.06328,-0.89477,-0.00176,-0.00677,0.00242
0.44208,0.06326,-0.89474,-0.00104,-0.00287,-0.01505
0.44203,0.06342,-0.89475,-0.00173,0.00096,0.00863
0.44182,0.06323,-0.89487,-0.00253,-0.00268,-0.00242
0.44169,0.06335,-0.89493,0.00073,0.00512,-0.00299
0.44167,0.06344,-0.89493,0.00402,0.00039,-0.00558
0.44167,0.06342,-0.89493,0.00288,1e-05,-2e-05
0.44162,0.0633,-0.89496,0.00131,-0.00125,-0.00358
0.44163,0.0632,-0.89497,-0.00123,-0.0008,-0.00159
0.44162,0.06315,-0.89498,-0.00184,0.00012,-0.00065
0.44158,0.06314,-0.895,-0.00052,0.00058,-0.00316
0.44158,0.06316,-0.895,0.00317,0.00133,-0.00503
0.44156,0.06314,-0.89501,0.00388,0.0002,-0.00396
0.44157,0.06316,-0.895,0.00287,0.00059,-0.00357
0.44153,0.06313,-0.89502,0.00064,-0.00121,-0.00332
0.44154,0.06321,-0.89501,3e-05,0.00109,-0.00183
0.44155,0.06324,-0.895,0.00234,-0.00042,0.00076
0.44155,0.06334,-0.895,0.00209,0.00166,-0.00255
0.44156,0.06341,-0.89499,0.00499,0.00065,-0.00279
0.44158,0.06354,-0.89497,0.00239,0.00131,-0.00083
0.44144,0.0636,-0.89503,-0.00044,-0.00092,-0.00655
0.44134,0.06369,-0.89508,0.00011,-0.00097,-0.00306
0.44127,0.06374,-0.89511,-0.00105,-0.00114,-0.0042
0.44118,0.06382,-0.89515,-0.00048,0.001,-0.00419
0.44116,0.06397,-0.89515,0.00101,0.00317,-0.00286
0.4412,0.0642,-0.89511,0.00101,0.00176,-0.00141
0.44128,0.06435,-0.89506,0.00065,0.00105,-0.00315
0.44128,0.06445,-0.89505,0.00069,0.00181,-0.00302
0.44123,0.06453,-0.89507,0.00246,9e-05,-0.00306
0.44122,0.06461,-0.89507,0.00419,0.00192,-0.00511
0.44125,0.0647,-0.89505,0.00385,0.00169,-0.00403
0.44133,0.06491,-0.89499,0.00381,0.00298,-0.00479
0.44129,0.06498,-0.89501,0.00149,0.00042,0.00074
0.44119,0.06498,-0.89506,0.00362,-0.00288,0.00043
0.44121,0.06495,-0.89505,0.0034,-0.00162,-0.00047
0.4412,0.065,-0.89505,0.00019,0.00134,-0.00261
0.44116,0.06511,-0.89506,0.00119,0.00184,-0.00305
0.44108,0.0652,-0.8951,-0.00039,0.00246,-0.00372
0.44104,0.06527,-0.89511,0.0017,0.00201,-0.00117
0.44094,0.06528,-0.89516,0.00179,0.00199,-0.00113
0.44081,0.0653,-0.89523,0.00091,0.00031,-0.00405
0.44065,0.0653,-0.8953,-0.00036,-0.00055,0.00091
0.44046,0.06523,-0.8954,0.00093,-0.00226,-0.00302
0.44032,0.06522,-0.89547,0.0006,-0.00137,-0.00245
0.44021,0.06524,-0.89552,0.00185,0.0014,-0.00518
0.44018,0.0653,-0.89553,0.0005,0.00194,-0.00174
0.44012,0.0653,-0.89556,5e-05,0.00199,-0.00062
0.4401,0.06526,-0.89557,0.00251,-0.00035,-0.00168
0.44012,0.06518,-0.89557,0.00031,0.0009,-0.00189
0.44012,0.06518,-0.89557,0.00012,0.00329,-0.00343
0.44016,0.06501,-0.89556,-0.00088,0.00268,5e-05
0.4402,0.06482,-0.89556,0.00234,0.00244,-0.00239
0.44023,0.0646,-0.89556,0.00325,0.00052,-0.00476
0.44024,0.06437,-0.89557,0.0044,-0.00033,-0.00456
0.44021,0.06417,-0.8956,0.00381,-0.00237,-0.00415
0.44024,0.06389,-0.89561,0.00207,-0.00394,-0.00279
0.44032,0.06371,-0.89558,0.00569,-0.00205,-0.00249
0.44033,0.06366,-0.89558,0.00201,-0.00214,-0.00263
0.44045,0.0638,-0.89551,0.00187,0.00813,0.00938
0.44043,0.06382,-0.89552,0.00706,0.00227,-0.01287
0.44057,0.06427,-0.89541,0.00688,-0.0032,-0.01322
0.44076,0.06424,-0.89533,0.00135,0.00385,-0.00273
0.44083,0.0641,-0.8953,-0.00492,-0.00238,0.00534
0.44101,0.06405,-0.89521,0.00015,-0.002,-0.00432
0.44143,0.06424,-0.89499,0.00753,0.00034,-0.00694
0.44183,0.06451,-0.89477,0.00166,0.00347,-0.00389
0.44209,0.06458,-0.89465,-0.00016,0.00263,-0.00361
0.44214,0.06483,-0.8946,-0.00285,0.00546,-0.0003
0.44209,0.06503,-0.89461,-0.00106,0.00679,-0.00285
0.44198,0.06499,-0.89467,0.00071,0.00479,-0.00234
0.4418,0.06489,-0.89476,0.00202,-0.00326,-0.00187
0.44169,0.0645,-0.89485,0.00481,-0.00664,-0.00452
0.44175,0.06407,-0.89485,0.00384,-0.00901,-0.00225
0.4419,0.06382,-0.89479,0.00182,-0.00368,-0.00212
0.44208,0.06376,-0.89471,0.00073,-0.0018,-0.00125
0.4422,0.06378,-0.89465,0.00037,0.00197,-0.00187
0.44233,0.06382,-0.89458,0.00454,0.00074,-0.00427
0.44258,0.06394,-0.89445,0.00623,4e-05,-0.0035
0.44307,0.06409,-0.89419,0.00741,-0.0026,-0.00499
0.44377,0.06445,-0.89382,0.00375,0.00154,-0.00152
0.44422,0.06483,-0.89357,-0.0091,0.0068,0.00474
0.44448,0.06502,-0.89343,-0.0086,0.00659,0.00362
0.44452,0.06507,-0.8934,-0.00684,0.00671,0.00459
0.44461,0.06509,-0.89336,0.0087,-0.00222,-0.01054
0.44464,0.06503,-0.89334,0.00866,-0.00216,-0.01056
0.4447,0.06472,-0.89334,0.00345,-0.00549,-0.00293
0.44447,0.06458,-0.89346,-0.00411,-0.0016,0.00067
0.44422,0.06456,-0.89359,-0.00386,-0.00159,0.0008
0.44391,0.0646,-0.89374,0.00235,0.00282,-0.0041
0.44376,0.06458,-0.89381,0.00682,0.00057,-0.0071
0.44385,0.06457,-0.89377,0.01059,-0.00235,-0.00535
0.44407,0.06464,-0.89366,0.00648,-0.00191,-0.00315
0.4443,0.06475,-0.89354,0.00254,3e-05,-0.00153
0.44441,0.06486,-0.89347,-8e-05,-0.00225,0.00035
0.44442,0.06496,-0.89346,0.00057,-0.00274,-0.00249
0.44473,0.06533,-0.89328,0.00885,-8e-05,-0.01024
0.44537,0.06619,-0.89289,0.00702,0.00691,-0.01398
0.44589,0.06711,-0.89257,-0.0027,0.00038,-0.00849
0.44602,0.06799,-0.89244,-0.0063,0.00652,-0.00449
0.44584,0.06876,-0.89247,-0.00789,0.01181,-0.00636
0.44514,0.06911,-0.89279,-0.00634,0.00243,-0.00084
0.44434,0.069,-0.8932,0.00024,-0.00075,-0.00153
0.44341,0.06886,-0.89367,0.00041,-0.00187,-0.00078
0.44234,0.0683,-0.89424,0.00227,-0.00661,0.00177
0.44141,0.06775,-0.89474,0.007,-0.00644,-0.00166
0.44052,0.06758,-0.8952,0.0081,-0.00162,0.00228
0.44003,0.0674,-0.89545,0.00539,-0.00361,0.00562
0.43953,0.06697,-0.89573,0.00453,-0.01155,0.00463
0.43897,0.0668,-0.89601,0.00587,-0.01138,0.00255
0.43865,0.06653,-0.89619,-0.00524,-0.00238,0.0041
0.43814,0.06642,-0.89645,-0.00937,0.00135,0.00431
0.43745,0.06621,-0.8968,-0.01214,0.00371,0.00268
0.43622,0.06632,-0.89739,-0.0069,0.0075,-0.00173
0.43568,0.0662,-0.89766,0.00356,0.00756,-0.00494
0.43543,0.06598,-0.8978,0.00682,0.00756,-0.00793
0.43511,0.06673,-0.8979,0.01615,0.02312,-0.02594
0.43452,0.06737,-0.89814,0.01009,0.02103,-0.02162
0.43397,0.06737,-0.8984,0.00628,0.01367,-0.01883
0.43306,0.06696,-0.89887,-0.00293,-0.00329,0.0016
0.43192,0.06617,-0.89948,0.00071,0.0007,0.01078
0.43062,0.06536,-0.90017,-0.0066,0.00306,0.0147
0.42945,0.06455,-0.90078,0.00182,-0.00348,0.01168
0.42865,0.0637,-0.90122,0.01265,-0.01402,0.00564
0.42806,0.0627,-0.90157,0.01466,-0.02325,-0.0008
0.42724,0.06202,-0.90201,0.01248,-0.02862,-0.00121
0.42649,0.06047,-0.90247,0.0001,-0.01877,-0.00647
0.42534,0.06055,-0.903,0.00125,-0.01885,-0.00593
0.42386,0.0605,-0.9037,-0.0013,0.00321,-0.01797
0.42269,0.06145,-0.90419,-0.00608,0.01862,-0.00938
0.42221,0.06233,-0.90435,-0.00358,0.02041,-0.01256
0.42223,0.06286,-0.90431,-0.00852,0.0188,0.00125
0.422,0.06365,-0.90436,-0.00849,0.01545,0.00717
0.42162,0.06374,-0.90453,-0.00406,0.00894,0.01102
0.42135,0.06356,-0.90467,0.00286,0.00016,0.00573
0.42124,0.06284,-0.90477,0.01033,-0.00958,-0.00209
0.42117,0.06232,-0.90484,0.01057,-0.01232,-0.00416
0.42142,0.06152,-0.90477,0.00832,-0.01539,-0.00628
0.42155,0.06096,-0.90475,0.0006,-0.01082,-0.00543
0.42155,0.06093,-0.90475,0.00063,-0.00461,-0.00647
0.42152,0.06115,-0.90476,0.00516,0.00406,-0.00778
0.42151,0.06167,-0.90473,0.00389,0.01081,-0.0083
0.42149,0.06204,-0.90471,-0.00027,0.0079,-0.00304
0.42153,0.06226,-0.90468,-0.00276,-3e-05,0.00374
0.42168,0.06244,-0.90459,0.00041,0.00071,0.00286
0.42182,0.06252,-0.90452,0.00036,0.00105,0.00242
0.4219,0.06247,-0.90449,-4e-05,9e-05,-0.00155
0.42193,0.06233,-0.90448,-0.00156,-0.00097,-0.00305
0.42202,0.06217,-0.90445,0.00065,-0.00098,-0.00238
0.42231,0.06201,-0.90433,-0.00042,-0.00079,-0.00151
0.42264,0.06188,-0.90418,-0.00044,-6e-05,-0.00103
0.42295,0.06188,-0.90404,-0.00079,0.00332,-0.00305
0.42316,0.06184,-0.90394,-0.00089,0.00337,-0.00554
0.42342,0.06174,-0.90382,0.00185,0.00118,-0.00236
0.42369,0.0615,-0.90372,0.00271,0.00032,-0.00147
0.42402,0.06119,-0.90358,0.00057,0.00058,0.00242
0.42441,0.06085,-0.90342,0.00237,-0.0006,-0.00037
0.42487,0.0605,-0.90323,0.001,0.00037,-0.00242
0.42543,0.06016,-0.90299,0.00398,-0.00088,-0.00427
0.42622,0.05982,-0.90264,0.00739,-0.00179,-0.00186
0.42695,0.05948,-0.90232,0.00477,-0.0029,-0.00435
0.42768,0.05906,-0.902,0.00225,-0.00114,0.00042
0.42829,0.05885,-0.90172,-0.00036,0.00154,-0.00048
0.42894,0.05861,-0.90143,0.00071,0.00099,-6e-05
0.42964,0.05852,-0.9011,0.00145,0.00254,-0.00602
0.43034,0.05852,-0.90077,0.0048,0.00195,-0.00844
0.43105,0.05849,-0.90043,0.00798,0.00216,-0.01061
0.43181,0.05831,-0.90008,0.00391,-0.00375,-0.00341
0.43251,0.05819,-0.89975,0.00443,-0.00587,-0.00276
0.4332,0.05828,-0.89941,0.00187,-0.00595,-0.00081
0.43401,0.0583,-0.89902,0.0012,-0.00198,-0.003
0.4349,0.05845,-0.89858,-7e-05,0.00188,-0.00323
0.43601,0.05854,-0.89804,-0.00118,0.00179,-0.00378
0.43716,0.05872,-0.89747,-0.0016,0.00062,-0.00353
0.43828,0.05903,-0.8969,0.00473,0.00491,-0.00737
0.43919,0.05917,-0.89645,0.00382,0.00477,-0.00782
0.43979,0.05949,-0.89613,0.00491,0.00681,-0.00617
0.44026,0.05966,-0.89589,0.0006,0.00316,0.00128
0.44071,0.05991,-0.89565,-0.0028,0.00105,0.01386
0.44085,0.06029,-0.89555,0.0028,0.01042,-0.00865
0.44109,0.06036,-0.89543,0.00233,0.0004,0.0071
0.44129,0.06029,-0.89534,-0.00527,-0.00754,0.0041
0.44146,0.06026,-0.89526,-0.00042,-0.0033,-0.00423
0.44174,0.06029,-0.89511,0.00227,-0.00122,-0.0075
0.44224,0.06034,-0.89487,-0.0014,-0.00286,-0.00336
0.44279,0.06039,-0.89459,-0.00019,0.0017,-0.0024
0.44335,0.06052,-0.8943,-0.00071,0.00294,-0.00439
0.44387,0.06089,-0.89402,0.0005,0.00805,-0.00492
0.44434,0.06102,-0.89378,0.0005,0.00411,-0.00223
0.44477,0.06111,-0.89356,0.00055,0.0061,-0.00171
0.44517,0.06105,-0.89336,-0.00038,0.00402,-0.00044
0.44541,0.06104,-0.89325,0.00689,0.00079,-0.00843
0.44569,0.06109,-0.8931,0.00972,-0.00024,-0.01083
0.44616,0.06124,-0.89286,0.01426,-0.00281,-0.00996
0.4469,0.06168,-0.89245,0.01479,-0.00115,-0.00832
0.44773,0.06262,-0.89197,0.00864,0.00063,-0.01562
0.44819,0.06373,-0.89166,0.00449,0.00265,-0.01204
0.44786,0.06453,-0.89177,-0.00342,0.00113,-0.00435
0.44668,0.06466,-0.89235,-0.00293,0.00408,0.0017
0.445,0.06453,-0.8932,0.002,0.00589,0.00514
0.44326,0.06457,-0.89406,0.00139,0.00536,0.00148
0.44156,0.06449,-0.89491,0.00504,0.00303,-0.00133
0.43985,0.06435,-0.89576,0.00832,-0.00013,-0.00118
0.43844,0.06383,-0.89649,0.0073,-0.00744,-0.00352
0.43704,0.0634,-0.8972,0.00699,-0.00881,-0.00158
0.43578,0.0631,-0.89784,0.00064,-0.00901,0.00166
0.43468,0.0627,-0.8984,-0.00315,-0.00465,0.00043
0.43343,0.0625,-0.89902,-0.00496,-0.00213,-0.00061
0.43226,0.06248,-0.89958,-0.00543,0.00333,0.00104
0.43078,0.06275,-0.90027,-0.0064,0.00474,-0.00662
0.42931,0.06287,-0.90097,-0.00423,0.00271,-0.0062
0.42805,0.06282,-0.90157,-0.00402,0.00258,-0.00663
0.4269,0.06263,-0.90213,-0.00063,-0.00014,-5e-05
0.42598,0.06232,-0.90258,-0.00087,-0.00495,0.00337
0.42528,0.06218,-0.90292,-0.00017,-0.00481,0.00371
0.42498,0.06209,-0.90307,0.00528,0.00281,-0.00655
0.42471,0.06234,-0.90318,0.00394,0.00434,-0.00661
0.42437,0.06222,-0.90335,0.00428,0.00446,-0.00644
0.42413,0.06195,-0.90348,0.00218,-0.00108,0.00382
0.42404,0.06175,-0.90354,-0.00466,-0.00019,0.00063
0.42397,0.0616,-0.90358,-0.00459,-3e-05,0.00067
0.42369,0.06135,-0.90373,-0.00022,-0.00294,-0.00303
0.4236,0.06107,-0.90379,0.00701,-0.00237,-0.00347
0.42364,0.06096,-0.90378,0.00724,-0.00167,-0.00838
0.42364,0.06087,-0.90379,0.00118,-0.00169,-0.00245
0.42372,0.06073,-0.90376,0.00133,-0.00033,0.00498
0.42376,0.06058,-0.90374,0.00128,-0.00019,0.00497
0.42406,0.06058,-0.9036,0.00178,0.00279,0.00199
0.42423,0.06044,-0.90354,0.0026,0.00191,0.00217
0.42438,0.06021,-0.90348,0.00263,0.00317,0.00179
0.4248,0.0599,-0.9033,0.00716,0.0002,-0.00032
0.42532,0.05941,-0.90309,0.0078,-9e-05,-0.00403
0.42576,0.05905,-0.90291,0.00889,-0.00482,-0.00735
0.42602,0.05905,-0.90279,0.00292,0.00061,-0.01599
0.42551,0.05966,-0.90299,-0.00303,0.0107,-0.01573
0.42546,0.05961,-0.90301,-0.00298,0.01075,-0.01571
0.42536,0.05972,-0.90305,-0.0029,-0.0016,-0.00047
0.42549,0.05943,-0.90301,-3e-05,-0.00686,0.0086
0.42559,0.05928,-0.90297,0.0019,-0.0063,0.00682
0.42578,0.05888,-0.90291,0.00653,-0.00223,0.00316
0.42621,0.05865,-0.90272,0.00972,-0.00475,0.00226
0.4266,0.05837,-0.90256,0.00503,-0.00946,0.00221
0.42712,0.05811,-0.90233,0.00555,-0.00849,0.00406
0.42722,0.05788,-0.90229,-0.00533,0.00205,-0.00638
0.4272,0.05787,-0.9023,-0.00725,0.0048,-0.00497
0.4269,0.05826,-0.90242,-0.00564,0.01123,-0.0022
0.4271,0.05847,-0.90231,-0.00629,0.00677,0.00067
0.42779,0.05832,-0.90199,-0.00771,0.00426,0.00288
0.42884,0.05811,-0.90151,0.00575,-0.0015,-0.00823
0.4303,0.05781,-0.90083,0.00261,-0.00851,-0.00592
0.43197,0.0576,-0.90005,0.00296,-0.0084,-0.00161
0.43365,0.05702,-0.89928,0.00045,-0.00096,-0.00377
0.43526,0.05721,-0.89848,0.00079,-0.00014,-0.00894
0.43675,0.05748,-0.89775,0.00293,0.00273,-0.00821
0.43794,0.05786,-0.89714,0.00529,0.0085,-0.00785
0.43887,0.0582,-0.89666,0.00724,0.00894,-0.00286
0.43946,0.05835,-0.89636,0.00753,0.00867,-0.00012
0.43995,0.05852,-0.89611,0.0091,0.00242,-0.00216
0.4403,0.05855,-0.89594,0.00938,-0.00258,-0.00343
0.44044,0.0586,-0.89587,0.00936,-0.00185,-0.00249
0.4406,0.05853,-0.89579,0.00537,-0.0061,-0.00083
0.44084,0.05841,-0.89568,0.00299,-0.00553,-0.00385
0.44123,0.05858,-0.89548,0.00328,-0.00552,-0.00313
0.4421,0.05944,-0.89499,0.01127,0.00672,-0.01182
0.44331,0.06083,-0.8943,0.0096,0.0088,-0.0141
0.44438,0.06202,-0.89369,0.00508,0.00454,-0.01155
0.44414,0.06254,-0.89377,-0.01769,-0.00192,0.00556
0.44313,0.06252,-0.89427,-0.00766,0.00852,0.00893
0.44214,0.06277,-0.89475,0.00216,0.01624,0.00361
0.44145,0.06317,-0.89506,0.00323,0.00939,-0.0024
0.44108,0.06284,-0.89527,0.00785,-0.0043,-0.00593
0.44083,0.06227,-0.89543,0.00276,-0.01321,-0.00736
0.44068,0.06134,-0.89556,0.00078,-0.01468,-0.00518
0.44064,0.06116,-0.8956,0.0012,-0.00594,-0.00473
0.44055,0.0612,-0.89564,-0.00196,0.00403,-0.00669
0.44016,0.06162,-0.8958,-0.00156,0.00753,-0.00588
0.43965,0.06209,-0.89602,0.00247,0.00558,-0.00254
0.43929,0.06221,-0.89619,0.00262,0.00596,-0.00063
0.43905,0.06216,-0.89631,-0.00025,-0.00228,0.0062
0.43899,0.062,-0.89635,0.00114,-0.00177,-0.00132
0.439,0.06196,-0.89635,0.00112,-0.00173,-0.00133
0.4391,0.06167,-0.89632,0.0027,-0.0021,-0.0043
0.43916,0.06146,-0.89631,-0.001,-0.00128,-0.00283
0.43922,0.06133,-0.89628,-0.00238,0.00041,-0.00015
0.43925,0.06124,-0.89627,0.00106,0.00153,-0.00363
0.43928,0.0612,-0.89626,0.00244,0.00139,-0.00247
0.43919,0.06109,-0.89632,0.00651,0.00101,-0.00577
0.43914,0.06097,-0.89635,0.00747,-0.00078,-0.00366
0.43909,0.0609,-0.89638,0.00446,0.00104,-0.00148
0.439,0.06087,-0.89643,0.00584,0.00081,-0.00117
0.43894,0.06089,-0.89645,0.00209,-0.00047,-0.0053
0.43877,0.06087,-0.89653,0.00172,0.00159,-0.00271
0.43854,0.0608,-0.89665,0.00127,0.00071,-0.00372
0.43837,0.0608,-0.89673,0.00393,0.00093,-0.00256
0.4381,0.06083,-0.89687,0.00113,0.00115,-0.0023
0.43785,0.06086,-0.89698,0.0034,0.00155,-0.00228
0.43771,0.06083,-0.89706,0.00448,5e-05,-0.00342
0.43744,0.06078,-0.89719,0.00036,-0.00196,-0.00164
0.43723,0.06074,-0.8973,-0.00052,-0.00074,-0.00206
0.43699,0.06065,-0.89742,-0.00271,-0.00182,-0.00204
0.43674,0.06058,-0.89755,-0.00261,-0.00162,-0.00371
0.43666,0.06053,-0.89759,-0.00344,0.00015,-0.00279
0.43663,0.06053,-0.8976,-0.00122,0.00093,-0.00363
0.43672,0.06048,-0.89756,-0.00092,-0.00018,-0.00248
0.43686,0.06047,-0.89749,-0.00261,0.00049,-0.00212
0.43698,0.06047,-0.89744,-0.00166,-0.00056,-0.00355
0.43739,0.06044,-0.89724,0.0001,-0.00171,-0.00199
0.4379,0.06041,-0.89699,-0.0019,0.00173,-0.00111
0.43857,0.06039,-0.89666,0.0006,-0.00143,-0.00199
0.43947,0.06035,-0.89623,0.00303,-9e-05,0.0017
0.44042,0.06024,-0.89577,0.00117,-0.00158,-0.0011
0.44149,0.06005,-0.89526,0.0027,-0.00458,0.0005
0.44242,0.05989,-0.89481,-0.00034,-0.009,-0.00484
0.44316,0.05985,-0.89444,0.00231,-0.01113,-0.01149
0.44348,0.05984,-0.89429,0.00611,-0.00532,-0.01514
0.44338,0.06024,-0.89431,0.00596,0.00161,-0.01484
0.44282,0.06071,-0.89455,0.00894,0.00269,-0.01424
0.44216,0.06151,-0.89483,0.01329,0.00787,-0.00106
0.44114,0.06214,-0.89528,0.01592,0.00718,-0.00131
0.44009,0.06277,-0.89575,0.01585,0.00955,0.0017
0.43955,0.06362,-0.89596,0.01855,0.01164,0.00526
0.43902,0.06418,-0.89618,0.01198,0.00751,0.00647
0.43836,0.06424,-0.8965,0.01295,0.00489,0.00749
0.4379,0.06422,-0.89673,0.00435,0.00067,0.0074
0.43716,0.06383,-0.89712,-0.0048,-0.00409,-0.00271
0.43659,0.06363,-0.89741,-0.00423,-0.0039,-0.00242
0.43553,0.06315,-0.89795,-0.01154,-0.00663,-0.00707
0.43394,0.06267,-0.89876,-0.01572,-0.0053,-0.01025
0.4331,0.06247,-0.89918,-0.0153,-0.00482,-0.00997
0.43202,0.06213,-0.89972,-0.01434,-0.0046,-0.00546
0.43111,0.06197,-0.90017,-0.01082,0.00166,-0.00367
0.43068,0.06185,-0.90038,-0.00865,0.00141,-0.00475
0.43026,0.06181,-0.90059,-0.00301,0.00465,-0.00076
0.43031,0.06169,-0.90057,-0.00201,0.00259,0.00145
0.43057,0.06143,-0.90046,-0.00095,0.00319,0.00039
0.43135,0.06118,-0.90011,0.00826,0.00141,0.00071
0.43203,0.06085,-0.89981,0.00857,0.00097,-0.0024
0.43274,0.06048,-0.89949,0.00921,0.00025,-0.00342
0.43353,0.06006,-0.89914,0.01268,-0.00301,-0.00145
0.43425,0.0597,-0.89881,0.01181,-0.00275,-0.00186
0.43493,0.05937,-0.8985,0.01224,-0.00362,-0.00108
0.43579,0.05893,-0.89812,0.00756,-0.003,-0.00313
0.43636,0.05869,-0.89786,0.0065,-0.00216,-0.00191
0.43671,0.05864,-0.89769,0.00495,0.00113,-0.00198
0.43706,0.05862,-0.89752,0.00451,0.00028,-0.00171
0.43724,0.05864,-0.89743,0.00215,0.00151,-0.00273
0.43745,0.05862,-0.89733,0.0031,0.0007,-0.00202
0.43758,0.0588,-0.89725,-2e-05,0.0042,-0.00108
0.43769,0.05876,-0.8972,-2e-05,0.00331,-0.00075
0.43772,0.05874,-0.89719,0.00108,0.00411,-0.00395
0.43746,0.05865,-0.89732,-0.00129,0.00117,-0.00557
0.43726,0.05852,-0.89743,-0.00163,0.00067,-0.00537
0.43709,0.0584,-0.89752,-0.00227,0.0012,-0.00502
0.43669,0.05816,-0.89773,-0.00613,-0.00169,-0.00261
0.43666,0.05797,-0.89776,-0.00053,-0.00451,-1e-05
0.43665,0.05777,-0.89778,0.00163,-0.00581,-0.00303
0.43677,0.05749,-0.89773,0.00541,-0.00483,-0.00475
0.43711,0.05735,-0.89758,0.00583,-0.00152,0.00595
0.43726,0.05738,-0.8975,0.00567,-0.00155,0.00587
0.43776,0.05807,-0.89721,0.00711,-0.00715,-0.0192
0.43777,0.05786,-0.89723,0.00237,-0.00237,-0.00156
0.43774,0.0578,-0.89724,0.0024,-0.00231,-0.00155
0.43766,0.05797,-0.89727,0.0001,0.00616,-0.00234
0.43763,0.05829,-0.89726,0.00039,0.00333,-0.00352
0.43779,0.05827,-0.89719,0.00023,0.00334,-0.0036
0.43809,0.05831,-0.89704,0.00296,0.00344,-0.00174
0.43839,0.05839,-0.89688,0.00323,-3e-05,-0.00267
0.43848,0.0584,-0.89684,0.00133,-0.00164,-0.00547
0.43845,0.05845,-0.89685,-0.00016,0.00214,-0.00531
0.43846,0.0584,-0.89685,0.00106,-0.00188,-0.0056
0.43856,0.05837,-0.8968,0.00261,-0.00228,-0.00525
0.43862,0.05833,-0.89677,0.00397,-0.00021,-0.00255
0.43872,0.05834,-0.89673,0.00324,0.00179,-0.0031
0.43879,0.05839,-0.89669,0.00476,0.00197,-0.00161
0.43904,0.05849,-0.89656,0.00621,0.0005,-0.00244
0.43907,0.05848,-0.89655,0.00323,-0.00033,0.00019
0.43917,0.05854,-0.8965,0.00404,0.00126,0.00048
0.4393,0.05857,-0.89643,0.00493,-0.00056,-0.00325
0.43937,0.05863,-0.89639,0.0052,-0.0006,-0.00295
0.43937,0.0587,-0.89638,0.00283,-0.0027,-0.00356
0.4394,0.05866,-0.89637,0.00213,-0.00194,-0.00339
0.43937,0.05875,-0.89638,0.0022,-0.00133,-0.00109
0.43931,0.05895,-0.8964,0.00423,-0.001,-0.00131
0.43915,0.05924,-0.89646,0.00261,0.00161,-0.00428
0.43891,0.05952,-0.89656,0.0021,-0.00079,-0.00403
0.4386,0.05984,-0.89669,0.00337,0.00214,-0.00462
0.43819,0.06025,-0.89686,0.00097,0.00458,-0.00519
0.43785,0.06061,-0.897,0.00127,0.00444,-0.00244
0.43749,0.06087,-0.89716,0.00087,0.00454,-0.00134
0.43713,0.0611,-0.89732,-0.00171,0.00271,-0.00354
0.43707,0.06133,-0.89733,-0.0011,0.00317,-0.00013
0.43709,0.06139,-0.89732,-0.00122,0.00258,-0.00469
0.43701,0.06129,-0.89737,-0.00445,-0.00201,-0.00365
0.4371,0.0611,-0.89734,0.00025,-0.00417,-0.00067
0.43727,0.06103,-0.89726,-0.00076,-0.0021,-0.00531
0.43744,0.06093,-0.89718,0.00073,-0.0038,-0.00587
0.43764,0.06092,-0.89708,-0.0011,-0.00326,-0.00409
0.43784,0.06103,-0.89698,0.00284,-0.00021,-0.00171
0.43801,0.06109,-0.89689,0.002,-0.00155,-0.00118
0.43811,0.06117,-0.89684,0.00342,-0.00012,-0.00068
0.43819,0.06125,-0.8968,0.00462,0.00151,-0.00071
0.4384,0.06134,-0.89668,0.00583,0.00192,-0.00059
0.43849,0.06132,-0.89664,0.0056,0.0004,-0.00089
0.43865,0.06125,-0.89657,0.00592,0.00167,-0.00149
0.43893,0.06111,-0.89644,0.00695,-0.00048,-0.00145
0.439,0.0611,-0.89641,0.00339,0.00206,-0.00146
0.43898,0.06102,-0.89642,0.00203,0.00296,-0.00235
0.43889,0.06091,-0.89648,0.00052,-0.00088,-0.00505
0.43877,0.06079,-0.89654,0.00025,-0.00169,-0.0022
0.43861,0.06065,-0.89663,-0.00106,-0.00119,-0.00501
0.43838,0.06051,-0.89675,-0.00062,-0.00054,-0.0048
0.43824,0.0605,-0.89682,0.00076,0.00148,-0.00249
0.43814,0.06044,-0.89687,0.00086,0.00155,-0.00244
0.43792,0.06039,-0.89698,-0.00295,0.00059,-0.00255
0.43784,0.06032,-0.89703,0.00231,0.00134,-0.00219
0.43779,0.0602,-0.89706,0.00236,0.00146,-0.00216
0.43776,0.06006,-0.89708,-0.00115,0.0013,0.00072
0.43764,0.05994,-0.89715,-0.00237,0.00097,-0.00022
0.4379,0.05977,-0.89703,0.00097,-0.0035,0.01048
0.438,0.05976,-0.89699,0.00504,0.00681,-0.01723
0.43835,0.05946,-0.89684,-0.00074,-0.00289,0.00492
0.43856,0.05916,-0.89675,-0.00376,-0.00608,-0.00153
0.43878,0.05896,-0.89666,0.00519,0.0027,-0.00166
0.43909,0.05882,-0.89651,0.00433,-0.00225,-0.00212
0.43933,0.05865,-0.89641,0.00533,-0.00198,-0.00511
0.43956,0.05854,-0.8963,0.00437,0.00148,-0.0029
0.43995,0.05839,-0.89612,0.00513,-0.00071,-0.00146
0.44021,0.05838,-0.896,0.00326,0.00146,-0.00441
0.44049,0.05848,-0.89585,0.00617,0.00167,-0.00457
0.44052,0.05857,-0.89583,0.00282,0.00057,-0.00508
0.44044,0.05856,-0.89587,0.00438,-0.00043,-0.00327
0.44031,0.05853,-0.89594,0.00154,0.00407,-0.00096
0.44014,0.05867,-0.89601,0.00062,0.00508,-0.00073
0.44001,0.05868,-0.89607,-0.00094,0.0033,-0.00187
0.43993,0.05864,-0.89612,0.00079,0.00119,0.00076
0.43982,0.05849,-0.89618,6e-05,-0.00132,-0.00136
0.43979,0.05835,-0.8962,-0.00192,0.00043,-0.00413
0.43974,0.05814,-0.89624,-0.00017,-0.00261,-0.00168
0.43972,0.05797,-0.89626,4e-05,-0.0027,-0.00207
0.43967,0.05788,-0.89629,-0.00184,-7e-05,-0.00077
0.43967,0.05763,-0.89631,-0.00092,-0.00568,-0.0017
0.43982,0.05747,-0.89625,0.00077,-0.00635,-0.00173
0.44013,0.05738,-0.8961,0.00202,-0.00549,-0.00106
0.44066,0.05719,-0.89585,0.00257,-0.00414,0.00045
0.44121,0.05728,-0.89557,0.00579,-0.00288,-0.00138
0.44187,0.05743,-0.89524,0.00431,7e-05,-0.00231
0.4426,0.05772,-0.89486,0.00471,0.00248,-0.00183
0.44327,0.05795,-0.89451,0.0063,0.00197,-0.00223
0.44383,0.05823,-0.89422,0.00255,0.00249,-0.00269
0.44424,0.0585,-0.894,0.00074,0.00222,-0.00224
0.44451,0.05872,-0.89385,0.00082,0.00328,-0.00505
0.44462,0.05902,-0.89377,-0.0003,0.0043,-0.00598
0.44451,0.05931,-0.89381,-0.00193,0.00673,-0.00676
0.44428,0.05951,-0.89391,-0.00047,0.00307,-0.00526
0.44414,0.05949,-0.89398,-0.00032,0.00309,-0.00519
0.44401,0.05959,-0.89404,0.00393,0.00243,-0.00316
0.444,0.05961,-0.89404,0.00342,0.0014,-0.00096
0.44383,0.05953,-0.89413,0.00358,0.00149,-0.00088
0.44379,0.05936,-0.89416,0.00464,-0.00342,-0.00301
0.44369,0.05926,-0.89422,0.00415,-0.00165,-0.00294
0.44349,0.05918,-0.89432,0.00435,-0.00158,-0.00283
0.44318,0.05905,-0.89449,0.00039,-0.00125,-0.0034
0.44286,0.0589,-0.89465,0.00091,-0.00233,-0.00331
0.44254,0.05881,-0.89482,-2e-05,-0.00181,-0.00344
0.44229,0.05871,-0.89495,0.00357,0.00016,-0.00213
0.44202,0.05868,-0.89508,-0.00017,0.00065,-0.00212
0.44193,0.05864,-0.89513,0.0027,-0.00192,0.00022
0.44197,0.05859,-0.89511,0.00232,-0.00297,-0.00064
0.44204,0.05863,-0.89508,0.00095,-0.00144,-0.00252
0.44207,0.05861,-0.89506,0.00068,-0.00147,-0.00121
0.44204,0.05854,-0.89509,0.00012,-0.00254,-0.00244
0.44197,0.05858,-0.89511,2e-05,0.00184,-0.00439
0.44207,0.0586,-0.89506,0.001,0.0001,-0.00177
0.44222,0.05865,-0.89499,0.00201,0.00042,-0.00307
0.4423,0.05864,-0.89495,0.00126,0.00116,-0.00247
0.44242,0.05862,-0.89489,0.00261,0.00113,-0.00281
0.44259,0.05865,-0.8948,0.00233,-0.00025,-0.00346
0.44285,0.05859,-0.89468,0.00186,0.00097,0.0012
0.44316,0.05855,-0.89453,0.00183,0.00202,0.0002
0.44348,0.05849,-0.89438,0.00136,-2e-05,-0.00125
0.44371,0.05841,-0.89427,0.00223,-0.00075,-0.00455
0.44395,0.05838,-0.89415,0.00619,0.00113,-0.00682
0.44403,0.05838,-0.89411,0.00827,0.00028,-0.00766
0.44403,0.05843,-0.89411,0.00352,-0.00028,-0.00189
0.44387,0.05851,-0.89418,0.00335,0.00057,0.00214
0.44386,0.05856,-0.89418,0.00503,-0.00142,0.00395
0.44382,0.05866,-0.89419,0.00505,0.00056,-5e-05
0.44392,0.05867,-0.89415,0.00474,-0.00029,-0.00129
0.44385,0.05871,-0.89418,0.00281,0.0016,-0.00495
0.44362,0.05882,-0.89428,0.00239,0.00157,-0.00651
0.44327,0.05894,-0.89445,0.00249,0.00174,-0.0068
0.44272,0.05907,-0.89471,0.00043,0.00184,-0.00467
0.4422,0.05922,-0.89496,-0.00134,0.00082,-0.0002
0.44179,0.05932,-0.89516,-0.00066,0.0008,0.00157
0.44154,0.0594,-0.89527,0.00113,-0.00027,0.00025
0.44138,0.05946,-0.89535,0.00178,0.00029,-0.00352
0.44128,0.0595,-0.8954,0.0008,0.00199,-0.00306
0.44112,0.0595,-0.89548,-0.00043,0.00151,-0.00308
0.44087,0.05951,-0.8956,0.00123,0.00048,-0.0028
0.44069,0.05955,-0.89568,0.00142,0.00043,-0.00271
0.44053,0.05951,-0.89576,0.00212,2e-05,-0.00319
0.44036,0.0595,-0.89585,0.00248,-0.0006,-0.00419
0.44023,0.05955,-0.89591,0.00261,-0.00065,-0.00413
0.44021,0.05955,-0.89592,0.0031,0.00224,-0.00218
0.44024,0.05951,-0.89591,0.0036,0.00064,-0.00027
0.44021,0.05948,-0.89592,0.00362,0.00067,-0.00026
0.44025,0.05958,-0.8959,0.00058,0.00208,-0.00285
0.44031,0.05954,-0.89587,0.00262,-0.0007,-0.00245
0.44049,0.05953,-0.89578,0.00508,-0.00045,-0.00387
0.44073,0.05956,-0.89566,0.00542,0.00112,-0.00218
0.44091,0.05959,-0.89557,0.00262,-0.00011,-0.00433
0.44101,0.05968,-0.89551,0.00268,0.00169,-0.00422
0.44104,0.05969,-0.8955,-0.00068,-0.00121,-0.00306
0.44098,0.05958,-0.89554,0.00113,-0.00245,-0.00347
0.44107,0.05965,-0.89549,-0.00029,-0.00017,-0.00536
0.44117,0.05986,-0.89543,-0.00196,0.00696,-0.00408
0.44111,0.0601,-0.89544,-0.00213,0.00434,-0.00124
0.44115,0.06002,-0.89543,-0.00046,0.00219,-0.00141
0.44134,0.05986,-0.89534,0.00522,-0.00268,-0.00575
0.44155,0.05966,-0.89525,0.00578,-0.00199,-0.00482
0.44174,0.05952,-0.89517,0.0049,-0.00244,-0.00133
0.44193,0.05946,-0.89508,0.00551,-0.00104,-0.00398
0.44205,0.05944,-0.89502,0.00477,-0.00132,-0.00282
0.44217,0.0594,-0.89496,0.00533,-0.0014,0.00046
0.4424,0.05943,-0.89485,0.00424,0.00013,-0.00097
0.44248,0.05949,-0.8948,0.0023,0.00161,-0.00337
0.44253,0.05965,-0.89477,0.00193,0.00245,-0.00166
0.44254,0.05972,-0.89476,0.00091,0.001,-0.00038
0.44246,0.05971,-0.8948,-0.00041,0.00075,-0.00301
0.44242,0.0597,-0.89482,0.00079,-0.00045,-0.00345
0.44236,0.05963,-0.89485,0.00022,-2e-05,-0.0031
0.44234,0.05962,-0.89486,0.00085,0.00044,-0.00074
0.44236,0.05959,-0.89486,0.00271,-0.00111,-0.00477
0.44234,0.05951,-0.89487,0.00043,-0.00092,-0.00392
0.44235,0.05957,-0.89486,0.00118,-0.00075,-0.00472
0.44226,0.0596,-0.8949,0.00057,0.00158,-0.00179
0.44229,0.05974,-0.89488,0.00253,0.00214,-0.00018
0.44224,0.05981,-0.8949,0.00158,0.00154,-0.00238
0.44215,0.05983,-0.89494,0.00075,0.00041,-0.00221
0.44217,0.0599,-0.89493,0.00266,0.00129,0.00038
0.44217,0.05994,-0.89493,0.00231,0.00177,0.0
0.44218,0.05988,-0.89493,0.00265,0.00016,-0.00287
0.44221,0.05978,-0.89492,0.00401,-0.00113,-0.00479
0.44221,0.05981,-0.89492,0.00487,0.00106,-0.00363
0.44221,0.05985,-0.89491,0.00146,-5e-05,-0.0021
0.44215,0.05984,-0.89494,0.00253,-0.00114,-0.00139
0.44209,0.05987,-0.89497,0.00151,-0.0001,-0.00255
0.44206,0.05987,-0.89498,0.00143,-0.0012,-0.00226
0.44198,0.05987,-0.89502,0.00175,0.00014,-0.00355
0.44188,0.05995,-0.89507,-0.00091,0.00129,-0.00093
0.44181,0.05991,-0.8951,0.00062,-0.00125,-0.00333
0.44169,0.05997,-0.89516,-0.00076,0.00096,-0.00209
0.44161,0.05995,-0.8952,0.00052,0.00042,-0.00456
0.4416,0.05991,-0.89521,0.00052,0.00045,-0.00456
0.44167,0.05993,-0.89517,0.00219,0.00017,-0.00217
0.44181,0.05998,-0.8951,0.00408,0.00179,-0.00558
0.44186,0.05998,-0.89508,0.00481,5e-05,-0.0043
0.44184,0.06,-0.89508,0.00222,-0.0004,-0.00279
0.44181,0.05982,-0.89511,0.00153,-0.00335,0.00169
0.44177,0.0598,-0.89513,0.00158,-0.00333,0.00172
0.4419,0.05983,-0.89507,0.00154,0.00209,-0.00021
0.44195,0.05982,-0.89504,0.00069,0.00181,-0.00309
0.44195,0.05974,-0.89505,0.00069,0.00189,-0.00309
0.44197,0.05973,-0.89504,0.0034,0.00022,-0.00398
0.44204,0.05965,-0.89501,0.00236,-0.00092,-0.00266
0.442,0.05957,-0.89504,0.00095,-0.00049,-0.00325
0.442,0.05951,-0.89504,0.00159,0.00012,-0.00414
0.44209,0.05944,-0.895,0.00341,-0.00113,-0.00248
0.44211,0.05934,-0.895,0.00305,-0.0013,-0.00211
0.44222,0.0592,-0.89495,0.00353,-0.00114,-0.00286
0.44236,0.05912,-0.89489,0.00138,0.00061,-0.0028
0.44242,0.05916,-0.89486,0.00177,0.00228,-0.0037
0.44245,0.05908,-0.89485,0.00311,0.00088,-0.00382
0.44246,0.05904,-0.89484,0.00186,-0.00039,-0.00279
0.44249,0.05901,-0.89483,0.00286,0.00055,0.00022
0.44249,0.05899,-0.89483,0.00122,0.0005,-0.00202
0.44259,0.05892,-0.89479,0.00332,0.00117,-0.0029
0.44266,0.05892,-0.89475,0.00261,-0.00128,-0.00103
0.44276,0.05892,-0.8947,0.00318,0.00172,-0.00187
0.44277,0.0589,-0.8947,0.0037,0.00038,-0.0026
0.44271,0.05886,-0.89473,-0.00038,-0.00114,-0.00413
0.44261,0.05886,-0.89478,-0.00096,-0.00014,-0.00334
0.44261,0.0588,-0.89478,0.00249,-0.00077,-0.00369
0.44261,0.05877,-0.89479,0.00205,-0.00147,-0.00211
0.4427,0.05875,-0.89474,0.00435,-0.00024,-0.00209
0.4427,0.05869,-0.89475,0.00313,-1e-05,-0.00345
0.44267,0.05864,-0.89476,-0.00093,-0.00135,-0.00204
0.44269,0.0586,-0.89476,0.00084,-0.00217,-0.00201
0.44271,0.05862,-0.89474,0.00219,0.00029,-0.0024
0.44272,0.05862,-0.89474,0.00162,0.00143,-0.00333
0.44277,0.05853,-0.89472,0.00189,-0.00103,-0.00271
0.44279,0.05848,-0.89472,0.00271,-0.00117,-0.00033
0.4428,0.05846,-0.89471,0.00239,-0.00066,-0.00145
0.44285,0.05851,-0.89469,0.00358,0.00153,-0.00293
0.44283,0.05881,-0.89468,0.00146,0.0046,-0.00314
0.44281,0.05882,-0.89469,0.00148,0.00459,-0.00313
0.44274,0.05862,-0.89473,0.00468,0.00073,-0.0043
0.44269,0.05851,-0.89477,0.00134,-0.00089,-0.00125
0.44267,0.0585,-0.89477,0.00136,-0.00088,-0.00124
0.4426,0.0585,-0.89481,-0.00036,0.00063,-0.00352
0.44272,0.05855,-0.89475,0.00227,0.00018,-0.00197
0.44286,0.05867,-0.89467,0.00489,0.00258,-0.00221
0.44294,0.05875,-0.89462,0.00624,-0.00023,-0.0044
0.44285,0.05874,-0.89467,0.00295,-0.00118,-0.00275
0.44273,0.05874,-0.89473,0.00067,-0.00104,0.00056
0.44265,0.05873,-0.89477,-0.00197,-0.00029,-0.00204
0.4426,0.05878,-0.89479,0.00063,0.00111,-0.00156
0.44263,0.05881,-0.89478,0.00372,0.00225,-0.00334
0.44259,0.05874,-0.8948,0.0037,-0.00082,-0.00466
0.44261,0.05867,-0.89479,0.00427,-0.00011,-0.00194
0.44254,0.05864,-0.89483,0.00158,-0.00048,-0.00179
0.44247,0.05861,-0.89487,0.00115,-0.00241,-0.00234
0.44236,0.05864,-0.89492,0.00022,0.00139,-0.0023
0.44233,0.05869,-0.89493,0.00171,0.00177,-0.00148
0.44236,0.0586,-0.89492,0.00347,-0.00176,-0.00144
0.44241,0.05848,-0.8949,0.00038,-0.00195,-0.00277
0.44247,0.05856,-0.89487,0.00122,0.00217,-0.00246
0.44244,0.0586,-0.89488,-0.00162,0.00143,-0.00518
0.44243,0.05861,-0.89489,0.00055,0.00042,-0.00314
0.44244,0.05861,-0.89488,0.00041,0.00051,-0.00246
0.44242,0.05861,-0.89489,-0.00053,0.00082,-0.00147
0.4425,0.05858,-0.89485,-0.00189,0.00089,-0.00235
0.44265,0.05856,-0.89478,0.00263,-0.00055,-0.00331
0.44286,0.05842,-0.89468,0.0057,-0.0029,0.0011
0.44298,0.05836,-0.89463,0.00665,-0.00117,-0.00156
0.44299,0.05838,-0.89462,0.00421,0.00068,-0.00168
0.443,0.0585,-0.89461,0.00239,0.00283,-0.00329
0.44295,0.05854,-0.89463,-0.00051,0.00171,-0.00319
0.44296,0.05853,-0.89463,0.0005,-0.00128,-0.0021
0.44301,0.05858,-0.8946,0.00186,9e-05,-0.00287
0.44299,0.05866,-0.89461,0.00443,0.00125,-0.00317
0.44299,0.05881,-0.8946,0.00634,0.0034,-0.00427
0.44302,0.05881,-0.89458,0.004,-0.00031,-0.00363
0.44294,0.05886,-0.89462,0.00169,-0.00113,-0.0013
0.44276,0.05894,-0.8947,0.00021,-0.00154,-0.00381
0.44255,0.05909,-0.8948,0.00419,0.00131,-0.00199
0.44239,0.05916,-0.89487,0.00439,0.0,-0.00036
0.44231,0.05921,-0.89491,0.00316,-0.00141,0.00132
0.44213,0.0594,-0.89498,0.00178,-0.00029,-0.00214
0.44186,0.05961,-0.8951,0.00133,0.00173,-0.00296
0.44158,0.05974,-0.89523,-0.00057,-0.00061,-0.0049
0.44146,0.05985,-0.89528,-0.00151,-0.00246,-0.00015
0.44146,0.0601,-0.89526,-0.00225,0.00036,-0.0054
0.44158,0.06031,-0.89519,-0.00376,0.0018,-0.00526
0.44164,0.06066,-0.89514,-0.0058,0.00436,-0.00604
0.44181,0.06082,-0.89505,-0.00486,-0.00015,-0.0008
0.442,0.06102,-0.89494,-0.00271,0.0063,0.00091
0.44228,0.06143,-0.89477,0.0056,0.00679,0.00136
0.4425,0.0616,-0.89465,0.00953,-0.00154,-0.00061
0.44235,0.06165,-0.89472,0.00908,-0.0062,-0.00089
0.44237,0.06166,-0.89471,0.00751,-0.00392,-0.00153
0.44217,0.06174,-0.8948,-9e-05,-0.00267,-0.004
0.44183,0.06208,-0.89495,0.00254,-0.00051,-0.00356
0.44121,0.06252,-0.89523,0.00233,0.00216,-0.006
0.4406,0.06315,-0.89548,0.00766,0.00499,-0.00299
0.43979,0.06358,-0.89585,0.00868,0.00228,-0.00146
0.43916,0.06402,-0.89612,0.00945,0.00182,-0.00213
0.43871,0.06423,-0.89633,0.00863,-0.00022,-0.0013
0.43805,0.06423,-0.89665,0.00801,-0.00426,-0.00156
0.43717,0.0641,-0.89709,-0.00344,-0.00441,-0.00199
0.43672,0.06421,-0.8973,-0.00299,-0.00452,-0.00177
0.43603,0.06446,-0.89762,-0.00627,0.00776,-0.00408
0.43552,0.06448,-0.89787,-0.00292,0.00279,-0.00228
0.43522,0.06444,-0.89802,-0.00052,0.00185,-0.00315
0.43496,0.06413,-0.89816,-0.00181,-0.00355,-0.00214
0.4347,0.06386,-0.89831,-0.007,-0.00299,-0.00504
0.43446,0.06378,-0.89843,-0.00439,0.0038,-0.01122
0.43441,0.06357,-0.89847,0.00646,0.00809,0.00256
0.43473,0.06277,-0.89837,0.00634,-0.01372,-0.01034
0.43478,0.06241,-0.89837,0.00223,-0.01491,-0.00924
0.43498,0.06194,-0.89831,-0.00357,0.00231,-0.00017
0.43536,0.0616,-0.89815,-0.00415,0.0112,-0.01346
0.43552,0.06141,-0.89808,-0.00729,0.0072,0.0024
0.43575,0.06134,-0.89798,-0.00688,0.00445,0.00869
0.43612,0.06144,-0.89779,0.00601,0.00609,0.00118
0.43694,0.0616,-0.89738,0.01203,0.01116,-0.00336
0.43769,0.06116,-0.89705,0.01405,0.0065,-0.00727
0.43865,0.06026,-0.89663,0.00837,-0.0033,-0.00467
0.4391,0.0589,-0.8965,0.00487,-0.01642,-0.00802
0.43915,0.05782,-0.89655,0.00595,-0.01026,-0.01014
0.43859,0.05688,-0.89689,0.00392,-0.00503,-0.01086
0.43735,0.05634,-0.89753,0.00375,-0.00431,-0.00825
0.43553,0.05623,-0.89841,0.00175,0.00177,-0.00706
0.4333,0.05624,-0.89949,0.00873,0.00322,-0.00507
0.43065,0.05634,-0.90076,0.01295,0.00567,-0.00676
0.42744,0.05618,-0.9023,0.0131,0.00717,6e-05
0.42516,0.05618,-0.90337,0.01411,0.00268,0.01073
0.4233,0.05611,-0.90425,0.00585,-0.00238,0.01105
0.42192,0.05604,-0.9049,-0.00319,-0.00819,0.00704
0.42069,0.05573,-0.90549,-0.00878,-0.00834,-0.00273
0.41964,0.05568,-0.90598,-0.0114,-0.00359,-0.00459
0.41875,0.05573,-0.90639,-0.01195,0.0012,-0.00611
0.41772,0.05581,-0.90686,-0.0121,0.00263,-0.00354
0.41696,0.05588,-0.90721,-0.00164,0.00121,0.00201
0.41659,0.05585,-0.90738,-0.00146,0.00118,0.00161
0.41642,0.05596,-0.90745,0.00217,0.00439,0.00043
0.41637,0.05609,-0.90746,-0.00307,0.00053,-0.00141
0.41636,0.05611,-0.90747,-0.00282,0.00033,-0.00504
0.4165,0.05614,-0.9074,0.00235,0.00205,-0.00193
0.41683,0.05611,-0.90725,0.00519,0.00167,-0.00349
0.4172,0.05601,-0.90709,0.0062,-0.00028,-0.00176
0.41774,0.05594,-0.90684,0.01329,0.00158,-0.00147
0.4185,0.05588,-0.9065,0.01462,0.00063,-0.00026
0.41862,0.05578,-0.90645,0.01178,0.00146,-0.00156
0.41873,0.05538,-0.90642,0.00872,-0.00305,-0.00064
0.41835,0.05517,-0.90661,0.01105,-0.00665,-0.00413
0.41803,0.05496,-0.90677,0.004,-0.00473,-0.0072
0.41776,0.05496,-0.9069,0.00331,-0.00054,-0.00376
0.41743,0.05518,-0.90703,0.00246,0.00175,-0.00364
0.41736,0.05547,-0.90705,0.00263,0.00175,0.00077
0.41726,0.05569,-0.90708,-0.00096,-0.00064,0.00075
0.41701,0.05574,-0.90719,-0.00165,-0.00046,0.00022
0.41655,0.05573,-0.9074,-0.00344,-0.00083,-0.001
0.41586,0.05541,-0.90774,-0.00631,-0.00752,-0.00686
0.41517,0.05501,-0.90808,-0.005,-0.01,-0.00965
0.41479,0.05497,-0.90826,-0.00394,-0.00925,-0.00831
0.41436,0.05503,-0.90845,-0.00492,-0.00098,-0.00491
0.4142,0.0552,-0.90851,-0.00343,0.00166,-0.0009
0.41429,0.05543,-0.90846,-0.00363,-4e-05,0.00166
0.41443,0.05572,-0.90837,-0.00251,-0.00119,0.00296
0.41457,0.05603,-0.90829,0.00113,0.00267,-0.00269
0.41458,0.05618,-0.90828,0.00113,-0.00068,-0.00351
0.41458,0.05631,-0.90827,0.00349,0.00039,-0.00697
0.41477,0.05648,-0.90817,0.00528,-0.00077,-0.00482
0.41501,0.0567,-0.90805,0.00482,0.00095,-0.00304
0.41548,0.05706,-0.90781,0.00769,0.00122,0.00096
0.41613,0.05738,-0.90749,0.01426,-0.00051,-0.00382
0.41609,0.05776,-0.90749,0.0143,-0.00089,-0.00383
0.41623,0.05831,-0.90739,0.00783,0.00759,-0.00399
0.41616,0.05884,-0.90739,0.00227,0.00824,0.00579
0.41609,0.05912,-0.9074,-6e-05,0.00482,0.00623
0.41599,0.05924,-0.90744,0.00137,0.0013,0.0039
0.41582,0.05921,-0.90752,0.0016,-0.00079,-0.00474
0.41554,0.05916,-0.90765,-0.00433,-0.00022,-0.00686
0.41511,0.059,-0.90786,-0.0075,-0.00011,-0.00508
0.41475,0.05874,-0.90804,-0.007,-0.004,-0.00218
0.41457,0.0586,-0.90813,-0.00866,-0.00527,-0.00513
0.41449,0.05844,-0.90817,-0.0027,-0.00461,-0.00328
0.41459,0.05829,-0.90814,0.00352,-0.00026,-0.00147
0.41468,0.05821,-0.9081,0.00324,-0.00107,-0.00213
0.41491,0.05822,-0.908,0.00695,0.00083,-0.00315
0.41513,0.05829,-0.90789,0.00322,0.00152,-0.00614
0.41533,0.05832,-0.9078,0.00575,0.00313,-0.00384
0.41553,0.05841,-0.9077,0.00607,0.00346,-0.0037
0.41584,0.05864,-0.90755,0.0062,0.00452,0.00021
0.41601,0.05866,-0.90747,0.00551,0.0034,-0.00242
0.41615,0.05866,-0.9074,0.00737,0.00076,-0.00338
0.41615,0.05849,-0.90741,0.00394,-0.00104,-0.0045
0.41599,0.05836,-0.90749,-0.0002,-0.00124,-0.00428
0.41567,0.05819,-0.90765,-0.00235,-0.0018,-0.0052
0.41547,0.05821,-0.90774,-0.00196,-0.0066,-0.00562
0.41514,0.05792,-0.90791,-0.00106,-0.00809,-0.00871
0.41496,0.05798,-0.90799,0.00072,-0.00198,-0.00798
0.41483,0.0581,-0.90804,0.00123,0.00151,-0.00538
0.41481,0.05824,-0.90804,0.00194,0.00362,-0.00231
0.4149,0.05862,-0.90798,0.00301,0.00857,0.00222
0.41495,0.0588,-0.90794,0.00537,0.00749,0.00275
0.4152,0.05891,-0.90782,0.00765,0.00139,-0.00136
0.41539,0.05885,-0.90774,0.00656,-0.00181,-0.00767
0.41529,0.05879,-0.90779,0.00154,-0.00308,-0.00684
0.41503,0.05865,-0.90791,-4e-05,-0.00206,-0.00235
0.41477,0.05858,-0.90804,0.00343,0.00018,-0.00128
0.4146,0.05867,-0.90811,0.00124,-0.00021,-0.00389
0.41455,0.05889,-0.90812,0.00113,0.00266,-0.00445
0.41465,0.05922,-0.90805,0.00587,0.00459,-0.00447
0.41468,0.05935,-0.90803,0.00862,0.00016,-0.00647
0.41424,0.05941,-0.90823,0.0068,-0.00152,-0.00194
0.41331,0.05937,-0.90865,-0.00604,-0.00236,-0.00736
0.41211,0.05957,-0.90919,-0.01745,0.00026,-0.00567
0.41158,0.05981,-0.90941,-0.01887,0.00062,-0.00069
0.41179,0.06,-0.9093,0.00796,0.00086,0.00973
0.41252,0.06026,-0.90895,0.01676,0.00221,0.00942
0.41285,0.06035,-0.9088,0.01739,0.00273,0.00337
0.41287,0.06026,-0.9088,0.01049,-0.00528,-0.00829
0.41243,0.05985,-0.90902,0.00427,-0.00585,-0.00672
0.41194,0.05968,-0.90925,0.00476,-0.00568,-0.00649
0.41101,0.05929,-0.9097,-0.01616,-0.00651,-0.00909
0.40971,0.05903,-0.9103,-0.02023,-0.00726,-0.01188
0.40946,0.05927,-0.9104,-0.01998,-0.0075,-0.01178
0.40857,0.05944,-0.91079,-0.01346,-0.00147,-0.00901
0.40838,0.05972,-0.91086,-0.00875,0.00606,0.0007
0.40843,0.06011,-0.91081,-0.00792,0.00918,0.00143
0.40872,0.0606,-0.91064,0.00084,0.00433,0.0022
0.40914,0.06069,-0.91045,0.00133,-0.00183,-0.00178
0.40958,0.06054,-0.91027,0.00282,-0.00382,-0.0052
0.41001,0.0602,-0.91009,0.0042,-0.00675,-0.00454
0.41053,0.05995,-0.90987,0.00526,-0.00316,-0.00123
0.41104,0.05989,-0.90965,0.00347,0.00026,-0.00153
0.41158,0.05992,-0.9094,0.00529,-0.00078,0.00036
0.41206,0.05998,-0.90918,0.00615,-0.00068,0.00031
0.4123,0.06008,-0.90906,0.008,-0.00103,-0.0017
0.41258,0.06027,-0.90893,0.00858,0.00195,0.00124
0.41276,0.06051,-0.90883,0.00574,0.0028,-0.00198
0.41261,0.06054,-0.9089,0.00549,0.00118,-0.00352
0.41248,0.06051,-0.90896,0.00726,-0.00093,-0.00797
0.41251,0.0605,-0.90894,0.0096,0.00127,-0.00814
0.41218,0.06044,-0.9091,0.00773,0.00256,-0.00231
0.41164,0.06056,-0.90933,0.00315,0.00784,0.00169
0.41096,0.0609,-0.90962,-0.00156,0.00687,0.00125
0.41035,0.06087,-0.9099,-0.00222,0.00343,-0.00238
0.40973,0.06078,-0.91018,0.00113,-0.00295,-0.00616
0.40909,0.0605,-0.91049,0.00137,-0.00514,-0.00518
0.40845,0.06027,-0.91079,-0.00263,-0.00373,-0.00192
0.40784,0.06007,-0.91107,-0.00388,0.00052,-0.0014
0.40745,0.06003,-0.91125,-0.0041,0.00078,-0.00246
0.40716,0.0599,-0.91139,0.00169,-0.00251,-0.00638
0.40692,0.05982,-0.9115,0.00286,-0.0004,-0.00538
0.4066,0.05976,-0.91165,-0.00325,0.00178,-0.00373
0.4064,0.05974,-0.91174,-0.00831,-2e-05,-0.00136
0.40607,0.05967,-0.91189,-0.00706,-0.00146,-0.00307
0.4059,0.05959,-0.91197,-0.00025,-0.00281,-0.00696
0.40578,0.05941,-0.91204,0.00362,-0.00097,-0.01149
0.40573,0.05932,-0.91207,0.00411,-0.00066,-0.00621
0.40561,0.05922,-0.91213,0.00281,0.00203,-0.00084
0.40545,0.05909,-0.91221,-0.00125,-0.00179,0.00086
0.40534,0.05891,-0.91226,-0.00069,-0.00285,0.00199
0.40537,0.05874,-0.91226,0.00057,-0.00613,-0.00119
0.40558,0.05855,-0.91218,0.00474,-0.00519,-0.00335
0.40584,0.05841,-0.91207,0.01033,-0.00139,-0.00589
0.40593,0.05838,-0.91204,0.00947,-0.00057,-0.00319
0.40596,0.05843,-0.91202,0.0087,0.00204,-0.00081
0.40577,0.05858,-0.9121,-0.00115,0.00262,-0.00062
0.40534,0.05869,-0.91228,-0.00424,0.00094,-0.00201
0.40494,0.05874,-0.91246,-0.00415,-0.00218,-0.00391
0.40469,0.05874,-0.91257,0.00321,-0.00243,-0.00462
0.40458,0.05863,-0.91262,0.00376,-0.00204,-0.00481
0.40449,0.05871,-0.91265,-0.00114,0.00233,-0.00095
0.40419,0.05883,-0.91278,-0.00589,0.0039,-0.00429
0.4038,0.059,-0.91294,-0.01004,0.00385,-0.00196
0.40324,0.05912,-0.91318,-0.01464,0.00294,-0.00282
0.40286,0.05896,-0.91336,-0.01158,-0.0033,-0.00145
0.40286,0.05867,-0.91338,-0.00124,-0.00563,-0.00492
0.40313,0.05851,-0.91327,0.00599,-0.00514,-0.0041
0.40373,0.05831,-0.91302,0.01008,-0.00233,-0.00355
0.40435,0.05837,-0.91274,0.01026,0.00358,-0.00128
0.40474,0.05842,-0.91256,0.00606,0.00275,0.0002
0.40521,0.05853,-0.91235,0.0052,0.0044,0.00164
0.40557,0.05864,-0.91218,0.00657,-0.00041,-0.00359
0.40574,0.05859,-0.91211,0.00548,0.00037,-0.00397
0.40591,0.05855,-0.91204,0.0069,-8e-05,-0.00805
0.40603,0.05856,-0.91198,0.00169,0.00186,-0.00253
0.40596,0.05855,-0.91201,-0.00266,0.00217,-0.00261
0.40599,0.05844,-0.91201,0.00343,-0.0008,-0.00161
0.40564,0.05836,-0.91217,-0.00335,0.00057,-0.00718
0.40538,0.05827,-0.91229,-0.00122,-0.00159,-0.00794
0.40505,0.05796,-0.91245,0.00144,-0.00248,-0.00309
0.40483,0.05776,-0.91256,0.00117,1e-05,-0.00228
0.40475,0.05751,-0.91262,0.00155,0.00046,-0.00248
0.40474,0.05737,-0.91263,0.00348,0.00012,-0.00154
0.40483,0.05732,-0.9126,0.00315,-0.00198,-0.00275
0.40483,0.05723,-0.9126,-0.00296,-0.00188,-0.00229
0.40466,0.05697,-0.91269,-0.00047,-0.00626,-0.00244
0.40454,0.05684,-0.91275,0.00171,-0.00482,-0.00267
0.4045,0.05669,-0.91278,0.0034,-0.00359,-0.00401
0.40442,0.05668,-0.91281,0.00065,-0.00145,-0.00416
0.4042,0.05679,-0.9129,-0.00216,0.00276,-0.00293
0.40403,0.05683,-0.91298,-0.00046,0.00104,-0.00096
0.40376,0.05688,-0.9131,-0.002,0.00113,-0.00069
0.40356,0.05696,-0.91318,-0.00242,0.00198,-0.00517
0.40347,0.05701,-0.91322,-0.00302,0.0025,-0.0048
0.40343,0.057,-0.91323,-9e-05,0.00049,-0.00245
0.40344,0.05684,-0.91324,-0.00024,-0.0027,-0.00204
0.40352,0.05673,-0.91321,0.00134,-0.00295,-0.00215
0.40359,0.05666,-0.91319,0.00103,-0.00228,-0.00332
0.40372,0.05655,-0.91313,0.00105,-0.00251,-0.00078
0.40383,0.0565,-0.91309,0.00178,-0.00319,-0.00296
0.40392,0.05652,-0.91304,0.00193,0.00059,-0.00262
0.40403,0.05661,-0.91299,0.00176,0.00036,-0.00171
0.40415,0.05666,-0.91294,0.00293,0.00108,-0.00306
0.40427,0.05671,-0.91288,0.00272,-0.00178,-0.00109
0.40422,0.05676,-0.9129,0.0008,0.00136,-0.00617
0.40419,0.05682,-0.91291,0.00214,0.00107,-0.00358
0.40413,0.05688,-0.91293,-0.00104,0.002,-0.00414
0.40409,0.0569,-0.91295,-0.00105,0.00027,-0.00449
0.40402,0.05691,-0.91298,-0.00193,-0.00042,-0.00229
0.40393,0.05696,-0.91301,-0.0015,0.00165,-0.00532
0.40388,0.05696,-0.91304,-0.00142,0.00173,-0.00235
0.40393,0.05691,-0.91302,0.00141,0.00011,-0.00257
0.40398,0.05686,-0.913,0.00049,-0.00025,-0.002
0.4041,0.05668,-0.91295,0.00097,-0.00152,-0.00355
0.40418,0.05657,-0.91293,0.00106,-0.00289,-0.0042
0.40427,0.05644,-0.9129,0.00108,-0.0028,-0.00309
0.40435,0.0563,-0.91287,0.00053,-0.00224,-0.00212
0.40442,0.05622,-0.91285,0.00051,-0.00229,-0.00267
0.40439,0.05615,-0.91286,0.00114,-0.00205,-0.00698
0.40439,0.05629,-0.91285,-5e-05,0.0034,-0.00347
0.40442,0.05641,-0.91283,-0.0005,0.0054,-0.00239
0.40442,0.05648,-0.91283,-0.0008,0.00211,0.00134
0.40442,0.05645,-0.91283,0.00085,-0.00246,-0.00409
0.40448,0.05645,-0.9128,0.00058,0.00048,-0.0042
0.40453,0.0563,-0.91279,0.00311,-0.00386,-0.00623
0.40467,0.05628,-0.91273,0.00401,-0.00288,-0.00645
0.40482,0.05632,-0.91266,0.00474,-0.00254,-0.00461
0.40498,0.05638,-0.91258,0.0059,0.00197,-0.00435
0.40514,0.05652,-0.91251,0.00201,0.00072,-0.00307
0.40525,0.05672,-0.91245,0.00171,0.00429,-0.0023
0.40524,0.05693,-0.91243,-0.00208,0.00071,-0.00105
0.40514,0.05701,-0.91248,-0.00142,0.00048,-0.00119
0.40508,0.05702,-0.9125,-0.00049,0.00039,-0.00605
0.40502,0.05699,-0.91253,-0.00269,-0.00128,-0.00521
0.405,0.05701,-0.91254,-0.00317,0.00119,-0.00334
0.405,0.057,-0.91254,-0.00122,-0.00068,-0.00453
0.40484,0.05692,-0.91261,-0.00173,-0.00185,-0.00339
0.40479,0.05685,-0.91264,-0.00211,-0.00064,-0.00334
0.40488,0.05685,-0.9126,-0.00087,0.00077,-0.00212
0.40495,0.05682,-0.91257,-0.00075,-0.00175,-0.00375
0.4051,0.0567,-0.91251,0.00238,-0.0025,-0.00282
0.4052,0.0566,-0.91247,0.003,-0.00484,-0.00665
0.4054,0.05651,-0.91239,0.00451,-0.00249,-0.00688
0.40555,0.05666,-0.91232,0.00183,0.00134,-0.0042
0.40567,0.05682,-0.91225,0.00061,0.00378,-0.00256
0.40578,0.05696,-0.91219,-0.00185,0.00196,0.0004
0.40584,0.05717,-0.91215,0.00111,0.00397,-0.00325
0.40587,0.05726,-0.91214,0.00227,0.00137,-0.00238
0.40592,0.05729,-0.91211,0.00303,0.00298,-0.00298
0.40599,0.0572,-0.91208,0.003,-0.00173,-0.00166
0.40601,0.05708,-0.91208,0.00056,-0.00434,-0.00271
0.40592,0.05702,-0.91213,0.0001,-0.00071,-0.00514
0.40584,0.05702,-0.91217,-0.00136,-0.00117,-0.00235
0.40574,0.05706,-0.9122,-0.00222,0.00042,-0.00192
0.40564,0.05711,-0.91225,-0.00279,-0.00137,-0.00404
0.40561,0.05723,-0.91225,-0.00134,0.00108,-0.00407
0.40555,0.05727,-0.91228,-0.00212,0.00373,-0.00475
0.40545,0.05728,-0.91232,-0.00154,-0.0006,-0.0026
0.40533,0.05734,-0.91237,-0.00246,0.00037,-0.00465
0.40538,0.05731,-0.91235,-0.00209,-0.00105,-0.00363
0.4054,0.05725,-0.91234,-0.00022,-0.00038,-0.00518
0.40548,0.0571,-0.91232,0.00116,-0.0012,-0.00296
0.40554,0.05704,-0.9123,0.00065,-0.00222,-0.00523
0.40561,0.05701,-0.91227,0.0011,-0.0011,-0.00314
0.40574,0.05702,-0.91221,0.00161,-0.00075,-0.00261
0.40582,0.05699,-0.91218,0.0024,-0.00207,-0.00241
0.40588,0.05699,-0.91215,0.00265,0.0006,-0.00367
0.40584,0.05698,-0.91217,-0.00036,-0.00109,-0.00287
0.40582,0.05697,-0.91218,-0.00097,0.00098,-0.00611
0.40582,0.05696,-0.91218,0.00108,-0.0008,-0.00195
0.40587,0.05696,-0.91215,0.00298,-9e-05,-0.00378
0.40594,0.05697,-0.91212,0.00324,8e-05,-0.00427
0.40598,0.05698,-0.9121,0.00028,-0.00063,-0.00347
0.40601,0.05709,-0.91209,-0.00084,0.00166,-0.00204
0.40599,0.05716,-0.91209,-0.00386,-0.00011,-0.00516
0.40577,0.05722,-0.91218,-0.00093,-0.00238,-0.00399
0.40571,0.0572,-0.91221,-0.00154,0.0002,-0.0026
0.40582,0.05722,-0.91216,-0.00021,0.00095,-0.00494
0.40587,0.05728,-0.91213,-0.00179,0.00038,-0.0026
0.4059,0.0573,-0.91212,-0.00148,0.00149,-0.00213
0.40592,0.05731,-0.91211,-0.00053,-0.00214,-0.00392
0.40589,0.05733,-0.91212,0.001,0.00233,-0.00368
0.40594,0.05734,-0.9121,0.00115,0.00272,-0.00341
0.40601,0.0573,-0.91207,0.00163,0.00178,-0.00504
0.40608,0.0572,-0.91205,0.00231,-0.00204,-0.00324
0.40622,0.05707,-0.91199,0.0053,-0.0031,-0.0048
0.4063,0.05709,-0.91196,0.00586,-0.00011,-0.00543
0.40631,0.05706,-0.91195,0.00014,-9e-05,-0.00287
0.40629,0.05704,-0.91196,0.0002,-0.00136,-0.00325
0.40627,0.05715,-0.91196,-0.0,0.0019,-0.00376
0.40615,0.05727,-0.91201,-0.00167,0.00125,-0.004
0.4059,0.05744,-0.91211,-0.00356,0.00312,-0.00523
0.40589,0.05743,-0.91212,-0.00355,0.00314,-0.00523
0.40578,0.05744,-0.91216,0.00109,0.00034,-0.00214
0.40568,0.05739,-0.91221,-0.00035,-0.00025,-0.00367
0.40567,0.05737,-0.91222,-0.00153,-0.00038,-0.00295
0.40572,0.05727,-0.9122,-0.00088,-0.002,-0.00377
0.40573,0.05723,-0.9122,0.00031,-0.00068,-0.00331
0.4058,0.05722,-0.91217,0.00024,-0.00067,-0.00334
0.40579,0.0572,-0.91217,0.00067,-0.00041,-0.00453
0.40579,0.05725,-0.91217,0.00092,0.00083,-0.00267
0.40588,0.05745,-0.91212,0.0022,0.0049,-0.00092
0.40598,0.05747,-0.91207,0.00288,0.00178,-0.00176
0.40616,0.05751,-0.91199,0.00223,-0.00013,-0.00163
0.40628,0.05748,-0.91194,0.00209,-0.00083,-0.00267
0.40636,0.05735,-0.91191,0.00156,-0.00309,-0.00516
0.40635,0.05711,-0.91193,0.00065,-0.00289,-0.00437
0.40627,0.057,-0.91197,-0.00244,-0.00432,-0.00381
0.40611,0.05686,-0.91205,-0.00073,-0.00237,-0.00485
0.40588,0.0567,-0.91217,0.00168,-0.00191,-0.00461
0.40576,0.05671,-0.91222,0.00103,-0.00061,-0.0063
0.40569,0.05674,-0.91225,0.00247,0.00027,-0.00581
0.4056,0.0569,-0.91228,-0.0008,0.00163,-0.00114
0.40559,0.05698,-0.91228,-0.00195,6e-05,-0.00378
0.40544,0.05713,-0.91234,-0.00303,0.00096,-0.00095
0.40537,0.05715,-0.91236,-0.00373,0.00062,-0.00452
0.4054,0.05717,-0.91235,0.00073,0.00043,-0.00501
0.4055,0.05724,-0.9123,0.00014,0.00088,-0.00455
0.40565,0.05722,-0.91224,-0.00159,-0.00093,-0.00276
0.40567,0.05714,-0.91223,-0.00253,-0.00151,-0.00187
0.40563,0.05708,-0.91225,0.00081,-0.00056,-0.00459
0.40557,0.057,-0.91229,0.00045,-0.00034,-0.00426
0.4056,0.05693,-0.91227,0.00071,-0.00189,-0.00408
0.40577,0.05688,-0.9122,0.00471,-0.00195,-0.00384
0.40585,0.05694,-0.91217,0.00559,-0.00202,-0.0048
0.40594,0.05701,-0.91212,0.00373,0.00032,-0.00185
0.40597,0.05712,-0.9121,0.00137,0.00288,-0.00034
0.40593,0.05721,-0.91211,0.00088,-0.0,-0.00387
0.40587,0.05727,-0.91213,-0.00264,0.00151,-0.0013
0.40569,0.05732,-0.91221,-0.00312,-0.00047,-0.00182
0.40558,0.05733,-0.91226,-0.00409,-0.0006,-0.00328
0.40532,0.05736,-0.91237,-0.00515,5e-05,-0.00486
0.40506,0.05733,-0.91249,-0.00524,-0.00056,-0.00546
0.40501,0.05737,-0.91251,-0.0054,0.00087,-0.00488
0.40499,0.05737,-0.91252,-0.00545,-0.00154,-0.00285
0.40485,0.05737,-0.91258,-0.00312,-0.00055,-0.00389
0.40493,0.05736,-0.91255,-0.0022,-0.0003,-0.00251
0.4051,0.05741,-0.91247,-0.00143,0.00157,-0.00358
0.40532,0.0574,-0.91237,0.00133,0.00022,-0.00465
0.40556,0.05741,-0.91226,0.00267,0.00075,-0.00476
0.40582,0.05745,-0.91214,0.00389,0.00262,-0.00439
0.40613,0.05743,-0.91201,0.00394,0.00127,-0.00245
0.40641,0.05747,-0.91188,0.00271,0.0026,-0.00081
0.40654,0.05745,-0.91182,0.00514,0.00277,-0.00097
0.40673,0.05734,-0.91175,0.0058,-0.00134,-0.00226
0.4068,0.05712,-0.91173,0.00313,-0.00315,-0.00278
0.4067,0.05699,-0.91178,0.00166,-0.00631,-0.00429
0.40653,0.0568,-0.91187,0.00344,-0.0049,-0.00522
0.40635,0.05669,-0.91196,-5e-05,-0.00228,-0.00255
0.40621,0.0568,-0.91201,-0.00069,-0.00045,-0.00321
0.40599,0.05698,-0.9121,-0.00281,0.00215,-0.00636
0.40563,0.05735,-0.91224,-0.00692,0.00387,-0.00448
0.40552,0.05754,-0.91227,-0.00706,0.00261,-0.00374
0.40525,0.05778,-0.91238,-0.00654,0.00173,-0.00249
0.40511,0.05781,-0.91244,-0.00022,-0.00153,-0.00376
0.40525,0.05785,-0.91238,-0.00072,-0.00203,-0.0057
0.40545,0.05795,-0.91228,-0.00125,0.00117,-0.00308
0.40567,0.05813,-0.91217,0.00173,0.00197,-0.00098
0.40591,0.05824,-0.91205,0.00125,0.00124,-0.00097
0.4061,0.05838,-0.91196,0.00324,0.00361,-0.00438
0.40625,0.05845,-0.91189,0.00218,0.00194,-0.003
0.4064,0.05846,-0.91182,0.00145,0.0038,-0.00273
0.40652,0.05847,-0.91177,-0.00083,0.00255,-0.00449
0.40658,0.05842,-0.91175,0.00037,-0.00064,-0.00644
0.40669,0.05837,-0.9117,0.00322,-0.00194,-0.00554
0.40674,0.05834,-0.91168,0.00062,-0.00049,-0.00619
0.40667,0.05833,-0.91171,-0.00144,0.0001,-0.00392
0.40662,0.05832,-0.91173,-0.00132,-0.00111,-0.00398
0.40647,0.05835,-0.9118,-0.00076,-0.00027,-0.005
0.40641,0.05842,-0.91182,-0.00225,0.00332,-0.00467
0.40637,0.0584,-0.91184,-0.00141,-0.00028,-0.00239
0.40638,0.05833,-0.91184,0.00024,-0.00035,-0.00503
0.4064,0.05829,-0.91184,-0.00041,-0.00087,-0.00386
0.40644,0.05821,-0.91182,0.00019,-0.0011,-0.00471
0.40651,0.05806,-0.9118,9e-05,-0.0019,-0.00483
0.40656,0.05796,-0.91178,-0.0013,-0.0021,-0.00335
0.40664,0.0579,-0.91175,0.00237,-0.00208,-0.00484
0.4067,0.05787,-0.91173,0.00286,-0.00026,-0.00221
0.40673,0.05784,-0.91172,0.00166,-0.00211,-0.0047
0.40679,0.05787,-0.91169,0.00271,0.0006,-0.00457
0.40687,0.05789,-0.91165,0.00209,0.00163,-0.00351
0.40696,0.05787,-0.91161,0.00211,-0.00052,-0.00311
0.40703,0.05786,-0.91158,0.0026,-0.00077,-0.00346
0.40711,0.05785,-0.91154,0.00232,-0.00154,-0.00328
0.407,0.05778,-0.9116,0.00079,-0.00193,-0.00544
0.40693,0.0578,-0.91163,-0.00082,6e-05,-0.00488
0.40694,0.05781,-0.91162,0.00228,0.00242,-0.00346
0.40692,0.05784,-0.91163,-0.0007,-9e-05,-0.00332
0.40695,0.05792,-0.91161,0.00038,0.00124,-0.00237
0.40685,0.05796,-0.91165,-0.00401,0.00019,-0.00502
0.40661,0.05799,-0.91176,-0.00436,-0.00226,-0.00458
0.4066,0.05799,-0.91176,-0.0033,-0.00206,-0.00111
0.40657,0.05795,-0.91178,-0.00103,-0.00108,-0.0057
0.40661,0.05801,-0.91176,0.00118,0.00164,-0.00505
0.40671,0.05801,-0.91171,0.00067,0.00093,-0.00426
0.40674,0.05799,-0.9117,-0.00056,0.00083,-0.00207
0.40667,0.05791,-0.91174,-0.00035,-0.00055,-0.00387
0.40672,0.05787,-0.91172,0.00098,-0.00051,-0.00572
0.40676,0.05776,-0.91171,0.00194,-0.00124,-0.00437
0.40688,0.05774,-0.91165,0.00332,-0.00132,-0.00334
0.40697,0.05767,-0.91162,0.00218,-0.00208,-0.00244
0.4071,0.05772,-0.91156,0.00294,0.00122,-0.0049
0.40723,0.0578,-0.91149,0.00295,0.00224,-0.00287
0.40725,0.05782,-0.91148,0.00169,0.0006,-0.00294
0.40721,0.05783,-0.9115,-0.00028,0.00027,-0.00439
0.40707,0.05783,-0.91157,-0.00237,0.00062,-0.00536
0.407,0.05782,-0.9116,-0.00125,-0.00043,-0.00301
0.40695,0.05781,-0.91162,-1e-05,0.00075,-0.00351
0.40681,0.05784,-0.91168,-0.00133,0.00118,-0.00285
0.40669,0.05783,-0.91174,-0.00169,-0.00035,-0.00425
0.4065,0.05776,-0.91182,-0.00247,-0.00128,-0.00337
0.40643,0.05775,-0.91185,-0.00097,0.00015,-0.00471
0.40639,0.05774,-0.91187,-0.00077,-0.00132,-0.0028
0.40629,0.05771,-0.91192,-0.00189,-0.00049,-0.00312
0.40629,0.0577,-0.91192,3e-05,-9e-05,-0.00533
0.40629,0.05774,-0.91192,-0.00108,0.00093,-0.00274
0.40627,0.05779,-0.91192,-0.00016,0.0008,-0.00426
0.40626,0.05778,-0.91193,-0.00188,-0.00071,-0.00426
0.40629,0.05777,-0.91192,-0.00101,-0.00052,-0.0044
0.4063,0.05775,-0.91191,0.00192,-0.00051,-0.00415
0.40629,0.05772,-0.91192,0.00149,-3e-05,-0.00338
0.40629,0.05767,-0.91192,0.00125,-0.00278,-0.00564
0.40628,0.05765,-0.91193,0.00048,0.00086,-0.00332
0.40627,0.05761,-0.91194,0.00198,-0.00077,-0.0053
0.40629,0.05767,-0.91192,0.00121,0.00081,-0.00333
0.40647,0.05777,-0.91184,0.001,0.00264,-0.00284
0.40658,0.05783,-0.91179,0.00229,0.00334,-0.00144
0.40663,0.05792,-0.91175,-0.00105,0.00263,-0.00408
0.40658,0.05797,-0.91178,-0.00462,-0.0002,-0.00322
0.40651,0.05792,-0.91181,-0.0003,-0.00087,-0.00341
0.40646,0.05785,-0.91183,0.00398,-0.00313,-0.00401
0.40641,0.05777,-0.91186,0.00067,-0.00052,-0.00479
0.4064,0.05779,-0.91187,-0.00094,0.00085,-0.00366
0.4063,0.05771,-0.91192,-0.0026,-0.00159,-0.00483
0.40617,0.05769,-0.91198,-0.00292,-0.0002,-0.00537
0.40601,0.05762,-0.91205,-0.00238,-0.00028,-0.00738
0.40603,0.0576,-0.91204,-0.00023,0.00154,-0.00539
0.40607,0.05757,-0.91203,-0.00078,6e-05,-0.00281
0.40607,0.05748,-0.91203,0.00123,-0.00121,-0.00327
0.40616,0.05746,-0.91199,-0.00107,2e-05,-0.00134
0.40621,0.05748,-0.91197,0.00062,0.00029,-0.00566
0.40626,0.05758,-0.91194,0.00209,0.00183,-0.00502
0.40634,0.05757,-0.9119,0.00137,-0.00032,-0.00286
0.40638,0.05753,-0.91189,-0.0001,-0.00208,-0.00383
0.4064,0.05761,-0.91188,0.00213,-0.00091,-0.00342
0.40642,0.05759,-0.91187,0.00489,-0.00153,-0.0027
0.40632,0.05761,-0.91191,0.005,0.00132,-0.00663
0.40629,0.0576,-0.91193,-0.00098,-0.00117,-0.00247
0.40626,0.05758,-0.91194,-0.0011,0.00122,-0.00147
0.40613,0.05751,-0.912,-0.00174,-0.00185,-0.00458
0.40595,0.05743,-0.91209,-0.00257,-0.00024,-0.00339
0.40592,0.05731,-0.91211,-0.00055,-0.00203,-0.0034
0.40586,0.05711,-0.91215,-6e-05,-0.0036,-0.00568
0.40576,0.05695,-0.91221,0.00298,-0.00096,-0.00402
0.40575,0.05693,-0.91221,0.00112,-0.00015,-0.00527
0.40584,0.05699,-0.91217,0.00434,0.00211,-0.00364
0.40585,0.05703,-0.91216,0.00293,0.00222,-0.00096
0.4059,0.05714,-0.91213,0.005,0.00426,-0.00241
0.40587,0.05721,-0.91214,0.0038,0.00416,-0.00392
0.40587,0.05731,-0.91213,0.00311,0.00287,-0.00185
0.40575,0.05726,-0.91219,0.00163,0.00139,-0.00517
0.40556,0.0572,-0.91228,-0.00079,0.00036,-0.00334
0.4054,0.05712,-0.91235,-0.0007,-0.00149,-0.00586
0.40513,0.05695,-0.91249,-0.00156,-0.00257,-0.00632
0.40485,0.0569,-0.91261,-0.00124,-0.00241,-0.0037
0.40471,0.05685,-0.91267,-0.00243,-0.00282,-0.00333
0.40463,0.05685,-0.91271,-0.00266,-0.00246,-0.00458
0.40442,0.0569,-0.9128,-0.00627,-0.00095,-0.00657
0.40415,0.05693,-0.91292,-0.00688,-0.00191,-0.00574
0.40409,0.05693,-0.91295,-0.00429,-0.00328,-0.00382
0.40408,0.05687,-0.91295,-0.00033,-0.00131,-0.00357
0.40424,0.05692,-0.91288,0.00153,0.0004,-0.00345
0.40451,0.05701,-0.91275,0.00185,0.00157,-0.00357
0.40477,0.05706,-0.91264,0.00153,0.00018,-0.00057
0.405,0.05712,-0.91253,0.00306,0.00065,-0.00204
0.40517,0.05712,-0.91246,0.00371,-0.00108,-0.00325
0.40537,0.0572,-0.91236,0.00415,0.00094,-0.00463
0.40553,0.05725,-0.91229,-0.00311,0.00107,-0.00203
0.40554,0.05726,-0.91228,-0.00312,0.00106,-0.00204
0.4056,0.05733,-0.91225,0.00367,0.0007,-0.00486
0.40555,0.05742,-0.91227,0.00169,0.00096,-0.00492
0.40547,0.05752,-0.9123,-0.00067,0.00233,-0.00245
0.40528,0.05764,-0.91237,-0.00202,0.00285,-0.00445
0.4051,0.05772,-0.91245,-0.00221,-0.00012,-0.00319
0.40491,0.05774,-0.91253,-0.00328,-0.00012,-0.00466
0.40476,0.05776,-0.9126,-0.00211,0.00034,-0.0054
0.40458,0.05778,-0.91268,-0.00272,-0.00029,-0.00258
0.40462,0.05783,-0.91265,0.00015,0.00159,-0.00385
0.40466,0.05785,-0.91264,-0.00062,-0.00031,-0.00346
0.40478,0.05794,-0.91258,0.00301,0.00133,-0.00417
0.40483,0.058,-0.91255,0.00233,0.00177,-0.00376
0.40485,0.058,-0.91254,0.00099,-0.00045,-0.00259
0.40482,0.05809,-0.91255,0.00089,0.00142,-0.0042
0.40481,0.05809,-0.91255,0.00162,-0.00018,-0.00178
0.40473,0.05813,-0.91259,-1e-05,0.0017,-0.00329
0.40464,0.05807,-0.91263,0.00034,-0.00088,-0.00278
0.40458,0.05809,-0.91265,0.00092,0.00124,-0.00315
0.40444,0.05815,-0.91271,-0.00147,0.00168,-0.00423
0.40438,0.05814,-0.91274,-0.00224,0.00126,-0.0033
0.40431,0.05816,-0.91277,-0.00046,0.00028,-0.00442
0.40426,0.0581,-0.9128,0.00041,0.00078,-0.00577
0.40427,0.058,-0.9128,0.00155,-0.00166,-0.00221
0.40426,0.05788,-0.91281,0.0011,-0.00237,-0.00408
0.40432,0.05776,-0.91279,0.00166,-0.00176,-0.00502
0.40436,0.05768,-0.91278,0.00136,-0.00197,-0.00487
0.40442,0.05764,-0.91275,0.00119,-0.00112,-0.00555
0.40447,0.05763,-0.91273,-8e-05,0.00028,-0.00507
0.40447,0.05766,-0.91273,-0.00214,0.0016,-0.00435
0.40435,0.05763,-0.91279,-0.0035,-0.00164,-0.00415
0.40427,0.05755,-0.91283,-0.00261,-0.00198,-0.00517
0.40425,0.05753,-0.91284,0.00059,-0.00072,-0.0037
0.40433,0.05754,-0.9128,-0.00173,0.00173,-0.00366
0.40448,0.05761,-0.91273,0.00018,0.00193,-0.00165
0.40462,0.05758,-0.91267,0.00053,0.00101,-0.00035
0.40473,0.05757,-0.91262,0.00326,0.00179,-0.00515
0.4049,0.05748,-0.91255,0.00106,-0.00096,-0.00424
0.40503,0.05745,-0.9125,0.00294,0.00046,-0.00221
0.40512,0.05739,-0.91246,0.00199,0.00077,-0.00317
0.40512,0.05731,-0.91246,0.00134,-0.00072,-0.00666
0.40516,0.05726,-0.91245,0.00344,4e-05,-0.00547
0.4052,0.05734,-0.91243,0.00311,0.00351,-0.00464
0.40518,0.05733,-0.91244,-0.00019,0.00059,-0.00522
0.40508,0.05732,-0.91248,-0.001,4e-05,-0.00106
0.4051,0.05735,-0.91247,-0.00102,1e-05,-0.00107
0.40499,0.05738,-0.91252,-0.00335,0.00025,-0.00347
0.40488,0.05737,-0.91257,-0.00199,0.00098,-0.00496
0.4049,0.05735,-0.91256,-0.002,0.001,-0.00496
0.40487,0.05729,-0.91258,-3e-05,-0.00106,-0.00299
0.40484,0.05721,-0.9126,0.00045,0.00064,-0.00293
0.40492,0.05723,-0.91256,0.00184,0.00164,-0.00229
0.40493,0.05722,-0.91255,0.00235,0.00026,-0.00248
0.40499,0.05715,-0.91253,0.00367,0.0008,-0.0055
0.40503,0.05718,-0.91251,0.00304,0.00166,-0.00242
0.40499,0.05711,-0.91254,0.00122,-0.00167,-0.00435
0.40495,0.05714,-0.91255,0.00156,-0.00051,-0.00351
0.40493,0.05719,-0.91256,0.00044,0.0024,-0.00269
0.4049,0.05718,-0.91257,0.00134,0.00056,-0.00175
0.40481,0.0572,-0.91261,-0.00041,0.00092,-0.00208
0.40479,0.05721,-0.91262,0.00106,0.00035,-0.00312
0.40468,0.05714,-0.91267,-0.00118,-0.00079,-0.00406
0.40459,0.05709,-0.91272,3e-05,-0.00068,-0.00243
0.40454,0.05707,-0.91274,-0.00215,6e-05,-0.00445
0.40436,0.057,-0.91282,-0.00388,-0.00118,-0.00468
0.4042,0.05691,-0.9129,-0.00102,-0.00098,-0.00322
0.4042,0.05688,-0.9129,-0.00124,-0.00042,-0.0051
0.40425,0.05689,-0.91288,0.00279,-5e-05,-0.00425
0.4044,0.05689,-0.91281,0.00119,-0.00238,-0.00085
0.40466,0.05681,-0.9127,0.00556,-0.00355,-0.00374
0.40486,0.05693,-0.9126,0.0034,0.00102,-0.00685
0.40489,0.05713,-0.91258,-0.00148,0.00108,-0.00487
0.40479,0.05719,-0.91262,-0.00169,-0.00211,-0.00083
0.40473,0.05716,-0.91265,0.0015,-0.00321,-0.00657
0.40474,0.05729,-0.91263,-5e-05,0.00158,-0.00819
0.40469,0.05743,-0.91265,-0.00216,0.00154,-0.00408
0.40447,0.05748,-0.91274,-0.00397,-0.00032,-0.00042
0.40435,0.05752,-0.9128,-0.00467,-0.00065,0.00081
0.40419,0.0576,-0.91286,-0.00134,0.00288,-0.00589
0.40408,0.05768,-0.9129,-0.00062,0.00284,-0.00659
0.40403,0.05766,-0.91292,-0.00262,0.00292,-0.00333
0.40396,0.05769,-0.91296,-0.00101,0.00236,-0.00191
0.40397,0.05772,-0.91295,0.00252,0.00216,0.00011
0.40407,0.05762,-0.91291,0.0052,0.00055,-0.00332
0.40432,0.05745,-0.91281,0.00779,-0.00256,-0.00676
0.40458,0.05729,-0.91271,0.00788,-0.00558,-0.00639
0.40476,0.0573,-0.91263,0.0043,-0.0047,-0.00546
0.40484,0.05735,-0.91259,0.00156,-0.00222,-0.00221
0.40475,0.05742,-0.91262,-0.00372,-0.00042,-0.00213
0.40459,0.05762,-0.91268,-0.00391,0.00224,-0.00379
0.40426,0.05789,-0.91281,-0.00515,0.00629,-0.00514
0.40387,0.05819,-0.91296,-0.00928,0.00662,-0.00189
0.40339,0.05838,-0.91316,-0.0107,0.00308,0.00127
0.40336,0.05826,-0.91318,-0.00804,-0.00087,0.0003
0.40333,0.05805,-0.91321,-0.00112,-0.00293,-0.00412
0.40339,0.05763,-0.91321,0.00298,-0.00784,-0.00596
0.40351,0.05741,-0.91317,-0.00258,-0.00122,-0.00643
0.40397,0.05724,-0.91298,0.0075,-0.0022,-0.00366
0.40435,0.05725,-0.91281,0.00251,0.00049,-0.00057
0.40476,0.0573,-0.91263,0.00589,0.00244,-0.00081
0.40514,0.05744,-0.91245,0.00796,0.00417,-0.00558
0.40539,0.05761,-0.91233,0.00612,0.00303,-0.00352
0.40547,0.05772,-0.91228,0.0004,0.00767,-0.00186
0.40543,0.0577,-0.9123,-0.0013,0.0022,0.00117
0.40531,0.05748,-0.91237,0.00137,-0.00259,-0.00796
0.40518,0.05734,-0.91244,0.00133,-0.004,-0.00675
0.40499,0.05719,-0.91253,0.00175,-0.00284,-0.00821
0.40479,0.05698,-0.91263,0.0003,-0.0031,-0.00155
0.40467,0.05702,-0.91268,-0.00166,-0.00083,-0.0023
0.4045,0.05715,-0.91275,-0.00347,0.00183,-0.00308
0.4042,0.05745,-0.91286,-0.00517,0.00209,-0.00645
0.40407,0.05751,-0.91292,-0.00804,0.00255,-0.00363
0.40378,0.05753,-0.91305,-0.00489,-0.00054,-0.00274
0.40371,0.05743,-0.91309,-0.0056,-0.00145,-0.0044
0.40376,0.05733,-0.91307,-0.00197,-0.00094,-0.00513
0.40383,0.0573,-0.91304,0.00042,0.0012,-0.00489
0.40401,0.05727,-0.91296,0.0004,7e-05,-0.00301
0.40408,0.05727,-0.91293,0.00132,-0.00015,-0.00035
0.40421,0.05722,-0.91287,0.0044,-0.0012,-0.00269
0.40436,0.05721,-0.91281,0.00615,2e-05,-0.00274
0.40448,0.05721,-0.91275,0.00514,-0.00097,-0.00308
0.4047,0.05728,-0.91265,0.00021,0.00169,-0.00118
0.40472,0.05735,-0.91264,7e-05,0.00058,-0.00165
0.40475,0.05739,-0.91263,0.00501,-0.00036,-0.00524
0.40487,0.05755,-0.91256,0.00518,0.00175,-0.00509
0.40492,0.05777,-0.91253,0.00045,0.00542,-0.00222
0.40488,0.05799,-0.91253,-0.00315,0.00451,-0.00089
0.40478,0.05816,-0.91256,-0.00342,0.00254,0.00213
0.40474,0.05813,-0.91258,0.00104,0.00014,-0.00308
0.40473,0.05787,-0.9126,0.00576,-0.0049,-0.00578
0.40477,0.05756,-0.9126,0.00566,-0.00675,-0.00494
0.40476,0.05752,-0.91261,0.00263,-0.00439,-0.0052
0.40459,0.0576,-0.91268,-0.00362,0.00034,-0.00021
0.40438,0.0577,-0.91277,-0.00518,0.00109,-0.00291
0.40422,0.05771,-0.91284,-0.00473,0.00053,-0.00481
0.40406,0.05775,-0.91291,-0.00061,-4e-05,-0.00741
0.40397,0.05786,-0.91294,-0.00083,0.00255,-0.00663
0.40378,0.05808,-0.91301,-0.00495,0.00334,0.00104
0.40383,0.05813,-0.91298,-0.00335,0.0036,0.00017
0.40384,0.05828,-0.91297,-0.00543,0.00403,-0.00025
0.40518,0.05807,-0.91239,0.0369,-0.00341,0.00094
0.40529,0.05793,-0.91235,0.01307,-0.00089,-0.00048
0.4048,0.05768,-0.91258,-0.01149,-0.003,-0.01095
0.40412,0.05736,-0.91291,-0.01055,-0.00478,-0.00662
0.40385,0.05754,-0.91302,-0.01148,-0.00177,-0.00378
0.4042,0.05763,-0.91285,0.00888,0.00361,-0.00344
0.40482,0.05815,-0.91255,0.00868,0.00764,0.00909
0.40508,0.05835,-0.91242,0.00996,0.00758,0.00775
0.4054,0.05859,-0.91226,0.00753,0.00709,7e-05
0.40531,0.05857,-0.9123,-0.00037,0.00038,-0.00225
0.4052,0.05836,-0.91236,-0.00087,-0.00292,-0.00466
0.40494,0.05801,-0.9125,-0.00352,-0.00638,-0.00794
0.40457,0.05779,-0.91268,-0.00557,-0.0026,-0.00935
0.40451,0.05782,-0.9127,-0.00621,-0.00147,-0.00827
0.40427,0.05782,-0.91281,-0.00521,-0.00417,-0.00304
0.40406,0.05788,-0.9129,-0.00159,-0.00176,-0.00316
0.40406,0.05796,-0.91289,0.00219,-0.00081,-0.00176
0.40423,0.058,-0.91282,0.00027,0.00269,-0.00173
0.4043,0.05802,-0.91278,0.00057,0.00158,-0.00139
0.40429,0.05799,-0.91279,-0.00318,0.00053,-0.00246
0.40421,0.05793,-0.91283,-0.00088,-0.00091,-0.00403
0.40414,0.05789,-0.91286,-0.00063,-0.00061,-0.00534
0.40419,0.05785,-0.91284,0.00094,0.00027,-0.00471
0.40418,0.05784,-0.91285,-0.00026,-0.00011,-0.00137
0.40419,0.05778,-0.91285,-0.00024,-0.00204,-0.00263
0.40425,0.05774,-0.91283,0.00135,-0.00195,-0.00212
0.40427,0.05785,-0.91281,0.00056,0.00122,-0.00421
0.40429,0.05789,-0.9128,-0.00065,0.00156,-0.0031
0.4043,0.05783,-0.9128,-0.00088,-0.00258,-0.00166
0.40422,0.05783,-0.91283,-0.00256,-3e-05,-0.00159
0.40418,0.05775,-0.91286,-0.00105,-0.00179,-0.00263
0.40428,0.05771,-0.91281,0.00129,0.00011,-0.00598
0.40445,0.05778,-0.91273,0.00346,0.00255,-0.00316
0.40465,0.05784,-0.91264,0.00337,0.00213,-0.00408
0.40486,0.05783,-0.91255,0.00704,0.00137,-0.00173
0.4052,0.0578,-0.9124,0.00958,-0.00227,-0.00122
0.40514,0.05778,-0.91243,-0.00194,6e-05,0.00047
0.40503,0.05783,-0.91248,0.00344,-0.00087,-0.00459
0.40518,0.05778,-0.91241,0.00758,0.00057,-0.00396
0.40511,0.05778,-0.91244,0.00024,-0.00029,-0.00191
0.4049,0.05774,-0.91254,-0.0022,-0.00048,-0.004
0.40454,0.05777,-0.9127,-0.00265,0.00088,-0.00628
0.40434,0.05781,-0.91278,-0.00817,0.00275,-0.00626
0.40413,0.05786,-0.91287,-0.00473,0.00164,-0.00472
0.40389,0.05784,-0.91298,-0.00788,0.00091,-0.00057
0.40377,0.05777,-0.91304,-0.00245,-0.00122,-0.00486
0.40368,0.05773,-0.91308,-0.00193,1e-05,-0.00576
0.40366,0.05769,-0.91309,-0.00174,0.00072,-0.00442
0.40386,0.05774,-0.913,0.00274,0.0038,-0.00401
0.40416,0.0578,-0.91286,0.00206,0.00374,-0.00119
0.40444,0.05782,-0.91274,0.0012,0.00166,-0.00107
0.40476,0.05769,-0.9126,0.00744,-0.00231,-0.00549
0.40515,0.05754,-0.91244,0.01185,-0.00477,-0.0061
0.40552,0.05734,-0.91229,0.01281,-0.00476,-0.00358
0.40589,0.05727,-0.91213,0.00711,-0.00203,-0.00201
0.40595,0.05743,-0.91209,0.00642,0.00058,0.00067
0.40597,0.05771,-0.91206,0.00211,0.00205,-0.00224
0.4056,0.05802,-0.91221,-0.00379,0.00254,-0.00175
0.40527,0.05812,-0.91235,-0.0025,0.00178,-0.00298
0.40478,0.0581,-0.91257,-0.0057,-0.00036,-0.00458
0.40459,0.05822,-0.91264,-0.00455,-0.0006,-0.00554
0.40454,0.05831,-0.91266,-0.0039,-0.00027,-0.00546
0.40433,0.0584,-0.91275,-0.00626,0.00178,-0.0008
0.40426,0.05846,-0.91277,-0.00547,0.00215,-0.00167
0.40419,0.05852,-0.9128,-0.00241,0.0015,-0.00324
0.40414,0.05852,-0.91282,-0.00047,-0.00095,-0.00272
0.4042,0.05853,-0.9128,0.00057,0.00073,-0.00472
0.40425,0.05849,-0.91278,-0.00094,-0.00394,-0.00364
0.4042,0.05835,-0.91281,0.00155,-0.00231,-0.00746
0.40417,0.05837,-0.91282,6e-05,0.0025,-0.0039
0.40416,0.05842,-0.91282,0.00031,0.00303,-0.00516
0.40415,0.05855,-0.91282,0.0007,0.00281,-0.00228
0.40416,0.05863,-0.91281,0.00024,0.00326,-0.00116
0.40411,0.05874,-0.91282,-0.00011,0.00417,-0.00146
0.40405,0.05873,-0.91285,-0.00039,0.00163,-0.00245
0.40399,0.05861,-0.91289,-0.00146,-0.00166,-0.00255
0.404,0.05855,-0.91288,0.00422,-0.00046,-0.00574
0.40401,0.05839,-0.91289,0.00235,-0.00405,-0.00529
0.40401,0.0582,-0.9129,0.00424,-0.0085,-0.00684
0.40408,0.05802,-0.91288,0.00554,-0.00572,-0.00614
0.40413,0.0581,-0.91285,0.00207,-0.00115,-0.00586
0.4041,0.0583,-0.91285,-0.00162,0.00625,-0.00252
0.40388,0.05875,-0.91292,-0.00695,0.01101,-0.00118
0.40368,0.05921,-0.91298,-0.00715,0.0113,0.00229
0.40356,0.05928,-0.91303,0.00052,-0.0016,-0.00291
0.40359,0.05903,-0.91303,0.00465,-0.00429,-0.00333
0.40368,0.05859,-0.91302,0.00617,-0.00686,-0.00655
0.4038,0.05819,-0.91299,0.00616,-0.00733,-0.00304
0.40385,0.05782,-0.91299,0.00214,-0.00797,-0.00238
0.40379,0.05771,-0.91303,-0.00086,-0.00223,-0.00691
0.40361,0.05786,-0.9131,-0.00145,0.00299,-0.00673
0.4035,0.05811,-0.91313,-0.00109,0.00401,-0.00525
0.40349,0.05837,-0.91312,-0.00071,0.00528,-0.00085
0.40362,0.05859,-0.91305,0.00183,0.00334,-0.00028
0.40369,0.05861,-0.91301,0.00146,0.00109,-0.00209
0.40376,0.05858,-0.91299,0.0009,-0.00037,-0.00219
0.40375,0.05844,-0.913,-0.0005,-0.00183,-0.00587
0.40376,0.05839,-0.913,0.00108,-0.00324,-0.00492
0.40376,0.05835,-0.913,0.00037,-0.00082,-0.00451
0.40384,0.05844,-0.91296,0.00116,0.00273,-0.0014
0.40389,0.05847,-0.91294,-0.00118,0.00296,-0.00113
0.40391,0.0585,-0.91292,0.00092,0.00299,-0.00135
0.40393,0.05835,-0.91292,0.00287,-0.00417,-0.00343
0.40392,0.05825,-0.91294,0.00275,-0.00265,-0.00595
0.40396,0.0581,-0.91293,0.0,-0.00078,-0.00176
0.40405,0.05816,-0.91289,0.00093,0.00039,-0.00154
0.40413,0.05824,-0.91285,-0.00015,0.00057,-0.00204
0.40413,0.05821,-0.91285,0.00135,0.00014,-0.00333
0.4041,0.05838,-0.91285,0.00073,0.00311,-0.00364
0.40408,0.05844,-0.91286,-0.00126,0.00053,-0.004
0.404,0.05849,-0.91289,-0.00178,0.00014,-0.00255
0.40393,0.05849,-0.91292,-0.00442,-0.00089,-0.0025
0.40381,0.05852,-0.91297,-0.00245,0.00033,-0.00452
0.40378,0.05847,-0.91299,0.00021,-0.00125,-0.00361
0.4038,0.05849,-0.91298,-0.00063,0.00073,-0.00397
0.40374,0.05855,-0.913,-0.00037,0.00221,-0.00402
0.40362,0.05855,-0.91305,-0.00058,0.00029,-0.00422
0.40361,0.05854,-0.91306,0.00012,0.00158,-0.00409
0.40358,0.05864,-0.91306,-0.00168,0.00247,-0.00135
0.40365,0.05867,-0.91303,0.00173,0.00279,-0.005
0.40378,0.05862,-0.91298,0.0023,-0.00128,-0.0029
0.40388,0.05849,-0.91294,0.00152,-0.00392,-0.00639
0.40406,0.05842,-0.91287,0.00251,-0.00117,-0.0013
0.40417,0.0584,-0.91282,0.00112,-0.00098,-0.00127
0.40429,0.05833,-0.91277,0.00264,-0.00164,-0.00046
0.40442,0.05831,-0.91271,0.00336,-0.00251,-0.00164
0.40452,0.05831,-0.91267,0.00495,-0.00084,-0.00428
0.40456,0.05839,-0.91265,0.00366,0.0008,-0.00245
0.40456,0.05846,-0.91264,0.00069,0.00019,-0.0034
0.40443,0.05869,-0.91268,-0.00394,0.00151,-0.00045
0.40436,0.05879,-0.91271,-0.0062,0.00319,-0.00082
0.40422,0.05881,-0.91277,-0.00324,0.00078,-0.00227
0.40412,0.05876,-0.91282,0.00077,0.00049,-0.00384
0.40403,0.05867,-0.91286,0.00107,-0.0007,-0.00557
0.40408,0.05858,-0.91284,0.00209,-0.00122,-0.00213
0.40424,0.05846,-0.91278,0.00413,-0.00394,-0.00252
0.40434,0.05853,-0.91273,0.003,0.00321,-0.00275
0.40437,0.0587,-0.91271,-0.00058,0.00467,-0.00337
0.40436,0.05875,-0.91271,-0.00192,0.00125,-0.00477
0.40432,0.0587,-0.91273,0.00093,-0.00257,-0.00564
0.4044,0.0586,-0.9127,0.00395,-0.00255,-0.00574
0.40476,0.05845,-0.91255,0.00852,-0.00541,-0.00389
0.40514,0.05845,-0.91238,0.0086,-0.00653,-0.00275
0.40534,0.0585,-0.91229,0.00045,-0.00175,-0.00195
0.40517,0.05874,-0.91235,-0.00504,0.00376,-0.0009
0.40513,0.05882,-0.91237,-0.00371,0.00096,-0.00266
0.40506,0.05895,-0.91239,-0.00284,0.00146,-0.0038
0.40513,0.05918,-0.91234,0.00094,0.00474,-0.00415
0.40527,0.0592,-0.91228,0.0009,0.00549,-0.00092
0.40536,0.05914,-0.91224,0.00324,-0.00109,-0.00098
0.40534,0.05899,-0.91226,0.0023,-0.00205,-0.00284
0.40538,0.05879,-0.91225,0.00519,-0.00359,-0.00574
0.40534,0.05854,-0.91229,0.00228,-0.00435,-0.0065
0.40531,0.0584,-0.91231,0.0008,-0.00448,-0.00419
0.40524,0.05832,-0.91235,-0.00028,-0.00153,-0.00341
0.40523,0.05836,-0.91235,-0.00168,-0.00057,-0.00537
0.40519,0.05845,-0.91236,-0.00031,0.00198,-0.00564
0.40508,0.05857,-0.9124,-0.00082,0.00277,-0.00146
0.40497,0.0587,-0.91244,-0.00052,0.00244,-0.00078
0.4049,0.05865,-0.91248,-0.00258,-0.00164,-0.00338
0.40476,0.05855,-0.91255,-0.0016,-0.0026,-0.0048
0.40472,0.05855,-0.91257,0.0012,0.00012,-0.00562
0.40473,0.05859,-0.91256,-0.00057,0.00042,-0.00421
0.40472,0.05864,-0.91256,-0.00027,0.00084,-0.00424
0.40472,0.05877,-0.91255,0.00173,0.003,-0.00273
0.4048,0.05882,-0.91251,0.00061,0.00116,-0.00412
0.40491,0.05888,-0.91246,0.00043,0.0027,-0.00165
0.40505,0.05888,-0.9124,0.00271,0.0014,-0.0026
0.40531,0.05894,-0.91228,0.00619,0.00237,-0.00317
0.40541,0.05894,-0.91223,0.00424,0.0006,-0.0032
0.40561,0.05893,-0.91214,0.00506,-0.00131,-0.00311
0.40583,0.05899,-0.91204,0.00572,0.00145,-0.0051
0.40599,0.05907,-0.91197,0.00502,-0.00019,-0.00356
0.40616,0.05915,-0.91188,0.00175,0.00039,-0.00355
0.40616,0.05925,-0.91188,-0.00104,5e-05,-0.00167
0.4061,0.05937,-0.9119,-0.00344,0.00324,-0.00377
0.40592,0.05953,-0.91197,-0.0038,0.00352,-0.00179
0.40579,0.05934,-0.91204,9e-05,-0.00473,-0.00506
0.40574,0.05926,-0.91207,0.00115,-0.00233,-0.00308
0.40568,0.0592,-0.9121,0.00093,-0.00151,-0.00792
0.40557,0.05926,-0.91214,-0.00458,0.00138,-0.00181
0.40536,0.05936,-0.91223,-0.00629,0.0007,-0.0011
0.40527,0.05945,-0.91226,-0.00181,0.00164,-0.00184
0.40542,0.05962,-0.91218,0.00423,0.00202,-0.00553
0.40566,0.05967,-0.91207,0.00469,0.00155,-0.00493
0.4059,0.05974,-0.91196,-0.00097,0.00114,-0.00233
0.4062,0.05977,-0.91183,0.00446,-0.00052,-0.00035
0.40645,0.05985,-0.91171,0.00497,0.00038,-0.00283
0.40681,0.05992,-0.91154,0.00705,-0.0014,-0.00589
0.40726,0.05997,-0.91134,0.00609,-0.00185,-0.00367
0.40744,0.06008,-0.91125,0.00418,0.00082,-0.00249
0.40759,0.06016,-0.91118,0.00227,0.00063,0.00224
0.4076,0.06024,-0.91117,-0.00025,0.00191,0.00093
0.40745,0.06027,-0.91124,-0.00128,0.00223,-0.00515
0.40724,0.06032,-0.91133,-0.00215,0.00021,-0.00574
0.40714,0.06029,-0.91138,-0.00214,-6e-05,-0.00505
0.40705,0.06026,-0.91142,-0.0002,-0.00483,-0.00587
0.40679,0.06017,-0.91154,-0.00237,0.00017,-0.00162
0.40667,0.0601,-0.9116,-0.00337,0.00131,-0.00181
0.40659,0.06002,-0.91164,0.00058,-0.00244,-0.00419
0.40657,0.05992,-0.91165,0.00342,-0.00076,-0.00778
0.40655,0.05994,-0.91166,-0.0012,0.00057,-0.00449
0.40649,0.05984,-0.9117,-0.00162,-0.00105,-0.00292
0.40643,0.05976,-0.91172,-0.00108,-0.00221,-0.00408
0.40644,0.05987,-0.91171,-0.0006,0.00156,-0.00705
0.40652,0.05996,-0.91167,0.00127,7e-05,-0.00486
0.40675,0.05998,-0.91157,0.00322,-0.00239,-0.0048
0.40691,0.06007,-0.91149,-2e-05,-0.00143,-0.0041
0.40704,0.06018,-0.91143,-0.00032,-0.00022,-0.00174
0.40717,0.06023,-0.91136,0.00093,0.00068,-0.00082
0.40722,0.0603,-0.91134,0.00057,0.00249,-0.00115
0.4072,0.06041,-0.91134,-0.0,0.00331,-0.00397
0.40721,0.06046,-0.91133,0.00123,0.00043,-0.00291
0.40723,0.06047,-0.91132,0.00111,0.00114,-0.00346
0.40736,0.0605,-0.91126,0.00348,0.00204,-0.00382
0.4076,0.0606,-0.91115,0.00174,0.00037,-0.00354
0.40799,0.06065,-0.91097,0.0065,-0.00076,-0.00401
0.40825,0.06074,-0.91085,0.00449,-0.00358,-0.00637
0.40866,0.06094,-0.91065,0.00609,-0.00052,-0.01016
0.40903,0.06151,-0.91045,-0.00357,0.00485,-0.00516
0.4094,0.06197,-0.91025,-0.00953,0.00772,-0.0004
0.40927,0.06223,-0.91029,-0.01522,0.00747,0.0097
0.40893,0.06197,-0.91046,-0.0021,-0.00362,0.00343
0.40904,0.06168,-0.91043,0.00446,-0.00653,-0.00556
0.40932,0.06146,-0.91032,0.00825,-0.0095,-0.01482
0.40953,0.06118,-0.91024,0.00774,-0.00881,-0.00991
0.40957,0.0609,-0.91024,0.00338,-0.00502,0.00231
0.40955,0.06078,-0.91026,0.00113,0.00172,0.008
0.40955,0.06093,-0.91025,-0.00094,0.00401,0.00086
0.40964,0.06109,-0.9102,0.00264,0.00565,-0.00054
0.40958,0.06107,-0.91023,0.00434,0.0038,-0.00649
0.40965,0.06087,-0.91021,0.01045,-0.00244,-0.01115
0.40988,0.06104,-0.9101,0.01206,0.00069,-0.01279
0.4101,0.06147,-0.90997,0.00485,0.00473,-0.01176
0.40955,0.06189,-0.91019,-0.01187,0.00862,-0.00441
0.40888,0.06188,-0.91049,-0.01322,0.00753,-0.00353
0.40814,0.06171,-0.91083,-0.0105,0.00822,0.00504
0.40738,0.06157,-0.91118,-0.01375,0.0042,0.00623
0.40701,0.06122,-0.91137,-0.00614,-0.00087,0.00112
0.40708,0.06053,-0.91139,0.00642,-0.01812,-0.00202
0.40714,0.05948,-0.91143,0.01363,-0.02063,-0.00595
0.40668,0.05899,-0.91166,0.01385,-0.01486,-0.0051
0.40648,0.05855,-0.91178,0.01183,-0.00359,0.0001
0.40623,0.05863,-0.91189,0.01158,-0.00372,-0.00269
0.40616,0.05892,-0.9119,0.01019,0.00068,-0.00619
0.40621,0.05952,-0.91184,0.00564,0.01719,-0.02293
0.4062,0.06037,-0.91179,-0.00588,0.02343,-0.01959
0.40577,0.06038,-0.91198,-0.01314,0.01382,-0.00111
0.4043,0.0601,-0.91265,-0.01599,0.00991,-0.00202
0.40288,0.06007,-0.91328,-0.01928,0.01804,0.00431
0.40231,0.05976,-0.91355,-0.01567,0.01661,0.00803
0.40217,0.0591,-0.91365,0.00127,-0.02509,0.00843
0.40271,0.05785,-0.9135,0.00972,-0.03014,0.00621
0.40254,0.05672,-0.91364,0.02417,-0.02898,-0.00236
0.40151,0.05637,-0.91412,0.02659,-0.02002,0.00198
0.40038,0.05616,-0.91463,0.02506,-0.01763,-0.00171
0.39969,0.05611,-0.91493,0.01442,-0.00858,-0.01256
0.39888,0.05668,-0.91525,0.01052,0.00282,-0.01461
0.39825,0.05732,-0.91548,0.006,0.01252,-0.00957
0.39776,0.05783,-0.91566,-0.0065,0.01605,-0.00296
0.39751,0.05842,-0.91574,-0.0205,0.01733,0.00205
0.39751,0.05883,-0.91571,-0.00806,0.01042,-0.00278
0.39773,0.05892,-0.91561,-0.00828,0.01032,-0.00288
0.39794,0.05887,-0.91552,0.00683,-0.00311,-0.01017
0.39811,0.05834,-0.91548,0.00747,-0.01029,-0.00313
0.39807,0.05765,-0.91554,0.00234,-0.01345,0.00479
0.39757,0.0571,-0.91579,-0.00386,-0.00792,0.00542
0.39701,0.05685,-0.91605,-0.00286,-0.00167,0.0046
0.39658,0.0567,-0.91625,-0.00012,0.00181,-0.00196
0.39636,0.05653,-0.91635,0.00324,0.00055,-0.00758
0.39632,0.05651,-0.91637,0.00236,0.00067,-0.00895
0.39639,0.05652,-0.91634,-0.00038,0.00014,-0.00535
0.39649,0.05662,-0.91629,-0.00141,0.0017,-0.00358
0.3967,0.05668,-0.9162,0.00119,0.00158,-0.00273
0.39713,0.05665,-0.91601,0.00523,-0.00035,-0.00194
0.39755,0.05678,-0.91582,0.00835,0.00244,-0.00405
0.39805,0.05688,-0.9156,0.00973,0.00289,-0.00492
0.39851,0.05692,-0.9154,0.00667,-0.00054,-0.00131
0.39869,0.05705,-0.91531,0.00569,0.00243,-0.00116
0.39881,0.05709,-0.91525,0.00554,-0.00149,-0.00212
0.39884,0.05715,-0.91524,0.00433,-0.00092,-0.00262
0.39871,0.05721,-0.91529,-0.00141,0.00048,-0.00316
0.39854,0.05721,-0.91536,0.00222,-0.00388,-0.00454
0.39823,0.05719,-0.9155,-0.00131,-0.00243,-0.00308
0.39802,0.05731,-0.91558,-0.00134,-0.00195,-0.00307
0.39779,0.05745,-0.91568,-0.00089,0.00181,-0.00203
0.39768,0.05756,-0.91572,0.00079,0.00111,-0.00175
0.39756,0.05763,-0.91577,0.00013,-5e-05,-0.00277
0.3974,0.05769,-0.91583,-0.00048,0.00088,-0.00513
0.39724,0.05769,-0.9159,-0.00414,0.00077,-0.00536
0.397,0.05779,-0.916,-0.00434,0.00177,-0.00421
0.39683,0.05792,-0.91606,-0.00346,0.00093,-0.00345
0.39695,0.058,-0.91601,-0.00318,-0.00106,-0.00451
0.39706,0.05813,-0.91595,0.00206,0.00075,-0.00203
0.39738,0.0583,-0.9158,0.00371,0.00113,-0.00386
0.39778,0.05841,-0.91562,0.00494,-0.00042,-0.00153
0.39838,0.05842,-0.91536,0.00945,-0.00349,-0.00476
0.39894,0.05851,-0.91511,0.00664,-0.00257,-0.00425
0.39925,0.05869,-0.91496,0.0058,-0.00023,-0.00371
0.3994,0.05901,-0.91487,-0.00042,0.0051,-6e-05
0.39939,0.05924,-0.91486,0.00158,0.003,-0.00515
0.39933,0.05939,-0.91488,-0.00037,0.00163,-0.00324
0.39919,0.05952,-0.91494,-0.00056,0.00167,-0.00456
0.39907,0.05954,-0.91499,0.00073,0.00051,-0.00396
0.39874,0.05942,-0.91514,-0.00312,-0.0033,-0.00105
0.39845,0.05926,-0.91527,-0.00082,-0.00268,-0.00091
0.39812,0.05923,-0.91542,-0.00095,0.00109,-0.00157
0.39797,0.05919,-0.91549,0.00025,0.00086,-0.00323
0.39784,0.05921,-0.91554,0.00093,0.00161,-0.0088
0.39787,0.05922,-0.91553,0.00171,-0.00064,-0.00496
0.39801,0.05928,-0.91546,0.00108,0.00128,-0.00475
0.39833,0.05939,-0.91532,0.00391,-0.00015,-0.00685
0.39861,0.0596,-0.91518,0.00881,0.00598,-0.0074
0.39893,0.05994,-0.91502,0.00827,0.00506,-0.00595
0.3996,0.06049,-0.91469,-0.00204,0.00622,-0.00372
0.40016,0.06076,-0.91443,-0.01486,0.0042,0.00749
0.40032,0.06047,-0.91438,-0.01318,-0.00558,0.01173
0.4004,0.05983,-0.91439,-2e-05,-0.01336,0.00135
0.4005,0.05937,-0.91437,0.01402,-0.01034,-0.01008
0.40047,0.05902,-0.91441,0.01567,-0.00439,-0.00993
0.40025,0.05871,-0.91452,0.00876,-0.00183,0.00028
0.39975,0.05865,-0.91475,-0.00087,0.00344,0.00738
0.39906,0.05875,-0.91504,-0.00325,0.00517,0.00325
0.39832,0.059,-0.91535,-0.00068,0.01125,-0.00769
0.39766,0.05911,-0.91563,0.00016,0.0094,-0.00987
0.39727,0.05901,-0.9158,0.00187,0.00363,-0.00888
0.39719,0.0588,-0.91585,0.00025,-0.00116,-0.00332
0.39723,0.05873,-0.91584,-0.00458,-0.00352,-0.00447
0.39737,0.05875,-0.91578,-0.00408,-0.00276,-0.00583
0.39733,0.05886,-0.91579,0.00047,-0.00022,-0.00752
0.39744,0.05891,-0.91574,0.00321,0.0028,-0.00826
0.39765,0.05897,-0.91564,0.00363,0.00242,-0.00277
0.39792,0.05899,-0.91552,0.00427,-0.00099,-0.00225
0.39807,0.05898,-0.91546,0.00095,-0.00317,-5e-05
0.39821,0.05891,-0.9154,0.00169,-0.00317,-0.00434
0.39828,0.05879,-0.91538,0.00049,-0.00616,-0.00604
0.39832,0.05878,-0.91536,-0.00244,-0.00338,-0.004
0.39827,0.0587,-0.91539,-0.0025,-0.00166,-0.00269
0.3982,0.05875,-0.91542,-0.00171,0.00128,-0.0015
0.39821,0.05887,-0.9154,0.00142,0.00364,-0.00052
0.39825,0.05907,-0.91537,0.00376,0.00665,-0.00426
0.39839,0.05929,-0.9153,0.0048,0.00414,-0.00416
