gravity.x,gravity.y,gravity.z,userAcceleration.x,userAcceleration.y,userAcceleration.z
-0.46252,0.28515,0.8395,0.04556,0.00596,0.01659
-0.46254,0.28423,0.83979,0.02297,0.01198,0.0141
-0.46172,0.28391,0.84036,0.04828,0.02024,-0.00202
-0.46091,0.28485,0.84049,0.05133,0.03701,-0.00723
-0.45897,0.28578,0.84123,0.05372,0.05202,-0.01455
-0.45744,0.28644,0.84183,0.01108,-3e-05,-0.02491
-0.45678,0.28651,0.84217,-0.01861,-0.01034,-0.03189
-0.45639,0.28633,0.84245,-0.05391,-0.03269,-0.04321
-0.45588,0.28679,0.84257,-0.07003,-0.05905,-0.00226
-0.45681,0.28589,0.84237,-0.0735,-0.06123,-0.00025
-0.45997,0.28337,0.8415,-0.06768,-0.08328,0.00141
-0.46468,0.27957,0.84018,-0.06804,-0.078,0.03831
-0.46877,0.27463,0.83954,-0.0599,-0.01445,0.00946
-0.47519,0.26779,0.83814,-0.10423,0.03202,-0.08644
-0.48381,0.25977,0.83573,-0.10204,0.00096,-0.07384
-0.48829,0.25026,0.83602,-0.12972,0.0047,-0.08204
-0.49113,0.2412,0.83702,-0.07849,0.07067,-0.03228
-0.49272,0.23384,0.83817,-0.00927,0.03444,-0.01192
-0.49694,0.22784,0.83733,0.03837,-0.10879,0.01066
-0.50455,0.2213,0.83453,0.00748,-0.14048,0.06768
-0.51159,0.21399,0.83215,0.02646,-0.1243,0.07722
-0.51597,0.20765,0.83105,0.23752,-0.13155,-0.00917
-0.51653,0.20511,0.83133,0.21691,-0.08203,0.00587
-0.51751,0.20679,0.83031,0.14994,-0.08645,0.04866
-0.51822,0.21081,0.82885,0.10514,-0.11384,0.05485
-0.51627,0.21589,0.82876,0.05201,-0.13355,0.01937
-0.51292,0.22314,0.82892,-0.00764,-0.05328,0.00616
-0.50805,0.23079,0.82982,-0.12607,0.11422,0.05303
-0.5054,0.23644,0.82985,-0.13186,0.09786,0.08401
-0.50553,0.2408,0.82852,-0.11378,0.00062,0.03608
-0.50885,0.24567,0.82504,-0.02877,-0.06109,-0.0567
-0.51174,0.25318,0.82098,-0.01826,0.02861,-0.02846
-0.51199,0.26142,0.81824,-0.01581,0.06786,0.00583
-0.51225,0.26713,0.81623,-0.02105,0.0757,0.01649
-0.51345,0.27038,0.8144,0.01748,-0.01684,-0.00253
-0.51493,0.27377,0.81233,-0.01067,-0.09276,-0.01998
-0.51514,0.27782,0.81082,-0.065,-0.09957,-0.02975
-0.51221,0.28229,0.81113,-0.11906,-0.03278,0.00749
-0.50773,0.28549,0.81283,-0.06841,-0.02861,0.01341
-0.50244,0.28811,0.81519,-0.03259,-0.0328,0.00046
-0.49707,0.29059,0.81759,-0.02148,-0.03302,0.00057
-0.49106,0.29356,0.82017,-0.02146,-0.00401,0.02096
-0.48383,0.29701,0.82321,-0.01761,0.02407,0.03128
-0.47558,0.30047,0.82676,-0.01011,0.03726,0.02104
-0.46673,0.30359,0.83065,0.01358,0.04039,-0.00018
-0.45768,0.30645,0.83463,0.0427,0.03396,-0.03807
-0.44876,0.30956,0.83831,0.03761,0.05354,-0.01967
-0.43975,0.31312,0.84176,0.01777,0.0584,-0.00297
-0.42969,0.31615,0.84581,0.01342,0.06192,-0.00702
-0.41904,0.31832,0.85033,0.0405,0.04145,-0.03765
-0.4088,0.32019,0.8546,0.05785,-0.00082,-0.05047
-0.39941,0.32223,0.85827,0.04608,-0.0093,-0.03464
-0.39099,0.32464,0.86123,0.03158,-0.03411,-0.01133
-0.38275,0.32718,0.86397,0.0191,-0.0239,0.00394
-0.37519,0.32891,0.86662,0.0274,-0.03363,-0.0073
-0.36896,0.32979,0.86896,0.04903,-0.03908,-0.02277
-0.36524,0.33029,0.87034,0.0884,-0.07105,-0.02639
-0.36321,0.33116,0.87086,0.06983,-0.08275,-0.01487
-0.36218,0.33241,0.87081,0.03089,-0.082,0.00393
-0.36257,0.33395,0.87006,0.03241,-0.0846,0.00057
-0.36414,0.33481,0.86908,0.04688,-0.08517,-0.00299
-0.36641,0.33524,0.86796,0.03793,-0.08431,-0.00492
-0.36941,0.33561,0.86654,0.03538,-0.07471,0.00017
-0.37443,0.33541,0.86446,0.02737,-0.07522,0.00871
-0.38049,0.33475,0.86206,0.04899,-0.09658,-0.01419
-0.38769,0.33416,0.85908,0.03099,-0.09379,-0.01437
-0.39552,0.33358,0.85573,-0.01873,-0.08832,0.02008
-0.40382,0.33289,0.85212,-0.03863,-0.07644,0.02241
-0.41222,0.3318,0.84851,-0.03628,-0.05815,0.03131
-0.42087,0.32989,0.845,-0.01891,-0.04102,0.02508
-0.42997,0.32722,0.84145,-0.00142,-0.04086,-0.01415
-0.43961,0.32436,0.83757,-0.00566,-0.03722,-0.0327
-0.44955,0.32125,0.83348,-0.02445,-0.01967,-0.01277
-0.45968,0.31806,0.82917,-0.04549,-0.01682,0.01686
-0.46946,0.31513,0.82479,-0.06931,-0.01501,0.02456
-0.47881,0.31215,0.82055,-0.06567,-0.01729,0.02171
-0.48733,0.30917,0.81665,-0.05297,-0.03253,-0.0029
-0.49465,0.306,0.81343,-0.06449,-0.03143,-0.00867
-0.50145,0.30273,0.81049,-0.06743,-0.02229,0.00662
-0.50752,0.29931,0.80797,-0.06941,-0.0173,0.01487
-0.51305,0.29596,0.80572,-0.06308,-0.03206,0.00219
-0.5178,0.29268,0.80387,-0.04842,-0.032,-0.01261
-0.52207,0.28947,0.80227,-0.03718,-0.03163,-0.03189
-0.52563,0.28675,0.80093,-0.02636,-0.03166,-0.02453
-0.52785,0.28455,0.80025,-0.03806,-0.02134,-0.00314
-0.52967,0.28239,0.79981,-0.04616,-0.00825,0.00581
-0.53135,0.28016,0.79948,-0.02724,-0.01606,-0.00174
-0.53209,0.27787,0.79979,-0.01637,-0.02223,-0.01013
-0.53211,0.27566,0.80054,-0.00744,-0.02404,-0.00878
-0.53175,0.27327,0.8016,-0.00889,-0.02425,-0.00765
-0.53081,0.27071,0.80309,-0.01106,-0.01895,-0.00548
-0.52963,0.26806,0.80475,0.00369,-0.03044,-0.01652
-0.52746,0.26581,0.80692,0.02778,-0.02312,-0.01304
-0.52414,0.26382,0.80973,0.02981,-0.02154,0.00822
-0.52067,0.2615,0.81272,0.0178,-0.01582,0.00912
-0.51961,0.25861,0.81432,-0.02623,0.00031,0.04937
-0.52081,0.25461,0.81481,-0.00166,0.00777,0.05213
-0.52178,0.25033,0.81552,0.04159,-0.02724,0.00356
-0.52254,0.24715,0.816,0.02602,-0.04126,-0.00073
-0.52363,0.24529,0.81587,0.01413,-0.03284,0.01047
-0.52427,0.24415,0.81579,0.00325,-0.02854,0.02318
-0.5246,0.24286,0.81597,-0.00338,-0.03714,0.00892
-0.52546,0.24162,0.81579,-0.0029,-0.03683,0.0033
-0.52644,0.24027,0.81555,-0.00946,-0.0389,0.00296
-0.5279,0.23926,0.8149,-0.01115,-0.04239,0.00692
-0.5297,0.23832,0.81401,-0.00396,-0.04448,0.00765
-0.53149,0.23741,0.8131,0.00131,-0.02965,0.00208
-0.53303,0.23687,0.81226,0.00661,-0.02459,0.00035
-0.53421,0.23613,0.8117,0.00618,-0.02577,0.00234
-0.53521,0.23568,0.81117,0.00213,-0.02491,0.00583
-0.53612,0.23552,0.81061,-0.00112,-0.02617,0.00585
-0.53691,0.23534,0.81015,-0.00722,-0.02865,0.00097
-0.53763,0.23541,0.80964,-0.00941,-0.02739,-0.00213
-0.53812,0.23551,0.80929,-0.00911,-0.02601,-0.00578
-0.53837,0.23556,0.80911,-0.00996,-0.02856,-0.00597
-0.53852,0.23561,0.809,-0.00846,-0.02845,-0.00362
-0.5385,0.23582,0.80895,-0.01003,-0.02798,-0.00327
-0.53833,0.2359,0.80904,-0.01161,-0.02565,-0.00383
-0.53805,0.23601,0.80919,-0.00802,-0.02128,-0.0064
-0.5377,0.23603,0.80942,-0.00793,-0.02406,-0.00351
-0.53721,0.23612,0.80972,-0.00764,-0.02517,-0.00233
-0.53677,0.23601,0.81005,-0.00138,-0.02379,-0.00228
-0.53623,0.236,0.81041,-0.00253,-0.02784,0.00164
-0.53567,0.23598,0.81078,-8e-05,-0.02342,0.0017
-0.53513,0.23588,0.81116,0.00387,-0.02675,-0.00091
-0.53455,0.23578,0.81158,0.00362,-0.03069,0.00533
-0.53406,0.23576,0.81191,0.00155,-0.02755,0.00903
-0.53369,0.23579,0.81214,0.00202,-0.02437,0.00364
-0.53331,0.2358,0.81239,0.00089,-0.0255,0.00239
-0.53294,0.23573,0.81265,0.00311,-0.02241,0.00089
-0.53263,0.2356,0.81289,0.00747,-0.02021,0.00165
-0.53232,0.23534,0.81317,0.00524,-0.02299,-0.00267
-0.53212,0.23515,0.81335,0.00446,-0.02223,0.00164
-0.53205,0.23493,0.81346,0.00294,-0.02342,0.00035
-0.53198,0.23472,0.81358,0.00019,-0.02721,-0.00138
-0.53194,0.23466,0.81362,-0.00142,-0.02871,0.00316
-0.53193,0.23461,0.81364,-0.00422,-0.03065,0.00239
-0.53191,0.23449,0.81368,0.00147,-0.02775,-4e-05
-0.53199,0.23445,0.81365,0.00252,-0.02905,0.00087
-0.53206,0.23446,0.8136,-0.00348,-0.02512,0.00023
-0.53216,0.23439,0.81355,-0.00078,-0.02438,-0.00087
-0.53223,0.23444,0.81349,0.00014,-0.02581,-0.00232
-0.53226,0.23439,0.81348,-0.00053,-0.02599,-0.00124
-0.53229,0.23436,0.81348,-0.00037,-0.02675,0.00011
-0.53231,0.23433,0.81347,0.00308,-0.02823,0.001
-0.5323,0.23434,0.81347,0.00293,-0.02481,0.00063
-0.53231,0.23426,0.81349,-0.00054,-0.02582,0.00183
-0.53234,0.2343,0.81346,-0.0015,-0.02486,0.00188
-0.53239,0.23428,0.81343,-0.00275,-0.02518,0.00026
-0.5325,0.2343,0.81335,-0.00339,-0.02809,0.00047
-0.53265,0.23438,0.81324,-0.00355,-0.03008,0.00218
-0.53282,0.23462,0.81305,-0.00326,-0.02941,0.00254
-0.533,0.23475,0.8129,4e-05,-0.02703,0.00244
-0.53317,0.23492,0.81274,-0.00201,-0.02852,0.00015
-0.53328,0.23508,0.81262,-0.00188,-0.02809,0.00191
-0.53336,0.23497,0.8126,0.00312,-0.01843,-0.00162
-0.53337,0.23503,0.81257,0.00455,-0.01766,-0.00245
-0.53332,0.23497,0.81262,0.00169,-0.02367,-0.00112
-0.53335,0.23489,0.81263,0.00279,-0.02418,0.00141
-0.53339,0.23486,0.81261,0.00348,-0.02812,0.00245
-0.53346,0.23479,0.81258,0.00174,-0.02703,0.0015
-0.53357,0.23475,0.81253,0.00224,-0.02767,0.00353
-0.53366,0.23458,0.81251,-0.0008,-0.02569,-0.00018
-0.53374,0.23448,0.81249,0.00166,-0.0254,-0.0005
-0.5338,0.23439,0.81248,-0.00052,-0.02597,0.00034
-0.5338,0.23434,0.81249,-0.00157,-0.02517,0.00045
-0.53385,0.23433,0.81246,-0.00114,-0.0258,0.00015
-0.53389,0.23435,0.81243,-0.00253,-0.02921,0.00112
-0.53391,0.23439,0.81241,-0.00314,-0.02801,0.00336
-0.5339,0.23444,0.8124,-0.00107,-0.02628,0.00061
-0.53387,0.23448,0.81241,0.00076,-0.02766,-0.00048
-0.53379,0.2346,0.81242,-0.00144,-0.02587,-0.00068
-0.53375,0.23458,0.81246,-7e-05,-0.02317,0.00246
-0.53368,0.23462,0.81249,0.00358,-0.02414,0.00311
-0.53361,0.23462,0.81254,0.00228,-0.02512,0.00157
-0.53356,0.23464,0.81256,-4e-05,-0.02488,0.00069
-0.53353,0.23466,0.81257,0.00093,-0.02474,0.00159
-0.5335,0.23466,0.8126,0.00109,-0.02678,0.00067
-0.53348,0.23466,0.81261,-0.00048,-0.02598,0.00354
-0.5335,0.23464,0.8126,-0.00072,-0.02399,-0.00013
-0.53352,0.23462,0.81259,0.00105,-0.02532,-0.00067
-0.53353,0.23464,0.81258,-0.00188,-0.02661,0.00267
-0.53354,0.23471,0.81255,0.00054,-0.02811,0.00249
-0.53358,0.23478,0.81251,-0.0005,-0.02758,8e-05
-0.53362,0.23484,0.81247,0.00159,-0.02456,0.00319
-0.53368,0.23491,0.81241,-0.00018,-0.02386,0.00473
-0.53381,0.23493,0.81232,0.00311,-0.02654,0.00041
-0.53395,0.23493,0.81222,0.00392,-0.02507,-0.00169
-0.53397,0.23493,0.81221,0.00031,-0.02595,0.00455
-0.53403,0.23506,0.81213,-0.00227,-0.02505,0.00279
-0.53404,0.23511,0.81211,0.00064,-0.0261,0.00266
-0.53402,0.23516,0.81211,0.00173,-0.02669,-0.00071
-0.53404,0.23522,0.81208,0.00348,-0.02292,0.00066
-0.53411,0.23517,0.81205,0.00267,-0.02615,-0.00143
-0.53416,0.23511,0.81203,0.00099,-0.02915,-5e-05
-0.53416,0.23509,0.81204,-0.00162,-0.02625,0.00047
-0.53407,0.23506,0.81211,0.00029,-0.02455,0.00287
-0.53401,0.23495,0.81218,0.00265,-0.0264,-0.00266
-0.53399,0.23495,0.81219,0.00179,-0.02618,0.00194
-0.53401,0.23496,0.81217,-0.00022,-0.0272,0.00315
-0.53404,0.23496,0.81215,0.002,-0.02664,0.00081
-0.53411,0.23505,0.81208,0.00246,-0.02794,-0.00038
-0.53414,0.23506,0.81206,-0.00116,-0.02838,-3e-05
-0.53414,0.23502,0.81207,0.00135,-0.02523,0.00104
-0.53413,0.2351,0.81205,0.00056,-0.02633,0.00139
-0.53411,0.23509,0.81207,0.00289,-0.02707,0.00174
-0.53412,0.23517,0.81204,0.00035,-0.02528,0.0009
-0.53412,0.23515,0.81205,0.00092,-0.02492,0.0007
-0.53411,0.23517,0.81205,0.00171,-0.0263,0.00108
-0.53408,0.23522,0.81205,0.00165,-0.02633,0.00098
-0.53406,0.23518,0.81207,-0.00062,-0.02801,0.00081
-0.53408,0.23519,0.81206,0.00039,-0.02625,0.00094
-0.53406,0.23519,0.81207,0.00078,-0.02603,0.00117
-0.53401,0.2352,0.8121,0.00096,-0.0242,0.00101
-0.53395,0.23521,0.81214,0.00225,-0.02388,0.00581
-0.53386,0.23523,0.81219,0.00112,-0.025,-4e-05
-0.53378,0.23525,0.81224,0.00042,-0.0257,0.00073
-0.53368,0.23525,0.8123,0.00152,-0.02661,-0.00021
-0.53359,0.23527,0.81236,0.00092,-0.02681,0.00168
-0.53349,0.23532,0.81241,0.00127,-0.02806,0.0025
-0.53343,0.23536,0.81244,-0.00071,-0.0258,0.00219
-0.53341,0.23541,0.81244,0.00188,-0.02608,0.00218
-0.53353,0.23547,0.81234,0.00263,-0.02478,0.00095
-0.53378,0.23554,0.81215,-0.00136,-0.03024,0.00523
-0.53408,0.23573,0.8119,-0.00191,-0.02812,0.01065
-0.53452,0.23605,0.81152,-0.00242,-0.02719,0.00511
-0.53497,0.23634,0.81114,-0.00205,-0.02674,-7e-05
-0.53524,0.23649,0.81092,0.00474,-0.02557,-0.00452
-0.53546,0.23664,0.81073,0.00598,-0.02446,-0.00245
-0.53554,0.23665,0.81067,0.00786,-0.02463,-0.00173
-0.5356,0.23654,0.81066,0.00408,-0.02302,0.00333
-0.53566,0.23649,0.81064,0.00374,-0.02457,0.00443
-0.53574,0.23641,0.81061,0.00071,-0.0245,0.00319
-0.53584,0.23631,0.81057,0.00108,-0.02867,0.00129
-0.53598,0.23627,0.81049,0.00028,-0.02779,0.0025
-0.5361,0.23627,0.81041,0.00069,-0.0258,0.00106
-0.53622,0.23616,0.81037,-0.00057,-0.03061,0.00075
-0.53632,0.23624,0.81027,-0.00028,-0.03184,0.00145
-0.53638,0.2363,0.81022,-0.00098,-0.02895,0.00272
-0.53641,0.23629,0.8102,0.00214,-0.02855,0.00155
-0.53641,0.23638,0.81017,0.00052,-0.02701,0.00358
-0.53642,0.23642,0.81016,3e-05,-0.02825,0.00247
-0.53644,0.23645,0.81013,0.00142,-0.02683,-0.00029
-0.53645,0.23653,0.81011,0.00389,-0.02669,-0.00023
-0.53641,0.23662,0.8101,0.0015,-0.02681,0.00279
-0.53641,0.23661,0.81011,0.0071,-0.0255,0.00233
-0.53647,0.23666,0.81005,0.0048,-0.02464,0.00425
-0.53653,0.23666,0.81002,0.00256,-0.02544,0.00181
-0.53658,0.23653,0.81002,0.00106,-0.02611,0.00084
-0.53665,0.2365,0.80998,-0.00136,-0.02593,0.00034
-0.5367,0.23646,0.80996,-0.00066,-0.02798,-0.00187
-0.53669,0.2363,0.81001,0.00386,-0.02933,0.0043
-0.53669,0.23631,0.81001,-0.00063,-0.02922,0.00406
-0.5367,0.2363,0.81001,0.00064,-0.02863,0.00296
-0.53671,0.23617,0.81004,0.00115,-0.02894,0.00319
-0.53669,0.23624,0.81003,0.0015,-0.02761,0.00378
-0.53667,0.23629,0.81003,0.00086,-0.02938,0.0032
-0.53663,0.23631,0.81005,0.00225,-0.03011,0.0006
-0.53658,0.23639,0.81006,0.00069,-0.02797,0.00177
-0.53654,0.2365,0.81005,-0.00018,-0.02463,-0.00089
-0.53654,0.23656,0.81004,-0.00309,-0.02451,0.0058
-0.53652,0.23669,0.81001,-0.00038,-0.02392,0.00539
-0.5366,0.23671,0.80996,0.0044,-0.02761,-0.00019
-0.5367,0.23675,0.80988,-0.00029,-0.02732,0.00208
-0.53663,0.23678,0.80991,0.0022,-0.02919,0.00089
-0.53656,0.23684,0.80994,0.00271,-0.02914,0.00408
-0.53652,0.23687,0.80996,0.00229,-0.02515,0.00246
-0.53651,0.23684,0.80997,0.00425,-0.02656,0.0036
-0.53654,0.23681,0.80996,0.00664,-0.02791,0.0022
-0.53651,0.2368,0.80999,0.00463,-0.02523,0.00449
-0.53648,0.23682,0.81,0.00479,-0.02721,0.00478
-0.53648,0.23679,0.81001,0.00172,-0.02925,0.00387
-0.53648,0.23682,0.81,0.00128,-0.0299,-0.00021
-0.53651,0.23688,0.80996,0.00103,-0.02937,0.00359
-0.53651,0.23696,0.80994,0.00197,-0.02553,-0.00015
-0.53649,0.23699,0.80994,-0.00114,-0.02491,0.00179
-0.5364,0.237,0.81,-0.00141,-0.02543,0.00126
-0.53626,0.23701,0.81009,0.00081,-0.02718,0.00188
-0.53616,0.23704,0.81014,0.00342,-0.029,0.00355
-0.53609,0.23709,0.81018,0.00093,-0.02763,0.00019
-0.53604,0.23711,0.81021,0.00386,-0.02957,0.00175
-0.53604,0.23713,0.8102,0.00529,-0.03136,0.00319
-0.53603,0.23721,0.81018,0.00696,-0.03066,0.0061
-0.53605,0.23716,0.81019,0.0082,-0.02826,0.00682
-0.5361,0.23714,0.81016,0.00617,-0.02543,0.00495
-0.53617,0.23709,0.81012,0.00153,-0.02799,0.00282
-0.53624,0.23709,0.81008,-0.00045,-0.02977,0.00167
-0.53627,0.23709,0.81006,-0.00059,-0.03066,0.00255
-0.5363,0.23714,0.81003,0.00032,-0.0304,0.00499
-0.53633,0.23715,0.81001,0.00151,-0.02931,0.00179
-0.53636,0.23719,0.80997,0.00044,-0.0275,0.0007
-0.53637,0.2373,0.80994,0.00158,-0.02796,9e-05
-0.53638,0.23732,0.80992,-0.00174,-0.02757,1e-05
-0.53637,0.2374,0.8099,0.00202,-0.02589,-6e-05
-0.53633,0.23746,0.80991,0.0018,-0.02783,0.00233
-0.53629,0.23748,0.80994,0.00357,-0.02896,0.00275
-0.53626,0.23746,0.80996,0.00322,-0.03181,0.00571
-0.53624,0.23754,0.80995,0.00069,-0.03187,0.00818
-0.53622,0.23759,0.80995,0.0014,-0.02829,0.00756
-0.53626,0.23761,0.80992,0.0035,-0.02848,0.00463
-0.53634,0.23771,0.80983,0.00204,-0.02939,0.00447
-0.53638,0.23783,0.80977,0.00202,-0.02956,0.0038
-0.53647,0.23783,0.80971,0.00142,-0.02568,0.00511
-0.53657,0.23795,0.80961,0.00299,-0.02561,0.00347
-0.53668,0.23785,0.80957,0.0059,-0.02931,0.00017
-0.53682,0.23779,0.80949,-0.00056,-0.02731,0.00359
-0.53689,0.23782,0.80944,0.00043,-0.02655,0.00438
-0.53693,0.23774,0.80943,0.0002,-0.03225,0.00293
-0.53695,0.23776,0.80941,-0.00072,-0.03222,2e-05
-0.53691,0.23779,0.80943,0.00118,-0.03216,0.00312
-0.53688,0.2378,0.80945,0.00502,-0.03077,0.00345
-0.53683,0.23787,0.80946,0.00343,-0.03026,0.0046
-0.53675,0.23796,0.80949,0.00365,-0.03065,0.001
-0.53664,0.23802,0.80954,0.00633,-0.03218,0.00358
-0.53652,0.23809,0.8096,0.00437,-0.0284,0.00269
-0.53635,0.23812,0.80971,0.00669,-0.02497,0.00217
-0.53616,0.23809,0.80984,0.00804,-0.02748,0.00222
-0.53594,0.23804,0.81,0.00304,-0.02859,0.00226
-0.53573,0.23798,0.81016,-0.00058,-0.02915,0.00276
-0.53553,0.2379,0.81031,0.00185,-0.03174,0.00292
-0.53534,0.23782,0.81047,0.00039,-0.03164,0.00289
-0.53511,0.23776,0.81063,-0.00012,-0.031,0.00324
-0.53486,0.23772,0.8108,0.00416,-0.0315,0.00273
-0.53465,0.23775,0.81094,0.00202,-0.02677,0.00492
-0.53447,0.23779,0.81105,0.00204,-0.03256,0.00512
-0.53434,0.23784,0.81111,0.00039,-0.03361,0.00723
-0.53422,0.23792,0.81117,0.00219,-0.03102,0.00618
-0.53412,0.23814,0.81118,0.00093,-0.03118,0.0077
-0.53407,0.23834,0.81115,0.00409,-0.0289,0.00537
-0.53404,0.23848,0.81113,0.00654,-0.02776,0.00296
-0.53399,0.23868,0.8111,0.00454,-0.02758,0.00409
-0.53395,0.23882,0.81108,0.00549,-0.02773,0.00129
-0.53393,0.23886,0.81109,0.00401,-0.02932,0.00334
-0.53398,0.23893,0.81103,0.00325,-0.03184,0.00543
-0.53401,0.23905,0.81098,0.00259,-0.03118,0.00714
-0.53406,0.23912,0.81092,-0.00319,-0.02783,0.00893
-0.53415,0.23926,0.81082,-0.00369,-0.02792,0.00712
-0.53412,0.23932,0.81083,0.00043,-0.0284,0.00158
-0.53403,0.23923,0.81091,0.0122,-0.02672,-0.01043
-0.53399,0.23902,0.811,0.01552,-0.02833,-0.00898
-0.53405,0.23868,0.81106,0.01313,-0.03502,0.00257
-0.53399,0.23852,0.81114,0.00101,-0.03975,0.02049
-0.53393,0.2386,0.81116,-0.00101,-0.03652,0.02197
-0.53402,0.23887,0.81102,0.0016,-0.03576,0.01135
-0.53417,0.23921,0.81083,0.00185,-0.03008,-0.00276
-0.53433,0.23957,0.81061,-0.0,-0.0311,-0.00246
-0.53438,0.23994,0.81047,-0.00358,-0.02712,-0.00355
-0.53435,0.24027,0.81039,0.00185,-0.02739,-0.00456
-0.53423,0.24052,0.8104,0.00553,-0.0312,0.00169
-0.53405,0.24076,0.81044,0.0037,-0.03073,0.00505
-0.53393,0.24093,0.81047,0.00114,-0.02784,0.01547
-0.53386,0.24117,0.81045,0.00187,-0.02696,0.01305
-0.53392,0.24128,0.81038,0.00358,-0.0265,0.0062
-0.53408,0.24124,0.81028,0.00521,-0.02658,-0.0046
-0.53421,0.24127,0.81018,0.00261,-0.02672,-0.00171
-0.53426,0.24113,0.81019,0.00017,-0.02992,-0.0005
-0.53433,0.24097,0.8102,-0.00162,-0.03848,0.01121
-0.53438,0.24102,0.81015,-0.00478,-0.03912,0.01269
-0.53437,0.24108,0.81014,-0.00103,-0.03726,0.00755
-0.53431,0.24118,0.81015,0.00621,-0.03459,0.00364
-0.53426,0.24127,0.81015,0.00718,-0.03021,0.00367
-0.53428,0.24141,0.8101,0.00977,-0.02833,0.00759
-0.53432,0.24154,0.81003,0.0097,-0.02658,0.00276
-0.53443,0.2416,0.80994,0.01182,-0.03109,0.00164
-0.53459,0.24164,0.80983,0.00483,-0.03292,0.00867
-0.53469,0.24179,0.80972,-0.00054,-0.02993,0.00934
-0.53482,0.24188,0.8096,-0.00372,-0.03099,0.00328
-0.53501,0.24196,0.80945,-5e-05,-0.02989,0.00168
-0.53517,0.24203,0.80932,0.00275,-0.02913,-0.00076
-0.5354,0.2421,0.80915,0.00533,-0.03099,0.00074
-0.53559,0.24214,0.80901,0.00276,-0.0328,0.00394
-0.53566,0.24215,0.80897,0.00435,-0.03461,0.00628
-0.53569,0.24217,0.80894,0.00171,-0.03244,0.00466
-0.53568,0.2422,0.80894,0.0027,-0.03213,0.00362
-0.53563,0.2422,0.80897,0.00461,-0.02983,0.00521
-0.53551,0.24219,0.80905,0.00483,-0.02809,0.0033
-0.53539,0.24211,0.80916,0.00508,-0.03069,0.00473
-0.53525,0.24205,0.80927,1e-05,-0.03403,0.00433
-0.53518,0.24205,0.80931,-0.00201,-0.03592,0.00453
-0.53521,0.24213,0.80927,-0.00121,-0.03769,0.00729
-0.5352,0.2422,0.80925,0.00092,-0.03318,0.00367
-0.53519,0.24228,0.80924,0.00353,-0.0321,0.00445
-0.53511,0.24235,0.80927,0.00541,-0.02997,0.00405
-0.53499,0.24233,0.80936,0.00722,-0.02991,0.00496
-0.53487,0.24236,0.80943,0.00588,-0.02959,0.00472
-0.53475,0.24237,0.8095,0.00268,-0.03258,0.00569
-0.53468,0.24231,0.80957,0.00381,-0.03645,0.00803
-0.53464,0.24233,0.80959,0.0034,-0.03527,0.00505
-0.53462,0.24237,0.80959,0.0036,-0.03525,0.0081
-0.53467,0.24236,0.80956,0.00565,-0.03154,0.00953
-0.53475,0.24241,0.80949,0.00444,-0.02932,0.00493
-0.53482,0.24243,0.80943,0.0037,-0.03166,0.0012
-0.53488,0.2425,0.80938,0.00389,-0.03319,0.00306
-0.53491,0.24258,0.80933,0.00383,-0.03257,0.00614
-0.53485,0.24266,0.80935,-0.00118,-0.03098,0.00233
-0.5349,0.24269,0.8093,0.0003,-0.03349,0.00677
-0.53496,0.24277,0.80924,0.0016,-0.03624,0.00686
-0.53499,0.24289,0.80919,0.00388,-0.03551,0.00798
-0.5353,0.243,0.80895,0.00647,-0.03992,0.01072
-0.53585,0.24318,0.80853,0.00394,-0.03873,0.00983
-0.53666,0.24326,0.80797,-0.00025,-0.03906,0.01062
-0.53759,0.24312,0.80739,-0.00384,-0.0212,0.00399
-0.53862,0.24296,0.80676,0.00386,-0.02235,-0.0016
-0.53949,0.2426,0.80628,-0.00618,-0.02289,-0.00869
-0.54,0.24225,0.80604,0.00115,-0.03071,-0.00243
-0.53989,0.2419,0.80622,-0.00677,-0.03174,-0.00245
-0.5394,0.24167,0.80662,0.00441,-0.03879,0.01326
-0.5391,0.24154,0.80686,0.0163,-0.04446,0.00979
-0.53871,0.24139,0.80716,0.01805,-0.05037,0.0088
-0.53831,0.24131,0.80745,0.01886,-0.04298,0.00508
-0.53802,0.24155,0.80758,0.01641,-0.03092,0.01742
-0.53805,0.24181,0.80748,0.01759,-0.02902,0.01433
-0.5384,0.24183,0.80724,0.01818,-0.03065,0.00416
-0.53877,0.24178,0.80701,0.01607,-0.02422,0.00386
-0.53914,0.24168,0.80679,0.01279,-0.02531,0.00275
-0.53968,0.24151,0.80649,0.00012,-0.03261,0.00438
-0.54028,0.24125,0.80616,-0.01122,-0.03445,0.0034
-0.54081,0.24106,0.80586,-0.02098,-0.03272,-0.00253
-0.54123,0.24094,0.80561,-0.01363,-0.03417,-0.00456
-0.5414,0.2409,0.80551,-0.00639,-0.03327,-0.00318
-0.54137,0.24091,0.80553,-0.0093,-0.03964,0.00546
-0.54118,0.24097,0.80564,-0.00438,-0.03581,0.00422
-0.54092,0.24098,0.80581,0.00558,-0.03838,0.00536
-0.54066,0.24104,0.80597,0.00332,-0.03608,0.01112
-0.5404,0.24122,0.80609,0.00411,-0.03306,0.01296
-0.54029,0.2414,0.80611,0.01184,-0.03096,0.00714
-0.5401,0.24147,0.80621,0.01439,-0.03384,0.00551
-0.53983,0.2415,0.80639,0.01394,-0.03418,0.00765
-0.53968,0.24144,0.8065,0.01121,-0.03548,0.01471
-0.53961,0.24146,0.80655,0.00865,-0.03519,0.01204
-0.53965,0.24146,0.80651,0.00973,-0.03383,0.00684
-0.53983,0.24143,0.80641,0.00585,-0.03266,0.0038
-0.54002,0.24144,0.80628,0.004,-0.02987,0.00097
-0.54021,0.2414,0.80616,0.00295,-0.03263,-0.00072
-0.54034,0.24129,0.80611,-0.00236,-0.03257,0.00451
-0.54048,0.24126,0.80602,0.00086,-0.03457,0.00284
-0.5406,0.24121,0.80596,0.00442,-0.03799,0.0043
-0.54066,0.24118,0.80592,-0.0018,-0.03651,0.00661
-0.54067,0.24128,0.80589,-0.00046,-0.03728,0.00733
-0.54071,0.2414,0.80582,0.00335,-0.03788,0.00552
-0.5407,0.24158,0.80578,0.00504,-0.03575,0.00368
-0.54058,0.24173,0.80581,0.0046,-0.03378,0.01092
-0.54047,0.24187,0.80584,0.00722,-0.0356,0.01205
-0.54049,0.24197,0.8058,0.00955,-0.03194,0.00736
-0.54055,0.242,0.80575,0.00876,-0.03355,0.0044
-0.5405,0.24197,0.80579,0.00428,-0.0342,0.00176
-0.5404,0.24187,0.80589,-0.00271,-0.03716,0.00702
-0.54029,0.24185,0.80597,-0.00114,-0.03471,0.00424
-0.54024,0.24177,0.80603,0.00354,-0.04071,0.00711
-0.54021,0.24186,0.80602,0.00092,-0.0374,0.00875
-0.54015,0.24202,0.80601,0.00707,-0.03328,0.00986
-0.54008,0.24216,0.80602,0.01513,-0.03362,0.00441
-0.54006,0.24221,0.80602,0.01235,-0.03489,0.00998
-0.5401,0.24226,0.80597,0.01066,-0.03497,0.0126
-0.5402,0.24225,0.80591,0.0082,-0.03512,0.00723
-0.54046,0.24224,0.80574,0.00617,-0.03787,0.00324
-0.54058,0.24218,0.80568,0.00155,-0.03506,0.00226
-0.54061,0.24209,0.80568,0.0017,-0.03746,-0.00112
-0.54076,0.24201,0.80561,0.00353,-0.04119,0.003
-0.54092,0.24191,0.80553,-0.00573,-0.03796,-0.00029
-0.54114,0.24188,0.80539,-0.00404,-0.0347,-0.01121
-0.54128,0.24214,0.80522,0.00434,-0.03188,-0.03799
-0.54096,0.24305,0.80516,0.01947,-0.03765,-0.04346
-0.53993,0.24518,0.8052,0.01065,-0.06323,-0.0431
-0.53727,0.24882,0.80586,-0.07721,-0.00012,0.26671
-0.5366,0.24832,0.80646,-0.06311,0.00375,0.05305
-0.53741,0.24517,0.80689,0.08482,-0.09209,-0.07511
-0.53951,0.2449,0.80557,0.09232,-0.05035,-0.02759
-0.54081,0.24577,0.80443,0.02925,-0.00761,0.00541
-0.54035,0.24579,0.80474,-0.00343,-0.03825,-0.0062
-0.54053,0.24565,0.80466,-0.01086,-0.0449,0.01422
-0.54046,0.24595,0.80461,-0.01949,-0.04225,0.02514
-0.53989,0.24603,0.80498,-0.02641,-0.04017,0.0244
-0.54001,0.24596,0.80491,-0.00056,-0.0304,0.0174
-0.54067,0.24595,0.80447,9e-05,-0.03039,0.01784
-0.54137,0.2458,0.80405,0.01053,-0.03582,-0.01264
-0.54151,0.24588,0.80393,-0.00528,-0.03789,-0.0069
-0.54108,0.24623,0.80411,-0.00911,-0.03696,0.00227
-0.54072,0.2464,0.8043,-0.00794,-0.03737,0.01765
-0.54065,0.24633,0.80437,0.01489,-0.03707,0.01589
-0.54068,0.24626,0.80437,0.01912,-0.04037,0.01518
-0.54078,0.24632,0.80429,0.01731,-0.03975,0.01026
-0.54083,0.24647,0.80421,0.0057,-0.04067,0.00252
-0.54081,0.24672,0.80414,0.00259,-0.04126,0.0058
-0.54077,0.24702,0.80408,0.00148,-0.03843,0.0106
-0.54074,0.2471,0.80407,0.00926,-0.03281,0.00914
-0.54091,0.24711,0.80396,0.00992,-0.03365,0.0054
-0.54102,0.24705,0.8039,0.00389,-0.03918,0.00764
-0.54113,0.24698,0.80385,0.00466,-0.03575,0.00737
-0.54139,0.24682,0.80372,0.00506,-0.04191,0.00716
-0.54164,0.24664,0.80361,0.00015,-0.04234,0.00878
-0.54185,0.24653,0.8035,-0.00375,-0.03508,0.00886
-0.54208,0.24644,0.80337,0.00468,-0.03358,0.00411
-0.5423,0.24624,0.80328,0.00957,-0.03317,0.00479
-0.54253,0.24598,0.80321,0.00374,-0.03469,0.00706
-0.54274,0.24569,0.80316,-0.00406,-0.03829,0.00179
-0.54261,0.24546,0.80331,-0.00234,-0.04717,-0.00746
-0.54213,0.24522,0.80371,0.00035,-0.0495,0.0112
-0.54165,0.24498,0.80411,0.00907,-0.0513,0.03059
-0.54121,0.24473,0.80448,0.00987,-0.04133,0.02884
-0.54095,0.24466,0.80468,0.02304,-0.04051,0.01339
-0.54086,0.24499,0.80464,0.01478,-0.03344,0.00922
-0.541,0.24552,0.80438,0.00207,-0.03291,0.01185
-0.54113,0.24597,0.80416,-0.00364,-0.0358,-0.0002
-0.54137,0.24634,0.80388,-0.00483,-0.03406,-0.00571
-0.54157,0.2466,0.80366,-0.01307,-0.02747,-0.01008
-0.54171,0.24668,0.80355,-0.00657,-0.02874,-0.00249
-0.54168,0.24651,0.80362,0.00395,-0.03612,0.00282
-0.54155,0.2462,0.8038,0.01053,-0.039,0.00685
-0.54138,0.24581,0.80404,0.00709,-0.04299,0.0142
-0.54123,0.24541,0.80426,0.00901,-0.04427,0.02034
-0.54114,0.24512,0.80441,0.0174,-0.04165,0.0123
-0.54112,0.24487,0.8045,0.01718,-0.04273,0.00598
-0.54103,0.24464,0.80463,0.01938,-0.04362,0.00888
-0.5409,0.24445,0.80478,0.01712,-0.04732,0.01187
-0.54085,0.24431,0.80485,0.0187,-0.05062,0.0199
-0.54096,0.24431,0.80478,0.0109,-0.04727,0.0226
-0.54126,0.24444,0.80453,0.00748,-0.04232,0.01105
-0.54146,0.24457,0.80436,-0.01191,-0.04004,-1e-05
-0.54151,0.24498,0.8042,-0.01551,-0.03465,-0.00299
-0.54158,0.24548,0.804,-0.01407,-0.02722,-0.00839
-0.54157,0.24577,0.80392,-0.01052,-0.03308,-0.00251
-0.54127,0.24601,0.80405,-0.00882,-0.03469,0.0034
-0.54091,0.24621,0.80423,-0.00361,-0.03053,0.00555
-0.54065,0.2463,0.80438,0.00599,-0.03037,0.01143
-0.54041,0.24621,0.80457,0.0095,-0.03705,0.01233
-0.54033,0.24606,0.80467,0.01462,-0.04594,0.00962
-0.54032,0.24597,0.8047,0.01916,-0.04254,0.01753
-0.54048,0.24602,0.80458,0.02474,-0.04778,0.01462
-0.54072,0.24602,0.80442,0.02102,-0.05242,0.01273
-0.54087,0.24611,0.80429,0.02788,-0.05896,0.01018
-0.5412,0.24615,0.80406,0.02808,-0.04382,-0.00511
-0.5414,0.24637,0.80385,0.02153,-0.05169,-0.01992
-0.54123,0.24746,0.80363,-0.05458,-0.0344,0.0373
-0.54135,0.24898,0.80308,-0.04591,-0.01753,0.06475
-0.54204,0.24915,0.80256,0.01328,-0.0463,0.03842
-0.54259,0.24863,0.80235,0.04053,-0.03876,-0.0213
-0.54265,0.24855,0.80234,0.03118,-0.03489,-0.01903
-0.54273,0.24869,0.80224,-0.00248,-0.04104,0.00324
-0.54301,0.24883,0.80201,-0.00122,-0.04918,0.00325
-0.54316,0.24902,0.80185,0.00091,-0.03766,0.00798
-0.54289,0.24915,0.80199,-0.0038,-0.03494,0.01205
-0.54265,0.24907,0.80218,-0.00366,-0.03691,0.01308
-0.54273,0.24895,0.80216,-0.00388,-0.03728,0.01672
-0.54295,0.24873,0.80208,0.01022,-0.04166,0.00668
-0.54305,0.24852,0.80208,0.01595,-0.04566,0.00476
-0.54306,0.24846,0.80209,0.01001,-0.04371,0.00569
-0.54304,0.24848,0.8021,0.00899,-0.04509,0.00924
-0.54294,0.24856,0.80214,0.00382,-0.04235,0.01346
-0.54288,0.24866,0.80215,0.00202,-0.04029,0.01675
-0.54299,0.2487,0.80206,0.0052,-0.03857,0.00656
-0.54311,0.24866,0.802,0.00501,-0.04312,0.00484
-0.54315,0.24872,0.80195,0.0049,-0.04053,0.00797
-0.54322,0.24888,0.80185,0.00271,-0.04118,0.01114
-0.54331,0.24905,0.80173,0.00227,-0.04208,0.01154
-0.54349,0.24923,0.80156,0.00203,-0.04339,0.01167
-0.54371,0.24943,0.80135,0.00264,-0.04168,0.00764
-0.54391,0.24957,0.80117,0.00245,-0.03533,-0.00035
-0.54405,0.24958,0.80107,0.00981,-0.03741,-0.00011
-0.54402,0.24952,0.80111,0.0129,-0.03997,0.00927
-0.54395,0.24954,0.80115,0.00954,-0.04209,0.01933
-0.54397,0.24966,0.8011,0.01214,-0.04504,0.02138
-0.54416,0.24984,0.80091,0.01207,-0.0513,0.01647
-0.54434,0.25007,0.80072,0.00884,-0.04009,0.01066
-0.54447,0.2504,0.80053,0.00696,-0.03847,0.00808
-0.54457,0.25062,0.80039,0.00737,-0.03387,0.00409
-0.54461,0.25058,0.80038,-0.00224,-0.03183,-0.00577
-0.54468,0.25045,0.80037,-0.0066,-0.03613,-0.00363
-0.54469,0.25025,0.80043,-0.01228,-0.04108,0.00505
-0.54458,0.25012,0.80054,-0.00534,-0.04581,0.00956
-0.54438,0.25014,0.80067,-0.00555,-0.04582,0.00943
-0.54414,0.25015,0.80083,0.00621,-0.04636,0.01051
-0.54381,0.25023,0.80103,0.01217,-0.04447,0.01124
-0.54349,0.25034,0.80122,0.01581,-0.04209,0.01333
-0.54324,0.25043,0.80136,0.01474,-0.04041,0.01401
-0.54312,0.25046,0.80143,0.01649,-0.04085,0.0133
-0.54306,0.25042,0.80148,0.01155,-0.04187,0.01204
-0.54305,0.25037,0.80151,0.01033,-0.04068,0.01009
-0.54306,0.25025,0.80154,0.0036,-0.04335,0.0118
-0.54316,0.2502,0.80148,0.00272,-0.04467,0.00894
-0.54333,0.25015,0.80138,0.00129,-0.04003,0.00776
-0.54342,0.25004,0.80136,0.00085,-0.03954,0.00252
-0.54353,0.24999,0.8013,0.00303,-0.03867,0.00265
-0.54371,0.24989,0.80121,-4e-05,-0.04538,0.00243
-0.54377,0.24991,0.80116,-0.00119,-0.05046,0.00704
-0.54363,0.25004,0.80121,0.00057,-0.05117,0.01089
-0.54338,0.25026,0.80132,0.00738,-0.05125,0.01755
-0.54313,0.25061,0.80138,0.01049,-0.04753,0.01802
-0.54285,0.25101,0.80144,0.01635,-0.04526,0.01047
-0.54259,0.25144,0.80148,0.01784,-0.03945,0.01473
-0.54241,0.2519,0.80146,0.01643,-0.03676,0.01374
-0.5423,0.25217,0.80145,0.01665,-0.0359,0.00644
-0.54234,0.25233,0.80137,0.01541,-0.03577,0.008
-0.54246,0.25242,0.80126,0.00811,-0.03768,0.00989
-0.54268,0.2524,0.80112,0.00096,-0.04246,0.00865
-0.54298,0.25232,0.80094,-0.00719,-0.04439,0.00802
-0.54328,0.25221,0.80077,-0.00849,-0.04373,0.00633
-0.54348,0.25213,0.80066,-0.00888,-0.04374,0.00444
-0.54362,0.25209,0.80058,-0.00351,-0.04608,0.00605
-0.54371,0.25212,0.80051,-0.00164,-0.04453,0.00927
-0.54372,0.25223,0.80046,0.00146,-0.0439,0.00735
-0.54369,0.25234,0.80046,0.00452,-0.04334,0.01017
-0.54361,0.25246,0.80047,0.00649,-0.04307,0.01222
-0.54347,0.2526,0.80052,0.00723,-0.04172,0.00977
-0.54335,0.25262,0.8006,0.01114,-0.04444,0.0125
-0.54323,0.25267,0.80066,0.01099,-0.04391,0.01504
-0.54314,0.25269,0.80071,0.00994,-0.04221,0.01051
-0.54313,0.2527,0.80072,0.00876,-0.04356,0.01103
-0.54312,0.25269,0.80073,0.0065,-0.04488,0.012
-0.54313,0.25277,0.8007,0.00744,-0.04479,0.01185
-0.54314,0.25286,0.80066,0.00701,-0.0445,0.01003
-0.54315,0.25295,0.80063,0.00246,-0.04456,0.00972
-0.54316,0.25311,0.80057,0.00239,-0.04508,0.00883
-0.54314,0.25326,0.80053,0.00602,-0.04383,0.00908
-0.54311,0.25334,0.80053,0.00762,-0.04516,0.01211
-0.54308,0.25351,0.8005,0.00476,-0.04361,0.0134
-0.54306,0.25371,0.80045,0.00343,-0.04397,0.01379
-0.54314,0.25379,0.80037,0.00697,-0.04462,0.00882
-0.54319,0.25393,0.80029,0.00562,-0.0453,0.00905
-0.54316,0.25406,0.80027,0.00668,-0.04484,0.01026
-0.54319,0.25411,0.80023,0.00764,-0.04481,0.01184
-0.54329,0.25416,0.80015,0.00831,-0.04628,0.01078
-0.54335,0.25414,0.80011,0.00713,-0.04483,0.00929
-0.54344,0.25414,0.80005,0.0049,-0.04421,0.01002
-0.54352,0.25419,0.79998,0.00559,-0.04527,0.01162
-0.54359,0.25426,0.79991,0.0057,-0.04629,0.00967
-0.54362,0.25427,0.79989,0.0062,-0.04593,0.01229
-0.54362,0.25437,0.79986,0.00772,-0.04607,0.01041
-0.54364,0.25444,0.79982,0.00352,-0.04505,0.00921
-0.54367,0.25451,0.79978,0.0053,-0.04645,0.00898
-0.54365,0.25465,0.79975,0.00567,-0.04582,0.00993
-0.54363,0.25483,0.79971,0.00708,-0.04551,0.0102
-0.54363,0.25488,0.79969,0.00571,-0.043,0.01126
-0.54361,0.255,0.79966,0.0062,-0.04414,0.00879
-0.54359,0.25507,0.79966,0.00842,-0.04505,0.01097
-0.54356,0.25509,0.79967,0.00866,-0.04436,0.01138
-0.54355,0.25515,0.79966,0.00607,-0.04473,0.00881
-0.54351,0.25518,0.79968,0.0069,-0.0465,0.00932
-0.54343,0.25518,0.79973,0.00619,-0.04719,0.01294
-0.54338,0.25526,0.79974,0.00686,-0.04521,0.01178
-0.54332,0.25534,0.79975,0.00831,-0.04578,0.01065
-0.54326,0.25541,0.79977,0.01033,-0.04633,0.01163
-0.5432,0.25548,0.79979,0.00854,-0.04654,0.01205
-0.54315,0.25556,0.7998,0.00744,-0.04295,0.00965
-0.54311,0.25562,0.79981,0.01009,-0.04154,0.00985
-0.54307,0.2556,0.79984,0.00443,-0.04435,0.01035
-0.54305,0.25561,0.79985,0.00033,-0.04252,0.0063
-0.54306,0.25561,0.79985,7e-05,-0.04652,0.00808
-0.54299,0.25561,0.79989,0.00355,-0.047,0.01035
-0.54285,0.25562,0.79998,0.00355,-0.0474,0.01093
-0.54278,0.25564,0.80002,0.00642,-0.04878,0.01283
-0.54273,0.25566,0.80006,0.0083,-0.04686,0.01132
-0.54265,0.25562,0.80011,0.00738,-0.04673,0.01031
-0.5426,0.25558,0.80016,0.00795,-0.04434,0.01086
-0.54254,0.25555,0.80021,0.00682,-0.04629,0.01218
-0.54247,0.25549,0.80028,0.00945,-0.04607,0.01152
-0.5424,0.25544,0.80035,0.00985,-0.04793,0.01093
-0.54235,0.25543,0.80039,0.00705,-0.05035,0.01178
-0.5423,0.25546,0.80041,0.00516,-0.04715,0.01214
-0.54231,0.2555,0.80039,0.0065,-0.04798,0.01141
-0.54231,0.25555,0.80037,0.00668,-0.04723,0.01097
-0.5423,0.25559,0.80036,0.00551,-0.04754,0.00837
-0.54228,0.2556,0.80037,0.00687,-0.04491,0.0124
-0.54226,0.25566,0.80037,0.00703,-0.04565,0.01361
-0.54223,0.25564,0.8004,0.00545,-0.04619,0.00928
-0.54219,0.25561,0.80043,0.00505,-0.04789,0.01147
-0.54217,0.25565,0.80043,0.00441,-0.04781,0.01154
-0.54215,0.25568,0.80044,0.0069,-0.04594,0.01078
-0.54212,0.25567,0.80046,0.00725,-0.04595,0.01172
-0.54209,0.25573,0.80046,0.00819,-0.04617,0.01131
-0.54207,0.25575,0.80047,0.00794,-0.04775,0.01116
-0.54206,0.25573,0.80048,0.00417,-0.048,0.01234
-0.54204,0.25578,0.80048,0.00566,-0.04966,0.01223
-0.54201,0.2558,0.80049,0.00627,-0.04691,0.00859
-0.54199,0.25585,0.80049,0.00761,-0.04623,0.01221
-0.54198,0.25588,0.80049,0.00971,-0.04872,0.01172
-0.54199,0.25591,0.80047,0.00601,-0.04874,0.01391
-0.54202,0.25595,0.80044,0.00424,-0.04785,0.01306
-0.54211,0.25606,0.80034,0.00498,-0.04574,0.01118
-0.54212,0.25613,0.80031,0.00652,-0.04865,0.01
-0.5421,0.2562,0.8003,0.01009,-0.04677,0.01305
-0.54213,0.25631,0.80025,0.01002,-0.04549,0.01233
-0.54217,0.25636,0.8002,0.00812,-0.0475,0.01277
-0.54223,0.25631,0.80018,0.00911,-0.04853,0.0126
-0.54232,0.25635,0.80011,0.00783,-0.04851,0.01036
-0.54239,0.25632,0.80007,0.00434,-0.04745,0.01235
-0.54245,0.25633,0.80003,0.00523,-0.04876,0.01101
-0.54249,0.25635,0.79999,0.00567,-0.04656,0.01076
-0.54252,0.25641,0.79995,0.00668,-0.04968,0.01198
-0.54256,0.25648,0.7999,0.00653,-0.04705,0.01065
-0.54261,0.25659,0.79983,0.00549,-0.0467,0.0111
-0.54267,0.25669,0.79976,0.00625,-0.04748,0.01196
-0.54272,0.2568,0.79969,0.00712,-0.04843,0.01179
-0.54277,0.25693,0.79961,0.00586,-0.04788,0.01183
-0.54279,0.25699,0.79958,0.00647,-0.04763,0.01246
-0.54283,0.25707,0.79953,0.00688,-0.04696,0.01295
-0.54289,0.25717,0.79946,0.00739,-0.0471,0.01283
-0.54296,0.25723,0.79939,0.00664,-0.04681,0.01238
-0.54302,0.25728,0.79933,0.00962,-0.04826,0.01404
-0.54309,0.25733,0.79927,0.00751,-0.05106,0.01043
-0.54314,0.25734,0.79923,0.00432,-0.04944,0.01277
-0.54321,0.25737,0.79917,0.00508,-0.04901,0.01139
-0.54324,0.25742,0.79914,0.00475,-0.0472,0.01347
-0.54327,0.25745,0.79911,0.007,-0.04653,0.01203
-0.54332,0.25743,0.79908,0.00778,-0.04649,0.00932
-0.54334,0.25737,0.79909,0.00829,-0.04694,0.0096
-0.54336,0.25727,0.79911,0.00794,-0.05097,0.01663
-0.54335,0.25721,0.79913,0.0058,-0.05233,0.02118
-0.54341,0.25732,0.79905,0.00795,-0.05101,0.01823
-0.5435,0.25742,0.79896,0.00993,-0.0533,0.01341
-0.54357,0.25751,0.79888,0.01191,-0.04805,0.01214
-0.54369,0.2577,0.79874,0.01282,-0.04771,0.01515
-0.54382,0.25784,0.7986,0.00938,-0.04839,0.01309
-0.544,0.25788,0.79847,0.00799,-0.04975,0.01049
-0.54422,0.25795,0.7983,0.00559,-0.0486,0.01133
-0.5444,0.25806,0.79814,0.00678,-0.04914,0.01207
-0.54453,0.2581,0.79804,0.0064,-0.04814,0.01325
-0.54465,0.25819,0.79793,0.00705,-0.04659,0.01225
-0.54474,0.25824,0.79785,0.00826,-0.04886,0.01158
-0.54483,0.25828,0.79778,0.00427,-0.04854,0.0125
-0.54491,0.25841,0.79768,0.00222,-0.05023,0.01159
-0.54496,0.25851,0.79761,0.00173,-0.05051,0.0115
-0.54497,0.25859,0.79758,0.00592,-0.05047,0.01079
-0.54494,0.25865,0.79758,0.0063,-0.04931,0.01184
-0.5449,0.25871,0.79759,0.0064,-0.0488,0.01357
-0.54485,0.2587,0.79763,0.00807,-0.04954,0.01232
-0.5448,0.25872,0.79765,0.00891,-0.04769,0.01262
-0.54473,0.25871,0.7977,0.00919,-0.04927,0.01188
-0.54467,0.25867,0.79775,0.00865,-0.04935,0.01342
-0.54462,0.25867,0.79779,0.00702,-0.05125,0.01234
-0.54457,0.25869,0.79782,0.00569,-0.05162,0.01309
-0.54453,0.25875,0.79783,0.0035,-0.05355,0.0153
-0.54448,0.25883,0.79784,0.00644,-0.05051,0.01479
-0.54443,0.25891,0.79784,0.00832,-0.0492,0.01284
-0.54439,0.25898,0.79785,0.00966,-0.04908,0.0149
-0.54436,0.25907,0.79784,0.01,-0.04891,0.01318
-0.54433,0.25916,0.79783,0.00817,-0.05068,0.01301
-0.54432,0.25924,0.79781,0.00818,-0.05337,0.01702
-0.5443,0.25937,0.79778,0.00376,-0.05349,0.01721
-0.54435,0.25955,0.79769,0.00473,-0.05092,0.01393
-0.54445,0.25975,0.79756,0.00592,-0.05119,0.0123
-0.54445,0.25993,0.7975,0.01126,-0.04983,0.0116
-0.54449,0.26009,0.79742,0.0118,-0.04847,0.01307
-0.54457,0.26021,0.79732,0.01022,-0.04847,0.01637
-0.54468,0.26021,0.79725,0.00968,-0.04896,0.01281
-0.54479,0.2602,0.79718,0.00667,-0.05108,0.00917
-0.54485,0.26018,0.79714,0.00283,-0.04975,0.01351
-0.54488,0.26018,0.79712,0.00358,-0.05323,0.01259
-0.54487,0.2602,0.79712,0.00707,-0.05351,0.01399
-0.54483,0.26026,0.79713,0.00769,-0.05465,0.01415
-0.54482,0.26036,0.79711,0.01046,-0.05394,0.01538
-0.54483,0.26051,0.79705,0.00924,-0.04926,0.01457
-0.54484,0.26061,0.79701,0.00727,-0.05036,0.01225
-0.54485,0.26076,0.79695,0.006,-0.05045,0.01124
-0.54484,0.26088,0.79692,0.00934,-0.05118,0.01239
-0.54482,0.26101,0.79689,0.00696,-0.05078,0.01524
-0.54479,0.26117,0.79686,0.0061,-0.05086,0.0149
-0.5448,0.26125,0.79683,0.00826,-0.05266,0.01196
-0.54481,0.26133,0.79679,0.0061,-0.05095,0.01403
-0.54485,0.26148,0.79672,0.00552,-0.05089,0.01341
-0.54487,0.26157,0.79668,0.00625,-0.05248,0.01351
-0.54488,0.26163,0.79665,0.00795,-0.05095,0.012
-0.54489,0.26177,0.79659,0.00874,-0.05106,0.01316
-0.54491,0.2619,0.79654,0.00798,-0.05067,0.01274
-0.54491,0.26192,0.79653,0.00556,-0.05129,0.01375
-0.54491,0.26202,0.7965,0.00813,-0.05115,0.01259
-0.54492,0.26211,0.79647,0.0083,-0.05171,0.0108
-0.54489,0.26215,0.79647,0.00235,-0.05108,0.01662
-0.54487,0.26231,0.79643,0.0043,-0.05079,0.01615
-0.54493,0.26244,0.79635,0.0055,-0.05092,0.01276
-0.54492,0.26256,0.79632,0.00941,-0.05191,0.01369
-0.54487,0.26271,0.7963,0.011,-0.05034,0.01271
-0.54487,0.26278,0.79628,0.01194,-0.05154,0.01367
-0.54482,0.2628,0.79631,0.00908,-0.0496,0.01503
-0.54473,0.26271,0.7964,0.00818,-0.05101,0.0106
-0.54462,0.26257,0.79652,0.00687,-0.0516,0.01085
-0.54451,0.26248,0.79662,0.00607,-0.05303,0.01347
-0.54439,0.2624,0.79673,0.00564,-0.05418,0.01466
-0.54426,0.26235,0.79684,0.00828,-0.05682,0.01649
-0.54415,0.26234,0.79692,0.00816,-0.05627,0.01847
-0.54406,0.26237,0.79697,0.00988,-0.05314,0.0139
-0.54403,0.2624,0.79698,0.00956,-0.05419,0.01511
-0.54397,0.26244,0.79701,0.00794,-0.05203,0.01137
-0.54392,0.26251,0.79702,0.00757,-0.05242,0.01508
-0.54386,0.26252,0.79705,0.00656,-0.05154,0.01681
-0.54383,0.26255,0.79707,0.0073,-0.05207,0.01438
-0.54381,0.26258,0.79707,0.00817,-0.05242,0.01357
-0.5438,0.26256,0.79709,0.0093,-0.05339,0.01293
-0.54378,0.26258,0.79709,0.00856,-0.0546,0.0144
-0.54377,0.26259,0.79709,0.00535,-0.05315,0.01385
-0.54376,0.26261,0.79709,0.00824,-0.05487,0.01455
-0.54377,0.26264,0.79708,0.00835,-0.05141,0.01437
-0.54377,0.26266,0.79707,0.00901,-0.05357,0.01346
-0.54377,0.26267,0.79707,0.00848,-0.05229,0.01447
-0.54377,0.26268,0.79706,0.00936,-0.05292,0.01371
-0.54378,0.26273,0.79704,0.00678,-0.05364,0.01312
-0.5438,0.26279,0.79701,0.00701,-0.05557,0.01601
-0.54384,0.26283,0.79697,0.00656,-0.05323,0.01548
-0.5439,0.26298,0.79687,0.00594,-0.0526,0.01566
-0.54401,0.26308,0.79678,0.00847,-0.05286,0.01037
-0.54402,0.26308,0.79676,0.01073,-0.05136,0.01433
-0.54402,0.26314,0.79674,0.01021,-0.0526,0.01634
-0.54404,0.26317,0.79672,0.00904,-0.05301,0.01685
-0.54409,0.26312,0.7967,0.00889,-0.05429,0.01463
-0.54415,0.26311,0.79666,0.00834,-0.05536,0.01384
-0.54419,0.26308,0.79665,0.00731,-0.05405,0.01263
-0.54421,0.26307,0.79663,0.00727,-0.05447,0.0153
-0.54422,0.26306,0.79663,0.00765,-0.0544,0.01488
-0.54419,0.26307,0.79665,0.00665,-0.05537,0.0162
-0.54419,0.26307,0.79665,0.00864,-0.05545,0.01614
-0.54421,0.26316,0.79661,0.00847,-0.05616,0.01603
-0.54422,0.26324,0.79658,0.00758,-0.05477,0.01702
-0.54421,0.26328,0.79657,0.00956,-0.05609,0.01517
-0.5442,0.26339,0.79653,0.01077,-0.05423,0.01458
-0.54419,0.2635,0.7965,0.01069,-0.05397,0.01412
-0.54417,0.2635,0.79652,0.007,-0.05414,0.01532
-0.54417,0.26356,0.7965,0.0096,-0.05373,0.01605
-0.54418,0.26358,0.79649,0.00713,-0.05419,0.01484
-0.54417,0.26358,0.7965,0.00886,-0.05449,0.01282
-0.54418,0.26366,0.79646,0.00887,-0.05457,0.01285
-0.54419,0.26368,0.79645,0.00929,-0.05422,0.0155
-0.5442,0.26372,0.79643,0.00689,-0.05545,0.01523
-0.54421,0.26382,0.79639,0.0069,-0.05556,0.01527
-0.54421,0.26383,0.79639,0.00836,-0.05399,0.01552
-0.54419,0.26384,0.79639,0.00883,-0.05466,0.01583
-0.54419,0.26392,0.79636,0.01029,-0.05364,0.01528
-0.5442,0.26397,0.79634,0.0092,-0.05439,0.01565
-0.54422,0.26397,0.79633,0.00746,-0.05734,0.01488
-0.54424,0.26406,0.79629,0.00431,-0.05792,0.0167
-0.54427,0.26411,0.79625,0.00589,-0.0547,0.01689
-0.54434,0.26419,0.79617,0.00815,-0.05675,0.0137
-0.54435,0.26424,0.79615,0.00998,-0.05569,0.01352
-0.54433,0.26434,0.79613,0.00959,-0.05418,0.01794
-0.54435,0.26443,0.79609,0.00931,-0.05537,0.01494
-0.54437,0.26443,0.79607,0.00722,-0.05495,0.01513
-0.54441,0.26441,0.79606,0.00844,-0.05471,0.01148
-0.54443,0.26439,0.79605,0.00719,-0.05556,0.01336
-0.54446,0.26442,0.79602,0.00778,-0.05531,0.01564
-0.54446,0.26438,0.79603,0.00608,-0.05755,0.0143
-0.54444,0.26443,0.79603,0.00881,-0.05729,0.01512
-0.54444,0.2645,0.79601,0.00989,-0.05748,0.01599
-0.54443,0.26458,0.79599,0.01039,-0.05729,0.0169
-0.54441,0.26468,0.79596,0.00917,-0.05641,0.01758
-0.54439,0.26476,0.79595,0.01058,-0.05699,0.01637
-0.54438,0.26481,0.79594,0.01,-0.05488,0.0176
-0.54439,0.26487,0.79592,0.01124,-0.05479,0.01735
-0.5444,0.26492,0.7959,0.01048,-0.05512,0.01571
-0.5444,0.26496,0.79588,0.0076,-0.05608,0.01601
-0.5444,0.265,0.79586,0.00778,-0.05516,0.01711
-0.5444,0.26505,0.79585,0.00726,-0.05678,0.01627
-0.54442,0.26508,0.79583,0.00906,-0.05483,0.01417
-0.54444,0.26507,0.79582,0.00891,-0.0551,0.01539
-0.54445,0.26512,0.79579,0.00719,-0.05603,0.0152
-0.54447,0.26517,0.79576,0.00656,-0.05953,0.01893
-0.54449,0.26526,0.79572,0.00787,-0.06056,0.01554
-0.5445,0.26537,0.79567,0.00606,-0.05956,0.01574
-0.54451,0.26544,0.79564,0.0111,-0.05922,0.01587
-0.54452,0.26554,0.7956,0.01147,-0.05509,0.01395
-0.54454,0.26569,0.79553,0.01081,-0.05448,0.0153
-0.54458,0.26578,0.79549,0.00913,-0.05652,0.01511
-0.54461,0.26585,0.79544,0.00518,-0.05678,0.01775
-0.54469,0.26602,0.79533,0.0032,-0.05665,0.01751
-0.54478,0.26614,0.79522,0.00772,-0.05468,0.01609
-0.54479,0.26621,0.79519,0.0111,-0.05723,0.0157
-0.54477,0.26637,0.79515,0.0119,-0.05597,0.01655
-0.54483,0.2665,0.79507,0.01103,-0.05803,0.01727
-0.54491,0.26645,0.79503,0.01125,-0.05767,0.01597
-0.54501,0.26648,0.79495,0.00967,-0.05793,0.01674
-0.54507,0.26653,0.7949,0.00639,-0.05982,0.01626
-0.54509,0.26657,0.79486,0.00927,-0.05962,0.01822
-0.54511,0.26666,0.79483,0.00783,-0.05858,0.01916
-0.5451,0.26673,0.79481,0.00845,-0.05813,0.01637
-0.54512,0.26685,0.79475,0.00983,-0.05971,0.01605
-0.54516,0.26698,0.79469,0.00792,-0.05799,0.0171
-0.54516,0.26708,0.79465,0.00753,-0.05878,0.01654
-0.54516,0.26721,0.79461,0.00961,-0.05871,0.01576
-0.54517,0.26734,0.79456,0.01058,-0.05726,0.01582
-0.54519,0.26745,0.79451,0.00838,-0.05757,0.016
-0.54522,0.26755,0.79445,0.01154,-0.05649,0.01664
-0.54526,0.26765,0.79439,0.01031,-0.05665,0.01841
-0.54529,0.26776,0.79433,0.01012,-0.05763,0.01776
-0.54535,0.26785,0.79426,0.00917,-0.05824,0.01777
-0.54541,0.26798,0.79418,0.00849,-0.05667,0.01827
-0.54544,0.26805,0.79413,0.00763,-0.058,0.01696
-0.54548,0.26813,0.79408,0.00866,-0.05803,0.01641
-0.54552,0.26827,0.794,0.0087,-0.05817,0.01648
-0.54554,0.26829,0.79397,0.00859,-0.05693,0.01773
-0.54556,0.26839,0.79393,0.00823,-0.05883,0.01695
-0.54557,0.26852,0.79388,0.00881,-0.05877,0.01554
-0.54559,0.26855,0.79385,0.0114,-0.05773,0.01512
-0.54559,0.26858,0.79385,0.01048,-0.05749,0.01903
-0.54556,0.26861,0.79386,0.00835,-0.05462,0.0171
-0.54556,0.26863,0.79385,0.00733,-0.05812,0.01433
-0.54554,0.26866,0.79385,0.00785,-0.05813,0.01421
-0.54545,0.26867,0.79391,0.01094,-0.05776,0.01703
-0.54542,0.26865,0.79394,0.01009,-0.05733,0.0172
-0.5454,0.26862,0.79396,0.00844,-0.06327,0.01927
-0.54538,0.26857,0.79399,0.00978,-0.0585,0.01604
-0.54539,0.2685,0.79401,0.00791,-0.05866,0.01663
-0.54539,0.26847,0.79402,0.00753,-0.06067,0.01556
-0.54538,0.26843,0.79404,0.00809,-0.05879,0.0135
-0.54529,0.26845,0.7941,0.0099,-0.05971,0.01752
-0.54521,0.26848,0.79414,0.01177,-0.06181,0.01799
-0.54515,0.26852,0.79417,0.00984,-0.06027,0.02172
-0.54515,0.26859,0.79414,0.00749,-0.0594,0.0186
-0.54517,0.26864,0.79412,0.00763,-0.06097,0.01721
-0.54511,0.26873,0.79412,0.01141,-0.0593,0.01495
-0.54503,0.26881,0.79415,0.00964,-0.0592,0.01665
-0.54496,0.26885,0.79419,0.00835,-0.05587,0.01844
-0.54493,0.2689,0.79419,0.0092,-0.05642,0.01477
-0.54492,0.26894,0.79418,0.00899,-0.05955,0.01864
-0.5449,0.26893,0.7942,0.00966,-0.06066,0.01679
-0.54491,0.26901,0.79416,0.00962,-0.06148,0.01606
-0.5449,0.2691,0.79414,0.00854,-0.06113,0.01704
-0.54487,0.26908,0.79417,0.00992,-0.06006,0.01811
-0.54486,0.26913,0.79416,0.0099,-0.05894,0.01637
-0.54484,0.26917,0.79416,0.0122,-0.05968,0.01817
-0.54483,0.26919,0.79416,0.0096,-0.06019,0.01725
-0.54484,0.26927,0.79413,0.0073,-0.06308,0.01639
-0.54485,0.26936,0.79409,0.00792,-0.0608,0.01735
-0.5449,0.26946,0.79402,0.01028,-0.06249,0.01645
-0.54496,0.26958,0.79394,0.0098,-0.0621,0.01959
-0.545,0.26965,0.79389,0.00721,-0.05743,0.02027
-0.54508,0.26974,0.79381,0.00907,-0.05681,0.01566
-0.54518,0.26984,0.7937,0.00974,-0.05906,0.01483
-0.54517,0.2699,0.79369,0.01026,-0.0594,0.01811
-0.54516,0.26997,0.79367,0.01018,-0.06078,0.01903
-0.54519,0.27001,0.79364,0.01036,-0.06176,0.02073
-0.5452,0.27,0.79364,0.01069,-0.06011,0.01603
-0.54521,0.26994,0.79365,0.00938,-0.05963,0.0159
-0.5452,0.26997,0.79365,0.00826,-0.06068,0.01817
-0.54519,0.26999,0.79364,0.00768,-0.0612,0.01751
-0.54515,0.26995,0.79369,0.00574,-0.06223,0.01831
-0.54511,0.27005,0.79368,0.00915,-0.0617,0.01853
-0.5451,0.27012,0.79366,0.011,-0.0623,0.01879
-0.5451,0.27019,0.79364,0.01179,-0.06134,0.01869
-0.54507,0.27033,0.79361,0.00981,-0.06191,0.01901
-0.54506,0.27039,0.7936,0.01198,-0.05848,0.01747
-0.54504,0.27052,0.79356,0.011,-0.05946,0.01808
-0.54504,0.27062,0.79353,0.01289,-0.05994,0.01744
-0.54504,0.27068,0.79352,0.0073,-0.06128,0.01784
-0.54504,0.27075,0.79349,0.009,-0.06082,0.01893
-0.54506,0.27084,0.79345,0.01046,-0.06175,0.02142
-0.54508,0.27086,0.79343,0.00872,-0.06264,0.01897
-0.54511,0.27092,0.79339,0.00963,-0.06443,0.01669
-0.54514,0.27101,0.79333,0.00871,-0.06221,0.01692
-0.54514,0.27107,0.79331,0.00771,-0.06297,0.01958
-0.54516,0.27115,0.79327,0.01001,-0.06273,0.01932
-0.54517,0.27125,0.79323,0.0126,-0.06189,0.01926
-0.54517,0.27131,0.79321,0.01143,-0.06139,0.01639
-0.54518,0.27141,0.79317,0.00941,-0.06046,0.01996
-0.54519,0.27153,0.79312,0.01008,-0.06053,0.0183
-0.54521,0.27152,0.79311,0.00865,-0.06528,0.01969
-0.54522,0.27156,0.79309,0.00594,-0.06044,0.01943
-0.54524,0.27168,0.79303,0.00626,-0.06033,0.01776
-0.54531,0.27174,0.79297,0.01073,-0.06164,0.01593
-0.54527,0.27178,0.79298,0.01065,-0.06107,0.0183
-0.54523,0.27185,0.79298,0.00939,-0.06169,0.02121
-0.54527,0.27191,0.79294,0.01037,-0.06381,0.02213
-0.5453,0.27196,0.7929,0.00929,-0.06334,0.01843
-0.54537,0.27198,0.79284,0.011,-0.06279,0.01872
-0.54546,0.27205,0.79276,0.01186,-0.06335,0.01869
-0.54551,0.27204,0.79273,0.00991,-0.06255,0.01994
-0.54557,0.27208,0.79267,0.00955,-0.06174,0.01837
-0.54561,0.27208,0.79264,0.00873,-0.06396,0.0188
-0.54566,0.27215,0.79258,0.01058,-0.06622,0.01792
-0.54571,0.27226,0.79251,0.00898,-0.0649,0.0172
-0.54575,0.27234,0.79246,0.00746,-0.06256,0.02128
-0.54577,0.27239,0.79242,0.0117,-0.06256,0.0196
-0.54583,0.2725,0.79235,0.01207,-0.06235,0.01818
-0.54587,0.27256,0.7923,0.01208,-0.06305,0.02064
-0.54589,0.27264,0.79226,0.01151,-0.06289,0.01689
-0.54591,0.27273,0.79221,0.0078,-0.06361,0.01861
-0.54593,0.27281,0.79217,0.01013,-0.06238,0.02228
-0.54595,0.27284,0.79215,0.01102,-0.06346,0.01817
-0.54598,0.2729,0.79211,0.01007,-0.06346,0.02044
-0.54601,0.27294,0.79207,0.01027,-0.06397,0.01789
-0.54605,0.27297,0.79203,0.00981,-0.06365,0.01911
-0.54609,0.27305,0.79197,0.00802,-0.06313,0.02019
-0.54607,0.27312,0.79197,0.00732,-0.06508,0.02
-0.54611,0.2731,0.79195,0.01054,-0.06303,0.01846
-0.54616,0.27312,0.79191,0.01132,-0.06621,0.01612
-0.54618,0.27313,0.79189,0.00994,-0.06706,0.01657
-0.54615,0.27315,0.7919,0.00826,-0.06523,0.01997
-0.54617,0.27331,0.79184,0.00778,-0.06484,0.02028
-0.54622,0.27335,0.79178,0.01023,-0.06513,0.02047
-0.54619,0.27341,0.79178,0.01314,-0.06367,0.01956
-0.54618,0.27352,0.79175,0.01508,-0.06273,0.02148
-0.54619,0.27356,0.79173,0.01165,-0.06518,0.01912
-0.54621,0.27353,0.79173,0.01043,-0.06356,0.01595
-0.54624,0.27351,0.79172,0.0114,-0.06363,0.01929
-0.54626,0.27347,0.79172,0.01,-0.06366,0.02008
-0.54631,0.27348,0.79167,0.00902,-0.06619,0.02319
-0.54633,0.27352,0.79165,0.00975,-0.0647,0.02199
-0.54632,0.27349,0.79167,0.01129,-0.06486,0.01964
-0.54634,0.27355,0.79163,0.00841,-0.06624,0.01867
-0.54636,0.27361,0.79159,0.00939,-0.0652,0.02023
-0.54639,0.27368,0.79156,0.01063,-0.06433,0.02107
-0.54634,0.27372,0.79157,0.01133,-0.06464,0.01899
-0.54633,0.27377,0.79156,0.01058,-0.06476,0.01792
-0.54633,0.27383,0.79154,0.01201,-0.06439,0.02062
-0.54636,0.27389,0.7915,0.00862,-0.06447,0.01815
-0.5464,0.27393,0.79146,0.01031,-0.06638,0.0189
-0.54644,0.27398,0.79141,0.00869,-0.0638,0.02078
-0.54649,0.27404,0.79136,0.01144,-0.06724,0.0198
-0.54655,0.27413,0.79129,0.00993,-0.06627,0.02076
-0.54662,0.27421,0.79121,0.01272,-0.06359,0.02028
-0.54667,0.27428,0.79115,0.01053,-0.06356,0.02095
-0.54673,0.2744,0.79107,0.0107,-0.06494,0.01951
-0.54675,0.27447,0.79104,0.00875,-0.06602,0.0175
-0.54677,0.27453,0.791,0.01242,-0.06689,0.0199
-0.54682,0.27467,0.79091,0.01198,-0.0661,0.01854
-0.54686,0.27479,0.79084,0.01175,-0.06434,0.02136
-0.54688,0.27481,0.79083,0.0083,-0.06349,0.02091
-0.54693,0.27497,0.79073,0.0062,-0.06432,0.02043
-0.54704,0.2751,0.79061,0.0089,-0.06363,0.01842
-0.54708,0.27517,0.79056,0.01169,-0.06334,0.02009
-0.54705,0.27536,0.79051,0.01167,-0.06352,0.02014
-0.54709,0.27542,0.79046,0.01171,-0.06346,0.02335
-0.54719,0.27544,0.79039,0.01071,-0.06542,0.02059
-0.54729,0.27545,0.79031,0.01205,-0.06714,0.01889
-0.54738,0.27547,0.79025,0.00916,-0.06792,0.01821
-0.54745,0.27552,0.79018,0.01011,-0.06755,0.01984
-0.5475,0.27558,0.79012,0.00795,-0.06791,0.02142
-0.54751,0.27566,0.79009,0.01062,-0.07027,0.02339
-0.5475,0.27572,0.79007,0.00972,-0.06592,0.02104
-0.54754,0.27588,0.78999,0.00972,-0.06461,0.02014
-0.5476,0.276,0.78991,0.00968,-0.06743,0.02131
-0.54759,0.2761,0.78988,0.00893,-0.06649,0.01938
-0.54761,0.27622,0.78983,0.01134,-0.06597,0.02039
-0.54763,0.27633,0.78977,0.01008,-0.06544,0.02256
-0.54766,0.27642,0.78972,0.01099,-0.06636,0.02117
-0.54769,0.27652,0.78967,0.01076,-0.06551,0.02056
-0.54771,0.27656,0.78963,0.0109,-0.06584,0.0218
-0.54779,0.27662,0.78956,0.01107,-0.0659,0.01903
-0.54784,0.27672,0.78949,0.0109,-0.06881,0.02112
-0.54787,0.27676,0.78945,0.0095,-0.0673,0.02152
-0.5479,0.27683,0.78941,0.01115,-0.06757,0.02086
-0.5479,0.27692,0.78938,0.01254,-0.07014,0.02038
-0.54786,0.27692,0.7894,0.01022,-0.06506,0.02018
-0.54779,0.27692,0.78945,0.01337,-0.06483,0.02027
-0.54766,0.27692,0.78954,0.01162,-0.06553,0.02156
-0.54756,0.2769,0.78962,0.00863,-0.06659,0.02108
-0.5475,0.27692,0.78966,0.0086,-0.06857,0.02087
-0.54745,0.27693,0.78968,0.01286,-0.06917,0.01966
-0.54735,0.27697,0.78974,0.01148,-0.0705,0.02223
-0.54727,0.27702,0.78978,0.01232,-0.06694,0.02309
-0.54725,0.27705,0.78978,0.01034,-0.06796,0.02478
-0.54722,0.27702,0.78981,0.01157,-0.06875,0.02052
-0.54722,0.27697,0.78983,0.00985,-0.06963,0.02131
-0.54721,0.27702,0.78982,0.00644,-0.07177,0.02149
-0.54716,0.27714,0.78981,0.00752,-0.06919,0.02469
-0.54705,0.2773,0.78983,0.00891,-0.06855,0.02183
-0.54695,0.27747,0.78984,0.01225,-0.06552,0.02246
-0.54692,0.27748,0.78986,0.01234,-0.06087,0.02128
-0.54694,0.27741,0.78987,0.01339,-0.06441,0.01841
-0.547,0.27731,0.78986,0.01383,-0.06591,0.01968
-0.54703,0.27713,0.78991,0.01161,-0.06687,0.02056
-0.54708,0.27692,0.78994,0.00936,-0.06992,0.02839
-0.54721,0.27679,0.7899,0.0086,-0.0663,0.02791
-0.54741,0.27665,0.78981,0.00569,-0.06646,0.02745
-0.5476,0.27637,0.78978,0.00965,-0.07456,0.01683
-0.54769,0.27628,0.78974,0.00799,-0.0713,0.01256
-0.54763,0.27637,0.78976,0.01244,-0.07387,0.01066
-0.54754,0.27646,0.78978,0.01385,-0.0688,0.02865
-0.5475,0.2765,0.7898,0.01496,-0.06917,0.03003
-0.54752,0.27642,0.78981,0.01688,-0.07065,0.02469
-0.54756,0.27635,0.78981,0.01733,-0.06805,0.02072
-0.54762,0.27641,0.78975,0.01568,-0.06883,0.01985
-0.54777,0.2765,0.78961,0.01377,-0.06896,0.01773
-0.54794,0.27657,0.78947,0.01434,-0.06922,0.01906
-0.54809,0.27658,0.78936,0.01393,-0.06944,0.01812
-0.54822,0.2766,0.78927,0.0098,-0.06867,0.02446
-0.54836,0.27661,0.78916,0.00498,-0.07025,0.02375
-0.54856,0.27669,0.789,0.00643,-0.07123,0.02382
-0.54871,0.27679,0.78885,0.00762,-0.07112,0.02381
-0.54875,0.2769,0.78879,0.00973,-0.0725,0.02069
-0.54884,0.27699,0.7887,0.01034,-0.0715,0.02032
-0.5489,0.27708,0.78862,0.01013,-0.06907,0.02116
-0.54892,0.27721,0.78856,0.01232,-0.06824,0.0189
-0.54893,0.27729,0.78853,0.01043,-0.06724,0.01831
-0.5489,0.27735,0.78853,0.00819,-0.07073,0.02351
-0.54881,0.27746,0.78855,0.01,-0.07335,0.02554
-0.5487,0.27767,0.78856,0.00886,-0.06952,0.02414
-0.54857,0.27782,0.78859,0.01329,-0.0687,0.01939
-0.54846,0.27799,0.78861,0.01559,-0.07079,0.02168
-0.54834,0.2782,0.78862,0.00978,-0.0686,0.02348
-0.54821,0.27841,0.78864,0.01099,-0.07,0.02417
-0.54806,0.2786,0.78867,0.00826,-0.07234,0.0214
-0.54792,0.27885,0.78868,0.00863,-0.07026,0.01993
-0.54772,0.279,0.78876,-4e-05,-0.06881,0.02253
-0.54747,0.27916,0.78889,0.00405,-0.0695,0.019
-0.54715,0.27936,0.78904,0.01025,-0.06618,0.01679
-0.5468,0.27957,0.78921,0.01132,-0.06638,0.0218
-0.54646,0.27964,0.78941,0.02021,-0.06634,0.02969
-0.54624,0.27947,0.78963,0.02408,-0.06521,0.02704
-0.54627,0.27909,0.78974,0.02567,-0.06894,0.02282
-0.54653,0.2786,0.78973,0.02167,-0.07478,0.02261
-0.54693,0.27826,0.78957,0.02167,-0.07294,0.02169
-0.54741,0.27791,0.78937,0.01945,-0.0721,0.02344
-0.54815,0.2776,0.78896,0.01455,-0.07111,0.02181
-0.54913,0.27737,0.78836,0.01413,-0.0735,0.02481
-0.55019,0.27718,0.78769,0.01027,-0.08496,0.03119
-0.55116,0.27732,0.78696,0.00709,-0.0892,0.03701
-0.55174,0.27793,0.78634,0.00529,-0.0841,0.03283
-0.55209,0.27881,0.78579,0.00038,-0.07309,0.02992
-0.55234,0.27973,0.78528,0.00549,-0.06576,0.01548
-0.55244,0.28054,0.78492,0.00321,-0.06092,0.00821
-0.55254,0.28119,0.78462,0.00565,-0.05802,0.00567
-0.5526,0.28162,0.78442,0.01047,-0.06215,0.01415
-0.55254,0.28181,0.7844,0.01305,-0.0634,0.01777
-0.55244,0.28185,0.78445,0.0136,-0.06652,0.02094
-0.55232,0.28175,0.78457,0.00356,-0.06776,0.02697
-0.55226,0.28162,0.78467,0.00456,-0.06817,0.0239
-0.55232,0.28147,0.78467,0.00094,-0.07103,0.01654
-0.5524,0.28142,0.78463,0.00051,-0.06824,0.02015
-0.55236,0.28147,0.78464,-0.00252,-0.06734,0.01544
-0.55216,0.28144,0.7848,0.00168,-0.06891,0.01533
-0.55172,0.28137,0.78513,0.00947,-0.07,0.01436
-0.55122,0.28121,0.78554,0.01778,-0.07285,0.01994
-0.55076,0.28101,0.78593,0.01803,-0.07575,0.03765
-0.55031,0.28077,0.78633,0.0221,-0.0821,0.03673
-0.55003,0.28061,0.78659,0.03062,-0.08645,0.03555
-0.54988,0.28068,0.78667,0.02946,-0.08073,0.03711
-0.54978,0.28079,0.78669,0.01962,-0.07263,0.02802
-0.54981,0.28087,0.78665,0.01958,-0.07309,0.02222
-0.54992,0.28092,0.78656,0.0156,-0.06476,0.02144
-0.54996,0.28097,0.78651,0.01071,-0.06333,0.01825
-0.55011,0.28102,0.78639,0.01236,-0.06595,0.01833
-0.55021,0.28094,0.78634,0.00567,-0.06903,0.02065
-0.55035,0.28083,0.78629,0.00297,-0.06884,0.0189
-0.55043,0.28072,0.78627,0.00409,-0.07287,0.0179
-0.55048,0.28063,0.78627,0.00525,-0.07765,0.02379
-0.55049,0.28065,0.78625,0.00486,-0.07329,0.02927
-0.55053,0.28071,0.7862,0.00648,-0.07169,0.02629
-0.5506,0.28068,0.78617,0.01351,-0.07464,0.01993
-0.55051,0.28073,0.78621,0.0119,-0.07269,0.02365
-0.55043,0.28084,0.78623,0.01412,-0.07257,0.02507
-0.55044,0.28081,0.78623,0.01413,-0.07248,0.02641
-0.55045,0.28073,0.78625,0.0134,-0.07518,0.02213
-0.55048,0.28067,0.78626,0.0141,-0.07435,0.0227
-0.55047,0.2806,0.78629,0.01356,-0.07407,0.02559
-0.55047,0.2806,0.78629,0.01286,-0.07329,0.02412
-0.55048,0.28061,0.78628,0.01212,-0.07359,0.0234
-0.55045,0.28056,0.78631,0.01241,-0.07317,0.02651
-0.55035,0.2806,0.78637,0.00954,-0.07412,0.02451
-0.55027,0.2807,0.78639,0.00896,-0.07179,0.02203
-0.55021,0.28082,0.78639,0.01116,-0.07368,0.02085
-0.55017,0.28096,0.78636,0.0131,-0.06996,0.02431
-0.55021,0.28107,0.78629,0.01365,-0.07049,0.02379
-0.55026,0.28107,0.78626,0.01333,-0.07068,0.02659
-0.55031,0.28107,0.78623,0.01374,-0.07191,0.02496
-0.55038,0.28108,0.78617,0.01027,-0.07663,0.02187
-0.5504,0.28111,0.78615,0.00629,-0.07339,0.02586
-0.55036,0.28112,0.78618,0.01076,-0.07169,0.0258
-0.55039,0.28115,0.78614,0.01235,-0.07196,0.02512
-0.55047,0.28113,0.78609,0.01307,-0.07315,0.02377
-0.55054,0.28107,0.78607,0.01632,-0.07624,0.02016
-0.55065,0.28113,0.78597,0.01016,-0.07689,0.02083
-0.55062,0.28121,0.78596,0.00819,-0.07609,0.02413
-0.55045,0.28124,0.78607,0.00951,-0.07679,0.02462
-0.55027,0.28135,0.78616,0.01092,-0.07513,0.02541
-0.55009,0.28151,0.78622,0.01533,-0.07473,0.02092
-0.54992,0.28155,0.78633,0.01373,-0.07411,0.03058
-0.54978,0.28172,0.78636,0.01368,-0.07362,0.03485
-0.54979,0.28182,0.78633,0.01603,-0.073,0.03078
-0.54995,0.28181,0.78621,0.0247,-0.07382,0.02337
-0.55011,0.28184,0.78609,0.02165,-0.07314,0.0223
-0.55023,0.28185,0.78601,0.01243,-0.06805,0.02285
-0.55038,0.28181,0.78591,0.00937,-0.07304,0.01623
-0.55056,0.28184,0.78578,0.00965,-0.07846,0.02018
-0.55076,0.2819,0.78562,0.00797,-0.07493,0.02723
-0.55092,0.28184,0.78552,0.00924,-0.07356,0.02081
-0.5511,0.2819,0.78538,0.00941,-0.07362,0.02096
-0.55129,0.2819,0.78525,0.00928,-0.07482,0.02587
-0.55138,0.28185,0.7852,0.00761,-0.07963,0.02991
-0.55143,0.28184,0.78517,0.00927,-0.07926,0.02695
-0.55144,0.28186,0.78516,0.01162,-0.07856,0.02043
-0.55139,0.28199,0.78514,0.01065,-0.07456,0.02374
-0.55124,0.2822,0.78517,0.01076,-0.07357,0.02655
-0.55112,0.28235,0.7852,0.01602,-0.07233,0.02717
-0.55106,0.28248,0.7852,0.01853,-0.071,0.02738
-0.55106,0.28258,0.78516,0.01893,-0.07178,0.02539
-0.55112,0.28253,0.78514,0.01218,-0.07289,0.02489
-0.5512,0.28254,0.78508,0.01308,-0.07604,0.0275
-0.55129,0.28249,0.78503,0.01254,-0.07651,0.02259
-0.55139,0.28245,0.78498,0.01115,-0.07759,0.02178
-0.55151,0.2825,0.78488,0.01128,-0.07745,0.02707
-0.55168,0.28262,0.78472,0.01214,-0.07847,0.02791
-0.55186,0.28265,0.78457,0.01161,-0.07693,0.02263
-0.55199,0.28272,0.78446,0.0089,-0.07575,0.02455
-0.55206,0.28285,0.78436,0.0096,-0.07567,0.02437
-0.55208,0.28294,0.78432,0.01069,-0.07562,0.02847
-0.5521,0.28306,0.78426,0.01364,-0.07375,0.0241
-0.55212,0.28318,0.7842,0.01158,-0.07542,0.02241
-0.55213,0.28324,0.78417,0.01263,-0.07625,0.02724
-0.55212,0.28334,0.78414,0.01155,-0.07589,0.02769
-0.55217,0.28347,0.78406,0.01123,-0.0762,0.02616
-0.5522,0.28355,0.78401,0.01346,-0.07756,0.02287
-0.55217,0.2836,0.78402,0.01391,-0.0737,0.02683
-0.5522,0.28371,0.78396,0.01395,-0.07381,0.0269
-0.55226,0.28368,0.78392,0.01465,-0.07471,0.02479
-0.55235,0.28362,0.78388,0.01022,-0.07762,0.02146
-0.55246,0.28363,0.7838,0.00989,-0.07924,0.02196
-0.55254,0.28362,0.78375,0.01162,-0.07807,0.02586
-0.55259,0.28365,0.7837,0.01082,-0.07826,0.02645
-0.55261,0.28374,0.78365,0.01198,-0.07843,0.0247
-0.5526,0.28386,0.78362,0.0132,-0.07773,0.0271
-0.55257,0.28398,0.78359,0.0136,-0.07436,0.02738
-0.55257,0.28413,0.78354,0.01433,-0.07478,0.02325
-0.55258,0.28421,0.78351,0.01168,-0.07498,0.02332
-0.55261,0.28425,0.78347,0.01301,-0.07862,0.02444
-0.55264,0.2844,0.78339,0.01274,-0.07932,0.02431
-0.55264,0.28454,0.78334,0.0141,-0.07644,0.02629
-0.55263,0.28462,0.78332,0.01164,-0.07295,0.02631
-0.55263,0.28474,0.78328,0.0115,-0.07387,0.02261
-0.55267,0.28484,0.78321,0.01396,-0.07619,0.02456
-0.5527,0.28495,0.78315,0.01007,-0.07624,0.0255
-0.55271,0.2851,0.78309,0.01008,-0.07639,0.02557
-0.55267,0.28516,0.7831,0.0147,-0.07738,0.0247
-0.55265,0.28524,0.78308,0.01294,-0.07456,0.02684
-0.55265,0.28533,0.78304,0.01426,-0.0755,0.02802
-0.55263,0.28535,0.78305,0.012,-0.07774,0.02824
-0.55262,0.2854,0.78304,0.01214,-0.07668,0.02694
-0.55262,0.2855,0.78301,0.00951,-0.07716,0.02603
-0.55261,0.28555,0.783,0.01323,-0.07715,0.0256
-0.55256,0.28558,0.78302,0.01339,-0.07846,0.03006
-0.5525,0.28564,0.78304,0.01309,-0.07586,0.02906
-0.5525,0.28576,0.783,0.01291,-0.07784,0.02743
-0.55262,0.28588,0.78287,0.01273,-0.07937,0.02389
-0.55266,0.28604,0.78278,0.0156,-0.08123,0.02528
-0.5526,0.28617,0.78277,0.01803,-0.07746,0.02843
-0.55271,0.28626,0.78267,0.01418,-0.07571,0.0289
-0.55287,0.28627,0.78255,0.01559,-0.07646,0.02849
-0.55297,0.28619,0.78251,0.00778,-0.0769,0.024
-0.55313,0.28622,0.78238,0.00907,-0.07666,0.02351
-0.55325,0.28625,0.78229,0.008,-0.07855,0.02355
-0.55334,0.28627,0.78222,0.01214,-0.07758,0.02519
-0.55336,0.28639,0.78216,0.01301,-0.07896,0.02801
-0.55333,0.2865,0.78214,0.01245,-0.07913,0.02926
-0.55334,0.2866,0.7821,0.01598,-0.07705,0.02631
-0.55331,0.28665,0.7821,0.01405,-0.07397,0.02492
-0.55319,0.28669,0.78217,0.01464,-0.07665,0.02507
-0.55304,0.28664,0.78229,0.01435,-0.07464,0.02282
-0.55286,0.28659,0.78244,0.01279,-0.07569,0.02863
-0.55269,0.28658,0.78256,0.01262,-0.07569,0.02851
-0.55257,0.28649,0.78268,0.01486,-0.08054,0.02843
-0.55252,0.28643,0.78274,0.01123,-0.07875,0.02772
-0.55251,0.28645,0.78274,0.01122,-0.07878,0.02772
-0.55248,0.28641,0.78277,0.01008,-0.07854,0.02575
-0.55244,0.28642,0.7828,0.01192,-0.07665,0.02552
-0.5524,0.28649,0.7828,0.00981,-0.07683,0.02645
-0.55239,0.28647,0.78282,0.01691,-0.07952,0.02558
-0.55246,0.28654,0.78274,0.01592,-0.08172,0.02776
-0.55257,0.28671,0.7826,0.01253,-0.0789,0.03324
-0.55255,0.28673,0.7826,0.01699,-0.0816,0.02228
-0.55268,0.28677,0.7825,0.01186,-0.08199,0.02893
-0.55285,0.28698,0.78231,0.00985,-0.07747,0.03123
-0.55299,0.28716,0.78214,0.00743,-0.07687,0.02775
-0.55311,0.28725,0.78202,0.00993,-0.07894,0.02612
-0.55312,0.28739,0.78196,0.00878,-0.07585,0.02647
-0.55314,0.2875,0.78191,0.01253,-0.07765,0.02419
-0.55321,0.28749,0.78186,0.01717,-0.07658,0.02527
-0.55327,0.28751,0.78181,0.01527,-0.07719,0.02563
-0.55327,0.28744,0.78183,0.01307,-0.08017,0.02436
-0.55323,0.28736,0.7819,0.0108,-0.07918,0.02829
-0.55319,0.28733,0.78193,0.01124,-0.07891,0.02957
-0.55317,0.2873,0.78196,0.01336,-0.07908,0.02532
-0.55317,0.28728,0.78197,0.01334,-0.08031,0.02891
-0.55319,0.28732,0.78194,0.01324,-0.0807,0.02936
-0.55318,0.28733,0.78195,0.01393,-0.08228,0.02712
-0.55318,0.28736,0.78193,0.01456,-0.07976,0.02488
-0.55306,0.28741,0.78199,0.01374,-0.07777,0.02651
-0.55299,0.28752,0.78201,0.01055,-0.07869,0.02711
-0.55298,0.28765,0.78197,0.01222,-0.07646,0.02968
-0.55303,0.28771,0.78191,0.01493,-0.07867,0.0276
-0.55306,0.28769,0.78189,0.01604,-0.0792,0.02344
-0.55304,0.28777,0.78188,0.01195,-0.07665,0.0285
-0.55304,0.28778,0.78187,0.01018,-0.0783,0.02746
-0.55309,0.28772,0.78186,0.01248,-0.07953,0.02449
-0.5531,0.28773,0.78185,0.00996,-0.07869,0.0265
-0.55312,0.28777,0.78182,0.01167,-0.07971,0.02552
-0.55314,0.28776,0.78181,0.0134,-0.07847,0.02639
-0.55315,0.28779,0.78179,0.01314,-0.07942,0.02496
-0.55313,0.28787,0.78178,0.01112,-0.08032,0.02689
-0.55312,0.28791,0.78177,0.01534,-0.08154,0.02959
-0.55318,0.28798,0.7817,0.01281,-0.07851,0.02538
-0.55319,0.28813,0.78164,0.01282,-0.07866,0.02545
-0.55316,0.28824,0.78162,0.01125,-0.07884,0.03024
-0.55323,0.2884,0.78151,0.01139,-0.07919,0.03442
-0.55333,0.28845,0.78142,0.01607,-0.07844,0.0258
-0.55329,0.28838,0.78148,0.01529,-0.07991,0.02432
-0.55318,0.28834,0.78157,0.01086,-0.07787,0.02902
-0.55317,0.28837,0.78156,0.01084,-0.07791,0.02903
-0.5532,0.28827,0.78158,0.01287,-0.08214,0.02721
-0.55322,0.28819,0.7816,0.01263,-0.0816,0.02829
-0.55322,0.28815,0.78161,0.01266,-0.08014,0.02654
-0.55321,0.28809,0.78164,0.01647,-0.08163,0.02482
-0.55322,0.28807,0.78164,0.01352,-0.08186,0.03025
-0.55326,0.28814,0.78159,0.01356,-0.08193,0.0303
-0.5533,0.28817,0.78154,0.01485,-0.08326,0.02702
-0.55333,0.28825,0.7815,0.01335,-0.08215,0.03047
-0.55331,0.28835,0.78147,0.01332,-0.08335,0.02932
-0.55328,0.28839,0.78148,0.01194,-0.0816,0.02699
-0.55327,0.28848,0.78145,0.01467,-0.08214,0.03154
-0.5533,0.28864,0.78138,0.01414,-0.0808,0.02908
-0.55329,0.28872,0.78135,0.01503,-0.07897,0.02746
-0.55328,0.28879,0.78133,0.01483,-0.07956,0.02638
-0.55332,0.28889,0.78127,0.01373,-0.0801,0.02797
-0.55337,0.2889,0.78122,0.01492,-0.08129,0.03054
-0.5534,0.28896,0.78118,0.01367,-0.08152,0.03039
-0.55345,0.28898,0.78114,0.01446,-0.08149,0.02782
-0.55349,0.28902,0.7811,0.01011,-0.08032,0.02707
-0.55356,0.2891,0.78102,0.01151,-0.08253,0.02562
-0.55363,0.28923,0.78092,0.01265,-0.08291,0.02455
-0.55368,0.28928,0.78086,0.0136,-0.08179,0.03084
-0.55372,0.28938,0.7808,0.01311,-0.07905,0.02925
-0.55373,0.28941,0.78079,0.01242,-0.08022,0.02712
-0.55374,0.28937,0.78079,0.01223,-0.08478,0.03182
-0.55376,0.28944,0.78075,0.012,-0.084,0.03186
-0.55374,0.28952,0.78073,0.01213,-0.08154,0.02708
-0.55378,0.28958,0.78069,0.01348,-0.08127,0.02723
-0.55376,0.28962,0.78069,0.01671,-0.08034,0.02727
-0.55371,0.28969,0.7807,0.01639,-0.07906,0.02831
-0.55372,0.28966,0.7807,0.01781,-0.07919,0.02928
-0.55376,0.28967,0.78067,0.01636,-0.08406,0.02646
-0.55377,0.2896,0.78068,0.01447,-0.08326,0.02378
-0.55376,0.28952,0.78072,0.0091,-0.08241,0.02858
-0.5538,0.28951,0.78069,0.01123,-0.08315,0.02886
-0.55386,0.28949,0.78066,0.01472,-0.08504,0.03186
-0.55387,0.28948,0.78066,0.01247,-0.0844,0.0281
-0.55384,0.28954,0.78065,0.01476,-0.08491,0.02629
-0.55381,0.28968,0.78062,0.013,-0.08356,0.02982
-0.55379,0.28979,0.7806,0.01453,-0.08452,0.02801
-0.55381,0.28994,0.78053,0.01488,-0.08275,0.02936
-0.5538,0.29012,0.78047,0.01515,-0.08179,0.03038
-0.55378,0.29022,0.78045,0.01433,-0.08152,0.0283
-0.55379,0.29027,0.78042,0.01441,-0.08203,0.027
-0.55388,0.29039,0.78031,0.0145,-0.08215,0.02711
-0.55391,0.29039,0.78029,0.01242,-0.0815,0.02997
-0.5539,0.29044,0.78028,0.01144,-0.08429,0.0294
-0.5539,0.29054,0.78025,0.01244,-0.08259,0.03131
-0.55387,0.29057,0.78025,0.01312,-0.08326,0.02816
-0.55384,0.29062,0.78025,0.01296,-0.08277,0.03028
-0.55382,0.29077,0.78021,0.01507,-0.08371,0.02959
-0.55381,0.29088,0.78018,0.01508,-0.08324,0.02949
-0.55376,0.29096,0.78018,0.01428,-0.08349,0.03042
-0.55371,0.29112,0.78016,0.0146,-0.0837,0.02973
-0.55367,0.2912,0.78016,0.01383,-0.08226,0.02909
-0.55365,0.29131,0.78013,0.01253,-0.0814,0.0313
-0.55364,0.29136,0.78012,0.01597,-0.08195,0.03052
-0.55362,0.29139,0.78012,0.01459,-0.08513,0.03182
-0.55363,0.29148,0.78008,0.01107,-0.08291,0.02958
-0.55372,0.29163,0.77996,0.01132,-0.08381,0.02664
-0.55377,0.29175,0.77988,0.01576,-0.08476,0.02894
-0.55372,0.29186,0.77987,0.01557,-0.083,0.03209
-0.55374,0.29198,0.77981,0.01419,-0.08429,0.03156
-0.55387,0.29199,0.77971,0.01661,-0.08379,0.02999
-0.554,0.29199,0.77962,0.01386,-0.08231,0.02743
-0.55411,0.292,0.77954,0.01386,-0.08494,0.02745
-0.55422,0.29193,0.77949,0.01049,-0.08566,0.02881
-0.55432,0.29199,0.7794,0.01219,-0.08695,0.03056
-0.55432,0.29203,0.77938,0.01177,-0.08508,0.03045
-0.55428,0.29207,0.7794,0.01327,-0.08372,0.02849
-0.55428,0.29218,0.77936,0.0132,-0.08559,0.02946
-0.55428,0.2923,0.77931,0.01552,-0.08439,0.03161
-0.55423,0.29236,0.77933,0.0166,-0.08473,0.02931
-0.55417,0.29247,0.77932,0.01341,-0.08555,0.02869
-0.55414,0.29259,0.7793,0.0139,-0.08355,0.03119
-0.55409,0.29269,0.7793,0.01785,-0.07934,0.02862
-0.55399,0.29277,0.77933,0.01868,-0.08062,0.02915
-0.55387,0.29278,0.77942,0.01895,-0.08339,0.03147
-0.55373,0.29274,0.77954,0.01871,-0.08162,0.03133
-0.55367,0.29268,0.7796,0.0129,-0.08443,0.03058
-0.55363,0.29263,0.77965,0.0083,-0.08615,0.03037
-0.55354,0.29253,0.77975,0.0119,-0.08643,0.02746
-0.55342,0.29252,0.77984,0.01092,-0.08492,0.02601
-0.55328,0.29249,0.77995,0.01202,-0.08544,0.02867
-0.55311,0.29245,0.78008,0.01405,-0.08524,0.03021
-0.553,0.29247,0.78016,0.0141,-0.08554,0.03196
-0.55294,0.29255,0.78017,0.01404,-0.08562,0.03195
-0.55292,0.29252,0.78019,0.01669,-0.08695,0.03417
-0.55289,0.2926,0.78018,0.0138,-0.08421,0.03189
-0.55289,0.29267,0.78016,0.01167,-0.08514,0.02889
-0.5529,0.29269,0.78014,0.01434,-0.08604,0.02824
-0.55283,0.29274,0.78017,0.01651,-0.08525,0.03213
-0.5528,0.29287,0.78015,0.01648,-0.08538,0.03216
-0.55285,0.29288,0.78011,0.01481,-0.08419,0.03142
-0.55294,0.29285,0.78006,0.01509,-0.08545,0.02657
-0.553,0.29286,0.78001,0.01209,-0.08536,0.02911
-0.55302,0.29288,0.77998,0.01082,-0.08524,0.02878
-0.55303,0.29283,0.78,0.01594,-0.08645,0.03078
-0.55302,0.29282,0.78001,0.01581,-0.08527,0.03092
-0.55304,0.2928,0.78,0.0126,-0.08531,0.03096
-0.5531,0.29277,0.77997,0.01456,-0.08641,0.03064
-0.55318,0.29283,0.77989,0.01474,-0.08807,0.02945
-0.55323,0.29287,0.77984,0.01545,-0.0881,0.02807
-0.5532,0.29291,0.77985,0.01641,-0.08561,0.03031
-0.55317,0.29305,0.77981,0.01638,-0.08576,0.03035
-0.55317,0.29306,0.77981,0.01405,-0.08348,0.03031
-0.55317,0.29306,0.77981,0.01543,-0.08534,0.02901
-0.55318,0.29315,0.77977,0.01678,-0.0872,0.02884
-0.55319,0.29317,0.77975,0.01523,-0.08614,0.0306
-0.55325,0.29324,0.77969,0.01802,-0.08488,0.02891
-0.55333,0.2933,0.77961,0.01523,-0.08595,0.03091
-0.5534,0.29335,0.77954,0.01545,-0.08531,0.03
-0.55347,0.29338,0.77948,0.0116,-0.08438,0.03371
-0.55352,0.29345,0.77942,0.00898,-0.08646,0.03201
-0.55356,0.29347,0.77938,0.01266,-0.08576,0.02913
-0.55359,0.29347,0.77935,0.01531,-0.08571,0.02756
-0.55362,0.29354,0.77931,0.01705,-0.0861,0.02961
-0.55367,0.29356,0.77927,0.01524,-0.08703,0.03045
-0.5537,0.2936,0.77923,0.01084,-0.08857,0.03283
-0.55371,0.29369,0.77919,0.01004,-0.08798,0.03418
-0.55376,0.29369,0.77915,0.01486,-0.08668,0.02869
-0.55382,0.29377,0.77908,0.0163,-0.08673,0.03014
-0.55379,0.29386,0.77907,0.01715,-0.08475,0.03117
-0.55377,0.2939,0.77907,0.01457,-0.08482,0.03275
-0.5538,0.29397,0.77902,0.01694,-0.08541,0.03298
-0.55385,0.29393,0.77899,0.01481,-0.08644,0.02876
-0.5539,0.29389,0.77898,0.01363,-0.08393,0.02784
-0.55395,0.29389,0.77895,0.01493,-0.08544,0.03101
-0.55398,0.29387,0.77893,0.01287,-0.08779,0.03156
-0.55398,0.29385,0.77894,0.01592,-0.08822,0.03237
-0.55398,0.29391,0.77892,0.0138,-0.09026,0.03018
-0.55398,0.294,0.77888,0.01507,-0.08765,0.03272
-0.55399,0.29408,0.77885,0.01398,-0.08749,0.03159
-0.55399,0.29415,0.77882,0.01293,-0.08631,0.0315
-0.55398,0.29427,0.77878,0.01354,-0.08672,0.03091
-0.55396,0.29434,0.77877,0.01468,-0.08579,0.03146
-0.55396,0.29442,0.77874,0.01484,-0.08595,0.03129
-0.55397,0.29452,0.77869,0.01528,-0.08662,0.0303
-0.55396,0.29459,0.77867,0.01317,-0.0869,0.0312
-0.55395,0.29467,0.77865,0.01332,-0.08657,0.03214
-0.55395,0.29472,0.77863,0.01384,-0.08525,0.03156
-0.55394,0.29473,0.77863,0.01584,-0.08789,0.03022
-0.55393,0.29471,0.77864,0.0146,-0.08748,0.03054
-0.55395,0.2948,0.7786,0.01461,-0.08757,0.03059
-0.55397,0.2948,0.77858,0.01455,-0.09105,0.03337
-0.55393,0.29485,0.77859,0.01667,-0.08892,0.03191
-0.55393,0.29496,0.77855,0.01667,-0.08903,0.03195
-0.5539,0.29499,0.77856,0.01368,-0.08835,0.03354
-0.55395,0.29506,0.7785,0.01417,-0.08925,0.03142
-0.554,0.29512,0.77844,0.01304,-0.09073,0.03093
-0.55399,0.29521,0.77842,0.01186,-0.08803,0.0328
-0.55401,0.2953,0.77836,0.01482,-0.08957,0.02931
-0.55407,0.29549,0.77826,0.01487,-0.08976,0.02942
-0.55405,0.2956,0.77823,0.01795,-0.08827,0.03109
-0.55405,0.29574,0.77817,0.01833,-0.08636,0.03395
-0.55411,0.29584,0.77809,0.01579,-0.08652,0.03276
-0.55418,0.29588,0.77803,0.0139,-0.08801,0.02887
-0.55426,0.29591,0.77796,0.01362,-0.0873,0.02843
-0.55432,0.29594,0.77791,0.01382,-0.08793,0.032
-0.55435,0.29599,0.77786,0.0145,-0.08839,0.02949
-0.55435,0.29602,0.77786,0.01437,-0.0895,0.0329
-0.55434,0.29616,0.77781,0.01503,-0.08893,0.03168
-0.55437,0.2963,0.77774,0.01738,-0.09063,0.03304
-0.55438,0.29641,0.77768,0.01344,-0.08854,0.03192
-0.55436,0.29657,0.77764,0.01462,-0.08774,0.03078
-0.55433,0.2967,0.7776,0.01339,-0.08692,0.02943
-0.5543,0.29679,0.7776,0.01528,-0.08752,0.02969
-0.55429,0.29693,0.77755,0.01567,-0.08793,0.03159
-0.55426,0.29704,0.77753,0.01458,-0.0865,0.03228
-0.55423,0.29711,0.77752,0.01532,-0.08855,0.03255
-0.55423,0.29728,0.77746,0.01405,-0.0889,0.03286
-0.55422,0.29736,0.77744,0.01587,-0.08786,0.03312
-0.55423,0.29746,0.77739,0.01294,-0.08994,0.03129
-0.55423,0.29755,0.77735,0.01375,-0.09026,0.03287
-0.55424,0.29765,0.77731,0.01447,-0.0906,0.0326
-0.55425,0.29777,0.77725,0.01368,-0.09044,0.03412
-0.55427,0.29788,0.7772,0.01507,-0.08917,0.03306
-0.55428,0.29796,0.77716,0.0156,-0.08897,0.03261
-0.55431,0.29806,0.7771,0.01409,-0.08816,0.03122
-0.55433,0.29815,0.77705,0.01365,-0.09074,0.02945
-0.55433,0.2982,0.77703,0.01354,-0.0928,0.03731
-0.55433,0.29834,0.77697,0.01362,-0.08965,0.03592
-0.55436,0.29848,0.7769,0.01214,-0.09067,0.03229
-0.55444,0.2986,0.7768,0.01635,-0.08771,0.03173
-0.55444,0.29878,0.77673,0.01609,-0.08853,0.03141
-0.55439,0.29889,0.77672,0.01928,-0.08713,0.03235
-0.55437,0.29885,0.77675,0.01728,-0.08502,0.03218
-0.55435,0.29876,0.7768,0.01621,-0.08772,0.03166
-0.55433,0.29864,0.77687,0.01505,-0.0888,0.0293
-0.55431,0.29851,0.77693,0.01331,-0.09083,0.03005
-0.5543,0.29845,0.77696,0.01272,-0.09154,0.03264
-0.55427,0.29839,0.777,0.01434,-0.09145,0.03142
-0.55423,0.29835,0.77705,0.01546,-0.09234,0.03289
-0.55416,0.29835,0.7771,0.01513,-0.09272,0.03304
-0.55411,0.29839,0.77712,0.01422,-0.08742,0.03321
-0.5541,0.29839,0.77712,0.01485,-0.0888,0.03179
-0.55407,0.29841,0.77714,0.01385,-0.09036,0.03239
-0.55404,0.29855,0.77711,0.01381,-0.0905,0.03242
-0.55401,0.29861,0.7771,0.01495,-0.09058,0.03363
-0.554,0.29864,0.7771,0.01544,-0.08981,0.03372
-0.55399,0.29876,0.77706,0.01543,-0.08993,0.03376
-0.55398,0.29877,0.77706,0.01504,-0.08958,0.03522
-0.55401,0.29874,0.77705,0.01649,-0.09044,0.03112
-0.55407,0.29879,0.77699,0.01514,-0.0922,0.03499
-0.55413,0.29881,0.77694,0.01504,-0.09036,0.03424
-0.55418,0.29883,0.7769,0.01277,-0.09266,0.03285
-0.55423,0.29886,0.77685,0.01555,-0.09254,0.0308
-0.55428,0.29889,0.7768,0.01333,-0.0923,0.03169
-0.55432,0.29889,0.77678,0.01283,-0.09111,0.03221
-0.55436,0.29894,0.77673,0.01726,-0.0913,0.03311
-0.55439,0.29894,0.7767,0.01543,-0.08987,0.03203
-0.55444,0.29888,0.77669,0.0147,-0.09344,0.03491
-0.55445,0.29896,0.77665,0.01373,-0.09142,0.03423
-0.55451,0.29901,0.77659,0.01356,-0.09152,0.03455
-0.55458,0.29901,0.77654,0.0172,-0.09251,0.02949
-0.55456,0.29908,0.77653,0.01671,-0.09319,0.03047
-0.55456,0.29913,0.77651,0.01682,-0.09009,0.035
-0.55462,0.29918,0.77645,0.01487,-0.09041,0.03315
-0.55469,0.29921,0.77639,0.01648,-0.08906,0.03173
-0.55476,0.29914,0.77637,0.01315,-0.09218,0.03137
-0.55481,0.29917,0.77632,0.01362,-0.0922,0.03122
-0.55485,0.29918,0.77628,0.0144,-0.09042,0.03193
-0.55488,0.29915,0.77628,0.01394,-0.09257,0.03407
-0.55489,0.2992,0.77625,0.01466,-0.09381,0.03338
-0.5549,0.29927,0.77621,0.01671,-0.09388,0.03386
-0.55492,0.29936,0.77616,0.0146,-0.09253,0.03546
-0.55493,0.29943,0.77613,0.01587,-0.09181,0.03195
-0.55493,0.29951,0.7761,0.0157,-0.09114,0.03214
-0.55492,0.29957,0.77609,0.01563,-0.09181,0.03465
-0.55492,0.29968,0.77604,0.01421,-0.09122,0.03472
-0.5549,0.29975,0.77602,0.01377,-0.09322,0.0322
-0.55489,0.29978,0.77603,0.01576,-0.09313,0.03351
-0.55488,0.29987,0.776,0.0164,-0.09276,0.03431
-0.55491,0.29991,0.77596,0.01759,-0.09232,0.03421
-0.55493,0.29991,0.77595,0.01513,-0.0931,0.03443
-0.55494,0.29999,0.77591,0.01478,-0.09163,0.03407
-0.55498,0.30006,0.77585,0.0163,-0.09335,0.03579
-0.555,0.30008,0.77583,0.01613,-0.09199,0.03569
-0.55502,0.30012,0.77581,0.0151,-0.09308,0.03369
-0.55502,0.30015,0.77579,0.01626,-0.0943,0.03373
-0.55502,0.30021,0.77577,0.01693,-0.09101,0.0343
-0.55501,0.30023,0.77577,0.01555,-0.09359,0.03464
-0.55502,0.30032,0.77572,0.01556,-0.09369,0.03469
-0.55501,0.30035,0.77572,0.01511,-0.09256,0.03497
-0.55504,0.30041,0.77567,0.01279,-0.09245,0.03182
-0.55509,0.30047,0.77562,0.01336,-0.09171,0.03334
-0.55509,0.30057,0.77558,0.01503,-0.09271,0.03572
-0.5551,0.30065,0.77554,0.01851,-0.09133,0.03697
-0.55517,0.30071,0.77547,0.01799,-0.09159,0.03731
-0.55522,0.30069,0.77544,0.0194,-0.09372,0.03006
-0.55528,0.30064,0.77542,0.01143,-0.09573,0.0326
-0.55536,0.30071,0.77533,0.0115,-0.0958,0.03268
-0.55541,0.30071,0.77529,0.01389,-0.09457,0.03624
-0.55543,0.30077,0.77526,0.01756,-0.09543,0.03571
-0.55544,0.30086,0.77522,0.0212,-0.09619,0.03354
-0.55544,0.301,0.77516,0.01719,-0.09435,0.03436
-0.55545,0.30115,0.77509,0.01583,-0.09366,0.03681
-0.55547,0.30129,0.77502,0.01607,-0.09652,0.03569
-0.55546,0.30147,0.77496,0.01332,-0.09511,0.03299
-0.55544,0.30157,0.77494,0.01887,-0.09257,0.03283
-0.55544,0.30172,0.77488,0.01746,-0.09138,0.03429
-0.55546,0.30183,0.77482,0.01542,-0.09262,0.03531
-0.55549,0.30191,0.77477,0.0135,-0.09449,0.03408
-0.55549,0.30208,0.7747,0.01587,-0.096,0.03382
-0.55548,0.30224,0.77465,0.01514,-0.09408,0.03485
-0.5555,0.30235,0.7746,0.01477,-0.09371,0.03439
-0.55553,0.3025,0.77451,0.015,-0.09379,0.03429
-0.55556,0.3026,0.77446,0.01376,-0.09404,0.03373
-0.55555,0.30267,0.77443,0.0165,-0.0952,0.0334
-0.55556,0.30278,0.77438,0.01383,-0.09311,0.03526
-0.55555,0.3028,0.77438,0.01788,-0.09364,0.03484
-0.55553,0.30292,0.77435,0.01549,-0.09642,0.03507
-0.55551,0.30301,0.77433,0.01421,-0.09528,0.03508
-0.55553,0.3031,0.77428,0.0174,-0.09416,0.03277
-0.55557,0.30322,0.7742,0.01828,-0.09532,0.03187
-0.55559,0.30331,0.77416,0.01288,-0.09442,0.03868
-0.55564,0.30346,0.77406,0.01159,-0.09538,0.03583
-0.55573,0.3036,0.77394,0.01467,-0.09394,0.03451
-0.55572,0.30374,0.77389,0.01407,-0.0937,0.03452
-0.55572,0.30384,0.77385,0.01659,-0.09606,0.03508
-0.55581,0.30395,0.77375,0.01789,-0.09346,0.03756
-0.55588,0.304,0.77368,0.01447,-0.093,0.03293
-0.55595,0.30397,0.77364,0.01408,-0.09415,0.03427
-0.55601,0.30401,0.77358,0.01475,-0.09547,0.03604
-0.55605,0.30406,0.77353,0.01358,-0.09384,0.03683
-0.55605,0.30407,0.77353,0.0141,-0.09667,0.03539
-0.556,0.30407,0.77357,0.01805,-0.09611,0.03384
-0.5559,0.30409,0.77363,0.01772,-0.09391,0.03724
-0.55583,0.30408,0.77368,0.01586,-0.09405,0.03403
-0.55579,0.3041,0.7737,0.0165,-0.09398,0.03344
-0.55572,0.30412,0.77375,0.0143,-0.09576,0.03397
-0.55564,0.30415,0.77379,0.01472,-0.09512,0.03447
-0.5556,0.30417,0.77381,0.01465,-0.09579,0.03475
-0.55555,0.30417,0.77385,0.01662,-0.0942,0.03484
-0.55549,0.30416,0.77389,0.01687,-0.09339,0.03321
-0.55546,0.30414,0.77393,0.01542,-0.09553,0.03451
-0.55544,0.30416,0.77394,0.01557,-0.09473,0.03513
-0.55542,0.30411,0.77397,0.01706,-0.09761,0.03602
-0.5554,0.30406,0.774,0.01667,-0.09554,0.03624
-0.5554,0.30407,0.77399,0.01699,-0.09779,0.03463
-0.55538,0.30408,0.77401,0.01575,-0.09686,0.03518
-0.55534,0.30407,0.77404,0.01453,-0.09594,0.03709
-0.5553,0.30412,0.77405,0.01503,-0.09788,0.03593
-0.55524,0.30416,0.77407,0.01395,-0.09531,0.03305
-0.5552,0.30415,0.77411,0.01531,-0.09749,0.03592
-0.55515,0.30422,0.77412,0.01354,-0.09785,0.03834
-0.55514,0.30432,0.77409,0.01395,-0.0975,0.03753
-0.55519,0.30442,0.77401,0.01233,-0.09842,0.03626
-0.55523,0.30457,0.77392,0.01418,-0.09931,0.03491
-0.5552,0.30472,0.77388,0.01524,-0.09598,0.03647
-0.5553,0.3048,0.77378,0.02039,-0.09375,0.03628
-0.55553,0.30489,0.77358,0.02037,-0.09519,0.03634
-0.5558,0.30485,0.7734,0.01805,-0.09547,0.03444
-0.55604,0.30469,0.77329,0.01716,-0.09261,0.02995
-0.55616,0.30456,0.77326,0.01888,-0.09324,0.03266
-0.55622,0.30427,0.77333,0.02146,-0.09886,0.03422
-0.55631,0.30406,0.77335,0.01726,-0.10177,0.03732
-0.55636,0.30385,0.77339,0.0132,-0.10451,0.03814
-0.55631,0.30372,0.77348,0.00427,-0.09925,0.03805
-0.55617,0.30379,0.77355,0.00529,-0.09733,0.03613
-0.55601,0.30386,0.77364,0.0146,-0.10087,0.03409
-0.55588,0.30402,0.77367,0.01389,-0.09132,0.03566
-0.55579,0.30432,0.77362,0.01566,-0.09248,0.03523
-0.55578,0.30448,0.77356,0.01981,-0.08934,0.03286
-0.55573,0.30454,0.77358,0.01886,-0.09296,0.03334
-0.55572,0.30448,0.7736,0.01945,-0.096,0.03678
-0.5558,0.30438,0.77359,0.01786,-0.09767,0.04061
-0.55593,0.30421,0.77356,0.01794,-0.09984,0.03879
-0.55612,0.30412,0.77346,0.01689,-0.10118,0.0396
-0.55626,0.30409,0.77337,0.01597,-0.09952,0.03637
-0.55639,0.30407,0.77328,0.01497,-0.09759,0.03463
-0.55655,0.30419,0.77312,0.01513,-0.09849,0.03666
-0.55671,0.30438,0.77293,0.01481,-0.09987,0.0356
-0.55681,0.30455,0.77279,0.01123,-0.09572,0.03757
-0.55678,0.30478,0.77272,0.00969,-0.09337,0.03787
-0.55669,0.30495,0.77272,0.01257,-0.09278,0.03152
-0.55671,0.30488,0.77274,0.02876,-0.09725,0.02812
-0.55687,0.30481,0.77265,0.02389,-0.1036,0.03761
-0.55704,0.30489,0.77249,0.01491,-0.1043,0.04896
-0.55721,0.30509,0.77229,0.01577,-0.10723,0.04538
-0.55718,0.30539,0.77219,0.02371,-0.09633,0.04103
-0.55715,0.30584,0.77204,0.02449,-0.09273,0.04403
-0.55731,0.30613,0.7718,0.02742,-0.08789,0.04042
-0.55772,0.3062,0.77149,0.02869,-0.08812,0.02788
-0.55826,0.30606,0.77115,0.02376,-0.0872,0.02849
-0.55889,0.30578,0.77081,0.01832,-0.09226,0.03118
-0.55952,0.30537,0.77051,0.00317,-0.09582,0.03555
-0.56025,0.30493,0.77016,0.00123,-0.09648,0.03327
-0.56088,0.30453,0.76986,-0.00234,-0.10208,0.03184
-0.56128,0.30429,0.76965,-0.00177,-0.10808,0.03339
-0.56143,0.30434,0.76953,-0.00162,-0.10812,0.03351
-0.56132,0.30438,0.76959,0.01145,-0.10397,0.03563
-0.56102,0.30454,0.76974,0.02028,-0.10462,0.03937
-0.56069,0.30475,0.7699,0.02313,-0.10128,0.04174
-0.56043,0.30501,0.76999,0.03022,-0.09917,0.04256
-0.56023,0.30528,0.77003,0.02825,-0.09798,0.04323
-0.56008,0.30557,0.77003,0.02577,-0.0992,0.03931
-0.55999,0.30584,0.76998,0.02352,-0.09715,0.03722
-0.55992,0.30611,0.76992,0.0166,-0.09729,0.03698
-0.55993,0.30642,0.7698,0.01966,-0.09647,0.03487
-0.5599,0.30663,0.76973,0.01347,-0.09333,0.03387
-0.55988,0.3067,0.76972,0.01331,-0.09561,0.03494
-0.5599,0.30673,0.76969,0.01248,-0.0969,0.03655
-0.55995,0.30671,0.76966,0.01001,-0.09709,0.03354
-0.55998,0.30665,0.76966,0.01015,-0.09288,0.03005
-0.55995,0.30656,0.76972,0.01013,-0.09362,0.03414
-0.5599,0.30632,0.76986,0.01358,-0.09823,0.03513
-0.5599,0.30597,0.76999,0.01748,-0.10635,0.04026
-0.55994,0.30575,0.77006,0.01493,-0.10622,0.04501
-0.55996,0.30569,0.77006,0.01377,-0.10675,0.04398
-0.55997,0.30574,0.77004,0.01643,-0.10775,0.04208
-0.55995,0.30593,0.76998,0.02274,-0.10331,0.04118
-0.55988,0.30617,0.76994,0.02946,-0.09623,0.0388
-0.55989,0.30647,0.76981,0.0305,-0.09213,0.03944
-0.55997,0.30664,0.76967,0.02895,-0.09242,0.03259
-0.56016,0.30667,0.76953,0.02401,-0.09427,0.02959
-0.5604,0.30663,0.76937,0.01927,-0.09649,0.03053
-0.56058,0.30654,0.76928,0.0061,-0.09802,0.03636
-0.56069,0.30647,0.76922,0.00596,-0.10009,0.03296
-0.56071,0.30648,0.7692,0.0088,-0.10183,0.03141
-0.56066,0.30651,0.76923,0.01013,-0.10465,0.03266
-0.56053,0.30659,0.76929,0.01695,-0.09982,0.03642
-0.56036,0.30674,0.76936,0.01937,-0.09857,0.03886
-0.56016,0.30685,0.76946,0.01996,-0.10113,0.03877
-0.56,0.30694,0.76954,0.01787,-0.10618,0.04585
-0.55986,0.30717,0.76954,0.01737,-0.10573,0.04131
-0.55975,0.30746,0.76951,0.02088,-0.10017,0.03751
-0.55962,0.30769,0.76952,0.0206,-0.09997,0.03604
-0.55951,0.30801,0.76946,0.0205,-0.1003,0.0361
-0.55936,0.30817,0.76951,0.01302,-0.09557,0.038
-0.55921,0.30819,0.76961,0.01349,-0.09506,0.0307
-0.55908,0.30821,0.7697,0.01297,-0.09696,0.03188
-0.55899,0.30821,0.76977,0.0112,-0.09735,0.03402
-0.55885,0.30826,0.76985,0.00877,-0.09273,0.03303
-0.55863,0.30821,0.77002,0.01674,-0.09358,0.03864
-0.55846,0.30798,0.77024,0.0189,-0.1009,0.03521
-0.55836,0.3077,0.77043,0.01855,-0.10369,0.03806
-0.55831,0.30748,0.77055,0.02183,-0.10399,0.04011
-0.55834,0.30733,0.77058,0.01973,-0.10609,0.04425
-0.55831,0.30723,0.77065,0.01911,-0.10934,0.04568
-0.55828,0.30719,0.77069,0.01656,-0.10844,0.03611
-0.55828,0.30744,0.77058,0.01574,-0.10515,0.03351
-0.55818,0.30778,0.77053,0.01838,-0.0989,0.0366
-0.55784,0.30802,0.77067,0.02168,-0.09671,0.04003
-0.55751,0.30815,0.77086,0.02571,-0.09696,0.04356
-0.55746,0.3082,0.77087,0.02514,-0.09064,0.04071
-0.55759,0.30808,0.77083,0.02827,-0.09674,0.03685
-0.55786,0.30783,0.77073,0.02762,-0.09872,0.03803
-0.55822,0.30754,0.77059,0.0233,-0.11064,0.04501
-0.55883,0.30751,0.77016,0.02629,-0.11257,0.04423
-0.5596,0.30767,0.76954,0.01994,-0.11108,0.04597
-0.56023,0.30793,0.76897,0.00409,-0.11121,0.04498
-0.56074,0.30834,0.76843,-0.02091,-0.09719,0.0215
-0.56116,0.30884,0.76793,-0.02006,-0.09308,0.01422
-0.56126,0.30925,0.76769,-0.00135,-0.08822,0.02274
-0.56096,0.30971,0.76773,0.00453,-0.0889,0.03087
-0.56035,0.31004,0.76804,0.01489,-0.08907,0.03627
-0.55978,0.31006,0.76845,0.0368,-0.10012,0.0403
-0.55926,0.30989,0.76889,0.04019,-0.10531,0.04346
-0.55886,0.30962,0.76929,0.03739,-0.11442,0.0448
-0.5585,0.30947,0.76961,0.02838,-0.11003,0.05131
-0.55826,0.30951,0.76977,0.02426,-0.11149,0.04946
-0.55808,0.30966,0.76985,0.02082,-0.10918,0.04635
-0.55794,0.30982,0.76988,0.02353,-0.10155,0.04208
-0.55779,0.31008,0.76989,0.02527,-0.09989,0.04194
-0.55767,0.3103,0.76988,0.02906,-0.097,0.04092
-0.55775,0.31046,0.76976,0.02267,-0.09589,0.03929
-0.55802,0.31048,0.76955,0.025,-0.09477,0.03985
-0.55849,0.31039,0.76925,0.03465,-0.10527,0.03902
-0.55933,0.3101,0.76876,0.02894,-0.11151,0.0961
-0.56208,0.3091,0.76715,0.04306,-0.07402,0.13681
-0.5647,0.30553,0.76665,-0.02316,-0.10084,-0.15659
-0.5603,0.30555,0.76987,-0.06644,-0.13375,0.12635
-0.55994,0.31048,0.76817,0.0004,-0.10373,0.20425
-0.56333,0.31241,0.76489,0.04967,-0.06794,0.1516
-0.56204,0.31105,0.76639,0.08098,-0.10706,-0.00565
-0.55905,0.31008,0.76897,0.02028,-0.0772,0.04396
-0.55902,0.31045,0.76884,0.00563,-0.10192,0.07639
-0.55971,0.3106,0.76827,-0.01178,-0.1267,0.01717
-0.56007,0.31087,0.76791,0.0171,-0.10337,0.0284
-0.55929,0.31096,0.76844,0.01834,-0.08997,0.0268
-0.55805,0.31095,0.76934,0.00052,-0.09559,0.04787
-0.55884,0.31115,0.76869,0.01972,-0.11236,0.05288
-0.55974,0.31128,0.76799,0.03139,-0.10981,0.04729
-0.55916,0.3111,0.76848,0.039,-0.09738,0.03595
-0.55873,0.31089,0.76887,0.02229,-0.10056,0.04319
-0.55888,0.31062,0.76887,0.0103,-0.10709,0.04189
-0.55911,0.31037,0.7688,0.01293,-0.11129,0.03224
-0.55934,0.31039,0.76863,0.01944,-0.09956,0.04681
-0.55942,0.31057,0.7685,0.01952,-0.09974,0.04695
-0.55961,0.31054,0.76838,0.01621,-0.1049,0.03456
-0.55985,0.31055,0.7682,0.01836,-0.10684,0.03348
-0.55982,0.31069,0.76816,0.01618,-0.10524,0.0398
-0.55984,0.31074,0.76812,0.01544,-0.10894,0.03472
-0.55994,0.31084,0.76801,0.01609,-0.10945,0.03555
-0.55995,0.31108,0.76791,0.01594,-0.10493,0.03893
-0.55986,0.31136,0.76786,0.01687,-0.10451,0.04165
-0.55974,0.31158,0.76786,0.01732,-0.10102,0.03701
-0.5596,0.31183,0.76786,0.01359,-0.10241,0.03587
-0.55938,0.31213,0.7679,0.01134,-0.10673,0.04023
-0.55907,0.31246,0.76799,0.0095,-0.10337,0.04118
-0.55887,0.31285,0.76797,0.01386,-0.1028,0.04056
-0.55873,0.31309,0.76798,0.01906,-0.09523,0.04121
-0.55851,0.31316,0.76811,0.02634,-0.09651,0.03923
-0.5585,0.31305,0.76816,0.02805,-0.09787,0.03784
-0.55867,0.31281,0.76814,0.02579,-0.10078,0.03912
-0.55887,0.31251,0.76811,0.01708,-0.1047,0.04044
-0.55914,0.31222,0.76804,0.01296,-0.10615,0.04124
-0.55937,0.31191,0.76799,0.01364,-0.10871,0.03906
-0.55959,0.3116,0.76795,0.01649,-0.11005,0.03962
-0.55975,0.3114,0.76792,0.01684,-0.10962,0.03931
-0.55985,0.31128,0.7679,0.01606,-0.1108,0.03931
-0.55988,0.31134,0.76785,0.01596,-0.11139,0.04213
-0.55984,0.31148,0.76783,0.01371,-0.10903,0.04194
-0.55972,0.31172,0.76782,0.01536,-0.10699,0.0416
-0.55955,0.31204,0.76781,0.01536,-0.10472,0.04104
-0.55934,0.3123,0.76785,0.02184,-0.10222,0.03946
-0.55915,0.31253,0.7679,0.02025,-0.10172,0.03856
-0.55899,0.31279,0.76791,0.02259,-0.10134,0.04278
-0.55896,0.31295,0.76786,0.01955,-0.09988,0.04387
-0.559,0.31295,0.76784,0.01522,-0.10157,0.04024
-0.55907,0.31286,0.76782,0.01422,-0.10299,0.03828
-0.55919,0.31271,0.7678,0.01564,-0.10208,0.0381
-0.55934,0.31257,0.76775,0.01531,-0.10504,0.0397
-0.55951,0.31244,0.76767,0.0141,-0.10653,0.03807
-0.55966,0.31231,0.76761,0.01363,-0.1069,0.03929
-0.55977,0.31215,0.7676,0.01346,-0.1061,0.03956
-0.55987,0.31205,0.76757,0.01507,-0.10587,0.0386
-0.55995,0.31194,0.76756,0.01787,-0.11107,0.04041
-0.55995,0.31186,0.76759,0.01491,-0.10747,0.04259
-0.55996,0.3119,0.76756,0.01605,-0.1065,0.04184
-0.56001,0.31198,0.7675,0.01936,-0.10577,0.04133
-0.56,0.31202,0.76748,0.02122,-0.10696,0.03763
-0.5599,0.31206,0.76754,0.02064,-0.10619,0.04133
-0.55982,0.3122,0.76754,0.01983,-0.10474,0.04484
-0.55981,0.31229,0.76751,0.02026,-0.10396,0.04486
-0.55987,0.31227,0.76748,0.02226,-0.1062,0.03855
-0.55995,0.31232,0.7674,0.02045,-0.10537,0.0395
-0.56003,0.31237,0.76732,0.01896,-0.10471,0.0408
-0.56008,0.31235,0.76729,0.01679,-0.10853,0.03953
-0.56018,0.31239,0.76721,0.01697,-0.10791,0.04175
-0.56029,0.31248,0.76709,0.01462,-0.10758,0.0417
-0.56035,0.31251,0.76704,0.01523,-0.10929,0.04171
-0.56042,0.31259,0.76695,0.01738,-0.10842,0.04333
-0.56047,0.31267,0.76688,0.01422,-0.10555,0.04013
-0.5605,0.31272,0.76684,0.02048,-0.10575,0.03518
-0.56055,0.31282,0.76676,0.01812,-0.10556,0.03693
-0.56057,0.31283,0.76674,0.01696,-0.10599,0.03981
-0.56056,0.31281,0.76676,0.0158,-0.10751,0.04244
-0.56058,0.31287,0.76672,0.01738,-0.10662,0.04299
-0.56059,0.3129,0.7667,0.01697,-0.10679,0.04228
-0.56058,0.31289,0.76671,0.01773,-0.10615,0.03836
-0.5606,0.31297,0.76666,0.01789,-0.10544,0.04065
-0.56061,0.31297,0.76666,0.01867,-0.10487,0.0415
-0.5606,0.31305,0.76663,0.01829,-0.10513,0.04111
-0.56058,0.3131,0.76663,0.01784,-0.10561,0.04124
-0.56056,0.31304,0.76667,0.01788,-0.1075,0.04174
-0.56053,0.31309,0.76666,0.01801,-0.10852,0.04286
-0.5605,0.31312,0.76668,0.01925,-0.11021,0.03967
-0.56043,0.31315,0.76671,0.0172,-0.1053,0.04417
-0.56038,0.31324,0.76671,0.0183,-0.10641,0.04171
-0.56037,0.31332,0.76669,0.01784,-0.10861,0.04343
-0.56036,0.3134,0.76667,0.01997,-0.10832,0.04284
-0.56027,0.3135,0.76669,0.01873,-0.10747,0.04072
-0.56023,0.31362,0.76667,0.01955,-0.10514,0.0434
-0.56022,0.31363,0.76667,0.01898,-0.10622,0.04028
-0.56025,0.31365,0.76664,0.01878,-0.10715,0.03741
-0.56034,0.31365,0.76658,0.01869,-0.10628,0.03939
-0.5604,0.31362,0.76655,0.01705,-0.10971,0.04047
-0.56045,0.31366,0.76649,0.01513,-0.10968,0.04395
-0.56047,0.31368,0.76647,0.01577,-0.11019,0.04281
-0.56045,0.31367,0.76649,0.02005,-0.10958,0.03849
-0.56039,0.31379,0.76649,0.01766,-0.10755,0.04133
-0.56037,0.31396,0.76643,0.01778,-0.1068,0.04151
-0.56037,0.31405,0.76639,0.0211,-0.10799,0.04303
-0.56033,0.31417,0.76637,0.02062,-0.10895,0.0394
-0.56027,0.31433,0.76634,0.01897,-0.10651,0.04376
-0.56024,0.31448,0.76631,0.01919,-0.10827,0.04495
-0.56024,0.31448,0.76631,0.01863,-0.10919,0.04215
-0.56022,0.31455,0.76629,0.01965,-0.10853,0.04078
-0.56023,0.31465,0.76625,0.01952,-0.10903,0.04286
-0.56023,0.31474,0.76621,0.01691,-0.10619,0.04168
-0.56026,0.3148,0.76616,0.01625,-0.10938,0.04338
-0.56029,0.31479,0.76614,0.01798,-0.10896,0.04193
-0.56033,0.31483,0.7661,0.01876,-0.1107,0.03935
-0.56033,0.31494,0.76605,0.01938,-0.11,0.04183
-0.56031,0.31502,0.76604,0.01716,-0.10849,0.04231
-0.56028,0.3151,0.76602,0.01635,-0.10902,0.04075
-0.56024,0.31531,0.76597,0.01631,-0.10922,0.04081
-0.56017,0.31537,0.76599,0.0178,-0.10866,0.04312
-0.56008,0.31546,0.76602,0.01652,-0.10929,0.04328
-0.56005,0.31562,0.76598,0.01509,-0.10795,0.04417
-0.56007,0.31578,0.7659,0.01619,-0.10896,0.04254
-0.56001,0.31593,0.76588,0.02029,-0.10884,0.04124
-0.55987,0.31609,0.76592,0.02154,-0.10893,0.04225
-0.55982,0.31616,0.76592,0.02056,-0.10988,0.0453
-0.55988,0.31613,0.7659,0.01784,-0.10856,0.04253
-0.5599,0.31613,0.76588,0.01702,-0.10748,0.03832
-0.55993,0.31612,0.76586,0.01745,-0.1077,0.038
-0.55995,0.3161,0.76585,0.01608,-0.10913,0.04324
-0.55999,0.31615,0.7658,0.01583,-0.10749,0.04281
-0.56002,0.31617,0.76578,0.02086,-0.11125,0.04031
-0.55999,0.31618,0.7658,0.01946,-0.10905,0.04515
-0.56,0.31631,0.76574,0.01848,-0.10943,0.04286
-0.56002,0.31638,0.76569,0.01807,-0.11144,0.04185
-0.55996,0.31647,0.7657,0.01904,-0.11014,0.04297
-0.5599,0.3166,0.76569,0.01782,-0.10752,0.04062
-0.55982,0.31665,0.76572,0.02005,-0.10625,0.04021
-0.55974,0.31673,0.76575,0.02272,-0.10567,0.04238
-0.55966,0.31675,0.7658,0.02118,-0.10775,0.04449
-0.55958,0.3167,0.76588,0.01706,-0.10894,0.04256
-0.55951,0.31668,0.76594,0.01933,-0.11067,0.04392
-0.55944,0.31664,0.76601,0.0148,-0.11064,0.04044
-0.55933,0.31661,0.7661,0.01658,-0.10994,0.04354
-0.55927,0.31669,0.76611,0.01785,-0.11054,0.04381
-0.55922,0.31667,0.76616,0.01924,-0.10833,0.04355
-0.55913,0.31664,0.76623,0.01638,-0.10769,0.04116
-0.55903,0.31669,0.76628,0.01687,-0.10875,0.03973
-0.55891,0.31672,0.76636,0.02276,-0.11113,0.04184
-0.5588,0.3167,0.76644,0.01797,-0.10984,0.04931
-0.55873,0.31678,0.76647,0.01852,-0.10873,0.04825
-0.5588,0.31685,0.76639,0.01951,-0.10961,0.04675
-0.5589,0.31685,0.76631,0.01949,-0.10977,0.04083
-0.55888,0.31692,0.7663,0.01864,-0.11078,0.04112
-0.55886,0.31703,0.76627,0.01894,-0.10812,0.04364
-0.55891,0.31708,0.76621,0.01897,-0.10921,0.04359
-0.55899,0.31718,0.76611,0.01905,-0.10931,0.04369
-0.55909,0.31716,0.76604,0.01835,-0.10712,0.04588
-0.55921,0.31708,0.76599,0.0162,-0.10968,0.04357
-0.55936,0.31702,0.76591,0.01453,-0.11135,0.04354
-0.55948,0.31695,0.76585,0.01622,-0.11037,0.03736
-0.55953,0.31695,0.76581,0.01568,-0.11416,0.04184
-0.55951,0.31701,0.7658,0.01659,-0.11172,0.04474
-0.5595,0.3171,0.76577,0.01647,-0.11213,0.04241
-0.5595,0.31713,0.76575,0.02131,-0.10924,0.04157
-0.55949,0.31721,0.76574,0.02105,-0.10894,0.04295
-0.55949,0.3173,0.7657,0.02349,-0.10955,0.04247
-0.55948,0.31734,0.76569,0.02109,-0.10945,0.04227
-0.55949,0.31732,0.76568,0.01993,-0.1114,0.04429
-0.55954,0.31736,0.76563,0.0187,-0.11083,0.04204
-0.55956,0.31735,0.76562,0.01829,-0.11267,0.04267
-0.55956,0.31731,0.76564,0.01821,-0.11137,0.04432
-0.5596,0.31732,0.7656,0.01904,-0.11171,0.04299
-0.55966,0.31733,0.76556,0.01892,-0.1101,0.0438
-0.5597,0.31733,0.76552,0.01765,-0.11037,0.03982
-0.55974,0.31738,0.76548,0.0184,-0.11169,0.04182
-0.55975,0.3174,0.76546,0.01779,-0.11168,0.04494
-0.55977,0.3174,0.76544,0.01848,-0.11185,0.04312
-0.55979,0.31743,0.76542,0.0214,-0.11049,0.04317
-0.55979,0.31746,0.7654,0.01704,-0.11159,0.04656
-0.55982,0.3175,0.76537,0.01531,-0.11201,0.04356
-0.55989,0.31761,0.76528,0.01649,-0.111,0.04201
-0.55989,0.3177,0.76524,0.01879,-0.11309,0.04165
-0.55983,0.31778,0.76524,0.02066,-0.10928,0.04662
-0.55985,0.31784,0.7652,0.02229,-0.10935,0.04724
-0.55991,0.31778,0.76518,0.01942,-0.11191,0.04199
-0.55997,0.31774,0.76515,0.01707,-0.11265,0.03999
-0.56002,0.31769,0.76514,0.01755,-0.11442,0.03745
-0.56004,0.31769,0.76512,0.02638,-0.10877,0.05131
-0.56016,0.31771,0.76503,0.0265,-0.10879,0.05141
-0.56017,0.31762,0.76506,0.01572,-0.11743,0.04659
-0.56014,0.3177,0.76504,0.01701,-0.11012,0.04507
-0.5602,0.31776,0.76498,0.02078,-0.11294,0.0401
-0.56016,0.31784,0.76498,0.01705,-0.11539,0.04151
-0.56013,0.31793,0.76496,0.01885,-0.11253,0.04552
-0.56011,0.31809,0.76491,0.021,-0.11125,0.04554
-0.56008,0.31822,0.76488,0.02204,-0.10972,0.04154
-0.5601,0.31831,0.76483,0.02227,-0.11198,0.04413
-0.5601,0.31845,0.76477,0.02035,-0.11285,0.04411
-0.5601,0.31854,0.76472,0.01599,-0.11424,0.04567
-0.56011,0.31862,0.76469,0.02001,-0.11177,0.04461
-0.56008,0.31872,0.76467,0.02117,-0.11315,0.04437
-0.56008,0.31881,0.76463,0.02173,-0.11107,0.04494
-0.56009,0.31886,0.7646,0.02011,-0.11294,0.04355
-0.56008,0.31891,0.76458,0.01924,-0.11318,0.04415
-0.56008,0.31897,0.76456,0.01733,-0.11319,0.04617
-0.56009,0.31906,0.76452,0.01413,-0.11367,0.04602
-0.56007,0.31911,0.76451,0.01849,-0.11408,0.04679
-0.56004,0.31925,0.76448,0.0153,-0.11339,0.04674
-0.56001,0.31939,0.76444,0.01692,-0.10891,0.0417
-0.56009,0.31944,0.76436,0.01766,-0.11076,0.04286
-0.56013,0.31949,0.76431,0.0198,-0.11139,0.04434
-0.56016,0.31947,0.7643,0.01978,-0.11229,0.04509
-0.56024,0.31941,0.76427,0.02081,-0.1127,0.04683
-0.56033,0.31938,0.7642,0.02016,-0.11408,0.04546
-0.56046,0.31932,0.76414,0.02148,-0.11451,0.04218
-0.56056,0.3192,0.76411,0.01868,-0.1154,0.04679
-0.56069,0.31916,0.76404,0.0132,-0.11803,0.04537
-0.56077,0.31916,0.76398,0.01469,-0.12154,0.04527
-0.56078,0.31929,0.76392,0.01662,-0.12161,0.04655
-0.5607,0.31967,0.76382,0.01422,-0.12051,0.04789
-0.56056,0.32009,0.76374,0.01823,-0.11386,0.05079
-0.56045,0.32048,0.76366,0.02482,-0.1101,0.04779
-0.56039,0.32077,0.76359,0.02639,-0.10678,0.0429
-0.56036,0.32095,0.76353,0.02717,-0.10453,0.03925
-0.56041,0.32099,0.76347,0.02196,-0.10719,0.04245
-0.56051,0.32092,0.76343,0.02046,-0.10722,0.04454
-0.56065,0.3207,0.76342,0.01893,-0.10902,0.04526
-0.56082,0.32041,0.76342,0.01938,-0.11814,0.04109
-0.56104,0.32018,0.76336,0.01509,-0.12398,0.0467
-0.5612,0.32004,0.76329,0.01237,-0.12923,0.05377
-0.56122,0.32021,0.7632,0.01218,-0.12643,0.05412
-0.5611,0.32058,0.76314,0.01174,-0.12534,0.05257
-0.5609,0.32098,0.76312,0.02302,-0.11434,0.04603
-0.5607,0.32135,0.76311,0.02671,-0.10618,0.04474
-0.56057,0.32167,0.76307,0.0274,-0.10509,0.04192
-0.56052,0.3218,0.76305,0.02854,-0.10181,0.0404
-0.56056,0.32176,0.76304,0.02318,-0.10724,0.04485
-0.56068,0.32159,0.76303,0.01813,-0.11131,0.04633
-0.56087,0.32137,0.76298,0.01081,-0.11705,0.04333
-0.56114,0.32122,0.76284,0.01264,-0.11947,0.04068
-0.56128,0.32114,0.76277,0.01249,-0.12257,0.0433
-0.56128,0.32121,0.76274,0.01492,-0.12486,0.04896
-0.56122,0.32142,0.7627,0.0158,-0.12144,0.0518
-0.56114,0.32168,0.76265,0.01998,-0.11845,0.04758
-0.56099,0.32191,0.76266,0.02268,-0.11044,0.04474
-0.56082,0.32222,0.76266,0.02679,-0.11004,0.04804
-0.56072,0.3224,0.76265,0.0295,-0.11053,0.04037
-0.56066,0.32251,0.76266,0.02378,-0.11013,0.04363
-0.56066,0.32262,0.76261,0.01822,-0.11008,0.04368
-0.56072,0.32271,0.76252,0.01943,-0.11118,0.04691
-0.56089,0.32261,0.76244,0.01621,-0.11473,0.04414
-0.56101,0.32254,0.76238,0.01661,-0.11765,0.04316
-0.56112,0.32258,0.76228,0.01568,-0.11717,0.04777
-0.56121,0.32267,0.76218,0.01438,-0.11814,0.04481
-0.56121,0.3228,0.76212,0.01497,-0.11892,0.0449
-0.56117,0.32298,0.76207,0.02102,-0.11586,0.04753
-0.56109,0.32316,0.76206,0.02612,-0.1139,0.04493
-0.56101,0.32325,0.76208,0.02377,-0.11103,0.04755
-0.56091,0.32332,0.76212,0.02139,-0.113,0.04874
-0.56081,0.32325,0.76223,0.02029,-0.11225,0.04747
-0.56079,0.32311,0.76231,0.01971,-0.11518,0.04604
-0.56081,0.32302,0.76232,0.01917,-0.11634,0.04513
-0.56084,0.32296,0.76233,0.01691,-0.1157,0.04315
-0.56085,0.32289,0.76235,0.01705,-0.11763,0.04434
-0.56084,0.32295,0.76233,0.01666,-0.11746,0.04483
-0.56083,0.32293,0.76235,0.02141,-0.11617,0.04931
-0.56083,0.32289,0.76237,0.0181,-0.11554,0.04699
-0.56089,0.32299,0.76228,0.01816,-0.11564,0.04707
-0.56094,0.32301,0.76223,0.01661,-0.11825,0.0463
-0.56085,0.32308,0.76227,0.01969,-0.11527,0.04563
-0.56075,0.32323,0.76228,0.02236,-0.11464,0.04649
-0.56071,0.32333,0.76227,0.02105,-0.11477,0.05019
-0.56072,0.32333,0.76226,0.02093,-0.11325,0.04601
-0.56071,0.32333,0.76227,0.01965,-0.11413,0.0428
-0.56076,0.32327,0.76226,0.01835,-0.11591,0.04398
-0.56081,0.32323,0.76224,0.01886,-0.11591,0.04442
-0.56084,0.32317,0.76224,0.02059,-0.11812,0.04519
-0.56085,0.3231,0.76226,0.01773,-0.11922,0.04933
-0.56088,0.32309,0.76225,0.01744,-0.11708,0.04769
-0.56093,0.32307,0.76222,0.01985,-0.11826,0.04446
-0.56093,0.32309,0.76221,0.01913,-0.11877,0.04466
-0.56091,0.32323,0.76217,0.02027,-0.11389,0.04658
-0.56085,0.32335,0.76216,0.01968,-0.1169,0.04741
-0.56081,0.32335,0.76219,0.02045,-0.11365,0.04836
-0.56081,0.32337,0.76218,0.02358,-0.11693,0.04383
-0.56082,0.32339,0.76216,0.02212,-0.1142,0.04599
-0.56081,0.32338,0.76217,0.02212,-0.11659,0.04793
-0.56082,0.32339,0.76216,0.01797,-0.11623,0.04809
-0.56086,0.32338,0.76214,0.01832,-0.11706,0.04679
-0.56093,0.32337,0.76209,0.0196,-0.11639,0.04427
-0.56101,0.32344,0.762,0.01931,-0.11583,0.04428
-0.56105,0.32348,0.76195,0.02062,-0.11728,0.04714
-0.56107,0.32351,0.76193,0.02057,-0.11691,0.04752
-0.56109,0.32357,0.76189,0.01838,-0.11628,0.04588
-0.5611,0.32361,0.76186,0.02135,-0.119,0.0456
-0.56111,0.32363,0.76184,0.01906,-0.11713,0.04867
-0.56115,0.3237,0.76179,0.01683,-0.11615,0.04702
-0.56123,0.32382,0.76168,0.01706,-0.11717,0.04586
-0.56124,0.32389,0.76165,0.02259,-0.11708,0.04664
-0.56121,0.32394,0.76164,0.02528,-0.11557,0.04891
-0.56122,0.32405,0.76159,0.02393,-0.11566,0.04961
-0.56125,0.32406,0.76156,0.02272,-0.11473,0.05016
-0.56131,0.32399,0.76154,0.02132,-0.11857,0.04757
-0.56134,0.32403,0.7615,0.02695,-0.11857,0.04688
-0.5614,0.32401,0.76147,0.01712,-0.11825,0.04643
-0.5614,0.32403,0.76147,0.02034,-0.12097,0.05064
-0.5614,0.32414,0.76142,0.02696,-0.11389,0.0514
-0.56145,0.32422,0.76135,0.01622,-0.11642,0.04638
-0.56147,0.32427,0.76131,0.01566,-0.1171,0.04783
-0.56144,0.32433,0.76131,0.01481,-0.11368,0.04961
-0.56145,0.32433,0.7613,0.02153,-0.12115,0.04752
-0.56145,0.32444,0.76125,0.02458,-0.11756,0.0463
-0.56143,0.32451,0.76124,0.02464,-0.11541,0.04476
-0.56137,0.32457,0.76126,0.02018,-0.11664,0.04815
-0.56139,0.3246,0.76123,0.01913,-0.11655,0.04962
-0.56145,0.32463,0.76117,0.02472,-0.11922,0.04771
-0.56146,0.32466,0.76115,0.02124,-0.11847,0.0465
-0.56147,0.32466,0.76114,0.02163,-0.11975,0.04571
-0.56151,0.32475,0.76107,0.02041,-0.11854,0.04351
-0.56155,0.32481,0.76102,0.02116,-0.11951,0.04777
-0.56158,0.32479,0.76101,0.02054,-0.1181,0.04925
-0.56165,0.32482,0.76095,0.02325,-0.11759,0.04865
-0.56171,0.32483,0.7609,0.02341,-0.11826,0.04565
-0.56171,0.32486,0.76088,0.01859,-0.11836,0.04643
-0.56174,0.32495,0.76082,0.01986,-0.12054,0.0505
-0.56176,0.325,0.76079,0.01589,-0.11676,0.0515
-0.56179,0.32503,0.76075,0.01989,-0.11871,0.04592
-0.56182,0.32513,0.76069,0.02225,-0.11797,0.04673
-0.56177,0.32517,0.76071,0.02259,-0.11574,0.04656
-0.56176,0.32527,0.76066,0.02081,-0.11814,0.04808
-0.56181,0.32532,0.76061,0.02238,-0.1172,0.04726
-0.56186,0.32526,0.7606,0.01976,-0.12113,0.0467
-0.56191,0.32529,0.76055,0.02167,-0.12079,0.04633
-0.56198,0.32536,0.76047,0.02057,-0.12161,0.04757
-0.56204,0.32539,0.76041,0.0209,-0.12044,0.05117
-0.56205,0.32548,0.76037,0.02118,-0.11931,0.04797
-0.56208,0.32559,0.7603,0.02026,-0.12054,0.05016
-0.56212,0.3257,0.76022,0.02127,-0.11878,0.04934
-0.56214,0.32585,0.76014,0.02073,-0.11825,0.04484
-0.56211,0.32595,0.76012,0.02089,-0.11735,0.0452
-0.5621,0.32605,0.76009,0.02209,-0.11868,0.048
-0.56211,0.32611,0.76006,0.02204,-0.11915,0.04729
-0.56209,0.32619,0.76003,0.02074,-0.12096,0.04942
-0.56208,0.32625,0.76002,0.02302,-0.12277,0.04858
-0.5621,0.32639,0.75994,0.02284,-0.12383,0.04866
-0.56204,0.3266,0.75989,0.01891,-0.12267,0.04992
-0.56197,0.3268,0.75986,0.02147,-0.12157,0.05113
-0.56191,0.32709,0.75978,0.02337,-0.12117,0.05178
-0.56185,0.32735,0.75971,0.02207,-0.1184,0.04908
-0.56183,0.32749,0.75967,0.02227,-0.11454,0.04729
-0.56187,0.32758,0.7596,0.02023,-0.11533,0.04624
-0.56194,0.32767,0.75951,0.01779,-0.11446,0.04283
-0.56199,0.3277,0.75946,0.01854,-0.11855,0.04795
-0.56202,0.3277,0.75943,0.02076,-0.11948,0.04883
-0.56207,0.32757,0.75945,0.01641,-0.12014,0.05031
-0.56215,0.32746,0.75944,0.01976,-0.11866,0.05133
-0.56228,0.3274,0.75938,0.01821,-0.12098,0.04548
-0.56238,0.32743,0.75928,0.01821,-0.12491,0.04177
-0.56241,0.32751,0.75923,0.01831,-0.1271,0.05129
-0.56228,0.32765,0.75926,0.0231,-0.1256,0.05408
-0.5622,0.32783,0.75924,0.02273,-0.12438,0.05384
-0.56215,0.32801,0.75921,0.02395,-0.12388,0.05101
-0.56207,0.32823,0.75917,0.02375,-0.12001,0.0507
-0.56196,0.32847,0.75915,0.02415,-0.11756,0.04935
-0.56196,0.32867,0.75906,0.0255,-0.11648,0.04987
-0.56206,0.3288,0.75893,0.0254,-0.11679,0.04701
-0.5622,0.3289,0.75878,0.02282,-0.11918,0.04795
-0.56233,0.32894,0.75867,0.01675,-0.11517,0.05047
-0.56251,0.32892,0.75854,0.01517,-0.11632,0.04154
-0.56272,0.3289,0.7584,0.01323,-0.11795,0.04354
-0.56282,0.32887,0.75834,0.01694,-0.12058,0.04423
-0.56283,0.32878,0.75836,0.01769,-0.12172,0.04757
-0.56276,0.32871,0.75844,0.0176,-0.12374,0.05114
-0.56265,0.32855,0.7586,0.02195,-0.1197,0.05146
-0.56259,0.32837,0.75872,0.02198,-0.1197,0.0517
-0.56257,0.32818,0.75882,0.02111,-0.11974,0.0502
-0.56259,0.32806,0.75885,0.02002,-0.12437,0.04695
-0.56261,0.32802,0.75886,0.02137,-0.12912,0.04737
-0.56254,0.32798,0.75893,0.02004,-0.12879,0.05163
-0.56245,0.32796,0.759,0.02063,-0.12408,0.05374
-0.56235,0.32804,0.75905,0.02128,-0.12435,0.05266
-0.56223,0.32814,0.75909,0.02359,-0.12398,0.04766
-0.56212,0.32834,0.75908,0.02068,-0.12348,0.04762
-0.56196,0.32867,0.75906,0.02241,-0.12222,0.05134
-0.56177,0.329,0.75906,0.02512,-0.12174,0.05527
-0.56157,0.3293,0.75908,0.0234,-0.11464,0.04993
-0.56151,0.32958,0.759,0.02162,-0.11509,0.0503
-0.56156,0.32967,0.75893,0.02316,-0.11568,0.04696
-0.56161,0.32961,0.75891,0.02319,-0.11577,0.04419
-0.56174,0.32951,0.75886,0.01983,-0.11421,0.04794
-0.56196,0.32929,0.75879,0.01791,-0.11846,0.05015
-0.56221,0.32895,0.75875,0.01428,-0.12085,0.04738
-0.56248,0.32858,0.75871,0.01299,-0.12756,0.04779
-0.56268,0.32825,0.75871,0.01347,-0.12818,0.04807
-0.56275,0.32801,0.75876,0.01708,-0.12728,0.05234
-0.56279,0.32791,0.75877,0.01852,-0.12571,0.05025
-0.56275,0.32783,0.75883,0.02096,-0.12797,0.04628
-0.56261,0.32787,0.75892,0.02473,-0.12507,0.04879
-0.56249,0.32792,0.75899,0.02662,-0.1262,0.05011
-0.56236,0.32808,0.75901,0.02649,-0.12636,0.05008
-0.56218,0.32822,0.75909,0.02904,-0.12635,0.05417
-0.56199,0.3284,0.75916,0.02496,-0.12283,0.05379
-0.56186,0.32864,0.75914,0.02479,-0.12358,0.05461
-0.56175,0.32888,0.75912,0.019,-0.12034,0.05063
-0.56171,0.32911,0.75906,0.02226,-0.12008,0.0512
-0.56168,0.32931,0.75899,0.02105,-0.11915,0.04843
-0.56173,0.32946,0.75889,0.02082,-0.11787,0.04713
-0.56181,0.32956,0.75879,0.01925,-0.12075,0.05068
-0.56195,0.32966,0.75864,0.01922,-0.12071,0.05122
-0.56213,0.32968,0.7585,0.01784,-0.12094,0.05043
-0.56232,0.32965,0.75837,0.01752,-0.12245,0.0495
-0.56252,0.32965,0.75822,0.01719,-0.12434,0.04871
-0.56276,0.32967,0.75803,0.01558,-0.12397,0.04982
-0.56296,0.32968,0.75788,0.01933,-0.12691,0.04942
-0.56309,0.32974,0.75776,0.0187,-0.13039,0.05348
-0.56318,0.32986,0.75763,0.0197,-0.12342,0.05198
-0.56332,0.32995,0.75749,0.02185,-0.12278,0.05213
-0.56339,0.33009,0.75738,0.02308,-0.12346,0.04845
-0.56333,0.33014,0.75741,0.02477,-0.12209,0.05139
-0.56329,0.3303,0.75737,0.02301,-0.12259,0.05353
-0.56329,0.33041,0.75731,0.02235,-0.12073,0.05326
-0.56331,0.3305,0.75726,0.02626,-0.12228,0.04805
-0.56332,0.33058,0.75721,0.02408,-0.11879,0.04822
-0.56334,0.33053,0.75722,0.02332,-0.12273,0.04972
-0.56339,0.33044,0.75723,0.02182,-0.1255,0.05033
-0.56345,0.33043,0.75719,0.02099,-0.12399,0.04984
-0.56351,0.33041,0.75715,0.01885,-0.12634,0.05025
-0.56358,0.33041,0.7571,0.02125,-0.12412,0.05168
-0.56364,0.33048,0.75703,0.01977,-0.12459,0.05094
-0.56367,0.33049,0.75699,0.01961,-0.12233,0.04911
-0.56368,0.33046,0.75701,0.02152,-0.12343,0.05096
-0.56369,0.33049,0.75698,0.02301,-0.12451,0.05129
-0.56373,0.33054,0.75693,0.0222,-0.12503,0.05046
-0.56374,0.33055,0.75692,0.02052,-0.12388,0.05004
-0.56378,0.33058,0.75688,0.02177,-0.12322,0.05457
-0.56382,0.33055,0.75686,0.02196,-0.12355,0.05208
-0.56383,0.33048,0.75688,0.01983,-0.12555,0.04622
-0.56387,0.33049,0.75685,0.01469,-0.12488,0.04474
-0.5639,0.33061,0.75677,0.02393,-0.12531,0.05484
-0.564,0.3306,0.75671,0.0277,-0.12294,0.05601
-0.56406,0.33053,0.75669,0.01614,-0.12575,0.05363
-0.56411,0.33058,0.75663,0.02387,-0.12602,0.05067
-0.56434,0.33061,0.75645,0.02343,-0.12598,0.04715
-0.56437,0.33065,0.7564,0.02443,-0.12669,0.0514
-0.56443,0.33077,0.75631,0.02133,-0.12828,0.05431
-0.56449,0.33096,0.75618,0.0172,-0.12452,0.05244
-0.56456,0.3312,0.75602,0.02285,-0.1261,0.05036
-0.56472,0.33148,0.75578,0.02586,-0.12259,0.05312
-0.56479,0.33166,0.75565,0.02443,-0.1242,0.05723
-0.5649,0.33172,0.75554,0.02008,-0.12585,0.05409
-0.5651,0.33175,0.75538,0.01482,-0.1236,0.05124
-0.56524,0.33176,0.75527,0.01415,-0.12616,0.04545
-0.56531,0.33181,0.7552,0.01454,-0.12337,0.04283
-0.56525,0.33188,0.75521,0.01311,-0.12232,0.04548
-0.56513,0.33194,0.75528,0.01253,-0.12195,0.05057
-0.56494,0.33202,0.75539,0.01556,-0.12416,0.0488
-0.56478,0.33211,0.75547,0.02216,-0.12522,0.05053
-0.56459,0.33221,0.75556,0.026,-0.12637,0.05341
-0.5644,0.33221,0.7557,0.0283,-0.12738,0.05152
-0.56428,0.33229,0.75576,0.02725,-0.12899,0.05359
-0.56419,0.33234,0.7558,0.02795,-0.12655,0.05464
-0.56413,0.33236,0.75584,0.02888,-0.1268,0.0547
-0.56413,0.33241,0.75582,0.02794,-0.12735,0.05673
-0.56416,0.33241,0.7558,0.02569,-0.1245,0.052
-0.56429,0.33232,0.75574,0.02596,-0.12455,0.05178
-0.56449,0.33231,0.7556,0.02616,-0.12455,0.05191
-0.5646,0.33219,0.75557,0.01733,-0.1254,0.0529
-0.56471,0.3321,0.75552,0.01977,-0.12673,0.05048
-0.56479,0.33215,0.75544,0.01962,-0.12714,0.05161
-0.56485,0.33222,0.75536,0.01814,-0.12742,0.05181
-0.5649,0.33229,0.75529,0.0187,-0.1261,0.05379
-0.5649,0.33242,0.75524,0.01681,-0.12475,0.05029
-0.56488,0.33248,0.75523,0.01857,-0.12559,0.04967
-0.56479,0.33249,0.75529,0.02077,-0.1238,0.04945
-0.56469,0.33249,0.75536,0.02383,-0.12407,0.04662
-0.56462,0.33245,0.75544,0.02041,-0.12432,0.05629
-0.56457,0.33247,0.75546,0.01806,-0.12597,0.05467
-0.56454,0.33243,0.7555,0.0202,-0.12634,0.0555
-0.56451,0.33239,0.75554,0.02367,-0.1276,0.05276
-0.56443,0.33242,0.75559,0.0243,-0.12843,0.05269
-0.56437,0.33247,0.75561,0.02611,-0.126,0.05593
-0.56434,0.3324,0.75567,0.023,-0.12546,0.05337
-0.56429,0.33231,0.75574,0.02593,-0.12591,0.0502
-0.56429,0.33222,0.75578,0.02305,-0.12549,0.05231
-0.5643,0.33213,0.75582,0.01875,-0.12833,0.05288
-0.56435,0.33214,0.75577,0.0175,-0.12735,0.05385
-0.56439,0.33215,0.75574,0.0179,-0.12973,0.05065
-0.56442,0.33218,0.7557,0.01721,-0.12931,0.05269
-0.56444,0.33237,0.7556,0.01917,-0.12663,0.05269
-0.56446,0.33253,0.75552,0.02012,-0.12875,0.05245
-0.56443,0.33271,0.75546,0.02227,-0.12473,0.05434
-0.56441,0.33287,0.75541,0.02364,-0.12558,0.05316
-0.5644,0.33299,0.75536,0.02572,-0.12601,0.05438
-0.56439,0.33304,0.75534,0.02205,-0.13152,0.05272
-0.56442,0.33317,0.75526,0.02132,-0.13076,0.0558
-0.5645,0.33337,0.75512,0.01961,-0.12701,0.05563
-0.56465,0.33368,0.75487,0.01788,-0.12677,0.05823
-0.56493,0.33399,0.75452,0.02103,-0.12629,0.05487
-0.56533,0.33433,0.75408,0.02402,-0.12826,0.05638
-0.56576,0.33473,0.75357,0.02141,-0.13178,0.05757
-0.5661,0.33513,0.75314,0.02319,-0.12027,0.05158
-0.56642,0.33524,0.75285,0.02707,-0.12202,0.04395
-0.56669,0.33521,0.75266,0.02378,-0.12658,0.04308
-0.56678,0.33514,0.75262,0.01714,-0.12587,0.04956
-0.56685,0.33504,0.75261,0.02262,-0.12912,0.05424
-0.56696,0.33492,0.75259,0.02421,-0.12978,0.05727
-0.56705,0.33477,0.75259,0.01895,-0.13311,0.05852
-0.56709,0.33475,0.75256,0.01951,-0.13123,0.05808
-0.56711,0.33481,0.75252,0.02091,-0.12856,0.05445
-0.56713,0.33489,0.75247,0.02346,-0.12994,0.05282
-0.56708,0.33506,0.75243,0.02344,-0.13096,0.05365
-0.56697,0.3352,0.75245,0.02467,-0.13017,0.05179
-0.56693,0.33528,0.75245,0.02145,-0.1268,0.05673
-0.56689,0.33539,0.75243,0.02096,-0.12393,0.0565
-0.5669,0.33539,0.75242,0.02381,-0.12166,0.05043
-0.56694,0.33533,0.75242,0.01859,-0.12575,0.05145
-0.56695,0.33533,0.75241,0.01865,-0.12452,0.05056
-0.56695,0.33531,0.75241,0.01733,-0.12923,0.05293
-0.56689,0.33526,0.75249,0.02089,-0.12908,0.05215
-0.56683,0.33523,0.75255,0.01717,-0.13488,0.05298
-0.56678,0.33529,0.75256,0.01722,-0.13254,0.05783
-0.56669,0.3354,0.75258,0.019,-0.13215,0.05954
-0.5666,0.33548,0.75261,0.02613,-0.13053,0.05601
-0.56653,0.33559,0.75261,0.02882,-0.127,0.05363
-0.56648,0.33575,0.75258,0.02511,-0.12735,0.05496
-0.56642,0.33583,0.75259,0.02582,-0.12656,0.05157
-0.56637,0.33582,0.75263,0.02496,-0.12737,0.0559
-0.56639,0.33588,0.75259,0.02426,-0.12935,0.05459
-0.56651,0.33587,0.7525,0.02374,-0.12784,0.05718
-0.56661,0.33582,0.75245,0.01882,-0.13024,0.05511
-0.56668,0.33582,0.7524,0.01956,-0.13046,0.05286
-0.56669,0.33586,0.75237,0.02023,-0.12869,0.05203
-0.56666,0.33586,0.75239,0.01962,-0.12952,0.04923
-0.56655,0.33589,0.75246,0.01898,-0.12557,0.05394
-0.56641,0.33586,0.75258,0.01837,-0.12777,0.05576
-0.56626,0.33578,0.75273,0.01912,-0.13248,0.05016
-0.56612,0.33581,0.75282,0.01735,-0.13265,0.04836
-0.56596,0.33588,0.75291,0.01394,-0.13191,0.05296
-0.56574,0.33597,0.75303,0.01815,-0.13007,0.05065
-0.5656,0.33608,0.75309,0.02355,-0.12865,0.05733
-0.56559,0.3361,0.75309,0.02523,-0.12565,0.05973
-0.56537,0.33598,0.75331,0.03313,-0.12987,0.05303
-0.5652,0.33595,0.75345,0.03381,-0.13082,0.05775
-0.56523,0.33591,0.75345,0.03129,-0.12929,0.0618
-0.56536,0.33578,0.7534,0.03178,-0.13258,0.05846
-0.56553,0.33564,0.75334,0.02397,-0.1327,0.05474
-0.56572,0.33565,0.75319,0.02356,-0.13185,0.056
-0.56588,0.33565,0.75307,0.01771,-0.13073,0.0541
-0.56601,0.33569,0.75296,0.01485,-0.12817,0.05135
-0.56614,0.33571,0.75284,0.01719,-0.12766,0.04881
-0.56629,0.33575,0.75272,0.01312,-0.12584,0.04949
-0.56638,0.33576,0.75265,0.01284,-0.12426,0.04592
-0.56641,0.33569,0.75266,0.01627,-0.12706,0.04373
-0.56631,0.33557,0.75279,0.01321,-0.12425,0.055
-0.56608,0.33535,0.75305,0.0247,-0.13122,0.05879
-0.56576,0.33511,0.7534,0.03347,-0.13264,0.06134
-0.56547,0.33473,0.75379,0.0344,-0.12501,0.06431
-0.56514,0.33418,0.75428,0.03051,-0.1417,0.05207
-0.56505,0.33388,0.75448,0.03205,-0.14281,0.0452
-0.56524,0.33381,0.75437,0.03485,-0.13362,0.05884
-0.56527,0.33372,0.75439,0.02517,-0.13058,0.05991
-0.56544,0.3336,0.75431,0.02779,-0.1317,0.05588
-0.56572,0.33357,0.75412,0.02383,-0.13136,0.05524
-0.56598,0.33353,0.75394,0.0143,-0.12703,0.05197
-0.56617,0.33345,0.75383,0.0144,-0.13187,0.04352
-0.56625,0.33345,0.75377,0.01426,-0.13068,0.04639
-0.56623,0.33349,0.75377,0.01607,-0.13206,0.05156
-0.56613,0.3336,0.75379,0.01288,-0.13681,0.05714
-0.56601,0.33376,0.75382,0.01407,-0.13379,0.06143
-0.56594,0.33396,0.75378,0.02057,-0.12532,0.05665
-0.56599,0.33426,0.75361,0.02804,-0.12521,0.0496
-0.56609,0.3344,0.75347,0.03184,-0.1265,0.04388
-0.56609,0.3344,0.75347,0.03076,-0.13094,0.05913
-0.56607,0.33436,0.7535,0.0295,-0.1329,0.06576
-0.56615,0.33421,0.7535,0.02838,-0.13504,0.05753
-0.56634,0.33408,0.75342,0.02773,-0.13348,0.05563
-0.56659,0.33399,0.75327,0.0206,-0.13398,0.05596
-0.5669,0.33399,0.75304,0.02756,-0.12802,0.04475
-0.56724,0.33397,0.75279,0.03071,-0.13077,0.04634
-0.56715,0.33394,0.75288,0.03029,-0.13638,0.05103
-0.56641,0.33399,0.75341,0.01369,-0.1312,0.06192
-0.56589,0.33416,0.75373,0.01225,-0.12948,0.05723
-0.56573,0.33425,0.75381,0.01662,-0.13761,0.05389
-0.56562,0.3343,0.75387,0.01556,-0.13493,0.05369
-0.56551,0.3345,0.75386,0.01805,-0.13177,0.05586
-0.56541,0.33469,0.75386,0.01809,-0.13109,0.05776
-0.56534,0.33479,0.75386,0.02052,-0.13216,0.05798
-0.56537,0.33493,0.75377,0.02481,-0.12934,0.05636
-0.56555,0.33498,0.75362,0.02577,-0.12838,0.05194
-0.56582,0.33496,0.75343,0.0214,-0.13284,0.05471
-0.56625,0.33497,0.7531,0.01924,-0.12977,0.05725
-0.56657,0.335,0.75284,0.02238,-0.12806,0.0568
-0.56676,0.33498,0.75271,0.02191,-0.13273,0.05013
-0.56698,0.33501,0.75253,0.01993,-0.13097,0.04924
-0.5672,0.33502,0.75237,0.01834,-0.13287,0.0516
-0.56737,0.33498,0.75224,0.01969,-0.13128,0.05595
-0.56757,0.33509,0.75205,0.02127,-0.12874,0.05299
-0.56773,0.33518,0.75189,0.0225,-0.13007,0.05562
-0.56784,0.33526,0.75177,0.02111,-0.13515,0.05956
-0.56798,0.33543,0.75159,0.01996,-0.13297,0.05427
-0.56822,0.33561,0.75132,0.02352,-0.13054,0.05173
-0.5684,0.33582,0.75109,0.02426,-0.13063,0.05695
-0.56852,0.33603,0.75091,0.02455,-0.13089,0.05859
-0.56873,0.33616,0.7507,0.02914,-0.13018,0.05666
-0.569,0.33623,0.75046,0.02813,-0.12982,0.0516
-0.56924,0.3362,0.75029,0.02363,-0.13097,0.05424
-0.5694,0.33613,0.7502,0.02506,-0.12707,0.0563
-0.56956,0.33595,0.75016,0.02532,-0.13225,0.05216
-0.56978,0.33579,0.75006,0.01628,-0.13524,0.05528
-0.57005,0.33581,0.74984,0.01401,-0.13551,0.05736
-0.57031,0.33593,0.7496,0.00578,-0.13233,0.05097
-0.57056,0.33597,0.74939,0.01048,-0.1355,0.04606
-0.57061,0.33602,0.74933,0.01002,-0.13677,0.05011
-0.57043,0.33615,0.7494,0.01262,-0.1328,0.05727
-0.57015,0.33625,0.74957,0.02026,-0.12992,0.05449
-0.56986,0.33629,0.74978,0.02538,-0.13091,0.05488
-0.56957,0.3363,0.74999,0.02772,-0.13221,0.05485
-0.56929,0.33633,0.7502,0.02788,-0.13228,0.05913
-0.56903,0.33632,0.7504,0.02888,-0.13327,0.05871
-0.56887,0.33622,0.75056,0.02712,-0.13256,0.05571
-0.56879,0.33608,0.75068,0.02558,-0.13381,0.05773
-0.56878,0.33605,0.7507,0.02571,-0.13325,0.05835
-0.5688,0.33601,0.75071,0.02382,-0.1318,0.0566
-0.56885,0.33592,0.75071,0.02162,-0.12858,0.05109
-0.56893,0.33581,0.7507,0.01984,-0.13153,0.05182
-0.56897,0.33566,0.75073,0.01755,-0.1338,0.05112
-0.56895,0.33553,0.75081,0.01408,-0.13239,0.0601
-0.56889,0.33549,0.75087,0.01707,-0.13342,0.05545
-0.56889,0.33546,0.75089,0.01884,-0.1362,0.05212
-0.56887,0.33553,0.75087,0.02038,-0.13483,0.05298
-0.5687,0.33559,0.75097,0.02287,-0.1311,0.05557
-0.56856,0.33555,0.7511,0.02722,-0.13362,0.06002
-0.56844,0.33553,0.7512,0.02593,-0.13257,0.05836
-0.56832,0.33541,0.75134,0.02651,-0.1343,0.056
-0.56827,0.33534,0.75141,0.0271,-0.13243,0.05534
-0.5683,0.3353,0.7514,0.02672,-0.13198,0.05393
-0.56834,0.33521,0.75141,0.02255,-0.13202,0.05555
-0.56839,0.33517,0.7514,0.0217,-0.13265,0.05613
-0.56848,0.33516,0.75133,0.02132,-0.13275,0.05508
-0.56858,0.33511,0.75128,0.01969,-0.13493,0.05694
-0.56876,0.33507,0.75116,0.01691,-0.13407,0.05179
-0.56883,0.33511,0.75108,0.01869,-0.13454,0.05194
-0.56883,0.33515,0.75107,0.01832,-0.13422,0.05398
-0.56878,0.33517,0.7511,0.02134,-0.13269,0.05745
-0.5687,0.33525,0.75112,0.02175,-0.1335,0.05332
-0.56863,0.33524,0.75118,0.02336,-0.13358,0.05381
-0.56856,0.33519,0.75125,0.0257,-0.13426,0.05726
-0.56848,0.33525,0.75129,0.024,-0.13586,0.05864
-0.56842,0.33528,0.75132,0.02579,-0.13461,0.05759
-0.5684,0.33527,0.75134,0.02433,-0.13431,0.05781
-0.56839,0.33527,0.75135,0.02539,-0.1368,0.05712
-0.56842,0.33533,0.7513,0.0237,-0.1346,0.05762
-0.56842,0.3354,0.75127,0.0227,-0.13308,0.05806
-0.56845,0.3354,0.75124,0.02196,-0.13354,0.05115
-0.56849,0.33543,0.7512,0.02176,-0.13394,0.05286
-0.56848,0.33546,0.75119,0.01787,-0.13317,0.05619
-0.56847,0.33551,0.75118,0.01958,-0.13429,0.05912
-0.56852,0.33557,0.75111,0.02192,-0.13476,0.05577
-0.56854,0.33564,0.75107,0.02464,-0.13433,0.05719
-0.56852,0.33568,0.75106,0.02659,-0.13484,0.05847
-0.56855,0.33576,0.75101,0.02575,-0.13276,0.05887
-0.56859,0.33577,0.75097,0.02742,-0.13483,0.05481
-0.56864,0.33575,0.75094,0.02481,-0.13571,0.05507
-0.56874,0.33577,0.75086,0.02206,-0.13429,0.05584
-0.56883,0.3358,0.75077,0.02414,-0.13463,0.05826
-0.56891,0.33586,0.75069,0.02207,-0.13509,0.05609
-0.569,0.33592,0.7506,0.02337,-0.1352,0.05496
-0.56908,0.33596,0.75052,0.02135,-0.13575,0.05243
-0.56912,0.33602,0.75046,0.01898,-0.1363,0.05559
-0.56915,0.33607,0.75041,0.01841,-0.13623,0.05659
-0.56918,0.33614,0.75036,0.02255,-0.13582,0.05567
-0.5692,0.3362,0.75033,0.02288,-0.13528,0.05658
-0.56919,0.33624,0.75031,0.02234,-0.13458,0.05817
-0.56916,0.3363,0.75031,0.02297,-0.13554,0.05847
-0.56915,0.33639,0.75027,0.02296,-0.13563,0.05851
-0.56914,0.33634,0.7503,0.02242,-0.13542,0.05588
-0.56911,0.33632,0.75033,0.02039,-0.13508,0.05944
-0.56905,0.33635,0.75036,0.02186,-0.13444,0.05994
-0.569,0.33636,0.7504,0.02357,-0.1347,0.05699
-0.56896,0.33629,0.75046,0.02289,-0.1381,0.0561
-0.56895,0.33637,0.75044,0.02288,-0.13817,0.05613
-0.56893,0.33643,0.75042,0.02332,-0.1366,0.05989
-0.56895,0.3365,0.75037,0.02505,-0.13913,0.05697
-0.56901,0.33663,0.75027,0.02511,-0.13925,0.05707
-0.56904,0.33672,0.75021,0.02108,-0.13679,0.05859
-0.5691,0.3369,0.75008,0.02543,-0.136,0.05636
-0.56927,0.3371,0.74986,0.0253,-0.13469,0.05555
-0.56938,0.33724,0.74971,0.02724,-0.1372,0.05713
-0.56944,0.33738,0.7496,0.02463,-0.13698,0.06044
-0.56956,0.33753,0.74945,0.02455,-0.13502,0.06017
-0.56973,0.33763,0.74928,0.02484,-0.1372,0.05593
-0.56987,0.33774,0.74912,0.02193,-0.13495,0.05632
-0.57003,0.33793,0.74891,0.02249,-0.13662,0.05675
-0.57014,0.33807,0.74876,0.02377,-0.1344,0.05359
-0.57023,0.33815,0.74866,0.02429,-0.1353,0.0526
-0.57031,0.3382,0.74857,0.02049,-0.13509,0.05753
-0.57035,0.33828,0.7485,0.01899,-0.1385,0.05942
-0.57039,0.33837,0.74843,0.02191,-0.14108,0.05969
-0.57045,0.33855,0.74831,0.01977,-0.13833,0.05895
