gravity.x,gravity.y,gravity.z,userAcceleration.x,userAcceleration.y,userAcceleration.z
0.51394,0.45387,-0.72791,-0.01193,0.01794,-0.03196
0.51082,0.45797,-0.72755,0.06328,0.25965,-0.05155
0.51209,0.45796,-0.72666,0.06317,0.06758,-0.06002
0.51282,0.45624,-0.72722,0.03951,-0.03746,-0.0167
0.51418,0.45488,-0.72712,-0.03249,-0.09772,0.04061
0.51643,0.45466,-0.72566,-0.03502,-0.05205,-0.00419
0.51695,0.45576,-0.72459,0.00864,0.04564,-0.04365
0.5159,0.45605,-0.72517,0.03525,0.06771,-0.03628
0.51565,0.45482,-0.72611,0.03272,0.01188,-0.02824
0.51616,0.4528,-0.72701,0.01014,-0.03035,-0.0052
0.51723,0.45068,-0.72757,-0.00316,-0.04047,0.0175
0.51856,0.44956,-0.72731,-0.01399,-0.0358,0.00541
0.51961,0.44953,-0.72658,-0.00606,-0.01464,-0.01479
0.51997,0.45015,-0.72594,0.00944,0.003,-0.02271
0.51991,0.45091,-0.72552,0.0107,-0.00466,-0.02298
0.52003,0.45147,-0.72508,0.0055,-0.00785,-0.00305
0.52073,0.45204,-0.72422,0.00095,0.00039,0.01145
0.5215,0.45274,-0.72323,-0.00295,0.01751,0.01962
0.52179,0.45328,-0.72268,-0.00387,0.02191,0.01252
0.52136,0.45341,-0.72291,0.00112,0.01506,0.00036
0.52044,0.4531,-0.72377,0.00999,0.00407,-0.01087
0.51961,0.45193,-0.72509,0.01675,-0.00086,-0.02132
0.51895,0.45072,-0.72632,0.01342,0.00328,-0.03259
0.51892,0.44896,-0.72743,0.01637,0.02053,-0.03789
0.51903,0.44649,-0.72887,0.00209,0.03253,-0.0534
0.51843,0.44268,-0.73162,-0.00308,0.01538,0.00753
0.51718,0.43881,-0.73482,-0.01994,-0.00736,0.00225
0.51613,0.43641,-0.73699,-0.02396,-0.01479,0.0149
0.5159,0.43568,-0.73758,0.01268,-0.03028,0.03127
0.51686,0.43646,-0.73645,0.01988,-0.02739,-0.01102
0.5179,0.43652,-0.73568,0.01878,-0.01761,-0.02908
0.51726,0.43518,-0.73692,0.00267,0.02835,0.01982
0.51569,0.43322,-0.73917,-0.01296,0.00977,0.01513
0.51378,0.43174,-0.74137,-0.01445,-0.00652,0.01064
0.51222,0.4314,-0.74265,-0.00523,-0.01711,0.00528
0.51129,0.43245,-0.74267,0.00293,-0.01953,-0.00806
0.51091,0.43409,-0.74198,0.01555,-0.01252,-0.02807
0.51075,0.43522,-0.74143,0.02285,0.0051,-0.01747
0.51044,0.436,-0.74119,-0.00093,0.02469,-0.00552
0.50946,0.43666,-0.74147,-0.01138,0.03258,0.01391
0.50802,0.43784,-0.74176,-0.00836,0.03414,0.01713
0.50681,0.43907,-0.74186,0.01357,0.02668,0.01726
0.50588,0.44009,-0.74189,0.03617,0.01841,0.0064
0.50565,0.44011,-0.74204,0.05371,0.00748,0.00936
0.50629,0.43954,-0.74194,0.01526,0.01104,-0.03594
0.50709,0.43825,-0.74216,-0.01395,-0.00701,-0.05098
0.50762,0.4374,-0.74229,-0.02974,-0.02946,-0.04358
0.50805,0.43773,-0.74181,-0.02686,-0.05365,-0.01193
0.50804,0.43874,-0.74121,-0.02887,-0.04769,0.00096
0.50828,0.44085,-0.73979,-0.06753,-0.02511,0.02541
0.50878,0.44421,-0.73744,-0.06103,0.00048,-0.01244
0.50962,0.44782,-0.73467,-0.02526,0.02336,-0.03651
0.51052,0.45047,-0.73242,-0.00016,0.04204,-0.0352
0.51126,0.45129,-0.7314,0.00071,0.05596,-0.00272
0.5119,0.45056,-0.7314,0.00536,0.05389,0.0317
0.51274,0.44928,-0.7316,0.01717,0.0431,0.05137
0.51319,0.44814,-0.73199,0.03601,0.04164,0.05404
0.51292,0.44707,-0.73283,0.0412,0.02203,0.02948
0.51221,0.44606,-0.73394,0.04386,-0.00782,-0.00274
0.51161,0.44556,-0.73466,0.05785,-0.03687,-0.03093
0.51131,0.44572,-0.73477,0.05278,-0.04042,-0.0473
0.51123,0.44626,-0.73451,0.03003,-0.03271,-0.04389
0.51153,0.44675,-0.73399,0.00755,-0.02976,-0.03259
0.51181,0.4476,-0.73328,-0.0038,-0.0273,-0.02507
0.51179,0.44863,-0.73267,-0.01646,0.00895,0.00406
0.51104,0.4503,-0.73217,-0.01338,0.02489,0.01072
0.51011,0.45181,-0.73188,-0.00955,0.02791,0.01098
0.50958,0.45302,-0.73151,-0.01535,0.01326,0.00699
0.50956,0.45391,-0.73096,-0.02362,0.00501,0.01206
0.5095,0.45424,-0.7308,-0.01422,0.02176,0.00932
0.50934,0.4541,-0.731,0.00369,0.04445,0.00177
0.50928,0.45376,-0.73125,0.00593,0.0331,-0.00783
0.50933,0.45329,-0.73151,0.00254,0.02538,-0.00703
0.50936,0.4529,-0.73173,-0.00963,0.00501,0.01448
0.50965,0.4526,-0.73172,-0.00873,0.00631,0.01281
0.50995,0.45238,-0.73164,-0.00116,0.01112,0.00458
0.50979,0.45238,-0.73175,0.01871,0.00284,-0.01093
0.5092,0.45245,-0.73212,0.01378,-0.00783,-0.0036
0.50875,0.45269,-0.73228,0.01191,-0.01138,-0.00021
0.50876,0.45308,-0.73204,0.0035,-0.00994,-0.01185
0.5088,0.45343,-0.73179,0.00279,-0.00415,-0.01511
0.5085,0.45375,-0.7318,-0.00161,0.00288,-0.01344
0.50804,0.45405,-0.73193,-0.00161,0.01285,0.00179
0.50761,0.45441,-0.73201,0.00558,0.02014,0.00299
0.50736,0.45467,-0.73203,0.00803,0.02505,0.0035
0.50717,0.45475,-0.73211,0.01026,0.02033,0.00408
0.50705,0.45466,-0.73225,0.01039,0.01056,0.006
0.50703,0.45446,-0.73238,0.0082,0.00889,0.01028
0.5071,0.45418,-0.73251,0.00897,0.00229,0.00895
0.50732,0.45412,-0.7324,0.01292,-0.00331,-0.00712
0.50751,0.45407,-0.73229,0.01272,-0.00326,-0.00723
0.50771,0.45412,-0.73212,0.00101,0.00627,-0.01208
0.5079,0.45407,-0.73202,-0.00787,0.00815,-0.00236
0.5081,0.45417,-0.73182,-0.00807,0.00805,-0.00256
0.50844,0.45426,-0.73153,-0.00435,0.01571,-0.00251
0.5086,0.45438,-0.73134,-0.00098,0.01843,-0.00168
0.50857,0.45438,-0.73136,-0.00232,0.01286,-0.00176
0.50855,0.45435,-0.73139,-0.00129,0.01258,0.00607
0.50872,0.45419,-0.73137,0.00112,0.01469,0.00263
0.50901,0.45386,-0.73138,0.00144,0.01134,-0.00121
0.50919,0.45348,-0.73149,0.00703,0.00363,-0.0009
0.50927,0.45319,-0.73161,0.0077,0.00122,-0.00177
0.50939,0.45302,-0.73164,0.00929,0.00328,-0.00518
0.50958,0.45288,-0.73159,0.00858,0.00688,-0.00141
0.50982,0.45274,-0.73151,0.00823,0.00809,-0.00096
0.51014,0.45269,-0.73132,0.01356,0.00457,0.00041
0.51043,0.4529,-0.73098,0.0108,0.00031,-0.00644
0.5107,0.45297,-0.73075,0.00166,0.01555,-0.01264
0.51124,0.4525,-0.73067,-0.01905,0.02197,-0.00217
0.51218,0.45176,-0.73047,-0.02918,0.01334,0.01483
0.51345,0.4512,-0.72992,-0.00911,0.00041,0.00584
0.51441,0.45092,-0.72941,0.00527,-0.0015,0.00156
0.51448,0.45097,-0.72934,0.01202,-0.00108,-0.00246
0.5141,0.4514,-0.72933,0.02799,-0.00826,-0.00504
0.51391,0.45191,-0.72916,0.02477,-0.00307,-0.00179
0.51417,0.45232,-0.72872,0.0181,0.00785,-0.00223
0.51457,0.45271,-0.7282,0.00752,0.01664,-0.00087
0.51473,0.4532,-0.72777,0.00423,0.01776,-0.0008
0.5148,0.45365,-0.72745,-0.00018,0.02476,0.00737
0.51493,0.4539,-0.7272,-0.00019,0.02991,0.00713
0.51518,0.45373,-0.72712,-0.00644,0.03162,0.00827
0.51543,0.45319,-0.72729,-0.01405,0.01988,0.00231
0.51565,0.45239,-0.72764,-0.01178,0.01499,-0.00456
0.51588,0.45133,-0.72813,-0.01026,0.0117,-0.00524
0.51613,0.45016,-0.72867,-0.00484,0.00504,-0.00471
0.51638,0.44902,-0.7292,-0.00143,0.00115,-0.00585
0.51652,0.44811,-0.72966,-0.00026,0.00108,-0.0048
0.51656,0.44741,-0.73006,0.00157,0.0036,-0.002
0.51653,0.44679,-0.73046,0.00436,0.00393,0.00047
0.51661,0.44615,-0.7308,0.00585,0.00203,-0.00071
0.51676,0.44559,-0.73103,0.00787,0.00413,0.00183
0.51687,0.44522,-0.73118,0.01125,0.00534,0.00143
0.51693,0.44503,-0.73125,0.01003,0.00267,-0.00062
0.51697,0.44502,-0.73123,0.0098,0.00202,0.00012
0.51699,0.44514,-0.73114,0.00987,-0.00014,-0.00078
0.51695,0.44537,-0.73103,0.00863,-0.00059,-0.00215
0.51683,0.44586,-0.73082,0.00679,5e-05,-0.00598
0.51662,0.44652,-0.73056,-0.00135,0.00917,-0.00415
0.51633,0.44724,-0.73033,-0.00081,0.01124,-0.00354
0.51606,0.44791,-0.73011,-0.00486,0.01673,-0.00386
0.51585,0.44853,-0.72988,-0.00944,0.023,0.00316
0.5157,0.44904,-0.72966,-0.00929,0.02248,0.00295
0.51555,0.4494,-0.72955,-0.01032,0.01833,0.00369
0.51538,0.44962,-0.72954,-0.00578,0.01239,0.00082
0.51517,0.4497,-0.72964,-0.00374,0.01072,-0.00118
0.515,0.44978,-0.72971,0.00227,0.00692,-0.0054
0.51494,0.44987,-0.72969,0.00627,0.0169,-0.0023
0.51502,0.44983,-0.72966,0.00407,0.02078,0.00047
0.51504,0.44969,-0.72973,0.00299,0.01685,0.00695
0.51507,0.44953,-0.72981,0.00518,0.0107,0.00508
0.51505,0.44954,-0.72982,0.00523,0.0065,0.00649
0.51498,0.44955,-0.72986,0.00495,0.00958,0.00512
0.51482,0.4495,-0.73,0.00482,0.00911,0.00033
0.51454,0.44943,-0.73025,0.00694,0.00794,-0.0017
0.51417,0.44945,-0.73049,0.0039,0.01173,-0.0012
0.5138,0.44951,-0.73071,0.0037,0.01457,-0.00378
0.51348,0.44956,-0.73091,-2e-05,0.01578,-0.0031
0.51324,0.44968,-0.73101,-0.00425,0.01436,-0.00309
0.51308,0.44974,-0.73108,-0.00465,0.01004,0.00017
0.51302,0.44966,-0.73117,-0.00748,0.00839,8e-05
0.51298,0.44956,-0.73126,-0.00512,0.00714,0.00085
0.5129,0.44947,-0.73137,-0.00428,0.00863,-0.00216
0.51274,0.44948,-0.73148,-0.00044,0.0085,0.00017
0.51256,0.4495,-0.73159,0.00415,0.0141,0.00044
0.51242,0.44949,-0.7317,0.00541,0.01233,0.00123
0.51235,0.44945,-0.73177,0.00396,0.01336,0.00208
0.51236,0.44944,-0.73177,0.00145,0.00971,0.0044
0.51242,0.44939,-0.73176,0.0014,0.01055,0.00051
0.51251,0.44933,-0.73173,0.00239,0.01025,0.00188
0.5126,0.44931,-0.73168,0.00074,0.00653,-0.00027
0.51273,0.44938,-0.73155,0.00261,0.01183,-0.00207
0.51294,0.44945,-0.73135,-0.00037,0.01672,-0.0025
0.51309,0.44946,-0.73125,0.00148,0.01552,0.00224
0.51321,0.44942,-0.73119,0.00135,0.01022,0.00072
0.51323,0.44943,-0.73117,0.00201,0.01012,0.0023
0.51319,0.44945,-0.73118,0.00035,0.00885,0.00263
0.51316,0.44944,-0.73121,-0.00042,0.00904,0.00071
0.51317,0.44946,-0.73119,-0.00221,0.01067,0.00158
0.51323,0.4495,-0.73112,0.00399,0.01417,0.00065
0.51334,0.44954,-0.73102,0.00264,0.0131,0.00177
0.51348,0.44957,-0.7309,0.00123,0.01218,0.00117
0.51368,0.44966,-0.73071,-0.00036,0.01072,-0.00084
0.51395,0.44974,-0.73047,-0.00544,0.01588,0.00206
0.51417,0.44978,-0.73029,-0.00218,0.01241,0.00436
0.51434,0.4499,-0.73009,0.00184,0.00832,4e-05
0.51454,0.44997,-0.72991,0.00122,0.01242,-0.00102
0.51478,0.44999,-0.72973,-0.0006,0.01197,-0.00205
0.51496,0.45,-0.7296,-0.00374,0.01556,0.00053
0.51519,0.44989,-0.7295,-0.00215,0.01689,0.0033
0.51545,0.44953,-0.72954,-0.00213,0.01616,0.00393
0.51568,0.44909,-0.72965,-0.00166,0.01689,0.00429
0.51587,0.44878,-0.72971,0.00267,0.01039,-0.00419
0.51608,0.44835,-0.72982,0.00509,0.01163,-0.00257
0.51622,0.4477,-0.73013,0.00652,0.01405,-0.00015
0.51615,0.44712,-0.73052,0.0046,0.00521,0.00059
0.51591,0.44662,-0.731,0.00067,0.00343,0.01106
0.51587,0.44638,-0.73118,-0.00761,0.00335,-0.00372
0.51512,0.4463,-0.73175,0.00279,0.01758,0.00574
0.51365,0.44642,-0.73272,0.05561,-0.02994,0.00289
0.51459,0.44639,-0.73208,0.02129,-0.019,0.01936
0.51756,0.44676,-0.72975,0.02556,0.00522,-0.03358
0.52194,0.44704,-0.72644,0.0032,0.00388,-0.0384
0.5228,0.44743,-0.72559,-0.04933,0.02366,0.01592
0.51984,0.44827,-0.7272,-0.00033,0.03206,0.04176
0.51649,0.44956,-0.72879,0.01405,0.05441,0.04197
0.51641,0.44943,-0.72893,-0.00179,0.04881,-0.00292
0.51799,0.44801,-0.72868,-0.00636,0.00241,-0.01647
0.51874,0.4465,-0.72907,-0.01246,-0.01695,-0.02009
0.5183,0.44582,-0.7298,-0.0004,-0.00869,-0.01507
0.51797,0.44547,-0.73025,0.00408,0.00142,-0.0079
0.51833,0.44525,-0.73013,0.00881,0.011,0.00032
0.51863,0.44511,-0.72999,0.01493,0.01277,0.01169
0.51841,0.44512,-0.73015,0.01547,0.01287,0.01916
0.51798,0.44523,-0.73039,0.01381,0.0122,0.01501
0.51778,0.44543,-0.73041,0.0011,0.00818,-0.00052
0.5178,0.44569,-0.73024,-0.00792,0.00477,-0.00861
0.51757,0.44592,-0.73025,-0.01371,0.00818,-0.0101
0.5171,0.44606,-0.7305,-0.0048,0.0206,0.00477
0.51651,0.44609,-0.7309,-0.00072,0.01506,0.00944
0.51618,0.4462,-0.73106,0.00399,0.00871,0.0023
0.51606,0.44646,-0.73099,0.00094,0.01118,-6e-05
0.51593,0.44674,-0.73091,-0.00667,0.01507,-0.00459
0.51568,0.44696,-0.73096,-0.00732,0.01523,-0.00398
0.51541,0.44725,-0.73098,5e-05,0.01034,-0.00485
0.51517,0.44751,-0.73098,-9e-05,0.01011,0.00048
0.51507,0.44769,-0.73094,0.00184,0.0086,-0.00142
0.51504,0.44776,-0.73091,-0.00088,0.02529,0.01175
0.51505,0.44753,-0.73105,-0.00486,0.03288,0.01969
0.51504,0.44712,-0.73131,-0.00397,0.02736,0.01909
0.51497,0.44688,-0.7315,0.00833,-0.00246,-0.00402
0.51496,0.44689,-0.73151,0.0191,-0.00503,-0.00729
0.51537,0.44701,-0.73114,0.01932,9e-05,-0.01052
0.51657,0.44715,-0.73021,0.01941,0.00353,-0.01042
0.51787,0.44714,-0.7293,-0.01187,0.04439,0.00231
0.5185,0.44644,-0.72928,-0.03627,0.05689,0.01962
0.51877,0.44522,-0.72983,-0.03735,0.05034,0.02515
0.51852,0.44403,-0.73073,-0.01597,0.00485,0.01343
0.5177,0.44347,-0.73165,-0.00104,-0.01206,0.00095
0.51687,0.44342,-0.73227,0.00872,-0.02431,-0.00787
0.51625,0.44405,-0.73233,0.02852,-0.01783,-0.03531
0.51616,0.44451,-0.73212,0.02601,-0.00711,-0.02924
0.51668,0.44482,-0.73155,0.01851,0.0033,-0.02052
0.5174,0.44502,-0.73092,-0.00666,0.04278,0.01585
0.51763,0.44506,-0.73074,-0.01228,0.05976,0.03501
0.51729,0.44489,-0.73108,-0.01524,0.05447,0.03638
0.51677,0.44475,-0.73153,-0.00124,0.0054,0.00723
0.51606,0.44483,-0.73198,0.0002,-0.00274,-0.00224
0.51509,0.44497,-0.73258,0.00339,-0.00814,-0.00581
0.51414,0.44534,-0.73303,0.01322,-0.01856,-0.02239
0.51381,0.44566,-0.73306,0.01563,-0.00921,-0.01947
0.51417,0.44608,-0.73255,0.0239,0.0129,-0.00319
0.51459,0.44614,-0.73223,-0.02208,0.05607,0.00287
0.51479,0.44579,-0.7323,-0.02668,0.0547,0.01041
0.51467,0.44529,-0.73269,-0.01696,0.02752,0.01966
0.51433,0.445,-0.73311,-0.00203,0.01734,0.013
0.51396,0.44476,-0.73351,0.00474,0.00689,0.00666
0.51357,0.44487,-0.73371,0.01484,-0.01946,-0.01705
0.51342,0.44505,-0.73371,0.01553,-0.0143,-0.02065
0.51359,0.44507,-0.73358,0.00569,0.011,-0.00395
0.51412,0.4447,-0.73343,-0.00686,0.03291,0.01657
0.51466,0.44416,-0.73338,-0.01405,0.04684,0.01988
0.51484,0.44389,-0.73341,-0.01413,0.03514,0.01315
0.51463,0.44398,-0.73351,0.01027,0.00653,-0.00689
0.51428,0.44422,-0.73361,0.01502,0.00369,-0.00314
0.51435,0.44416,-0.73359,0.01142,0.00559,-0.00646
0.51478,0.44402,-0.73338,0.004,0.01846,0.00064
0.51525,0.4437,-0.73324,0.00043,0.02395,0.00769
0.51558,0.44333,-0.73323,-0.00275,0.02368,0.00864
0.5158,0.44298,-0.73329,-0.00374,0.02031,0.0035
0.51603,0.44268,-0.73331,-0.00214,0.0122,0.00056
0.51626,0.44242,-0.73331,0.00168,0.0118,-0.00061
0.51659,0.44218,-0.73321,-0.0005,0.0126,-0.00404
0.5169,0.44188,-0.73318,0.00409,0.01259,-0.00121
0.5172,0.44147,-0.73322,0.00261,0.00531,0.00046
0.51754,0.44104,-0.73324,-0.00174,0.00476,0.00436
0.51781,0.44078,-0.7332,-0.00492,0.01076,0.00635
0.51801,0.4406,-0.73317,-0.00353,0.01243,0.00708
0.51811,0.4405,-0.73316,0.00198,0.01341,0.00086
0.51822,0.44044,-0.73312,0.00972,0.01318,0.00018
0.51828,0.44031,-0.73315,0.01008,0.01483,-0.00133
0.51838,0.44014,-0.73318,0.00115,0.01427,0.00416
0.51848,0.44,-0.7332,-0.00443,0.00995,0.00564
0.51842,0.44001,-0.73323,-0.00347,0.00621,0.00627
0.51815,0.44023,-0.73329,0.00583,0.00284,-0.00032
0.5178,0.44053,-0.73336,0.0056,0.01154,-0.00077
0.51758,0.44077,-0.73337,0.00492,0.01222,0.00111
0.51752,0.44106,-0.73324,0.00287,0.01486,0.00308
0.51741,0.44147,-0.73307,0.00053,0.02077,-0.00326
0.51721,0.4419,-0.73295,-0.00147,0.02172,-0.00554
0.51699,0.44228,-0.73287,-0.00341,0.0189,-0.00069
0.51685,0.44264,-0.73276,-0.00441,0.01572,0.00667
0.51677,0.44287,-0.73268,-0.00303,0.01546,0.00952
0.51669,0.44296,-0.73268,0.00135,0.01382,0.01028
0.51664,0.44296,-0.73271,0.00104,0.01302,0.00443
0.51669,0.44281,-0.73277,0.001,0.01317,0.00448
0.51671,0.44269,-0.73282,-0.00036,0.01991,0.00425
0.51676,0.44254,-0.73288,-0.0019,0.01533,-0.00175
0.5167,0.44246,-0.73297,0.00446,0.00969,-0.00574
0.51657,0.44252,-0.73302,0.00769,0.00505,-0.00167
0.51652,0.44275,-0.73292,0.00548,-0.00419,-0.00441
0.51649,0.44322,-0.73266,0.00291,-0.00206,-0.00435
0.51648,0.44383,-0.7323,-0.00084,0.01153,0.00233
0.5165,0.44437,-0.73196,0.00262,0.03587,0.01008
0.51657,0.44471,-0.7317,0.00742,0.03352,0.00989
0.51658,0.44483,-0.73162,0.00529,0.03085,0.0081
0.51653,0.44468,-0.73175,-0.00078,0.01896,0.01006
0.51659,0.44426,-0.73196,-0.0017,0.01869,0.01072
0.51671,0.4438,-0.73215,0.00124,0.0157,0.00437
0.51674,0.44327,-0.73246,0.00418,0.00873,0.00341
0.5167,0.44276,-0.7328,0.00184,0.00565,-0.00137
0.51665,0.44244,-0.73302,0.00307,0.0068,-0.00295
0.51665,0.44231,-0.7331,0.00675,0.00655,-0.00619
0.51677,0.44234,-0.733,0.00937,0.01145,-0.00191
0.51689,0.44242,-0.73286,0.00777,0.01731,-0.0018
0.51696,0.44246,-0.73279,-0.00052,0.01732,0.00722
0.51705,0.44248,-0.73272,-9e-05,0.01478,0.00814
0.5172,0.4426,-0.73254,-0.00833,0.02026,0.01054
0.51731,0.44264,-0.73243,-0.01177,0.01962,0.00821
0.5173,0.44261,-0.73246,-0.00822,0.01333,0.00353
0.51724,0.44264,-0.73248,0.00336,0.00834,-0.00046
0.51716,0.44272,-0.73249,0.00735,0.01173,-0.0051
0.51714,0.4427,-0.73252,0.00517,0.01854,-0.00582
0.51706,0.44266,-0.7326,0.00832,0.02073,0.00683
0.5168,0.44266,-0.73278,0.00641,0.01542,0.00461
0.5165,0.44271,-0.73296,0.00304,0.01059,0.00405
0.51641,0.44282,-0.73296,0.00653,0.01133,0.00458
0.51642,0.44296,-0.73287,0.00195,0.01169,0.01099
0.51644,0.44307,-0.73279,-0.00379,0.01346,0.00829
0.51641,0.44318,-0.73274,-0.00764,0.01175,0.00253
0.5163,0.44332,-0.73274,-0.01303,0.01243,-0.00054
0.51608,0.44346,-0.7328,-0.01022,0.01243,-0.00176
0.51596,0.44366,-0.73277,0.00223,0.01706,-0.00176
0.5161,0.44371,-0.73264,0.00351,0.01924,0.00377
0.51636,0.44357,-0.73254,0.00323,0.01748,0.00893
0.5166,0.44335,-0.73251,0.00109,0.01673,0.01635
0.51679,0.443,-0.73259,0.00409,0.02107,0.01594
0.51691,0.44249,-0.73281,0.00472,0.02208,0.012
0.51685,0.44187,-0.73322,0.01065,0.01743,-0.00074
0.51671,0.44129,-0.73367,0.01028,0.01003,-0.00619
0.51656,0.44087,-0.73402,0.01011,0.00688,-0.00499
0.51634,0.44077,-0.73424,0.0025,0.00563,-0.00648
0.51613,0.44088,-0.73432,0.00065,0.00457,-0.00803
0.51594,0.4412,-0.73427,-0.00267,0.00807,-0.00721
0.51584,0.4416,-0.7341,-0.00118,0.00803,-0.0033
0.5158,0.44207,-0.73384,-0.00033,0.01389,0.00222
0.51571,0.44252,-0.73363,-0.00445,0.02089,0.00613
0.51546,0.44287,-0.73359,-0.00066,0.01947,0.00514
0.51505,0.44319,-0.73369,0.00051,0.01616,0.00745
0.51467,0.44344,-0.73381,0.00241,0.01829,0.01007
0.51434,0.44361,-0.73394,0.00286,0.01539,0.00808
0.51415,0.44362,-0.73406,0.00363,0.01347,0.00559
0.51398,0.44361,-0.73419,0.00415,0.01326,0.0048
0.51374,0.44369,-0.7343,0.00738,0.01239,0.00097
0.5135,0.44382,-0.7344,0.00442,0.01559,0.00399
0.51328,0.44395,-0.73447,0.00305,0.01302,0.001
0.51306,0.44413,-0.73452,0.00106,0.00938,-0.00123
0.51274,0.4444,-0.73458,0.00168,0.01017,0.00071
0.51239,0.44471,-0.73464,0.00165,0.01486,0.00146
0.51192,0.44495,-0.73482,-0.00165,0.02905,0.00408
0.51142,0.44496,-0.73516,0.00151,0.02564,0.00651
0.51085,0.44484,-0.73563,-0.00975,0.01181,0.0047
0.51034,0.44452,-0.73618,-0.0232,0.00244,-0.00577
0.50998,0.4443,-0.73656,-0.02373,-0.00599,-0.01809
0.50974,0.44447,-0.73662,-0.01522,-0.00903,-0.01524
0.5095,0.445,-0.73647,0.01387,0.00312,-0.00385
0.50912,0.44559,-0.73637,0.03391,0.01335,0.0099
0.50877,0.44629,-0.73619,0.03454,0.01847,0.01227
0.50843,0.44726,-0.73584,0.02402,0.01516,0.01353
0.50798,0.44846,-0.73542,0.01416,0.01745,0.01715
0.50734,0.4497,-0.73511,0.00835,0.02584,0.01622
0.50672,0.45086,-0.73482,0.00338,0.02921,0.00368
0.50618,0.45183,-0.73459,0.00073,0.02351,-0.00115
0.5057,0.45242,-0.73457,-0.00089,0.02008,-0.00268
0.5053,0.45258,-0.73474,-0.01211,0.02177,0.00208
0.50506,0.45234,-0.73506,-0.02167,0.02789,0.00779
0.50502,0.45184,-0.73538,-0.02537,0.02996,0.00783
0.50508,0.45135,-0.73565,-0.01915,0.01624,-0.00311
0.50514,0.45092,-0.73586,-0.00643,0.01001,-0.00518
0.50521,0.45053,-0.73606,-0.00062,0.00759,-0.00462
0.50527,0.4502,-0.73622,0.00726,0.00961,0.00026
0.5054,0.44993,-0.7363,0.00697,0.00834,0.00392
0.50549,0.44976,-0.73634,0.00688,0.00851,0.00396
0.50542,0.44978,-0.73638,0.01587,0.00633,0.00516
0.50526,0.44988,-0.73642,0.01848,0.01271,0.0066
0.50507,0.45001,-0.73647,0.01868,0.01257,0.00665
0.50492,0.45011,-0.73652,0.01319,0.01867,0.00718
0.50481,0.4502,-0.73653,0.00941,0.01487,0.00397
0.50466,0.45033,-0.73656,0.00463,0.01317,0.00411
0.50447,0.45049,-0.73659,0.00087,0.01201,0.001
0.50429,0.45069,-0.73659,-0.00448,0.01258,-0.00111
0.50414,0.45094,-0.73655,-0.00861,0.01316,-0.00314
0.504,0.45118,-0.73649,-0.00934,0.01651,0.00115
0.50391,0.45132,-0.73647,-0.0112,0.01876,-0.00113
0.50385,0.45137,-0.73647,-0.00655,0.01742,-0.00167
0.5038,0.45136,-0.73652,0.00048,0.01635,0.00216
0.5037,0.45127,-0.73664,0.00558,0.01363,0.00767
0.50374,0.45108,-0.73673,0.00621,0.01352,0.00386
0.50384,0.45094,-0.73674,0.00864,0.01291,0.00649
0.50391,0.45077,-0.7368,0.00855,0.01647,0.00919
0.50394,0.45054,-0.73693,0.01067,0.01562,0.00873
0.50402,0.45027,-0.73703,0.0059,0.01325,0.00196
0.50412,0.4501,-0.73707,0.00551,0.01186,0.00166
0.50415,0.45001,-0.7371,0.00113,0.01277,-0.00051
0.50418,0.44996,-0.73711,0.00053,0.01339,-0.00123
0.50422,0.44993,-0.73711,-0.00304,0.01235,-0.00238
0.50421,0.44994,-0.73711,-0.00181,0.01232,-0.00131
0.50414,0.44997,-0.73714,-0.00154,0.01195,0.00145
0.50413,0.44998,-0.73714,0.00059,0.01383,0.00298
0.50408,0.45003,-0.73714,0.0015,0.01562,0.00468
0.50398,0.4501,-0.73716,0.0053,0.0148,0.00306
0.50387,0.4502,-0.73718,0.00442,0.0151,0.00238
0.50382,0.45031,-0.73715,0.00376,0.01519,0.00227
0.50379,0.45042,-0.7371,0.00323,0.01566,0.00653
0.5037,0.45049,-0.73711,0.00341,0.01107,0.00573
0.50355,0.45065,-0.73712,0.00344,0.00925,0.004
0.50336,0.45095,-0.73707,0.00093,0.01033,0.0007
0.50308,0.45124,-0.73708,0.00185,0.01257,-0.00446
0.50271,0.45158,-0.73713,0.00403,0.01064,-0.00593
0.50236,0.45205,-0.73708,0.00496,0.0118,-0.00047
0.50207,0.45258,-0.73695,0.00277,0.01333,0.00252
0.50182,0.45316,-0.73677,0.00395,0.01463,0.00503
0.50161,0.45372,-0.73656,0.00187,0.01278,0.00516
0.50145,0.45425,-0.73635,0.00214,0.01928,0.00806
0.50135,0.4546,-0.7362,0.00223,0.01893,0.00791
0.50135,0.45465,-0.73616,-0.00288,0.02205,0.01099
0.50149,0.45447,-0.73618,-0.00477,0.01929,0.00454
0.50172,0.45422,-0.73618,-0.0028,0.02005,0.00134
0.50201,0.45391,-0.73618,0.00106,0.02352,0.00763
0.50239,0.45329,-0.7363,0.00033,0.02386,0.00737
0.50289,0.45247,-0.73645,-0.00114,0.02221,0.00579
0.50339,0.45181,-0.73652,0.00207,0.00865,-0.00373
0.50377,0.45133,-0.73655,0.00375,0.01305,0.00117
0.50404,0.45071,-0.73675,0.00348,0.01367,0.00137
0.50439,0.45001,-0.73694,-0.002,0.01421,0.00044
0.50479,0.44945,-0.73701,0.0017,0.00816,-0.00264
0.50503,0.44909,-0.73706,0.00646,0.00887,-0.00444
0.50502,0.44881,-0.73724,0.01155,0.01291,0.0055
0.50504,0.4484,-0.73747,0.00462,0.01099,0.00975
0.50531,0.44813,-0.73745,0.00435,0.01126,0.00973
0.5056,0.44809,-0.73728,0.00142,0.01341,0.00202
0.50583,0.44801,-0.73718,-0.00082,0.01402,-0.00355
0.50619,0.44787,-0.73701,-0.00131,0.01432,-0.00307
0.50664,0.44784,-0.73672,-0.00548,0.01287,-0.00291
0.50702,0.44782,-0.73647,-0.00978,0.01414,-0.00709
0.50732,0.44782,-0.73626,-0.01117,0.01283,-0.01046
0.50753,0.44791,-0.73606,-0.00141,0.01159,-0.00291
0.50763,0.44802,-0.73593,0.00215,0.01665,0.00659
0.50773,0.44807,-0.73583,0.00526,0.02161,0.01046
0.50785,0.44818,-0.73568,0.008,0.01533,0.01359
0.50797,0.44835,-0.73549,0.01055,0.0126,0.01457
0.508,0.44848,-0.73539,0.01102,0.01523,0.0151
0.50798,0.44853,-0.73537,0.00116,0.01708,0.01018
0.50772,0.44842,-0.73562,0.00164,0.01247,0.00673
0.50713,0.44838,-0.73605,0.00198,0.00625,0.0014
0.50636,0.44854,-0.73649,0.00773,-0.00579,-0.01002
0.5057,0.44891,-0.73671,0.00913,-0.00291,-0.00993
0.50536,0.44946,-0.73661,0.00417,0.00397,-0.00905
0.50529,0.4501,-0.73627,-0.01041,0.0281,-0.00492
0.50527,0.45068,-0.73593,-0.01695,0.03803,-0.00277
0.50523,0.45104,-0.73574,-0.01907,0.03567,-0.00155
0.50538,0.45101,-0.73565,-0.02253,0.02766,0.00521
0.50585,0.45064,-0.73555,-0.01806,0.02275,0.00905
0.50643,0.44993,-0.7356,-0.01316,0.02151,0.00883
0.50688,0.44914,-0.73576,0.00557,0.01094,0.00523
0.50731,0.44834,-0.73596,0.01314,0.01465,0.00946
0.50772,0.44752,-0.73616,0.01381,0.01737,0.00962
0.50815,0.44692,-0.73624,0.01348,0.00351,-3e-05
0.50856,0.44648,-0.73622,0.01339,0.00356,-0.00031
0.50894,0.44626,-0.73609,0.00943,0.00422,-0.00091
0.50936,0.44618,-0.73585,0.00709,0.01198,-0.00203
0.50967,0.44614,-0.73566,0.00049,0.01274,0.0026
0.50984,0.44609,-0.73557,-0.00218,0.01262,0.00565
0.51001,0.44613,-0.73544,-0.00462,0.01388,0.00144
0.51013,0.44625,-0.73528,-0.00424,0.01953,-0.00308
0.51018,0.44632,-0.73519,-0.00112,0.01825,-0.00283
0.51024,0.44634,-0.73514,-0.00401,0.01365,0.00167
0.51042,0.4464,-0.73498,-0.00798,0.01446,0.00254
0.51064,0.44655,-0.73474,-0.01066,0.01624,0.00288
0.51077,0.44674,-0.73453,-0.01129,0.01202,-0.00016
0.51078,0.447,-0.73437,0.00497,0.0078,-0.00292
0.51076,0.44728,-0.73421,0.00564,0.01057,-0.00034
0.51071,0.44753,-0.73409,0.0072,0.01715,0.00706
0.51061,0.44779,-0.734,0.00857,0.01587,0.00718
0.5105,0.44812,-0.73388,0.00868,0.01553,0.00706
0.51028,0.44851,-0.7338,0.00955,0.0153,0.00353
0.51004,0.44891,-0.73371,0.00664,0.01245,-0.00179
0.50979,0.44931,-0.73365,0.00712,0.01334,-0.00301
0.50954,0.44972,-0.73356,-0.00078,0.02299,-0.00081
0.50926,0.45011,-0.73352,-0.00444,0.02763,0.0
0.50893,0.4504,-0.73357,-0.00503,0.02515,-1e-05
0.5086,0.45056,-0.7337,-0.00811,0.01978,0.00503
0.50838,0.45057,-0.73385,-0.00635,0.01258,0.00694
0.50844,0.45057,-0.73381,-0.00138,0.01411,0.00767
0.50873,0.45049,-0.73366,0.00355,0.01916,0.00876
0.50893,0.45026,-0.73366,0.00619,0.02096,0.01017
0.50897,0.4499,-0.73385,0.00243,0.01401,0.00882
0.50906,0.44956,-0.734,-0.00168,0.00651,-0.00561
0.50927,0.44936,-0.73398,-0.00367,0.00773,-0.01296
0.50947,0.44915,-0.73396,-0.00764,0.01372,-0.01577
0.50981,0.44892,-0.73387,-0.01839,0.01882,-0.00771
0.51034,0.44867,-0.73366,-0.01653,0.02053,-0.00356
0.51103,0.44847,-0.7333,-0.01305,0.01734,0.00338
0.51173,0.44826,-0.73294,0.00104,0.01789,0.00967
0.51243,0.44795,-0.73264,0.00573,0.01654,0.01006
0.51317,0.44751,-0.73238,0.00647,0.01594,0.00764
0.51384,0.44703,-0.73221,0.00372,0.01893,0.0044
0.51454,0.44648,-0.73206,0.00194,0.02203,0.00757
0.51511,0.44581,-0.73206,-0.00224,0.02146,0.01281
0.51559,0.4451,-0.73216,-0.00366,0.01066,0.00816
0.51596,0.44448,-0.73227,0.00183,0.0072,-0.00245
0.51634,0.44395,-0.73233,0.00209,0.00355,-0.00522
0.51674,0.4435,-0.73232,0.00731,0.01597,-0.00862
0.51701,0.44297,-0.73245,0.00415,0.01619,-0.00486
0.51718,0.44238,-0.73269,0.00399,0.01679,-0.00462
0.51745,0.44199,-0.73272,0.00069,0.01638,-0.00225
0.51777,0.44185,-0.73259,0.00121,0.01146,0.00522
0.51801,0.44184,-0.73242,0.00097,0.01147,0.00505
0.51823,0.44192,-0.73222,-0.0038,0.01086,0.00347
0.51839,0.44208,-0.73201,-0.00445,0.00856,-0.0019
0.5184,0.4424,-0.73181,-0.00294,0.00852,-0.0019
0.51821,0.44282,-0.73169,0.00103,0.01715,0.00099
0.51788,0.44323,-0.73167,0.00082,0.01506,-0.0
0.51745,0.44364,-0.73172,9e-05,0.0186,-0.0009
0.517,0.44405,-0.7318,-0.00179,0.01718,-0.0034
0.51663,0.44438,-0.73186,0.0001,0.01746,-9e-05
0.51634,0.44458,-0.73194,-0.00476,0.02703,0.00306
0.51612,0.44461,-0.73207,-0.00888,0.01722,0.00212
0.51605,0.44454,-0.73217,-0.00636,0.01342,-0.0044
0.51604,0.44434,-0.7323,-0.00856,0.01384,-0.00638
0.51595,0.44414,-0.73249,-0.00827,0.01529,0.00178
0.51577,0.44398,-0.73271,-0.00884,0.01364,0.0005
0.51534,0.44392,-0.73305,-0.00817,0.01348,0.0027
0.51481,0.44393,-0.73342,0.0029,0.01992,-0.00083
0.51455,0.44373,-0.73372,-0.00608,0.02253,0.00119
0.51454,0.44344,-0.7339,0.00273,0.01924,0.00806
0.51413,0.44354,-0.73413,0.02127,0.02093,0.01112
0.51359,0.44365,-0.73444,0.01572,0.01737,0.0184
0.51345,0.44338,-0.7347,0.02987,-0.00681,0.02278
0.51391,0.44309,-0.73456,0.00909,-0.00316,0.01573
0.5151,0.44324,-0.73363,-0.01353,0.00825,-0.0202
0.51564,0.44371,-0.73296,-0.03014,0.01121,-0.02856
0.51442,0.44427,-0.73348,-0.01828,0.00751,-0.01884
0.51252,0.44522,-0.73424,-0.00271,0.02353,-0.00893
0.51145,0.44613,-0.73443,-0.00236,0.02975,-0.00797
0.51123,0.44654,-0.73434,-0.0144,0.02117,-0.00544
0.5112,0.44661,-0.73432,-0.01718,0.01903,0.00193
0.51109,0.4466,-0.73439,-0.01166,0.01739,0.00622
0.51115,0.44663,-0.73433,-0.00412,0.02287,0.015
0.51146,0.44649,-0.7342,-0.0015,0.02771,0.01316
0.5117,0.44607,-0.73429,0.00036,0.02689,0.00993
0.5116,0.44558,-0.73466,0.00691,0.01638,0.01345
0.51149,0.44504,-0.73506,0.00702,0.01692,0.01385
0.51162,0.4446,-0.73524,0.00762,0.00771,0.00311
0.5119,0.44418,-0.7353,0.00331,0.00287,-0.00742
0.51208,0.44384,-0.73538,0.00133,0.00277,-0.01066
0.51207,0.44384,-0.73538,0.00032,0.00115,-0.01155
0.51195,0.44429,-0.73519,0.00199,0.01211,-0.00692
0.51179,0.44491,-0.73494,-0.00109,0.02091,-0.00461
0.51162,0.4455,-0.7347,-0.00216,0.02014,-0.00281
0.51149,0.44602,-0.73447,-0.00749,0.01687,0.00189
0.51142,0.44641,-0.73428,-0.00928,0.01915,0.00647
0.51145,0.44659,-0.73415,-0.01126,0.0199,0.00475
0.51148,0.44658,-0.73413,-0.00888,0.02372,0.00566
0.51149,0.44639,-0.73425,-0.00365,0.02174,0.00573
0.51153,0.44608,-0.7344,-0.00343,0.02206,0.0075
0.51157,0.44575,-0.73458,0.00265,0.01506,0.00276
0.51166,0.44535,-0.73476,0.002,0.01091,0.00468
0.51176,0.44511,-0.73483,-0.00135,0.00864,0.00566
0.51174,0.44515,-0.73482,0.00362,0.00266,-0.00532
0.51156,0.44539,-0.7348,0.00817,0.00157,-0.00972
0.51127,0.44584,-0.73472,0.00479,-0.00035,-0.01033
0.51097,0.44647,-0.73455,0.00105,0.00885,-0.00614
0.51072,0.44722,-0.73428,-0.00317,0.01466,-0.0015
0.51047,0.44804,-0.73395,-0.00547,0.01762,-0.00035
0.51023,0.44874,-0.73369,-0.00419,0.02923,0.00743
0.51008,0.44918,-0.73353,-0.00886,0.03528,0.01009
0.51005,0.44927,-0.73349,-0.00952,0.03169,0.00925
0.51007,0.44908,-0.73359,-0.00602,0.02559,0.00754
0.51011,0.44872,-0.73378,-0.00024,0.02079,0.00435
0.51022,0.44812,-0.73407,0.00038,0.01985,0.00352
0.5104,0.44743,-0.73437,0.00072,0.0138,0.00425
0.51065,0.4468,-0.73458,0.00316,0.00381,-0.00275
0.51082,0.44631,-0.73476,0.00312,0.00229,-0.00618
0.51082,0.44605,-0.73491,0.00459,0.00536,-0.00654
0.5108,0.44606,-0.73493,0.00586,0.0089,-0.00792
0.51084,0.44631,-0.73475,0.00328,0.01132,-0.00562
0.5109,0.44659,-0.73453,-0.00206,0.0195,0.00086
0.51089,0.44689,-0.73436,-0.00415,0.01874,0.00199
0.51088,0.44714,-0.73421,-0.00441,0.01988,0.00185
0.51089,0.44733,-0.73409,-0.00619,0.02243,0.0064
0.51098,0.44731,-0.73404,-0.00501,0.02256,0.00495
0.51106,0.44709,-0.73411,-0.00644,0.02024,0.00748
0.51116,0.44671,-0.73428,-0.00481,0.01404,0.00641
0.5113,0.44628,-0.73444,-0.00146,0.0123,0.00734
0.51142,0.44588,-0.7346,-0.00223,0.01092,0.00322
0.51152,0.44568,-0.73465,0.00822,-0.00124,-0.01309
0.51155,0.44581,-0.73456,0.00786,0.00226,-0.01784
0.51145,0.44618,-0.7344,0.00967,0.00681,-0.01752
0.51133,0.44665,-0.73419,0.00298,0.02364,-0.00451
0.51134,0.44711,-0.73391,-0.00015,0.0244,0.00099
0.51145,0.44744,-0.73363,-0.00522,0.02631,0.01104
0.5116,0.44757,-0.73345,-0.00774,0.02485,0.01308
0.51179,0.44739,-0.73342,-0.00479,0.02328,0.00799
0.51204,0.44691,-0.73355,-0.00264,0.02113,0.00545
0.51227,0.44617,-0.73384,-0.00436,0.02092,0.00241
0.51248,0.44533,-0.73419,-0.00124,0.01334,-0.00218
0.51272,0.44454,-0.73451,-0.00316,0.01217,-0.00435
0.51302,0.44384,-0.73472,0.00492,-0.00112,-0.00588
0.5133,0.44333,-0.73484,0.00422,0.00298,-0.0055
0.5135,0.44297,-0.73491,0.00509,0.00477,-0.00654
0.51369,0.44279,-0.73489,0.00084,0.00889,0.00119
0.5139,0.44273,-0.73478,0.00026,0.01114,0.00484
0.51407,0.4428,-0.73461,-0.0021,0.01104,0.00268
0.51417,0.44298,-0.73444,-0.00366,0.01455,0.00325
0.51422,0.44313,-0.73431,-0.00817,0.01587,0.00179
0.51426,0.44326,-0.7342,-0.00779,0.016,0.0028
0.5144,0.44339,-0.73403,-0.00712,0.0213,0.0022
0.51454,0.44337,-0.73394,-0.00322,0.01823,0.00016
0.51466,0.44327,-0.73392,-0.00234,0.01486,0.00087
0.51474,0.44322,-0.73389,-0.00229,0.01298,-0.00184
0.51489,0.44316,-0.73383,-0.00086,0.01544,0.00159
0.51509,0.44304,-0.73376,-0.0032,0.01473,0.00034
0.51527,0.44288,-0.73373,-0.00474,0.01202,0.00083
0.51539,0.44272,-0.73373,0.00171,0.01138,0.0029
0.51545,0.44262,-0.73376,0.00248,0.0078,0.0013
0.51541,0.44262,-0.73379,0.00119,0.00831,0.00433
0.5153,0.44276,-0.73378,0.0001,0.00817,-9e-05
0.51515,0.44304,-0.73371,0.00092,0.00858,-0.00217
0.515,0.44344,-0.73358,0.00212,0.01242,-0.00429
0.51484,0.44388,-0.73342,0.00176,0.01355,-0.00095
0.51472,0.44432,-0.73324,0.00098,0.01328,-0.00263
0.51464,0.44475,-0.73304,-0.00243,0.01532,0.00205
0.51459,0.4452,-0.7328,-0.00467,0.02096,0.00084
0.5145,0.44559,-0.73262,-0.00472,0.02545,0.00341
0.51444,0.4458,-0.73254,-0.00298,0.02455,0.00325
0.51449,0.44581,-0.7325,-0.00428,0.01936,0.00474
0.51459,0.44564,-0.73253,-0.00484,0.01917,0.006
0.51467,0.44539,-0.73262,-0.00138,0.01362,0.00359
0.51472,0.44516,-0.73273,0.00214,0.01417,-0.00166
0.51475,0.44494,-0.73284,0.00228,0.0134,-0.00249
0.51479,0.44474,-0.73294,0.0039,0.01119,-0.00301
0.51483,0.44465,-0.73296,0.00416,0.01085,-0.00601
0.51485,0.44466,-0.73294,0.00381,0.01184,-0.0041
0.51485,0.44476,-0.73288,0.00138,0.01864,-0.0018
0.51482,0.44485,-0.73285,-0.00261,0.01604,0.00302
0.51482,0.44492,-0.7328,-0.00345,0.01614,0.00334
0.51486,0.44499,-0.73273,-0.00122,0.01933,0.00396
0.51488,0.44492,-0.73276,-0.00411,0.021,0.00313
0.51485,0.44474,-0.73289,-0.0019,0.01745,0.00119
0.5148,0.44455,-0.73304,-0.00105,0.01262,-0.00162
0.51479,0.44434,-0.73318,-0.00065,0.01232,-0.00225
0.51485,0.44411,-0.73328,-0.00255,0.01134,0.00109
0.51489,0.44389,-0.73338,-0.00639,0.01051,0.00305
0.51486,0.44371,-0.73351,-0.00372,0.00798,0.0019
0.51478,0.44364,-0.73362,-0.00141,0.009,-0.00119
0.51457,0.44374,-0.7337,0.00216,0.00748,-0.0054
0.51427,0.44397,-0.73377,0.00245,0.00725,-0.00534
0.51395,0.44442,-0.73372,0.00115,0.01295,-0.00166
0.51371,0.44496,-0.73356,-0.00235,0.01564,-0.00168
0.51348,0.44551,-0.73339,-0.00359,0.01689,0.00472
0.51329,0.44602,-0.73322,-0.003,0.01649,0.00349
0.51308,0.44648,-0.73308,-0.00333,0.01723,0.00558
0.51287,0.44683,-0.73301,-0.00567,0.01781,0.00645
0.51267,0.44707,-0.73301,-0.00716,0.02261,0.00498
0.51248,0.44713,-0.7331,-0.00505,0.02329,0.00348
0.5123,0.44703,-0.73329,-0.00556,0.01807,0.00259
0.5121,0.44686,-0.73353,-0.00415,0.01445,0.00243
0.51193,0.44673,-0.73373,-0.00047,0.00685,-0.00254
0.51177,0.44667,-0.73388,0.00524,0.00334,-0.00851
0.51163,0.44671,-0.73396,0.00725,0.00405,-0.01002
0.5115,0.44689,-0.73393,0.00088,0.00866,-0.00569
0.5114,0.44719,-0.73381,0.00059,0.01039,-0.00344
0.51135,0.44764,-0.73358,-0.00177,0.01409,-0.0004
0.51128,0.44818,-0.7333,-0.00109,0.01795,0.00254
0.51115,0.44869,-0.73308,-0.0028,0.01865,0.0054
0.51103,0.44911,-0.73291,-0.00268,0.01824,0.00523
0.51098,0.44937,-0.73278,-0.00814,0.02881,0.00746
0.51091,0.44938,-0.73282,-0.00603,0.02334,0.00849
0.51078,0.44927,-0.73298,-0.00442,0.01841,0.00476
0.5106,0.44911,-0.7332,0.00093,0.00942,-0.00465
0.51054,0.44895,-0.73334,0.00383,0.01537,-0.00464
0.51058,0.44871,-0.73346,-0.00266,0.01711,-0.00127
0.51062,0.44838,-0.73364,-0.00659,0.00981,-0.00123
0.51061,0.44809,-0.73382,-0.00191,0.00806,-0.00257
0.51057,0.44791,-0.73396,-0.00188,0.00824,-0.00243
0.51053,0.44784,-0.73403,0.00438,0.00978,-0.00422
0.51051,0.44786,-0.73403,-0.00024,0.01319,-0.00041
0.51049,0.44791,-0.73401,-0.00202,0.01324,-1e-05
0.5105,0.44799,-0.73396,-0.00113,0.01377,0.00219
0.51048,0.44811,-0.7339,-0.00023,0.01342,0.00196
0.51043,0.44821,-0.73387,-0.00102,0.01367,0.0036
0.51036,0.44826,-0.73389,-0.00135,0.01529,0.00386
0.51032,0.44824,-0.73393,-0.00361,0.01876,0.00355
0.51031,0.44813,-0.73401,-0.00359,0.01955,0.00264
0.51031,0.44799,-0.73409,-0.00459,0.01495,0.00164
0.51035,0.44782,-0.73416,-0.00504,0.01195,-0.00125
0.51041,0.44764,-0.73423,-0.00397,0.01248,-0.00238
0.51044,0.44754,-0.73427,-0.00229,0.00453,-0.00115
0.51045,0.44751,-0.73428,0.00148,0.00323,-0.00392
0.51047,0.4476,-0.73422,0.00142,0.00449,-0.00362
0.51046,0.44779,-0.73411,0.00431,0.01455,-0.00266
0.51054,0.448,-0.73393,0.00121,0.02226,0.00171
0.51066,0.44816,-0.73375,-0.00208,0.01898,0.0034
0.51086,0.44824,-0.73356,-0.00583,0.01826,0.00124
0.51109,0.44829,-0.73336,-0.00217,0.01907,0.00169
0.51134,0.44819,-0.73325,-0.00153,0.02207,0.00235
0.51157,0.448,-0.73321,0.00126,0.01253,-0.00204
0.5118,0.44781,-0.73317,0.00268,0.01476,-0.00223
0.51204,0.44758,-0.73314,0.00142,0.01988,0.00023
0.51238,0.44724,-0.73311,-0.0051,0.01554,0.00291
0.51268,0.44689,-0.7331,-0.00211,0.00857,0.00157
0.51287,0.44666,-0.73311,-0.00036,0.01037,0.00039
0.51301,0.44646,-0.73314,0.00428,0.01237,-0.00148
0.51313,0.44627,-0.73318,0.00134,0.01183,-0.00179
0.51324,0.44614,-0.73317,0.00043,0.01014,-0.00422
0.51331,0.44617,-0.73311,-0.00359,0.01208,-0.00362
0.51337,0.44625,-0.73302,-0.00351,0.01313,-0.00134
0.51342,0.44636,-0.73292,-0.00049,0.0145,-0.00211
0.51349,0.44645,-0.73281,-0.00514,0.01857,0.00144
0.5136,0.4465,-0.7327,-0.00565,0.02072,0.00388
0.51369,0.44651,-0.73264,-0.00483,0.01951,0.00467
0.51368,0.44649,-0.73265,-0.00078,0.01278,0.00193
0.51352,0.44653,-0.73274,0.00514,0.0063,-0.00067
0.51333,0.44662,-0.73281,0.00552,0.004,0.00198
0.51315,0.44675,-0.73287,0.00289,0.00697,-0.00048
0.51304,0.44688,-0.73286,-0.00015,0.01461,-0.00151
0.51297,0.44701,-0.73284,-7e-05,0.01448,-0.00154
0.51295,0.44713,-0.73277,-0.00326,0.01913,-0.003
0.51305,0.44722,-0.73265,-0.00504,0.01718,-0.00047
0.51325,0.44728,-0.73247,-0.00697,0.01428,-0.00204
0.51352,0.44729,-0.73227,-0.00463,0.0134,-0.00154
0.5138,0.44731,-0.73207,-0.00129,0.00813,-0.00063
0.51414,0.44736,-0.7318,-0.00163,0.00809,-0.0009
0.51448,0.44757,-0.73144,0.00673,0.00836,-0.00611
0.51485,0.44784,-0.73101,0.00462,0.01542,-0.00663
0.51526,0.44808,-0.73057,-0.00048,0.01559,-7e-05
0.51576,0.44816,-0.73016,-0.00559,0.02091,0.01296
0.51606,0.44808,-0.73001,-0.00582,0.02239,0.01283
0.51611,0.44793,-0.73006,-0.00468,0.02107,0.01165
0.516,0.44779,-0.73022,-0.00079,0.01382,0.00372
0.51589,0.44758,-0.73043,0.00153,0.01146,-0.00213
0.51591,0.44724,-0.73063,0.0008,0.01312,-0.00759
0.51601,0.44681,-0.73082,-0.00083,0.01283,-0.00838
0.51615,0.44637,-0.73098,-0.00517,0.01023,-0.00379
0.51634,0.44602,-0.73107,-0.00383,0.01266,-0.00178
0.51649,0.4458,-0.73109,-0.00227,0.01484,-0.00214
0.51657,0.44562,-0.73115,-0.00067,0.00743,-0.00181
0.51668,0.44551,-0.73114,0.00079,0.00253,-0.0024
0.5168,0.4456,-0.731,0.00382,0.00139,-0.00489
0.51698,0.44573,-0.73079,-0.00067,0.01265,-0.00328
0.51718,0.44578,-0.73062,-0.00378,0.01974,-0.00266
0.5173,0.44577,-0.73054,-0.0103,0.03066,0.01135
0.51731,0.44572,-0.73057,-0.01139,0.02695,0.00939
0.51714,0.44571,-0.73069,0.00355,0.00411,-0.00617
0.51692,0.44579,-0.7308,0.01116,-0.00043,-0.0084
0.51687,0.44584,-0.7308,0.00851,0.00678,-0.00162
0.5171,0.44573,-0.73071,0.00371,0.01355,0.001
0.51741,0.44562,-0.73056,-0.00592,0.01948,-0.00042
0.51754,0.44561,-0.73047,-0.01072,0.0234,0.00658
0.5175,0.4456,-0.7305,-0.00532,0.01962,0.00282
0.51737,0.44557,-0.73061,-0.00043,0.01448,-0.00129
0.51721,0.44549,-0.73077,0.00342,0.00611,-0.00342
0.51716,0.44534,-0.7309,-0.00052,0.01055,-0.00025
0.51729,0.44505,-0.73099,-0.00615,0.01943,0.00101
0.51749,0.44469,-0.73106,-0.00786,0.0245,0.00163
0.51754,0.44432,-0.73126,-0.00846,0.01253,0.00921
0.5174,0.44398,-0.73156,-0.0042,0.00302,0.00501
0.51716,0.44388,-0.73179,0.00169,-0.00389,-0.00019
0.51693,0.44399,-0.73188,0.0037,-0.00452,-0.00751
0.51675,0.44433,-0.73181,0.00245,0.00134,-0.0183
0.51655,0.44478,-0.73167,-0.0011,0.00814,-0.01531
0.5164,0.44528,-0.73147,-0.00615,0.01375,-0.00708
0.51628,0.44586,-0.7312,-0.00302,0.01833,0.00493
0.5161,0.4465,-0.73095,0.0002,0.02253,0.01182
0.51582,0.4471,-0.73077,0.00048,0.02193,0.01164
0.51549,0.44764,-0.73067,0.0048,0.01758,0.00375
0.51519,0.44806,-0.73062,0.00653,0.01852,0.00348
0.51498,0.44826,-0.73065,0.0049,0.01972,0.00293
0.51489,0.44823,-0.73074,1e-05,0.02627,0.00181
0.51489,0.44799,-0.73089,-0.00373,0.01755,-0.00097
0.51492,0.44766,-0.73106,-0.00377,0.01788,-0.0008
0.51494,0.44738,-0.73123,0.00247,0.00979,-0.00612
0.51494,0.44701,-0.73145,0.00071,0.01119,-0.00134
0.51496,0.44658,-0.7317,0.00068,0.01163,-0.00109
0.51501,0.4462,-0.73189,-0.00443,0.01325,0.00153
0.51506,0.4459,-0.73204,-0.00999,0.01604,9e-05
0.51502,0.44566,-0.73221,-0.00539,0.01578,-0.00239
0.51499,0.44549,-0.73234,-0.00393,0.01017,-0.00309
0.51497,0.44539,-0.73241,0.0032,0.00607,-0.00414
0.51494,0.44529,-0.7325,0.00323,0.00617,-0.00406
0.51481,0.44536,-0.73255,0.00565,0.00588,-0.00159
0.51476,0.44553,-0.73248,0.00151,0.01033,0.00342
0.51481,0.44568,-0.73235,0.00173,0.0159,0.00146
0.51479,0.44579,-0.7323,-0.00365,0.01333,0.00236
0.51466,0.44594,-0.7323,-0.00326,0.01213,0.00119
0.51453,0.44608,-0.73231,-0.002,0.00915,-7e-05
0.51443,0.44625,-0.73228,-0.00334,0.01462,-0.00231
0.51431,0.4464,-0.73226,-0.00328,0.0125,-0.00308
0.51416,0.44652,-0.7323,-0.00165,0.01161,-0.00287
0.51399,0.4466,-0.73237,0.00013,0.012,0.00062
0.51388,0.44668,-0.7324,-0.00013,0.01444,8e-05
0.51383,0.44677,-0.73238,0.00091,0.015,-0.0015
0.51377,0.44689,-0.73235,0.00016,0.01503,0.00018
0.51366,0.447,-0.73236,-0.00146,0.01385,0.00081
0.51354,0.4471,-0.73238,0.00057,0.01153,0.00228
0.51344,0.44721,-0.73238,-0.00164,0.01252,0.00104
0.51331,0.44729,-0.73242,0.00069,0.01315,0.00095
0.51317,0.44737,-0.73247,0.00058,0.01317,-0.00155
0.51302,0.44749,-0.73251,-0.00066,0.01049,-0.0015
0.5129,0.44764,-0.7325,-0.00213,0.01354,-0.00423
0.51282,0.44778,-0.73246,-0.00182,0.01504,-0.0049
0.51271,0.44789,-0.73247,-0.00238,0.01744,-0.00019
0.51262,0.44793,-0.73252,-0.00232,0.01746,0.00017
0.51256,0.44792,-0.73256,-0.00166,0.01513,0.00069
0.51251,0.44787,-0.73263,-0.00104,0.01351,0.00333
0.51245,0.44776,-0.73274,0.00206,0.01281,0.00143
0.51238,0.44759,-0.73289,0.00213,0.01298,0.00158
0.5123,0.44746,-0.73303,0.00305,0.00974,-0.0034
0.51229,0.4474,-0.73306,0.00541,0.01158,-0.00296
0.51235,0.44739,-0.73304,0.00085,0.01369,-0.00497
0.51233,0.44734,-0.73308,-0.00376,0.01379,-0.00179
0.51226,0.44736,-0.73311,-0.00285,0.0103,-0.0006
0.51218,0.44743,-0.73313,-0.00176,0.01028,0.00099
0.51212,0.44751,-0.73312,-0.00337,0.01472,-0.00082
0.51208,0.44751,-0.73315,-0.00639,0.01303,0.00187
0.51205,0.44746,-0.7332,-0.00425,0.01208,0.00147
0.512,0.44742,-0.73326,-0.00049,0.01167,0.00018
0.51197,0.44734,-0.73333,0.00086,0.01222,-0.0015
0.51197,0.44727,-0.73337,-7e-05,0.01176,-0.00082
0.51199,0.44725,-0.73338,-4e-05,0.01061,-0.00025
0.51203,0.44726,-0.73334,-0.00011,0.01265,-0.00018
0.51203,0.4473,-0.73331,-0.00155,0.0108,-0.00089
0.51199,0.44736,-0.73331,0.00123,0.01061,0.00035
0.51198,0.44741,-0.73328,0.00102,0.01444,0.0018
0.51198,0.44745,-0.73326,0.00061,0.01723,0.0032
0.512,0.44747,-0.73323,0.00029,0.01118,-1e-05
0.512,0.44748,-0.73323,0.00065,0.0096,-0.00403
0.51199,0.44754,-0.73319,0.00056,0.00685,-0.00357
0.51203,0.44762,-0.73311,0.00202,0.00991,-0.00355
0.51214,0.44768,-0.733,-0.00154,0.01437,-0.0003
0.51227,0.44771,-0.73289,-0.00359,0.01661,0.00236
0.51239,0.44774,-0.7328,-0.00433,0.01849,0.00324
0.51244,0.44775,-0.73275,-0.00211,0.01697,0.00152
0.51239,0.44776,-0.73278,0.00023,0.00889,-0.00236
0.51237,0.44776,-0.73279,0.00222,0.01205,0.00301
0.51242,0.44778,-0.73275,0.00267,0.01162,-0.00179
0.51249,0.44775,-0.73272,-0.00094,0.01432,-0.0025
0.51244,0.44769,-0.73279,0.00099,0.01321,0.00406
0.51238,0.44769,-0.73284,0.0003,0.00925,0.00452
0.51235,0.44769,-0.73285,-0.00042,0.01193,0.00243
0.51233,0.44771,-0.73286,0.00025,0.01207,0.00024
0.51226,0.4477,-0.73291,-0.00022,0.01382,-0.00096
0.51221,0.44765,-0.73298,-0.00313,0.01358,0.00055
0.5122,0.44763,-0.73299,-0.00128,0.01406,-0.00085
0.5122,0.4476,-0.73301,-0.00128,0.01295,-0.00019
0.51219,0.4476,-0.73302,-0.00323,0.01204,-0.00237
0.51216,0.44765,-0.73301,0.00017,0.01091,0.00022
0.51215,0.44771,-0.73298,0.00242,0.01327,0.00062
0.51216,0.44773,-0.73296,0.00236,0.0129,0.00029
0.51214,0.44777,-0.73295,0.00065,0.01064,-2e-05
0.51213,0.44779,-0.73294,-7e-05,0.01284,-0.00096
0.51211,0.44786,-0.73292,0.00144,0.01358,-0.00102
0.51208,0.44794,-0.73289,0.00164,0.01219,-0.00193
0.51205,0.44801,-0.73286,0.00028,0.01417,-0.00061
0.51206,0.44804,-0.73284,-0.00063,0.01274,0.00171
0.51209,0.44807,-0.7328,-0.00141,0.00684,-0.00295
0.51213,0.44813,-0.73274,-0.00142,0.01328,-0.00091
0.51217,0.44817,-0.73268,-0.00146,0.01324,-0.00096
0.51215,0.44824,-0.73266,-2e-05,0.01708,-0.00164
0.51208,0.44833,-0.73265,0.00199,0.01058,-0.00109
0.51205,0.44838,-0.73264,0.00202,0.01053,-0.00109
0.51214,0.44847,-0.73252,0.00205,0.0123,-0.00074
0.51235,0.44847,-0.73237,0.00587,0.01676,0.00328
0.5125,0.44828,-0.73239,-0.00122,0.01945,0.00106
0.51258,0.44804,-0.73248,-0.00177,0.0131,0.00448
0.5126,0.44783,-0.73259,-0.00073,0.01213,0.00111
0.51269,0.44763,-0.73265,0.00159,0.01414,-0.00161
0.51283,0.44732,-0.73274,-0.00162,0.01176,3e-05
0.51302,0.44697,-0.73282,-0.00305,0.00823,-0.0018
0.51321,0.44665,-0.73288,-0.00213,0.00868,-0.00175
0.51338,0.44641,-0.73291,-0.00139,0.0081,-0.00373
0.51351,0.44623,-0.73293,-0.00015,0.00815,-0.00229
0.5136,0.44616,-0.73291,0.00069,0.00996,-0.00224
0.5137,0.44614,-0.73285,-0.00014,0.01068,-0.00199
0.51381,0.44613,-0.73278,-0.00055,0.00772,0.0011
0.5139,0.44614,-0.73271,0.00098,0.00836,-0.00214
0.51393,0.4462,-0.73265,0.00087,0.00999,0.00035
0.51396,0.44624,-0.73261,0.00106,0.01413,-0.00023
0.51398,0.4463,-0.73256,-0.00241,0.01433,0.00127
0.514,0.44633,-0.73253,-0.00348,0.01298,0.0013
0.514,0.44636,-0.73251,-0.00233,0.01178,0.0012
0.51398,0.44642,-0.73248,0.00053,0.01015,-0.00267
0.51397,0.44645,-0.73247,0.00094,0.0115,-0.00314
0.51395,0.44648,-0.73247,-0.00032,0.01225,-0.00088
0.51396,0.44652,-0.73243,0.00064,0.01303,0.00315
0.51397,0.44658,-0.73239,-0.00198,0.01016,0.00147
0.51395,0.44665,-0.73237,-0.0011,0.01227,-0.00306
0.51396,0.44679,-0.73228,0.00246,0.01389,-0.00181
0.514,0.44683,-0.73222,-0.00264,0.01832,-0.00248
0.51398,0.44679,-0.73226,-0.00226,0.01265,0.00191
0.51398,0.44675,-0.73228,-0.00144,0.00997,0.0016
0.51399,0.44673,-0.73229,-0.00216,0.01171,0.00107
0.51401,0.44668,-0.7323,-0.00059,0.01036,-0.00056
0.51399,0.44663,-0.73235,0.00052,0.01086,0.00022
0.51396,0.44656,-0.73241,0.00213,0.01152,0.00271
0.51393,0.44652,-0.73245,-0.00029,0.01264,0.00125
0.51392,0.4465,-0.73247,-0.00043,0.01306,0.00132
0.51391,0.44657,-0.73244,-0.001,0.0077,-0.00117
0.51387,0.44672,-0.73237,-0.00068,0.01096,-0.00385
0.51386,0.44688,-0.73228,-0.00045,0.00836,-0.0025
0.51385,0.44708,-0.73217,-0.00242,0.01149,-0.00187
0.51376,0.44732,-0.73208,-0.00156,0.01043,-0.00252
0.51365,0.44758,-0.73201,-0.00114,0.01099,-0.00405
0.51354,0.44783,-0.73193,-0.00147,0.01605,0.00014
0.51347,0.44801,-0.73187,-0.00067,0.01633,0.00221
0.51348,0.44809,-0.73181,-0.00244,0.01782,0.00258
0.51352,0.4481,-0.73178,0.00203,0.01482,0.00073
0.5136,0.44801,-0.73178,0.00244,0.01331,0.00108
0.5137,0.44784,-0.73181,0.00234,0.01348,0.00112
0.51381,0.44766,-0.73185,-0.00078,0.00892,-0.00045
0.51393,0.44742,-0.73191,0.00175,0.01193,-0.00105
0.514,0.44722,-0.73198,-0.00018,0.00953,0.00113
0.51407,0.44715,-0.73198,0.00108,0.00573,-0.0021
0.51411,0.44721,-0.73191,0.00199,0.01625,-0.00771
0.51408,0.44725,-0.73191,0.00201,0.01621,-0.00772
0.51401,0.44728,-0.73193,0.00158,0.01201,-0.00171
0.51393,0.44737,-0.73194,-0.00189,0.01106,0.00177
0.51392,0.44746,-0.73189,-0.00188,0.01097,0.00172
0.5139,0.44751,-0.73187,-0.00324,0.01254,0.0048
0.51387,0.44748,-0.73192,-0.00135,0.01325,0.00386
0.51381,0.44738,-0.73202,-0.0013,0.01335,0.00396
0.51381,0.44726,-0.73209,0.00121,0.01365,0.00086
0.51384,0.44712,-0.73215,0.00172,0.00915,-0.00173
0.51388,0.44705,-0.73217,0.00103,0.00882,-0.00512
0.51391,0.44706,-0.73214,-0.00133,0.0094,-0.00562
0.51391,0.44709,-0.73213,-0.00112,0.00822,-0.00522
0.51389,0.44716,-0.73209,-2e-05,0.009,-0.00254
0.51386,0.44729,-0.73203,-0.00047,0.00718,-0.00234
0.51382,0.44743,-0.73198,0.00083,0.00928,0.00093
0.51376,0.44756,-0.73194,-0.00092,0.01511,-5e-05
0.51369,0.44767,-0.73193,-0.00131,0.01389,0.00106
0.51365,0.44773,-0.73192,-5e-05,0.0117,0.0018
0.51362,0.44772,-0.73194,0.00034,0.01329,-0.0013
0.51362,0.44769,-0.73197,0.0008,0.01124,-0.00039
0.51362,0.44765,-0.73198,-0.00018,0.01151,-0.00204
0.51364,0.44762,-0.73199,-1e-05,0.00915,-0.00144
0.51366,0.44761,-0.73198,-0.00185,0.00782,-0.00269
0.51367,0.44761,-0.73197,-0.00035,0.00773,-0.0042
0.51376,0.44767,-0.73188,-0.00045,0.00753,-0.0019
0.51385,0.44774,-0.73177,-0.00081,0.01345,-0.00428
0.51385,0.44772,-0.73178,-0.00242,0.0148,-0.00154
0.51382,0.44773,-0.73179,-0.00062,0.01012,-0.00037
0.5138,0.44777,-0.73179,0.00048,0.01075,-0.0003
0.51384,0.44779,-0.73174,0.00024,0.01372,-0.00028
0.51382,0.44776,-0.73177,-0.00137,0.01126,0.00214
0.5138,0.44772,-0.73182,0.00287,0.00861,0.0002
0.51379,0.44769,-0.73184,0.00247,0.01262,-6e-05
0.51379,0.44763,-0.73188,0.00597,0.01287,-0.00141
0.51379,0.44761,-0.73189,0.00084,0.00965,0.00063
0.5138,0.4476,-0.73189,0.00016,0.01002,-0.00031
0.5138,0.44763,-0.73187,-0.0027,0.00948,-0.00075
0.51375,0.44768,-0.73187,-0.0004,0.00746,-0.00069
0.51364,0.44776,-0.7319,-0.00014,0.00724,-0.0021
0.51353,0.44787,-0.73191,0.00015,0.00808,-0.00449
0.51343,0.44796,-0.73193,-0.00261,0.01357,-0.00139
0.51336,0.44808,-0.7319,-0.00244,0.01283,-0.0013
0.51332,0.44819,-0.73187,0.00078,0.01232,0.00047
0.51328,0.44827,-0.73184,0.00016,0.01088,0.00079
0.51325,0.44829,-0.73185,0.00011,0.01092,-0.00153
0.51325,0.44828,-0.73186,0.00065,0.0115,0.00108
0.51325,0.44826,-0.73187,-0.00108,0.01158,0.00091
0.51326,0.44824,-0.73188,0.00049,0.01005,-0.00196
0.51326,0.44821,-0.73189,0.0026,0.01086,-0.00137
0.51325,0.44824,-0.73189,0.00198,0.00631,-0.00304
0.5133,0.44828,-0.73182,0.00266,0.00803,-0.00113
0.51337,0.44832,-0.73175,0.00188,0.01521,-0.0033
0.51336,0.44831,-0.73176,0.00049,0.01146,-0.00053
0.51334,0.44833,-0.73177,0.0005,0.00587,-0.00036
0.51332,0.44835,-0.73177,-0.00021,0.01094,0.00118
0.51333,0.44834,-0.73176,-0.00078,0.01183,0.0003
0.51332,0.44829,-0.7318,-0.00296,0.01082,-0.00219
0.51333,0.44822,-0.73184,-0.00191,0.01032,-0.00177
0.51334,0.44815,-0.73187,0.00125,0.01144,-0.00247
0.51336,0.44808,-0.7319,0.00124,0.01042,-0.00272
0.5134,0.44803,-0.7319,-0.00063,0.00979,-0.00101
0.51341,0.44805,-0.73189,-0.0009,0.0094,-0.00055
0.51344,0.44808,-0.73185,0.00024,0.00878,-0.00271
0.51344,0.44812,-0.73182,-0.00034,0.00861,-0.0017
0.5134,0.44818,-0.73181,0.00135,0.00807,-0.00169
0.51334,0.44826,-0.7318,0.00234,0.01216,-0.00172
0.5133,0.44833,-0.73179,0.00156,0.01354,-8e-05
0.51325,0.44841,-0.73178,0.00107,0.01316,-0.00061
0.51323,0.44846,-0.73176,-0.00101,0.01181,-0.00163
0.51324,0.44848,-0.73175,-0.00077,0.00901,-0.0017
0.51321,0.4485,-0.73175,-0.00044,0.00896,-0.00105
0.51318,0.44853,-0.73176,0.00115,0.0104,-0.00188
0.51311,0.44857,-0.73178,-0.00104,0.0101,-0.00122
0.51308,0.44862,-0.73177,-0.00049,0.0102,-0.00202
0.51306,0.44865,-0.73177,-0.00235,0.008,-0.00218
0.51301,0.4487,-0.73177,-0.00107,0.00906,0.001
0.51295,0.44881,-0.73175,0.00165,0.00716,-0.00129
0.51295,0.44896,-0.73166,0.00268,0.01284,-0.00194
0.51298,0.44903,-0.73159,0.00224,0.01407,0.00014
0.51295,0.44907,-0.73159,0.00065,0.01201,0.00034
0.51291,0.44914,-0.73157,-0.00156,0.00809,-0.00107
0.51286,0.44924,-0.73154,-0.00038,0.00611,-0.0006
0.51284,0.44934,-0.73149,-0.00134,0.01175,-0.00201
0.51276,0.44939,-0.73152,-0.00031,0.01101,-0.00054
0.51268,0.44947,-0.73153,-0.00166,0.01008,-0.00077
0.51258,0.44957,-0.73154,0.00015,0.01213,-0.00069
0.51249,0.44965,-0.73155,0.00014,0.00906,-0.00034
0.51241,0.44978,-0.73153,0.00172,0.00702,-0.0014
0.51231,0.44998,-0.73148,0.00185,0.00884,-0.00387
0.51217,0.45018,-0.73145,0.00223,0.0092,-0.00014
0.51199,0.4504,-0.73144,0.00375,0.0086,-0.00074
0.51181,0.45062,-0.73143,0.00178,0.00989,-0.00051
0.51165,0.45085,-0.7314,0.00098,0.01043,-0.00211
0.51148,0.45106,-0.73139,0.00072,0.01052,-0.0034
0.51131,0.45125,-0.7314,0.0005,0.01213,-0.00252
0.51108,0.45142,-0.73145,-0.00226,0.00868,-0.00264
0.51086,0.45157,-0.73151,-0.00143,0.00977,-0.00229
0.51066,0.45174,-0.73155,0.00096,0.011,-0.00261
0.51048,0.45187,-0.73159,-0.00029,0.01006,-0.00343
0.51028,0.45205,-0.73162,0.00052,0.01043,0.00014
0.51009,0.45225,-0.73162,0.00213,0.00783,0.00048
0.50994,0.45244,-0.73161,0.00245,0.01016,-0.00044
0.50983,0.45255,-0.73162,-0.00022,0.01069,-0.00098
0.50972,0.45267,-0.73162,-0.00172,0.01031,-0.00095
0.50961,0.45284,-0.7316,0.00121,0.01033,0.00153
0.50946,0.45296,-0.73162,0.00206,0.01443,-0.00046
0.50924,0.45303,-0.73174,0.00095,0.01061,-0.00182
0.50911,0.45306,-0.73181,0.00166,0.0104,-0.00161
0.50896,0.45303,-0.73193,0.00194,0.0086,-0.00183
0.50883,0.45297,-0.73206,0.00144,0.01053,-0.00044
0.50866,0.45295,-0.73219,0.00181,0.01075,-0.00226
0.50844,0.45295,-0.73235,0.00176,0.00831,-0.00163
0.5082,0.453,-0.73247,0.00444,0.0067,0.00141
0.50801,0.45307,-0.73257,0.002,0.00839,-0.0026
0.50784,0.45319,-0.73261,-0.00071,0.00983,-0.0027
0.50765,0.45339,-0.73261,-0.00144,0.00902,-0.00329
0.50746,0.45364,-0.73259,-0.00112,0.00876,-0.00238
0.50724,0.45388,-0.7326,0.00295,0.00814,-0.00181
0.50703,0.45413,-0.73259,0.00243,0.0081,-0.00162
0.50682,0.45437,-0.73259,0.0013,0.01086,-0.00049
0.50658,0.45456,-0.73264,-6e-05,0.01352,-0.00047
0.50632,0.45473,-0.73271,-0.0015,0.01107,0.00045
0.50613,0.45495,-0.7327,-0.00201,0.00773,-0.00015
0.50598,0.45521,-0.73264,-0.00075,0.00933,-0.00172
0.50582,0.45549,-0.73258,0.00185,0.00886,-0.0041
0.50568,0.45582,-0.73247,0.00105,0.00701,-0.00291
0.50557,0.45614,-0.73235,0.00255,0.00751,-0.00459
0.50534,0.45649,-0.73229,3e-05,0.00872,0.00072
0.50508,0.45683,-0.73226,-0.00136,0.01113,0.0007
0.50474,0.45717,-0.73227,0.00131,0.00798,-0.00549
0.50456,0.45756,-0.73216,0.00373,0.01011,-0.00369
0.5045,0.45804,-0.7319,0.00094,0.008,0.00093
0.50435,0.45846,-0.73174,-0.00094,0.01244,-0.00083
0.50411,0.45874,-0.73173,-0.01007,0.01695,0.0028
0.50404,0.45871,-0.7318,-0.00973,0.01965,0.00495
0.50412,0.45837,-0.73196,-0.01074,0.02176,0.00809
0.50417,0.45795,-0.73218,-0.00408,0.02123,0.0053
0.50419,0.45744,-0.73249,0.00166,0.01283,0.00051
0.5043,0.45688,-0.73277,0.00494,0.00967,-0.00243
0.50441,0.45634,-0.73303,0.01049,0.00098,-0.00452
0.50441,0.45584,-0.73334,0.00563,-0.00154,-0.00353
0.50437,0.45541,-0.73363,0.00441,0.00183,-0.00177
0.50441,0.45506,-0.73382,-0.00138,0.01037,-0.00027
0.50456,0.45479,-0.73388,-0.00024,0.01444,-0.00212
0.50469,0.4546,-0.73391,0.00038,0.01215,-0.00202
0.5047,0.45447,-0.73398,-0.0002,0.00569,-0.00459
0.50469,0.45439,-0.73404,-0.00045,0.00257,-0.00279
0.5047,0.45434,-0.73407,-0.00085,0.00546,-0.00134
0.50472,0.45428,-0.73409,-0.00301,0.0113,-0.0034
0.50462,0.45423,-0.73419,-0.00287,0.01255,-0.00306
0.5045,0.45417,-0.73431,-0.00373,0.01474,-0.00091
0.50449,0.45406,-0.73438,-0.00054,0.0109,-0.00012
0.50461,0.45395,-0.73437,0.00358,0.00801,-0.00011
0.50474,0.45382,-0.73436,0.00346,0.00814,-0.00012
0.50478,0.45363,-0.73445,0.00357,0.01011,0.00013
0.50477,0.45343,-0.73458,0.0004,0.00841,-0.00239
0.50478,0.45326,-0.73468,0.00344,0.00716,-0.00331
0.50483,0.45325,-0.73464,0.00773,0.00761,-0.00251
0.50485,0.45329,-0.73462,0.00356,0.00945,-0.00479
0.50484,0.45325,-0.73464,0.00162,0.00926,-0.00086
0.50489,0.45318,-0.73466,-0.00339,0.00884,0.00194
0.50491,0.45308,-0.7347,-0.00215,0.01396,0.00043
0.50492,0.45298,-0.73475,-0.00047,0.01356,-0.00332
0.5049,0.45286,-0.73484,-0.0004,0.01067,-0.00066
0.50489,0.45276,-0.7349,-0.0008,0.00848,-0.00116
0.50492,0.45265,-0.73495,0.0017,0.00817,-0.0026
0.50496,0.45251,-0.73501,0.00088,0.00817,-0.00154
0.505,0.45236,-0.73508,-0.00125,0.00803,-0.00125
0.50504,0.45227,-0.73511,0.00019,0.01039,-0.00241
0.50511,0.45221,-0.7351,-0.00101,0.00984,-0.0019
0.5052,0.45216,-0.73506,0.00029,0.0118,-0.00035
0.50528,0.45211,-0.73504,0.0016,0.00921,-0.00015
0.50531,0.45204,-0.73506,-7e-05,0.00986,-0.00041
0.50536,0.45195,-0.73509,-8e-05,0.01107,0.00038
0.50544,0.4519,-0.73506,0.00117,0.01105,-0.00252
0.50551,0.45183,-0.73506,-0.0002,0.01191,-0.00146
0.50556,0.45176,-0.73506,0.00208,0.00919,0.00012
0.5056,0.45168,-0.73509,0.00116,0.00875,-0.00202
0.50566,0.45157,-0.73511,-9e-05,0.01094,-4e-05
0.50576,0.45149,-0.7351,-0.00056,0.0127,-0.00206
0.50586,0.45139,-0.73509,0.00064,0.01135,-0.00199
0.506,0.4513,-0.73505,-0.00052,0.00668,-0.00235
0.50612,0.45125,-0.73499,-7e-05,0.008,-0.00138
0.50616,0.45123,-0.73497,0.00084,0.00604,-0.00251
0.50624,0.45127,-0.7349,0.00089,0.0118,0.00084
0.50638,0.45127,-0.7348,-0.00165,0.01632,-0.00211
0.50655,0.45121,-0.73473,-0.00143,0.01342,-0.00091
0.50672,0.45113,-0.73466,0.00071,0.01171,-0.00515
0.50681,0.45108,-0.73462,-0.00108,0.00928,-0.00308
0.50689,0.45102,-0.7346,-0.00072,0.01094,-0.00377
0.50705,0.45088,-0.73458,-0.00087,0.00943,0.00025
0.50722,0.45075,-0.73454,-0.00127,0.00844,-8e-05
0.50735,0.45066,-0.7345,-0.00064,0.00863,-0.00051
0.50747,0.45061,-0.73445,0.00046,0.01085,-0.00133
0.50759,0.45054,-0.73441,-0.00124,0.01103,-0.00497
0.50772,0.45048,-0.73436,0.0008,0.00785,-0.00515
0.50781,0.45048,-0.7343,0.00279,0.01031,-0.00351
0.50792,0.45048,-0.73422,0.0006,0.01192,-0.00116
0.50804,0.45047,-0.73415,-0.00084,0.01096,-0.00243
0.50814,0.45046,-0.73408,0.00026,0.00716,-0.00074
0.50824,0.45052,-0.73398,-0.00012,0.00915,-0.0009
0.50834,0.45062,-0.73385,0.00106,0.00965,-0.00297
0.50839,0.45074,-0.73374,-0.00175,0.00968,-0.00057
0.5085,0.45084,-0.7336,-0.00055,0.01164,-0.00047
0.50866,0.45087,-0.73347,-0.00118,0.01141,-0.00055
0.50879,0.45091,-0.73336,-0.00201,0.00965,-0.00102
0.50889,0.45096,-0.73326,0.00149,0.00984,-0.00075
0.50895,0.45099,-0.7332,0.00156,0.01023,-0.00279
0.50903,0.45099,-0.73314,-3e-05,0.01069,-0.00249
0.50911,0.45099,-0.73308,-0.00075,0.00993,-0.00256
0.50922,0.45101,-0.733,0.0007,0.01319,-0.002
0.50927,0.45103,-0.73295,-0.00246,0.00862,-0.00478
0.5093,0.45111,-0.73288,0.00106,0.00972,-0.00612
0.50938,0.45124,-0.73274,-0.00056,0.01424,-0.00352
0.50945,0.45128,-0.73267,-0.0016,0.01148,0.00216
0.50952,0.4512,-0.73267,-0.00092,0.0126,0.00031
0.50964,0.45113,-0.73263,-0.00239,0.01001,-0.00065
0.50978,0.45106,-0.73257,-0.0011,0.0116,-0.00307
0.50989,0.45096,-0.73256,-0.00156,0.01166,-0.00189
0.50996,0.45085,-0.73258,-0.00202,0.00803,-0.00498
0.51001,0.45074,-0.73261,0.00126,0.01037,-0.00271
0.51009,0.45065,-0.73261,0.00183,0.01,-0.00321
0.5102,0.45057,-0.73259,0.00013,0.01055,-0.00154
0.51031,0.45049,-0.73256,-0.00125,0.00683,-0.00182
0.51043,0.45046,-0.73249,-0.00039,0.00806,-0.0019
0.51053,0.45051,-0.7324,0.00017,0.01154,-0.0046
0.51061,0.45055,-0.73231,-0.00219,0.01218,-0.00096
0.51068,0.45054,-0.73227,-0.00125,0.01025,-0.00041
0.5107,0.45051,-0.73227,-0.00088,0.0098,-0.00239
0.51068,0.45048,-0.7323,-0.00392,0.01305,-0.00104
0.51066,0.45043,-0.73235,-0.00022,0.01253,0.0002
0.51071,0.45036,-0.73236,-0.00041,0.00814,-0.00036
0.51078,0.45029,-0.73236,-0.00026,0.00987,-0.00313
0.51082,0.45023,-0.73236,-0.00165,0.00903,-0.00285
0.51083,0.45017,-0.73239,-0.00222,0.00831,-0.0058
0.51086,0.45012,-0.7324,-0.00229,0.00909,-0.00333
0.51094,0.45009,-0.73236,-0.00381,0.00972,-0.00036
0.51101,0.45008,-0.73232,-0.00091,0.01047,-0.00047
0.51106,0.45007,-0.73229,0.00107,0.00705,-0.00331
0.51108,0.4501,-0.73226,-0.00217,0.01049,-0.00242
0.5111,0.4501,-0.73225,-0.00331,0.01032,-0.00321
0.51106,0.45012,-0.73226,-0.00121,0.01137,-0.00336
0.51103,0.45015,-0.73226,-0.00038,0.00918,-0.00179
0.51099,0.45016,-0.73228,-0.0024,0.00923,-0.00253
0.51102,0.4502,-0.73224,-0.00052,0.00758,-0.00288
0.5111,0.45029,-0.73213,0.00068,0.01298,-0.00514
0.51114,0.45026,-0.73212,-0.00275,0.01119,-0.00053
0.51119,0.45021,-0.73212,-0.00098,0.00995,-0.00169
0.51124,0.45014,-0.73212,-0.00152,0.01034,-0.00274
0.51128,0.45011,-0.73212,-0.00435,0.00923,-0.00345
0.51132,0.45002,-0.73214,-0.00335,0.00962,-0.00374
0.51135,0.44994,-0.73217,-0.00192,0.00735,-0.00317
0.51141,0.44986,-0.73217,0.00148,0.00746,-0.00199
0.51149,0.4498,-0.73216,0.00013,0.0101,-0.00304
0.51157,0.44973,-0.73215,-0.00122,0.00845,-0.00235
0.51163,0.44971,-0.73212,-0.00017,0.00871,-0.0036
0.51168,0.44973,-0.73207,-0.00045,0.00886,-0.00306
0.51173,0.44976,-0.73202,-0.00068,0.00996,-0.00343
0.51178,0.44976,-0.73198,-0.00215,0.01133,-0.00219
0.51181,0.44977,-0.73195,-0.00023,0.01005,-0.00211
0.51182,0.4498,-0.73193,-0.00346,0.01132,-0.00339
0.51181,0.44984,-0.73191,0.00012,0.01146,-0.0034
0.51179,0.44988,-0.7319,-0.00189,0.01179,-0.003
0.51175,0.44993,-0.7319,-0.00142,0.00982,-0.00414
0.51172,0.44994,-0.73191,-0.00096,0.01002,-0.0037
0.51169,0.44996,-0.73193,-0.00233,0.00913,-0.00425
0.51164,0.44998,-0.73194,-0.00258,0.01003,-0.0037
0.5116,0.44999,-0.73196,-0.00152,0.00907,-0.00361
0.51157,0.45002,-0.73197,-0.00304,0.01023,-0.00079
0.51155,0.45006,-0.73196,-0.00302,0.01158,-0.00437
0.5115,0.45011,-0.73196,-0.00479,0.01228,-0.00193
0.51146,0.45015,-0.73196,-0.00264,0.0107,-0.00298
0.51146,0.45016,-0.73195,-0.00176,0.0116,-0.00201
0.51147,0.45016,-0.73195,-0.00346,0.00959,-0.00017
0.51147,0.45017,-0.73194,-0.00156,0.01107,-0.00274
0.51146,0.45018,-0.73195,-0.00301,0.00884,-0.00275
0.51146,0.45018,-0.73195,-0.00118,0.00794,-0.00582
0.51149,0.45024,-0.73189,0.0018,0.01207,-0.00276
0.51157,0.45028,-0.73181,-0.00112,0.01644,-0.00412
0.5116,0.45023,-0.73182,-0.00344,0.01457,-0.00435
0.51159,0.4502,-0.73184,-0.00196,0.00825,-0.00319
0.51158,0.45021,-0.73184,-0.00504,0.01054,-0.00189
0.51159,0.45021,-0.73184,-0.00275,0.01057,-0.00316
0.51158,0.45016,-0.73188,-0.00425,0.00951,-0.00257
0.51158,0.45009,-0.73192,-0.00421,0.00972,-0.00258
0.51158,0.45004,-0.73195,0.00076,0.0125,-0.00237
0.51162,0.44998,-0.73196,0.00164,0.01105,-0.00425
0.51165,0.44992,-0.73197,-0.00111,0.00758,-0.00308
0.51169,0.44993,-0.73194,-0.00064,0.00787,-0.00431
0.51173,0.44997,-0.73189,-0.00184,0.0109,-0.0039
0.51175,0.44999,-0.73186,-0.00113,0.00965,-0.00403
0.51173,0.45001,-0.73186,-0.00045,0.0091,-0.0028
0.51171,0.45004,-0.73186,-0.00066,0.01076,-0.0033
0.5117,0.4501,-0.73183,-0.00135,0.00955,-0.00326
0.51168,0.45016,-0.73181,-0.00199,0.01293,-0.00446
0.51166,0.45021,-0.73179,-0.00084,0.01195,-0.00217
0.51165,0.45023,-0.73179,-0.002,0.01077,-0.00428
0.51164,0.45023,-0.73179,-0.00293,0.01072,-0.00296
0.51161,0.45024,-0.7318,-0.00479,0.00993,-0.00175
0.51159,0.45026,-0.73181,-0.00138,0.00877,-0.00398
0.51156,0.45029,-0.73181,-0.00169,0.00909,-0.00319
0.51152,0.45033,-0.73181,-0.00206,0.009,-0.00307
0.5115,0.45037,-0.7318,-0.00053,0.01074,-0.00253
0.51151,0.45037,-0.73179,0.00024,0.01024,-0.00324
0.51152,0.4504,-0.73177,-0.00085,0.01042,-0.00378
0.51151,0.45042,-0.73177,-0.00218,0.00947,-0.00152
0.51151,0.45041,-0.73177,-0.00185,0.01109,-0.00373
0.51147,0.45041,-0.7318,-0.00425,0.0094,-0.00363
0.51148,0.45042,-0.73179,-0.00261,0.01038,-0.0043
0.51155,0.4505,-0.73169,-0.00236,0.01082,-0.00479
0.5116,0.45053,-0.73163,-0.00093,0.01161,-0.0067
0.51158,0.45054,-0.73164,-0.00159,0.00659,-0.00298
0.51156,0.45059,-0.73162,0.00055,0.00475,-0.00527
0.51149,0.45066,-0.73163,-0.00384,0.01121,-0.00251
0.51144,0.45071,-0.73164,-0.00491,0.01254,-0.00094
0.51133,0.45074,-0.73169,-0.00625,0.01034,-0.00122
0.51119,0.45084,-0.73173,-0.00037,0.00704,-0.00695
0.51104,0.451,-0.73174,0.00512,0.008,-0.00767
0.51091,0.45113,-0.73175,0.00188,0.00898,-0.00524
0.51082,0.4513,-0.73171,6e-05,0.0097,-0.00348
0.51073,0.45153,-0.73162,-0.00378,0.00886,-0.00231
0.51062,0.45181,-0.73153,-0.00235,0.00927,-0.00593
0.51043,0.45212,-0.73147,-0.00127,0.00733,-0.00387
0.51023,0.45243,-0.73142,-0.00057,0.00796,-0.00268
0.51003,0.45272,-0.73137,-0.00083,0.00847,-0.00196
0.50988,0.45296,-0.73133,-0.00345,0.01178,-0.00121
0.50973,0.45314,-0.73133,-0.00582,0.01585,-0.0027
0.50956,0.45327,-0.73137,-0.00235,0.0165,-0.00174
0.50941,0.4533,-0.73145,-0.00687,0.01561,0.00121
0.50931,0.45329,-0.73152,-0.00452,0.01242,0.0006
0.50924,0.45323,-0.73162,-0.00228,0.01281,-0.00268
0.50916,0.45311,-0.73174,-0.00025,0.00981,-0.00492
0.50909,0.45301,-0.73185,0.00588,0.00365,-0.00611
0.5091,0.45291,-0.73191,0.00451,0.00575,-0.005
0.50926,0.4528,-0.73186,0.0035,0.01163,-0.0033
0.50946,0.45266,-0.73181,-0.00516,0.0144,-0.00065
0.50961,0.45251,-0.7318,-0.00748,0.01063,0.00024
0.50963,0.45248,-0.7318,-0.00599,0.00481,-0.00384
0.50963,0.45258,-0.73174,-0.00089,0.01037,-0.00795
0.50966,0.45267,-0.73167,0.00204,0.01048,-0.00721
0.50968,0.45262,-0.73168,-0.00306,0.00947,-0.00239
0.50972,0.45259,-0.73167,-0.00253,0.00754,-0.00371
0.50973,0.45264,-0.73164,-0.00092,0.00879,-0.00311
0.50968,0.45269,-0.73164,-0.00104,0.01172,-0.00217
0.50963,0.45269,-0.73167,0.0007,0.01132,0.00026
0.5096,0.45262,-0.73174,0.00011,0.01129,-0.00152
0.50963,0.45252,-0.73178,0.00272,0.01147,-0.00284
0.50967,0.45243,-0.73181,0.00076,0.0109,-0.00159
0.50967,0.45234,-0.73186,-0.00184,0.0102,-0.00166
0.50967,0.45229,-0.73189,0.00115,0.00698,-0.00378
0.50973,0.45226,-0.73187,-0.00193,0.00941,-0.00517
0.50982,0.45222,-0.73183,-0.00013,0.00905,-0.00439
0.50986,0.45221,-0.73181,-0.00369,0.00863,-0.00416
0.50984,0.45222,-0.73182,-0.0035,0.01172,-0.00241
0.50983,0.45224,-0.73182,-0.00376,0.01119,-0.00352
0.50981,0.45228,-0.7318,-0.00295,0.00788,-0.00346
0.5098,0.45233,-0.73178,-0.00185,0.00933,-0.00508
0.50978,0.45239,-0.73176,-0.00097,0.0105,-0.00283
0.50978,0.45245,-0.73172,0.00098,0.01215,-0.00058
0.50981,0.45246,-0.73169,-0.00169,0.00964,-0.00168
0.50982,0.45247,-0.73168,-0.00108,0.00908,-0.00078
0.50984,0.4525,-0.73164,0.00125,0.00948,-0.00247
0.50989,0.45246,-0.73164,-0.00201,0.01187,-0.00258
0.50994,0.45234,-0.73168,-0.00374,0.01387,-0.00272
0.50997,0.45218,-0.73175,-0.00122,0.01329,-0.00354
0.50999,0.45197,-0.73186,-0.00407,0.01028,-0.00048
0.51004,0.4518,-0.73194,-0.00363,0.00416,-0.00575
0.51012,0.45176,-0.73191,-0.0013,0.00497,-0.00561
0.51021,0.45173,-0.73186,0.00122,0.00896,-0.00862
0.51026,0.45165,-0.73188,-0.00196,0.0071,-0.00602
0.5103,0.45163,-0.73186,-0.00156,0.00362,-0.00463
0.51031,0.45171,-0.73181,-0.00219,0.00773,-0.00447
0.51032,0.45184,-0.73172,-0.00072,0.00737,-0.00246
0.5103,0.45196,-0.73166,0.00035,0.00919,-0.00267
0.51025,0.45201,-0.73167,-0.00479,0.01549,0.00165
0.51024,0.45196,-0.7317,-0.00263,0.01438,0.00055
0.51024,0.45191,-0.73174,-0.00174,0.00984,-0.00204
0.51021,0.45187,-0.73178,0.00128,0.00586,-0.00597
0.51021,0.45183,-0.7318,0.00314,0.00691,-0.00718
0.51029,0.45179,-0.73177,0.00018,0.00877,-0.00654
0.51038,0.45176,-0.73173,-0.0033,0.00986,-0.0041
0.51039,0.45178,-0.73171,-0.00189,0.00767,-0.00344
0.51036,0.45185,-0.73168,-0.00554,0.00881,-0.0024
0.51032,0.45197,-0.73164,-0.00092,0.00703,-0.00489
0.51028,0.45207,-0.73161,0.00124,0.00956,-0.00472
0.51029,0.45214,-0.73156,-0.00498,0.00877,-0.00445
0.51034,0.45222,-0.73147,-0.00284,0.01123,-0.00152
0.51036,0.45229,-0.73141,-0.00267,0.01231,-0.00302
0.51035,0.45229,-0.73142,-0.00191,0.01159,-0.0034
0.51029,0.45226,-0.73148,-0.00015,0.01086,-0.0018
0.51025,0.45221,-0.73154,-0.00093,0.00969,-0.00415
0.51025,0.45211,-0.7316,-0.00369,0.00663,-0.00011
0.51024,0.45202,-0.73167,-0.00209,0.00788,-0.00215
0.51015,0.45198,-0.73175,0.0005,0.00968,-0.00256
0.51001,0.45193,-0.73189,0.00107,0.00312,-0.00469
0.50998,0.45193,-0.7319,0.00233,0.00728,-0.00678
0.51007,0.45199,-0.7318,-0.00023,0.01156,-0.00637
0.51016,0.45198,-0.73174,-0.00621,0.01459,-0.0031
0.51015,0.45196,-0.73177,-0.00227,0.00722,-0.0027
0.51012,0.45199,-0.73177,-0.00087,0.00495,-0.00119
0.51008,0.45204,-0.73176,-0.0005,0.00852,-0.00185
0.51009,0.45203,-0.73176,-0.00231,0.01157,-0.00282
0.51012,0.45193,-0.73181,-0.0023,0.01002,-0.00147
0.51018,0.45182,-0.73183,-0.00101,0.00857,-0.00259
0.51023,0.45172,-0.73186,0.00056,0.01042,-0.00461
0.51024,0.45162,-0.73191,0.00062,0.00733,-0.00497
0.51029,0.45154,-0.73193,0.00027,0.00684,-0.00199
0.51037,0.45153,-0.73188,-0.00052,0.00786,-0.00588
0.51045,0.45154,-0.73181,-0.00024,0.00789,-0.00453
0.51048,0.45154,-0.73179,0.00033,0.00604,-0.00277
0.51048,0.45158,-0.73177,-0.00112,0.01059,-0.00265
0.51049,0.45162,-0.73174,-0.00191,0.0102,0.00049
0.5105,0.45164,-0.73172,-0.00139,0.01001,-0.0031
0.51051,0.45164,-0.73171,-0.00265,0.01227,-0.00184
0.51052,0.45161,-0.73172,-0.0024,0.01247,-0.00079
0.51053,0.45155,-0.73175,-0.00173,0.01299,-0.00213
0.51053,0.45148,-0.7318,-0.00234,0.0083,-0.0036
0.51052,0.4514,-0.73185,-0.00039,0.00684,-0.0027
0.51054,0.45132,-0.73188,-0.00073,0.00556,-0.00323
0.51058,0.45126,-0.7319,-0.00045,0.00819,-0.00292
0.51061,0.4512,-0.73192,-0.00231,0.00971,-0.00128
0.51061,0.45115,-0.73194,-0.00486,0.01126,-0.00296
0.51061,0.45114,-0.73196,-0.00333,0.00779,-0.00413
0.51063,0.45113,-0.73194,-0.00184,0.00647,-0.00649
0.51071,0.45119,-0.73185,-0.00032,0.01018,-0.00549
0.51081,0.45122,-0.73176,-0.00419,0.01532,-0.00342
0.51083,0.45116,-0.73179,-0.00486,0.01361,-0.00494
0.51079,0.45117,-0.73181,-0.0002,0.00617,-0.00283
0.51076,0.45119,-0.73181,0.00072,0.00785,-0.00342
0.5108,0.45118,-0.73179,0.00151,0.01056,-0.00281
0.51082,0.45108,-0.73184,-0.00354,0.00986,-0.0009
0.51086,0.45092,-0.73191,-0.00172,0.01263,-0.00198
0.51097,0.45077,-0.73192,-0.00256,0.01299,-0.00097
0.51105,0.45066,-0.73194,-0.00147,0.00903,-0.00526
0.51106,0.45056,-0.73199,-0.00188,0.0067,-0.00622
0.51104,0.45054,-0.73202,0.00026,0.00625,-0.00472
0.51103,0.45057,-0.73201,0.00145,0.00649,-0.00556
0.51104,0.4506,-0.73198,0.00027,0.00819,-0.00556
0.51102,0.45064,-0.73197,-0.00188,0.00984,-0.00357
0.51102,0.45069,-0.73194,-0.00238,0.0113,-0.0027
0.51102,0.45071,-0.73193,-0.00304,0.01139,-0.00381
0.51102,0.45073,-0.73192,-0.00153,0.01102,-0.0042
0.51101,0.45074,-0.73192,-0.00324,0.01151,-0.00454
0.511,0.45071,-0.73194,-0.0028,0.009,-0.00245
0.511,0.45068,-0.73196,-0.0026,0.00838,-0.00351
0.51098,0.45066,-0.73198,-0.00163,0.01053,-0.00471
0.51096,0.45065,-0.73201,0.00053,0.00957,-0.00511
0.51095,0.45063,-0.73202,-0.00081,0.01169,-0.00391
0.51099,0.45062,-0.732,-0.00213,0.01036,-0.00205
0.51102,0.45059,-0.732,-0.00289,0.00864,-0.00212
0.51102,0.45056,-0.73202,-0.00224,0.01247,-0.00246
0.51096,0.45055,-0.73206,-0.00135,0.00582,-0.00336
0.51094,0.45057,-0.73207,0.00191,0.01282,-0.0057
0.51097,0.45061,-0.73202,0.00125,0.01257,-0.0033
0.51101,0.45055,-0.73204,-0.00283,0.01686,-0.0022
0.51104,0.45039,-0.73211,-0.0019,0.00882,-0.00127
0.51116,0.45027,-0.7321,-0.00355,0.00701,-0.00098
0.51127,0.45021,-0.73206,-0.0002,0.00299,-0.00875
0.51131,0.45019,-0.73205,0.00219,0.00129,-0.00484
0.51129,0.45016,-0.73208,0.00143,0.00345,-0.0053
0.51134,0.45011,-0.73208,-0.00028,0.00827,-0.00121
0.51138,0.45016,-0.73202,-0.0005,0.01284,-0.00254
0.51138,0.45031,-0.73193,-0.00355,0.01431,-0.00371
0.51133,0.45053,-0.73182,-0.00178,0.01207,-0.00664
0.51127,0.45076,-0.73172,0.00045,0.00861,-0.00453
0.51124,0.45091,-0.73165,-6e-05,0.00569,-0.00501
0.51123,0.45106,-0.73156,-0.00109,0.00457,-0.00278
0.51119,0.4512,-0.73151,-0.0052,0.008,0.00049
0.51112,0.45137,-0.73145,-0.00413,0.01166,-0.00083
0.51101,0.45153,-0.73143,-0.00515,0.01314,-0.00206
0.5109,0.45168,-0.73141,-0.00275,0.01153,-0.00452
0.51082,0.45179,-0.7314,-0.00134,0.01064,-0.00615
0.51075,0.45191,-0.73138,-6e-05,0.00787,-0.00484
0.51067,0.45204,-0.73135,-0.00193,0.00586,-0.00363
0.51061,0.45214,-0.73133,-0.00021,0.00636,-0.00335
0.51055,0.45222,-0.73132,-0.00013,0.00956,0.00131
0.51047,0.45229,-0.73134,-0.00216,0.01245,0.00087
0.51037,0.45234,-0.73138,-0.00411,0.01395,-0.00054
0.51022,0.45237,-0.73146,-0.00204,0.01075,-0.00214
0.5101,0.45236,-0.73155,-0.00144,0.00631,-0.00385
0.51004,0.45239,-0.73157,0.00085,0.00439,-0.00801
0.51008,0.45245,-0.73151,-0.00242,0.00983,-0.00514
0.5102,0.45244,-0.73143,-0.0021,0.01565,-0.0074
0.51023,0.45236,-0.73146,-0.0017,0.01441,-0.00206
0.51021,0.45225,-0.73154,-0.003,0.01314,-0.00166
0.51019,0.45215,-0.73162,-0.00305,0.01219,0.0015
0.51021,0.45206,-0.73166,-0.00504,0.01172,-0.00033
0.51017,0.45194,-0.73176,-0.00074,0.00641,-0.00285
0.5101,0.4518,-0.7319,0.00015,0.00439,-0.00445
0.51012,0.45163,-0.73199,-0.00037,0.00743,-0.00333
0.51018,0.45146,-0.73205,0.00096,0.00464,-0.00445
0.51021,0.45138,-0.73208,-0.00102,0.00521,-0.00447
0.51016,0.45141,-0.73209,0.00058,0.00608,-0.00463
0.51006,0.45154,-0.73208,-0.00234,0.00902,-0.0063
0.50993,0.45172,-0.73206,-0.00055,0.0097,-0.00401
0.50982,0.4519,-0.73203,-0.00091,0.0087,-0.00375
0.50974,0.45207,-0.73198,-0.00156,0.0097,-0.00084
0.50967,0.45219,-0.73196,-0.00167,0.01056,-0.00088
0.5096,0.45226,-0.73196,-0.00293,0.01235,-0.00019
0.50956,0.45226,-0.73199,-0.0033,0.01327,-0.00321
0.50953,0.45223,-0.73203,-0.00438,0.01301,-0.00288
0.50956,0.45215,-0.73206,-0.00246,0.01224,-0.00662
0.50962,0.45206,-0.73208,-0.00193,0.00996,-0.00616
0.50967,0.45199,-0.73208,0.00104,0.00571,-0.00439
0.50976,0.45192,-0.73206,0.00142,0.00857,-0.00256
0.50985,0.45184,-0.73205,-0.00104,0.00992,-2e-05
0.50991,0.45176,-0.73206,0.00121,0.00938,-0.00229
0.50993,0.45171,-0.73207,-5e-05,0.00906,-0.0025
0.50995,0.45164,-0.7321,-0.00278,0.00989,-0.00388
0.51003,0.45161,-0.73206,-0.00362,0.01344,0.00033
0.5101,0.45154,-0.73206,-0.00316,0.01341,-0.00228
0.5101,0.45142,-0.73213,-0.00497,0.01142,-0.00603
0.5101,0.45131,-0.7322,-0.00071,0.00271,-0.00491
0.51017,0.45121,-0.73221,0.00028,0.0045,-0.00302
0.51032,0.4511,-0.73218,-0.00197,0.00735,-0.00281
0.51044,0.45099,-0.73216,-0.00311,0.00745,-0.00371
0.51045,0.45092,-0.73219,-0.00219,0.0071,-0.00284
0.51037,0.45094,-0.73225,0.0041,0.00864,-0.00414
0.51026,0.45099,-0.73229,0.00162,0.01124,-0.00175
0.51016,0.45103,-0.73233,-8e-05,0.01167,-0.0011
0.51009,0.4511,-0.73234,-0.00031,0.00883,0.00115
0.51005,0.45119,-0.73231,0.00235,0.00978,-0.00338
0.51003,0.45129,-0.73226,0.0006,0.00863,-0.0041
0.50997,0.45138,-0.73225,-0.00167,0.00707,-0.0044
0.50994,0.45143,-0.73224,-0.00301,0.00808,-0.00625
0.50992,0.45149,-0.73221,-0.00559,0.00866,-0.00395
0.50992,0.45156,-0.73218,-0.00535,0.01214,-0.00722
0.50991,0.45158,-0.73216,-0.00259,0.01171,-0.00525
0.50996,0.45155,-0.73215,-0.003,0.01271,-0.00618
0.51005,0.45146,-0.73214,-0.00334,0.00801,-0.00312
0.51015,0.45135,-0.73214,-0.00198,0.00731,-0.00185
0.51023,0.45125,-0.73215,0.00016,0.00769,-0.0027
0.51031,0.45114,-0.73216,-0.00162,0.01046,-0.00084
0.5104,0.451,-0.73218,0.00203,0.0104,-0.00308
0.51051,0.45086,-0.7322,0.00085,0.01048,-0.00219
0.51058,0.45072,-0.73223,-0.00206,0.00799,-0.00315
0.51057,0.45067,-0.73227,-0.0028,0.00141,-0.00493
0.51049,0.45079,-0.73225,-0.00064,0.00449,-0.00406
0.51037,0.45097,-0.73223,-4e-05,0.00851,-0.00627
0.51018,0.45114,-0.73225,-0.0027,0.00958,-0.0056
0.51002,0.45137,-0.73222,-0.00164,0.00888,-0.0042
0.50989,0.4516,-0.73216,-0.00075,0.01054,-0.00241
0.50987,0.45174,-0.73209,-0.00199,0.01221,-0.00246
0.50989,0.45181,-0.73204,-0.00417,0.01275,0.00317
0.5099,0.45178,-0.73205,-0.00434,0.01129,-0.00076
0.50991,0.45168,-0.7321,-0.00437,0.01168,-0.00218
0.50992,0.45154,-0.73218,-0.00324,0.01151,-0.00397
0.50994,0.45143,-0.73224,-0.00233,0.00747,-0.00794
0.50995,0.45139,-0.73226,0.00209,0.00495,-0.00554
0.50996,0.4514,-0.73225,0.00376,0.0058,-0.00547
0.50994,0.4514,-0.73225,0.00434,0.00841,-0.00285
0.50996,0.45142,-0.73223,0.00181,0.01081,0.00021
0.51001,0.45145,-0.73218,-0.00059,0.0112,0.00128
0.5101,0.45142,-0.73213,-0.00392,0.01393,-0.00112
0.51019,0.45139,-0.73209,-0.00691,0.01164,-0.00441
0.51019,0.45133,-0.73213,-0.00845,0.01148,-0.00541
0.51016,0.45124,-0.7322,-0.00504,0.00858,-0.00592
0.51015,0.45114,-0.73227,-0.00212,0.00888,-0.0068
0.51016,0.45104,-0.73233,0.00065,0.0076,-0.00539
0.51016,0.45099,-0.73236,0.00077,0.00725,-0.0038
0.51017,0.451,-0.73234,0.0028,0.00824,-0.00023
0.5102,0.45104,-0.73229,0.00332,0.0102,-0.00017
0.51022,0.45108,-0.73225,0.00032,0.01005,0.00204
0.51025,0.45114,-0.7322,-0.00023,0.00465,-0.00044
0.5102,0.45126,-0.73216,0.00123,0.00247,-0.00316
0.51017,0.45145,-0.73206,0.00037,0.00788,-0.00378
0.5102,0.45157,-0.73197,-0.00268,0.02072,-0.00282
0.51023,0.45148,-0.73201,-0.00925,0.01767,-0.00188
0.51023,0.45135,-0.73209,-0.00629,0.01093,-0.00212
0.51023,0.45126,-0.73214,-0.00533,0.0095,-0.0018
0.51024,0.45114,-0.73221,-0.00402,0.00783,-0.00386
0.51024,0.45099,-0.7323,-0.00052,0.00282,-0.00453
0.51021,0.45085,-0.73241,-0.00066,0.00428,-0.00246
0.51019,0.45078,-0.73247,0.00235,0.00529,-0.00331
0.51016,0.45081,-0.73247,0.0036,0.009,-0.00444
0.51017,0.45093,-0.73239,0.00146,0.00694,-0.00361
0.51023,0.45113,-0.73222,0.00189,0.00824,-0.00275
0.51031,0.45132,-0.73205,-0.00242,0.01055,8e-05
0.51037,0.45146,-0.73192,-0.00117,0.00645,-0.00403
0.51033,0.45163,-0.73185,-0.00157,0.00723,-0.00305
0.51028,0.45174,-0.73181,-0.00288,0.0137,-0.0012
0.51031,0.45172,-0.7318,-0.00269,0.01561,-0.00122
0.51036,0.45163,-0.73182,-0.00489,0.01741,-0.00037
0.5104,0.45146,-0.7319,-0.00633,0.01679,0.00057
0.51044,0.45122,-0.73202,-0.00537,0.01274,-0.00392
0.51049,0.451,-0.73212,-0.00311,0.00675,-0.00383
0.51054,0.45082,-0.73219,5e-05,0.00395,-0.00665
0.51057,0.45067,-0.73227,-0.00036,0.00419,-0.00664
0.5106,0.45058,-0.7323,0.00114,0.00398,-0.00439
0.51065,0.45057,-0.73227,-0.00192,0.00607,-0.00206
0.51065,0.45063,-0.73224,-0.00286,0.0084,-0.00249
0.51062,0.45074,-0.73219,0.00031,0.00931,-0.00395
0.51056,0.45087,-0.73215,-0.00113,0.0092,-0.00258
0.51053,0.45102,-0.73208,0.00138,0.00678,-0.00183
0.51054,0.45121,-0.73196,-0.00122,0.01019,-0.00088
0.51058,0.4513,-0.73187,-0.00335,0.01648,-0.00293
0.51052,0.45135,-0.73188,-0.00355,0.00786,-0.00246
0.51048,0.4514,-0.73188,-0.00207,0.00795,-0.00437
0.51044,0.45145,-0.73188,0.00022,0.01038,-0.0005
0.51043,0.4514,-0.73191,-0.00105,0.01211,-0.00182
0.51041,0.45128,-0.73201,-0.00347,0.01085,-0.00425
0.51042,0.45116,-0.73207,-0.0042,0.01294,-0.0009
0.51043,0.45103,-0.73214,0.00061,0.00914,-0.00426
0.51039,0.45095,-0.73222,0.00249,0.00571,-0.00466
0.51033,0.45093,-0.73228,0.00137,0.00577,-0.00448
0.51037,0.45094,-0.73224,0.00036,0.00665,-0.0014
0.51049,0.45094,-0.73215,9e-05,0.00883,-0.00324
0.51058,0.45093,-0.7321,-0.00244,0.00895,-0.00238
0.51063,0.45094,-0.73206,-0.0021,0.00877,-0.00189
0.51065,0.45097,-0.73203,-0.0037,0.01081,-0.00378
0.51065,0.45103,-0.732,-0.00382,0.01033,-0.00326
0.51063,0.45109,-0.73196,-0.0011,0.00975,-0.00344
0.51068,0.45113,-0.7319,-0.00365,0.01022,-0.00265
0.51078,0.45113,-0.73184,-0.00057,0.01074,-0.00321
0.5109,0.45107,-0.73179,-0.00025,0.0099,-0.00205
0.51096,0.45099,-0.7318,0.00022,0.00803,-0.00325
0.51099,0.45094,-0.73181,0.00186,0.00627,-0.00384
0.51104,0.45091,-0.73179,0.00166,0.01173,-0.00495
0.51115,0.45087,-0.73174,0.00075,0.01074,-0.0032
0.51125,0.45081,-0.7317,-0.0039,0.01018,-0.00267
0.51132,0.45074,-0.7317,-0.00375,0.01229,-0.00196
0.51135,0.45068,-0.73172,-0.00233,0.00702,-0.00534
0.51137,0.45065,-0.73172,-0.00034,0.01059,-0.00473
0.51141,0.45066,-0.73168,-0.00113,0.01086,-0.00585
0.51146,0.4506,-0.73169,-0.0033,0.01371,-0.00551
0.51145,0.45051,-0.73175,-0.00301,0.00472,-0.00079
0.51142,0.45044,-0.73182,0.00187,0.00774,-0.00256
0.5114,0.45038,-0.73187,-0.00116,0.00952,-0.0029
0.51144,0.45034,-0.73187,-0.0014,0.01148,0.00204
0.51148,0.45026,-0.73189,-0.00331,0.00903,0.00036
0.5115,0.45018,-0.73192,-0.00301,0.00733,-0.0029
0.51151,0.45015,-0.73193,-0.0001,0.00708,-0.00417
0.51153,0.45014,-0.73193,4e-05,0.00628,-0.00434
0.51152,0.45015,-0.73192,-0.00212,0.00969,-0.00125
0.51153,0.4502,-0.73189,-0.00101,0.01049,-0.00236
0.51154,0.45023,-0.73186,-0.00103,0.0063,-0.0047
0.51154,0.4503,-0.73182,0.0007,0.00708,-0.00382
0.51154,0.45036,-0.73178,-0.00261,0.01052,-0.00415
0.51158,0.4504,-0.73173,-0.00263,0.01311,0.00038
0.5116,0.45043,-0.7317,-0.00543,0.01155,-0.0024
0.51161,0.45044,-0.73168,-0.00505,0.00906,-0.00312
0.51161,0.45046,-0.73167,-0.00113,0.00953,-0.00428
0.51162,0.45041,-0.73169,-0.0002,0.011,-0.00304
0.5117,0.4503,-0.73171,-0.00362,0.00889,-0.0005
0.51183,0.4502,-0.73168,-0.00267,0.00829,-0.00422
0.51194,0.45018,-0.73161,-0.00256,0.00635,-0.00571
0.512,0.45021,-0.73155,-0.00164,0.00703,-0.00627
0.512,0.45027,-0.73151,0.0001,0.01006,-0.00312
0.51198,0.45031,-0.73151,9e-05,0.01137,-0.00392
0.51197,0.45034,-0.73149,0.00108,0.01395,-0.00018
0.51193,0.45034,-0.73152,0.00116,0.00744,-0.00092
0.51187,0.45033,-0.73157,0.00093,0.00699,0.00281
0.51177,0.45035,-0.73162,0.00117,0.00924,0.00122
0.51166,0.45035,-0.7317,0.00093,0.01012,-0.00223
0.51152,0.45032,-0.73182,0.00121,0.00634,-0.00445
0.51146,0.45031,-0.73186,-0.00168,0.00757,-0.00346
0.51149,0.45034,-0.73183,-0.00676,0.00816,-0.00382
0.51152,0.45035,-0.7318,-0.00688,0.00746,-0.00575
0.51149,0.45035,-0.73182,-0.00738,0.00785,-0.00678
0.51141,0.45039,-0.73186,-0.00584,0.01289,-0.00238
0.51137,0.45038,-0.73189,-0.00603,0.01479,-0.00201
0.51137,0.45028,-0.73195,-0.00525,0.01081,-0.0048
0.51142,0.45019,-0.73197,-0.00054,0.0093,-0.00158
0.5115,0.45011,-0.73196,0.00066,0.00895,-0.00185
0.51154,0.45006,-0.73196,0.00417,0.00584,-0.00266
0.51155,0.45001,-0.73199,0.00289,0.00625,-0.00067
0.51155,0.44999,-0.732,0.0048,0.00574,-0.0034
0.5116,0.45003,-0.73194,-0.00153,0.00872,-0.00085
0.51165,0.4501,-0.73187,-0.00127,0.01075,-0.00092
0.51167,0.45016,-0.73181,-0.0044,0.01033,-0.00255
0.51168,0.45023,-0.73176,-0.00304,0.01019,-0.00653
0.51168,0.45028,-0.73173,-0.00497,0.00901,-0.00698
0.51172,0.45035,-0.73167,-0.00305,0.01151,-0.00364
0.51176,0.45039,-0.73161,-0.00425,0.01179,-0.00343
0.5118,0.45036,-0.7316,-0.00263,0.00853,-0.0045
0.5118,0.45032,-0.73162,-0.00066,0.00752,-0.00373
0.51179,0.4503,-0.73164,0.00307,0.00578,-0.00527
0.51178,0.45031,-0.73164,0.0032,0.00831,-0.00053
0.51185,0.45027,-0.73162,-0.00045,0.013,-0.00061
0.51186,0.45019,-0.73166,-0.00156,0.01039,-0.00354
0.51182,0.45016,-0.73171,0.00036,0.0091,-0.00227
0.51187,0.45015,-0.73168,0.00076,0.01161,-0.00116
0.512,0.45011,-0.73161,-0.00272,0.01122,-0.00554
0.51205,0.45004,-0.73162,-0.00345,0.00319,-0.00531
0.51206,0.44998,-0.73165,-0.00214,0.0011,-0.0037
0.51203,0.44998,-0.73167,-0.0005,0.00763,-0.00213
0.51203,0.44999,-0.73166,-0.00309,0.0102,-0.00236
0.51204,0.44998,-0.73166,-0.0028,0.00963,-0.00366
0.51205,0.44995,-0.73167,-0.00146,0.01129,-0.00383
0.51206,0.44992,-0.73169,-0.00112,0.00833,-0.00247
0.51205,0.4499,-0.7317,-0.00128,0.00769,-0.00166
0.51205,0.44993,-0.73168,-0.00069,0.00856,-0.00184
0.51208,0.44998,-0.73164,-0.00071,0.00942,-0.00103
0.51206,0.45001,-0.73163,0.00053,0.00534,-0.00395
0.51199,0.4501,-0.73163,0.00249,0.00501,-0.0031
0.51193,0.4502,-0.73161,0.00092,0.01006,-0.00312
0.51195,0.45029,-0.73154,-0.00365,0.01296,-0.00077
0.51202,0.45037,-0.73143,-0.00398,0.01111,-0.00213
0.51211,0.45047,-0.73132,-0.00464,0.01226,-0.0044
0.51215,0.45055,-0.73124,-0.00337,0.00974,-0.00366
0.51216,0.45056,-0.73122,-0.00134,0.0096,-0.00348
0.51218,0.45051,-0.73124,-0.00245,0.00818,-0.00033
0.5122,0.45045,-0.73126,-0.00253,0.00632,-0.00017
0.51223,0.45038,-0.73129,0.00057,0.00781,-0.00229
0.51226,0.45031,-0.73131,-0.00028,0.0089,-0.00434
0.5123,0.45026,-0.73131,0.00179,0.01035,-0.00752
0.51235,0.45021,-0.73131,0.00198,0.00881,-0.00388
0.51243,0.45017,-0.73127,-0.00171,0.0057,-0.00269
0.5125,0.45016,-0.73123,-0.00285,0.00585,-0.00574
0.51258,0.45021,-0.73115,-0.00144,0.0107,-0.00109
0.51262,0.45027,-0.73108,-0.00397,0.01581,-0.00233
0.51256,0.45027,-0.73112,-0.00282,0.01069,-0.00408
0.51243,0.45023,-0.73123,-0.00052,0.00747,-0.00305
0.51243,0.45015,-0.73129,-0.00051,0.00755,-0.00299
0.5125,0.45007,-0.73129,-0.00216,0.00935,-0.0024
0.51255,0.44998,-0.73131,-0.00291,0.00425,-0.00496
0.51254,0.44988,-0.73137,-0.00112,0.00671,-0.00349
0.51251,0.44983,-0.73143,0.00185,0.00694,-0.00578
0.51248,0.44983,-0.73145,0.00234,0.0088,-0.00369
0.51248,0.44985,-0.73143,-0.00311,0.01012,-0.00196
0.51254,0.4499,-0.73137,-0.00277,0.00819,-0.00223
0.51259,0.44994,-0.73131,-0.00221,0.00788,-0.00278
0.51258,0.45,-0.73127,-0.0003,0.00911,-0.00374
0.51253,0.45006,-0.73127,-0.00214,0.00936,-0.00098
0.51248,0.4501,-0.73128,-0.00162,0.01027,-0.00117
0.51246,0.45012,-0.73128,-0.00144,0.01091,-0.00175
0.51245,0.45011,-0.7313,-0.00172,0.0112,-0.00283
0.51244,0.45008,-0.73132,0.00105,0.01052,-0.00214
0.5124,0.45006,-0.73136,-0.00222,0.0087,-0.0044
0.51238,0.45,-0.73141,-0.00314,0.01002,-0.00156
0.51236,0.44996,-0.73145,-0.00266,0.00887,-0.00338
0.51233,0.44994,-0.73149,-0.0024,0.00668,-0.00461
0.51227,0.44993,-0.73153,-0.00138,0.0062,-0.00278
0.51222,0.44993,-0.73157,-0.00196,0.00937,-0.00287
0.51217,0.44992,-0.73161,0.0011,0.01004,-0.00259
0.51219,0.44991,-0.7316,0.00133,0.01197,-0.00292
0.51218,0.44989,-0.73162,-0.00314,0.00655,-0.0057
0.51221,0.44992,-0.73158,-0.00165,0.00949,-0.00368
0.51225,0.44999,-0.73151,0.00071,0.01138,-0.00495
0.51233,0.45002,-0.73144,-0.00231,0.01266,-0.00441
0.51237,0.45006,-0.73138,-0.00079,0.00732,-0.00537
0.51245,0.45012,-0.7313,0.00191,0.00334,-0.00494
0.51253,0.45019,-0.73119,0.00103,0.00306,-0.00297
0.51266,0.45028,-0.73105,-0.00092,0.00564,-0.00072
0.51275,0.45037,-0.73093,-0.00295,0.01449,0.00112
0.51276,0.45043,-0.73088,-0.00708,0.01873,0.00275
0.51268,0.4504,-0.73096,-0.00487,0.01545,0.00145
0.5126,0.45032,-0.73106,0.00029,0.00975,-0.00459
0.5126,0.45023,-0.73112,0.00138,0.00715,-0.00418
0.5127,0.45012,-0.73111,0.00222,0.00575,-0.00399
0.51287,0.44995,-0.7311,-0.00047,0.00481,-0.00632
0.51295,0.44985,-0.73111,-0.00057,0.002,-0.00265
0.51288,0.44984,-0.73116,-0.00115,0.00605,-0.00231
0.51282,0.44991,-0.73116,-0.00075,0.00816,-0.0026
0.5128,0.45002,-0.7311,-0.00082,0.00763,-0.00182
0.51281,0.45011,-0.73104,-0.00251,0.00881,-0.00283
0.51278,0.45019,-0.73101,-0.00382,0.00785,-0.00385
0.51273,0.45028,-0.731,-0.00081,0.00889,-0.00332
0.5127,0.45032,-0.73099,-0.00392,0.00886,-0.00218
0.51268,0.45036,-0.73098,-0.00381,0.0084,-0.00263
0.51264,0.45037,-0.73101,-0.00227,0.00957,-0.00282
0.51257,0.45038,-0.73104,-0.00035,0.00985,-0.00197
0.51249,0.45038,-0.7311,0.0008,0.00841,-0.00442
0.51243,0.45038,-0.73114,0.00196,0.00593,-0.00424
0.51243,0.45036,-0.73115,0.00144,0.00706,-0.00191
0.51253,0.45036,-0.73108,0.00105,0.01088,0.00168
0.5126,0.45041,-0.73101,-0.00136,0.01208,-0.00542
0.51257,0.45045,-0.731,-0.0014,0.01028,-0.00256
0.51247,0.4505,-0.73104,-0.00103,0.00665,-0.00292
0.51241,0.45055,-0.73105,-0.00214,0.00954,-0.00239
0.51244,0.45056,-0.73102,-0.004,0.01045,-0.00288
0.51252,0.45051,-0.73101,-0.00519,0.01202,-0.00056
0.51255,0.45042,-0.73103,-0.00465,0.00911,-0.00186
0.51258,0.45031,-0.73108,-0.00295,0.00795,-0.00164
0.5126,0.45021,-0.73113,0.00102,0.00876,-0.00566
0.51263,0.45013,-0.73116,-0.00069,0.00504,-0.00389
0.51262,0.45009,-0.73119,-0.00055,0.00622,-0.00565
0.5126,0.45009,-0.7312,0.00143,0.00513,-0.00558
0.5126,0.45011,-0.73119,0.00298,0.00871,-0.00208
0.5126,0.45013,-0.73118,-0.00055,0.00924,-0.00132
0.5126,0.45018,-0.73114,-0.00055,0.00918,-0.00136
0.51259,0.45027,-0.7311,-0.00273,0.00802,-0.00359
0.51256,0.45039,-0.73105,-0.00146,0.00682,-0.00123
0.51247,0.45053,-0.73103,-0.00103,0.00836,-0.00364
0.51236,0.45062,-0.73104,-0.00223,0.00985,-0.00222
0.51231,0.45069,-0.73104,-0.00286,0.01171,-0.00216
0.5123,0.45072,-0.73103,-0.00212,0.01179,-0.00246
0.51233,0.45071,-0.73102,-0.00119,0.00886,-0.00225
0.51238,0.45066,-0.73101,-0.00106,0.00635,-0.00439
0.51243,0.45061,-0.73101,-0.0006,0.00941,-0.00305
0.5125,0.45054,-0.731,-0.00159,0.01101,0.00261
0.51254,0.45042,-0.73104,-0.00416,0.00641,-0.00266
0.51257,0.45036,-0.73106,-0.00041,0.00283,-0.00432
0.5126,0.4504,-0.73101,0.00319,0.00692,-0.00577
0.5127,0.45043,-0.73093,-0.00151,0.01513,-0.00415
0.51276,0.45034,-0.73094,-0.0031,0.00724,-0.00323
0.51277,0.4503,-0.73096,-0.00064,0.00319,-0.00117
0.51281,0.45035,-0.7309,-0.00118,0.0074,-0.00386
0.51287,0.4504,-0.73082,0.0019,0.00916,-0.00418
0.5129,0.45046,-0.73076,0.00039,0.00872,-0.00479
0.51293,0.45045,-0.73075,-0.00177,0.0107,-0.00254
0.51297,0.4504,-0.73076,-0.00169,0.0088,-0.00429
0.51301,0.45038,-0.73074,-0.00112,0.00838,-0.00223
0.51305,0.45035,-0.73073,-0.00011,0.00962,-0.00223
0.51309,0.45031,-0.73073,-0.00152,0.01138,-0.00117
0.51317,0.45024,-0.73071,-0.00119,0.011,-0.00281
0.51325,0.45015,-0.73071,-0.00078,0.00958,-0.00524
0.5133,0.45009,-0.73072,-0.00056,0.00682,-0.00578
0.51335,0.45,-0.73074,-0.00067,0.00618,-0.00144
0.5134,0.44993,-0.73074,0.001,0.00714,-0.00049
0.51344,0.44986,-0.73076,0.00229,0.00828,-0.00061
0.51347,0.44982,-0.73076,-0.00233,0.01048,-0.00068
0.5135,0.44979,-0.73076,-0.00077,0.0076,-0.00249
0.51349,0.44977,-0.73077,2e-05,0.00469,-0.00429
0.51346,0.44979,-0.73079,-0.00056,0.00412,-0.00458
0.51341,0.44985,-0.73079,-0.00199,0.00665,-0.0045
0.51335,0.44994,-0.73077,-0.00164,0.00881,-0.004
0.51329,0.45004,-0.73075,-0.00269,0.00876,-0.00198
0.5133,0.45014,-0.73069,-0.00464,0.01048,-3e-05
0.51331,0.45018,-0.73065,-0.00305,0.004,-0.00427
0.51331,0.45026,-0.7306,-0.0016,0.00842,-0.00338
0.51326,0.45035,-0.73059,0.00023,0.0123,-0.00197
0.51322,0.45036,-0.7306,-0.00071,0.01036,-0.0051
0.51316,0.45032,-0.73067,0.00254,0.00485,-0.00202
0.51315,0.45027,-0.73071,0.00036,0.00699,-0.00237
0.51319,0.4502,-0.73072,-0.00013,0.00867,-0.00164
0.51326,0.45014,-0.73071,-0.00286,0.01105,-0.00124
0.5133,0.45005,-0.73074,0.0001,0.00985,-0.00161
0.51333,0.44997,-0.73077,0.00027,0.00749,-0.00362
0.51334,0.44993,-0.73078,0.0005,0.00625,-0.00449
0.51335,0.4499,-0.7308,-0.00229,0.0033,-0.00315
0.51332,0.44991,-0.73081,0.00166,0.00663,-0.0028
0.5133,0.44998,-0.73079,0.00042,0.00779,-0.00339
0.51327,0.45004,-0.73076,-0.00102,0.00908,-0.00216
0.51328,0.4501,-0.73072,0.0015,0.00797,-0.00163
0.51331,0.45013,-0.73068,-0.00075,0.00925,-0.0022
0.51332,0.45013,-0.73067,-0.00141,0.012,-0.00338
0.51333,0.45012,-0.73067,-0.00082,0.0112,-0.0014
0.51336,0.45008,-0.73068,-0.00055,0.00874,-0.00178
0.51337,0.45003,-0.7307,-0.00049,0.00555,-0.00537
0.51338,0.44995,-0.73074,-0.00162,0.00682,-0.00293
0.51339,0.44989,-0.73077,-0.00043,0.00703,-0.00381
0.51338,0.44987,-0.7308,-0.00062,0.00759,-0.00304
0.51336,0.44987,-0.73081,0.00096,0.00564,-0.00308
0.51334,0.44989,-0.73081,-0.00092,0.00619,-0.0023
0.51334,0.44991,-0.7308,-0.00092,0.00938,-0.00274
0.51333,0.44994,-0.73079,-0.00397,0.0068,-0.00154
0.51331,0.44998,-0.73078,0.00017,0.00672,-0.00424
0.51329,0.45007,-0.73073,-0.00191,0.0102,-0.00289
0.51327,0.45013,-0.73071,-0.00219,0.01379,-0.00325
0.51321,0.45011,-0.73076,0.00104,0.01224,-0.00311
0.51318,0.45006,-0.73081,-0.00011,0.00864,-0.00098
0.51315,0.45,-0.73087,-0.00259,0.00648,0.0017
0.51316,0.44989,-0.73093,-0.00251,0.00787,-0.00164
0.51311,0.44977,-0.73104,-0.00174,0.00912,-0.00132
0.51302,0.44966,-0.73117,0.00166,0.00818,-0.00434
0.51296,0.44956,-0.73128,0.00303,0.00927,-0.00247
0.51294,0.44947,-0.73135,-0.00095,0.00607,-0.00588
0.51297,0.4494,-0.73137,0.00084,0.00606,-0.00429
0.51298,0.4494,-0.73137,0.00022,0.00635,-0.00521
0.51293,0.44944,-0.73138,-0.00164,0.00471,-0.00358
0.51284,0.44949,-0.7314,-6e-05,0.00577,-0.00188
0.51275,0.44957,-0.73142,-0.00235,0.00916,-0.00126
0.51266,0.44965,-0.73144,-0.00078,0.01172,-0.00437
0.51256,0.44973,-0.73146,-0.00192,0.01087,-0.00289
0.51249,0.44977,-0.73148,0.00036,0.01175,-0.00081
0.51246,0.44977,-0.7315,0.00146,0.0076,-0.00222
0.51245,0.44975,-0.73152,0.00154,0.00546,-0.00359
0.51245,0.44971,-0.73155,-0.00105,0.00438,-0.00332
0.51242,0.44967,-0.73159,-0.00056,0.00654,-0.00556
0.5124,0.44966,-0.73161,-0.00167,0.00903,-0.00231
0.51236,0.44969,-0.73162,-0.00118,0.00838,-0.00052
0.51228,0.44975,-0.73164,-0.00036,0.0073,-0.00231
0.51217,0.44984,-0.73166,-0.00047,0.00925,-0.00285
0.51206,0.44991,-0.73169,0.00178,0.00441,-0.0032
0.51197,0.45,-0.7317,-0.00092,0.00703,-0.00318
0.51193,0.45017,-0.73163,0.0,0.00723,-0.00096
0.5119,0.45031,-0.73156,-6e-05,0.01098,-0.00315
0.51178,0.45043,-0.73157,0.00238,0.00738,-0.0011
0.51167,0.45056,-0.73157,0.00016,0.00734,-0.0016
0.51163,0.45069,-0.73152,-0.00324,0.00883,-0.00292
0.5116,0.45076,-0.73149,-0.00312,0.01045,-0.00159
0.51154,0.45081,-0.73151,-0.00284,0.00881,-0.00305
0.51144,0.45085,-0.73156,0.00245,0.00646,-0.00195
0.51134,0.45086,-0.73161,0.00161,0.00492,-0.00386
0.5113,0.45088,-0.73163,-0.00054,0.00465,-0.00249
0.51127,0.45094,-0.73162,4e-05,0.00715,-0.00329
0.51121,0.45103,-0.7316,0.00152,0.00904,-0.00174
0.51113,0.45115,-0.73158,0.00245,0.00655,-0.00306
0.51107,0.45127,-0.73155,0.00145,0.00726,-0.00358
0.51105,0.45138,-0.73149,-0.00289,0.00773,-0.0014
0.51101,0.45148,-0.73146,-0.00019,0.00804,0.00078
0.51096,0.45156,-0.73145,-0.00194,0.00996,-0.0024
0.51087,0.45167,-0.73144,-0.00011,0.00927,-0.00146
0.51076,0.45181,-0.73144,0.00029,0.00825,-0.00318
0.51066,0.4519,-0.73145,-7e-05,0.00803,-0.00269
0.51059,0.45198,-0.73145,0.00147,0.0053,-0.00589
0.51054,0.45207,-0.73142,-0.00093,0.00745,-0.00513
0.51051,0.45219,-0.73137,0.00068,0.00508,-0.00085
0.51044,0.45232,-0.73134,0.00059,0.00706,-0.002
0.51037,0.45245,-0.73131,-0.00045,0.00843,0.0001
0.51028,0.45257,-0.7313,-0.00045,0.0048,-0.00315
0.5102,0.45271,-0.73126,0.00089,0.00748,-0.003
0.51018,0.4529,-0.73116,0.00024,0.00973,-0.00331
0.51016,0.45303,-0.73109,0.00081,0.01394,-0.00296
0.51011,0.45309,-0.73109,-0.00063,0.00545,-0.00281
0.51005,0.4532,-0.73106,-0.00026,0.00468,-0.00093
0.51003,0.45331,-0.73101,-0.00083,0.00597,-0.00347
0.51003,0.45338,-0.73097,-0.00165,0.00849,-0.00388
0.50997,0.45344,-0.73097,-0.00103,0.00723,-0.00216
0.50988,0.45353,-0.73098,0.00186,0.00981,-0.00133
0.50979,0.45363,-0.73098,0.00078,0.00869,-0.00208
0.50971,0.45374,-0.73097,-0.00127,0.00706,-0.00385
0.50967,0.45386,-0.73092,-0.00133,0.006,-0.00344
0.50961,0.45398,-0.73089,-0.00104,0.00737,-0.00233
0.50954,0.45411,-0.73086,0.00101,0.00814,-0.00181
0.50945,0.45425,-0.73083,-0.00066,0.00531,-0.00201
0.50935,0.45439,-0.73081,0.00168,0.00563,-0.00278
0.50926,0.45454,-0.73079,-0.00076,0.00805,0.00073
0.50918,0.45467,-0.73076,0.00156,0.00987,-0.00302
0.50907,0.45481,-0.73075,0.00068,0.00824,-0.00243
0.50895,0.45495,-0.73075,0.00064,0.00657,-0.00266
0.50884,0.45509,-0.73074,-0.0,0.00525,-0.00194
0.50876,0.45526,-0.73069,-0.00015,0.00633,-0.00424
0.5087,0.45544,-0.73062,0.00285,0.00802,-0.00543
0.50863,0.45562,-0.73055,0.00118,0.0084,-0.0028
0.50853,0.4558,-0.73051,-0.0002,0.01046,-0.00211
0.50841,0.45599,-0.73047,-0.00367,0.00885,-0.00268
0.50831,0.45616,-0.73044,-0.00191,0.00751,-0.00532
0.50824,0.45637,-0.73035,0.00209,0.00797,-0.00291
0.5082,0.45663,-0.73022,0.00177,0.00994,-0.00293
0.50809,0.45683,-0.73017,0.00032,0.00563,-0.00346
0.50799,0.45704,-0.73011,-0.0005,0.00727,-0.00061
0.50796,0.45719,-0.73003,0.00039,0.0102,-0.00143
0.50791,0.45731,-0.73,-0.00197,0.00981,-0.00024
0.50786,0.45737,-0.72999,-0.00161,0.0103,-0.00072
0.50776,0.45743,-0.73002,-0.00094,0.00923,-0.00067
0.50764,0.4575,-0.73007,0.00085,0.00828,-0.0043
0.50753,0.45751,-0.73014,-0.00087,0.00714,-0.00236
0.50747,0.45746,-0.73021,-0.00092,0.00549,-0.00368
0.50739,0.45743,-0.73028,-0.00312,0.00858,-0.00107
0.50728,0.45743,-0.73036,-0.00055,0.01208,0.00015
0.50716,0.4574,-0.73046,-0.0013,0.01129,-0.00027
0.50708,0.45732,-0.73057,-0.00175,0.00772,-0.0041
0.507,0.45725,-0.73067,-0.00104,0.00496,-0.0054
0.50691,0.45713,-0.73081,-0.00091,0.00805,-0.00303
0.50684,0.45698,-0.73095,-0.00019,0.00878,-0.00282
0.50682,0.45683,-0.73105,-0.0002,0.00795,-0.00286
0.5068,0.4567,-0.73114,0.00087,0.00936,-0.0029
0.50675,0.4566,-0.73124,0.00088,0.00717,-0.00139
0.50674,0.45649,-0.73132,-0.00036,0.0069,-0.00382
0.50673,0.45642,-0.73137,0.00061,0.00781,-0.00279
0.50665,0.45637,-0.73146,0.00487,0.00534,-0.00219
0.5065,0.4563,-0.73161,-0.00194,0.01086,0.00044
0.50638,0.45617,-0.73177,-0.00111,0.00851,0.00111
0.50632,0.45611,-0.73185,0.00622,0.00458,-0.00877
0.50629,0.45621,-0.73181,0.00717,0.00498,-0.00735
0.50624,0.45625,-0.73182,0.00436,0.00646,-0.00643
0.50627,0.45623,-0.73181,-0.00435,0.00851,-0.00145
0.50636,0.45618,-0.73177,-0.00603,0.0091,0.00027
0.50638,0.45614,-0.73179,-0.00531,0.01239,-0.00095
0.50633,0.45609,-0.73185,-0.0045,0.01324,-0.00086
0.50628,0.45599,-0.73195,-0.00236,0.01194,-0.00281
0.50624,0.45581,-0.73209,0.0004,0.01031,-0.00189
0.5062,0.45563,-0.73223,0.00225,0.00532,-0.00414
0.50617,0.45546,-0.73235,0.00104,0.00305,-0.00172
0.50615,0.45533,-0.73245,0.00236,0.0057,-0.00255
0.50616,0.45524,-0.7325,0.00153,0.00717,-0.00267
0.5062,0.4552,-0.7325,0.00402,0.00818,-0.00231
0.50621,0.45517,-0.73251,0.00323,0.00988,-0.00214
