gravity.x,gravity.y,gravity.z,userAcceleration.x,userAcceleration.y,userAcceleration.z
-0.36407,0.89264,-0.26578,-0.09273,1.05021,0.01108
-0.32915,0.89241,-0.30863,-0.00299,0.67427,0.45475
-0.29853,0.89249,-0.33815,0.10772,0.64575,0.87645
-0.28702,0.89231,-0.34843,0.07068,0.55661,0.94385
-0.28665,0.89522,-0.34118,0.1275,0.23547,0.77902
-0.29157,0.89258,-0.34391,0.08711,-0.05376,0.75361
-0.30542,0.88904,-0.34107,0.04303,-0.16551,0.79846
-0.32499,0.88495,-0.33353,0.12157,-0.47191,0.89157
-0.34856,0.87967,-0.32356,0.116,-0.56262,0.85513
-0.37276,0.87608,-0.30583,0.04746,-0.71371,0.79228
-0.39573,0.87547,-0.27739,0.01654,-0.77678,0.45964
-0.4168,0.877,-0.23906,0.01599,-0.44801,0.12022
-0.43371,0.87697,-0.20691,-0.03551,-0.24092,-0.09134
-0.45081,0.87037,-0.19803,-0.70986,0.87776,-1.19162
-0.47447,0.85189,-0.22169,-0.02919,0.87282,-1.01387
-0.47539,0.84171,-0.25596,0.25829,0.34969,-0.58057
-0.45091,0.84346,-0.29197,0.76656,-0.11175,0.23463
-0.41125,0.85318,-0.32087,1.86155,-0.35788,-0.32968
-0.38081,0.86121,-0.3366,1.47933,-0.68154,0.37136
-0.37601,0.85177,-0.36483,-1.48919,3.35714,0.06089
-0.38389,0.84948,-0.36195,0.38382,-0.59263,1.27995
-0.37697,0.85365,-0.3594,0.26346,-0.83852,0.71532
-0.36744,0.85585,-0.36401,-0.03861,-0.23799,1.05014
-0.38233,0.84983,-0.36279,-0.52821,0.68126,0.40344
-0.42648,0.84139,-0.33193,-0.50417,1.00849,0.40972
-0.46252,0.84197,-0.27778,0.67341,0.74955,0.51
-0.46673,0.85142,-0.23924,0.23919,0.32173,0.12274
-0.45745,0.86486,-0.20678,0.23121,0.19378,0.13682
-0.45074,0.87737,-0.16446,0.35341,0.05175,0.19407
-0.44623,0.88751,-0.11492,0.40543,-0.09817,0.16599
-0.4391,0.89602,-0.06589,0.29742,-0.13239,0.08644
-0.42994,0.90261,-0.02098,0.07725,-0.12228,-0.07835
-0.4224,0.90624,0.01752,-0.10965,-0.12952,-0.207
-0.41767,0.90723,0.04988,-0.01348,-0.16846,-0.09167
-0.4142,0.90681,0.07826,0.15203,-0.13546,0.00719
-0.41175,0.90531,0.1043,0.18895,-0.08939,0.03129
-0.41173,0.90178,0.13138,0.19818,-0.02271,0.08596
-0.41365,0.89648,0.15881,0.22503,-0.01475,0.09612
-0.41803,0.88937,0.18511,0.22845,-0.04661,0.04068
-0.42492,0.88006,0.21196,0.15011,0.07036,-0.0833
-0.43182,0.86954,0.23966,0.1665,0.21269,-0.19046
-0.43679,0.86028,0.26292,0.27603,0.2781,-0.28108
-0.43993,0.8533,0.2799,0.32149,0.39689,-0.44729
-0.44291,0.84774,0.29183,0.41675,0.41691,-0.50036
-0.44798,0.84462,0.29313,0.49458,0.48691,-0.48611
-0.45111,0.84622,0.28356,0.66719,0.73821,-0.3827
-0.44653,0.85304,0.27004,0.729,0.80115,-0.35438
-0.43904,0.86349,0.24826,0.46527,0.58166,-0.24468
-0.43546,0.8761,0.20692,0.32178,0.41542,-0.16651
-0.43197,0.88914,0.1511,0.16451,0.16636,-0.02826
-0.42068,0.90212,0.09592,0.19067,0.23423,0.16834
-0.40526,0.91288,0.04906,0.05425,0.49401,0.48258
-0.39401,0.91906,-0.00925,-0.13773,0.55596,0.65772
-0.38076,0.92212,-0.06859,-0.17637,0.54605,0.60826
-0.3631,0.92465,-0.11478,0.1608,0.34143,0.34151
-0.3436,0.92705,-0.15004,0.24995,0.34459,0.24999
-0.31896,0.93265,-0.16857,0.39713,0.26982,0.39185
-0.29059,0.93709,-0.1934,0.40137,0.16174,0.4964
-0.26882,0.93555,-0.22907,0.1559,0.00741,0.5239
-0.25453,0.92973,-0.26611,0.00666,-0.11502,0.47132
-0.24766,0.92242,-0.29632,-0.04324,-0.22558,0.47934
-0.24589,0.91533,-0.31892,-0.01732,-0.35514,0.45848
-0.24642,0.91017,-0.33296,-0.1287,-0.47501,0.48884
-0.24524,0.90803,-0.33961,-0.116,-0.65466,0.4883
-0.24041,0.91008,-0.33756,-0.09922,-0.75652,0.4505
-0.23434,0.91611,-0.32529,-0.10437,-0.76218,0.36328
-0.23209,0.92444,-0.30255,-0.04437,-0.74471,0.28455
-0.24208,0.93143,-0.27172,0.10192,-0.60451,0.02216
-0.26698,0.93376,-0.23834,0.16275,-0.59935,-0.03893
-0.29784,0.9324,-0.20474,0.10654,-0.55409,-0.08394
-0.31957,0.93104,-0.17614,0.11478,-0.38461,-0.03285
-0.33071,0.93124,-0.15299,0.16055,-0.06609,-0.22182
-0.339,0.9327,-0.12304,0.2658,0.20232,-0.38018
-0.34415,0.93509,-0.08459,0.53223,0.28132,-0.11584
-0.34452,0.93697,-0.05814,0.59753,0.1679,-0.11557
-0.33787,0.94031,-0.04058,0.46723,0.0424,-0.21138
-0.32878,0.94405,-0.02562,0.49544,-0.28031,-0.23699
-0.32509,0.94489,-0.03855,0.16327,-0.66514,0.73737
-0.32366,0.94403,-0.06357,-0.26591,-0.02748,0.59398
-0.31774,0.94629,-0.05964,-0.42507,0.56004,0.25652
-0.311,0.95027,-0.01571,-0.49495,1.25753,-0.03317
-0.30829,0.95088,0.02778,-0.51972,3.43948,-3.45495
-0.28771,0.95637,-0.05072,0.21181,-0.41708,1.65294
-0.285,0.95208,-0.11096,0.39815,-0.10847,0.47298
-0.29425,0.95182,-0.08626,0.33719,0.30365,0.46563
-0.2943,0.95487,-0.04002,0.18948,0.75404,-0.95878
-0.28815,0.95405,-0.0822,-0.17131,0.59678,-0.89135
-0.28201,0.95231,-0.11647,-0.18387,-0.00163,0.2016
-0.28671,0.94434,-0.16131,-0.0988,-0.45007,-0.17708
-0.30455,0.93007,-0.20547,0.29048,-0.92306,0.64163
-0.3299,0.91522,-0.23139,0.48644,-1.04375,0.68958
-0.33823,0.90939,-0.24209,0.75701,-1.42608,0.67511
-0.33798,0.90643,-0.25327,0.46922,-1.1538,0.3583
-0.34016,0.90472,-0.25646,0.39907,-0.82766,0.36104
-0.33742,0.90534,-0.25788,0.51813,-0.59254,0.36475
-0.33568,0.90805,-0.25051,0.41776,-0.52829,0.32258
-0.33586,0.91337,-0.23012,0.26591,-0.36162,0.15769
-0.3449,0.91615,-0.20425,0.13852,0.25298,-0.1921
-0.36302,0.91531,-0.17441,0.01549,0.61471,-0.55462
-0.38013,0.91473,-0.13698,-0.29697,1.39683,-1.05167
-0.38071,0.91999,-0.09316,-0.17531,0.56036,-0.43338
-0.36434,0.92954,-0.05669,-0.29936,0.33914,-0.28848
-0.34656,0.93741,-0.03392,-0.48836,0.10318,-0.25447
-0.33306,0.94269,-0.02016,-0.47817,-0.06698,-0.49441
-0.32474,0.94555,-0.02189,-0.49756,0.12702,0.24768
-0.31553,0.94821,-0.03662,-0.39607,0.12847,0.69457
-0.2993,0.9534,-0.038,0.46939,-0.17328,0.96275
-0.28063,0.95978,-0.00777,-0.23927,1.04327,-0.61317
-0.26801,0.96323,0.01885,-0.36291,4.38988,-3.7635
-0.25676,0.96522,-0.04917,-0.03733,-0.71615,0.48616
-0.24318,0.96579,-0.09003,-0.01368,-0.93688,0.7078
-0.24277,0.96561,-0.09305,0.1,-0.18466,0.98113
-0.24594,0.96811,-0.04766,-0.18095,0.9247,0.11083
-0.24856,0.96795,0.03594,0.2875,0.41519,-0.6081
-0.24662,0.96482,0.0911,0.37168,0.50587,-0.93299
-0.25292,0.96257,0.09735,-0.40286,0.30354,-0.67236
-0.2615,0.96022,0.09787,-0.46494,0.15696,-0.7415
-0.27632,0.95807,0.07573,-0.45012,0.15911,-0.71936
-0.29904,0.95392,0.02466,0.02763,-0.15718,-0.60388
-0.3191,0.94669,-0.04408,0.15968,-0.27436,-0.48033
-0.32848,0.93697,-0.11911,0.27036,-0.6465,0.25273
-0.32688,0.92397,-0.19856,0.08972,-1.05818,1.02278
-0.32101,0.91335,-0.25049,-0.0255,-1.11939,0.89497
-0.32676,0.90767,-0.26337,0.44914,-1.23324,0.34627
-0.32248,0.90546,-0.27593,1.34375,-0.64159,0.24255
-0.29433,0.91138,-0.28768,1.2364,-0.32159,0.27771
-0.27093,0.92347,-0.27165,0.563,-0.40366,0.3425
-0.25273,0.93873,-0.23434,0.21231,-0.64342,0.46495
-0.24414,0.95102,-0.18961,0.0941,-0.46997,0.1428
-0.24589,0.95988,-0.13477,0.04141,-0.31178,-0.03317
-0.26251,0.96224,-0.07198,-0.71049,2.2258,-1.06469
-0.25925,0.96483,-0.04343,-0.34431,2.41167,-1.6685
-0.24679,0.96877,-0.02396,0.0293,0.03135,0.03476
-0.23406,0.97185,-0.02692,-0.46513,-0.20431,0.88287
-0.22483,0.97369,-0.03712,-0.83321,-0.01098,0.30932
-0.22104,0.97505,-0.02011,-0.15048,0.17721,0.3307
-0.22443,0.97448,0.00428,0.28027,1.94966,-2.14869
-0.21143,0.97721,0.01846,-0.30216,3.15745,-2.32226
-0.20014,0.97971,-0.01041,-0.02278,0.23471,1.1202
-0.19389,0.9794,-0.05629,0.37992,-0.35031,0.73795
-0.19429,0.97803,-0.0755,-0.42671,0.03894,0.17646
-0.20145,0.97881,-0.03672,-0.34476,0.79617,-0.82112
-0.21369,0.97554,-0.05145,0.0978,0.79597,-0.88299
-0.21908,0.97175,-0.08771,-0.04923,0.22797,-0.34744
-0.22047,0.9655,-0.13857,-0.28931,0.07235,-0.2067
-0.22909,0.9508,-0.20853,-0.44431,-0.40414,0.33742
-0.24314,0.93004,-0.2755,-0.07646,-0.75548,0.8387
-0.25526,0.91298,-0.31828,0.36546,-0.98769,0.97865
-0.2443,0.91227,-0.32875,0.77311,-1.73621,0.88113
-0.21905,0.91418,-0.34101,0.79557,-1.07382,0.60506
-0.20731,0.91614,-0.34307,0.65026,-1.02208,0.63595
-0.19487,0.92356,-0.33024,0.58336,-0.92566,0.58253
-0.18156,0.93742,-0.29711,0.39542,-0.73751,0.37977
-0.17977,0.95343,-0.24218,0.19477,-0.61035,0.3709
-0.20019,0.96242,-0.18349,-0.1558,0.05057,-0.07385
-0.24382,0.96132,-0.12811,-1.19578,1.9234,-0.66396
-0.25476,0.95979,-0.11789,0.06892,1.27543,-1.70094
-0.25328,0.96116,-0.10961,-0.29052,0.18916,-1.17173
-0.24133,0.96657,-0.08657,-0.51893,0.11795,-0.5933
-0.23617,0.96678,-0.0978,-0.59198,0.4182,1.32215
-0.23789,0.96462,-0.11362,0.08643,0.07345,1.11832
-0.23936,0.96334,-0.12116,0.95373,0.19877,-0.67059
-0.22481,0.97172,-0.07215,1.28537,1.26694,-2.57099
-0.1869,0.97746,-0.09813,-0.80203,3.04714,-0.06491
-0.16886,0.97416,-0.14996,-0.17214,-0.58915,0.59314
-0.17799,0.96671,-0.1838,-0.26326,-0.41469,0.45647
-0.19948,0.96815,-0.15124,-0.50441,0.24663,-0.28243
-0.21345,0.96611,-0.1451,0.06585,0.88025,-0.58494
-0.2161,0.96478,-0.14995,0.25745,0.28639,-0.27469
-0.2202,0.96131,-0.16549,0.24881,0.03625,-0.42165
-0.2288,0.95207,-0.203,0.0107,-0.13534,-0.31684
-0.24508,0.93725,-0.24797,-0.03945,-0.32339,0.04229
-0.26773,0.91751,-0.2941,0.06262,-0.82389,0.78318
-0.28753,0.9013,-0.32401,0.24339,-1.02758,0.78251
-0.28948,0.89652,-0.33535,0.50046,-1.2262,0.54259
-0.28071,0.89524,-0.34603,0.65048,-0.83473,0.44953
-0.26422,0.89624,-0.35629,0.67889,-0.6878,0.46945
-0.24283,0.90169,-0.35775,0.56033,-0.61076,0.38296
-0.2201,0.91534,-0.33721,0.13628,-0.15961,0.36393
-0.20832,0.93175,-0.29738,0.09565,0.06982,0.48416
-0.20988,0.94651,-0.24505,-0.23869,0.41654,0.52403
-0.22713,0.95486,-0.19142,-0.53738,1.2346,-0.48145
-0.24456,0.95794,-0.15009,-0.25187,1.0293,-0.76489
-0.25189,0.95874,-0.13175,0.11633,0.76572,-2.00806
-0.25143,0.96257,-0.1011,-0.03102,-0.26676,-0.62804
-0.24394,0.96697,-0.07382,-0.04906,-0.34716,-0.44673
-0.24266,0.96674,-0.08072,-0.02832,-0.30552,0.64494
-0.24478,0.96562,-0.08749,-0.1037,0.34501,0.88379
-0.25564,0.96272,-0.08834,0.17744,0.62492,-0.22837
-0.25972,0.96398,-0.0572,0.48494,0.40143,-0.50914
-0.24693,0.96803,-0.04389,0.10759,0.87654,-0.89161
-0.2386,0.9707,-0.02831,-0.84889,2.29619,-0.59319
-0.24207,0.96861,-0.05652,-0.0332,0.28403,0.69272
-0.24966,0.96536,-0.07575,0.28593,-0.2579,-0.02313
-0.25293,0.96606,-0.05239,-0.20064,0.0456,-0.15471
-0.25995,0.96362,-0.06208,-0.07248,0.7712,-0.82131
-0.26168,0.96153,-0.0835,0.27579,-0.05865,-0.3148
-0.26357,0.95763,-0.11609,0.474,-0.26468,-0.35838
-0.26632,0.95042,-0.16053,0.39045,-0.41042,-0.13178
-0.26967,0.94075,-0.2056,0.17067,-0.70767,0.43979
-0.27515,0.92991,-0.24402,0.11744,-0.93728,0.5602
-0.27384,0.9261,-0.2595,0.46448,-1.07135,0.65882
-0.26523,0.9265,-0.2669,0.44406,-1.15749,0.53795
-0.26659,0.92282,-0.27807,0.24656,-0.84981,0.29176
-0.27409,0.91833,-0.28555,0.29911,-0.79696,0.27016
-0.28197,0.91533,-0.28751,0.32829,-0.49875,0.38328
-0.28835,0.91484,-0.2827,0.15463,-0.23942,0.59303
-0.29157,0.91679,-0.27291,-0.03901,0.32186,0.56913
-0.29557,0.9212,-0.25304,-0.31663,0.77397,0.31223
-0.30777,0.92524,-0.22182,-0.29794,0.45844,-0.02079
-0.32869,0.92805,-0.17516,-0.58104,0.45917,-0.44658
-0.34332,0.93175,-0.11818,-0.83249,0.89905,-1.53962
-0.33856,0.93518,-0.10395,-0.07391,1.2016,-1.80403
-0.33029,0.93605,-0.12128,-0.57219,0.48324,-1.30327
-0.32339,0.93538,-0.14308,-0.39444,-0.3147,-0.70204
-0.31929,0.93269,-0.16775,0.13858,-0.60255,-0.94874
-0.32055,0.92958,-0.18198,-0.08294,-0.72774,0.79114
-0.3374,0.92199,-0.18996,0.1329,0.20375,1.79647
-0.36565,0.91327,-0.17953,0.23372,0.81067,0.6298
-0.35877,0.91494,-0.18483,0.88976,0.52113,0.15411
-0.34641,0.92036,-0.18149,-0.03157,2.22579,-0.59866
-0.34386,0.92173,-0.17935,-0.24084,0.68278,0.70742
-0.36008,0.91512,-0.18134,-0.07609,0.22369,0.67313
-0.37118,0.91553,-0.15496,-0.16124,0.45381,0.3148
-0.373,0.91983,-0.12157,-0.16377,0.55918,0.13471
-0.36984,0.92449,-0.09235,0.28113,0.43409,0.15028
-0.36015,0.9313,-0.05453,0.35142,0.08535,0.13017
-0.34568,0.93829,-0.01087,0.31901,-0.1881,0.16462
-0.33051,0.94324,0.03243,0.28747,-0.29256,0.16431
-0.31594,0.94548,0.07896,0.1661,-0.44456,-0.08436
-0.29982,0.94511,0.1299,0.15434,-0.45045,-0.16083
-0.28423,0.94215,0.17765,0.02565,-0.42991,-0.24009
-0.27377,0.93757,0.21449,0.03747,-0.38811,-0.15137
-0.27071,0.93146,0.24308,0.00445,-0.31822,-0.10285
-0.27499,0.92321,0.26842,-0.05835,-0.10621,-0.18901
-0.28152,0.91259,0.29651,-0.14713,0.1069,-0.44319
-0.28045,0.9008,0.33149,-0.14223,-0.15663,-0.60197
-0.27367,0.88657,0.37294,0.07827,-0.01845,-0.77744
-0.28092,0.87186,0.40117,0.46556,0.54977,-0.71468
-0.30898,0.86484,0.39568,0.56088,0.6703,-0.52126
-0.32798,0.86382,0.3824,0.29038,0.45198,-0.40872
-0.32253,0.86151,0.39211,0.21999,0.80832,-0.42451
-0.31309,0.86266,0.39721,0.62367,0.9997,-0.56319
-0.31756,0.87394,0.36792,0.91931,0.90302,-0.21191
-0.31035,0.89488,0.3207,0.53801,0.71101,-0.10481
-0.29452,0.9148,0.27639,-0.18935,0.17885,-0.11975
-0.28817,0.9314,0.22237,-0.09855,0.18685,-0.03395
-0.28413,0.94441,0.16536,0.10304,0.23175,0.16689
-0.28075,0.95397,0.10542,0.03092,0.41847,0.57109
-0.27378,0.9608,0.04349,0.03424,0.45604,0.56595
-0.25978,0.96564,-0.00617,0.17398,0.53378,0.46426
-0.24531,0.9683,-0.04688,0.41279,0.28218,0.2557
-0.22922,0.97027,-0.07763,0.36333,0.22311,0.32663
-0.21368,0.97128,-0.10465,0.35597,0.12696,0.51055
-0.20186,0.9698,-0.13684,0.31338,-0.00772,0.37633
-0.19142,0.96735,-0.16607,0.23882,-0.10654,0.63942
-0.18271,0.96454,-0.19044,0.22646,-0.14832,0.69912
-0.18163,0.95969,-0.21445,0.21992,-0.09728,0.74673
-0.18452,0.95366,-0.23766,0.1907,-0.1326,0.67199
-0.18568,0.94837,-0.25712,0.23775,-0.23654,0.52343
-0.18476,0.94501,-0.26983,0.14176,-0.26964,0.40829
-0.1785,0.94491,-0.27436,0.05496,-0.25482,0.40943
-0.16796,0.9476,-0.27171,-0.02083,-0.29624,0.43321
-0.15758,0.9524,-0.26094,-0.02948,-0.32051,0.40878
-0.14993,0.95842,-0.24278,-0.07421,-0.27651,0.30267
-0.14413,0.9655,-0.21688,-0.0506,-0.06874,-0.06972
-0.14191,0.972,-0.18724,-0.08111,0.04724,-0.24957
-0.14205,0.97582,-0.16609,-0.18371,0.53088,-0.99313
-0.1433,0.97467,-0.17167,0.15893,0.35489,-1.10683
-0.14145,0.97211,-0.18705,0.31446,0.12449,-0.72231
-0.12724,0.97242,-0.19543,0.75183,-0.01965,-0.13663
-0.1037,0.97311,-0.20567,1.00763,-0.23724,-0.22751
-0.08617,0.97519,-0.20389,0.68038,-0.08908,0.04384
-0.08118,0.97523,-0.20572,-0.24827,1.72177,0.667
-0.08339,0.96598,-0.2448,-0.8326,-0.2226,0.44014
-0.07747,0.96248,-0.26006,-0.98339,-0.89354,0.5538
-0.0714,0.96545,-0.2506,-0.42796,-1.03706,0.67194
-0.07632,0.96951,-0.23285,-0.42525,-0.51408,0.8604
-0.10533,0.97103,-0.21445,-0.62102,0.16964,0.65348
-0.1592,0.96669,-0.20041,-0.42944,0.42704,0.35698
-0.21611,0.96102,-0.1724,0.56876,1.0185,0.27578
-0.23838,0.964,-0.1178,1.05361,0.42843,-0.04945
-0.22722,0.96906,-0.09633,0.62619,0.16647,0.00011
-0.20268,0.97589,-0.08093,0.09753,-0.00737,0.16822
-0.18141,0.98162,-0.0592,0.02238,-0.02652,0.17105
-0.16622,0.98549,-0.03429,-0.16541,-0.14952,0.06843
-0.15506,0.98789,-0.00402,-0.23436,-0.20242,0.05588
-0.15038,0.98826,0.02658,-0.3094,-0.21913,-0.06416
-0.15227,0.98706,0.05017,-0.18366,-0.20805,-0.26307
-0.1563,0.98513,0.07129,0.06847,-0.10637,-0.5165
-0.15898,0.983,0.09173,0.23558,-0.05909,-0.74694
-0.15883,0.98247,0.09749,0.27846,0.00416,-0.7591
-0.15772,0.98442,0.07763,0.1245,0.2827,-0.6278
-0.15687,0.98686,0.03857,0.03865,0.39869,-0.5992
-0.15372,0.98794,-0.01838,0.00087,0.85993,-0.33518
-0.15016,0.98465,-0.08892,-0.25887,0.41063,-0.01646
-0.14663,0.97667,-0.15687,-0.68119,0.07507,0.12151
-0.14127,0.96623,-0.21547,-0.52369,0.12663,0.32399
-0.14723,0.95216,-0.26778,0.12471,0.11068,1.02293
-0.15555,0.93764,-0.31084,0.6809,0.28132,0.79633
-0.15347,0.92858,-0.33789,0.59487,0.50069,0.17898
-0.14221,0.92131,-0.36187,0.18356,0.49078,0.0048
-0.1346,0.91198,-0.38752,0.15575,0.19558,0.35609
-0.13109,0.90305,-0.40902,0.1655,-0.10622,0.57577
-0.13205,0.89505,-0.42595,0.0616,-0.34529,0.61654
-0.13357,0.88906,-0.43786,-0.08836,-0.46783,0.6659
-0.13332,0.88597,-0.44416,-0.17963,-0.54301,0.66697
-0.13341,0.88663,-0.44281,-0.23538,-0.56361,0.64356
-0.13517,0.89088,-0.43364,-0.21892,-0.61859,0.58054
-0.13723,0.89847,-0.41703,-0.17693,-0.71964,0.47759
-0.13751,0.91005,-0.39102,-0.14553,-0.80714,0.4147
-0.13877,0.92581,-0.35159,-0.00198,-0.77261,0.37338
-0.1484,0.94083,-0.30466,0.15194,-0.54298,0.18156
-0.16472,0.95083,-0.26224,-0.06892,-0.14433,-0.12009
-0.1803,0.95671,-0.22843,-0.27447,0.20935,-0.51037
-0.18721,0.9618,-0.19969,-0.21785,0.51813,-0.5916
-0.18693,0.9649,-0.18443,0.00625,0.09014,-0.21754
-0.18274,0.96643,-0.18058,-0.01592,-0.12169,-0.1754
-0.17523,0.9685,-0.1769,-0.01659,-0.39097,-0.20249
-0.16604,0.97195,-0.16651,0.13089,-0.21471,-0.03993
-0.15201,0.97454,-0.16479,0.12951,-0.12292,0.6011
-0.14064,0.97517,-0.17104,-0.18077,0.49441,0.75522
-0.13774,0.97552,-0.17139,0.11841,-0.0522,0.39256
-0.13975,0.98103,-0.13431,0.2082,0.41301,-0.25166
-0.12498,0.98133,-0.14614,-0.22642,-0.11378,1.82707
-0.08817,0.97167,-0.21928,0.31472,-0.99118,1.24253
-0.06647,0.96119,-0.26773,0.35413,-1.00161,1.01648
-0.07193,0.96872,-0.23748,-0.26794,0.50937,0.79836
-0.08675,0.98009,-0.17856,0.00163,1.34301,0.17275
-0.10177,0.98572,-0.13411,0.2653,0.83805,-0.59409
-0.10725,0.98651,-0.1236,0.07406,0.19224,-0.02348
-0.10831,0.98819,-0.10835,-0.28934,0.05478,-0.22492
-0.11123,0.98936,-0.09368,-0.38406,0.12869,-0.39779
-0.11518,0.98847,-0.0982,-0.16655,0.19412,-0.70942
-0.11801,0.98521,-0.12421,0.01196,0.11224,-0.65536
-0.11765,0.97844,-0.1697,0.03481,-0.04174,-0.41395
-0.11408,0.96696,-0.22796,-0.24819,-0.51615,0.16566
-0.11921,0.94711,-0.29793,-0.26547,-0.65155,0.6555
-0.13851,0.92353,-0.35764,-0.23878,-0.6904,0.96995
-0.15606,0.90317,-0.39989,0.21371,-0.93566,0.79453
-0.15155,0.89035,-0.4293,0.40985,-1.1438,0.70957
-0.13069,0.8812,-0.45431,0.30609,-1.03805,0.59655
-0.10197,0.87766,-0.46829,0.58466,-0.62408,0.54169
-0.07556,0.88233,-0.46452,0.51147,-0.46575,0.48933
-0.0586,0.89712,-0.43788,0.06752,-0.30278,0.53065
-0.0642,0.91793,-0.39151,-0.03131,-0.17818,0.36445
-0.08767,0.93539,-0.34258,-0.25292,-0.03652,0.14138
-0.11097,0.94725,-0.30066,-0.55849,0.98331,-0.19107
-0.11196,0.95525,-0.27377,-0.23842,1.16064,-0.60084
-0.10674,0.96233,-0.25005,-0.16892,0.24483,-1.058
-0.09726,0.97173,-0.21512,-0.29429,-0.21402,-0.5964
-0.0909,0.97846,-0.18533,-0.30807,-0.27039,-0.46438
-0.08892,0.97946,-0.18093,-0.31469,0.46626,0.45151
-0.07939,0.98004,-0.18222,-0.23908,0.47784,1.10756
-0.07143,0.98159,-0.17709,0.01043,0.02889,0.77045
-0.06961,0.98738,-0.14219,-1.24176,4.72172,-3.61953
-0.04181,0.98183,-0.18507,0.29331,-0.06614,1.22492
-0.02353,0.96475,-0.26208,0.26507,-1.16556,1.51684
-0.01656,0.95741,-0.28823,0.29203,-1.38078,0.83499
-0.03291,0.9704,-0.23923,0.02593,-0.148,0.62111
-0.05939,0.98099,-0.18472,-0.65389,2.19556,0.01242
-0.06757,0.98264,-0.17277,-0.00365,0.23698,-0.05156
-0.07464,0.98379,-0.16301,-0.1648,0.09447,-0.14848
-0.08786,0.98312,-0.16042,-0.39349,0.03871,-0.51578
-0.09763,0.97938,-0.17683,-0.30518,0.02276,-0.41484
-0.10557,0.97177,-0.21095,-0.1283,-0.09652,-0.36915
-0.11241,0.95804,-0.26365,0.177,-0.24996,-0.39873
-0.11885,0.93849,-0.32419,0.05319,-0.35597,0.26593
-0.13376,0.91321,-0.3849,-0.10603,-0.47362,0.8921
-0.15218,0.8873,-0.43535,0.12657,-0.92632,0.97929
-0.16045,0.86701,-0.47174,0.27239,-1.12174,0.6929
-0.14835,0.85222,-0.5017,0.38216,-1.04483,0.65038
-0.12594,0.84223,-0.52419,0.60769,-0.5001,0.49747
-0.09447,0.84198,-0.53117,0.28177,-0.48359,0.3506
-0.0638,0.85479,-0.51503,0.09522,-0.50389,0.32004
-0.0501,0.87878,-0.47459,0.02095,-0.32632,0.33116
-0.05371,0.90641,-0.41896,-0.33656,0.01787,0.11332
-0.06497,0.93226,-0.35589,-0.37036,0.24857,-0.05474
-0.07528,0.95471,-0.28783,-0.00068,0.75433,-0.42259
-0.08738,0.96695,-0.2395,0.15382,1.07377,-1.03371
-0.08209,0.97472,-0.20779,0.06319,0.55328,-0.9991
-0.0609,0.98208,-0.17832,-0.25378,-0.09172,-0.36551
-0.04009,0.98422,-0.17229,-0.79573,0.26115,0.63128
-0.02469,0.98361,-0.17856,-0.93477,0.39403,0.82828
-0.0283,0.98359,-0.17816,-0.3579,-0.09037,0.29261
-0.03936,0.98303,-0.17911,0.18461,-0.08686,0.64353
-0.05814,0.9857,-0.15811,0.07773,0.95119,0.00585
-0.0602,0.98179,-0.18018,0.02478,0.3005,1.00768
-0.06282,0.96873,-0.24002,0.42524,-0.64475,1.05351
-0.06665,0.96679,-0.2467,-0.24865,-0.27198,0.01886
-0.07469,0.97067,-0.22851,-0.35346,0.93216,-0.31437
-0.07429,0.96836,-0.23823,0.0194,0.55064,-0.26743
-0.07423,0.96622,-0.24678,0.04693,0.02624,-0.06738
-0.0804,0.95804,-0.27511,-0.04522,-0.09468,-0.20183
-0.0913,0.94332,-0.31906,-0.25934,-0.30224,-0.16008
-0.10582,0.92383,-0.36788,-0.24135,-0.58852,0.46709
-0.1248,0.90276,-0.41163,-0.07169,-0.74384,0.87864
-0.13933,0.88724,-0.43975,0.21585,-1.06174,1.0233
-0.13903,0.88058,-0.45304,0.30947,-1.24334,0.78435
-0.1249,0.87507,-0.46759,0.26687,-1.17723,0.73592
-0.09769,0.87466,-0.47478,0.49526,-0.81325,0.57346
-0.06627,0.88476,-0.46131,0.21951,-0.69613,0.46492
-0.03393,0.90425,-0.42566,0.14477,-0.57945,0.34153
-0.01929,0.9278,-0.37258,0.20666,-0.25734,0.11346
-0.02879,0.9479,-0.31726,-0.05652,0.3686,-0.27469
-0.04833,0.95974,-0.2767,-0.28531,1.28932,-0.79663
-0.05151,0.96596,-0.25349,-0.21604,1.21931,-0.62871
-0.04954,0.96959,-0.23964,-0.46185,0.70291,-0.58313
-0.0537,0.97413,-0.21949,-0.31861,0.15862,-0.5886
-0.05464,0.97794,-0.20159,-0.32126,-0.02335,-0.41001
-0.04467,0.97897,-0.19905,-0.40182,0.26031,0.71361
-0.03946,0.97849,-0.20246,-0.2512,-0.00994,0.91005
-0.03952,0.97656,-0.21157,0.11314,-0.26086,0.72765
-0.05942,0.98267,-0.17552,-0.14011,4.82119,-4.56961
-0.03954,0.97471,-0.21993,-0.50228,2.14884,-0.03294
-0.00868,0.9596,-0.28121,0.10897,-0.91447,1.02811
-0.00208,0.95055,-0.31055,0.00254,-0.81975,0.76671
-0.01792,0.95931,-0.28178,-0.38333,0.51333,0.81979
-0.04442,0.97232,-0.22938,-0.07108,0.77585,-0.17808
-0.06661,0.9767,-0.20399,0.15971,0.69789,-0.73427
-0.06807,0.97627,-0.20554,-0.19965,0.44401,-0.53448
-0.0692,0.97309,-0.21977,-0.50752,0.18438,-0.67123
-0.0821,0.96007,-0.26744,-0.43242,-0.05104,-0.5702
-0.10099,0.93705,-0.33427,-0.21651,-0.293,0.12312
-0.12569,0.90686,-0.40225,-0.12228,-0.36262,0.69168
-0.15335,0.87489,-0.45939,-0.01589,-0.38318,1.01463
-0.15279,0.85226,-0.5003,0.48608,-1.07031,0.66624
-0.14123,0.83845,-0.52635,0.48368,-1.20958,0.83901
-0.12855,0.82777,-0.54614,0.38683,-0.99308,0.86436
-0.10464,0.8289,-0.54951,0.47908,-0.84824,0.70549
-0.07543,0.84452,-0.53019,0.25606,-0.34018,0.56881
-0.04737,0.87279,-0.48578,0.0826,-0.23058,0.50399
-0.03466,0.90771,-0.41815,-0.01809,-0.01274,0.3967
-0.04246,0.9394,-0.34018,-0.31585,0.21638,-0.03958
-0.06944,0.96038,-0.26989,-0.45041,0.45849,-0.4439
-0.08121,0.97244,-0.21853,-0.12538,1.41019,-0.35703
-0.07664,0.97719,-0.19805,0.0525,0.65741,-1.17143
-0.05927,0.98276,-0.1751,-0.24369,-0.35195,-0.80427
-0.04074,0.98637,-0.15939,-0.34155,-0.45059,-0.86832
-0.03087,0.98175,-0.1876,-0.79259,-0.11342,1.0498
-0.02298,0.97677,-0.21304,-0.40025,0.24993,1.17344
-0.0263,0.97766,-0.20853,0.36424,-0.04187,0.1246
-0.04321,0.981,-0.18911,0.79825,3.42206,-3.98701
-0.03004,0.97101,-0.23714,-0.05964,-0.32475,1.36078
-0.02688,0.96043,-0.2772,0.09114,-0.61963,1.0375
-0.03749,0.96277,-0.26768,-0.67373,0.23948,0.11862
-0.06644,0.97415,-0.21591,-0.09302,1.44605,-1.26806
-0.08349,0.96665,-0.24208,-0.13172,0.50735,-0.55307
-0.079,0.96309,-0.25731,-0.1519,-0.03682,-0.18491
-0.0919,0.95009,-0.29811,-0.10471,-0.4121,0.08064
-0.12055,0.92824,-0.35189,-0.02628,-0.5788,0.45873
-0.15033,0.9042,-0.39976,0.11165,-0.75072,0.64807
-0.17211,0.88691,-0.42866,0.45516,-1.168,0.68721
-0.16516,0.8805,-0.44434,0.59267,-1.16895,0.50386
-0.16011,0.87344,-0.45986,0.27104,-0.8254,0.51625
-0.16477,0.86378,-0.47617,0.34739,-0.62266,0.43266
-0.1695,0.85775,-0.48532,0.24652,-0.42269,0.42061
-0.1663,0.8598,-0.48279,-0.09201,0.21402,0.58319
-0.16388,0.86395,-0.47615,-0.34329,1.14055,0.35818
-0.16416,0.86837,-0.46795,-0.29682,0.8787,0.23338
-0.16569,0.87481,-0.45524,-0.35509,0.56827,0.13528
-0.17313,0.88456,-0.4331,-0.52604,0.24621,-0.21457
-0.18449,0.89742,-0.40075,-0.50293,0.27383,-0.45281
-0.19647,0.90981,-0.36556,-0.45255,0.27203,-0.51269
-0.20034,0.91998,-0.33688,-0.12859,0.20052,-0.44196
-0.19179,0.92927,-0.3157,-0.04979,0.13326,-0.61977
-0.1832,0.93623,-0.29984,0.08663,0.21186,-0.81539
-0.18228,0.93907,-0.29139,0.14384,0.04083,-0.62929
-0.18598,0.93735,-0.29459,0.27396,-0.31306,-0.31028
-0.19816,0.93082,-0.30707,0.34171,-0.61062,-0.46333
-0.21532,0.92124,-0.32394,0.25136,-0.44294,0.0863
-0.23341,0.90707,-0.35032,-0.69423,0.69431,1.44759
-0.26374,0.89717,-0.35428,0.19507,0.26085,0.48363
-0.26428,0.90435,-0.33512,0.73065,0.57061,0.43529
-0.22511,0.90713,-0.35556,0.1172,2.69168,0.17615
-0.22488,0.90187,-0.36884,0.11431,0.19892,1.32045
-0.25492,0.88726,-0.38441,0.2293,-0.07658,1.00622
-0.26749,0.89063,-0.36772,-0.05792,0.27158,1.03716
-0.25794,0.91135,-0.32077,-0.07634,0.63771,0.46605
-0.25346,0.93055,-0.26423,-0.04192,0.48226,0.22685
-0.25165,0.94254,-0.21974,0.05866,0.22381,0.21452
-0.24551,0.95299,-0.17755,0.15215,-0.10625,0.3668
-0.23679,0.96256,-0.13189,0.1211,-0.20861,0.19632
-0.22808,0.97015,-0.08232,-0.05976,-0.34277,-0.15633
-0.21868,0.97498,-0.03968,-0.03179,-0.40424,-0.15923
-0.21138,0.97738,-0.00493,-0.0278,-0.41948,-0.13954
-0.20902,0.97766,0.02179,-0.0023,-0.4135,-0.09755
-0.20988,0.97674,0.04385,-0.05631,-0.29641,0.05374
-0.21251,0.97492,0.06603,-0.0766,-0.2545,0.04015
-0.21496,0.97203,0.09458,-0.02076,-0.18051,-0.16232
-0.21671,0.96807,0.12596,-0.00116,-0.06225,-0.0347
-0.22267,0.96419,0.14402,0.03056,0.10246,-0.1606
-0.23079,0.96038,0.15619,0.1407,0.23548,-0.13014
-0.2391,0.95633,0.16805,0.22436,0.37763,-0.12709
-0.24751,0.9524,0.17792,0.20931,0.41485,-0.25165
-0.25599,0.9482,0.18809,0.23323,0.42709,-0.30636
-0.26623,0.94323,0.19856,0.56747,0.39849,-0.41087
-0.27848,0.9386,0.20361,0.66374,0.46403,-0.4232
-0.29129,0.93564,0.19927,0.71384,0.52989,-0.20752
-0.30355,0.93466,0.18507,0.76212,0.42813,0.01928
-0.30885,0.93744,0.16064,0.55403,0.59355,0.22406
-0.30533,0.9428,0.13378,-0.07962,0.58972,0.25186
-0.30425,0.9472,0.10111,-0.1393,0.25081,0.08555
-0.30699,0.94981,0.06003,0.16019,0.11074,0.18266
-0.30705,0.9516,0.01279,0.2944,0.1281,0.41471
-0.30027,0.9533,-0.03224,0.26426,0.13273,0.54956
-0.28739,0.95503,-0.07288,0.29357,0.30359,0.60002
-0.27359,0.95562,-0.10919,0.27977,0.303,0.63633
-0.26185,0.95537,-0.13675,0.28939,0.23026,0.42635
-0.25406,0.95331,-0.16326,0.28392,0.05986,0.39953
-0.25125,0.9495,-0.18792,0.30226,0.0095,0.55437
-0.25243,0.94536,-0.20629,0.3311,0.01658,0.62953
-0.25645,0.94248,-0.21438,0.42353,-0.00991,0.68903
-0.26104,0.93956,-0.2215,0.47462,-0.00263,0.63613
-0.26631,0.93767,-0.22326,0.47926,0.01712,0.69873
-0.27207,0.93614,-0.22272,0.47931,-0.00365,0.69553
-0.27942,0.9335,-0.22469,0.51085,0.05342,0.55829
-0.28639,0.93075,-0.22733,0.55841,0.13159,0.39388
-0.29157,0.92934,-0.22652,0.40675,0.12768,0.3396
-0.29523,0.9284,-0.22564,0.35842,0.08981,0.31011
-0.2974,0.92727,-0.2274,0.37229,0.07506,0.25553
-0.29689,0.92631,-0.23194,0.37021,0.09278,0.25193
-0.29451,0.92548,-0.23821,0.32897,0.12422,0.27844
-0.29038,0.92502,-0.24495,0.20344,0.06334,0.28406
-0.28814,0.92369,-0.25254,0.17957,0.04052,0.27663
-0.28723,0.92153,-0.26127,0.18427,-0.04509,0.21393
-0.28405,0.91993,-0.27025,0.17019,-0.18987,0.26735
-0.27636,0.92028,-0.27696,0.15983,-0.20529,0.26689
-0.26736,0.92227,-0.27916,0.11379,-0.21197,0.18384
-0.26032,0.92509,-0.27647,0.1962,-0.19189,0.0569
-0.25753,0.92794,-0.26944,0.24177,-0.15511,0.00643
-0.25602,0.93048,-0.26202,0.51451,-0.01457,-0.30081
-0.24906,0.93375,-0.25705,0.68848,0.13605,-0.55306
-0.23551,0.93884,-0.25122,0.65932,0.22236,-0.62773
-0.2204,0.94396,-0.24567,0.22858,0.33303,-0.55499
-0.21107,0.94578,-0.24687,0.21602,0.00062,-0.41661
-0.20668,0.94642,-0.24811,0.27085,-0.38476,-0.11153
-0.20021,0.9487,-0.24471,0.39327,-0.46133,-0.27115
-0.19156,0.95296,-0.23487,-0.24051,0.06682,0.79916
-0.18917,0.95422,-0.23164,-0.95432,2.8258,-0.76032
-0.20615,0.94125,-0.26746,-0.03735,0.50556,0.96868
-0.22934,0.93102,-0.28388,0.3182,-1.67833,1.45292
-0.22407,0.93426,-0.27737,0.30444,-1.30758,0.4485
-0.20716,0.94305,-0.26027,0.35905,-0.68894,0.78416
-0.18707,0.95385,-0.23488,0.06696,1.13206,0.48824
-0.17943,0.96176,-0.20689,0.14873,0.99278,0.17851
-0.18091,0.96617,-0.1838,0.16794,0.30169,0.26919
-0.19062,0.96726,-0.1675,-0.02259,-0.05134,0.21249
-0.20558,0.96761,-0.14648,-0.1587,-0.12787,0.18011
-0.2231,0.96759,-0.11829,-0.13207,-0.04974,0.07599
-0.23918,0.96747,-0.08237,-0.09909,0.02492,-0.07121
-0.25318,0.96633,-0.04578,0.23726,0.1528,-0.19421
-0.26361,0.96454,-0.01233,0.24769,0.15458,-0.22766
-0.26867,0.96305,0.01831,0.3872,0.04687,-0.21495
-0.26946,0.96184,0.04722,0.21626,0.05598,-0.24856
-0.26921,0.9603,0.07299,0.05952,0.14709,-0.37068
-0.2696,0.95853,0.09225,0.10548,0.16332,-0.40051
-0.27154,0.95706,0.10144,0.14999,0.14202,-0.4019
-0.27395,0.95612,0.10376,0.23498,0.16589,-0.40561
-0.2751,0.95682,0.09374,0.33283,0.14961,-0.48969
-0.27383,0.95918,0.07056,0.22916,0.10882,-0.63198
-0.27237,0.96157,0.03426,0.00357,-0.06457,-0.60402
-0.27871,0.95996,-0.02809,0.06862,-0.34198,-0.31455
-0.29194,0.95082,-0.10339,0.22175,-0.59626,0.23483
-0.30313,0.93771,-0.16972,0.26297,-0.73142,0.85136
-0.30358,0.93002,-0.20709,0.39918,-1.09858,0.8782
-0.29536,0.92899,-0.223,0.44496,-1.3851,0.53931
-0.28957,0.92864,-0.23187,0.45765,-1.37934,0.48094
-0.28451,0.92961,-0.23423,0.48361,-0.95854,0.35251
-0.27623,0.93212,-0.23416,0.77858,-0.9772,0.34779
-0.26921,0.93677,-0.22356,0.75024,-0.95007,0.45221
-0.26474,0.9452,-0.19106,0.49177,-0.80488,0.46799
-0.26811,0.95198,-0.14775,-0.0179,-0.00374,0.20783
-0.2969,0.94983,-0.09825,-1.21698,2.2339,-0.67891
-0.29107,0.95405,-0.0711,0.0164,2.06378,-1.51957
-0.27044,0.95939,-0.08004,-0.15579,0.58515,-1.12133
-0.24583,0.96552,-0.08557,-0.35342,-0.17752,-0.3673
-0.228,0.9697,-0.0876,0.07636,-0.48531,0.28305
-0.22523,0.97005,-0.09089,-0.07456,-0.40999,0.56394
-0.22784,0.96966,-0.0885,-0.29158,0.90452,0.35379
-0.23629,0.96952,-0.06472,0.59256,0.26005,0.39634
-0.2335,0.97183,-0.03179,0.70139,0.33829,0.08016
-0.22247,0.97439,-0.03239,-0.78893,5.14351,-3.75901
-0.21127,0.97353,-0.08712,0.10341,-0.76935,1.2891
-0.19975,0.97019,-0.13715,0.19163,-0.88741,1.04534
-0.19933,0.97104,-0.13163,-0.16894,-0.11446,0.68333
-0.20789,0.97198,-0.10968,0.16882,0.83297,-0.4055
-0.21648,0.97149,-0.09661,0.43766,0.39694,-0.13757
-0.22017,0.97101,-0.093,0.11059,0.1405,-0.25423
-0.22532,0.96898,-0.1014,-0.19882,0.01576,-0.57706
-0.23608,0.96236,-0.13458,-0.19574,-0.07667,-0.57185
-0.24975,0.95096,-0.18243,0.01973,-0.27215,-0.16162
-0.26817,0.93329,-0.23884,0.08852,-0.54956,0.24331
-0.28727,0.91166,-0.29383,0.16671,-0.60365,0.49705
-0.30112,0.895,-0.32907,0.29633,-0.86374,0.84471
-0.30269,0.88975,-0.34163,0.61235,-1.3088,0.58466
-0.29714,0.89,-0.34582,0.55721,-1.222,0.63017
-0.28717,0.89275,-0.34717,0.62669,-1.07541,0.47257
-0.27269,0.90061,-0.33842,0.61559,-0.94027,0.45394
-0.24779,0.9171,-0.31227,0.44674,-0.64998,0.27008
-0.22044,0.939,-0.26397,0.46894,-0.12004,0.25537
-0.21886,0.95553,-0.1976,0.42822,0.29743,0.34629
-0.24209,0.96027,-0.13878,-0.41993,2.12678,-0.55976
-0.24279,0.96481,-0.10088,0.03078,1.12187,-0.78788
-0.22029,0.97203,-0.08131,-0.59059,0.41237,-0.84166
-0.19991,0.97789,-0.06117,-0.81837,0.01507,-0.89644
-0.1874,0.98133,-0.04305,-0.64605,-0.33744,-0.54576
-0.18312,0.98154,-0.05505,-0.74983,-0.07595,0.74022
-0.18598,0.98004,-0.07007,-0.08008,0.15352,0.87704
-0.18992,0.9789,-0.07525,0.46679,0.10844,0.73847
-0.19824,0.97984,-0.02426,0.67963,5.55678,-5.66945
-0.16926,0.98211,-0.08244,0.15577,0.07563,1.95545
-0.13176,0.9772,-0.16647,0.03084,-0.96717,1.91912
-0.10448,0.97219,-0.20956,-0.21932,-1.26555,1.03363
-0.11118,0.97851,-0.17361,-0.46424,0.00579,0.62813
-0.14048,0.9846,-0.10402,-0.45793,1.39338,0.43158
-0.16521,0.98512,-0.04721,0.37141,0.63581,-0.99214
-0.18209,0.98189,-0.05209,0.17472,0.59432,-0.73575
-0.18917,0.9802,-0.05831,-0.31916,0.14104,-0.76153
-0.20481,0.97478,-0.0885,-0.16361,-0.07424,-0.68384
-0.23116,0.96214,-0.14435,-0.0928,-0.12437,-0.73513
-0.2561,0.94222,-0.21592,0.00316,-0.38877,0.21965
-0.27617,0.91684,-0.2883,0.49065,-0.37751,0.90907
-0.27806,0.8943,-0.35058,0.27745,-0.66418,0.41334
-0.27957,0.87548,-0.39416,0.38873,-0.98087,0.68135
-0.27615,0.86087,-0.42735,0.4096,-1.05461,0.76721
-0.26493,0.84993,-0.45545,0.70197,-0.74134,0.66945
-0.24218,0.84798,-0.47145,0.75101,-0.54292,0.55461
-0.20601,0.86023,-0.46643,0.38747,-0.19568,0.34359
-0.17031,0.88401,-0.43532,0.23974,-0.10185,0.33168
-0.1459,0.9129,-0.3812,0.00178,-0.09274,0.28968
-0.13656,0.93908,-0.31539,-0.48222,-0.06515,-0.1602
-0.14607,0.96001,-0.23881,-0.55412,0.11125,-0.37418
-0.15723,0.97385,-0.16394,-0.10444,1.06176,-0.79686
-0.16671,0.97661,-0.13572,0.15287,0.81005,-1.38418
-0.16483,0.98031,-0.10867,0.09199,-0.09539,-0.83765
-0.15407,0.98458,-0.08277,-0.1196,-0.27016,-0.59188
-0.13868,0.98698,-0.08143,-0.07154,-0.26075,1.113
-0.12362,0.98743,-0.09842,-0.15438,0.27339,0.77733
-0.11991,0.98786,-0.09871,0.22454,0.1008,0.39512
-0.13632,0.99009,-0.03355,0.02678,6.19152,-7.22587
-0.11772,0.98907,-0.08869,0.31633,-0.89634,2.03498
-0.09326,0.979,-0.18123,0.29812,-1.10692,1.35388
-0.08872,0.97516,-0.20292,-0.03581,-0.59468,0.66624
-0.10766,0.98438,-0.13928,-0.53471,1.28421,0.8709
-0.12065,0.99017,-0.07058,-0.60935,1.5555,0.41059
-0.12842,0.99054,-0.04821,0.18029,0.55005,-0.51342
-0.13275,0.98963,-0.05468,-0.11637,0.3951,-0.52687
-0.13813,0.98778,-0.07202,-0.48625,0.29896,-0.76374
-0.1549,0.9803,-0.12252,-0.10616,-0.10108,-0.62071
-0.17559,0.96609,-0.18929,0.02271,-0.30828,-0.0411
-0.19389,0.94661,-0.25753,0.11808,-0.34888,0.43682
-0.21019,0.92594,-0.31376,0.19699,-0.39683,0.69175
-0.20872,0.91138,-0.3547,0.5196,-0.86739,0.77634
-0.19859,0.901,-0.38567,0.62799,-1.2925,0.76243
-0.1956,0.89024,-0.41134,0.4258,-1.27957,0.68916
-0.18587,0.8849,-0.42707,0.56821,-0.96397,0.58352
-0.17252,0.88835,-0.42551,0.66419,-0.85793,0.53244
-0.15529,0.90253,-0.40164,0.32668,-0.72227,0.28281
-0.14184,0.92524,-0.35185,0.10394,-0.27837,0.25476
-0.14501,0.94823,-0.28253,-0.22009,0.02228,0.16332
-0.16101,0.96504,-0.20676,-0.58958,0.49385,-0.13142
-0.16292,0.9764,-0.14175,-0.3819,1.82762,-0.44861
-0.15423,0.98106,-0.11713,0.15007,1.49177,-0.94845
-0.14006,0.98552,-0.09547,0.10647,-0.14249,-1.24471
-0.12211,0.99002,-0.07024,-0.55367,-0.42113,-1.04629
-0.11714,0.98988,-0.07995,-0.85196,0.24766,0.90454
-0.1196,0.98861,-0.09127,0.07102,0.26992,0.90049
-0.12292,0.9883,-0.09018,0.49698,0.00417,0.90808
-0.13629,0.98866,-0.06294,0.74877,5.85067,-6.39707
-0.12313,0.98537,-0.11773,0.0904,-0.25886,2.1367
-0.11876,0.97682,-0.17803,0.15523,-0.81751,1.02094
-0.12842,0.97653,-0.17286,-0.10102,-0.18526,0.82801
-0.14201,0.98503,-0.09758,-0.33513,1.25903,0.22084
-0.1465,0.9871,-0.06449,0.37977,1.05404,-1.5857
-0.14301,0.98657,-0.07878,-0.23313,0.45714,-0.51007
-0.14843,0.9844,-0.09436,-0.36295,-0.23343,-0.35177
-0.16762,0.97598,-0.13915,-0.10159,-0.34396,-0.37358
-0.18931,0.96292,-0.19216,0.13329,-0.48146,0.05447
-0.21376,0.94898,-0.23179,0.39116,-0.78153,0.92762
-0.22794,0.94017,-0.2532,0.49481,-1.01018,0.85745
-0.22317,0.93618,-0.27158,0.55735,-1.45818,0.36373
-0.21421,0.93564,-0.2805,0.60825,-0.95238,0.42668
-0.20374,0.93726,-0.28288,0.49279,-0.93016,0.36042
-0.19678,0.94087,-0.27574,0.4673,-1.04238,0.28148
-0.19043,0.94826,-0.254,0.29279,-1.09641,0.25679
-0.186,0.95851,-0.216,0.07354,-0.83515,0.16952
-0.18674,0.96717,-0.17229,-0.05523,-0.62358,0.08698
-0.20943,0.96884,-0.13217,-0.71878,1.77563,-0.33101
-0.23495,0.96588,-0.10889,-1.10206,3.33807,-0.83617
-0.2373,0.96704,-0.09225,0.34682,0.60991,-0.98849
-0.22612,0.96998,-0.08944,0.13135,-0.08551,-1.08135
-0.21186,0.97219,-0.09976,-0.51616,-0.05234,-0.35498
-0.20282,0.97094,-0.12698,-1.21151,0.74191,0.74182
-0.20881,0.96686,-0.14687,0.18104,0.14154,0.97855
-0.21378,0.96229,-0.16816,0.64429,0.38015,0.79623
-0.22556,0.96548,-0.13023,1.26621,2.41592,-2.18135
-0.22892,0.95915,-0.16618,0.03545,0.95212,0.94859
-0.22794,0.95121,-0.20789,-0.11138,-0.01501,0.30562
-0.23323,0.95081,-0.20382,-0.01341,0.25907,0.71827
-0.24024,0.95582,-0.16936,0.05662,0.55216,0.45635
-0.24758,0.96303,-0.10609,-0.00201,0.37651,0.22018
-0.25231,0.9671,-0.03209,0.05479,-0.01239,-0.05382
-0.25382,0.96686,0.02706,0.04338,-0.23488,-0.14398
-0.25663,0.96408,0.06841,0.02206,-0.25524,-0.12951
-0.26371,0.95928,0.10111,0.02322,-0.28212,-0.18019
-0.27449,0.95272,0.1302,0.10301,-0.41462,-0.18394
-0.29108,0.94322,0.15998,0.25912,-0.59684,-0.24015
-0.31115,0.93154,0.18816,0.34798,-0.58071,-0.33602
-0.32881,0.91936,0.21596,0.49615,-0.44031,-0.45208
-0.34558,0.90842,0.23522,0.14803,-0.04607,-0.84803
-0.36657,0.89844,0.24169,0.05013,0.03174,-0.84081
-0.39721,0.8885,0.22971,0.12429,0.11275,-0.67454
-0.42118,0.8826,0.20882,0.85233,0.22224,-0.28257
-0.43367,0.87933,0.1967,1.03244,-0.00735,-0.75813
-0.44876,0.87699,0.1717,0.65933,-0.23802,-0.77114
-0.46178,0.87698,0.13285,0.39467,0.31214,0.02241
-0.46315,0.8818,0.08896,0.26986,0.25317,0.26505
-0.44917,0.89213,0.0483,0.69724,1.4212,0.45315
-0.41438,0.91009,-0.0007,0.94015,2.11354,0.57599
-0.37745,0.92455,-0.05216,0.70089,2.47119,0.70341
-0.33919,0.93615,-0.09246,-0.32264,0.78273,0.04894
-0.30337,0.94413,-0.12872,-0.19584,0.6737,-0.05963
-0.26887,0.94948,-0.1618,0.15118,0.77913,0.28538
-0.23114,0.95646,-0.17818,0.34174,1.04382,0.65731
-0.20338,0.96428,-0.16967,0.29033,0.49878,0.83521
-0.18706,0.968,-0.16727,0.23073,0.2391,0.9364
-0.1844,0.96722,-0.17454,-0.0377,-0.30684,0.878
-0.19071,0.96545,-0.17757,-0.08172,-0.46368,0.8181
-0.20185,0.96419,-0.17198,-0.05905,-0.7081,0.8305
-0.20909,0.96532,-0.15625,-0.31998,-0.80528,0.63974
-0.2139,0.96762,-0.13392,-0.33938,-0.81458,0.56283
-0.21665,0.97038,-0.10684,-0.21058,-0.65386,0.4704
-0.21566,0.97324,-0.07927,-0.37648,-0.27622,0.03256
-0.21554,0.97395,-0.07037,-0.5678,0.03727,-0.39356
-0.22444,0.96919,-0.10137,-0.57651,0.46146,-1.11053
-0.23332,0.96142,-0.14564,-0.0406,-0.02488,-0.47507
-0.22894,0.9561,-0.18289,0.46764,-0.41595,0.11618
-0.20363,0.95503,-0.2155,0.88444,-0.29765,-0.02443
-0.16104,0.95547,-0.24723,1.17813,-0.15233,-0.46134
-0.13087,0.95754,-0.25687,0.93674,-0.36954,-0.36861
-0.1085,0.96241,-0.24897,0.60734,-0.31714,-0.5779
-0.07901,0.96715,-0.24158,0.06801,0.91049,0.30165
-0.08145,0.96012,-0.26744,-1.21139,4.38746,-0.9086
-0.082,0.95068,-0.29912,-0.60858,-1.03195,1.674
-0.07104,0.95639,-0.28331,-0.64632,-2.05066,0.5277
-0.06622,0.96291,-0.26154,-0.0129,-1.03335,1.02168
-0.08223,0.96706,-0.24087,-0.14729,0.21438,0.93485
-0.1286,0.96721,-0.21899,-0.43503,1.32799,0.34276
-0.18533,0.96222,-0.19945,0.62712,1.42186,0.27635
-0.20616,0.96332,-0.17173,0.87938,0.54441,0.17873
-0.18877,0.97025,-0.15155,0.22265,0.07449,0.12218
-0.16438,0.97822,-0.12668,0.07671,-0.16331,0.19031
-0.1441,0.98508,-0.09398,0.04006,-0.22223,0.19407
-0.12673,0.99036,-0.05583,-0.05763,-0.11885,0.05954
-0.11039,0.9938,-0.01215,-0.18029,-0.18495,0.03086
-0.09787,0.99455,0.03553,-0.29542,-0.22995,-0.11115
-0.09051,0.99312,0.0742,-0.3337,-0.27206,-0.22885
-0.08483,0.99041,0.10897,-0.05757,-0.15826,-0.10831
-0.08097,0.9867,0.14087,0.10146,0.04795,-0.08407
-0.07775,0.98264,0.1684,0.13319,0.03976,-0.13936
-0.07548,0.97817,0.19354,0.08336,-0.01371,-0.20468
-0.07508,0.97287,0.21876,0.06557,-0.03229,-0.22104
-0.07933,0.96717,0.24137,-0.0214,-0.02664,-0.0808
-0.08853,0.96229,0.25716,-0.05877,0.09662,-0.02408
-0.09774,0.95821,0.26879,0.03361,0.12093,-0.10616
-0.10317,0.95385,0.28197,0.08329,0.22271,-0.34089
-0.10202,0.94884,0.29877,0.03816,0.22878,-0.4782
-0.098,0.94435,0.31397,0.00999,0.18735,-0.60305
-0.10436,0.94285,0.3164,0.12948,0.27451,-0.46203
-0.11414,0.94409,0.30926,0.22984,0.29758,-0.37942
-0.11849,0.94667,0.2996,0.4246,0.36782,-0.33045
-0.12005,0.95122,0.28415,0.58523,0.3977,-0.50049
-0.12312,0.9592,0.25445,0.70599,0.50997,-0.33685
-0.1251,0.97091,0.20409,0.71003,0.56743,-0.2049
-0.11945,0.98267,0.14167,0.20343,0.2803,0.07142
-0.11186,0.9907,0.07728,-0.00299,0.12358,0.23501
-0.10528,0.99429,0.01664,-0.03625,0.23752,0.33783
-0.09638,0.99439,-0.04336,-0.08061,0.41662,0.59924
-0.08102,0.9922,-0.09462,0.03036,0.42067,0.60163
-0.06284,0.9883,-0.13894,0.11222,0.36127,0.54043
-0.04931,0.98331,-0.17506,0.07318,0.24802,0.5173
-0.04236,0.97778,-0.20528,-0.00271,0.21303,0.34274
-0.03806,0.96986,-0.24064,0.13697,0.24269,0.36565
-0.03337,0.95901,-0.28136,0.20963,0.10462,0.58594
-0.03054,0.94581,-0.32327,0.04874,0.0046,0.54842
-0.03642,0.93089,-0.36347,-0.15985,-0.12942,0.62229
-0.04813,0.91603,-0.39819,-0.21024,-0.16931,0.62253
-0.06231,0.90268,-0.42576,-0.24085,-0.21253,0.62382
-0.07517,0.89179,-0.44615,-0.25027,-0.24212,0.59335
-0.08476,0.88512,-0.45757,-0.24903,-0.34819,0.49823
-0.08881,0.88381,-0.45932,-0.18192,-0.46736,0.49637
-0.0885,0.8881,-0.45103,-0.17972,-0.52398,0.46736
-0.08631,0.89822,-0.43097,-0.16641,-0.60449,0.3819
-0.08743,0.91282,-0.39888,-0.02343,-0.57131,0.28427
-0.0957,0.92856,-0.35861,0.05467,-0.46042,0.18853
-0.11082,0.94143,-0.31846,-0.07368,-0.31881,0.10758
-0.12734,0.95007,-0.28485,-0.13039,-0.26368,0.1122
-0.14228,0.95478,-0.26105,-0.02151,-0.07913,0.07498
-0.15201,0.95683,-0.24772,0.04973,0.01893,-0.01546
-0.15671,0.95832,-0.23883,0.16492,0.00507,-0.14315
-0.1563,0.96224,-0.22282,0.27368,-7e-05,-0.35938
-0.1448,0.9682,-0.20399,0.24262,0.03606,-0.3348
-0.11984,0.97469,-0.18871,0.06,0.00832,-0.18281
-0.09183,0.98017,-0.17553,-0.01443,-0.06871,-0.21894
-0.07118,0.98373,-0.16492,-0.07188,-0.17213,-0.20988
-0.05843,0.98564,-0.15841,-0.0831,-0.45991,0.23127
-0.04784,0.9855,-0.16273,-0.1734,-0.53084,0.82385
-0.04287,0.98469,-0.16895,-0.55802,0.12756,0.47087
-0.05108,0.983,-0.17635,-0.21464,0.33681,0.37596
-0.06976,0.98168,-0.17729,-0.12601,1.5769,-0.60418
-0.10126,0.98824,-0.11451,0.51959,2.31674,-3.01653
-0.0881,0.98034,-0.1765,0.34466,-0.45191,1.07236
-0.05371,0.97192,-0.22909,0.46462,-0.38242,0.43372
-0.03945,0.97108,-0.23545,0.07395,0.55694,0.7537
-0.05001,0.97554,-0.21402,-0.07276,0.61081,0.57967
-0.06366,0.98196,-0.178,-0.12172,0.32315,0.10118
-0.07835,0.98659,-0.14315,-0.2314,0.34905,-0.4782
-0.09406,0.98541,-0.14178,-0.48987,0.51792,-0.94591
-0.0924,0.98111,-0.16991,-0.33326,0.08064,-0.42335
-0.08734,0.97387,-0.20959,-0.21988,-0.27299,-0.22298
-0.09601,0.95778,-0.27096,0.06479,-0.53658,0.58254
-0.11691,0.93748,-0.32779,0.13847,-0.63598,0.78072
-0.13733,0.91985,-0.36744,0.08186,-0.93459,0.85903
-0.14258,0.91085,-0.38731,0.23502,-1.13595,0.80788
-0.13091,0.90534,-0.40399,0.42091,-1.33137,0.71957
-0.1076,0.90802,-0.40486,0.64588,-0.97951,0.64823
-0.08647,0.91741,-0.38842,0.52898,-0.86086,0.69689
-0.06305,0.93332,-0.35344,0.41933,-0.80726,0.5902
-0.04733,0.9498,-0.30924,-0.09399,-0.56882,0.3926
-0.05047,0.9618,-0.26905,-0.47001,0.119,-0.12023
-0.06429,0.97003,-0.23428,-1.09151,1.98225,-0.74527
-0.07668,0.9721,-0.22164,-0.165,1.01977,-0.9055
-0.09159,0.97015,-0.2245,-0.13352,0.25502,-0.50768
-0.09563,0.97027,-0.22227,-0.07154,0.00748,-0.0616
-0.08443,0.97118,-0.22287,-0.14317,0.12865,0.23223
-0.06091,0.97069,-0.23247,-0.17466,0.36003,0.76109
-0.03867,0.97082,-0.23663,-0.02652,0.36887,0.64922
-0.02471,0.97591,-0.21671,0.17094,0.12606,-0.05764
-0.01527,0.97558,-0.21909,-0.2167,4.09223,-3.31731
0.00961,0.96411,-0.2653,0.135,0.02535,1.5012
0.02149,0.95094,-0.3086,0.19897,-0.49724,0.75889
0.01231,0.9536,-0.30079,-0.22123,-0.13967,0.81124
0.00045,0.96738,-0.2533,-0.4328,0.71327,0.55973
-0.02083,0.97863,-0.20454,0.05493,0.67115,-0.35007
-0.03751,0.98135,-0.18849,0.06964,0.66396,-0.58532
-0.03684,0.9809,-0.19095,-0.41518,0.61805,-0.73442
-0.03619,0.97661,-0.21193,-0.70658,0.1481,-0.61335
-0.04849,0.9645,-0.25958,-0.33772,-0.20807,-0.30428
-0.06135,0.94507,-0.32105,-0.34093,-0.45892,0.24135
-0.06981,0.92408,-0.37575,-0.19214,-0.60778,0.57526
-0.08551,0.90347,-0.42003,0.12946,-0.59878,1.0518
-0.08515,0.88426,-0.45916,0.46137,-1.02751,0.68901
-0.07539,0.86928,-0.48854,0.67871,-1.05734,0.81677
-0.06817,0.85817,-0.50881,0.54932,-1.0568,0.88767
-0.05562,0.85376,-0.51767,0.47903,-0.90355,0.72127
-0.03542,0.86139,-0.50669,0.20894,-0.55942,0.50061
-0.01829,0.88097,-0.47281,0.25799,-0.2271,0.51355
-0.01628,0.90965,-0.41504,0.28934,-0.16475,0.51698
-0.02592,0.93713,-0.34801,-0.44522,0.10921,0.39735
-0.0378,0.96012,-0.27698,-0.87922,0.68889,-0.44598
-0.03797,0.97167,-0.23323,-0.34431,1.56467,-0.7858
-0.02256,0.97425,-0.22432,-0.05416,0.17602,-1.07323
-0.00244,0.97635,-0.21613,-0.29929,-0.39953,-0.51472
0.00917,0.97433,-0.22492,-0.40874,-0.54578,-0.22193
0.0232,0.96874,-0.24697,-0.25249,-0.11235,1.28105
0.027,0.96693,-0.25356,0.02013,0.16869,1.23449
0.0201,0.97581,-0.21766,0.68863,0.39312,0.23087
0.04656,0.97862,-0.20029,0.02584,4.2179,-1.19678
0.0809,0.96504,-0.24926,-0.46634,-0.85814,1.60781
0.08898,0.94837,-0.3044,-0.31084,-1.11498,1.22527
0.06284,0.95162,-0.30076,-0.58606,-0.24567,0.60822
0.031,0.967,-0.25285,-0.55287,0.81828,-0.28353
0.01176,0.96831,-0.24946,-0.21922,1.47757,-1.26945
0.01514,0.96942,-0.24491,-0.22785,0.4798,-0.27982
0.00898,0.9668,-0.25535,-0.34464,0.19633,-0.40465
-0.01566,0.95404,-0.29926,-0.2651,-0.36583,-0.33222
-0.04045,0.93458,-0.35343,0.01046,-0.39485,0.23876
-0.06495,0.91245,-0.40399,0.10941,-0.33974,0.77571
-0.08427,0.89088,-0.44633,0.237,-0.54134,0.87665
-0.08083,0.87519,-0.47697,0.27694,-0.88895,0.82617
-0.07774,0.86415,-0.49719,0.12594,-1.2156,0.8121
-0.07241,0.85492,-0.51367,0.2779,-0.9287,0.81632
-0.05272,0.85278,-0.51959,0.37685,-0.72044,0.61891
-0.02846,0.86139,-0.50714,0.12692,-0.66534,0.44978
-0.0034,0.88371,-0.468,0.00344,-0.66478,0.36407
0.00631,0.91631,-0.40041,0.1129,-0.24829,0.3033
-0.00609,0.94887,-0.31559,0.07196,0.19601,-0.01617
-0.041,0.96948,-0.2417,-0.08478,0.58216,-0.26584
-0.05143,0.97779,-0.20313,0.18977,1.08446,-0.67915
-0.04123,0.98194,-0.18458,-0.14695,0.50872,-0.74628
-0.01979,0.98483,-0.17233,-0.64647,-0.05508,-0.70402
-0.00717,0.98691,-0.16104,-0.66931,-0.22071,-1.01931
-0.00227,0.98535,-0.17046,-0.44687,0.06018,0.40404
0.00827,0.98229,-0.18714,-0.02444,0.32493,1.413
0.00498,0.979,-0.20376,0.23292,0.40841,0.92923
-0.00827,0.98204,-0.18844,-0.1156,5.07763,-4.41614
0.01475,0.96762,-0.25194,0.43197,0.82547,0.98344
0.0281,0.95205,-0.30462,0.20443,-0.98336,1.12429
0.02669,0.95877,-0.2829,-0.6136,0.68715,0.73735
0.00823,0.975,-0.222,-0.53019,1.3469,0.34552
-0.01611,0.97865,-0.20487,-0.04231,1.32314,-0.37529
-0.02767,0.97561,-0.21774,-0.49383,0.12629,-0.37108
-0.038,0.97195,-0.23207,-0.54584,0.03794,-0.37542
-0.06015,0.96032,-0.27232,-0.53364,-0.033,-0.45932
-0.08373,0.94212,-0.32462,-0.01944,-0.53662,0.39058
-0.10852,0.92022,-0.37604,0.07366,-0.65603,0.74062
-0.1308,0.90075,-0.41417,0.23947,-1.01635,0.86748
-0.13305,0.8901,-0.43589,0.2677,-1.16053,0.70628
-0.12104,0.88715,-0.44531,0.26433,-1.08254,0.56893
-0.10674,0.88401,-0.45511,0.40856,-0.95267,0.61409
-0.08679,0.88584,-0.4558,0.51587,-0.92572,0.57647
-0.0581,0.89729,-0.4376,0.51695,-0.77311,0.46483
-0.03175,0.91717,-0.39722,0.27111,0.01342,0.27928
-0.02837,0.94197,-0.33448,0.12279,0.2999,0.36088
-0.03979,0.96114,-0.27317,0.13421,0.28073,0.29957
-0.05446,0.97115,-0.23215,-0.6525,1.83084,-0.53924
-0.04834,0.97566,-0.21385,0.1762,0.80682,-1.44413
-0.02103,0.98026,-0.19657,-0.00868,-0.00218,-1.34597
0.0158,0.98474,-0.17328,-0.34917,-0.49507,-0.61743
0.03589,0.98407,-0.17406,-0.53012,-0.69976,0.6868
0.03192,0.98101,-0.19127,-0.45752,-0.07552,1.12648
0.01157,0.97799,-0.20829,0.11218,0.08649,0.89654
0.00142,0.97801,-0.20854,0.3761,0.41152,0.79925
-0.0096,0.98954,-0.14388,-1.15471,5.42721,-5.06358
0.02613,0.98291,-0.1822,-0.19141,-0.73246,1.32882
0.03541,0.97105,-0.23623,0.21981,-1.00756,0.48156
0.0181,0.97169,-0.23552,0.1427,0.73822,0.48007
-0.02324,0.98079,-0.19364,-0.03518,1.77603,-0.78692
-0.03657,0.98063,-0.19239,0.18226,1.30885,-1.17086
-0.02987,0.97761,-0.20827,-0.43518,-0.17509,-0.23946
-0.03179,0.97121,-0.23605,-0.29886,-0.48984,-0.13429
-0.04945,0.95684,-0.28637,-0.02374,-0.64551,0.2941
-0.068,0.93873,-0.33785,0.14863,-0.8038,0.65093
-0.08171,0.92337,-0.3751,0.44982,-0.86525,0.72164
-0.08646,0.90968,-0.40621,0.53925,-1.00021,0.76162
-0.08881,0.89228,-0.44265,0.40743,-0.89117,0.66299
-0.09913,0.87282,-0.47785,-0.02407,-0.71654,0.43765
-0.11139,0.8578,-0.50177,0.23028,-0.75373,0.49905
-0.1116,0.8506,-0.51382,0.28885,-0.50369,0.51849
-0.10139,0.85377,-0.51067,0.04095,-0.0251,0.55145
-0.09073,0.86392,-0.49538,-0.12581,0.49403,0.49261
-0.08585,0.87842,-0.4701,-0.27591,0.74023,0.37391
-0.09484,0.89275,-0.44044,-0.37092,0.66251,0.25962
-0.12028,0.90986,-0.39707,-0.65332,0.33188,-0.46513
-0.15143,0.92903,-0.33759,-0.77861,0.47396,-0.50555
-0.16648,0.9428,-0.2888,-0.36852,0.69017,-0.77636
-0.1726,0.94576,-0.27519,-0.34642,1.01011,-1.5699
-0.16997,0.94013,-0.29538,-0.3401,0.85239,-1.20331
-0.15134,0.93861,-0.31,-0.16929,0.49824,-0.69468
-0.13355,0.93784,-0.32031,0.46853,-0.79847,-0.04764
-0.12649,0.93734,-0.32463,0.40269,-0.8586,-0.05208
-0.12837,0.93701,-0.32484,0.38966,-0.82321,-0.08181
-0.14605,0.93092,-0.33472,-0.3845,0.65561,1.07328
-0.17877,0.92114,-0.34573,0.13071,0.46821,0.88409
-0.19436,0.91739,-0.34727,0.46537,0.1316,0.71484
-0.18392,0.92295,-0.33812,0.44496,0.32435,1.00166
-0.17203,0.92982,-0.32532,-0.25919,2.15664,-0.01449
-0.17328,0.9377,-0.30113,-0.49465,1.1667,0.2061
-0.19141,0.93323,-0.30401,-0.13122,0.25056,0.63357
-0.19981,0.93611,-0.28939,0.21496,0.43663,0.6644
-0.18709,0.94734,-0.25985,0.06203,0.50906,0.29862
-0.17043,0.9595,-0.22428,0.04004,0.16204,0.22754
-0.16075,0.96924,-0.18632,0.03846,0.01013,0.3016
-0.15288,0.97722,-0.14717,0.15555,-0.25661,0.37568
-0.14316,0.98454,-0.10082,0.14836,-0.3129,0.30415
-0.13174,0.99018,-0.04656,0.03811,-0.41042,0.05277
-0.12129,0.99256,0.0101,-0.13295,-0.49517,-0.12665
-0.11253,0.99169,0.06226,-0.18479,-0.498,-0.18837
-0.10624,0.98855,0.1071,-0.15402,-0.43705,-0.21569
-0.10426,0.98453,0.14072,-0.12469,-0.36533,0.02721
-0.10555,0.97995,0.16894,-0.06574,-0.25828,0.01502
-0.10791,0.97389,0.1997,0.03304,0.11712,-0.12892
-0.10893,0.96596,0.2346,0.02435,0.20572,-0.31232
-0.1088,0.95848,0.26353,0.26693,0.20387,-0.35065
-0.11265,0.9549,0.27468,0.29646,0.39904,-0.31063
-0.11946,0.95259,0.27978,0.23614,0.46628,-0.35209
-0.12644,0.94894,0.28896,0.3537,0.35153,-0.4087
-0.13544,0.94364,0.30195,0.58714,0.29075,-0.40358
-0.15057,0.9393,0.30824,0.71776,0.39761,-0.12471
-0.16122,0.93915,0.30329,0.84702,0.46001,0.11868
-0.15997,0.94196,0.29511,0.70945,0.44645,0.37133
-0.14879,0.94812,0.28089,0.137,0.41981,0.43717
-0.14082,0.95538,0.25962,-0.35576,0.26571,0.10541
-0.14386,0.96397,0.2237,-0.04719,0.2499,-0.05688
-0.14971,0.97299,0.17566,0.19199,0.13809,0.12753
-0.15313,0.98064,0.12199,0.22259,0.04864,0.35259
-0.15432,0.98557,0.06946,0.19244,0.04556,0.4615
-0.15555,0.98764,0.01862,0.32207,0.22081,0.68874
-0.15991,0.98665,-0.0306,0.37291,0.30194,0.44483
-0.16913,0.98274,-0.0749,0.38934,0.24656,0.45018
-0.18153,0.97642,-0.11673,0.44734,0.09337,0.42747
-0.19318,0.96914,-0.15309,0.50261,-0.02335,0.39645
-0.20182,0.96291,-0.17907,0.53121,-0.03133,0.40325
-0.2075,0.95741,-0.20075,0.54963,-0.02668,0.41776
-0.2109,0.95315,-0.21685,0.55582,-0.02649,0.5213
-0.21563,0.94979,-0.22669,0.54607,-0.01492,0.51545
-0.22306,0.94606,-0.23495,0.51043,0.00696,0.49943
-0.23087,0.94188,-0.24404,0.24138,0.21059,0.34568
-0.23539,0.9373,-0.25701,0.22526,0.20576,0.26338
-0.23713,0.93172,-0.27505,0.23951,0.1986,0.1786
-0.23819,0.92572,-0.29375,0.45392,0.08528,0.30939
-0.23837,0.9195,-0.31255,0.50123,0.0427,0.35195
-0.23447,0.91448,-0.32976,0.52756,-0.03287,0.31813
-0.22776,0.91051,-0.34508,0.53816,-0.06913,0.29883
-0.22044,0.90725,-0.35817,0.52719,-0.09164,0.29921
-0.21196,0.90541,-0.36783,0.4612,-0.16488,0.28445
-0.20204,0.90582,-0.37237,0.3482,-0.2243,0.31349
-0.19216,0.90843,-0.37124,0.26179,-0.24119,0.29958
-0.18276,0.91267,-0.36554,0.25133,-0.18051,0.26038
-0.17445,0.91769,-0.35694,0.16435,0.02044,0.11391
-0.1687,0.92287,-0.34618,0.10021,0.08391,0.04111
-0.16805,0.92758,-0.33367,-0.00091,0.08523,-0.06882
-0.1717,0.93135,-0.32109,0.16507,0.02596,-0.13065
-0.17606,0.93417,-0.31036,0.41098,0.05468,-0.30454
-0.17888,0.93625,-0.30238,0.66984,0.20305,-0.49227
-0.17574,0.93896,-0.29573,0.76924,0.2961,-0.27822
-0.16979,0.9417,-0.29044,0.56874,0.09515,-0.10342
-0.17296,0.94138,-0.2896,0.41365,-0.1953,-0.10899
-0.18263,0.94115,-0.28438,0.23892,-0.40297,0.02434
-0.18893,0.94359,-0.2719,0.26648,-0.42316,-0.08015
-0.18175,0.94909,-0.25727,0.08131,-0.03527,0.51976
-0.16509,0.95511,-0.24595,-1.44005,1.8517,-0.34627
-0.17404,0.94958,-0.26075,-1.29334,2.51979,-0.56634
-0.18928,0.94134,-0.27934,0.2087,-0.92017,1.48541
-0.1967,0.93979,-0.27945,0.42764,-1.37909,1.27779
-0.19873,0.942,-0.27044,0.3591,-0.38766,0.81343
-0.20396,0.94531,-0.2545,-0.05429,0.50084,0.78285
-0.2152,0.95035,-0.22475,0.05466,0.79585,0.29777
-0.2313,0.95521,-0.18456,0.50597,0.7035,-0.1534
-0.24131,0.95645,-0.16421,0.27696,0.30107,0.23451
-0.24464,0.95781,-0.15079,-0.04598,-0.05719,0.18961
-0.24963,0.96057,-0.12232,0.00114,-0.11843,0.11787
-0.26034,0.96156,-0.08723,0.20935,-0.0337,0.04034
-0.27065,0.9611,-0.05485,0.35293,0.17638,-0.20153
-0.27495,0.96106,-0.02731,0.31271,0.17434,-0.28272
-0.27263,0.9621,-0.00435,0.23399,0.18745,-0.31356
-0.26752,0.96347,0.0115,0.0846,0.32406,-0.64704
-0.26347,0.96449,0.01802,0.08054,0.32305,-0.65356
-0.26058,0.96544,-0.00367,0.0283,0.34957,-0.68038
-0.25617,0.96571,-0.04198,-0.07516,0.06546,-0.76524
-0.25373,0.96101,-0.10979,-0.07759,0.07016,-0.69743
-0.24906,0.95016,-0.18748,0.09776,-0.4581,0.53631
-0.2361,0.93923,-0.24917,0.38953,-1.01858,0.82144
-0.22429,0.93329,-0.28045,0.37772,-1.01263,0.85272
-0.20585,0.93603,-0.28541,0.45149,-1.70818,0.84477
-0.18553,0.94018,-0.28571,0.50088,-1.61192,0.62661
-0.17098,0.94684,-0.27248,0.76522,-1.19245,0.49486
-0.16345,0.95313,-0.25457,0.46635,-1.06622,0.49603
-0.16593,0.95772,-0.235,0.14617,-1.16205,0.45161
-0.17716,0.96094,-0.21261,-0.1168,-0.8768,0.15907
-0.19238,0.96445,-0.18114,0.0217,-0.65131,-0.19639
-0.23763,0.96051,-0.14469,-0.11318,2.72127,0.05518
-0.26158,0.9565,-0.12907,-0.31891,2.29885,-0.98011
-0.25135,0.96089,-0.11621,-0.404,1.10132,-0.41362
-0.23147,0.96733,-0.10332,-0.46936,0.34637,-0.66333
-0.21391,0.97196,-0.09759,-0.19362,-0.12506,-0.57052
-0.19403,0.97628,-0.09603,-0.32014,-0.25858,-0.22383
-0.17716,0.98005,-0.08996,-0.45063,-0.0581,-0.39672
-0.1742,0.98145,-0.0799,-0.17591,0.47539,0.4353
-0.19018,0.97717,-0.09461,0.54826,-0.12727,0.95276
-0.20551,0.97181,-0.11552,0.58595,-0.24131,0.79632
-0.19868,0.97331,-0.11477,0.20342,3.14949,-2.97627
-0.18248,0.97969,-0.08305,0.1997,0.4397,0.63651
-0.15175,0.97733,-0.14757,0.04123,-0.53086,1.20612
-0.13395,0.97005,-0.20259,0.10179,-0.78716,0.66574
-0.13884,0.96783,-0.20979,-0.24543,0.62516,0.88087
-0.15722,0.97477,-0.15837,-0.24091,1.20485,0.37018
-0.16788,0.98258,-0.07961,0.1675,0.57232,-0.71578
-0.16917,0.98448,-0.04646,0.1526,0.11507,-0.058
-0.1638,0.98608,-0.02817,0.01075,0.03055,-0.00967
-0.15957,0.98715,-0.00799,-0.09118,0.08474,-0.23795
-0.16327,0.98656,0.00412,-0.05956,0.16004,-0.57544
-0.17176,0.98512,0.00499,0.11178,0.0197,-0.59485
-0.18247,0.98318,-0.00619,0.14644,0.00221,-0.57804
-0.19676,0.97987,-0.03364,0.16602,-0.06954,-0.76934
-0.21292,0.9741,-0.07605,0.20636,-0.20364,-0.62066
-0.22763,0.96438,-0.13468,0.21308,-0.40487,-0.2245
-0.24332,0.94979,-0.19666,0.08416,-0.65803,0.51346
-0.25452,0.93329,-0.25334,0.16861,-0.86629,0.61786
-0.25318,0.91939,-0.30101,0.35299,-0.97584,0.47681
-0.24507,0.90816,-0.33938,0.33286,-1.15418,0.58409
-0.23555,0.89743,-0.373,0.53793,-0.93318,0.62863
-0.22182,0.88965,-0.39914,0.74404,-0.64209,0.49017
-0.20776,0.88862,-0.40887,0.34782,-0.5413,0.45402
-0.18384,0.89848,-0.39865,0.03479,-0.19615,0.41115
-0.16789,0.91591,-0.36458,0.0382,0.21639,0.18309
-0.17112,0.93605,-0.30744,-0.02494,0.29905,0.20607
-0.18063,0.95463,-0.23675,-0.35831,0.67719,0.05502
-0.18327,0.9698,-0.1609,-0.15494,0.72202,-0.33076
-0.17932,0.97882,-0.09871,0.25384,1.00058,-0.86364
-0.17212,0.98339,-0.05742,0.11069,0.36664,-1.0384
-0.15565,0.98719,-0.03483,-0.2567,0.25295,-0.99207
-0.14275,0.98964,-0.0145,-0.77998,0.06402,-1.27283
-0.13434,0.99093,-7e-05,-0.49373,0.33061,0.42355
-0.13574,0.99052,-0.02075,0.09114,0.08881,1.10277
-0.14319,0.989,-0.03689,0.35548,-0.1657,0.68835
-0.15405,0.98779,-0.023,0.18695,3.01418,-2.84435
-0.14824,0.98766,-0.05028,0.54415,0.51925,0.32625
-0.13035,0.98296,-0.12956,0.4867,-0.85814,1.16862
-0.11242,0.97763,-0.17775,0.04014,-0.69758,0.36894
-0.11435,0.98156,-0.15313,-0.54144,0.90075,0.92826
-0.12065,0.98817,-0.0946,-0.09929,0.93999,0.34948
-0.12974,0.99098,-0.03321,0.08217,0.64111,-0.83316
-0.13852,0.99006,-0.02405,-0.16383,0.52499,-0.70391
-0.14638,0.98865,-0.03367,-0.37549,0.23087,-0.64318
-0.1572,0.98545,-0.06457,-0.11281,-0.05646,-0.45652
-0.17198,0.97853,-0.11355,0.00361,-0.09355,-0.36178
-0.19075,0.96685,-0.16971,0.09791,-0.15308,-0.26643
-0.21463,0.95119,-0.22172,0.07165,-0.75194,0.66722
-0.23144,0.93714,-0.26113,0.12463,-0.93383,0.7709
-0.22716,0.93068,-0.28674,0.44147,-1.40802,0.66603
-0.21624,0.92757,-0.30469,0.42538,-1.05237,0.52177
-0.20358,0.92392,-0.3239,0.48738,-0.80225,0.43096
-0.1846,0.9225,-0.33898,0.55378,-0.76681,0.43761
-0.16898,0.92342,-0.34456,0.46101,-0.6047,0.38865
-0.15435,0.92905,-0.3362,0.18443,-0.31115,0.32995
-0.13906,0.94023,-0.31084,0.12816,0.04151,0.15882
-0.13547,0.95488,-0.26425,0.15551,0.21705,0.03128
-0.14695,0.96788,-0.20397,-0.30968,0.94371,-0.44187
-0.16384,0.97419,-0.15526,-0.25286,1.73179,-1.1848
-0.1608,0.97823,-0.13113,0.10433,0.68121,-1.39557
-0.14442,0.98364,-0.10762,-0.02066,-0.15643,-0.77749
-0.12836,0.98818,-0.08366,-0.01954,-0.56446,-0.74866
-0.1247,0.9889,-0.08073,0.26953,-0.50115,0.80295
-0.12161,0.987,-0.10495,0.14122,0.0874,1.01978
-0.12147,0.98559,-0.11767,0.22874,0.93958,-0.23796
-0.12883,0.98787,-0.08663,0.19435,3.30687,-3.0664
-0.1173,0.9839,-0.13476,-0.12359,0.25108,1.53889
-0.10681,0.97544,-0.19262,0.04341,-0.59181,0.78534
-0.11417,0.97268,-0.20211,-0.06196,-0.20389,0.87538
-0.1259,0.98059,-0.15023,-0.20909,0.80679,0.28895
-0.14114,0.98567,-0.0923,0.40161,1.02983,-1.26939
-0.14706,0.98359,-0.10441,-0.01348,0.41263,-0.35343
-0.14496,0.98259,-0.11617,-0.27208,0.21747,-0.25787
-0.15647,0.97603,-0.15122,-0.25601,-0.18598,-0.34495
-0.17444,0.96449,-0.19828,0.01181,-0.63858,0.48894
-0.19567,0.94935,-0.24583,0.14524,-0.75874,0.7541
-0.21228,0.9378,-0.27468,0.19995,-0.9211,0.68277
-0.20905,0.93522,-0.28575,0.40466,-1.48446,0.40045
-0.19751,0.93463,-0.29572,0.34656,-1.21147,0.41423
-0.18136,0.9355,-0.3032,0.40818,-0.88387,0.34786
-0.15878,0.94076,-0.29957,0.63881,-0.95929,0.41374
-0.13726,0.95114,-0.27653,0.64941,-0.77355,0.32617
-0.12289,0.96464,-0.23315,0.58544,-0.46525,0.35313
-0.13149,0.97398,-0.18453,0.14981,0.16699,0.17728
-0.16062,0.97583,-0.14813,-0.29411,0.86987,-0.59755
-0.17631,0.97488,-0.13603,-0.24198,1.64185,-1.01866
-0.16656,0.97759,-0.12868,-0.05101,0.79458,-0.86591
-0.15295,0.981,-0.11926,-0.18558,0.25446,-0.86811
-0.13822,0.98478,-0.10527,-0.07098,-0.24838,-0.66546
-0.12404,0.98578,-0.11332,-0.08387,-0.24455,0.55493
-0.11352,0.98494,-0.13031,-0.39113,0.03062,0.90045
-0.11906,0.98296,-0.14,0.15626,-0.00153,0.72864
-0.12601,0.98703,-0.09939,0.86086,0.68651,-2.23875
-0.089,0.98612,-0.14009,0.1843,2.72224,0.5993
-0.05882,0.97567,-0.21118,0.00395,-1.1103,0.88599
-0.06061,0.967,-0.24742,-0.16595,-0.28562,0.67113
-0.08644,0.97463,-0.2064,-0.29022,0.81531,0.70637
-0.11125,0.98443,-0.13601,0.19784,1.05269,-1.0209
-0.12233,0.98643,-0.10943,0.17094,0.52964,-0.27968
-0.11926,0.98747,-0.10323,-0.2678,0.28772,-0.51775
-0.12246,0.98629,-0.11054,-0.38017,0.07896,-0.81237
-0.13475,0.97993,-0.14684,-0.12121,-0.15043,-0.48372
-0.15163,0.96789,-0.20044,-0.02169,-0.3818,0.02253
-0.17289,0.94928,-0.26262,-0.0136,-0.45736,0.49908
-0.19488,0.92844,-0.31624,0.10284,-0.5656,0.83461
-0.20375,0.91194,-0.35615,0.30017,-0.90402,0.81383
-0.20055,0.90068,-0.38542,0.39118,-1.24975,0.71364
-0.19582,0.89121,-0.40914,0.4165,-1.16959,0.67111
-0.18896,0.8872,-0.42091,0.67978,-0.86379,0.54424
-0.18193,0.89138,-0.41512,0.48355,-0.60395,0.44364
-0.1694,0.90609,-0.38767,0.30073,-0.38054,0.32284
-0.15804,0.92804,-0.33727,0.29604,-0.15448,0.16549
-0.15872,0.95117,-0.2647,0.22038,0.12602,-0.03399
-0.17792,0.96543,-0.19046,-0.40602,1.15093,-0.64099
-0.18348,0.97398,-0.13293,0.0137,1.52362,-0.94078
-0.17394,0.97851,-0.11068,0.05141,0.58759,-1.54636
-0.157,0.98334,-0.09151,-0.37698,-0.13375,-0.99115
-0.1368,0.98831,-0.06716,-0.75701,-0.23558,-0.8738
-0.12836,0.99044,-0.05034,-0.77899,0.18588,-0.29288
-0.1315,0.98912,-0.06577,0.15371,0.31172,1.02076
-0.14218,0.98642,-0.08209,0.20092,0.1755,0.68713
-0.15005,0.98436,-0.0922,0.28103,0.03311,0.42074
-0.16529,0.98268,-0.08363,0.05106,2.2234,-0.34532
-0.19265,0.97926,-0.06251,-0.16587,1.10841,0.58944
-0.21269,0.97404,-0.07735,-0.05205,0.15402,0.48609
-0.21762,0.97239,-0.08421,0.34373,0.2644,0.17492
-0.2079,0.97621,-0.06136,0.29181,0.5226,0.13893
-0.19883,0.97949,-0.03227,0.18615,0.63823,0.04295
-0.19607,0.98058,-0.00176,0.09254,0.13444,0.03034
-0.19501,0.98017,0.03498,0.11838,-0.04022,0.03274
-0.19555,0.9777,0.07642,0.07664,-0.22672,-0.09789
-0.19898,0.97302,0.11671,0.0863,-0.30934,-0.23782
-0.20603,0.96728,0.14798,0.16408,-0.38162,-0.31439
-0.2163,0.96146,0.16969,0.28019,-0.46806,-0.25551
-0.22792,0.95531,0.18815,0.2684,-0.49278,-0.21666
-0.23894,0.9478,0.21109,0.26706,-0.46921,-0.19409
-0.24936,0.93885,0.23742,0.31611,-0.44876,-0.33445
-0.26016,0.92835,0.26542,0.28542,-0.32498,-0.46231
-0.27424,0.91698,0.28968,0.2995,-0.3136,-0.48657
-0.2904,0.90599,0.30794,0.44013,-0.02408,-0.204
-0.29901,0.89663,0.32653,0.47819,0.00249,-0.51362
-0.28985,0.88935,0.35358,0.32716,0.08021,-0.72632
-0.2804,0.88457,0.37269,-0.12666,0.03647,-0.71674
-0.29052,0.88123,0.37283,-0.28517,-0.18194,-0.67329
-0.31434,0.88206,0.35089,-0.36422,-0.1154,-0.7576
-0.3373,0.88915,0.30923,0.75209,0.70283,-0.1168
-0.34188,0.90157,0.26507,0.82887,0.56141,0.66861
-0.33002,0.91635,0.22664,0.85273,1.19551,0.77272
-0.30526,0.93438,0.18365,0.59874,1.68052,0.45809
-0.28307,0.95029,0.12961,0.29381,1.58932,0.28854
-0.26406,0.96156,0.07523,-0.04665,1.09611,0.10229
-0.24536,0.96903,0.02745,0.12908,0.78416,0.32704
-0.21909,0.97568,-0.00584,0.40004,0.75143,0.45715
-0.18261,0.98299,-0.01922,0.56246,0.63353,0.72528
-0.15166,0.9884,-0.00655,0.44962,0.27248,1.07198
-0.12489,0.99216,2e-05,0.5601,-0.02063,0.75222
-0.11095,0.99369,-0.01617,0.44671,-0.17902,0.67912
-0.11279,0.9929,-0.03751,-0.12749,-0.46039,0.66179
-0.11931,0.99138,-0.05394,-0.39573,-0.62775,0.61795
-0.12798,0.98974,-0.06339,-0.62115,-0.66124,0.49637
-0.13932,0.98804,-0.06592,-0.57829,-0.73324,0.31994
-0.15307,0.9861,-0.06445,-0.233,-0.5782,0.27402
-0.16053,0.98499,-0.06334,-0.22378,-0.29637,0.0736
-0.16523,0.98445,-0.05944,-0.45611,-0.16779,-0.32187
-0.17505,0.98246,-0.06413,-0.45786,-0.10754,-0.86373
-0.18923,0.97819,-0.08557,-0.00941,-0.13206,-0.59737
-0.19015,0.97598,-0.10628,0.22219,-0.29823,-0.37565
-0.16648,0.97917,-0.11617,0.78931,-0.19716,-0.25785
-0.11834,0.98531,-0.12308,1.08603,0.04342,-0.06266
-0.07587,0.98904,-0.12661,0.93325,0.18422,-1.24793
-0.04769,0.99018,-0.1314,0.42766,2.53006,-0.22188
-0.03048,0.9849,-0.1704,0.51647,0.85312,1.44503
-0.00511,0.97828,-0.20722,-0.92463,-1.1693,0.38689
0.02401,0.97831,-0.20572,-0.73167,-1.61253,0.84796
0.03974,0.9815,-0.18723,-0.42536,-0.59363,1.22618
0.0053,0.98596,-0.16687,-0.41339,0.81021,0.57615
-0.04805,0.9852,-0.16449,-0.77979,1.60602,0.15023
-0.07973,0.98395,-0.15962,0.47042,0.50523,0.2792
-0.09888,0.98585,-0.13532,0.46399,0.03683,0.47576
-0.09484,0.99004,-0.10401,0.28068,0.00044,0.13067
-0.08255,0.99405,-0.07093,0.21829,-0.0094,-0.0008
-0.06539,0.99709,-0.03896,0.18906,-0.0716,-0.02192
-0.04828,0.99877,-0.01011,0.13126,-0.06776,0.00083
-0.03539,0.99907,0.02441,-0.01785,-0.06492,-0.0218
-0.02587,0.99752,0.06525,-0.23183,-0.11047,-0.13392
-0.01889,0.99469,0.1011,-0.17605,-0.14689,-0.13679
-0.01502,0.99137,0.13013,-0.03541,-0.15982,-0.08475
-0.01567,0.9877,0.15555,0.04204,-0.10391,-0.07734
-0.01879,0.98395,0.17737,0.05949,-0.07851,-0.04862
-0.02442,0.97982,0.19833,0.06699,-0.10771,-0.04424
-0.03214,0.97456,0.22177,0.06857,-0.12561,-0.04649
-0.04118,0.96829,0.24637,0.05328,0.01943,-0.14308
-0.04895,0.96165,0.26983,0.08299,0.0273,-0.26145
-0.05561,0.95439,0.29331,0.0955,0.16843,-0.33097
-0.05957,0.94786,0.31302,0.05686,0.19516,-0.39644
-0.06164,0.94347,0.32565,-0.01488,0.26349,-0.35486
-0.06238,0.94216,0.32929,-0.08272,0.22294,-0.26132
-0.06345,0.94173,0.33031,-0.00839,0.39838,-0.33333
-0.06393,0.94335,0.32556,0.32708,0.40919,-0.35561
-0.06706,0.94714,0.31369,0.60727,0.5256,-0.30086
-0.07007,0.95472,0.28909,0.61844,0.57033,-0.12014
-0.0667,0.96472,0.25463,0.08852,0.44461,-0.02256
-0.06158,0.97475,0.21457,-0.33369,0.20971,-0.15755
-0.06365,0.98458,0.16289,-0.06083,-0.01963,-0.14136
-0.06851,0.99213,0.10475,0.05457,-0.04568,0.01129
-0.07009,0.99621,0.0514,0.04612,0.18615,0.30767
-0.06784,0.99767,-0.00506,0.13354,0.33294,0.44424
-0.06188,0.99631,-0.05935,0.12985,0.30783,0.55292
-0.05438,0.99292,-0.10549,0.06541,0.2225,0.50176
-0.04855,0.98813,-0.14569,0.0329,0.16597,0.2913
-0.04479,0.98373,-0.17395,0.02062,0.19051,0.26307
-0.04287,0.97849,-0.20175,0.05481,0.14648,0.34747
-0.03958,0.97058,-0.23747,0.10555,0.04341,0.35907
-0.03629,0.96041,-0.27619,0.03142,-0.04421,0.41323
-0.03529,0.94996,-0.31035,-0.02863,-0.09208,0.43945
-0.03859,0.94014,-0.33859,-0.02515,-0.10337,0.55451
-0.0445,0.93094,-0.36244,-0.05601,-0.16448,0.56223
-0.05088,0.92335,-0.38057,-0.1027,-0.27859,0.49812
-0.05603,0.91857,-0.39125,-0.15456,-0.3583,0.46962
-0.05828,0.91758,-0.39324,-0.16831,-0.43308,0.44515
-0.05774,0.92058,-0.38625,-0.17639,-0.49689,0.39449
-0.05683,0.92652,-0.37191,-0.15969,-0.48835,0.36788
-0.05773,0.93448,-0.35128,-0.16082,-0.5031,0.32831
-0.06347,0.94405,-0.32361,-0.087,-0.47651,0.24138
-0.07589,0.95351,-0.29163,-0.06461,-0.38393,0.10131
-0.09408,0.96115,-0.25947,-0.07995,-0.36854,0.04983
-0.11105,0.96653,-0.23123,-0.0604,-0.30719,-0.04564
-0.12174,0.97025,-0.20923,0.18618,0.01543,-0.25801
-0.13296,0.97135,-0.19695,0.19555,0.16061,-0.40879
-0.13849,0.9718,-0.1908,0.13893,0.2859,-0.31037
-0.12841,0.97445,-0.18426,0.01073,0.02897,-0.32169
-0.11129,0.97766,-0.17829,-0.0427,-0.15762,-0.28077
-0.09595,0.98022,-0.17307,-0.07292,-0.31756,-0.04436
-0.08454,0.98133,-0.1727,-0.1536,-0.33805,0.07195
-0.08051,0.98111,-0.17585,-0.12182,-0.30696,0.47883
-0.08144,0.97908,-0.18645,-0.26041,-0.02899,0.93224
-0.08223,0.97698,-0.1968,-0.27276,0.27788,0.68016
-0.08346,0.97621,-0.20008,0.01025,0.18611,0.37331
-0.08345,0.98056,-0.17754,-0.08682,1.95151,-1.19676
-0.09114,0.98485,-0.14745,0.13934,3.93729,-3.68703
-0.0693,0.97428,-0.21439,0.12299,-0.57654,1.10258
-0.03672,0.96308,-0.26669,0.36442,-0.44832,0.45017
-0.02409,0.96154,-0.27359,-0.49071,0.49948,0.98624
-0.02332,0.97096,-0.23808,-0.23373,0.60149,0.79632
-0.03414,0.98181,-0.18672,-0.07538,0.31785,0.00577
-0.05583,0.98862,-0.13967,-0.09652,0.32912,-0.69471
-0.07483,0.98829,-0.13293,-0.4751,0.4956,-0.84662
-0.07313,0.98745,-0.13995,-0.33656,0.23763,-0.4786
-0.07345,0.98302,-0.16813,-0.17042,-0.10787,-0.35549
-0.09006,0.97225,-0.21588,0.06205,-0.37882,-0.18641
-0.10452,0.95519,-0.27692,0.00457,-0.41145,0.13549
-0.11289,0.9344,-0.33785,-0.15689,-0.57384,0.75959
-0.12295,0.91288,-0.38925,-0.14683,-0.55232,0.81099
-0.12353,0.89942,-0.41926,0.21617,-1.14913,0.81219
-0.10547,0.89378,-0.43592,0.37459,-1.05504,0.65934
-0.0843,0.8865,-0.45497,0.35076,-0.93422,0.63745
-0.0643,0.88114,-0.46846,0.42117,-0.8181,0.61422
-0.05228,0.87827,-0.4753,0.40671,-0.37488,0.61652
-0.04624,0.88066,-0.47147,0.20576,-0.25051,0.55193
-0.03867,0.89312,-0.44815,0.05146,-0.07342,0.35696
-0.03827,0.91388,-0.40417,0.0379,0.03372,0.39976
-0.04333,0.93657,-0.34778,-0.70016,0.69224,-0.15866
-0.04788,0.95772,-0.28368,-0.60207,1.58727,-0.78387
-0.03304,0.96737,-0.25116,0.10451,1.2732,-1.48978
-0.01033,0.97499,-0.22197,-0.10857,0.07585,-0.96608
0.0204,0.98177,-0.18892,-0.34991,-0.29749,-0.19128
0.02973,0.98378,-0.17687,-0.57375,0.03095,-0.32524
0.0256,0.98103,-0.19211,-0.27548,0.47415,1.08925
0.02644,0.97877,-0.2032,-0.02915,0.57836,0.85527
0.02145,0.98005,-0.19757,0.52061,0.23297,-0.53703
0.02519,0.97872,-0.20359,-0.17777,2.63674,-1.78614
0.03532,0.97056,-0.23822,-0.17074,-0.5404,0.88581
0.0348,0.96164,-0.27209,0.06195,-0.66987,0.66845
0.02246,0.96334,-0.26733,0.12348,-0.15049,0.51255
0.0148,0.97252,-0.23232,0.13675,0.7715,0.13897
0.00817,0.9796,-0.20075,0.15881,0.68216,-0.2142
0.00511,0.98368,-0.1798,-0.01829,0.3991,-0.08235
0.00137,0.98609,-0.16617,-0.33406,0.12408,-0.2205
-0.00922,0.98549,-0.16942,-0.54954,0.12196,-0.61771
-0.02147,0.97935,-0.20099,-0.41651,0.00617,-0.55978
-0.0302,0.96782,-0.2498,-0.06782,-0.39032,-0.0324
-0.04106,0.95071,-0.30734,-0.03273,-0.57754,0.57851
-0.06075,0.93099,-0.35993,0.10947,-0.59756,0.78173
-0.07994,0.91071,-0.40522,0.25056,-0.91305,0.58249
-0.08089,0.89497,-0.43872,0.22476,-1.02589,0.57611
-0.07886,0.88401,-0.46076,0.16106,-1.05268,0.75113
-0.07385,0.87422,-0.47986,0.44491,-0.84451,0.66344
-0.05789,0.8714,-0.48714,0.63357,-0.52898,0.50379
-0.03209,0.87989,-0.47409,0.19507,-0.35772,0.3748
-0.00633,0.89741,-0.44115,0.14534,-0.10239,0.27827
-0.00334,0.91905,-0.39412,-0.17825,0.09452,0.21596
-0.01014,0.9381,-0.3462,-0.45311,0.68496,-0.13256
-0.00782,0.95314,-0.3024,-0.28989,1.20892,-0.25759
0.00154,0.96348,-0.26775,-0.15209,1.35265,-0.78498
0.01275,0.96964,-0.24418,-0.1047,0.2133,-1.05148
0.03447,0.97554,-0.21706,-0.25876,-0.28827,-0.36719
0.05049,0.98029,-0.19098,-0.5581,-0.27141,-0.08547
0.05063,0.98,-0.19238,-0.4226,0.03737,1.10542
0.03894,0.97827,-0.20363,-0.35981,0.4471,0.70038
0.01557,0.97852,-0.2055,0.41003,0.22819,-0.22521
0.00619,0.97935,-0.20204,0.84037,0.68374,-0.18125
0.03056,0.98117,-0.19068,-0.89448,3.2359,-1.75968
0.05923,0.97431,-0.21723,-0.27542,-0.45625,1.12853
0.06551,0.95948,-0.27404,-0.04204,-0.80156,0.62371
0.05547,0.95299,-0.29785,-0.1023,-0.5418,0.66219
0.03799,0.96304,-0.26665,-0.11811,0.88262,0.22037
0.01978,0.97579,-0.21779,-0.0999,0.86987,0.17151
0.0133,0.98155,-0.19069,0.12823,0.39685,-0.21617
0.01523,0.98467,-0.17371,-0.32871,0.23226,-0.44562
0.00896,0.98516,-0.17135,-0.32244,0.23177,-0.44799
-0.00722,0.98076,-0.19502,-0.28081,0.02963,-0.66022
-0.02244,0.97111,-0.23755,-0.11424,-0.30619,-0.16881
-0.03985,0.95442,-0.29576,-0.09609,-0.39618,0.1248
-0.06224,0.93301,-0.35441,-0.15152,-0.57134,0.55903
-0.08217,0.91035,-0.40557,0.0482,-0.64185,0.86319
-0.09577,0.89062,-0.44454,0.31872,-0.92959,0.83425
-0.09149,0.87818,-0.4695,0.42995,-1.05881,0.66397
-0.08486,0.86768,-0.48982,0.24265,-0.95983,0.60978
-0.07154,0.86178,-0.50221,0.41945,-0.79555,0.55813
-0.05202,0.86545,-0.49828,0.38481,-0.60068,0.42
-0.03146,0.8795,-0.47486,0.18632,-0.36817,0.26665
-0.02389,0.9024,-0.43022,0.22142,-0.02299,0.23892
-0.03312,0.92719,-0.3731,-0.01767,0.46577,0.33086
-0.04584,0.94414,-0.32632,-0.78253,1.08039,-0.12269
-0.05372,0.95497,-0.29177,-0.49604,1.03719,-0.3876
-0.04542,0.96153,-0.27089,0.00663,0.24069,-1.14186
-0.01948,0.96917,-0.24559,-0.10788,-0.04807,-0.95169
0.00953,0.97639,-0.21577,-0.28573,-0.38261,-0.56783
0.01604,0.97712,-0.21206,-0.78406,0.24488,0.72578
0.00908,0.97365,-0.22783,-0.68617,0.48698,0.97325
-0.00602,0.96943,-0.24527,-0.3931,0.46736,0.97925
-0.02505,0.97267,-0.23082,0.8087,0.86892,-1.0742
-0.02072,0.97767,-0.20908,0.45183,3.35282,-3.63593
0.01367,0.96795,-0.25076,-0.15642,-0.50908,1.02577
0.02288,0.95739,-0.28788,0.15428,-0.43831,0.74433
0.00857,0.95893,-0.28348,-0.15971,0.50997,0.99322
-0.00765,0.97092,-0.23925,-0.06558,0.97275,0.15153
-0.03043,0.97855,-0.20373,-0.32676,0.77973,-1.1772
-0.0375,0.97475,-0.22009,-0.54895,0.2019,-0.33292
-0.04375,0.96918,-0.24239,-0.53935,0.08492,-0.40474
-0.06295,0.95676,-0.28394,-0.16562,-0.21336,-0.21142
-0.08672,0.93743,-0.33719,0.05685,-0.4345,0.4366
-0.11866,0.91336,-0.38947,0.1924,-0.63218,0.87761
-0.14955,0.89279,-0.4249,0.34269,-1.03589,0.98083
-0.15122,0.88035,-0.44956,0.3867,-1.34329,0.60335
-0.14196,0.87514,-0.46257,0.17092,-0.99002,0.54651
-0.13827,0.8708,-0.47178,0.30059,-0.78548,0.52985
-0.13557,0.86931,-0.4753,0.42969,-0.84329,0.55608
-0.12614,0.87552,-0.46642,0.3454,-0.72443,0.52991
-0.1127,0.88912,-0.44356,0.34315,-0.52667,0.46674
-0.09842,0.90945,-0.40398,0.01767,0.57282,0.18274
-0.09068,0.93082,-0.35404,0.00993,0.55145,0.1328
-0.10293,0.94647,-0.30592,-0.87179,2.44422,-0.86898
-0.11296,0.95485,-0.27473,-0.19777,0.84994,-1.38355
-0.09539,0.95989,-0.26364,-0.23908,0.44391,-1.07181
-0.07253,0.96635,-0.24674,-0.84739,-0.39101,-0.51475
-0.06691,0.96986,-0.23426,-0.67425,-0.47645,-0.54518
-0.07394,0.97108,-0.22697,-0.15505,-0.23996,0.5711
-0.0902,0.96954,-0.22768,0.47017,0.25122,1.14815
-0.10474,0.96755,-0.2299,0.46922,0.65104,0.65064
-0.11032,0.96977,-0.21763,0.66511,0.82422,-0.44541
-0.11083,0.96769,-0.22646,0.45713,0.96957,-0.61016
-0.10972,0.96125,-0.25289,-0.32792,0.96131,0.74683
-0.1064,0.95943,-0.26106,-0.39769,0.63506,0.62626
-0.1041,0.96141,-0.25463,-0.00236,0.18834,0.54631
-0.10839,0.96651,-0.23259,0.1123,0.43257,0.3053
-0.11392,0.97367,-0.19741,0.08353,0.46252,0.46398
-0.1159,0.98162,-0.15156,0.07587,0.1345,0.23211
-0.11471,0.98803,-0.103,0.04873,-0.1176,0.21038
-0.11122,0.99205,-0.05872,-0.01307,-0.2559,0.14882
-0.10738,0.99408,-0.01593,-0.09758,-0.33142,0.01662
-0.10735,0.9939,0.02498,-0.03609,-0.45219,-0.06835
-0.11335,0.99167,0.06104,0.07529,-0.5684,-0.05958
-0.12401,0.98801,0.09188,0.10886,-0.54533,-0.10303
-0.13642,0.98288,0.12373,0.09695,-0.55599,-0.19773
-0.14931,0.97656,0.15496,0.13004,-0.56338,-0.26972
-0.16368,0.9702,0.17862,0.27569,-0.34463,-0.2086
-0.17841,0.96494,0.19247,0.26816,0.19977,-0.32536
-0.18706,0.96093,0.20393,0.18333,0.46465,-0.71544
-0.19097,0.95944,0.20733,-0.06274,0.02384,-0.63533
-0.20158,0.95811,0.20339,-0.27583,-0.01858,-0.73967
-0.22371,0.95568,0.19133,-0.06355,-0.12348,-0.93985
-0.26195,0.95344,0.14938,0.63162,0.19987,-0.46255
-0.28921,0.95312,0.08885,1.17784,0.34746,0.24076
-0.30012,0.95296,0.04217,0.79841,0.23065,0.94631
-0.29557,0.95528,0.00746,0.69049,1.27795,1.06255
-0.27372,0.96135,-0.0292,0.76251,2.37519,0.9616
-0.25892,0.96345,-0.06859,0.74903,2.04557,0.56361
-0.23942,0.9654,-0.10332,0.15459,0.27942,0.34943
-0.21569,0.96666,-0.13793,0.12798,0.11862,0.19161
-0.20276,0.96324,-0.17616,-0.12768,0.30473,0.51309
-0.19528,0.95616,-0.21818,-0.18485,0.72171,0.63097
-0.20934,0.94379,-0.25578,0.08878,0.58269,0.71915
-0.244,0.93295,-0.26466,0.21591,0.32359,0.92467
-0.27799,0.92579,-0.25618,0.37859,0.11778,0.73851
-0.30268,0.92162,-0.24288,0.4397,0.01143,0.72481
-0.31592,0.9187,-0.23698,0.35692,-0.20613,0.72816
-0.32451,0.91793,-0.22823,0.18312,-0.50827,0.71363
-0.33172,0.91849,-0.21525,0.16334,-0.52582,0.64207
-0.33706,0.92047,-0.19775,0.06129,-0.36674,0.51646
-0.34124,0.92297,-0.17795,-0.11581,-0.06462,0.21704
-0.3457,0.9249,-0.15819,-0.29544,0.04229,-0.26922
-0.35828,0.92164,-0.14897,-0.35072,0.01226,-0.49648
-0.37698,0.91337,-0.15371,-0.00456,-0.15951,-0.53401
-0.38517,0.90843,-0.16242,0.34321,-0.24394,0.00903
-0.37598,0.9081,-0.18434,0.50333,-0.11531,-0.04799
-0.35075,0.91069,-0.21818,1.02517,0.4221,-0.47832
-0.32888,0.91456,-0.23536,1.05097,0.10775,-0.45913
-0.31481,0.91971,-0.23455,0.80627,-0.29536,-0.15205
-0.30027,0.9259,-0.2292,0.50498,-0.4703,0.05685
-0.27808,0.9334,-0.22678,0.02288,-0.14894,0.2192
-0.255,0.9371,-0.23834,-0.63409,2.42698,0.14267
-0.22592,0.93962,-0.25702,0.97118,0.70564,-0.42019
-0.19759,0.93955,-0.27963,-0.49843,-1.0403,0.89411
-0.18889,0.94103,-0.28066,-0.51846,-1.07511,0.70976
-0.19859,0.94247,-0.26888,-0.35155,-0.42727,0.78432
-0.23332,0.93867,-0.25385,-0.28625,0.90979,0.32698
-0.27189,0.9356,-0.22522,-0.09418,1.14612,0.34614
-0.30239,0.93394,-0.19054,0.57794,1.1542,0.44004
-0.30677,0.93803,-0.16114,0.45843,0.2099,0.15271
-0.29703,0.94484,-0.13799,0.33565,0.0776,0.13648
-0.28693,0.95174,-0.10882,0.2721,-0.00571,0.14212
-0.27566,0.95852,-0.07229,0.29858,-0.05082,0.10271
-0.26055,0.96488,-0.03321,0.28642,-0.09893,0.08275
-0.24385,0.96979,0.00556,0.14786,-0.10438,0.04008
-0.23209,0.97173,0.04308,-0.12295,-0.19112,-0.04443
-0.22661,0.97079,0.07871,-0.13815,-0.25676,-0.0528
-0.22546,0.96791,0.11092,-0.04509,-0.22816,-0.02544
-0.22536,0.96418,0.13981,0.05164,-0.20207,-0.02013
-0.22733,0.95941,0.16681,0.08232,-0.16783,-0.01048
-0.23312,0.95352,0.19089,0.1614,-0.06692,-0.12243
-0.24202,0.94669,0.21254,0.20263,0.07099,-0.248
-0.25158,0.93881,0.23521,0.24191,0.13662,-0.3094
-0.25788,0.93113,0.25782,0.30704,0.07706,-0.32128
-0.26017,0.92376,0.28097,0.29664,0.12569,-0.37492
-0.25954,0.91664,0.30395,0.39375,0.26876,-0.51275
-0.25503,0.91339,0.31725,0.39224,0.30577,-0.66999
-0.24935,0.91453,0.31848,0.29184,0.59505,-0.81642
-0.24607,0.92099,0.302,0.37304,0.6722,-0.70862
-0.24878,0.93173,0.26452,0.63145,0.6933,-0.45881
-0.25127,0.94619,0.20389,0.77138,0.58424,-0.00284
-0.24726,0.95859,0.14121,0.2598,0.22737,0.21114
-0.2421,0.9668,0.08166,-0.04855,0.32086,0.31209
-0.2391,0.97084,0.0169,-0.14962,0.48538,0.42898
-0.23273,0.97138,-0.04737,0.05582,0.59037,0.51874
-0.2232,0.96904,-0.10551,0.22771,0.56832,0.33002
-0.21645,0.9657,-0.14341,0.18375,0.43267,0.2952
-0.21409,0.96277,-0.165,0.16511,0.38246,0.4072
-0.2124,0.95775,-0.19385,0.26594,0.21514,0.33469
-0.20468,0.95142,-0.22997,0.33027,0.06274,0.40375
-0.19596,0.94451,-0.2636,0.28252,-0.0221,0.41272
-0.19468,0.93711,-0.28967,0.08633,-0.28259,0.56063
-0.19925,0.92998,-0.30891,0.04483,-0.41704,0.56596
-0.20706,0.92447,-0.32012,-0.00078,-0.47471,0.5836
-0.21306,0.92182,-0.32381,-0.12585,-0.5746,0.60962
-0.21283,0.9227,-0.32142,-0.14781,-0.64914,0.5202
-0.20663,0.92732,-0.31204,-0.14089,-0.72281,0.43949
-0.19907,0.93524,-0.29272,-0.06761,-0.77519,0.27235
-0.19468,0.9464,-0.2577,0.13218,-0.6738,0.21619
-0.19697,0.95744,-0.21096,0.14033,-0.52198,0.0344
-0.20974,0.96363,-0.16558,-0.06963,-0.30362,-0.25001
-0.22674,0.96452,-0.13517,-0.033,-0.10593,-0.26647
-0.23839,0.96361,-0.1209,0.20395,0.11038,-0.30224
-0.24441,0.96316,-0.1121,0.22874,0.09192,-0.37967
-0.24133,0.96525,-0.10023,0.23793,0.07189,-0.30692
-0.22893,0.96989,-0.08295,0.21387,-0.00273,-0.24505
-0.21343,0.97485,-0.06406,0.182,-0.05277,-0.22851
-0.19933,0.97894,-0.04388,0.12228,-0.12657,-0.32917
-0.18946,0.98154,-0.02594,0.09117,-0.15513,-0.32386
-0.18809,0.98175,-0.02768,-0.17387,0.11928,0.73989
-0.19068,0.98074,-0.04203,-0.5011,0.5101,0.30387
-0.19604,0.9796,-0.04393,-0.13942,0.18185,-0.17485
-0.20266,0.97846,-0.03902,0.38767,0.11138,0.13855
-0.20117,0.97898,-0.03342,0.56738,2.19166,-1.77435
-0.18873,0.9799,-0.06452,0.27086,1.94562,-1.21195
-0.18004,0.97588,-0.12341,0.42061,-0.3337,0.61156
-0.17777,0.97208,-0.15314,0.19172,0.05863,0.12041
-0.18202,0.97418,-0.13354,0.11875,0.59308,0.49375
-0.18888,0.97704,-0.09853,0.18313,0.24885,0.10842
-0.19137,0.97985,-0.05706,0.13997,0.05312,-0.00417
-0.19015,0.9816,-0.01669,0.10444,0.17179,-0.38109
-0.1889,0.98196,0.0068,-0.18447,0.46329,-0.7008
-0.18863,0.982,0.00891,-0.14492,0.26072,-0.73347
-0.19448,0.98081,-0.01308,-0.13914,-0.01385,-0.69699
-0.20753,0.97647,-0.05841,-0.12833,-0.32312,-0.35617
-0.22397,0.96681,-0.12285,-0.08258,-0.43346,0.19523
-0.2401,0.95122,-0.19371,-0.02763,-0.47147,0.56957
-0.25218,0.93416,-0.25245,0.56218,-0.68157,0.55153
-0.24713,0.92176,-0.2988,0.81981,-0.91623,0.44531
-0.22989,0.91099,-0.3424,0.46544,-0.91836,0.52858
-0.22043,0.8983,-0.38007,0.42516,-0.82378,0.53152
-0.21439,0.8882,-0.40637,0.4923,-0.76092,0.46046
-0.20346,0.88701,-0.41449,0.37602,-0.55193,0.47934
-0.18615,0.89757,-0.39963,0.33915,-0.42752,0.46777
-0.17156,0.91745,-0.35895,0.1717,-0.37303,0.49434
-0.15756,0.94035,-0.3015,-0.35719,-0.14386,0.28514
-0.15256,0.95899,-0.23885,-0.53847,0.50936,-0.30676
-0.15579,0.97293,-0.17063,-0.3176,1.83445,-0.71542
-0.15342,0.97998,-0.1268,0.29968,1.1741,-1.37634
-0.13932,0.98525,-0.09932,0.18674,0.06973,-0.79921
-0.11824,0.99014,-0.07503,-0.1315,-0.53126,-0.29511
-0.10862,0.992,-0.06423,-0.25879,-0.6253,-0.04635
-0.11111,0.99108,-0.07354,-0.12083,-0.09268,0.80131
-0.11859,0.98926,-0.08534,0.14184,0.38954,0.22465
-0.13672,0.98895,-0.05717,0.19746,1.53705,-1.051
-0.12482,0.98882,-0.08149,0.33233,-0.32152,1.8011
-0.10148,0.98045,-0.16852,0.26524,-1.08789,0.8524
-0.09924,0.97231,-0.21152,0.3022,-0.7041,0.77814
-0.11014,0.97673,-0.18398,-0.02495,0.63351,0.66312
-0.12754,0.98393,-0.12486,-0.02192,1.22477,-0.0289
-0.13554,0.98832,-0.06951,0.38029,0.6287,-0.44349
-0.13799,0.98911,-0.05106,0.12654,0.51388,-0.38994
-0.14203,0.98873,-0.04722,-0.57775,0.12175,-0.99193
-0.15475,0.98533,-0.07189,-0.43517,-0.05175,-0.69688
-0.17444,0.97743,-0.11907,-0.15909,-0.29392,-0.3143
-0.20082,0.96392,-0.17467,0.22915,-0.60707,0.41449
-0.22595,0.94872,-0.22106,0.25428,-0.59186,0.46088
-0.23064,0.93959,-0.2529,0.39815,-1.01401,0.57231
-0.21995,0.93552,-0.27644,0.32887,-1.18028,0.4584
-0.21047,0.93185,-0.29554,0.41113,-1.10987,0.52017
-0.19609,0.93102,-0.3078,0.84569,-0.86692,0.42839
-0.18415,0.93351,-0.30762,0.48736,-0.79011,0.31676
-0.17158,0.93993,-0.2951,0.27635,-0.65088,0.20499
-0.16335,0.94955,-0.26768,0.11054,-0.34601,0.09204
-0.16001,0.96011,-0.22929,-0.36974,0.25599,0.06719
-0.15699,0.9705,-0.18294,-0.39871,0.54378,0.01845
-0.15175,0.97811,-0.14234,-0.14019,1.00449,-0.15408
-0.14732,0.98263,-0.11277,-0.02255,0.96975,-0.9064
-0.14029,0.98635,-0.08608,0.10933,0.32767,-1.09804
-0.13135,0.98885,-0.06999,0.24564,-0.13906,-0.75028
-0.12476,0.98865,-0.08363,-0.10925,0.02247,0.65995
-0.1156,0.98862,-0.09618,-0.35517,0.32844,0.63137
-0.11362,0.98877,-0.09703,0.14977,0.01232,0.1351
-0.10842,0.99252,-0.05589,-0.85093,5.96367,-5.36346
-0.09846,0.99214,-0.07708,0.68062,1.95749,-1.1565
-0.08528,0.98483,-0.15108,0.48413,-1.04742,1.08788
-0.08171,0.976,-0.20182,0.3503,-0.62001,0.65206
-0.09679,0.9799,-0.17438,0.14573,0.03,0.88064
-0.11193,0.98795,-0.10685,0.08715,1.40532,-0.59963
-0.11723,0.99086,-0.06662,0.31404,0.83556,-1.01638
-0.11923,0.98977,-0.07826,-0.12107,0.38413,-0.64693
-0.11719,0.98806,-0.09991,-0.78523,0.0302,-0.64697
-0.12885,0.9797,-0.15351,-0.51962,-0.03064,-0.55122
-0.14995,0.9621,-0.22772,-0.13916,-0.5405,0.48956
-0.17549,0.93829,-0.29801,0.11821,-0.65131,0.79761
-0.20224,0.91711,-0.34351,0.49027,-1.0559,0.69006
-0.19783,0.90668,-0.37253,0.73668,-1.40607,0.78639
-0.18932,0.90048,-0.39152,0.38347,-1.16751,0.81692
-0.18219,0.89633,-0.40421,0.49878,-0.97844,0.65651
-0.16479,0.90231,-0.39833,0.61242,-0.66534,0.50527
-0.14094,0.9186,-0.36918,0.34205,-0.41582,0.34397
-0.12153,0.94148,-0.31437,0.34279,-0.19011,0.37626
-0.12058,0.96246,-0.24316,-0.11345,0.24595,0.25004
-0.13377,0.97455,-0.17983,-0.61367,1.49197,-0.39877
-0.13804,0.98056,-0.13939,0.05721,1.21638,-0.80709
-0.13474,0.98366,-0.11935,0.10114,0.56988,-1.39196
-0.12015,0.98804,-0.09657,-0.1051,0.04211,-0.92601
-0.09788,0.99301,-0.06585,-0.20389,-0.17462,-0.44214
-0.08481,0.99409,-0.0676,-0.0921,-0.18443,1.02978
-0.08305,0.99229,-0.09193,-0.35956,0.26124,0.81622
-0.09408,0.99043,-0.10095,0.60924,-0.24184,0.12149
-0.10095,0.99167,-0.07993,0.63456,-0.00487,0.02557
-0.09235,0.99471,-0.0448,0.02112,2.37214,-3.69611
-0.07251,0.99358,-0.08677,0.14006,-0.71866,0.77611
-0.06232,0.98826,-0.13944,0.2957,-0.85337,0.76043
-0.06092,0.98535,-0.15927,0.02465,-0.35786,0.65649
-0.06938,0.98931,-0.12824,-0.21784,0.46904,0.44628
-0.08451,0.99341,-0.07738,-0.02966,0.90839,-0.10861
-0.09852,0.9942,-0.04294,0.32587,0.70119,-1.30601
-0.10305,0.99297,-0.05817,-0.30203,0.3903,-0.73965
-0.10434,0.9907,-0.08729,-0.53062,-0.00347,-0.79725
-0.11231,0.98251,-0.14846,-0.42752,-0.08476,-0.5265
-0.12618,0.96577,-0.22661,-0.07917,-0.25461,0.3558
-0.14302,0.94461,-0.29538,-0.06522,-0.39515,0.68138
-0.15477,0.92593,-0.34452,0.35991,-0.68609,0.8779
-0.15632,0.91004,-0.38391,0.60174,-1.19358,0.9818
-0.14769,0.89947,-0.41126,0.44439,-1.51531,0.84261
-0.14185,0.89477,-0.42339,0.57849,-0.73922,0.56524
-0.12845,0.90063,-0.41516,0.51835,-0.49131,0.47714
-0.10812,0.91527,-0.38805,0.18556,-0.30474,0.38211
-0.09385,0.93574,-0.33995,0.17394,-0.08018,0.38657
-0.09181,0.95748,-0.27349,-0.11779,0.38423,0.1083
-0.11377,0.97194,-0.20587,-0.29011,1.36179,-0.4531
-0.13146,0.97764,-0.16409,-0.02586,2.03078,-0.88803
-0.12184,0.97913,-0.16262,0.28576,0.14685,-1.59245
-0.09831,0.98461,-0.14444,-0.18706,-0.27258,-0.78911
-0.06787,0.99169,-0.10919,-0.51012,-0.34768,-0.89703
-0.04925,0.9946,-0.09122,-0.22977,-0.21087,1.02497
-0.05036,0.993,-0.10682,-0.13324,0.06868,0.87211
-0.06707,0.99034,-0.12132,0.06252,0.36565,0.56044
-0.0908,0.98562,-0.14248,0.49513,0.14286,0.34715
-0.10999,0.98861,-0.10268,0.21079,2.5157,-3.27716
-0.11905,0.98933,-0.08389,0.06957,0.30761,1.35122
-0.11273,0.98331,-0.14277,0.30946,-0.40212,0.28117
-0.10485,0.98126,-0.1616,0.36646,0.05482,0.61505
-0.10599,0.98593,-0.12918,-0.12945,0.36342,0.70207
-0.1152,0.99062,-0.07339,0.09695,0.67578,-0.2262
-0.12797,0.9917,-0.0119,0.03829,0.5101,-0.78794
-0.13472,0.99067,0.02014,-0.04762,0.27025,-0.80379
-0.14196,0.98955,0.02485,0.00572,-0.0501,-0.67836
-0.14973,0.98859,0.01587,0.05229,-0.13665,-0.73039
-0.1643,0.98632,-0.01298,0.18711,-0.28751,-0.69527
-0.18102,0.98167,-0.05956,0.34349,-0.58166,0.12099
-0.19029,0.97596,-0.1062,0.35277,-0.57595,0.16763
-0.18738,0.97226,-0.13992,0.12645,-0.71633,0.55582
-0.17072,0.97196,-0.16167,0.00283,-1.12604,0.53931
-0.15268,0.97176,-0.17985,-0.09483,-1.08822,0.4399
-0.14165,0.96926,-0.20112,-0.07536,-0.95628,0.35224
-0.13126,0.96519,-0.22619,0.48649,-0.2213,-0.04761
-0.11306,0.9648,-0.23741,0.48166,0.01693,0.05427
-0.10664,0.96462,-0.24109,0.48471,0.22601,0.11993
-0.11426,0.96381,-0.24084,-0.13606,0.87639,0.06056
-0.12854,0.96363,-0.23428,-0.45591,0.82615,-0.07292
-0.14936,0.96445,-0.21798,-0.62618,0.69268,-0.23084
-0.17392,0.96725,-0.18484,-0.31473,0.23868,-0.49579
-0.19305,0.97069,-0.14314,-0.26756,0.26074,-0.44412
-0.2082,0.97203,-0.10859,-0.14098,0.35226,-0.44427
-0.22322,0.97092,-0.08643,-0.01526,0.47657,-0.58611
-0.23519,0.96916,-0.07352,0.21124,0.53428,-0.75671
-0.23588,0.96949,-0.06659,0.13467,0.46076,-0.8897
-0.23122,0.97082,-0.06352,-0.00196,0.22852,-0.67597
-0.22417,0.97225,-0.06687,0.21384,-0.23409,-0.28361
-0.21854,0.97298,-0.0744,0.4684,-0.73641,-0.10283
-0.21723,0.97291,-0.07902,0.35523,-0.72718,-0.03887
-0.21788,0.97311,-0.07462,0.30066,-0.6685,0.02571
-0.21481,0.97454,-0.06417,0.25581,-0.50161,-0.0133
-0.21007,0.976,-0.05726,0.3556,-0.56162,-0.14326
-0.20739,0.97611,-0.06466,-0.26455,-0.12554,0.0913
-0.21643,0.9737,-0.07107,0.47505,-0.21958,1.19602
-0.22012,0.97389,-0.05548,0.87945,-0.52386,1.53735
-0.21488,0.97616,-0.03034,0.73367,1.57453,1.12192
-0.19992,0.97922,-0.03398,0.36581,2.50771,0.08624
-0.18184,0.9831,-0.02068,0.12972,2.66424,-1.20831
-0.17134,0.98464,-0.03338,0.00296,0.26006,0.69258
-0.16503,0.9851,-0.04836,0.10076,0.08342,0.68169
-0.14782,0.98821,-0.03979,0.08367,0.21098,0.61835
-0.12607,0.992,-0.0054,-0.0074,0.0521,0.3749
-0.10733,0.9933,0.04258,0.03178,-0.13524,0.14898
-0.09006,0.99138,0.09507,0.14393,-0.23552,0.01203
-0.07032,0.98714,0.14352,0.10407,-0.22373,-0.16491
-0.04949,0.98157,0.18453,-0.06622,-0.28869,-0.22983
-0.03058,0.97483,0.22079,-0.3116,-0.30844,-0.24075
-0.01428,0.9659,0.25848,-0.46217,-0.3776,-0.36598
-0.00539,0.95576,0.29406,-0.38854,-0.41154,-0.36412
-0.01198,0.94772,0.31885,-0.12612,-0.3174,-0.31494
-0.03297,0.94381,0.3288,0.05223,-0.0959,-0.30303
-0.05871,0.94009,0.3358,0.09202,0.07759,-0.31622
-0.0833,0.93252,0.35136,0.30855,0.25813,-0.45277
-0.09891,0.92248,0.37313,0.46483,0.27537,-0.48828
-0.10288,0.91865,0.38142,0.69545,0.35125,-0.38511
-0.09552,0.91822,0.38436,0.04045,0.42928,-0.34029
-0.09198,0.91273,0.39805,0.08024,0.50203,-0.46504
-0.09492,0.90988,0.40384,0.18758,0.43702,-0.55772
-0.09726,0.91404,0.39377,0.84561,0.82884,-0.38584
-0.09035,0.92466,0.3699,0.91093,0.73821,-0.28042
-0.0789,0.93865,0.33569,0.73059,0.62922,-0.09665
-0.06898,0.95465,0.28961,-0.37113,0.13341,-0.30251
-0.07038,0.97013,0.23213,-0.18311,0.054,-0.23422
-0.077,0.98174,0.17391,0.10193,0.05659,-0.13863
-0.08309,0.99011,0.11298,0.33163,0.32257,0.38733
-0.0825,0.99523,0.0519,0.35079,0.30799,0.57793
-0.07771,0.99697,-0.00196,0.34952,0.34211,0.66261
-0.07462,0.99609,-0.0471,0.319,0.20101,0.33044
-0.07556,0.99372,-0.08244,0.31824,0.12457,0.31911
-0.08337,0.98975,-0.11592,0.33215,0.07129,0.29879
-0.09561,0.98355,-0.1532,0.23467,-0.02544,0.36708
-0.10304,0.97664,-0.18852,0.25396,-2e-05,0.39276
-0.10385,0.97087,-0.21591,0.29238,-0.04463,0.53286
-0.10746,0.96494,-0.23945,0.23487,-0.08884,0.64393
-0.11765,0.95723,-0.26431,0.2228,-0.09492,0.65834
-0.12892,0.94889,-0.28806,0.03074,-0.14228,0.50344
-0.13483,0.94185,-0.30779,-0.10637,-0.18069,0.41193
-0.1343,0.93771,-0.32039,-0.15123,-0.19681,0.40837
-0.12761,0.93686,-0.32559,-0.14917,-0.25253,0.42477
-0.11784,0.93804,-0.32586,-0.0788,-0.30073,0.42386
-0.10674,0.94083,-0.32163,-0.06644,-0.33502,0.3707
-0.09531,0.94566,-0.31087,-0.07725,-0.32127,0.30412
-0.08573,0.95181,-0.29445,-0.04421,-0.25337,0.12077
-0.07994,0.95824,-0.27454,-0.08013,-0.1677,-0.10214
-0.08009,0.964,-0.25353,-0.10729,0.03427,-0.38758
-0.08563,0.96746,-0.23807,0.03806,0.52741,-0.86868
-0.0926,0.9662,-0.24058,0.09312,0.67563,-0.83365
-0.09434,0.96144,-0.2583,0.0908,0.32812,-0.34439
-0.08701,0.95674,-0.27762,0.05636,0.0494,-0.15699
-0.07461,0.95354,-0.29188,0.05605,-0.21284,-0.16497
-0.0667,0.95337,-0.29433,0.07622,-0.22243,-0.05106
-0.06304,0.95449,-0.29149,0.12259,0.53387,-0.21849
-0.04994,0.95152,-0.30348,0.1511,1.3851,0.193
-0.03051,0.94655,-0.32108,-0.29561,-0.40972,0.94166
-0.01483,0.94719,-0.32031,-0.50429,-1.01444,0.81097
-0.00654,0.95091,-0.30938,-0.45793,-0.85376,0.61405
-0.0118,0.95584,-0.29364,-0.23666,0.16544,0.56289
-0.0293,0.95883,-0.28245,-0.22398,0.34224,0.54489
-0.05971,0.95864,-0.27828,-0.15177,0.21809,0.43166
-0.09329,0.95776,-0.272,0.24854,0.20018,0.1643
-0.10199,0.96061,-0.25848,0.26261,0.20475,0.0657
-0.09453,0.9642,-0.24775,0.10315,0.19495,0.01313
-0.09255,0.96707,-0.23706,0.05895,0.14971,0.13663
-0.09569,0.97097,-0.21919,0.22252,0.1384,0.08293
-0.09574,0.97541,-0.19848,0.29227,0.04937,0.09509
-0.09373,0.97981,-0.17659,0.21208,-0.00169,0.09488
-0.0924,0.98374,-0.154,-0.11456,0.01245,0.11817
-0.09056,0.98712,-0.13184,-0.17955,0.02426,0.07349
-0.08963,0.98983,-0.11039,-0.21713,0.03331,0.02438
-0.09282,0.9914,-0.09224,-0.08529,0.02768,-0.20976
-0.09925,0.99187,-0.07954,-0.02418,0.04142,-0.28889
-0.10716,0.99162,-0.07211,0.06325,0.07058,-0.40705
-0.11546,0.9905,-0.07458,0.07968,0.02714,-0.39567
-0.12432,0.98792,-0.09249,-0.00964,-0.04178,-0.40871
-0.13258,0.98288,-0.12789,-0.08222,0.02339,-0.67621
-0.13481,0.9725,-0.18992,-0.0896,0.04588,-0.50394
-0.13767,0.95293,-0.27011,-0.09102,-0.13317,0.25437
-0.13499,0.92836,-0.34629,0.10694,-0.60405,0.95245
-0.12773,0.90561,-0.40442,0.32564,-0.86972,0.82237
-0.12385,0.88613,-0.44658,0.34448,-0.91376,0.82339
-0.11736,0.86233,-0.49256,0.32766,-0.98229,0.62439
-0.10627,0.84229,-0.52844,0.36061,-0.53598,0.63091
-0.09199,0.83024,-0.54976,0.31319,-0.36661,0.61304
-0.07645,0.82861,-0.55458,0.03336,-0.15008,0.45674
-0.06019,0.84312,-0.53434,-0.05692,-0.08358,0.46006
-0.04347,0.87141,-0.48862,-0.33975,0.00408,0.42322
-0.03053,0.90468,-0.42499,-0.4694,0.22612,0.15566
-0.03466,0.93799,-0.34492,-0.31199,0.28908,-0.23247
-0.04821,0.9626,-0.26657,0.03608,2.06628,-0.85521
-0.04846,0.97297,-0.22578,0.32988,0.65154,-1.07532
-0.02754,0.97955,-0.1993,-0.01319,0.07789,-0.54254
-0.00356,0.9826,-0.18568,-0.30122,-0.41488,-0.23725
0.01023,0.98324,-0.182,-0.17254,-0.5062,0.19969
0.02045,0.97942,-0.20076,-0.37594,-0.17193,1.07263
0.02533,0.97422,-0.22415,-0.33862,-0.04771,0.52854
0.01514,0.97332,-0.22893,-0.42119,2.20846,-1.45022
0.00505,0.9797,-0.2004,0.55373,1.28857,0.11823
0.0498,0.9659,-0.25406,0.20873,-1.04152,1.04605
0.07014,0.94827,-0.30961,0.10226,-1.02589,0.58294
0.05915,0.94816,-0.31221,-0.17973,0.21042,1.03366
0.03421,0.96178,-0.27166,-0.21084,0.7527,0.68018
0.01478,0.9751,-0.22126,0.29941,0.88913,-0.4087
0.0089,0.97981,-0.1997,0.08117,0.50754,0.01733
0.01209,0.98286,-0.18391,-0.25946,0.32728,-0.1207
0.00515,0.98313,-0.18282,-0.54044,0.09867,-0.61926
-0.01326,0.97717,-0.21203,-0.1792,-0.1042,-0.66926
-0.0295,0.96587,-0.25732,-0.10774,-0.22098,-0.40186
-0.03872,0.94998,-0.30988,-0.08675,-0.3212,-0.01927
-0.05186,0.92968,-0.36469,-0.13578,-0.52685,0.83308
-0.0695,0.90824,-0.41264,0.07406,-0.61342,0.82708
-0.07041,0.89007,-0.45034,0.29329,-0.76379,0.80787
-0.06026,0.87677,-0.47711,0.16791,-1.18224,0.63202
-0.05339,0.86471,-0.49942,0.15704,-1.12862,0.62329
-0.03559,0.85714,-0.51384,0.27103,-0.94767,0.60092
-0.01724,0.8588,-0.51201,0.3128,-0.41831,0.40944
-0.00075,0.87113,-0.49104,0.237,-0.32299,0.37181
0.00286,0.89227,-0.45148,0.11149,-0.06095,0.34242
-0.00983,0.91634,-0.40028,-0.18768,0.29787,0.28624
-0.03067,0.93248,-0.35991,-0.5203,1.08037,-0.28658
-0.04006,0.945,-0.32459,-0.57863,1.41003,-0.57987
-0.03628,0.9552,-0.29373,-0.16073,0.8621,-0.88452
-0.02977,0.96386,-0.26471,-0.20895,0.07375,-0.75023
-0.01186,0.97169,-0.23596,-0.47909,-0.26595,-0.24906
0.00377,0.97754,-0.21072,-0.55153,-0.26126,-0.41665
0.01144,0.97998,-0.19875,-0.49818,-0.09975,0.52861
0.01035,0.97805,-0.20807,-0.14821,-0.01303,0.81748
0.00342,0.97746,-0.21105,0.22985,-0.03154,0.5398
-0.00583,0.97977,-0.2,0.18956,2.84155,-2.85098
-0.00391,0.98158,-0.19099,0.13402,0.61814,0.34404
0.0308,0.97011,-0.24068,0.0437,-0.94698,1.19422
0.05413,0.95166,-0.30234,-0.13509,-0.8694,0.98294
0.05208,0.94456,-0.32418,-0.44931,0.30525,0.72419
0.02468,0.95667,-0.29012,-0.19157,0.92215,0.4971
-0.00351,0.97156,-0.23674,0.29284,0.79122,-0.65563
-0.01211,0.97488,-0.2224,0.07473,0.34248,-0.04969
-0.00128,0.97887,-0.20445,-0.30524,0.11788,0.00585
0.00127,0.98291,-0.18406,-0.29587,0.08629,-0.18793
-0.01297,0.98372,-0.17921,-0.17192,0.2731,-0.37322
-0.03176,0.98108,-0.19097,-0.17186,0.29434,-0.61199
-0.04748,0.97386,-0.22213,-0.19719,0.09913,-0.57977
-0.05892,0.96156,-0.26819,-0.03983,-0.19175,-0.05072
-0.06875,0.94352,-0.3241,-0.06045,-0.47351,0.42304
-0.07702,0.9231,-0.37676,-0.04814,-0.67759,0.71465
-0.08042,0.90379,-0.42034,0.28988,-0.8986,0.67487
-0.07021,0.88764,-0.45515,0.42856,-1.06155,0.55154
-0.05772,0.87382,-0.4828,0.23168,-0.97096,0.69063
-0.04631,0.86186,-0.50502,0.30109,-0.847,0.68698
-0.0307,0.85553,-0.51683,0.40566,-0.67943,0.62097
-0.01052,0.85843,-0.51282,0.22016,-0.51816,0.54832
0.01261,0.87171,-0.48986,0.11961,-0.43958,0.44355
0.02973,0.89609,-0.44287,0.01306,-0.19121,0.52384
0.03424,0.92475,-0.37903,-0.28125,0.26494,0.51641
0.00425,0.9466,-0.32236,-0.50428,0.80681,0.21822
-0.03287,0.96193,-0.2713,-0.42533,1.85225,-0.77475
-0.03595,0.96955,-0.24222,-0.03945,1.52833,-0.98875
-0.01362,0.97411,-0.22565,-0.52981,-0.03371,-0.70418
0.00402,0.97735,-0.21159,-0.87919,-0.41156,-0.64636
0.00692,0.97907,-0.20339,-1.06937,0.21324,-0.10421
0.01405,0.97996,-0.19869,0.07302,0.06046,1.56457
0.01802,0.98199,-0.18805,0.36609,0.01291,0.96532
0.00732,0.98198,-0.18884,0.53379,4.72515,-4.05673
0.02269,0.97611,-0.21608,0.34612,0.06555,1.7487
0.02778,0.9629,-0.26843,0.14397,-0.9742,1.00572
0.02061,0.95343,-0.30091,0.15071,-0.67173,0.96114
-0.00889,0.95841,-0.28523,-0.05585,-0.00855,0.53487
-0.03182,0.97051,-0.23893,0.0795,0.70821,-0.25713
-0.04061,0.97833,-0.20304,0.05193,0.53967,-0.13675
-0.03929,0.98402,-0.17367,-0.15042,0.22122,0.05825
-0.04024,0.98927,-0.14044,-0.33389,0.02613,-0.12807
-0.04754,0.9926,-0.11168,-0.26232,0.0544,-0.50513
-0.05233,0.99324,-0.10354,-0.05396,0.30178,-0.67606
-0.05059,0.99199,-0.11572,0.12733,0.20299,-0.50561
-0.04585,0.98855,-0.14372,0.25937,-0.0827,-0.36085
-0.03814,0.98169,-0.18661,0.41971,-0.52275,-0.18184
-0.02215,0.97203,-0.2338,0.2799,-0.50984,-0.06329
-0.00515,0.9618,-0.27369,-0.15006,-0.61234,0.49192
0.01357,0.95376,-0.30024,-0.01652,-1.30783,0.87153
0.02327,0.94451,-0.32766,-0.04162,-1.41764,0.74294
0.01605,0.9357,-0.35242,-0.15572,-1.25473,0.65761
0.01137,0.93131,-0.36405,0.10798,-0.942,0.54958
0.01227,0.92981,-0.36783,0.15234,-0.94398,0.43055
0.01612,0.93182,-0.36256,-0.1111,-0.63787,0.35342
0.01772,0.93929,-0.34266,-0.21424,-0.18738,0.37124
0.00498,0.95144,-0.30779,-0.14306,0.23899,0.40264
-0.03688,0.96429,-0.26227,-0.40649,1.29156,-0.01072
-0.09389,0.96458,-0.24651,-0.65874,2.05657,-0.54892
-0.10931,0.95641,-0.27078,0.07917,1.93429,-1.90626
-0.10136,0.95447,-0.28056,-0.49936,-0.21139,-0.58977
-0.07558,0.95764,-0.27787,-0.37463,-0.84181,-0.52919
-0.04293,0.95999,-0.27672,-0.80049,-0.7299,1.09479
-0.03382,0.96285,-0.2679,-0.26811,0.2257,1.36896
-0.05836,0.96266,-0.26434,0.2738,1.03569,1.34097
-0.0756,0.96366,-0.25619,0.60161,2.37096,0.42287
-0.09073,0.97256,-0.21421,0.57402,1.74018,-2.00422
-0.0918,0.95858,-0.2696,0.0935,-0.10392,1.05437
-0.0848,0.94862,-0.30484,-0.12891,-0.28686,0.81125
-0.06863,0.95441,-0.29048,-0.31046,0.26858,0.99098
-0.05566,0.9666,-0.25017,-0.20133,0.63181,0.65406
-0.05453,0.97767,-0.20291,-0.1879,0.46277,0.43849
-0.0551,0.9872,-0.14964,-0.21745,0.10039,0.30317
-0.0501,0.9945,-0.09191,-0.22909,-0.20831,0.19645
-0.04297,0.99849,-0.03409,-0.29551,-0.36287,-0.15349
-0.03887,0.99918,0.0112,-0.19342,-0.48332,-0.27587
-0.03812,0.99846,0.04015,-0.05111,-0.45693,-0.18865
-0.04156,0.99729,0.06063,-0.02082,-0.40537,-0.0957
-0.04877,0.99584,0.07689,0.01209,-0.37255,0.07112
