gravity.x,gravity.y,gravity.z,userAcceleration.x,userAcceleration.y,userAcceleration.z
0.41987,0.82954,-0.3682,0.0244,0.68372,0.37468
0.4457,0.79532,-0.41087,-0.29903,0.27333,0.75847
0.47071,0.77117,-0.42864,-0.13186,0.08334,0.40967
0.48002,0.76145,-0.43563,-0.16535,0.05688,0.38277
0.48526,0.76256,-0.42781,-0.29402,0.01896,0.2911
0.48916,0.77045,-0.40881,-0.43112,0.01167,0.19415
0.48628,0.78198,-0.38991,-0.50909,-0.05394,0.11736
0.47226,0.79947,-0.37123,-0.55536,-0.1594,0.11337
0.44802,0.82246,-0.35047,-0.56704,-0.12775,0.15345
0.41703,0.84894,-0.32462,-0.44725,-0.09081,0.15462
0.38441,0.87653,-0.28969,-0.25357,-0.09057,0.11531
0.34793,0.90361,-0.24985,-0.06323,-0.16771,-0.09626
0.30586,0.92771,-0.21399,0.12709,-0.06832,-0.09142
0.27242,0.94478,-0.18213,0.83388,0.03059,-0.32933
0.25199,0.95438,-0.16019,0.96218,-0.09464,-0.36785
0.23725,0.96057,-0.14497,0.60926,-0.28841,-0.25445
0.23156,0.96321,-0.13639,0.2998,-0.52689,0.05789
0.23267,0.96388,-0.1296,0.07189,-0.7738,0.08282
0.24193,0.96219,-0.12512,-0.15225,-0.66143,-0.94906
0.2553,0.95448,-0.15425,-0.60146,-0.01034,-0.2711
0.28552,0.94065,-0.18347,-0.05873,2.10634,-0.43308
0.28665,0.94192,-0.17498,1.16207,2.73414,-0.78835
0.26351,0.95036,-0.16547,-0.25091,-1.11918,-0.04524
0.2987,0.93311,-0.2002,-0.2508,-0.22454,0.61475
0.33791,0.91108,-0.23612,-0.23874,0.07887,0.60811
0.35098,0.89916,-0.2614,-0.18513,0.38159,0.31048
0.34191,0.90333,-0.25902,-0.08498,0.19174,0.20407
0.32645,0.91683,-0.22988,-0.04201,0.19045,0.08564
0.30934,0.93473,-0.17488,0.45027,0.04204,-0.43741
0.30193,0.94454,-0.12918,0.21272,-0.09139,-0.67172
0.30667,0.94155,-0.13942,-0.00945,0.00608,-0.3094
0.30832,0.94015,-0.14507,0.52589,-0.01611,-0.55315
0.31877,0.93375,-0.16277,0.63243,0.02003,-0.65074
0.3421,0.91887,-0.19658,0.16797,0.07031,-0.32091
0.36879,0.8962,-0.24664,-0.12626,-0.17217,0.06511
0.39764,0.86734,-0.29934,-0.21991,-0.15933,0.1329
0.42518,0.83182,-0.35679,-0.30212,-0.09342,0.43191
0.45178,0.79376,-0.40723,-0.39487,0.17192,0.75505
0.47674,0.76297,-0.43658,-0.37217,0.49913,0.79387
0.4871,0.7534,-0.44172,-0.03438,0.55899,0.63238
0.49041,0.76139,-0.42402,0.0107,0.32411,0.24079
0.49668,0.77394,-0.39284,-0.06147,0.03468,0.19409
0.49397,0.78858,-0.36625,-0.35649,-0.20134,0.00194
0.47519,0.80972,-0.34431,-0.54326,-0.12126,0.04152
0.44252,0.83677,-0.32247,-0.52098,-0.1017,0.01717
0.40299,0.86579,-0.29666,-0.42783,-0.03797,0.01746
0.36381,0.89406,-0.26133,-0.11261,0.29388,0.00091
0.32241,0.91908,-0.22657,-0.19981,0.34302,-0.18654
0.27975,0.93982,-0.19615,-0.05859,0.1864,-0.36187
0.24177,0.95801,-0.15416,0.81106,-0.20455,-0.29843
0.22347,0.96684,-0.12362,0.65335,-0.24511,-0.23681
0.21271,0.97024,-0.11575,0.51494,-0.17701,-0.14812
0.20992,0.97125,-0.1123,0.33169,-0.06002,-0.13575
0.20713,0.97293,-0.10254,0.12819,-0.17019,-0.1702
0.20397,0.97475,-0.09086,-0.01783,-0.45218,-0.0868
0.20141,0.97598,-0.08299,-0.16619,-0.68309,0.07563
0.19963,0.97622,-0.08446,-0.22733,-0.84262,-0.01349
0.20667,0.97276,-0.10496,-0.35945,-0.92294,-0.73087
0.21843,0.96681,-0.13253,-0.04952,0.28488,0.66249
0.22808,0.96076,-0.15784,-0.11814,1.27976,0.47637
0.23132,0.96104,-0.15129,0.14791,0.67899,0.03953
0.21799,0.9694,-0.11288,0.76702,1.24642,-0.96287
0.18966,0.97835,-0.08287,0.30221,-0.55447,0.02357
0.20716,0.97185,-0.11219,-0.01917,-0.18885,0.30646
0.23142,0.96202,-0.14478,-0.12924,0.13997,0.28872
0.23343,0.95791,-0.16707,-0.14984,-0.13803,0.52732
0.21954,0.96058,-0.17053,-0.22151,-0.30613,0.62084
0.19433,0.96934,-0.15039,-0.20713,-0.11082,0.25206
0.16999,0.97831,-0.11836,0.06244,0.22825,0.18888
0.14517,0.98725,-0.06533,0.41097,0.37556,-0.15806
0.12674,0.99166,-0.02329,0.65885,-0.21989,-1.15892
0.13508,0.98952,-0.05096,0.27416,-0.03395,-1.57621
0.12813,0.98929,-0.06985,0.24966,-0.05564,-0.28061
0.11358,0.98759,-0.1085,0.41278,-0.02602,-0.53819
0.10253,0.98205,-0.15829,0.49269,0.14777,-0.28684
0.10616,0.97011,-0.21819,0.76331,0.53799,0.25926
0.11819,0.95168,-0.28342,0.50279,0.38502,0.87195
0.13622,0.93089,-0.33896,0.43431,0.64423,1.22691
0.16654,0.90783,-0.38485,0.37491,1.13105,1.42953
0.21133,0.88791,-0.40859,0.1042,0.96064,0.8202
0.24202,0.88765,-0.3918,0.03505,0.32239,0.50625
0.26105,0.90072,-0.34721,0.03984,0.20043,0.39929
0.27763,0.9149,-0.29304,-0.03383,0.04872,0.29414
0.29085,0.92576,-0.24159,-0.00465,0.10427,0.20472
0.29722,0.93512,-0.1929,0.19484,0.11752,0.10451
0.29932,0.94161,-0.1542,0.31808,0.14976,0.02925
0.29348,0.94629,-0.13566,0.06266,0.09103,0.20627
0.2843,0.94963,-0.13179,-0.23228,0.02435,0.02882
0.26904,0.95378,-0.13389,-0.37068,-0.14016,-0.01273
0.2515,0.95748,-0.14134,-0.32613,-0.19172,0.05188
0.23829,0.95941,-0.15081,-0.24519,-0.13452,-0.01638
0.23252,0.95935,-0.15996,-0.1789,-0.12965,-0.03555
0.23194,0.95806,-0.16831,-0.11834,-0.18726,-0.01988
0.23173,0.95678,-0.17572,-0.08189,-0.26557,0.12578
0.23033,0.95584,-0.18255,-0.05476,-0.2564,0.16933
0.22597,0.95588,-0.18769,-0.00723,-0.22653,0.09313
0.21745,0.95757,-0.18913,0.21701,-0.24241,0.07846
0.2077,0.95967,-0.18944,0.48216,-0.20107,0.21005
0.20018,0.96139,-0.1888,0.7082,-0.18808,0.11495
0.19849,0.96249,-0.18495,0.6615,-0.19322,0.03568
0.20166,0.96237,-0.18211,0.36126,-0.15314,0.09541
0.20893,0.96173,-0.17726,-0.08721,0.36141,0.1449
0.2167,0.96018,-0.17633,-0.09337,1.52,-0.83793
0.22451,0.95876,-0.17428,-0.14695,1.337,-0.17962
0.23137,0.95109,-0.20466,-0.37272,-0.32142,0.60758
0.22972,0.94054,-0.25024,-0.38237,-0.45535,0.83537
0.21725,0.93374,-0.28448,-0.32763,-0.49572,1.0813
0.19772,0.93394,-0.29776,-0.01758,0.08907,1.00558
0.1691,0.93681,-0.30624,0.20771,0.37436,0.94584
0.14145,0.94505,-0.29475,0.67491,0.62644,0.65885
0.12146,0.96299,-0.24062,0.09003,0.19538,0.27315
0.1076,0.97875,-0.17458,-0.07726,0.10495,0.17548
0.09961,0.98769,-0.12064,-0.4982,0.06912,-0.37517
0.09567,0.99252,-0.07577,-0.49426,0.06428,-0.42004
0.08921,0.99484,-0.04832,-0.32099,0.25226,-0.25492
0.07604,0.99637,-0.03828,0.15331,-0.09256,0.04695
0.06245,0.99749,-0.03323,0.23077,-0.21568,0.17044
0.05356,0.99833,-0.02161,0.27729,-0.2918,0.13479
0.04708,0.99887,-0.00601,0.0517,-0.19943,0.14159
0.03991,0.99913,0.01163,-0.12836,-0.11097,0.21671
0.02793,0.99903,0.03404,-0.16473,-0.08472,0.17349
0.01083,0.99821,0.05874,-0.08026,-0.09743,0.06532
-0.00907,0.99665,0.08128,0.00677,-0.10308,0.02962
-0.03038,0.99446,0.10057,0.21563,-0.09794,-0.0347
-0.05157,0.99183,0.11663,0.40329,-0.01819,-0.01563
-0.07028,0.98896,0.13042,0.5207,0.08533,-0.06255
-0.08345,0.98594,0.14475,0.61513,0.10743,-0.17275
-0.09033,0.98173,0.16746,0.68368,0.26958,-0.54643
-0.09561,0.9762,0.19465,0.698,0.27197,-0.55575
-0.0974,0.97365,0.20621,0.7813,0.21041,-0.59071
-0.09036,0.97759,0.19015,1.09947,0.38064,-0.53428
-0.0676,0.98648,0.1493,1.2032,0.22255,-0.69585
-0.03455,0.99433,0.10052,0.68445,0.25016,0.09978
0.00216,0.99898,0.04515,0.47384,0.52721,0.8114
0.04639,0.99875,-0.01872,0.39266,0.42525,0.95753
0.09418,0.99262,-0.0764,0.18743,0.45385,0.96867
0.13162,0.98443,-0.1165,-0.02766,0.51157,0.94919
0.16341,0.97613,-0.14305,-0.09024,0.40859,0.64198
0.19941,0.96684,-0.15952,-0.08694,0.38747,0.38673
0.23939,0.95531,-0.1734,-0.05234,0.28462,0.31617
0.27789,0.94229,-0.18673,-0.03059,0.0873,0.40462
0.31099,0.92948,-0.19836,-0.03619,0.03416,0.50823
0.33787,0.91871,-0.20446,-0.09367,0.0176,0.47807
0.35944,0.90949,-0.20886,-0.2335,-0.01331,0.31772
0.37703,0.90053,-0.21657,-0.27636,-0.06174,0.30656
0.38682,0.89415,-0.22554,-0.32642,-0.14966,0.39142
0.38924,0.89002,-0.23739,-0.50627,-0.25985,0.3307
0.38657,0.88846,-0.2474,-0.57611,-0.26657,0.33056
0.38267,0.88919,-0.2508,-0.67492,-0.3251,0.30957
0.38005,0.8925,-0.2429,-0.64559,-0.3742,0.27446
0.37645,0.8985,-0.22581,-0.62082,-0.36522,0.2431
0.37028,0.90604,-0.20491,-0.59468,-0.34154,0.14221
0.36006,0.91415,-0.18624,-0.45056,-0.2366,-0.14964
0.34014,0.92412,-0.1741,-0.35428,-0.2135,-0.27773
0.30921,0.93591,-0.1687,-0.18271,-0.18442,-0.20882
0.27732,0.94678,-0.16341,0.16787,-0.06798,0.01746
0.24944,0.95531,-0.15862,0.42389,-0.03171,-0.06628
0.23747,0.95782,-0.1618,0.61658,-0.01492,-0.09124
0.24054,0.9566,-0.16449,0.33856,-0.25807,0.09908
0.25067,0.95461,-0.16085,0.25499,-0.3083,-0.14372
0.26031,0.95335,-0.15285,0.03303,-0.28994,-0.13402
0.26505,0.95293,-0.14722,-0.06072,-0.27998,-0.07629
0.26344,0.95402,-0.14298,-0.1413,-0.43972,0.19168
0.2584,0.95557,-0.14183,-0.24035,-0.12027,0.48626
0.2499,0.95761,-0.14325,-0.32447,0.55505,0.09212
0.23843,0.9626,-0.12867,-0.48255,0.71993,0.90039
0.22547,0.96685,-0.11987,1.2596,4.28083,-4.49147
0.22541,0.96866,-0.10432,0.06785,0.32838,0.5162
0.25246,0.95283,-0.16848,-0.67206,0.00207,1.15827
0.29442,0.92986,-0.22062,-0.73396,-0.21494,1.05976
0.34117,0.90187,-0.26501,-0.68659,0.08652,1.01779
0.35771,0.88497,-0.29812,-0.24848,0.39409,0.546
0.33949,0.89401,-0.29239,0.06832,0.37455,0.49453
0.31348,0.91828,-0.24183,0.46059,0.05227,0.28776
0.28152,0.94747,-0.15179,0.44983,0.02677,0.19601
0.25553,0.96468,-0.06398,0.77065,-0.19081,-1.4227
0.25859,0.96429,-0.05717,0.01131,-0.10829,-0.70605
0.26282,0.96104,-0.08557,-0.28827,-0.10151,-0.2504
0.25226,0.96315,-0.09334,-0.15904,-0.31703,-0.06027
0.24106,0.967,-0.08247,0.05167,-0.30046,-0.34424
0.2361,0.96799,-0.08508,0.06181,-0.33109,-0.30022
0.23776,0.96633,-0.09835,0.35448,-0.20086,-0.29533
0.25138,0.96101,-0.11513,0.62063,0.01948,-0.73236
0.27997,0.94866,-0.14712,0.59203,0.03183,-0.70037
0.31284,0.92837,-0.20065,0.1274,-0.01603,-0.14841
0.34118,0.90211,-0.26417,-0.32533,-0.28563,0.48269
0.36385,0.87131,-0.3293,-0.50885,-0.48024,0.57457
0.37888,0.83743,-0.39391,-0.56073,-0.53862,0.66989
0.39486,0.80765,-0.43792,-0.31952,-0.24787,0.61586
0.41253,0.79282,-0.44862,0.10532,0.73244,0.79819
0.43239,0.79006,-0.43456,0.47665,1.53413,0.81142
0.4586,0.79753,-0.39196,-0.075,0.42463,-0.39714
0.48339,0.81013,-0.33169,-0.20091,0.21294,-0.53134
0.49439,0.82202,-0.2826,-0.50463,0.04866,-0.39772
0.48805,0.83734,-0.24633,-0.66128,-0.12197,-0.16543
0.47073,0.85593,-0.21399,-0.58676,-0.24773,-0.12106
0.44465,0.87845,-0.17493,-0.47866,-0.37488,0.01222
0.40973,0.90291,-0.12985,-0.2283,-0.11893,-0.19464
0.36509,0.9247,-0.10784,0.07465,0.1168,-0.53731
0.32989,0.93875,-0.09962,0.32249,0.15995,-0.28836
0.30645,0.9482,-0.08368,0.65336,0.36445,-0.03381
0.28871,0.95465,-0.07264,0.59067,-0.17156,0.06103
0.28149,0.95751,-0.06271,0.42525,-0.51055,0.04166
0.28243,0.95807,-0.0482,0.12978,-0.9455,-0.13005
0.28743,0.95716,-0.03499,0.01593,-1.03765,-0.32701
0.29485,0.9547,-0.04019,-0.35762,-0.94002,-0.73062
0.30273,0.95101,-0.06267,-0.3293,0.54122,0.18184
0.30721,0.94798,-0.08345,-0.32974,1.29833,0.17787
0.30213,0.94888,-0.0913,0.10235,2.06684,-0.18365
0.28192,0.95766,-0.05843,0.99355,-0.25769,0.13938
0.30359,0.9477,-0.0984,0.06644,-0.60994,0.62157
0.342,0.9291,-0.1407,-0.23765,-0.03851,0.47002
0.3621,0.91689,-0.16792,-0.19509,0.22987,0.39532
0.35776,0.91724,-0.17512,-0.17875,0.33494,0.4297
0.34336,0.9245,-0.16551,-0.12557,0.16703,0.30546
0.32656,0.93477,-0.13987,0.04757,0.22873,0.0326
0.31195,0.94672,-0.08001,0.13504,0.25585,-0.16178
0.31239,0.94924,-0.03683,0.39539,0.04609,-1.48699
0.334,0.94102,-0.05396,0.07057,0.2498,-0.51557
0.34959,0.9342,-0.07107,0.31986,0.14519,-0.67223
0.37237,0.92166,-0.10901,0.00645,-0.07618,-0.30009
0.40064,0.90303,-0.155,-0.12021,-0.26852,-0.26926
0.43391,0.87603,-0.21047,-0.2591,-0.21523,0.02324
0.45964,0.84282,-0.27997,-0.51679,-0.21857,0.50721
0.47516,0.80985,-0.34403,-0.44908,-0.1349,0.70246
0.4876,0.78085,-0.39054,-0.12173,0.55196,0.87343
0.49844,0.76824,-0.40169,0.26153,0.70405,0.678
0.51209,0.76285,-0.39475,-0.15235,0.28487,0.33796
0.52234,0.76126,-0.38425,-0.57481,0.02689,0.33314
0.52977,0.77051,-0.35448,-0.53284,0.0197,0.08167
0.52946,0.78891,-0.31191,-0.54853,-0.07961,-0.09313
0.5183,0.81244,-0.26702,-0.62426,-0.13977,-0.02485
0.49838,0.83743,-0.22434,-0.52888,-0.10899,-0.02676
0.46757,0.86437,-0.18507,-0.40645,-0.07315,-0.0711
0.42567,0.89167,-0.15401,-0.22038,-0.13598,-0.13087
0.38014,0.91517,-0.13399,0.17972,-0.08895,-0.33627
0.34162,0.93271,-0.11553,0.64958,0.16334,-0.21352
0.32196,0.94227,-0.09197,0.74279,0.20848,-0.28323
0.30358,0.95023,-0.06995,0.48457,-0.11182,-0.1576
0.29054,0.95544,-0.05206,0.28449,-0.35353,-0.05272
0.28513,0.9578,-0.03622,0.07757,-0.32551,-0.14676
0.28503,0.95825,-0.02254,-0.14581,0.02161,-0.31532
0.29155,0.95618,-0.02666,-0.39413,0.78729,0.13126
0.2975,0.95415,-0.03318,-0.32919,1.08878,-0.10934
0.29012,0.95663,-0.0263,-0.15882,1.7203,-0.12464
0.27987,0.95974,-0.02406,0.66677,-0.20409,-0.02692
0.29275,0.95366,-0.06945,0.03339,-0.50301,0.67463
0.32424,0.93869,-0.11716,0.02297,-0.42967,0.77332
0.35293,0.92363,-0.14952,-0.15513,0.26752,0.53769
0.35905,0.92153,-0.14788,-0.22888,0.37291,0.42691
0.34406,0.93112,-0.121,-0.28539,0.17814,0.22235
0.32476,0.9418,-0.08682,-0.04994,-0.06549,-0.0453
0.30318,0.95227,-0.03557,0.08339,-0.16144,-0.2377
0.27713,0.96057,0.02246,0.66441,-0.24762,-0.61904
0.26846,0.96304,0.02212,0.05835,-0.393,-0.31374
0.27291,0.96201,0.00672,-0.06597,-0.38401,0.08978
0.27388,0.96173,0.00822,0.02733,-0.26162,-0.24756
0.27335,0.96183,0.01231,0.11138,-0.24791,-0.53465
0.28146,0.95957,-0.00041,0.12902,-0.20379,-0.49594
0.29838,0.95425,-0.01935,0.04591,-0.09951,-0.26333
0.32107,0.94608,-0.04287,0.02736,-0.07774,-0.27885
0.34571,0.93527,-0.07581,-0.02196,-0.06955,-0.39798
0.37199,0.92039,-0.12041,0.49861,0.5291,-0.28467
0.40579,0.89526,-0.18395,0.51479,0.79231,0.00513
0.44033,0.86047,-0.25631,0.40334,0.84705,0.11906
0.46122,0.82402,-0.32903,-0.18043,0.61253,0.99799
0.48489,0.786,-0.38351,-0.17825,0.48893,0.82777
0.50344,0.76199,-0.40734,-0.55507,0.36398,0.6441
0.52252,0.7551,-0.39598,-0.50346,-0.16317,0.07869
0.53868,0.75318,-0.37755,-0.50932,-0.00359,0.05791
0.54406,0.75705,-0.36176,-0.59482,0.04227,0.17516
0.54174,0.76856,-0.34034,-0.51587,-0.12727,0.14496
0.53343,0.78575,-0.31312,-0.57534,-0.13313,0.23472
0.52239,0.80667,-0.27638,-0.57235,-0.17078,0.03594
0.50185,0.83126,-0.23906,-0.29036,-0.34181,-0.20839
0.46449,0.85997,-0.2114,-0.04461,-0.40123,-0.08467
0.41578,0.88952,-0.18943,0.2212,-0.39112,0.03336
0.36784,0.91419,-0.17015,0.4212,-0.40828,0.01094
0.33208,0.93065,-0.1537,0.75082,-0.22583,-0.11891
0.30949,0.94115,-0.13583,0.88367,-0.05166,-0.47254
0.29619,0.94848,-0.11247,0.6507,-0.02011,-0.07487
0.29298,0.9526,-0.08188,0.1856,-0.00097,0.02691
0.29898,0.95313,-0.04635,0.08374,0.07501,-0.20763
0.31289,0.94951,-0.02286,-0.50563,0.0998,-0.09733
0.32761,0.94424,-0.03277,-1.02242,0.75616,-0.03965
0.33409,0.9415,-0.0443,-1.02165,1.00162,-0.34882
0.33438,0.94159,-0.03988,-0.03903,0.88926,-0.72082
0.33563,0.94097,-0.04394,0.98798,0.53146,-0.19877
0.36036,0.92884,-0.08595,-0.17305,0.05431,0.61731
0.3862,0.91489,-0.11759,-0.07738,0.0934,0.46137
0.39131,0.91184,-0.12417,-0.02558,0.05204,0.23888
0.37937,0.91842,-0.11219,0.19884,-0.00259,0.20925
0.3606,0.92915,-0.08149,0.36054,0.11597,0.06303
0.3434,0.93785,-0.05016,0.07498,-0.05424,-0.76124
0.338,0.93961,-0.05381,-0.01547,-0.01038,-0.42986
0.33008,0.94204,-0.06008,0.0532,-0.0958,-0.18391
0.32558,0.94322,-0.06581,0.41053,-0.22064,-0.29636
0.33104,0.94099,-0.07033,0.25858,-0.18054,-0.28654
0.33983,0.93718,-0.07885,0.24646,-0.24771,-0.5149
0.35094,0.93128,-0.09771,0.30374,-0.19579,-0.44994
0.36941,0.91987,-0.13178,0.28055,-0.13931,-0.33683
0.39484,0.90137,-0.17786,-0.04764,0.00918,-0.00746
0.42076,0.87627,-0.23473,-0.23067,0.02065,0.21538
0.44063,0.84717,-0.2969,-0.27933,0.06941,0.36581
0.44941,0.81556,-0.36454,-0.41743,0.34997,0.83752
0.45283,0.79182,-0.40984,-0.17375,0.39777,0.9038
0.46557,0.78386,-0.41085,-0.17788,0.41265,0.64344
0.48198,0.78037,-0.3984,-0.40309,0.17215,0.17846
0.49454,0.78177,-0.37981,-0.45261,0.01836,0.13832
0.49978,0.79231,-0.34995,-0.4057,-0.07754,0.06491
0.49408,0.81119,-0.31281,-0.3956,0.00331,-0.11496
0.47448,0.8363,-0.2747,-0.3912,0.11061,-0.08382
0.44169,0.86498,-0.23816,-0.32993,0.15846,-0.06555
0.40357,0.89292,-0.19956,-0.09708,0.1489,-0.10713
0.36326,0.9172,-0.16365,-0.05941,0.19043,-0.30858
0.32001,0.93802,-0.1331,-0.00943,0.11153,-0.23483
0.28958,0.95234,-0.09584,0.8237,-0.16438,-0.72651
0.26693,0.96105,-0.07163,0.9251,-0.61845,-0.35911
0.25482,0.96446,-0.06985,0.68105,-0.9261,0.13273
0.25492,0.96379,-0.07822,0.55313,-1.15242,-0.01979
0.26718,0.96019,-0.08153,-0.03393,-0.61359,-0.97658
0.2889,0.95249,-0.09643,-1.1558,0.25819,0.54278
0.31594,0.9423,-0.11066,-0.66804,2.12343,0.07157
0.31351,0.94416,-0.1013,-0.26975,0.299,0.18822
0.30566,0.94834,-0.08501,0.13942,0.29292,-0.17053
0.28464,0.95723,-0.05184,1.29058,0.76517,-0.36674
0.26482,0.96377,-0.03194,0.91558,-0.00077,-0.17651
0.27645,0.95947,-0.05472,-0.05952,0.00089,0.42041
0.28438,0.9555,-0.07835,-0.09531,-0.08694,0.33384
0.2788,0.95677,-0.08283,-0.17185,-0.29486,0.29463
0.2695,0.96059,-0.06811,0.03694,-0.25717,0.0164
0.26591,0.96275,-0.04893,0.41345,-0.12389,-0.7893
0.27934,0.95855,-0.0562,0.10022,0.14705,-0.47702
0.2908,0.95425,-0.06957,0.19663,-0.02913,-0.70954
0.30307,0.94781,-0.09898,0.18584,-0.07362,-0.53302
0.3172,0.93837,-0.1373,0.16507,-0.119,-0.33939
0.33395,0.92527,-0.17989,0.12326,-0.07987,-0.42007
0.35864,0.90327,-0.23556,0.02613,0.28591,-0.20092
0.38258,0.8743,-0.29872,0.04958,0.33142,0.36233
0.40054,0.83998,-0.36606,-0.01168,0.5005,0.7166
0.41253,0.81299,-0.41093,-0.00238,0.45082,1.29998
0.42209,0.80743,-0.41219,0.05725,0.2789,0.4173
0.43644,0.80992,-0.39184,-0.11596,0.34611,0.21078
0.45655,0.81148,-0.36478,-0.28728,0.17091,0.00083
0.46852,0.81705,-0.33604,-0.33952,0.01031,-0.02446
0.46749,0.82849,-0.30832,-0.51639,-0.29568,-0.01761
0.4531,0.84592,-0.28127,-0.52391,-0.37016,0.01177
0.43052,0.86639,-0.25302,-0.42318,-0.34117,0.0258
0.40116,0.88785,-0.22537,-0.15065,-0.2748,-0.08539
0.36657,0.90756,-0.20484,0.11763,-0.15579,-0.16575
0.32984,0.92463,-0.19042,0.32953,0.03051,0.1176
0.2871,0.94212,-0.17316,0.36367,-0.33149,-0.48472
0.25135,0.95619,-0.15006,0.79655,-0.17967,-0.29472
0.23201,0.96315,-0.13608,0.79296,-0.21238,-0.26335
0.22906,0.9651,-0.12698,0.84931,-0.12708,-0.22291
0.23791,0.96409,-0.11802,0.47234,-0.2403,-0.47742
0.25089,0.96121,-0.11457,0.06968,-0.37631,-0.34493
0.26305,0.95719,-0.12081,-0.09151,-0.3774,-0.19711
0.27432,0.9522,-0.13439,-0.65789,0.67271,-0.19444
0.27762,0.94372,-0.17978,-0.49487,0.41466,0.58127
0.27453,0.93022,-0.24358,-0.22853,0.97674,0.97836
0.27215,0.92863,-0.25213,0.17354,1.8456,0.86628
0.26715,0.9298,-0.25319,0.3703,-0.0965,0.14446
0.26594,0.92607,-0.26771,-0.02668,-0.13376,0.38429
0.25692,0.92221,-0.28902,0.00116,0.33924,1.0964
0.2348,0.92742,-0.29112,0.22331,0.89055,0.98438
0.19785,0.94593,-0.25704,0.19374,0.59411,0.63184
0.16591,0.96684,-0.19415,0.15828,0.23555,0.16698
0.14174,0.98255,-0.12044,-0.33377,0.09315,-0.60628
0.12797,0.99026,-0.05478,-0.33472,0.07691,-0.71812
0.12377,0.99195,-0.0265,-0.34481,-0.1629,0.0964
0.11609,0.99324,-0.00113,-0.18597,-0.37161,0.11529
0.10123,0.99424,0.03519,-0.14272,-0.55938,0.065
0.06644,0.9946,0.07964,0.2152,-0.573,0.13889
0.03624,0.99153,0.12469,0.16378,-0.22197,0.044
0.00594,0.98725,0.15907,0.46719,0.15408,0.07661
-0.02216,0.98322,0.18106,0.16403,0.30802,-0.34997
-0.03724,0.97712,0.20938,0.18774,0.32579,-0.53627
-0.04188,0.9725,0.22909,-0.06676,0.4028,-0.96105
-0.0521,0.97436,0.21885,-0.21449,0.41756,-0.72656
-0.06762,0.98107,0.18143,-0.03747,0.28585,-1.32255
-0.08145,0.98464,0.15443,0.09005,0.75573,-1.47449
-0.09336,0.98567,0.14051,0.12579,0.38991,-0.31382
-0.09134,0.99274,0.07828,0.55727,0.81126,0.2458
-0.09085,0.99585,-0.00492,0.79159,0.97426,0.59328
-0.08828,0.99194,-0.09092,0.97706,0.5442,1.05154
-0.08935,0.98267,-0.16238,0.64217,0.11628,0.99441
-0.09156,0.9704,-0.22345,0.29189,0.06774,0.72756
-0.08504,0.96019,-0.2661,0.2168,0.23246,0.48363
-0.06707,0.95436,-0.29101,0.28592,0.2924,0.57022
-0.03837,0.95112,-0.30643,0.23408,0.2039,0.52443
-0.00596,0.94788,-0.31857,0.18076,0.12851,0.49781
0.02264,0.94593,-0.32359,0.119,0.01997,0.4951
0.04582,0.94535,-0.32282,-0.03253,-0.21885,0.47408
0.06266,0.94436,-0.32289,-0.11794,-0.2985,0.47672
0.06983,0.94459,-0.32073,-0.16429,-0.33609,0.53736
0.07099,0.94568,-0.31727,-0.16229,-0.23236,0.50983
0.06816,0.94735,-0.31287,-0.15057,-0.1162,0.48008
0.06157,0.94919,-0.30863,-0.16925,-0.08258,0.41326
0.05126,0.95246,-0.30031,-0.17491,-0.11311,0.24145
0.03636,0.95856,-0.28254,-0.13769,-0.13987,0.17422
0.01582,0.96588,-0.25849,-0.16829,-0.07576,0.09174
-0.00888,0.97279,-0.23153,-0.17157,0.01203,-0.01119
-0.03798,0.97768,-0.20665,-0.13643,0.13432,-0.2119
-0.07337,0.97917,-0.18934,0.0409,0.1559,-0.23782
-0.10936,0.97864,-0.17409,0.15465,0.11027,-0.43283
-0.13932,0.9771,-0.16081,0.35878,0.28196,-0.60013
-0.15711,0.97428,-0.16156,0.31465,0.13498,-0.16575
-0.16364,0.97134,-0.17238,0.5229,0.02263,-0.15404
-0.16856,0.96842,-0.18368,0.18324,-0.22633,0.19783
-0.17044,0.96561,-0.19634,0.09575,0.34184,0.60389
-0.17266,0.96502,-0.19728,0.08684,0.51316,0.27187
-0.17192,0.96912,-0.17677,-0.26214,0.35006,0.44633
-0.16329,0.9745,-0.15389,-0.0609,-0.21732,0.39684
-0.16178,0.97749,-0.13545,0.00065,-0.33378,0.34851
-0.16684,0.97838,-0.1222,-0.01617,-0.26461,0.49087
-0.17243,0.97823,-0.11543,0.13688,-0.24346,0.50175
-0.18205,0.97776,-0.1041,0.24961,-0.0637,0.56813
-0.19341,0.97751,-0.08403,0.18551,-0.06026,0.3591
-0.1994,0.97861,-0.05053,0.05448,0.00349,0.16063
-0.20198,0.97932,-0.01169,0.19153,0.04264,0.18341
-0.19963,0.97949,0.02737,0.09287,0.05282,0.01767
-0.18782,0.97994,0.06667,-0.05844,0.09762,0.06269
-0.17268,0.97915,0.10699,-0.18348,0.07587,-0.07728
-0.15911,0.97558,0.1514,-0.11967,0.02552,-0.25668
-0.14718,0.97023,0.19235,-0.11188,0.05962,-0.26524
-0.14321,0.96443,0.22218,-0.0437,-0.06116,-0.07594
-0.14212,0.95792,0.24939,0.12217,-0.09099,0.06587
-0.13994,0.94929,0.28153,0.19456,-0.03904,0.08073
-0.13744,0.93716,0.32068,0.18973,0.01442,-0.10024
-0.13563,0.92313,0.35976,0.1192,0.18754,-0.22871
-0.13283,0.90996,0.39283,-0.06449,-0.02128,-0.41343
-0.1293,0.89813,0.42029,-0.08681,0.22127,-0.42416
-0.13081,0.88901,0.43879,-0.10553,0.26864,-0.34347
-0.13782,0.88247,0.44971,-0.12524,0.32462,-0.31178
-0.14873,0.87864,0.45373,-0.09637,0.5077,-0.37526
-0.16655,0.87911,0.44657,0.16424,0.72665,-0.37623
-0.19114,0.88611,0.42223,0.38049,0.81009,-0.34513
-0.22491,0.89896,0.37587,0.20725,0.82735,-0.28287
-0.25809,0.9143,0.31214,0.27945,0.53481,-0.2127
-0.28347,0.92931,0.2367,0.26531,0.36737,0.0162
-0.29595,0.94106,0.16373,0.29966,-0.01743,0.50549
-0.30277,0.94755,0.10239,0.42026,-0.07479,0.76937
-0.29827,0.95319,0.04966,0.13225,-0.06084,0.79937
-0.28607,0.95818,0.00722,0.08442,-0.04589,0.73137
-0.27332,0.96166,-0.02247,0.09256,0.16369,0.19705
-0.26214,0.9638,-0.04879,0.04339,0.10681,0.15426
-0.2509,0.96463,-0.08092,0.09918,0.06021,0.1553
-0.24158,0.96428,-0.10867,0.11644,-0.19765,0.30454
-0.23531,0.96335,-0.12879,0.09519,-0.39699,0.26896
-0.23206,0.96185,-0.1449,0.10445,-0.42839,0.20403
-0.23354,0.95916,-0.1596,0.08463,-0.41196,0.24402
-0.24004,0.95541,-0.17197,0.10899,-0.3043,0.37513
-0.24862,0.95219,-0.17753,0.01742,-0.24604,0.4106
-0.26102,0.9488,-0.17788,-0.11921,-0.15226,0.33984
-0.27706,0.94502,-0.17368,-0.11344,-0.18114,0.23589
-0.29071,0.94217,-0.16675,-0.14209,-0.22136,0.2903
-0.29559,0.94151,-0.16183,-0.31467,-0.17197,0.26763
-0.29782,0.94245,-0.15197,0.28298,-0.44486,0.28578
-0.29846,0.94461,-0.13653,0.42439,-0.51568,0.31524
-0.29611,0.94759,-0.11995,0.32631,-0.20421,0.15653
-0.29606,0.94922,-0.10641,0.16065,0.082,-0.11171
-0.30264,0.94836,-0.09495,0.40656,-0.39357,-0.34321
-0.30824,0.94795,-0.07984,0.47141,-0.1411,-0.01626
-0.30321,0.94947,-0.08109,0.43067,-0.4943,0.09192
-0.2832,0.95359,-0.10226,0.12991,-0.82336,-0.54222
-0.28062,0.95313,-0.11316,0.21397,-0.80397,-0.52017
-0.28753,0.95387,-0.08632,0.23373,-0.15169,-0.30764
-0.29798,0.95373,-0.04016,0.44204,0.1443,0.4801
-0.30772,0.95021,-0.0491,0.18393,0.16066,-0.50167
-0.30562,0.94578,-0.10998,-0.14729,0.78965,-0.67187
-0.28831,0.94791,-0.13545,0.13655,0.38861,-0.59525
-0.26727,0.95654,-0.11656,0.51061,0.66481,0.62315
-0.23654,0.96401,-0.12136,-0.64941,1.94653,0.21631
-0.18791,0.97395,-0.1269,-0.77283,1.76007,-0.64133
-0.15557,0.981,-0.11589,-0.11606,-0.22008,0.07917
-0.1408,0.98003,-0.14042,-0.15268,-0.07096,0.47062
-0.13992,0.97647,-0.16406,-0.0471,-0.1798,0.46045
-0.14381,0.97503,-0.1692,0.12213,-0.13079,0.3006
-0.15225,0.97563,-0.15798,0.13554,0.11883,0.02633
-0.16655,0.9786,-0.12083,0.26976,0.36612,-0.54885
-0.16819,0.98407,-0.05755,0.24676,0.05287,-0.72499
-0.15808,0.98517,-0.06673,0.08114,-0.08376,-0.34924
-0.15889,0.98103,-0.11103,-0.01257,-0.16431,-0.31758
-0.16051,0.97843,-0.13001,-0.03908,-0.04562,-0.24159
-0.15737,0.97514,-0.15601,-0.14996,-0.11991,-0.37847
-0.15302,0.96738,-0.20188,-0.21931,-0.11391,-0.47192
-0.15286,0.95492,-0.2545,-0.06142,-0.18935,0.06173
-0.14481,0.93885,-0.31239,0.10345,0.18587,0.00184
-0.12696,0.9181,-0.37547,0.08162,0.33447,0.04634
-0.11828,0.89067,-0.439,0.14986,0.45597,0.4329
-0.10921,0.86085,-0.49699,0.04196,0.62924,0.9868
-0.08642,0.84115,-0.53385,-0.00626,0.65774,0.93215
-0.06972,0.83969,-0.53857,-0.49676,0.42641,0.3231
-0.0401,0.8528,-0.52069,-0.1871,0.06385,0.19188
-0.01406,0.86483,-0.50187,-0.14333,-0.08345,0.29762
0.00334,0.87551,-0.48319,-0.32611,-0.31857,0.33817
0.00848,0.88826,-0.45927,-0.51274,-0.35992,0.39942
0.00325,0.90483,-0.42576,-0.49232,-0.34636,0.36779
-0.00961,0.92352,-0.38343,-0.36473,-0.29008,0.29487
-0.03072,0.94234,-0.33325,-0.15615,-0.24471,0.1848
-0.06067,0.95939,-0.27548,-0.03549,-0.28939,-0.03177
-0.09183,0.97294,-0.21204,0.04399,-0.20508,-0.17936
-0.12088,0.97952,-0.16104,0.40509,0.07578,-0.4316
-0.13689,0.98162,-0.13295,0.57027,0.17334,-0.70054
-0.14949,0.98208,-0.11476,0.64599,0.02269,-0.61159
-0.15606,0.98293,-0.09741,0.49835,-0.07107,-0.29544
-0.15084,0.98513,-0.08221,0.24433,-0.2465,-0.12854
-0.13699,0.98836,-0.0661,-0.291,-0.08089,-0.4958
-0.12543,0.991,-0.04671,-0.57269,0.34089,-0.4361
-0.12299,0.99001,-0.06894,-0.29599,0.2104,0.51231
-0.13094,0.98595,-0.10368,-0.44401,0.78872,-0.37658
-0.14896,0.98351,-0.10257,0.12928,1.73544,-0.78688
-0.15238,0.98102,-0.11991,0.82439,0.81083,-1.30163
-0.13993,0.97459,-0.17492,0.41184,-0.12435,0.6647
-0.12304,0.9654,-0.22994,0.17063,0.0352,1.0975
-0.10432,0.96085,-0.25666,0.11134,0.09579,1.04711
-0.09392,0.9624,-0.25489,-0.03939,0.01337,0.39384
-0.10234,0.9698,-0.22141,0.04552,0.18537,-0.0243
-0.11609,0.97991,-0.16216,0.10421,0.14706,-0.08207
-0.12603,0.98774,-0.09206,-0.04333,-0.13165,-0.36648
-0.12802,0.99067,-0.04663,0.00288,-0.21965,-0.30315
-0.12901,0.99048,-0.04808,0.04745,-0.28578,-0.23286
-0.13399,0.98915,-0.06021,0.06273,-0.34606,-0.12012
-0.14156,0.98811,-0.06001,0.03671,-0.32042,-0.15886
-0.14696,0.98777,-0.05198,-0.0592,-0.32525,-0.25101
-0.15147,0.98705,-0.05287,-0.02075,-0.17441,-0.50479
-0.15455,0.98586,-0.06473,0.01311,-0.09472,-0.54122
-0.15325,0.98422,-0.08841,0.04899,-0.00287,-0.47067
-0.15061,0.98103,-0.12205,-0.04451,-0.13176,-0.29624
-0.1527,0.97538,-0.15914,-0.00463,-0.16333,-0.38183
-0.15553,0.96582,-0.20738,0.30389,0.03847,-0.45221
-0.14975,0.94851,-0.27911,0.04948,1.07265,-0.12868
-0.14875,0.92023,-0.36201,-0.07635,0.97578,0.27308
-0.14703,0.88844,-0.43481,-0.06437,0.7335,0.57608
-0.14058,0.85672,-0.49625,-0.27269,0.42813,1.04059
-0.12261,0.84054,-0.52769,-0.31473,0.15763,0.6612
-0.11263,0.83916,-0.53209,-0.26241,0.1202,0.375
-0.0933,0.84628,-0.5245,-0.08217,0.04846,0.42526
-0.06273,0.86085,-0.50497,-0.0895,-0.14459,0.41805
-0.03501,0.87705,-0.47911,-0.18209,-0.42831,0.41567
-0.01532,0.89396,-0.44789,-0.31178,-0.60111,0.38663
-0.00586,0.91272,-0.40854,-0.27802,-0.60913,0.32456
-0.01255,0.93049,-0.3661,-0.13574,-0.60845,0.29163
-0.03846,0.94535,-0.32379,-0.04935,-0.36739,0.27625
-0.07651,0.95674,-0.28072,-0.02614,0.22667,0.00686
-0.11413,0.96652,-0.2298,0.06659,0.23238,-0.16595
-0.14578,0.97619,-0.16062,0.38259,0.4215,-0.62594
-0.14954,0.98307,-0.10585,0.65223,0.19269,-0.86172
-0.13859,0.98753,-0.07465,0.47056,-0.16426,-0.83401
-0.12567,0.99035,-0.05846,0.17241,-0.42815,-0.80377
-0.11316,0.99162,-0.06237,-0.33834,-0.59014,-0.51481
-0.10391,0.98967,-0.09873,0.05376,-0.16892,0.41972
-0.11463,0.9807,-0.15838,0.15874,0.19114,0.14486
-0.12557,0.97613,-0.17719,-0.55232,1.43785,0.3151
-0.12643,0.97965,-0.15588,-0.58721,1.02152,0.24313
-0.1242,0.98337,-0.13251,0.02666,0.13992,-0.66798
-0.12302,0.98189,-0.14409,0.32427,0.23744,0.4717
-0.11956,0.9788,-0.16631,0.16929,0.4354,0.54189
-0.12055,0.97842,-0.1678,0.08477,0.5377,0.34219
-0.12647,0.98098,-0.14722,0.2329,0.12183,0.02784
-0.13336,0.98406,-0.11765,0.27414,0.04797,-0.16539
-0.1364,0.9857,-0.09892,0.15706,0.032,-0.7479
-0.13383,0.98478,-0.11092,-0.22288,-0.24296,-0.15692
-0.13096,0.98302,-0.12852,-0.34993,-0.27721,-0.11826
-0.13186,0.98252,-0.13141,-0.15632,-0.19025,-0.3351
-0.13715,0.98103,-0.137,-0.08369,-0.10373,-0.36408
-0.14037,0.97754,-0.15719,-0.02766,0.01603,-0.51579
-0.14253,0.97122,-0.19082,0.16487,0.25836,-0.50192
-0.1462,0.95829,-0.24556,0.25327,0.0985,-0.33366
-0.14688,0.93756,-0.31529,0.23747,0.03894,-0.10062
-0.14135,0.91302,-0.38265,0.10499,-0.212,0.55959
-0.14496,0.88032,-0.45168,0.00464,-0.34679,0.81068
-0.14983,0.84685,-0.5103,0.04964,-0.23768,0.91075
-0.1512,0.82591,-0.54314,0.07524,0.55823,0.81529
-0.1435,0.81838,-0.55646,0.07949,0.71538,0.65926
-0.12217,0.82417,-0.55301,-0.0539,0.50785,0.56265
-0.09871,0.83421,-0.54254,-0.30196,0.01192,0.34858
-0.07581,0.84907,-0.52282,-0.30923,-0.15232,0.25512
-0.05783,0.86976,-0.49007,-0.33583,-0.24406,0.25088
-0.04953,0.89383,-0.44565,-0.26256,-0.24144,0.24849
-0.05317,0.91869,-0.39138,-0.14432,-0.17809,0.22606
-0.06714,0.93994,-0.33467,0.01703,-0.29996,0.18634
-0.08754,0.95435,-0.28558,0.08477,-0.28026,0.10482
-0.115,0.96234,-0.24634,0.22355,-0.10449,-0.15829
-0.14684,0.96759,-0.20544,0.44309,0.21961,-0.56047
-0.16286,0.97372,-0.15919,0.5053,0.31983,-0.87017
-0.16459,0.9789,-0.12112,0.42664,0.09224,-0.58038
-0.16137,0.98252,-0.09277,0.27207,-0.2279,-0.34308
-0.15518,0.98483,-0.0776,-0.18161,-0.22926,-0.72563
-0.14702,0.98593,-0.07953,-0.63304,0.06308,0.19484
-0.1399,0.98362,-0.11367,-0.5324,0.52157,0.39533
-0.13686,0.98027,-0.1426,-0.7244,1.02131,0.08849
-0.14187,0.97945,-0.14336,-0.30459,0.80848,0.56148
-0.16026,0.97716,-0.13954,0.09196,1.15024,-1.4424
-0.18729,0.97653,-0.10633,0.9215,0.14638,0.21308
-0.1851,0.972,-0.14474,0.29101,-0.34178,0.51992
-0.16895,0.96779,-0.18664,0.02338,0.07814,0.80641
-0.15772,0.96698,-0.20017,0.00883,0.37654,0.55918
-0.15152,0.97159,-0.18182,0.29563,0.18549,0.1239
-0.14899,0.97767,-0.1482,0.1814,-0.12759,-0.07658
-0.14999,0.98429,-0.09313,-0.0858,-0.20167,-0.18726
-0.14916,0.98839,-0.02897,-0.12615,-0.16931,-0.50143
-0.1498,0.98868,0.00844,-0.05813,-0.16281,-0.48572
-0.15281,0.98825,0.00335,0.12156,-0.15446,-0.38874
-0.15822,0.98735,-0.01025,0.09952,-0.11175,-0.39413
-0.16276,0.98656,-0.01426,0.01762,-0.12233,-0.48945
-0.16526,0.98608,-0.01806,-0.09269,-0.13948,-0.44816
-0.16873,0.98482,-0.04062,-0.05937,-0.17454,-0.46433
-0.17141,0.98234,-0.07495,-0.16008,-0.05612,-0.50067
-0.17357,0.97823,-0.11372,-0.1633,-0.19553,-0.15632
-0.17534,0.97183,-0.15752,0.1141,-0.15815,-0.35319
-0.17977,0.9595,-0.21687,0.41491,0.20205,-0.29169
-0.17716,0.93787,-0.29835,0.13108,0.3612,0.1126
-0.16933,0.90968,-0.37923,0.01783,0.21709,0.28174
-0.18488,0.8694,-0.45821,0.1751,0.03773,0.79193
-0.19533,0.83467,-0.51494,0.03806,0.54136,0.6628
-0.1825,0.82059,-0.5416,0.07201,0.8341,0.59348
-0.16521,0.81938,-0.54892,0.11042,0.8956,0.50061
-0.1314,0.83129,-0.54008,-0.22013,0.01162,0.12362
-0.09737,0.84926,-0.51891,-0.01328,-0.30074,0.23272
-0.07619,0.86701,-0.49243,-0.08684,-0.41549,0.27604
-0.06493,0.888,-0.45524,-0.40179,-0.17993,0.40779
-0.06394,0.91257,-0.40389,-0.37632,-0.04994,0.37116
-0.07573,0.9357,-0.34458,-0.27196,-0.01654,0.2239
-0.10735,0.9529,-0.28367,-0.09494,0.18518,-0.19563
-0.14984,0.96067,-0.23378,-0.0272,0.35405,-0.26172
-0.1683,0.96659,-0.19332,0.05293,0.44246,-0.10369
-0.16493,0.97472,-0.15069,0.32601,0.13682,-0.83701
-0.16712,0.9788,-0.11845,0.50784,-0.52349,-0.45978
-0.16836,0.98044,-0.10196,0.53558,-0.76511,-0.33166
-0.16428,0.98144,-0.09892,0.54859,-1.1273,0.02221
-0.15677,0.98114,-0.11307,0.40231,-1.00875,0.35584
-0.15585,0.97823,-0.137,0.30179,-1.03164,0.20327
-0.1576,0.97713,-0.14274,-0.11572,-0.17676,-0.25126
-0.15695,0.97966,-0.12505,-0.27056,1.42205,0.10372
-0.15463,0.98483,-0.07874,-0.69894,2.74257,-0.27655
-0.1463,0.98824,-0.04453,-0.2521,-0.3161,-0.09164
-0.13995,0.98861,-0.05535,-0.12067,0.02486,-0.5077
-0.14512,0.98679,-0.07194,0.45811,0.95266,-0.15013
-0.14458,0.98468,-0.09745,0.40981,0.40222,0.41738
-0.14432,0.98398,-0.10467,0.18819,-0.29924,-0.00989
-0.14491,0.98455,-0.09824,0.12611,-0.40927,-0.04347
-0.14349,0.9853,-0.09271,0.11062,-0.25327,-0.33287
-0.14137,0.98564,-0.0924,-0.14225,-0.0175,-0.1695
-0.14319,0.98443,-0.10191,-0.19485,-0.00256,-0.26551
-0.15073,0.98242,-0.1101,-0.12665,-0.05934,-0.34388
-0.16257,0.97859,-0.12621,-0.09274,-0.15103,-0.36923
-0.1782,0.97271,-0.14856,-0.08267,-0.07628,-0.39313
-0.19126,0.96432,-0.18304,-0.07296,0.28956,-0.23831
-0.19865,0.95254,-0.23066,0.08256,0.83255,-0.11503
-0.20119,0.93744,-0.28415,0.29693,0.70054,0.1494
-0.20766,0.91521,-0.34534,0.40718,0.54426,0.39139
-0.21342,0.89529,-0.39103,0.43747,0.54842,0.57726
-0.21247,0.8832,-0.41811,-0.07531,0.23708,0.67197
-0.19533,0.88523,-0.42215,-0.31862,0.05681,0.15503
-0.17986,0.89447,-0.40935,-0.31831,0.08978,0.03751
-0.17227,0.90111,-0.39791,-0.13267,0.01831,0.1815
-0.16557,0.90694,-0.38736,-0.10631,-0.12371,0.34021
-0.16214,0.91372,-0.3726,-0.11246,-0.22454,0.31878
-0.1655,0.92142,-0.35155,-0.08803,-0.24052,0.25872
-0.17499,0.92915,-0.32567,-0.05421,-0.21978,0.19388
-0.18922,0.9357,-0.29776,-0.03094,-0.26709,0.13925
-0.20398,0.9413,-0.26896,-0.01907,-0.31963,0.09724
-0.2173,0.94577,-0.24143,0.02449,-0.34359,0.04707
-0.22999,0.94939,-0.21391,0.06185,-0.39582,-0.08229
-0.24181,0.95268,-0.18419,0.05582,-0.36291,-0.22467
-0.2512,0.9554,-0.15527,0.19955,-0.14322,-0.47902
-0.25208,0.95793,-0.13723,0.30506,-0.03684,-0.87699
-0.24681,0.96046,-0.12887,0.31071,-0.17303,-0.60431
-0.2398,0.96259,-0.12615,0.33607,-0.38396,-0.36727
-0.23145,0.96394,-0.13136,0.31908,-0.42634,-0.40906
-0.22502,0.96412,-0.14084,0.28433,-0.44996,-0.3909
-0.22182,0.96308,-0.15257,-0.01896,-0.15122,-0.4945
-0.22525,0.95982,-0.16735,-0.37251,0.56827,0.72118
-0.23843,0.94721,-0.21433,-0.24234,0.70088,0.89936
-0.25253,0.93073,-0.26452,-0.24741,1.01585,0.57558
-0.26444,0.93024,-0.2544,-0.15237,1.00369,1.24832
-0.2721,0.93468,-0.22879,-0.41345,1.34793,0.76432
-0.28429,0.94194,-0.17869,0.75627,0.14336,-0.10912
-0.28373,0.94046,-0.18718,0.43782,0.21463,0.58211
-0.28211,0.93808,-0.20104,0.33939,0.37988,0.82084
-0.27139,0.94167,-0.199,0.21208,0.69113,0.80144
-0.25254,0.95253,-0.17003,-0.20219,0.50583,0.11194
-0.23781,0.96456,-0.1143,-0.30493,0.35924,-0.07842
-0.22897,0.97253,-0.04187,-0.43892,0.02819,-0.26791
-0.22639,0.9739,0.01631,-0.25715,-0.2233,-0.09409
-0.22705,0.97266,0.04867,0.16303,-0.32655,-0.1579
-0.22559,0.97147,0.07312,0.40802,-0.38082,-0.05472
-0.2207,0.97069,0.0951,0.37244,-0.4359,-0.03798
-0.21802,0.9686,0.11952,0.25911,-0.39099,-0.02336
-0.21677,0.9651,0.14695,0.09421,-0.17819,0.0095
-0.21618,0.96012,0.17727,0.01477,-0.03295,-0.09203
-0.21596,0.9538,0.20886,0.03496,0.00169,-0.24547
-0.21228,0.94509,0.24846,0.12729,0.06414,-0.73178
-0.19479,0.93451,0.2979,-0.18098,0.34007,-1.00394
-0.18127,0.93334,0.30987,-0.41973,0.27552,-0.75719
-0.18818,0.93928,0.28695,-0.569,0.19848,-0.65257
-0.20269,0.94297,0.26405,-0.24401,0.26922,-0.67623
-0.22384,0.94657,0.23218,0.26009,0.42694,-0.59926
-0.24476,0.95282,0.1795,0.05454,0.83088,-0.91976
-0.26439,0.95754,0.11495,-0.06187,0.66682,-0.23469
-0.28583,0.95675,0.05402,0.20844,0.6855,0.39795
-0.29588,0.95514,-0.01245,0.72564,0.61392,0.45531
-0.3076,0.94762,-0.08604,0.72362,0.46947,0.40176
-0.32072,0.93584,-0.14607,0.55913,0.40048,0.35254
-0.32094,0.92692,-0.19448,0.46457,0.32574,0.44862
-0.30667,0.9208,-0.24099,0.3598,0.22997,0.4737
-0.28585,0.91614,-0.28103,0.35041,0.17657,0.32197
-0.26848,0.91229,-0.30927,0.39101,0.0749,0.46894
-0.25441,0.9099,-0.32765,0.39057,0.01166,0.56343
-0.23848,0.91016,-0.33872,0.34151,-0.05662,0.55326
-0.22008,0.91376,-0.34148,0.31778,-0.15552,0.55229
-0.20484,0.91878,-0.33746,0.27001,-0.17496,0.56243
-0.19529,0.92423,-0.32811,0.26145,-0.17861,0.58524
-0.19079,0.92947,-0.31572,0.20145,-0.12143,0.52611
-0.19105,0.93319,-0.3044,0.07239,-0.02755,0.42987
-0.19325,0.93593,-0.29444,-0.1067,-0.00432,0.36683
-0.19363,0.9391,-0.28389,-0.19562,0.00856,0.25883
-0.19115,0.94342,-0.27094,-0.19194,0.01931,0.10712
-0.1883,0.94784,-0.25716,-0.20739,0.00438,0.04618
-0.18733,0.95175,-0.24305,-0.15883,-0.03426,0.00096
-0.18802,0.95521,-0.22851,-0.01408,-0.06636,-0.02542
-0.18861,0.95824,-0.21493,0.03247,-0.07456,-0.0564
-0.18815,0.96086,-0.20334,0.05137,-0.07229,-0.10555
-0.18809,0.9632,-0.19202,0.24195,-0.10239,-0.18144
-0.18651,0.96572,-0.18053,0.33123,-0.066,-0.21331
-0.18192,0.96833,-0.17099,0.42189,0.09281,-0.32619
-0.17548,0.97048,-0.16546,0.55085,0.24878,-0.39602
-0.16754,0.97215,-0.16385,0.61006,0.22063,-0.31912
-0.16027,0.9727,-0.1678,0.45275,0.05516,-0.19195
-0.15492,0.97237,-0.1746,0.18507,-0.18452,0.04535
-0.15084,0.97309,-0.17419,-0.09892,-0.14532,0.32723
-0.14722,0.97463,-0.16859,-0.47933,0.2583,0.5962
-0.15079,0.97618,-0.15601,-0.90383,1.79418,-1.34816
-0.16434,0.97851,-0.12452,-0.40784,0.98723,-1.07635
-0.16954,0.9734,-0.15407,-0.16058,-0.51669,0.70022
-0.17784,0.96272,-0.20383,0.0052,-0.77511,1.1346
-0.18908,0.95995,-0.20676,0.00942,-0.4258,0.74357
-0.20299,0.96045,-0.19061,0.14796,-0.17641,0.66783
-0.21456,0.9606,-0.17664,0.39783,0.28778,0.68642
-0.22404,0.95893,-0.17396,0.45024,0.38438,0.59107
-0.22697,0.96069,-0.15988,0.44913,0.21441,-0.45087
-0.22936,0.96898,-0.09199,0.13678,0.12205,-0.08122
-0.22693,0.97283,-0.04589,-0.03036,-0.04723,-0.08114
-0.21888,0.97504,-0.03725,-0.02686,-0.00891,0.12174
-0.20742,0.97771,-0.03247,-0.05516,-0.03868,0.24112
-0.19678,0.98028,-0.01809,-0.12726,-0.10224,0.07594
-0.19073,0.98162,0.00564,-0.12927,-0.02529,0.00296
-0.18937,0.98148,0.0288,0.00558,-0.07725,0.10232
-0.18685,0.98114,0.04956,-0.03289,-0.10459,0.15698
-0.18345,0.98064,0.06848,-0.00113,-0.03291,-0.09938
-0.18184,0.97914,0.09061,0.04521,-0.00766,-0.09229
-0.18119,0.9769,0.11325,0.08927,-0.01131,-0.21852
-0.18078,0.974,0.13653,0.07589,0.05109,-0.29114
-0.18046,0.97057,0.15944,0.07844,0.17278,-0.41919
-0.1798,0.96684,0.18136,0.1281,0.2807,-0.5222
-0.17993,0.96352,0.19809,0.15309,0.31312,-0.58643
-0.18016,0.96247,0.20296,0.04737,0.27397,-0.79091
-0.18112,0.96487,0.1903,-0.0512,0.25071,-0.9759
-0.18812,0.97082,0.14871,-0.32114,0.03916,-1.16299
-0.20899,0.97441,0.08271,-0.37641,0.58662,-0.17312
-0.23854,0.97112,0.00487,-0.18874,0.9433,0.08824
-0.2562,0.96314,-0.08199,0.22106,0.7779,0.47527
-0.25602,0.95265,-0.16402,0.29153,0.16231,0.85119
-0.25655,0.93608,-0.24071,0.36011,0.23722,0.79548
-0.25351,0.92338,-0.28828,0.45248,0.35636,0.6939
-0.23196,0.91719,-0.32396,0.11991,0.4871,0.27583
-0.20933,0.90994,-0.35802,-0.05246,0.21193,0.24941
-0.19294,0.90175,-0.38679,-0.0072,0.03738,0.27002
-0.17946,0.89486,-0.40868,0.06984,-0.10757,0.39722
-0.1682,0.89051,-0.42272,0.14,-0.2026,0.47356
-0.15984,0.8888,-0.42951,0.13515,-0.2653,0.49906
-0.15297,0.8893,-0.43098,-0.01153,-0.35991,0.46336
-0.14929,0.89084,-0.42909,-0.14593,-0.44731,0.45791
-0.14828,0.89413,-0.42254,-0.24366,-0.48648,0.45727
-0.14924,0.89967,-0.41026,-0.29204,-0.49402,0.43826
-0.15325,0.90687,-0.39256,-0.26471,-0.48647,0.39363
-0.15895,0.91549,-0.36961,-0.18724,-0.48781,0.37415
-0.16239,0.92518,-0.34303,-0.16504,-0.45191,0.35823
-0.16535,0.93513,-0.31335,-0.14029,-0.39723,0.2424
-0.17552,0.94406,-0.27917,0.02881,-0.18716,0.08378
-0.1869,0.95211,-0.24199,0.37158,0.03955,-0.26332
-0.18473,0.96068,-0.20729,0.58109,0.12141,-0.80388
-0.18446,0.966,-0.18115,0.35192,-0.07168,-0.25634
-0.18648,0.96911,-0.16137,0.33178,-0.15036,-0.11709
-0.18332,0.9711,-0.15282,0.27548,-0.20899,-0.03041
-0.17349,0.97298,-0.15234,0.07153,-0.29761,0.06689
-0.16133,0.97546,-0.14984,0.01272,-0.33378,0.05521
-0.1486,0.97942,-0.13656,-0.12589,-0.39423,0.26968
-0.13556,0.98356,-0.11926,-0.96348,0.71637,-0.36041
-0.12796,0.98684,-0.09886,-1.20125,1.1459,-0.69749
-0.14053,0.98784,-0.06654,-0.98039,1.07727,-0.41739
-0.14875,0.98594,-0.07615,-0.06719,0.29597,0.25402
-0.15557,0.98232,-0.10412,-0.54283,2.00387,-1.94312
-0.15712,0.97923,-0.12812,0.95557,0.41408,0.50019
-0.1443,0.96881,-0.20147,0.05237,-0.13754,0.84803
-0.12807,0.95622,-0.26314,0.03884,0.07677,0.93938
-0.11947,0.95111,-0.2848,0.21147,0.09656,0.79506
-0.11717,0.9567,-0.26647,0.12117,0.32288,0.17415
-0.12966,0.96757,-0.21676,0.02337,0.19701,0.12841
-0.13897,0.97894,-0.14955,0.08561,0.11985,-0.22281
-0.14169,0.98672,-0.07937,-0.1215,0.06982,-0.83633
-0.14056,0.98797,-0.06445,-0.14731,-0.18006,-0.39616
-0.14146,0.98685,-0.07824,-0.12042,-0.2912,-0.13381
-0.14381,0.98625,-0.08145,-0.03187,-0.45925,-0.10406
-0.14748,0.98626,-0.07449,-0.0282,-0.45926,-0.11102
-0.15275,0.98619,-0.06406,-0.00431,-0.40119,-0.28066
-0.15638,0.98574,-0.06212,-0.01609,-0.31382,-0.22841
-0.15669,0.9852,-0.06955,-0.06243,-0.26649,-0.18471
-0.15631,0.9845,-0.07949,-0.12727,-0.22462,-0.04574
-0.15923,0.98319,-0.08939,-0.13064,-0.14423,-0.3277
-0.16658,0.98081,-0.10125,-0.05242,-0.15794,-0.18706
-0.17536,0.97726,-0.1192,0.02795,-0.09378,-0.3258
-0.18491,0.97278,-0.13962,0.11913,0.3691,-0.62449
-0.19059,0.96523,-0.17892,0.15511,1.1156,-0.66205
-0.20198,0.94866,-0.2434,0.27246,1.22863,-0.21331
-0.21445,0.92493,-0.31387,-0.12881,0.69946,0.18161
-0.21543,0.90273,-0.37239,-0.30505,0.57165,0.41146
-0.21993,0.87545,-0.43037,-0.31923,0.91013,0.32035
-0.21242,0.858,-0.46767,-0.07751,0.00443,0.48393
-0.1918,0.85442,-0.48288,-0.06481,-0.31733,0.50033
-0.17972,0.85197,-0.49178,-0.03264,-0.32011,0.49714
-0.17404,0.85242,-0.49303,-0.03483,-0.19207,0.38114
-0.16661,0.85731,-0.48709,0.09299,-0.13942,0.4014
-0.15525,0.86688,-0.47373,0.07918,-0.21414,0.41029
-0.14346,0.8792,-0.45434,-0.01004,-0.38448,0.4321
-0.13243,0.89348,-0.42913,-0.19871,-0.53017,0.43904
-0.12566,0.90936,-0.39657,-0.23,-0.55014,0.41337
-0.12787,0.92565,-0.35613,-0.07595,-0.47421,0.47849
-0.13648,0.94016,-0.31219,0.00849,-0.4418,0.46119
-0.14908,0.95107,-0.27062,0.13584,-0.45724,0.41026
-0.16085,0.95963,-0.23072,0.25846,-0.32211,0.47698
-0.16427,0.97071,-0.1753,0.30322,-0.11158,-0.12454
-0.1662,0.97785,-0.12726,0.53223,0.10353,-1.48174
-0.16643,0.98052,-0.10434,0.41327,0.05279,-1.33827
-0.16838,0.98152,-0.0909,0.40633,0.01831,-0.9324
-0.16626,0.98263,-0.08248,0.23406,-0.17896,-0.19215
-0.15483,0.98428,-0.085,-0.14206,-0.08842,-0.28125
-0.14032,0.98621,-0.08777,-0.75859,0.18973,0.74326
-0.12783,0.98515,-0.11458,-1.47659,1.05661,-0.14079
-0.13362,0.98538,-0.10567,-1.11537,0.7394,0.11114
-0.14544,0.98596,-0.08203,0.1544,1.31577,-0.48808
-0.14677,0.98512,-0.08945,1.40999,1.01475,-0.47162
-0.13834,0.97909,-0.14914,0.16555,0.28356,0.50432
-0.14192,0.96921,-0.20121,0.0738,0.13916,0.67098
-0.14677,0.96239,-0.22861,0.10486,0.03538,0.83202
-0.13684,0.963,-0.23217,0.17181,0.17498,0.72889
-0.12514,0.96807,-0.21721,0.09093,0.11569,0.54097
-0.11198,0.97635,-0.18492,-0.19992,0.22508,0.08606
-0.10228,0.98595,-0.13207,-0.11663,0.04086,-0.08276
-0.09349,0.99377,-0.06065,0.04736,-0.27453,-0.50597
-0.08316,0.99652,0.0059,0.04723,-0.23561,-0.7729
-0.0775,0.99659,0.0282,-0.02972,-0.24479,-0.40851
-0.08045,0.99671,0.01001,-0.16288,-0.1856,-0.29333
-0.08603,0.99628,-0.00405,-0.25038,-0.31041,-0.29083
-0.08987,0.99592,-0.0077,-0.23246,-0.43086,-0.27974
-0.0954,0.99533,-0.01439,-0.19735,-0.44458,-0.29089
-0.10272,0.99429,-0.02879,-0.08122,-0.3139,-0.10135
-0.11151,0.99271,-0.04572,-0.07686,-0.20993,0.02921
-0.12294,0.99065,-0.0591,-0.05842,-0.01496,-0.24702
-0.13541,0.9882,-0.07164,0.07984,-0.00806,-0.23321
-0.1457,0.98466,-0.09604,0.18256,0.00482,-0.31317
-0.15462,0.97986,-0.12636,0.20345,0.01651,-0.4523
-0.16442,0.97205,-0.16756,0.04697,0.37206,-0.4632
-0.16816,0.95986,-0.22446,-0.1074,0.84005,-0.33784
-0.16885,0.94307,-0.28653,-0.18688,0.8441,0.00427
-0.16408,0.92306,-0.34791,-0.10214,0.75942,0.38654
-0.15508,0.90277,-0.40119,-0.15606,0.54085,0.6379
-0.14425,0.88592,-0.44085,-0.34,0.29394,0.55733
-0.12997,0.88018,-0.45649,-0.35123,0.09809,0.42616
-0.11888,0.88159,-0.4568,-0.25956,-0.17915,0.30968
-0.10856,0.88657,-0.44968,-0.13961,-0.1908,0.37789
-0.09555,0.89585,-0.43396,-0.13469,-0.28145,0.45221
-0.08175,0.90783,-0.41129,-0.2331,-0.4674,0.45055
-0.07199,0.92051,-0.38403,-0.24431,-0.54804,0.42825
-0.07368,0.93309,-0.35202,-0.18872,-0.55035,0.38508
-0.08717,0.94489,-0.31556,-0.07003,-0.51492,0.32865
-0.11174,0.95383,-0.27878,-0.01989,-0.40279,0.27002
-0.14103,0.95917,-0.24516,0.05955,-0.2876,0.04565
-0.16739,0.96386,-0.20724,0.23598,-0.18052,0.16252
-0.16403,0.97534,-0.14767,0.40565,0.31821,-0.65759
-0.15006,0.98339,-0.10215,0.57969,0.35083,-1.36028
-0.14112,0.98718,-0.0746,0.48983,0.11829,-0.6742
-0.12974,0.9899,-0.05709,0.43145,0.05261,-0.46003
-0.11625,0.9921,-0.04725,-0.07832,0.05713,-0.48882
-0.1016,0.99401,-0.04016,-0.8159,0.08207,0.86637
-0.09095,0.9934,-0.06993,-0.95623,0.4188,0.49818
-0.09482,0.99176,-0.08614,-1.2856,0.90758,-0.52534
-0.11257,0.99223,-0.05306,-0.08187,0.66004,0.53126
-0.12786,0.98923,-0.07125,0.25104,-0.04321,0.3381
-0.1337,0.9845,-0.11355,0.30649,0.04273,0.24435
-0.13666,0.98121,-0.13622,0.44811,0.27098,0.2913
-0.13565,0.98091,-0.13936,0.10913,0.38837,0.26594
-0.12853,0.98387,-0.12439,0.07051,0.33095,0.10988
-0.12002,0.98788,-0.09841,0.10234,0.11823,-0.08475
-0.1132,0.99087,-0.07319,0.10897,-0.07925,-0.27378
-0.10923,0.99175,-0.06717,-0.00979,-0.1459,-0.40012
-0.10898,0.99105,-0.07713,-0.14753,-0.19074,-0.12847
-0.1121,0.99007,-0.08481,-0.18381,-0.27694,0.05758
-0.11537,0.98988,-0.08263,-0.07976,-0.335,-0.08196
-0.11929,0.98965,-0.07978,0.03366,-0.37164,-0.12914
-0.12049,0.98923,-0.08306,0.08447,-0.31429,-0.17344
-0.11808,0.98886,-0.09067,0.0815,-0.30897,-0.09311
-0.11434,0.9885,-0.09898,-0.02178,-0.25417,-0.2388
-0.11258,0.98777,-0.1079,-0.01887,-0.11351,-0.19685
-0.11353,0.98587,-0.12317,0.03937,-0.06753,-0.33105
-0.11783,0.98291,-0.14146,0.07865,-0.09001,-0.28961
-0.1233,0.97753,-0.17096,0.16308,0.08042,-0.55197
-0.12499,0.9685,-0.21536,0.03315,0.61196,-0.48939
-0.1249,0.95333,-0.27487,-0.07234,0.9319,-0.11806
-0.12969,0.93281,-0.33621,-0.01038,0.7,0.16924
-0.13142,0.91008,-0.39305,-0.0954,0.53072,0.51018
-0.12819,0.8883,-0.44102,-0.29794,0.5257,0.66141
-0.11672,0.87527,-0.46933,-0.41886,0.36202,0.65148
-0.1029,0.87434,-0.47428,-0.3187,-0.02722,0.50184
-0.08784,0.88175,-0.46347,-0.1545,-0.24594,0.31824
-0.07587,0.89145,-0.44673,-0.07742,-0.01738,0.32965
-0.0671,0.90276,-0.42488,-0.08459,-0.01673,0.33559
-0.06143,0.91583,-0.39684,-0.16319,-0.29735,0.3564
-0.05931,0.9289,-0.36556,-0.16752,-0.37526,0.32222
-0.06498,0.94091,-0.33237,-0.12791,-0.40598,0.27139
-0.07825,0.95047,-0.3008,-0.07406,-0.28005,0.21843
-0.09539,0.95796,-0.27059,-0.03941,-0.24583,0.14661
-0.11504,0.96516,-0.23502,0.01979,-0.18806,-0.09956
-0.13345,0.97296,-0.18851,0.05659,-0.16283,-0.2568
-0.14478,0.97927,-0.14167,0.1347,-0.13727,-0.43461
-0.149,0.98289,-0.10829,0.2429,-0.11366,-0.71723
-0.15102,0.98452,-0.08897,0.22486,-0.06931,-0.61158
-0.15,0.98557,-0.07839,0.14844,-0.07024,-0.41466
-0.14265,0.98727,-0.07036,0.04266,-0.23098,-0.29786
-0.13071,0.98947,-0.06218,-0.09167,-0.32503,-0.25911
-0.12028,0.99123,-0.05467,-0.2691,0.01594,0.13551
-0.11408,0.99127,-0.06608,-0.21329,0.38548,0.47281
-0.11358,0.989,-0.09475,-0.77361,0.93707,-0.42489
-0.11789,0.98895,-0.08986,-0.36401,0.64765,0.19539
-0.12709,0.98757,-0.0925,0.03234,0.1556,0.37307
-0.13367,0.98401,-0.11771,0.01512,0.7538,-0.34808
-0.13863,0.98367,-0.1148,0.58277,0.89686,-0.27563
-0.13004,0.98355,-0.12542,0.17876,0.11285,0.24163
-0.11617,0.98138,-0.15296,-0.12758,0.05957,0.4266
-0.10766,0.98093,-0.1618,-0.03069,-0.11445,0.7276
-0.10091,0.98288,-0.15418,-0.02743,-0.11525,0.66575
-0.09405,0.98658,-0.13348,-0.06809,0.12033,0.25316
-0.09205,0.99103,-0.09688,0.0582,0.02615,-0.26439
-0.09515,0.99454,-0.04294,0.13939,-0.05629,-0.50229
-0.09806,0.99511,0.01154,0.02478,-0.11711,-0.70304
-0.10346,0.99441,0.02112,-0.10995,-0.30457,-0.24829
-0.11009,0.99391,0.00341,-0.15371,-0.38063,-0.0607
-0.11361,0.99353,-0.00017,-0.15392,-0.41203,-0.05728
-0.1165,0.99317,0.0056,0.09658,-0.11662,-0.38167
-0.11892,0.9929,0.00014,0.21642,-0.19794,-0.26195
-0.11976,0.99263,-0.01873,0.13381,-0.28334,-0.13679
-0.11941,0.99215,-0.03706,0.05816,-0.30188,-0.04637
-0.11908,0.99175,-0.04755,0.05025,-0.18097,-0.12685
-0.11805,0.99119,-0.06002,0.08953,-0.07986,-0.35493
-0.11399,0.99004,-0.0826,0.06663,-0.03356,-0.38298
-0.11217,0.987,-0.11507,0.02023,-0.02204,-0.41749
-0.11287,0.98202,-0.1513,-0.02538,0.24669,-0.48128
-0.10992,0.9747,-0.1946,-0.11932,0.69505,-0.24545
-0.10802,0.96318,-0.24621,-0.07229,0.69843,0.00849
-0.11267,0.94416,-0.30963,0.00331,0.61753,0.33349
-0.11276,0.92295,-0.36804,0.01109,0.53092,0.43118
-0.1165,0.90209,-0.41553,-0.06233,0.46797,0.45281
-0.12149,0.88501,-0.44944,-0.19373,0.39549,0.55203
-0.11389,0.87919,-0.46266,-0.21713,0.17259,0.49024
-0.09943,0.8832,-0.45834,-0.19711,-0.25689,0.40647
-0.08615,0.89186,-0.44403,-0.19583,-0.1486,0.32779
-0.07491,0.90125,-0.42677,-0.11173,-0.12948,0.30987
-0.06584,0.91078,-0.40761,-0.1581,-0.26986,0.31386
-0.06215,0.92167,-0.38296,-0.20538,-0.40444,0.32023
-0.06822,0.93262,-0.35434,-0.21492,-0.35084,0.31531
-0.07988,0.94338,-0.32196,-0.20167,-0.28468,0.29673
-0.09172,0.95261,-0.29005,-0.10562,-0.21582,0.20536
-0.1021,0.96058,-0.25858,-0.06776,-0.32321,0.12989
-0.11287,0.96863,-0.22141,-0.00958,-0.30066,0.02468
-0.12611,0.97538,-0.18093,0.08571,-0.16515,-0.16137
-0.14087,0.9801,-0.13983,0.33105,0.08304,-0.45273
-0.14931,0.98303,-0.10653,0.35495,0.16167,-0.9565
-0.14959,0.98483,-0.08793,0.17081,0.06494,-0.70156
-0.14725,0.98602,-0.07793,0.09351,-0.12694,-0.28721
-0.14095,0.98729,-0.07343,-0.06611,-0.34088,-0.15841
-0.12879,0.98905,-0.07205,-0.26862,-0.44973,-0.0921
-0.11793,0.99041,-0.07199,-0.45849,-0.12873,0.17482
-0.11295,0.99054,-0.07798,-0.61622,0.44953,0.15735
-0.12043,0.98931,-0.08217,-0.71213,0.89853,-0.10667
-0.13517,0.98844,-0.06865,-0.1144,0.45702,0.28054
-0.14386,0.9873,-0.06738,0.18697,0.03659,0.49439
-0.14726,0.98525,-0.08711,0.21647,0.43801,0.23776
-0.15378,0.98456,-0.08365,0.23815,1.67458,-1.20331
-0.15714,0.98591,-0.05733,0.45865,0.21142,-0.15063
-0.14734,0.98497,-0.09018,0.13801,-0.20077,0.34343
-0.1352,0.98201,-0.13182,-0.07913,-0.06006,0.66723
-0.12393,0.98173,-0.1444,-0.07126,-0.05955,0.66115
-0.11364,0.98492,-0.13043,-0.07592,0.09679,0.41969
-0.10844,0.98822,-0.10795,-0.08777,0.05046,-0.14866
-0.11202,0.99111,-0.07176,-0.01654,-0.02233,-0.37367
-0.11991,0.9927,-0.01269,0.06862,-0.11136,-0.66322
-0.12545,0.99172,0.02729,0.19427,-0.35287,-0.42933
-0.1329,0.99111,0.00527,0.16267,-0.40379,-0.22653
-0.1345,0.99071,-0.02009,0.10546,-0.44135,-0.13414
-0.13551,0.99044,-0.02585,-0.04951,-0.35662,-0.0477
-0.1398,0.98985,-0.02539,0.04115,-0.20293,-0.37816
-0.14546,0.98883,-0.03251,0.03454,-0.20178,-0.26284
-0.1493,0.98747,-0.05118,-0.00595,-0.20017,-0.23756
-0.1537,0.98572,-0.06875,0.0052,-0.25774,0.01969
-0.16142,0.98324,-0.08472,0.06645,-0.22958,-0.05644
-0.17012,0.98049,-0.0985,0.19431,-0.06363,-0.34918
-0.17507,0.97667,-0.12436,0.29326,0.13545,-0.6154
-0.1806,0.96925,-0.16712,0.17733,0.54797,-0.56643
-0.18611,0.95579,-0.22767,0.01299,1.10581,-0.39111
-0.19237,0.93366,-0.30212,-0.01312,1.09698,-0.14092
-0.18852,0.91042,-0.36823,-0.27382,0.46936,0.56626
-0.1761,0.88828,-0.42421,-0.38875,0.10925,0.83128
-0.16149,0.86787,-0.46981,-0.3704,0.03174,0.75024
-0.15905,0.85843,-0.48766,-0.23719,0.23345,0.30331
-0.15597,0.85885,-0.48791,-0.03862,0.24642,0.17896
-0.1345,0.86547,-0.48257,0.0216,-0.05459,0.37904
-0.11153,0.87585,-0.46952,-0.06397,-0.30695,0.4439
-0.09691,0.88647,-0.45253,-0.12427,-0.42066,0.45662
-0.08781,0.89846,-0.43019,-0.23973,-0.51611,0.40077
-0.08721,0.91189,-0.40107,-0.15515,-0.42099,0.32478
-0.10008,0.92518,-0.3661,-0.07126,-0.32818,0.29258
-0.12039,0.93762,-0.32615,0.04149,-0.07997,0.18901
-0.14086,0.94847,-0.28382,0.02503,-0.16704,0.04746
-0.15729,0.95748,-0.24185,-0.10737,-0.09605,0.17398
-0.15809,0.96633,-0.20303,-0.06268,0.1578,-0.66126
-0.16354,0.97031,-0.17818,0.11201,0.09719,-0.66217
-0.17445,0.9716,-0.15985,0.16982,0.01584,-0.51473
-0.18255,0.97251,-0.14456,0.13844,0.03127,-0.41681
-0.18473,0.97428,-0.12903,0.01701,0.04185,-0.35004
-0.1833,0.97623,-0.11569,-0.12511,-0.07612,-0.36183
-0.18065,0.9776,-0.10798,-0.15896,-0.16248,-0.41206
-0.17781,0.97865,-0.10312,-0.25992,0.06072,-0.37827
-0.175,0.97937,-0.10109,-0.30755,0.35923,-0.2126
-0.17462,0.97868,-0.10814,-0.3627,0.73204,0.58592
-0.1725,0.97618,-0.13159,-0.36503,0.75606,0.56201
-0.17209,0.97685,-0.1271,0.09514,0.24233,0.52645
-0.18012,0.97624,-0.12047,0.29644,-0.11148,0.75181
-0.17846,0.97273,-0.14815,0.36202,-0.08409,0.68783
-0.17203,0.97206,-0.15973,0.24176,0.41752,0.47966
-0.17173,0.9751,-0.14033,0.24189,0.50101,0.47014
-0.17622,0.9779,-0.11254,0.16786,0.30344,0.25152
-0.17932,0.98096,-0.07451,0.04977,0.1157,0.00141
-0.17765,0.98361,-0.03084,-0.04897,0.06401,-0.00719
-0.17342,0.98485,-0.00021,-0.18702,-0.00273,0.02813
-0.16936,0.98539,0.01821,-0.20081,-0.00229,0.02315
-0.1674,0.98525,0.03537,-0.17773,-0.00031,-0.05801
-0.1694,0.98389,0.0571,-0.08422,-0.07938,-0.13396
-0.1742,0.98162,0.07791,0.11338,-0.15678,-0.09194
-0.17919,0.97926,0.09459,0.31045,-0.12362,-0.09349
-0.18282,0.97705,0.10932,0.33898,-0.10002,-0.07479
-0.18493,0.97473,0.12534,0.22123,-0.04167,-0.01907
-0.18698,0.97199,0.1424,0.1186,0.0037,-0.02561
-0.18959,0.96875,0.15996,0.07342,0.01213,-0.11659
-0.19094,0.96519,0.17874,0.05323,0.00338,-0.26592
-0.19087,0.96125,0.19894,0.0348,0.02553,-0.32452
-0.19173,0.95718,0.21688,0.00445,0.03401,-0.22484
-0.19625,0.95401,0.22662,-0.01918,0.0698,-0.23468
-0.20274,0.95102,0.23337,-0.03145,0.14632,-0.31077
-0.20912,0.94765,0.24129,0.20938,0.13984,-0.21505
-0.21547,0.94468,0.24728,0.31015,0.18152,-0.26002
-0.21906,0.94331,0.24935,0.45447,0.47789,-0.37841
-0.21877,0.94547,0.24131,0.4247,0.49731,-0.52465
-0.21499,0.95125,0.22116,0.31554,0.54784,-0.5666
-0.21543,0.95883,0.18502,-0.16198,0.19477,-0.44119
-0.22744,0.96387,0.13865,-0.25463,0.0352,-0.35897
-0.24953,0.96506,0.07993,-0.0312,0.24792,-0.13608
-0.2714,0.96239,0.01179,0.09978,0.34618,0.0334
-0.28104,0.95815,-0.05438,0.49125,0.44862,0.64264
-0.28099,0.95398,-0.10472,0.51796,0.43062,0.7907
-0.27674,0.94974,-0.14629,0.59973,0.26676,0.5757
-0.26621,0.94664,-0.1817,0.42231,0.2569,0.3625
-0.25198,0.94419,-0.21214,0.35328,0.23932,0.33083
-0.23891,0.94128,-0.23857,0.31479,0.17458,0.30331
-0.22847,0.93787,-0.26117,0.29847,-0.02089,0.45623
-0.21464,0.9359,-0.27934,0.28073,-0.06648,0.50767
-0.19443,0.93783,-0.28752,0.20791,-0.02592,0.48346
-0.17244,0.94412,-0.2809,0.2715,-0.01815,0.56696
-0.15374,0.95169,-0.26581,0.31641,0.02678,0.61519
-0.13923,0.95795,-0.25088,0.29167,0.01641,0.6234
-0.13332,0.96095,-0.24249,0.11283,0.03995,0.44219
-0.13519,0.96097,-0.24139,-0.03084,0.05676,0.38163
-0.1392,0.95972,-0.24406,-0.10317,0.03764,0.34988
-0.1423,0.9585,-0.24702,-0.3173,-0.0276,0.24716
-0.14347,0.95853,-0.24626,-0.31974,-0.03838,0.20222
-0.14632,0.95914,-0.24216,-0.25396,-0.01831,0.16925
-0.15041,0.95969,-0.23742,-0.0645,-0.131,0.19272
-0.15476,0.96005,-0.23314,0.00528,-0.23272,0.17488
-0.16003,0.96021,-0.22889,0.0359,-0.25868,0.10287
-0.16666,0.96032,-0.22361,0.03545,-0.2138,0.0174
-0.17577,0.96057,-0.21541,0.07716,-0.10721,-0.0792
-0.18498,0.9613,-0.20415,0.19496,0.0645,-0.36238
-0.19107,0.9625,-0.19256,0.42475,0.32317,-0.54212
-0.18998,0.96373,-0.18746,0.44715,0.16665,-0.42984
-0.18413,0.9648,-0.18774,0.25742,-0.06432,-0.23876
-0.17746,0.9654,-0.19108,0.08042,-0.20733,0.04609
-0.17101,0.96641,-0.19187,-0.17448,-0.08707,0.51083
-0.16444,0.96804,-0.18938,-0.47515,0.46524,0.27041
-0.16545,0.96977,-0.17936,-1.03341,1.41554,-0.94521
-0.17125,0.9709,-0.16742,-0.16318,0.4195,-0.2192
-0.17888,0.96351,-0.19914,0.21862,-0.45345,1.30046
-0.18534,0.95531,-0.23026,0.21017,-0.40771,0.97663
-0.19432,0.95314,-0.23186,0.25017,-0.29709,0.77468
-0.20881,0.95084,-0.22869,0.33834,0.0026,0.79243
-0.22314,0.94699,-0.23112,0.3335,0.32632,0.69415
-0.23106,0.94488,-0.23196,0.43486,0.54315,-0.07212
-0.23763,0.95245,-0.19071,0.33629,0.17429,0.12167
-0.23699,0.96129,-0.14058,0.04992,-0.03302,0.14435
-0.22697,0.96683,-0.1171,-0.07256,0.01988,0.15115
-0.21639,0.97106,-0.10105,-0.07946,-0.01545,0.17745
-0.20916,0.97452,-0.08101,-0.09888,-0.08402,0.0662
-0.20484,0.97695,-0.06012,-0.07512,-0.06899,-0.00337
-0.20372,0.97828,-0.03825,0.09638,0.00518,0.09147
-0.20607,0.97839,-0.01705,0.17419,-0.03767,0.08538
-0.20777,0.97817,0.00264,0.18097,-0.07745,0.05995
-0.20618,0.9782,0.02473,0.13405,-0.11567,0.07691
-0.20167,0.9784,0.04545,-0.02727,-0.00165,0.04989
-0.19818,0.97812,0.06336,-0.02546,0.03666,-0.0249
-0.19639,0.97729,0.07958,0.04946,-0.0073,-0.03325
-0.19639,0.97582,0.09594,0.10322,-0.01044,-0.02162
-0.1969,0.97389,0.11299,0.12836,0.01096,-0.02536
-0.19691,0.97172,0.13031,0.11216,0.06708,-0.03178
-0.197,0.96911,0.14837,0.07877,0.04667,-0.10215
-0.19751,0.96581,0.16795,0.08086,0.06557,-0.09517
-0.1971,0.96308,0.18336,0.08558,0.06914,-0.10796
-0.19131,0.963,0.18982,0.07186,0.05203,-0.23174
-0.18639,0.96257,0.19677,-0.03567,0.09621,-0.27458
-0.17934,0.96179,0.2069,-0.05298,0.12513,-0.271
-0.176,0.96024,0.21671,0.1388,0.17976,-0.30761
-0.17791,0.96042,0.21432,0.14071,0.17958,-0.30521
-0.18273,0.96259,0.20007,0.34324,0.33901,-0.34477
-0.18476,0.96705,0.17517,0.31517,0.51229,-0.485
-0.18136,0.97399,0.1358,-0.06269,0.40529,-0.50398
-0.18152,0.9796,0.08623,-0.36483,0.1264,-0.14819
-0.19534,0.98022,0.03172,-0.25146,0.23181,0.17365
-0.21269,0.97676,-0.0264,-0.01859,0.33797,0.37265
-0.22609,0.97004,-0.08889,0.18935,0.31843,0.4871
-0.23099,0.9623,-0.14363,0.38112,0.26671,0.69824
-0.23139,0.95489,-0.18613,0.4613,0.19628,0.45473
-0.22448,0.95005,-0.21682,0.37955,0.16625,0.33721
-0.21009,0.94838,-0.23755,0.17616,0.11583,0.2366
-0.19546,0.94605,-0.25844,0.11888,-0.02585,0.19612
-0.18526,0.94139,-0.28189,0.11571,-0.14105,0.27815
-0.18021,0.93593,-0.30259,0.13064,-0.19461,0.41114
-0.17618,0.93221,-0.31614,0.11138,-0.19123,0.43281
-0.17247,0.93138,-0.32061,0.03027,-0.14033,0.36297
-0.1699,0.93236,-0.31912,-0.04577,-0.09593,0.34335
-0.1689,0.93446,-0.31346,-0.06557,-0.09625,0.30254
-0.16866,0.9376,-0.30407,-0.04059,-0.08465,0.25838
-0.16723,0.94127,-0.29334,-0.01964,-0.06286,0.15949
-0.1642,0.94468,-0.28394,-0.04596,-0.03667,0.06952
-0.15859,0.948,-0.27593,-0.06991,-0.04799,0.03626
-0.15162,0.9513,-0.26842,0.01591,0.00984,-0.07469
-0.14807,0.9543,-0.25961,0.01939,0.01389,-0.07045
-0.14969,0.95683,-0.24914,0.03624,-0.03798,0.02475
-0.1544,0.95804,-0.24151,-0.02823,-0.2075,0.13089
-0.16004,0.95783,-0.23862,-0.04062,-0.22923,0.13576
-0.16413,0.95735,-0.23779,-0.01992,-0.1999,0.11091
-0.16628,0.95744,-0.23591,-0.0209,-0.1848,0.04443
-0.16757,0.9582,-0.23191,-0.00238,-0.20551,0.02549
-0.17038,0.95882,-0.22724,0.07617,-0.23217,0.03662
-0.17412,0.95892,-0.22393,0.09374,-0.2361,0.08656
-0.17573,0.95902,-0.22225,0.10421,-0.24036,0.09402
-0.17649,0.95929,-0.22051,0.14682,-0.25671,0.04915
-0.1798,0.95925,-0.21797,0.12512,-0.22654,0.0712
-0.18457,0.9595,-0.21283,0.10483,-0.21214,0.08934
-0.18682,0.96095,-0.20416,0.0521,-0.20316,0.09453
-0.18622,0.96345,-0.19257,0.00681,-0.17521,0.03126
-0.18548,0.9664,-0.17796,-0.03209,-0.17116,-0.03014
-0.18511,0.96969,-0.15949,-0.03547,-0.16518,-0.06685
-0.18422,0.9732,-0.13766,-0.02326,-0.15463,-0.21779
-0.18323,0.97634,-0.11484,-0.21575,0.06626,-0.2989
-0.18093,0.97858,-0.0982,-0.35754,0.4233,-0.26486
-0.18085,0.97921,-0.09183,-0.28799,0.85213,0.32895
-0.18507,0.97791,-0.09719,-0.46474,0.84361,0.40483
-0.18938,0.97698,-0.09817,0.0432,0.5427,-0.09449
-0.19791,0.97465,-0.10435,0.52411,0.23872,0.2059
-0.19654,0.97117,-0.13493,0.49874,0.36817,-0.01169
-0.19086,0.96847,-0.16009,0.34578,0.27304,0.25001
-0.18576,0.96705,-0.17406,0.13423,0.04814,0.50443
-0.17626,0.96745,-0.18158,0.01873,0.03221,0.51291
-0.16508,0.97038,-0.17636,-0.08448,0.13423,0.37715
-0.1582,0.97465,-0.15818,-0.02369,0.13492,0.09911
-0.15708,0.97905,-0.12956,0.00736,-0.0369,-0.10885
-0.15849,0.98244,-0.09849,-0.00397,-0.1393,-0.18756
-0.16095,0.98395,-0.07707,0.03237,-0.16994,-0.14232
-0.16312,0.9843,-0.0674,0.15563,-0.15358,-0.11617
-0.16478,0.98431,-0.06313,0.19116,-0.14518,-0.20501
-0.16687,0.98411,-0.06064,0.12646,-0.20739,-0.29507
-0.17011,0.98343,-0.06266,-0.02414,-0.26697,-0.1705
-0.17277,0.9827,-0.06664,-0.03948,-0.26019,-0.06404
-0.17582,0.98183,-0.07144,0.11092,-0.30244,0.06376
-0.17971,0.98042,-0.08046,0.1883,-0.32219,0.02704
-0.1835,0.97886,-0.09034,0.13496,-0.32801,-0.0177
-0.18744,0.9771,-0.10069,0.02772,-0.1849,-0.16011
-0.19194,0.97486,-0.11321,0.08523,-0.01593,-0.16156
-0.19538,0.97229,-0.12841,0.1891,-0.04147,-0.2166
-0.19898,0.96907,-0.14598,0.15278,-0.0284,-0.38765
-0.20578,0.96411,-0.16779,0.1465,0.06464,-0.42536
-0.21739,0.95511,-0.20125,0.20259,0.86497,-0.4718
-0.231,0.94007,-0.25082,0.07452,1.10331,-0.34676
-0.242,0.91998,-0.30833,-0.0063,0.98954,-0.18771
-0.24454,0.89697,-0.3683,-0.20998,0.70403,0.30847
-0.23878,0.87286,-0.42555,-0.20722,0.61247,0.45822
-0.22758,0.85448,-0.46699,-0.40239,0.30628,0.48781
-0.19572,0.85298,-0.48385,-0.20003,-0.23841,0.39181
-0.16729,0.85545,-0.49011,-0.09313,-0.42198,0.47685
-0.15478,0.85991,-0.48641,-0.07114,-0.05608,0.25504
-0.15357,0.86676,-0.47449,0.01142,0.12257,0.21086
-0.1536,0.87336,-0.46222,-0.08427,-0.12731,0.36435
-0.15472,0.87985,-0.44936,-0.16589,-0.24545,0.37167
-0.1553,0.88723,-0.43441,-0.23329,-0.32792,0.36316
-0.15639,0.89642,-0.41469,-0.25458,-0.37262,0.35537
-0.16028,0.90709,-0.38924,-0.20411,-0.36962,0.35167
-0.16498,0.91856,-0.35919,-0.08704,-0.37819,0.34394
-0.1693,0.92963,-0.32728,0.0564,-0.34863,0.28604
-0.17267,0.9396,-0.29554,0.19688,-0.25759,0.14568
-0.17749,0.9486,-0.26202,0.39299,-0.13064,-0.03041
-0.18407,0.95675,-0.22526,0.58799,0.01555,-0.29209
-0.18531,0.96495,-0.18583,0.67734,0.12073,-0.63439
-0.17425,0.97334,-0.14912,0.47975,0.01825,-0.74805
-0.15943,0.97918,-0.12568,0.30489,-0.08878,-0.52546
-0.14949,0.98208,-0.11479,0.03232,-0.14539,-0.26021
-0.14332,0.9833,-0.11217,-0.28965,-0.18998,-0.12988
-0.13908,0.98393,-0.11194,-0.44201,-0.3767,0.05796
-0.14293,0.98346,-0.11128,-0.5366,-0.26632,-0.04419
-0.15152,0.9825,-0.10831,-0.65128,0.51713,0.21189
-0.1647,0.98049,-0.1073,-0.63664,1.05372,0.08271
-0.18185,0.97835,-0.09884,-0.28212,0.52379,0.35828
-0.19712,0.97566,-0.09604,-0.01551,0.9584,-0.03762
-0.20821,0.97287,-0.10084,0.7842,1.51616,-1.77679
-0.20833,0.97198,-0.10887,0.55639,-0.20007,0.64851
-0.19715,0.96392,-0.17883,0.32519,-0.38774,0.65509
-0.18403,0.95109,-0.24813,0.21639,-0.04236,0.72845
-0.17108,0.94469,-0.27982,0.08553,0.26793,0.80196
-0.15172,0.95081,-0.27006,-0.22139,0.39348,0.58634
-0.13644,0.96127,-0.23945,-0.26827,0.24635,0.1923
-0.13284,0.97262,-0.19071,-0.11475,-0.04008,-0.00085
-0.13702,0.9821,-0.12923,0.03079,-0.10967,-0.18884
-0.14306,0.98698,-0.07349,0.11243,-0.10234,-0.32512
-0.14843,0.98751,-0.05275,0.06406,-0.12494,-0.1875
-0.15368,0.98626,-0.06065,-0.02046,-0.13607,-0.16741
-0.15767,0.98552,-0.06239,0.08934,-0.19238,-0.28029
-0.16188,0.98551,-0.05057,0.13583,-0.21069,-0.27421
-0.16496,0.98536,-0.04296,0.185,-0.29101,-0.28756
-0.16698,0.98483,-0.0472,-0.00442,-0.3349,-0.19711
-0.16867,0.98428,-0.05246,-0.02523,-0.29797,-0.13261
-0.17134,0.98338,-0.06008,0.10231,-0.2686,-0.02444
-0.17601,0.98173,-0.0723,0.22833,-0.25936,-0.02037
-0.18253,0.97957,-0.08437,0.28731,-0.25188,-0.01516
-0.18744,0.97757,-0.09605,0.30225,-0.14166,0.04814
-0.18991,0.9757,-0.10933,0.169,-0.18708,-0.05492
-0.19358,0.97359,-0.12102,0.06826,-0.17395,-0.07537
-0.19984,0.97103,-0.13099,0.0324,0.03463,-0.50199
-0.20553,0.96779,-0.14539,-0.01512,0.67061,-0.52726
-0.20742,0.96268,-0.17384,-0.06721,0.95756,-0.50019
-0.2085,0.95402,-0.21533,-0.09713,1.0936,-0.42517
-0.2089,0.94057,-0.26775,-0.2112,0.90445,-0.04614
-0.20413,0.92343,-0.32497,-0.29475,1.18083,0.14858
-0.19584,0.90394,-0.38017,-0.25623,0.73917,0.3711
-0.17763,0.89042,-0.41904,-0.06404,0.15268,0.34618
-0.1563,0.88332,-0.44194,-0.03399,0.00772,0.4464
-0.14405,0.87699,-0.45841,-0.00168,-0.17466,0.47433
-0.13611,0.87523,-0.46416,-0.00124,-0.21408,0.4259
-0.131,0.8799,-0.45674,0.02996,-0.07704,0.36496
-0.12733,0.88785,-0.44217,-0.025,-0.1301,0.36384
-0.12402,0.89579,-0.42682,-0.1716,-0.39027,0.44347
-0.12252,0.90406,-0.40947,-0.25971,-0.53142,0.44594
-0.12564,0.91356,-0.38682,-0.22864,-0.54602,0.4003
-0.13663,0.9232,-0.35922,-0.12847,-0.52195,0.41551
-0.15323,0.93168,-0.32939,-0.02159,-0.3537,0.45671
-0.17238,0.93696,-0.30397,0.04089,-0.25715,0.35728
-0.18954,0.94078,-0.28108,0.09961,-0.27692,0.27066
-0.19782,0.94961,-0.24311,0.17707,-0.05461,0.31922
-0.18742,0.96541,-0.18128,0.1685,0.18099,-0.48713
-0.18377,0.97485,-0.12605,0.32257,0.16032,-1.24492
-0.1836,0.97778,-0.10116,0.42444,-0.04512,-0.78101
-0.18137,0.97897,-0.09339,0.33289,-0.16229,-0.32229
-0.17601,0.98006,-0.09225,0.12727,-0.29869,-0.09682
-0.16491,0.98182,-0.09397,-0.19448,-0.36146,0.09612
-0.14916,0.98418,-0.09558,-0.28222,-0.29966,0.1127
-0.13855,0.98615,-0.09122,-0.60628,0.23712,-0.23779
-0.14097,0.98716,-0.07505,-0.89104,1.22991,-0.17211
-0.16031,0.98535,-0.05816,-0.50645,0.74417,0.02955
-0.17352,0.98271,-0.06458,0.19394,0.38922,0.44277
-0.17452,0.97997,-0.09597,0.03986,1.00273,0.4397
-0.17938,0.97723,-0.11336,0.81599,1.44733,-1.3941
-0.1858,0.97754,-0.09948,0.35849,-0.26689,0.42641
-0.17644,0.97394,-0.14251,0.16562,-0.18712,0.39358
-0.16679,0.96937,-0.1803,-0.0045,-0.0304,0.58324
-0.15598,0.96926,-0.19029,-0.12126,0.30949,0.59181
-0.14363,0.97488,-0.17024,-0.16064,0.28306,0.44094
-0.13604,0.98105,-0.13798,-0.23438,0.07501,0.24248
-0.13604,0.98577,-0.09879,-0.05931,-0.12418,-0.17497
-0.13966,0.989,-0.04879,0.01333,-0.13334,-0.30641
-0.14082,0.99001,-0.00748,0.06778,-0.12413,-0.43696
-0.14409,0.98956,-0.0005,-0.02119,-0.18341,-0.23867
-0.14878,0.98881,-0.01045,-0.0073,-0.17386,-0.08451
-0.15247,0.98825,-0.01029,0.07745,-0.15737,-0.18317
-0.15543,0.98781,-0.00899,0.18127,-0.3665,-0.29761
-0.15795,0.98727,-0.01864,0.09534,-0.43692,-0.16765
-0.15915,0.98666,-0.03431,0.02464,-0.34016,-0.19782
-0.16043,0.98599,-0.04571,0.01814,0.0261,-0.19687
-0.16247,0.98492,-0.0595,0.12356,-0.06956,-0.25761
-0.16462,0.98305,-0.08067,0.14564,-0.28569,0.02467
-0.16648,0.98013,-0.1078,0.02058,-0.32759,0.03367
-0.16769,0.97714,-0.13069,-0.02209,-0.31808,0.13011
-0.17269,0.97314,-0.15221,0.05623,-0.15108,-0.25221
-0.18455,0.96803,-0.16989,0.19204,0.06585,-0.45111
-0.19567,0.96099,-0.19549,0.12143,0.25201,-0.34343
-0.20516,0.951,-0.23132,0.05409,0.77671,-0.48516
-0.21452,0.93608,-0.27882,0.22145,1.219,-0.58498
-0.22632,0.91002,-0.34733,0.22693,1.1567,-0.01612
-0.23568,0.87764,-0.41739,0.06212,0.78862,0.6425
-0.23556,0.84883,-0.47329,-0.2327,0.57616,0.52427
-0.22341,0.83053,-0.5102,-0.4116,0.3928,0.66483
-0.1981,0.82816,-0.52431,-0.12922,-0.10397,0.54233
-0.16906,0.83634,-0.52149,0.05204,-0.39416,0.58414
-0.14979,0.85213,-0.50143,-0.10482,-0.27392,0.35623
-0.14141,0.86755,-0.47683,-0.01776,0.01118,0.33903
-0.13831,0.87891,-0.4565,0.00026,0.04497,0.36617
-0.13754,0.88799,-0.43881,-0.047,-0.1766,0.39911
-0.14147,0.89746,-0.41778,-0.08488,-0.27378,0.37629
-0.15,0.90811,-0.39093,-0.20184,-0.31499,0.33126
-0.15718,0.92044,-0.35788,-0.15183,-0.21901,0.29769
-0.16452,0.93334,-0.31908,-0.1427,-0.17702,0.21032
-0.17427,0.9457,-0.27438,-0.01549,-0.30144,-0.00805
-0.18674,0.95604,-0.2261,0.04399,-0.29405,-0.0931
-0.20233,0.96278,-0.1792,0.15994,-0.19548,-0.1067
-0.21104,0.96626,-0.14764,0.23872,0.02066,-0.48816
-0.20696,0.96954,-0.13102,0.19437,-0.00915,-0.7163
-0.20467,0.97175,-0.1175,0.15082,-0.16107,-0.59846
-0.20406,0.97344,-0.10382,0.21072,-0.2965,-0.18938
-0.19944,0.97534,-0.09448,0.1018,-0.30454,-0.05803
-0.18762,0.97765,-0.09487,-0.08709,-0.27944,-0.12539
-0.17222,0.97988,-0.10088,-0.34568,-0.13952,-0.16055
-0.16115,0.9815,-0.10341,-0.4939,0.30122,0.22596
-0.15948,0.98095,-0.11092,-0.51456,0.79369,0.12327
-0.16777,0.97816,-0.12272,-0.26342,0.57488,0.41733
-0.17609,0.97697,-0.12052,-0.21366,0.87742,0.41779
-0.18275,0.97511,-0.12554,-0.4592,2.08388,-0.59797
-0.19432,0.97643,-0.0939,0.66857,-0.22767,0.78685
-0.18059,0.97138,-0.15428,0.14296,-0.32845,0.65004
-0.16265,0.95899,-0.23211,0.06469,-0.1491,0.7892
-0.15517,0.94945,-0.27288,-0.03592,0.18573,0.97735
-0.14281,0.95266,-0.26841,-0.10501,0.43522,0.67489
-0.13147,0.96083,-0.24397,-0.01823,0.30734,0.28375
-0.13037,0.96967,-0.20672,0.02315,-0.08199,0.01678
-0.13423,0.97966,-0.14916,0.07756,-0.12382,0.07218
-0.13494,0.98736,-0.08313,0.16417,-0.1368,-0.20125
-0.13672,0.99037,-0.0217,-0.00139,-0.06143,-0.46978
-0.138,0.99031,0.01527,-0.20993,-0.05719,-0.4068
-0.14259,0.9896,0.01912,-0.15209,-0.13895,-0.409
-0.1503,0.98854,0.01389,0.1162,-0.25107,-0.40965
-0.15692,0.98757,0.0084,0.27826,-0.35441,-0.3274
-0.15906,0.98727,-0.00076,0.19136,-0.37516,-0.32245
-0.15769,0.98736,-0.01556,0.10658,-0.36206,-0.29349
-0.15589,0.98721,-0.03349,-0.02768,-0.27732,0.04917
-0.15657,0.98595,-0.05823,-0.02153,-0.18704,0.03295
-0.15922,0.98389,-0.08132,0.09678,-0.20769,0.16361
-0.16363,0.98144,-0.09997,0.19978,-0.16639,0.09523
-0.16761,0.9797,-0.11,0.28684,-0.05819,0.06632
-0.17002,0.97838,-0.11776,0.30901,0.04836,-0.22741
-0.16955,0.97687,-0.13033,0.21833,0.04183,-0.41433
-0.16899,0.97359,-0.15352,0.08337,0.13649,-0.50392
-0.16865,0.96828,-0.18437,-0.0144,0.3108,-0.5247
-0.16712,0.9608,-0.22121,0.01701,0.7856,-0.53076
-0.16731,0.94838,-0.2694,0.08474,0.95597,-0.42361
-0.17671,0.92592,-0.33383,0.11669,0.85563,0.16271
-0.18449,0.89725,-0.40114,0.1061,0.78162,0.37129
-0.19033,0.86552,-0.4633,-0.00318,0.61811,0.50764
-0.19356,0.83563,-0.51406,-0.39894,0.37891,0.78803
-0.17061,0.82318,-0.54154,-0.33737,0.14716,0.74535
-0.14202,0.82725,-0.54358,-0.09031,-0.37952,0.58434
-0.11926,0.83782,-0.53276,-0.03538,-0.2611,0.32817
-0.1054,0.84767,-0.51994,-0.02787,-0.18949,0.30977
-0.09825,0.85705,-0.50579,-0.06539,-0.29769,0.41396
-0.09862,0.86676,-0.48887,-0.13467,-0.43746,0.41801
-0.10532,0.87784,-0.46723,-0.17273,-0.47066,0.41621
-0.11446,0.8909,-0.43954,-0.16847,-0.45364,0.41542
-0.12431,0.90494,-0.40698,-0.1801,-0.26456,0.4183
-0.13644,0.91801,-0.37234,-0.1718,-0.22221,0.36095
-0.15197,0.92837,-0.33915,-0.02782,-0.16361,0.05308
-0.16997,0.93862,-0.30016,0.161,-0.04638,-0.05955
-0.18812,0.94863,-0.25438,0.39236,0.13876,-0.15117
-0.19531,0.95673,-0.21569,0.45718,0.15684,-0.50745
-0.19268,0.96365,-0.18505,0.32088,0.07434,-0.63266
-0.19006,0.96911,-0.15718,0.15949,-0.05909,-0.48923
-0.18744,0.97309,-0.13402,0.0849,-0.23276,-0.31053
-0.18142,0.9765,-0.11629,0.04058,-0.31452,-0.18161
-0.1705,0.98004,-0.10222,-0.09154,-0.29684,-0.12585
-0.15735,0.98309,-0.09371,-0.2066,-0.25208,-0.13473
-0.1481,0.98474,-0.09143,-0.28423,-0.09223,-0.07833
-0.14524,0.98527,-0.09029,-0.26494,0.46534,0.2381
-0.147,0.98463,-0.09434,-0.407,0.87962,0.07368
-0.15102,0.98421,-0.0923,-0.21797,0.64836,0.13808
-0.15721,0.98382,-0.08586,-0.17836,0.49846,0.18927
-0.16171,0.98234,-0.09412,-0.39282,1.22436,-0.36088
-0.16895,0.98024,-0.10292,0.63541,0.21119,0.24715
-0.16873,0.9744,-0.1486,0.10797,0.03943,0.73193
-0.15911,0.96716,-0.19821,0.03266,0.14977,0.79386
-0.14616,0.96422,-0.22118,0.02842,0.24065,0.76512
-0.13037,0.96925,-0.20872,-0.08176,0.30646,0.48768
-0.12315,0.97557,-0.18192,-0.07721,0.21728,0.40282
-0.12097,0.9808,-0.15296,-0.06415,0.11194,-0.00776
-0.12331,0.98672,-0.10576,-0.08897,0.0619,-0.32738
-0.12505,0.9915,-0.03592,-0.13096,0.0952,-0.55774
-0.12569,0.99202,0.00974,-0.14694,0.04466,-0.63669
-0.13305,0.99111,0.00037,-0.08408,-0.22779,-0.10844
-0.14284,0.98947,-0.0235,0.01937,-0.29841,0.00651
-0.14994,0.98805,-0.03566,0.11267,-0.35129,0.04741
-0.1566,0.98722,-0.02942,0.1826,-0.36231,-0.01262
-0.16267,0.98654,-0.01679,0.15414,-0.33264,-0.19061
-0.16784,0.98577,-0.0091,0.1249,-0.28359,-0.25099
-0.1721,0.98503,-0.01021,0.15179,-0.23521,-0.13855
-0.17501,0.98441,-0.01764,0.20011,-0.20256,-0.09152
-0.177,0.98391,-0.02429,0.22246,-0.20768,-0.0883
-0.17868,0.98339,-0.03178,0.21298,-0.27806,0.04763
-0.18059,0.98255,-0.04453,0.11488,-0.2147,-0.06983
-0.18383,0.98166,-0.05056,0.09837,0.04497,-0.14832
-0.18736,0.98082,-0.05372,0.14735,0.17673,-0.34369
-0.18934,0.97976,-0.06488,0.10093,0.16159,-0.63438
-0.19231,0.97725,-0.08938,-0.1437,0.06143,-0.50573
-0.20109,0.97167,-0.12419,-0.17964,0.0254,-0.41547
-0.21467,0.96326,-0.16139,-0.12899,0.24263,-0.57602
-0.23171,0.94943,-0.21189,0.22675,0.84762,-0.09043
-0.25395,0.92616,-0.2788,0.36236,0.87297,0.08149
-0.27018,0.90203,-0.33667,0.24598,0.76556,0.38843
-0.27473,0.87875,-0.39029,0.20678,0.46952,0.63348
-0.26863,0.86013,-0.43361,0.0784,0.29624,0.59186
-0.25431,0.85168,-0.45823,0.01571,0.24747,0.62862
-0.22614,0.85603,-0.46484,0.02363,0.0705,0.23427
-0.20017,0.86832,-0.45382,0.10527,0.03782,0.0295
-0.18588,0.87842,-0.44026,0.07623,-0.02217,0.094
-0.17857,0.88507,-0.42985,-0.07949,-0.23752,0.35363
-0.17725,0.89296,-0.41378,-0.09822,-0.26025,0.35601
-0.18591,0.90185,-0.39001,-0.08809,-0.12635,0.28141
-0.20147,0.91149,-0.35861,-0.09428,-0.13738,0.22798
-0.21644,0.9221,-0.32076,-0.13099,-0.23063,0.18894
-0.22741,0.93228,-0.2813,-0.12286,-0.30135,0.14205
-0.2348,0.9406,-0.24526,-0.06328,-0.21672,0.34576
-0.23257,0.95072,-0.20503,-0.02445,0.00745,-0.26202
-0.23503,0.95578,-0.17677,0.07925,0.00517,-0.48325
-0.24927,0.95453,-0.16353,0.13681,-0.04947,-0.52714
-0.26105,0.95296,-0.154,0.16784,-0.10251,-0.42454
-0.26503,0.95329,-0.14491,0.10464,-0.10492,-0.37625
-0.26525,0.95391,-0.14034,0.08163,-0.17927,-0.27391
-0.26489,0.95384,-0.14149,0.12858,-0.21757,-0.24276
-0.26404,0.9533,-0.14664,0.14386,-0.20058,-0.37016
-0.26434,0.9522,-0.15311,0.17157,-0.29943,-0.34992
-0.26777,0.95041,-0.15819,0.27197,-0.44136,-0.18615
-0.27362,0.94846,-0.15984,0.34186,-0.39469,-0.08494
-0.27817,0.94737,-0.15846,-0.08416,0.39991,-0.21863
-0.2758,0.94834,-0.15676,-0.75171,1.33729,-0.34748
-0.27337,0.94683,-0.16965,-0.49739,0.53741,1.01149
-0.27787,0.94027,-0.19664,-0.45781,0.51464,1.12843
-0.28096,0.93977,-0.19467,0.63591,0.64094,0.3685
-0.28545,0.93876,-0.193,0.84291,0.4261,0.1422
-0.29048,0.93607,-0.19849,0.57333,0.19049,0.43774
-0.29601,0.93388,-0.20061,0.1754,0.3983,0.68699
-0.30072,0.9355,-0.18548,0.0462,0.45517,0.72292
-0.30276,0.94048,-0.15437,0.02866,0.34512,0.3975
-0.29992,0.94801,-0.10639,-0.06142,0.2,-0.04017
-0.29371,0.95429,-0.05535,-0.12827,0.03552,-0.08118
-0.28956,0.95692,-0.02131,0.04385,-0.06192,-0.04509
-0.28784,0.95768,0.00041,0.2095,-0.1895,0.02751
-0.28491,0.95834,0.02022,0.2393,-0.33256,0.0071
-0.28032,0.95886,0.0447,0.08143,-0.28369,-0.00226
-0.27532,0.95837,0.07569,0.01258,-0.2214,-0.02409
-0.27331,0.95553,0.11075,-0.02614,-0.118,-0.04074
-0.27644,0.95011,0.14445,0.05227,-0.08152,-0.20996
-0.28141,0.9433,0.17605,0.1008,-0.05419,-0.25686
-0.28487,0.93618,0.20595,0.21836,0.09464,-0.33341
-0.28687,0.92998,0.22988,0.26068,0.12773,-0.44043
-0.28806,0.92519,0.24706,0.23925,0.1407,-0.55277
-0.286,0.92201,0.26097,0.04279,0.20579,-0.83487
-0.28133,0.92119,0.2688,-0.08799,0.27171,-0.81022
-0.28165,0.92318,0.26155,-0.03198,0.30979,-0.75938
-0.29256,0.92535,0.24113,0.07001,0.44239,-0.68999
-0.31165,0.9292,0.19867,0.12016,0.56327,-0.75171
-0.32985,0.93421,0.13583,0.16516,0.64799,-0.43623
-0.3426,0.93708,0.06713,0.9515,0.88262,0.58433
-0.34027,0.94032,-0.00229,0.90771,0.49075,0.75948
-0.33978,0.93873,-0.05776,0.32596,0.22538,0.55916
-0.33676,0.93491,-0.11198,0.18927,0.38179,0.27586
-0.33128,0.93151,-0.1501,0.0916,0.37406,0.34419
-0.32316,0.92943,-0.17809,0.15983,0.22601,0.48547
-0.31356,0.92727,-0.20455,0.26339,0.09687,0.4596
-0.3022,0.92515,-0.22972,0.31311,0.04214,0.30702
-0.29029,0.92376,-0.24979,0.26273,0.04806,0.45993
-0.27839,0.92376,-0.263,0.24976,0.00436,0.49182
-0.26637,0.92561,-0.26887,0.23033,-0.08389,0.47838
-0.25525,0.92862,-0.26928,0.19731,-0.13271,0.43554
-0.24681,0.93193,-0.26569,0.16798,-0.14416,0.42345
-0.24216,0.93437,-0.26138,0.15294,-0.13246,0.40542
-0.24165,0.9359,-0.25632,0.10518,-0.00101,0.37198
-0.24099,0.93834,-0.24789,0.06553,0.07431,0.32646
-0.23668,0.94152,-0.23985,-0.01351,0.06099,0.26426
-0.23121,0.94441,-0.23371,-0.14685,0.00151,0.15835
-0.22596,0.94725,-0.22728,-0.10337,-0.02704,0.0891
-0.22191,0.94967,-0.2211,-0.07823,-0.04511,0.06561
-0.21953,0.95155,-0.21531,-0.0242,-0.10531,0.0645
-0.21893,0.95307,-0.20911,0.05757,-0.13154,0.0869
-0.21848,0.95479,-0.20158,0.0853,-0.12911,0.09523
-0.21839,0.95693,-0.19129,0.14806,-0.12357,0.04506
-0.21946,0.9592,-0.17827,0.18795,-0.05946,-0.08044
-0.22134,0.96161,-0.16223,0.34166,-0.01312,-0.26033
-0.22189,0.9642,-0.14519,0.57209,0.07166,-0.3168
-0.21686,0.96759,-0.12942,0.69121,0.13485,-0.15356
-0.20436,0.97182,-0.11748,0.43409,0.12619,-0.20683
-0.19033,0.97569,-0.10863,0.32782,0.17554,-0.30894
-0.18062,0.97807,-0.10366,0.06263,0.27948,-0.21296
-0.17696,0.97914,-0.09989,-0.44493,0.93336,0.00128
-0.17796,0.97898,-0.09963,-0.45312,1.1608,-0.36377
-0.17645,0.97758,-0.1149,-0.14874,0.33729,-0.32956
-0.16667,0.97209,-0.16512,-0.71258,-1.0475,0.94108
-0.16186,0.96624,-0.20043,-0.71088,-1.10778,1.00593
-0.17149,0.96662,-0.19038,-0.17973,-0.43378,0.65693
-0.19671,0.96587,-0.16849,0.0326,0.15446,0.54664
-0.22614,0.96138,-0.15687,0.31994,0.44496,0.57629
-0.24814,0.95764,-0.14611,0.99675,0.56703,-0.21248
-0.25818,0.96,-0.10841,0.64734,0.1809,0.01609
-0.25682,0.96234,-0.08914,0.3914,0.12512,-0.01505
-0.25026,0.96475,-0.08145,0.00839,0.04942,0.31945
-0.24342,0.96746,-0.06899,-0.03451,-0.00676,0.33826
-0.2331,0.97123,-0.04879,-0.13502,-0.07288,0.25922
-0.22199,0.97484,-0.02022,-0.24989,-0.06148,0.04025
-0.21357,0.97688,0.00938,-0.1529,-0.01138,-0.06973
-0.212,0.97672,0.0326,0.10426,-0.03687,-0.00886
-0.21269,0.97584,0.04998,0.23256,-0.06182,0.05595
-0.20948,0.97547,0.06763,0.05613,-0.08594,0.11312
-0.20258,0.9755,0.08583,-0.05923,-0.03263,-0.03359
-0.19727,0.97467,0.10536,-0.11825,-0.00079,-0.02224
-0.19475,0.97281,0.12532,-0.05476,-0.03031,-0.04015
-0.19445,0.97002,0.14578,0.04515,-0.03197,-0.03784
-0.19522,0.96684,0.16466,0.11857,0.0047,-0.07637
-0.19602,0.96366,0.18148,0.14156,0.08709,-0.087
-0.1968,0.96033,0.19756,0.12498,0.13627,-0.04213
-0.19867,0.95632,0.21442,0.12669,0.13814,-0.07404
-0.20067,0.9515,0.23317,0.11961,0.13623,-0.13736
-0.19943,0.946,0.25557,0.05005,0.04845,-0.34279
-0.19379,0.94094,0.27763,0.0091,0.04495,-0.50395
-0.18469,0.93746,0.29505,-0.03017,0.12307,-0.58383
-0.17727,0.9363,0.30317,-0.11358,0.17774,-0.49278
-0.17721,0.93897,0.29483,0.02229,0.18986,-0.46501
-0.18192,0.94425,0.27439,0.10345,0.1952,-0.43226
-0.18595,0.95164,0.24456,0.23861,0.35861,-0.67218
-0.18673,0.96259,0.19633,0.04019,0.47189,-0.56668
-0.19027,0.97307,0.1301,-0.13256,0.24075,-0.28554
-0.20025,0.97802,0.05813,-0.22647,0.48275,0.03632
-0.21348,0.97682,-0.01594,-0.10375,0.4314,0.42846
-0.22388,0.97074,-0.08682,-0.04372,0.3623,0.58052
-0.22922,0.9613,-0.15282,0.25212,0.37709,0.62505
-0.22877,0.9526,-0.20056,0.32569,0.25443,0.61061
-0.21425,0.94963,-0.22869,0.15055,0.07173,0.18111
-0.1956,0.9483,-0.24992,0.08929,0.03641,0.14507
-0.18328,0.94482,-0.27152,0.10521,-0.05081,0.21627
-0.17419,0.94104,-0.29001,0.211,-0.1519,0.34136
-0.16497,0.93954,-0.30009,0.19942,-0.16813,0.38896
-0.15668,0.93984,-0.30357,0.03422,-0.23807,0.38255
-0.15056,0.94092,-0.30331,-0.09866,-0.22248,0.36225
-0.14847,0.94256,-0.29923,-0.23415,-0.21374,0.33695
-0.15206,0.94476,-0.29036,-0.25323,-0.22485,0.26478
-0.16223,0.94747,-0.27565,-0.20684,-0.17409,0.23517
-0.17356,0.95059,-0.2574,-0.159,-0.10141,0.18292
-0.18135,0.954,-0.23873,-0.15543,-0.01624,0.10482
-0.18444,0.95788,-0.22011,-0.15807,0.06051,-0.01234
-0.18127,0.96255,-0.20161,-0.15287,0.07086,-0.09304
-0.17592,0.96735,-0.18247,-0.07109,0.0183,-0.21837
-0.17459,0.97077,-0.16468,-0.06675,-0.00817,-0.16604
-0.17793,0.972,-0.15348,-0.0255,-0.01599,-0.13736
-0.18298,0.97172,-0.14923,0.08551,-0.11303,-0.01651
-0.18747,0.97089,-0.14907,0.15617,-0.07938,-0.0697
-0.18892,0.9706,-0.14915,0.28803,-0.13793,-0.2727
-0.1881,0.97123,-0.14606,0.34019,-0.1223,-0.22862
-0.18386,0.9728,-0.14091,0.3758,-0.11842,-0.02811
-0.17814,0.97457,-0.13592,0.28704,-0.22993,0.15476
-0.1712,0.97618,-0.13332,0.2514,-0.27183,0.16297
-0.16053,0.97813,-0.13224,0.17722,-0.30636,0.03948
-0.14691,0.98076,-0.12858,0.08258,-0.3127,-0.13636
-0.13321,0.98371,-0.12073,-0.04961,-0.31012,-0.15652
-0.12264,0.98589,-0.11392,-0.11561,-0.2913,-0.14212
-0.1172,0.98697,-0.11024,-0.07762,-0.3006,-0.09774
-0.1178,0.98728,-0.10681,0.05187,-0.36222,-0.03275
-0.12122,0.9875,-0.10069,0.09019,-0.35565,-0.01974
-0.12391,0.98827,-0.08923,0.19187,-0.25915,-0.07835
-0.12479,0.98941,-0.07406,0.23627,-0.29261,0.07489
-0.12058,0.99072,-0.06273,0.18898,-0.29817,0.18424
-0.10973,0.99184,-0.06491,-0.19606,0.35856,0.45844
-0.10034,0.99266,-0.06755,-0.83034,1.10251,-0.4417
-0.09634,0.99489,-0.03033,-0.74567,1.01497,0.27423
-0.09449,0.99552,0.00152,-0.62292,0.43311,-0.29329
-0.10028,0.99496,0.00042,-0.29393,0.88889,-0.69574
-0.1123,0.99347,-0.02002,-0.0828,1.1927,-0.9448
-0.1184,0.99145,-0.05495,0.31781,0.25096,0.32901
-0.11475,0.98893,-0.09412,0.03952,0.06337,0.57327
-0.10954,0.9871,-0.11677,-0.08873,0.03373,0.72034
-0.10356,0.98804,-0.11427,-0.05774,0.15628,0.37147
-0.09915,0.99081,-0.09199,-0.04021,0.13533,0.3047
-0.09782,0.99348,-0.05859,0.00443,0.00783,-0.01271
-0.09692,0.99521,-0.0128,0.15976,-0.144,-0.30978
-0.09301,0.99518,0.03121,0.2062,-0.278,-0.54168
-0.08834,0.99529,0.03985,0.03051,-0.35795,-0.4567
-0.08655,0.99594,0.02489,-0.18375,-0.33386,-0.10811
-0.08901,0.99586,0.01831,-0.27394,-0.36105,0.06432
-0.09268,0.99545,0.02229,-0.17777,-0.38099,-0.22948
-0.09901,0.9948,0.02366,-0.0791,-0.46761,-0.22142
-0.10649,0.99418,0.01608,-0.01993,-0.49135,-0.07838
-0.11314,0.99355,0.00777,-0.0134,-0.25603,0.025
-0.11773,0.99305,0.00134,0.13877,0.04431,-0.17906
-0.11778,0.99303,-0.00395,0.26179,0.12702,-0.34438
-0.11421,0.99329,-0.01808,0.30871,0.02963,-0.49298
-0.11288,0.99277,-0.04078,-0.00105,-0.22747,-0.22117
-0.11652,0.99094,-0.06683,-0.07496,-0.23265,-0.29591
-0.12461,0.98791,-0.09227,-0.09559,0.05126,-0.44108
-0.13204,0.98369,-0.12215,-0.0217,0.18675,-0.35687
-0.13735,0.97696,-0.16332,0.0477,0.89004,-0.42159
-0.14559,0.96419,-0.22168,0.21729,1.03638,-0.26563
-0.15597,0.94392,-0.29102,0.26824,1.00057,-0.05967
-0.15372,0.92484,-0.3479,0.15748,0.59856,0.48304
-0.13985,0.91206,-0.38546,-0.35125,0.35271,0.45858
-0.10981,0.90902,-0.40203,-0.45756,0.33358,0.50873
-0.0694,0.9137,-0.40041,-0.39891,0.13212,0.41062
-0.03784,0.92288,-0.38322,-0.39667,-0.26131,0.18084
-0.02156,0.9325,-0.36054,-0.40656,-0.24336,0.1127
-0.01622,0.93961,-0.34187,-0.28163,-0.14984,0.13599
-0.0167,0.94499,-0.32667,-0.25616,-0.17798,0.24546
-0.02493,0.94936,-0.3132,-0.28064,-0.26632,0.26733
-0.0397,0.95388,-0.29755,-0.30585,-0.32925,0.18044
-0.06005,0.9587,-0.278,-0.26713,-0.28594,0.23977
-0.08201,0.96303,-0.25662,-0.19785,-0.27875,0.23201
-0.10373,0.96654,-0.23459,-0.12163,-0.27414,0.16541
-0.12371,0.9702,-0.20832,0.00253,-0.25866,0.04659
-0.14082,0.97396,-0.17768,0.15988,-0.26026,-0.04557
-0.15599,0.97676,-0.147,0.34142,-0.20608,-0.12498
-0.16699,0.97915,-0.11568,0.37317,-0.03014,-0.38119
-0.16966,0.98201,-0.08283,0.19441,0.00515,-0.73071
-0.16428,0.98461,-0.05961,0.13592,-0.08561,-0.76301
-0.15542,0.98661,-0.04938,0.13653,-0.30294,-0.44977
-0.14482,0.98853,-0.04275,0.02281,-0.40406,-0.29184
-0.13426,0.99011,-0.0408,-0.17812,-0.42355,-0.25638
-0.12394,0.99138,-0.04247,-0.39144,0.0061,-0.22163
-0.11891,0.99186,-0.04552,-0.50359,0.71206,-0.00926
-0.12532,0.99011,-0.06308,-0.22979,0.61135,0.37061
-0.13268,0.9874,-0.08622,-0.17967,0.42642,0.10586
-0.13725,0.98618,-0.09276,0.00529,0.30834,0.50516
-0.14403,0.98356,-0.10895,-0.04741,1.34164,-0.97914
-0.1443,0.98312,-0.11251,0.74133,0.54569,0.05168
-0.13241,0.97814,-0.16033,0.12328,-0.03347,0.50387
-0.12084,0.97304,-0.19646,-0.10562,0.09844,0.60285
-0.10992,0.97316,-0.20218,-0.12775,0.1373,0.6407
-0.09799,0.97788,-0.1848,-0.12215,0.13452,0.44304
-0.09092,0.98398,-0.15333,-0.12332,0.22099,-0.01935
-0.09095,0.99034,-0.10465,0.02186,0.08946,-0.13442
-0.0931,0.99435,-0.05102,0.03255,-0.11524,-0.36655
-0.09405,0.9954,-0.01837,0.00033,-0.15461,-0.3152
-0.09676,0.99512,-0.01915,-0.02101,-0.19326,-0.22632
-0.10174,0.99446,-0.02656,-0.09574,-0.12866,-0.16373
-0.10663,0.99406,-0.02191,0.006,-0.20943,-0.23331
-0.10896,0.99397,-0.01212,0.07641,-0.18855,-0.31183
-0.11031,0.99382,-0.0119,0.0886,-0.17734,-0.34614
-0.1109,0.99365,-0.01891,0.00685,-0.22853,-0.25804
-0.11154,0.99336,-0.02807,-0.09038,-0.34085,-0.12363
-0.11357,0.99281,-0.03791,-0.10498,-0.35337,-0.11603
-0.11846,0.99175,-0.04904,-0.07203,-0.34001,-0.04889
-0.12601,0.99015,-0.06101,0.09438,0.01055,-0.28945
-0.13232,0.98847,-0.07359,0.15059,0.09075,-0.32337
-0.1342,0.98661,-0.0927,0.17616,0.05923,-0.31351
-0.13579,0.98378,-0.11718,0.05637,-0.00927,-0.53246
-0.13973,0.97872,-0.15027,0.06581,0.23068,-0.50309
-0.14008,0.97067,-0.19539,0.09306,0.50195,-0.46585
-0.14303,0.95555,-0.2578,0.20507,0.97291,0.05344
-0.15214,0.93365,-0.32428,0.23179,0.81643,0.23883
-0.15582,0.91239,-0.37849,0.03412,0.22486,0.83528
-0.14751,0.89817,-0.41415,-0.21626,0.01142,0.83058
-0.13018,0.89893,-0.41831,-0.29182,-0.03314,0.68703
-0.11399,0.9099,-0.39886,-0.20783,0.24768,0.22309
-0.09471,0.92357,-0.37154,-0.13476,0.16252,0.26399
-0.07305,0.93682,-0.34209,-0.27348,-0.0982,0.26797
-0.05776,0.9494,-0.30872,-0.31883,-0.19909,0.26415
-0.05336,0.96076,-0.27218,-0.29028,-0.34609,0.17733
-0.06023,0.9702,-0.23472,-0.19427,-0.32151,0.13633
-0.07452,0.97633,-0.20303,-0.09493,-0.31047,0.06819
-0.0932,0.97941,-0.17907,-0.04275,-0.3688,0.02053
-0.11155,0.98153,-0.15543,-0.01538,-0.33616,-0.02876
-0.12717,0.98358,-0.12803,0.04491,-0.21892,-0.11075
-0.13891,0.98542,-0.09821,0.05209,-0.13175,-0.30203
-0.14544,0.9864,-0.07659,0.12255,-0.10984,-0.53817
-0.14107,0.98754,-0.06976,0.22561,-0.17758,-0.74939
-0.1354,0.98878,-0.06308,0.16946,-0.18649,-0.3874
-0.12722,0.99008,-0.0597,0.1023,-0.18063,-0.12516
-0.11422,0.99153,-0.06178,0.06057,-0.20488,-0.00255
-0.09892,0.99323,-0.06086,-0.09282,-0.27588,-0.07978
-0.08841,0.9947,-0.05239,-0.27844,-0.14108,-0.28596
-0.08476,0.99558,-0.04038,-0.34035,0.1461,-0.1654
-0.08763,0.99549,-0.03619,-0.44451,0.5095,-0.15899
-0.09374,0.99481,-0.03963,-0.65086,1.08218,-0.25872
-0.0957,0.9944,-0.04484,-0.20042,0.83879,-0.08884
-0.09777,0.99264,-0.07145,-0.1734,0.9605,-0.18248
-0.10382,0.98974,-0.09819,0.38054,0.53009,-0.16327
-0.10953,0.98459,-0.13633,0.35022,-0.05835,0.52441
-0.10711,0.9784,-0.17681,0.25494,-0.05736,0.62979
-0.09558,0.97541,-0.1986,0.13136,0.18995,0.74306
-0.07968,0.97892,-0.18804,0.02922,0.16386,0.51904
-0.06713,0.9851,-0.15832,-0.21319,0.15497,0.21138
-0.06116,0.99091,-0.11976,-0.14294,0.0069,-0.10763
-0.06321,0.99576,-0.06673,-0.12419,-0.12182,-0.14905
-0.06523,0.99785,-0.00598,-0.16533,-0.11713,-0.40424
-0.06487,0.99703,0.04154,-0.16791,-0.14856,-0.34476
-0.06855,0.99633,0.05124,-0.1546,-0.21331,-0.24938
-0.07732,0.99618,0.04052,-0.0565,-0.29714,-0.22029
-0.08509,0.99575,0.03502,0.04978,-0.12907,-0.35619
-0.0896,0.99514,0.04082,0.08971,-0.06768,-0.47783
-0.09197,0.99493,0.04057,0.00956,-0.28735,-0.21693
-0.09453,0.99517,0.02639,-0.10121,-0.39013,-0.13276
-0.09966,0.99495,0.01176,-0.10818,-0.37588,-0.06242
-0.10755,0.9942,-0.00146,0.0441,-0.20315,-0.01695
-0.11465,0.9933,-0.01451,0.31629,-0.03019,-0.15029
-0.1176,0.99266,-0.02814,0.37303,-0.04272,-0.0986
-0.11957,0.99192,-0.04241,0.14297,-0.12767,-0.17954
-0.12332,0.99071,-0.05725,0.0424,-0.04197,-0.47614
-0.12865,0.98846,-0.07999,-0.04692,-0.07781,-0.42042
-0.13492,0.9847,-0.11028,-0.14455,0.00703,-0.28976
-0.13996,0.98003,-0.14123,-0.08961,0.53396,-0.50138
-0.14488,0.97239,-0.18292,0.12253,0.83591,-0.35845
-0.15561,0.95758,-0.24254,0.15082,0.85495,-0.07722
-0.15933,0.93927,-0.30395,-0.03376,0.70732,0.23792
-0.15671,0.92078,-0.35722,-0.15269,0.36825,0.32361
-0.15473,0.90431,-0.39784,-0.25477,0.31827,0.47338
-0.14518,0.8941,-0.42368,-0.35326,0.26816,0.4938
-0.12521,0.89403,-0.43016,-0.16294,-0.14554,0.31157
-0.1066,0.89953,-0.42365,-0.0651,-0.27027,0.2409
-0.0934,0.90662,-0.41149,-0.00467,-0.09003,0.21868
-0.0834,0.91449,-0.39592,0.02972,-0.1512,0.25633
-0.07637,0.92242,-0.37855,-0.03503,-0.29934,0.34196
-0.07473,0.93016,-0.35947,-0.17018,-0.36503,0.34971
-0.07889,0.93885,-0.33515,-0.21449,-0.35383,0.30997
-0.08775,0.94816,-0.30543,-0.18955,-0.32325,0.28475
-0.09707,0.95646,-0.27525,-0.13546,-0.26591,0.27723
-0.10372,0.964,-0.24481,-0.12789,-0.30455,0.16699
-0.10911,0.97176,-0.20923,-0.07685,-0.34818,0.0255
-0.11725,0.97865,-0.16877,-0.00375,-0.24355,-0.09202
-0.12994,0.98311,-0.12884,0.19807,-0.02741,-0.29745
-0.13846,0.98575,-0.09551,0.37377,0.15419,-0.61842
-0.13606,0.98784,-0.07527,0.17247,0.01036,-0.69749
-0.13283,0.98936,-0.05932,0.13024,-0.0904,-0.54916
-0.12752,0.99062,-0.04895,-0.05767,-0.28445,-0.23454
-0.11677,0.99223,-0.04289,-0.13658,-0.31062,-0.25222
-0.10624,0.9936,-0.03832,-0.45304,-0.15298,-0.24848
-0.10047,0.9942,-0.03832,-0.54883,0.35701,0.14438
-0.10201,0.99343,-0.05183,-0.59802,0.85175,0.06285
-0.111,0.99193,-0.06118,-0.23526,0.56346,0.20494
-0.12004,0.99101,-0.05908,0.1012,0.1272,0.31004
-0.12491,0.98972,-0.06957,0.12251,0.32693,0.51512
-0.12639,0.98821,-0.08633,0.16067,1.89274,-1.24834
-0.12875,0.99023,-0.05346,0.5571,0.15644,-0.07592
-0.116,0.99069,-0.07124,0.21227,-0.23114,0.17743
-0.10242,0.98822,-0.1137,-0.17909,-0.03676,0.52991
-0.09252,0.98591,-0.13933,-0.16198,0.05492,0.64506
-0.0805,0.98825,-0.12993,-0.1993,0.19324,0.45052
-0.07119,0.99256,-0.09877,-0.2339,0.12387,0.14124
-0.06917,0.99583,-0.05942,-0.09188,0.0017,-0.10932
-0.07062,0.9974,-0.01402,0.0311,-0.11608,-0.15131
-0.07296,0.99689,0.02962,0.18531,-0.17109,-0.4048
-0.076,0.99535,0.0591,0.10445,-0.17121,-0.34589
-0.07884,0.99481,0.06427,-0.064,-0.22334,-0.20718
-0.08166,0.99466,0.06303,-0.15915,-0.25566,-0.20132
-0.08432,0.99431,0.06496,-0.07312,-0.23666,-0.29238
-0.08833,0.99402,0.0642,0.03361,-0.23324,-0.33729
-0.09169,0.99404,0.05899,0.06933,-0.28461,-0.27798
-0.09398,0.99445,0.04716,-0.00683,-0.38119,-0.13904
-0.09633,0.99488,0.03049,-0.0486,-0.40316,-0.04678
-0.10059,0.9948,0.01566,0.01331,-0.24163,-0.09282
-0.10775,0.99417,0.00289,0.0926,-0.12256,-0.0863
-0.11417,0.99338,-0.01278,0.32218,0.11975,-0.42939
-0.11532,0.99296,-0.02689,0.32332,0.12017,-0.41528
-0.11599,0.99198,-0.05017,-0.10546,-0.06832,-0.38016
-0.12274,0.98925,-0.07943,-0.2108,-0.09788,-0.45483
-0.13471,0.98458,-0.11156,-0.21599,0.30909,-0.45725
-0.14416,0.97753,-0.15375,-0.10987,0.84249,-0.23254
-0.15289,0.96667,-0.20536,0.10626,0.84821,-0.09315
-0.16242,0.95028,-0.26568,0.09081,0.8538,0.07203
-0.16575,0.93105,-0.32505,-0.07638,0.67151,0.34523
-0.16445,0.91291,-0.37356,-0.16732,0.52503,0.36431
-0.15775,0.89937,-0.40773,-0.22991,0.31505,0.53964
-0.13927,0.89628,-0.42106,-0.13652,-0.00483,0.46369
-0.11978,0.89901,-0.42123,-0.11547,-0.12485,0.2106
-0.10453,0.90454,-0.41337,-0.02529,-0.06381,0.20947
-0.08985,0.91213,-0.39992,0.07419,-0.00745,0.24259
-0.07777,0.92002,-0.38408,-0.017,-0.19814,0.26744
-0.07202,0.92766,-0.36641,-0.1542,-0.40398,0.28992
-0.07446,0.93518,-0.34624,-0.20032,-0.49361,0.27163
-0.08457,0.94277,-0.32252,-0.16167,-0.4905,0.26965
-0.09852,0.95062,-0.29431,-0.09065,-0.45806,0.28369
-0.11295,0.95811,-0.26318,-0.04617,-0.36485,0.27919
-0.12713,0.96394,-0.23379,0.04732,-0.17823,0.07182
-0.13804,0.96897,-0.20501,0.07839,-0.17471,0.0317
-0.14056,0.97565,-0.16836,0.20283,-0.05365,-0.24391
-0.14462,0.98058,-0.13245,0.25359,-0.03672,-0.39685
-0.14814,0.98347,-0.10406,0.24305,0.00107,-0.49207
-0.14638,0.98581,-0.08211,0.17913,0.01956,-0.47059
-0.14208,0.98777,-0.06412,0.1523,-0.03091,-0.42752
-0.13433,0.98958,-0.05186,-0.04369,-0.26988,-0.25534
-0.12277,0.99141,-0.0451,-0.26694,-0.30666,-0.2774
-0.10853,0.99328,-0.04014,-0.32891,-0.29252,-0.2956
-0.09973,0.99452,-0.0312,-0.49167,-0.12106,-0.27252
-0.09997,0.99474,-0.02241,-0.31031,0.33971,0.12471
-0.10684,0.99386,-0.02877,-0.13633,0.61883,0.4368
-0.1113,0.99316,-0.03522,0.09346,0.93161,-0.27606
-0.11177,0.99336,-0.02702,0.15974,0.46806,0.07385
-0.10941,0.99287,-0.04716,-0.147,0.55215,0.11866
-0.11206,0.99193,-0.05931,-0.30976,0.95192,-0.21807
-0.1224,0.99123,-0.04983,0.41411,0.24518,0.15792
-0.12442,0.99025,-0.0626,0.2291,0.00308,0.28464
-0.11895,0.99001,-0.07568,0.03051,0.09173,0.45128
-0.11084,0.99135,-0.07024,-0.0632,0.24675,0.45455
-0.10392,0.99326,-0.05123,-0.15055,0.22394,0.31974
-0.10278,0.9944,-0.02458,-0.08181,0.05809,-0.02124
-0.10384,0.99453,0.01114,0.01185,-0.09919,-0.32421
-0.10429,0.99364,0.04247,-0.00903,-0.23183,-0.28226
-0.10722,0.99273,0.05469,-0.03895,-0.32116,-0.25417
-0.111,0.99184,0.06262,-0.06582,-0.34238,-0.15017
-0.11491,0.99073,0.0724,-0.02212,-0.3455,-0.13287
-0.11907,0.98956,0.08111,0.00949,-0.34491,-0.19428
-0.12306,0.98856,0.08716,0.08371,-0.26503,-0.31231
-0.12706,0.98797,0.08815,0.07153,-0.21047,-0.30511
-0.13142,0.98773,0.08435,0.05873,-0.21707,-0.32224
-0.13675,0.98766,0.07631,0.06364,-0.31867,-0.20762
-0.14242,0.98762,0.06564,0.12706,-0.18617,-0.11172
-0.14746,0.98755,0.05469,0.23321,0.0791,-0.27159
-0.14962,0.9877,0.04528,0.27172,0.16585,-0.59253
-0.14916,0.98848,0.02559,0.17034,0.0472,-0.71599
-0.14951,0.98873,-0.00756,-0.05963,-0.0385,-0.55991
-0.15596,0.9865,-0.05001,-0.27692,-0.11214,-0.5131
-0.16644,0.98089,-0.10076,-0.32515,0.06017,-0.41525
-0.17213,0.97151,-0.16289,-0.10507,0.64746,-0.19529
-0.17703,0.9537,-0.24313,0.17151,1.0548,0.08206
-0.18304,0.92985,-0.31918,0.22977,0.42207,0.79712
-0.17615,0.90912,-0.37745,0.24059,0.24599,0.90345
-0.1604,0.89734,-0.41116,0.14532,0.17714,0.93865
-0.14442,0.89992,-0.41144,-0.22605,0.24235,0.20421
-0.12495,0.90512,-0.40638,-0.04762,0.49115,0.09324
-0.10112,0.91161,-0.39843,-0.0629,-0.08157,0.18855
-0.08376,0.91922,-0.38474,-0.07934,-0.24363,0.2516
-0.0732,0.92723,-0.36726,-0.29302,-0.4254,0.30831
-0.0736,0.93607,-0.34402,-0.2649,-0.41454,0.24247
-0.08703,0.94496,-0.31539,-0.21118,-0.31978,0.21102
-0.10767,0.95284,-0.28374,-0.14519,-0.14923,0.07041
-0.12901,0.95929,-0.25124,-0.07183,-0.21074,-0.12193
-0.14713,0.96483,-0.21782,0.01473,-0.19756,0.24856
-0.15239,0.97191,-0.17934,-0.02481,0.16267,-0.61992
-0.16237,0.97428,-0.15624,0.20631,-0.01836,-0.5243
-0.17597,0.9738,-0.144,0.2382,-0.09706,-0.46069
-0.18572,0.97315,-0.13597,0.24919,-0.13071,-0.4092
-0.18913,0.97377,-0.1265,0.05463,-0.18237,-0.31904
-0.1864,0.97545,-0.11728,-0.03647,-0.21788,-0.32297
-0.18048,0.97723,-0.11154,-0.10826,-0.32501,-0.36671
-0.17504,0.97845,-0.10948,-0.12466,-0.36017,-0.33509
-0.17318,0.97844,-0.11254,-0.22881,-0.08037,-0.34223
-0.178,0.97635,-0.12268,-0.37351,0.31674,0.41327
-0.18666,0.97072,-0.15119,-0.45504,1.15577,0.85051
-0.19746,0.96694,-0.16135,-0.3137,0.55091,0.05595
-0.20607,0.96739,-0.14728,0.06923,0.35642,0.40001
-0.21011,0.96447,-0.16017,0.28917,0.36016,0.42093
-0.20491,0.96287,-0.17578,0.0874,0.95179,0.13188
-0.20564,0.96653,-0.15336,0.23227,0.78174,0.26748
-0.20631,0.96912,-0.13506,0.29762,0.26197,0.22484
-0.20092,0.97191,-0.12251,0.11147,0.2199,0.2384
-0.19091,0.97625,-0.10242,-0.13048,0.32404,0.25491
-0.17918,0.98101,-0.07425,-0.16565,-0.0103,0.0679
-0.17102,0.98423,-0.04525,-0.09795,-0.09226,0.02628
-0.168,0.98559,-0.01954,-0.02892,-0.1491,0.0329
-0.16777,0.98582,0.00209,0.06122,-0.21979,-0.05696
-0.16875,0.98539,0.02308,0.12058,-0.28602,-0.10952
-0.17028,0.98432,0.04607,0.13802,-0.26461,-0.11808
-0.17196,0.98262,0.06982,0.11215,-0.16196,-0.07814
-0.17384,0.98056,0.09097,0.04749,-0.06441,-0.0425
-0.177,0.97815,0.10908,0.02172,0.00161,-0.05254
-0.18196,0.97514,0.12644,0.06069,-0.02713,-0.09319
-0.18758,0.97154,0.14464,0.1296,-0.08607,-0.17099
-0.19204,0.96775,0.16302,0.14657,-0.06669,-0.23128
-0.19514,0.96388,0.18123,0.04763,0.09993,-0.23574
-0.19717,0.96006,0.19852,-0.0016,0.18196,-0.20015
-0.2005,0.95607,0.21384,0.02867,0.16608,-0.21315
-0.19933,0.95566,0.21676,0.13437,0.1431,-0.33928
-0.19975,0.95502,0.21916,0.19381,0.14258,-0.3557
-0.20006,0.95479,0.21987,0.18021,0.17227,-0.3831
-0.20144,0.95412,0.22152,0.12925,0.25758,-0.46853
-0.20384,0.95507,0.21513,-0.00747,0.32659,-0.66412
-0.20905,0.95842,0.19422,-0.09717,0.30903,-0.5786
-0.22208,0.96291,0.15322,-0.008,0.35274,-0.32891
-0.23971,0.96561,0.10066,0.1596,0.50398,-0.06508
-0.25292,0.96656,0.04235,0.26538,0.58488,0.12829
-0.26304,0.96467,-0.01442,0.39184,0.57604,0.32274
-0.27083,0.96011,-0.0695,0.17034,0.25267,0.53299
-0.27265,0.95433,-0.12213,0.30187,0.15419,0.52424
-0.26961,0.94913,-0.16267,0.48803,0.02595,0.37732
-0.26056,0.94598,-0.19296,0.54888,-0.027,0.34616
-0.24753,0.94441,-0.21637,0.51355,-0.05426,0.35468
-0.23502,0.94287,-0.23614,0.25367,-0.03093,0.31724
-0.2257,0.94101,-0.25209,0.20772,-0.06287,0.37192
-0.21786,0.93978,-0.26333,0.20959,-0.02594,0.49874
-0.21071,0.9399,-0.26869,0.16901,0.01351,0.50551
-0.20285,0.9422,-0.26666,0.14702,0.0245,0.50306
-0.19512,0.94584,-0.25944,0.12059,0.05289,0.45548
-0.18931,0.94957,-0.24995,0.11182,0.06184,0.35482
-0.1857,0.95293,-0.23968,0.00738,0.04596,0.32557
-0.18374,0.95527,-0.23174,-0.07635,0.01356,0.27631
-0.18521,0.95612,-0.22699,-0.13688,-0.02787,0.22051
-0.18714,0.95655,-0.22359,-0.20923,-0.01673,0.14964
-0.18804,0.95692,-0.22125,-0.21737,0.01786,0.10885
-0.1897,0.95692,-0.21979,-0.13354,0.0892,0.07629
-0.19129,0.95665,-0.21958,-0.06269,0.06654,0.08315
-0.19215,0.95623,-0.22068,-0.01064,-0.00843,0.08908
-0.19391,0.95494,-0.2247,-0.00024,-0.10205,0.07939
-0.19639,0.9533,-0.22946,0.00678,-0.1783,0.1022
-0.20027,0.95152,-0.23347,0.03212,-0.2171,0.08011
-0.20544,0.94996,-0.23531,0.09112,-0.1119,0.04433
-0.21193,0.94923,-0.23248,0.20423,-0.00543,-0.04408
-0.21943,0.94931,-0.22508,0.35183,0.06335,-0.16715
-0.22393,0.9503,-0.21628,0.38096,0.10771,-0.24911
-0.22468,0.95131,-0.211,0.44616,0.16971,-0.26493
-0.22191,0.95267,-0.20778,0.41391,0.13758,-0.18834
-0.21581,0.95435,-0.20649,0.03645,0.29988,-0.13051
-0.21146,0.9553,-0.20659,-0.46032,0.82882,0.09715
-0.21015,0.95492,-0.20967,-0.43966,0.92337,-0.10165
-0.2117,0.95281,-0.21756,-0.33615,-0.09312,0.29372
-0.20297,0.94747,-0.24718,-0.47879,-0.81863,0.60667
-0.20001,0.94277,-0.26681,-0.30061,-0.81084,0.96233
-0.2105,0.94245,-0.25975,-0.00895,0.14135,0.72606
-0.23387,0.9402,-0.24764,0.34842,0.46584,0.52276
-0.25983,0.93507,-0.24112,0.65688,0.44772,0.27699
-0.276,0.9362,-0.21763,0.7655,0.19653,0.16383
-0.28262,0.94033,-0.18948,0.31561,0.10662,0.25297
-0.27788,0.94485,-0.1733,0.02665,0.02455,0.25215
-0.27156,0.94934,-0.15813,-0.05173,-0.02516,0.24955
-0.26504,0.95449,-0.13676,0.006,0.00715,0.15763
-0.25776,0.95981,-0.11102,0.02792,0.05023,0.12681
-0.2507,0.96416,-0.08681,0.00704,0.00134,0.01599
-0.24559,0.9671,-0.06632,0.04755,-0.00059,0.0156
-0.24408,0.96853,-0.04865,0.17815,-3e-05,0.07219
-0.24472,0.96909,-0.0311,0.25139,-0.03904,0.14368
-0.24318,0.9699,-0.01257,0.18781,-0.03411,0.15362
-0.23684,0.97153,0.00576,0.01136,-0.0134,0.06332
-0.22878,0.97317,0.02456,-0.02014,-0.01511,0.07375
-0.22321,0.97387,0.04197,-0.02229,-0.01468,0.05335
-0.22041,0.97364,0.05875,0.03028,-0.01522,0.0929
-0.21916,0.97266,0.07687,0.04124,0.00342,0.04661
-0.21856,0.9708,0.09892,0.0735,0.01442,-0.00855
-0.21816,0.9679,0.12479,0.10525,0.0352,-0.08536
-0.21798,0.96444,0.14946,0.10907,0.07719,-0.20874
-0.21776,0.96104,0.17022,0.11281,0.08302,-0.24871
-0.21719,0.95824,0.186,0.1033,0.06449,-0.23324
-0.21713,0.95655,0.19458,0.07254,0.04507,-0.19206
-0.21625,0.9567,0.19481,0.04963,0.07704,-0.1944
-0.21092,0.95959,0.18629,0.08766,0.15949,-0.19386
-0.20924,0.95983,0.18693,0.25283,0.42808,-0.2913
-0.21079,0.95975,0.18559,0.37613,0.63488,-0.30855
-0.21124,0.96253,0.17003,0.3464,0.30622,-0.40635
-0.20898,0.96719,0.14449,-0.0232,0.02653,-0.5925
-0.21156,0.97108,0.11062,-0.21741,0.0659,-0.42783
-0.22506,0.97247,0.06046,-0.14083,0.23106,-0.14676
-0.24243,0.97015,0.00476,-0.00036,0.28514,0.15043
-0.25665,0.96499,-0.05406,0.17688,0.33564,0.3961
-0.26226,0.95858,-0.11111,0.36114,0.45104,0.5919
-0.26028,0.95135,-0.16489,0.3103,0.20156,0.63615
-0.25365,0.94524,-0.20539,0.17954,0.14653,0.37704
-0.24648,0.9413,-0.23065,0.18471,0.12694,0.30528
-0.24096,0.93769,-0.25035,0.20598,0.06969,0.26142
-0.235,0.93346,-0.27098,0.16177,-0.08065,0.27375
-0.22556,0.92921,-0.29274,0.11495,-0.09348,0.33277
-0.21324,0.92669,-0.30946,0.06153,-0.11035,0.36406
-0.20127,0.92728,-0.31567,-0.03932,-0.08279,0.35667
-0.19284,0.92991,-0.31317,-0.05496,-0.06628,0.29639
-0.18714,0.93256,-0.30872,-0.06827,-0.0766,0.29139
-0.18473,0.93381,-0.3064,-0.08182,-0.15189,0.22705
-0.18606,0.93394,-0.30519,-0.0783,-0.1755,0.18632
-0.18881,0.93347,-0.30495,-0.0761,-0.20513,0.17422
-0.19118,0.93352,-0.3033,-0.10515,-0.26924,0.23709
-0.19356,0.93415,-0.29983,-0.1023,-0.26098,0.22625
-0.1967,0.93539,-0.29387,-0.06865,-0.22236,0.14618
-0.20266,0.93733,-0.28346,0.06779,-0.13204,0.05003
-0.21489,0.93887,-0.26898,0.19442,-0.08579,0.02559
-0.22913,0.93953,-0.25454,0.27993,-0.16592,0.02425
-0.24036,0.93996,-0.24228,0.23466,-0.21493,-0.01782
-0.24729,0.94089,-0.23146,0.22684,-0.20565,-0.06292
-0.2513,0.94279,-0.21908,0.28685,-0.11277,-0.13446
-0.25294,0.94568,-0.20425,0.30329,-0.14448,-0.07333
-0.25108,0.94894,-0.19098,0.26107,-0.1892,-0.03588
-0.24545,0.95214,-0.18215,0.06921,-0.24369,0.02685
-0.23886,0.95514,-0.17505,0.00253,-0.23996,0.01958
-0.23487,0.9576,-0.16684,-0.06534,-0.26207,-0.01138
-0.23348,0.95951,-0.15756,-0.04517,-0.26482,-0.03799
-0.23349,0.96111,-0.14748,-0.04354,-0.25222,-0.05188
-0.23433,0.96258,-0.13615,0.00134,-0.24444,0.00193
-0.23549,0.96389,-0.12432,-0.28512,0.51731,0.02124
-0.23575,0.96545,-0.11106,-0.4201,0.9932,0.07204
-0.2383,0.96581,-0.10211,-0.22003,0.56491,0.5888
-0.23546,0.96576,-0.10896,-0.12002,0.72733,-0.14432
-0.234,0.96596,-0.11028,0.0954,1.12527,-0.62086
-0.23742,0.96436,-0.11683,0.75523,0.52811,-0.25978
-0.23461,0.96065,-0.14865,0.28507,-0.00666,0.58171
-0.22512,0.95416,-0.1972,0.11285,-0.17005,0.66868
-0.21392,0.94826,-0.23459,0.11495,-0.19987,0.82764
-0.19633,0.94902,-0.24662,0.01174,0.25478,0.66271
-0.18169,0.95587,-0.23086,-0.05369,0.44716,0.21578
-0.18027,0.96414,-0.19475,-0.03822,0.25886,-0.0107
-0.18873,0.97244,-0.13691,0.18385,-0.07586,-0.02915
-0.19654,0.9777,-0.07401,0.14445,-0.11431,-0.48669
-0.20317,0.97896,-0.01881,0.08237,-0.11257,-0.54802
-0.20651,0.97843,-0.00474,0.04892,-0.17175,-0.15612
-0.20684,0.97832,-0.01021,0.18169,-0.13118,-0.16485
-0.20594,0.97854,-0.00715,0.23636,-0.13319,-0.17907
-0.20477,0.97881,-0.00134,0.22813,-0.16619,-0.41238
-0.20309,0.97915,-0.00494,-0.03518,-0.29276,-0.05135
-0.20282,0.97902,-0.01956,-0.07706,-0.32231,0.07271
-0.20347,0.97835,-0.03794,-0.10425,-0.30613,0.10373
-0.20567,0.97728,-0.05126,0.06922,-0.13348,-0.16277
-0.20955,0.97589,-0.0611,0.11745,-0.04133,-0.24088
-0.21222,0.9742,-0.07683,0.23749,-0.00467,-0.17272
-0.21449,0.97159,-0.10006,0.20828,-0.01179,-0.2815
-0.21898,0.96788,-0.12349,0.13193,-0.09305,-0.30079
-0.22578,0.96201,-0.1535,0.04164,-0.11435,-0.33614
-0.23517,0.95251,-0.19343,0.05995,0.25666,-0.33021
-0.24481,0.93852,-0.2434,0.19932,0.75906,-0.23852
-0.26026,0.91663,-0.30341,0.16375,0.90448,0.08608
-0.26859,0.89165,-0.36444,-0.00781,0.72752,0.37797
-0.26582,0.8691,-0.41714,-0.05722,0.6457,0.46152
-0.25643,0.85215,-0.45616,-0.28806,0.24862,0.45015
-0.242,0.84403,-0.47859,-0.26644,0.1594,0.47473
-0.22331,0.8432,-0.48902,-0.2092,-0.0197,0.4172
-0.20469,0.84801,-0.48886,-0.12052,-0.03395,0.3396
-0.18781,0.8579,-0.47826,-0.05615,0.03927,0.25968
-0.17268,0.86902,-0.46366,-0.06721,-0.0307,0.25385
-0.16275,0.87953,-0.44716,-0.2184,-0.29513,0.33224
-0.15941,0.89049,-0.42616,-0.24488,-0.35945,0.3065
-0.16058,0.90228,-0.40014,-0.16425,-0.34278,0.28764
-0.16703,0.91347,-0.37104,-0.11729,-0.29616,0.30151
-0.17619,0.9236,-0.34048,-0.10355,-0.30871,0.27453
-0.18702,0.93177,-0.31116,-0.07602,-0.27122,0.08852
-0.20134,0.93787,-0.28261,0.063,-0.13091,0.03174
-0.21753,0.9415,-0.25742,0.33452,-0.00169,-0.01565
-0.22834,0.94498,-0.23423,0.552,0.10377,-0.30913
-0.23135,0.9508,-0.20603,0.63235,0.03545,-0.63331
-0.23189,0.95735,-0.17238,0.5114,-0.08764,-0.65399
-0.22824,0.96217,-0.14877,0.36444,-0.13398,-0.38609
-0.21934,0.96593,-0.13734,0.14986,-0.11666,-0.16958
-0.20641,0.96993,-0.12898,-0.09837,-0.14476,-0.24541
-0.19319,0.97424,-0.11636,-0.25406,-0.30042,-0.33533
-0.18581,0.97736,-0.10116,-0.37187,-0.18797,-0.35856
-0.18674,0.97823,-0.09053,-0.49081,0.4635,0.15744
-0.19275,0.97562,-0.10491,-0.31639,0.67758,0.34132
-0.20203,0.96969,-0.1374,-0.36892,0.64373,0.30122
-0.20525,0.96688,-0.15171,-0.10285,0.34683,0.43191
-0.20803,0.96493,-0.16006,0.1441,0.41632,0.56854
-0.21345,0.96176,-0.1716,0.49049,1.29237,-0.63735
-0.22102,0.96491,-0.14175,0.8608,0.21729,0.08118
-0.20976,0.9661,-0.15054,0.23353,-0.02751,0.13634
-0.19593,0.96462,-0.1764,-0.05659,0.13865,0.52917
-0.18799,0.96359,-0.19015,-0.06055,0.11735,0.64881
-0.17854,0.96657,-0.18404,-0.04139,0.0867,0.44532
-0.1693,0.97193,-0.16336,-0.09847,0.04489,0.16568
-0.16521,0.97798,-0.12748,-0.04629,-0.01898,-0.12386
-0.16514,0.98339,-0.07533,0.0096,-0.06966,-0.1966
-0.16615,0.98568,-0.02867,0.06491,-0.16801,-0.30266
-0.16971,0.98545,-0.00918,0.10471,-0.19633,-0.24485
-0.17506,0.9845,-0.01055,0.11006,-0.19537,-0.24347
-0.18052,0.98352,-0.00936,0.17535,-0.16068,-0.20005
-0.18491,0.98275,-0.00097,0.20338,-0.11248,-0.39694
-0.18823,0.98212,0.00288,0.23223,-0.13794,-0.41462
-0.18942,0.98188,-0.00585,0.15961,-0.17704,-0.30243
-0.18932,0.98169,-0.02104,0.10104,-0.23137,-0.13004
-0.18984,0.98101,-0.03959,0.08856,-0.2992,-0.04646
-0.19212,0.97963,-0.05844,-0.00429,-0.24925,-0.04351
-0.19555,0.97791,-0.07383,-0.02178,-0.1745,-0.01876
-0.19982,0.97566,-0.09029,0.10395,-0.10034,-0.05385
-0.20545,0.97262,-0.10859,0.19719,0.10396,-0.5155
-0.21117,0.96883,-0.12951,0.09707,-0.04559,-0.07218
-0.21794,0.963,-0.15852,0.01356,-0.16942,-0.05396
-0.23049,0.9556,-0.18355,0.04007,0.17869,-0.36262
-0.24196,0.94664,-0.21291,0.03444,1.0924,-0.68019
-0.24722,0.93323,-0.26068,0.10797,1.32392,-0.44947
-0.25952,0.91076,-0.32119,0.1208,0.65733,0.32531
-0.26846,0.88448,-0.38159,0.01811,0.50594,0.56919
-0.26193,0.86405,-0.42989,-0.25139,0.08177,0.50222
-0.24892,0.85104,-0.46235,-0.17438,-0.11657,0.55442
-0.23782,0.84274,-0.48293,0.00187,-0.03889,0.54177
-0.23032,0.84031,-0.49074,0.04229,0.25947,0.32658
-0.22063,0.84629,-0.48488,0.16687,0.3559,0.26785
-0.20261,0.85982,-0.46866,0.16889,0.04754,0.29815
-0.1885,0.87306,-0.4497,0.00287,-0.30883,0.38501
-0.18109,0.88286,-0.43331,-0.17685,-0.50998,0.45623
-0.17672,0.89261,-0.41475,-0.20938,-0.48421,0.44366
-0.17754,0.90387,-0.38923,-0.13551,-0.35397,0.45046
-0.18287,0.91477,-0.36021,-0.01172,-0.23708,0.40097
-0.18977,0.92426,-0.33125,0.10118,-0.24906,0.27
-0.19819,0.93387,-0.29766,0.08263,-0.27992,0.1327
-0.20934,0.94491,-0.25163,0.0658,-0.13125,0.05501
-0.22133,0.9556,-0.19451,0.01584,0.04057,-0.14393
-0.22926,0.96397,-0.13487,0.10109,0.21884,-0.71202
-0.22752,0.96789,-0.10685,0.21118,0.08311,-1.00925
-0.22067,0.97021,-0.09997,0.23449,-0.05824,-0.59018
-0.21046,0.97313,-0.09337,0.0843,-0.18909,-0.25531
-0.19845,0.97613,-0.08825,-0.02988,-0.2356,-0.14736
-0.18615,0.97835,-0.09044,-0.33365,0.1888,-0.25161
-0.18199,0.97917,-0.08999,-0.33781,0.18798,-0.25207
-0.18861,0.97758,-0.09354,-0.09199,0.6073,0.51999
-0.19363,0.97324,-0.1237,-0.23824,0.41302,-0.23276
-0.19169,0.97208,-0.13534,-0.16972,0.35905,0.12382
-0.1898,0.97358,-0.12693,-0.1253,0.40258,0.61596
-0.19149,0.97264,-0.13155,0.81559,0.39594,-0.19406
-0.2003,0.97128,-0.1284,0.67329,-0.08542,0.30097
-0.19918,0.96553,-0.16756,0.24755,-0.02023,0.49855
-0.1929,0.96013,-0.20235,0.12101,0.1395,0.61371
-0.18076,0.96105,-0.20905,0.06551,0.141,0.52165
-0.16829,0.96647,-0.19393,0.0564,0.11135,0.16574
-0.16259,0.97325,-0.1623,0.03678,0.05849,0.03478
-0.16209,0.97948,-0.11978,0.1002,-0.04811,-0.07343
-0.16412,0.98337,-0.07775,0.02017,-0.12122,-0.35032
-0.16692,0.9846,-0.05189,-0.09019,-0.13562,-0.40531
-0.17338,0.98341,-0.05329,0.01089,-0.1853,-0.17848
-0.17953,0.98175,-0.06266,0.14262,-0.26753,-0.06263
-0.18388,0.9811,-0.06023,0.15235,-0.24703,-0.19582
-0.18914,0.98075,-0.0484,0.18566,-0.17208,-0.28615
-0.19242,0.98019,-0.04695,0.32836,-0.18931,-0.14304
-0.1928,0.97947,-0.05873,0.29312,-0.17241,-0.19045
-0.19209,0.97882,-0.07077,0.11461,-0.22349,-0.03343
-0.19187,0.97785,-0.08357,-0.00874,-0.24763,0.01607
-0.19394,0.9765,-0.0939,-0.02813,-0.17145,-0.18512
-0.19574,0.97548,-0.10057,-0.05289,-0.11193,-0.21273
-0.1948,0.97353,-0.1195,-0.09047,-0.1074,-0.10183
-0.19675,0.97029,-0.14081,-0.0632,-0.04424,-0.2946
-0.20398,0.96551,-0.16177,0.02852,0.34483,-0.56754
-0.21116,0.9577,-0.19547,0.05244,0.791,-0.47596
-0.21541,0.94579,-0.24304,0.0988,0.99184,-0.31647
-0.22272,0.92591,-0.3051,0.0112,0.89977,0.07845
-0.22757,0.89994,-0.37192,-0.03118,0.61003,0.31906
-0.23149,0.87271,-0.42987,-0.02759,0.50006,0.51428
-0.23658,0.84486,-0.47983,-0.09594,0.53619,0.63895
-0.22869,0.83118,-0.50679,-0.20757,0.02786,0.56206
-0.21513,0.83101,-0.51297,-0.07274,-0.35876,0.45949
-0.20834,0.83642,-0.50695,0.04756,-0.296,0.38958
-0.20533,0.84382,-0.49578,0.12686,-0.14131,0.42209
-0.20347,0.85179,-0.48275,0.09341,-0.27928,0.48002
-0.20298,0.86125,-0.46588,0.03275,-0.35862,0.47652
-0.20462,0.87171,-0.44526,-0.01386,-0.32375,0.42739
-0.21017,0.88282,-0.42006,0.00332,-0.22614,0.37044
-0.21733,0.89589,-0.38748,0.03443,-0.23464,0.33553
-0.22374,0.91079,-0.34699,0.06921,-0.27491,0.30448
-0.22856,0.92573,-0.30131,0.07406,-0.29824,0.11541
-0.23292,0.93977,-0.25015,0.0439,-0.25389,-0.03673
-0.23917,0.95183,-0.19184,0.00559,-0.18702,-0.23825
-0.23963,0.9594,-0.14873,0.20206,0.24022,-1.24
-0.23408,0.96273,-0.13548,0.18164,0.16247,-0.98784
-0.23365,0.96438,-0.12397,0.16307,0.02985,-0.65667
-0.23218,0.96578,-0.11556,-0.01547,-0.31075,-0.16076
-0.22594,0.96737,-0.11459,-0.10042,-0.49679,-0.16025
-0.21894,0.96879,-0.11618,-0.18612,-0.39076,-0.27211
-0.21628,0.96867,-0.12207,-0.27929,0.97283,0.36006
-0.22143,0.96391,-0.14776,-0.29057,1.10815,-0.00026
-0.22528,0.9617,-0.15613,-0.15168,0.6436,0.25189
-0.22402,0.95888,-0.17424,0.03417,0.47799,0.7926
-0.22613,0.9551,-0.19145,0.16091,1.25285,-0.69766
-0.23189,0.95669,-0.17599,0.64706,0.15917,0.12842
-0.22242,0.9545,-0.19865,0.13801,0.03972,0.37309
-0.21488,0.95262,-0.21525,-0.08431,0.13414,0.50828
-0.20763,0.95573,-0.20847,-0.02861,0.1835,0.61059
-0.19991,0.9617,-0.1875,0.05991,0.02165,0.30284
-0.19428,0.96854,-0.15551,0.06393,0.02995,0.04692
-0.19216,0.97481,-0.11317,0.09185,0.08441,-0.15775
-0.19332,0.97843,-0.07272,0.08404,-0.08416,-0.35861
-0.19652,0.97921,-0.05013,0.04703,-0.18652,-0.32566
-0.20058,0.97862,-0.04539,-0.01253,-0.2527,-0.1355
-0.20424,0.97794,-0.04369,0.03995,-0.23794,-0.12316
-0.20901,0.97707,-0.04047,0.16891,-0.20165,-0.19473
-0.21406,0.97611,-0.03717,0.23075,-0.25077,-0.23467
-0.21674,0.97543,-0.03946,0.17404,-0.25201,-0.27086
-0.2169,0.97501,-0.04799,0.13101,-0.13294,-0.24543
-0.21736,0.97417,-0.06115,0.06676,-0.02857,-0.31466
-0.21958,0.97253,-0.07723,-0.01279,-0.12767,-0.19129
-0.2229,0.97036,-0.09335,-0.03202,-0.19349,-0.21904
-0.23041,0.96668,-0.11155,0.01224,0.08017,-0.49032
-0.24057,0.96107,-0.13588,0.09845,0.25126,-0.60348
-0.24795,0.9527,-0.17572,0.08273,0.24397,-0.60813
-0.25967,0.93816,-0.22896,0.16579,0.17492,-0.39076
-0.27629,0.91201,-0.30316,0.00953,0.47718,-0.21439
-0.29244,0.87677,-0.38177,0.20982,0.38861,0.58045
-0.31897,0.83251,-0.45298,0.40361,0.30179,1.05932
-0.33494,0.79402,-0.50729,0.39737,0.16104,1.12465
-0.32722,0.77948,-0.53417,0.22913,0.11641,0.82523
-0.30778,0.78453,-0.53832,0.03927,0.12442,0.36828
-0.29125,0.79502,-0.53209,0.10886,0.1616,0.34605
-0.26379,0.81065,-0.52274,0.01777,0.12691,0.39433
-0.22648,0.8305,-0.50889,-0.25013,-0.03106,0.44155
-0.19081,0.85358,-0.48476,-0.33607,-0.09207,0.41329
-0.1665,0.87951,-0.4458,-0.34812,-0.19384,0.24179
-0.16102,0.9047,-0.39446,-0.17431,-0.25658,0.09128
-0.17833,0.9237,-0.33907,0.07165,-0.03422,-0.10487
-0.20676,0.93341,-0.29323,0.06667,-0.01723,-0.13937
-0.22796,0.93712,-0.26427,0.1137,-0.08923,0.07006
-0.22189,0.94568,-0.23759,0.16493,0.22743,-0.554
-0.22227,0.95022,-0.21834,0.1653,0.22289,-0.57326
-0.22763,0.95303,-0.19979,0.35542,0.02454,-0.27192
-0.22917,0.95608,-0.18272,0.39938,-0.17997,0.01527
-0.22259,0.96014,-0.16908,0.3223,-0.2531,0.03816
-0.20884,0.96531,-0.15673,0.05968,-0.21857,-0.05303
-0.19615,0.97027,-0.14177,-0.29641,0.20673,-0.1237
-0.19183,0.97284,-0.12954,-0.24329,0.56439,0.19566
-0.19413,0.97317,-0.12349,-0.31911,0.65395,-0.28833
-0.19743,0.97397,-0.11138,-0.43708,0.23734,0.20469
-0.20011,0.97238,-0.12012,-0.14661,0.139,0.45438
-0.20485,0.97033,-0.1284,-0.23593,0.68764,0.24959
-0.21198,0.97123,-0.10854,0.79071,0.36569,-0.09027
-0.21135,0.97114,-0.11055,0.54277,0.06095,0.07216
-0.20712,0.96834,-0.13931,0.32248,-0.03464,0.1801
-0.20741,0.96573,-0.15602,0.03728,-0.00801,0.61554
-0.20677,0.96626,-0.15359,0.09894,0.27015,0.57222
-0.20281,0.96972,-0.13603,-0.01864,0.26998,0.29307
-0.20184,0.97361,-0.10645,-0.09378,0.03196,-0.15302
-0.20415,0.97706,-0.06059,-0.12205,-0.07723,-0.34833
-0.2074,0.97814,-0.01469,-0.05718,-0.1305,-0.37059
-0.21566,0.97647,0.00059,0.07778,-0.20703,-0.12376
-0.2247,0.97442,-0.00207,0.13863,-0.13249,-0.01908
-0.23352,0.97235,-0.00077,0.14181,-0.15474,-0.17889
-0.24253,0.97013,0.00396,0.179,-0.23483,-0.24957
-0.25114,0.96794,0.00481,0.22051,-0.3013,-0.12269
-0.25935,0.96578,0.00065,0.22231,-0.26639,-0.02996
-0.26717,0.96364,-0.00399,0.2145,-0.21796,-0.0141
-0.27561,0.96124,-0.00678,0.28367,-0.23563,-0.01571
-0.28426,0.9587,-0.00951,0.39327,-0.31864,0.01846
-0.29067,0.95675,-0.01136,0.48966,-0.30673,0.07368
-0.29489,0.95549,-0.00882,0.44486,-0.05487,-0.01398
-0.29763,0.95467,-0.00343,0.34569,0.23524,-0.50924
-0.29867,0.95435,-0.00021,0.22651,0.2226,-0.59206
-0.30212,0.95324,-0.00737,0.0744,0.04604,-0.31405
-0.31248,0.94979,-0.01579,0.02619,-0.03872,-0.3962
-0.33073,0.94349,-0.02092,0.01756,-0.03974,-0.51836
-0.3514,0.93557,-0.03495,0.09968,0.47057,-0.39965
-0.36574,0.92853,-0.06373,0.27519,1.054,-0.53337
-0.37761,0.92025,-0.10267,0.46393,1.087,-0.43984
-0.38849,0.90882,-0.15204,0.52531,0.80471,0.16099
-0.38735,0.89938,-0.20266,0.37204,0.5029,0.7173
-0.37345,0.89228,-0.25371,0.28175,0.4279,1.01618
-0.34373,0.88781,-0.30601,0.05505,0.35013,0.69091
-0.31321,0.89019,-0.33086,0.01395,0.40953,0.43531
-0.29767,0.8995,-0.31981,0.10024,0.4092,0.32256
-0.29306,0.91074,-0.29098,0.14065,0.33848,0.31233
-0.28822,0.91945,-0.26745,0.07871,0.05378,0.25706
-0.27459,0.92716,-0.25489,-0.03388,-0.0834,0.31482
-0.25278,0.93585,-0.24555,-0.08286,-0.06431,0.23173
-0.23748,0.94379,-0.22992,-0.07334,-0.09053,0.18382
-0.23348,0.94964,-0.20896,0.03956,0.00178,0.11524
-0.23758,0.95291,-0.18843,0.08831,0.01272,0.04822
-0.24319,0.95429,-0.17376,-0.01507,-0.09973,0.0191
-0.24988,0.95341,-0.16903,-0.11688,-0.17158,0.03858
-0.25809,0.95096,-0.17049,-0.12138,-0.15748,0.03448
-0.26637,0.94798,-0.17428,-0.07462,-0.11476,-0.02439
-0.27297,0.94583,-0.17574,0.04454,-0.08989,-0.0019
-0.27786,0.94491,-0.173,0.17113,-0.08749,0.03595
-0.28414,0.94374,-0.16915,0.18844,-0.09018,0.02182
-0.29127,0.94268,-0.16282,0.20063,-0.07374,-0.01169
-0.29572,0.94289,-0.15332,0.25411,-0.0123,-0.12195
-0.29448,0.94446,-0.14582,0.32786,0.14741,-0.36306
-0.28824,0.94638,-0.14584,0.35945,0.20625,-0.45145
-0.27834,0.94905,-0.14772,0.35331,0.18831,-0.33271
-0.26883,0.95154,-0.1493,0.2188,0.04046,-0.21543
-0.26002,0.95379,-0.15056,0.06712,-0.25573,0.07383
-0.25246,0.95643,-0.14666,-0.02206,-0.21613,0.18393
-0.24751,0.95889,-0.1388,-0.33277,0.23464,0.33813
-0.24824,0.96004,-0.12924,-0.48485,0.60662,0.11452
-0.25476,0.96121,-0.10569,-0.76422,1.30474,-1.02303
-0.26176,0.95986,-0.10072,0.00175,-0.28695,0.14755
-0.27211,0.95199,-0.14027,0.11623,-0.5161,0.82661
-0.28132,0.94476,-0.16815,0.37182,-0.47435,0.99908
-0.28327,0.94351,-0.17186,0.4204,-0.01811,0.52289
-0.27938,0.94597,-0.16456,0.49324,0.12793,0.4575
-0.27925,0.94944,-0.14343,0.63639,0.27842,0.25803
-0.28403,0.9533,-0.10273,0.33012,0.09445,0.0091
-0.28003,0.95828,-0.05729,-0.02186,0.12073,-0.01843
-0.27213,0.96158,-0.03615,-0.09207,0.04443,-0.07005
-0.26381,0.96417,-0.02781,-0.02372,-0.03683,0.09681
-0.25443,0.96699,-0.01389,0.02282,-0.00053,0.11233
-0.24422,0.96968,0.00807,-0.00638,-0.01712,-0.01571
-0.23603,0.9712,0.03262,-0.00992,0.00796,-0.06872
-0.23094,0.97133,0.05638,0.0652,-0.03407,0.02114
-0.22738,0.97068,0.07796,0.1003,-0.07161,0.01034
-0.22342,0.96974,0.09842,0.04622,-0.08251,0.03224
-0.21889,0.96857,0.1181,0.0839,-0.03217,-0.07008
-0.21506,0.96667,0.1389,0.07682,0.01867,-0.03892
-0.21189,0.96437,0.15837,0.03779,0.00601,-0.10074
-0.20963,0.96144,0.17801,0.05231,-0.01896,-0.09545
-0.20834,0.9577,0.19847,0.10233,-0.00317,-0.05528
-0.20836,0.95329,0.21866,0.10837,0.02556,-0.02419
-0.20942,0.948,0.23964,0.06768,0.0639,-0.09821
-0.21026,0.94166,0.26281,0.03724,0.0846,-0.15185
-0.21043,0.93494,0.28565,0.10209,0.09439,-0.29258
-0.20836,0.92888,0.3062,0.17052,0.09118,-0.40425
-0.20461,0.92465,0.32118,0.10592,0.08337,-0.44218
-0.19925,0.9231,0.32892,-0.05599,0.12134,-0.40773
-0.19432,0.92229,0.33408,-0.09885,0.18689,-0.42843
-0.19241,0.92198,0.33605,-0.03292,0.23868,-0.47475
-0.19393,0.92456,0.32798,0.24588,0.51561,-0.64396
-0.19822,0.93147,0.30507,0.36702,0.52611,-0.71674
-0.20078,0.9417,0.26995,0.33757,0.56309,-0.74082
-0.20386,0.9545,0.21764,0.25719,0.5741,-0.66457
-0.21209,0.96475,0.1558,0.05853,0.20286,-0.19708
-0.22446,0.97027,0.09049,0.11026,0.2938,0.18951
-0.2367,0.97149,0.01304,0.16242,0.42334,0.37964
-0.24065,0.96864,-0.06173,0.23746,0.31293,0.66686
-0.23318,0.9645,-0.12396,0.23469,0.27477,0.67292
-0.2207,0.96229,-0.15899,0.23924,0.26148,0.63784
-0.20696,0.96164,-0.18005,0.30809,0.15444,0.17645
-0.19232,0.95981,-0.20437,0.24,0.00363,0.18928
-0.17634,0.9566,-0.232,0.13668,-0.09661,0.34437
-0.16044,0.9539,-0.25363,0.08907,-0.14509,0.3783
-0.14856,0.95195,-0.26779,0.07631,-0.21021,0.41342
-0.14102,0.9509,-0.2755,0.08305,-0.17845,0.35287
-0.1355,0.94993,-0.28156,0.05887,-0.18142,0.37313
-0.13514,0.94906,-0.28463,-0.06906,-0.21867,0.4458
-0.13867,0.94985,-0.28027,-0.12323,-0.30118,0.4035
-0.14223,0.95245,-0.26944,-0.12551,-0.29025,0.35885
-0.14551,0.95622,-0.2539,-0.14103,-0.29326,0.17173
-0.14779,0.96095,-0.23396,-0.12969,-0.2727,0.08045
-0.15009,0.96659,-0.20776,-0.16034,-0.078,-0.03415
-0.1527,0.97238,-0.17649,-0.19393,0.18773,-0.40129
-0.15711,0.97609,-0.15021,0.00032,0.28908,-0.60451
-0.16381,0.97703,-0.13625,0.03793,0.17545,-0.5403
-0.17035,0.97706,-0.12782,-0.06281,0.07826,-0.3728
-0.17509,0.97711,-0.12081,-0.06011,-0.0721,-0.25726
-0.17442,0.9777,-0.11693,-0.1111,-0.24992,-0.17648
-0.16815,0.97837,-0.12043,-0.23268,-0.50096,0.14055
-0.16164,0.97784,-0.13301,-0.53543,0.12135,0.38641
-0.16054,0.97728,-0.13838,-0.89467,1.43562,-0.6911
-0.17706,0.97776,-0.11237,0.37993,0.45039,0.56252
-0.18944,0.97311,-0.13098,0.43031,-0.56157,0.68344
-0.19209,0.96731,-0.16555,0.34062,-0.18876,0.72344
-0.19308,0.96679,-0.16746,0.3175,-0.02109,0.68278
-0.19558,0.96862,-0.15337,0.28775,0.16168,0.32422
-0.19824,0.97174,-0.12815,-0.02385,0.17124,0.04565
-0.19567,0.97612,-0.0943,-0.12356,0.15465,0.01539
-0.18645,0.97967,-0.07397,-0.18525,0.09871,-0.07282
-0.17732,0.98216,-0.06248,0.02245,-0.08676,-0.00951
-0.17008,0.98419,-0.04942,0.03395,-0.09826,-0.03557
-0.16474,0.98579,-0.03285,0.02151,-0.06901,-0.07149
-0.1602,0.98699,-0.01333,0.02583,-0.06653,-0.19712
-0.1581,0.98741,0.00375,0.03504,-0.06934,-0.2199
-0.1569,0.98748,0.01615,0.04816,-0.07876,-0.23081
-0.15498,0.9876,0.02491,0.10067,-0.08715,-0.2938
-0.15272,0.98783,0.0295,0.10741,-0.07529,-0.31015
-0.15098,0.98805,0.03093,0.1036,-0.0899,-0.33386
-0.14982,0.98825,0.03003,0.12143,-0.18099,-0.26994
-0.14811,0.98867,0.02443,0.09549,-0.1563,-0.25455
-0.14633,0.98908,0.0175,0.06927,-0.12117,-0.267
-0.14552,0.9893,0.00999,0.03008,-0.16989,-0.13127
-0.14542,0.98936,0.00154,0.01624,-0.20305,-0.19462
-0.14372,0.98959,-0.00757,-0.17683,-0.34585,-0.05127
-0.14133,0.98969,-0.02298,-0.24903,-0.31101,-0.16773
-0.14006,0.98938,-0.03875,-0.1647,-0.24439,0.06636
-0.13852,0.989,-0.05188,0.08656,-0.20106,0.05882
-0.13604,0.98869,-0.0631,0.09611,-0.16506,-0.01527
-0.1345,0.98812,-0.07436,-0.0057,-0.07794,-0.21594
-0.13639,0.98676,-0.08774,-0.01367,0.10882,-0.34836
-0.14007,0.98416,-0.10868,0.10206,0.21221,-0.5796
-0.14407,0.97939,-0.14157,0.26286,0.71307,-0.66869
-0.14466,0.96986,-0.19605,0.09101,1.31064,-0.68298
-0.14622,0.95229,-0.26789,-0.06716,0.94824,0.05147
-0.14817,0.92846,-0.34058,-0.18288,0.51821,0.52206
-0.15302,0.89996,-0.40822,-0.1632,0.20935,0.90807
-0.15408,0.87517,-0.45861,-0.39902,0.13363,0.87055
-0.14646,0.86778,-0.47487,-0.44966,0.0858,0.75765
-0.13405,0.87384,-0.46737,0.04778,-0.15382,0.36918
-0.11682,0.88448,-0.45171,0.03695,-0.08481,0.44048
-0.09795,0.89781,-0.42934,-0.03719,-0.17284,0.4177
