gravity.x,gravity.y,gravity.z,userAcceleration.x,userAcceleration.y,userAcceleration.z
-0.13864,0.94684,0.2903,-0.16029,-0.0348,-0.00487
-0.13633,0.94811,0.28721,-0.32679,-0.1022,-0.06209
-0.13169,0.94724,0.2922,-0.33817,-0.12417,-0.13488
-0.12576,0.94326,0.30731,-0.245,-0.16398,-0.10517
-0.1189,0.93564,0.33233,-0.14357,-0.25203,-0.35963
-0.1102,0.92422,0.36562,0.11773,-0.34794,-0.36366
-0.10408,0.90753,0.40689,0.20978,-0.06709,-0.1556
-0.10376,0.88784,0.4483,0.22149,0.12054,-0.22764
-0.10925,0.87117,0.47867,0.17511,0.1554,0.02726
-0.12242,0.85674,0.501,0.22252,0.46856,-0.01775
-0.13544,0.84438,0.51833,0.00911,0.4663,0.22259
-0.14931,0.83711,0.52626,-0.00858,0.3969,0.20548
-0.16474,0.83819,0.5199,0.10299,0.21215,0.12744
-0.17159,0.8463,0.50432,-0.20943,-0.444,-0.03063
-0.16935,0.85922,0.48276,-0.21519,-0.52287,-0.00701
-0.16405,0.87385,0.45768,-0.17549,-0.55822,0.03398
-0.16047,0.88764,0.43166,0.00871,-0.60868,0.00472
-0.15911,0.8997,0.40647,0.06986,-0.65646,0.00111
-0.15498,0.91229,0.37908,0.23331,-0.57721,-0.00254
-0.1414,0.92617,0.34958,0.15141,0.35631,0.04602
-0.1262,0.93791,0.32309,-0.08457,0.5055,0.09651
-0.12217,0.94591,0.30054,-0.33689,-0.10811,-0.0405
-0.12856,0.95151,0.27946,-0.07424,-0.29947,-0.11495
-0.13481,0.95694,0.25706,0.1694,-0.09127,-0.0843
-0.13279,0.96164,0.24001,0.1761,0.2053,0.13949
-0.12017,0.96374,0.23826,0.06817,0.58857,-0.26753
-0.10436,0.96291,0.24881,-0.00566,0.34274,-0.53729
-0.08846,0.96376,0.25168,-0.08705,0.09905,-0.17395
-0.07507,0.9646,0.25282,-0.18149,0.20527,0.241
-0.07035,0.96412,0.25598,-0.09066,0.49334,0.19137
-0.07021,0.96393,0.25672,-0.40356,1.18713,0.22387
-0.07505,0.96504,0.25113,-0.49441,0.06574,0.11671
-0.07673,0.96593,0.24714,-0.08278,-0.10378,-0.1209
-0.06826,0.96891,0.23779,0.00923,-0.19721,-0.04828
-0.05547,0.97366,0.22114,0.02778,-0.11226,-0.02533
-0.04553,0.97806,0.20327,0.00681,-0.23497,-0.04476
-0.03757,0.98212,0.18446,-0.08993,-0.11934,-0.07781
-0.02898,0.98581,0.16534,-0.25768,-0.01347,0.01352
-0.01938,0.98845,0.15032,-0.27235,-0.40113,0.00319
-0.00757,0.98988,0.14169,-0.22931,-0.46132,0.02976
0.0093,0.99057,0.1367,-0.26365,-0.44404,0.01183
0.02891,0.991,0.13068,-0.39532,-0.28827,0.05891
0.0492,0.99136,0.12158,-0.45946,-0.12243,0.04847
0.06863,0.99128,0.11247,-0.46935,-0.16952,0.09142
0.08702,0.99085,0.10315,-0.42483,-0.25045,0.02223
0.1045,0.99027,0.09191,-0.33719,-0.0591,0.031
0.11816,0.98939,0.08458,-0.38447,0.02603,0.09245
0.1274,0.98793,0.08815,-0.35575,-0.1206,0.31002
0.13688,0.98487,0.10627,-0.39449,-0.11674,-0.14701
0.13662,0.98196,0.13073,-0.36584,0.65674,-0.19421
0.11679,0.9806,0.15745,0.0658,1.57907,-0.35052
0.09511,0.97801,0.18559,0.49632,1.10692,-0.0722
0.07148,0.97468,0.21186,0.12049,0.5095,-0.10076
0.0472,0.9714,0.23269,-0.28716,0.45401,0.01265
0.01978,0.96636,0.25641,-0.3971,0.58764,-0.04416
-0.00824,0.96052,0.27808,-0.33209,0.52498,-0.25187
-0.02786,0.95497,0.29538,-0.30652,0.42099,-0.2265
-0.0383,0.94982,0.31043,-0.09555,0.32076,-0.12865
-0.04616,0.94438,0.32561,0.09314,0.2856,-0.22423
-0.05447,0.93918,0.33908,0.0315,0.16864,-0.28017
-0.06277,0.93482,0.34953,-0.0447,0.02201,-0.33842
-0.06432,0.93156,0.35784,-0.01536,-0.31554,-0.41422
-0.05856,0.92953,0.36407,0.10159,-0.32812,-0.39924
-0.04969,0.92933,0.3659,0.10915,-0.31749,-0.3209
-0.04035,0.9316,0.36123,0.03057,-0.32273,-0.1412
-0.03272,0.93479,0.35369,-0.00173,-0.37292,-0.21313
-0.02651,0.93808,0.34541,-0.08757,-0.53583,-0.31132
-0.01898,0.94138,0.33681,-0.1221,-0.40444,-0.11714
-0.00997,0.9453,0.32605,-0.14043,-0.25295,0.08312
-0.00408,0.9484,0.31706,-0.14074,0.18767,0.14055
-0.00013,0.94564,0.32521,-0.00506,0.18238,0.14188
0.00339,0.94053,0.33969,-0.16079,-0.16132,0.15726
-0.00257,0.93988,0.3415,-0.13419,-0.21627,0.08083
-0.0172,0.93535,0.35329,-0.23904,0.52424,-0.3574
-0.02996,0.93323,0.35803,0.03604,1.44815,-0.29555
-0.02643,0.9303,0.36583,-0.31432,0.60177,-0.09392
-0.03323,0.92727,0.37292,-0.27379,-0.63933,-0.52851
-0.03813,0.92843,0.36955,-0.23195,-0.51122,-0.42273
-0.03516,0.93228,0.36003,-0.23495,-0.10995,-0.13
-0.02572,0.93556,0.35221,-0.09959,0.43547,-0.44264
-0.00907,0.9428,0.33323,-0.27652,0.3567,-0.12861
-0.00504,0.95244,0.30469,-0.14712,0.03978,-0.08994
-0.0016,0.96192,0.27331,0.05919,-0.28385,-0.14542
0.01112,0.96971,0.24399,0.00456,-0.27954,-0.10416
0.02598,0.97648,0.21402,-0.05683,-0.19526,-0.15076
0.03781,0.9826,0.18182,-0.03789,-0.18222,-0.10955
0.04835,0.98768,0.14885,-0.02395,-0.19204,-0.02609
0.05775,0.99142,0.11723,-0.09871,-0.14008,0.03937
0.06479,0.99394,0.08875,-0.16315,-0.14711,0.15924
0.07111,0.99538,0.06452,-0.30906,-0.08289,0.14625
0.07631,0.99616,0.04292,-0.4068,-0.09305,0.19432
0.08047,0.99643,0.02555,-0.33453,-0.06003,0.10723
0.08236,0.99652,0.01245,-0.13601,-0.0098,0.04296
0.08287,0.99656,0.00214,-0.1822,0.06872,0.08626
0.08409,0.99644,-0.00653,-0.3477,0.31617,0.22609
0.08458,0.99638,-0.00838,-0.68285,0.56778,0.0409
0.07853,0.99691,0.00207,-0.70614,0.69876,-0.11751
0.06296,0.9978,0.02071,-0.43877,0.5983,-0.18794
0.04427,0.99783,0.04872,0.03847,0.28194,-0.22017
0.02873,0.99572,0.08785,0.11347,0.07798,-0.44686
0.01971,0.99182,0.12608,-0.05384,0.16371,-0.0952
0.0057,0.98539,0.17024,0.03576,0.3058,-0.19493
-0.01341,0.976,0.21735,0.13395,0.40291,-0.2277
-0.036,0.96443,0.26187,0.27324,0.33991,-0.30639
-0.05977,0.95225,0.29941,0.16217,0.12908,-0.23208
-0.08445,0.93955,0.33182,0.08927,0.06382,-0.24274
-0.10923,0.92609,0.36114,-0.22272,-0.05667,-0.25148
-0.12907,0.91312,0.38672,-0.26377,-0.16936,-0.22612
-0.13784,0.90307,0.40677,0.0562,-0.2734,-0.32506
-0.13815,0.89564,0.42277,0.3018,-0.27656,-0.32452
-0.13518,0.89128,0.43284,0.42809,-0.37142,-0.3079
-0.12895,0.89051,0.43631,0.37174,-0.34729,-0.24219
-0.12088,0.89336,0.43277,0.12236,-0.51049,-0.25119
-0.11378,0.89902,0.42287,-0.03741,-0.70865,-0.25712
-0.11148,0.90678,0.40659,-0.02837,-0.86692,-0.17037
-0.11492,0.91585,0.38472,0.09185,-0.81789,-0.14401
-0.1171,0.92246,0.36791,0.07764,-0.7098,0.02014
-0.11588,0.92514,0.36152,-0.12057,-0.48152,0.12661
-0.11537,0.92638,0.35847,-0.29528,-0.14605,-0.00251
-0.1125,0.92954,0.35112,-0.2901,0.53886,-0.05114
-0.10394,0.93645,0.33505,-0.2556,0.94087,0.03868
-0.10373,0.94327,0.31539,-0.1879,0.18111,0.21226
-0.11285,0.94782,0.29816,-0.10689,-0.03673,0.14369
-0.12144,0.95031,0.28665,0.10837,0.09092,0.00096
-0.12511,0.95138,0.28147,0.06623,0.11146,-0.12865
-0.12242,0.9513,0.28292,0.10609,0.18101,-0.58719
-0.11322,0.95042,0.28963,0.15025,0.10328,-0.58361
-0.09963,0.9517,0.29042,0.11822,0.36878,-0.09563
-0.09494,0.95244,0.28954,0.00971,0.33929,0.06745
-0.102,0.953,0.28527,0.00969,0.60933,0.18774
-0.10943,0.95192,0.28615,-0.4567,0.90192,-0.29288
-0.12002,0.95206,0.28139,0.07448,-0.43988,-0.13109
-0.12097,0.95255,0.27931,0.14869,-0.48407,-0.20975
-0.11299,0.95567,0.27191,0.12388,-0.41606,-0.13597
-0.10777,0.9589,0.26247,0.21119,-0.1418,0.21595
-0.10388,0.96111,0.25586,-0.02197,0.12314,-0.04035
-0.10481,0.96258,0.24992,-0.12525,0.14202,-0.00807
-0.11121,0.96245,0.24762,-0.05198,-0.23069,0.05112
-0.12116,0.95955,0.25413,-0.07131,-0.2957,0.05885
-0.12824,0.956,0.26386,-0.12353,-0.29351,0.00272
-0.12897,0.95215,0.27708,-0.13659,-0.28424,-0.132
-0.12621,0.94693,0.29563,-0.17698,-0.29216,-0.18273
-0.12287,0.93786,0.32452,-0.12316,-0.28218,-0.40025
-0.12083,0.92354,0.36397,0.03061,-0.02617,-0.32103
-0.12576,0.90241,0.41212,0.08858,0.54684,-0.08988
-0.13893,0.8787,0.45672,0.29689,0.24595,0.27254
-0.15567,0.86258,0.48138,0.11522,0.16143,0.10688
-0.16827,0.85141,0.49678,0.08655,0.34757,0.12453
-0.18188,0.83947,0.51206,0.13962,0.22619,0.11616
-0.18426,0.83841,0.51295,0.01247,-0.00702,-0.04443
-0.17987,0.85075,0.49383,-0.13058,-0.18299,0.06221
-0.18146,0.86799,0.46224,0.01647,-0.2875,0.13369
-0.18369,0.88292,0.4321,0.21522,-0.41769,0.22029
-0.18457,0.89424,0.40776,0.08741,-0.4094,0.10517
-0.18473,0.90484,0.38357,-0.19279,-0.42155,0.03986
-0.18408,0.91636,0.35551,-0.26665,-0.46928,0.03478
-0.18205,0.92832,0.32416,-0.15947,-0.20995,0.00306
-0.17903,0.9407,0.28813,0.08092,0.06581,0.00166
-0.17328,0.95119,0.25537,0.12153,0.03459,0.07253
-0.17068,0.95688,0.23506,0.05261,-0.22094,-0.11183
-0.17592,0.95947,0.22018,0.25776,-0.49491,-0.2817
-0.17981,0.96164,0.20717,0.35412,-0.46185,-0.11012
-0.16844,0.96252,0.21254,0.42186,-0.15671,-0.08679
-0.14539,0.96328,0.22573,-0.16181,1.30621,-0.28592
-0.14001,0.96391,0.22643,-0.06447,0.59462,0.1634
-0.1459,0.96281,0.2274,0.09253,0.14132,0.06259
-0.14977,0.96115,0.23183,-0.37536,0.62872,0.15991
-0.15299,0.95976,0.23547,-0.57163,0.50768,0.0829
-0.15494,0.95843,0.23959,-0.0865,-0.23077,0.00252
-0.1498,0.95896,0.24075,-0.06979,0.2297,0.16082
-0.14154,0.96079,0.23841,-0.02516,0.42803,0.18653
-0.1382,0.96302,0.23127,0.04512,0.02688,0.29541
-0.1396,0.96431,0.22499,0.05511,-0.17129,0.22365
-0.14263,0.96341,0.22692,0.00382,-0.08577,0.06919
-0.14754,0.95917,0.24128,-0.00187,-0.1708,-0.22896
-0.14938,0.95154,0.2688,0.15513,-0.4558,-0.21727
-0.14285,0.94029,0.30894,0.32177,-0.65272,-0.44141
-0.13622,0.92548,0.35345,0.34303,-0.61188,-0.34873
-0.13921,0.90717,0.39706,0.20992,-0.41684,-0.24005
-0.14715,0.88861,0.43441,-0.06557,-0.17971,-0.39266
-0.16001,0.86818,0.46974,-0.1712,0.10251,-0.2819
-0.17358,0.84674,0.50289,0.10298,1.00622,0.28976
-0.18467,0.83332,0.52102,0.15429,0.40598,0.36992
-0.19807,0.82882,0.52328,0.22749,-0.11962,0.06753
-0.20472,0.83305,0.51392,0.12507,-0.16638,-0.04792
-0.20787,0.84384,0.4947,0.01556,0.02103,0.17762
-0.21473,0.856,0.47026,0.03282,-0.02797,0.32472
-0.22065,0.86943,0.44205,-0.01524,-0.09463,0.26554
-0.22772,0.88436,0.40749,-0.09625,-0.26492,0.14554
-0.23275,0.89952,0.36972,0.00704,-0.56395,0.1296
-0.22805,0.9149,0.3331,-0.03424,-0.55771,0.00458
-0.21523,0.93035,0.29685,-0.11247,-0.2412,-0.04676
-0.20682,0.94187,0.26479,-0.19943,-0.03678,-0.01662
-0.20907,0.94831,0.23876,0.08547,-0.11582,-0.15802
-0.21275,0.95136,0.22282,0.54733,-0.22129,-0.208
-0.2044,0.95307,0.22332,0.40547,0.02358,0.03619
-0.18862,0.95428,0.23188,0.03857,0.9048,-1.17434
-0.18171,0.9565,0.22824,-0.15167,1.19805,0.14341
-0.18034,0.95369,0.24073,0.08248,0.85086,0.15339
-0.18012,0.95026,0.25409,-0.10255,-0.00713,0.18899
-0.1878,0.949,0.25324,-0.10613,-0.27404,0.47178
-0.19432,0.94892,0.24858,0.03042,-0.3023,0.19489
-0.19108,0.9516,0.2407,-0.13808,0.43748,-0.03009
-0.18297,0.95585,0.22995,-0.19832,0.42498,-0.01611
-0.17781,0.95977,0.21732,-0.12677,-0.15592,0.12846
-0.17405,0.96258,0.2077,-0.01041,-0.30584,0.1787
-0.1715,0.96454,0.2006,0.11246,-0.3595,0.15514
-0.16668,0.96628,0.19625,0.25969,-0.34479,0.14992
-0.15998,0.96756,0.19554,-0.06208,-0.21297,0.05219
-0.15579,0.96769,0.19827,-0.17003,-0.2782,0.10762
-0.15148,0.96634,0.20793,-0.21244,-0.27956,-0.04572
-0.14414,0.96374,0.22456,-0.16812,-0.22917,-0.242
-0.13523,0.95864,0.25046,0.05101,-0.23259,-0.36568
-0.12426,0.9486,0.29107,0.31419,0.06645,-0.23448
-0.11794,0.93169,0.34356,0.25456,0.46172,-0.06001
-0.11986,0.91214,0.39196,0.21886,0.42364,0.02024
-0.12893,0.89802,0.42064,0.14205,0.30887,0.05593
-0.14816,0.88422,0.44295,0.06361,0.65431,0.35672
-0.1626,0.87101,0.46358,-0.07964,0.42884,0.05455
-0.16947,0.8639,0.47429,-0.04605,0.22699,0.02121
-0.18162,0.86267,0.47202,0.12774,-0.15862,-0.04963
-0.19208,0.86738,0.45907,0.04312,-0.25013,0.00406
-0.19743,0.87602,0.44001,-0.0058,-0.08824,0.21833
-0.20114,0.88646,0.41679,-0.04434,0.0126,0.30919
-0.20139,0.8982,0.39073,-0.11067,-0.29249,0.19352
-0.19373,0.91039,0.36558,-0.15038,-0.61309,0.00013
-0.1825,0.92291,0.33901,-0.04811,-0.80674,-0.19921
-0.17134,0.93469,0.31142,0.08945,-0.93099,-0.14608
-0.15872,0.9459,0.28297,0.15294,-0.79798,0.01656
-0.14676,0.95584,0.2546,0.1241,-0.47325,0.03736
-0.144,0.96137,0.23457,0.08575,0.36288,-0.1701
-0.15187,0.96262,0.22424,0.16478,-0.1092,-0.14252
-0.16334,0.96166,0.22027,0.24656,-0.56588,-0.15642
-0.16372,0.96001,0.22708,0.19331,-0.30141,-0.11124
-0.15512,0.95834,0.23983,0.04268,0.66103,-0.81098
-0.15239,0.9582,0.24212,-0.38991,1.34275,0.3693
-0.15775,0.95646,0.24554,0.06602,0.4626,0.15365
-0.15411,0.95145,0.26645,-0.18982,1.04341,0.24606
-0.14743,0.9491,0.27834,-0.3274,-0.16127,0.04098
-0.1429,0.94781,0.28501,-0.10071,-0.25828,0.24614
-0.1376,0.94812,0.28657,-0.08589,0.24774,0.14896
-0.13431,0.9503,0.28087,-0.03174,0.29636,0.11607
-0.13796,0.95229,0.27222,0.0613,0.04029,0.25776
-0.14078,0.95292,0.26855,-0.05543,0.09032,0.33138
-0.14253,0.9526,0.26875,-0.09711,-0.1062,-0.04101
-0.1427,0.95078,0.27502,-0.07389,-0.26562,-0.17598
-0.13722,0.94631,0.29268,-0.00116,-0.50661,-0.44261
-0.1289,0.93727,0.32388,0.23796,-0.59081,-0.29611
-0.12388,0.92274,0.36496,0.2926,-0.53152,-0.30533
-0.12364,0.9071,0.40233,0.29645,-0.40581,-0.19505
-0.12931,0.89233,0.43246,0.04795,-0.14103,-0.22449
-0.13722,0.87693,0.4606,-0.09484,0.11199,-0.20273
-0.14307,0.86172,0.48678,-0.19321,1.04871,0.31351
-0.14466,0.85309,0.5013,0.01366,0.61877,0.30167
-0.14823,0.85163,0.50273,0.15354,0.27913,0.19324
-0.14983,0.85779,0.49167,0.19102,-0.0376,0.1459
-0.14558,0.86714,0.47631,-0.05853,0.33415,0.41345
-0.14109,0.87725,0.45882,-0.1554,0.33169,0.47192
-0.137,0.88944,0.43602,-0.14228,0.10088,0.40623
-0.13364,0.90338,0.40748,-0.12272,-0.03313,0.28945
-0.12971,0.91798,0.3748,-0.0744,-0.26527,0.0784
-0.12391,0.93251,0.3392,-0.11484,-0.54759,-0.13806
-0.1184,0.94636,0.30063,-0.02827,-0.5802,-0.27627
-0.1142,0.95806,0.26283,0.02506,-0.75377,-0.28069
-0.11119,0.96521,0.23666,0.02204,-0.76092,-0.25453
-0.11425,0.96807,0.22311,-0.09989,-0.8697,-0.23709
-0.12287,0.9678,0.21971,0.25144,-0.88128,-0.39131
-0.1254,0.96333,0.23719,0.41667,-0.55284,-0.31346
-0.11604,0.9626,0.24482,0.36302,1.10288,0.0958
-0.10298,0.96227,0.25185,0.47366,1.9802,-0.01821
-0.09509,0.96241,0.25441,-0.0983,-0.06673,-0.24024
-0.09869,0.96173,0.25559,-0.40309,0.13905,0.565
-0.10343,0.95832,0.26632,-0.95875,0.59893,0.19245
-0.10757,0.95598,0.27299,-0.61394,0.23742,-0.08421
-0.10261,0.95667,0.27248,-0.16073,-0.19382,0.18284
-0.09154,0.9594,0.26677,0.06542,-0.19152,0.16031
-0.08064,0.96327,0.25612,0.03117,0.18375,0.26219
-0.07585,0.96648,0.24527,-0.03599,0.36828,0.28487
-0.07476,0.96872,0.23662,-0.21502,0.00175,-0.10574
-0.07357,0.96932,0.23451,-0.21031,-0.1519,-0.11545
-0.06845,0.96706,0.24515,-0.15724,-0.23179,-0.16782
-0.05466,0.96203,0.26742,0.20932,-0.34673,-0.16046
-0.03932,0.95249,0.30202,0.35132,-0.22701,-0.20725
-0.03546,0.93767,0.3457,0.19066,0.10848,-0.22376
-0.04676,0.92236,0.38348,0.05057,0.32434,-0.00425
-0.06482,0.90988,0.40978,-0.02753,0.39264,0.06071
-0.07739,0.90028,0.42837,-0.41657,0.40135,0.01768
-0.08118,0.89155,0.44559,-0.38212,0.31187,0.08947
-0.08602,0.88407,0.45937,0.03608,0.32337,0.18486
-0.0932,0.88267,0.46066,0.07118,0.07937,0.28741
-0.10134,0.88653,0.45144,-0.11764,-0.1187,0.18004
-0.10484,0.89213,0.43945,-0.21332,-0.18418,0.10247
-0.10161,0.89776,0.42861,-0.23443,-0.29108,-0.12077
-0.09603,0.9042,0.41617,-0.12509,-0.32208,-0.18064
-0.09146,0.91293,0.39774,0.08873,-0.3818,-0.19755
-0.08866,0.92337,0.37353,0.27547,-0.34576,-0.03036
-0.08496,0.93418,0.34653,0.27391,-0.37275,0.00417
-0.07776,0.94337,0.32249,0.12292,-0.42021,-0.00268
-0.06971,0.95088,0.3016,-0.07976,-0.43552,-0.06443
-0.06438,0.95773,0.28038,-0.04764,-0.35922,0.0988
-0.0647,0.96266,0.26287,-0.03663,0.01293,0.21876
-0.07595,0.96239,0.26085,-0.00581,0.54747,0.33438
-0.09577,0.95765,0.27155,0.00992,0.60795,0.68794
-0.11653,0.95197,0.28316,-0.32729,-0.03841,0.39085
-0.13604,0.94724,0.29023,-0.40655,-0.64098,0.13377
-0.14945,0.94402,0.29409,-0.01243,-0.30846,-0.37692
-0.14377,0.93029,0.33748,0.21013,0.46906,-1.33751
-0.11916,0.91668,0.38144,-0.27373,2.99657,0.3795
-0.13872,0.90358,0.40534,0.22695,-1.10916,-0.10433
-0.16328,0.89504,0.41502,0.16597,-1.05059,-0.21851
-0.16108,0.89406,0.41799,0.1043,-0.03435,-0.16681
-0.14116,0.89965,0.41317,0.02832,0.2546,-0.15852
-0.11761,0.91103,0.39522,0.12289,0.8562,0.18988
-0.10664,0.92588,0.36247,0.06124,0.42231,0.15397
-0.1024,0.94019,0.32489,-0.32994,0.04995,-0.02237
-0.10253,0.95277,0.28588,-0.31407,-0.11364,-0.06551
-0.09955,0.96408,0.24626,-0.14941,-0.30658,-0.19913
-0.09003,0.97424,0.20679,-0.01707,-0.43935,-0.22301
-0.07448,0.98308,0.16735,0.03781,-0.39591,-0.15045
-0.0557,0.98978,0.1313,0.01588,-0.35747,-0.07107
-0.03532,0.99416,0.10198,0.06035,-0.34488,0.01443
-0.01523,0.9967,0.07974,0.04974,-0.2644,-0.00214
0.00061,0.99806,0.06231,-0.04883,-0.14857,0.01232
0.01286,0.99879,0.04749,-0.17626,-0.02247,0.04678
0.02119,0.99922,0.03326,-0.27294,-0.02296,0.12942
0.02555,0.99946,0.02073,-0.31118,0.11697,0.22415
0.02585,0.9996,0.01103,-0.08046,0.20839,0.23476
0.02632,0.99963,0.00667,-0.16693,0.34584,0.18081
0.02958,0.99951,0.01053,-0.30657,0.43502,0.25749
0.03469,0.99918,0.02092,-0.35548,0.406,0.08051
0.03838,0.99849,0.03935,-0.34276,0.44292,-0.09144
0.0392,0.9968,0.0697,-0.11972,0.18466,-0.19055
0.03869,0.9932,0.10982,0.12719,-0.07932,-0.29529
0.03842,0.987,0.15607,0.02778,-0.08661,-0.1902
0.03424,0.97924,0.19982,-0.48195,0.58909,-0.43099
0.01691,0.97078,0.23939,-0.58043,0.64945,-0.39292
-0.00061,0.96102,0.27649,-0.403,0.32864,-0.31311
-0.00978,0.95122,0.30835,-0.00174,0.07018,-0.1129
-0.01783,0.94166,0.3361,0.07336,0.10104,-0.11624
-0.02558,0.93211,0.36127,0.04797,0.088,-0.21472
-0.03002,0.92387,0.38153,-0.10227,-0.03262,-0.28073
-0.03083,0.91846,0.39431,-0.1114,-0.04299,-0.26019
-0.02947,0.91555,0.40111,-0.13528,-0.05186,-0.19287
-0.02709,0.91458,0.40348,-0.15089,-0.14879,-0.21556
-0.02421,0.91449,0.40387,-0.09783,-0.2029,-0.28066
-0.02229,0.91436,0.40428,0.15348,-0.37469,-0.40831
-0.02097,0.9146,0.4038,0.27236,-0.32893,-0.29743
-0.02166,0.91648,0.39949,0.25206,-0.17483,-0.18566
-0.0239,0.91964,0.39204,0.16117,-0.08017,-0.04469
-0.02486,0.92289,0.38427,-0.02048,-0.13921,0.05265
-0.02408,0.92545,0.37809,-0.12727,-0.18833,-0.00577
-0.02049,0.92687,0.37483,-0.14763,-0.24616,0.01014
-0.01397,0.928,0.37231,-0.27259,-0.06413,0.21743
-0.01452,0.9268,0.37526,-0.40469,0.09305,0.01724
-0.02476,0.92229,0.38571,-0.28588,0.43161,0.30045
-0.03373,0.91675,0.39803,-0.40144,0.21091,0.41349
-0.04176,0.91344,0.40482,-0.68938,-0.25141,0.27318
-0.05948,0.91353,0.4024,-0.43512,0.01304,0.08113
-0.07054,0.9149,0.39746,-0.02779,0.89685,-0.30288
-0.06768,0.92155,0.3823,0.20296,1.19025,-0.37658
-0.06693,0.9246,0.37502,0.27646,-0.19556,-0.35917
-0.06848,0.92673,0.36944,0.19138,-0.5582,-0.69808
-0.0584,0.93124,0.3597,0.00269,-0.2795,-0.5216
-0.04618,0.93683,0.34673,-0.21982,0.02707,-0.30165
-0.0337,0.94239,0.3328,-0.20244,0.329,-0.11866
-0.02018,0.94836,0.31655,-0.23,0.32256,-0.12728
-0.01412,0.955,0.29628,-0.17823,0.01368,-0.14431
-0.01183,0.9622,0.27208,-0.06221,-0.17289,-0.17711
-0.00521,0.9693,0.24581,-0.03162,-0.19539,-0.17284
0.00372,0.97538,0.22049,-0.0368,-0.13795,-0.16453
0.01183,0.98048,0.19625,-0.02276,-0.11184,-0.10681
0.0185,0.98462,0.17375,-0.01208,-0.12883,-0.08874
0.02387,0.988,0.15257,-0.13514,-0.12602,-0.10428
0.02643,0.99109,0.13057,-0.23477,-0.12489,-0.02743
0.02895,0.99372,0.10813,-0.28173,-0.08537,0.04713
0.03207,0.99565,0.08741,-0.25307,-0.0475,0.09552
0.03561,0.99695,0.06948,-0.16467,-0.16159,0.0727
0.03935,0.9977,0.05516,-0.08928,-0.1267,0.03472
0.04116,0.99822,0.04306,-0.10343,-0.07144,0.11278
0.04121,0.99851,0.03582,-0.32016,0.30989,0.14848
0.03839,0.99869,0.03373,-0.34814,0.26722,0.10401
0.03368,0.99876,0.03662,-0.3458,0.1695,0.07623
0.02834,0.99854,0.04604,-0.36849,0.30266,-0.08373
0.02056,0.99787,0.06189,-0.28988,0.37829,-0.0845
0.00818,0.99605,0.08847,0.04452,0.44284,-0.22882
-0.00566,0.99235,0.1233,0.09973,0.25908,-0.47297
-0.01574,0.98616,0.16507,0.00714,0.11031,-0.31909
-0.02511,0.9776,0.20898,-0.09519,0.1926,-0.22587
-0.03924,0.96714,0.25121,-0.07796,0.4685,-0.24048
-0.06089,0.95565,0.28813,0.04933,0.45296,-0.11088
-0.08558,0.94309,0.32135,0.13474,0.36261,-0.12601
-0.10514,0.9297,0.353,0.04264,0.02077,-0.22161
-0.11751,0.91669,0.38193,-0.09788,-0.13694,-0.2493
-0.12335,0.9056,0.40581,-0.11863,-0.20501,-0.18425
-0.12424,0.89687,0.42448,-0.07119,-0.23603,-0.1982
-0.12134,0.89023,0.43906,-0.00949,-0.17427,-0.23819
-0.11841,0.88535,0.44959,0.1523,-0.1946,-0.31188
-0.11641,0.88272,0.45524,0.26981,-0.33411,-0.28662
-0.11441,0.88303,0.45516,0.27707,-0.37868,-0.27346
-0.11213,0.88546,0.45098,0.07733,-0.4357,-0.16663
-0.11121,0.88931,0.44358,0.03446,-0.46347,-0.25333
-0.10731,0.89621,0.43046,-0.0099,-0.52701,-0.31426
-0.10238,0.9053,0.41226,-0.01536,-0.51215,-0.22796
-0.10128,0.91215,0.39714,-0.00244,-0.41102,0.10685
-0.1067,0.91407,0.39127,0.0053,-0.39826,-0.00838
-0.11345,0.9137,0.39023,0.05581,-0.35765,-0.16788
-0.11197,0.91529,0.38693,-0.06597,-0.16625,-0.21636
-0.10685,0.92047,0.37592,-0.27744,0.13986,-0.08568
-0.10892,0.92702,0.35883,-0.21534,-0.00472,-0.0197
-0.11197,0.93356,0.34048,0.00427,-0.16164,-0.03662
-0.11157,0.94133,0.31853,0.11141,-0.04206,-0.02936
-0.10839,0.94982,0.29342,0.11711,0.05834,0.01929
-0.10491,0.95548,0.27578,0.142,0.56349,-0.02891
-0.10178,0.95504,0.27847,0.01523,0.69192,-0.10695
-0.10022,0.95082,0.29307,-0.11585,0.31297,-0.36366
-0.09605,0.9484,0.30218,-0.03869,0.04281,-0.44179
-0.09006,0.94824,0.30452,-0.25235,1.33345,0.56579
-0.09125,0.94397,0.31716,-0.45944,1.22356,0.04439
-0.10532,0.94202,0.31861,-0.57597,0.32921,-0.30625
-0.11725,0.94201,0.31443,0.06258,-0.5726,-0.12533
-0.11498,0.94472,0.30707,0.01085,-0.25459,-0.05699
-0.1099,0.94805,0.29853,-0.07635,-0.11217,0.06608
-0.10688,0.95055,0.29159,-0.1404,0.12559,0.11055
-0.10557,0.95239,0.28602,-0.24463,-0.04329,0.00245
-0.1042,0.9541,0.28076,-0.1962,-0.31359,-0.03592
-0.10308,0.95459,0.27951,-0.01705,-0.46282,-0.06778
-0.10137,0.95507,0.27851,0.08639,-0.40406,0.03489
-0.09948,0.95516,0.27887,-0.09359,-0.20805,0.01611
-0.10032,0.95509,0.27881,-0.14859,-0.11421,-0.04484
-0.1013,0.95382,0.28278,-0.1516,0.22678,-0.07683
-0.10283,0.9503,0.29387,-0.06923,0.19894,-0.15385
-0.10572,0.94395,0.31269,0.00614,-0.0731,-0.30825
-0.10891,0.9333,0.34218,-0.02583,-0.08192,-0.32869
-0.11615,0.91451,0.38753,-0.04266,0.42245,-0.15867
-0.12897,0.88833,0.44072,-0.01226,0.85764,0.07992
-0.15102,0.86167,0.48447,0.14777,0.76756,0.15147
-0.17421,0.84206,0.51047,0.20088,0.1981,0.03479
-0.1871,0.82676,0.53052,-0.02231,0.2147,0.21499
-0.19951,0.81333,0.54653,0.05368,0.32315,0.17875
-0.21172,0.80861,0.54892,0.10364,-0.11364,-0.12505
-0.215,0.81441,0.53898,0.01024,-0.48897,-0.15174
-0.213,0.82691,0.52043,-0.06116,-0.50306,-0.09445
-0.21061,0.8406,0.49904,0.02939,-0.36846,0.09139
-0.20989,0.8531,0.47766,0.16322,-0.39043,-3e-05
-0.20934,0.86519,0.45565,0.18937,-0.47824,-0.08662
-0.20521,0.88001,0.42834,-0.00068,-0.5743,-0.08295
-0.19761,0.89732,0.39468,-0.17582,-0.49584,-0.00194
-0.18739,0.91497,0.35736,-0.25721,-0.17655,0.12175
-0.17457,0.9302,0.32289,-0.28469,0.04189,0.13422
-0.16389,0.94121,0.29541,-0.27921,0.13489,0.06288
-0.15967,0.9492,0.27115,-0.00666,0.18506,0.06225
-0.15897,0.95534,0.24909,0.44814,0.32537,-0.08226
-0.15577,0.96,0.23265,0.54391,0.47379,-0.08311
-0.14486,0.96319,0.22644,0.3009,0.31165,-0.02804
-0.13682,0.9645,0.22585,0.02108,0.03945,-0.47492
-0.13455,0.96468,0.22647,-0.19577,0.16313,-0.46904
-0.13577,0.96457,0.22621,-0.30054,0.53009,0.0394
-0.13694,0.96093,0.24056,-0.2216,0.70771,0.15681
-0.14177,0.95633,0.25559,-0.09361,-0.19582,-0.05871
-0.14618,0.95518,0.25741,-0.04579,-0.32571,-0.00307
-0.14494,0.95562,0.25648,-0.01174,0.00672,0.03391
-0.13805,0.95652,0.2569,-0.07617,0.02168,-0.22635
-0.13039,0.95838,0.25397,-0.10552,-0.09132,-0.13529
-0.12686,0.9596,0.25114,-0.102,-0.11875,0.0893
-0.12527,0.95958,0.25199,-0.00737,-0.05398,0.04926
-0.1247,0.95926,0.25352,0.04691,-0.08484,0.05604
-0.1251,0.95817,0.2574,-0.06531,-0.11979,0.12372
-0.1288,0.95594,0.2638,-0.15686,-0.27353,0.07486
-0.13302,0.95242,0.27421,-0.12727,-0.34939,-0.05418
-0.13371,0.94762,0.29006,-0.01462,-0.28212,-0.19758
-0.12995,0.94052,0.31391,0.15486,-0.0512,-0.1889
-0.12286,0.92985,0.34682,0.10573,0.03867,-0.30776
-0.11813,0.91321,0.38998,0.00386,0.15435,-0.28906
-0.12156,0.89023,0.43899,-0.24377,0.6575,-0.0125
-0.1314,0.86708,0.48053,0.09833,0.49317,0.17114
-0.14193,0.84956,0.50803,0.27654,0.35683,0.1469
-0.14557,0.8382,0.52557,0.17154,0.31853,0.13483
-0.15314,0.82894,0.53797,0.44138,0.31118,0.24972
-0.16992,0.8259,0.5376,0.41727,0.15296,0.04512
-0.18484,0.8343,0.51939,0.08956,-0.43387,-0.17758
-0.19219,0.84919,0.49186,-0.28323,-0.33408,0.08011
-0.19472,0.86427,0.46381,-0.20803,-0.26081,0.21806
-0.20085,0.87704,0.43641,-0.07619,-0.26141,0.14345
-0.20518,0.88696,0.41376,-0.01009,-0.42137,0.01538
-0.20524,0.89646,0.39273,-0.03908,-0.6397,-0.17802
-0.19963,0.90846,0.3672,-0.05704,-0.16411,0.02115
-0.19046,0.92252,0.33567,-0.19247,0.04562,0.1284
-0.1824,0.93374,0.30799,-0.22969,0.11926,0.12829
-0.1791,0.94025,0.28958,-0.13682,0.16631,0.10268
-0.17963,0.9449,0.27367,0.20282,0.20999,0.09287
-0.17713,0.94996,0.25729,0.6187,0.54041,0.22394
-0.1683,0.95369,0.24929,0.31287,0.64842,0.02776
-0.1575,0.95476,0.25225,0.02655,0.21774,-0.76452
-0.15025,0.95667,0.24941,-0.13779,-0.06424,-0.39045
-0.14281,0.95847,0.24686,-0.33714,-0.15657,-0.21898
-0.13848,0.95847,0.2493,-0.31631,-0.05001,0.00215
-0.1379,0.9559,0.25928,-0.02722,1.22044,0.29632
-0.14012,0.95149,0.27392,-0.08552,0.11617,0.13317
-0.15514,0.94832,0.27681,0.07016,-0.39149,0.17005
-0.16213,0.94768,0.27498,0.08485,-0.65189,-0.17063
-0.15611,0.95008,0.27015,-0.10253,-0.39959,-0.06482
-0.14886,0.95232,0.2663,-0.10869,0.16636,0.07811
-0.14382,0.95365,0.26432,-0.19758,0.34448,0.10121
-0.14095,0.95532,0.25979,-0.16071,-0.06532,0.21472
-0.14001,0.95697,0.25415,-0.12879,-0.34966,0.09181
-0.13935,0.95825,0.24968,-0.01909,-0.42393,0.10159
-0.13752,0.95936,0.2464,0.02756,-0.32989,-0.05384
-0.13267,0.96062,0.24412,-0.04982,-0.26432,-0.00892
-0.12698,0.96124,0.24472,-0.17844,0.04785,-0.00984
-0.1208,0.9612,0.24797,-0.03433,0.15084,-0.03802
-0.11375,0.96025,0.25489,0.00889,0.11912,0.03916
-0.10597,0.95768,0.26761,-0.1218,0.05749,-0.01159
-0.09953,0.95316,0.28561,-0.12451,-0.00934,-0.29445
-0.0933,0.94542,0.3122,0.04261,0.11552,-0.40215
-0.0868,0.93137,0.35356,0.10569,0.28692,-0.28448
-0.08863,0.91136,0.40194,0.29874,0.65391,0.19745
-0.10384,0.89236,0.43921,0.31493,0.36036,0.12012
-0.12484,0.87976,0.45873,0.21741,0.23416,0.0604
-0.14495,0.86985,0.47154,-0.18363,0.06388,-0.1217
-0.15706,0.86021,0.48515,-0.1478,0.07615,0.05718
-0.16693,0.85537,0.49037,0.0236,0.05615,0.07869
-0.17494,0.85828,0.48244,0.1781,-0.32707,-0.02233
-0.17834,0.86762,0.46414,0.07518,-0.50585,-0.06302
-0.17558,0.8805,0.44032,0.01315,-0.46287,-0.03777
-0.17061,0.89455,0.41313,-0.03862,-0.50325,-0.00866
-0.16479,0.90777,0.38573,-0.03496,-0.60009,-0.02155
-0.16026,0.91865,0.3611,-0.00548,-0.68379,-0.03394
-0.15834,0.92789,0.33755,0.02208,-0.70981,0.00074
-0.15583,0.93724,0.31191,0.01911,-0.53588,0.12081
-0.14934,0.94752,0.28267,-0.12277,0.58149,0.06189
-0.14238,0.95578,0.2573,-0.17862,0.61604,0.09918
-0.14491,0.96005,0.23939,-0.05079,0.15659,0.09023
-0.15368,0.96164,0.22721,0.40676,0.27993,0.16574
-0.15767,0.96173,0.22409,0.29917,0.48273,0.2001
-0.15181,0.95916,0.23865,-0.1373,0.60692,-0.45346
-0.14033,0.95975,0.24329,-0.04548,0.03737,0.10472
-0.12441,0.96224,0.24212,-0.0635,0.17973,0.1248
-0.11907,0.96116,0.24897,-0.04718,0.23851,-0.06502
-0.12566,0.96033,0.24894,-0.0109,1.15959,0.22628
-0.13704,0.95891,0.24841,-0.44354,0.17317,0.01031
-0.15065,0.958,0.24399,-0.31488,-0.13229,-0.00638
-0.15123,0.95823,0.24275,-0.09533,-0.12607,-0.16194
-0.13961,0.96135,0.23731,-0.02557,0.00612,-0.04859
-0.12641,0.96512,0.22926,0.01785,-0.00204,0.03383
-0.11813,0.96832,0.22,0.02511,-0.15129,0.0959
-0.11391,0.97099,0.21022,0.06411,-0.26537,0.18494
-0.11102,0.97328,0.20101,0.06883,-0.29931,0.24815
-0.10874,0.97429,0.19729,0.04058,-0.46277,0.13275
-0.10601,0.97455,0.19753,-0.03588,-0.47226,0.05236
-0.10291,0.97494,0.1972,-0.22573,-0.43019,0.08897
-0.10016,0.9752,0.19738,-0.45682,-0.39208,0.10662
-0.09632,0.97479,0.20127,-0.56368,-0.30062,-0.01264
-0.09062,0.97377,0.20869,-0.34714,-0.18616,-0.1941
-0.0826,0.97198,0.22007,-0.18365,-0.19154,-0.29627
-0.07321,0.96674,0.24504,0.29983,0.48897,-0.2248
-0.06802,0.95569,0.28639,0.29465,0.50003,-0.26615
-0.07093,0.9386,0.33764,0.42964,0.71858,0.02382
-0.07971,0.92222,0.37835,0.26275,0.23209,0.27952
-0.09854,0.90874,0.40556,0.20535,0.25526,0.28868
-0.12389,0.89394,0.43073,0.11399,0.35761,0.10451
-0.14409,0.8802,0.4522,-0.40248,0.22277,-0.03281
-0.16057,0.87259,0.4613,-0.0568,-0.04791,0.01946
-0.16901,0.87115,0.46101,0.11631,0.0557,0.34984
-0.17033,0.87526,0.45266,-0.0754,0.22528,0.38467
-0.16816,0.88409,0.43601,-0.3072,0.12397,0.32661
-0.16659,0.89685,0.40976,-0.29186,-0.09881,0.26979
-0.16466,0.91067,0.3789,-0.18042,-0.27879,0.10994
-0.15673,0.92444,0.34763,-0.01875,-0.58099,-0.10891
-0.14214,0.93885,0.3136,0.15586,-0.86366,-0.2924
-0.12213,0.95421,0.27306,0.24362,-0.40421,-0.25563
-0.10251,0.96799,0.22911,0.00638,-0.36119,-0.24622
-0.09012,0.97525,0.20192,-0.31232,-0.79438,-0.29326
-0.09339,0.97681,0.19267,-0.27591,-0.98962,-0.32236
-0.11234,0.97727,0.17976,0.25803,-1.48838,-0.00538
-0.12077,0.97547,0.18404,0.59813,-0.44605,-0.37058
-0.11737,0.9709,0.20876,0.42521,0.13152,-0.5205
-0.12315,0.96813,0.21809,0.07452,1.09497,0.48501
-0.12829,0.96762,0.21737,-0.58626,0.79022,0.61587
-0.12511,0.96761,0.21924,-0.72473,1.48162,0.2989
-0.11905,0.96258,0.24345,-1.01718,0.48,-0.09405
-0.11554,0.96027,0.25401,-0.6269,-0.4764,0.3184
-0.10839,0.95808,0.2652,-0.44984,-0.23419,0.24866
-0.09828,0.95745,0.27134,0.00928,0.16082,0.08045
-0.08763,0.95809,0.27274,0.14372,0.25809,-0.12083
-0.08307,0.95699,0.27797,0.11191,-0.02778,-0.27288
-0.08422,0.95209,0.294,0.09081,-0.22436,-0.23583
-0.08637,0.94147,0.32582,0.01412,-0.04853,-0.13115
-0.09462,0.9252,0.36747,0.07731,0.15527,-0.32052
-0.10632,0.90916,0.40264,0.1121,0.171,-0.06295
-0.11866,0.8949,0.4302,-0.04038,0.54512,0.13467
-0.13146,0.8784,0.45947,-0.25518,0.96794,0.44881
-0.14457,0.86574,0.47916,0.02244,0.61144,0.24262
-0.15942,0.86065,0.48359,0.06819,-0.18604,0.05105
-0.17031,0.86257,0.4764,-0.08063,-0.50881,-0.039
-0.16878,0.86825,0.46652,-0.23545,-0.3439,0.0253
-0.1579,0.87787,0.45211,-0.17605,-0.18256,0.13325
-0.14653,0.89064,0.43044,0.01996,-0.27675,0.13464
-0.1377,0.90419,0.40431,0.15728,-0.46981,-0.07785
-0.12752,0.91747,0.3768,0.12702,-0.5326,-0.11338
-0.11186,0.93097,0.34754,-0.02301,-0.50249,-0.00422
-0.09213,0.9435,0.31831,-0.19756,-0.336,0.16167
-0.07557,0.95233,0.29555,-0.26588,-0.12947,0.13783
-0.07007,0.95597,0.28497,0.10811,0.33312,0.20304
-0.07119,0.95429,0.29027,0.2112,0.24346,0.34544
-0.07392,0.94957,0.30472,0.11564,-0.0041,0.32135
-0.08386,0.94589,0.31345,-0.05687,-0.46268,-0.02413
-0.08935,0.94451,0.31609,-0.42522,-0.86379,0.37944
-0.10238,0.94137,0.32147,0.25861,1.00846,-1.66204
-0.0819,0.93125,0.35504,-0.37789,3.73037,1.03731
-0.08763,0.91507,0.39364,-0.48328,-0.21297,-0.8213
-0.1328,0.91021,0.39226,-0.08673,-1.75889,0.21227
-0.14098,0.90907,0.39205,0.04653,-0.02702,-0.39667
-0.10034,0.91691,0.38626,-0.25855,0.71486,-0.44511
-0.05977,0.93,0.36265,0.05249,1.28012,0.03123
-0.05457,0.94542,0.32123,0.18996,-0.00141,0.09163
-0.05082,0.95948,0.27715,-0.02775,-0.10584,-0.09969
-0.04646,0.97197,0.23047,0.0309,-0.23746,-0.19821
-0.03816,0.9821,0.18446,-0.01502,-0.06817,-0.20117
-0.02428,0.98941,0.14306,-0.12473,-0.10993,-0.06795
-0.00911,0.99413,0.10777,-0.08643,-0.45183,-0.0706
0.00799,0.99681,0.07939,-0.07715,-0.5688,-0.15259
0.0258,0.99815,0.05497,-0.06205,-0.46956,-0.06449
0.04249,0.99852,0.0337,-0.09536,-0.25666,0.06811
0.05579,0.99826,0.01881,-0.04549,0.07412,0.16353
0.0644,0.99787,0.01009,-0.08452,0.02445,0.29501
0.06976,0.99754,0.00575,-0.28209,-0.02502,0.31749
0.07266,0.99734,0.00562,-0.48744,0.12121,0.40649
0.07378,0.99721,0.01062,-0.63932,0.23914,0.28265
0.07521,0.99695,0.02094,-0.63192,0.27919,0.01937
0.07625,0.99631,0.0394,-0.31803,0.53719,-0.37081
0.07379,0.99512,0.06552,0.02698,0.23511,-0.34602
0.06589,0.9933,0.09493,-0.06095,0.25815,-0.1733
0.05243,0.98977,0.13262,-0.24009,0.53197,-0.11451
0.03391,0.98323,0.17915,-0.23332,0.57309,-0.36929
0.0096,0.97499,0.22203,-0.05031,0.41031,-0.35269
-0.01397,0.96635,0.25682,0.0922,0.26186,-0.18596
-0.03263,0.95754,0.28645,0.05953,0.2905,-0.07075
-0.04741,0.94776,0.31542,-0.10269,0.18101,-0.08587
-0.05698,0.93706,0.34447,-0.21363,0.04063,-0.18899
-0.05958,0.9277,0.36854,-0.17268,-0.03686,-0.19114
-0.05568,0.92041,0.38696,-0.11415,-0.15037,-0.16621
-0.04805,0.9147,0.40127,-0.0032,-0.21491,-0.18128
-0.03894,0.91002,0.41273,0.00048,-0.22709,-0.22224
-0.03247,0.90676,0.42039,-0.00639,-0.28332,-0.23775
-0.03059,0.90536,0.42352,0.01502,-0.36293,-0.34734
-0.03001,0.90593,0.42235,0.02647,-0.34694,-0.35924
-0.02841,0.90837,0.41719,0.05997,-0.23441,-0.28609
-0.02606,0.91217,0.40896,0.1419,-0.13114,-0.09854
-0.02475,0.91624,0.39987,0.14534,-0.14446,-0.06192
-0.02294,0.92064,0.38973,0.12334,-0.15178,-0.01451
-0.01937,0.92602,0.37697,-0.28977,-0.20523,0.12456
-0.01627,0.93028,0.36648,-0.31169,-0.13148,0.18267
-0.01404,0.93219,0.36168,-0.3241,-0.09241,0.27063
-0.01422,0.9302,0.36675,-0.33591,0.47249,0.3344
-0.02074,0.92543,0.37834,-0.42764,0.47563,0.47179
-0.03473,0.92211,0.38536,-0.64238,0.01972,0.46246
-0.05435,0.91902,0.39044,-0.53537,-0.67546,0.23333
-0.07007,0.91972,0.38626,-0.35352,-0.35582,-0.04308
-0.07484,0.92384,0.37539,-0.22713,0.67614,-0.47802
-0.06581,0.93076,0.35965,0.30853,2.18243,-0.27791
-0.05556,0.93223,0.35756,0.25635,0.31787,-0.18496
-0.06418,0.93128,0.3586,0.00547,-0.72812,-0.8223
-0.06876,0.93239,0.35484,-0.01091,-0.58475,-0.68591
-0.0598,0.93542,0.34843,-0.14651,-0.36421,-0.44546
-0.04797,0.93862,0.34158,-0.00339,0.26664,-0.05563
-0.04262,0.94348,0.32866,0.0269,0.42442,-0.01002
-0.04471,0.94962,0.31019,-0.14314,0.43999,-0.12402
-0.04925,0.95625,0.28835,-0.13453,0.05214,-0.10517
-0.05156,0.96285,0.26507,-0.07124,-0.1357,-0.1255
-0.04518,0.96943,0.24114,0.02468,-0.26687,-0.2122
-0.03253,0.97596,0.21547,-0.00126,-0.09953,0.0035
-0.02077,0.98199,0.18778,-0.0504,-0.06088,-0.11504
-0.01387,0.98698,0.16025,-0.13602,-0.11809,-0.09
-0.0104,0.99105,0.13306,-0.16572,-0.21749,-0.11231
-0.007,0.99438,0.10557,-0.14806,-0.24393,-0.0617
-0.00256,0.9969,0.07858,-0.1364,-0.09144,0.03397
0.00183,0.99866,0.05161,-0.15927,-0.05408,0.11259
0.00855,0.99964,0.02518,-0.15793,-0.02186,0.10142
0.01637,0.99986,0.00217,-0.16169,-0.09329,-0.0014
0.02441,0.99955,-0.01712,-0.18556,0.01826,-0.03144
0.03157,0.99902,-0.0309,-0.17804,0.18614,0.1005
0.03561,0.99859,-0.03922,-0.1859,0.21688,0.12679
0.03702,0.99834,-0.04399,-0.35018,0.20507,0.04815
0.03678,0.99828,-0.04569,-0.44457,0.42183,0.02468
0.03202,0.99848,-0.04482,-0.20937,0.52293,0.08259
0.0208,0.99904,-0.03855,-0.03069,0.48547,-0.003
0.00432,0.99973,-0.0228,-0.02661,0.27627,-0.09702
-0.01311,0.9999,0.00438,-0.02864,0.15977,-0.15419
-0.02954,0.99859,0.04403,-0.06432,-0.11384,-0.22367
-0.04339,0.99496,0.0904,0.09956,0.26637,-0.12687
-0.05631,0.98866,0.13921,0.16698,0.44344,-0.10418
-0.07296,0.98029,0.18356,0.24411,0.50516,-0.09892
-0.09456,0.97038,0.22229,0.11237,0.1027,-0.20319
-0.11522,0.95937,0.25755,0.03223,0.03717,-0.24899
-0.13095,0.94809,0.28977,-0.04405,0.02325,-0.24584
-0.14293,0.93646,0.32031,-0.10344,-0.02396,-0.10913
-0.15153,0.92492,0.34864,0.00205,-0.09402,-0.11906
-0.15503,0.91426,0.37428,0.05605,-0.14229,-0.16688
-0.15333,0.90525,0.39623,0.18011,-0.22659,-0.21446
-0.14892,0.89803,0.41394,0.21789,-0.24789,-0.26319
-0.14463,0.89301,0.42615,0.22038,-0.2804,-0.31226
-0.14245,0.89097,0.43113,0.18675,-0.41618,-0.26031
-0.14272,0.89234,0.4282,0.14971,-0.46862,-0.17024
-0.14481,0.89582,0.42014,0.10372,-0.48995,-0.15753
-0.14757,0.9009,0.40815,0.06756,-0.56855,-0.15805
-0.149,0.90741,0.39292,0.0184,-0.60015,-0.12925
-0.1489,0.91479,0.37547,0.04153,-0.5442,-0.07902
-0.14651,0.92141,0.3599,-0.02714,-0.48594,-0.06381
-0.14162,0.92701,0.34726,-0.09967,-0.35387,-0.0811
-0.13648,0.93304,0.33287,-0.03019,0.04274,-0.03372
-0.1324,0.94011,0.31409,0.09549,0.38737,0.04071
-0.1312,0.94682,0.29379,0.08152,0.30591,0.11881
-0.13368,0.95226,0.27445,0.04746,-0.05141,0.13123
-0.13742,0.95651,0.25728,-0.00401,-0.11784,-0.01847
-0.14117,0.95878,0.24658,0.0729,0.21636,-0.00624
-0.14588,0.9572,0.24994,0.1072,0.7772,-0.14148
-0.14792,0.95349,0.26263,0.14432,0.3797,-0.82955
-0.14319,0.95219,0.26985,0.03421,-0.04433,-0.0659
-0.13746,0.95442,0.2649,-0.05021,0.34237,0.10535
-0.13734,0.95399,0.26652,-0.21896,1.72352,0.30378
-0.13691,0.95202,0.2737,-0.45046,1.52044,0.06146
-0.15029,0.95128,0.2692,-0.03036,-0.44843,-0.15545
-0.15397,0.95247,0.26282,-0.13067,-0.37299,-0.2374
-0.14786,0.95615,0.25281,-0.03726,-0.35321,-0.13614
-0.1422,0.96023,0.24028,0.13341,-0.16589,0.00699
-0.14135,0.9628,0.23027,0.06333,0.12282,0.05128
-0.14466,0.96363,0.22467,-0.01182,0.09647,-0.00473
-0.14909,0.96344,0.2226,0.13635,-0.28264,0.04813
-0.15059,0.96343,0.22164,0.16436,-0.49126,0.09911
-0.14837,0.9633,0.22367,0.04226,-0.36523,0.08334
-0.14609,0.96267,0.22783,-0.12321,-0.19178,0.05264
-0.14551,0.96121,0.23428,-0.2117,-0.18642,-0.11273
-0.14646,0.95912,0.24214,-0.11942,-0.31387,-0.22329
-0.14674,0.95556,0.25565,0.05071,-0.20329,-0.34285
-0.14557,0.94754,0.28455,0.16391,-0.0501,-0.45159
-0.14166,0.93271,0.33163,0.3012,0.34282,-0.01422
-0.14478,0.90895,0.39094,0.25583,0.55685,0.15985
-0.15904,0.88349,0.44061,0.03332,0.39173,0.31421
-0.18234,0.8638,0.46968,-0.35822,0.39121,0.25197
-0.20029,0.84544,0.49508,-0.30629,0.86617,0.19561
-0.21468,0.82844,0.51729,0.0893,0.45682,0.22853
-0.22152,0.82438,0.52089,0.23967,-0.16587,-0.09846
-0.22719,0.83404,0.50275,0.22403,-0.33169,-0.1706
-0.22729,0.85059,0.47417,0.09672,-0.38312,0.01932
-0.22034,0.86751,0.44595,0.09132,-0.38383,0.12402
-0.2135,0.88284,0.41833,0.10003,-0.45492,0.1283
-0.21009,0.89569,0.39191,-0.04924,-0.69714,-0.10611
-0.20484,0.90779,0.366,-0.06155,-0.72378,-0.07309
-0.19541,0.91999,0.33974,-0.03317,-0.72113,0.01787
-0.18656,0.93168,0.31172,-0.10617,-0.40963,0.15561
-0.17787,0.94321,0.28054,-0.02504,0.31472,0.04919
-0.16988,0.95095,0.2585,-0.00429,0.39521,-0.08516
-0.17159,0.95367,0.2471,0.22284,0.0974,-0.08771
-0.1793,0.95343,0.24251,0.48308,0.23192,-0.04355
-0.18082,0.95143,0.24915,0.51652,0.62817,0.07999
-0.16879,0.94815,0.26927,-0.06685,0.04219,-0.82141
-0.15638,0.95063,0.26804,-0.25288,0.13708,-0.03208
-0.16188,0.95061,0.26483,-0.2276,0.27823,0.18933
-0.16844,0.94425,0.28288,-0.48428,1.41044,0.16804
-0.18516,0.93902,0.28974,-0.18537,-0.17337,0.25515
-0.199,0.93723,0.28634,-0.09187,-0.20212,-0.07418
-0.194,0.94059,0.27866,-0.17095,0.13059,0.05255
-0.18599,0.94533,0.26787,-0.11239,0.29349,-0.02388
-0.18114,0.94931,0.25688,-0.14443,0.0709,-0.02812
-0.17976,0.95247,0.24592,-0.04647,-0.28678,0.10388
-0.1817,0.95469,0.23568,0.09337,-0.38325,0.12388
-0.1832,0.95576,0.2301,0.301,-0.41107,0.1129
-0.18117,0.95696,0.22669,0.25234,-0.33407,0.17416
-0.17826,0.95828,0.22343,0.05462,-0.17819,0.01797
-0.17674,0.95928,0.2203,-0.21851,-0.17216,-0.01109
-0.17382,0.95886,0.22441,-0.187,-0.10909,-0.10468
-0.16833,0.95707,0.23597,-0.1348,-0.07819,-0.12412
-0.16136,0.95296,0.25654,0.08331,0.00164,-0.1685
-0.15174,0.94528,0.28881,0.13439,-0.08943,-0.40901
-0.13905,0.9326,0.33304,0.20663,-0.04463,-0.47904
-0.13263,0.91136,0.38964,0.37986,0.40161,-0.01949
-0.13794,0.88518,0.44431,0.26314,0.31521,0.25077
-0.15695,0.86409,0.47823,-0.17112,0.13226,0.38122
-0.18741,0.84697,0.4975,-0.0588,1.13913,0.54611
-0.22018,0.83089,0.51101,-0.19465,0.55607,0.20566
-0.23078,0.82711,0.51247,-0.15299,-0.43562,-0.13306
-0.22874,0.83564,0.49938,-0.07909,-0.60108,-0.33498
-0.21973,0.85029,0.47825,-0.01762,-0.48704,-0.11586
-0.20543,0.86421,0.45928,0.14253,-0.35321,0.06782
-0.19257,0.87482,0.44452,0.13405,-0.35639,0.14981
-0.18606,0.88327,0.43035,0.10194,-0.38864,0.05527
-0.18356,0.8913,0.41459,0.09458,-0.45697,-0.11745
-0.17892,0.90078,0.3957,0.16253,-0.59206,-0.18244
-0.16935,0.9141,0.36842,0.13687,-0.5895,-0.02935
-0.15914,0.92967,0.33224,0.0737,-0.3443,0.12509
-0.15088,0.94213,0.29936,0.00885,0.34919,0.08214
-0.15085,0.94752,0.28187,-0.01288,0.03078,-0.11201
-0.15838,0.94942,0.27115,0.28586,0.16715,-0.3385
-0.16282,0.94849,0.27175,0.23222,0.40838,0.01273
-0.1576,0.94489,0.28696,0.43172,0.54411,-0.63862
-0.13676,0.94457,0.29847,0.03132,0.40037,-0.1652
-0.12915,0.94425,0.30282,-0.04733,0.74669,0.21107
-0.13081,0.94055,0.31347,-0.30874,0.97471,0.35299
-0.14113,0.93648,0.32107,-0.53421,0.10452,0.11903
-0.15421,0.93504,0.31923,-0.15612,-0.12773,-0.07988
-0.15628,0.9376,0.31061,-0.21352,-0.01914,-0.01748
-0.15502,0.94276,0.29523,-0.16239,-0.01173,-0.06662
-0.1525,0.94852,0.27757,-0.12348,0.0128,-0.10243
-0.15132,0.95318,0.2618,-0.17319,-0.16655,-0.06431
-0.15104,0.95668,0.24889,-0.12087,-0.27513,0.01144
-0.15024,0.95921,0.23944,0.09205,-0.31296,0.10431
-0.14789,0.96097,0.23382,0.11413,-0.28898,0.05041
-0.14521,0.96249,0.22917,0.14849,-0.31785,-0.02776
-0.14543,0.96339,0.22521,0.00407,-0.30966,0.06457
-0.14785,0.9628,0.22615,-0.09782,-0.21425,0.04938
-0.15207,0.96069,0.23228,-0.23307,-0.05775,0.06487
-0.1552,0.95771,0.24227,-0.08432,-0.10612,-0.06371
-0.15477,0.95441,0.25524,0.10524,-0.1427,-0.24953
-0.15052,0.94915,0.27648,0.13848,-0.15394,-0.40215
-0.1437,0.93958,0.31071,0.23279,0.1895,-0.18083
-0.14188,0.92187,0.36059,0.0418,0.55559,0.07015
-0.14866,0.89797,0.41419,-0.04896,0.66302,0.18992
-0.16912,0.87477,0.45406,0.03918,0.6778,0.36291
-0.19525,0.85626,0.47821,0.14675,0.72653,0.25612
-0.20867,0.84367,0.49464,-0.02059,0.0738,0.0793
-0.21333,0.83786,0.50246,0.06953,-0.24136,-0.17678
-0.21975,0.83907,0.49765,0.10577,-0.28713,-0.12058
-0.22343,0.8481,0.48041,0.13855,-0.27481,0.00018
-0.22408,0.86102,0.45653,0.1686,-0.24295,0.07647
-0.22334,0.87386,0.43184,0.13648,-0.33939,0.04096
-0.21908,0.88586,0.40895,0.00959,-0.47642,0.01289
-0.20966,0.89789,0.38707,-0.09902,-0.59411,-0.11291
-0.20006,0.91023,0.36255,-0.07586,-0.80734,-0.15694
-0.19155,0.92391,0.33119,0.12535,-0.74267,-0.08009
-0.18127,0.93856,0.29368,0.16575,-0.19246,0.07591
-0.17035,0.94956,0.26327,-0.0682,0.15147,0.1035
-0.16661,0.95437,0.24782,-0.13075,0.29705,0.12332
-0.17354,0.95541,0.23889,0.26355,0.27062,-0.06653
-0.18258,0.95415,0.23719,0.30682,0.39891,0.05054
-0.18482,0.95173,0.24504,0.14623,0.45095,-0.26593
-0.17691,0.9526,0.24748,-0.12505,0.1904,-0.46055
-0.16723,0.95543,0.24326,-0.16208,0.70878,-0.00563
-0.16692,0.9536,0.25054,0.00344,1.04123,0.12058
-0.1638,0.94962,0.26718,0.03805,1.08528,0.1691
-0.17375,0.94708,0.26988,0.18372,-0.13016,0.38684
-0.17966,0.94611,0.26942,-0.06242,-0.29401,-0.07659
-0.17646,0.94884,0.26183,-0.23655,-0.22782,-0.1365
-0.17216,0.9532,0.24854,-0.09002,-0.15283,-0.16448
-0.16864,0.95711,0.23555,-0.05801,-0.0598,-0.01806
-0.16705,0.95984,0.22539,-0.06365,0.08626,0.17468
-0.16939,0.96088,0.21912,0.1032,-0.17303,0.15191
-0.17288,0.96122,0.21487,0.13176,-0.32605,0.19015
-0.17426,0.96147,0.21263,0.10892,-0.41438,0.23436
-0.17355,0.96193,0.21109,-0.12418,-0.35562,0.05232
-0.17153,0.96171,0.21372,-0.13291,-0.30742,0.03653
-0.16805,0.95982,0.22472,-0.08256,-0.10084,-0.09982
-0.16552,0.95542,0.24448,0.04265,-0.16785,-0.31335
-0.16432,0.94754,0.27416,0.17554,-0.22033,-0.32706
-0.16355,0.935,0.31468,0.18007,0.10558,-0.0283
-0.16934,0.91727,0.36045,0.0912,0.37016,-0.07667
-0.18271,0.8971,0.40227,0.09732,0.30625,-0.09302
-0.20286,0.88032,0.4288,0.14991,0.12844,0.17854
-0.22327,0.86568,0.44804,0.17051,0.20314,0.25423
-0.24241,0.85137,0.46518,0.07629,0.29861,0.27119
-0.26346,0.84121,0.47217,0.02303,0.05999,0.10737
-0.27775,0.84097,0.46434,-0.03226,-0.05832,0.0571
-0.28,0.84838,0.44926,-0.09521,0.02604,0.14653
-0.27159,0.8593,0.43339,-0.19298,0.16557,0.3678
-0.25983,0.87245,0.4139,-0.24354,0.09128,0.445
-0.25193,0.88632,0.38854,-0.24708,0.02764,0.4181
-0.24564,0.90122,0.357,-0.10938,-0.41621,-0.00815
-0.23501,0.91701,0.32225,0.09897,-0.67519,-0.25301
-0.21424,0.93335,0.28801,0.23833,-0.40294,-0.41665
-0.18937,0.94672,0.2605,0.0223,-0.63542,-0.44696
-0.17273,0.95553,0.23899,-0.04201,-0.98929,-0.20218
-0.16484,0.96136,0.22045,0.29948,-0.84331,-0.34562
-0.16183,0.9633,0.21416,0.57369,-0.53112,0.15387
-0.15262,0.961,0.2306,0.61253,0.41517,-0.86918
-0.14314,0.96013,0.24013,0.10355,1.52138,0.18866
-0.14269,0.96021,0.24005,-0.20388,0.14893,0.08623
-0.14998,0.95853,0.24233,-0.27941,-0.39476,0.57603
-0.16037,0.95412,0.25285,-0.81541,0.35332,0.33803
-0.169,0.95064,0.26024,-0.59955,0.23087,0.18082
-0.17113,0.94976,0.26205,-0.33566,0.03657,0.26971
-0.1661,0.95083,0.2614,-0.29243,-0.00173,0.28465
-0.1576,0.95221,0.26162,-0.20662,0.20657,0.22249
-0.15067,0.95156,0.268,-0.01251,0.13827,-0.01117
-0.14354,0.94833,0.28293,0.1003,-0.07085,-0.29186
-0.13562,0.94084,0.31051,0.19919,-0.11612,-0.26382
-0.1325,0.92657,0.35199,0.16717,0.3754,0.05699
-0.13969,0.9074,0.39636,0.10765,0.59828,0.04587
-0.15547,0.89019,0.42824,0.14499,0.32744,-0.10219
-0.17098,0.87536,0.45223,-0.01167,0.28575,-0.05109
-0.18298,0.86023,0.47593,-0.34129,0.50445,0.18851
-0.19401,0.8496,0.49044,-0.10744,0.34435,0.14299
-0.20242,0.84585,0.4935,0.15074,-0.13893,0.04458
-0.20307,0.84689,0.49146,0.08735,-0.37489,-0.05263
-0.19495,0.85256,0.4849,0.09447,-0.25274,-0.04581
-0.18664,0.86281,0.4698,0.02815,-0.19088,0.12935
-0.18067,0.87566,0.44784,0.07545,-0.22012,0.15885
-0.17103,0.88957,0.42355,0.1178,-0.52204,-0.06131
-0.1565,0.90524,0.39501,-0.03286,-0.60773,-0.1911
-0.14142,0.92114,0.36263,-0.11154,-0.56895,-0.13414
-0.12822,0.93446,0.33216,-0.08996,-0.27048,0.07087
-0.11825,0.94323,0.31035,0.03856,0.15819,0.152
-0.11262,0.94699,0.30086,0.06118,0.25592,0.259
-0.11479,0.94573,0.304,0.01586,0.09298,0.3252
-0.12488,0.94145,0.31315,0.03104,-0.38593,0.13154
-0.13881,0.93971,0.3125,0.01502,-0.50154,0.2958
-0.1437,0.92981,0.33883,0.1133,0.05068,-0.23842
-0.12092,0.91921,0.37473,-0.45742,2.71351,0.6435
-0.13102,0.90326,0.4086,-0.68044,0.30451,0.10973
-0.14986,0.89274,0.4249,-0.07694,-1.54437,-0.90177
-0.14864,0.8894,0.43228,-0.02258,0.22359,0.1157
-0.12552,0.89212,0.43401,0.08217,1.08586,-0.36472
-0.10579,0.90313,0.41612,0.03128,0.88429,0.1672
-0.10401,0.91717,0.38468,0.20985,0.12821,0.04026
-0.09903,0.93191,0.34889,-0.19925,0.20701,0.02592
-0.09566,0.94589,0.31005,-0.24404,-0.01033,-0.20159
-0.08965,0.95912,0.26839,-0.14776,-0.13436,-0.19275
-0.07733,0.97112,0.22568,-0.04365,-0.2958,-0.20426
-0.0611,0.98111,0.18352,-0.04355,-0.25035,-0.15109
-0.04321,0.98835,0.1459,-0.00085,-0.31553,-0.13572
-0.02547,0.9932,0.1136,0.00838,-0.32277,-0.11449
-0.0089,0.99634,0.08498,0.02233,-0.18556,-0.03646
0.0037,0.99827,0.05865,0.00503,-0.0974,0.12745
0.01507,0.99923,0.03605,-0.06446,-0.09707,0.21481
0.02665,0.99945,0.01944,-0.36512,-0.04074,0.24792
0.0359,0.99932,0.00796,-0.40766,0.06884,0.17982
0.04084,0.99916,0.00125,-0.35498,0.12718,0.18589
0.04247,0.99909,-0.00065,-0.18352,0.29441,0.25733
0.04489,0.99898,0.00438,-0.33879,0.3201,0.14445
0.04722,0.99872,0.01773,-0.47285,0.37945,-0.11656
0.04385,0.99824,0.03979,-0.19984,0.32927,-0.21136
0.03431,0.99663,0.07447,0.00055,0.08168,-0.25148
0.02482,0.99234,0.12099,-0.01079,0.00739,-0.226
0.02018,0.98542,0.16892,-0.10196,0.36961,-0.249
0.0112,0.97671,0.21426,-0.26147,0.54731,-0.30387
-0.01067,0.96764,0.25209,-0.16632,0.33662,-0.1884
-0.03275,0.95717,0.28764,-0.02253,0.21656,-0.18878
-0.04939,0.94643,0.3191,-0.0537,0.19998,-0.21776
-0.06139,0.93671,0.34466,-0.15745,0.12101,-0.17884
-0.07086,0.92799,0.36578,-0.18452,0.05603,-0.19137
-0.07756,0.92097,0.38181,-0.11312,0.03561,-0.21746
-0.07988,0.91581,0.39358,-0.06885,-0.00329,-0.22064
-0.07749,0.91199,0.40281,-0.02253,-0.16243,-0.26835
-0.07161,0.90895,0.41071,0.08098,-0.26798,-0.3215
-0.06626,0.90661,0.41672,0.13983,-0.30171,-0.36415
-0.0622,0.90541,0.41994,0.28872,-0.40462,-0.35134
-0.05852,0.90614,0.41889,0.27067,-0.36755,-0.27624
-0.05582,0.90934,0.41228,0.24638,-0.2354,-0.13845
-0.05124,0.91545,0.39915,-0.0088,-0.28749,0.15965
-0.04384,0.92327,0.38163,-0.24101,-0.38978,0.12858
-0.03595,0.92986,0.36614,-0.4016,-0.3866,0.02708
-0.02486,0.93413,0.35604,-0.40236,-0.15026,0.09751
-0.01366,0.93264,0.36054,-0.26355,0.56783,0.21853
-0.0142,0.927,0.37478,-0.17429,0.66333,0.43535
-0.02105,0.9217,0.38732,-0.13465,0.67034,0.5177
-0.02934,0.91758,0.39645,-0.33313,-0.34675,-0.07986
-0.03533,0.9136,0.40507,-0.18751,0.06205,-0.14716
-0.03496,0.91127,0.41031,-0.06703,0.6276,-0.18934
-0.02776,0.91561,0.40109,0.11433,0.18113,0.13371
-0.02765,0.9186,0.39421,-0.04645,-0.25612,-0.13275
-0.03912,0.92397,0.38043,-0.25376,-0.28634,-0.83523
-0.03549,0.93139,0.36227,-0.41992,0.14867,-0.54362
-0.02042,0.93783,0.34648,-0.29314,0.28359,-0.40977
-0.00348,0.94336,0.33174,-0.09295,0.21093,-0.27677
0.01087,0.95065,0.31005,0.08244,-0.02997,-0.0785
0.0182,0.95834,0.28502,0.04256,-0.12923,0.00147
0.01852,0.9649,0.26194,-0.05566,-0.08337,-0.06149
0.01675,0.97097,0.23858,-0.15844,-0.04765,-0.18693
0.01597,0.97654,0.21473,-0.2073,-0.06031,-0.2494
0.01728,0.98156,0.19034,-0.06584,-0.14541,-0.17276
0.02223,0.98586,0.16606,-0.03138,-0.15401,-0.0941
0.02827,0.98945,0.14202,-0.06699,-0.08594,-0.06086
0.03183,0.99238,0.11896,-0.10959,-0.02406,-0.06018
0.03285,0.99462,0.09819,-0.10658,-0.05769,-0.06486
0.03335,0.99637,0.07826,-0.10072,-0.1456,-0.06574
0.03324,0.9978,0.05736,-0.09034,-0.15441,0.04468
0.03334,0.9988,0.0359,-0.12025,-0.04987,0.06779
0.03509,0.99926,0.0157,-0.12048,0.01783,0.0923
0.04048,0.99918,-0.00167,-0.19536,0.02175,0.04171
0.04694,0.99881,-0.01288,-0.16917,0.00156,0.07833
0.05555,0.99823,-0.02121,-0.14674,0.04068,0.08347
0.05497,0.99825,-0.02167,-0.12468,0.09202,0.07538
0.05161,0.99829,-0.0273,-0.1869,0.17578,0.13323
0.04961,0.9983,-0.03054,-0.353,0.25288,0.10249
0.05123,0.99818,-0.03186,-0.52574,0.27932,0.13414
0.05051,0.9983,-0.02906,-0.53362,0.42776,0.05224
0.04459,0.99879,-0.02061,-0.24663,0.43012,-0.00473
0.03168,0.99949,-0.00385,0.00589,0.28056,-0.07056
0.01452,0.99964,0.02261,0.08721,0.0885,-0.25568
-0.00449,0.9981,0.06135,0.00985,-0.06239,-0.18366
-0.02296,0.99368,0.10983,-0.09638,0.05701,-0.37981
-0.04463,0.98625,0.15909,0.01161,0.41924,-0.35146
-0.07229,0.97618,0.20455,0.27731,0.5938,-0.16877
-0.10293,0.96385,0.24574,0.46843,0.37674,-0.13603
-0.1309,0.95051,0.28176,0.37671,0.18983,-0.19848
-0.15316,0.93676,0.31465,0.06156,0.12781,-0.17918
-0.17165,0.92216,0.34663,-0.1242,0.09213,-0.21116
-0.18384,0.90708,0.37868,-0.12428,0.0032,-0.18405
-0.18778,0.89356,0.40778,-0.08664,-0.07572,-0.21308
-0.18537,0.88214,0.43297,0.08463,-0.26429,-0.156
-0.18019,0.87249,0.45418,0.16146,-0.25239,-0.17833
-0.17506,0.86591,0.46855,0.1795,-0.31003,-0.20739
-0.17065,0.8635,0.47459,0.16847,-0.44536,-0.20509
-0.16538,0.86476,0.47415,0.13728,-0.53384,-0.20461
-0.15865,0.86954,0.46767,0.0837,-0.61113,-0.1899
-0.14949,0.87709,0.45645,0.04968,-0.68933,-0.23436
-0.13715,0.88594,0.44305,-0.06605,-0.68632,-0.22355
-0.12747,0.89381,0.42994,-0.09867,-0.65705,-0.15194
-0.12266,0.89945,0.41944,-0.06893,-0.63094,-0.11184
-0.11825,0.9044,0.40995,-0.13683,-0.31175,-0.12838
-0.11326,0.91014,0.3985,-0.14689,-0.06116,-0.10932
-0.11071,0.91621,0.38509,-0.13523,0.31902,-0.10933
-0.10925,0.92191,0.37167,-0.0193,0.20631,-0.13861
-0.10873,0.92678,0.3595,0.08008,-0.06205,-0.06142
-0.11021,0.93038,0.34962,0.24818,-0.11864,-0.05409
-0.11493,0.93075,0.3471,0.46492,0.07915,-0.14438
-0.11828,0.92349,0.36493,0.55957,0.45292,-0.06871
-0.11267,0.91188,0.39467,-0.24249,0.19276,-1.41606
-0.09928,0.91553,0.38978,0.10108,0.15088,0.30338
-0.086,0.90603,0.41436,0.06154,1.43831,0.65823
-0.08794,0.90008,0.42674,-0.98696,0.5366,0.58763
-0.11672,0.89903,0.42203,-0.34512,-0.51045,0.16423
-0.12113,0.90051,0.4176,0.26267,-0.30847,-0.35589
-0.10937,0.90822,0.40393,-0.04325,0.37472,-0.06192
-0.10323,0.91645,0.3866,0.02981,0.52372,-0.03838
-0.10128,0.9244,0.36772,0.02786,0.51577,-0.0195
-0.09943,0.93229,0.34775,-0.20686,-0.17311,-0.05609
-0.09919,0.93832,0.3312,-0.2193,-0.31348,-0.04484
-0.09701,0.94278,0.31896,0.09283,-0.57862,-0.03419
-0.09022,0.94679,0.30893,0.14292,-0.47012,0.07787
-0.08693,0.94971,0.30081,0.02592,-0.33939,-0.03275
-0.08927,0.95117,0.29544,-0.07078,-0.32089,-0.12769
-0.0938,0.95068,0.29563,-0.07809,-0.3117,-0.08875
-0.09967,0.94854,0.30055,-0.13461,-0.15459,-0.10497
-0.10455,0.94459,0.31115,-0.24564,-0.00497,-0.33677
-0.10754,0.93653,0.33368,-0.20602,-0.09461,-0.52298
-0.10733,0.9209,0.37472,0.04283,0.02086,-0.29264
-0.10729,0.89558,0.43176,0.00391,0.32649,-0.06801
-0.11119,0.86572,0.488,0.06663,0.34219,0.0038
-0.12415,0.84217,0.52471,-0.2689,0.38163,0.37042
-0.14092,0.82243,0.55113,-0.14866,0.83337,0.3635
-0.15432,0.80574,0.5718,0.2026,0.79012,0.38076
-0.16378,0.80367,0.57208,0.03925,-0.3748,0.04134
-0.1725,0.81487,0.55337,-0.07283,-0.55292,-0.32911
-0.174,0.82927,0.53105,-0.11526,-0.32766,-0.07356
-0.16783,0.84307,0.51094,-0.05237,-0.24498,0.08007
-0.15977,0.85588,0.49187,-0.03819,-0.35422,0.13376
-0.1582,0.86757,0.47146,0.0101,-0.42412,0.08793
-0.15965,0.87961,0.44809,0.04931,-0.62298,-0.15609
-0.15977,0.89331,0.42007,0.1005,-0.78815,-0.18367
-0.15528,0.90876,0.38733,0.12168,-0.88949,-0.13828
-0.14787,0.92503,0.34991,0.06133,0.22667,-0.12965
-0.13994,0.93646,0.32163,-0.03233,0.50395,-0.05469
-0.14265,0.94116,0.30636,-0.17095,0.54448,0.08514
-0.15378,0.94196,0.29842,0.30844,-0.12769,-0.31798
-0.15608,0.94346,0.29241,0.3929,-0.07852,-0.19416
-0.13826,0.94444,0.29816,0.42702,0.10257,-0.15001
-0.12168,0.94918,0.29025,-0.17463,0.7902,0.30121
-0.12312,0.94859,0.29157,-0.15496,0.62209,-0.03274
-0.12764,0.9438,0.30486,-0.71051,0.96468,-0.1878
-0.14526,0.93944,0.31038,-0.678,0.15362,0.10391
-0.15717,0.93583,0.31545,0.11701,-0.63296,-0.04275
-0.1501,0.93888,0.30978,0.09529,-0.09077,0.04892
-0.14081,0.94494,0.29538,0.09993,0.16778,0.02709
-0.13319,0.95073,0.27993,0.00204,0.5424,-0.11571
-0.13447,0.9551,0.26398,-0.18412,-0.07008,0.01234
-0.13849,0.95807,0.25084,-0.1416,-0.25667,0.07249
-0.14155,0.95912,0.24505,-0.01601,-0.33967,0.05537
-0.14289,0.95931,0.24352,0.10868,-0.27526,0.09024
-0.14185,0.95898,0.24541,0.02844,-0.18362,0.05406
-0.14258,0.95758,0.25041,-0.16763,-0.26909,0.02384
-0.1441,0.95512,0.2588,-0.25179,-0.3814,-0.12903
-0.14203,0.95099,0.27465,-0.08796,-0.37334,-0.39059
-0.13421,0.94334,0.30345,0.17154,-0.27336,-0.5341
-0.12414,0.92985,0.34634,0.27358,-0.075,-0.33746
-0.12159,0.90797,0.40099,0.23564,0.29694,-0.04719
-0.12768,0.88246,0.45272,0.00264,0.25966,-0.01718
-0.14673,0.86095,0.48705,-0.25328,0.19146,0.25793
-0.17418,0.83856,0.51621,0.25635,1.25598,0.31085
-0.18914,0.82098,0.53871,-0.0089,0.66883,0.4071
-0.18677,0.82262,0.53703,-0.03604,-0.3245,9e-05
-0.18315,0.83679,0.51597,0.03876,-0.25472,-0.29211
-0.17839,0.8546,0.48767,0.04325,-0.17886,-0.06678
-0.17091,0.86987,0.46271,0.24087,-0.13283,0.24546
-0.16334,0.88184,0.44234,0.10759,-0.17357,0.16062
-0.15711,0.89287,0.42201,-0.03568,-0.1194,0.17629
-0.15272,0.90574,0.39535,-0.13701,-0.12222,0.19633
-0.15385,0.91903,0.36291,-0.26549,-0.17223,0.19795
-0.15783,0.93212,0.32593,-0.20391,-0.06889,0.14823
-0.15897,0.94519,0.2852,-0.10319,0.06534,0.06793
-0.16167,0.95376,0.25337,0.25902,-0.33199,-0.38376
-0.1663,0.95817,0.23288,0.2964,-0.54361,-0.46923
-0.16935,0.96106,0.21835,0.31197,-0.60066,-0.53332
-0.16735,0.96326,0.21002,0.1459,-0.54255,-0.00066
-0.16272,0.96076,0.2246,0.13028,-0.29043,0.19877
-0.15968,0.95322,0.25663,0.20675,0.00123,-0.05965
-0.16607,0.94995,0.26459,-0.07151,0.21408,0.24788
-0.17158,0.94786,0.26853,-0.02947,0.24102,0.08564
-0.16266,0.94179,0.29423,-0.06113,0.59148,0.02848
-0.16421,0.93989,0.2994,-0.51176,-0.18832,0.36818
-0.17399,0.93587,0.30638,-0.25106,-0.41393,0.02806
-0.17428,0.93246,0.31645,-0.1664,-0.25265,0.08476
-0.17154,0.92876,0.3286,-0.07498,0.36861,0.38539
-0.17066,0.92442,0.34104,-0.03092,0.40242,0.35111
-0.17133,0.91808,0.35743,-0.02401,-0.02383,0.00408
-0.17227,0.90914,0.37918,0.10667,-0.34603,-0.29122
-0.17065,0.89755,0.40653,0.2071,-0.48114,-0.31524
-0.16752,0.88303,0.43839,0.25222,-0.30139,-0.31167
-0.17112,0.86547,0.47081,0.20388,-0.05317,-0.57045
-0.17305,0.84404,0.50758,-0.08635,0.27665,-0.08349
-0.17818,0.82048,0.54318,0.08161,0.76005,-0.12323
-0.18866,0.80083,0.56839,0.13647,0.78874,0.24556
-0.20483,0.79423,0.57204,0.30765,0.10039,0.12468
-0.2124,0.80509,0.55382,0.0031,-0.07753,0.02777
-0.21634,0.82405,0.52357,-0.12579,-0.28715,0.01313
-0.2166,0.84137,0.49515,-0.06505,-0.36943,0.13838
-0.21465,0.85558,0.47106,-0.01088,-0.27921,0.17683
-0.20892,0.86977,0.44703,-0.08577,-0.119,0.32124
-0.19795,0.88564,0.42006,-0.12602,0.02202,0.16032
-0.18666,0.90124,0.39105,-0.18012,-0.19971,0.16988
-0.1846,0.91514,0.35838,0.02741,-0.11245,-0.04843
-0.1908,0.92627,0.32498,0.13686,-0.11548,-0.41714
-0.19929,0.93302,0.29956,0.25175,-0.32052,-0.67433
-0.20356,0.93667,0.28496,0.32138,-0.10009,-0.41543
-0.19467,0.9399,0.28052,0.37953,-0.06967,-0.06367
-0.17726,0.9408,0.28891,0.27092,0.22812,-0.09738
-0.16512,0.93692,0.30807,-0.09865,2.08583,0.31396
-0.16163,0.92546,0.34261,-0.68154,0.89891,-0.19353
-0.18153,0.91976,0.34796,-0.42551,-0.84081,0.34255
-0.18254,0.91778,0.35263,-0.14318,-1.06561,-0.30351
-0.16801,0.91962,0.35504,-0.34191,-0.05831,-0.21227
-0.15092,0.92136,0.35821,-0.30942,0.31805,0.04896
-0.14558,0.9238,0.35411,-0.24779,0.58116,0.37175
-0.15123,0.92619,0.3454,-0.24214,0.57877,0.38046
-0.15642,0.92657,0.34204,-0.20854,-0.11317,0.0984
-0.15482,0.92404,0.34954,0.07102,-0.06222,-0.04577
-0.1485,0.91836,0.36682,0.11745,-0.02093,-0.10539
-0.14317,0.90722,0.39552,0.19453,-0.06114,-0.35321
-0.13642,0.88857,0.43797,0.53345,-0.2702,-0.28968
-0.13452,0.86355,0.48599,0.41722,-0.21374,-0.32726
-0.14475,0.84093,0.52142,0.18308,-0.23538,-0.48869
-0.16443,0.82026,0.54784,-0.1508,-0.07577,-0.42639
-0.18057,0.79814,0.57476,-0.20737,0.18971,-0.47389
-0.18912,0.78283,0.59279,-0.18639,0.74935,0.21628
-0.20247,0.78287,0.58831,0.08187,0.11152,0.19123
-0.20671,0.79729,0.56709,0.17239,-0.22007,0.25501
-0.20064,0.81691,0.54074,-0.03529,-0.36329,0.17124
-0.19334,0.83669,0.51241,-0.16776,-0.29125,0.12912
-0.18919,0.85429,0.48414,-0.03492,-0.20519,0.26293
-0.18413,0.87017,0.45704,-0.10283,-0.22759,0.34975
-0.17526,0.88543,0.43045,-0.21313,-0.32159,0.22088
-0.16096,0.90167,0.40134,-0.22742,-0.33783,0.25
-0.149,0.91854,0.36616,-0.01752,0.44898,-0.23497
-0.14749,0.9319,0.33136,0.10696,0.34271,-0.30629
-0.15115,0.93934,0.30786,0.2801,-0.16755,-0.46856
-0.15088,0.94282,0.29719,0.38199,-0.1498,-0.63189
-0.13907,0.94634,0.29172,0.34294,-0.24178,-0.39299
-0.119,0.94563,0.30267,0.51378,0.00624,-0.13293
-0.10699,0.94288,0.31548,0.23856,0.34358,-0.2238
-0.11012,0.94236,0.31594,-0.10389,2.01229,0.51328
-0.11665,0.93226,0.34245,-0.9534,2.0136,0.09055
-0.13808,0.92968,0.34151,-0.95607,-1.40496,0.05208
-0.1387,0.92818,0.34531,-0.58315,-0.50529,-0.13946
-0.12926,0.92906,0.3466,-0.36456,0.18045,-0.04776
-0.12066,0.93159,0.3429,-0.00641,0.51458,0.2818
-0.11814,0.93444,0.33595,0.08141,0.26014,0.16048
-0.11941,0.93764,0.32644,0.0705,-0.06412,0.11524
-0.11944,0.9402,0.31899,0.13924,-0.17575,-0.02448
-0.11437,0.9411,0.31819,0.11299,-0.19458,-0.00787
-0.10236,0.93996,0.32554,-0.12421,0.06472,-0.207
-0.09144,0.93623,0.33927,-0.10536,-0.0335,-0.38125
-0.08295,0.92714,0.3654,0.12459,-0.18721,-0.51852
-0.07533,0.90926,0.40934,0.17655,-0.12012,-0.42282
-0.0743,0.88432,0.46093,0.05039,0.2745,-0.11663
-0.08155,0.85904,0.50537,-0.10635,0.06943,-0.05679
-0.09488,0.84148,0.53188,-0.16586,0.21846,0.224
-0.11812,0.82342,0.55498,0.13922,0.8624,0.19494
-0.12803,0.80863,0.5742,-0.11463,-0.15864,-0.10237
-0.127,0.80792,0.57544,-0.15866,-0.56611,-0.29471
-0.12337,0.81998,0.55892,-0.12723,-0.92026,-0.33967
-0.11655,0.83604,0.53613,-0.05809,-0.2977,0.05433
-0.11565,0.84836,0.51662,0.03754,-0.24868,0.04724
-0.11713,0.8564,0.50283,0.13546,-0.23233,0.03
-0.1174,0.8649,0.48801,-0.01216,-0.27251,0.05412
-0.1159,0.87789,0.46462,-0.11107,-0.25827,0.01832
-0.11684,0.89495,0.43058,-0.14763,-0.23939,0.04566
-0.11544,0.91274,0.39187,-0.26286,0.12626,0.35669
-0.10619,0.92834,0.35623,-0.34611,0.50271,0.32061
-0.09893,0.93791,0.33244,-0.42909,0.78854,0.16994
-0.10141,0.94128,0.32202,0.10081,-0.01368,-0.19248
-0.10669,0.94357,0.31351,0.20204,-0.19576,-0.0479
-0.10755,0.94714,0.30224,0.24947,-0.38842,0.2892
-0.09335,0.9413,0.32438,-0.36888,2.04936,-0.59272
-0.08315,0.9348,0.34529,-0.26263,1.24971,-0.12465
-0.09606,0.92712,0.36222,-0.04522,-0.31609,-0.24332
-0.11562,0.92023,0.37389,-0.22706,-0.88219,-0.3329
-0.12632,0.91785,0.37627,-0.37818,0.18307,0.32391
-0.1173,0.91985,0.3743,-0.14037,1.01849,-0.41249
-0.09743,0.929,0.35699,0.30396,0.1571,-0.14751
-0.08386,0.93945,0.33226,0.44671,-0.0846,-0.0834
-0.07003,0.94934,0.30632,-0.02477,0.10174,-0.01348
-0.06062,0.95984,0.27391,-0.07953,0.02021,-0.1042
-0.05239,0.96994,0.2376,-0.08326,-0.07231,-0.11132
-0.04102,0.97875,0.2009,-0.19931,-0.24491,-0.0984
-0.02675,0.98574,0.16609,-0.26573,-0.31573,0.01052
-0.01069,0.99067,0.13581,-0.25546,-0.28854,0.05811
0.00497,0.99386,0.11048,-0.23016,-0.24558,-0.09694
0.01986,0.99584,0.08888,-0.19042,-0.27887,-0.10391
0.03379,0.9971,0.06817,-0.11721,-0.19386,0.0501
0.04737,0.99762,0.05006,-0.0542,0.0647,0.11317
0.0591,0.99748,0.03906,-0.13871,0.21524,0.11379
0.06566,0.99733,0.03196,-0.28546,0.13108,0.16595
0.06889,0.99728,0.02618,-0.47727,0.12034,0.18311
0.07298,0.99707,0.02281,-0.62651,0.30469,0.05789
0.07517,0.99688,0.02403,-0.5069,0.57991,0.03661
0.07311,0.99672,0.03442,-0.16718,0.61319,-0.06691
0.06928,0.99587,0.05854,-0.05034,0.3324,-0.40216
0.06645,0.99329,0.09461,-0.05565,0.0471,-0.44909
0.06721,0.98803,0.13883,-0.10493,0.05563,-0.23529
0.0685,0.98072,0.18297,-0.16251,0.33536,-0.37017
0.05806,0.97327,0.22217,-0.16824,0.45008,-0.39627
0.03609,0.96525,0.2588,0.01085,0.29708,-0.18573
0.01476,0.95605,0.2928,0.03906,0.06537,-0.26713
0.0002,0.94678,0.32188,-0.18737,0.00438,-0.31872
-0.00948,0.93867,0.34466,-0.35725,-0.01881,-0.22473
-0.01623,0.93207,0.36191,-0.33033,0.04524,-0.17453
-0.01951,0.92733,0.37371,-0.23493,0.06926,-0.21612
-0.02095,0.92453,0.3805,-0.15176,-0.01214,-0.26058
-0.02237,0.92301,0.3841,-0.01587,-0.27218,-0.31313
-0.02255,0.92217,0.3861,0.0159,-0.30808,-0.33735
-0.02016,0.92167,0.38744,0.04018,-0.30309,-0.3492
-0.01552,0.92169,0.38761,-0.01512,-0.04675,-0.2985
-0.01104,0.9223,0.38631,0.01155,-0.0106,-0.28909
-0.00793,0.9242,0.38181,0.05209,0.01321,-0.27083
-0.00488,0.92696,0.37511,0.09901,-0.17524,-0.14775
-2e-05,0.93104,0.36489,0.02948,-0.26654,-0.03051
0.00695,0.93653,0.35051,-0.04823,-0.31433,0.04553
0.01584,0.94073,0.33876,-0.41947,-0.12978,0.24793
0.02413,0.94174,0.33545,-0.44091,-0.00231,0.28537
0.0261,0.93925,0.34221,-0.43939,0.1178,0.21087
0.01914,0.93301,0.35934,-0.24252,0.27662,0.35589
0.00888,0.92891,0.37018,-0.48085,-0.05319,0.44616
-0.00605,0.92721,0.37449,-0.53742,-0.52535,0.10569
-0.0216,0.92662,0.37535,-0.22234,-0.1072,-0.05452
-0.03124,0.92245,0.38484,-0.04125,0.88148,-0.26314
-0.03049,0.92542,0.37769,0.32297,1.61288,-0.312
-0.03048,0.92809,0.3711,0.36739,-0.0287,-0.03336
-0.04483,0.92751,0.37108,0.14079,-0.55637,-0.53103
-0.05381,0.92891,0.36634,-0.08173,-0.39728,-0.67061
-0.05119,0.93238,0.35783,-0.256,-0.0757,-0.36615
-0.0452,0.93561,0.35012,-0.25567,0.09364,-0.36579
-0.03439,0.93892,0.3424,-0.11553,0.59763,-0.08655
-0.027,0.94366,0.32979,-0.18701,0.07871,0.01608
-0.02713,0.94939,0.31291,-0.18474,-0.10294,-0.01523
-0.02338,0.95573,0.29329,-0.16587,-0.13282,-0.01718
-0.01239,0.9622,0.27203,-0.25319,-0.123,-0.06006
0.00129,0.96826,0.24992,-0.28921,-0.07606,-0.1121
0.01432,0.9741,0.22562,-0.20645,-0.16592,-0.08622
0.02732,0.97937,0.2002,-0.1466,-0.181,-0.04188
0.03855,0.98394,0.17426,-0.12911,-0.10442,-0.06705
0.04549,0.98782,0.14873,-0.14499,-0.14192,-0.03488
0.04986,0.99128,0.12192,-0.12328,-0.22114,-0.00977
0.05375,0.99412,0.09394,-0.18907,-0.23754,0.02879
0.05837,0.99609,0.06624,-0.22614,-0.11766,0.0888
0.06381,0.99715,0.04015,-0.27777,-0.06642,0.07888
0.0709,0.99735,0.016,-0.25597,-0.10393,0.03036
0.07783,0.99694,-0.00598,-0.18243,-0.14379,-0.00501
0.08634,0.99591,-0.02654,-0.07589,0.08353,0.03088
0.09573,0.99452,-0.0419,-0.1259,0.13903,0.05639
0.10212,0.99345,-0.05114,-0.1571,0.13541,0.06469
0.10527,0.99268,-0.05907,-0.47862,0.39933,0.07416
0.10721,0.99215,-0.06434,-0.6206,0.4597,0.07473
0.10657,0.99202,-0.06735,-0.68291,0.44564,0.04302
0.09937,0.9926,-0.06976,-0.41728,0.59154,0.05494
0.08583,0.99421,-0.06454,-0.38028,0.51598,-0.06173
0.06719,0.99646,-0.05037,-0.30982,0.41849,-0.17387
0.04597,0.99865,-0.02381,0.11782,0.06714,-0.16857
0.0266,0.99949,0.01733,0.19788,0.02985,-0.15975
0.01025,0.99792,0.0635,0.28578,0.05924,-0.21072
-0.00642,0.99401,0.10901,0.25761,0.3173,-0.12475
-0.02792,0.98815,0.15092,0.25738,0.35236,-0.08422
-0.05483,0.98028,0.18983,0.24399,0.35836,-0.09893
-0.0793,0.97091,0.22589,-0.00142,0.09468,-0.1347
-0.0996,0.9604,0.26021,-0.07496,0.05961,-0.16012
-0.11695,0.94897,0.29287,-0.11658,-0.03249,-0.10294
-0.12892,0.93766,0.32273,-0.0217,-0.07188,-0.12358
-0.13512,0.92665,0.35077,0.03391,-0.16869,-0.14174
-0.13711,0.91622,0.37645,0.1242,-0.2722,-0.13872
-0.13714,0.90731,0.39744,0.18591,-0.33937,-0.18493
-0.13679,0.90103,0.41161,0.19981,-0.37786,-0.1994
-0.13626,0.89814,0.41804,0.18786,-0.49876,-0.15479
-0.13511,0.89805,0.41861,0.10409,-0.52279,-0.12757
-0.13461,0.90026,0.41401,0.05924,-0.55332,-0.12311
-0.13332,0.90494,0.40408,-0.00149,-0.63663,-0.1629
-0.13158,0.91111,0.39058,-0.02982,-0.62475,-0.10348
-0.13138,0.91683,0.37701,0.02622,-0.54932,-0.05037
-0.12922,0.92132,0.36667,0.01872,-0.46243,0.02135
-0.12388,0.92555,0.35777,-0.04017,-0.36566,0.01958
-0.11926,0.93035,0.34671,-0.19073,0.05192,-0.14954
-0.11744,0.93559,0.33295,-0.09915,0.00024,-0.12331
-0.11745,0.94086,0.31774,0.07814,-0.05636,-0.03601
-0.1203,0.9453,0.30317,0.2371,-0.03941,0.1005
-0.12582,0.94812,0.29193,0.32476,-0.01619,0.17188
-0.13386,0.94941,0.28405,0.28509,-0.05424,0.1157
-0.14304,0.94945,0.2794,0.24302,0.07827,-0.08401
-0.14895,0.94534,0.29004,0.09318,0.66345,-0.12593
-0.14484,0.94028,0.30801,-0.10825,0.58523,-0.56911
-0.12423,0.94144,0.31344,-0.0797,0.06317,-0.587
-0.10759,0.93986,0.32415,-0.40656,1.66019,0.60261
-0.10186,0.93297,0.34522,-0.79889,0.83438,-0.08681
-0.1229,0.93218,0.34046,-0.55238,-0.08706,0.55089
-0.13765,0.93131,0.3372,0.39941,-0.14899,-0.0733
-0.13498,0.93646,0.32372,-0.1849,0.18741,-0.01301
-0.13231,0.943,0.30533,-0.18757,0.18087,0.00538
-0.12732,0.94907,0.28817,-0.26419,0.17389,-0.16898
-0.12243,0.95414,0.27315,-0.17072,-0.21316,-0.14075
-0.12106,0.95781,0.26064,-0.0509,-0.31617,-0.02991
-0.12158,0.96013,0.25169,0.07575,-0.41349,0.0797
-0.12027,0.96218,0.2444,0.28044,-0.30825,0.03631
-0.11958,0.96406,0.2372,0.12493,-0.26221,0.03398
-0.12217,0.9658,0.22869,-0.19219,-0.27744,0.11143
-0.12369,0.96696,0.22288,-0.5009,-0.25028,0.10923
-0.12299,0.96796,0.21886,-0.47102,-0.19534,0.05029
-0.1211,0.96817,0.219,-0.1934,-0.10517,-0.04498
-0.12029,0.96657,0.22638,0.00263,0.05503,-0.01009
-0.12175,0.96157,0.24607,0.23302,-0.02382,-0.14586
-0.12192,0.9521,0.28038,0.35706,-0.26611,-0.40018
-0.12246,0.93619,0.32943,0.39219,-0.15279,-0.22557
-0.13188,0.9147,0.382,0.09939,0.28101,0.06663
-0.15152,0.89485,0.41984,-0.13688,0.32449,-0.00107
-0.17838,0.87638,0.44734,-0.26584,0.61829,0.18845
-0.19947,0.85524,0.47829,-0.17895,1.3903,0.43631
-0.21547,0.84311,0.49267,0.17592,0.0763,0.13199
-0.23112,0.84374,0.48442,0.19037,-0.36188,-0.06562
-0.24268,0.85319,0.46168,0.06991,-0.81544,-0.31854
-0.24103,0.86402,0.44198,-0.05734,-0.23928,0.12134
-0.22983,0.87351,0.42911,-0.02849,-0.1512,0.20689
-0.21728,0.88395,0.414,0.08792,-0.28445,0.17511
-0.20356,0.89653,0.39341,0.03474,-0.44441,0.01032
-0.18709,0.91173,0.36568,0.04531,-0.55225,-0.04024
-0.1726,0.9266,0.33408,0.17173,-0.60653,0.09071
-0.15705,0.93919,0.30535,0.15096,-0.38885,0.1911
-0.14266,0.95029,0.27674,0.03664,0.18927,0.01554
-0.13868,0.95751,0.25282,-0.06657,0.27443,-0.0192
-0.14795,0.96015,0.23708,0.32859,-0.06124,-0.24677
-0.1638,0.95882,0.23198,0.30406,0.14654,-0.35583
-0.17411,0.95623,0.23512,0.46155,0.25258,-0.27785
-0.15988,0.95592,0.24625,0.02087,0.33797,0.42143
-0.14634,0.95531,0.25681,0.09037,0.36178,-0.03284
-0.14622,0.95297,0.26543,-0.00698,0.76812,0.47177
-0.14827,0.94905,0.27801,-0.91429,0.29878,0.12621
-0.15428,0.94804,0.27821,-0.79318,-0.2626,-0.13352
-0.15676,0.94768,0.27806,-0.57713,-0.12332,-0.14621
-0.15611,0.94792,0.2776,-0.22473,0.07787,-0.10741
-0.15551,0.94927,0.27328,-0.03778,0.21383,0.1201
-0.15568,0.95197,0.26364,-0.03918,0.0873,0.21845
-0.15685,0.95543,0.25004,-0.04058,-0.01613,0.21049
-0.15912,0.9586,0.2361,0.02171,-0.13214,0.20834
-0.15926,0.96096,0.2262,0.08446,-0.21696,0.26044
-0.15623,0.96297,0.21967,0.04165,-0.21325,0.11578
-0.15236,0.96443,0.21598,-0.14989,-0.19586,0.14388
-0.14822,0.96477,0.21732,-0.29931,-0.15375,-0.04105
-0.14431,0.96303,0.22742,-0.17287,-0.16561,-0.27361
-0.14138,0.95812,0.24898,0.33849,-0.27264,-0.39907
-0.13471,0.94893,0.28523,0.43458,-0.19367,-0.24585
-0.12873,0.93271,0.33682,0.47125,-0.0979,-0.06458
-0.12954,0.91125,0.39092,0.17534,-0.04382,0.07159
-0.14103,0.89112,0.43126,0.02693,-0.07195,-0.01782
-0.15901,0.87549,0.45631,-0.30714,0.40892,-0.02969
-0.16931,0.85925,0.4827,-0.19033,0.91913,0.26977
-0.17889,0.84663,0.5012,0.0388,0.6751,0.28878
-0.18764,0.84575,0.49948,0.28601,-0.4459,-0.12048
-0.19351,0.85546,0.48034,0.18384,-0.55844,-0.19713
-0.19559,0.86998,0.45261,0.0178,-0.26251,0.08002
-0.19717,0.88428,0.42327,0.00306,-0.14702,0.27153
-0.19782,0.89679,0.39575,-0.18873,-0.11547,0.22513
-0.1939,0.9072,0.37332,-0.22499,-0.10456,0.09142
-0.18787,0.91663,0.35282,-0.10374,-0.28732,-0.03174
-0.1839,0.92887,0.3215,0.13337,-0.41967,0.08409
-0.1786,0.94352,0.279,0.20908,0.07726,0.13654
-0.17257,0.95468,0.24246,-0.04888,0.22977,-0.06044
-0.17394,0.95941,0.22195,-0.0048,-0.15562,-0.37815
-0.17931,0.96044,0.21302,0.26354,-0.26658,-0.4288
-0.17606,0.96238,0.20689,0.45946,-0.25271,0.06594
-0.16285,0.96121,0.22255,0.26251,0.27679,-0.04227
-0.15898,0.95598,0.24659,-0.09128,0.84517,-0.28215
-0.16515,0.95069,0.26248,-0.25565,0.18153,0.6045
-0.1766,0.94465,0.27644,-0.19654,-0.12537,0.2379
-0.17833,0.93964,0.29199,-0.17925,-0.11242,-0.24031
-0.17045,0.93925,0.29787,-0.20118,0.16923,0.05016
-0.16579,0.93898,0.30135,-0.05914,0.12035,0.03153
-0.16408,0.93875,0.303,-0.06929,0.2499,0.28287
-0.16584,0.93886,0.30169,-0.11845,0.20271,0.33539
-0.1691,0.93971,0.29721,-0.04374,-0.0272,0.29934
-0.17525,0.94072,0.29036,0.02693,-0.18764,0.29326
-0.18136,0.94141,0.28431,-0.08164,-0.107,0.22326
-0.18428,0.94246,0.27892,-0.26805,-0.06158,0.04036
-0.18313,0.94309,0.27752,-0.35022,-0.06797,-0.24894
-0.17803,0.94102,0.28768,-0.07779,-0.09871,-0.422
-0.1713,0.93325,0.31572,0.23264,0.081,-0.27504
-0.16902,0.91752,0.35996,0.22823,0.23424,-0.12233
-0.17376,0.89494,0.41094,0.17622,0.05468,-0.04455
-0.18134,0.87327,0.45221,0.17312,-0.1975,-0.08439
-0.18474,0.85809,0.47909,0.12671,0.02679,-0.08006
-0.18476,0.84316,0.5049,0.36983,0.48454,0.40201
-0.19886,0.82967,0.52162,0.3896,0.10481,0.22312
-0.20814,0.8294,0.51841,0.23334,-0.3704,-0.05036
-0.20683,0.84157,0.49896,-0.03331,-0.36093,-0.15361
-0.20334,0.85643,0.47451,-0.07734,-0.32871,0.05085
-0.19946,0.86964,0.45157,-0.0792,-0.32812,0.11385
-0.19532,0.8811,0.43069,-0.0689,-0.35795,0.22182
-0.19398,0.89142,0.40954,-0.051,-0.37846,0.1836
-0.19757,0.90143,0.38518,-0.04097,-0.36767,0.17808
-0.20195,0.91272,0.35517,-0.06277,-0.36569,0.17361
-0.20153,0.92609,0.31895,-0.03931,0.37534,0.19847
-0.19911,0.93851,0.28202,-0.02834,0.45877,0.23568
-0.20249,0.9451,0.25643,0.02708,-0.12204,-0.01673
-0.20947,0.9479,0.23997,0.37942,-0.09985,-0.52018
-0.21156,0.95044,0.22779,0.43453,0.0287,-0.35222
-0.19875,0.95334,0.22723,0.40752,0.07627,-0.10408
-0.17951,0.95468,0.23736,0.15587,0.26137,-0.49671
-0.16822,0.95647,0.23846,0.07427,0.46173,0.49856
-0.17145,0.95247,0.25177,-0.02852,1.59604,0.96582
-0.18215,0.94118,0.28457,-0.09544,-1.29,0.24951
-0.20497,0.93599,0.28616,0.13886,-1.31044,0.12546
-0.20561,0.93486,0.28938,-0.06915,-0.60689,0.03768
-0.19276,0.9379,0.28837,-0.28348,0.77438,0.20052
-0.17889,0.94067,0.2883,-0.24597,0.94777,0.09826
-0.1726,0.94259,0.28585,-0.18874,0.18015,0.24658
-0.17334,0.94494,0.27752,-0.14003,-0.25045,0.39542
-0.17562,0.94693,0.26918,-0.07581,-0.40538,0.32214
-0.17416,0.94947,0.26109,-0.04725,-0.2793,0.20426
-0.17111,0.95254,0.25175,-0.01441,-0.11452,0.21263
-0.16908,0.95448,0.2457,-0.06519,-0.02186,0.15415
-0.16738,0.95468,0.24606,-0.07526,-0.0132,-0.19088
-0.16419,0.95299,0.25463,0.11533,-0.18823,-0.39471
-0.15874,0.94801,0.27579,0.22191,-0.25083,-0.29086
-0.1521,0.93752,0.31288,0.19112,-0.10319,-0.22273
-0.151,0.91983,0.36206,0.05538,0.16821,-0.10129
-0.15778,0.89877,0.40902,-0.0126,0.20241,-0.15199
-0.17352,0.87972,0.44268,0.03349,0.16017,-0.02598
-0.1918,0.86434,0.46487,0.08876,0.31771,-0.03216
-0.20932,0.84946,0.48433,0.1781,0.54513,0.39978
-0.23485,0.83853,0.49162,0.09287,0.12229,0.17093
-0.25582,0.83867,0.4808,0.00696,-0.48766,-0.0892
-0.26203,0.85052,0.456,-0.1773,-0.54577,-0.03711
-0.25122,0.86765,0.42901,-0.21947,-0.22037,0.16186
-0.23401,0.88402,0.40462,-0.10504,-0.21836,0.25251
-0.21749,0.89837,0.38158,-0.02066,-0.38206,0.13143
-0.20717,0.91033,0.35828,0.00212,-0.66063,0.00663
-0.19998,0.92092,0.33451,0.1152,-0.75084,-0.02685
-0.19061,0.93173,0.30907,0.1031,-0.26838,-0.05822
-0.18179,0.94346,0.27716,-0.03089,0.23046,-0.06555
-0.17775,0.9529,0.2457,-0.04747,0.31068,-0.02571
-0.17855,0.95832,0.22299,-0.00346,0.24546,0.03536
-0.18235,0.96119,0.20697,0.50653,0.21372,-0.11648
-0.18297,0.96289,0.19834,0.58924,0.55545,0.10475
-0.16965,0.96458,0.20196,0.40802,0.4757,0.13027
-0.15558,0.96572,0.20774,-0.02067,0.02654,-0.97782
-0.14562,0.97015,0.19386,-0.21178,0.43416,0.53877
-0.14822,0.96898,0.19768,-0.51636,1.61329,0.22455
-0.14976,0.96395,0.21987,-0.7535,0.17866,0.15196
-0.17021,0.95989,0.22276,0.26014,-0.75106,0.14213
-0.17424,0.95939,0.22181,0.25563,-0.67586,-0.03829
-0.1624,0.96385,0.2112,-0.20951,0.20574,0.10515
-0.15023,0.96852,0.19845,-0.21387,0.35184,-0.03306
-0.14173,0.9718,0.1884,-0.16715,0.01692,-0.00741
-0.13836,0.97403,0.17916,-0.08902,-0.22916,-0.01966
-0.1368,0.97567,0.17129,0.26706,-0.42856,0.27222
-0.13338,0.97715,0.16542,0.26677,-0.38537,0.26125
-0.12666,0.97888,0.16042,0.18918,-0.2947,0.22211
-0.12194,0.98052,0.15393,-0.13535,-0.28997,0.22481
-0.12035,0.98156,0.14845,-0.16674,-0.26311,0.16496
-0.11843,0.98205,0.14672,-0.24136,-0.25903,0.05613
-0.11317,0.98283,0.14564,-0.48094,-0.31628,0.01441
-0.10226,0.98405,0.14549,-0.46908,-0.28065,0.03715
-0.08886,0.9851,0.14716,-0.41764,-0.24566,0.07229
-0.07562,0.98547,0.15199,-0.13953,0.00513,-0.24985
-0.0631,0.98453,0.16337,0.00452,0.14469,-0.3352
-0.05613,0.98068,0.18735,0.16379,0.33634,-0.35734
-0.05652,0.97153,0.23001,0.49032,0.71754,0.16917
-0.06865,0.95783,0.27899,0.459,0.69549,0.31711
-0.09354,0.9445,0.31489,0.23577,0.62418,0.33532
-0.12894,0.93489,0.33066,0.10833,0.54076,0.39902
-0.15601,0.92609,0.34349,-0.34777,0.12271,0.10189
-0.16639,0.91838,0.35898,-0.31942,-0.14658,0.00981
-0.17035,0.91415,0.36782,-0.05133,-0.35479,0.03491
-0.16782,0.91499,0.36688,0.04732,-0.44417,0.05763
-0.16062,0.91805,0.36243,0.14401,-0.45899,-0.00679
-0.15131,0.92194,0.35651,0.12534,-0.36996,-0.09739
-0.14252,0.92676,0.34754,0.11823,-0.39453,-0.12623
-0.1338,0.93304,0.33392,0.12381,-0.61485,-0.1994
-0.12448,0.94101,0.31462,0.12323,-0.65857,-0.06165
-0.11569,0.94901,0.29319,0.16964,-0.62679,-0.03987
-0.10493,0.95726,0.26947,0.1889,-0.47963,0.15733
-0.09251,0.96453,0.24719,0.16296,-0.15752,0.34555
-0.0799,0.96887,0.23429,-0.16597,0.26327,0.33874
-0.07345,0.96881,0.23661,0.02943,0.51329,0.08468
-0.07533,0.96649,0.24537,0.28591,0.34105,0.38605
-0.08022,0.96379,0.25428,0.06672,-0.16519,0.61892
-0.0873,0.96075,0.26329,-0.06773,-0.23667,0.73387
-0.09452,0.95132,0.29331,0.23871,1.82947,-0.64994
-0.08565,0.9278,0.36308,-0.3499,2.75161,-0.42915
-0.06877,0.91173,0.40495,-0.67197,-0.74843,0.03896
-0.08413,0.8985,0.43079,-0.41924,-1.45045,-0.98731
-0.09084,0.89077,0.44526,0.03444,0.57643,0.10852
-0.07611,0.88616,0.45706,0.10769,1.5193,-0.25182
-0.05603,0.8972,0.43801,0.24041,0.42697,0.21259
-0.05678,0.91132,0.40774,0.25572,0.30166,-0.05675
-0.04943,0.92692,0.37196,-0.43703,0.59568,-0.01135
-0.04134,0.94269,0.33107,-0.4594,0.2794,-0.08784
-0.03514,0.958,0.28458,-0.27735,-0.18118,-0.10776
-0.02919,0.97107,0.23695,-0.13702,-0.40727,-0.15771
-0.02057,0.98159,0.18981,-0.02003,-0.33732,-0.1367
-0.01121,0.98929,0.1455,0.04122,-0.2834,-0.01717
-0.0026,0.99429,0.10662,0.07982,-0.3094,0.06819
0.00754,0.99714,0.0751,0.12252,-0.41182,0.21343
0.02094,0.99842,0.05201,0.10911,-0.4131,0.23652
0.03609,0.99875,0.03424,-0.08069,-0.31989,0.11128
0.05001,0.99858,0.01762,-0.2404,-0.09748,0.03921
0.05965,0.9982,0.00301,-0.2434,0.03832,0.09463
0.06408,0.99792,-0.00561,-0.25597,0.12735,0.18917
0.066,0.99779,-0.00698,-0.70272,0.2284,0.24976
0.06686,0.99774,-0.00413,-0.71146,0.25126,0.20245
0.06709,0.99773,0.00237,-0.56311,0.49438,-0.01562
0.06203,0.99795,0.01548,-0.24349,0.61682,-0.12739
0.05055,0.99787,0.0411,-0.05085,0.25853,-0.29719
0.0394,0.99605,0.07945,0.01177,-0.0222,-0.24496
0.03382,0.99099,0.12953,0.16079,0.08781,-0.33994
0.03028,0.98453,0.17253,-0.00901,0.63193,-0.36468
0.007,0.97748,0.21087,-0.01051,0.73023,-0.07741
-0.02676,0.96817,0.2488,0.23907,0.31398,-0.11632
-0.05629,0.95787,0.2816,0.1293,0.03754,-0.29014
-0.08038,0.948,0.30793,-0.12596,-0.03396,-0.20853
-0.09864,0.93883,0.32992,-0.28577,-0.03331,-0.10392
-0.11105,0.93114,0.34732,-0.30056,-0.03758,-0.09378
-0.11645,0.92528,0.36094,-0.19932,-0.08322,-0.18215
-0.11274,0.92065,0.37371,-0.14446,-0.09048,-0.23534
-0.10092,0.91672,0.38654,-0.00394,-0.17377,-0.32788
-0.08554,0.91304,0.39876,0.18521,-0.17739,-0.37028
-0.07246,0.91072,0.40659,0.21688,-0.15431,-0.34388
-0.06416,0.91091,0.40756,0.22633,-0.14895,-0.33413
-0.06133,0.91293,0.40345,0.23687,-0.14671,-0.28036
-0.06232,0.9151,0.39834,0.32335,-0.13604,-0.23373
-0.0623,0.9172,0.3935,0.25816,-0.21316,-0.04424
-0.05998,0.92057,0.3859,0.08067,-0.23252,0.1001
-0.05899,0.92398,0.37782,-0.16472,-0.22568,0.15672
-0.05776,0.92628,0.37236,-0.33694,-0.09221,0.1243
-0.05421,0.9258,0.37406,-0.38011,0.32436,-0.02629
-0.05648,0.91999,0.38782,-0.41848,0.55248,0.25013
-0.06557,0.91312,0.40235,-0.54843,0.30867,0.4916
-0.0769,0.90736,0.41323,-0.60926,-0.39756,0.45443
-0.08593,0.90384,0.41912,-0.39506,-0.30149,0.15661
-0.08739,0.90449,0.41741,-0.34906,0.62395,-0.26086
-0.07927,0.90981,0.40735,0.07144,1.45248,-0.4126
-0.0731,0.9161,0.39419,0.22745,1.14473,-0.42571
-0.08115,0.918,0.38815,0.24819,-0.63051,-0.58238
-0.0855,0.92017,0.38204,0.2859,-0.54956,-0.66357
-0.0732,0.92434,0.37445,-0.1445,-0.02313,-0.4407
-0.05915,0.92939,0.3643,-0.16096,0.24255,-0.42938
-0.04865,0.93516,0.35084,-0.17272,0.55102,-0.39991
-0.04468,0.94134,0.33445,-0.12039,0.13942,-0.13491
-0.04895,0.94769,0.31537,-0.04716,-0.10939,-0.12631
-0.04773,0.95432,0.2949,-0.00566,-0.1712,-0.1437
-0.03925,0.96108,0.27343,-0.00861,-0.06588,-0.16767
-0.03001,0.96731,0.25178,0.00343,-0.0478,-0.14302
-0.02153,0.97305,0.22956,0.00753,-0.08852,-0.1091
-0.01337,0.97814,0.20747,-0.02331,-0.11671,-0.10808
-0.00658,0.98269,0.18507,-0.04429,-0.10701,-0.13679
-0.00097,0.98674,0.16227,-0.07575,-0.03109,-0.09471
0.00408,0.99024,0.13923,-0.10342,-0.04696,-0.04462
0.00921,0.99313,0.11656,-0.10583,-0.05812,-0.02863
0.01323,0.99549,0.09385,-0.08715,-0.11111,0.01675
0.01824,0.99726,0.0715,-0.12618,-0.12576,0.03433
0.02394,0.99836,0.0518,-0.16232,-0.10233,0.0546
0.03044,0.99889,0.03581,-0.18042,-0.07333,0.06144
0.03764,0.99902,0.02301,-0.10432,-0.03932,0.07945
0.04387,0.99896,0.01195,-0.10899,0.01375,0.10455
0.0467,0.99889,0.00464,-0.14268,0.13658,0.09544
0.04706,0.99888,0.00124,-0.40648,0.13051,-0.00195
0.05128,0.99867,-0.00248,-0.573,0.1454,0.08695
0.05554,0.99843,-0.0066,-0.65639,0.41135,-0.03773
0.05596,0.99838,-0.00974,-0.42061,0.57926,0.08606
0.04766,0.99883,-0.00711,-0.16786,0.53091,-0.10602
0.0323,0.99946,0.00418,-0.10262,0.31971,-0.33514
0.01337,0.99961,0.02434,-0.03911,0.04803,-0.35581
-0.00701,0.9984,0.05602,0.09806,0.08965,-0.21666
-0.02786,0.99478,0.09804,0.22651,0.30243,-0.31846
-0.05108,0.98816,0.14464,0.29621,0.43338,-0.32432
-0.07725,0.97885,0.18939,0.39548,0.44292,-0.20158
-0.10417,0.96771,0.22951,0.33395,0.29606,-0.23967
-0.1277,0.95562,0.26544,0.09576,0.15863,-0.28799
-0.14711,0.94242,0.30031,-0.07564,0.04608,-0.22968
-0.16374,0.9275,0.33603,-0.10971,-0.03449,-0.21329
-0.17483,0.91206,0.37089,-0.02147,-0.06561,-0.25352
-0.17967,0.89688,0.40411,0.03893,-0.08917,-0.27223
-0.18049,0.88307,0.43311,0.06442,-0.2238,-0.24542
-0.17743,0.87237,0.45549,0.11565,-0.34965,-0.34053
-0.16999,0.8657,0.4708,0.17785,-0.32272,-0.37235
-0.16032,0.86301,0.47904,0.18816,-0.36684,-0.33556
-0.15065,0.86386,0.48065,0.19252,-0.41942,-0.3074
-0.14463,0.86754,0.47586,0.15296,-0.53143,-0.34378
-0.14277,0.87337,0.46564,0.12952,-0.58476,-0.34275
-0.14274,0.88035,0.45231,0.19105,-0.61325,-0.32167
-0.14381,0.88674,0.43931,0.22326,-0.59728,-0.27172
-0.14679,0.89034,0.43095,0.23537,-0.36527,-0.08072
-0.14898,0.89183,0.42712,-0.00405,-0.03329,-0.14391
-0.14889,0.89531,0.4198,-0.05928,0.07912,-0.2301
-0.1463,0.90381,0.40212,-0.17492,0.1927,-0.25108
-0.145,0.91522,0.37593,-0.1725,-0.05782,-0.02135
-0.14563,0.92532,0.35009,-0.12233,-0.14695,-0.02057
-0.14518,0.93373,0.3272,-0.02121,-0.06244,0.07815
-0.14282,0.93986,0.31024,0.1789,0.30027,-0.01144
-0.14087,0.94105,0.30751,0.30113,0.85894,-0.11854
-0.13856,0.93894,0.31493,0.09237,0.67625,-0.34593
-0.1373,0.93747,0.31982,0.02383,-0.04597,-0.47659
-0.13,0.93567,0.32803,0.07684,-0.10764,-0.44975
-0.12072,0.92902,0.34977,-0.38102,1.22899,0.38538
-0.1223,0.91932,0.374,-0.4341,0.33997,-0.02483
-0.13966,0.91431,0.38015,0.17987,-0.56043,-0.06414
-0.14659,0.91386,0.37863,-0.01735,-0.16689,-0.19167
-0.14139,0.91761,0.37147,-0.25822,0.2895,-0.12066
-0.13653,0.92139,0.36385,-0.20769,0.2724,-0.11512
-0.13458,0.92463,0.35627,-0.07279,0.01641,-0.06217
-0.13361,0.92798,0.34782,-0.06988,-0.11652,0.04408
-0.13395,0.93079,0.34011,-0.01605,-0.15842,0.15711
-0.13492,0.93253,0.33493,0.04677,-0.22069,0.02525
-0.13514,0.93458,0.32907,-0.00998,-0.22353,-0.0021
-0.13812,0.93699,0.32087,-0.18982,-0.29325,-0.04669
-0.14475,0.93821,0.31433,-0.20192,-0.189,-0.05133
-0.14929,0.93745,0.31447,-0.15769,0.09336,-0.12569
-0.14963,0.93455,0.32282,-0.01971,0.1132,-0.18723
-0.14691,0.92918,0.33915,0.08589,-0.11285,-0.28994
-0.1427,0.91973,0.36568,0.10721,-0.20601,-0.40603
-0.13918,0.90409,0.40402,0.06522,0.16151,-0.18799
-0.14072,0.88007,0.45349,-0.21678,0.63706,-0.13585
-0.15483,0.85383,0.49698,0.10577,0.36205,0.06962
-0.16726,0.83193,0.52906,0.20437,0.49541,0.1673
-0.18177,0.81346,0.55247,0.51341,1.09921,0.32046
-0.19898,0.79811,0.56868,0.16962,0.223,0.02571
-0.21126,0.79662,0.56635,0.18643,-0.40689,-0.28377
-0.21933,0.80829,0.5464,0.09764,-0.32503,-0.27978
-0.22283,0.82522,0.51898,0.0592,-0.45696,-0.13312
-0.21727,0.84102,0.49544,-0.01586,-0.55993,0.07138
-0.20847,0.85423,0.47625,-0.07995,-0.55497,0.15428
-0.20369,0.8647,0.45911,-0.14484,-0.45039,0.07098
-0.20152,0.8734,0.44334,-0.21829,-0.38197,0.07895
-0.20107,0.88395,0.42212,-0.145,-0.44634,0.00697
-0.19763,0.89805,0.39298,-0.0605,0.00385,0.20379
-0.19148,0.91365,0.35854,0.01433,0.28782,0.15101
-0.18672,0.9264,0.32697,0.12335,0.43638,0.00761
-0.18494,0.93422,0.30499,0.35155,0.17084,-0.35055
-0.18556,0.9372,0.2953,0.40611,0.42684,-0.26543
-0.18529,0.9382,0.2923,0.29724,0.48941,-0.34373
-0.17865,0.93775,0.2978,0.07588,-0.02607,-0.94169
-0.16683,0.94097,0.2945,0.01709,0.17112,-0.09221
-0.16508,0.93756,0.30613,0.07419,0.64925,0.31172
-0.16381,0.92835,0.33364,-0.58129,0.6918,-0.19106
-0.18682,0.92207,0.33893,0.14528,-0.75109,0.15937
-0.1972,0.91871,0.34216,0.3127,-0.74974,-0.17838
-0.1878,0.92217,0.33811,-0.1672,0.34173,0.02959
-0.17827,0.92693,0.33015,-0.12428,0.38464,0.01012
-0.17166,0.93071,0.32294,-0.10382,0.09715,-0.02141
-0.16681,0.93377,0.3166,-0.15711,-0.13973,-0.01591
-0.16397,0.93628,0.31062,-0.05274,-0.2559,0.06725
-0.16157,0.93802,0.30659,0.09722,-0.29977,0.13031
-0.15813,0.93923,0.30467,0.08932,-0.17876,0.14531
-0.15534,0.9407,0.30155,-0.01585,-0.17577,0.0424
-0.15521,0.94191,0.29783,-0.19123,-0.34381,-0.09979
-0.1546,0.94229,0.29695,-0.26711,-0.17648,-0.08215
-0.15144,0.94123,0.30189,-0.26972,-0.0344,-0.09154
-0.14648,0.93824,0.31341,0.03875,-0.00401,-0.37838
-0.13699,0.93365,0.33092,0.16881,-0.02354,-0.33759
-0.1251,0.92346,0.3627,0.22654,0.11113,-0.29994
-0.11608,0.90387,0.41173,0.25016,0.67466,-0.1311
-0.11346,0.88044,0.46037,0.16146,0.60424,-0.09599
-0.12494,0.86031,0.4942,0.04254,0.30636,0.23087
-0.1527,0.84286,0.51599,0.16071,0.51929,0.18361
-0.1804,0.827,0.53245,0.1051,0.52622,0.05135
-0.1974,0.81925,0.53837,-0.0591,0.02818,0.03883
-0.21437,0.82257,0.52669,0.03467,-0.3886,-0.21161
-0.22419,0.83576,0.50123,0.08021,-0.48969,-0.27994
-0.22055,0.85326,0.47253,-0.02832,-0.52758,-0.08048
-0.20813,0.87147,0.44407,-0.05729,-0.51154,0.07829
-0.19677,0.88803,0.41553,-0.10543,-0.54955,0.09308
-0.19034,0.90098,0.38985,-0.18489,-0.49804,0.123
-0.1867,0.9087,0.37334,-0.08103,-0.61329,0.0133
-0.18246,0.91478,0.36037,0.00549,-0.62839,-0.20086
-0.17947,0.92521,0.3343,0.13056,0.50999,0.02437
-0.18076,0.93468,0.30609,0.0279,0.57346,-0.12838
-0.1888,0.93931,0.28641,0.24503,0.08701,-0.10201
-0.19366,0.94297,0.27072,0.46655,0.04942,-0.35257
-0.18241,0.94528,0.27046,0.40107,0.53262,-0.12153
-0.15679,0.94286,0.29398,-0.0623,0.23852,-0.85808
-0.13827,0.94443,0.29819,-0.24396,0.07906,0.16634
-0.13773,0.94476,0.29739,0.06786,0.32337,0.08519
-0.13187,0.94013,0.31426,-0.98994,0.8051,0.07727
-0.13574,0.93768,0.31987,-0.60559,0.03975,0.15084
-0.15162,0.93614,0.31722,-0.15723,-0.371,-0.11768
-0.14646,0.93821,0.31351,-0.02723,0.15867,0.02498
-0.13518,0.94228,0.30631,0.01142,0.31029,-0.07993
-0.12918,0.94639,0.29603,0.06617,0.39572,-0.04037
-0.12901,0.95032,0.28323,0.02522,-0.30082,0.06226
-0.13308,0.9535,0.27039,0.04793,-0.42408,0.03858
-0.13617,0.95524,0.2626,0.07014,-0.45663,0.10633
-0.13675,0.95523,0.26232,-0.16951,-0.12015,0.03213
-0.13763,0.95449,0.26455,-0.29651,-0.13439,0.00268
-0.14064,0.95244,0.2703,-0.35064,-0.23415,-0.00858
-0.14012,0.94878,0.28312,0.05109,-0.36793,-0.40852
-0.13402,0.94184,0.30816,0.16634,-0.31235,-0.49112
-0.12185,0.92919,0.34891,0.25011,-0.22155,-0.62234
-0.11014,0.90921,0.40147,0.13685,0.19232,-0.00423
-0.10587,0.88524,0.45291,0.0358,0.23485,0.14467
-0.1112,0.86377,0.49144,-0.05136,0.50615,0.05882
-0.11475,0.84764,0.518,-0.14817,0.73755,0.03935
-0.11533,0.83055,0.54484,0.22844,0.9628,0.18555
-0.11399,0.82256,0.55712,0.1263,-0.20194,0.11691
-0.11702,0.82706,0.54978,0.09038,-0.19635,-0.00715
-0.13,0.83662,0.53211,0.17271,-0.09793,0.18065
-0.14422,0.84635,0.5127,0.29052,-0.01763,0.32888
-0.15355,0.85502,0.49531,0.12912,0.11153,0.34085
-0.15303,0.86727,0.47372,-0.25835,0.21487,0.27753
-0.14593,0.88396,0.44419,-0.35244,-0.00865,0.03013
-0.13875,0.90104,0.41093,-0.0569,-0.47971,-0.36118
-0.13553,0.91685,0.3755,0.12288,-0.64979,-0.42062
-0.13066,0.93144,0.3396,0.03215,-0.71754,-0.31017
-0.12343,0.9425,0.31056,-0.17916,-0.83491,-0.09602
-0.12149,0.94864,0.29207,-0.24777,-0.94769,-0.16406
-0.1307,0.95006,0.28336,0.34312,-0.89522,-0.2505
-0.1407,0.94459,0.29655,0.9672,-0.54047,0.00463
-0.13142,0.93428,0.33139,0.48914,0.71466,-1.27295
-0.11555,0.93443,0.33686,-0.39411,2.06165,1.05205
-0.12067,0.93239,0.34068,-0.22055,-0.19417,-0.34451
-0.11665,0.92955,0.34973,-0.23142,0.02884,0.96698
-0.11493,0.92238,0.36876,-0.75673,0.53535,0.03389
-0.1171,0.9188,0.37693,-0.44181,0.06775,0.2378
-0.12332,0.91769,0.37766,-0.37653,0.03022,0.22005
-0.1263,0.9187,0.37418,-0.36421,0.12709,0.20194
-0.12778,0.91847,0.37426,-0.06126,0.34362,-0.00222
-0.1301,0.91462,0.38278,-0.022,0.26797,-0.1671
-0.13378,0.90586,0.40187,0.0414,0.15828,-0.34233
-0.13796,0.89054,0.43346,0.40778,0.25898,-0.09665
-0.14512,0.86672,0.4772,0.27928,0.4622,-0.1988
-0.15867,0.84215,0.51534,0.15037,0.50629,-0.22741
-0.17617,0.82188,0.54172,-0.25381,0.05724,-0.23419
-0.18224,0.8054,0.564,-0.12887,0.24477,-0.13121
-0.17888,0.7899,0.58654,-0.00325,0.44038,0.02915
-0.17631,0.78428,0.59481,0.34667,-0.17016,-0.13448
-0.17533,0.79394,0.58214,0.30939,-0.27496,-0.11908
-0.17355,0.8124,0.55665,0.26893,-0.39672,-0.05776
-0.16882,0.83059,0.53066,0.02945,-0.35246,-0.00275
-0.16295,0.84594,0.50775,-0.06413,-0.37568,0.09067
-0.1604,0.85903,0.48612,-0.13037,-0.43154,0.11935
-0.15856,0.87292,0.46135,-0.21798,-0.53024,-0.05608
-0.1597,0.88872,0.42971,-0.16367,-0.45146,0.01565
-0.16015,0.90382,0.39679,-0.02467,0.14367,0.13298
-0.15398,0.91581,0.37088,-0.06933,0.60161,0.15654
-0.15199,0.92182,0.35655,-0.15507,0.1578,0.02509
-0.1546,0.92337,0.35137,0.25734,-0.15346,-0.33419
-0.15572,0.92375,0.34987,0.42388,0.16034,-0.23396
-0.14967,0.92373,0.35256,0.34363,0.25158,-0.16213
-0.13733,0.91658,0.3755,-0.05298,0.14017,-0.91708
-0.12896,0.91263,0.38789,-0.05613,0.34731,0.10645
-0.13103,0.90858,0.39661,-0.08177,1.60719,0.34964
-0.1259,0.90138,0.41429,-0.46434,-0.1022,-0.01777
-0.13506,0.90004,0.41431,0.09395,-0.19223,-0.27528
-0.13626,0.90229,0.409,-0.20882,0.0806,0.02732
-0.13354,0.90824,0.39655,-0.24549,0.23226,0.02244
-0.13333,0.91461,0.38169,-0.20384,0.30478,-0.01189
-0.13136,0.92097,0.3668,-0.19576,0.12576,-0.03519
-0.12697,0.92762,0.35125,-0.09769,-0.08669,-0.07878
-0.11929,0.93436,0.33574,-0.07317,-0.24602,-0.03217
-0.10691,0.94089,0.32136,-0.11313,-0.33706,0.01519
-0.0894,0.94707,0.30831,-0.1917,-0.27634,0.01364
-0.07078,0.95263,0.29574,-0.25859,-0.28553,-0.09526
-0.05226,0.95835,0.28073,-0.3322,-0.2854,-0.10966
-0.03241,0.96379,0.26466,-0.37044,-0.25874,-0.08224
-0.01002,0.96859,0.24843,-0.39074,-0.23466,0.04149
0.01234,0.97289,0.2309,-0.33576,-0.10973,0.1417
0.03182,0.97672,0.21213,-0.29131,0.03224,0.13104
0.04595,0.97938,0.19669,-0.2821,-0.14227,-0.0515
0.05621,0.98062,0.18764,-0.28403,-0.22696,-0.06893
0.06659,0.98004,0.18728,-0.2624,-0.30316,-0.02733
0.0761,0.9762,0.20302,-0.29283,0.40446,0.00685
0.07451,0.9697,0.23264,-0.29123,0.41096,-0.02277
0.05355,0.96163,0.26904,0.27255,1.37425,-0.4933
0.02446,0.95367,0.29981,0.38815,1.24307,-0.36704
0.00049,0.94472,0.32785,0.23542,1.14749,-0.16824
-0.01505,0.93572,0.3524,-0.45468,0.43156,-0.04149
-0.03617,0.92649,0.37455,-0.29742,0.28431,-0.08967
-0.05798,0.91763,0.39317,-0.2745,0.32307,-0.16183
-0.0697,0.90921,0.41045,-0.28656,0.53264,-0.13136
-0.07135,0.90342,0.42275,-0.10216,0.50562,-0.00397
-0.06848,0.89965,0.43117,0.0809,0.0891,-0.16518
-0.0634,0.89708,0.43727,0.04515,-0.19664,-0.31414
-0.05732,0.89578,0.44077,-0.1706,-0.41633,-0.35688
-0.04812,0.89534,0.44274,-0.01139,-0.43224,-0.47293
-0.03714,0.89516,0.44418,0.14277,-0.36713,-0.53202
-0.02933,0.89694,0.44115,0.19254,-0.33782,-0.51469
-0.02197,0.90168,0.43183,0.22297,-0.34304,-0.39548
-0.013,0.90731,0.42024,0.19063,-0.36778,-0.27988
-0.00512,0.91091,0.41255,0.08745,-0.33843,-0.19694
0.00108,0.91234,0.4094,-0.03456,-0.21933,-0.0052
0.00649,0.91314,0.40756,-0.2557,0.06383,0.39221
0.00886,0.91387,0.40588,-0.35923,0.12774,0.42728
0.00591,0.91275,0.40845,-0.47575,0.12668,0.24201
0.00167,0.90786,0.41924,-0.50312,-0.01867,0.18893
0.00015,0.90341,0.42875,-0.56021,-0.00494,0.25568
-0.00119,0.90258,0.43049,-0.66882,-0.13812,0.42704
-0.00983,0.906,0.42313,-0.26591,-0.05633,0.13411
-0.01942,0.90651,0.42171,0.04018,0.72591,-0.22556
-0.01982,0.90145,0.4324,0.25987,1.91509,-0.40071
-0.007,0.90444,0.42652,0.47431,0.77331,0.09719
-0.00788,0.90233,0.43096,-0.18128,-0.69009,-0.45973
-0.02451,0.90259,0.42978,-0.31262,-0.73642,-0.82486
-0.03106,0.90537,0.42346,-0.3701,-0.24494,-0.58712
-0.02422,0.90673,0.42099,-0.44478,0.41568,-0.47949
-0.00942,0.9103,0.41382,-0.16887,0.89018,-0.21704
-0.00138,0.9187,0.39492,0.04421,0.20431,-0.13921
-0.0061,0.92906,0.36984,0.0613,-0.16504,-0.06445
-0.00831,0.93795,0.34664,-0.0505,-0.16182,-0.1195
-0.00094,0.94544,0.32576,-0.137,-0.07104,-0.18736
0.01466,0.95165,0.30679,-0.21481,0.00663,-0.03132
0.03119,0.95764,0.28624,-0.24953,-0.12027,0.09438
0.04354,0.96313,0.26546,-0.26298,-0.1997,0.08372
0.05305,0.96814,0.24467,-0.30959,-0.18259,-0.13917
0.0611,0.97276,0.22357,-0.31764,-0.18721,-0.11807
0.07012,0.97679,0.20237,-0.22391,-0.10069,-0.10674
0.07995,0.98027,0.18073,-0.14036,-0.0656,-0.04106
0.08926,0.98318,0.15929,-0.1215,-0.06581,-0.01425
0.09746,0.98555,0.13849,-0.06701,-0.11766,0.13192
0.10439,0.98747,0.11826,-0.14591,-0.11018,0.11788
0.11025,0.98902,0.09836,-0.25028,-0.13295,0.06243
0.11697,0.98997,0.07911,-0.33438,-0.21553,0.05899
0.12645,0.99015,0.05997,-0.33962,-0.18549,0.04536
0.13671,0.98974,0.04136,-0.29996,-0.13307,-0.09335
0.14561,0.98905,0.02363,-0.29365,-0.02093,-0.09552
0.15174,0.98838,0.00819,-0.28142,0.10707,-0.04268
0.15614,0.98772,-0.00358,-0.29788,0.19645,-0.06875
0.16005,0.987,-0.01397,-0.46523,0.38009,0.11068
0.16576,0.98591,-0.02211,-0.63587,0.43564,0.18779
0.1723,0.98466,-0.02717,-0.67413,0.34647,0.15747
0.17762,0.98359,-0.03142,-0.69202,0.42524,-0.02012
0.17464,0.98404,-0.03389,-0.38823,0.4684,-0.03971
0.16224,0.98624,-0.03144,-0.05937,0.38682,-0.10615
0.14166,0.98969,-0.02087,0.19606,0.08372,-0.27679
0.11803,0.993,-0.00085,0.06667,0.05477,-0.21916
0.09299,0.99531,0.02635,0.05249,0.16483,-0.22621
0.06396,0.99624,0.05828,0.21063,0.31464,-0.15566
0.03182,0.99512,0.09335,0.38003,0.40174,-0.11511
-0.00101,0.99163,0.12901,0.38394,0.29821,-0.15369
-0.03054,0.9865,0.1608,0.19542,0.08625,-0.1584
-0.05782,0.98008,0.18996,-0.02283,-0.0393,-0.1187
-0.08392,0.9719,0.21987,-0.12856,-0.00449,-0.11188
-0.10644,0.96242,0.24979,-0.13492,0.02811,-0.09739
-0.12175,0.95264,0.27863,-0.07381,0.00503,-0.09267
-0.13269,0.94288,0.30554,0.03325,-0.09647,-0.10619
-0.14204,0.9333,0.32979,0.12343,-0.23051,-0.12695
-0.1486,0.92426,0.35161,0.16802,-0.29109,-0.13812
-0.15282,0.91683,0.36883,0.11718,-0.39675,-0.12268
-0.15382,0.91256,0.37888,0.03827,-0.44103,-0.12389
-0.15217,0.91101,0.38325,0.00097,-0.42013,-0.137
-0.15028,0.91101,0.384,-0.01334,-0.42009,-0.17053
-0.14828,0.91255,0.38109,-0.01419,-0.49088,-0.172
-0.14572,0.91509,0.37597,0.01047,-0.59142,-0.04301
-0.14254,0.91878,0.36812,0.00261,-0.6102,-0.08136
-0.13918,0.92284,0.35914,-0.03573,-0.57948,-0.09038
-0.13763,0.92721,0.34831,-0.06133,-0.51516,-0.12357
-0.13524,0.93199,0.33626,-0.03524,-0.36325,-0.18421
-0.12924,0.9372,0.32393,-0.03903,-0.22154,-0.15998
-0.12476,0.94303,0.30838,-0.02792,0.08228,0.04473
-0.125,0.94883,0.28997,-0.02769,0.07649,0.06313
-0.12828,0.95354,0.27255,0.14586,0.19488,0.21517
-0.1342,0.95616,0.26025,0.19229,0.23442,0.1126
-0.14038,0.95769,0.2512,0.19847,0.23289,0.12165
-0.14589,0.95733,0.24943,0.23528,0.22276,-0.14997
-0.14865,0.95234,0.26633,0.19664,0.4354,-0.37532
-0.13778,0.94874,0.28439,0.03641,0.1702,-0.34121
-0.11952,0.94785,0.29542,-0.07015,-0.10344,-0.28599
-0.11197,0.94783,0.29844,-0.56717,1.86986,0.80169
-0.11356,0.94343,0.31147,-0.82215,1.63506,0.46045
-0.13168,0.94104,0.31159,-0.13425,-0.22471,0.14253
-0.14562,0.94131,0.30447,0.14046,-0.37253,-0.22994
-0.14023,0.94652,0.29054,-0.03921,-0.01845,-0.06551
-0.13408,0.95256,0.27317,-0.04119,0.33958,0.05793
-0.13014,0.95819,0.25478,0.07736,0.26125,-0.02896
-0.12537,0.96397,0.23455,-0.07692,-0.05106,-0.05286
-0.1245,0.96816,0.21715,-0.14223,-0.2943,0.04744
-0.12453,0.97021,0.20776,-0.05656,-0.52565,0.02738
-0.12112,0.97175,0.20252,0.11355,-0.58442,0.07589
-0.11474,0.97368,0.19686,0.02932,-0.35419,0.06373
-0.10988,0.9754,0.19102,-0.08156,-0.26515,0.11191
-0.1076,0.97633,0.18758,-0.262,-0.16151,0.0762
-0.10689,0.97604,0.18946,-0.31344,-0.10737,0.01824
-0.10662,0.9748,0.1959,-0.25822,-0.09051,0.01002
-0.1047,0.97224,0.20919,-0.14208,-0.01959,-0.20014
-0.10144,0.96699,0.23371,0.24082,-0.20037,-0.47585
-0.09415,0.95648,0.27615,0.43636,0.01798,-0.0879
-0.09306,0.93866,0.33201,0.40312,0.53101,0.17591
-0.10491,0.91537,0.38868,0.16262,0.65526,0.11935
-0.13416,0.89407,0.42734,-0.11955,0.77198,0.40428
-0.18014,0.87324,0.45275,-0.00448,1.17417,0.42769
-0.21572,0.85598,0.46983,-0.29232,0.1009,0.16054
-0.22754,0.85419,0.4675,-0.18796,-0.45571,-0.05943
-0.23353,0.86371,0.44659,-0.10078,-0.6254,-0.28521
-0.2301,0.87817,0.41934,-0.07639,-0.49284,-0.01959
-0.21925,0.89271,0.39366,0.0072,-0.34384,0.17347
-0.21308,0.90496,0.36825,0.11596,-0.39058,0.2618
-0.21259,0.91472,0.3436,0.20717,-0.49242,0.19504
-0.21098,0.92225,0.3239,0.30946,-0.80366,-0.17445
-0.19995,0.93115,0.30487,0.31972,-0.8856,-0.27748
-0.18146,0.94411,0.27515,0.14688,-0.21275,-0.13005
-0.16466,0.95653,0.24063,-0.11056,-0.04024,-0.00048
-0.15557,0.96361,0.21733,-0.15348,-0.04974,0.04073
-0.15518,0.96697,0.20213,0.11052,0.20519,0.09427
-0.15984,0.96877,0.18948,0.43666,0.49833,0.00647
-0.16289,0.96881,0.18671,0.49367,0.66443,0.13377
-0.15488,0.96684,0.20299,0.43974,0.82324,0.25083
-0.14039,0.96673,0.21378,-0.19016,0.1029,-0.45436
-0.13231,0.9677,0.21452,-0.31191,0.13253,0.22967
-0.1305,0.96415,0.23101,-0.43256,1.12814,0.28977
-0.13075,0.96086,0.24418,-0.85297,0.41746,0.34623
-0.1434,0.95919,0.24367,-0.44377,-0.05371,0.44421
-0.14331,0.9597,0.24171,0.01988,-0.30171,-0.16204
-0.13391,0.9635,0.23175,-0.12163,-0.12816,0.08075
-0.12764,0.96674,0.2216,0.04135,-0.07065,-0.08552
-0.12424,0.9691,0.21302,0.09484,-0.064,-0.0006
-0.12395,0.97093,0.20469,-0.01748,-0.09484,0.10737
-0.12743,0.97197,0.1975,-0.00295,-0.16286,0.16444
-0.13207,0.97262,0.19118,0.07923,-0.2006,0.22584
-0.13577,0.97316,0.18575,0.07657,-0.2218,0.06742
-0.13852,0.9742,0.17812,-0.132,-0.34184,0.06972
-0.1405,0.97498,0.1722,-0.29654,-0.42202,0.06685
-0.14148,0.97502,0.17118,-0.37151,-0.26652,0.03932
-0.14067,0.97385,0.17835,-0.23552,0.02162,-0.05915
-0.13843,0.97075,0.19609,0.10553,0.09768,-0.10868
-0.13417,0.96441,0.22777,0.12575,0.17931,-0.16495
-0.12899,0.95243,0.27606,0.16204,0.3501,-0.19272
-0.12594,0.93353,0.33561,0.26719,0.48841,0.09927
-0.13281,0.91156,0.38909,0.25832,0.27353,0.20519
-0.15043,0.89287,0.42442,0.01037,0.31567,0.20831
-0.17491,0.87662,0.44823,0.00453,0.65388,0.27209
-0.20215,0.86197,0.46488,0.04178,0.15794,0.0897
-0.22119,0.8567,0.46595,-0.00557,-0.41717,-0.0915
-0.23044,0.86384,0.44794,0.00262,-0.41844,-0.19588
-0.23208,0.87785,0.41892,-0.04514,-0.46756,0.083
-0.22698,0.89318,0.38817,0.03611,-0.46403,0.25618
-0.21843,0.90587,0.36286,0.10094,-0.49396,0.18086
-0.21116,0.91616,0.34064,-0.0167,-0.57462,0.04548
-0.20263,0.92597,0.31857,-0.09451,-0.65222,-0.02643
-0.19033,0.93596,0.2962,-0.07132,-0.69563,0.00638
-0.17752,0.946,0.27118,-0.02413,-0.47036,0.19643
-0.16662,0.95586,0.24196,0.10728,0.1989,0.12878
-0.16218,0.96245,0.21766,0.06629,0.44666,-0.02053
-0.16413,0.96525,0.20329,0.20515,0.3604,0.0831
-0.16939,0.96522,0.19909,0.55841,0.85708,0.06021
-0.16586,0.96524,0.20196,0.2907,0.82149,0.1245
-0.15307,0.96558,0.21025,-0.3109,-0.28266,-0.59532
-0.14109,0.96864,0.20445,-0.37573,0.11394,-0.04606
-0.13825,0.96915,0.20401,-0.32121,0.52048,0.11932
-0.13673,0.96613,0.2188,-0.31885,0.40016,0.28174
-0.14694,0.96396,0.22173,-0.30865,0.40233,0.27882
-0.15958,0.96295,0.21732,0.21198,-0.26815,-0.14306
-0.15513,0.96572,0.20806,0.05077,-0.23254,0.0027
-0.14494,0.97005,0.19485,0.04058,-0.23687,0.01593
-0.1352,0.97391,0.18219,-0.03131,-0.03376,-0.02385
-0.12967,0.97639,0.17271,-0.06092,-0.06538,0.20817
-0.12989,0.97736,0.16694,0.0618,-0.14663,0.20516
-0.13316,0.97751,0.16346,0.27348,-0.33322,0.20734
-0.13415,0.97772,0.16141,0.16658,-0.40028,0.13926
-0.13207,0.97807,0.16096,0.03684,-0.34755,0.18763
-0.13148,0.97786,0.16272,-0.12393,-0.30233,0.15539
-0.13153,0.97676,0.16915,-0.22204,-0.2325,-0.14629
-0.13016,0.97435,0.18351,-0.09089,-0.17944,-0.25945
-0.12836,0.96912,0.2105,0.16625,-0.07758,-0.13677
-0.12648,0.95888,0.25404,0.15699,0.07921,-0.0867
-0.12895,0.94089,0.31317,-0.03584,0.35306,-0.0491
-0.13379,0.91995,0.36847,-0.0174,0.38317,0.12531
-0.14197,0.90307,0.40533,-0.10846,0.42613,0.21212
-0.15531,0.88593,0.43702,0.24682,1.32576,0.57388
-0.16811,0.8731,0.45762,0.06015,0.19421,0.18345
-0.17091,0.87075,0.46104,0.11496,-0.58346,-0.15644
-0.17851,0.87639,0.44727,0.05638,-0.71628,-0.21079
-0.18242,0.88826,0.42154,0.01485,-0.47986,0.0581
-0.1797,0.90097,0.39489,0.03656,-0.34898,0.18539
-0.17664,0.9126,0.3687,0.10791,-0.49249,0.20595
-0.17408,0.9217,0.3466,0.02395,-0.75245,-0.04791
-0.16908,0.93019,0.3258,-0.1004,-0.95184,-0.17315
-0.16285,0.94045,0.29834,0.01873,-0.73447,-0.07968
-0.15803,0.95265,0.25975,0.08192,0.00931,0.05799
-0.1536,0.96201,0.22565,-0.16794,0.11616,0.18614
-0.15154,0.96593,0.20974,-0.25558,-0.03589,0.04536
-0.16297,0.96639,0.19879,0.27961,0.1047,-0.145
-0.17465,0.96443,0.19838,0.45421,0.87828,0.14733
-0.16656,0.96253,0.21394,0.23606,0.63804,-1.01217
-0.14775,0.96599,0.21214,0.09389,0.1323,0.06598
-0.13773,0.96857,0.2071,-0.02489,0.78415,0.20579
-0.12799,0.96735,0.21872,-0.44782,1.54732,0.21646
-0.12999,0.96493,0.22804,-0.42613,0.01702,0.20919
-0.14514,0.963,0.22703,0.10583,-0.3552,0.07619
-0.14605,0.96375,0.22322,-0.04835,-0.10677,0.06117
-0.13905,0.96756,0.21089,0.03626,0.20506,0.17826
-0.13222,0.97135,0.19742,0.00829,0.13453,0.03451
-0.12766,0.97463,0.18378,-0.03184,0.0061,0.00301
-0.12401,0.97734,0.17147,-0.12359,-0.23818,0.11453
-0.11972,0.97919,0.16382,-0.04337,-0.3398,0.13171
-0.11336,0.98046,0.16072,-0.04303,-0.41047,0.11926
-0.107,0.98147,0.15891,-0.05289,-0.4352,0.12591
-0.10341,0.98187,0.15879,-0.21458,-0.36539,0.16317
-0.1036,0.98121,0.16272,-0.25898,-0.34914,0.12213
-0.10453,0.9803,0.16751,-0.24857,-0.34261,0.0681
-0.10328,0.97945,0.17321,0.02704,-0.22444,-0.2298
-0.09854,0.97746,0.18665,0.08518,-0.21878,-0.34844
-0.09141,0.97222,0.21545,0.12875,-0.18849,-0.45755
-0.08971,0.96062,0.26296,0.34519,0.32768,-0.07703
-0.09594,0.94194,0.32177,0.29597,0.52414,0.00503
-0.11565,0.92462,0.36287,0.1756,0.61046,0.34126
-0.14365,0.91212,0.38389,0.06913,0.55304,0.29778
-0.16539,0.89995,0.40339,-0.29387,0.36173,0.1215
-0.17253,0.89125,0.41939,-0.43899,-0.15634,0.08232
-0.17114,0.89075,0.42102,-0.1034,-0.26652,0.11342
-0.16851,0.89697,0.4087,0.07534,0.01003,0.35606
-0.16586,0.9063,0.3887,0.14182,0.23855,0.61989
-0.16357,0.91614,0.36593,0.11882,0.18975,0.50545
-0.15656,0.92693,0.34099,-0.14407,0.06973,0.30447
-0.14748,0.93894,0.31083,-0.27466,-0.39027,0.05463
-0.13891,0.95116,0.27566,-0.18833,-0.91231,-0.18121
-0.13167,0.9629,0.23553,0.123,-0.86974,-0.33122
-0.12115,0.97414,0.19069,0.16658,-0.33914,-0.31433
-0.10894,0.98166,0.1564,-0.12402,-0.41945,-0.33703
-0.09986,0.98473,0.14254,-0.26201,-0.67487,0.15661
-0.10559,0.98516,0.13525,0.09352,-1.25851,0.09914
-0.12,0.98185,0.14682,0.77939,-0.85413,-0.23576
-0.11585,0.9792,0.1665,0.26321,0.04588,-0.5547
-0.11073,0.98053,0.16214,-0.39312,0.86946,0.44597
-0.11458,0.9802,0.16141,-0.23958,0.3938,-0.01514
-0.11618,0.98041,0.15899,0.28331,0.92984,0.6292
-0.111,0.975,0.19244,-0.15136,1.81757,0.95141
-0.10981,0.97473,0.19447,-0.60373,-0.68322,0.55146
-0.11454,0.97269,0.20183,-0.44228,-0.64423,0.15279
-0.10733,0.97128,0.21231,-0.41182,-0.03686,0.12955
-0.09829,0.96872,0.22781,-0.20244,0.33926,-0.10341
-0.09706,0.96297,0.25149,0.04633,0.32598,-0.19318
-0.09809,0.95212,0.28954,0.55037,0.12945,-0.03899
-0.10252,0.93572,0.33749,0.36425,0.45588,0.17037
-0.1171,0.91846,0.37774,0.25224,0.4817,0.06864
-0.14066,0.90451,0.40257,-0.20002,0.56695,0.03414
-0.1645,0.88741,0.4306,-0.20419,0.90943,0.27551
-0.16896,0.87437,0.45487,-0.49115,0.10656,0.19358
-0.16562,0.87033,0.46376,-0.15651,-0.1991,-0.02281
-0.16889,0.87225,0.45895,0.17131,-0.24556,0.10117
-0.1737,0.87651,0.44894,0.37874,-0.38911,-0.02644
-0.16916,0.88271,0.4384,0.26627,-0.41695,-0.01172
-0.15927,0.89365,0.41954,0.0856,-0.26872,0.05304
-0.14922,0.90878,0.38966,0.02793,-0.23719,0.15203
-0.13789,0.92517,0.35358,-0.12331,-0.32234,0.22921
-0.12837,0.93793,0.32216,-0.26645,-0.42373,0.15513
-0.12068,0.94671,0.29859,-0.23849,-0.29157,0.17635
-0.11109,0.95243,0.28374,-0.17347,-0.07133,0.22321
-0.10546,0.9546,0.27858,0.04578,0.05494,0.23208
-0.10906,0.95288,0.28305,0.04938,0.05666,0.22762
-0.1238,0.94754,0.29467,0.10642,-0.01124,0.22851
-0.1432,0.92927,0.34049,-0.4708,1.97639,-0.21667
-0.13586,0.91499,0.37989,-0.44114,1.33852,0.87888
-0.1405,0.89628,0.42062,-0.46111,-1.0794,-1.05976
-0.14006,0.89025,0.43339,-0.26407,-0.50193,0.12535
-0.12967,0.88572,0.44571,0.14789,0.77155,-0.31447
-0.10572,0.89167,0.44014,0.09542,1.50622,-0.20308
-0.09803,0.90282,0.41867,0.34086,0.24868,0.0795
-0.09758,0.91505,0.39134,0.21651,0.21709,0.12433
-0.09075,0.92824,0.36073,-0.00555,0.30838,0.15885
-0.0843,0.94248,0.32344,-0.11675,0.12367,-0.03308
-0.07367,0.95686,0.28103,-0.12639,0.00223,-0.03752
-0.05928,0.97001,0.2357,-0.16559,-0.10435,-0.01057
-0.04582,0.98056,0.19077,-0.19967,-0.39164,-0.01784
-0.03355,0.98822,0.14929,-0.18897,-0.39947,0.02639
-0.02189,0.99344,0.1122,-0.18128,-0.35413,0.04833
-0.01181,0.99672,0.08003,-0.08916,-0.14138,0.10753
-0.00368,0.99856,0.05341,-0.0607,-0.16779,0.15998
0.00475,0.99939,0.03447,-0.08953,-0.14491,0.09059
0.0155,0.99961,0.02291,-0.10028,-0.14513,0.10215
0.02578,0.99955,0.01507,-0.19481,-0.03148,0.19528
0.03414,0.99932,0.01365,-0.24627,0.06466,0.18703
0.04087,0.99892,0.02204,-0.40827,0.0947,-0.02969
0.04473,0.99821,0.03964,-0.3374,0.26554,-0.1218
0.04311,0.99685,0.06643,-0.13156,0.22852,-0.06112
0.0381,0.99316,0.1103,-0.0804,0.35864,-0.31762
0.03048,0.98746,0.15485,-0.09811,0.46435,-0.33197
0.01432,0.98149,0.19095,-0.19564,0.50954,-0.17275
-0.01323,0.97504,0.22162,-0.13838,0.42099,-0.21466
-0.04155,0.96707,0.25106,-0.09183,0.2997,-0.24045
-0.06333,0.95885,0.27672,-0.00439,0.32659,-0.20412
-0.07937,0.95092,0.29907,0.04067,0.30186,-0.07397
-0.0929,0.94287,0.31992,0.04799,0.13849,-0.10576
-0.10392,0.93513,0.3387,0.00878,0.01922,-0.166
-0.11089,0.92864,0.35401,-0.04916,-0.06564,-0.20459
-0.11205,0.92357,0.36666,-0.0875,-0.12302,-0.22097
-0.1083,0.91958,0.37767,-0.05134,-0.1543,-0.21281
-0.10368,0.91626,0.38691,0.07604,-0.17496,-0.25262
-0.10012,0.91346,0.39439,0.18942,-0.22952,-0.32536
-0.09721,0.91179,0.39897,0.23318,-0.28206,-0.32263
-0.09427,0.9118,0.39964,0.2262,-0.27036,-0.17314
-0.0916,0.91348,0.39642,0.20031,-0.25267,-0.11393
-0.08974,0.91575,0.39159,0.15808,-0.23624,-0.09984
-0.08628,0.9177,0.38779,0.05816,-0.18477,0.04781
-0.07942,0.92128,0.38069,-0.04741,-0.17687,0.15682
-0.073,0.92399,0.37536,-0.15514,-0.03762,0.25339
-0.06901,0.92342,0.37753,-0.14489,0.00973,0.07996
-0.06621,0.91892,0.38883,-0.2254,0.0669,0.06099
-0.07,0.91294,0.40204,-0.40981,0.01315,0.10747
-0.0819,0.90747,0.41203,-0.43896,-0.06014,0.15917
-0.09649,0.90426,0.41592,-0.34005,-0.04278,0.2062
-0.11044,0.90159,0.41825,-0.09856,0.63756,0.17862
-0.12062,0.90126,0.41614,-0.17593,1.09391,-0.1598
-0.12501,0.90592,0.40455,0.21942,0.26989,-0.1909
-0.12713,0.90775,0.39976,0.26332,-0.18795,-0.12201
-0.13028,0.91125,0.3907,-0.05576,-0.19401,-0.74189
-0.11992,0.91785,0.37835,-0.14027,0.09689,-0.64404
-0.10059,0.9245,0.36766,-0.10172,0.24309,-0.4449
-0.08064,0.93091,0.35621,0.03413,0.27243,-0.27212
-0.0671,0.93822,0.33946,0.12708,0.14877,-0.12477
-0.06477,0.94612,0.31726,0.1552,-0.08055,-0.0287
-0.0664,0.95406,0.29215,0.03456,-0.13829,-0.11959
-0.06521,0.96116,0.26814,-0.03503,-0.10585,-0.12367
-0.06199,0.96753,0.24502,-0.19085,-0.11214,-0.24404
-0.05795,0.97325,0.22228,-0.08083,-0.20563,-0.20414
-0.05175,0.97857,0.1993,-0.03092,-0.17815,-0.16641
-0.04444,0.98346,0.17554,-0.02829,-0.00258,-0.00048
-0.03868,0.98761,0.15206,-0.08649,-0.04198,0.06643
-0.03425,0.99073,0.1314,-0.10376,-0.09695,0.06586
-0.02887,0.99325,0.11231,-0.12964,-0.18734,0.08322
-0.02238,0.99533,0.09386,-0.16022,-0.13617,0.06586
-0.01693,0.9969,0.07676,-0.17396,-0.12887,0.07153
-0.01309,0.998,0.06184,-0.13098,-0.00962,0.09889
-0.01046,0.99872,0.04943,-0.14204,0.00601,0.11269
-0.01722,0.99877,0.0464,-0.17952,0.02303,0.05767
-0.0276,0.99856,0.04593,-0.24642,0.08686,0.03003
-0.03061,0.99862,0.04247,-0.34503,0.30971,0.03566
-0.03464,0.99847,0.04293,-0.43855,0.64696,-0.12559
-0.04343,0.99779,0.05012,-0.24249,0.58599,-0.15807
-0.05869,0.99617,0.06468,-0.02624,0.38139,-0.13936
-0.07598,0.99263,0.0943,0.07834,0.22134,-0.21399
-0.08947,0.98576,0.14232,0.10841,-0.04106,-0.32644
-0.09549,0.97586,0.19636,0.19842,-0.05706,-0.3489
-0.09777,0.96356,0.24896,0.28379,0.28931,-0.18124
-0.10628,0.94979,0.29426,0.26754,0.56962,-0.12899
-0.12779,0.93404,0.33351,0.23837,0.43024,-0.17004
-0.15177,0.91687,0.36919,0.22727,0.32468,-0.24393
-0.17043,0.89985,0.4015,-0.03726,0.02814,-0.2872
-0.1835,0.88377,0.43043,-0.1232,-0.0039,-0.16914
-0.19226,0.86921,0.45552,-0.07973,0.00407,-0.17821
-0.19515,0.8573,0.47639,0.11432,-0.20835,-0.19111
-0.19443,0.84814,0.49279,0.21695,-0.18078,-0.16026
-0.19461,0.84152,0.50393,0.22091,-0.16129,-0.14991
-0.19727,0.83767,0.50929,0.18893,-0.30492,-0.24957
-0.19781,0.83778,0.50889,0.15762,-0.50236,-0.33528
-0.1924,0.8427,0.50281,0.07199,-0.58878,-0.33668
-0.18396,0.85074,0.49233,-0.01764,-0.52324,-0.17012
-0.17814,0.86017,0.47787,-0.04853,-0.4857,-0.05675
-0.17418,0.8702,0.46087,-0.05922,-0.43921,-0.12829
-0.17221,0.87981,0.44301,-0.23344,-0.35375,-0.14664
-0.17682,0.88899,0.4224,0.16664,-0.49018,-0.02207
-0.16992,0.8971,0.40782,0.16693,-0.50448,-0.09119
-0.15233,0.90428,0.39881,0.10425,-0.5009,-0.20315
-0.13295,0.91145,0.38931,-0.0445,0.20868,-0.21494
