gravity.x,gravity.y,gravity.z,userAcceleration.x,userAcceleration.y,userAcceleration.z
-0.28357,0.8653,-0.41332,0.13304,0.02857,-0.11355
-0.28702,0.86384,-0.414,0.19842,0.05816,0.03963
-0.29056,0.86197,-0.41544,0.15421,-0.11853,0.14438
-0.29565,0.85996,-0.41601,0.09834,-0.17374,0.06373
-0.29973,0.85989,-0.41323,0.12498,0.0902,-0.07577
-0.30346,0.86128,-0.40757,0.17772,0.13349,0.01858
-0.30745,0.86211,-0.40278,0.17711,-0.10059,0.14383
-0.31493,0.86147,-0.39836,0.04151,-0.09607,-0.03431
-0.3193,0.86154,-0.39472,0.1977,0.28261,0.15987
-0.32201,0.86253,-0.39031,0.19273,0.1886,0.24364
-0.3195,0.85925,-0.3995,0.05294,0.1613,0.21632
-0.31412,0.85019,-0.4225,-0.41047,0.41826,-0.00234
-0.30871,0.83667,-0.45242,-0.45498,0.54012,-0.05684
-0.30111,0.82045,-0.48601,-0.4974,0.48542,0.15724
-0.29049,0.80587,-0.51593,-0.38281,0.84862,-0.06129
-0.27743,0.78913,-0.548,-0.10059,0.36703,-0.29147
-0.25701,0.77253,-0.58064,-0.08688,-0.10744,0.06735
-0.24481,0.75997,-0.6021,-0.12163,-0.02322,0.16173
-0.23971,0.74162,-0.62652,-0.03562,0.15385,0.08302
-0.23676,0.72149,-0.65069,-0.13806,0.00306,0.0361
-0.23969,0.70183,-0.6708,-0.23829,0.08167,0.04536
-0.24332,0.68376,-0.68794,-0.22999,0.04208,0.138
-0.2457,0.66677,-0.7036,-0.07433,0.00445,0.19989
-0.25096,0.65114,-0.71627,0.02838,0.00372,0.22605
-0.25705,0.63819,-0.7257,-0.01787,-0.0484,0.21964
-0.26211,0.62884,-0.73203,-0.07005,-0.17799,0.15877
-0.26433,0.62429,-0.73512,-0.10512,-0.21285,0.14707
-0.26536,0.62521,-0.73395,-0.03646,-0.14346,0.22298
-0.26676,0.62999,-0.72935,0.04173,-0.13807,0.28252
-0.2693,0.6381,-0.72132,0.06541,-0.20935,0.22457
-0.27258,0.65116,-0.7083,0.11547,-0.23001,0.12428
-0.27681,0.66922,-0.68957,0.13715,-0.19796,0.14413
-0.282,0.69063,-0.66596,0.12151,-0.24515,0.16294
-0.28628,0.71247,-0.64065,0.08667,-0.27687,0.17466
-0.2922,0.73315,-0.61409,0.0795,-0.36853,0.13754
-0.30192,0.75454,-0.58268,0.10284,-0.19593,0.14159
-0.31453,0.7768,-0.54557,0.12458,-0.09817,0.06844
-0.32636,0.7979,-0.5068,0.08162,0.11884,-0.02161
-0.33115,0.81664,-0.47269,0.12273,0.04896,-0.00595
-0.33072,0.83115,-0.44701,0.1098,-0.00437,-0.02363
-0.32947,0.84286,-0.42547,0.07677,-0.05003,-0.07118
-0.32763,0.85191,-0.40855,0.07369,-0.00048,-0.07842
-0.3255,0.85947,-0.39416,0.01578,-0.03593,-0.11261
-0.32456,0.86626,-0.3798,0.00742,-0.07226,-0.13125
-0.32389,0.87154,-0.36813,-0.1042,-0.08908,-0.22461
-0.32213,0.87586,-0.35931,-0.26124,0.04988,-0.27276
-0.31976,0.87737,-0.35772,-0.47116,0.34354,-0.31733
-0.31877,0.88126,-0.34896,-0.43747,0.55241,0.4974
-0.31728,0.88417,-0.3429,-0.06183,0.08685,0.7207
-0.30968,0.8847,-0.34844,0.31875,-0.30449,0.32958
-0.29977,0.89173,-0.33905,-0.25459,0.95283,-0.06633
-0.28745,0.89892,-0.33063,-0.31056,1.36582,-0.37906
-0.2743,0.89926,-0.34072,0.28007,1.32346,-0.23617
-0.25806,0.89715,-0.3585,-0.41148,-0.85755,0.31717
-0.25795,0.89541,-0.3629,-0.42203,-0.69844,0.40522
-0.26176,0.89755,-0.35481,-0.23731,0.2886,0.23164
-0.26067,0.90232,-0.34332,0.01994,0.28344,-0.08128
-0.2596,0.90685,-0.332,0.12497,0.08514,0.04663
-0.26027,0.90999,-0.32277,0.03683,0.02792,0.05245
-0.26213,0.91149,-0.31698,0.00736,0.05969,-0.03011
-0.26506,0.91367,-0.30815,-0.00666,0.07193,-0.00243
-0.26893,0.91631,-0.29673,0.0409,0.00573,0.14843
-0.27264,0.91884,-0.2853,0.03861,-0.02222,0.06383
-0.27593,0.92108,-0.27473,0.05148,-0.02197,-0.04106
-0.27797,0.92308,-0.26581,0.06335,-0.03563,0.00183
-0.28113,0.92339,-0.26139,0.07063,-0.06995,-0.01048
-0.28446,0.92303,-0.25904,0.07658,-0.09396,-0.01561
-0.28652,0.9226,-0.2583,0.10715,-0.04717,-0.02131
-0.28825,0.92189,-0.25889,0.09947,-0.04646,-0.05176
-0.28861,0.92096,-0.26178,0.07836,-0.13477,-0.03355
-0.28981,0.91935,-0.26611,0.06198,-0.19998,0.06555
-0.29128,0.91686,-0.27298,0.0558,-0.22515,0.07046
-0.2945,0.91313,-0.28188,0.04479,-0.19173,-0.02401
-0.29866,0.90873,-0.29158,0.05986,-0.16025,0.01745
-0.3031,0.90419,-0.30096,0.11331,-0.12052,0.0076
-0.30771,0.89971,-0.30957,0.10901,-0.09244,-0.08912
-0.3132,0.89598,-0.31484,0.18025,0.00037,-0.01466
-0.31744,0.89271,-0.31984,0.24736,0.01624,0.01223
-0.32099,0.88954,-0.3251,0.25884,-0.12638,0.1066
-0.32458,0.88694,-0.32861,0.15887,-0.13135,0.0039
-0.3286,0.88467,-0.33072,0.15475,-0.04167,-0.05063
-0.33238,0.8842,-0.32821,0.22909,0.11812,-0.02259
-0.33484,0.88448,-0.32493,0.23198,0.1909,-0.07372
-0.33557,0.88541,-0.32162,0.24056,-0.00562,0.07554
-0.33457,0.88439,-0.32544,0.18563,-0.03756,0.10762
-0.33263,0.87847,-0.343,-0.15324,0.02439,0.00072
-0.33178,0.86901,-0.36706,-0.37578,0.21769,0.13552
-0.33102,0.85494,-0.39938,-0.38831,0.33509,0.13894
-0.32565,0.83939,-0.43518,-0.36846,0.71011,-0.03374
-0.31389,0.82697,-0.46646,-0.38779,0.7413,0.095
-0.29628,0.81708,-0.49456,-0.48558,0.68801,0.07863
-0.27496,0.80644,-0.5235,-0.36917,0.18,-0.00543
-0.25251,0.79567,-0.55058,-0.21507,0.0385,0.0724
-0.23943,0.7828,-0.57436,-0.09528,0.32258,0.0376
-0.23298,0.76867,-0.59571,0.0361,0.47565,-0.03277
-0.23316,0.75429,-0.61374,-0.11927,0.0179,0.17658
-0.24126,0.73859,-0.6295,-0.18425,-0.04838,0.26976
-0.25199,0.72198,-0.64439,-0.25393,-0.15831,0.31766
-0.2637,0.70667,-0.65657,-0.09869,-0.15483,0.17941
-0.2755,0.69587,-0.66322,-0.0466,-0.11925,0.1377
-0.28533,0.69046,-0.66472,-0.02365,-0.08464,0.12923
-0.29102,0.68882,-0.66395,-0.04615,-0.171,0.19543
-0.29466,0.69013,-0.66099,-0.04594,-0.18027,0.18339
-0.29886,0.6948,-0.65417,0.04781,-0.07526,0.17185
-0.30237,0.70186,-0.64495,0.05559,-0.09301,0.14187
-0.30472,0.71063,-0.63416,0.05008,-0.10133,0.10408
-0.30717,0.72147,-0.62058,0.05893,-0.13775,0.07931
-0.30988,0.73386,-0.6045,0.04864,-0.1465,0.09564
-0.31273,0.74696,-0.58673,0.05426,-0.22221,0.10974
-0.31573,0.76078,-0.56703,0.10336,-0.17786,0.20775
-0.31806,0.77419,-0.54723,0.10332,-0.16744,0.20075
-0.32073,0.78754,-0.52623,0.11953,-0.17084,0.17879
-0.32443,0.80116,-0.50289,0.18307,-0.18166,0.09281
-0.32506,0.81554,-0.47878,0.15096,-0.18366,0.00971
-0.32205,0.82998,-0.45542,0.11545,-0.16281,-0.04135
-0.31595,0.84395,-0.4335,0.02971,-0.00401,-0.11824
-0.30846,0.85723,-0.41232,-0.01884,0.05938,-0.1232
-0.30261,0.86855,-0.3925,0.02592,0.04472,-0.08248
-0.29923,0.87621,-0.37777,0.17809,0.04664,-0.06782
-0.29643,0.8818,-0.36683,0.16491,0.08668,-0.14963
-0.29352,0.88768,-0.35478,-0.08679,0.12126,-0.18498
-0.29129,0.89347,-0.34185,-0.27143,-0.01321,-0.18592
-0.28992,0.89699,-0.33369,-0.28741,-0.02958,-0.20554
-0.28786,0.89858,-0.33119,-0.2626,0.28288,-0.27887
-0.28579,0.90006,-0.32895,-0.10084,0.40815,0.04691
-0.27889,0.90522,-0.32061,-0.32625,0.17142,0.26811
-0.28165,0.90659,-0.31428,-0.31044,0.08645,0.23635
-0.28234,0.90535,-0.31722,0.31684,-0.07167,0.21526
-0.27833,0.91175,-0.30207,-0.18511,0.56787,0.38775
-0.27512,0.91981,-0.27974,-0.21003,0.68161,0.23392
-0.27519,0.92588,-0.25887,-0.13941,0.86016,-0.17384
-0.27678,0.92728,-0.25208,-0.01141,0.25833,-0.23667
-0.27517,0.92762,-0.2526,-0.10902,-0.39167,0.0857
-0.27657,0.92912,-0.24543,-0.06215,-0.25154,0.36604
-0.27656,0.93158,-0.23596,0.01648,0.09186,0.22734
-0.27501,0.9349,-0.22432,-0.05843,0.12384,-0.04061
-0.27537,0.93804,-0.21035,0.05619,0.06524,-0.02218
-0.27744,0.93929,-0.2019,0.07845,0.0139,-0.01221
-0.2797,0.93933,-0.19855,0.04742,0.01418,0.0022
-0.28071,0.93894,-0.19899,-0.01677,-0.04828,0.03297
-0.28111,0.93818,-0.20198,-0.00554,-0.15217,0.00074
-0.28177,0.9374,-0.20467,0.02681,-0.15,-0.01944
-0.28199,0.93605,-0.21043,0.11033,-0.16686,-0.08972
-0.28141,0.93397,-0.22024,0.0714,-0.33866,-0.03549
-0.28169,0.93095,-0.23232,-0.02179,-0.22076,-0.07551
-0.28241,0.92678,-0.24764,0.00375,0.02436,-0.10419
-0.28211,0.92266,-0.26289,0.16462,-0.36587,0.19251
-0.28542,0.91778,-0.27606,0.22564,-0.4154,0.36914
-0.29044,0.91235,-0.28855,0.15288,-0.16742,0.10169
-0.29687,0.90582,-0.30225,0.07078,0.02767,-0.04977
-0.30192,0.89891,-0.31748,0.17578,-0.0998,0.09952
-0.30482,0.89246,-0.33257,0.03697,-0.24434,-0.05016
-0.31036,0.88698,-0.34196,0.11676,-0.02735,-0.14702
-0.31444,0.88583,-0.34122,0.23689,0.27626,-0.19342
-0.31412,0.886,-0.34107,0.25544,0.17505,-0.071
-0.30967,0.8851,-0.34742,0.09135,-0.07918,-0.13107
-0.30829,0.87769,-0.36689,-0.03992,0.01461,-0.09603
-0.30508,0.86638,-0.39537,-0.16155,0.08362,0.1573
-0.30078,0.84977,-0.43291,-0.48117,0.19278,0.00456
-0.29418,0.82918,-0.4753,-0.48412,0.28776,0.05558
-0.28358,0.80681,-0.5183,-0.15706,0.67262,0.06032
-0.27108,0.78231,-0.56081,-0.25126,0.76591,0.04173
-0.25704,0.75913,-0.59804,-0.39122,0.85728,-0.0611
-0.23545,0.74245,-0.62716,-0.51975,0.0764,-0.24557
-0.20483,0.73792,-0.64305,-0.21564,-0.19196,0.08081
-0.18683,0.73367,-0.65332,-0.09309,0.11818,0.1905
-0.18144,0.72232,-0.66733,0.26627,0.24119,0.24288
-0.18649,0.71394,-0.67491,0.11061,-0.17669,0.2086
-0.20395,0.7081,-0.67601,-0.29396,-0.21045,0.1915
-0.22351,0.70563,-0.67241,-0.41742,-0.23883,0.22612
-0.24005,0.706,-0.66629,-0.14884,-0.26307,0.27168
-0.24971,0.7107,-0.65769,0.0766,-0.29983,0.23831
-0.25644,0.72249,-0.64206,0.06732,-0.29201,0.18709
-0.26346,0.73965,-0.61927,0.01901,-0.30041,0.21925
-0.27069,0.75877,-0.59244,0.02022,-0.35217,0.18299
-0.27778,0.77763,-0.56402,0.1351,-0.33275,0.13986
-0.28473,0.79617,-0.53389,0.16023,-0.16399,0.0953
-0.29309,0.81519,-0.49956,0.10685,-0.1067,0.10211
-0.29966,0.83132,-0.46808,0.08651,-0.17532,0.11457
-0.30488,0.84316,-0.44287,0.08818,-0.1372,0.03726
-0.31061,0.85142,-0.42261,0.04206,-0.12428,-0.10839
-0.3151,0.85807,-0.40549,0.08553,-0.17769,-0.19144
-0.31479,0.86484,-0.39109,0.16938,-0.14943,-0.01986
-0.31266,0.87191,-0.37683,0.13125,-0.09309,0.03285
-0.31418,0.8769,-0.36378,0.07549,-0.03885,-0.10506
-0.31724,0.87992,-0.35368,-0.26323,0.20682,-0.31081
-0.31801,0.88103,-0.35022,-0.5303,0.70619,-0.44604
-0.31853,0.8794,-0.35383,-0.67679,0.78982,0.46131
-0.3211,0.88214,-0.34458,-0.33973,0.20517,0.8121
-0.31774,0.87785,-0.35834,0.18386,-0.37915,0.15456
-0.31017,0.87618,-0.36893,0.33548,-0.20562,0.18442
-0.29949,0.89024,-0.34319,-0.05645,0.7398,0.48235
-0.28718,0.90604,-0.31082,-0.43604,1.73113,-0.50648
-0.28679,0.9111,-0.29605,0.26341,0.91603,-0.23842
-0.27365,0.90969,-0.31237,-0.534,-0.85653,0.15934
-0.2809,0.90633,-0.3157,-0.30763,-0.63069,0.39245
-0.28695,0.91015,-0.29881,0.14539,0.48031,0.44856
-0.28667,0.9177,-0.27505,0.10889,-0.00804,0.10807
-0.2888,0.92592,-0.24342,0.14822,-0.11696,0.08731
-0.29347,0.92983,-0.22202,0.10745,-0.07474,-0.10667
-0.29981,0.9301,-0.21221,-0.03443,-0.00819,-0.2484
-0.30631,0.92987,-0.20374,0.0441,-0.0777,-0.03852
-0.31248,0.92939,-0.19645,0.18078,-0.09862,-0.01222
-0.31661,0.92896,-0.19182,0.24079,-0.05133,-0.13455
-0.31768,0.9283,-0.19321,0.19309,-0.07454,-0.18089
-0.31842,0.92602,-0.20272,0.13786,-0.14575,-0.12919
-0.31894,0.92196,-0.2197,0.1496,-0.33526,-0.01578
-0.31975,0.91591,-0.24262,0.12877,-0.37497,0.0022
-0.32432,0.90874,-0.26269,0.22568,-0.02181,0.09403
-0.33047,0.90215,-0.27735,0.30766,0.05519,0.17679
-0.33387,0.89737,-0.28853,0.30798,0.01246,0.21953
-0.33689,0.89214,-0.30099,0.14543,-0.22876,-0.0644
-0.34103,0.8862,-0.3136,0.14813,-0.24342,0.05066
-0.34738,0.88164,-0.31942,0.13213,0.09915,-0.03281
-0.3549,0.87742,-0.32277,0.28921,0.06124,0.05693
-0.35862,0.87423,-0.32729,0.21922,-0.1374,0.08263
-0.36092,0.8709,-0.33356,0.03373,-0.12872,-0.05362
-0.36284,0.86842,-0.33792,0.25536,0.20465,0.02076
-0.36218,0.86637,-0.34383,0.12318,0.24578,0.12296
-0.36011,0.8599,-0.36179,-0.20016,0.11015,0.01759
-0.35539,0.84738,-0.39451,-0.30846,0.30752,0.17947
-0.34849,0.83173,-0.43217,-0.41837,0.64848,-0.0535
-0.33815,0.81468,-0.47111,-0.29894,0.59723,-0.04088
-0.32515,0.79652,-0.50974,-0.55144,1.03211,0.15486
-0.31007,0.77953,-0.54423,-0.69762,0.78834,-0.16688
-0.29096,0.76053,-0.58047,-0.43808,0.05153,-0.14988
-0.26672,0.74393,-0.61272,-0.02147,-0.01296,0.14309
-0.2539,0.73093,-0.63346,0.01122,0.44721,0.08594
-0.25495,0.71436,-0.65168,-0.00662,0.51616,0.07222
-0.25975,0.69967,-0.66558,-0.1502,-0.27997,0.35831
-0.2689,0.68888,-0.67315,-0.23839,-0.40803,0.38116
-0.28386,0.67965,-0.67639,-0.32624,-0.42245,0.40715
-0.29692,0.67445,-0.67599,-0.09125,-0.33537,0.34824
-0.3049,0.67407,-0.6728,0.07812,-0.32471,0.17939
-0.30867,0.67986,-0.66521,0.06485,-0.35282,0.14742
-0.31137,0.69112,-0.65223,0.04775,-0.36095,0.15427
-0.31444,0.70676,-0.63372,0.14063,-0.34989,0.26629
-0.31856,0.72578,-0.60972,0.19228,-0.37869,0.3009
-0.32332,0.74563,-0.58267,0.28832,-0.37484,0.23075
-0.32992,0.76518,-0.55285,0.23848,-0.25844,0.14969
-0.34003,0.78511,-0.51767,0.05281,-0.17381,0.06068
-0.35209,0.80511,-0.47731,-0.03861,-0.09434,-0.01744
-0.36127,0.82219,-0.43987,0.08185,-0.0732,-0.17804
-0.36612,0.83575,-0.40924,0.19165,0.06852,-0.29893
-0.36486,0.84856,-0.38317,0.12058,0.09331,-0.26025
-0.35857,0.86241,-0.35732,-0.06822,-0.07827,-0.08766
-0.356,0.87145,-0.33741,-0.05684,-0.10558,-0.11087
-0.35742,0.87673,-0.32186,-0.08224,0.04842,-0.21501
-0.36048,0.88185,-0.30396,-0.21337,0.43874,-0.36979
-0.36682,0.88701,-0.28045,-0.25035,0.6328,-0.03929
-0.36768,0.89412,-0.25566,-0.41296,0.51503,0.52645
-0.37203,0.89378,-0.25049,0.22986,-0.09863,0.0116
-0.37058,0.89419,-0.25119,0.37299,-0.18244,0.13617
-0.36096,0.90059,-0.24216,-0.03415,0.59934,0.34586
-0.35095,0.90937,-0.22332,-0.14827,0.94837,0.03816
-0.34622,0.91427,-0.21033,-0.07734,0.37371,-0.0839
-0.34178,0.91621,-0.20914,-0.40693,-0.48385,0.20689
-0.34296,0.91569,-0.20948,-0.29295,-0.35662,0.40772
-0.34526,0.91717,-0.19898,-0.01009,0.05566,0.35689
-0.34674,0.91943,-0.18551,-0.09908,-0.0928,0.18166
-0.35063,0.92142,-0.16746,0.05247,-0.06992,0.06483
-0.35656,0.92205,-0.15063,0.2726,0.04786,-0.10633
-0.36268,0.92138,-0.13969,0.24997,0.07532,-0.13275
-0.3697,0.91974,-0.13191,0.19993,0.03264,-0.11263
-0.37632,0.91759,-0.12806,0.21296,-0.08971,-0.13408
-0.38044,0.91564,-0.12983,0.18542,-0.24094,-0.25565
-0.38307,0.91351,-0.1369,0.16064,-0.19498,-0.27686
-0.38643,0.9105,-0.14713,0.17885,-0.13868,-0.20582
-0.38951,0.9064,-0.16345,0.2476,-0.255,-0.07065
-0.39321,0.90118,-0.18237,0.24078,-0.26586,-0.08591
-0.39931,0.89444,-0.20129,0.2381,-0.21129,-0.12983
-0.40727,0.88813,-0.21296,0.43204,-0.03922,0.27435
-0.41359,0.88476,-0.21479,0.3884,-0.02847,0.23859
-0.42062,0.88061,-0.21816,0.24051,-0.10924,0.02106
-0.42741,0.87648,-0.2216,0.21706,-0.00882,-0.00902
-0.43441,0.8728,-0.22247,0.19776,0.00169,-0.03599
-0.44216,0.86996,-0.21832,0.27516,0.07451,-0.00435
-0.44904,0.86739,-0.21445,0.20582,0.12579,-0.0086
-0.45544,0.86204,-0.22237,-0.10979,0.11145,-0.28518
-0.46002,0.852,-0.24993,-0.14624,0.20024,-0.24154
-0.46303,0.8403,-0.28196,-0.14058,0.40917,0.1247
-0.45913,0.82845,-0.32072,-0.20072,0.4483,-0.0393
-0.44751,0.81686,-0.36397,-0.23593,0.71918,0.08534
-0.4299,0.80697,-0.40494,-0.27495,1.15136,0.0459
-0.4095,0.80061,-0.43741,-0.39083,0.32106,-0.09269
-0.39226,0.79485,-0.46298,-0.56903,-0.1306,0.08795
-0.37579,0.78795,-0.48776,-0.52146,0.28526,0.19625
-0.36303,0.77514,-0.51706,0.09402,0.15198,0.21398
-0.35087,0.76338,-0.54234,0.11452,0.0103,0.12544
-0.3448,0.75718,-0.55479,0.01033,-0.08244,0.23994
-0.34673,0.7541,-0.55777,-0.15656,-0.10412,0.38592
-0.35545,0.75054,-0.55709,-0.22186,-0.20142,0.3788
-0.36966,0.7471,-0.55244,-0.16474,-0.37538,0.36615
-0.38166,0.74545,-0.54648,0.17287,-0.43777,0.21959
-0.38827,0.74978,-0.5358,0.25646,-0.39919,0.20026
-0.39319,0.75859,-0.51956,0.11156,-0.34902,0.09743
-0.40009,0.76984,-0.49726,0.08702,-0.41912,-0.00506
-0.40979,0.78217,-0.46933,0.09561,-0.44734,-0.02208
-0.41955,0.79414,-0.43969,0.12507,-0.24342,0.09087
-0.43107,0.80358,-0.41041,0.14403,-0.1256,0.05694
-0.44276,0.81071,-0.38302,0.09729,0.21396,-0.13111
-0.44704,0.81464,-0.36948,0.11021,0.08488,-0.46005
-0.44096,0.81328,-0.37964,0.12483,0.01913,-0.63925
-0.42865,0.80878,-0.40265,0.10495,-0.3041,-0.58736
-0.42116,0.80415,-0.41947,-0.27987,0.3035,-0.45954
-0.42633,0.78876,-0.44283,-0.16126,0.87564,0.02097
-0.41708,0.76165,-0.49592,-0.05523,0.10325,1.56164
-0.42884,0.76846,-0.47492,0.27491,-0.08441,1.13195
-0.42796,0.77844,-0.45922,0.61431,0.47196,0.4407
-0.41794,0.79685,-0.4363,-1.13824,3.87164,-1.66381
-0.45185,0.79024,-0.41396,0.21611,0.30104,0.94498
-0.43335,0.79739,-0.41997,-0.03373,-0.50625,0.37553
-0.43648,0.80687,-0.39805,-0.27598,-0.0146,0.25593
-0.44525,0.81929,-0.36128,-0.43427,0.35346,0.31895
-0.45244,0.83321,-0.31789,-0.30899,0.16983,0.24271
-0.45912,0.84614,-0.27064,-0.05601,-0.16281,0.25238
-0.47,0.85277,-0.22774,0.20967,-0.33402,-0.00855
-0.47945,0.85488,-0.19825,0.28576,-0.19065,-0.05666
-0.48776,0.85481,-0.17717,0.30863,-0.11257,-0.04977
-0.49602,0.85404,-0.15675,0.23248,-0.13182,0.05253
-0.5037,0.85354,-0.13322,0.28695,-0.0292,-0.10419
-0.51074,0.85298,-0.1075,0.29242,0.00166,-0.14018
-0.51626,0.85239,-0.08305,0.24807,0.03801,-0.18059
-0.52073,0.85149,-0.06159,0.11173,0.06753,-0.34405
-0.52513,0.85,-0.04173,0.14766,0.08982,-0.30378
-0.52996,0.84756,-0.02782,0.11552,0.22197,-0.0351
-0.53433,0.84499,-0.02187,0.05364,0.2771,-0.01121
-0.53807,0.84274,-0.01636,0.10702,0.27463,-0.14033
-0.54238,0.83995,-0.01754,0.15239,0.39014,-0.31058
-0.54593,0.8375,-0.0232,0.26879,0.38346,-0.39648
-0.54859,0.83529,-0.03645,0.35963,0.34528,-0.30753
-0.55047,0.83261,-0.06106,0.35195,0.3027,0.0021
-0.5507,0.82905,-0.09696,0.2025,0.19448,0.13356
-0.55042,0.82273,-0.14192,-0.0005,0.14751,0.11726
-0.54772,0.8133,-0.19633,-0.1324,0.40623,0.08178
-0.53646,0.80429,-0.25561,-0.07672,0.57619,0.23275
-0.51761,0.7933,-0.32053,-0.03343,0.64195,0.26958
-0.49578,0.7853,-0.37081,0.11916,0.48028,0.34421
-0.47686,0.78096,-0.40335,0.12684,0.29907,0.44589
-0.46741,0.77384,-0.42742,0.10241,0.25889,0.46454
-0.46539,0.75937,-0.45471,0.10313,0.15138,0.48458
-0.46643,0.73998,-0.48463,-0.02086,-0.04409,0.35003
-0.46652,0.7197,-0.51418,-0.0079,-0.06185,0.3264
-0.46613,0.70128,-0.53937,-0.01371,-0.04979,0.26781
-0.46507,0.68865,-0.5563,0.03747,-0.01735,0.30473
-0.46629,0.68109,-0.56452,0.10173,-0.01126,0.341
-0.47032,0.67805,-0.56483,0.0379,-0.09047,0.24329
-0.47171,0.68124,-0.55983,0.08895,-0.07214,0.23954
-0.46923,0.68955,-0.55168,0.11492,-0.07624,0.23123
-0.46648,0.70064,-0.5399,0.14508,-0.1001,0.25492
-0.4661,0.71258,-0.52438,0.09792,-0.12625,0.20851
-0.46753,0.72527,-0.50536,0.05362,-0.11577,0.06644
-0.4715,0.73895,-0.48128,0.099,-0.03932,0.03459
-0.47932,0.75254,-0.45158,0.12657,-0.00966,-0.00736
-0.49111,0.76548,-0.41574,-0.03011,-0.03736,-0.22435
-0.50365,0.77394,-0.38386,0.10102,0.50148,-0.43486
-0.51065,0.77249,-0.37747,0.20548,0.59366,-0.56313
-0.50223,0.76504,-0.40308,0.42212,0.34121,-0.51094
-0.49534,0.75904,-0.42248,0.6987,0.11403,0.00793
-0.49069,0.76426,-0.41849,0.76597,-0.07938,0.25581
-0.48464,0.77638,-0.40293,0.42264,-0.01451,0.10037
-0.47646,0.79093,-0.38394,-0.07656,0.31724,-0.05905
-0.47162,0.80251,-0.36544,-0.84869,1.12635,0.22457
-0.47504,0.80757,-0.34951,0.00686,-0.12883,0.80355
-0.47835,0.80924,-0.34103,0.08579,-0.53812,0.42175
-0.49576,0.80259,-0.33176,-0.06839,0.11767,0.3382
-0.5189,0.79434,-0.31584,-0.12081,0.35513,0.18604
-0.53171,0.79462,-0.29301,-0.00607,0.4134,0.18928
-0.53056,0.80318,-0.27092,0.06764,-0.00428,0.17581
-0.52851,0.81218,-0.24706,0.06415,-0.01468,0.13762
-0.52909,0.81936,-0.22068,0.11548,0.04598,0.12828
-0.53167,0.82449,-0.19374,0.19898,0.02447,0.1252
-0.5344,0.82834,-0.16811,0.17451,-0.03638,0.01366
-0.53812,0.83107,-0.14047,0.13573,0.00952,-0.03964
-0.54211,0.83277,-0.11223,0.17871,0.13059,-0.02409
-0.54534,0.83386,-0.08533,0.21856,0.09574,-0.01868
-0.54802,0.8343,-0.06001,0.19102,-0.02725,-0.03645
-0.55033,0.83413,-0.03687,0.16855,-0.06162,-0.06194
-0.55229,0.83349,-0.01618,0.17728,0.05167,-0.12608
-0.55443,0.83221,0.00381,0.20387,0.11981,-0.16485
-0.55725,0.83004,0.0221,0.1974,0.19639,-0.16184
-0.56024,0.82747,0.03755,0.19523,0.14855,-0.18672
-0.56215,0.8254,0.05183,0.18625,0.13617,-0.24907
-0.56255,0.82424,0.06448,0.03656,0.21211,-0.31624
-0.56193,0.82421,0.07008,0.03312,0.19481,-0.29913
-0.56039,0.82549,0.06729,0.11864,0.22302,-0.13365
-0.55814,0.82745,0.06153,0.01247,0.26755,-0.03256
-0.55495,0.83014,0.05378,0.02698,0.27829,-0.13407
-0.55173,0.8331,0.03912,0.16518,0.34667,-0.17384
-0.54833,0.83613,0.01428,0.16604,0.31597,-0.12885
-0.54596,0.83743,-0.02488,0.09398,0.19705,-0.06147
-0.54485,0.83454,-0.08174,-0.10692,0.17277,0.10299
-0.5419,0.82698,-0.14979,-0.17537,0.22893,0.11715
-0.53414,0.81737,-0.21584,-0.22381,0.25552,-0.01615
-0.52095,0.80979,-0.26988,0.07192,0.3055,0.23971
-0.504,0.80473,-0.31366,0.0232,0.27043,0.29884
-0.49177,0.79639,-0.35202,-0.00156,0.23181,0.31512
-0.48526,0.78285,-0.38944,0.03011,0.08196,0.25851
-0.48025,0.76598,-0.42735,1e-05,-0.02727,0.20631
-0.47424,0.74865,-0.46328,-0.02342,-0.08313,0.12609
-0.46749,0.7332,-0.49383,-0.02211,-0.05739,0.08991
-0.46142,0.721,-0.51695,-0.01552,-0.13628,0.28623
-0.45817,0.70994,-0.53484,0.12829,-0.1821,0.18025
-0.45833,0.70347,-0.54319,0.01636,-0.34138,0.26194
-0.46212,0.70156,-0.54245,0.10989,-0.38399,0.17473
-0.46648,0.70626,-0.53252,0.15853,-0.34292,0.08546
-0.47018,0.71536,-0.51689,0.2446,-0.26129,0.04291
-0.47357,0.72613,-0.49847,0.28583,-0.25657,0.02251
-0.4758,0.73715,-0.47982,0.15903,-0.44622,0.1624
-0.48919,0.74588,-0.45206,0.41946,-0.57981,0.20146
-0.50255,0.75505,-0.42112,0.28955,-0.365,0.07104
-0.51261,0.7652,-0.38947,0.25169,-0.28377,-0.11932
-0.51743,0.77552,-0.36171,0.30318,-0.28362,-0.27266
-0.51776,0.7869,-0.33571,0.23889,-0.12066,-0.20651
-0.51292,0.79886,-0.3142,0.27302,0.03306,-0.14643
-0.50563,0.80896,-0.29986,-0.00098,0.15269,-0.1228
-0.49658,0.81756,-0.29155,-0.07556,-0.12918,-0.27011
-0.49114,0.82275,-0.2861,-0.02901,-0.26974,-0.27029
-0.49112,0.82207,-0.28809,0.18192,-0.03336,-0.54226
-0.48824,0.81335,-0.31635,0.09711,0.04702,0.27482
-0.4848,0.81125,-0.32686,-0.71814,0.13003,0.96673
-0.49062,0.81741,-0.30186,0.14603,0.54384,0.77902
-0.47675,0.82293,-0.30902,-0.1047,0.55941,-0.22589
-0.46122,0.83576,-0.29794,-0.42258,1.16592,-0.53435
-0.47198,0.8328,-0.28926,-0.38656,2.62203,-0.97477
-0.45852,0.82866,-0.32104,-0.08593,-0.48774,0.39434
-0.4535,0.82926,-0.32658,-0.26844,-0.38598,0.30203
-0.46044,0.82981,-0.31527,-0.18507,0.15198,0.17648
-0.46231,0.83553,-0.2969,0.16681,0.01882,0.21876
-0.4651,0.84446,-0.26562,0.29684,0.02321,0.13989
-0.46611,0.85455,-0.22907,0.25334,0.12651,-0.24713
-0.46786,0.85959,-0.20545,0.20007,0.00842,-0.54983
-0.46899,0.86152,-0.19447,0.20395,-0.46981,-0.21513
-0.47012,0.8631,-0.18449,0.20914,-0.49597,-0.19016
-0.47285,0.86314,-0.17718,0.27678,-0.38838,-0.17242
-0.47537,0.86301,-0.17096,0.34205,-0.30906,-0.17002
-0.47494,0.86364,-0.16897,0.40837,-0.28165,-0.14323
-0.47259,0.86519,-0.16762,0.36216,-0.29752,-0.0638
-0.46786,0.86786,-0.16707,0.42572,-0.22313,0.01761
-0.46377,0.87031,-0.16575,0.45339,0.03416,0.04316
-0.46447,0.86928,-0.16917,0.27257,-0.09886,0.00366
-0.4657,0.86807,-0.17194,0.21555,0.02226,-0.00707
-0.46889,0.86553,-0.17607,0.05574,-0.07619,0.00421
-0.4742,0.85862,-0.19468,-0.16268,0.3007,-0.24794
-0.48045,0.84602,-0.2311,-0.22081,0.33971,-0.28247
-0.48719,0.82964,-0.27265,-0.13988,0.41691,-0.00697
-0.48955,0.8121,-0.31754,-0.35589,0.81251,-0.12724
-0.48941,0.79288,-0.36306,-0.43974,0.94395,-0.15519
-0.49055,0.77261,-0.40301,-0.54997,0.68153,-0.0042
-0.49055,0.74982,-0.44399,-0.51079,0.33082,-0.02785
-0.48557,0.73101,-0.47942,-0.36979,0.05179,-0.0261
-0.47418,0.7172,-0.51066,-0.09801,0.11166,-0.33396
-0.46936,0.7067,-0.5294,-0.04262,0.22071,-0.11675
-0.45983,0.70641,-0.53808,0.04455,0.08433,0.17064
-0.45022,0.71344,-0.53694,0.03702,-0.22056,0.51605
-0.44849,0.71832,-0.53185,0.01323,-0.39534,0.56925
-0.4505,0.71979,-0.52816,-0.04271,-0.45254,0.28663
-0.45366,0.72535,-0.51774,0.05479,-0.58549,0.10637
-0.4595,0.7399,-0.49132,0.07025,-0.53026,0.07119
-0.46405,0.7607,-0.45386,0.21682,-0.41441,0.09073
-0.46691,0.78379,-0.40947,0.3224,-0.31944,0.1529
-0.47111,0.80391,-0.36302,0.21216,-0.31308,0.21206
-0.47431,0.81884,-0.32328,0.06268,-0.36694,0.10148
-0.47977,0.8291,-0.28707,-0.0112,-0.28215,0.0097
-0.48736,0.83494,-0.25562,-0.03508,-0.09208,-0.29321
-0.49301,0.838,-0.23386,0.15803,-0.05052,-0.58578
-0.49221,0.841,-0.22457,0.23469,-0.1616,-0.53483
-0.48297,0.84494,-0.2298,0.15371,-0.29311,-0.21542
-0.47167,0.84805,-0.2415,0.08576,-0.32691,-0.05258
-0.46775,0.84707,-0.25232,-0.03892,-0.37024,0.19667
-0.47711,0.84474,-0.24241,-0.39275,1.13241,0.26555
-0.49538,0.84063,-0.21895,0.00455,1.10603,0.27873
-0.48714,0.8442,-0.22363,0.33501,-0.15918,0.44464
-0.47755,0.85291,-0.2109,-0.04734,0.33494,-0.03097
-0.46978,0.86249,-0.18818,0.13714,0.96012,0.01161
-0.45496,0.87483,-0.16636,-0.53221,2.50658,-0.9573
-0.45962,0.87375,-0.15906,-0.15201,-0.43591,0.04668
-0.44501,0.87474,-0.19179,-0.55142,-0.98698,0.12208
-0.44597,0.8743,-0.19159,0.10951,0.33437,0.20041
-0.44521,0.87829,-0.17433,0.35384,0.74983,0.26178
-0.44297,0.88524,-0.14186,0.28272,0.16184,0.33185
-0.44475,0.8908,-0.09307,0.14678,-0.39205,0.15914
-0.44642,0.89231,-0.06696,0.0538,-0.17531,-0.37939
-0.45231,0.89054,-0.04839,0.11459,-0.06719,-0.11998
-0.45963,0.88777,-0.02423,0.1655,-0.11459,0.04702
-0.46555,0.88499,-0.00698,0.24078,-0.24719,-0.10197
-0.46942,0.88296,0.00357,0.27945,-0.22045,-0.32141
-0.47201,0.88157,0.00449,0.17585,0.00189,-0.69773
-0.47466,0.88011,-0.00884,0.16035,-0.03321,-0.62925
-0.47781,0.87786,-0.03229,0.18584,-0.12397,-0.47165
-0.47976,0.87565,-0.05527,0.36076,-0.33549,0.16623
-0.48259,0.87207,-0.0812,0.34526,-0.35097,0.10098
-0.48649,0.86706,-0.1073,0.34906,-0.25937,0.02465
-0.48918,0.86396,-0.11941,0.36647,0.1894,-0.13364
-0.48806,0.86336,-0.12804,0.26459,-0.05527,-0.08929
-0.48522,0.86306,-0.14028,0.1254,-0.32729,-0.06152
-0.48555,0.86063,-0.15347,0.13469,-0.11752,-0.13044
-0.48849,0.8575,-0.16142,0.17741,0.23603,-0.14966
-0.49141,0.85299,-0.17583,0.06009,0.36701,-0.17104
-0.492,0.84703,-0.20119,-0.14078,0.09194,-0.07854
-0.49362,0.8344,-0.24516,-0.52584,0.72106,-0.18765
-0.49436,0.81705,-0.29668,-0.44965,0.79208,-0.21548
-0.48928,0.80019,-0.34683,-0.39563,0.68926,-0.13501
-0.48309,0.77983,-0.39811,-0.35711,0.90427,0.0203
-0.47789,0.75767,-0.44447,-0.37978,0.60579,-0.00726
-0.46901,0.7371,-0.48653,-0.44833,-0.05475,-0.24656
-0.46328,0.71575,-0.52255,-0.34186,0.18696,-0.31127
-0.45766,0.69862,-0.54997,-0.01339,0.09534,-0.13635
-0.44489,0.69422,-0.5658,0.11376,-0.12264,0.11591
-0.43715,0.69606,-0.56956,0.07495,-0.24734,0.4749
-0.44012,0.69462,-0.56903,0.05395,-0.28007,0.55341
-0.44869,0.6899,-0.56807,-0.10506,-0.51853,0.44991
-0.45774,0.68894,-0.56199,-0.01896,-0.66185,0.23003
-0.46865,0.6981,-0.54132,0.11739,-0.53222,0.04716
-0.47884,0.71662,-0.5071,0.19079,-0.46322,0.08388
-0.48566,0.74016,-0.46508,0.26423,-0.41537,0.11367
-0.49024,0.76484,-0.41796,0.26592,-0.46534,0.07706
-0.49321,0.78712,-0.37037,0.18802,-0.47888,0.06283
-0.49899,0.80444,-0.3223,-0.03614,-0.15897,0.0717
-0.50457,0.81624,-0.28135,0.00764,0.06005,-0.14469
-0.50931,0.82389,-0.24859,0.03881,0.02145,-0.2803
-0.51073,0.82848,-0.22972,0.05316,-0.03559,-0.35717
-0.50765,0.83217,-0.22309,0.07606,-0.13984,-0.3365
-0.50286,0.83556,-0.2213,0.00638,-0.12759,-0.26618
-0.50018,0.83677,-0.22277,-0.04405,-0.07297,-0.23134
-0.49906,0.83647,-0.2264,-0.21202,0.30202,-0.10945
-0.50612,0.83808,-0.2036,0.08553,0.90443,0.69474
-0.51165,0.84068,-0.17739,-0.1289,0.33166,0.44796
-0.51158,0.83939,-0.18361,-0.06797,-0.36414,-0.27457
-0.50579,0.844,-0.17843,0.16241,0.48942,-0.0257
-0.49237,0.85538,-0.16087,-0.28802,1.4325,0.06326
-0.48211,0.86509,-0.13853,-0.29479,0.3533,0.01435
-0.47255,0.87163,-0.13019,-0.10295,-0.06024,-0.04094
-0.47201,0.87176,-0.13128,-0.0992,-0.0772,0.01433
-0.47406,0.87049,-0.13231,-0.03961,0.10499,-0.00481
-0.47293,0.8722,-0.12487,0.2836,0.35659,0.03984
-0.47179,0.87511,-0.1076,0.17922,0.04456,0.03541
-0.47222,0.87687,-0.09003,0.15021,-0.12778,-0.06558
-0.47495,0.87665,-0.07683,0.1532,-0.21187,-0.25606
-0.47878,0.87495,-0.07228,0.12541,-0.2641,-0.28145
-0.48378,0.87237,-0.07015,0.13809,-0.27314,-0.25903
-0.4884,0.86975,-0.07058,0.34568,-0.10295,-0.24843
-0.49017,0.86822,-0.07689,0.38528,-0.14854,-0.4804
-0.49044,0.86685,-0.08956,0.34934,-0.24739,-0.54542
-0.49404,0.86345,-0.10181,0.29903,-0.36263,-0.13168
-0.49923,0.85936,-0.11069,0.46815,-0.00969,0.11675
-0.50307,0.85555,-0.12222,0.41877,-0.20519,0.03828
-0.50597,0.85231,-0.13245,0.30507,-0.30835,-0.01361
-0.50916,0.84978,-0.13644,0.25041,-0.12014,0.04424
-0.51491,0.84612,-0.13758,0.09485,-0.14057,0.02662
-0.52307,0.83998,-0.14426,0.07025,-0.02664,-0.02558
-0.5289,0.83179,-0.16848,-0.2041,0.27542,-0.40377
-0.52982,0.82168,-0.21004,-0.05642,0.31023,-0.10381
-0.52717,0.81084,-0.2542,-0.358,0.78851,-0.02546
-0.52145,0.79746,-0.30355,-0.64904,0.773,-0.28631
-0.51036,0.78389,-0.35362,-0.55071,0.39844,-0.23805
-0.50025,0.76908,-0.39782,-0.34028,0.61081,0.1563
-0.48873,0.75364,-0.43951,-0.30809,0.59123,-0.01994
-0.47782,0.74068,-0.4723,-0.39719,0.04159,-0.08094
-0.46694,0.73067,-0.49808,-0.45971,-0.00475,-0.11456
-0.45737,0.72163,-0.51966,-0.12219,0.07175,0.04093
-0.44986,0.71523,-0.53485,0.12166,0.00415,0.09297
-0.44739,0.71344,-0.5393,0.10797,-0.11502,0.1589
-0.45062,0.71607,-0.53308,-0.00614,-0.25683,0.30288
-0.45747,0.72132,-0.52001,-0.03794,-0.47906,0.38577
-0.46529,0.72864,-0.50258,0.11973,-0.59824,0.30076
-0.47223,0.73958,-0.4796,0.12222,-0.55174,0.21265
-0.4793,0.75635,-0.44519,0.07609,-0.52628,0.12796
-0.48609,0.77819,-0.39765,0.31604,-0.39621,0.03075
-0.49128,0.80278,-0.33791,0.37897,-0.32115,0.04661
-0.49961,0.82059,-0.27753,0.21994,-0.28355,0.08392
-0.50994,0.82916,-0.229,-0.07449,-0.14331,-0.15054
-0.51638,0.83224,-0.20181,-0.10839,-0.03985,-0.52997
-0.51235,0.8337,-0.20597,-0.12129,-0.28856,-0.6711
-0.50462,0.83484,-0.21998,0.04893,-0.3786,-0.07242
-0.50095,0.83433,-0.23008,0.17461,-0.26319,0.20208
-0.49929,0.8331,-0.23801,-0.16091,0.05709,-0.20022
-0.50411,0.83125,-0.23427,-0.17707,0.96648,-0.02978
-0.51015,0.83221,-0.21715,0.14321,0.60632,0.49622
-0.50452,0.83549,-0.21775,-0.00442,-0.38952,0.26792
-0.50323,0.8398,-0.20368,-0.28667,0.54068,-0.07206
-0.49751,0.84751,-0.18493,0.11046,0.72608,0.02307
-0.47736,0.863,-0.16534,-0.27476,0.95255,-0.21268
-0.46372,0.87456,-0.14176,-0.25513,1.46562,-0.40649
-0.453,0.87821,-0.15339,0.03201,0.45675,-0.29221
-0.44586,0.87708,-0.17867,-0.23606,-0.89199,-0.02356
-0.45156,0.87547,-0.17215,0.18382,0.20865,0.35339
-0.45105,0.87951,-0.15167,0.21116,0.62237,0.17586
-0.44611,0.88743,-0.11592,0.09045,-0.01588,0.0567
-0.44321,0.89226,-0.08613,0.05505,-0.28259,-0.12569
-0.44483,0.89219,-0.0782,0.0038,-0.16376,-0.3609
-0.45039,0.89,-0.07095,0.10139,-0.08232,-0.16443
-0.45537,0.88762,-0.06891,0.17502,-0.1185,-0.10186
-0.4583,0.8861,-0.06903,0.33494,-0.2353,-0.25006
-0.45926,0.88571,-0.06772,0.38402,-0.23567,-0.21835
-0.45935,0.88524,-0.07306,0.23976,-0.2795,-0.33633
-0.46167,0.88263,-0.08839,0.0857,-0.3083,-0.3747
-0.46723,0.87809,-0.10314,0.23057,-0.2604,-0.05376
-0.47221,0.87497,-0.10692,0.40096,-0.04112,0.25005
-0.47753,0.87196,-0.10789,0.3753,-0.04948,0.06376
-0.48307,0.86759,-0.11797,0.0562,-0.32709,-0.20686
-0.49055,0.86196,-0.12793,-0.0419,-0.19785,-0.18335
-0.49788,0.85741,-0.13019,0.11048,0.24112,-0.20097
-0.4998,0.85626,-0.13038,0.23436,0.23454,-0.14666
-0.49924,0.85419,-0.14528,-0.01895,0.09529,-0.24243
-0.49773,0.84777,-0.18313,-0.26469,0.08636,-0.19622
-0.49696,0.83715,-0.22847,-0.33731,0.18542,0.04855
-0.49454,0.82259,-0.28065,-0.65105,0.73167,-0.25882
-0.48492,0.80921,-0.33171,-0.18638,0.57461,-0.04
-0.47207,0.7953,-0.38032,-0.21931,0.58308,0.03591
-0.46328,0.77829,-0.42382,-0.32323,0.61243,-0.05044
-0.45373,0.7631,-0.46021,-0.32284,0.31441,-0.09157
-0.4415,0.7516,-0.49006,-0.31077,-0.17896,-0.15711
-0.4365,0.74051,-0.51099,0.11697,-0.02254,0.19463
-0.44002,0.72989,-0.5231,0.16144,-0.06279,0.29973
-0.44825,0.72145,-0.5278,0.15003,-0.14894,0.38563
-0.4598,0.71468,-0.52708,-0.12023,-0.45101,0.39555
-0.47253,0.711,-0.52076,-0.19103,-0.54108,0.36038
-0.48434,0.71211,-0.50823,-0.10251,-0.61644,0.26908
-0.49593,0.71879,-0.48723,0.14786,-0.45589,0.14661
-0.50822,0.7314,-0.45471,0.18172,-0.42717,0.10342
-0.51888,0.74898,-0.41205,0.3592,-0.32753,0.00493
-0.52554,0.77063,-0.36045,0.36733,-0.15682,-0.00648
-0.53331,0.78857,-0.30616,0.10609,-0.05545,-0.16351
-0.5451,0.79851,-0.25542,-0.15681,-0.12685,-0.24645
-0.55397,0.80142,-0.22545,-0.1826,-0.2469,-0.45674
-0.55569,0.80027,-0.2253,-0.14262,-0.39556,-0.40637
-0.55459,0.79806,-0.23562,-0.09046,-0.45395,-0.05011
-0.55325,0.79507,-0.24853,-0.02086,-0.28636,0.14445
-0.55249,0.79227,-0.25894,-0.21821,0.08177,0.01583
-0.56063,0.79087,-0.24538,-0.25475,1.05841,0.05879
-0.57044,0.78849,-0.22995,-0.03738,0.92054,0.19449
-0.56881,0.78921,-0.23149,0.3657,-0.27087,0.21811
-0.56241,0.79932,-0.21157,0.11962,0.33098,0.05427
-0.55452,0.81036,-0.18922,-0.11276,1.08891,-0.20313
-0.54228,0.82164,-0.17557,-0.18572,0.38539,-0.27852
-0.52636,0.83551,-0.15763,-0.00074,0.54592,-0.18535
-0.52124,0.84134,-0.14295,-0.28712,0.35725,-0.20142
-0.52099,0.84271,-0.13563,-0.23536,-0.05449,-0.01672
-0.51945,0.8458,-0.1216,0.13766,0.01552,0.19933
-0.51806,0.84935,-0.10098,0.20002,0.06653,0.15039
-0.51931,0.8509,-0.07921,0.09105,-0.05236,0.10027
-0.52234,0.85083,-0.05694,0.13299,-0.12964,0.02609
-0.52601,0.8495,-0.04074,0.18417,-0.16927,-0.13238
-0.53073,0.84708,-0.02771,0.28163,-0.21971,-0.15253
-0.53607,0.84397,-0.01784,0.26293,-0.16018,-0.21498
-0.5408,0.84109,-0.00918,0.26597,-0.00947,-0.33455
-0.5431,0.83966,-0.00268,0.47588,-0.23997,-0.25872
-0.54455,0.83871,-0.00345,0.46632,-0.3385,-0.26164
-0.54682,0.8371,-0.01535,0.3384,-0.41776,-0.39235
-0.55165,0.83353,-0.02979,0.28467,0.2252,-0.34729
-0.55576,0.83038,-0.03982,0.46827,0.1966,-0.12838
-0.5563,0.82955,-0.04866,0.57375,-0.22713,0.20906
-0.56089,0.826,-0.05577,0.23188,-0.14092,-0.17926
-0.56758,0.82114,-0.05973,0.17876,-0.06621,-0.05726
-0.57337,0.81719,-0.05857,0.04879,0.15348,-0.02151
-0.57737,0.81405,-0.06283,-0.10679,0.26096,-0.12288
-0.58121,0.80945,-0.08349,-0.29481,0.29965,-0.3416
-0.58513,0.80129,-0.12466,-0.20494,0.33706,-0.28452
-0.58759,0.79036,-0.17338,-0.40764,0.65109,-0.19915
-0.58294,0.78053,-0.22569,-0.48649,0.68364,-0.12413
-0.57075,0.7711,-0.28221,-0.42103,0.57499,-0.00804
-0.55822,0.76058,-0.3315,-0.36656,0.37035,0.00295
-0.54108,0.75409,-0.37225,-0.35173,0.26691,-0.0598
-0.52402,0.74927,-0.40495,-0.5231,0.44265,-0.24038
-0.50984,0.74046,-0.43791,-0.15982,0.10857,-0.09639
-0.49301,0.73527,-0.46509,0.02097,0.02629,-0.06635
-0.48831,0.72951,-0.47892,0.24559,-0.00027,0.28768
-0.49399,0.72071,-0.48636,0.13769,-0.05655,0.29504
-0.50487,0.71238,-0.48746,-0.12613,-0.39075,0.36313
-0.5166,0.70712,-0.4828,-0.28648,-0.68391,0.35817
-0.52782,0.7062,-0.47189,-0.14976,-0.62305,0.30603
-0.53975,0.70876,-0.45424,0.15042,-0.36093,0.16884
-0.55222,0.71425,-0.42999,0.18009,-0.40184,0.10413
-0.5647,0.72083,-0.40189,0.17183,-0.4771,0.0152
-0.5761,0.72754,-0.37253,0.2002,-0.5371,-0.07385
-0.58496,0.73558,-0.34167,0.19423,-0.40911,-0.04193
-0.59226,0.74409,-0.30912,0.09624,-0.30274,-0.14422
-0.60012,0.75204,-0.27255,0.09185,0.05932,-0.20328
-0.60508,0.7581,-0.24319,0.19639,0.35329,-0.28311
-0.60508,0.75993,-0.23741,0.13025,-0.05522,-0.62105
-0.60227,0.75805,-0.25023,0.00345,-0.35956,-0.66648
-0.60026,0.75506,-0.26375,0.0251,-0.38881,-0.23138
-0.59926,0.75162,-0.27558,0.06156,-0.25558,-0.34269
-0.60071,0.74138,-0.29916,0.12327,0.20138,0.12139
-0.59836,0.74011,-0.3069,-0.56915,0.26213,0.99722
-0.61214,0.7441,-0.26757,0.03473,0.43614,0.52386
-0.61223,0.74664,-0.26017,0.54703,0.22631,0.52523
-0.59112,0.77285,-0.23078,-0.24727,0.72474,-0.09206
-0.59517,0.78568,-0.16874,-0.8821,1.53967,0.12023
-0.61055,0.78011,-0.13653,-0.78486,0.85547,-0.15526
-0.60546,0.78597,-0.12509,-0.13218,0.1892,-0.14803
-0.596,0.79683,-0.09915,0.10133,0.02025,0.0151
-0.59178,0.80392,-0.05912,0.15379,0.02443,0.14386
-0.59048,0.80674,-0.0219,0.07194,-0.12907,0.22605
-0.59185,0.806,0.00747,-0.00118,-0.35745,0.07705
-0.59394,0.80385,0.03225,0.14985,-0.39969,-0.07564
-0.5972,0.80048,0.05067,0.34429,-0.25742,-0.16218
-0.6025,0.79537,0.06609,0.3135,-0.1377,-0.19008
-0.60772,0.79008,0.08018,0.26524,-0.11575,-0.25057
-0.61235,0.78487,0.09484,0.21966,-0.05899,-0.34595
-0.61685,0.77875,0.11415,0.1542,0.02391,-0.33174
-0.62054,0.77207,0.13718,0.16313,0.06001,-0.41349
-0.62359,0.76526,0.15967,0.25552,0.20981,-0.46448
-0.6285,0.75781,0.17517,0.05619,0.44644,-0.06341
-0.63241,0.75275,0.18277,-0.01766,0.39842,-0.09024
-0.63329,0.75157,0.18452,-0.16498,0.46313,-0.52446
-0.63424,0.75209,0.17909,-0.16404,0.46262,-0.51903
-0.6356,0.75416,0.16504,-0.07112,0.34508,-0.67707
-0.64036,0.75563,0.13762,0.26651,0.43155,-0.01774
-0.64498,0.75794,0.09748,0.33936,0.33944,0.17525
-0.6465,0.76144,0.04728,0.05789,0.07949,0.01375
-0.64846,0.76116,-0.0108,-0.24633,0.12066,-0.11826
-0.65242,0.75476,-0.06835,-0.29416,0.09493,-0.07892
-0.65101,0.74878,-0.12453,-0.12237,0.37496,0.1247
-0.64186,0.74633,-0.17603,0.09112,0.31367,0.26493
-0.63088,0.7446,-0.21804,0.08252,0.26101,0.31144
-0.62152,0.74167,-0.25222,0.0045,0.27296,0.31524
-0.61586,0.73493,-0.28387,-0.17028,0.10189,0.51022
-0.60642,0.7253,-0.32586,-0.09099,-0.09186,0.23329
-0.5967,0.71228,-0.3696,-0.02533,-0.14558,0.1806
-0.59084,0.69756,-0.40535,0.18454,-0.03156,0.0831
-0.59086,0.68432,-0.42729,0.21314,-0.00287,0.21947
-0.59482,0.67278,-0.43993,0.05159,-0.00279,0.36386
-0.59976,0.66332,-0.44753,-0.0197,-0.08171,0.39194
-0.60252,0.65674,-0.45348,-0.08162,-0.12799,0.34199
-0.60152,0.65437,-0.45821,-0.06295,-0.14682,0.2063
-0.59983,0.65728,-0.45626,-0.00083,-0.17376,0.08064
-0.59849,0.66384,-0.44847,0.04743,-0.12342,0.11999
-0.59762,0.67155,-0.43801,0.05815,-0.10658,0.12692
-0.59757,0.6808,-0.42356,0.05409,-0.09951,0.15204
-0.59864,0.69082,-0.40545,-0.00587,-0.11366,0.0821
-0.60196,0.70035,-0.38359,-0.04797,-0.14365,-0.01633
-0.60754,0.7097,-0.35666,-0.06207,-0.12111,-0.28497
-0.61464,0.71817,-0.32624,-0.22962,0.43351,-0.42263
-0.62033,0.71754,-0.31672,-0.31961,0.51909,-0.38027
-0.61935,0.7052,-0.34508,-0.19133,0.15312,-0.64784
-0.62068,0.68756,-0.37683,0.43806,-0.26593,-0.59606
-0.62827,0.67931,-0.37922,0.66977,-0.11132,0.13432
-0.63256,0.68663,-0.35833,0.55418,0.03962,0.35323
-0.62674,0.70343,-0.33522,-0.45711,0.29521,0.05245
-0.62163,0.718,-0.31311,-0.93325,0.62828,-0.21394
-0.62389,0.72488,-0.29206,-0.14064,0.04421,0.28367
-0.62179,0.72847,-0.28757,0.18397,-0.52399,0.44972
-0.62205,0.73016,-0.28268,0.20269,-0.51965,0.46902
-0.62718,0.73394,-0.26069,0.17023,-0.03326,0.42235
-0.63663,0.73674,-0.22782,0.11528,0.53294,0.33884
-0.64165,0.74111,-0.19754,0.11861,0.51783,0.22888
-0.63988,0.74931,-0.17051,0.08994,0.30266,0.12425
-0.63247,0.75951,-0.15198,0.07824,0.02576,-0.03233
-0.62364,0.76959,-0.13706,0.05229,-0.02002,-0.05218
-0.61892,0.77655,-0.11787,-0.06236,-0.11154,0.11827
-0.61872,0.77971,-0.09605,-0.01442,-0.15234,0.12993
-0.61933,0.78126,-0.07773,0.03773,-0.1494,0.1109
-0.61829,0.78309,-0.06689,0.11466,0.06044,0.03361
-0.61647,0.78499,-0.06109,0.11848,0.10263,-0.00811
-0.61439,0.78714,-0.05402,0.11027,0.11618,0.04053
-0.61179,0.78975,-0.04455,0.07618,0.06433,0.05284
-0.60937,0.79218,-0.03321,0.06029,0.04394,0.03412
-0.60799,0.79366,-0.02074,0.05686,0.01512,0.03588
-0.60824,0.79372,-0.0064,0.06199,-0.05872,0.04346
-0.60954,0.79268,0.00999,0.03803,-0.09533,0.01905
-0.61158,0.79075,0.02583,0.00036,-0.03176,-0.04847
-0.61458,0.78785,0.03946,-0.00612,-0.03079,-0.14476
-0.61835,0.78408,0.05329,0.03196,0.01975,-0.17321
-0.62248,0.77966,0.06799,0.03801,0.06032,-0.14125
-0.62651,0.77514,0.08141,-0.01378,0.06251,-0.05861
-0.62939,0.77167,0.0915,0.18472,0.17107,-0.02143
-0.6314,0.76968,0.09438,0.28334,0.2824,0.01266
-0.6346,0.76734,0.0919,0.04122,0.47048,-0.1024
-0.63699,0.76585,0.08776,0.00306,0.27087,-0.34965
-0.6387,0.76521,0.08057,0.04469,0.24838,-0.43102
-0.64163,0.76396,0.06826,0.14212,0.34958,-0.26121
-0.64509,0.76297,0.0416,0.11765,0.3816,-0.15846
-0.64692,0.76255,-0.00113,0.0509,0.23576,0.10778
-0.6475,0.76034,-0.05107,-0.09896,-0.00088,0.30365
-0.64771,0.7541,-0.10852,-0.36373,0.0099,0.14861
-0.64538,0.74338,-0.17568,-0.41888,0.08601,0.06982
-0.63853,0.73143,-0.23933,-0.27675,0.20925,0.0827
-0.6294,0.71945,-0.29364,0.01472,0.27383,0.19102
-0.61962,0.70543,-0.34413,0.0156,0.15085,0.28187
-0.61088,0.68833,-0.39118,0.04572,0.06671,0.34232
-0.60491,0.66825,-0.43302,0.00099,0.03776,0.45909
-0.59787,0.64633,-0.47413,-0.12142,0.05824,0.38421
-0.59045,0.62405,-0.51178,-0.10575,0.02064,0.35573
-0.58483,0.60157,-0.54413,-0.20684,-0.09275,0.24153
-0.57939,0.58391,-0.56864,-0.10441,-0.32017,0.19125
-0.57553,0.57252,-0.58394,-0.03934,-0.31224,0.22415
-0.57407,0.56846,-0.58932,-0.00677,-0.26791,0.20209
-0.57522,0.57193,-0.58481,0.04391,-0.20851,0.10558
-0.57807,0.58252,-0.57139,0.19738,-0.18064,0.02395
-0.58281,0.59688,-0.5514,0.22047,-0.18537,-0.10126
-0.58899,0.61522,-0.524,0.159,-0.14653,-0.02895
-0.59458,0.63648,-0.49127,-0.00826,-0.13279,-0.03197
-0.59784,0.65736,-0.45876,-0.06691,0.11628,-0.13818
-0.59785,0.67258,-0.43612,-0.06374,0.185,-0.13161
-0.59367,0.68215,-0.42686,-0.01297,-0.06128,-0.06297
-0.58784,0.69019,-0.42197,-0.00849,-0.08011,-0.02824
-0.58417,0.69719,-0.41552,0.03353,-0.07686,-0.06042
-0.58063,0.70462,-0.40788,0.1718,0.07327,0.23041
-0.57199,0.71837,-0.39593,-0.04555,0.06067,0.11944
-0.57831,0.73471,-0.35459,-0.33885,0.78734,0.45513
-0.57784,0.74234,-0.33913,-0.02094,-0.18878,0.50406
-0.57209,0.74621,-0.3404,-0.15672,-0.4954,0.32519
-0.57698,0.74725,-0.3297,-0.09287,-0.12153,0.12378
-0.58619,0.74407,-0.32052,-0.00032,0.38501,0.0835
-0.59029,0.74397,-0.31313,0.0056,0.30692,0.1296
-0.59105,0.74835,-0.30103,-0.0307,0.17075,0.12265
-0.59036,0.75394,-0.28814,-0.00751,-0.03538,0.08435
-0.58814,0.75966,-0.27745,0.09042,0.07193,0.12898
-0.58551,0.76419,-0.27049,0.14914,0.08136,0.15135
-0.58269,0.76651,-0.27002,0.15348,-0.0805,0.14877
-0.58164,0.76631,-0.27285,0.11398,-0.12085,-0.00347
-0.58432,0.76306,-0.27621,0.14302,-0.10992,-0.04822
-0.58672,0.75781,-0.28543,0.22594,-0.19641,-0.0116
-0.58775,0.74981,-0.30385,0.24055,-0.31333,0.04648
-0.59141,0.73973,-0.32097,0.15621,-0.34488,-0.0491
-0.6018,0.72847,-0.32736,0.11932,-0.03907,-0.10508
-0.60981,0.71664,-0.33844,0.29515,0.06507,-0.08168
-0.61241,0.70785,-0.35197,0.31764,-0.30449,-0.00029
-0.61635,0.70045,-0.35981,0.3218,-0.2285,-0.04182
-0.62034,0.69341,-0.36653,0.35901,0.00317,0.11037
-0.62482,0.68818,-0.36878,0.14132,-0.06872,0.15887
-0.63286,0.68145,-0.36756,0.04882,-0.12153,-0.01564
-0.63861,0.67334,-0.37252,0.08963,-0.02771,-0.08065
-0.64202,0.66191,-0.38688,0.08403,0.11684,0.19198
-0.6415,0.64499,-0.41528,-0.13212,0.26102,0.27512
-0.63958,0.62067,-0.45354,-0.47369,0.47755,0.0209
-0.63449,0.59104,-0.49809,-0.42165,0.75529,-0.04473
-0.62616,0.56201,-0.54042,-0.18086,0.5525,0.01529
-0.6167,0.53434,-0.57806,-0.02684,0.34048,0.07755
-0.60898,0.51751,-0.6011,-0.42431,0.73449,-0.15365
-0.60192,0.51219,-0.61266,-0.93493,0.91496,-0.36035
-0.58606,0.51044,-0.62926,-0.27337,-0.1967,-0.02685
-0.56821,0.51468,-0.64205,-0.00651,-0.23393,0.20966
-0.55595,0.51942,-0.64893,0.2666,-0.25285,0.30477
-0.5599,0.51791,-0.64674,0.00346,-0.09249,0.19112
-0.57234,0.51824,-0.63548,-0.06741,-0.08958,0.27788
-0.58472,0.51985,-0.62278,-0.20641,-0.30642,0.39809
-0.5931,0.5245,-0.61084,0.02162,-0.42388,0.16245
-0.60115,0.53733,-0.59151,0.30111,-0.32833,0.12669
-0.60991,0.55888,-0.56183,0.38182,-0.21321,0.21421
-0.61698,0.58638,-0.52487,0.34248,-0.26773,0.24645
-0.62052,0.61596,-0.48532,0.19999,-0.25082,0.31645
-0.61855,0.64243,-0.4524,0.17045,-0.20981,0.06498
-0.61491,0.6648,-0.42417,0.1652,-0.07908,-0.13484
-0.61488,0.68378,-0.39289,0.15708,0.05531,-0.08741
-0.61368,0.69902,-0.3671,0.1078,0.05124,-0.04936
-0.60916,0.71221,-0.34881,0.06485,-0.1522,-0.02854
-0.6042,0.72262,-0.33579,0.04417,-0.20353,-0.10314
-0.60044,0.73078,-0.32468,0.01884,-0.15755,-0.11276
-0.5981,0.738,-0.31244,-0.09818,-0.10395,-0.08461
-0.5961,0.74278,-0.30483,-0.40169,-0.07431,-0.03583
-0.60427,0.74313,-0.28741,-0.36278,0.58552,0.483
-0.61446,0.74475,-0.26033,-0.15762,0.57323,0.56645
-0.6107,0.74963,-0.25511,-0.1144,0.59879,0.3591
-0.60116,0.75391,-0.26496,0.0946,0.26588,-0.16023
-0.58046,0.76483,-0.27943,0.183,0.54054,-0.11698
-0.56526,0.77863,-0.27241,-0.07336,0.76271,-0.02027
-0.55372,0.79018,-0.26266,-0.10489,0.47308,0.10287
-0.54849,0.79765,-0.25078,-0.12369,0.07507,0.10894
-0.54738,0.80004,-0.24555,-0.0519,-0.22063,0.1764
-0.5489,0.79969,-0.24327,-0.05208,-0.0358,0.24314
-0.55269,0.79852,-0.23852,-0.08872,0.07766,0.14315
-0.55655,0.79822,-0.2304,0.13291,-0.10457,0.04118
-0.55902,0.80036,-0.21657,0.31793,-0.20548,0.05636
-0.56107,0.80418,-0.19614,0.22822,-0.15163,0.09165
-0.56316,0.80612,-0.18167,-0.03126,0.11052,-0.1733
-0.56597,0.80412,-0.18177,-0.03191,0.09364,-0.45581
-0.56619,0.79935,-0.20111,0.16266,-0.5642,-0.3703
-0.56719,0.7937,-0.2198,0.27445,-0.54526,-0.15604
-0.56988,0.79189,-0.21941,0.55854,0.00164,0.44383
-0.57068,0.78987,-0.22454,0.45891,-0.04092,0.31301
-0.57509,0.78174,-0.24113,0.10205,-0.285,-0.16004
-0.58493,0.76937,-0.25673,0.06956,-0.00526,-0.18431
-0.59196,0.76337,-0.25852,0.37019,0.23628,0.09662
-0.59712,0.76269,-0.24848,0.3511,0.14666,0.27894
-0.60113,0.76004,-0.24691,0.08255,-0.10927,-0.02506
-0.60819,0.74938,-0.26175,-0.29248,-0.05436,-0.25796
-0.61522,0.73526,-0.2844,-0.26019,0.22218,-0.04145
-0.61771,0.72421,-0.3065,-0.19261,0.27042,0.13938
-0.61667,0.70872,-0.34267,-0.41582,0.36492,0.11654
-0.6123,0.69112,-0.38397,-0.68628,0.57095,0.07172
-0.59983,0.67351,-0.43195,-0.60284,0.65096,-0.04023
-0.58669,0.65066,-0.48211,-0.29005,0.33376,-0.04905
-0.57469,0.62727,-0.52559,-0.20633,0.31867,0.08575
-0.56817,0.60372,-0.55919,-0.17842,0.20352,0.18689
-0.56544,0.58142,-0.585,-0.25387,0.24225,0.05875
-0.56509,0.56121,-0.60474,-0.21944,0.05039,0.04491
-0.56563,0.54579,-0.6182,-0.02673,-0.12231,0.19896
-0.56713,0.53693,-0.62455,0.06712,-0.15596,0.27595
-0.57171,0.53313,-0.62362,0.17145,-0.26972,0.42169
-0.57857,0.53292,-0.61744,0.09751,-0.3935,0.40391
-0.58429,0.5374,-0.60811,0.05101,-0.34276,0.18194
-0.58873,0.55153,-0.59093,0.08541,-0.26282,0.16561
-0.59236,0.57485,-0.56449,0.02795,-0.24831,0.10209
-0.59574,0.60425,-0.52911,0.12162,-0.22089,0.12426
-0.59877,0.63711,-0.48534,0.20416,-0.09853,0.12218
-0.60212,0.66951,-0.43496,0.19427,0.03424,0.12542
-0.60848,0.69688,-0.3796,0.14657,-0.06895,0.2309
-0.61766,0.71465,-0.32825,0.04129,-0.10476,0.23868
-0.6206,0.72317,-0.30309,-0.14095,-0.20182,-0.09726
-0.6166,0.72588,-0.30478,-0.13377,-0.27718,-0.41521
-0.61213,0.72691,-0.31127,0.11443,-0.26247,-0.40501
-0.60895,0.7284,-0.31402,0.25034,-0.14485,-0.08756
-0.60244,0.73302,-0.31582,0.2336,-0.20669,0.34643
-0.59955,0.73359,-0.31995,0.10903,-0.18966,0.27594
-0.59766,0.72944,-0.33274,-0.13605,-0.16245,-0.1817
-0.60626,0.72551,-0.32568,-0.4659,0.73901,0.1566
-0.62054,0.72454,-0.29992,-0.28705,0.79778,0.3984
-0.61662,0.72725,-0.30144,0.26271,0.10026,0.56548
-0.61039,0.73704,-0.29014,0.0741,-0.08096,0.08389
-0.60299,0.74988,-0.27215,-0.04875,0.90832,0.08668
-0.58954,0.76599,-0.25627,-0.51246,1.03138,-0.00982
-0.57816,0.77841,-0.24451,-0.27522,0.13374,-0.09817
-0.57246,0.78039,-0.25154,-0.20394,0.19711,-0.19048
-0.57183,0.77547,-0.26764,-0.20736,0.1699,-0.23383
-0.56996,0.77664,-0.26826,0.01019,0.18909,0.10796
-0.56694,0.78658,-0.24465,0.2409,0.35949,0.35271
-0.56552,0.79501,-0.21938,0.04829,0.00063,0.14023
-0.56809,0.79899,-0.19716,0.09846,-0.07956,0.11585
-0.57156,0.79983,-0.18322,0.15693,-0.09356,0.00396
-0.57567,0.79894,-0.174,0.19833,-0.17552,-0.01629
-0.5801,0.79667,-0.16963,0.2403,-0.17982,-0.09906
-0.58475,0.79377,-0.16724,0.24752,-0.15873,-0.15829
-0.58822,0.79075,-0.16938,0.28001,-0.12605,-0.21006
-0.59034,0.78646,-0.18155,0.24915,-0.24399,-0.27304
-0.59447,0.7782,-0.20245,0.21357,-0.38661,-0.23512
-0.5997,0.76947,-0.21965,0.30294,-0.03919,0.16319
-0.60445,0.76229,-0.23138,0.34824,-0.00243,0.23707
-0.60931,0.75595,-0.23927,0.34593,-0.11603,0.13065
-0.61484,0.75088,-0.24109,0.31187,0.07515,0.08298
-0.61955,0.74577,-0.2449,0.27222,0.04648,0.12277
-0.62387,0.739,-0.25424,0.06252,-0.20331,-0.07914
-0.62887,0.72991,-0.26784,-0.0801,0.3237,-0.08281
-0.63084,0.72139,-0.28569,-0.24356,0.32277,-0.11275
-0.63247,0.70645,-0.31765,-0.40534,0.41672,-0.1459
-0.62829,0.6934,-0.35275,-0.5364,0.51668,0.04551
-0.61828,0.68062,-0.39303,-0.53191,0.56493,0.10283
-0.60495,0.66559,-0.43706,-0.37732,0.39705,0.02416
-0.59297,0.64476,-0.48235,-0.36097,0.36871,0.14319
-0.58246,0.62407,-0.52084,-0.43515,0.29264,0.13555
-0.57042,0.6072,-0.55309,-0.495,0.30423,-0.06145
-0.55942,0.59264,-0.57949,-0.44399,0.24258,-0.05375
-0.54669,0.58148,-0.6025,-0.22179,0.13796,0.06188
-0.53793,0.57366,-0.61769,0.02159,0.09918,0.2852
-0.53648,0.56512,-0.62675,0.11918,-0.08481,0.39117
-0.54323,0.55664,-0.62853,0.00925,-0.26272,0.32956
-0.5526,0.55239,-0.62409,-0.07604,-0.34416,0.23598
-0.56066,0.55336,-0.616,-0.0301,-0.32773,0.2028
-0.56864,0.56009,-0.60245,0.1032,-0.23754,0.18346
-0.57663,0.57426,-0.58113,0.17108,-0.21315,0.17316
-0.58393,0.5947,-0.55259,0.20684,-0.24113,0.12617
-0.58985,0.62049,-0.51677,0.25982,-0.158,0.16129
-0.59452,0.65015,-0.47311,0.16094,-0.13814,0.14098
-0.59729,0.67966,-0.42579,0.09375,-0.20133,0.04606
-0.60182,0.70343,-0.37814,0.20979,-0.04211,0.09387
-0.60318,0.71942,-0.34437,0.2035,-0.05291,0.07191
-0.59615,0.72807,-0.33838,0.02153,-0.20598,-0.13458
-0.58703,0.7335,-0.34259,0.08668,-0.28806,-0.191
-0.58133,0.73795,-0.34274,0.1407,-0.2544,-0.11686
-0.57868,0.74329,-0.33561,0.23003,-0.17023,0.04145
-0.57584,0.74959,-0.32636,0.15378,-0.07584,0.0093
-0.57137,0.75639,-0.31843,-0.00723,-0.02436,-0.02329
-0.57022,0.76216,-0.30649,-0.27481,-0.07283,-0.14038
-0.57169,0.76581,-0.29443,-0.27197,0.11755,-0.25457
-0.57731,0.76722,-0.2794,-0.11627,0.55844,0.29271
-0.5764,0.77217,-0.26737,-0.009,0.15535,0.61048
-0.57178,0.77519,-0.26858,-0.06409,-0.07284,0.0887
-0.5662,0.78153,-0.26195,-0.36285,0.70474,-0.13345
-0.55868,0.79193,-0.24637,-0.54009,0.96831,0.11467
-0.54667,0.80377,-0.23469,-0.15753,0.1053,0.12283
-0.53798,0.81145,-0.22826,-0.08906,0.0726,0.01619
-0.53402,0.81684,-0.21812,-0.19773,0.18257,0.19342
-0.5329,0.82156,-0.20255,-0.20713,0.26926,0.32107
-0.53098,0.82678,-0.18566,-0.01629,0.19572,0.19694
-0.52877,0.83216,-0.167,0.00802,-0.13285,0.09342
-0.52921,0.83555,-0.14755,0.0131,-0.1704,0.09509
-0.53186,0.83691,-0.12917,0.07844,-0.15234,0.05019
-0.53548,0.83713,-0.11157,0.20148,-0.24908,0.00646
-0.53874,0.8368,-0.09745,0.24353,-0.22969,-0.03912
-0.54125,0.83615,-0.08875,0.12845,-0.03595,-0.19383
-0.54234,0.83573,-0.08602,0.32912,-0.24414,-0.14875
-0.54185,0.83539,-0.09216,0.33847,-0.48426,-0.11449
-0.5441,0.8321,-0.10739,0.24215,-0.52381,-0.13241
-0.54974,0.82595,-0.12479,0.06741,-0.02337,-0.26254
-0.55557,0.81889,-0.14402,0.23951,0.13053,-0.12183
-0.55946,0.8128,-0.16227,0.38792,-0.13702,0.10075
-0.56304,0.80638,-0.18087,0.33427,-0.19993,0.07153
-0.56956,0.79728,-0.19982,0.02105,-0.11628,-0.17774
-0.57874,0.78807,-0.20974,-0.00099,0.20824,-0.17055
-0.58386,0.78405,-0.21061,0.05543,0.35503,-0.1155
-0.5824,0.78237,-0.22063,0.04368,0.01365,-0.08152
-0.57801,0.77681,-0.24991,-0.312,-0.00369,-0.09571
-0.58186,0.75477,-0.30288,-0.76576,0.18106,-0.08924
-0.58569,0.72515,-0.36209,-0.63787,0.3455,0.08238
-0.58458,0.694,-0.42025,-0.42972,0.65606,0.04918
-0.57821,0.65897,-0.48106,-0.12485,0.76483,0.00146
-0.57404,0.62751,-0.52601,-0.1981,0.65302,0.05961
-0.56892,0.60177,-0.56053,-0.32569,0.4587,-0.04017
-0.56366,0.58251,-0.58563,-0.49221,0.25744,-0.0066
-0.55703,0.56541,-0.60829,-0.31933,0.03107,0.11284
-0.54922,0.55522,-0.62457,0.03394,-0.06686,0.27087
-0.54627,0.55306,-0.62905,0.23454,-0.04685,0.37775
-0.55231,0.55273,-0.62405,0.09794,-0.16556,0.48284
-0.56116,0.55419,-0.61479,0.02377,-0.33189,0.45923
-0.56729,0.56104,-0.60284,-0.01457,-0.46631,0.37934
-0.57353,0.57778,-0.58071,0.18071,-0.5969,0.22381
-0.58131,0.60186,-0.54757,0.19684,-0.50514,0.22155
-0.59235,0.62884,-0.50365,0.24481,-0.45071,0.23961
-0.60656,0.65631,-0.4487,0.31071,-0.17807,0.36612
-0.61778,0.67925,-0.39618,0.19909,-0.31214,0.25977
-0.62479,0.69586,-0.35412,0.12034,-0.26167,-0.11643
-0.63149,0.70483,-0.32314,-0.06099,0.04854,-0.38452
-0.63072,0.70944,-0.31444,-0.19008,-0.03252,-0.27442
-0.62371,0.71229,-0.32188,-0.07638,-0.09408,-0.26998
-0.61837,0.71331,-0.32983,0.13807,-0.22782,-0.18312
-0.61503,0.71322,-0.3362,0.28756,-0.31265,-0.15451
-0.60925,0.70927,-0.35458,-0.39444,0.55485,0.07469
-0.61275,0.71156,-0.34382,-0.30777,0.91589,0.57632
-0.61228,0.72018,-0.32625,0.15116,0.29081,0.63403
-0.60288,0.72649,-0.32973,-0.65658,0.01443,-0.17114
-0.59917,0.73199,-0.32431,-0.74702,0.25897,-0.23853
-0.58921,0.74724,-0.30732,-0.13143,0.62494,-0.01672
-0.57599,0.76581,-0.28592,-0.6149,1.18786,-0.31665
-0.57017,0.7729,-0.27841,-0.38018,1.0708,-0.32651
-0.56161,0.77496,-0.28985,0.02638,-0.22468,-0.02627
-0.55727,0.77929,-0.2866,0.15194,-0.11461,0.16898
-0.55671,0.78438,-0.2735,0.09477,0.20825,0.26131
-0.55682,0.78867,-0.26066,0.08589,0.03803,0.21744
-0.55982,0.79304,-0.24015,0.30223,-0.11199,0.03702
-0.56189,0.7963,-0.22398,0.25426,-0.07717,-0.08149
-0.56408,0.79786,-0.21264,0.18645,-0.09681,-0.15542
-0.56678,0.79808,-0.20446,0.18482,-0.24179,-0.13705
-0.56824,0.79863,-0.19816,0.27936,-0.27508,-0.11912
-0.56897,0.79952,-0.1924,0.30965,-0.26732,-0.07577
-0.57085,0.79802,-0.19307,0.12212,-0.06508,-0.22113
-0.57025,0.7955,-0.20487,0.34696,-0.40932,-0.03364
-0.5718,0.79122,-0.21677,0.37643,-0.38285,0.15207
-0.57657,0.78355,-0.23151,0.32319,-0.10082,0.14665
-0.58295,0.77456,-0.24536,0.16953,0.03609,0.1268
-0.58976,0.76692,-0.25298,0.20032,0.22093,-0.01777
-0.59487,0.76048,-0.26036,0.18394,0.1404,-0.15097
-0.60079,0.7518,-0.27173,-0.00313,0.07898,-0.17697
-0.60953,0.73602,-0.2945,-0.20712,0.31565,0.01998
-0.61115,0.7225,-0.32322,-0.23719,0.5111,0.09923
-0.61052,0.70786,-0.35522,-0.48141,0.21804,0.05646
-0.60576,0.69099,-0.39444,-0.48596,0.03579,-0.04325
-0.59651,0.67457,-0.43488,-0.33695,0.47454,0.13257
-0.58462,0.65768,-0.47505,-0.61842,1.0924,0.03755
-0.57129,0.64471,-0.5079,-0.5639,0.68235,-0.07277
-0.55255,0.63376,-0.54131,-0.45609,-0.079,-0.06377
-0.53824,0.62787,-0.56219,-0.0811,-0.13295,0.18066
-0.53199,0.61839,-0.57842,0.07354,0.22288,0.08918
-0.53552,0.60378,-0.59048,0.17726,0.28474,0.17361
-0.54238,0.5927,-0.59541,-0.19184,-0.33016,0.45351
-0.55337,0.58328,-0.5946,-0.18085,-0.32074,0.45269
-0.56686,0.576,-0.58896,-0.17455,-0.42683,0.43496
-0.57996,0.5732,-0.57886,0.17074,-0.29549,0.21278
-0.59149,0.57917,-0.56098,0.23772,-0.29822,0.2044
-0.60142,0.59443,-0.5338,0.27097,-0.3263,0.19671
-0.60904,0.61639,-0.49912,0.19289,-0.35868,0.14619
-0.61411,0.64458,-0.45538,0.20781,-0.31429,0.11481
-0.61906,0.67458,-0.4021,0.15455,-0.08421,0.09609
-0.6275,0.69849,-0.34401,0.14015,-0.08639,0.0596
-0.63678,0.71315,-0.29311,0.15703,-0.04753,0.02743
-0.63774,0.7196,-0.27468,-0.07096,-0.23115,-0.20704
-0.63184,0.72086,-0.28482,-0.11531,-0.34045,-0.43659
-0.62922,0.72149,-0.28899,0.15019,-0.29032,-0.26599
-0.63018,0.72274,-0.28372,0.17779,-0.10256,-0.08392
-0.63134,0.72318,-0.28002,-0.01188,0.02456,-0.00461
-0.63105,0.72056,-0.28734,-0.5252,0.66494,-0.30904
-0.63464,0.71824,-0.28523,-0.26254,0.70303,0.5281
-0.63328,0.72765,-0.26356,0.52599,-0.17773,0.74806
-0.62181,0.73879,-0.25986,0.37138,-0.10755,0.11672
-0.61631,0.75394,-0.22739,-0.16796,1.05111,0.05567
-0.61246,0.7706,-0.17618,-0.6264,1.17224,0.10024
-0.6023,0.78626,-0.1379,-0.48413,0.32052,-0.20321
-0.5991,0.79122,-0.12254,-0.04225,-0.02177,-0.11296
-0.60062,0.78895,-0.12957,-0.00872,-0.15092,0.05922
-0.59804,0.78948,-0.13804,0.07634,-0.14791,0.15365
-0.59382,0.79395,-0.13036,0.03375,0.22338,0.24981
-0.59241,0.79644,-0.12133,-0.00853,0.12133,0.18928
-0.59401,0.79732,-0.10685,0.29643,-0.23512,0.05013
-0.597,0.7967,-0.09398,0.34483,-0.32057,-0.02925
-0.60276,0.793,-0.08833,0.16502,-0.36524,-0.03217
-0.61111,0.78693,-0.08525,0.07806,-0.23191,-0.02398
-0.61948,0.78077,-0.08131,0.27881,-0.04892,-0.10938
-0.62409,0.77762,-0.07617,0.5223,-0.07507,-0.12569
-0.62604,0.77654,-0.07095,0.37613,-0.25313,-0.05466
-0.63033,0.77332,-0.06815,0.18544,-0.19746,-0.10854
-0.6387,0.76643,-0.06802,0.09502,0.05302,-0.38198
-0.64914,0.75747,-0.06948,0.30366,-0.03012,-0.29151
-0.65841,0.74959,-0.06773,0.49779,-0.04528,0.13165
-0.66825,0.74072,-0.0689,0.22095,0.34843,-0.08062
-0.67717,0.73261,-0.06855,0.23084,0.43345,-0.1849
-0.68249,0.72763,-0.06892,0.2253,0.18973,-0.35259
-0.69014,0.71897,-0.08229,-0.06136,0.25946,-0.2426
-0.69978,0.7053,-0.11328,-0.59406,0.59368,-0.16692
-0.70538,0.6916,-0.15527,-0.45593,0.47146,0.04145
-0.70456,0.67939,-0.20496,-0.32837,0.37351,0.11698
-0.69653,0.66932,-0.25853,-0.45522,0.59642,0.17406
-0.68277,0.66159,-0.31002,-0.38431,0.8779,0.31354
-0.66647,0.65665,-0.35302,-0.42692,0.96134,0.32084
-0.65712,0.64905,-0.3833,-0.65627,0.70561,0.20364
-0.64928,0.63722,-0.41518,-0.42172,0.32819,0.16866
-0.63914,0.62862,-0.44309,-0.05895,0.16206,0.32358
-0.63001,0.62229,-0.46458,0.11652,-0.00022,0.41491
-0.62328,0.61588,-0.48186,0.0948,-0.22767,0.4459
-0.62182,0.61039,-0.49067,0.06792,-0.30292,0.47007
-0.62529,0.60551,-0.4923,0.11195,-0.49207,0.46297
-0.63243,0.60256,-0.48676,0.31014,-0.41729,0.38065
-0.64017,0.6029,-0.47611,0.36892,-0.37092,0.31925
-0.64871,0.60586,-0.46053,0.11275,-0.24523,0.24126
-0.65609,0.6116,-0.44212,0.13819,-0.18877,0.18066
-0.6621,0.61677,-0.42569,0.0777,-0.16443,0.11232
-0.67046,0.62038,-0.40695,-0.08003,-0.11899,-0.01941
-0.68158,0.62437,-0.38157,-0.13175,0.06545,-0.18857
-0.69648,0.62445,-0.35351,-0.16376,0.26064,-0.30679
-0.70494,0.60981,-0.36218,-0.36197,0.67055,-0.46614
-0.69934,0.58188,-0.41512,0.11096,0.03685,-0.93995
-0.6961,0.56271,-0.44585,0.51761,-0.23012,-0.64867
-0.70144,0.56041,-0.44035,0.56301,0.06722,0.31135
-0.70907,0.5698,-0.41536,-0.02312,0.10693,0.20913
-0.70939,0.58585,-0.39183,-0.49323,0.17538,-0.17302
-0.70848,0.6001,-0.37138,-1.10326,0.6557,-0.38517
-0.71392,0.60448,-0.35342,-0.70802,0.59657,0.16592
-0.72044,0.60059,-0.34676,0.16673,-0.01469,0.42727
-0.71998,0.59835,-0.35154,0.63795,-0.45823,0.51545
-0.71429,0.60511,-0.35159,0.3823,0.04143,0.44012
-0.71847,0.61278,-0.32907,0.13636,0.37102,0.41653
-0.72791,0.61896,-0.295,0.23518,0.50139,0.30033
-0.73348,0.62862,-0.25849,0.41718,0.59016,0.21556
-0.73554,0.63881,-0.22557,0.33852,0.54033,0.10831
-0.73369,0.64782,-0.20497,0.052,0.24186,0.05112
-0.72723,0.65985,-0.18897,0.05783,0.02756,0.10094
-0.72377,0.67051,-0.16291,0.00644,0.00862,0.28251
-0.72422,0.67777,-0.12694,-0.02131,-0.03665,0.31717
-0.72739,0.67945,-0.09603,-0.04501,-0.04526,0.31198
-0.73076,0.678,-0.07923,0.04311,0.02323,0.07589
-0.73347,0.67608,-0.07012,0.15531,0.17863,-0.05097
-0.73629,0.67414,-0.05827,0.23942,0.2473,-0.0264
-0.73894,0.67251,-0.04087,0.19856,0.16371,0.04552
-0.74082,0.67134,-0.0213,0.18909,0.08047,0.06021
-0.74169,0.67072,-0.00145,0.27043,0.10397,0.00888
-0.74272,0.66935,0.01766,0.24908,0.09432,-0.06738
-0.74453,0.66669,0.0342,0.17875,0.03479,-0.11233
-0.74765,0.6623,0.04853,0.13127,0.03013,-0.14143
-0.75223,0.65592,0.06234,0.08421,0.13554,-0.13631
-0.75724,0.64874,0.07543,0.08517,0.20213,-0.09448
-0.7615,0.64246,0.08564,0.10325,0.25422,-0.15539
-0.7638,0.63878,0.09239,0.36068,0.31285,-0.07728
-0.76547,0.63675,0.0926,0.12161,0.47991,-0.0046
-0.76747,0.63486,0.08889,-0.21119,0.29575,-0.42473
-0.76836,0.63462,0.08285,-0.04337,0.20668,-0.56725
-0.77207,0.63191,0.06768,0.29713,0.32909,-0.49085
-0.77907,0.62627,0.02837,0.33103,0.57271,0.14226
-0.78332,0.6212,-0.02223,0.31699,0.54306,0.41928
-0.78327,0.61796,-0.0677,-0.20582,0.12969,0.40946
-0.78005,0.61443,-0.11818,-0.19053,0.04646,-0.15158
-0.77421,0.61066,-0.16633,-0.0627,0.20961,-0.13372
-0.76776,0.6062,-0.20746,0.13487,0.38606,0.17709
-0.75852,0.60366,-0.24538,0.18389,0.31559,0.26775
-0.74945,0.60204,-0.27541,0.19107,0.25141,0.35954
-0.74133,0.59845,-0.30378,0.21224,0.33056,0.29977
-0.73513,0.59264,-0.32916,0.14033,0.35756,0.2393
-0.72892,0.58733,-0.35173,0.11567,0.29401,0.26648
-0.72267,0.58289,-0.37144,0.04843,0.0573,0.32355
-0.72027,0.57804,-0.38347,0.00844,0.10613,0.29232
-0.71772,0.57488,-0.39291,0.01383,0.1007,0.28381
-0.71517,0.57372,-0.39921,0.07975,0.04579,0.24145
-0.71166,0.57412,-0.40487,0.09976,0.04958,0.19565
-0.70812,0.57616,-0.40816,0.114,0.06773,0.18816
-0.7062,0.57961,-0.40661,0.08394,-0.03854,0.1883
-0.70677,0.58258,-0.40132,0.03584,-0.11351,0.21072
-0.70833,0.5842,-0.39618,0.02739,-0.10917,0.18585
-0.70927,0.58644,-0.39116,0.02585,-0.12953,0.14448
-0.71042,0.58974,-0.38406,0.05421,-0.15029,0.1094
-0.71254,0.59447,-0.37266,0.11173,-0.1684,0.04186
-0.71518,0.60118,-0.35648,0.1429,-0.18791,-0.03325
-0.71783,0.60896,-0.33744,0.14618,-0.10287,-0.23974
-0.71979,0.61599,-0.32007,0.07751,0.10772,-0.3015
-0.71954,0.61929,-0.3142,-0.02108,0.22322,-0.31352
-0.71609,0.61535,-0.32946,-0.06064,0.23086,-0.55494
-0.71145,0.60714,-0.35384,0.29473,0.05607,-0.56196
-0.70761,0.60331,-0.3678,0.67928,-0.04607,-0.30706
-0.70669,0.60676,-0.36389,0.41475,-0.03183,-0.02432
-0.70304,0.61993,-0.34842,0.0377,0.06513,-0.14021
-0.69724,0.63796,-0.32687,-0.27093,0.24084,-0.10536
-0.69246,0.65123,-0.31043,-0.52621,0.38264,-0.00097
-0.69453,0.6485,-0.31154,-1.11831,0.6611,0.37584
-0.69331,0.63364,-0.34322,0.23913,-0.39299,0.2028
-0.68721,0.62809,-0.36501,0.67932,-0.61475,0.25824
-0.69219,0.64047,-0.33264,0.36992,0.00221,0.42221
-0.69514,0.65258,-0.30151,-0.03837,0.81843,0.17145
-0.68828,0.66376,-0.29269,-0.07255,0.68162,0.07882
-0.67422,0.68057,-0.28677,-0.00553,-0.0238,0.08171
-0.66476,0.6968,-0.26933,-0.09776,-0.34894,0.0242
-0.66483,0.70681,-0.24165,-0.01956,-0.28991,0.09148
-0.66905,0.71056,-0.21783,-0.03943,0.00244,0.09545
-0.67164,0.71446,-0.19603,0.04562,0.24056,0.07
-0.67001,0.72062,-0.17824,0.1582,0.19683,0.0272
-0.66496,0.72888,-0.1629,0.21591,0.08869,-0.05843
-0.6598,0.73703,-0.1464,0.24726,0.03647,-0.07961
-0.65583,0.74324,-0.1321,0.21102,-0.03185,-0.0495
-0.65317,0.74727,-0.12218,0.19056,-0.11995,-0.03908
-0.65135,0.74956,-0.11781,0.17045,-0.23986,-0.0653
-0.65005,0.75007,-0.12168,0.20991,-0.43508,-0.2052
-0.64876,0.74893,-0.13488,0.26758,-0.44689,-0.22854
-0.64628,0.74594,-0.16085,0.16102,-0.32445,-0.24798
-0.64688,0.73909,-0.18783,0.00814,-0.15362,-0.19928
-0.6504,0.72927,-0.21241,0.15156,0.04996,-0.07118
-0.65105,0.72078,-0.23788,0.50295,-0.04552,0.18644
-0.65036,0.71776,-0.24866,0.52239,-0.19989,0.14707
-0.64943,0.71727,-0.25247,0.41447,-0.16794,-0.00307
-0.6514,0.71524,-0.25315,-0.00216,0.27554,-0.23694
-0.6517,0.71369,-0.25673,0.20812,0.03466,-0.00179
-0.65089,0.71521,-0.25456,0.26844,-0.16978,-0.0759
-0.6503,0.71471,-0.25743,0.17077,-0.11493,-0.15936
-0.65257,0.70532,-0.27685,-0.1588,0.39549,0.06053
-0.65139,0.68923,-0.31722,-0.19319,0.37142,0.09281
-0.64812,0.66492,-0.37121,-0.61732,0.43742,-0.06905
-0.64247,0.63306,-0.4318,-0.79503,0.80595,-0.33593
-0.63201,0.60351,-0.48613,-0.63227,0.91973,-0.10873
-0.6164,0.57311,-0.53999,0.201,0.27114,-0.01624
-0.6028,0.55165,-0.57646,-0.02614,0.2923,-0.11124
-0.59626,0.53994,-0.59407,-0.62308,0.36811,-0.23924
-0.58768,0.53135,-0.61016,-0.40573,0.15401,-0.0955
-0.57414,0.53142,-0.62285,0.07423,-0.16491,0.17037
-0.56865,0.53678,-0.62329,0.29779,-0.40722,0.37946
-0.57497,0.5397,-0.61491,0.25687,-0.29202,0.33655
-0.58288,0.54574,-0.602,0.0787,-0.27701,0.18231
-0.58858,0.55776,-0.58521,0.03238,-0.42543,0.16
-0.59235,0.57544,-0.56389,0.08549,-0.43066,0.07043
-0.59658,0.59844,-0.53474,0.18348,-0.36744,0.06292
-0.60231,0.62278,-0.49934,0.23287,-0.30822,0.13429
-0.60807,0.64691,-0.46015,0.30036,-0.26939,0.11246
-0.61331,0.67071,-0.41711,0.22855,-0.29222,0.07123
-0.61952,0.6922,-0.3702,0.10453,-0.33728,0.03254
-0.6292,0.70887,-0.31875,0.06541,-0.31685,0.00631
-0.63784,0.71844,-0.27745,-0.066,-0.14564,-0.14913
-0.64292,0.72426,-0.24916,-0.25797,0.05368,-0.43404
-0.6424,0.73027,-0.23239,-0.26664,0.09015,-0.58195
-0.64058,0.73443,-0.22416,0.29214,-0.02101,-0.39577
-0.63791,0.73727,-0.22247,0.19943,-0.03637,-0.18412
-0.63485,0.73925,-0.2246,-0.04028,0.06937,-0.1755
-0.63223,0.74228,-0.22202,-0.16442,0.14249,-0.2316
-0.63085,0.7466,-0.21117,-0.33209,0.32049,0.11905
-0.63057,0.75157,-0.19366,-0.13137,0.33659,0.54194
-0.62507,0.75645,-0.1925,0.24946,-0.16894,0.27693
-0.62116,0.76268,-0.18013,-0.48601,0.602,0.00789
-0.62897,0.76205,-0.15376,-0.81641,0.98833,-0.04038
-0.62839,0.7631,-0.15094,-0.03136,0.35569,-0.32603
-0.61477,0.77203,-0.16125,0.24317,0.14071,-0.29729
-0.60514,0.78125,-0.15305,0.2372,-0.001,0.22742
-0.59935,0.78896,-0.13526,-0.2354,0.19557,0.0745
-0.59649,0.79508,-0.10966,-0.05959,0.117,0.01225
-0.59406,0.80022,-0.08186,0.10217,-0.11041,-0.03147
-0.59479,0.802,-0.05478,0.11754,-0.09956,-0.01335
-0.59737,0.80134,-0.03136,0.1462,-0.0301,-0.01265
-0.60032,0.79966,-0.01187,0.15238,-0.02788,-0.00286
-0.60314,0.7976,0.0057,0.1516,-0.10111,-0.07229
-0.60507,0.796,0.01549,0.22131,-0.12568,-0.24605
-0.60551,0.79572,0.01262,0.27698,-0.15209,-0.31004
-0.60653,0.79504,-0.00334,0.16741,-0.15425,-0.46969
-0.60983,0.79194,-0.03021,0.30357,-0.1594,-0.3462
-0.61347,0.78758,-0.05783,0.53655,-0.12826,-0.01714
-0.6167,0.7828,-0.08302,0.51153,-0.14835,0.28112
-0.62117,0.77555,-0.11241,0.1979,-0.22316,-0.09033
-0.62671,0.76821,-0.13061,0.20981,-0.03396,-0.26426
-0.62964,0.76419,-0.13979,0.31908,0.33272,-0.12652
-0.63015,0.76271,-0.14547,0.09883,-0.21112,-0.18402
-0.63026,0.76012,-0.15798,0.14105,-0.39187,-0.16163
-0.63274,0.75519,-0.17118,-0.14383,-0.13161,-0.31887
-0.6394,0.74482,-0.19075,-0.11232,0.15676,-0.28141
-0.64116,0.73793,-0.21061,0.18234,0.34641,-0.03283
-0.64259,0.72788,-0.23927,-0.03209,0.3497,0.11096
-0.64342,0.71249,-0.27991,-0.55032,0.58124,0.08371
-0.63955,0.6962,-0.32598,-0.94842,0.77426,-0.27493
-0.62813,0.68209,-0.37441,-0.51761,0.50107,-0.15818
-0.61291,0.66596,-0.42524,-0.24044,0.38646,0.00628
-0.60016,0.64855,-0.46815,-0.2744,0.26307,-0.02586
-0.59201,0.63209,-0.49996,-0.2113,0.1752,-0.09214
-0.58159,0.6218,-0.5245,-0.12544,0.07569,-0.12482
-0.57728,0.61369,-0.53863,-0.16078,0.1193,0.00792
-0.57922,0.60553,-0.54573,-0.01064,0.09571,0.23109
-0.5837,0.59915,-0.548,0.20769,-0.21207,0.32949
-0.58955,0.59534,-0.54589,0.16119,-0.2982,0.30651
-0.59705,0.59493,-0.53812,0.08268,-0.36658,0.26885
-0.6044,0.59957,-0.5246,0.03064,-0.47848,0.15074
-0.61163,0.61068,-0.50296,0.19979,-0.34446,0.09126
-0.61899,0.62855,-0.47091,0.19697,-0.31998,0.13446
-0.62433,0.65037,-0.43268,0.27782,-0.31063,0.18787
-0.62657,0.67453,-0.39038,0.20767,-0.31328,0.13447
-0.62582,0.70048,-0.343,0.05928,-0.24531,0.11952
-0.6284,0.72246,-0.28835,-0.0039,-0.17288,0.12472
-0.63472,0.7355,-0.23695,-0.0116,-0.21541,0.04707
-0.63901,0.73992,-0.21014,-0.02885,-0.2297,-0.1456
-0.63959,0.73891,-0.21193,-0.02992,-0.14502,-0.39328
-0.63551,0.73723,-0.22935,0.20132,0.06453,-0.67434
-0.63191,0.73794,-0.23689,0.29234,-0.01379,-0.41211
-0.62795,0.74259,-0.23286,0.19648,-0.0954,-0.2869
-0.62508,0.7477,-0.22404,0.20156,-0.12616,0.081
-0.62418,0.74655,-0.23031,-0.0341,0.07126,-0.25715
-0.62357,0.74477,-0.2376,-0.19372,0.15027,-0.39079
-0.62963,0.74549,-0.2186,-0.1942,0.53175,0.3573
-0.62959,0.74954,-0.2044,-0.0632,0.23862,0.27578
-0.62721,0.75,-0.20997,-0.06559,0.23816,0.28135
-0.61895,0.75493,-0.21671,0.26642,0.51776,-0.09015
-0.60675,0.76954,-0.19908,0.15973,0.68883,0.0845
-0.59326,0.78761,-0.16639,-0.19257,0.70075,0.11852
-0.58568,0.79974,-0.13179,-0.90036,0.9456,-0.30554
-0.58478,0.80162,-0.12414,-0.25471,-0.09053,-0.33396
-0.57933,0.80328,-0.13815,0.05854,-0.54706,-0.24773
-0.57785,0.80719,-0.12043,0.25072,-0.1557,0.18096
-0.57732,0.81098,-0.0948,0.10993,0.11436,0.3531
-0.57628,0.81419,-0.07044,0.04758,-0.10945,0.18799
-0.57709,0.81536,-0.04614,0.13641,-0.04403,-0.08556
-0.57962,0.81416,-0.03409,0.18963,-0.07518,-0.42172
-0.58449,0.811,-0.02492,0.15875,-0.02038,-0.35496
-0.58903,0.80782,-0.02098,0.17056,-0.03598,-0.22708
-0.59048,0.80662,-0.0258,0.28346,-0.20283,-0.1883
-0.59165,0.80524,-0.03873,0.19622,-0.33358,-0.33783
-0.59524,0.8014,-0.05844,0.21862,-0.41636,-0.31192
-0.60057,0.79604,-0.07487,0.40622,-0.29017,-0.00811
-0.60734,0.78949,-0.08845,0.27358,0.0518,-0.01379
-0.6129,0.78327,-0.10398,0.3506,-0.02241,-0.02293
-0.61483,0.77954,-0.11943,0.41911,-0.09496,-0.00214
-0.61739,0.77672,-0.12452,0.32354,-0.08435,0.10093
-0.62126,0.77305,-0.1281,0.14064,-0.10491,-0.1111
-0.62865,0.76725,-0.1269,-0.02736,-0.15318,-0.22564
-0.6347,0.76255,-0.12506,-0.02156,0.41564,-0.24578
-0.63701,0.75845,-0.13765,-0.11513,0.60317,-0.30036
-0.63518,0.75324,-0.17073,-0.10923,0.41374,-0.22229
-0.63519,0.74406,-0.20708,-0.58839,0.39702,0.03368
-0.6342,0.73155,-0.25021,-0.85165,0.54103,-0.10332
-0.62914,0.71868,-0.29607,-0.47405,0.22648,-0.19398
-0.62467,0.70417,-0.33752,-0.15666,0.34039,0.07029
-0.62207,0.68669,-0.37612,-0.15863,0.17422,0.16703
-0.62192,0.66926,-0.40655,-0.26432,0.13355,-0.03478
-0.62198,0.65619,-0.42725,-0.37688,0.16795,-0.05951
-0.62208,0.6457,-0.4428,-0.37644,0.10742,0.04717
-0.62041,0.63806,-0.45602,-0.03743,-0.19437,0.28935
-0.61931,0.63279,-0.46478,0.02382,-0.26203,0.3502
-0.61909,0.62881,-0.47042,-0.00081,-0.25119,0.34437
-0.61701,0.62911,-0.47276,0.06578,-0.34097,0.12333
-0.61414,0.63575,-0.46759,0.09949,-0.41662,0.09257
-0.6105,0.64901,-0.45393,0.15588,-0.50012,0.13719
-0.60745,0.66604,-0.43287,0.26764,-0.43616,0.17689
-0.60517,0.68337,-0.40835,0.3068,-0.46259,0.08198
-0.60524,0.70312,-0.37321,0.40987,-0.37806,-0.058
-0.60931,0.72482,-0.3215,-0.08632,-0.23869,0.12032
-0.61407,0.74437,-0.26232,-0.08156,-0.25824,0.06114
-0.61685,0.75658,-0.21691,-0.20583,-0.15282,-0.07093
-0.61842,0.75939,-0.20213,0.00055,-0.13788,-0.52719
-0.61643,0.75797,-0.21323,-0.00317,-0.16671,-0.63892
-0.61162,0.75814,-0.22608,0.00565,-0.22935,-0.33738
-0.60659,0.76168,-0.22777,0.01686,-0.09009,0.17984
-0.60908,0.76478,-0.21002,-0.04579,0.42676,0.26695
-0.61572,0.76565,-0.18615,0.09608,0.86051,-0.07058
-0.61149,0.77206,-0.17315,0.12922,0.37914,0.14958
-0.61034,0.77664,-0.15584,-0.40295,0.13985,0.28356
-0.61028,0.77783,-0.15008,-0.30775,0.09015,-0.09768
-0.60557,0.78144,-0.15036,-0.05179,0.39491,-0.185
-0.59315,0.79431,-0.13121,0.00528,0.50676,-0.08597
-0.57801,0.80922,-0.10504,0.06964,0.08321,0.19652
-0.56999,0.81738,-0.08352,-0.47945,0.45703,-0.12093
-0.57219,0.81652,-0.07657,-0.47981,0.4259,-0.31115
-0.57074,0.81599,-0.09155,-0.03021,0.08153,-0.3286
-0.57062,0.81511,-0.09978,0.15862,-0.20558,-0.00364
-0.57207,0.81451,-0.09638,0.17888,0.0133,0.13753
-0.57248,0.81523,-0.08745,0.27162,-0.11662,0.17773
-0.57199,0.81702,-0.0727,0.25671,-0.18213,0.02716
-0.57232,0.81775,-0.06093,0.16725,-0.01143,-0.28945
-0.57365,0.81713,-0.0566,0.16624,-0.00652,-0.35323
-0.57629,0.81511,-0.0588,0.1354,-0.04692,-0.34919
-0.579,0.81248,-0.06796,0.14072,-0.1968,-0.36748
-0.5832,0.80816,-0.08205,0.1327,-0.11581,-0.43978
-0.58696,0.80365,-0.09793,0.24039,-0.20832,-0.26544
-0.59189,0.79808,-0.11272,0.38545,-0.46445,0.09586
-0.59801,0.79197,-0.12301,0.39785,-0.11377,-0.03871
-0.60272,0.78761,-0.12793,0.35106,0.26167,0.00496
-0.60435,0.78517,-0.13507,0.31291,-0.10109,0.0113
-0.60826,0.78081,-0.14258,0.13299,-0.37986,-0.13282
-0.61751,0.7727,-0.14697,-0.05194,-0.12195,-0.24395
-0.62804,0.76373,-0.14919,-0.08064,0.10095,-0.28168
-0.63381,0.75828,-0.15257,0.11742,0.5128,-0.05245
-0.63641,0.75216,-0.1709,-0.1039,0.33232,-0.01081
-0.6385,0.74168,-0.20543,-0.46588,0.19304,-0.05308
-0.63977,0.72863,-0.24448,-0.65125,0.27128,-0.098
-0.63354,0.71835,-0.28736,-0.5324,0.19495,-0.12713
-0.6253,0.70632,-0.33181,-0.41622,0.15615,0.09102
-0.61785,0.69047,-0.37615,-0.34594,0.36832,0.19063
-0.61188,0.67283,-0.41579,-0.26812,0.40665,-0.12996
-0.60628,0.65879,-0.44543,-0.20952,0.20169,-0.22646
-0.60369,0.64699,-0.46577,-0.1686,0.09329,-0.20172
-0.60421,0.63652,-0.47933,-0.08195,0.10158,0.06786
-0.60693,0.62868,-0.48619,0.05772,-0.04692,0.33923
-0.61168,0.62175,-0.48915,0.05844,-0.35638,0.40838
-0.61677,0.61674,-0.4891,0.00351,-0.42327,0.2958
-0.62174,0.61576,-0.48401,0.0063,-0.41074,0.2509
-0.62592,0.6201,-0.47295,0.14918,-0.41876,0.1762
-0.63032,0.63118,-0.45199,0.2601,-0.34265,0.11075
-0.63506,0.64924,-0.41854,0.21903,-0.29552,0.02169
-0.63832,0.67202,-0.37539,0.30978,-0.29893,-0.07917
-0.63944,0.69691,-0.32468,0.33727,-0.21292,-0.0533
-0.64105,0.71783,-0.27158,0.15885,-0.20182,0.03231
-0.64333,0.73221,-0.22356,-0.02112,-0.18832,0.06009
-0.64175,0.74156,-0.19551,-0.01102,-0.11322,-0.18211
-0.63747,0.74603,-0.19246,0.07291,-0.22929,-0.46264
-0.63183,0.74755,-0.2048,0.143,-0.29718,-0.61077
-0.62878,0.7472,-0.21518,0.1281,-0.36013,-0.31048
-0.62537,0.74441,-0.234,-0.10245,-0.22202,-0.15976
-0.62694,0.73726,-0.25174,-0.50496,0.37321,-0.08741
-0.63827,0.73347,-0.23367,-0.1269,1.1198,0.34401
-0.63328,0.73633,-0.23823,0.50017,0.46017,0.52022
-0.62477,0.74476,-0.23444,0.02083,-0.36178,-0.00239
-0.62161,0.7556,-0.20649,-0.16463,0.50053,0.01902
-0.61267,0.77125,-0.17255,-0.42422,0.91864,-0.06388
-0.5994,0.78821,-0.13936,-0.26809,0.1713,0.03774
-0.59055,0.79844,-0.11713,-0.27472,0.28995,-0.13129
-0.58896,0.80117,-0.10594,-0.38784,0.50533,-0.28175
-0.58863,0.80189,-0.10231,-0.06085,0.08869,-0.06773
-0.58723,0.80375,-0.09553,0.15498,0.03747,-0.05021
-0.58684,0.80586,-0.07858,0.15273,0.16698,0.05828
-0.58719,0.80699,-0.06285,0.07516,-0.05063,0.06235
-0.58818,0.80705,-0.05191,0.1293,-0.24748,-0.03984
-0.58982,0.80619,-0.04633,0.24868,-0.29624,-0.1949
-0.59286,0.80426,-0.04075,0.24894,-0.26841,-0.25744
-0.59576,0.80235,-0.03574,0.18309,-0.11653,-0.25445
-0.59548,0.80256,-0.03568,0.32278,-0.26763,-0.16012
-0.59476,0.80283,-0.04133,0.39542,-0.57791,-0.10908
-0.59884,0.79938,-0.0485,0.30453,-0.52745,-0.15423
-0.60516,0.79413,-0.05579,0.26614,0.0688,-0.18881
-0.61084,0.78889,-0.06708,0.17311,0.48491,-0.0964
-0.61411,0.7838,-0.0922,0.33704,-0.47665,-0.05238
-0.61984,0.77703,-0.10952,0.26111,-0.4965,-0.06361
-0.62951,0.76742,-0.12148,-0.13826,0.03739,-0.29568
-0.63853,0.75818,-0.13199,-0.06819,0.29588,-0.31094
-0.63927,0.75573,-0.14204,0.1224,0.46658,-0.20105
-0.63576,0.75332,-0.16819,-0.26505,0.24941,-0.0942
-0.63258,0.74477,-0.21245,-0.64638,0.25547,-0.08121
-0.62911,0.73216,-0.26102,-0.82354,0.30466,-0.13682
-0.62069,0.71793,-0.31512,-0.38586,0.39959,-0.08061
-0.61281,0.69804,-0.3704,-0.35144,0.74171,0.01631
-0.60808,0.67722,-0.41424,-0.28251,0.80525,-0.0105
-0.60358,0.65844,-0.44959,-0.25341,0.31023,0.06352
-0.59629,0.64389,-0.47941,-0.48814,-0.1005,0.04082
-0.59268,0.62757,-0.50484,-0.33721,-0.10347,0.0517
-0.58939,0.61337,-0.52572,0.14173,-0.0517,-0.0089
-0.58851,0.60511,-0.53617,0.35862,-0.15579,0.12745
-0.59433,0.6013,-0.53403,0.32688,-0.26799,0.22793
-0.60463,0.59932,-0.52463,0.03358,-0.42689,0.51333
-0.61417,0.59839,-0.51451,0.08823,-0.49498,0.42596
-0.62319,0.60285,-0.49819,0.2078,-0.45693,0.11229
-0.63202,0.61678,-0.46917,0.16113,-0.41916,-0.02631
-0.63792,0.63752,-0.43198,0.27214,-0.25509,-0.02206
-0.63928,0.65947,-0.39548,0.27407,-0.23636,0.00861
-0.63872,0.67914,-0.36165,0.1611,-0.28804,0.04287
-0.64049,0.69636,-0.32379,0.11179,-0.29358,0.07526
-0.64518,0.71143,-0.27855,0.13407,-0.12702,-0.06611
-0.6488,0.72352,-0.23568,0.0834,0.04862,-0.16288
-0.64732,0.73258,-0.21042,0.01904,-0.14434,-0.25293
-0.64414,0.73833,-0.19982,0.09677,-0.25729,-0.31932
-0.64259,0.74075,-0.19581,0.15444,-0.15541,-0.36634
-0.64173,0.74251,-0.19191,0.13757,-0.08765,-0.36697
-0.64168,0.74485,-0.18281,-0.38557,0.141,-0.28927
-0.64339,0.74473,-0.17722,-0.37215,0.23118,-0.25857
-0.64657,0.74006,-0.18501,-0.40169,0.67691,0.15386
-0.64958,0.7396,-0.17608,0.05641,0.23165,0.38951
-0.64794,0.73882,-0.18518,0.37035,-0.46441,-0.11147
-0.64386,0.74396,-0.17873,0.05903,0.57597,-0.3158
-0.63893,0.75643,-0.13981,-0.17627,1.41183,0.33039
-0.62934,0.76884,-0.11311,0.03986,0.35302,0.21029
-0.6221,0.77582,-0.10518,0.04842,-0.47422,0.0328
-0.6202,0.77837,-0.09728,0.0151,-0.29852,-0.0987
-0.62243,0.77865,-0.07911,-0.14081,-0.05566,-0.08794
-0.62376,0.77965,-0.05513,-0.20791,0.73877,-0.14225
-0.62235,0.78205,-0.03238,0.2456,0.12417,-0.07785
-0.62221,0.78278,-0.00886,0.15134,-0.18799,-0.11129
-0.62447,0.78091,0.01359,0.03275,-0.07255,-0.05043
-0.62792,0.77757,0.03282,0.01326,-0.08162,-0.03489
-0.63107,0.77399,0.0515,0.15277,-0.1261,-0.073
-0.63335,0.77097,0.06665,0.38043,-0.04189,-0.15303
-0.63595,0.76792,0.07641,0.34515,0.048,-0.25577
-0.63948,0.76449,0.08119,0.18444,-0.10408,-0.36503
-0.64421,0.76053,0.08091,0.25873,-0.217,-0.4283
-0.65092,0.75501,0.07896,0.27522,-0.2128,-0.46206
-0.65917,0.74791,0.07803,0.35213,-0.06589,-0.22
-0.6679,0.74046,0.07474,0.38113,0.00189,-0.18903
-0.67561,0.73412,0.0677,0.37545,-0.01424,-0.25285
-0.68276,0.72791,0.06284,0.32798,-0.10456,-0.29262
-0.69001,0.72089,0.06447,0.35988,0.14323,-0.25069
-0.69706,0.71338,0.07188,0.41198,0.31055,-0.22819
-0.70386,0.70651,0.07334,0.20975,0.0067,-0.39919
-0.71226,0.69951,0.05774,0.00068,0.4129,-0.15908
-0.7219,0.69127,0.03123,-0.23832,0.69936,-0.09625
-0.72493,0.68879,-0.0039,-0.41605,0.36846,0.12807
-0.72241,0.68943,-0.05264,-0.28054,0.18191,-0.20644
-0.71847,0.68799,-0.10213,-0.52699,1.17096,0.11138
-0.70881,0.68911,-0.15059,-0.65888,1.52185,0.33426
-0.69034,0.69694,-0.19413,-0.64736,0.52305,0.15927
-0.67453,0.7013,-0.23057,-0.76712,0.29526,0.02584
-0.66059,0.69964,-0.27222,-0.22267,0.41831,0.28985
-0.64555,0.69668,-0.31285,0.19729,0.43212,0.28032
-0.63301,0.69197,-0.34707,0.14558,0.00311,0.4235
-0.62886,0.68223,-0.37293,0.07779,-0.1944,0.54578
-0.63117,0.66903,-0.39244,0.07251,-0.54681,0.49824
-0.63914,0.65614,-0.40118,0.22536,-0.61063,0.36592
-0.64771,0.64642,-0.40322,0.25285,-0.48194,0.32645
-0.65198,0.64213,-0.40321,0.27183,-0.39858,0.28869
-0.65362,0.64259,-0.3998,0.09625,-0.34228,0.15412
-0.65536,0.64603,-0.39131,0.07092,-0.30715,0.16458
-0.65658,0.65214,-0.37894,0.12835,-0.23095,0.09893
-0.65885,0.65953,-0.36182,0.10224,-0.17195,0.02968
-0.66475,0.66566,-0.33909,-0.01185,-0.09516,-0.1206
-0.67231,0.67166,-0.31121,-0.16153,0.04075,-0.35864
-0.68069,0.67381,-0.28745,-0.32105,0.24373,-0.70204
-0.68512,0.66416,-0.29911,-0.38407,0.27979,-0.74845
-0.68495,0.64585,-0.3372,0.0323,-0.01262,-0.55436
-0.68771,0.63303,-0.35539,0.50982,0.08874,-0.229
-0.68929,0.63572,-0.34743,0.69346,0.19852,0.03611
-0.68358,0.64731,-0.33718,0.1707,0.06548,-0.01282
-0.67227,0.66065,-0.33404,-0.46151,0.21342,-0.23771
-0.66734,0.66559,-0.3341,-0.84952,0.49461,0.40048
-0.67016,0.66048,-0.33857,0.10635,-0.51309,0.54622
-0.67333,0.65493,-0.34304,0.32595,-0.67354,0.39685
-0.67658,0.6633,-0.31977,0.35422,0.25473,0.34286
-0.6858,0.6688,-0.28699,0.15403,1.03274,0.42846
-0.68974,0.67302,-0.26698,0.0192,1.01983,0.45752
-0.68434,0.68614,-0.24672,-0.02577,0.01746,0.12904
-0.67806,0.70047,-0.22258,-0.1685,-0.29248,-0.15464
-0.67805,0.70872,-0.19479,-0.18782,-0.22062,-0.14
-0.67899,0.71431,-0.16942,-0.05593,0.13373,0.01168
-0.67546,0.72259,-0.14692,0.10306,0.2026,0.18858
-0.67131,0.73006,-0.12781,0.23647,0.10631,0.21828
-0.66885,0.73577,-0.10601,0.1732,0.00737,0.06998
-0.66739,0.74046,-0.07931,0.11584,0.04058,-0.02749
-0.66507,0.74484,-0.05359,0.13977,0.04992,-0.04525
-0.66208,0.74891,-0.02741,0.15103,-0.04894,-0.00194
-0.65906,0.75206,-0.00254,0.10738,-0.05065,-0.02729
-0.65629,0.75417,0.02169,0.0872,-0.04906,-0.06599
-0.65382,0.75522,0.04613,0.12074,-0.08186,-0.12983
-0.65252,0.75467,0.06821,0.12374,-0.08229,-0.1715
-0.65318,0.75211,0.08743,0.11471,-0.05953,-0.17381
-0.65541,0.74799,0.10442,0.08499,0.0248,-0.10208
-0.65793,0.7434,0.12017,0.01087,0.16695,-0.11803
-0.65906,0.73955,0.13664,-0.07379,0.18774,-0.20984
-0.65906,0.73752,0.14719,-0.07672,0.20847,-0.37231
-0.65919,0.73731,0.14762,-0.04209,0.22793,-0.43111
-0.65984,0.73845,0.13875,0.12528,0.32938,-0.15851
-0.66066,0.74077,0.12146,0.00684,0.26602,-0.2041
-0.66144,0.74348,0.09841,-0.05836,0.14603,-0.29625
-0.66639,0.74288,0.06331,0.14384,-0.13201,-0.31961
-0.67645,0.73637,0.01183,0.13642,-0.02791,-0.12535
-0.68624,0.725,-0.0584,0.09551,0.14442,0.05663
-0.68879,0.71197,-0.13648,-0.30548,1.17958,0.56484
-0.68145,0.70036,-0.21235,-0.32377,0.80036,0.38131
-0.66812,0.69119,-0.2754,-0.06634,0.23046,0.1139
-0.65405,0.68421,-0.32258,0.10133,0.19928,0.25765
-0.64386,0.67627,-0.35789,0.0589,0.18782,0.23506
-0.64087,0.66816,-0.37792,-0.10777,0.17147,0.38131
-0.63607,0.6576,-0.40368,-0.09746,0.21476,0.35543
-0.62487,0.64487,-0.44006,-0.04798,0.01725,0.26317
-0.61034,0.63171,-0.47792,0.05872,-0.04945,0.18722
-0.60114,0.61993,-0.50428,0.06104,-0.05218,0.27402
-0.60004,0.61068,-0.51673,-0.04243,-0.1411,0.44224
-0.60478,0.60363,-0.51948,-0.07378,-0.08349,0.39831
-0.60861,0.60021,-0.51896,-0.01625,-0.11703,0.3008
-0.61012,0.59975,-0.51772,0.03566,-0.14371,0.21011
-0.6094,0.59944,-0.51893,0.06063,-0.09205,0.12532
-0.60987,0.59865,-0.51929,0.12786,-0.02208,0.18741
-0.61345,0.59615,-0.51795,0.1023,-0.0428,0.2367
-0.61834,0.59509,-0.51333,0.06095,-0.11305,0.25842
-0.62365,0.59799,-0.50344,0.02324,-0.14713,0.21323
-0.62797,0.60538,-0.48902,0.00816,-0.14473,0.13708
-0.63182,0.61551,-0.47109,-0.05037,-0.03017,-0.02575
-0.63668,0.6254,-0.45109,-0.01264,0.04153,-0.14687
-0.64134,0.63343,-0.43293,-0.04286,0.14288,-0.26467
-0.64528,0.63805,-0.4201,-0.15716,0.29667,-0.24346
-0.64501,0.63713,-0.42191,-0.20077,0.25174,-0.26803
-0.6405,0.62924,-0.44023,0.1751,-0.05949,-0.42585
-0.63749,0.6195,-0.45805,0.37965,-0.09047,-0.15828
-0.63783,0.61494,-0.46368,0.34144,-0.09997,-0.03771
-0.64039,0.61692,-0.45748,-0.02101,-0.02994,0.03779
-0.64083,0.62657,-0.44355,-0.20631,0.0524,-0.12038
-0.63818,0.64049,-0.42718,-0.49971,0.36844,-0.04884
-0.63511,0.65159,-0.41478,-0.72112,0.71755,0.24481
-0.63605,0.64819,-0.41866,-0.10326,0.04587,0.2271
-0.63196,0.63561,-0.4434,0.53216,-0.59261,0.3505
-0.62755,0.63448,-0.45121,0.4878,-0.13048,0.47827
-0.63274,0.65063,-0.41989,-0.03647,0.69573,0.41318
-0.63782,0.66051,-0.3961,-0.1291,0.83464,0.42164
-0.63575,0.66891,-0.38517,-0.10589,0.07308,0.28981
-0.62875,0.68184,-0.37383,-0.11948,-0.28026,0.04969
-0.62777,0.69285,-0.35475,-0.11117,-0.27924,0.02871
-0.62902,0.70073,-0.33658,-0.0843,-0.17635,0.00284
-0.62926,0.70927,-0.3177,0.10061,0.15018,0.12895
-0.62925,0.71861,-0.296,0.15299,0.17042,0.24664
-0.62866,0.72672,-0.27683,0.11377,0.13801,0.19083
-0.62888,0.73346,-0.2579,0.08089,0.08223,0.11026
-0.62979,0.73868,-0.2402,0.05546,0.01945,0.0081
-0.62981,0.7435,-0.22477,0.08992,0.01571,-0.00945
-0.62848,0.74848,-0.21158,0.08232,0.00579,-0.00293
-0.6265,0.75316,-0.20058,0.09517,0.01975,0.05536
-0.62531,0.75647,-0.19161,0.08594,0.00102,0.05181
-0.62368,0.75947,-0.18492,0.05857,-0.02932,-0.01664
-0.62277,0.76173,-0.17862,0.1417,-0.07833,-0.07137
-0.6236,0.76286,-0.17071,0.1855,-0.10801,-0.04444
-0.62446,0.76328,-0.16562,0.23137,-0.14211,-0.01056
-0.62471,0.76173,-0.17167,0.12175,-0.06864,-0.04981
-0.6249,0.75688,-0.19132,0.05971,-0.05844,-0.15118
-0.62453,0.74838,-0.22332,0.19629,-0.30936,0.06957
-0.62237,0.73764,-0.26176,0.30106,-0.44754,0.40226
-0.62525,0.72733,-0.2829,0.23108,-0.2383,0.26138
-0.62961,0.71851,-0.29547,0.15674,0.02131,-0.09922
-0.63267,0.71183,-0.30496,0.00365,0.13631,-0.18835
-0.63307,0.70688,-0.31548,0.24412,-0.13948,0.03186
-0.63338,0.70304,-0.32334,0.29442,-0.18779,0.0556
-0.63494,0.69938,-0.32816,0.26838,0.07175,0.03063
-0.63868,0.69653,-0.32698,0.08686,0.15796,-0.04434
-0.64259,0.69472,-0.32314,0.04339,0.18333,-0.13418
-0.64362,0.69249,-0.32587,0.00815,0.33612,-0.07691
-0.63971,0.68797,-0.34271,-0.11229,0.47675,0.01488
-0.63629,0.67987,-0.36454,-0.41527,0.26175,0.18133
-0.63337,0.66598,-0.39407,-0.51487,0.36354,0.12428
-0.62912,0.64676,-0.43115,-0.54726,0.3539,0.04892
-0.62228,0.62366,-0.47307,-0.17415,0.48602,0.03673
-0.61488,0.59784,-0.51429,-0.36139,0.68219,-0.13215
-0.60935,0.57897,-0.54173,-0.51629,0.43963,-0.154
-0.60045,0.56318,-0.56769,-0.1564,0.13646,0.0421
-0.59057,0.55096,-0.58962,0.00044,0.10006,0.20759
-0.58317,0.54204,-0.60505,-0.01584,0.18498,0.31865
-0.58378,0.52952,-0.61546,-0.03141,0.01966,0.33674
-0.5852,0.5161,-0.62543,-0.09668,-0.17765,0.27742
-0.58688,0.50623,-0.63189,-0.10535,-0.25991,0.22808
-0.59069,0.49968,-0.63356,-0.01576,-0.2403,0.24479
-0.59589,0.49785,-0.63011,0.17905,-0.13387,0.22998
-0.60184,0.50057,-0.62226,0.22504,-0.13006,0.17887
-0.60533,0.50918,-0.6118,0.12152,-0.25175,0.1677
-0.60751,0.52393,-0.597,0.12726,-0.37317,0.12459
-0.61027,0.54388,-0.57598,0.17895,-0.36297,0.1346
-0.61175,0.56798,-0.55059,0.20077,-0.31071,0.19394
-0.61394,0.59632,-0.51717,0.19874,-0.2244,0.18056
-0.6193,0.62692,-0.47267,0.10691,-0.12297,0.12805
-0.62511,0.65519,-0.4242,0.09,-0.08213,0.04264
-0.63025,0.67626,-0.38136,0.07431,-0.05832,-0.00807
-0.6304,0.68918,-0.35723,-0.02974,-0.02389,-0.15456
-0.62578,0.69827,-0.34757,-0.00931,-0.09031,-0.27139
-0.62065,0.70644,-0.34017,0.14059,-0.10547,-0.12901
-0.61613,0.71338,-0.33384,0.19178,-0.04251,0.00744
-0.61107,0.7207,-0.32736,0.15657,0.0078,0.01912
-0.60681,0.72662,-0.32216,-0.08429,0.01038,-0.24959
-0.60273,0.73098,-0.31996,-0.23387,-0.01651,-0.24419
-0.60038,0.73386,-0.31775,-0.37122,0.09795,-0.15628
-0.60299,0.73463,-0.31095,-0.1382,0.43485,0.5469
-0.60315,0.73891,-0.30031,0.13537,0.11748,0.53981
-0.59618,0.74381,-0.30214,0.10574,-0.06857,0.33609
-0.58994,0.75011,-0.29879,-0.24191,0.5465,-0.07363
-0.58999,0.75935,-0.27436,-0.52656,1.07216,0.07517
-0.5835,0.76943,-0.25977,-0.34907,0.86262,0.0669
-0.57304,0.77998,-0.25146,0.06329,0.31877,-0.02746
-0.56722,0.78614,-0.2454,-0.05381,0.03282,0.11939
-0.56411,0.78885,-0.24387,-0.24871,-0.11594,0.11916
-0.5644,0.79181,-0.23336,-0.06404,0.08778,0.17365
-0.56391,0.79702,-0.21617,0.03733,0.05735,0.21259
-0.56446,0.80192,-0.19566,0.1036,-0.08623,0.14813
-0.56686,0.80507,-0.17466,0.12092,-0.07365,0.09674
-0.56984,0.806,-0.16007,0.07803,-0.04915,-0.02271
-0.57324,0.80588,-0.1481,0.10578,-0.0702,-0.0257
-0.57623,0.8052,-0.13992,0.14891,-0.08615,-0.08344
-0.5781,0.80385,-0.13999,0.23493,-0.14368,-0.1871
-0.57951,0.80101,-0.15006,0.10623,-0.23235,-0.29388
-0.58142,0.79561,-0.17006,0.23012,-0.34466,-0.1774
-0.58358,0.78811,-0.19566,0.31069,-0.37907,-0.04525
-0.58664,0.77943,-0.2198,0.17055,-0.186,0.02353
-0.59361,0.76812,-0.23998,0.12555,-0.0666,-0.106
-0.60186,0.75662,-0.25548,0.24563,0.11724,-0.01596
-0.60668,0.75106,-0.26042,0.40784,-0.02969,0.23519
-0.60916,0.74657,-0.26746,0.16238,-0.37054,-0.01171
-0.61271,0.74018,-0.27692,0.13325,-0.09561,0.03014
-0.61769,0.73434,-0.28138,0.08304,0.35332,-0.14283
-0.62342,0.73028,-0.27931,0.10374,0.314,-0.17597
-0.62577,0.72938,-0.27638,0.04156,0.4213,-0.04788
-0.62386,0.72703,-0.28672,-0.16866,0.105,-0.05063
-0.62184,0.71482,-0.31989,-0.4679,0.17576,0.09044
-0.6207,0.69434,-0.36414,-0.6748,0.46685,-0.02754
-0.61577,0.67338,-0.40912,-0.41134,0.40734,-0.03746
-0.60791,0.65119,-0.45428,-0.35594,0.42204,0.11488
-0.60012,0.62716,-0.49651,-0.43312,0.48407,0.13379
-0.59231,0.60492,-0.53219,-0.38625,0.40689,-0.06809
-0.58398,0.58572,-0.56204,-0.20739,0.12851,-0.05875
-0.57407,0.57245,-0.58544,-0.19365,0.13145,-0.06534
-0.56886,0.55934,-0.60292,-0.04384,0.19766,0.21643
-0.56727,0.54785,-0.61486,0.08825,0.07734,0.39434
-0.56901,0.54048,-0.61975,0.02833,-0.11651,0.39566
-0.57333,0.53732,-0.61851,-0.08543,-0.27783,0.30057
-0.57924,0.54026,-0.6104,0.03383,-0.36265,0.25933
-0.58481,0.5483,-0.59779,0.13138,-0.33121,0.21079
-0.59131,0.56103,-0.5793,0.21184,-0.27308,0.1864
-0.5982,0.58048,-0.55243,0.12007,-0.20789,0.22462
-0.6035,0.60539,-0.51893,0.17984,-0.29696,0.14653
-0.60915,0.63366,-0.47686,0.25393,-0.30091,0.04929
-0.61567,0.66109,-0.42883,0.294,-0.30047,0.19911
-0.62431,0.68416,-0.37701,0.1085,-0.2324,0.31951
-0.62878,0.70281,-0.33267,0.01715,-0.17049,0.26857
-0.62633,0.7143,-0.31218,-0.12651,-0.17084,-0.22001
-0.62032,0.71883,-0.31378,0.07729,-0.21703,-0.45305
-0.61434,0.7219,-0.31847,0.19321,0.09144,-0.08759
-0.60766,0.72739,-0.3188,0.11797,0.13348,0.0257
-0.60255,0.73487,-0.31125,-0.11463,-0.03136,0.13016
-0.59906,0.73967,-0.30657,-0.09233,-0.13533,-0.39129
-0.59752,0.74165,-0.30479,-0.1889,0.10335,-0.1545
-0.5978,0.74207,-0.30323,-0.36561,0.27043,0.14602
-0.60637,0.74196,-0.28599,0.05551,0.50729,0.64313
-0.60862,0.74458,-0.27415,0.23156,0.22309,0.50011
-0.60371,0.74863,-0.27396,-0.02667,0.01483,0.06032
-0.59779,0.75394,-0.27239,-0.28966,0.7881,0.07348
-0.59004,0.76397,-0.26113,-0.23287,0.71844,0.15422
-0.57861,0.77621,-0.25036,-0.0571,0.36347,0.16114
-0.57061,0.78606,-0.23765,-0.20666,0.31519,0.06764
-0.56751,0.79192,-0.22534,-0.26834,0.18056,0.04107
-0.56718,0.79504,-0.21492,-0.23744,0.05376,0.04774
-0.5676,0.79774,-0.20349,-0.1103,0.18318,0.03771
-0.56702,0.80219,-0.18698,0.04082,0.06268,0.12001
-0.56726,0.8062,-0.16801,0.04197,-0.08841,0.12433
-0.56925,0.8082,-0.15081,0.10694,-0.08614,0.03566
-0.57238,0.8084,-0.13725,0.14756,-0.07866,-0.03594
-0.57613,0.8074,-0.1271,0.21247,-0.09577,-0.07154
-0.57958,0.80601,-0.12002,0.29687,-0.16256,-0.0576
-0.58198,0.80458,-0.118,0.29177,-0.27659,-0.06188
-0.58368,0.80279,-0.12171,0.17859,-0.3098,-0.17193
-0.58639,0.79937,-0.13085,0.17929,-0.30937,-0.36155
-0.58947,0.79411,-0.14793,0.28969,-0.33867,-0.22223
-0.59379,0.78724,-0.16624,0.22117,-0.14366,0.03783
-0.60021,0.77719,-0.18893,0.22599,0.0208,-0.02996
-0.60676,0.76548,-0.21412,0.39592,-0.07565,0.04033
-0.61143,0.75742,-0.229,0.48209,-0.07371,0.16921
-0.61541,0.7518,-0.23674,0.34109,-0.00589,0.11245
-0.62065,0.7461,-0.24103,0.16769,-0.02474,0.0023
-0.62599,0.7399,-0.24628,-0.02116,-0.00153,-0.09022
-0.63175,0.73075,-0.2586,-0.19784,0.318,-0.12577
-0.63294,0.71937,-0.28613,-0.08488,0.36674,-0.07454
-0.63004,0.70657,-0.32217,-0.26366,0.24817,0.07911
-0.6289,0.6875,-0.36305,-0.72478,0.40788,-0.00458
-0.62205,0.66751,-0.40923,-0.69116,0.62731,-0.06976
-0.6118,0.6466,-0.45561,-0.59081,0.42691,0.03792
-0.60292,0.62305,-0.49828,-0.43883,0.5834,0.08899
-0.59204,0.6016,-0.53624,-0.31569,0.10903,-0.09618
-0.58156,0.58494,-0.56535,-0.27392,-0.04742,-0.09437
-0.5723,0.5753,-0.58437,-0.26527,0.00791,-0.04654
-0.56627,0.56671,-0.59846,-0.07823,0.16342,0.2682
-0.56359,0.5603,-0.60697,-0.02863,0.06639,0.3682
-0.56543,0.55652,-0.60873,-0.00598,-0.27207,0.45647
-0.57213,0.55341,-0.6053,-0.04174,-0.32818,0.41244
-0.5791,0.55345,-0.5986,-0.03208,-0.40199,0.32925
-0.58474,0.55851,-0.58833,0.0947,-0.27935,0.21019
-0.59027,0.56969,-0.57185,0.1567,-0.20665,0.23141
-0.59511,0.58708,-0.54878,0.11184,-0.22071,0.15777
-0.59989,0.60907,-0.51879,0.19297,-0.33565,0.12426
-0.60495,0.63508,-0.48031,0.25888,-0.24584,0.14672
-0.61036,0.6627,-0.4339,0.1856,-0.24269,0.23009
-0.61671,0.68696,-0.38436,0.18458,-0.1307,0.19054
-0.62201,0.70537,-0.33991,0.1795,-0.07837,0.0941
-0.62154,0.71558,-0.31876,0.08068,-0.1612,-0.26055
-0.61472,0.72016,-0.32165,0.09823,-0.2173,-0.39244
-0.60541,0.72457,-0.32932,0.11527,-0.17538,-0.17186
-0.59619,0.73071,-0.33256,0.11361,-0.24603,0.20431
-0.59188,0.73388,-0.33328,-0.11982,-0.05884,-0.08261
-0.59066,0.73182,-0.33991,-0.23719,0.09472,-0.26022
-0.59633,0.72826,-0.33765,-0.45479,0.93801,0.13584
-0.59994,0.73311,-0.32032,0.28398,0.22863,0.7138
-0.58869,0.74212,-0.32043,0.39852,-0.21697,0.63134
-0.58413,0.75016,-0.30988,-0.22448,0.47776,-0.06459
-0.58013,0.7619,-0.288,-0.4572,1.23542,0.18935
-0.568,0.77789,-0.26877,-0.39814,0.47826,0.01325
-0.55903,0.78711,-0.26062,-0.23128,0.23035,-0.23558
-0.55425,0.78889,-0.26539,-0.03695,-0.12377,-0.04532
-0.54964,0.78964,-0.27265,-0.09088,-0.0354,0.25727
-0.54706,0.79536,-0.26097,0.13218,0.47478,0.3215
-0.54268,0.80525,-0.23884,0.02484,0.06371,0.19399
-0.54035,0.81357,-0.21472,0.11171,-0.12956,0.14909
-0.54121,0.81759,-0.19651,0.11257,-0.09304,0.0105
-0.54377,0.81792,-0.18787,0.02801,-0.10927,-0.03056
-0.54796,0.81657,-0.18144,-0.00558,-0.14312,-0.0116
-0.55346,0.81384,-0.17695,0.10177,-0.08444,-0.09607
-0.55823,0.81152,-0.17259,0.24157,-0.03687,-0.14444
-0.56093,0.81004,-0.17079,0.27855,-0.12829,-0.15321
-0.56192,0.80803,-0.1769,0.22945,-0.25089,-0.16897
-0.56491,0.803,-0.18982,0.1091,-0.29754,-0.20865
-0.57013,0.79565,-0.2046,0.23424,-0.28155,-0.04859
-0.57529,0.7882,-0.21855,0.28897,-0.22803,0.23324
-0.58282,0.78001,-0.22777,0.20714,-0.11292,0.11405
-0.59283,0.76991,-0.23613,0.184,0.07275,-0.02874
-0.60177,0.76108,-0.24209,0.25103,0.20905,0.00186
-0.60706,0.75412,-0.25051,0.04291,-0.24673,-0.05439
-0.61105,0.74871,-0.25697,0.01905,-0.20264,-0.07357
-0.61426,0.74404,-0.26277,0.0205,0.04621,-0.16017
-0.61598,0.7393,-0.27199,0.01311,0.14301,-0.1338
-0.6175,0.73252,-0.2865,-0.00163,0.27018,-0.07199
-0.61768,0.72526,-0.30404,-0.16294,0.26158,0.1861
-0.61576,0.7178,-0.32493,-0.66974,0.36946,0.17355
-0.61247,0.70781,-0.35195,-0.73031,0.44757,0.17293
-0.60372,0.69679,-0.38727,-0.3137,0.35203,0.0502
-0.5923,0.68226,-0.42858,-0.25049,0.22277,0.04319
-0.58253,0.66621,-0.46562,-0.27524,0.34525,0.08674
-0.57612,0.6473,-0.49907,-0.14733,0.39626,-0.01056
-0.57338,0.62658,-0.52785,-0.23607,0.32185,-0.04172
-0.57167,0.61311,-0.54522,-0.44455,0.18428,0.0959
-0.57083,0.60511,-0.55495,-0.38322,0.0638,0.184
-0.57075,0.59551,-0.56533,0.0078,-0.074,0.2671
-0.56924,0.58636,-0.57631,0.19613,-0.19047,0.23712
-0.57114,0.57882,-0.58203,0.09767,-0.22404,0.20091
-0.57989,0.57369,-0.57844,2e-05,-0.13842,0.26839
-0.59082,0.57147,-0.5695,-0.0187,-0.1814,0.30562
-0.5992,0.57237,-0.55977,-0.01033,-0.18229,0.29588
-0.60472,0.57863,-0.54725,0.15187,-0.23372,0.13575
-0.60906,0.59161,-0.52823,0.13227,-0.25656,0.10168
-0.61304,0.60972,-0.50241,0.1432,-0.34392,0.06424
-0.61704,0.63082,-0.47044,0.19524,-0.29731,0.07943
-0.62009,0.65345,-0.43413,0.16895,-0.15916,0.12565
-0.62514,0.67589,-0.39032,0.16584,-0.13378,0.20904
-0.63375,0.69288,-0.34389,0.11544,-0.14081,0.1528
-0.63934,0.70259,-0.31239,0.00851,-0.20911,-0.20144
-0.63721,0.70786,-0.30474,0.04427,-0.19224,-0.38475
-0.62939,0.71128,-0.31293,0.08885,-0.15676,-0.52326
-0.62184,0.71434,-0.32095,0.09417,-0.25581,-0.16733
-0.61639,0.71742,-0.32457,0.11173,-0.16838,0.11031
-0.61556,0.71471,-0.33203,0.01447,0.00338,0.08053
-0.61717,0.71117,-0.33662,-0.32333,0.70173,-0.08564
-0.62209,0.71409,-0.32102,-0.02592,0.50084,0.55379
-0.61417,0.71891,-0.32549,0.28025,-0.24106,0.45185
-0.61022,0.72458,-0.3203,-0.27629,0.38954,-0.14577
-0.60773,0.73426,-0.3025,-0.13282,0.93707,0.12327
-0.59413,0.75362,-0.28114,-0.1772,0.52965,0.21555
-0.58396,0.77112,-0.25363,-0.53444,0.49812,0.0813
-0.5808,0.77716,-0.24222,-0.39512,0.32535,-0.16849
-0.5772,0.77535,-0.25623,-0.06494,-0.18283,-0.0049
-0.57336,0.77478,-0.26636,0.09172,0.00211,0.10912
-0.57136,0.78016,-0.25471,0.2544,0.39713,0.23208
-0.5692,0.78895,-0.23139,0.23841,-0.00456,0.26905
-0.56825,0.79743,-0.20291,0.2581,-0.21938,0.1973
-0.56943,0.80196,-0.18047,0.1028,-0.14671,0.02689
-0.57323,0.80284,-0.1638,-0.08532,0.00769,-0.12234
-0.57915,0.80152,-0.14876,0.01857,-0.00664,-0.13121
-0.58482,0.79912,-0.13915,0.23879,-0.16535,-0.13931
-0.58795,0.79648,-0.14109,0.2192,-0.2443,-0.30733
-0.59045,0.7937,-0.1462,0.21806,-0.22533,-0.29785
-0.59256,0.79011,-0.15677,0.30086,-0.20589,-0.13139
-0.5934,0.78724,-0.16761,0.35677,-0.2834,0.18944
-0.5945,0.7838,-0.17941,0.28818,-0.29981,0.17145
-0.59798,0.77809,-0.19225,0.2749,-0.15369,0.06388
-0.60277,0.77228,-0.20056,0.18819,-0.03269,0.08371
-0.60874,0.76617,-0.20588,0.1717,-0.09291,0.00615
-0.61437,0.75932,-0.21436,0.10775,-0.0986,-0.11091
-0.6213,0.75128,-0.22256,-0.08707,0.22581,-0.10288
-0.62809,0.73904,-0.24349,-0.17029,0.28182,-0.07635
-0.63202,0.72382,-0.27677,-0.21051,0.3774,0.09251
-0.63239,0.70607,-0.31864,-0.65132,0.49393,-0.00019
-0.63324,0.68496,-0.36029,-0.85757,0.69397,0.01355
-0.62805,0.66357,-0.40646,-0.46317,0.39332,-0.04366
-0.62187,0.64036,-0.45076,-0.21193,0.29547,0.07431
-0.61435,0.61662,-0.49227,-0.15585,0.24767,0.12223
-0.61061,0.594,-0.52374,-0.14126,0.09097,0.09419
-0.60798,0.57638,-0.54602,-0.29057,0.20036,-0.10727
-0.60682,0.56386,-0.56019,-0.2224,0.196,0.15115
-0.60595,0.55566,-0.56926,-0.12355,0.04596,0.28114
-0.60376,0.55094,-0.57612,0.06731,-0.26618,0.3817
-0.60373,0.55016,-0.57691,0.17275,-0.34433,0.4449
-0.60653,0.55292,-0.5713,0.24525,-0.37339,0.3764
-0.61034,0.55967,-0.56057,0.24848,-0.37811,0.29828
-0.61441,0.57292,-0.54244,0.14956,-0.34349,0.27178
-0.61772,0.59259,-0.51695,0.09364,-0.40986,0.15852
-0.62158,0.61764,-0.48181,0.19957,-0.44531,0.06924
-0.62778,0.64711,-0.43258,0.41859,-0.21971,0.08497
-0.63671,0.67545,-0.37194,0.08401,-0.09829,0.19274
-0.64029,0.69966,-0.31698,-0.11805,0.01967,0.0954
-0.637,0.71555,-0.28669,0.03881,-0.24523,-0.39935
-0.63369,0.72146,-0.27912,0.05759,-0.30783,-0.34072
-0.62977,0.72291,-0.28418,0.13736,-0.31129,-0.28188
-0.62262,0.72424,-0.2963,0.04424,0.08858,0.10462
-0.61441,0.73018,-0.29886,-0.23568,0.27779,0.20683
-0.62149,0.73123,-0.28112,-0.4137,0.82066,0.39702
-0.62337,0.72627,-0.28968,0.35646,0.22104,0.15185
-0.61387,0.72982,-0.30082,0.32032,-0.19567,0.01714
-0.60707,0.74337,-0.28078,-0.12538,0.77771,0.21408
-0.59627,0.7635,-0.24802,-0.26146,0.80282,0.21385
-0.58734,0.78236,-0.20717,-0.32727,0.49614,0.13961
-0.58073,0.79487,-0.1758,-0.49792,0.44272,-0.2483
-0.57955,0.79896,-0.16049,-0.08972,-0.08406,0.07806
-0.57881,0.7982,-0.16681,-0.02292,-0.31036,0.16623
-0.57824,0.79656,-0.17635,0.04859,-0.1218,0.10406
-0.58128,0.79582,-0.16958,0.30073,0.04618,0.22133
-0.58298,0.79795,-0.1529,0.3794,-0.07264,0.24717
-0.58436,0.8018,-0.12489,0.22908,0.01414,0.04924
-0.58761,0.80234,-0.10457,0.09085,0.14615,-0.17731
-0.59258,0.80024,-0.09185,0.07195,0.17051,-0.43238
-0.59913,0.79596,-0.08641,0.20939,-0.43916,-0.27672
-0.60874,0.7887,-0.08571,0.24664,-0.40166,-0.13786
-0.6194,0.7806,-0.08356,0.25444,-0.05966,-0.04224
-0.62908,0.7733,-0.07895,0.15378,0.04381,-0.13336
-0.63812,0.76627,-0.0749,0.36607,0.01426,-0.19643
-0.64726,0.75913,-0.06889,0.51825,0.25224,-0.10575
-0.65735,0.75135,-0.05773,0.3068,0.40991,0.05328
-0.66639,0.74379,-0.05164,0.06298,0.06751,-0.23428
-0.67656,0.73395,-0.05966,-0.22516,-0.2325,-0.5596
-0.69035,0.71946,-0.076,0.00292,0.26721,-0.23885
-0.70202,0.70674,-0.08747,-0.10051,0.79779,0.36297
-0.71169,0.69498,-0.10233,-0.38258,0.42888,0.37484
-0.71382,0.6884,-0.12856,-0.37254,0.11416,-0.17737
-0.71055,0.68394,-0.16528,-0.11472,0.52512,-0.00336
-0.7023,0.68214,-0.20355,-0.27046,0.91518,0.36326
-0.68811,0.68411,-0.24181,-0.33715,0.88921,0.44002
-0.66964,0.69125,-0.27153,-0.60042,0.59276,0.2529
-0.65185,0.69691,-0.29897,-0.72064,0.46346,0.27099
-0.63713,0.69589,-0.33134,-0.37476,0.08109,0.51389
-0.62031,0.68953,-0.37382,0.27415,0.19646,0.05718
-0.6073,0.67587,-0.41758,0.32467,0.24234,0.05875
-0.60709,0.66078,-0.44136,0.24726,0.19111,0.186
-0.61338,0.64649,-0.45366,-0.06736,-0.49347,0.60498
-0.62433,0.62973,-0.4622,-0.01506,-0.6095,0.5195
-0.63673,0.61325,-0.46741,0.07824,-0.56261,0.39733
-0.64856,0.60032,-0.46794,0.2522,-0.21516,0.28075
-0.65872,0.5931,-0.46294,0.15323,-0.19774,0.28888
-0.66724,0.59182,-0.45224,0.15595,-0.24304,0.23031
-0.67629,0.59473,-0.43464,0.11887,-0.10722,0.04016
-0.6867,0.59968,-0.41086,0.1242,-0.04855,-0.01797
-0.69756,0.60322,-0.38666,0.05428,0.05998,-0.14164
-0.70495,0.60211,-0.37482,0.03247,0.13387,-0.76431
-0.7087,0.59179,-0.38408,0.20652,0.25732,-0.78626
-0.70591,0.57817,-0.40914,0.635,0.54547,-0.27982
-0.69965,0.57276,-0.4271,0.60813,0.32415,-0.13006
-0.69956,0.57139,-0.42907,0.48916,0.23818,-0.12466
-0.69978,0.57231,-0.42749,0.11204,0.1284,-0.16429
-0.6973,0.57547,-0.4273,-0.15126,0.2766,-0.09826
-0.69129,0.57834,-0.43315,-1.02761,0.9825,0.07252
-0.69928,0.57616,-0.42311,0.10489,-0.51101,0.46479
-0.70033,0.56733,-0.4332,0.24946,-0.47638,0.31999
-0.70861,0.5689,-0.41737,0.05589,0.04717,0.54638
-0.72303,0.57262,-0.38641,-0.02878,0.88779,0.67674
-0.73066,0.57429,-0.36919,-0.06074,0.64305,0.50566
-0.7349,0.58288,-0.34663,-0.04128,0.29322,0.25602
-0.73801,0.59732,-0.31389,-0.04179,0.17439,0.05933
-0.73752,0.61154,-0.28646,0.03469,0.11567,0.02561
-0.73657,0.62399,-0.26089,0.09914,0.09082,0.04004
-0.73662,0.63538,-0.23163,0.29894,0.08444,0.12594
-0.73802,0.64363,-0.20259,0.28951,0.02621,0.1176
-0.73918,0.64994,-0.17654,0.24428,-0.05758,0.09272
-0.74066,0.6548,-0.15042,0.21669,-0.08339,0.11022
-0.74184,0.65933,-0.12222,0.23327,-0.0364,0.11635
-0.74189,0.66398,-0.0933,0.23727,0.06431,0.10529
-0.7413,0.66809,-0.06398,0.21995,0.08432,0.05915
-0.74074,0.6709,-0.03417,0.2181,0.05209,0.01598
-0.74038,0.67216,-0.00327,0.22925,0.08324,-0.0328
-0.74068,0.67125,0.02788,0.24453,0.06237,-0.05484
-0.74242,0.66762,0.05538,0.20853,0.16896,-0.05498
-0.74584,0.66151,0.07801,0.10465,0.24358,-0.03776
-0.74937,0.65475,0.09855,0.0431,0.22318,-0.06926
-0.75113,0.6496,0.11739,0.07575,0.24825,-0.11276
-0.7516,0.64659,0.13032,0.16009,0.27985,-0.10891
-0.75245,0.645,0.13322,-0.02584,0.41452,-0.15369
-0.75391,0.64388,0.13037,-0.15476,0.32884,-0.39587
-0.75494,0.64384,0.12446,0.02524,0.2114,-0.53141
-0.7589,0.64186,0.1098,0.18278,0.37119,-0.38082
-0.76417,0.63895,0.08809,0.20229,0.51189,0.05883
-0.76784,0.63846,0.05246,0.1691,0.48568,0.14616
-0.76754,0.64092,0.00807,0.138,0.38499,0.24854
-0.76304,0.64478,-0.04486,-0.19552,0.00583,-0.14658
-0.75629,0.64663,-0.0993,-0.18002,0.17428,-0.05237
-0.74916,0.64644,-0.14439,-0.12147,0.33551,0.10928
-0.74045,0.64478,-0.18966,0.01117,0.3214,0.26777
-0.72926,0.64412,-0.23077,0.04208,0.24961,0.3651
-0.71663,0.64234,-0.27169,0.06276,0.17536,0.43529
-0.70718,0.63506,-0.31076,0.13571,0.3132,0.26258
-0.70194,0.62459,-0.34227,0.11112,0.15448,0.21213
-0.69517,0.61445,-0.37305,0.04789,-0.05264,0.26031
-0.69037,0.60447,-0.39747,0.03573,-0.07623,0.26978
-0.68764,0.59429,-0.41707,0.03414,-0.14455,0.2215
-0.68605,0.58413,-0.43372,0.08267,-0.11947,0.14087
-0.68449,0.57543,-0.44758,0.15295,-0.07812,0.18115
-0.68305,0.56967,-0.45707,0.16818,-0.02015,0.1735
-0.68281,0.56769,-0.45986,0.09079,-0.05834,0.1524
-0.68384,0.56971,-0.45582,0.06193,-0.10952,0.14032
-0.6861,0.57368,-0.44738,0.08252,-0.1191,0.12394
-0.68871,0.57906,-0.43629,0.13697,-0.17522,0.07909
-0.69239,0.58619,-0.42067,0.15,-0.15307,0.01492
-0.69747,0.59631,-0.39741,0.08095,-0.08351,-0.12783
-0.70311,0.61018,-0.36511,-0.04563,0.03929,-0.25668
-0.70729,0.6241,-0.33199,-0.09978,0.15359,-0.30199
-0.70818,0.63127,-0.31617,-0.09477,0.31941,-0.33601
-0.70396,0.6282,-0.33133,0.09949,0.12638,-0.42064
-0.69954,0.61919,-0.35669,0.31336,0.08136,-0.28711
-0.6963,0.61488,-0.37022,0.39968,0.09618,-0.07349
-0.69199,0.62083,-0.36838,0.22368,0.06007,-0.15382
-0.68771,0.63091,-0.35913,0.06732,0.13876,-0.1548
-0.6798,0.64216,-0.35425,-0.13862,0.33223,-0.09793
-0.66887,0.65346,-0.35437,-0.54315,0.47106,0.55996
-0.67034,0.66145,-0.33632,0.15702,-0.22555,0.70649
-0.67071,0.66273,-0.33303,0.21453,0.00824,0.28819
-0.67984,0.66186,-0.31582,-0.12111,0.26991,0.33086
-0.68604,0.66081,-0.30439,-0.2201,0.17758,0.21055
-0.68536,0.66722,-0.29167,-0.15783,0.1062,0.08139
-0.68059,0.67992,-0.27291,0.02844,0.02911,-0.07458
-0.67339,0.69395,-0.25485,0.14915,0.06542,-0.03913
-0.66777,0.70778,-0.23046,0.19195,0.06224,0.13021
-0.66492,0.71792,-0.20603,0.20474,0.04639,0.13889
-0.66436,0.72372,-0.18661,0.17318,0.04842,-0.00646
-0.66492,0.72725,-0.17018,0.13399,0.02771,-0.15304
-0.66489,0.73025,-0.15693,0.12256,-0.00889,-0.2053
-0.66428,0.73263,-0.1482,0.14656,-0.04566,-0.20606
-0.66441,0.7326,-0.14774,0.15008,-0.0627,-0.23351
-0.6652,0.72958,-0.15872,0.1565,-0.12711,-0.2952
-0.666,0.72318,-0.18287,0.17277,-0.27356,-0.24785
-0.66693,0.7139,-0.21339,0.21812,-0.41571,-0.08228
-0.66995,0.70462,-0.23376,0.28739,-0.27407,-0.09795
-0.67478,0.69721,-0.24197,0.3666,0.14144,-0.20154
-0.67614,0.69213,-0.25251,0.33561,0.0503,-0.08712
-0.67607,0.6888,-0.26163,0.35585,-0.16033,0.09458
-0.67754,0.6851,-0.26751,0.36324,-0.08253,0.05587
-0.6768,0.68296,-0.27476,0.19965,-0.00222,-0.00663
-0.67688,0.68121,-0.27887,0.10074,0.02871,-0.0615
-0.67773,0.68071,-0.27801,0.29631,0.09685,-0.05858
-0.677,0.68239,-0.27569,0.31773,0.06258,-0.08181
-0.67584,0.68263,-0.27793,0.1899,-0.14706,0.05261
-0.67649,0.67964,-0.28362,-0.20083,0.28159,-0.06251
-0.67962,0.66794,-0.30324,-0.3769,0.3641,-0.17738
-0.67901,0.65134,-0.33865,-0.45048,0.51405,-0.10666
-0.67636,0.62917,-0.38296,-0.56079,0.65939,-0.26104
-0.67214,0.60602,-0.42538,-0.48373,0.62374,-0.05805
-0.66658,0.58313,-0.46434,-0.32463,0.3061,-0.13811
-0.66002,0.56269,-0.49773,-0.24832,0.24026,-0.07433
-0.65001,0.55003,-0.52434,-0.37022,0.34345,-0.0823
-0.64135,0.54308,-0.54196,-0.32559,0.29188,-0.01741
-0.63495,0.53762,-0.55479,0.0175,0.12791,0.10856
-0.62814,0.53559,-0.56442,0.1672,-0.19886,0.21011
-0.62304,0.53939,-0.56645,0.19091,-0.34528,0.29222
-0.62375,0.54565,-0.55963,0.08733,-0.37657,0.27475
-0.62859,0.55472,-0.54511,0.08852,-0.49237,0.23795
-0.63489,0.5673,-0.52448,0.11435,-0.51328,0.21895
-0.64018,0.58126,-0.50229,0.17317,-0.33826,0.09677
-0.6437,0.59861,-0.47676,0.19923,-0.26992,0.05301
-0.64334,0.62072,-0.44811,0.14177,-0.22276,-0.04402
-0.64039,0.64383,-0.41876,0.11383,-0.26303,0.09304
-0.64139,0.66379,-0.38469,0.13615,-0.28515,0.08895
-0.64541,0.67958,-0.34872,0.12113,-0.26494,-0.01432
-0.649,0.69289,-0.31414,0.0537,-0.03212,-0.1199
-0.65061,0.70514,-0.28187,0.05912,0.01092,-0.16587
-0.65102,0.71455,-0.25604,0.07496,-0.01259,-0.21044
-0.65046,0.72024,-0.2411,0.12609,-0.0783,-0.27987
-0.64963,0.72371,-0.2328,0.06201,-0.09534,-0.26737
-0.64758,0.72692,-0.22851,0.01951,-0.15726,-0.21
-0.64581,0.72931,-0.22586,0.07437,-0.26846,-0.188
-0.64577,0.72898,-0.22701,-0.04288,-0.1903,-0.26228
-0.64822,0.7243,-0.2349,-0.19481,0.12606,-0.17343
-0.64893,0.71976,-0.2466,-0.44849,0.51805,0.1323
-0.65252,0.72229,-0.22911,-0.37833,0.36257,0.59665
-0.65186,0.72312,-0.22835,0.22161,-0.17915,0.24323
-0.64511,0.72638,-0.23702,0.08697,0.21496,-0.16262
-0.64289,0.73782,-0.20564,-0.3457,1.11214,-0.164
-0.63721,0.75074,-0.17415,-0.54049,1.51928,-0.4617
-0.62303,0.76673,-0.15472,0.16117,0.71891,-0.24466
-0.60695,0.78002,-0.15215,0.09271,-0.48216,0.12815
-0.60375,0.78268,-0.15123,-0.15032,-0.20803,0.09549
-0.60586,0.78335,-0.13883,-0.027,0.19312,0.19419
-0.60465,0.78678,-0.12388,0.01491,0.18717,0.19478
-0.60226,0.79172,-0.1021,0.32587,-0.02102,-0.03665
-0.60063,0.7954,-0.08094,0.33336,-0.11815,-0.19012
-0.60124,0.79613,-0.06825,0.11018,-0.19425,-0.23136
-0.6045,0.79445,-0.05838,0.13368,-0.13815,-0.11714
-0.60831,0.79208,-0.05047,0.19449,-0.16268,-0.12462
-0.61028,0.79075,-0.0474,0.39309,-0.40545,-0.26298
-0.61115,0.78984,-0.05115,0.14435,-0.28972,-0.42181
-0.61461,0.78657,-0.05939,0.18563,-0.10206,-0.33249
-0.62024,0.78136,-0.06895,0.48428,-0.12967,0.08272
-0.62272,0.77824,-0.08085,0.57308,-0.27596,0.19018
-0.62491,0.77505,-0.09356,0.15854,-0.32527,-0.20798
-0.63013,0.7692,-0.10603,0.19661,0.11488,-0.27304
-0.63512,0.76315,-0.1191,0.33788,0.26156,-0.12678
-0.63691,0.76055,-0.12601,0.31762,-0.17463,-0.01726
-0.63781,0.75831,-0.13468,0.08949,-0.29074,-0.11425
-0.64271,0.75158,-0.14839,-0.21099,0.13608,-0.18793
-0.65094,0.73757,-0.17957,-0.37032,0.43417,-0.16887
-0.65528,0.7221,-0.22172,-0.47874,0.29446,-0.08109
-0.6559,0.70376,-0.27294,-0.60006,0.53332,-0.19687
-0.651,0.68565,-0.32568,-0.64863,0.97814,-0.05987
-0.64052,0.66858,-0.37778,-0.5074,0.78668,0.07846
-0.63104,0.64397,-0.43252,-0.23563,0.62162,-0.14737
-0.626,0.61629,-0.4778,-0.07768,0.36453,-0.1731
-0.61991,0.5976,-0.50849,-0.10299,0.121,-0.0978
-0.61448,0.58533,-0.52895,-0.17017,0.08823,-0.15233
-0.61264,0.57669,-0.54045,-0.02858,0.02724,0.18669
-0.61085,0.57477,-0.54451,-0.03037,0.02916,0.19075
-0.61182,0.57835,-0.5396,0.1535,-0.2784,0.48946
-0.61574,0.58307,-0.52997,0.17343,-0.56464,0.3789
-0.62167,0.58874,-0.51662,0.17682,-0.61649,0.29241
-0.6267,0.5985,-0.49903,0.22619,-0.60802,0.18508
-0.63242,0.61457,-0.47152,0.23984,-0.40716,0.18951
-0.63695,0.63481,-0.43736,0.28338,-0.40208,0.17485
-0.64011,0.65803,-0.39652,0.3288,-0.40169,0.14025
-0.641,0.68313,-0.34991,0.02031,-0.32311,0.15553
-0.63943,0.70659,-0.30302,-0.07033,-0.28146,0.11675
-0.64176,0.72387,-0.25322,-0.22797,-0.09655,-0.01078
-0.6467,0.73335,-0.20961,-0.11775,-0.04938,-0.23826
-0.64882,0.73608,-0.19286,0.19798,-0.30896,-0.55661
-0.64656,0.73678,-0.19771,0.49552,-0.23141,-0.64819
-0.64013,0.73935,-0.20874,0.52038,-0.0076,-0.28737
-0.62995,0.74635,-0.21473,0.12534,-0.07355,0.06486
-0.62665,0.75084,-0.20863,-0.31876,0.0383,-0.23251
-0.62785,0.75055,-0.20601,-0.53796,0.21461,-0.55281
-0.63165,0.74613,-0.21043,-0.45351,0.27943,-0.14632
-0.63295,0.74954,-0.19377,0.19742,0.23023,0.73654
-0.63077,0.75472,-0.18026,-0.3695,0.0934,0.03535
-0.62745,0.75571,-0.18757,-0.5217,0.38048,-0.37413
-0.62105,0.76432,-0.17345,-0.26154,1.58697,-0.43006
-0.60817,0.78033,-0.14556,-0.42825,1.72973,-0.50399
-0.59295,0.79428,-0.13227,0.0321,-0.44951,0.17551
-0.58434,0.79956,-0.13864,-0.13077,-0.52851,0.18663
-0.58365,0.79956,-0.14148,-0.10504,-0.0215,0.22015
-0.58491,0.80036,-0.13146,-0.05923,0.18037,0.22433
-0.58367,0.80438,-0.11078,0.22187,0.00075,0.1531
-0.58149,0.80927,-0.08319,0.38939,-0.06185,-0.07111
-0.57969,0.81259,-0.06017,0.21775,-0.21837,-0.24496
-0.58103,0.81264,-0.04468,0.12811,-0.25864,-0.14845
-0.58446,0.81089,-0.02888,0.24754,-0.20045,-0.04911
-0.5866,0.80961,-0.01994,0.25341,-0.15699,-0.21865
-0.58697,0.8094,-0.0175,0.1135,-0.02835,-0.44559
-0.58803,0.80845,-0.0246,0.09784,-0.05411,-0.49231
-0.59083,0.80562,-0.04324,0.21457,-0.47971,-0.23566
-0.59547,0.79984,-0.07512,0.25564,-0.694,-0.1513
-0.60408,0.78944,-0.1088,0.27492,-0.51167,0.08246
-0.6142,0.77757,-0.13458,0.29282,-0.02458,0.11407
-0.62157,0.76888,-0.14981,0.44849,0.28889,0.02014
-0.62547,0.76478,-0.15451,0.13351,-0.18701,-0.23003
-0.62824,0.76185,-0.15771,0.1397,-0.21267,-0.19992
-0.63112,0.75838,-0.16286,0.17022,-0.03789,-0.18741
-0.63361,0.75206,-0.1814,-0.47426,0.63423,-0.18325
-0.63324,0.74109,-0.2231,-0.6082,0.47948,-0.15167
-0.63044,0.7253,-0.27654,-0.65829,0.33484,-0.15576
-0.62693,0.7024,-0.337,-0.35517,0.5479,-0.23983
-0.62207,0.67705,-0.39322,-0.25055,0.5009,-0.06964
-0.62201,0.64928,-0.43763,-0.30115,0.47302,0.01525
-0.62186,0.62343,-0.47392,-0.39627,0.38221,-0.08951
-0.61852,0.60458,-0.50189,-0.40565,0.20305,-0.16716
-0.61291,0.59317,-0.52199,-0.36876,0.10861,-0.17808
-0.60816,0.58757,-0.53374,-0.04457,-0.04413,0.02761
-0.60237,0.58816,-0.53963,0.12613,-0.13411,0.22132
-0.60082,0.5925,-0.5366,0.14941,-0.19512,0.31725
-0.60465,0.59641,-0.5279,-0.00904,-0.37772,0.30004
-0.60987,0.6015,-0.51598,0.00768,-0.4426,0.27275
-0.61326,0.61025,-0.50148,0.26374,-0.45144,0.20558
-0.61416,0.62322,-0.48413,0.28056,-0.42336,0.14337
-0.61533,0.64102,-0.45875,0.21144,-0.42997,0.09838
-0.61816,0.66129,-0.42492,0.37348,-0.42463,0.08294
-0.62124,0.68348,-0.38327,0.42813,-0.36216,0.08246
-0.62331,0.70638,-0.3354,0.26682,-0.28826,0.13395
-0.62524,0.72703,-0.28367,-0.12636,-0.0901,-0.05044
-0.6263,0.74186,-0.23951,0.00473,0.06953,-0.41225
-0.62538,0.74954,-0.21693,0.20148,-0.05881,-0.48589
-0.62184,0.75197,-0.2187,0.19707,-0.35864,-0.42368
-0.61649,0.75261,-0.23131,0.23311,-0.1746,-0.15697
-0.60823,0.75637,-0.24068,0.1814,-0.15341,-0.05003
-0.60191,0.76407,-0.23211,-0.70436,0.24591,-0.12785
-0.60746,0.76876,-0.19996,-0.92433,1.12274,-0.07807
-0.61544,0.76688,-0.18192,-0.54145,1.01258,0.30159
-0.60211,0.77142,-0.20578,0.27568,-0.83554,0.39283
-0.59629,0.77639,-0.20402,-0.00147,-0.20402,-0.06234
-0.5938,0.77994,-0.19765,-0.08517,1.41526,-0.04308
-0.58243,0.79582,-0.16558,-0.14409,0.91376,0.02325
-0.55961,0.81969,-0.12216,-0.15113,0.19521,-0.01366
-0.54374,0.8327,-0.10454,-0.53906,0.65535,-0.51769
-0.54077,0.83262,-0.11947,-0.21921,-0.29295,-0.26125
-0.53859,0.82969,-0.14665,0.03572,-0.39133,-0.00204
-0.53859,0.82945,-0.14802,0.24909,0.4495,0.35551
-0.54075,0.82988,-0.13737,0.04407,0.215,0.26194
-0.54161,0.83189,-0.12077,0.16893,-0.19561,0.10423
-0.54112,0.83397,-0.10798,0.2098,-0.23483,-0.18626
-0.54133,0.83452,-0.10245,0.1342,-0.25779,-0.26178
-0.54478,0.8335,-0.09198,0.09155,-0.22916,-0.05203
-0.54894,0.83173,-0.08283,0.238,-0.16713,-0.10605
-0.55124,0.8308,-0.0767,0.3918,-0.24979,-0.29584
-0.5528,0.83006,-0.07332,0.30311,-0.25769,-0.31993
-0.55527,0.82826,-0.07505,0.15557,0.0223,-0.43801
-0.55862,0.825,-0.08528,0.20601,0.05421,-0.46075
-0.5628,0.8208,-0.09756,0.32594,-0.31541,-0.01587
-0.56878,0.81662,-0.09793,0.38951,-0.12376,0.11098
-0.5744,0.81234,-0.10068,0.3436,0.03506,0.19259
-0.5787,0.80822,-0.10892,0.02438,-0.29602,-0.08471
-0.58374,0.8034,-0.11737,0.06129,-0.12746,-0.17699
-0.58853,0.799,-0.12327,0.07042,0.11949,-0.32901
-0.59071,0.79642,-0.12945,0.0891,0.14433,-0.05378
-0.59166,0.79375,-0.14092,-0.10086,0.07919,-0.07658
-0.59731,0.78354,-0.17105,-0.32693,0.13265,-0.04131
-0.60163,0.77057,-0.21034,-0.50776,0.28119,-0.00661
-0.60603,0.75462,-0.25149,-0.56823,0.26056,0.00201
-0.60786,0.7358,-0.29845,-0.3246,0.41996,-0.13945
-0.60657,0.71623,-0.34506,-0.51,0.65682,-0.00991
-0.60391,0.69811,-0.38459,-0.53145,0.56402,0.027
-0.59917,0.67869,-0.42467,-0.32861,0.25338,-0.12383
-0.59508,0.66063,-0.45764,-0.24122,0.0963,-0.00356
-0.59469,0.64545,-0.47928,-0.21775,0.18702,0.04781
-0.59796,0.62921,-0.49652,-0.06133,0.20483,0.19071
-0.59759,0.61717,-0.51183,0.04879,-0.03198,0.23692
-0.5962,0.6115,-0.5202,0.05423,-0.30037,0.23603
-0.59762,0.61126,-0.51883,-0.00208,-0.4604,0.28899
-0.60003,0.61582,-0.51061,0.03907,-0.48258,0.2905
-0.6023,0.62407,-0.49775,0.16192,-0.42781,0.17333
-0.60584,0.63832,-0.47485,0.28044,-0.40113,0.11804
-0.61033,0.65849,-0.4403,0.26228,-0.42511,0.04907
-0.61484,0.68155,-0.39679,0.40304,-0.4341,-0.00072
-0.61858,0.70551,-0.34583,0.32007,-0.40143,0.12603
-0.62327,0.72582,-0.29102,0.09747,-0.37388,0.19816
-0.63016,0.73939,-0.23699,0.06594,-0.32089,0.13674
-0.63585,0.74633,-0.19661,0.0542,-0.02147,-0.16298
-0.63695,0.74881,-0.18316,-0.17878,0.09288,-0.47686
-0.63168,0.75099,-0.19228,-0.19877,0.0168,-0.66339
-0.62721,0.75419,-0.19434,-0.00389,-0.37026,-0.46484
-0.62736,0.75642,-0.18499,0.01768,-0.17497,-0.30668
-0.62888,0.75614,-0.18093,0.05434,0.11444,0.08949
-0.62846,0.75556,-0.18473,-0.24335,0.74422,0.1963
-0.63344,0.75859,-0.1525,-0.21666,0.42322,0.41223
-0.6334,0.75966,-0.14726,0.21044,-0.02088,0.11021
-0.62926,0.76298,-0.14788,-0.30183,0.59472,-0.17941
-0.6263,0.76826,-0.13224,-0.10357,0.81687,0.01418
-0.61488,0.7793,-0.12073,-0.11954,0.42327,0.09618
-0.60207,0.79178,-0.10279,-0.40612,0.42229,0.10131
-0.59203,0.80154,-0.08367,-0.44277,0.24094,0.04992
-0.58676,0.80639,-0.07355,-0.27965,0.04769,-0.13975
-0.58518,0.80767,-0.07208,-0.04643,0.06885,-0.10252
-0.58476,0.80826,-0.06885,0.09252,0.12622,-0.02435
-0.58411,0.80914,-0.06386,0.14974,0.07809,-0.01112
-0.58341,0.81007,-0.05814,0.23848,-0.17561,-0.05264
-0.58432,0.80984,-0.05189,0.22426,-0.32183,-0.16465
-0.58786,0.8075,-0.04825,0.25317,-0.335,-0.21311
-0.59241,0.80435,-0.045,0.30874,-0.34561,-0.22837
-0.59639,0.80148,-0.0438,0.35132,-0.39706,-0.29461
-0.6,0.79862,-0.04651,0.27441,-0.29803,-0.40152
-0.60412,0.79561,-0.04488,0.27476,-0.18762,-0.46606
-0.60677,0.79333,-0.04917,0.52849,-0.35206,-0.25177
-0.60757,0.79188,-0.0612,0.48719,-0.5368,-0.08102
-0.61233,0.78732,-0.07177,0.34291,-0.54954,-0.0136
-0.61645,0.78278,-0.08491,0.40933,0.32844,-0.21387
-0.61664,0.78136,-0.09587,0.4173,0.10328,-0.02834
-0.6152,0.78157,-0.10314,0.40376,-0.08383,0.16036
-0.61581,0.77841,-0.12177,-0.54995,-0.00583,-0.10325
-0.62644,0.76268,-0.16082,-0.76821,0.14754,-0.1579
-0.63576,0.74075,-0.21695,-0.82845,0.38526,-0.25639
-0.64043,0.71744,-0.27407,-0.5218,0.89233,-0.17801
-0.64159,0.69049,-0.33402,-0.67844,0.88362,-0.18302
-0.64079,0.66202,-0.3887,-0.46863,0.59407,-0.07652
-0.63863,0.63385,-0.43632,-0.34174,0.52548,-0.13452
-0.63267,0.61257,-0.47379,-0.41033,0.17006,-0.18461
-0.62512,0.59865,-0.50083,-0.41529,-0.13114,-0.19758
-0.62004,0.58917,-0.51809,-0.26459,-0.12879,-0.14917
-0.61474,0.58777,-0.52593,0.09789,0.03261,0.05105
-0.61134,0.59346,-0.52349,0.30656,-0.09748,0.42824
-0.61342,0.6003,-0.51317,0.28898,-0.20944,0.48768
-0.6188,0.6062,-0.49959,0.19303,-0.49712,0.43819
-0.62453,0.6157,-0.48048,0.29187,-0.7221,0.21173
-0.63237,0.63272,-0.44694,0.36807,-0.59229,0.14223
-0.64138,0.65569,-0.39835,0.37713,-0.55462,0.10575
-0.64918,0.68212,-0.33652,0.47328,-0.38319,0.10408
-0.6524,0.70816,-0.26992,0.30796,-0.35907,0.12161
-0.65226,0.7271,-0.21415,0.14144,-0.37236,0.04936
-0.65444,0.73535,-0.1759,-0.19498,-0.29354,-0.28734
-0.65932,0.73581,-0.15441,-0.09692,-0.21175,-0.50662
-0.66279,0.73333,-0.15134,0.10111,-0.09576,-0.52884
-0.66411,0.731,-0.15673,0.36891,-0.07402,-0.39314
-0.66351,0.73052,-0.16146,0.12569,0.02815,-0.36111
-0.66254,0.73034,-0.16617,-0.31939,0.56129,-0.09809
-0.66665,0.73059,-0.14761,-0.44152,1.00724,0.45683
-0.66723,0.73174,-0.139,0.35547,0.10441,0.28108
-0.6599,0.73678,-0.14714,-0.0565,0.32517,-0.30262
-0.65191,0.74832,-0.12242,-0.22724,1.04521,0.02391
-0.6371,0.76537,-0.09099,-0.3859,0.56648,0.05611
-0.62364,0.77955,-0.05778,-0.55387,0.42412,0.00014
-0.61594,0.78688,-0.03756,-0.32521,0.3212,-0.18517
-0.61192,0.79063,-0.02046,-0.20281,0.08966,0.13954
-0.61074,0.7918,-0.00088,-0.00634,0.09003,0.21368
-0.61045,0.79191,0.01395,0.10338,-0.00651,-0.05162
-0.61131,0.79084,0.02877,0.179,-0.13636,-0.17122
-0.61326,0.78837,0.04852,0.33639,-0.31348,-0.16836
-0.61691,0.784,0.06875,0.31332,-0.38573,-0.155
-0.62286,0.77692,0.09171,0.32172,-0.39548,-0.08976
-0.62918,0.76881,0.1141,0.43089,-0.36537,-0.09248
-0.63462,0.7614,0.13219,0.34596,-0.27832,-0.22979
-0.63876,0.75562,0.14487,0.2422,-0.14108,-0.58394
-0.64231,0.75099,0.15304,0.33692,-0.19011,-0.56728
-0.64768,0.74562,0.15659,0.39002,-0.26034,-0.49903
-0.65657,0.73768,0.15716,0.32662,0.03074,-0.33524
-0.66865,0.72831,0.14975,0.31291,0.21961,-0.39072
-0.68171,0.71806,0.1401,0.3064,0.35341,-0.39137
-0.69352,0.709,0.12771,-0.01387,-0.22602,-0.42498
-0.70561,0.70122,0.10182,-0.37379,0.19658,-0.2869
-0.72383,0.68696,0.06424,-0.55133,0.75036,-0.19695
-0.73936,0.67304,0.01816,-0.3488,0.5874,-0.13734
-0.7482,0.66224,-0.04006,-0.42629,1.3314,0.25053
-0.7458,0.65868,-0.09947,-0.64399,1.52583,0.33067
-0.73223,0.66344,-0.15384,-0.6425,0.79038,0.43575
-0.71724,0.66832,-0.19719,-1.02246,0.60846,0.21153
-0.70284,0.66671,-0.24796,-0.52257,0.3498,0.00918
-0.68606,0.66299,-0.29956,0.0683,0.40883,-0.07944
-0.66962,0.66225,-0.33617,0.2616,0.27682,-0.03724
-0.65575,0.66392,-0.35942,0.33409,0.12277,0.31399
-0.64707,0.66454,-0.37371,0.15987,-0.27651,0.55651
-0.64475,0.66106,-0.38377,-0.02872,-0.6998,0.58306
-0.64634,0.65721,-0.38768,0.15188,-0.81682,0.39316
-0.65124,0.65531,-0.38267,0.31258,-0.74044,0.3042
-0.65863,0.65651,-0.36767,0.35814,-0.50174,0.36056
-0.66622,0.65911,-0.34887,0.31635,-0.33437,0.20155
-0.67126,0.66359,-0.33019,0.28383,-0.32577,0.00144
-0.67451,0.66994,-0.31015,0.16877,-0.31522,-0.29405
-0.6787,0.67836,-0.28136,-0.1074,-0.07199,-0.47778
-0.68342,0.68544,-0.25117,-0.26653,0.54495,-0.74938
-0.68901,0.67932,-0.25249,-0.26319,0.72659,-0.73698
-0.68619,0.66062,-0.30446,0.27831,0.1519,-0.90516
-0.68472,0.64546,-0.33839,0.9536,-0.04514,-0.09886
-0.68513,0.64942,-0.32989,0.87542,0.10217,0.17422
-0.6809,0.66493,-0.30695,0.05083,0.26822,0.13001
-0.66982,0.68047,-0.29712,-1.34875,1.11701,-0.21373
-0.67261,0.67998,-0.29187,-1.70886,1.51577,-0.17137
-0.67164,0.67758,-0.29959,0.62678,-0.71435,1.17502
-0.67215,0.68095,-0.29068,0.24291,-0.70549,0.64113
-0.68588,0.68445,-0.24713,-0.1828,0.20813,0.32761
-0.70058,0.68532,-0.19872,-0.28256,0.91911,0.26575
-0.69738,0.69845,-0.16064,-0.04019,0.54333,0.21654
-0.68867,0.71491,-0.1209,0.08016,0.0309,0.25281
-0.68308,0.72592,-0.08002,0.05207,-0.13018,0.17906
-0.68041,0.7313,-0.04707,0.09717,0.03556,0.03039
-0.68058,0.73239,-0.01962,0.12682,0.1539,-0.07555
-0.68063,0.73256,0.00811,0.16383,0.02094,-0.07736
-0.67881,0.73331,0.03773,0.22252,-0.12322,-0.04741
-0.67632,0.7341,0.06048,0.24764,-0.07222,-0.07377
-0.67513,0.73411,0.07241,0.15,0.01406,-0.12053
-0.67435,0.73373,0.08277,0.06844,-0.09071,-0.08077
-0.67402,0.73241,0.09609,0.0908,-0.13541,-0.06522
-0.67444,0.7295,0.11371,0.13608,-0.09154,-0.07776
-0.67577,0.72501,0.13289,0.07003,0.03487,-0.12048
-0.6776,0.71976,0.15085,0.02741,0.07004,-0.20079
-0.67965,0.71474,0.16487,0.13067,0.21807,-0.25997
-0.68166,0.71106,0.17229,0.25509,0.31882,-0.20151
-0.68308,0.71032,0.1697,0.00729,0.48896,-0.04806
-0.68368,0.7125,0.15772,-0.37561,0.6531,-0.03698
-0.68332,0.71653,0.14003,-0.23254,0.49354,-0.0261
-0.68021,0.72455,0.11089,-0.06749,0.08543,-0.14731
-0.67739,0.73146,0.07789,-0.09382,-0.31394,-0.18733
-0.68004,0.73234,0.03454,-0.08415,-0.06075,-0.14058
-0.68455,0.72859,-0.02241,-0.08574,0.24667,0.02394
-0.68538,0.72387,-0.0789,-0.06767,0.19335,0.18501
-0.68145,0.72028,-0.12961,-0.16372,0.09652,0.22528
-0.67505,0.71636,-0.17637,-0.1757,0.28816,0.27532
-0.6681,0.71193,-0.21624,-0.01399,0.34545,0.52666
-0.66157,0.70576,-0.25338,0.06724,0.29944,0.37764
-0.6538,0.69689,-0.29472,-0.05203,0.10241,0.25096
-0.64696,0.68656,-0.33174,-0.07692,0.04044,0.24149
-0.6414,0.67877,-0.35756,-0.04878,0.03944,0.31763
-0.63345,0.67171,-0.38408,-0.0233,-0.08831,0.23976
-0.6254,0.66308,-0.41132,0.02672,-0.21326,0.14413
-0.61659,0.65638,-0.4347,0.07017,-0.31611,0.13525
-0.60667,0.65439,-0.45133,0.12634,-0.29755,0.21784
-0.59826,0.65601,-0.46013,0.15505,-0.23233,0.31906
-0.59385,0.65976,-0.46047,0.15707,-0.17476,0.3039
-0.59424,0.66538,-0.45181,0.09117,-0.14548,0.17045
-0.59681,0.67369,-0.43582,0.05323,-0.11656,0.07795
-0.6008,0.68254,-0.41612,0.05515,-0.08787,0.01928
-0.60635,0.69072,-0.39398,0.03076,-0.1035,-0.01882
-0.61154,0.69921,-0.37027,-0.03225,-0.10245,-0.16937
-0.6137,0.70684,-0.35175,-0.03163,0.06576,-0.42135
