gravity.x,gravity.y,gravity.z,userAcceleration.x,userAcceleration.y,userAcceleration.z
0.29643,0.94989,-0.09922,0.01306,0.30349,0.55958
0.28543,0.95259,-0.10534,0.89062,0.51582,0.03923
0.28564,0.9538,-0.09307,0.24204,-0.03828,-0.00519
0.28233,0.95594,-0.08038,-0.00059,1.19713,-0.27354
0.27569,0.95877,-0.06901,0.25512,1.36425,0.22169
0.28815,0.95563,-0.0611,-0.00279,0.14475,0.07572
0.29814,0.952,-0.06927,-0.26464,0.07984,0.05354
0.29621,0.95091,-0.08961,-0.48341,-0.14354,0.15653
0.28835,0.95199,-0.10285,-0.58751,-0.25594,0.31509
0.27288,0.95725,-0.096,-0.49071,-0.15807,0.1829
0.25528,0.96361,-0.07928,-0.02549,0.06564,0.10992
0.24137,0.96836,-0.06335,0.26202,-0.16932,0.10243
0.23437,0.97102,-0.0468,0.26454,-0.25363,0.02447
0.23296,0.97187,-0.03468,0.13937,-0.25867,-0.18669
0.2341,0.97156,-0.03562,0.09241,-0.22264,-0.1408
0.23633,0.97044,-0.04884,0.0476,-0.24925,-0.13671
0.23511,0.96953,-0.06878,-0.00116,-0.28737,-0.151
0.22911,0.96941,-0.08799,-0.04286,-0.14791,-0.09725
0.22125,0.9694,-0.10635,0.10505,-0.18563,0.11498
0.21398,0.96899,-0.12356,0.0909,-0.28674,0.16331
0.20881,0.96767,-0.14145,0.04471,-0.33428,0.11952
0.2077,0.96391,-0.16656,-0.06189,-0.24011,-0.14993
0.20906,0.95478,-0.2114,-0.07883,0.14656,0.03243
0.2152,0.93901,-0.26822,-0.2683,0.59964,-0.15587
0.2277,0.9158,-0.33087,-0.39953,0.85345,-0.03968
0.25064,0.88649,-0.38899,-0.55846,0.79072,0.48574
0.28913,0.85352,-0.43347,-0.26588,0.47967,0.19949
0.32394,0.8257,-0.46182,-0.16655,0.45358,0.11885
0.35841,0.80477,-0.47316,0.21956,0.55707,-0.16008
0.39323,0.78864,-0.47267,0.0851,0.52476,-0.03351
0.42613,0.77687,-0.46356,0.04946,0.22185,0.0302
0.44762,0.77199,-0.45129,0.04669,-0.25904,0.15832
0.45602,0.77403,-0.43923,-0.01068,-0.44876,0.22661
0.45536,0.78228,-0.42507,-0.09733,-0.55065,0.24148
0.44971,0.79711,-0.40297,-0.37877,-0.58264,0.12732
0.43909,0.81829,-0.37096,-0.4064,-0.4617,0.11991
0.42285,0.84396,-0.33003,-0.37558,-0.44066,0.12145
0.39979,0.87082,-0.28608,-0.37285,-0.34248,0.06959
0.36828,0.89657,-0.24601,-0.37318,-0.07113,0.00967
0.33432,0.91745,-0.21569,-0.2577,-0.01715,0.04673
0.29902,0.93392,-0.1959,-0.21639,-0.01113,-0.1677
0.26706,0.94526,-0.18751,-0.0732,0.16654,-0.22369
0.25407,0.94924,-0.18545,0.3037,0.16942,0.15096
0.2672,0.94652,-0.18083,0.29984,-0.30565,0.21051
0.29333,0.94138,-0.16659,-0.18774,-0.18452,-0.37449
0.2966,0.94479,-0.13928,-0.66867,0.29514,-0.0138
0.2763,0.95373,-0.11856,-0.28208,0.65716,0.49606
0.25499,0.95942,-0.12038,0.79709,0.69291,0.32445
0.24869,0.9618,-0.11437,0.56662,-0.03502,0.13187
0.24164,0.96457,-0.10586,-0.0464,0.61526,-0.11779
0.23112,0.96788,-0.09896,0.11994,0.62325,0.36767
0.23325,0.96808,-0.09175,0.23454,0.1758,0.30146
0.24213,0.96534,-0.09745,-0.08554,0.28958,-0.00089
0.24561,0.96322,-0.10898,-0.27984,-0.03135,0.2266
0.24208,0.96315,-0.11718,-0.27827,-0.07285,0.38084
0.22987,0.96658,-0.11346,-0.36932,-0.25725,0.30568
0.21003,0.97235,-0.1021,-0.08631,-0.21287,0.08007
0.18854,0.97812,-0.08789,-0.06482,-0.21865,0.06586
0.16956,0.98298,-0.07073,0.319,-0.20936,0.01596
0.1519,0.987,-0.05247,0.37643,-0.17731,0.00028
0.13362,0.99025,-0.03925,0.41417,-0.15116,-0.063
0.11477,0.99289,-0.03164,0.44309,-0.12165,-0.06015
0.09603,0.99489,-0.03102,0.3406,-0.16036,-0.05425
0.07688,0.99636,-0.03681,0.31716,-0.13997,-0.03524
0.05863,0.99724,-0.04549,0.22183,-0.10256,-0.00171
0.04208,0.9975,-0.05667,0.23071,-0.06727,0.0181
0.02817,0.99714,-0.07016,0.21382,-0.09093,-0.03041
0.01447,0.99634,-0.08426,0.11192,-0.01842,-0.11606
-0.00102,0.99491,-0.10074,0.13975,0.02342,-0.06263
-0.01839,0.99215,-0.12368,0.18868,0.0535,0.08039
-0.03243,0.98677,-0.15884,0.13275,0.17033,0.19232
-0.03641,0.97779,-0.20637,-0.2017,0.14795,-0.04723
-0.0235,0.96601,-0.25743,-0.29695,0.27145,0.04351
0.00795,0.95149,-0.30758,-0.22177,0.52218,0.35285
0.04921,0.93421,-0.35331,-0.1295,0.82162,0.41125
0.09065,0.91509,-0.39292,-0.17528,0.99021,0.2439
0.12737,0.89844,-0.42021,0.23747,1.03608,-0.12853
0.15489,0.88589,-0.43728,0.33833,0.5402,0.10142
0.18275,0.87419,-0.44988,0.25176,0.2276,0.26734
0.21385,0.86201,-0.45957,0.12721,0.06864,0.33117
0.24293,0.85013,-0.46719,-0.02323,0.12813,0.4185
0.26863,0.84171,-0.46836,-0.19744,0.12548,0.43244
0.28903,0.83969,-0.45976,-0.2679,-0.02852,0.42024
0.30198,0.8424,-0.44627,-0.26914,-0.12219,0.37422
0.30741,0.84836,-0.43102,-0.24842,-0.32268,0.24986
0.30507,0.85707,-0.41517,-0.27874,-0.52337,0.18537
0.29082,0.86974,-0.3987,-0.28064,-0.45899,0.20127
0.26831,0.88411,-0.38256,-0.21177,-0.38187,0.11464
0.24393,0.89714,-0.36829,-0.11112,-0.11573,0.03795
0.21761,0.90614,-0.36271,-0.07315,0.15574,0.02757
0.18744,0.90791,-0.37492,0.09242,0.19843,0.00414
0.15893,0.9034,-0.39826,0.35797,0.07359,0.17138
0.14835,0.89859,-0.41294,0.35501,-0.13691,0.22459
0.15669,0.89489,-0.41788,0.2038,0.08159,0.10313
0.17914,0.89421,-0.41024,-0.02384,0.43901,-0.01478
0.19131,0.90344,-0.38365,-0.0839,0.69803,0.71828
0.18721,0.91465,-0.35828,-0.35213,0.47918,0.25192
0.17109,0.92141,-0.34891,-0.28574,0.01199,0.75685
0.15168,0.92746,-0.34176,0.18113,0.33535,0.62616
0.13259,0.93567,-0.32701,0.13322,0.34779,0.50647
0.11009,0.94425,-0.31028,-0.10631,0.29591,0.37418
0.08364,0.95283,-0.29174,-0.38748,0.13739,0.49314
0.06264,0.9613,-0.26828,-0.30652,0.10979,0.41103
0.04976,0.96894,-0.24222,0.00413,0.18265,0.3474
0.04276,0.97544,-0.21607,0.24875,0.04638,0.30214
0.03493,0.98042,-0.19378,0.23776,-0.05845,0.24819
0.02396,0.98391,-0.17706,0.12706,-0.28617,0.17982
0.0093,0.98677,-0.16187,0.14375,-0.31523,0.1838
-0.00677,0.98879,-0.14918,0.16788,-0.32539,0.17464
-0.02072,0.99016,-0.13838,0.22827,-0.16155,0.16849
-0.03203,0.99126,-0.12798,0.23426,-0.06214,0.13367
-0.0422,0.99234,-0.11613,0.22137,0.0206,0.13626
-0.05384,0.99327,-0.10249,0.16114,-0.02889,0.15284
-0.06977,0.99376,-0.08699,0.20386,-0.00969,0.13651
-0.0889,0.9936,-0.0696,0.26793,-0.0007,0.12679
-0.10926,0.99256,-0.05368,0.32541,0.03198,0.07153
-0.12804,0.99087,-0.04221,0.34505,0.09873,0.0135
-0.14393,0.98895,-0.03552,0.35221,0.17748,0.00632
-0.15535,0.98726,-0.03435,0.29754,0.11284,-0.07945
-0.16196,0.98613,-0.03617,0.34917,0.15341,0.08169
-0.16465,0.98541,-0.04317,0.39461,0.26575,0.14771
-0.16402,0.98478,-0.05744,0.36241,0.20237,0.10032
-0.16009,0.98408,-0.07714,0.40119,0.11438,0.25157
-0.15058,0.98285,-0.10647,0.2576,0.02475,0.24209
-0.1307,0.98083,-0.14454,0.05636,-0.05572,0.07566
-0.10111,0.97771,-0.18401,-0.0582,0.03014,-0.04841
-0.06444,0.97302,-0.22152,-0.07572,0.30879,0.13678
-0.02205,0.96509,-0.26098,-0.01966,0.68481,0.08465
0.02022,0.95355,-0.30055,0.16183,0.51802,0.04342
0.05521,0.94218,-0.33053,0.33633,0.22442,0.25289
0.08491,0.93308,-0.3495,0.23287,0.01534,0.31071
0.11126,0.92471,-0.36405,0.15732,-0.00195,0.21958
0.13795,0.91515,-0.37878,0.1415,0.07442,0.22816
0.16599,0.90472,-0.39233,0.12497,0.13672,0.23107
0.19329,0.89599,-0.39979,0.00376,-0.03471,0.26782
0.21596,0.88955,-0.40258,-0.06682,-0.09537,0.28057
0.23116,0.88463,-0.40495,-0.15468,-0.21828,0.26056
0.24054,0.88048,-0.40853,-0.17091,-0.27187,0.26081
0.24707,0.87725,-0.41158,-0.18109,-0.2587,0.25208
0.25201,0.87564,-0.412,-0.06821,-0.29422,0.26745
0.25726,0.87726,-0.40525,0.07851,-0.30662,0.38946
0.27073,0.88195,-0.38582,0.11804,-0.33816,0.36606
0.28774,0.88976,-0.3543,0.07184,-0.38567,0.11119
0.29295,0.90141,-0.31882,0.28953,-0.19935,-0.17299
0.28259,0.91422,-0.29042,0.41558,-0.11725,-0.08275
0.2653,0.92614,-0.26812,0.466,0.01501,-0.10645
0.24341,0.9354,-0.25646,0.40759,0.28503,-0.4584
0.22667,0.93655,-0.26738,0.46216,0.21563,-0.22647
0.23363,0.93073,-0.28136,0.27194,-0.10486,0.2759
0.25306,0.92342,-0.28854,-0.45642,0.00268,-0.47514
0.2529,0.91937,-0.30133,-0.61809,0.28193,-0.53341
0.22402,0.92217,-0.31529,0.22635,1.11054,0.84221
0.21105,0.92368,-0.31981,0.62025,1.02905,0.81325
0.22222,0.92475,-0.30895,0.11216,-0.06895,0.14817
0.2119,0.93105,-0.29705,-0.09894,-0.11452,0.72161
0.18381,0.93863,-0.29186,0.19714,0.22213,0.35755
0.15798,0.94815,-0.27579,0.20553,0.33359,0.38458
0.13181,0.95719,-0.25772,-0.18158,0.20283,0.40181
0.10813,0.96546,-0.23707,-0.19895,0.11741,0.37295
0.09132,0.97299,-0.21201,-0.13347,0.02834,0.30164
0.08067,0.97992,-0.18232,0.14058,-0.0313,0.21331
0.06969,0.9858,-0.15281,0.22441,-0.06227,0.15893
0.05614,0.99021,-0.12777,0.30444,-0.10522,0.1141
0.0414,0.99336,-0.10736,0.3526,-0.2955,0.00802
0.0255,0.99554,-0.09082,0.30238,-0.34542,-0.0067
0.01085,0.99702,-0.0764,0.31166,-0.29801,0.00688
-0.00077,0.99794,-0.06414,0.33974,-0.11874,0.06665
-0.00975,0.99848,-0.05422,0.36882,-0.12183,0.0824
-0.0147,0.99883,-0.04612,0.36451,-0.09497,0.01144
-0.01592,0.99911,-0.03915,0.32915,-0.07068,-0.12917
-0.01671,0.9992,-0.03646,0.39356,0.0222,-0.19927
-0.01924,0.99903,-0.03972,0.45152,-0.18067,0.00426
-0.01577,0.99873,-0.04794,0.37751,-0.13082,0.08134
-0.00612,0.9978,-0.06595,0.22304,-0.32967,-0.01359
-0.01168,0.99664,-0.08108,0.17744,-0.29089,0.03021
-0.01845,0.99534,-0.09463,0.2172,-0.24284,0.11597
-0.0241,0.99416,-0.1052,0.21258,-0.17905,0.08132
-0.02752,0.99329,-0.11232,0.17898,-0.11039,0.04715
-0.03203,0.99273,-0.11605,0.22084,-0.1916,0.16062
-0.03775,0.99215,-0.11925,0.18915,-0.28789,0.08439
-0.04436,0.9911,-0.12553,0.13912,-0.24847,-0.00679
-0.05289,0.98942,-0.13509,0.24308,-0.1228,0.12335
-0.05804,0.98722,-0.14842,0.00451,0.25431,-0.00248
-0.05723,0.98396,-0.16897,-0.08723,0.45583,-0.07584
-0.04424,0.97889,-0.19957,-0.17592,0.68512,-0.0539
-0.01689,0.97073,-0.23956,-0.19237,0.82056,0.02467
0.01921,0.95832,-0.28506,-0.22541,0.8171,0.11658
0.05406,0.9446,-0.32373,-0.10685,0.49288,0.11301
0.08094,0.9326,-0.35172,0.23028,0.28421,-0.19462
0.10607,0.92088,-0.37513,0.39602,0.31595,-0.15834
0.13814,0.90943,-0.39225,0.54179,0.32554,0.00943
0.1741,0.89688,-0.40657,-0.05572,0.12905,0.04483
0.20452,0.88549,-0.41723,-0.22454,0.10209,0.06604
0.2301,0.87695,-0.42191,-0.26308,0.03735,0.14522
0.25093,0.87172,-0.42087,0.0266,-0.21238,0.15732
0.26707,0.8703,-0.41383,-0.04939,-0.33352,0.25497
0.27776,0.87224,-0.40254,-0.19167,-0.44664,0.26025
0.28251,0.87672,-0.3893,-0.24512,-0.50791,0.2163
0.28298,0.884,-0.37212,-0.34532,-0.73922,0.10633
0.27966,0.89523,-0.34692,-0.32318,-0.78599,0.19401
0.27015,0.90997,-0.31461,-0.31336,-0.79505,0.16647
0.25238,0.92617,-0.28022,-0.2668,-0.76779,0.09106
0.22587,0.94185,-0.24878,-0.09971,-0.48833,0.01453
0.19297,0.95615,-0.22034,-0.02559,-0.24611,0.08489
0.15823,0.96804,-0.19459,0.05045,-0.14505,0.08915
0.12757,0.97687,-0.17163,0.19143,0.23309,-0.08301
0.10756,0.98356,-0.14502,0.30784,0.22769,-0.1057
0.10778,0.98714,-0.11809,0.31341,-0.00604,-0.16159
0.12281,0.98852,-0.08797,0.13293,0.02437,0.12301
0.12843,0.99037,-0.05176,-0.10524,0.43809,-0.13382
0.12297,0.99174,-0.03636,-0.03323,0.59322,-0.32742
0.1176,0.99216,-0.04222,0.55214,0.72233,0.09288
0.11651,0.99175,-0.05346,0.28052,0.40687,-0.08634
0.1201,0.99064,-0.06494,-0.14792,0.12069,-0.05871
0.12813,0.98873,-0.07745,0.02267,0.51852,-0.07402
0.1407,0.98612,-0.08812,0.51513,0.51787,0.00746
0.15538,0.98285,-0.09927,0.3957,0.36407,0.00463
0.15984,0.98138,-0.10649,0.12532,-0.08717,-0.00793
0.15389,0.98202,-0.10934,0.15501,-0.1901,-0.10599
0.14519,0.98304,-0.11205,0.10995,-0.19812,-0.03236
0.13694,0.9836,-0.1174,0.28502,-0.25246,-0.08535
0.13123,0.98375,-0.12252,0.419,-0.20656,-0.14521
0.12958,0.98353,-0.126,0.40147,-0.20983,-0.07111
0.13117,0.98243,-0.13274,0.29658,-0.30551,-0.13172
0.13525,0.98001,-0.1459,0.16352,-0.37398,-0.1281
0.14001,0.97652,-0.16369,-0.0372,-0.46812,-0.15381
0.14259,0.97154,-0.18914,-0.19174,-0.36157,-0.11286
0.14847,0.96253,-0.2269,-0.27571,0.08796,-0.14453
0.16636,0.9472,-0.27413,-0.24968,0.48561,-0.10351
0.19355,0.9254,-0.32586,-0.13602,0.97031,0.17694
0.22841,0.90006,-0.37111,0.04292,0.67782,0.19733
0.25696,0.87775,-0.40439,0.13606,0.43747,0.00673
0.27826,0.86111,-0.42551,-0.04074,0.47428,-0.33586
0.30363,0.84939,-0.43168,0.09479,0.39315,-0.09139
0.32664,0.84451,-0.42439,0.01171,0.16779,0.19759
0.34665,0.84539,-0.40639,0.04991,-0.28337,0.16411
0.3591,0.85177,-0.38149,-0.0322,-0.56969,0.06703
0.36143,0.86359,-0.35154,-0.02823,-0.68398,0.05338
0.35303,0.8804,-0.31665,-0.02638,-0.7797,0.06903
0.33328,0.90052,-0.27927,-0.09015,-0.74517,0.00839
0.30183,0.922,-0.24254,-0.13779,-0.71271,-0.0577
0.26174,0.9432,-0.20461,-0.20554,-0.51286,-0.06679
0.21751,0.96171,-0.16673,-0.17541,0.02633,-0.16157
0.17342,0.97509,-0.1383,-0.12449,0.19567,-0.28989
0.13795,0.98301,-0.12105,0.02361,0.36925,-0.34085
0.12689,0.98593,-0.10881,0.43517,0.01404,-0.12522
0.13748,0.98591,-0.0953,0.38517,-0.22813,-0.12524
0.15787,0.98459,-0.0752,0.15123,-0.22295,-0.03491
0.16494,0.98528,-0.0449,-0.35693,0.23574,-0.07565
0.15849,0.98713,-0.02122,0.01485,0.46743,0.33468
0.15362,0.98771,-0.0287,1.08826,0.63698,0.02462
0.16039,0.98666,-0.02795,0.9712,0.42712,0.18644
0.16033,0.9869,-0.01819,-0.21428,0.90182,-0.35831
0.14834,0.98893,-0.00214,0.19279,1.79474,0.142
0.14538,0.98926,0.01505,0.31228,0.1139,0.07751
0.14974,0.98859,0.016,-0.06086,0.04893,-0.05363
0.14527,0.98932,0.01144,-0.16352,-0.30996,0.10723
0.13606,0.99066,0.00908,-0.1884,-0.31289,0.19387
0.12301,0.99231,0.01376,-0.22155,-0.31239,0.18591
0.10946,0.99378,0.02057,0.09025,-0.15355,-0.10591
0.09898,0.99475,0.02578,0.28682,-0.26045,-0.12521
0.09145,0.99534,0.03051,0.34788,-0.36729,-0.12086
0.08707,0.99567,0.03255,0.27854,-0.49887,-0.0221
0.08544,0.99585,0.03145,0.26592,-0.31115,-0.17318
0.08588,0.99597,0.02567,0.27229,-0.18092,-0.22065
0.08658,0.99619,0.00995,0.33206,-0.0984,-0.38853
0.08763,0.996,-0.01711,0.27698,-0.31012,-0.16935
0.09255,0.99453,-0.04843,0.27587,-0.39541,-0.05892
0.10344,0.99059,-0.0896,0.10179,-0.34403,-0.16812
0.11596,0.98215,-0.1481,-0.05018,-0.09616,0.03032
0.13229,0.96741,-0.21589,-0.10376,0.10261,0.05307
0.15368,0.94555,-0.28692,-0.35209,0.81744,0.01206
0.18196,0.9204,-0.34605,-0.22473,0.47335,0.27656
0.2181,0.8965,-0.38564,-0.26087,0.49726,0.31616
0.25118,0.87708,-0.40945,0.3742,0.09366,0.08153
0.2773,0.86143,-0.42548,0.22807,0.4803,-0.08802
0.29614,0.85285,-0.43005,0.05086,0.40939,-0.08173
0.31011,0.85267,-0.42046,-0.1632,0.12265,0.10136
0.32462,0.858,-0.39806,-0.17478,-0.56642,0.00609
0.33402,0.86866,-0.36586,-0.11339,-0.84367,-0.0309
0.33274,0.88537,-0.32466,-0.10908,-0.82633,-0.02599
0.31891,0.90505,-0.28137,-0.08632,-0.7942,-0.0285
0.29331,0.92481,-0.24228,-0.11054,-0.70209,-0.06685
0.25794,0.94458,-0.20304,-0.23589,-0.31653,-0.05777
0.21572,0.96285,-0.16243,-0.22944,0.57037,-0.13875
0.17711,0.97531,-0.13192,-0.15111,0.62645,-0.16186
0.15237,0.98175,-0.11381,-0.02326,0.29975,-0.3315
0.15026,0.98321,-0.10351,0.71319,-0.32522,0.34596
0.16345,0.98364,-0.07571,0.7,-0.32565,0.31815
0.16535,0.98541,-0.04032,-0.03881,0.3147,-0.10973
0.14642,0.98868,-0.03259,-0.14956,0.71711,0.47991
0.14006,0.98877,-0.052,0.92595,0.03782,0.04803
0.14622,0.98779,-0.05374,-0.04425,0.52591,-0.07496
0.14498,0.98824,-0.04859,0.08001,1.01314,-0.20174
0.14974,0.98775,-0.04372,0.51729,0.58318,0.18408
0.16047,0.98625,-0.03946,0.18513,0.30646,-0.13329
0.16444,0.98545,-0.04302,-0.05122,0.18869,-0.03315
0.15926,0.98605,-0.04843,-0.13869,-0.14925,0.1591
0.14848,0.98795,-0.04358,-0.09684,-0.16352,0.10893
0.13283,0.99073,-0.02844,0.00137,-0.08494,0.02521
0.11816,0.9929,-0.01331,0.41872,-0.02176,-0.0302
0.10856,0.99409,0.00203,0.38784,-0.26386,-0.08845
0.10471,0.99436,0.01637,0.20701,-0.36462,-0.18607
0.10383,0.99425,0.02605,0.16336,-0.4123,-0.13523
0.10237,0.99438,0.02685,0.10441,-0.28029,-0.11968
0.10095,0.99472,0.01806,0.16928,-0.19054,-0.13886
0.09819,0.99516,0.00156,0.24466,-0.10266,-0.22425
0.09767,0.99496,-0.02274,0.30275,-0.17339,-0.31041
0.0991,0.99362,-0.05376,0.25077,-0.35951,-0.06864
0.10227,0.99068,-0.08992,0.20204,-0.40336,0.01802
0.1064,0.98578,-0.13008,-0.13674,-0.28843,-0.17613
0.11088,0.97757,-0.17906,-0.13604,-0.10657,-0.03396
0.11819,0.96436,-0.23672,-0.09572,0.08078,0.08397
0.13233,0.9455,-0.2975,-0.1687,0.45492,0.00668
0.15357,0.92307,-0.35264,-0.12409,0.81292,0.185
0.18862,0.89824,-0.39697,-0.02913,0.59804,0.19971
0.22796,0.87483,-0.42744,0.17554,0.3565,0.11023
0.26349,0.85878,-0.4394,0.29863,0.29738,-0.06294
0.29181,0.84899,-0.44053,0.31156,0.43341,-0.14385
0.3152,0.84508,-0.43184,0.12323,0.33386,0.0001
0.33533,0.84797,-0.41047,0.00977,-0.22873,0.03555
0.34534,0.85699,-0.3825,-0.02894,-0.45013,0.06884
0.34507,0.87143,-0.34863,-0.12023,-0.65646,0.19437
0.33764,0.88957,-0.30768,-0.17232,-0.67745,0.11361
0.31957,0.91114,-0.26018,-0.16185,-0.59828,0.02217
0.29238,0.93285,-0.21046,-0.23354,-0.45837,-0.0899
0.25882,0.95168,-0.16528,-0.2969,-0.23411,-0.3599
0.22333,0.96551,-0.13383,-0.23767,0.00737,-0.25089
0.19248,0.9743,-0.11702,-0.16422,0.15124,-0.22176
0.16622,0.97992,-0.1101,-0.15444,0.20412,-0.19607
0.15359,0.98316,-0.09904,0.01824,-0.07027,0.26219
0.15471,0.98432,-0.08468,0.29533,-0.29209,0.21724
0.15613,0.98503,-0.07307,-0.17435,-0.04982,-0.67874
0.14877,0.98698,-0.06111,-0.38092,0.11986,-0.68667
0.13397,0.99013,-0.04124,-0.06012,0.41524,0.19063
0.12653,0.99165,-0.02462,0.86815,0.06865,0.84291
0.13456,0.99073,-0.01862,1.18246,0.09153,0.17679
0.14431,0.98953,0.00055,0.53691,-0.03427,-0.39731
0.14046,0.98989,0.01949,0.20593,1.96461,0.44643
0.13454,0.99037,0.03266,0.31671,1.30774,0.25374
0.14052,0.98953,0.033,0.24939,0.25065,-0.05415
0.14268,0.9893,0.03024,-0.29344,-0.00766,0.04445
0.1397,0.98976,0.02941,-0.27501,-0.16502,0.02181
0.13174,0.99054,0.0384,-0.19323,-0.1537,0.20478
0.11635,0.99175,0.05382,0.08196,0.1201,0.03945
0.10054,0.9926,0.06808,0.25436,0.01268,-0.07529
0.08679,0.99287,0.08168,0.27527,-0.21183,-0.05893
0.07437,0.99279,0.09395,0.30578,-0.26521,-0.08187
0.06218,0.9928,0.10234,0.27009,-0.25798,-0.06393
0.05153,0.99308,0.10554,0.22859,-0.32903,-0.11203
0.04335,0.99393,0.10107,0.19246,-0.47178,-0.22724
0.03975,0.99521,0.08932,0.16201,-0.51659,-0.26194
0.04209,0.99642,0.07326,0.23635,-0.33935,-0.41733
0.04954,0.99741,0.05213,0.2634,-0.04492,-0.27355
0.06004,0.99794,0.02258,0.23126,0.03328,-0.18232
0.07011,0.99743,-0.01495,-0.00705,-0.21811,-0.20232
0.07867,0.99505,-0.06061,0.05798,-0.24498,-0.24104
0.08816,0.98937,-0.11565,0.13409,-0.25003,-0.17915
0.09974,0.97858,-0.18009,-0.03092,-0.22698,0.07311
0.10998,0.96163,-0.25132,-0.05483,0.07084,0.15568
0.1234,0.93869,-0.32193,-0.05333,0.32708,0.20219
0.14437,0.91365,-0.37999,-0.09533,0.84733,0.22959
0.17125,0.89119,-0.42006,0.18889,0.53955,0.12811
0.19821,0.87261,-0.44638,0.26843,0.33405,0.14348
0.22706,0.85829,-0.4602,0.11913,0.48563,-0.03986
0.25074,0.85405,-0.45577,0.10067,0.05137,-0.11773
0.26773,0.85952,-0.43536,0.08368,0.0459,-0.13814
0.28114,0.87176,-0.40123,0.07886,-0.59654,0.0053
0.2877,0.88868,-0.35702,0.08955,-0.85943,0.01262
0.28069,0.90947,-0.30672,0.01299,-0.86505,0.04506
0.26109,0.93111,-0.25469,-0.00439,-0.90425,-0.01034
0.22786,0.95131,-0.20758,-0.08006,-0.71703,-0.08655
0.18359,0.96853,-0.16804,-0.19101,-0.24884,-0.20492
0.1419,0.97942,-0.1435,-0.19639,0.29405,-0.45892
0.10563,0.98565,-0.13162,-0.11281,0.55077,-0.33458
0.0907,0.98776,-0.1269,0.19769,0.01029,0.19648
0.10283,0.98821,-0.1134,0.40088,-0.41436,0.365
0.11315,0.99021,-0.08171,-0.04521,0.24023,0.08313
0.10432,0.99314,-0.05278,-0.23322,0.37582,-0.14387
0.09575,0.99391,-0.05442,0.53227,0.39523,0.40484
0.103,0.99321,-0.05412,0.52538,0.64801,0.08493
0.10508,0.99321,-0.04992,-0.02654,0.29292,0.11405
0.09619,0.9939,-0.05399,-0.15567,0.36411,0.17283
0.07719,0.99615,-0.04145,0.14304,0.80712,-0.01702
0.06107,0.99762,-0.03183,0.18347,0.27752,0.02804
0.04612,0.99841,-0.03237,0.27795,-0.20448,0.06824
0.03083,0.99921,-0.02482,0.14173,-0.36776,-0.0282
0.01265,0.99986,-0.01094,0.11432,-0.30462,0.02192
-0.01119,0.99991,0.0063,0.1941,-0.21598,0.10623
-0.03748,0.99901,0.02384,0.49108,-0.18764,-0.00774
-0.06219,0.99726,0.03991,0.59576,-0.17575,-0.10479
-0.08461,0.99515,0.05014,0.53097,-0.2325,-0.18847
-0.10262,0.99338,0.05161,0.50672,-0.25348,-0.17632
-0.11606,0.99227,0.04391,0.43768,-0.10029,-0.18039
-0.12648,0.99156,0.02839,0.29814,-0.12582,-0.23731
-0.13503,0.9908,0.00849,0.17097,-0.13192,-0.3962
-0.14358,0.98953,-0.01436,0.30926,-0.2305,-0.11172
-0.14963,0.98779,-0.0434,0.43461,-0.39574,0.20481
-0.15032,0.98512,-0.08328,0.17175,0.08661,0.03484
-0.13843,0.98214,-0.12741,0.0427,0.46523,-0.02884
-0.11153,0.9794,-0.16831,0.00286,0.73176,0.11137
-0.07374,0.9763,-0.20347,-0.04587,0.82693,0.28834
-0.03394,0.97085,-0.23726,-0.13279,1.07776,0.03227
0.00299,0.96455,-0.26387,0.48,0.93335,-0.18949
0.03534,0.96033,-0.27663,0.52154,0.56966,-0.02034
0.06882,0.95617,-0.28459,0.49951,0.33631,0.10687
0.10557,0.95101,-0.29058,0.22821,0.23771,0.21697
0.14045,0.94584,-0.29268,-0.07734,0.31307,0.27523
0.17039,0.94263,-0.28706,-0.26123,0.27239,0.25616
0.19778,0.94155,-0.27269,-0.20608,-0.03497,-0.0059
0.22136,0.94266,-0.24977,-0.0159,-0.20118,-0.03879
0.23985,0.94604,-0.21789,0.02061,-0.32922,-0.07044
0.24672,0.95157,-0.1834,-0.01521,-0.5872,-0.04793
0.23664,0.95895,-0.15623,0.00185,-0.48755,0.0233
0.21817,0.96512,-0.14473,0.02032,-0.49371,0.0118
0.19749,0.96874,-0.15015,-0.03903,-0.30066,-0.16264
0.17788,0.96899,-0.1715,0.06403,0.04491,-0.25378
0.16448,0.9662,-0.1985,0.07744,0.0477,-0.22678
0.16476,0.96138,-0.22047,0.14238,-0.11314,0.21191
0.17437,0.95472,-0.24103,-0.07243,-0.20573,0.17702
0.18921,0.94801,-0.25586,-0.17243,0.02769,0.15399
0.20912,0.94632,-0.24646,-0.24934,0.13464,-0.37935
0.21845,0.95152,-0.21653,0.02827,0.65924,0.59411
0.21571,0.95697,-0.1941,-0.19006,0.67984,0.24528
0.20071,0.96085,-0.19098,-0.17468,0.03809,0.58818
0.18452,0.96719,-0.17462,0.2753,0.51558,0.4736
0.16767,0.97408,-0.15181,0.21043,0.52029,0.30948
0.15237,0.97912,-0.13453,0.08727,0.32276,0.13626
0.13725,0.9837,-0.11617,-0.26487,0.24019,0.32533
0.12255,0.98799,-0.0941,-0.24301,0.25529,0.25336
0.11111,0.99122,-0.07166,-0.07822,0.12725,0.14782
0.10141,0.99357,-0.05041,0.10315,-0.09607,0.02421
0.09009,0.99542,-0.03201,0.13806,-0.19186,-0.01618
0.0765,0.99694,-0.01632,0.1327,-0.37529,-0.04474
0.06234,0.99805,-0.00269,0.12725,-0.40487,-0.0597
0.04907,0.99876,0.00878,0.13027,-0.41547,-0.07077
0.03801,0.99909,0.0192,0.13672,-0.23342,-0.05994
0.02847,0.99914,0.03022,0.14153,-0.09167,0.00242
0.01754,0.99893,0.04272,0.12993,-0.06508,0.03359
0.00371,0.99837,0.05699,0.15202,-0.114,0.02755
-0.01286,0.99727,0.07272,0.19934,-0.12546,0.03866
-0.0318,0.99559,0.08826,0.24203,-0.12607,0.01045
-0.05166,0.99347,0.10176,0.19909,0.0042,-0.05821
-0.07058,0.9912,0.11203,0.12616,0.18157,-0.13626
-0.0857,0.98934,0.11771,0.08985,0.31791,-0.29156
-0.09342,0.98838,0.11994,0.43613,0.26159,-0.25263
-0.09658,0.98872,0.11451,0.43929,0.26125,-0.2472
-0.09657,0.99025,0.10042,0.56166,0.34012,-0.04239
-0.09303,0.99275,0.07616,0.4505,0.1388,0.16388
-0.08258,0.99584,0.03848,0.32633,-0.01842,0.16551
-0.06405,0.99789,-0.01082,0.07272,-0.06359,0.05207
-0.0379,0.9973,-0.06296,-0.21116,0.43511,-0.09401
-0.00151,0.99342,-0.11455,-0.25276,0.63291,0.08056
0.04302,0.98604,-0.16083,-0.29294,0.73175,0.22962
0.08664,0.97701,-0.19477,0.03592,0.52944,0.06451
0.1231,0.96799,-0.21872,0.22964,0.27955,-0.09407
0.15295,0.95904,-0.23843,0.32082,0.07778,0.00503
0.18131,0.94935,-0.25664,0.27525,-0.01032,0.13658
0.21072,0.9378,-0.27593,0.16932,-0.05875,0.26496
0.24187,0.92507,-0.29281,0.00952,0.02707,0.38799
0.26906,0.91322,-0.30601,-0.2283,0.01577,0.37895
0.29083,0.90332,-0.31532,-0.39032,-0.09551,0.22093
0.3073,0.89509,-0.32308,-0.39233,-0.13723,0.17717
0.31723,0.88884,-0.33065,-0.30682,-0.18204,0.19604
0.32472,0.88439,-0.33529,-0.21226,-0.16029,0.17722
0.33137,0.88115,-0.3373,-0.23492,-0.12365,0.1897
0.33732,0.87885,-0.33738,-0.24355,-0.04905,0.21709
0.34361,0.87785,-0.33363,-0.21291,-0.09034,0.19064
0.34995,0.87889,-0.32417,-0.19335,-0.11134,0.15196
0.35397,0.88226,-0.31035,-0.13161,-0.14085,0.06192
0.35307,0.88731,-0.29669,-0.04823,-0.13645,-0.04282
0.34709,0.89327,-0.28566,-0.01199,-0.12441,-0.07106
0.33746,0.89999,-0.27594,0.06554,-0.06079,-0.14905
0.32742,0.90657,-0.26633,0.20368,0.09441,-0.1602
0.32278,0.90992,-0.26048,0.26371,0.14483,-0.11058
0.32966,0.90791,-0.2589,0.27589,0.16537,-0.1142
0.34592,0.90216,-0.25776,0.20884,-0.04396,-0.14608
0.36231,0.8948,-0.26089,0.15642,-0.10612,-0.13505
0.37161,0.8886,-0.26889,0.01381,-0.15785,0.14742
0.3752,0.88545,-0.27422,-0.01234,-0.19414,0.2033
0.38335,0.88718,-0.25681,-0.01226,0.87846,-0.03343
0.39209,0.89188,-0.22541,0.06125,1.09339,0.41978
0.40046,0.89029,-0.21684,-0.11582,0.52106,0.19354
0.4004,0.88742,-0.22842,-0.80657,0.00396,-0.06174
0.38507,0.89304,-0.2328,-0.42536,-0.27102,0.48231
0.35956,0.90777,-0.21602,-0.1921,-0.13177,0.66497
0.33466,0.92228,-0.19339,-0.13096,0.25983,0.47996
0.31762,0.9306,-0.18191,0.03957,0.23388,0.11973
0.30615,0.93603,-0.17354,-0.06821,0.07828,0.07689
0.29701,0.94126,-0.16068,-0.2624,0.04016,0.19456
0.28907,0.94602,-0.14657,-0.22945,-0.00954,0.19673
0.28029,0.95065,-0.13301,-0.09809,-0.02016,0.17276
0.27021,0.95531,-0.11985,0.06281,-0.05935,0.04906
0.25988,0.95968,-0.10715,0.17396,-0.11854,0.01879
0.24974,0.96358,-0.0956,0.15343,-0.11978,0.02723
0.24135,0.9666,-0.08618,0.11908,-0.10276,0.04434
0.23666,0.96824,-0.08057,-0.00398,-0.11966,-0.0055
0.23638,0.96848,-0.07856,0.00552,-0.13562,-0.10415
0.2401,0.96739,-0.08062,0.02598,-0.16667,-0.04325
0.24605,0.96508,-0.0899,0.03072,-0.28876,-0.10387
0.25156,0.96181,-0.10787,-0.07962,-0.31954,0.01753
0.25418,0.95797,-0.13297,-0.11711,-0.31567,0.12629
0.25407,0.95396,-0.15943,-0.16427,-0.33504,0.108
0.25325,0.95006,-0.18234,-0.15601,-0.24723,-0.01824
0.25231,0.94632,-0.20205,-0.08077,-0.1857,0.08006
0.25443,0.9413,-0.22187,0.01123,-0.28114,0.18213
0.26299,0.93339,-0.24416,0.04255,-0.27319,0.05014
0.27559,0.91998,-0.27871,-0.04812,-0.17039,-0.0575
0.29044,0.89749,-0.33189,-0.12058,0.22609,-0.03052
0.31347,0.86609,-0.38938,-0.17333,0.73779,-0.19378
0.33905,0.8313,-0.44043,-0.33314,0.93284,0.05983
0.35973,0.79985,-0.48045,-0.25942,0.45346,0.40546
0.37261,0.77551,-0.50966,0.13731,0.13656,0.10982
0.38621,0.75918,-0.52392,-0.16871,0.55621,-0.20754
0.40408,0.74738,-0.52739,-0.20884,0.7716,-0.14239
0.42187,0.74389,-0.51832,-0.21038,0.1509,0.14771
0.44138,0.74666,-0.49769,-0.19438,-0.07183,0.16431
0.4553,0.75657,-0.46936,-0.2002,-0.28973,0.16214
0.45828,0.77368,-0.43749,-0.06068,-0.59846,0.06123
0.44892,0.79554,-0.40692,-0.04058,-0.63202,-0.01516
0.42991,0.81883,-0.38038,-0.16186,-0.56332,-0.07737
0.40591,0.84222,-0.35484,-0.17127,-0.29664,-0.01158
0.3782,0.86708,-0.32424,-0.13873,-0.14327,0.00414
0.34526,0.89229,-0.2909,-0.1387,0.33725,-0.02188
0.31223,0.91224,-0.26518,-0.16475,0.16565,-0.18218
0.28997,0.92521,-0.24473,-0.10502,-0.02809,-0.23327
0.28607,0.93293,-0.21867,0.13761,-0.35208,-0.19643
0.29087,0.93768,-0.19015,0.08033,-0.28464,-0.08989
0.29865,0.94026,-0.16346,-0.01675,-0.27209,0.04884
0.29463,0.94569,-0.13736,-0.28941,0.33733,0.20595
0.28081,0.95143,-0.1262,-0.7403,1.38474,-0.02298
0.26678,0.95291,-0.1442,0.15705,0.68512,0.16002
0.26786,0.95043,-0.1579,0.03393,-0.25016,0.33465
0.27796,0.94566,-0.16871,-0.03613,-0.10861,0.0912
0.28608,0.9426,-0.17221,0.01716,0.16343,-0.02324
0.29299,0.94251,-0.1607,0.23472,0.51429,0.17344
0.29712,0.94386,-0.14437,0.14653,0.42389,0.1203
0.29623,0.94624,-0.12989,0.06644,0.36784,0.15031
0.29198,0.94911,-0.11808,-0.08729,0.14975,0.08369
0.28513,0.95242,-0.10764,-0.05778,0.01594,0.06292
0.27576,0.9563,-0.09723,0.03165,-0.02731,0.033
0.26622,0.96003,-0.08642,0.04573,-0.13377,0.0297
0.2586,0.96293,-0.07677,0.03393,-0.18217,0.02735
0.25366,0.96478,-0.06969,0.02099,-0.28508,-0.0077
0.25004,0.96594,-0.06663,0.04248,-0.226,-0.12751
0.24754,0.96648,-0.06817,0.08939,-0.26735,-0.03649
0.24721,0.96592,-0.07671,0.08279,-0.34757,-0.02749
0.24883,0.96435,-0.09008,0.06399,-0.40891,-0.12765
0.25191,0.9617,-0.10806,0.07079,-0.38807,-0.13474
0.25668,0.95714,-0.13417,0.002,-0.24051,-0.25476
0.26563,0.94911,-0.16919,-0.07965,-0.25743,-0.18257
0.27635,0.93616,-0.21736,-0.09481,-0.24335,-0.05873
0.28458,0.91672,-0.28042,-0.17309,0.01542,0.07199
0.29379,0.89113,-0.34579,-0.22865,0.3761,0.02359
0.30634,0.86079,-0.40645,-0.31655,0.87713,0.10429
0.32567,0.82836,-0.45581,-0.3276,0.99235,0.29262
0.35247,0.79577,-0.49246,-0.05158,0.38712,0.02419
0.37876,0.76988,-0.51364,-0.09079,0.49369,-0.09167
0.40643,0.75109,-0.52027,-0.00808,0.73445,-0.26071
0.43488,0.73821,-0.51569,-0.02379,0.33849,-0.05491
0.461,0.73189,-0.50181,-0.16369,-0.15443,0.12689
0.47884,0.73292,-0.48326,-0.15978,-0.26369,0.11592
0.48416,0.74124,-0.46492,-0.13581,-0.42181,0.20621
0.47994,0.7566,-0.44409,-0.12682,-0.57886,0.27208
0.47008,0.77889,-0.41517,-0.17455,-0.54784,0.21793
0.45408,0.80606,-0.37959,-0.20527,-0.52226,0.16893
0.42991,0.83604,-0.34089,-0.23265,-0.42276,0.03924
0.39903,0.86688,-0.29882,-0.28124,-0.35579,-0.0562
0.36564,0.89516,-0.25493,-0.30697,0.03446,-0.20463
0.33524,0.91673,-0.2173,-0.32911,0.28411,-0.25084
0.30905,0.93019,-0.19808,-0.30544,0.1996,-0.27779
0.2988,0.93356,-0.19797,0.01893,-0.02068,-0.07439
0.30853,0.93356,-0.1824,0.50134,-0.42563,0.26319
0.32691,0.93354,-0.14706,0.23066,-0.37579,0.04355
0.33304,0.9356,-0.11725,-0.33267,0.10536,-0.42303
0.32134,0.94188,-0.09796,-0.48667,0.71672,0.59296
0.31376,0.94402,-0.10191,0.56533,0.57173,0.21126
0.31829,0.94209,-0.10561,0.27992,0.25493,-0.01663
0.31895,0.9414,-0.10969,-0.20789,0.08509,-0.02619
0.31232,0.94278,-0.11667,0.03997,1.17375,-0.00621
0.31571,0.94252,-0.10947,0.318,0.21936,0.22438
0.32167,0.9411,-0.10425,0.03438,0.24022,0.03882
0.31889,0.94228,-0.10206,-0.10675,0.02409,0.09205
0.31179,0.94488,-0.09994,-0.1195,-0.06353,0.23623
0.30253,0.94837,-0.09527,-0.15009,-0.04195,0.12628
0.29431,0.95168,-0.08772,0.07576,-0.03898,-0.05773
0.28843,0.95392,-0.08276,0.14304,-0.24661,0.0288
0.28341,0.95557,-0.08105,0.11929,-0.26296,-0.05565
0.27685,0.9576,-0.07976,0.09966,-0.24962,-0.09118
0.26849,0.96035,-0.07506,0.02295,-0.26054,0.09337
0.26001,0.963,-0.07087,0.03458,-0.28858,-0.04443
0.25281,0.96501,-0.06957,0.0309,-0.26859,-0.11624
0.24852,0.96582,-0.07363,0.04514,-0.2195,-0.13325
0.24964,0.9641,-0.0905,0.10967,-0.26984,-0.18082
0.25639,0.95792,-0.12901,0.04737,-0.27946,-0.22182
0.26642,0.94531,-0.18815,-0.13754,-0.21858,-0.0273
0.27759,0.92467,-0.26061,-0.39402,0.05045,-0.07008
0.28653,0.89644,-0.33808,-0.53266,0.22128,0.08105
0.30219,0.86403,-0.40265,-0.4701,0.67627,0.31044
0.33053,0.83055,-0.44827,-0.15396,0.54131,0.141
0.36392,0.79982,-0.47733,-0.18734,0.57203,0.17007
0.38953,0.77433,-0.49867,0.35073,0.17696,0.08694
0.40937,0.75507,-0.51213,-0.19925,0.62142,-0.12309
0.42369,0.74568,-0.51425,-0.2823,0.49654,-0.08829
0.43851,0.74516,-0.50243,-0.25742,0.09157,-0.01495
0.45524,0.7514,-0.47766,-0.17355,-0.37689,0.07866
0.46819,0.7649,-0.4424,-0.09607,-0.59463,0.15926
0.46786,0.78622,-0.40369,-0.05394,-0.59423,0.18244
0.4543,0.81176,-0.36696,-0.11369,-0.67614,0.18587
0.431,0.83812,-0.33436,-0.13423,-0.63603,0.12533
0.40248,0.86516,-0.2992,-0.21227,-0.43603,0.05535
0.37058,0.89236,-0.25762,-0.3314,0.38613,-0.15263
0.33687,0.91542,-0.22029,-0.32475,0.52527,-0.20463
0.30611,0.93139,-0.19701,-0.38782,0.32552,-0.32387
0.29,0.93778,-0.19094,0.14409,-0.37983,-0.12102
0.29871,0.93776,-0.17713,0.44624,-0.29906,0.23367
0.32228,0.93575,-0.14321,0.28412,-0.0102,0.1226
0.32641,0.9382,-0.11503,-0.91267,0.98605,-0.19345
0.30737,0.9436,-0.12307,-1.00044,0.94222,0.31126
0.298,0.94442,-0.13881,0.60363,0.67379,-0.0166
0.30144,0.94473,-0.1289,0.24092,0.90991,-0.09001
0.31364,0.94143,-0.12388,0.64908,0.23004,0.32304
0.33316,0.93433,-0.12663,0.24871,0.33946,-0.12001
0.3361,0.93293,-0.12913,-0.02117,0.38964,-0.15775
0.32478,0.9363,-0.13363,-0.246,0.29514,0.43896
0.31019,0.94235,-0.12554,-0.32912,0.10448,0.23359
0.29637,0.94932,-0.10467,-0.30899,0.08823,0.13064
0.28139,0.95583,-0.08496,0.08159,-0.01776,0.17326
0.26962,0.96081,-0.06444,0.10976,-0.21448,0.14003
0.2595,0.96469,-0.0451,0.06272,-0.26118,0.03185
0.24974,0.96792,-0.02763,0.00875,-0.33701,-0.03055
0.2398,0.97072,-0.0141,0.0476,-0.30872,-0.10768
0.23131,0.97287,-0.0046,0.04017,-0.14955,-0.1503
0.22748,0.97378,-0.0009,0.05842,-0.246,-0.03905
0.22935,0.97332,-0.00691,0.07487,-0.38583,-0.11971
0.23476,0.97179,-0.02251,0.07644,-0.42377,-0.31509
0.24109,0.96934,-0.04745,0.05477,-0.41522,-0.24084
0.2451,0.96633,-0.07833,0.10832,-0.13924,-0.05742
0.24686,0.963,-0.10811,0.10598,-0.10325,0.05318
0.24831,0.95861,-0.13934,0.05725,-0.14002,0.08081
0.24901,0.95156,-0.18034,-0.09537,-0.22594,-0.09462
0.24934,0.93968,-0.23414,-0.17338,-0.11846,-0.00949
0.24987,0.92142,-0.29757,-0.25342,0.02406,0.06235
0.25112,0.89616,-0.36582,-0.32842,0.74713,0.1594
0.26482,0.86455,-0.42711,-0.26941,0.98356,0.30583
0.29386,0.83013,-0.47385,-0.2582,0.66851,0.27294
0.32169,0.80039,-0.50586,0.08835,0.3007,-0.01474
0.34652,0.77734,-0.52504,0.09449,0.67287,-0.18682
0.36847,0.75965,-0.53588,0.0875,0.78523,-0.21722
0.38926,0.74915,-0.53596,-0.01488,0.40347,-0.06293
0.40892,0.74568,-0.52606,-0.11302,-0.17587,0.15567
0.42364,0.74885,-0.50966,-0.11474,-0.29449,0.17316
0.4323,0.75813,-0.48822,-0.10587,-0.46046,0.24307
0.4369,0.77362,-0.45895,-0.17204,-0.51667,0.26339
0.43713,0.79544,-0.41975,-0.19232,-0.46463,0.17894
0.43031,0.82104,-0.37512,-0.20311,-0.43739,0.14857
0.41723,0.84702,-0.32936,-0.27833,-0.36435,0.02321
0.39721,0.87239,-0.28488,-0.34023,-0.29674,-0.0547
0.37144,0.89584,-0.24394,-0.38882,-0.02459,-0.13042
0.34467,0.91468,-0.21111,-0.31728,0.02046,-0.01433
0.31923,0.92707,-0.19655,-0.28125,0.00114,-0.03623
0.30553,0.93344,-0.188,0.04508,0.07633,0.06815
0.30673,0.93734,-0.16527,0.12874,-0.18941,0.15117
0.31672,0.93739,-0.14488,-0.09753,-0.21026,0.09239
0.32499,0.93683,-0.12931,-0.46255,0.13641,-0.24923
0.31941,0.94058,-0.11529,-0.26457,0.15668,0.16276
0.31631,0.94392,-0.09465,0.03757,0.21962,0.41242
0.32214,0.94295,-0.08414,0.75087,0.41052,0.35223
0.33577,0.93802,-0.08587,0.87376,0.41179,-0.14569
0.3401,0.93578,-0.09297,0.21993,0.52406,-0.45091
0.33999,0.93494,-0.10148,0.17843,0.85768,0.34727
0.35156,0.93,-0.10723,0.24932,0.15384,0.27369
0.35691,0.9264,-0.11995,-0.23017,0.3364,-0.04478
0.35116,0.92676,-0.13343,-0.37306,0.09035,0.20799
0.34041,0.92995,-0.13893,-0.31483,0.06863,0.27336
0.32437,0.93689,-0.13045,-0.24246,0.25941,0.10202
0.3045,0.94549,-0.11541,0.05292,0.30605,0.10249
0.28699,0.95246,-0.10224,0.28087,0.01333,0.04229
0.27235,0.95804,-0.08931,0.19042,-0.18479,0.02835
0.25843,0.9629,-0.07766,0.12304,-0.20958,0.05546
0.24437,0.96732,-0.06764,0.11683,-0.16045,0.0218
0.23146,0.97107,-0.05873,0.07802,-0.21353,-0.07445
0.22097,0.97384,-0.05305,0.05416,-0.34998,-0.04232
0.21335,0.97553,-0.0531,0.05757,-0.43856,-0.04051
0.20853,0.97619,-0.05982,0.08676,-0.3817,-0.08025
0.20536,0.97596,-0.07301,0.13913,-0.33327,-0.01288
0.20536,0.97444,-0.09105,0.12597,-0.24991,-0.06633
0.20717,0.97164,-0.11401,0.06524,-0.17466,-0.16857
0.20751,0.96793,-0.14157,0.05721,-0.29888,0.03824
0.20909,0.96252,-0.17273,0.04553,-0.42878,0.00641
0.21235,0.95377,-0.21267,-0.01734,-0.31089,-0.07409
0.21789,0.93805,-0.26942,-0.05533,0.08816,-0.13401
0.22861,0.9157,-0.33051,-0.27712,0.74399,0.11231
0.247,0.88793,-0.38804,-0.2747,0.86322,0.18877
0.27085,0.85755,-0.43732,-0.33329,0.80636,0.22459
0.29775,0.82747,-0.47607,-0.15291,0.41513,-0.00458
0.32027,0.80434,-0.50047,-0.176,0.32163,0.0539
0.34064,0.78695,-0.51446,-0.1398,0.17684,0.00739
0.35898,0.77556,-0.51927,-0.11069,0.19406,0.09266
0.37596,0.77116,-0.51378,-0.11121,0.13339,0.13385
0.39031,0.77397,-0.49862,-0.12642,-0.0275,0.16621
0.40031,0.78375,-0.47485,-0.21007,-0.27805,0.2246
0.4084,0.79987,-0.43979,-0.22838,-0.32735,0.16605
0.4127,0.82189,-0.39266,-0.12658,-0.38693,0.02974
0.40882,0.84797,-0.33737,0.00243,-0.45109,-0.04003
0.39444,0.87457,-0.28202,-0.04463,-0.50945,-0.10925
0.36899,0.89951,-0.23391,-0.13762,-0.38488,-0.01229
0.33795,0.91974,-0.19967,-0.1633,0.02052,0.14318
0.30866,0.93306,-0.18472,-0.15882,0.06733,0.03891
0.29074,0.9402,-0.17744,0.13881,-0.1033,0.09228
0.29508,0.94158,-0.16233,0.08954,-0.32595,0.09377
0.30899,0.94042,-0.14193,-0.19947,-0.33572,-0.05937
0.30878,0.94321,-0.12247,-0.75472,0.06805,-0.26637
0.28918,0.95215,-0.09891,-0.54193,0.04581,0.13477
0.27092,0.95975,-0.07398,0.20439,0.30108,0.53907
0.26328,0.96296,-0.05821,0.96462,0.78116,-0.20914
0.26483,0.9631,-0.04799,0.41817,0.10808,-0.24548
0.25656,0.96528,-0.04909,-0.1869,-0.01576,-0.19273
0.24645,0.96839,-0.03856,-0.30761,0.78831,0.45271
0.23719,0.97123,-0.02124,-0.21778,0.71879,0.40309
0.22969,0.97322,-0.0087,0.15744,0.54266,0.10478
0.22146,0.97516,-0.00471,-0.12244,0.01062,0.00375
0.2127,0.9771,-0.00499,-0.21801,-0.06112,0.11106
0.20024,0.97974,-0.0043,-0.227,-0.16873,0.23914
0.18419,0.98289,-0.0003,0.05088,-0.21662,0.16674
0.16814,0.98574,0.00675,0.23338,-0.3324,0.0496
0.15215,0.98823,0.01581,0.18539,-0.39381,-0.02741
0.13431,0.99061,0.02564,0.197,-0.34928,-0.03571
0.1136,0.9929,0.03515,0.23513,-0.31793,-0.07165
0.08984,0.995,0.04357,0.24827,-0.30109,-0.0836
0.06578,0.99669,0.04784,0.29542,-0.25609,-0.02864
0.04442,0.998,0.045,0.32007,-0.20077,-0.05498
0.02726,0.99894,0.03721,0.32203,-0.0726,-0.17587
0.01503,0.9995,0.02793,0.2079,-0.07423,-0.18002
0.00534,0.9999,0.013,0.20983,-0.0525,-0.1446
-0.00419,0.99994,-0.01001,0.25871,0.13608,-0.17027
-0.01669,0.99885,-0.04497,0.34596,0.18658,0.09697
-0.0245,0.99501,-0.09675,0.08631,0.09624,-0.09406
-0.01405,0.988,-0.15384,-0.10938,0.0697,-0.09164
0.01674,0.97849,-0.20561,-0.17855,0.21333,0.24642
0.06179,0.96624,-0.25013,0.11476,0.7609,0.32866
0.11219,0.95098,-0.28818,0.10016,1.11252,0.21735
0.16672,0.93564,-0.31109,0.13655,1.47378,-0.10627
0.21413,0.92213,-0.32222,0.33488,0.835,0.05236
0.25555,0.90701,-0.3347,0.37404,0.64842,0.23283
0.298,0.88809,-0.35,0.32204,0.34457,0.35069
0.33622,0.86711,-0.36752,-0.10563,0.13919,0.37994
0.36496,0.84753,-0.38534,-0.28029,0.06113,0.34618
0.38436,0.83414,-0.39557,-0.54505,-0.1138,0.25736
0.39605,0.82886,-0.39514,-0.4164,-0.27685,0.40365
0.39494,0.83104,-0.39166,-0.30502,-0.33045,0.3783
0.38411,0.84055,-0.38202,-0.24953,-0.53924,0.2627
0.36216,0.85812,-0.36397,-0.33524,-0.66358,0.27783
0.32987,0.88064,-0.34008,-0.32135,-0.61857,0.22177
0.28731,0.90316,-0.31897,-0.08495,-0.11552,-0.2393
0.23915,0.91742,-0.31803,0.16407,0.1302,-0.56136
0.20416,0.91346,-0.35201,0.49335,0.5972,-0.62378
0.21543,0.88919,-0.40365,0.39161,0.81314,0.6588
0.25565,0.87016,-0.42128,-0.30538,0.63749,0.70062
0.2559,0.88241,-0.3948,-1.70012,0.09246,1.01159
0.22686,0.87964,-0.41805,0.16303,-0.38791,0.54325
0.22294,0.87856,-0.4224,0.71136,0.0904,0.633
0.21496,0.8924,-0.39676,0.31465,0.75381,0.34808
0.19471,0.90541,-0.37725,0.51038,0.75964,0.43592
0.16973,0.91834,-0.35755,0.15658,0.2284,0.43145
0.14857,0.93091,-0.33368,-0.08993,0.13069,0.42411
0.13419,0.9426,-0.30576,-0.10309,0.05688,0.36222
0.12427,0.95305,-0.27615,-0.02733,0.07564,0.26119
0.11688,0.96231,-0.24557,-0.00709,0.14508,0.21185
0.10909,0.96991,-0.21765,0.01073,0.03442,0.11131
0.09721,0.97614,-0.19416,0.01562,-0.16379,0.07139
0.08135,0.98107,-0.17571,0.05526,-0.24177,0.09392
0.06413,0.9848,-0.16139,0.13628,-0.25691,0.14912
0.04822,0.98745,-0.15036,0.23076,-0.24782,0.15843
0.03514,0.98958,-0.13966,0.26961,-0.14171,0.18563
0.02455,0.99154,-0.12747,0.23628,-0.04819,0.2132
0.01397,0.99328,-0.11487,0.14951,-0.04083,0.1456
0.00442,0.99489,-0.1009,0.1684,-0.06889,0.12472
-0.00823,0.99629,-0.08566,0.20983,-0.13249,0.14708
-0.02537,0.99726,-0.06942,0.231,-0.10858,0.28701
-0.04349,0.99761,-0.0537,0.24016,-0.09697,0.28832
-0.06155,0.99728,-0.04054,0.16742,0.01896,0.19447
-0.07915,0.9964,-0.03023,0.00897,0.27929,-0.02203
-0.09478,0.99523,-0.02318,0.02289,0.35788,-0.05095
-0.10607,0.99415,-0.02021,0.19207,0.19161,0.03205
-0.11533,0.99306,-0.02287,0.34373,0.17024,-0.02787
-0.12531,0.99171,-0.02831,0.39315,0.16094,-0.0355
-0.13644,0.98996,-0.03686,0.51774,0.12292,-0.01486
-0.14563,0.98803,-0.05089,0.57429,0.16621,0.0454
-0.14764,0.98651,-0.07072,0.4836,0.06592,0.08839
-0.1425,0.98508,-0.09652,0.43774,-0.0119,0.24534
-0.12903,0.98299,-0.13073,0.1985,0.11185,0.28701
-0.10626,0.97955,-0.17087,0.09505,0.13761,0.2592
-0.07831,0.97413,-0.21197,-0.06685,0.26786,0.15325
-0.04781,0.96535,-0.25653,-0.10155,0.49705,0.18692
-0.01486,0.9537,-0.3004,-0.07892,0.52773,0.15471
0.01636,0.94186,-0.33561,0.03871,0.41074,0.08676
0.04341,0.93236,-0.35891,0.21817,0.0429,0.20786
0.06648,0.92536,-0.3732,0.2211,-0.06715,0.24597
0.09013,0.91949,-0.38265,0.24581,-0.18941,0.2528
0.11734,0.91343,-0.3897,0.22553,-0.14041,0.25457
0.14501,0.90671,-0.39605,0.25403,-0.00058,0.32319
0.17116,0.90031,-0.40017,0.19253,0.02712,0.41031
0.19513,0.8953,-0.40044,0.07775,0.02352,0.42347
0.21454,0.89219,-0.39746,-0.19864,0.04797,0.41847
0.22851,0.89025,-0.394,-0.2176,0.04214,0.32566
0.2416,0.88823,-0.39073,-0.17797,0.03961,0.22069
0.2556,0.8863,-0.38619,-0.09387,0.05132,0.1869
0.26978,0.88468,-0.3802,-0.06061,0.0376,0.20805
0.28368,0.8828,-0.37442,-0.08253,-0.07008,0.22843
0.29485,0.88151,-0.36877,-0.02,-0.16402,0.20912
0.30159,0.88181,-0.36257,0.08696,-0.1745,0.16628
0.30371,0.8838,-0.35588,0.06808,-0.15777,0.14612
0.30104,0.88711,-0.34988,0.05261,-0.19829,0.07966
0.2918,0.89275,-0.34331,0.08471,-0.2345,0.03043
0.27775,0.90049,-0.33462,0.11796,-0.22149,0.03695
0.26193,0.90885,-0.32463,0.1347,-0.1911,0.0167
0.24708,0.91607,-0.31585,0.20056,0.0163,-0.08247
0.23707,0.92125,-0.30836,0.29201,0.04348,-0.07509
0.2347,0.92452,-0.30029,0.31657,0.00236,-0.04998
0.2366,0.92636,-0.29306,0.2423,-0.09755,-0.01677
0.23834,0.92799,-0.2864,0.15328,-0.0368,-0.02099
0.23843,0.93061,-0.27768,0.0647,0.16582,-0.09837
0.24253,0.93435,-0.26111,0.38779,1.56767,0.13306
0.26053,0.93377,-0.24535,-0.01898,-0.19479,0.27614
0.27707,0.92981,-0.24227,-0.45464,-0.3609,-0.06618
0.27241,0.93143,-0.24131,-0.64689,-0.15283,0.00575
0.24908,0.93992,-0.23348,-0.02328,-0.18211,0.59077
0.21911,0.95295,-0.20949,0.13563,-0.01548,0.57245
0.19395,0.96295,-0.18738,0.25167,0.36228,0.41234
0.17535,0.96879,-0.17523,0.05576,0.01699,0.15535
0.16166,0.97344,-0.1621,-0.03381,-0.02219,0.13464
0.15172,0.97787,-0.14403,-0.12458,-0.01433,0.20285
0.14228,0.98191,-0.12497,-0.00208,-0.04265,0.22793
0.1327,0.98522,-0.10833,0.05914,-0.05661,0.19165
0.12351,0.98801,-0.09267,0.12783,-0.07744,0.11599
0.11325,0.99046,-0.07853,0.1161,-0.14414,0.01822
0.10241,0.99246,-0.06727,0.12872,-0.17067,0.00062
0.09289,0.99388,-0.05984,0.18436,-0.15396,-0.02735
0.0868,0.99458,-0.05724,0.31778,-0.13235,-0.04404
0.08548,0.9947,-0.05705,0.36485,-0.14391,-0.02712
0.08856,0.99446,-0.0566,0.38059,-0.19484,-0.01332
0.09457,0.99392,-0.05632,0.31586,-0.18184,-0.19324
0.10137,0.99302,-0.06035,0.27572,-0.20304,-0.20198
0.10762,0.99152,-0.07285,0.19995,-0.22924,-0.22053
0.11098,0.98963,-0.09123,0.14966,-0.22879,-0.11257
0.11058,0.9876,-0.11145,0.11833,-0.27338,0.10865
0.10793,0.98575,-0.12905,-0.00562,-0.34152,0.14688
0.10404,0.98421,-0.1432,0.01443,-0.33289,0.12042
0.10393,0.98201,-0.15763,0.06104,-0.26558,-0.00888
0.11053,0.9776,-0.17909,0.05974,-0.16466,-0.17972
0.12178,0.96943,-0.21303,0.0239,-0.12717,-0.12356
0.13588,0.95708,-0.25601,0.05466,0.01761,-0.00098
0.1524,0.94043,-0.30392,-0.10646,0.16681,0.05517
0.17238,0.91947,-0.35334,-0.05689,0.46756,0.10839
0.20139,0.89482,-0.39842,0.12308,0.8773,0.1687
0.23207,0.8699,-0.43522,0.30005,0.37047,0.01597
0.25243,0.85216,-0.45836,0.25438,0.33975,-0.07029
0.27182,0.84194,-0.4661,0.16487,0.45963,-0.16458
0.2966,0.83512,-0.46326,0.01069,0.45677,-0.04561
0.32438,0.83283,-0.44852,0.00598,-0.01139,0.09907
0.35003,0.83545,-0.42368,0.02717,-0.18152,0.11168
0.36684,0.84234,-0.39484,0.05664,-0.4508,0.09102
0.37202,0.85359,-0.36468,-0.02217,-0.53107,0.05479
0.36758,0.86985,-0.32901,-0.04193,-0.56919,0.0139
0.35505,0.88875,-0.28994,-0.10684,-0.67778,-0.0119
0.33432,0.9073,-0.25503,-0.27704,-0.73161,-0.0398
0.30691,0.92527,-0.22291,-0.32152,-0.6276,-0.02137
0.27641,0.94199,-0.19042,-0.31449,-0.33548,0.02949
0.24706,0.9547,-0.16586,-0.21955,0.02815,-0.08118
0.21736,0.96337,-0.15709,-0.04608,0.2789,-0.17395
0.19912,0.96848,-0.14965,0.29261,0.15219,0.20535
0.20132,0.97079,-0.13054,0.43989,-0.27592,0.10028
0.20755,0.97333,-0.09769,0.02795,-0.33194,0.0417
0.20134,0.97777,-0.05855,-0.40558,0.04532,-0.18229
0.18335,0.9823,-0.03828,-0.20236,0.55134,-0.27273
0.17338,0.98417,-0.0368,0.72573,0.72105,0.39031
0.18232,0.98274,-0.03145,0.78079,0.67229,-0.1575
0.19094,0.98108,-0.032,-0.10384,0.29665,-0.2509
0.20109,0.97902,-0.03292,0.38447,0.85629,-0.04699
0.21648,0.97566,-0.0349,0.57857,0.2097,0.24167
0.22547,0.97305,-0.04839,0.13341,0.27244,-0.0339
0.22203,0.97325,-0.059,0.08136,0.20094,0.10569
0.21114,0.97575,-0.05775,-0.07771,0.00194,0.20457
0.19694,0.97921,-0.04855,0.05421,-0.2449,0.10798
0.1859,0.98182,-0.03825,0.23685,-0.23289,0.00562
0.18055,0.98315,-0.02845,0.42396,-0.13499,-0.04987
0.1813,0.98308,-0.02612,0.3974,-0.13561,-0.11753
0.18556,0.98197,-0.036,0.22477,-0.18253,-0.29468
0.18791,0.9805,-0.05758,0.07973,-0.27131,-0.1267
0.18534,0.97916,-0.08296,0.05758,-0.39069,-0.07857
0.1783,0.97835,-0.10501,0.02404,-0.52354,-0.03388
0.16679,0.97815,-0.12414,-0.05619,-0.44136,-0.11315
0.15894,0.97598,-0.14901,-0.0569,-0.34423,-0.16444
0.15932,0.9692,-0.18782,0.09489,-0.24552,-0.07596
0.1652,0.9561,-0.24205,0.09557,-0.18565,0.09692
0.17615,0.9356,-0.30596,0.02694,-0.04452,0.08056
0.18692,0.91026,-0.36945,-0.3255,0.59894,0.06315
0.20582,0.88312,-0.42158,-0.13853,0.9564,0.15486
0.23654,0.85479,-0.46193,-0.04517,0.74677,0.17429
0.26607,0.82997,-0.49026,0.15178,0.21073,0.02293
0.28882,0.81062,-0.50939,0.22758,0.37104,-0.31036
0.30813,0.7995,-0.51561,0.11041,0.35861,-0.23959
0.32726,0.79508,-0.51064,-0.1398,0.13562,-0.01677
0.34886,0.79685,-0.49328,-0.03463,-0.25299,0.14489
0.36625,0.80531,-0.46619,-0.00909,-0.33426,0.16425
0.37445,0.81818,-0.43631,0.0101,-0.39609,0.1811
0.37261,0.83518,-0.40452,-0.03419,-0.45344,0.16428
0.36291,0.85543,-0.3695,-0.08854,-0.48576,0.04975
0.34564,0.87885,-0.32885,-0.11343,-0.49983,-0.02614
0.32296,0.90394,-0.28032,-0.18699,-0.58446,-0.09112
0.29351,0.92804,-0.22932,-0.08469,-0.21462,-0.15209
0.25936,0.94828,-0.18302,0.01225,-0.05648,-0.14466
0.22745,0.96249,-0.14788,0.07263,0.07635,-0.19863
0.20309,0.97105,-0.12578,0.25718,-0.03896,-0.10148
0.19864,0.97403,-0.10864,0.37317,-0.07976,-0.05677
0.21229,0.97338,-0.08643,0.2649,-0.01712,-0.19662
0.2259,0.97197,-0.06505,-0.01588,0.34207,0.03675
0.22237,0.97382,-0.04716,-0.79846,0.4187,-0.07859
0.21393,0.97508,-0.0587,0.13783,-0.01825,0.49677
0.20572,0.97732,-0.0503,0.7807,0.74313,-0.13717
0.20543,0.97806,-0.03445,0.52676,1.59086,-0.27349
0.21319,0.97633,-0.03637,0.81954,0.06278,0.3168
0.21949,0.97466,-0.04321,0.26634,0.14601,-0.27342
0.21423,0.97566,-0.04675,-0.06561,0.16737,0.16825
0.20008,0.97876,-0.04471,-0.05953,0.0923,0.36281
0.18104,0.98308,-0.02777,-0.3281,-0.09748,0.07857
0.15892,0.98727,-0.00611,-0.21074,-0.03555,0.03056
0.13845,0.99025,0.01488,0.16948,-0.17417,0.05824
0.12382,0.99171,0.03431,0.23618,-0.22883,-0.06929
0.11292,0.99232,0.05052,0.23087,-0.24136,-0.11862
0.10582,0.9926,0.05959,0.30257,-0.33658,-0.21723
0.10451,0.99271,0.05994,0.25694,-0.33817,-0.3203
0.10857,0.99285,0.04966,0.21442,-0.33342,-0.33548
0.11424,0.993,0.02999,0.19768,-0.42517,-0.15357
0.11879,0.99289,0.00659,0.23129,-0.4285,-0.17842
0.12304,0.99222,-0.01881,0.26298,-0.30643,-0.22232
0.1292,0.99044,-0.04821,0.20758,-0.3522,-0.3128
0.13952,0.9866,-0.08461,0.19754,-0.29701,-0.22437
0.1529,0.97998,-0.12754,0.14814,-0.30038,-0.08253
0.16717,0.96905,-0.18164,-0.04278,-0.25605,0.08518
0.18173,0.95253,-0.24426,-0.25632,0.32262,-0.09827
0.1981,0.93109,-0.30631,-0.22608,0.91625,-0.10592
0.22165,0.90578,-0.36116,-0.20406,1.06741,0.28171
0.25281,0.87772,-0.40706,-0.12722,0.48993,0.07225
0.27992,0.8541,-0.43835,-0.01143,0.37594,-0.0215
0.30136,0.8361,-0.45837,0.23051,0.35809,-0.20449
0.31803,0.82384,-0.46919,0.17299,0.33131,-0.1125
0.33253,0.81856,-0.46839,-0.00542,0.06877,0.04406
0.34467,0.8202,-0.45659,-0.10297,-0.2094,0.13184
0.35339,0.82835,-0.43469,-0.11094,-0.45716,0.17861
0.35695,0.84266,-0.40313,-0.08834,-0.52654,0.1904
0.35165,0.86314,-0.36239,0.00134,-0.56825,0.14628
0.33603,0.88737,-0.31568,0.02539,-0.65827,0.06462
0.3111,0.91258,-0.26537,-0.06706,-0.71839,-0.07652
0.27721,0.93743,-0.21064,-0.1322,-0.46983,-0.21959
0.23704,0.95891,-0.15588,-0.14561,0.2214,-0.2643
0.2012,0.97271,-0.11557,-0.13035,0.36807,-0.37626
0.17532,0.97932,-0.10099,-0.02525,0.32194,-0.41651
0.1746,0.97994,-0.09612,0.58125,-0.39542,0.31183
0.18968,0.97873,-0.07811,0.43722,-0.41635,0.3417
0.19985,0.97826,-0.05535,-0.08538,0.11809,-0.23659
0.18645,0.98183,-0.03533,-0.9574,0.5217,-0.28849
0.17247,0.9843,-0.03735,0.18295,0.52391,0.87764
0.17782,0.98344,-0.035,1.48373,0.91097,-0.09678
0.19458,0.98053,-0.02625,0.34786,0.2947,-0.16897
0.20544,0.97816,-0.03163,0.19457,0.59538,0.04736
0.20892,0.9774,-0.03227,0.27163,0.46431,0.06172
0.20468,0.97842,-0.02805,-0.06966,0.2059,0.1693
0.19106,0.98141,-0.01814,-0.08187,0.15003,0.17473
0.17248,0.98501,-0.00095,-0.02827,-0.04356,0.13405
0.15218,0.98815,0.01977,0.08419,-0.17542,0.12064
0.13666,0.9898,0.04022,0.14543,-0.19651,0.08765
0.12562,0.9904,0.0577,0.20446,-0.23206,-0.08058
0.11654,0.99065,0.0709,0.12034,-0.45207,-0.10948
0.10838,0.99106,0.07772,0.0898,-0.48648,-0.14807
0.10194,0.99152,0.08057,0.13825,-0.36273,-0.13222
0.09803,0.99215,0.07758,0.17245,-0.32565,-0.18632
0.09729,0.99299,0.06705,0.26205,-0.26412,-0.26842
0.09911,0.99381,0.05004,0.35827,-0.32058,-0.26496
0.10526,0.99411,0.02571,0.32554,-0.37042,-0.22375
0.11446,0.99341,-0.00583,0.22915,-0.38719,-0.22651
0.12518,0.99109,-0.04544,-0.02597,-0.36484,-0.27127
0.13617,0.98571,-0.09916,0.01352,-0.2847,-0.27014
0.14691,0.97517,-0.16569,0.02211,-0.09126,-0.20003
0.15592,0.95876,-0.23763,-0.07983,0.82211,-0.10745
0.16592,0.93724,-0.30668,-0.10216,1.10404,0.11655
0.18648,0.912,-0.36536,-0.15932,1.16422,0.41504
0.21277,0.8861,-0.41175,0.0561,0.25573,-0.10106
0.23648,0.86585,-0.44089,0.26038,0.36589,-0.05409
0.25775,0.84946,-0.46041,0.16278,0.56236,-0.17521
0.27993,0.83862,-0.46727,0.07795,0.40025,-0.10273
0.29986,0.83434,-0.46256,-0.03944,-0.00188,0.00646
0.31676,0.83545,-0.44909,-0.0611,-0.33356,0.14173
0.32827,0.841,-0.43007,-0.08584,-0.48493,0.16707
0.33328,0.85133,-0.40516,-0.10379,-0.57777,0.15027
0.32973,0.8677,-0.37199,-0.02953,-0.59025,0.0784
0.31629,0.8883,-0.33299,-0.01061,-0.66843,0.07125
0.29545,0.90904,-0.29385,-0.0862,-0.7012,-0.00581
0.26898,0.929,-0.25419,-0.12765,-0.55392,-0.10577
0.23957,0.94716,-0.21329,-0.08518,-0.23247,-0.16566
0.21277,0.96051,-0.17929,0.02667,0.10622,-0.0874
0.19513,0.96644,-0.16709,0.13735,0.04891,-0.04596
0.19554,0.96774,-0.15883,0.313,-0.32227,0.16638
0.20799,0.9691,-0.13262,0.18894,0.1278,-0.24193
0.21927,0.96983,-0.10647,-0.023,0.3073,-0.45072
0.22651,0.97,-0.08825,-0.02379,0.33179,-0.00248
0.23059,0.97009,-0.07583,0.57968,0.25013,0.4818
0.23922,0.96726,-0.08468,0.93916,0.41624,0.02671
0.24758,0.96537,-0.08215,0.29646,0.76209,-0.48825
0.24633,0.96517,-0.08805,0.32712,0.77894,-0.27661
0.2409,0.96475,-0.10595,0.13893,0.53785,0.04262
0.22847,0.96625,-0.11896,0.12728,0.19622,0.24098
0.21265,0.96962,-0.12085,0.23641,0.19035,0.02913
0.19553,0.97435,-0.11137,0.2402,0.13863,0.10227
0.17748,0.97968,-0.09341,0.37922,0.09743,0.03436
0.16418,0.98384,-0.07139,0.47266,-0.00088,-0.0693
0.15888,0.98571,-0.05592,0.40084,-0.01191,-0.09928
0.16008,0.98562,-0.05399,0.18653,0.00696,-0.28845
0.1666,0.98351,-0.07029,-0.1357,-0.2035,-0.43896
0.17541,0.97815,-0.11152,-0.23127,-0.28097,-0.28519
0.18066,0.96831,-0.17243,-0.17794,-0.65349,0.1981
0.18599,0.95404,-0.23498,-0.18327,-0.63922,0.26065
0.19252,0.9368,-0.29214,-0.41845,-0.67265,0.47391
0.20066,0.91849,-0.34074,-0.37154,-0.90178,0.44485
0.20962,0.90005,-0.38206,-0.20858,-0.87261,0.36774
0.21861,0.88192,-0.41764,-0.07254,-0.76432,0.32938
0.22937,0.86748,-0.44143,-0.00862,-0.33197,0.12837
0.24909,0.85884,-0.4476,-0.18009,0.40517,0.29414
0.27731,0.85767,-0.433,-0.08499,0.85536,0.27065
0.28458,0.86823,-0.40643,0.56092,0.17556,-0.07799
0.27903,0.88469,-0.37345,0.2969,-0.10292,-0.31651
0.2644,0.90519,-0.33274,0.37064,-0.28399,-0.4033
0.24312,0.92721,-0.28489,0.35132,-0.33557,-0.31877
0.22147,0.9453,-0.23949,0.30874,-0.07137,-0.172
0.2122,0.95468,-0.20869,0.28122,-0.10373,-0.08341
0.21693,0.95824,-0.18633,-0.01027,-0.4073,0.07888
0.21732,0.96331,-0.15746,-0.3498,-0.27401,-0.29608
0.19584,0.97352,-0.11785,-0.55697,0.17238,-0.32276
0.16385,0.982,-0.09392,-0.30269,1.50005,0.39466
0.14797,0.98493,-0.08951,0.80951,1.39085,-0.04193
0.15085,0.98456,-0.08873,0.81355,0.77974,-0.26141
0.15766,0.98209,-0.10314,0.43671,0.19694,0.23193
0.16134,0.97991,-0.11722,0.29552,-0.07747,0.18159
0.15893,0.97974,-0.12183,0.18024,0.25657,0.0891
0.14716,0.98275,-0.11193,0.03518,0.46205,0.27613
0.12664,0.9874,-0.0948,0.00457,0.33269,0.07849
0.10139,0.992,-0.07517,0.1564,0.047,0.09995
0.07694,0.99556,-0.05417,0.3269,-0.17097,0.06798
0.05561,0.99782,-0.03548,0.29976,-0.30769,-0.05945
0.03618,0.99917,-0.01846,0.15148,-0.45309,-0.06949
0.01538,0.99987,-0.00466,0.08207,-0.47299,-0.10972
-0.00759,0.99995,0.00627,0.17904,-0.40989,-0.16161
-0.03122,0.9994,0.01486,0.28682,-0.24368,-0.1611
-0.05244,0.99844,0.0189,0.36534,-0.23027,-0.12792
-0.07158,0.9973,0.01619,0.40538,-0.23476,-0.02676
-0.08928,0.99597,0.00756,0.47182,-0.16861,0.02244
-0.10565,0.9944,-0.00146,0.41246,-0.11156,-0.15987
-0.11915,0.9928,-0.01237,0.32459,-0.2166,-0.35993
-0.13253,0.99068,-0.03145,0.28361,-0.13022,-0.34222
-0.1489,0.98727,-0.0559,0.41426,-0.14199,0.06875
-0.16478,0.98239,-0.08809,0.35687,0.07943,0.06729
-0.16229,0.97861,-0.1264,0.23865,0.2789,-0.14404
-0.14265,0.97495,-0.17065,-0.04136,0.40629,-0.23259
-0.11113,0.96896,-0.22082,0.08452,0.4267,0.26899
-0.06981,0.95945,-0.27308,0.17291,0.59972,0.35405
-0.02145,0.94804,-0.31742,0.28279,1.19188,-0.02747
0.02641,0.93796,-0.34574,0.23606,0.93993,-0.21562
0.06557,0.92944,-0.36309,0.24458,0.70491,-0.2554
0.10469,0.92099,-0.37525,0.43766,0.29161,0.17766
0.1495,0.91284,-0.37996,0.3001,0.15154,0.20426
0.19367,0.90541,-0.37777,0.20107,0.12591,0.20945
0.22956,0.90088,-0.3684,-0.01923,0.04174,0.24418
0.258,0.90064,-0.34968,-0.05596,-0.05523,0.23904
0.2828,0.9035,-0.32203,-0.0962,-0.13177,0.2893
0.30188,0.90841,-0.28924,-0.20559,-0.31934,0.1031
0.31074,0.91623,-0.25289,-0.312,-0.45902,0.08651
0.30372,0.92677,-0.221,-0.35601,-0.50975,0.04034
0.28624,0.93777,-0.19661,-0.36566,-0.48554,-0.11564
0.26713,0.94728,-0.17689,-0.18496,-0.2515,-0.26608
0.24963,0.9526,-0.17389,0.03705,-0.09867,-0.46114
0.23693,0.95071,-0.20003,0.30599,0.04896,-0.3969
0.23467,0.94304,-0.23581,0.49186,-0.07219,0.16053
0.24525,0.93412,-0.25935,0.2963,-0.35205,0.29769
0.26222,0.92505,-0.27479,0.14372,-0.34339,0.26461
0.28242,0.92123,-0.26753,-0.20334,0.14243,-0.05928
0.29184,0.92791,-0.23198,-0.04936,1.04171,0.23112
0.2941,0.93241,-0.21003,0.35844,1.19621,0.16558
0.29922,0.93078,-0.21003,-0.00206,0.02744,0.45369
0.28645,0.93511,-0.20856,-0.17471,0.31249,0.63596
0.25858,0.94439,-0.20314,-0.04571,0.25926,0.49956
0.22921,0.95421,-0.19221,-0.3308,0.35867,0.3933
0.2053,0.96362,-0.17111,-0.42425,0.39198,0.38812
0.18773,0.97194,-0.1417,-0.28578,0.15525,0.27845
0.17563,0.97843,-0.10874,-0.1088,0.08194,0.15882
0.16353,0.98369,-0.07491,-0.09837,0.11626,-0.01098
0.14823,0.98787,-0.04614,-0.01324,-0.03621,-0.08274
0.13002,0.99119,-0.02511,0.04985,-0.21322,-0.13508
0.11041,0.99383,-0.00998,0.12778,-0.33622,-0.11144
0.09246,0.99571,0.00072,0.18274,-0.38681,-0.09292
0.07686,0.99699,0.00956,0.19166,-0.22902,-0.05965
0.06305,0.99781,0.01988,0.20624,-0.14197,-0.05118
0.04963,0.99826,0.03169,0.21174,-0.0892,0.01941
0.03458,0.99843,0.04403,0.19493,-0.18126,0.09321
0.01831,0.99809,0.05898,0.21014,-0.20489,0.10487
2e-05,0.99693,0.07828,0.2223,-0.16166,0.11705
-0.01917,0.99491,0.09883,0.199,0.01024,-0.04971
-0.03626,0.99258,0.11601,0.18687,0.10475,-0.10718
-0.04803,0.99089,0.1258,0.11799,0.27364,-0.19451
-0.0552,0.99017,0.12846,0.13092,0.2688,-0.29289
-0.06066,0.99035,0.12458,0.22742,0.20627,-0.19709
-0.06623,0.99154,0.11156,0.56684,0.2365,0.03837
-0.07036,0.99338,0.09075,0.51661,0.20453,0.03733
-0.07011,0.99555,0.0629,0.45818,0.07823,0.09252
-0.06194,0.99777,0.02474,0.17264,-0.06446,0.0642
-0.04097,0.99895,-0.02058,0.03504,-0.01982,-0.01879
-0.00952,0.99778,-0.0659,-0.12699,0.17991,-0.10431
0.02954,0.99351,-0.10984,-0.14038,0.45057,0.04513
0.07181,0.98524,-0.15539,-0.09005,0.60288,-0.02282
0.11022,0.97458,-0.19506,0.09829,0.44205,-0.0628
0.14187,0.96449,-0.22277,0.21678,0.1977,0.10137
0.1684,0.95579,-0.24105,0.19745,-0.01499,0.22677
0.19512,0.9467,-0.25627,0.0606,-0.09945,0.23936
0.22518,0.93575,-0.2714,-0.00905,-0.06208,0.22437
0.25757,0.92341,-0.28454,-0.00992,0.00802,0.26678
0.29042,0.9111,-0.2925,-0.12756,0.05001,0.25456
0.31964,0.90004,-0.29624,-0.19668,-0.00761,0.23998
0.34192,0.89045,-0.3003,-0.27358,-0.04241,0.20974
0.35839,0.88233,-0.30504,-0.29212,-0.0558,0.174
0.37211,0.87634,-0.30586,-0.28388,-0.03741,0.16339
0.38411,0.87237,-0.30236,-0.27206,-0.01579,0.13749
0.39481,0.86981,-0.29588,-0.23807,-0.03961,0.13506
0.40407,0.8686,-0.28682,-0.2169,-0.11669,0.14938
0.40997,0.86958,-0.27523,-0.21038,-0.12124,0.09915
0.41004,0.87376,-0.26154,-0.20368,-0.10394,0.03699
0.40354,0.88112,-0.24652,-0.1485,-0.07776,-0.07054
0.39218,0.8898,-0.23332,-0.01662,-0.01603,-0.18824
0.3786,0.89754,-0.22602,0.05645,0.01335,-0.24966
0.3669,0.90295,-0.22372,0.20892,0.17114,-0.27918
0.36386,0.90338,-0.22692,0.319,0.16087,-0.08695
0.37395,0.89805,-0.23164,0.21272,-0.02825,-0.01328
0.39109,0.89021,-0.23362,0.09675,-0.20058,0.04287
0.40636,0.88359,-0.23266,-0.0563,-0.2784,0.19542
0.41379,0.88292,-0.22187,-0.30833,-0.23692,0.07488
0.40793,0.89135,-0.19766,-0.11553,0.51996,-0.21296
0.39782,0.90114,-0.17228,0.49114,1.45395,0.39216
0.40115,0.90122,-0.16391,-0.00692,0.42527,0.06085
0.39946,0.90211,-0.16317,-0.87871,-0.00755,-0.18378
0.37817,0.91006,-0.16961,-0.73045,-0.19157,0.29479
0.34647,0.92361,-0.164,-0.43018,-0.29559,0.45518
0.31277,0.93857,-0.14581,-0.16181,-0.13956,0.61916
0.28814,0.94861,-0.1308,-0.00522,0.15317,0.3122
0.27522,0.95447,-0.11501,0.01122,0.05407,0.21846
0.27173,0.95795,-0.09209,-0.04752,-0.05752,0.17452
0.27257,0.95949,-0.0713,-0.18019,0.06435,0.14138
0.27249,0.96067,-0.05341,-0.14273,0.06777,0.10776
0.26976,0.96215,-0.03858,-0.02611,0.03108,0.05916
0.2651,0.96381,-0.02791,0.06784,-0.05129,0.00317
0.26144,0.96503,-0.01885,0.04924,-0.11982,-0.03776
0.25598,0.96662,-0.0103,-0.02958,-0.13224,-0.04217
0.25001,0.96823,-0.00455,-0.02069,-0.12295,-0.05321
0.24894,0.96851,-0.00207,0.1329,-0.1225,-0.04383
0.25141,0.96787,-0.00206,0.16017,-0.12275,-0.0238
0.25267,0.96755,5e-05,0.13939,-0.12201,-0.02199
0.25501,0.96693,0.00297,0.00456,-0.09911,-0.15083
0.25697,0.96641,0.00169,-0.03248,-0.12835,-0.20197
0.25712,0.96635,-0.00726,-0.00352,-0.09582,-0.21533
0.25404,0.96699,-0.01935,0.00302,-0.13063,0.08102
0.24707,0.96835,-0.03521,0.04657,-0.33555,0.22826
0.24106,0.96907,-0.05267,0.00715,-0.39493,0.01993
0.23779,0.96859,-0.07267,-0.07538,-0.20008,-0.25309
0.23594,0.96725,-0.09358,0.03431,-0.03829,-0.008
0.23686,0.96474,-0.11474,0.00911,-0.06444,-0.02334
0.23938,0.96034,-0.14295,-0.0386,-0.21435,-0.17334
0.24236,0.95271,-0.18332,-0.06345,-0.2573,-0.08328
0.24441,0.93977,-0.23893,-0.24316,-0.13356,-0.03497
0.24628,0.91962,-0.30601,-0.37088,0.32431,-0.05087
0.25806,0.89206,-0.37097,-0.30071,0.72409,0.26738
0.28271,0.86165,-0.42147,-0.33088,0.7031,0.3278
0.31742,0.83258,-0.45393,-0.17455,0.61623,0.09468
0.35254,0.80763,-0.4727,0.32685,0.47051,-0.12188
0.38762,0.78649,-0.48081,0.346,0.68247,-0.16555
0.42143,0.76645,-0.48471,0.09333,0.58839,-0.12648
0.44979,0.75036,-0.4844,-0.29686,0.22585,0.00987
0.47369,0.74129,-0.47551,-0.3343,-0.10295,0.1189
0.49265,0.73983,-0.45819,-0.26996,-0.2407,0.15871
0.50455,0.74575,-0.43506,-0.17207,-0.32908,0.24277
0.50886,0.75682,-0.41023,-0.27546,-0.40112,0.22162
0.50539,0.77219,-0.38511,-0.31565,-0.4754,0.15195
0.49657,0.79252,-0.354,-0.38744,-0.63336,0.08174
0.4822,0.81719,-0.31572,-0.45007,-0.7646,0.04303
0.45836,0.84464,-0.27654,-0.49801,-0.57468,-0.07212
0.42428,0.872,-0.24415,-0.29798,-0.19458,-0.11663
0.38565,0.89558,-0.22184,-0.15193,0.1589,-0.12095
0.34901,0.91227,-0.21435,0.04654,0.39939,-0.23316
0.3226,0.92155,-0.21605,0.35028,0.24606,0.04024
0.32322,0.92385,-0.20497,0.21049,-0.28315,-0.20526
0.34279,0.92025,-0.18872,-0.169,-0.23952,0.01095
0.35389,0.92051,-0.16557,-0.95658,0.63843,0.06574
0.34273,0.92868,-0.14172,-0.49768,0.84734,0.38642
0.32773,0.93427,-0.14041,0.46169,0.07,0.507
0.32391,0.93629,-0.1358,0.88163,1.79174,-0.70563
0.33334,0.93358,-0.13154,0.40059,-0.36501,0.52734
0.35472,0.9224,-0.15279,0.06803,-0.26084,0.44086
0.36538,0.91481,-0.17209,-0.17463,0.19962,-0.03592
0.36246,0.91379,-0.18331,-0.30803,0.25059,0.5729
0.34914,0.91973,-0.17944,-0.37886,0.05664,0.36303
0.33388,0.92922,-0.15834,-0.24345,0.13122,0.06871
0.31667,0.93951,-0.13048,0.56477,0.11066,0.18026
0.30389,0.94702,-0.10386,0.41257,-0.24454,0.00108
0.29591,0.95162,-0.08271,0.09933,-0.31349,-0.11424
0.28785,0.9553,-0.06742,0.01895,-0.35004,-0.07855
0.27995,0.95838,-0.056,-0.09509,-0.33847,-0.11131
0.27282,0.96076,-0.04995,-0.06711,-0.32931,-0.14672
0.26469,0.963,-0.05062,0.02735,-0.25839,-0.09285
0.25698,0.96467,-0.05804,0.06293,-0.25217,-0.02602
0.25122,0.96526,-0.07175,-0.03917,-0.33391,-0.19733
0.24754,0.96462,-0.09072,-0.08356,-0.21483,-0.15945
0.24594,0.96275,-0.1123,-0.02491,-0.2325,0.02127
0.24941,0.95911,-0.13374,-0.0331,-0.38378,-0.10967
0.25721,0.95219,-0.16481,-0.10678,-0.19302,-0.34152
0.26739,0.93903,-0.21613,-0.11915,-0.02267,-0.26464
0.27904,0.91925,-0.27769,-0.16425,0.58746,0.04015
0.29246,0.89306,-0.34192,-0.19345,1.02856,0.291
0.31058,0.86309,-0.39826,-0.1984,1.11669,0.44042
0.33759,0.82953,-0.44487,-0.07441,0.47743,0.13576
0.36445,0.80017,-0.47634,0.00573,0.62958,-0.00437
0.39262,0.77659,-0.49271,0.06507,0.72468,-0.08579
0.41998,0.75667,-0.50106,-0.00022,0.30496,-0.06116
0.44514,0.7404,-0.50364,-0.14572,-0.00753,0.13487
0.46288,0.73182,-0.50018,-0.19527,-0.20754,0.19868
0.47113,0.73201,-0.49214,-0.18227,-0.29644,0.23623
0.47079,0.74091,-0.47896,-0.21316,-0.37638,0.2956
0.46647,0.75655,-0.4583,-0.24271,-0.43019,0.27601
0.45984,0.77754,-0.42892,-0.25644,-0.40894,0.19923
0.44819,0.80372,-0.39135,-0.26428,-0.45415,0.1831
0.43222,0.83256,-0.34644,-0.30759,-0.56506,0.1241
0.411,0.863,-0.29378,-0.44845,-0.51627,-0.04183
0.38193,0.89306,-0.23785,-0.41509,0.18228,-0.18062
0.35086,0.91659,-0.19172,-0.33506,0.37418,-0.20922
0.31904,0.93287,-0.16719,-0.27961,0.7016,-0.3546
0.29693,0.9405,-0.16516,0.09464,0.32787,-0.06036
0.29611,0.94115,-0.16294,0.51986,-0.34507,0.00348
0.30982,0.93864,-0.15153,0.29578,-0.38062,-0.12582
0.33265,0.93305,-0.13693,-0.29179,0.0046,-0.20226
0.33376,0.93671,-0.10567,-0.72902,0.66569,0.05118
0.32612,0.94165,-0.08323,-0.18655,0.09691,0.60486
0.32263,0.94173,-0.09514,1.15845,0.29057,0.14782
0.33581,0.938,-0.08583,0.40254,0.30574,-0.17372
0.34194,0.93499,-0.09419,-0.28862,0.71617,0.09615
0.33638,0.93646,-0.09937,0.0941,0.45163,0.3034
0.33584,0.93755,-0.09055,0.1518,0.33486,0.17912
0.33849,0.93785,-0.07647,0.05656,0.43936,-0.02084
0.33283,0.94058,-0.06725,-0.25834,0.06664,0.14922
0.32416,0.94391,-0.06281,-0.23153,-0.10097,0.25111
0.31434,0.94768,-0.05549,-0.25005,-0.10267,0.15035
0.3031,0.95198,-0.04313,-0.19483,-0.08867,0.0995
0.29255,0.95573,-0.03143,0.02763,-0.15327,0.0387
0.28478,0.95832,-0.02269,0.04162,-0.16361,-0.07476
0.27896,0.96013,-0.01788,0.04551,-0.17958,-0.07976
0.2748,0.96131,-0.01912,0.09817,-0.21154,-0.16988
0.27271,0.96174,-0.02617,0.15061,-0.30054,-0.12798
0.27322,0.96111,-0.04007,0.16202,-0.33646,-0.14557
0.27725,0.95874,-0.06282,0.18433,-0.33357,-0.21669
0.283,0.95456,-0.09342,0.0851,-0.28985,-0.28419
0.28892,0.94852,-0.12968,0.10048,-0.19564,-0.26454
0.29731,0.93877,-0.17413,0.01254,-0.12878,-0.19118
0.30262,0.92586,-0.22627,-0.22418,-0.4166,0.07519
0.30597,0.90796,-0.28633,-0.29616,-0.25394,0.153
0.30916,0.88176,-0.35624,-0.33398,0.2174,0.33616
0.31475,0.84954,-0.42333,-0.28057,0.51427,0.19426
0.32605,0.8172,-0.47527,-0.33094,0.87509,0.24552
0.34826,0.78872,-0.50659,-0.24745,0.58003,0.2209
0.37829,0.76316,-0.52391,0.04142,0.47253,0.16353
0.40687,0.74509,-0.52848,0.10718,0.62291,0.02511
0.43353,0.73626,-0.51959,0.03064,0.50517,-0.06987
0.45542,0.73863,-0.49701,-0.08759,0.00045,0.03657
0.47539,0.74907,-0.46141,-0.11892,-0.43755,0.14051
0.48933,0.76734,-0.41441,-0.09243,-0.68389,0.17405
0.48735,0.7946,-0.36208,-0.12878,-0.76814,0.16036
0.4678,0.82731,-0.311,-0.1535,-0.76067,0.15037
0.43695,0.86078,-0.26101,-0.26468,-0.48862,0.09981
0.39862,0.89262,-0.21053,-0.38286,0.11728,-0.14867
0.36165,0.91711,-0.16766,-0.38327,0.76503,-0.46985
0.32817,0.9333,-0.14577,-0.37268,0.95378,-0.55693
0.311,0.93813,-0.15226,0.00996,-0.11738,-0.11723
0.31875,0.93482,-0.15656,0.42481,-0.81557,0.79385
0.33997,0.93108,-0.1323,0.19398,-0.71676,0.28931
0.35523,0.92932,-0.1008,-0.77129,-0.0206,-0.70215
0.34241,0.93644,-0.0764,-1.05898,0.50547,0.57348
0.32257,0.94205,-0.09211,0.79609,0.80449,0.34471
0.33046,0.94011,-0.08359,1.48987,0.88715,-0.24305
0.35125,0.9331,-0.07704,0.08954,0.91298,0.1266
0.36334,0.92715,-0.0915,0.33145,0.5185,0.37069
0.37455,0.92063,-0.11019,0.10464,0.44622,-0.18132
0.37719,0.91766,-0.12495,-0.44308,0.20842,0.40483
0.36565,0.91945,-0.14459,-0.33411,0.0493,0.43034
0.34828,0.92536,-0.14964,-0.30899,-0.09925,0.27257
0.32934,0.93408,-0.1379,0.01005,0.29611,0.13772
0.31383,0.94163,-0.12183,0.34138,0.13198,-0.0016
0.3062,0.94583,-0.10789,0.13436,-0.19719,-0.27225
0.30211,0.94814,-0.09878,0.02705,-0.24219,-0.29374
0.29618,0.95008,-0.0981,0.01742,-0.27625,-0.22892
0.28864,0.95176,-0.1041,0.00735,-0.35265,0.01337
0.28122,0.95239,-0.11773,0.00675,-0.37865,-0.1032
0.27532,0.95169,-0.13592,-0.02628,-0.3648,-0.27271
0.26968,0.94991,-0.15794,0.14896,-0.42205,-0.05408
0.26536,0.94654,-0.18341,0.13175,-0.4755,-0.00191
0.26321,0.94146,-0.21062,0.06447,-0.45839,-0.01762
0.26312,0.93372,-0.24276,-0.13044,-0.31548,0.04978
0.26313,0.92132,-0.28624,-0.12156,-0.19729,0.20689
0.26988,0.90155,-0.33818,-0.0399,0.21498,0.13655
0.28531,0.87391,-0.39355,-0.21965,1.10232,0.17514
0.30724,0.84422,-0.4392,-0.21331,0.85453,0.26157
0.33683,0.81378,-0.47361,-0.16241,0.51726,0.21529
0.36198,0.78693,-0.49971,-0.0415,0.27481,0.08245
0.38058,0.76807,-0.51501,-0.02597,0.65073,-0.18546
0.39454,0.75783,-0.51964,-0.00905,0.75012,-0.11351
0.41152,0.75294,-0.51355,-0.18987,0.27932,0.17241
0.43302,0.75212,-0.49679,-0.21467,-0.10543,0.22121
0.4489,0.75799,-0.47322,-0.22044,-0.21908,0.19328
0.45464,0.77084,-0.44621,-0.22781,-0.47215,0.10315
0.44996,0.79091,-0.41473,-0.17878,-0.45972,0.05257
0.43705,0.81551,-0.37937,-0.17315,-0.42518,0.03361
0.41882,0.84035,-0.34408,-0.2186,-0.45603,-0.0062
0.39711,0.86381,-0.31006,-0.26617,-0.4754,-0.11329
0.37203,0.88651,-0.27511,-0.24554,-0.17818,-0.13932
0.34529,0.90771,-0.23842,-0.14486,0.23684,-0.08507
0.31952,0.92457,-0.20755,-0.03755,0.21749,-0.03002
0.30303,0.93461,-0.18618,0.02584,-0.23166,0.16488
0.30351,0.93843,-0.16503,0.0681,-0.40922,0.34461
0.31712,0.93882,-0.13434,0.03363,-0.24219,-0.0892
0.32763,0.93903,-0.10427,-0.37702,0.01841,-0.36558
0.3237,0.94178,-0.0909,-0.15732,0.50443,0.20656
0.32127,0.94235,-0.09363,0.46541,0.76775,0.5298
0.33316,0.93774,-0.09821,0.36712,0.44033,-0.2606
0.34656,0.93316,-0.0954,-0.19324,0.87723,-0.29572
0.35451,0.92958,-0.10105,0.336,0.5183,0.1918
0.3621,0.92541,-0.11177,0.1909,0.36762,0.06757
0.36243,0.92344,-0.1261,-0.07556,0.18528,0.09942
0.35468,0.92396,-0.14317,-0.17432,0.15205,0.21974
0.34232,0.92703,-0.15305,-0.13786,0.10536,0.20226
0.32583,0.9329,-0.15336,0.00489,0.06125,0.02572
0.30873,0.93949,-0.14843,0.11853,0.07126,0.0308
0.29636,0.94465,-0.14073,0.28644,-0.04783,-0.1359
0.28958,0.94777,-0.13367,0.11353,-0.21312,-0.09921
0.28584,0.94902,-0.13288,0.05176,-0.31495,-0.04614
0.28403,0.94813,-0.14274,0.04185,-0.3713,-0.23838
0.28478,0.94421,-0.16544,-0.12034,-0.33926,-0.18997
0.28664,0.93713,-0.19905,-0.1657,-0.36233,-0.13571
0.29041,0.92537,-0.24362,-0.35779,-0.45877,0.00353
0.29658,0.90708,-0.29874,-0.39705,-0.36495,0.26873
0.30531,0.88173,-0.35963,-0.35329,-0.27477,0.3407
0.3172,0.8516,-0.41732,-0.32868,-0.17333,0.43524
0.32974,0.82245,-0.46351,-0.29244,0.09668,0.21407
0.34202,0.79817,-0.49592,-0.10977,0.79469,0.18135
0.36769,0.77477,-0.51433,0.18617,0.70712,0.245
0.39736,0.75961,-0.51487,-0.0698,0.54817,0.01607
0.42428,0.75562,-0.49902,-0.16847,0.30459,-0.0604
0.4452,0.7609,-0.47204,-0.20304,0.07296,-0.07007
0.46084,0.77549,-0.43155,-0.02007,-0.40072,-0.04944
0.46966,0.79888,-0.37578,0.14257,-0.66069,0.01418
0.46234,0.83005,-0.31185,0.11147,-0.72982,-0.01969
0.43811,0.86325,-0.25071,0.00052,-0.65626,-0.00454
0.39901,0.89427,-0.20264,-0.17666,-0.38333,0.08312
0.3579,0.91757,-0.17311,-0.1833,-0.29011,-0.00161
0.32732,0.92988,-0.16786,-0.26525,0.3098,-0.13608
0.31266,0.93405,-0.17261,-0.03886,0.32908,-0.31598
0.31629,0.93534,-0.15843,-0.17139,0.42636,0.5429
0.31097,0.94178,-0.12785,-0.79347,0.7873,0.29993
0.30286,0.94432,-0.12858,0.54518,0.60372,0.10971
0.30557,0.94428,-0.12232,1.43983,1.53268,-0.44613
0.32301,0.93822,-0.12408,0.2748,0.08263,0.4072
0.3339,0.93065,-0.14964,-0.11614,0.07103,0.00881
0.33138,0.92711,-0.17509,-0.20054,0.13962,0.31035
0.31681,0.92965,-0.18808,-0.43539,0.03345,0.37407
0.29343,0.93807,-0.18418,-0.4261,0.07171,0.10158
0.26408,0.94969,-0.16835,0.29749,0.4215,0.03733
0.24041,0.95922,-0.14864,0.65557,0.00486,-0.00273
0.22019,0.9664,-0.13262,0.30349,-0.26953,-0.06749
0.1991,0.97259,-0.12009,0.18034,-0.22074,-0.00252
0.17308,0.97913,-0.1065,0.16029,-0.23159,0.07132
0.14432,0.98514,-0.09312,0.1774,-0.29292,-0.05095
0.11725,0.98952,-0.08421,0.24199,-0.28323,-0.03876
0.09532,0.99206,-0.08201,0.35893,-0.14453,0.02076
0.07844,0.99323,-0.08569,0.16739,-0.04912,-0.23528
0.06495,0.99337,-0.0948,0.04004,-0.09852,-0.23988
0.04973,0.99277,-0.10923,0.20285,-0.05382,0.24084
0.0299,0.99091,-0.13113,0.30636,0.05466,0.2109
0.01257,0.98706,-0.15984,0.30591,0.08841,0.16194
0.00909,0.98125,-0.1925,0.15625,0.16996,0.09442
0.02561,0.97331,-0.22805,0.12128,0.1763,0.21432
0.06121,0.96295,-0.26265,0.02733,0.643,0.2983
0.10766,0.9496,-0.2944,0.02262,0.82964,0.35268
0.1577,0.93377,-0.32125,-0.00388,0.77149,0.23572
0.20142,0.91824,-0.34096,0.21921,0.74239,-0.08615
0.23417,0.90473,-0.35585,0.33973,0.6705,0.06541
0.26536,0.89097,-0.36844,0.28095,0.46109,0.18845
0.29855,0.87602,-0.37876,0.06089,0.40158,0.23754
0.32703,0.86164,-0.38811,-0.14655,0.26074,0.33363
0.34862,0.85153,-0.39161,-0.28147,0.05018,0.3645
0.36422,0.84647,-0.38837,-0.30816,-0.17633,0.41782
0.36956,0.84595,-0.38445,-0.21652,-0.30377,0.41619
0.36472,0.85028,-0.37948,-0.30779,-0.46533,0.35781
0.35345,0.8606,-0.36667,-0.33753,-0.57333,0.26848
0.33489,0.87683,-0.345,-0.27102,-0.5818,0.14038
0.30917,0.89644,-0.3175,-0.20783,-0.40126,0.01984
0.27586,0.91589,-0.29162,-0.20121,-0.09819,-0.12022
0.23784,0.92908,-0.28326,-0.04821,0.21751,-0.51838
0.2028,0.93045,-0.30517,0.34667,0.82167,-0.55864
0.18988,0.91336,-0.36015,0.69305,0.91359,-0.34883
0.24187,0.88607,-0.39544,-0.52829,0.31949,1.0719
0.26866,0.89376,-0.35919,-1.37089,-0.21009,0.34217
0.24299,0.90945,-0.33742,-0.38943,-0.26768,0.72171
0.21548,0.92455,-0.31429,0.81535,0.57468,1.2558
0.20377,0.93407,-0.29324,0.87778,1.3316,0.1481
0.18862,0.94127,-0.28005,0.01275,0.19058,0.22629
0.16625,0.94846,-0.26979,-0.30952,0.12614,0.37005
0.1417,0.95776,-0.25022,-0.35492,0.14246,0.517
0.12133,0.96598,-0.22837,-0.15443,0.07514,0.34075
0.10613,0.97219,-0.20877,0.1956,0.03776,0.23001
0.09472,0.97712,-0.19044,0.23001,-0.05047,0.18536
0.08454,0.98121,-0.17345,0.1632,-0.16495,0.12548
0.07304,0.98458,-0.15895,0.09549,-0.22228,0.10949
0.05841,0.98747,-0.14659,0.1019,-0.28732,0.10754
0.04351,0.9898,-0.13566,0.13019,-0.34699,0.09018
0.0293,0.99171,-0.12513,0.15916,-0.2748,0.12997
0.01577,0.99329,-0.11458,0.15597,-0.14054,0.23275
0.0037,0.99466,-0.10317,0.15458,-0.10035,0.27385
-0.00842,0.99604,-0.08852,0.17666,-0.06382,0.29636
-0.0236,0.99733,-0.0691,0.21029,-0.04245,0.21743
-0.04249,0.99794,-0.04808,0.23455,-0.02943,0.16212
-0.06249,0.99763,-0.02883,0.23339,0.1608,-0.08674
-0.08067,0.99665,-0.01366,0.26642,0.19212,-0.13745
-0.09483,0.99548,-0.00518,0.32261,0.21193,-0.1508
-0.10508,0.99445,-0.00457,0.48721,0.12202,-0.04578
-0.11133,0.99374,-0.00907,0.50787,0.09656,-0.00861
-0.11458,0.99326,-0.01747,0.52259,0.12025,0.08081
-0.11527,0.99283,-0.03173,0.44021,0.14968,0.08024
-0.11205,0.9924,-0.05078,0.39524,0.12069,0.14131
-0.10257,0.99175,-0.07691,0.33787,0.10704,0.23664
-0.08269,0.99042,-0.11057,0.09755,0.00213,0.22456
-0.05362,0.98734,-0.14928,-0.02801,-0.02278,0.01311
-0.02184,0.98105,-0.19253,-0.06543,0.16032,0.08299
0.01115,0.9718,-0.23556,-0.04853,0.46404,0.17584
0.04709,0.95907,-0.27922,0.01182,0.59563,0.12681
0.08164,0.94436,-0.31862,0.18809,0.35178,0.23415
0.11168,0.93135,-0.34657,0.2798,0.08861,0.3463
0.13953,0.92083,-0.36414,0.30564,-0.03076,0.30152
0.16781,0.91142,-0.37571,0.31599,0.02218,0.24361
0.19509,0.9018,-0.38561,0.33355,0.07801,0.31416
0.22221,0.89224,-0.3931,0.22111,0.1114,0.39293
0.24655,0.8843,-0.39653,-0.0299,0.02172,0.3878
0.26405,0.87879,-0.39751,-0.26042,-0.08489,0.32672
0.27425,0.87505,-0.39883,-0.29464,-0.12609,0.26972
0.28118,0.8731,-0.39828,-0.17267,-0.13058,0.20809
0.28633,0.87253,-0.39587,-0.11087,-0.12584,0.15755
0.29063,0.87302,-0.39163,-0.04918,-0.11912,0.2032
0.2957,0.87454,-0.38438,-0.04713,-0.10859,0.28601
0.30063,0.87743,-0.37381,-0.10005,-0.12322,0.28192
0.30229,0.88208,-0.36132,-0.11421,-0.12206,0.21094
0.29839,0.88888,-0.34764,-0.03297,-0.12406,0.12584
0.28871,0.89712,-0.3344,0.06335,-0.14474,0.07375
0.27448,0.90586,-0.32261,0.14973,-0.08924,0.01409
0.25737,0.91497,-0.31079,0.19348,-0.02636,-0.06526
0.2401,0.92355,-0.29902,0.28665,0.05776,-0.16295
0.22936,0.92962,-0.28846,0.44432,0.0812,-0.12207
0.2312,0.93206,-0.27893,0.42175,-0.02467,-0.03859
0.24364,0.93118,-0.27119,0.29157,-0.02319,-0.03188
0.25772,0.92877,-0.26639,0.12627,-0.01184,0.00555
0.26558,0.92625,-0.26743,0.00924,0.0758,0.26787
0.26995,0.92712,-0.25994,0.10575,0.7538,0.06741
0.2733,0.93086,-0.24251,0.30973,0.58732,0.21568
0.27914,0.93051,-0.23714,-0.20697,0.11371,-0.07716
0.27731,0.93111,-0.23693,-0.59243,0.04304,0.09572
0.25909,0.93733,-0.23299,-0.20488,-0.16378,0.57796
0.22784,0.94771,-0.22347,-0.00568,-0.0747,0.60533
0.19637,0.95752,-0.21118,0.0204,0.14502,0.27146
0.17187,0.96413,-0.20225,0.03465,0.03933,0.18606
0.15494,0.9697,-0.1889,0.02458,-0.03905,0.16778
0.14383,0.97472,-0.17098,-0.01816,-0.0082,0.24736
0.13664,0.97911,-0.15054,-0.02009,0.01829,0.24571
0.13073,0.9829,-0.12965,0.03763,0.01551,0.1403
0.12271,0.98625,-0.11072,0.11348,-0.08345,0.04575
0.11214,0.98926,-0.09379,0.19425,-0.1629,-0.03177
0.101,0.99181,-0.07818,0.21875,-0.19109,-0.05334
0.09014,0.99391,-0.06335,0.22828,-0.11009,-0.07793
0.08184,0.99526,-0.05257,0.27637,-0.06598,-0.10547
0.08138,0.99556,-0.04736,0.31837,-0.12692,-0.1106
0.08984,0.99482,-0.04754,0.29569,-0.16045,-0.11189
0.0912,0.99477,-0.04605,0.31158,-0.17703,-0.11303
0.09369,0.99449,-0.04709,0.28802,-0.16413,-0.17817
0.09574,0.99416,-0.04971,0.09812,-0.10902,-0.09254
0.09389,0.99405,-0.05524,0.0999,-0.13818,-0.01017
0.08827,0.99402,-0.06427,0.2036,-0.22144,0.01906
0.08125,0.99395,-0.07388,0.22747,-0.27322,0.04985
0.07387,0.99372,-0.08403,0.20639,-0.29211,0.12537
0.06746,0.99319,-0.09499,0.09163,-0.25038,0.00517
0.06506,0.99191,-0.10897,-0.01507,-0.29628,0.01158
0.06257,0.98989,-0.12731,0.0402,-0.19295,0.04196
0.05897,0.98782,-0.14402,0.03853,-0.12029,-0.04219
0.05583,0.98488,-0.16398,0.13306,-0.1341,-0.07778
0.0563,0.9795,-0.19339,0.01555,-0.27463,-0.01617
0.06003,0.97029,-0.23439,-0.09225,-0.08194,-0.13662
0.06682,0.9556,-0.28698,-0.11118,0.50622,-0.18734
0.08404,0.93414,-0.34687,-0.07928,0.99274,0.06654
0.11566,0.90797,-0.40275,-0.04091,0.79173,0.38309
0.15037,0.88136,-0.44788,0.20192,0.21134,0.15836
0.17743,0.85981,-0.4788,0.487,0.08332,-0.07577
0.20424,0.8442,-0.49559,0.37844,0.23952,-0.1458
0.2353,0.83322,-0.50037,0.0897,0.45466,-0.13292
0.26599,0.82892,-0.49208,0.11368,0.19179,0.0643
0.29335,0.83084,-0.47291,0.13588,-0.16445,0.14813
0.31467,0.83757,-0.4466,0.13926,-0.30063,0.1741
0.32556,0.84796,-0.41829,0.00298,-0.4525,0.23905
0.32681,0.8611,-0.38948,-0.23538,-0.57004,0.26472
0.3204,0.87716,-0.35768,-0.41301,-0.58354,0.20527
0.30861,0.89652,-0.31783,-0.41638,-0.44464,0.1031
0.29195,0.91704,-0.27166,-0.35495,-0.40459,0.03232
0.26792,0.93641,-0.22663,-0.29515,-0.24451,-0.13569
0.23947,0.95198,-0.19074,-0.11676,-0.00467,-0.24773
0.21027,0.96289,-0.16923,-0.04947,0.00641,-0.24177
0.18629,0.96919,-0.16114,0.26093,0.00751,-0.05615
0.17781,0.9713,-0.15801,0.49341,-0.16945,0.17091
0.1868,0.97188,-0.14341,0.15575,-0.41056,0.02375
0.19465,0.97364,-0.11888,-0.45184,0.0429,0.00416
0.18772,0.97833,-0.08738,-0.47096,0.55901,-0.21243
0.17372,0.98232,-0.06979,0.13129,0.82775,0.40152
0.16599,0.98399,-0.06492,0.91672,0.38918,-0.08964
0.17686,0.98279,-0.05342,0.19123,-0.07724,-0.20652
0.18609,0.98087,-0.05706,0.23864,1.29702,-0.08374
0.19177,0.97969,-0.05856,0.81258,0.31184,0.07467
0.20449,0.97638,-0.06977,0.49465,0.22011,-0.03207
0.20983,0.97408,-0.08445,-0.11944,0.1283,0.18961
0.20142,0.97486,-0.09526,-0.18605,-0.03848,0.31511
0.18378,0.9786,-0.09252,-0.20577,-0.13667,0.1695
0.16201,0.98364,-0.07877,0.24317,-0.04123,0.0678
0.14636,0.98718,-0.06361,0.64066,-0.32506,-0.09086
0.14119,0.9888,-0.04838,0.48496,-0.35971,-0.22698
0.14285,0.9891,-0.03573,0.28083,-0.39419,-0.22125
0.14161,0.98933,-0.03419,0.05232,-0.35313,-0.09769
0.13593,0.98993,-0.03954,0.02586,-0.31056,-0.01175
0.1269,0.99076,-0.04781,-0.00596,-0.31124,-0.08993
0.11835,0.99114,-0.06036,0.01941,-0.24544,-0.30315
0.11333,0.99059,-0.07674,0.14472,-0.24651,-0.22752
0.11203,0.98879,-0.0987,0.26533,-0.36301,-0.14007
0.11583,0.98446,-0.13195,0.1243,-0.17346,-0.3503
0.12297,0.97544,-0.18275,-0.14356,0.10235,-0.06275
0.12937,0.96119,-0.24367,-0.12665,0.49024,-0.06172
0.14292,0.93993,-0.31,-0.11396,0.83573,0.17125
0.16346,0.91455,-0.36998,-0.20906,0.79212,0.39229
0.18821,0.88869,-0.41809,0.07926,0.26694,0.01796
0.21384,0.86612,-0.45178,0.2587,0.31782,0.01718
0.23805,0.84717,-0.47501,0.26111,0.50845,-0.1636
0.26256,0.83212,-0.4885,0.13787,0.44327,-0.14453
0.28793,0.82171,-0.49182,-0.08345,0.0822,0.00328
0.31238,0.81685,-0.48494,-0.12532,-0.24752,0.12383
0.33169,0.81855,-0.46899,-0.1239,-0.34681,0.126
0.34233,0.82652,-0.44685,-0.0541,-0.35602,0.18037
0.34422,0.83935,-0.42073,-0.05073,-0.43593,0.18368
0.33864,0.85655,-0.3894,-0.04056,-0.54071,0.16318
0.32437,0.87798,-0.35203,-0.10213,-0.6424,0.08535
0.30223,0.90207,-0.30811,-0.08334,-0.74692,0.03775
0.27525,0.92605,-0.25821,-0.07764,-0.64446,-0.01007
0.24503,0.94723,-0.20668,-0.04631,-0.25613,-0.05014
0.21503,0.96276,-0.16385,0.01117,0.17771,-0.14362
0.19148,0.97184,-0.13734,-0.04852,0.42619,-0.24481
0.17957,0.97576,-0.12512,0.36483,-0.15493,-0.00101
0.18358,0.97679,-0.11036,0.32257,-0.31444,0.13987
0.19768,0.97672,-0.08334,0.22145,-0.21286,-0.10306
0.19851,0.97894,-0.04759,-0.51809,0.40471,-0.47691
0.1882,0.98171,-0.0287,-0.28353,0.40968,-0.18476
0.17448,0.9841,-0.0333,0.94588,0.32192,0.29477
0.17002,0.98508,-0.02656,0.16613,0.93934,-0.43689
0.16821,0.98569,-0.01118,0.25469,1.4375,-0.22275
0.16811,0.98577,0.00245,0.5077,1.38051,0.05702
0.18351,0.983,0.00644,0.27078,0.15806,-0.06131
0.19707,0.98039,-0.00069,-0.29377,0.02535,-0.08612
0.19571,0.98049,-0.0184,-0.33609,-0.1083,0.08395
0.18482,0.98238,-0.02758,-0.45936,-0.20545,0.30247
0.16345,0.98646,-0.01313,-0.18043,0.00578,-0.00979
0.13885,0.99029,0.00658,0.18047,0.17295,-0.04971
0.12156,0.99226,0.02551,0.46998,-0.20193,0.08797
0.11113,0.99273,0.04622,0.40439,-0.30827,-0.1027
0.10591,0.99261,0.05926,0.31399,-0.30663,-0.19233
0.1026,0.99285,0.06107,0.20059,-0.34357,-0.34679
0.10153,0.99347,0.05196,0.11671,-0.36997,-0.47371
0.10275,0.99417,0.03265,0.11689,-0.34891,-0.42784
0.10902,0.99404,-7e-05,0.31254,-0.29203,-0.37006
0.12498,0.99074,-0.05295,0.31317,-0.29565,-0.48387
0.15002,0.98038,-0.12784,-0.09214,-0.20382,-0.23154
0.1689,0.96277,-0.21106,-0.36058,0.00134,0.35378
0.1837,0.93875,-0.29154,-0.30987,0.08526,0.46312
0.20242,0.91157,-0.35787,-0.23408,0.33807,0.2229
0.22692,0.88513,-0.40627,0.00437,0.62791,0.15832
0.25147,0.86167,-0.44079,0.42041,0.50694,0.13342
0.27851,0.84318,-0.45987,0.24977,0.24238,0.30911
0.30181,0.83096,-0.46735,-0.13693,0.29326,-0.00346
0.31582,0.83015,-0.45947,-0.10356,0.08227,-0.05465
0.32209,0.83904,-0.43849,0.03737,-0.23676,-0.01282
0.32493,0.85413,-0.40606,0.11945,-0.51105,0.01627
0.32022,0.87577,-0.36122,0.08319,-0.59843,-0.11015
0.30362,0.90177,-0.3076,0.01374,-0.71587,-0.14757
0.27546,0.92835,-0.24958,-0.27834,-0.75351,0.05435
0.2365,0.9516,-0.19628,-0.3653,-0.33052,0.07112
0.19558,0.96792,-0.15774,-0.12029,0.15742,-0.02965
0.1682,0.97654,-0.13446,0.27319,0.34667,-0.16974
0.16407,0.97951,-0.11678,0.61969,-0.08811,-0.01479
0.17913,0.97965,-0.09058,0.40714,-0.10136,-0.15167
0.19321,0.97969,-0.0536,-0.31062,0.41112,-0.01367
0.18698,0.98162,-0.03825,-0.6714,0.86251,0.03004
0.18316,0.98199,-0.04634,0.67346,0.08654,0.20419
0.18121,0.98295,-0.03103,0.53034,1.05204,-0.33442
0.18136,0.98328,-0.01642,0.75034,1.55696,-0.22668
0.19425,0.9806,-0.02612,0.46368,-0.09474,0.17371
0.20241,0.97838,-0.04236,0.21367,0.04634,0.05077
0.19966,0.97829,-0.05557,-0.23847,0.09413,0.35971
0.188,0.98044,-0.05831,-0.33262,-0.07759,0.47086
0.17042,0.98442,-0.04315,-0.34767,-0.1299,0.20698
0.15203,0.98809,-0.02368,0.08317,0.07452,0.03129
0.13901,0.99028,-0.00312,0.37174,0.02493,0.07362
0.13287,0.99102,0.01473,0.14473,-0.25483,-0.27029
0.1302,0.9912,0.02401,0.07334,-0.26349,-0.34848
0.12758,0.99153,0.02426,0.07399,-0.27118,-0.27168
0.12354,0.99224,0.01426,0.27908,-0.45923,-0.16384
0.11772,0.99304,-0.00196,0.2849,-0.46004,-0.14762
0.11215,0.99348,-0.0203,0.40065,-0.37803,-0.24755
0.11219,0.99278,-0.04245,0.29181,-0.22479,-0.33488
0.11752,0.99045,-0.07207,0.21849,-0.27759,-0.30177
0.1251,0.98586,-0.11145,0.11554,-0.47692,0.04344
0.13349,0.97797,-0.1605,0.03403,-0.16493,-0.12352
0.14502,0.96416,-0.22219,-0.10296,0.35178,-0.04575
0.16213,0.9437,-0.28836,-0.16483,0.63347,0.0542
0.18509,0.91932,-0.34726,-0.17412,1.03918,0.32271
0.21682,0.89365,-0.3929,-0.14523,0.31324,0.13569
0.24609,0.87059,-0.42603,-0.05508,0.07579,-0.02181
0.27254,0.85283,-0.44542,0.20145,0.15826,0.01874
0.29359,0.8408,-0.45483,0.09832,0.34313,-0.00776
0.30903,0.8366,-0.45233,-0.02755,0.18803,0.00745
0.32104,0.83988,-0.43765,-0.00978,-0.07831,0.04736
0.33158,0.84738,-0.41473,-0.06203,-0.38425,0.15214
0.34099,0.85829,-0.38348,-0.0617,-0.52072,0.13792
0.34356,0.87523,-0.3405,-0.05672,-0.62726,0.04271
0.33163,0.89754,-0.29058,-0.06846,-0.75116,0.02087
0.30748,0.92078,-0.24006,-0.1683,-0.71257,-0.01923
0.27416,0.94212,-0.193,-0.22523,-0.26023,-0.11083
0.23675,0.95925,-0.15425,-0.09125,0.11665,-0.26746
0.20313,0.97051,-0.12979,0.03877,0.24021,-0.40463
0.18387,0.97534,-0.12203,0.35125,0.03413,-0.08886
0.18462,0.97604,-0.11515,0.22116,-0.45427,0.31743
0.19582,0.97608,-0.09441,-0.12346,-0.00016,-0.20136
0.19519,0.97883,-0.06159,-0.70369,0.52622,-0.09254
0.18401,0.98193,-0.04412,0.294,0.37277,0.43217
0.17149,0.98419,-0.04418,0.76136,0.50268,0.32949
0.17638,0.98371,-0.03471,1.10327,0.51419,-0.09017
0.18486,0.98251,-0.02228,0.28018,1.08562,-0.04256
0.1881,0.982,-0.01736,0.36719,0.65143,0.02578
0.19312,0.98099,-0.0189,0.27974,0.32197,-0.00866
0.19102,0.98131,-0.02313,-0.15064,0.13401,0.11368
0.18152,0.98301,-0.02707,-0.12608,0.00984,0.25356
0.16646,0.98584,-0.02042,-0.18344,-0.10328,0.25474
0.14623,0.98924,-0.00446,-0.06338,-0.10461,0.10394
0.12559,0.99198,0.01443,0.27317,-0.11678,0.12192
0.11031,0.99326,0.03543,0.34238,-0.26936,0.03602
0.1006,0.9934,0.05499,0.22246,-0.24484,-0.09481
0.09304,0.99344,0.06652,0.17904,-0.26294,-0.15182
0.08774,0.99402,0.06502,0.16348,-0.34937,-0.25074
0.08559,0.99494,0.05254,0.18378,-0.34208,-0.31256
0.08491,0.99587,0.03208,0.21059,-0.36211,-0.32094
0.08657,0.99623,0.00499,0.42248,-0.25235,-0.32892
0.09317,0.9952,-0.03006,0.41588,-0.25131,-0.29386
0.10314,0.99218,-0.07022,0.27125,-0.36726,-0.20073
0.11544,0.98669,-0.11449,0.0913,-0.37535,-0.17145
0.13057,0.97657,-0.17108,0.05414,-0.29538,-0.17367
0.14574,0.95988,-0.23955,-0.05657,0.25122,0.05286
0.16259,0.9367,-0.3101,-0.12702,0.61294,0.12721
0.18268,0.91017,-0.37176,-0.05173,0.78337,0.28856
0.20847,0.88362,-0.41924,0.14313,0.18857,0.24065
0.2319,0.8602,-0.45419,0.09568,0.1348,0.10864
0.25384,0.84391,-0.47263,0.00879,0.33622,-0.0055
0.27814,0.83513,-0.47456,0.07257,0.53022,-0.03887
0.30777,0.83335,-0.45913,0.06018,0.05738,0.02848
0.34124,0.83626,-0.4292,0.0802,-0.34897,0.0748
0.36597,0.84634,-0.387,0.24016,-0.57664,0.11417
0.37016,0.86435,-0.34041,0.21794,-0.67682,0.10938
0.35315,0.88661,-0.29868,-0.05381,-0.65782,0.13374
0.32243,0.91023,-0.25983,-0.09879,-0.66073,0.08568
0.28463,0.93368,-0.21732,-0.27777,-0.52708,-0.05074
0.24384,0.95506,-0.1685,-0.3028,-0.1313,-0.2661
0.20115,0.97171,-0.12373,-0.22979,0.28247,-0.43561
0.16193,0.98194,-0.09785,-0.04388,0.35914,-0.42598
0.14705,0.9845,-0.09561,0.68571,-0.49283,0.85301
0.16082,0.98366,-0.08093,0.25944,-0.56914,0.40048
0.16865,0.98403,-0.05696,-0.60055,0.14284,-0.63076
0.1562,0.98626,-0.0537,-0.10792,0.57752,0.16894
0.14224,0.98791,-0.06165,0.92779,0.71955,0.4004
0.13488,0.9888,-0.0638,0.59863,0.31669,0.03844
0.12978,0.98974,-0.05973,0.16189,0.78312,0.08364
0.12626,0.99052,-0.05408,0.1849,0.70916,0.13155
0.12304,0.99127,-0.04738,0.22373,0.60482,0.20483
0.11798,0.99213,-0.04195,0.12873,0.30429,-0.03341
0.10967,0.99316,-0.0401,0.02551,0.1961,-0.10361
0.0955,0.99464,-0.03946,-0.05723,0.03046,0.14586
0.07395,0.99669,-0.03376,-0.08463,-0.16688,0.15059
0.04676,0.99864,-0.023,0.12347,-0.31857,0.06957
0.01998,0.99976,-0.00895,0.37768,-0.39409,-0.01108
-0.00405,0.99996,0.0077,0.44802,-0.39794,-0.06316
-0.02669,0.99931,0.02559,0.42898,-0.35063,-0.11056
-0.04965,0.99787,0.04224,0.3947,-0.2755,-0.16677
-0.07265,0.99581,0.05545,0.389,-0.28358,-0.21944
-0.09448,0.99369,0.06033,0.4211,-0.34008,-0.29695
-0.11336,0.99208,0.05403,0.49395,-0.17964,-0.28422
-0.12841,0.991,0.03771,0.54986,-0.10222,-0.2033
-0.13877,0.9902,0.01585,0.53689,-0.1086,-0.26614
-0.14627,0.9892,-0.00901,0.40346,-0.12687,-0.27004
-0.1543,0.9872,-0.04039,0.42566,-0.16784,-0.26121
-0.16223,0.9833,-0.08247,0.4198,-0.04963,0.13621
-0.15909,0.97802,-0.1348,0.06259,0.34716,-0.09006
-0.13547,0.97344,-0.18455,-0.11105,0.45187,0.00443
-0.09202,0.96812,-0.23298,0.00149,0.78214,0.34631
-0.0403,0.95945,-0.27897,-0.04843,1.12642,0.12908
0.01188,0.94898,-0.3151,0.03981,1.04583,-0.20628
0.05878,0.94002,-0.336,0.10541,1.05927,-0.20555
0.09889,0.93192,-0.34892,0.42749,0.53383,0.03198
0.1421,0.92382,-0.35548,0.43278,0.09699,0.15538
0.19053,0.91546,-0.35443,0.36066,0.07479,0.20312
0.23247,0.90846,-0.34734,-0.05859,0.15405,0.3247
0.26445,0.9043,-0.33512,-0.18758,0.02656,0.22534
0.28796,0.90462,-0.31424,-0.16638,-0.14038,0.14983
0.30496,0.9084,-0.28601,-0.21649,-0.39351,0.07881
0.31248,0.91557,-0.25314,-0.31133,-0.6247,0.06311
0.30249,0.92737,-0.22017,-0.33895,-0.66517,0.03607
0.27894,0.9412,-0.19062,-0.23864,-0.58614,0.02268
0.24918,0.95395,-0.16701,-0.11831,-0.32798,-0.07244
0.21748,0.96341,-0.15667,-0.00219,-0.08281,-0.50357
0.19068,0.96611,-0.17395,0.27207,0.19638,-0.54131
0.17741,0.96123,-0.21107,0.48186,-0.06965,0.12373
0.18393,0.9515,-0.24659,0.24758,-0.36341,0.16833
0.20789,0.94055,-0.26858,-0.23007,0.02923,0.22662
0.22941,0.93798,-0.25992,-0.70115,0.57056,0.4548
0.22731,0.94491,-0.2355,-0.24904,0.74562,0.849
0.2159,0.9483,-0.23261,0.45099,0.22362,0.40667
0.2117,0.95017,-0.22883,0.77388,0.352,0.74036
0.20084,0.95488,-0.21879,0.2145,0.23259,0.43709
0.18512,0.9609,-0.20593,-0.02919,0.45416,0.3553
0.16694,0.96856,-0.18447,-0.25103,0.38092,0.46614
0.15024,0.97649,-0.1546,-0.3167,0.27161,0.40214
0.13374,0.98345,-0.1222,-0.15196,0.20457,0.22401
0.1185,0.98889,-0.0897,-0.0825,0.03812,0.08287
0.10392,0.99279,-0.05971,-0.07802,-0.03887,0.0271
0.08719,0.99557,-0.035,-0.02233,-0.18163,-0.05979
0.06775,0.99758,-0.0157,0.18051,-0.35903,-0.04553
0.04823,0.99883,-0.00177,0.22515,-0.42257,-0.04564
0.03136,0.99946,0.00957,0.24064,-0.45806,-0.0409
0.01671,0.99964,0.02114,0.23149,-0.24219,-0.00022
0.00337,0.99943,0.03352,0.21344,-0.0659,0.06435
-0.01011,0.99888,0.04625,0.15249,-0.1355,0.06795
-0.02469,0.99791,0.05967,0.17266,-0.16039,0.05292
-0.0424,0.99628,0.07497,0.21644,-0.11307,-0.02352
-0.06081,0.99384,0.09261,0.23618,0.10809,-0.17033
-0.07612,0.99113,0.10892,0.23247,0.1914,-0.23663
-0.08525,0.98931,0.11826,0.18254,0.30086,-0.36567
-0.08979,0.9888,0.11923,0.23827,0.34619,-0.35594
-0.09171,0.9898,0.10897,0.39023,0.43166,-0.21124
-0.09017,0.99246,0.08296,0.49355,0.3844,0.10118
-0.0825,0.99571,0.04191,0.30945,0.24907,0.27178
-0.06296,0.99797,-0.00964,0.1652,0.17153,0.22259
-0.03361,0.99743,-0.06332,-0.15105,0.06936,-0.11676
-0.00067,0.99339,-0.11478,-0.06518,0.29696,0.03891
0.0334,0.9857,-0.16516,0.02529,0.45027,0.07663
0.06834,0.97513,-0.21083,0.08294,0.45955,0.07289
0.10062,0.9643,-0.24493,0.30446,-0.02072,0.2301
0.12912,0.95504,-0.26689,0.27596,-0.01145,0.25206
0.15705,0.94645,-0.28207,0.1713,-0.04885,0.26524
0.18974,0.93651,-0.29486,0.03587,0.02574,0.29707
0.22658,0.92553,-0.30339,0.05211,0.06008,0.31566
0.26219,0.91528,-0.3058,-0.08222,0.06871,0.28088
0.29227,0.90661,-0.30436,-0.20313,-0.00988,0.27622
0.31507,0.89918,-0.30366,-0.3162,-0.06663,0.23417
0.33125,0.89244,-0.3063,-0.29701,-0.0807,0.19085
0.34397,0.88646,-0.30964,-0.3085,-0.08059,0.16299
0.35598,0.88156,-0.31004,-0.27653,-0.03165,0.16285
0.36904,0.87738,-0.30662,-0.26615,-0.01306,0.16356
0.38418,0.87348,-0.29905,-0.20836,-0.01611,0.13315
0.39884,0.87098,-0.2869,-0.15716,-0.02101,0.09125
0.40944,0.87052,-0.27304,-0.1273,-0.02038,0.07414
0.41519,0.87149,-0.26098,-0.07683,-0.02451,0.03131
0.41604,0.87416,-0.25049,-0.03028,-0.04334,-0.05477
0.41217,0.87929,-0.23867,0.05767,-0.06767,-0.0308
0.40474,0.88594,-0.22649,0.11231,-0.10336,0.02085
0.39937,0.89119,-0.21512,0.17202,-0.16857,0.0142
0.40194,0.89265,-0.20399,0.21082,-0.20155,0.01838
0.41057,0.89121,-0.19279,0.16688,-0.23092,0.16535
0.42006,0.88912,-0.18172,0.043,-0.14968,0.24548
0.42612,0.88906,-0.16731,-0.01021,0.17361,0.11386
0.42458,0.89339,-0.14694,0.14911,1.05115,0.0255
0.41921,0.89771,-0.13559,0.19743,0.93805,-0.08539
0.41567,0.89745,-0.14764,-0.56188,0.20756,-0.15881
0.40577,0.90075,-0.15488,-0.76707,-0.0094,-0.13178
0.38644,0.91119,-0.14283,-0.48878,-0.28258,0.55413
0.36118,0.92464,-0.12079,-0.31217,0.10733,0.55748
0.33894,0.93462,-0.10769,-0.00259,0.28806,0.03034
0.32198,0.94111,-0.10308,-0.00897,0.16521,-0.0078
0.30879,0.94618,-0.09692,-0.19649,0.02773,0.19706
0.29808,0.95069,-0.08562,-0.27996,0.04815,0.24452
0.2871,0.95526,-0.07104,-0.18139,-0.0014,0.18215
0.27583,0.95958,-0.05587,0.01282,-0.07437,0.06929
0.26523,0.96328,-0.04166,0.1615,-0.10586,0.01949
0.25532,0.96639,-0.02998,0.16331,-0.11219,1e-05
0.24739,0.96868,-0.02131,-0.0054,-0.09325,0.00384
0.24183,0.97018,-0.01652,0.00205,-0.13656,-0.00648
0.23919,0.97084,-0.01626,0.0391,-0.1854,-0.06513
0.23997,0.97057,-0.02021,0.08896,-0.23316,-0.18094
0.24387,0.96941,-0.02769,0.22135,-0.22342,-0.15058
0.25108,0.96718,-0.03907,0.14844,-0.18754,-0.24067
0.25921,0.9642,-0.05588,-0.09198,-0.09512,-0.21365
0.26043,0.9624,-0.07725,-0.21896,-0.24444,0.09367
0.25465,0.96166,-0.10177,-0.09681,-0.37656,0.24232
0.24852,0.96087,-0.1223,0.02358,-0.31166,0.0086
0.24621,0.95898,-0.14046,0.08881,-0.17671,-0.03955
0.24897,0.95514,-0.16037,0.03541,-0.19994,0.00358
0.25554,0.94852,-0.1871,0.03052,-0.29851,0.00136
0.26682,0.93681,-0.22627,-0.14472,-0.11141,-0.1382
0.2833,0.91829,-0.27656,-0.23801,0.48175,-0.1926
0.30497,0.89335,-0.33001,-0.1381,0.76003,-0.03936
0.33265,0.86365,-0.37874,-0.21766,0.86085,0.29859
0.36159,0.83383,-0.41711,-0.16844,0.58809,0.176
0.38283,0.81022,-0.44382,-0.01938,0.36029,0.17069
0.39811,0.79347,-0.46034,-0.02992,0.31077,-0.01018
0.41249,0.78114,-0.46869,-0.1999,0.3158,-0.03848
0.42744,0.77515,-0.46522,-0.24173,0.17536,0.10731
0.44478,0.77516,-0.44866,-0.19429,-0.04244,0.18912
0.46063,0.7802,-0.42321,-0.16934,-0.25399,0.23392
0.4711,0.79035,-0.39167,-0.24075,-0.34943,0.20526
0.47472,0.80661,-0.35217,-0.17383,-0.42108,0.11111
0.46978,0.82691,-0.30907,-0.14618,-0.55224,0.00395
0.45389,0.84911,-0.27017,-0.21091,-0.61591,-0.05064
0.43007,0.87131,-0.23632,-0.30236,-0.62658,-0.10167
0.40084,0.89328,-0.20339,-0.3782,0.17537,-0.15662
0.36814,0.91257,-0.17803,-0.27074,0.40329,-0.18537
0.33753,0.92612,-0.16846,-0.14534,0.53296,-0.22533
0.32625,0.93061,-0.16587,0.37291,0.01146,0.05894
0.33484,0.93099,-0.14538,0.15527,-0.35978,0.16333
0.35111,0.92965,-0.11162,0.02963,-0.39522,0.13548
0.35115,0.93311,-0.0774,-0.76908,0.47509,-0.10651
0.34093,0.93778,-0.06587,0.40059,0.25261,0.42535
0.33473,0.93948,-0.07295,0.99065,0.14052,0.29678
0.34514,0.93599,-0.06931,0.46039,0.27811,-0.04982
0.35483,0.93248,-0.06757,0.28578,1.34213,-0.08151
0.36791,0.92681,-0.07524,0.2381,0.07193,0.23891
0.38112,0.9205,-0.08622,-0.1718,0.29459,0.01722
0.38199,0.91893,-0.09822,-0.32823,0.20094,0.14648
0.37266,0.92175,-0.10721,-0.39783,-0.06648,0.20847
0.35722,0.92825,-0.10364,-0.25489,0.03275,0.12541
0.34049,0.93553,-0.094,-0.02566,0.10786,0.13203
0.33013,0.94003,-0.08577,0.37654,-0.19526,-0.0007
0.32558,0.94213,-0.07992,0.08636,-0.25187,-0.22692
0.32136,0.94367,-0.07875,-0.01768,-0.23719,-0.18254
0.31385,0.94627,-0.07783,-0.06292,-0.27403,0.08917
0.3043,0.94981,-0.07245,0.0378,-0.28511,0.00572
0.29461,0.95322,-0.06768,0.14196,-0.2397,-0.18232
0.2867,0.9555,-0.0694,0.1778,-0.28024,-0.25378
0.28068,0.95645,-0.08015,0.11045,-0.29028,-0.24678
0.27624,0.95615,-0.09722,-0.04929,-0.24319,-0.0028
0.27422,0.9543,-0.11881,-0.14933,-0.27864,-0.13597
0.27344,0.95018,-0.14961,-0.18128,-0.16251,-0.02506
0.27472,0.94244,-0.19063,-0.19438,-0.03513,0.04884
0.28031,0.92838,-0.24401,-0.28993,0.57384,-0.09063
0.29057,0.90715,-0.30439,-0.29746,0.83046,-0.00966
0.31152,0.87893,-0.36116,-0.35497,0.94488,0.15994
0.34138,0.8467,-0.40811,-0.30608,0.50713,0.33032
0.367,0.81779,-0.44331,0.00015,0.29267,0.07778
0.39054,0.79514,-0.46393,0.27757,0.54377,-0.21816
0.41428,0.77756,-0.47305,0.22656,0.6777,-0.20051
0.44211,0.76209,-0.47302,0.10136,0.33761,-0.05241
0.4674,0.75213,-0.46458,-0.14558,0.0114,0.07095
0.4864,0.74907,-0.44979,-0.25396,-0.30551,0.11817
0.4971,0.75379,-0.42975,-0.25217,-0.40725,0.16599
0.49882,0.76576,-0.40595,-0.28879,-0.44107,0.21227
0.49462,0.78257,-0.37807,-0.33423,-0.44044,0.21484
0.48599,0.80399,-0.34267,-0.40644,-0.42325,0.20518
0.47286,0.82921,-0.29801,-0.34299,-0.49275,0.1944
0.45496,0.85582,-0.24613,-0.31823,-0.51959,0.12926
0.42809,0.88252,-0.19467,-0.40412,-0.23597,-0.01456
0.39748,0.90422,-0.1562,-0.39701,0.05794,-0.13771
0.3648,0.92098,-0.13681,-0.36838,0.20877,-0.22879
0.33477,0.93227,-0.13708,-0.18762,0.4488,-0.39553
0.3188,0.93618,-0.14806,0.37686,0.02566,0.13891
0.32202,0.93565,-0.14441,0.52512,-0.34035,0.29351
0.33578,0.93248,-0.13314,0.03376,-0.40146,0.02287
0.34462,0.93109,-0.11962,-0.54876,-0.29679,-0.40493
0.33704,0.93535,-0.10732,-0.37054,0.47291,-0.0011
0.32449,0.94119,-0.09414,-0.02748,0.47682,0.02738
0.32477,0.94204,-0.08411,0.90643,0.28034,0.80825
0.34669,0.93532,-0.07053,0.3723,0.29155,-0.44129
0.36462,0.92809,-0.0755,-0.06795,0.06751,-0.35842
0.36508,0.9271,-0.08488,-0.44421,0.37283,0.10766
0.35132,0.93291,-0.07909,0.1889,1.26549,-0.027
0.33942,0.93833,-0.06578,0.26198,0.59827,0.04636
0.33306,0.94108,-0.05862,0.17404,0.20255,0.094
0.32458,0.94444,-0.05178,0.03347,-0.06402,0.09529
0.316,0.94767,-0.04541,-0.12444,-0.1807,0.15834
0.30797,0.95065,-0.03774,-0.18231,-0.20859,0.14446
0.29938,0.95368,-0.02954,-0.06256,-0.19743,-0.03208
0.29158,0.9563,-0.02164,0.07167,-0.25731,-0.09736
0.28586,0.95816,-0.01427,0.03884,-0.29137,-0.18423
0.28217,0.9593,-0.01085,-0.05358,-0.38221,-0.12686
0.27931,0.96011,-0.01299,-0.00502,-0.43913,-0.09587
0.27651,0.96083,-0.01871,0.09675,-0.4022,-0.15702
0.27267,0.96177,-0.02549,0.20917,-0.27729,-0.23907
0.26906,0.96243,-0.03646,0.23008,-0.18037,-0.32834
0.26816,0.96183,-0.05452,0.17461,-0.18438,-0.27709
0.26954,0.95958,-0.08096,0.07561,-0.33844,-0.03173
0.27301,0.95423,-0.12208,-0.09496,-0.09774,-0.29443
0.27875,0.94276,-0.18303,-0.22185,0.41665,-0.13573
0.28467,0.92424,-0.25444,-0.22725,0.89149,0.08348
0.29596,0.89884,-0.32324,-0.46822,0.74497,0.39993
0.31399,0.86894,-0.38256,-0.47761,0.68404,0.3384
0.33645,0.83926,-0.42712,-0.34611,0.46379,0.21961
0.35714,0.81426,-0.45764,0.20593,0.53616,-0.06967
0.37962,0.79286,-0.47671,0.26171,0.81265,-0.10555
0.40352,0.77265,-0.49009,0.1093,0.68659,-0.02977
0.42895,0.75526,-0.49556,-0.20883,-0.03261,0.06055
0.44957,0.74558,-0.49193,-0.21061,-0.26144,0.13326
0.46342,0.74379,-0.48167,-0.20425,-0.31606,0.14486
0.47053,0.74963,-0.46546,-0.19176,-0.31845,0.26575
0.47198,0.76189,-0.44357,-0.20816,-0.36211,0.22871
0.46793,0.77848,-0.41834,-0.28154,-0.46621,0.11505
0.45886,0.80042,-0.38572,-0.23394,-0.60362,0.05457
0.44389,0.8269,-0.34524,-0.23453,-0.68763,-0.0207
0.42022,0.85489,-0.30428,-0.29828,-0.53821,-0.12512
0.38809,0.88243,-0.26588,-0.17915,-0.0594,-0.03987
0.35536,0.90587,-0.23047,-0.06485,0.22382,0.01069
0.32472,0.92294,-0.20673,-0.0592,0.03336,-0.06516
0.30302,0.93405,-0.189,0.06026,-0.08888,0.01946
0.29904,0.93973,-0.16579,0.1139,-0.32303,0.04292
0.31034,0.94064,-0.13742,-0.15715,0.08089,-0.19194
0.32067,0.93995,-0.1169,-0.5066,0.46102,-0.1754
0.31624,0.943,-0.10361,-0.73853,0.80442,-0.31302
0.31226,0.94419,-0.10486,0.069,0.21118,0.88316
0.31856,0.94135,-0.11126,0.94962,0.62363,0.00229
0.33236,0.93687,-0.10867,0.04886,0.64718,-0.26822
0.33906,0.93347,-0.11692,0.37122,0.51301,0.24457
0.34325,0.93144,-0.12078,0.2682,0.3569,0.08848
0.34525,0.93073,-0.12058,0.05438,0.29071,0.1147
0.33862,0.933,-0.12185,-0.21716,0.06094,0.27194
0.32445,0.93853,-0.11787,-0.22953,0.00895,0.26138
0.30614,0.94618,-0.10495,-0.05684,0.08269,0.05668
0.28843,0.95345,-0.088,0.24735,0.00302,0.02826
0.27827,0.958,-0.06928,0.20107,-0.24847,-0.03071
0.27439,0.96023,-0.05162,-0.01861,-0.34937,-0.13109
0.27106,0.9617,-0.04078,-0.07356,-0.34672,-0.1587
0.26612,0.96317,-0.03836,-0.01368,-0.2749,-0.12125
0.25981,0.9647,-0.04289,0.02745,-0.28293,-0.07771
0.25228,0.96629,-0.05132,0.04627,-0.29371,-0.19571
0.24611,0.96705,-0.06514,0.11218,-0.25709,-0.21261
0.24295,0.96612,-0.08709,0.16621,-0.25613,-0.13809
0.24116,0.96387,-0.11307,0.18024,-0.3081,0.08355
0.24119,0.95999,-0.14224,-0.05178,-0.41106,-0.08629
0.2426,0.9522,-0.18563,-0.18837,-0.10952,-0.2105
0.24581,0.93863,-0.24195,-0.2639,0.17733,0.15395
0.25323,0.91939,-0.301,-0.28382,0.50725,0.04334
0.26554,0.89517,-0.35799,-0.28689,0.9442,0.15865
0.28839,0.86665,-0.40713,-0.19818,0.9247,0.28393
0.31914,0.8362,-0.44601,-0.10521,0.42722,0.23857
0.344,0.81051,-0.47405,0.06675,0.42093,0.09842
0.36915,0.79001,-0.48951,0.1565,0.50804,-0.05337
0.39337,0.77455,-0.49531,-0.03674,0.30027,-0.01505
0.41673,0.76427,-0.49216,-0.05971,0.15183,0.07108
0.43676,0.76032,-0.48079,-0.07529,0.04376,0.12419
0.45032,0.76272,-0.46418,-0.12445,-0.25511,0.24988
0.45607,0.77143,-0.44374,-0.20689,-0.40541,0.24086
0.45564,0.78649,-0.41692,-0.27163,-0.45277,0.22003
0.4499,0.80755,-0.38137,-0.35452,-0.40431,0.16216
0.43644,0.83356,-0.33867,-0.2667,-0.40477,0.08025
0.41478,0.86166,-0.29239,-0.20917,-0.40942,0.00914
0.38497,0.88944,-0.24637,-0.23682,-0.20575,-0.11508
0.35125,0.91315,-0.20683,-0.14185,0.06442,-0.13127
0.31929,0.9302,-0.18103,-0.1873,0.13512,-0.16543
0.29389,0.9407,-0.16941,-0.16713,0.1826,-0.22453
0.28377,0.94437,-0.16621,0.10238,0.00527,0.11564
0.28968,0.94457,-0.15449,0.0455,-0.29485,0.09605
0.30457,0.94224,-0.13931,-0.10255,-0.19156,-0.1445
0.30689,0.9433,-0.12648,-0.83991,0.32198,-0.50946
0.28987,0.95067,-0.11045,-0.12843,0.51088,0.50804
0.27348,0.95578,-0.10811,0.30852,0.43688,0.748
0.27134,0.95687,-0.1038,1.08407,0.33896,0.28082
0.27765,0.95651,-0.08938,0.23589,0.25842,-0.04818
0.27776,0.9572,-0.08129,0.03667,0.82107,0.26082
0.27006,0.96032,-0.06953,0.10323,0.8855,0.22973
0.26227,0.9634,-0.05543,0.17488,0.46524,0.06225
0.25453,0.96603,-0.04462,0.10281,0.38021,0.06584
0.24444,0.96894,-0.03745,-0.1002,0.15399,0.13979
0.2297,0.97279,-0.03004,-0.14056,-0.03825,0.17332
0.21121,0.9772,-0.02156,-0.0573,-0.22581,0.116
0.19246,0.98122,-0.01277,0.01575,-0.37236,0.09584
0.17598,0.98439,-0.00296,0.02933,-0.42155,0.06181
0.16162,0.98681,0.00883,0.03677,-0.36327,0.03226
0.14841,0.98872,0.02018,0.072,-0.36008,-0.01796
0.13715,0.99013,0.02879,0.06306,-0.4693,-0.13318
0.12877,0.99113,0.03272,0.07805,-0.52516,-0.21621
0.12357,0.99188,0.02999,0.18165,-0.40266,-0.25675
0.11998,0.99252,0.02241,0.28423,-0.16029,-0.13441
0.11616,0.99315,0.01245,0.28569,-0.03592,0.09618
0.11207,0.99369,-0.00345,0.18444,-0.37772,-0.02013
0.10875,0.99369,-0.0271,0.06523,-0.51026,-0.16437
0.10511,0.99296,-0.0545,0.05758,-0.25517,-0.2712
0.10016,0.99163,-0.08143,0.11389,-0.12932,-0.15041
0.09774,0.98902,-0.11079,0.31524,0.08065,-0.02435
0.099,0.984,-0.14811,0.10244,0.21589,-0.20082
0.10595,0.9759,-0.19072,-0.09883,0.72756,0.01946
0.12202,0.96413,-0.23571,-0.09309,0.86233,0.33547
0.1488,0.94689,-0.28504,-0.0043,0.91897,0.0873
0.18002,0.92691,-0.32926,0.05447,0.97258,0.05788
0.20638,0.91037,-0.35865,0.06602,0.83183,0.07693
0.23221,0.89752,-0.37488,0.14819,0.3931,-0.02719
0.25657,0.88755,-0.38264,0.21084,0.15352,0.0292
0.28051,0.87966,-0.38405,0.1135,0.01742,0.12681
0.30205,0.87432,-0.3799,-0.05127,-0.14673,0.18978
0.31469,0.87341,-0.37164,-0.23974,-0.3235,0.23822
0.31883,0.87755,-0.35811,-0.32447,-0.43193,0.28234
0.31727,0.88533,-0.33989,-0.35671,-0.4821,0.24099
0.31009,0.89648,-0.31647,-0.37173,-0.4071,0.09267
0.29691,0.90986,-0.28981,-0.39406,-0.30436,-0.04407
0.27858,0.92255,-0.26701,-0.30152,-0.38647,-0.14649
0.25574,0.93353,-0.25121,-0.16157,-0.44755,-0.22794
0.23142,0.94255,-0.2409,-0.04811,-0.2052,-0.31038
0.21,0.94718,-0.24235,0.04113,-0.0509,-0.25759
0.20088,0.94312,-0.26489,0.37155,0.27374,-0.10686
0.2092,0.93193,-0.2962,0.26373,-0.19751,-0.18505
0.23389,0.91888,-0.31772,0.13231,-0.41498,-0.28807
0.25703,0.91073,-0.32325,-0.44673,-0.57621,0.27439
0.26726,0.91037,-0.3159,-0.62287,0.57466,-0.57936
0.2604,0.91804,-0.29897,-0.24219,0.63178,0.99123
0.25424,0.92072,-0.29602,0.30864,0.99759,-0.21039
0.25099,0.92862,-0.27322,0.272,1.62754,0.11343
0.24717,0.93371,-0.25899,0.57644,1.03051,0.51203
0.24496,0.93111,-0.27023,0.15733,-0.05669,0.40243
0.24172,0.92931,-0.27919,-0.31854,0.38458,0.31409
0.22765,0.93319,-0.27806,-0.36552,0.50357,0.61914
0.20717,0.94418,-0.25613,-0.32222,0.4858,0.31768
0.18747,0.95663,-0.22295,-0.17683,0.41765,0.28061
0.17233,0.96659,-0.18973,-0.03503,0.35264,0.22142
0.15906,0.97474,-0.15678,0.1309,-0.0651,0.1036
0.14567,0.98111,-0.12726,0.04341,-0.22034,0.03191
0.13145,0.98583,-0.10421,0.05312,-0.31627,0.08805
0.11479,0.98955,-0.08722,0.06728,-0.5099,0.10002
0.09844,0.99238,-0.07404,0.13039,-0.47302,0.04707
0.08261,0.99455,-0.06346,0.28303,-0.25057,-0.04898
0.06646,0.99631,-0.05419,0.35137,-0.12212,-0.08486
0.05126,0.9977,-0.04431,0.31717,-0.15796,-0.09876
0.03706,0.9987,-0.03474,0.29509,-0.24213,-0.10454
0.02603,0.99922,-0.02958,0.33245,-0.05012,-0.23354
0.01776,0.99937,-0.03053,0.41582,0.02294,-0.296
0.01376,0.99896,-0.04327,0.36356,0.11993,-0.19484
0.01594,0.99716,-0.0735,0.31554,0.17085,-0.0483
0.02338,0.9921,-0.12325,0.24919,0.24707,0.19544
0.03985,0.98085,-0.1906,-0.21581,0.92886,-0.04079
0.07136,0.96271,-0.26093,-0.29848,1.03146,0.14616
0.10894,0.93815,-0.32865,-0.35015,0.92826,0.36977
0.1475,0.9138,-0.37842,0.23786,0.60411,0.47497
0.18325,0.89229,-0.41259,0.38874,0.41829,0.39373
0.21157,0.87295,-0.43953,0.5088,0.18918,0.2751
0.23721,0.85557,-0.46014,0.50107,-0.19454,0.30301
0.26258,0.83934,-0.47598,0.17687,0.04077,0.27325
0.28507,0.82447,-0.48886,-0.06739,0.1582,0.24936
0.30266,0.81264,-0.49801,-0.10326,-0.01622,0.45777
0.31275,0.80559,-0.5032,-0.08115,-0.08899,0.46858
0.31318,0.80384,-0.50571,-0.09137,-0.16798,0.50625
0.30429,0.80623,-0.50734,-0.18192,-0.23056,0.55775
0.29369,0.81117,-0.5057,-0.3165,-0.17426,0.53212
0.28984,0.8175,-0.49767,-0.44187,-0.03719,0.36175
0.29189,0.82548,-0.4831,-0.3899,0.13059,0.20499
0.29361,0.83479,-0.46575,-0.23126,0.10236,0.2085
0.29337,0.84478,-0.44752,-0.05767,-0.02078,0.20009
0.29198,0.85499,-0.42864,0.06387,-0.08456,0.19769
0.28945,0.86451,-0.4109,0.08294,-0.03498,0.18441
0.28346,0.87375,-0.39524,0.08204,-0.01074,0.17216
0.27289,0.88427,-0.37892,0.0856,-0.01745,0.11698
0.25994,0.89628,-0.35931,0.20363,-0.00746,0.0673
0.2497,0.90792,-0.33662,0.40247,0.09453,0.06215
0.24648,0.91594,-0.31668,0.47133,0.20997,-0.04417
0.25147,0.91837,-0.30552,0.45556,0.13332,-0.13573
0.26272,0.91684,-0.30062,0.40517,-0.07794,-0.05601
0.2716,0.91471,-0.29922,0.3157,-0.24606,0.17292
0.27103,0.91559,-0.29705,0.20923,-0.30421,0.33109
0.26368,0.92119,-0.28613,0.12743,-0.22269,0.36467
0.25275,0.93036,-0.26558,0.04143,-0.02454,0.31697
0.23653,0.94175,-0.23906,0.011,0.20766,0.26922
0.21425,0.95344,-0.21225,0.01732,1.15007,-0.0453
0.1901,0.96324,-0.1898,0.04854,0.44126,-0.15524
0.17992,0.96809,-0.17443,-0.17531,-0.17852,0.13851
0.17097,0.97109,-0.16654,-0.3234,-0.19918,0.27893
0.1525,0.97415,-0.16663,-0.26422,-0.18874,0.24773
0.12295,0.97716,-0.1733,-0.09828,-0.10906,0.26875
0.09162,0.97941,-0.17989,0.12005,0.07296,0.35434
0.06659,0.98193,-0.1771,0.25159,-0.02066,0.45703
0.05188,0.98509,-0.16398,0.23301,-0.13107,0.37657
0.04371,0.98859,-0.14413,0.19827,-0.16487,0.29526
0.03851,0.99157,-0.12364,0.20421,0.02947,0.15953
0.03338,0.9938,-0.10604,0.20934,0.02724,0.14193
0.02903,0.99537,-0.09156,0.15391,0.01592,0.11017
0.02467,0.99664,-0.07805,0.08779,-0.0074,0.14003
0.01921,0.99763,-0.06594,0.02438,-0.00183,0.14573
0.01104,0.99839,-0.05553,-0.01499,-0.00874,0.12632
-4e-05,0.99891,-0.04659,-0.01929,-0.02076,0.12804
-0.01419,0.99921,-0.03686,0.02451,-0.01116,0.16281
-0.03081,0.99923,-0.02428,0.12589,-0.00298,0.20856
-0.04836,0.99878,-0.00938,0.22172,-0.0126,0.20892
-0.06459,0.99789,0.00605,0.25791,-0.05099,0.15801
-0.07902,0.99666,0.02044,0.22511,-0.03192,0.0886
-0.09262,0.99513,0.03372,0.20585,0.00893,0.0069
-0.10597,0.99328,0.04638,0.23588,0.01748,-0.07716
-0.11923,0.99125,0.05659,0.30032,-0.00222,-0.05844
-0.1316,0.98944,0.06063,0.35665,-0.00778,0.03491
-0.14203,0.98813,0.05844,0.27719,0.00371,-0.01044
-0.14136,0.9886,0.05169,0.21005,0.04733,-0.02561
-0.13539,0.98976,0.04505,0.25059,0.13515,0.01191
-0.12559,0.9914,0.03653,0.35583,0.20916,0.04422
-0.12585,0.99183,0.02071,0.43151,0.14961,0.17334
-0.11979,0.99278,-0.00438,0.30359,0.12785,0.10205
-0.10076,0.99422,-0.03687,0.008,0.06922,-0.00441
-0.06745,0.99506,-0.07273,-0.05775,0.18755,-0.04752
-0.0283,0.99283,-0.11606,-0.07035,0.18482,0.05336
0.01274,0.98657,-0.16284,-0.08699,0.23301,0.13385
0.05429,0.97666,-0.20781,-0.07167,0.60183,0.1292
0.09284,0.96448,-0.2473,-0.02902,0.57208,0.13561
0.12408,0.9531,-0.27605,0.11493,0.23763,0.13314
0.15148,0.9432,-0.29568,0.03103,-0.02198,0.11478
0.18003,0.93288,-0.31197,-0.03336,-0.0067,0.09535
0.21058,0.92031,-0.32966,-0.04099,0.006,0.10129
0.24171,0.90711,-0.34456,0.04813,0.05493,0.27976
0.27143,0.8953,-0.3532,-0.09699,0.03461,0.31325
0.29316,0.88584,-0.35963,-0.19431,-0.01237,0.29808
0.306,0.87837,-0.36719,-0.37632,-0.13749,0.21985
0.31379,0.87393,-0.37119,-0.35816,-0.18045,0.19277
0.31772,0.87316,-0.36965,-0.34521,-0.19312,0.17151
0.31813,0.87568,-0.36328,-0.23083,-0.2468,0.18622
0.31541,0.8815,-0.35139,-0.15747,-0.24697,0.21182
0.31041,0.89,-0.33398,-0.15617,-0.26274,0.19366
0.30253,0.90041,-0.31261,-0.14563,-0.22883,0.13722
0.29001,0.91167,-0.29113,-0.13429,-0.16223,0.1335
0.27285,0.9225,-0.27302,-0.08188,-0.0332,0.05378
0.25392,0.9317,-0.25972,0.07804,0.11899,-0.12645
0.2383,0.93831,-0.25056,0.28288,0.15294,-0.15594
0.23153,0.94146,-0.24503,0.49773,-0.0154,0.05482
0.23709,0.94174,-0.23854,0.28403,-0.28001,0.06302
0.25366,0.9399,-0.22858,0.10041,-0.35068,-0.0688
0.26971,0.93782,-0.21848,0.0089,-0.39663,-0.0702
0.27694,0.9368,-0.21378,-0.04291,-0.43407,0.07967
0.27487,0.93859,-0.20855,-0.1196,-0.47972,0.20857
0.26603,0.94372,-0.1965,-0.10043,-0.44064,0.1804
0.25286,0.95084,-0.17877,0.02611,-0.17255,0.06011
0.23869,0.95857,-0.15541,0.05519,-0.15917,0.01606
0.22708,0.96568,-0.12604,-0.08084,-0.23128,-0.03644
0.22009,0.97084,-0.09503,-0.24954,-0.05474,-0.16131
0.21322,0.97457,-0.06889,-0.22259,0.51568,-0.18233
0.20649,0.97698,-0.05345,0.01505,0.57208,0.13043
0.19905,0.97908,-0.04202,0.05269,0.37547,0.29061
0.19643,0.9798,-0.03725,0.10194,0.27885,0.18119
0.20047,0.97871,-0.04386,0.42212,-0.0888,0.03109
0.21111,0.97667,-0.03937,0.09303,0.37682,-0.23462
0.22185,0.97445,-0.03495,0.62671,0.80849,0.05104
0.23305,0.97165,-0.03966,0.36629,0.29208,-0.07498
0.23872,0.96963,-0.05312,0.07764,0.26706,-0.06125
0.23532,0.9694,-0.06989,-0.20439,-0.04012,0.2327
0.22664,0.97029,-0.08465,-0.22203,-0.1338,0.33646
0.21503,0.97205,-0.09422,-0.22368,-0.24422,0.37356
0.20243,0.97443,-0.09745,0.23771,-0.21486,-0.10652
0.19394,0.97613,-0.09769,0.33354,-0.16833,-0.07166
0.18858,0.9773,-0.09655,0.16576,-0.34886,-0.04031
0.18495,0.97829,-0.09348,0.0569,-0.45396,0.03841
0.18138,0.97931,-0.0897,0.06576,-0.37863,-0.07749
0.1775,0.98014,-0.08833,0.1881,-0.20367,-0.18157
0.17376,0.98044,-0.09237,0.17617,-0.1715,-0.29441
0.17149,0.97925,-0.10792,0.16533,-0.27373,-0.36257
0.17187,0.97503,-0.14061,0.10755,-0.2105,-0.35544
0.17513,0.96558,-0.19231,-0.10167,0.11349,-0.26464
0.18006,0.95005,-0.25491,-0.33431,0.30369,-0.04723
0.18706,0.92942,-0.3181,-0.29626,0.55412,0.21684
0.20347,0.90502,-0.37354,-0.14135,0.77625,0.43749
0.23367,0.87976,-0.41402,0.24471,0.41261,0.20966
0.26364,0.85719,-0.44239,0.43854,0.41328,0.01823
0.29332,0.83868,-0.45889,0.33037,0.63067,-0.16287
0.32369,0.8239,-0.46519,0.00963,0.41796,0.03831
0.35098,0.81513,-0.46084,-0.24064,-0.03097,0.14873
0.37439,0.81348,-0.44505,-0.22034,-0.35854,0.16545
0.38972,0.8197,-0.41976,-0.03706,-0.52539,0.19328
0.39298,0.83307,-0.3893,-0.00806,-0.7027,0.23506
0.38312,0.85276,-0.35498,-0.12416,-0.62608,0.16582
0.3641,0.87619,-0.31577,-0.23628,-0.57428,0.0925
0.33704,0.90142,-0.27173,-0.21709,-0.53849,-0.00382
0.30264,0.92621,-0.22479,-0.18954,-0.18438,-0.12757
0.26473,0.94742,-0.17975,-0.11465,0.03458,-0.18707
0.22834,0.96227,-0.14793,-0.05027,0.20214,-0.26602
0.20105,0.96994,-0.13706,0.02149,0.24083,-0.35176
0.19591,0.96974,-0.14568,0.41727,-0.07032,-0.05027
0.21059,0.9664,-0.14734,0.41003,-0.21312,0.21458
0.24407,0.95958,-0.1401,0.25001,-0.06561,0.10497
0.25656,0.95955,-0.11593,-0.81622,0.3322,-0.30101
0.25315,0.96244,-0.09803,-0.3442,0.35543,0.58267
0.24604,0.96276,-0.11204,1.15664,0.14115,0.3413
0.25781,0.96059,-0.1039,0.97673,0.99625,-0.77785
0.25771,0.95955,-0.11331,-0.22571,0.8213,0.01852
0.25538,0.95745,-0.13441,0.08797,0.07544,0.30073
0.25135,0.95648,-0.14819,0.04811,0.00849,0.202
0.24561,0.95731,-0.15239,0.03738,0.00412,0.22757
0.23537,0.96041,-0.14902,0.07465,-0.04777,0.27986
0.22274,0.96546,-0.13513,0.18815,0.07912,0.02124
0.21254,0.96978,-0.11981,0.46942,0.07676,-0.02802
0.20589,0.97258,-0.10811,0.48224,-0.16614,-0.05208
0.20169,0.97426,-0.10068,0.26339,-0.30305,-0.12225
0.19708,0.97549,-0.09784,0.16197,-0.26136,-0.1084
0.19291,0.97625,-0.09854,0.08657,-0.16074,-0.13507
0.19298,0.97544,-0.10613,0.05793,-0.22973,-0.19473
0.19466,0.97306,-0.12348,0.07116,-0.26847,-0.25191
0.19656,0.96914,-0.14872,0.12632,-0.39021,-0.22939
0.20013,0.9622,-0.18471,0.03649,-0.37519,-0.12152
0.20671,0.95023,-0.23309,-0.04878,-0.33791,0.01619
0.21634,0.93222,-0.29008,-0.17849,0.01684,0.16833
0.23083,0.90978,-0.34498,-0.17317,0.22966,0.19731
0.24783,0.88653,-0.39069,-0.25363,0.33831,0.34197
0.26201,0.86765,-0.42253,-0.18882,0.29575,0.28627
0.27825,0.85329,-0.44099,0.1943,0.16213,0.1329
0.29991,0.84249,-0.4475,-0.02175,0.53323,0.05629
0.32544,0.83862,-0.4368,-0.08744,0.64902,0.02531
0.34916,0.8438,-0.40754,0.04863,0.23083,-0.03045
0.37022,0.85329,-0.36718,0.11521,-0.31539,0.04165
0.38193,0.86682,-0.32053,0.19052,-0.665,0.06244
0.37605,0.88519,-0.27389,0.12393,-0.79946,0.05452
0.35464,0.9063,-0.22987,-0.19711,-0.77918,-0.01337
0.3207,0.92812,-0.18904,-0.26218,-0.65595,-0.0556
0.27688,0.94865,-0.1529,-0.31839,-0.03004,-0.165
0.23305,0.96404,-0.12771,-0.19881,0.79439,-0.23156
0.20321,0.97223,-0.11602,-0.18921,0.63652,-0.35554
0.19821,0.97408,-0.109,0.41047,-0.37383,0.41199
0.21034,0.97406,-0.08333,0.59529,-0.43546,0.40547
0.21887,0.97439,-0.0515,-0.39175,-0.19151,-0.46448
0.20867,0.97673,-0.04941,-0.30223,0.33911,0.08004
0.19749,0.97845,-0.06024,1.21082,0.81748,0.2445
0.20593,0.976,-0.07075,-0.06091,0.47835,-0.00594
0.21338,0.97354,-0.08174,0.11589,0.45938,0.02358
0.21804,0.97127,-0.09527,0.48349,0.27725,0.10868
0.22038,0.97044,-0.0983,0.43515,0.1745,-0.00432
0.21689,0.97071,-0.10324,0.24723,0.16657,-0.03567
0.21003,0.97088,-0.11516,0.15598,-0.0137,-0.09361
0.20421,0.97016,-0.13067,0.16617,-0.01975,-0.06948
0.20109,0.96848,-0.14694,0.19315,-0.0666,-0.10006
0.20556,0.96405,-0.16837,0.16527,-0.17044,-0.18302
0.2156,0.9546,-0.20552,0.07496,-0.27165,-0.15022
0.22699,0.93926,-0.2574,-0.03183,-0.2891,-0.13604
0.23571,0.91882,-0.31655,-0.29901,-0.43853,0.27347
0.24305,0.89427,-0.37577,-0.38644,-0.43591,0.36936
0.24936,0.87004,-0.42525,-0.39324,-0.43553,0.40085
0.25682,0.85017,-0.45961,-0.31575,-0.43982,0.39108
0.27055,0.83408,-0.48073,-0.11987,0.56254,0.29819
0.29302,0.82101,-0.48996,0.1159,0.67871,0.39949
0.30714,0.81977,-0.48336,0.3513,0.43099,0.42878
0.31823,0.82575,-0.46568,-0.06347,0.15976,0.0716
0.32627,0.83941,-0.43465,-0.06155,0.10072,0.01424
0.32767,0.86005,-0.39106,-0.04017,0.03385,-0.06409
0.32296,0.88539,-0.33431,0.06774,-0.37491,-0.17866
0.30777,0.91214,-0.27069,0.04585,-0.50073,-0.16127
0.2789,0.93666,-0.21182,-0.00873,-0.49635,-0.13733
0.24663,0.95434,-0.16852,-0.21207,-0.13103,-0.23627
0.22013,0.96464,-0.14494,-0.19232,0.30917,-0.28735
0.20778,0.9681,-0.14,0.02603,0.37463,-0.14184
0.20681,0.9688,-0.13656,0.43071,-0.09532,-0.01449
0.21795,0.96814,-0.12322,0.41927,-0.05803,-0.02294
0.22339,0.97022,-0.09359,-0.29129,0.23231,0.30595
0.22043,0.97141,-0.08808,-0.06833,0.39516,0.40849
0.22689,0.96972,-0.09026,1.13414,1.17483,-0.07575
0.25303,0.96289,-0.09379,0.04285,0.06308,0.44416
0.27006,0.9562,-0.11287,-0.00794,0.2676,-0.11139
0.27104,0.95427,-0.12605,0.0875,0.56672,0.0977
0.26056,0.95675,-0.12929,-0.16845,0.29561,0.40805
0.24282,0.96229,-0.12257,-0.23777,0.05909,0.19227
0.22097,0.96952,-0.10576,-0.1902,0.12591,0.06298
0.19612,0.97663,-0.08781,0.166,0.36065,0.0586
0.17639,0.98193,-0.0684,0.26928,0.00392,0.02987
0.16134,0.98545,-0.05321,0.19365,-0.18623,-0.02579
0.14908,0.98793,-0.0419,0.21862,-0.27075,-0.08366
0.14063,0.98943,-0.03514,0.2079,-0.27886,-0.19012
0.13731,0.9898,-0.03768,0.18689,-0.30551,-0.25822
0.13948,0.98877,-0.05358,0.20427,-0.42674,-0.2237
0.146,0.9855,-0.08632,0.17748,-0.5331,-0.26938
0.15416,0.97889,-0.13414,0.00108,-0.4782,-0.30229
0.16104,0.96776,-0.19364,-0.03212,-0.43692,0.01043
0.17153,0.95163,-0.25488,-0.00632,-0.48947,0.16665
0.18608,0.92928,-0.31906,-0.26308,-0.35224,0.48284
0.19852,0.90292,-0.3812,-0.26344,-0.27791,0.4091
0.20854,0.87542,-0.43604,-0.11902,-0.29301,0.37676
0.21234,0.85328,-0.47625,-0.07015,-0.33215,0.29192
0.22189,0.83581,-0.50217,0.00528,0.69622,-0.03262
0.2487,0.82044,-0.5148,0.26431,0.69097,0.24208
0.27458,0.8144,-0.51122,0.21299,0.42486,0.25708
0.29853,0.81747,-0.49255,0.04512,0.4025,0.0516
0.31523,0.83033,-0.45953,0.14483,0.22475,-0.1675
0.32445,0.85073,-0.4135,0.21008,0.08705,-0.12878
0.32918,0.8747,-0.35571,0.26663,-0.09495,-0.15075
0.32307,0.89937,-0.29454,0.02042,-0.67125,0.10867
0.30197,0.9235,-0.23652,-0.09723,-0.64911,0.10212
0.27028,0.94391,-0.18964,-0.19912,-0.49439,0.04376
0.23954,0.95827,-0.15597,-0.19836,0.38543,-0.33864
0.21601,0.96709,-0.1344,-0.04961,0.41772,-0.30299
0.20595,0.97152,-0.11711,0.13511,0.21193,-0.20278
0.20654,0.9737,-0.09614,0.122,-0.36539,0.19018
0.21017,0.97473,-0.07562,0.0261,-0.34682,-0.05869
0.20489,0.97723,-0.055,-0.21324,-0.05272,-0.19607
0.19141,0.98057,-0.04272,-0.08455,0.24626,0.27448
0.18266,0.98245,-0.03762,0.73501,0.94461,0.43392
0.19377,0.98086,-0.01859,0.89738,0.42238,-0.08758
0.20355,0.979,-0.0109,0.355,1.15114,-0.40383
0.21107,0.97732,-0.01667,0.45049,0.59008,0.09202
0.21273,0.97674,-0.02662,-0.05955,0.44585,0.2079
0.20344,0.97858,-0.03144,-0.15233,0.29932,0.36946
0.18647,0.9821,-0.02625,-0.29461,0.12121,0.28498
0.16407,0.98637,-0.01216,-0.33601,-0.09861,0.28146
0.14121,0.98995,0.00652,-0.09352,-0.39956,0.1553
0.12141,0.99217,0.02909,0.08698,-0.54046,0.03389
0.10498,0.99306,0.05295,0.0769,-0.37675,-0.06496
0.0872,0.99341,0.07426,0.15188,-0.2858,-0.10875
0.06877,0.99366,0.08888,0.22073,-0.37788,-0.11065
0.05202,0.99417,0.09434,0.25413,-0.54891,-0.08305
0.03936,0.99499,0.09178,0.31881,-0.63324,-0.19141
0.03088,0.99582,0.08588,0.43302,-0.45561,-0.31933
0.02537,0.99661,0.07821,0.44953,-0.06921,-0.19729
0.02292,0.99749,0.06682,0.34108,0.09481,-0.03435
0.02035,0.99864,0.04786,0.28062,-0.25932,-0.22832
0.01512,0.99953,0.02634,0.35097,-0.342,-0.12606
0.00463,0.99996,0.00611,0.45812,-0.38958,-0.11732
-0.00563,0.99986,-0.01525,0.55855,-0.23241,-0.02919
-0.00877,0.99904,-0.04268,0.43797,-0.1332,-0.08939
-0.00074,0.997,-0.07727,0.15045,0.44001,-0.55202
0.01803,0.99285,-0.11793,-0.02683,1.04606,0.03983
0.04551,0.98547,-0.16357,-0.21889,0.69405,0.20544
0.07961,0.97326,-0.21544,-0.32346,0.66497,0.04454
0.11027,0.95909,-0.26072,-0.08891,0.84946,-0.04354
0.13385,0.9463,-0.29428,-0.06452,0.85645,-0.07313
0.15824,0.93455,-0.31871,0.09338,0.19474,-0.18744
0.18311,0.92407,-0.33549,0.06851,0.20522,-0.17066
0.20834,0.91487,-0.34582,0.17108,0.16356,0.00402
0.23135,0.90803,-0.34921,0.07025,-0.08703,0.12725
0.25046,0.90341,-0.348,-0.04567,-0.1362,0.08346
0.26241,0.90178,-0.34339,-0.1574,-0.17487,0.08257
0.26625,0.90371,-0.33527,-0.33534,-0.34152,0.32609
0.26532,0.90874,-0.32216,-0.31729,-0.35726,0.33963
0.26274,0.91533,-0.30516,-0.33278,-0.39238,0.28792
0.25866,0.92331,-0.28386,-0.38695,-0.49485,0.12419
0.25111,0.93332,-0.25661,-0.33565,-0.55463,-0.04728
0.23823,0.9447,-0.22535,-0.28154,-0.55871,-0.10876
0.21901,0.95597,-0.19531,-0.21327,-0.48459,-0.15829
0.19398,0.96575,-0.17228,-0.10608,-0.29623,-0.24451
0.16638,0.9722,-0.16471,0.15593,-0.03138,-0.50811
0.14698,0.97381,-0.17341,0.57146,0.2199,-0.62287
0.14732,0.97067,-0.18999,0.7573,0.14025,-0.36656
0.16504,0.96364,-0.21011,0.38777,-0.33301,-0.54969
0.18813,0.95376,-0.23438,0.00827,-0.11753,0.02852
0.19919,0.95016,-0.23978,-0.70698,0.0925,0.09989
0.18935,0.95989,-0.20677,0.09332,0.55511,1.04405
0.1744,0.96122,-0.21362,0.50196,0.45999,0.26217
0.17125,0.96598,-0.19375,0.66202,1.33315,0.04232
0.17488,0.96767,-0.18173,0.58914,0.30331,0.19567
0.16966,0.96739,-0.18805,0.07276,-0.03805,0.547
0.15739,0.97033,-0.1835,-0.28907,0.37824,0.47778
0.14237,0.97625,-0.16324,-0.4954,0.30873,0.35095
0.12726,0.98347,-0.12877,-0.26074,0.32599,0.15765
0.11091,0.98962,-0.09129,0.13236,0.3805,0.02104
0.094,0.99409,-0.05415,0.34972,0.10203,-0.02127
0.07611,0.99685,-0.0218,0.30475,-0.28074,0.02491
0.05822,0.99829,0.0044,0.31299,-0.37699,-0.00909
0.0404,0.99889,0.02403,0.30457,-0.43538,-0.01823
0.0249,0.99896,0.03797,0.31938,-0.39784,-0.04452
0.01169,0.99873,0.0488,0.30357,-0.20575,-0.13774
-0.00098,0.99827,0.05861,0.30821,-0.05804,-0.28969
-0.01331,0.99762,0.06755,0.30741,0.00403,-0.35681
-0.02447,0.99713,0.07145,0.35316,-0.00031,-0.33835
-0.03306,0.99698,0.07012,0.31219,-0.0109,-0.30828
-0.03759,0.9972,0.06454,0.29735,-0.05648,-0.33603
-0.03694,0.9981,0.04915,0.33183,-0.0798,-0.38165
-0.02907,0.99944,0.01629,0.26898,0.05719,-0.12681
-0.01264,0.9989,-0.04488,0.13623,0.52246,0.0022
0.01692,0.99237,-0.12208,0.08371,0.80362,-0.04775
0.05281,0.97968,-0.19345,-0.20541,0.53701,0.58208
0.09264,0.96247,-0.25505,0.1286,0.5445,0.58487
0.13404,0.94634,-0.29406,0.29683,0.46712,0.33904
0.17074,0.93287,-0.31715,0.507,0.28955,0.19633
0.2054,0.91969,-0.33462,0.77095,-0.15403,0.10911
0.23996,0.9067,-0.34685,0.54952,-0.08295,0.11725
0.27095,0.89422,-0.35629,0.32071,0.0142,0.12117
0.29685,0.88178,-0.36651,-0.16031,-0.0144,0.22714
0.31871,0.87133,-0.37309,-0.2422,-0.07705,0.33357
0.33811,0.86422,-0.37256,-0.26164,-0.15757,0.35797
0.35076,0.86216,-0.36557,-0.25464,-0.26536,0.37618
0.35509,0.86396,-0.35703,-0.28087,-0.28629,0.37985
0.35087,0.86713,-0.3535,-0.30271,-0.27565,0.41019
0.34447,0.87155,-0.3489,-0.36044,-0.14746,0.13433
0.3413,0.87821,-0.33503,-0.36183,-0.11607,0.08633
0.33885,0.88747,-0.31236,-0.35742,-0.10783,0.02934
0.33183,0.89929,-0.28489,-0.367,-0.19274,-0.05079
0.31572,0.91346,-0.25668,-0.27533,-0.2243,-0.11731
0.29143,0.92849,-0.23014,0.06262,-0.06008,-0.12522
0.26498,0.94114,-0.20982,0.37721,0.19186,-0.19595
0.24583,0.94849,-0.19979,0.46689,0.40038,-0.42966
0.24194,0.95023,-0.19623,0.42946,0.00375,0.05782
0.25582,0.94715,-0.1935,0.23197,0.11591,0.07845
0.27926,0.9431,-0.18044,0.18659,0.5401,0.15473
0.29806,0.93961,-0.16817,-0.13919,0.12068,-0.02861
0.30507,0.93666,-0.172,-0.25116,-0.12987,-0.02745
0.30221,0.93783,-0.17068,-0.16333,-0.0729,-0.07188
0.28961,0.94297,-0.16405,-0.14076,-0.02986,0.24811
