gravity.x,gravity.y,gravity.z,userAcceleration.x,userAcceleration.y,userAcceleration.z
0.1003,0.98564,-0.13585,-0.26822,0.36982,0.23911
0.10058,0.98457,-0.14319,-0.09648,0.33344,0.24031
0.09747,0.98427,-0.14732,0.11499,1.91975,-0.18287
0.08135,0.98745,-0.13537,0.26391,2.39437,0.19829
0.09126,0.98543,-0.14351,0.85815,-0.25018,0.09766
0.11533,0.97956,-0.16481,0.21003,-0.62273,-0.26934
0.12857,0.9792,-0.15692,-0.15533,-0.69695,0.22233
0.12751,0.98129,-0.14421,-0.10032,-0.24524,0.07789
0.12743,0.9824,-0.13655,-0.05176,0.19193,-0.11031
0.13331,0.98363,-0.12119,0.23524,0.45698,0.04349
0.13942,0.98455,-0.10589,0.11143,-0.11962,0.05793
0.14714,0.98404,-0.09999,-0.01778,-0.39216,-0.01304
0.14933,0.98394,-0.0978,-0.09747,-0.41393,-0.03153
0.14522,0.98434,-0.09992,-0.00222,-0.38744,-0.0369
0.13807,0.98473,-0.10604,0.14443,0.00391,0.05678
0.12852,0.98531,-0.11244,0.20046,0.0719,-0.00633
0.1206,0.98564,-0.1182,0.30924,-0.07041,-0.0577
0.11697,0.98467,-0.12938,0.36052,-0.19161,0.09926
0.11463,0.98257,-0.14634,0.30539,-0.29912,0.20876
0.11546,0.97935,-0.16593,0.06178,-0.45834,0.38564
0.12281,0.97259,-0.19745,-0.39938,-0.06676,0.20498
0.13962,0.95976,-0.24363,-0.51979,0.15144,-0.07722
0.16482,0.94676,-0.27654,-0.09023,0.59427,0.16492
0.19296,0.93361,-0.30187,0.03911,0.76117,0.0216
0.21687,0.92232,-0.31982,0.25329,1.09485,-0.13838
0.24296,0.91429,-0.32411,0.02364,0.42466,-0.02291
0.26195,0.90784,-0.32742,-0.14568,0.20239,-0.00426
0.27251,0.90562,-0.32493,-0.13655,-0.106,0.11094
0.27875,0.90653,-0.31702,-0.23365,-0.37291,0.11632
0.27519,0.91129,-0.3063,-0.2625,-0.37548,0.0821
0.26972,0.9182,-0.29008,-0.12949,-0.2979,0.00953
0.25793,0.92648,-0.27404,0.08863,-0.27141,-0.05207
0.23867,0.93659,-0.25656,0.15528,-0.26203,0.00438
0.2142,0.94767,-0.23674,0.19486,-0.18598,0.00795
0.19115,0.95723,-0.21719,0.18004,-0.029,-0.05506
0.17386,0.9646,-0.19829,-0.04177,0.06026,0.04878
0.16183,0.97034,-0.17958,-0.21704,0.00902,0.16712
0.15192,0.97467,-0.16408,-0.30607,-0.01769,0.11333
0.14295,0.97764,-0.15423,-0.25185,-0.24042,0.05929
0.13591,0.9806,-0.14123,-0.15586,-0.48548,0.19108
0.13151,0.98392,-0.12081,-0.08042,-0.46873,0.00751
0.12472,0.98634,-0.10759,-0.0996,0.21178,-0.12099
0.11683,0.98646,-0.11508,0.09682,0.86002,0.18028
0.11682,0.98583,-0.12032,0.19765,2.2589,-0.13139
0.11642,0.98729,-0.10817,0.15963,-0.26849,0.5986
0.13925,0.98403,-0.11083,0.47963,-0.33874,0.04885
0.15324,0.97943,-0.13125,0.09513,-0.60293,-0.21937
0.16051,0.97739,-0.13765,0.02173,-0.56989,-0.06792
0.15743,0.97913,-0.12854,0.03808,0.00542,0.02812
0.15495,0.9813,-0.11421,0.08413,0.46464,0.07047
0.15772,0.98235,-0.10057,-0.00209,0.01788,-0.00795
0.16381,0.98177,-0.09633,0.02978,-0.02133,-0.03493
0.1682,0.98124,-0.09417,0.12982,-0.10031,0.08028
0.1675,0.98127,-0.09515,0.22509,-0.18795,0.10341
0.17032,0.9797,-0.10566,0.14082,-0.33772,0.14743
0.17384,0.97678,-0.12516,0.15277,-0.46322,0.05393
0.17463,0.97318,-0.1497,0.10227,-0.43546,0.17856
0.17591,0.96816,-0.17807,-0.02111,-0.42132,0.46335
0.18458,0.95841,-0.21766,-0.23482,-0.38796,0.18011
0.20823,0.94429,-0.25487,-0.34977,0.10347,0.16867
0.24232,0.92823,-0.28225,-0.2022,0.26148,0.24068
0.26561,0.91171,-0.31342,0.10447,0.35103,-0.12977
0.28597,0.89865,-0.33262,0.58634,1.86156,-0.27814
0.30728,0.88689,-0.34497,0.21381,1.20314,-0.40255
0.31684,0.8855,-0.33985,-0.20874,0.33192,-0.30196
0.32456,0.88726,-0.32775,-0.06484,-0.11286,-0.11633
0.32284,0.89134,-0.31825,-0.1359,-0.08951,-0.07065
0.30693,0.90162,-0.30474,0.17163,0.0315,0.01481
0.27647,0.91714,-0.28708,0.13261,-0.10139,0.00499
0.24153,0.93378,-0.26403,0.10437,-0.13297,-0.03097
0.20884,0.94807,-0.23987,-0.01346,-0.12288,0.02677
0.18444,0.9585,-0.21735,-0.05664,-0.34385,0.23072
0.169,0.96518,-0.19964,-0.05449,-0.52864,0.2931
0.15484,0.9702,-0.18635,-0.09219,-1.06955,0.1276
0.14203,0.97506,-0.17052,-0.08498,-1.18291,0.09328
0.12859,0.97991,-0.15241,-0.17856,-1.22921,0.06636
0.12263,0.98388,-0.13017,-0.0344,-0.73964,-0.06557
0.13538,0.98368,-0.11849,-0.13634,0.77821,0.07858
0.15459,0.97947,-0.12931,-0.14829,1.64008,0.48434
0.1388,0.98267,-0.12283,-0.24764,2.22186,0.69352
0.12547,0.98386,-0.12755,0.13239,-0.44263,0.1121
0.1431,0.97614,-0.1633,0.50685,-0.28113,0.07701
0.14597,0.97124,-0.18808,0.38705,-0.6503,-0.25648
0.14993,0.97208,-0.18046,0.08818,0.39491,-0.04504
0.14992,0.97453,-0.16675,0.19953,0.94612,-0.03172
0.14409,0.97763,-0.15321,0.20047,0.41518,0.26162
0.15114,0.97647,-0.15382,0.3703,-0.10302,0.1389
0.15908,0.97237,-0.17084,0.31031,-0.14943,-0.00659
0.16129,0.96756,-0.19442,-0.28137,-0.28081,0.13836
0.16193,0.96176,-0.22086,-0.4144,-0.57671,0.20522
0.16028,0.95309,-0.25675,-0.28674,-0.72854,0.3532
0.16674,0.94289,-0.28834,-0.17863,-0.66448,0.36074
0.18131,0.93164,-0.3149,-0.11042,-0.43134,0.27137
0.20102,0.92044,-0.33522,-0.05185,-0.04781,0.412
0.21971,0.90861,-0.35518,0.20093,0.31811,0.12206
0.23569,0.89848,-0.37037,0.2077,1.45896,-0.60714
0.25051,0.89605,-0.36651,0.095,1.33901,-0.30399
0.25602,0.89774,-0.35848,-0.23219,0.11705,-0.34309
0.25484,0.90442,-0.34214,0.00776,-0.32578,-0.08446
0.24475,0.91264,-0.32738,0.08374,-0.26468,-0.0696
0.22646,0.92274,-0.31186,0.19442,0.1281,-0.17141
0.19937,0.93567,-0.29113,0.43405,0.42047,-0.10882
0.1708,0.94801,-0.26852,0.393,0.29325,-0.05269
0.15627,0.95658,-0.246,0.10261,-0.0529,0.0258
0.15083,0.9638,-0.21982,-0.28099,-0.23782,0.29598
0.14185,0.97062,-0.19435,-0.38211,-0.30066,0.35819
0.12407,0.97634,-0.17709,-0.35495,-0.50403,0.37129
0.10326,0.98105,-0.16391,-0.03477,-0.97135,0.29136
0.08213,0.98574,-0.14683,-0.0077,-1.15615,0.20741
0.06172,0.99064,-0.12167,-0.08444,-1.28955,0.09144
0.04834,0.99446,-0.09328,-0.08697,-0.9042,-0.03994
0.04189,0.99522,-0.08815,-0.05947,0.76038,-0.12245
0.0405,0.99537,-0.08711,-0.27738,2.10137,0.35401
0.03718,0.99843,-0.04177,-0.2209,0.09077,0.59351
0.04656,0.99817,-0.03839,0.65759,0.85098,-0.71377
0.03905,0.99785,-0.05249,0.39034,-0.65251,0.44641
0.04875,0.99696,-0.06072,0.41333,-0.79478,0.21588
0.04824,0.99473,-0.0904,0.05337,-1.00816,-0.33652
0.04399,0.99281,-0.11127,0.05851,0.00359,-0.31852
0.04523,0.9917,-0.12035,0.61867,1.41619,0.1042
0.05355,0.99338,-0.10155,0.65992,1.20208,-0.01617
0.05497,0.99486,-0.08499,0.61697,-0.29257,0.13705
0.0505,0.99423,-0.09462,0.4318,-0.14477,-0.09979
0.03983,0.99352,-0.10643,0.27063,-0.15157,-0.05728
0.02635,0.99354,-0.11032,0.07686,-0.46867,0.11765
0.0163,0.99329,-0.11446,0.13362,-0.37653,0.118
0.01322,0.99233,-0.12284,0.11424,-0.31383,0.19265
0.01171,0.98998,-0.14067,-0.08227,-0.15546,0.32108
0.01812,0.98518,-0.17056,-0.15899,0.33319,0.20934
0.03681,0.97892,-0.20086,-0.09908,0.54763,0.2253
0.06389,0.97326,-0.22061,0.59478,1.39289,0.05437
0.09853,0.96814,-0.23019,0.23826,1.34543,0.0725
0.12408,0.9634,-0.23761,0.07282,1.01486,0.03094
0.12943,0.95892,-0.25241,0.26035,0.81427,0.22319
0.13568,0.95406,-0.26712,0.10963,0.67961,0.04428
0.14939,0.94931,-0.27655,0.11054,0.51311,-0.0391
0.16182,0.94582,-0.28146,0.22232,0.27723,0.06215
0.16658,0.94369,-0.28583,0.24056,-0.18142,0.26013
0.16849,0.94241,-0.28891,0.17157,-0.44981,0.42876
0.1636,0.94322,-0.28908,0.07035,-0.69215,0.45349
0.14755,0.94616,-0.2881,0.06894,-0.71513,0.44638
0.11967,0.95004,-0.28826,0.0465,-0.66792,0.52684
0.08352,0.95311,-0.29084,-0.08239,-0.52254,0.47043
0.049,0.95551,-0.29084,-0.10517,-0.33573,0.33933
0.02194,0.95831,-0.28485,-0.15354,-0.28601,0.22583
0.0019,0.96153,-0.27468,-0.01452,-0.05861,0.0045
-0.01622,0.96434,-0.26416,0.11799,0.15502,0.01304
-0.03817,0.96517,-0.25879,0.11675,0.33428,-0.16428
-0.05921,0.96451,-0.25729,0.00957,0.36729,-0.08092
-0.06651,0.96293,-0.26142,0.03839,0.23988,-0.0972
-0.05791,0.95875,-0.27826,0.05007,0.19467,-0.17308
-0.04543,0.95628,-0.28889,0.20074,-0.02917,-0.21222
-0.02883,0.95833,-0.28418,0.41676,-0.30953,-0.19115
-0.01845,0.96083,-0.27649,0.42795,-0.11695,0.00986
-0.01794,0.95836,-0.28497,0.32015,0.76539,0.38568
-0.01084,0.95612,-0.29274,0.25242,0.89799,0.657
-0.00856,0.95938,-0.28196,0.11809,0.58627,0.36253
-0.01691,0.95856,-0.28438,0.19246,-0.1319,0.14836
-0.02546,0.95734,-0.28781,0.32574,-0.21203,0.3784
-0.03535,0.95808,-0.28428,0.48592,-0.36868,0.5073
-0.05515,0.96031,-0.27341,0.29633,-0.0946,0.42996
-0.07613,0.96479,-0.25174,0.14655,0.36385,0.20064
-0.08975,0.97054,-0.22358,0.08111,0.43081,0.20915
-0.09946,0.97664,-0.19046,0.24095,-0.06967,0.16517
-0.10638,0.98178,-0.15739,0.29583,-0.14815,0.11328
-0.11163,0.98577,-0.12564,0.30305,-0.16649,0.09711
-0.1206,0.98845,-0.09167,0.18757,-0.31108,0.14555
-0.13209,0.98973,-0.05459,0.11745,-0.21762,0.2406
-0.14124,0.98978,-0.01945,0.08654,-0.13573,0.23753
-0.14639,0.98917,0.0098,-0.07271,0.02287,0.08739
-0.15002,0.98805,0.03505,-0.15761,-0.05353,-0.07293
-0.1517,0.98678,0.05696,-0.09299,-0.0942,-0.0788
-0.15092,0.98586,0.07267,0.19288,-0.04151,0.01922
-0.14908,0.98547,0.08128,0.31891,-0.05621,0.00122
-0.14962,0.9847,0.0892,0.28119,-0.03664,-0.08647
-0.15403,0.98284,0.10144,0.34528,0.0699,-0.11997
-0.16078,0.98013,0.11608,0.39906,0.2592,-0.05677
-0.16638,0.97742,0.13019,0.45204,0.10572,-0.01898
-0.16952,0.97511,0.14289,0.50471,0.04467,-0.04344
-0.16882,0.97373,0.15274,0.55023,0.24415,-0.15418
-0.16572,0.97366,0.15655,0.53296,0.20002,-0.00477
-0.16024,0.97521,0.15253,0.44261,0.24073,0.24057
-0.14757,0.97962,0.1362,0.27585,0.35577,0.19565
-0.12584,0.98621,0.10746,0.24919,0.20636,0.12388
-0.09458,0.9933,0.06627,0.23924,0.07867,0.16237
-0.05953,0.99804,0.01909,0.10026,0.08656,0.19712
-0.02689,0.99936,-0.02313,0.03946,0.16895,0.04222
0.00244,0.99862,-0.05228,-0.08961,0.30861,0.07859
0.03167,0.99631,-0.0797,-0.05203,0.43164,0.16246
0.05931,0.99229,-0.10875,0.00316,0.34078,0.18965
0.08702,0.98763,-0.13038,0.04094,0.14011,0.16026
0.11325,0.98228,-0.14932,0.00119,-0.10606,0.09298
0.1367,0.97637,-0.16735,-0.02559,-0.11465,0.07784
0.15793,0.97026,-0.18342,0.0781,-0.26618,0.19841
0.17623,0.96447,-0.19679,0.00661,-0.12502,0.11428
0.1848,0.96066,-0.20728,0.00957,-0.15175,0.05725
0.18899,0.95817,-0.21491,0.10445,-0.27879,0.07707
0.19092,0.95715,-0.21775,0.27384,-0.49401,0.19088
0.18722,0.95815,-0.21653,0.17521,-0.53495,0.22522
0.17634,0.96091,-0.21342,-0.14314,-0.53399,0.18955
0.16345,0.96426,-0.20851,-0.16848,-0.4902,0.14361
0.15063,0.96788,-0.20126,-0.12976,-0.31577,0.12441
0.13684,0.97139,-0.1941,0.0074,-0.11926,0.0058
0.12126,0.97466,-0.18796,0.07442,-0.04144,-0.07563
0.10353,0.97817,-0.18017,0.14183,0.17181,-0.03531
0.08808,0.98179,-0.16826,0.01321,0.20889,0.09625
0.07918,0.9849,-0.15394,-0.03494,0.14412,0.0773
0.07438,0.98765,-0.13787,-0.02704,0.10148,0.03759
0.06965,0.99001,-0.12256,0.04761,-0.16579,0.05515
0.06728,0.99214,-0.1055,0.04349,-0.28565,0.03585
0.06929,0.99391,-0.08566,0.07461,-0.70553,0.02544
0.07286,0.99524,-0.06459,-0.00156,-1.31705,-0.07692
0.07155,0.99658,-0.04107,-0.08126,-1.36902,0.14235
0.0654,0.9978,-0.01028,-0.18591,-1.30487,0.34565
0.06095,0.99813,-0.00253,-0.17729,0.9835,0.13588
0.06785,0.99755,-0.01696,-0.07888,2.62834,0.04673
0.06652,0.99765,0.01593,-0.18416,0.71228,-0.00708
0.06583,0.99777,0.01011,0.03397,1.37608,0.61887
0.05756,0.99832,0.00502,0.35788,-0.81119,0.15669
0.0755,0.99702,-0.01561,0.59304,-0.82523,-0.06815
0.08651,0.99548,-0.03905,0.04777,-1.1212,-0.62074
0.09123,0.99498,-0.04108,0.16429,1.10325,0.03864
0.10134,0.99447,-0.02739,0.39593,1.88621,0.16885
0.10611,0.99435,-0.00149,0.26567,-0.01154,0.39894
0.11135,0.99369,-0.01313,-0.03582,-0.50875,0.11696
0.12064,0.99111,-0.056,-0.1269,-0.31775,-0.12364
0.1318,0.98639,-0.0982,-0.18679,-0.41184,0.04685
0.14509,0.98104,-0.12843,-0.18145,-0.5565,0.3382
0.16233,0.97303,-0.16384,-0.1312,-0.7042,0.10239
0.18629,0.96317,-0.19388,-0.30599,-0.49656,0.06573
0.22325,0.95009,-0.21789,-0.28124,0.31285,0.03477
0.26133,0.93301,-0.24736,0.1287,0.90944,0.25578
0.28293,0.92317,-0.26019,0.14539,0.7911,-0.43776
0.29534,0.92331,-0.24549,0.41214,0.75705,-0.45453
0.29562,0.92696,-0.23094,-0.15564,0.15116,-0.48552
0.28956,0.93415,-0.2086,0.11092,-0.2557,-0.27419
0.27361,0.94273,-0.19077,0.27098,-0.29881,-0.29936
0.24641,0.95431,-0.16899,0.32217,-0.19793,-0.27943
0.21184,0.96672,-0.14339,0.32488,0.12517,-0.20906
0.17803,0.97649,-0.12152,0.00657,0.13948,-0.11837
0.15954,0.98247,-0.09632,-0.08842,-0.13952,-0.01058
0.15058,0.98611,-0.06998,-0.24419,-0.83919,0.21379
0.13433,0.98968,-0.04967,-0.24679,-0.92106,0.14866
0.11443,0.99285,-0.03382,-0.10671,-0.9733,0.0068
0.10556,0.99438,-0.00691,-0.10695,-0.63115,-0.07359
0.11211,0.99354,0.0172,0.04565,-0.07136,-0.03592
0.13203,0.99112,0.01557,-0.10996,1.34007,0.18159
0.13979,0.99011,0.01145,-0.38242,2.39225,-0.03521
0.12773,0.99179,0.00474,-0.01645,-0.45932,0.58996
0.14202,0.98984,-0.00498,0.22224,-0.53863,0.17358
0.15745,0.98646,-0.04573,0.37714,-1.06945,-0.71062
0.15939,0.9853,-0.06126,0.24138,-0.00688,-0.31645
0.15692,0.98614,-0.05367,0.43178,0.51547,-0.14813
0.15528,0.98672,-0.04747,0.28422,0.57622,-0.21528
0.15613,0.98634,-0.05236,0.10032,0.03458,-0.07991
0.16045,0.98515,-0.06101,0.10468,-0.08018,-0.04255
0.16398,0.98379,-0.07255,-0.08099,-0.39972,0.19607
0.16917,0.98069,-0.09808,-0.34927,-0.5085,0.06009
0.17654,0.97506,-0.13446,-0.45774,-0.56808,0.09157
0.18671,0.96809,-0.16711,-0.41054,-0.62663,0.27989
0.1981,0.96009,-0.19743,-0.37341,-0.41463,0.10328
0.21958,0.95002,-0.2219,-0.31362,-0.0814,0.06191
0.2565,0.93574,-0.24204,0.17086,0.92594,0.08705
0.28802,0.92281,-0.25584,0.71079,0.92352,-0.36264
0.299,0.92036,-0.25204,0.57953,0.81754,-0.18721
0.29811,0.92429,-0.23837,-0.14579,0.35518,-0.43771
0.29579,0.931,-0.21384,0.04828,-0.08677,-0.28303
0.28512,0.93925,-0.19104,0.09746,-0.21377,-0.25944
0.2635,0.94991,-0.168,0.1368,-0.16608,-0.17082
0.23399,0.96214,-0.13975,0.18964,0.29754,-0.12864
0.19973,0.97358,-0.11059,0.21707,0.42774,-0.08364
0.17783,0.98098,-0.07775,-0.07484,-0.08057,-0.07194
0.16436,0.98544,-0.04348,-0.18979,-0.58303,0.12809
0.1481,0.9887,-0.02296,-0.11349,-0.93915,0.14856
0.12852,0.9916,-0.01412,-0.01597,-1.07696,0.25313
0.1107,0.99384,-0.00475,-0.07,-1.34406,0.05563
0.10348,0.99436,0.02272,-0.17592,-1.39367,-0.1775
0.11101,0.99198,0.06036,-0.09525,-0.46804,-0.42138
0.12645,0.99044,0.05501,-0.31734,1.19026,0.26139
0.13707,0.98986,0.03696,-0.11633,1.95067,0.0942
0.14471,0.98849,0.04394,0.01568,1.53272,-0.25595
0.15173,0.98805,0.02699,0.41609,-0.28314,-0.05855
0.16478,0.98632,-0.00042,0.56839,-0.29818,-0.36774
0.16697,0.98567,-0.02356,0.36587,-0.68065,-0.53472
0.17205,0.98479,-0.02392,0.4142,0.33369,-0.2495
0.1731,0.98448,-0.02853,0.42911,0.74618,0.02328
0.17434,0.98396,-0.0377,0.33686,0.23128,0.00291
0.17991,0.98187,-0.05966,-0.1722,-0.21436,0.03906
0.18933,0.97794,-0.08813,-0.28339,-0.29106,0.03626
0.20208,0.97313,-0.11036,-0.32719,-0.36732,0.24485
0.21319,0.96692,-0.14001,-0.35415,-0.56755,0.29378
0.22379,0.95874,-0.17528,-0.40851,-0.60173,0.20842
0.24079,0.94922,-0.20247,-0.41137,-0.19493,0.22389
0.27011,0.93705,-0.22127,-0.35558,0.10764,0.23424
0.30317,0.92244,-0.23915,0.12861,0.54924,-0.00917
0.3292,0.91075,-0.24932,0.69842,1.7302,-0.35923
0.33945,0.90765,-0.24684,-0.09523,0.50319,-0.27028
0.33928,0.90924,-0.24117,-0.101,0.05504,-0.2182
0.33453,0.91381,-0.23027,-0.02633,-0.28088,-0.13257
0.31804,0.92266,-0.21802,-0.05352,-0.13195,-0.21993
0.2924,0.93555,-0.19811,0.00336,-0.00156,-0.25096
0.25734,0.95078,-0.17257,0.17053,0.20478,-0.1526
0.22382,0.96333,-0.14797,0.17501,-0.07604,-0.112
0.20102,0.97183,-0.12298,0.13867,-0.22533,-0.11585
0.18407,0.97821,-0.09595,-0.11367,-0.40967,0.02081
0.16681,0.98326,-0.07316,-0.16152,-0.56824,0.15458
0.14971,0.98699,-0.05853,-0.0949,-0.68452,0.16281
0.13558,0.9897,-0.04586,-0.09088,-1.11049,-0.11978
0.12624,0.99175,-0.02193,-0.08663,-1.16552,-0.10522
0.12655,0.99188,0.01235,-0.15672,-1.05311,-0.17707
0.13467,0.99083,0.01053,-0.26748,1.86911,0.51323
0.12734,0.9918,0.01004,-0.24276,1.68613,0.0945
0.12877,0.9913,0.02694,0.06541,1.06418,-0.21085
0.1296,0.99153,0.00798,0.47712,-0.3663,-0.02802
0.14167,0.98987,-0.00894,0.84664,-0.36531,-0.08841
0.14899,0.98853,-0.02429,0.56091,-0.67031,-0.32964
0.1493,0.98845,-0.02558,0.09066,0.09121,-0.26581
0.14424,0.98946,-0.01248,0.04883,0.61739,0.08639
0.13903,0.99028,0.00101,0.05643,0.39844,0.09749
0.14441,0.98951,0.00172,0.04032,-0.06414,0.05486
0.15112,0.98844,-0.01148,0.05016,-0.24644,0.02879
0.15918,0.98668,-0.03342,-0.15051,-0.38513,0.14947
0.16765,0.98364,-0.0659,-0.28853,-0.61819,0.26481
0.17363,0.97872,-0.10926,-0.30319,-0.74501,0.24085
0.18113,0.97055,-0.15877,-0.21613,-0.44739,-0.07557
0.20072,0.96098,-0.1903,-0.10765,0.03456,0.0944
0.23378,0.94744,-0.21839,0.09049,0.4398,0.10279
0.2631,0.93324,-0.24458,0.22727,0.38598,0.0502
0.28153,0.92434,-0.25755,0.20084,0.8697,-0.60671
0.29016,0.9229,-0.25307,0.06641,1.312,-0.45546
0.29379,0.92363,-0.24613,-0.21538,0.29017,-0.38786
0.29109,0.92756,-0.23428,-0.06482,-0.25083,-0.19052
0.28002,0.93473,-0.21878,0.04793,-0.34235,-0.05766
0.25936,0.94497,-0.19939,0.12778,-0.14968,-0.14584
0.22959,0.95835,-0.16982,0.24473,0.19436,-0.26276
0.19841,0.97014,-0.13945,0.19469,0.27755,-0.22407
0.17742,0.97749,-0.11412,0.02353,0.03098,-0.18895
0.16302,0.98256,-0.08937,-0.10982,-0.32916,0.01494
0.15129,0.98609,-0.06879,-0.08025,-0.63303,0.1106
0.14078,0.98856,-0.05399,-0.05628,-0.83922,0.21752
0.12936,0.99057,-0.04489,-0.04496,-1.10177,0.15116
0.11939,0.99236,-0.03087,-0.17219,-1.41143,-0.20761
0.11955,0.99282,-0.00194,-0.15422,-0.48124,-0.33894
0.12948,0.99157,0.00163,-0.15054,1.69454,0.69785
0.12807,0.99167,0.01364,-0.09609,1.9491,0.02397
0.1243,0.99177,0.03053,-0.21451,1.05361,-0.08719
0.1248,0.99213,0.00942,0.34431,-0.41095,0.10401
0.14285,0.98962,-0.01517,0.51055,-0.29616,0.0481
0.15263,0.98755,-0.03791,0.36469,-0.85294,-0.44059
0.15125,0.98757,-0.0427,0.23389,0.13644,-0.31756
0.14374,0.98911,-0.03127,0.28466,0.54853,-0.10155
0.13828,0.99023,-0.01782,0.21269,0.2564,-0.01369
0.13636,0.99055,-0.01406,0.21364,-0.13107,-0.00291
0.13569,0.9906,-0.01711,0.28298,-0.11844,-0.06325
0.134,0.99067,-0.02472,0.25327,-0.11112,0.00169
0.13144,0.99026,-0.04571,-0.0163,-0.45125,0.0843
0.12826,0.98879,-0.0764,-0.11501,-0.51877,0.18556
0.12783,0.98512,-0.11486,-0.1807,-0.38267,0.03593
0.14131,0.97791,-0.15399,-0.1775,0.11538,-0.05949
0.16912,0.96842,-0.18318,-0.11757,0.50921,0.15892
0.19668,0.95881,-0.2049,0.20049,0.5333,-0.00766
0.21251,0.95308,-0.21555,0.50609,0.58574,-0.28152
0.22087,0.94965,-0.22222,0.09744,1.02428,-0.29972
0.23625,0.9458,-0.22279,-0.11008,0.78616,-0.29169
0.25112,0.94235,-0.22113,-0.20842,0.22247,-0.2484
0.25583,0.94154,-0.21921,0.03929,-0.23965,0.04407
0.24738,0.94454,-0.21598,0.07516,-0.28362,0.04334
0.23154,0.95025,-0.20836,0.07091,-0.18941,-0.01422
0.21246,0.95738,-0.19563,-0.04662,-0.05835,-0.04981
0.19105,0.96528,-0.1781,-0.06582,-0.07063,-0.03976
0.1667,0.97318,-0.15853,-0.01919,-0.12197,-0.02073
0.13926,0.98,-0.14212,0.05469,-0.18355,0.03029
0.11008,0.98574,-0.12725,-0.00043,-0.14425,0.11234
0.08186,0.99,-0.1149,-0.07339,0.03863,-0.07233
0.05637,0.99283,-0.10537,-0.1635,0.04318,-0.27542
0.04045,0.99425,-0.0991,-0.16813,0.0039,-0.09234
0.03548,0.99339,-0.10917,-0.08295,-0.28809,-0.16753
0.03537,0.99217,-0.11976,0.00153,-0.41885,-0.15737
0.03717,0.99093,-0.12912,0.09054,-0.47669,-0.13393
0.0433,0.98947,-0.13805,0.24434,-0.46276,-0.24653
0.05001,0.98843,-0.14318,0.16782,-0.50529,-0.36348
0.05456,0.98775,-0.14617,0.14906,-0.48509,-0.35879
0.05857,0.98696,-0.14988,0.16903,-0.50071,-0.24554
0.06438,0.98566,-0.15594,0.14529,-0.48771,-0.24849
0.07552,0.9839,-0.16197,0.02325,-0.32887,-0.21375
0.08935,0.98108,-0.17172,0.20344,1.09079,0.5488
0.09343,0.98014,-0.17489,0.05009,1.27405,0.68032
0.07589,0.98534,-0.15277,-0.47787,0.63587,0.20393
0.04495,0.98964,-0.13634,0.26937,2.33885,0.66997
0.02925,0.9906,-0.13361,0.637,0.10605,0.95414
0.0456,0.98765,-0.14989,0.28768,-0.07497,0.1426
0.05015,0.9864,-0.1565,-0.70663,0.47313,0.25945
0.0373,0.99126,-0.12652,-0.6894,0.59909,0.25101
0.02445,0.99616,-0.08405,-0.21441,0.86453,0.44718
0.02044,0.99872,-0.04612,0.54699,0.44248,0.11853
0.01791,0.99969,-0.01733,0.32611,0.10371,0.11947
0.01196,0.99986,0.0112,0.15002,0.0405,0.06681
-0.00186,0.9993,0.03725,-0.08055,-0.15985,0.05077
-0.01784,0.99785,0.06302,-0.10729,-0.34877,0.04672
-0.03084,0.99592,0.08471,-0.10742,-0.39802,0.00902
-0.04214,0.99416,0.0993,-0.05151,-0.37018,-0.04089
-0.05141,0.99242,0.11155,0.05464,-0.28863,-0.13489
-0.05883,0.99035,0.12548,0.22258,-0.29694,-0.19148
-0.06501,0.9882,0.13862,0.25239,-0.23224,-0.20706
-0.07059,0.9869,0.14506,0.22273,-0.12201,-0.25173
-0.07728,0.98626,0.14597,0.29788,-0.00948,-0.19631
-0.08538,0.98549,0.14668,0.36734,0.0199,-0.1606
-0.09397,0.98451,0.14798,0.51929,-0.05228,-0.19784
-0.10002,0.98356,0.15031,0.742,-0.12513,-0.15425
-0.1018,0.98307,0.15232,0.75854,-0.09908,-0.19734
-0.099,0.9836,0.15072,0.5699,-0.01877,0.00999
-0.09052,0.9855,0.14349,0.21885,0.19086,0.08379
-0.07349,0.99,0.12037,-0.04385,0.44069,0.11779
-0.04594,0.99471,0.09186,0.05319,0.3638,0.39665
-0.01193,0.9982,0.05865,0.05775,0.32832,0.4573
0.02116,0.99961,0.01812,-0.01953,0.567,0.25663
0.05214,0.99842,-0.02084,-0.11521,0.66972,-0.07959
0.08308,0.99549,-0.04579,-0.23526,0.58212,0.13204
0.11232,0.99091,-0.07398,-0.25152,0.43655,0.09454
0.13694,0.98534,-0.10173,-0.03776,0.19781,0.13342
0.16031,0.97858,-0.12914,0.06603,-0.11772,-0.04351
0.1829,0.97076,-0.15545,0.14335,0.15934,0.07555
0.19526,0.96311,-0.18515,0.13538,-0.0696,0.22617
0.20809,0.95554,-0.20888,0.18209,-0.10818,0.21887
0.21679,0.94921,-0.22804,0.1455,-0.05341,0.14241
0.22298,0.94436,-0.24179,0.13093,-0.02907,0.19225
0.22837,0.94036,-0.25211,0.14497,-0.16169,0.28704
0.23267,0.93736,-0.25924,0.10085,-0.3611,0.31721
0.23378,0.93594,-0.26337,0.12909,-0.45475,0.37722
0.22669,0.93716,-0.26519,-0.08419,-0.19823,0.40416
0.2164,0.94011,-0.26336,-0.23133,-0.0106,0.37904
0.20634,0.94318,-0.26043,-0.25074,0.08007,0.3689
0.19602,0.94513,-0.26134,-0.26593,0.1358,0.2983
0.18327,0.94749,-0.26205,-0.12515,-0.06561,0.14877
0.16728,0.95103,-0.2599,-0.0494,-0.16771,0.00946
0.15008,0.9544,-0.25805,0.03419,-0.20852,-0.03558
0.1366,0.9573,-0.25479,0.17072,-0.09258,0.14499
0.12856,0.95788,-0.25676,0.22681,0.06734,0.1768
0.12885,0.956,-0.26355,0.29799,0.40083,0.12775
0.13663,0.95428,-0.26585,0.24735,0.44515,-0.08066
0.14786,0.95292,-0.26471,0.2315,0.30978,-0.13026
0.16203,0.94962,-0.26825,0.26645,-0.06847,-0.10968
0.17696,0.94596,-0.27173,0.37388,-0.38909,0.06447
0.18525,0.94398,-0.27309,0.34542,0.21558,0.24181
0.18631,0.94404,-0.27217,0.36576,0.38169,0.33974
0.18513,0.94742,-0.26099,-0.31169,0.46322,0.32683
0.17742,0.95236,-0.24804,-0.25439,0.63698,0.23864
0.16083,0.95306,-0.25651,-0.1964,0.62422,0.52984
0.14558,0.95303,-0.2656,-0.07403,-0.20051,0.44919
0.12721,0.95355,-0.27303,-0.03714,-0.24802,0.41463
0.10903,0.95677,-0.26961,-0.11897,-0.24063,0.39365
0.09803,0.96231,-0.25365,-0.20273,0.14886,0.32292
0.09005,0.96728,-0.23718,-0.32051,0.34061,0.31148
0.0822,0.97127,-0.22332,-0.01154,0.19125,0.23075
0.08323,0.97414,-0.21004,0.16139,-0.04233,0.07022
0.08789,0.97733,-0.1926,-0.00303,-0.25536,0.13737
0.0861,0.98067,-0.17572,-0.00966,-0.30752,0.1414
0.07635,0.98385,-0.16187,0.02898,-0.27285,0.09134
0.06797,0.98694,-0.146,0.05509,-0.13813,0.09133
0.06477,0.98905,-0.13263,0.10226,-0.09692,0.03078
0.06619,0.98977,-0.12633,0.0995,-0.10315,-0.06733
0.07208,0.99,-0.12128,0.11305,-0.21283,-0.10618
0.07952,0.98975,-0.11857,0.08093,-0.28915,-0.08929
0.08585,0.98938,-0.11726,0.08498,-0.35985,-0.04743
0.09036,0.98914,-0.11591,0.10955,-0.31781,0.09803
0.0947,0.98867,-0.1164,0.12373,-0.30989,0.04719
0.09799,0.98775,-0.12143,0.05506,-0.34972,0.04468
0.09871,0.98762,-0.12187,0.05113,-0.28961,0.14636
0.09838,0.98765,-0.12188,0.15633,-0.02385,0.17982
0.09708,0.98729,-0.12579,0.21777,0.11685,0.17322
0.09769,0.98653,-0.13116,0.26943,0.07731,0.16418
0.10091,0.9852,-0.13858,0.1631,-0.1123,0.25705
0.10791,0.98238,-0.15255,0.0208,-0.28088,0.29567
0.11928,0.97699,-0.1768,-0.00997,-0.44588,0.44869
0.13456,0.96816,-0.21107,-0.18336,-0.41489,0.4875
0.1559,0.95332,-0.25859,-0.3616,0.09229,-0.16963
0.1904,0.93831,-0.28864,-0.2612,0.32316,0.14858
0.22594,0.92336,-0.31041,0.01265,0.52241,0.19341
0.24958,0.91063,-0.32934,0.02262,0.4823,-0.09633
0.27247,0.90199,-0.33491,-0.02267,0.62497,-0.06211
0.29007,0.89805,-0.33069,-0.09874,0.58157,-0.18476
0.30327,0.89804,-0.31866,0.02833,0.14686,-0.32246
0.31179,0.90058,-0.30288,0.08578,0.05067,-0.06992
0.31251,0.90506,-0.28845,-0.02173,-0.01138,-0.04918
0.30243,0.91233,-0.27601,0.24524,0.18088,-0.22526
0.27863,0.92429,-0.26085,0.26904,0.16892,-0.24042
0.24469,0.93882,-0.24236,0.36622,0.40327,-0.16897
0.21574,0.95063,-0.22305,0.21392,0.20095,-0.03394
0.20228,0.95781,-0.20413,-0.04123,-0.14783,0.00712
0.19425,0.96268,-0.18844,-0.15832,-0.44068,0.12204
0.18324,0.96708,-0.17656,-0.12529,-0.75561,0.16624
0.16747,0.9718,-0.16599,-0.00642,-1.06419,0.19006
0.1462,0.978,-0.14877,0.04348,-1.35236,0.07816
0.12434,0.98485,-0.12081,-0.12931,-1.41384,0.1384
0.11552,0.98898,-0.09252,-0.16655,-0.32838,-0.06286
0.1181,0.98813,-0.09818,-0.24207,1.54559,0.58573
0.1175,0.98867,-0.09331,-0.12638,2.05693,-0.25964
0.12254,0.98862,-0.0872,-0.26309,2.24255,-0.07521
0.131,0.98695,-0.09356,0.13206,-0.41049,0.11789
0.14048,0.98229,-0.12397,0.47595,-0.5694,0.02871
0.13918,0.97965,-0.14462,0.47937,-0.9702,-0.34782
0.13847,0.98124,-0.13414,0.33992,0.25578,-0.1867
0.1339,0.9849,-0.10966,0.31369,1.0746,0.29081
0.13269,0.98683,-0.09251,0.06546,0.18638,0.21383
0.14043,0.98578,-0.09227,-0.12065,-0.14891,0.19597
0.14742,0.98354,-0.10442,-0.08536,-0.08573,0.15188
0.15046,0.97988,-0.13114,-0.21688,-0.20748,0.22285
0.15177,0.97464,-0.16441,-0.20832,-0.47521,0.23727
0.15697,0.96687,-0.20131,-0.12711,-0.64187,0.20878
0.17448,0.95665,-0.23319,-0.08407,-0.61569,0.21074
0.20219,0.94341,-0.26283,-0.15317,-0.46023,0.12627
0.23096,0.9282,-0.29172,-0.20753,-0.29613,0.12259
0.25709,0.91134,-0.32148,-0.22192,0.37682,0.23253
0.2734,0.89531,-0.35167,0.22378,0.70186,0.08518
0.27707,0.8908,-0.36014,0.06453,0.74692,-0.43267
0.28383,0.89329,-0.34852,-0.19895,0.88561,-0.46708
0.28641,0.89554,-0.34055,-0.09485,0.17384,-0.18474
0.28068,0.90041,-0.33239,-0.14596,-0.23671,-0.17155
0.27016,0.9094,-0.31623,-0.01919,-0.33483,-0.08203
0.25726,0.92038,-0.29446,0.33042,0.10028,-0.16103
0.23421,0.93315,-0.27271,0.41536,0.28412,-0.19958
0.20278,0.94652,-0.25095,0.38965,0.25278,-0.22817
0.17757,0.95838,-0.22356,0.1688,0.11056,-0.04785
0.16213,0.96692,-0.1969,-0.19057,-0.31478,0.19705
0.15198,0.97171,-0.18076,-0.19851,-0.48737,0.18126
0.14084,0.97495,-0.17212,-0.15806,-0.76363,0.17851
0.12526,0.97969,-0.15655,-0.08854,-1.01528,0.26899
0.11418,0.98473,-0.13139,-0.14203,-1.00562,0.30856
0.11079,0.98539,-0.12936,-0.07466,-0.40221,-0.05552
0.11914,0.98211,-0.14577,0.03215,1.328,0.39954
0.12196,0.98183,-0.14535,0.28229,1.56216,-0.4789
0.12578,0.98158,-0.14381,-0.09205,1.42857,0.39558
0.1478,0.97867,-0.1427,0.44003,-0.23021,0.00401
0.15122,0.97605,-0.15638,0.52148,-0.50747,-0.13483
0.15192,0.9762,-0.15478,0.47159,-0.25447,-0.10726
0.14555,0.97935,-0.14031,0.14678,0.6988,0.07582
0.13668,0.98343,-0.11911,-0.14222,0.18709,0.10564
0.13665,0.98568,-0.09874,-0.14219,0.18483,0.08527
0.14004,0.98576,-0.0931,-0.17816,-0.05468,0.12534
0.14147,0.98454,-0.10326,-0.16439,-0.16804,0.20528
0.14374,0.98123,-0.12852,-0.28833,-0.45477,0.33222
0.1478,0.97566,-0.16198,-0.37868,-0.81964,0.27398
0.15544,0.96788,-0.19759,-0.25909,-0.89253,0.28827
0.17236,0.95792,-0.22952,-0.17163,-0.79755,0.24728
0.19528,0.94535,-0.26111,-0.06996,-0.58761,0.09053
0.22455,0.92973,-0.29185,-0.00428,-0.00349,0.04433
0.26038,0.91051,-0.32119,0.22555,0.77754,-0.05404
0.28645,0.89315,-0.34673,0.55603,0.78483,0.16367
0.29496,0.88879,-0.35078,0.26311,0.43279,-0.33196
0.30302,0.89225,-0.33478,-0.21899,0.65805,-0.27997
0.30926,0.89475,-0.32214,-0.19313,0.47053,-0.44004
0.30449,0.89984,-0.31237,-0.01596,0.02398,-0.13016
0.29176,0.90899,-0.29766,0.00871,-0.14569,-0.05912
0.27357,0.92072,-0.27825,0.0642,-0.0592,-0.03434
0.25163,0.93368,-0.25479,0.24556,0.13639,-0.04866
0.22388,0.94801,-0.22614,0.25746,0.27933,-0.05291
0.20085,0.96052,-0.19249,0.02347,0.04432,0.06119
0.18302,0.96886,-0.16678,-0.064,-0.35347,0.1599
0.16583,0.97345,-0.15774,-0.00772,-0.70615,0.15912
0.14824,0.97723,-0.15182,0.03784,-1.07234,0.13776
0.13581,0.98126,-0.13668,-0.03189,-1.32089,0.19129
0.14014,0.98335,-0.11564,-0.34979,-1.19672,0.03441
0.1561,0.98136,-0.1121,-0.28434,1.2557,0.37249
0.17162,0.97837,-0.11547,-0.11531,2.45594,0.14982
0.1745,0.9794,-0.10157,0.30484,2.55218,-0.22342
0.18787,0.97631,-0.10732,0.20827,-0.07928,-3e-05
0.18488,0.97503,-0.12301,0.49426,-0.34025,-0.06141
0.18157,0.9737,-0.13762,0.58188,-0.33477,-0.09301
0.18105,0.97381,-0.13755,0.27876,0.52789,-0.15435
0.17952,0.97493,-0.13146,0.23093,0.62598,-0.11706
0.18138,0.975,-0.1283,0.11389,0.17567,0.11758
0.18505,0.97342,-0.13489,-0.113,-0.3901,0.36222
0.19159,0.96849,-0.15913,-0.27482,-0.48509,0.36702
0.20045,0.95957,-0.19759,-0.35736,-0.53995,0.28408
0.21116,0.94886,-0.23465,-0.23941,-0.51338,0.20264
0.2238,0.9377,-0.26577,-0.21141,-0.49484,0.2769
0.2337,0.92569,-0.29746,-0.14882,-0.58117,0.22317
0.24885,0.91298,-0.32332,-0.14669,-0.16651,0.06935
0.27725,0.89597,-0.34693,0.04546,0.52656,0.06319
0.30362,0.8785,-0.36885,0.47338,1.32354,-0.4819
0.31015,0.87816,-0.3642,0.26134,1.38867,-0.28423
0.30522,0.88553,-0.35024,-0.36299,0.51426,-0.3218
0.30188,0.89307,-0.33361,-0.23212,0.24529,-0.26507
0.29399,0.90165,-0.31716,0.05485,0.05564,-0.16569
0.27356,0.91433,-0.2986,0.20372,0.22562,-0.15309
0.24372,0.93023,-0.27436,0.27809,0.31136,-0.03159
0.21422,0.9436,-0.25243,0.21644,0.11591,0.05232
0.1966,0.953,-0.23053,0.02142,-0.20017,0.11654
0.18816,0.96007,-0.20701,-0.19298,-0.32865,0.20637
0.17848,0.96571,-0.18855,-0.26327,-0.49604,0.19986
0.16216,0.97077,-0.17692,-0.12268,-0.76614,0.17977
0.13916,0.97666,-0.16361,0.05335,-1.01923,0.14893
0.11546,0.9823,-0.14747,0.1075,-1.27684,-0.02703
0.10393,0.98641,-0.12723,-0.16861,-1.31429,0.00239
0.11504,0.98797,-0.1033,-0.24198,-0.56845,-0.11688
0.14142,0.9836,-0.11193,-0.18614,1.28477,0.26818
0.15403,0.98146,-0.11403,0.60725,2.14188,-0.02964
0.1549,0.98157,-0.11195,0.10105,0.48683,-0.21316
0.15542,0.98065,-0.11907,0.1912,0.24781,0.09092
0.16647,0.97859,-0.12102,0.46507,-0.13714,-0.00302
0.16974,0.97681,-0.13048,0.36529,-0.20974,-0.11536
0.17394,0.97495,-0.13858,0.20335,0.26354,-0.13639
0.17485,0.97409,-0.14346,0.15083,0.20925,0.22554
0.17837,0.97229,-0.15113,0.05297,-0.00123,0.27294
0.18383,0.96818,-0.16981,-0.1279,-0.40939,0.3993
0.19498,0.95988,-0.20151,-0.3669,-0.59752,0.42252
0.21294,0.9475,-0.23852,-0.37749,-0.64262,0.24984
0.23204,0.9333,-0.27404,-0.17123,-0.41759,0.15054
0.24596,0.91789,-0.31142,-0.13087,-0.31976,0.14566
0.25939,0.90192,-0.34534,-0.05075,0.09701,0.15866
0.28016,0.88361,-0.37516,0.46253,0.79153,-0.00067
0.29112,0.86903,-0.40005,0.5873,0.8713,-0.10769
0.28939,0.87131,-0.39633,-0.15266,0.90241,-0.44086
0.28868,0.87926,-0.37889,-0.4496,0.40054,-0.35222
0.28416,0.88633,-0.36562,-0.30968,0.18412,-0.33288
0.26925,0.8949,-0.35588,0.10592,0.0007,-0.09224
0.24974,0.90744,-0.33791,0.35597,0.16258,-0.10471
0.22999,0.9211,-0.31413,0.45376,0.24334,-0.14099
0.20911,0.93438,-0.28846,0.32969,0.09918,-0.04279
0.1925,0.94574,-0.26175,-0.00308,-0.06,-0.05023
0.17875,0.95595,-0.23282,-0.24142,-0.09523,0.08962
0.16387,0.96466,-0.20636,-0.31882,-0.20556,0.1559
0.14747,0.97084,-0.18899,-0.21908,-0.46028,0.20089
0.13208,0.97524,-0.17737,-0.05923,-0.83069,0.30771
0.1197,0.97958,-0.16154,-0.10209,-1.18631,0.30038
0.11042,0.98432,-0.13754,-0.23323,-1.3605,0.14256
0.10372,0.98865,-0.10866,-0.31136,-0.65131,-0.24318
0.0937,0.98987,-0.10667,-0.29316,1.55049,0.56184
0.08326,0.9913,-0.10197,-0.20595,2.2277,0.18077
0.09642,0.9914,-0.08848,0.55066,-0.56785,-0.18543
0.10969,0.98881,-0.1011,0.67078,-0.31855,-0.68812
0.10506,0.9877,-0.11579,0.63445,1.3134,0.37589
0.10499,0.98948,-0.09949,0.49826,-0.08171,0.15791
0.10582,0.98944,-0.09907,0.38331,-0.22368,0.04501
0.09546,0.99047,-0.09928,0.24154,-0.00762,0.07809
0.0858,0.99242,-0.088,0.03801,0.14644,0.14298
0.0757,0.99449,-0.07249,0.04858,0.024,0.05631
0.06163,0.99643,-0.05776,0.1944,0.07527,0.00843
0.04626,0.99776,-0.04834,0.26898,0.07417,0.06353
0.03203,0.9984,-0.04661,0.29243,-0.07324,0.12391
0.01722,0.99848,-0.05245,0.26109,-0.14513,-0.02303
0.00325,0.9981,-0.06145,0.28547,-0.18396,0.05326
-0.00849,0.99751,-0.06994,0.28968,-0.26432,0.1128
-0.01785,0.99629,-0.08419,0.24875,-0.3565,0.17298
-0.02519,0.99405,-0.10593,0.04751,-0.53142,0.24695
-0.02637,0.99034,-0.13615,-0.16565,-0.26277,0.172
-0.01359,0.98602,-0.16608,-0.31157,0.11321,0.19333
0.01048,0.98187,-0.18927,0.02139,0.45336,0.18631
0.03593,0.97727,-0.20894,0.36927,0.71159,0.2246
0.0518,0.97377,-0.22155,0.39917,0.81277,0.10494
0.06415,0.97167,-0.22745,0.14854,1.08047,0.20642
0.07849,0.9688,-0.23506,-0.03295,1.1719,0.10791
0.09817,0.96588,-0.23967,-0.04351,0.48694,0.09442
0.12148,0.96183,-0.2452,0.11522,0.25788,0.1531
0.14104,0.95775,-0.25063,0.16961,0.20929,0.19701
0.15583,0.95501,-0.25232,0.23539,0.0333,0.13833
0.16578,0.95381,-0.25051,0.24809,-0.01613,0.14184
0.17129,0.95398,-0.24614,0.27758,-0.16536,0.22305
0.17234,0.95536,-0.23995,0.26893,-0.35205,0.38489
0.16565,0.95778,-0.235,0.17586,-0.34739,0.41299
0.15199,0.96044,-0.23335,-0.04805,-0.32722,0.43893
0.13296,0.96296,-0.23459,-0.19098,-0.41034,0.38904
0.10854,0.96552,-0.2366,-0.25427,-0.34402,0.31918
0.08275,0.96777,-0.23783,-0.2276,-0.27714,0.25821
0.05728,0.96879,-0.24118,0.02191,-0.09429,-0.15801
0.03286,0.97029,-0.23972,0.26251,-0.00921,-0.22707
0.01321,0.97159,-0.23628,0.34028,0.00744,-0.11386
0.00376,0.96942,-0.24538,0.29425,-0.10321,-0.01083
0.00595,0.96375,-0.26672,0.20564,-0.01417,-0.08913
0.01374,0.95924,-0.28225,0.23316,0.09113,-0.15113
0.02264,0.95897,-0.28261,0.2603,-0.08357,-0.16694
0.0289,0.96156,-0.27307,0.1111,-0.16415,-0.26744
0.03152,0.9607,-0.27578,0.54401,0.86295,0.07558
0.04165,0.95917,-0.27975,0.301,0.98055,0.81183
0.04634,0.96612,-0.25388,-0.05799,0.67507,0.32041
0.03686,0.96546,-0.25793,-0.16308,-0.05504,0.29265
0.02767,0.95947,-0.28043,0.01794,-0.16579,0.54532
0.01769,0.95635,-0.29169,0.25599,-0.33328,0.60976
0.00255,0.95635,-0.29221,0.34917,-0.13785,0.50124
-0.02111,0.9601,-0.27884,0.21056,0.21523,0.39299
-0.04273,0.9656,-0.25651,0.15412,0.3887,0.19352
-0.05852,0.97089,-0.23227,0.16643,0.34692,0.20125
-0.0685,0.97626,-0.20547,0.29183,0.05548,0.18504
-0.07589,0.98103,-0.17841,0.28661,-0.12716,0.10593
-0.08665,0.98515,-0.14824,0.25713,-0.19572,0.07815
-0.10295,0.98781,-0.11672,0.14879,-0.18616,0.10137
-0.12045,0.98889,-0.0871,0.06918,-0.09184,0.16454
-0.13343,0.98928,-0.05926,0.06588,-0.08181,0.15805
-0.1416,0.98944,-0.03074,0.05923,-0.07605,0.13004
-0.14768,0.98903,-0.00164,0.04359,-0.1042,0.01365
-0.15275,0.98793,0.02567,0.02324,-0.09087,-0.04532
-0.15747,0.9863,0.04919,0.05639,-0.0655,-0.09138
-0.16088,0.98462,0.0681,0.26769,-0.0361,-0.10959
-0.1623,0.98328,0.08259,0.35223,-0.06065,-0.08609
-0.16427,0.98197,0.09348,0.36046,-0.09582,-0.05888
-0.16834,0.98015,0.10473,0.31459,0.03154,-0.1166
-0.17349,0.97743,0.12052,0.26308,0.21423,-0.09305
-0.17675,0.97494,0.13507,0.44684,0.11653,0.08522
-0.17845,0.97364,0.14208,0.53508,0.00995,0.13704
-0.17824,0.9737,0.14189,0.51925,0.13242,0.20718
-0.17124,0.97589,0.13531,0.29749,0.27353,0.3029
-0.15309,0.98085,0.12034,0.17489,0.34581,0.31486
-0.12254,0.98835,0.0902,0.03412,0.41716,0.09772
-0.08562,0.99522,0.04698,-0.08445,0.0772,0.03032
-0.05107,0.99868,0.00511,-0.00689,0.01899,0.1084
-0.02254,0.99931,-0.02951,0.02701,0.04326,0.11992
0.00501,0.99842,-0.056,0.11173,0.24896,-0.01868
0.03318,0.99623,-0.08012,0.23003,0.29775,0.05676
0.0612,0.99277,-0.10327,0.23276,0.25411,0.08597
0.08555,0.98882,-0.12213,0.25512,-0.00359,1.00981
0.11204,0.98367,-0.14086,-0.07058,0.07726,-0.41749
0.13141,0.97901,-0.15574,-0.0123,0.12519,0.0492
0.14847,0.97453,-0.16807,-0.11821,-0.07073,0.15193
0.16539,0.96956,-0.18053,-0.04112,-0.18804,0.11569
0.17761,0.96522,-0.19185,0.02932,-0.2336,0.17369
0.18642,0.96189,-0.20004,0.02716,-0.30239,0.16751
0.19351,0.95998,-0.20244,-0.00988,-0.42918,0.11037
0.19633,0.96019,-0.1987,-0.01234,-0.4522,0.10426
0.1937,0.9621,-0.19193,-0.03966,-0.41884,0.15036
0.18643,0.96469,-0.18603,-0.07993,-0.44557,0.17568
0.17531,0.96754,-0.18198,-0.07894,-0.42094,0.20165
0.16302,0.97013,-0.17966,0.0319,-0.24451,0.13728
0.15061,0.97233,-0.17856,0.08381,-0.13192,-0.03908
0.13831,0.97484,-0.17479,0.11549,0.01478,-0.12172
0.12817,0.97725,-0.16894,0.12952,0.09091,-0.00461
0.11837,0.97916,-0.16501,0.03753,0.13868,0.036
0.10658,0.98196,-0.15617,0.0124,0.18016,-0.01526
0.09515,0.98582,-0.13817,0.05899,0.17781,-0.0236
0.08553,0.98912,-0.11969,0.10562,0.02498,0.00057
0.079,0.99119,-0.10628,0.15397,-0.27714,-0.00444
0.07727,0.99245,-0.09518,0.18591,-0.57786,0.05102
0.07906,0.99341,-0.0829,0.16995,-0.91527,0.04817
0.07875,0.99489,-0.06308,-0.04383,-1.25017,-0.12134
0.07796,0.99631,-0.03572,-0.22354,-1.13494,-0.07797
0.07943,0.99671,-0.01616,-0.30877,-0.03821,0.24226
0.09015,0.99565,-0.02341,-0.09294,1.54944,0.47059
0.09448,0.9955,-0.00648,0.08655,2.04074,-0.10063
0.11147,0.99376,0.00211,-0.11438,0.19294,0.09678
0.11554,0.99297,-0.02554,-0.21085,0.25743,0.22636
0.11572,0.99197,-0.05104,0.1867,-0.29295,-0.03747
0.11555,0.99147,-0.06031,0.39032,-0.68034,-0.25414
0.11605,0.99172,-0.05498,0.23775,-0.19249,-0.42916
0.11734,0.99235,-0.03828,0.34361,0.78513,-0.07185
0.11758,0.99286,-0.01981,0.06487,0.29579,0.10487
0.12043,0.99253,-0.01914,0.02979,0.08457,0.08679
0.12122,0.99219,-0.02921,0.10822,-0.0666,0.03856
0.12233,0.99135,-0.04757,0.05666,-0.31578,0.0945
0.12555,0.98889,-0.07955,-0.13076,-0.43896,0.11481
0.13201,0.9839,-0.1205,-0.26325,-0.61314,0.09287
0.14779,0.97646,-0.1571,-0.21033,-0.55629,0.06749
0.17522,0.96671,-0.18644,-0.19677,-0.30796,0.05729
0.20857,0.9548,-0.21181,-0.18279,0.04955,0.02371
0.2402,0.94224,-0.23342,0.33316,0.38618,0.24305
0.26509,0.92948,-0.25649,0.33499,0.32391,-0.37701
0.27228,0.92764,-0.25564,0.06062,1.07049,-0.40457
0.28603,0.92802,-0.23865,-0.11823,0.93086,-0.58427
0.29762,0.92789,-0.22459,-0.22469,0.39077,-0.43957
0.29802,0.93088,-0.21127,0.06507,-0.22127,-0.11128
0.28684,0.93725,-0.19819,0.13727,-0.09138,-0.14213
0.26443,0.94835,-0.17523,0.33954,0.19658,-0.25026
0.23146,0.96168,-0.14691,0.36074,0.29915,-0.23663
0.20123,0.97198,-0.1215,0.16118,0.11095,-0.1766
0.18447,0.97819,-0.09549,0.0198,-0.09391,-0.11781
0.1738,0.98207,-0.07296,-0.28751,-0.39899,0.08753
0.15871,0.9855,-0.06,-0.35213,-0.62615,0.16288
0.14147,0.98849,-0.05357,-0.2687,-0.76397,0.19451
0.12315,0.99147,-0.04253,0.07965,-1.24457,0.07298
0.10549,0.99419,-0.0212,0.1083,-1.51604,-0.08389
0.10016,0.99495,0.00636,-0.2191,-1.07501,-0.50056
0.10939,0.99398,0.00596,-0.1223,1.28251,0.10793
0.11103,0.99372,0.01353,0.36797,3.0319,-0.31536
0.11375,0.99306,0.02981,0.14608,1.11003,0.26006
0.11094,0.99373,0.01341,0.13597,0.66383,0.0161
0.11186,0.99371,-0.00343,0.28701,-0.06824,-0.02817
0.11919,0.99259,-0.02327,0.40957,-0.56568,-0.19138
0.12269,0.9918,-0.03558,0.28587,-0.33973,-0.4767
0.12555,0.99153,-0.03312,0.36352,0.59387,-0.1744
0.12816,0.99149,-0.02259,0.27704,0.67204,0.08433
0.13403,0.99076,-0.02075,0.0517,-0.04517,0.02347
0.14093,0.98942,-0.03442,-0.02368,-0.16067,0.00973
0.14557,0.98795,-0.05243,-0.05705,-0.20716,0.07685
0.14941,0.98553,-0.08003,-0.18872,-0.39655,0.18702
0.15718,0.98056,-0.11744,-0.26483,-0.61003,0.14697
0.17313,0.97314,-0.1517,-0.28055,-0.552,0.13508
0.19993,0.96325,-0.17934,-0.30386,-0.26916,0.08631
0.23507,0.95006,-0.20523,-0.24199,0.2445,0.03852
0.26656,0.93669,-0.22706,0.10049,0.74884,0.03835
0.28265,0.9272,-0.24575,0.37862,0.44541,-0.10682
0.28475,0.92553,-0.24962,-0.05575,0.44671,-0.25376
0.28669,0.92697,-0.24191,-0.05769,0.44526,-0.26146
0.28503,0.93053,-0.22993,-0.04847,0.05731,-0.37317
0.27403,0.9381,-0.21184,0.11092,0.11676,-0.20339
0.25113,0.9479,-0.196,0.16963,0.16258,-0.15289
0.22277,0.95926,-0.17374,0.28297,0.04509,-0.24806
0.19546,0.96978,-0.14602,0.32064,-0.01105,-0.26303
0.17138,0.97806,-0.11837,0.06081,-0.31304,-0.00422
0.15379,0.98345,-0.09571,-0.19671,-0.58952,0.19196
0.14215,0.98667,-0.0792,-0.20346,-0.7686,0.19757
0.13112,0.98919,-0.06558,0.026,-1.1789,0.0464
0.11747,0.99183,-0.04968,-0.09665,-1.29937,-0.09251
0.11303,0.99337,-0.02059,-0.25084,-1.19401,-0.15318
0.12758,0.99182,0.00314,-0.01248,0.65606,-0.2068
0.14273,0.98972,0.00839,-0.01492,3.66766,-0.10631
0.1319,0.99029,0.04374,-0.12262,2.00888,0.42248
0.13066,0.99116,0.02298,0.07658,0.64414,-0.00511
0.1223,0.99246,-0.00746,0.54308,-0.24063,-0.16135
0.13324,0.99076,-0.02516,0.73521,-0.34112,-0.09767
0.14135,0.98926,-0.03712,0.83264,-0.64378,-0.34113
0.14209,0.98932,-0.03234,0.23272,0.78236,-0.18496
0.14005,0.98987,-0.02293,-0.00797,0.54981,0.11428
0.14305,0.98949,-0.02109,-0.04132,-0.20395,0.18323
0.14731,0.98853,-0.03302,-0.09597,-0.45646,0.14471
0.15549,0.98633,-0.0545,-0.2106,-0.44061,0.13339
0.16744,0.98214,-0.08573,-0.23026,-0.43173,0.16512
0.18172,0.975,-0.12783,-0.18555,-0.69329,0.1937
0.19831,0.96578,-0.16714,-0.15924,-0.72565,0.00973
0.22556,0.95478,-0.19365,-0.18414,-0.26101,-0.08401
0.26562,0.93946,-0.21645,0.16522,1.03942,-0.21571
0.29171,0.92732,-0.23449,0.37667,1.08922,-0.02781
0.29581,0.92435,-0.24098,0.20512,0.46544,-0.26531
0.29189,0.9262,-0.23862,-0.03526,0.28081,-0.27492
0.28837,0.93008,-0.22758,-0.22599,0.08161,-0.33907
0.28447,0.9352,-0.21088,-0.15599,0.03338,-0.33865
0.27489,0.94237,-0.19071,0.04792,0.16423,-0.19136
0.25516,0.95222,-0.16782,0.14061,0.29938,-0.18502
0.22565,0.96355,-0.14369,0.24965,0.19433,-0.18706
0.19636,0.97348,-0.11737,0.22716,-0.0796,-0.22415
0.17408,0.98042,-0.09197,0.03834,-0.41527,0.12728
0.15935,0.9845,-0.07313,-0.06427,-0.55486,0.17938
0.14541,0.98747,-0.06127,-0.12843,-0.6817,0.2086
0.12991,0.9902,-0.05112,-0.09752,-1.1151,0.17217
0.11286,0.99295,-0.03616,-0.12619,-1.26755,-0.13305
0.10394,0.99452,-0.01103,-0.17091,-1.25172,-0.19437
0.112,0.9937,-0.00392,-0.19496,0.76546,-0.23244
0.14024,0.98991,-0.02016,-0.28415,2.03686,0.6554
0.1473,0.98903,0.01094,-0.17941,0.28467,0.25401
0.15075,0.98855,-0.00669,0.20049,0.12919,-0.28254
0.14747,0.98846,-0.03445,0.46836,-0.0834,-0.13691
0.15414,0.98696,-0.04636,0.69946,-0.33515,-0.28773
0.16021,0.9859,-0.0482,0.41072,0.14628,-0.38434
0.15651,0.9869,-0.03904,0.21631,0.53975,-0.16956
0.14949,0.98839,-0.02703,0.01766,0.48491,0.07677
0.14739,0.98885,-0.02114,-0.09805,0.24051,0.10964
0.15052,0.98818,-0.02912,-0.19423,-0.28685,0.13397
0.15484,0.98684,-0.04644,-0.21295,-0.39944,0.09115
0.16308,0.98396,-0.07226,-0.20653,-0.40779,0.14048
0.1742,0.97904,-0.10554,-0.2479,-0.69203,0.2554
0.18794,0.97126,-0.14606,-0.17232,-0.83948,0.02663
0.20968,0.96135,-0.17844,-0.16064,-0.67642,-0.00107
0.24349,0.94911,-0.19973,-0.14228,0.12449,0.14611
0.28148,0.93403,-0.21989,0.00453,0.75942,-0.06327
0.31289,0.92107,-0.2318,0.19999,0.93976,-0.06828
0.3264,0.91544,-0.23545,0.22123,0.38219,-0.33303
0.32947,0.91606,-0.22864,0.05288,0.52611,-0.36609
0.32711,0.91929,-0.21889,0.02682,0.44098,-0.377
0.31709,0.92478,-0.21031,0.04793,0.32623,-0.33135
0.299,0.9336,-0.19746,0.19807,0.45433,-0.21097
0.27255,0.94551,-0.17809,0.26638,0.4024,-0.24223
0.24284,0.95786,-0.15337,0.27239,0.23046,-0.26014
0.21548,0.9679,-0.12931,0.23601,0.03617,-0.16412
0.19367,0.975,-0.10895,0.09472,-0.30617,0.04021
0.17556,0.97982,-0.09559,-0.04554,-0.60717,0.1516
0.15831,0.98335,-0.08918,-0.08955,-0.8947,0.12468
0.13967,0.9868,-0.08189,-0.06099,-1.1619,0.15321
0.12046,0.99019,-0.07079,-0.04064,-1.46561,0.09047
0.10687,0.99294,-0.05136,-0.11812,-1.78312,-0.19624
0.10861,0.99376,-0.02522,-0.3654,-0.446,-0.24211
0.12765,0.99142,-0.02796,-0.33547,0.42732,-0.06806
0.15117,0.98776,-0.03844,-0.33087,2.93831,0.33698
0.15208,0.98819,-0.01853,-0.28149,0.84852,0.53169
0.15589,0.98742,-0.02642,0.4555,-0.05163,-0.62321
0.15295,0.9871,-0.04726,0.69863,0.35351,0.05555
0.16197,0.98558,-0.04901,0.7507,0.08817,-0.0904
0.16164,0.98522,-0.05662,0.48787,-0.15141,-0.27086
0.15487,0.98579,-0.06499,0.38987,0.00142,-0.26267
0.14813,0.98685,-0.06466,0.30056,0.40298,-0.02816
0.14434,0.98775,-0.05925,0.15434,-0.06131,0.07113
0.14045,0.98804,-0.06363,0.15795,-0.24274,0.08572
0.13988,0.98762,-0.07098,-0.11663,-0.32763,0.17413
0.14422,0.98605,-0.08307,-0.04191,-0.20137,0.18457
0.14965,0.98314,-0.10502,-0.18121,-0.39946,0.10111
0.15925,0.97737,-0.13926,-0.24854,-0.36421,0.0203
0.18044,0.96919,-0.16768,-0.10086,0.20669,0.09789
0.21216,0.95846,-0.19063,0.24716,0.65241,-0.00404
0.23892,0.94856,-0.20773,0.41585,0.79352,-0.39858
0.25692,0.94319,-0.21069,0.45956,1.35477,-0.3471
0.27441,0.93761,-0.21351,-0.08618,0.39659,-0.23052
0.28603,0.93262,-0.22002,-0.05694,0.09267,-0.03309
0.29346,0.92967,-0.22269,-0.042,-0.00816,-0.02772
0.29394,0.92962,-0.22226,-0.00088,0.01568,-0.12328
0.28755,0.93252,-0.21847,0.03515,0.08459,-0.19419
0.27599,0.93709,-0.21373,-0.00182,0.09529,-0.1463
0.26203,0.94219,-0.20885,-0.05763,-0.09935,-0.05217
0.24622,0.94762,-0.20344,0.00878,-0.15427,0.06757
0.22503,0.95372,-0.19945,0.06818,-0.19635,0.1128
0.19685,0.96069,-0.19576,0.01398,-0.2657,0.04454
0.16513,0.96802,-0.18885,0.03549,-0.26354,-0.05607
0.13396,0.97506,-0.17692,0.03863,-0.02194,0.01314
0.10888,0.98003,-0.16639,-0.04451,0.01834,-0.07893
0.09183,0.9831,-0.15835,-0.07955,-0.08912,-0.21781
0.07944,0.98516,-0.15211,-0.03967,-0.11314,-0.17987
0.06882,0.98602,-0.15174,-0.00743,-0.28113,-0.17851
0.06028,0.98655,-0.1519,0.01103,-0.32789,-0.16945
0.05615,0.98711,-0.14985,0.02222,-0.28817,-0.21349
0.0554,0.98753,-0.14738,0.15446,-0.28654,-0.27589
0.05584,0.98804,-0.14373,0.23034,-0.28842,-0.2793
0.0568,0.98845,-0.14048,0.22672,-0.33235,-0.27178
0.05599,0.98886,-0.13788,0.14404,-0.43604,-0.12808
0.05384,0.98925,-0.13597,0.04602,-0.47625,-0.05669
0.0524,0.98957,-0.13415,-0.06342,-0.48081,0.02478
0.05496,0.9893,-0.13513,-0.29094,-0.19281,0.22462
0.06622,0.98874,-0.13421,-0.3958,0.2742,0.36695
0.0736,0.98596,-0.14984,-0.41991,1.13235,0.37317
0.0773,0.9834,-0.16412,-0.51718,1.24703,0.80082
0.0733,0.98056,-0.18201,-0.11502,0.00617,0.68674
0.06837,0.97989,-0.18744,0.22767,0.10608,-0.09824
0.06325,0.98244,-0.17555,0.63873,1.12415,0.12992
0.07138,0.98498,-0.15722,0.99052,0.87746,0.19848
0.07728,0.98784,-0.13491,0.57621,0.53343,0.03567
0.07206,0.9914,-0.10921,0.17895,0.56075,0.11797
0.05867,0.99544,-0.07518,-0.04105,0.41055,0.17828
0.04392,0.9982,-0.04078,-0.10985,0.20418,0.23014
0.03252,0.99942,-0.01021,-0.11696,0.05492,0.19488
0.02144,0.99961,0.01788,-0.16349,-0.23992,0.13019
0.01018,0.9989,0.04578,-0.16695,-0.31037,0.06506
-0.001,0.9976,0.06912,-0.14512,-0.37878,0.01313
-0.01079,0.99613,0.0872,-0.03785,-0.48026,0.00011
-0.01892,0.99442,0.10371,-0.02054,-0.5252,-0.01605
-0.02506,0.9927,0.1179,-0.02518,-0.51506,-0.04852
-0.02903,0.99151,0.12668,-0.0639,-0.33519,-0.14379
-0.03093,0.99108,0.1296,-0.01119,-0.29362,-0.16904
-0.03254,0.99108,0.12923,0.0474,-0.23887,-0.17462
-0.03545,0.99115,0.12788,0.22457,-0.02851,-0.22778
-0.03941,0.99105,0.12753,0.42056,0.01997,-0.20664
-0.04368,0.99092,0.12715,0.6015,-0.03158,-0.24294
-0.04512,0.99093,0.12653,0.61975,0.15084,-0.29984
-0.04188,0.99124,0.12528,0.45004,0.24812,-0.20725
-0.03538,0.99178,0.12293,0.29251,0.17842,-0.11291
-0.02757,0.99273,0.11715,0.18269,0.06275,0.10101
-0.01813,0.99479,0.10029,0.08678,0.11159,0.25635
0.00073,0.99797,0.06358,0.10422,0.18947,0.31329
0.03154,0.99943,0.0121,0.19074,0.30502,0.51607
0.05973,0.99727,-0.04343,0.11107,0.34519,0.55398
0.08464,0.99243,-0.08902,0.12292,1.16344,-0.09989
0.11061,0.98721,-0.11481,0.11742,1.25684,0.05725
0.13532,0.9801,-0.14521,0.08233,0.418,0.16027
0.16602,0.97192,-0.16675,0.13642,0.122,-0.14419
0.19042,0.96408,-0.18516,0.22609,0.07581,0.05003
0.20384,0.95635,-0.20939,0.31556,-0.13835,0.1362
0.20829,0.94967,-0.23395,0.16131,-0.3444,0.30074
0.20885,0.9444,-0.25396,0.06638,-0.28277,0.31611
0.21128,0.93927,-0.27042,0.08703,-0.17555,0.28211
0.21388,0.9349,-0.28324,0.08016,-0.14592,0.27996
0.21346,0.9328,-0.29036,0.16295,-0.14629,0.37895
0.20869,0.93261,-0.29441,0.11974,-0.19532,0.48261
0.20386,0.93325,-0.29578,0.01089,-0.15119,0.4957
0.19798,0.93521,-0.29358,-0.14425,-0.02012,0.46452
0.18974,0.93926,-0.28599,-0.26683,0.10069,0.40469
0.18055,0.94457,-0.27421,-0.34685,0.02559,0.33666
0.17073,0.94929,-0.264,-0.31055,-0.12112,0.34864
0.16001,0.95213,-0.26046,-0.16631,-0.15242,0.23784
0.14708,0.95474,-0.25854,-0.01494,-0.1245,0.04887
0.13141,0.95821,-0.25411,0.12763,-0.05867,-0.16254
0.11585,0.96207,-0.24699,0.26306,-0.03842,-0.13772
0.10765,0.96324,-0.24611,0.32261,0.03348,0.11049
0.11193,0.96018,-0.25597,0.33352,0.17449,0.11045
0.12274,0.95781,-0.25988,0.31781,0.19664,0.0613
0.13325,0.95798,-0.25401,0.32753,0.00043,0.00845
0.14184,0.9578,-0.24999,0.44213,-0.14341,-0.18709
0.15323,0.95663,-0.24773,0.53107,0.34918,0.14607
0.16425,0.9569,-0.2395,0.26895,0.80073,0.34123
0.1598,0.96226,-0.22024,-0.374,0.71808,0.42743
0.14837,0.96667,-0.20865,-0.60624,0.23156,0.18919
0.13856,0.96566,-0.21975,-0.14347,-0.17335,0.21195
0.12755,0.96508,-0.22881,-0.03001,-0.26977,0.39321
0.11162,0.96618,-0.23247,-0.00636,-0.35862,0.48773
0.08819,0.96969,-0.22785,-0.13315,-0.10748,0.4284
0.06633,0.97479,-0.21301,-0.19365,0.12245,0.31368
0.05737,0.97992,-0.19094,-0.30708,0.29512,0.1201
0.0655,0.98406,-0.16533,-0.03755,-0.07441,0.1747
0.07933,0.98637,-0.14415,0.05344,-0.16316,0.17409
0.08331,0.9881,-0.1293,-0.02533,-0.16765,0.08322
0.07636,0.99045,-0.1148,-0.0176,-0.19527,0.14825
0.06667,0.99251,-0.10235,0.04585,-0.16278,0.15922
0.06201,0.99352,-0.0952,0.00423,-0.17657,0.18104
0.06473,0.99361,-0.09243,-0.06412,-0.23543,0.03401
0.07197,0.99302,-0.09338,-0.08325,-0.20211,-0.04987
0.07886,0.99217,-0.09683,-0.07032,-0.18037,-0.041
0.08479,0.99124,-0.10121,-0.0457,-0.24713,-0.0049
0.09064,0.99028,-0.10547,-0.00629,-0.29587,-0.04408
0.09462,0.98955,-0.10881,0.09298,-0.25335,0.01584
0.09611,0.98955,-0.10742,0.17749,-0.16871,0.10662
0.09325,0.98999,-0.10596,0.24295,-0.06861,0.14149
0.08885,0.98989,-0.11057,0.27384,-0.00591,0.13396
0.08741,0.98911,-0.11837,0.19166,-0.02695,0.05597
0.09086,0.98702,-0.13241,0.1465,-0.07674,0.02775
0.0978,0.98319,-0.15415,0.06103,-0.17161,0.14785
0.10835,0.97758,-0.18055,-0.02459,-0.37333,0.34385
0.12542,0.96841,-0.21551,-0.15961,-0.49188,0.47442
0.15064,0.95208,-0.26619,-0.34539,-0.35997,0.052
0.18652,0.935,-0.30162,-0.32691,0.09014,0.10523
0.22635,0.91896,-0.32292,-0.29957,0.3575,0.23122
0.25364,0.90373,-0.34488,0.3487,0.80477,-0.03488
0.27396,0.89132,-0.36124,0.5811,0.47318,-0.0128
0.29136,0.88343,-0.36696,0.32469,0.42233,-0.14788
0.31207,0.87778,-0.36347,0.09152,0.58821,-0.12934
0.32156,0.87569,-0.36022,-0.22815,-0.00364,-0.09393
0.32068,0.8802,-0.34988,-0.09358,-0.30315,-0.10455
0.30993,0.88973,-0.33515,0.03359,-0.20897,0.07169
0.29022,0.90237,-0.31858,0.0445,-0.1855,-0.04339
0.26437,0.91889,-0.29282,0.2373,-0.05936,0.23249
0.23266,0.93547,-0.266,0.09429,-0.20882,-0.07728
0.2004,0.94911,-0.24294,0.03501,0.01807,-0.08154
0.1754,0.96029,-0.21696,-0.07173,0.17937,0.02625
0.16048,0.96804,-0.1927,-0.05438,0.15963,0.26654
0.1516,0.97249,-0.17688,-0.2284,-0.35896,0.22491
0.14415,0.97538,-0.1669,-0.34158,-0.78113,0.21921
0.13489,0.97929,-0.15099,-0.35753,-0.91885,0.14913
0.1234,0.98438,-0.12554,-0.25464,-1.08823,0.1486
0.11807,0.9873,-0.10622,-0.28017,-0.88889,0.11388
0.11859,0.98541,-0.12204,-0.09194,0.63275,-0.03967
0.11986,0.98343,-0.13601,0.05943,2.08261,0.2351
0.12916,0.98095,-0.14509,0.18327,1.85705,-0.06147
0.14796,0.97754,-0.15005,0.09669,-0.36167,0.15108
0.1601,0.97319,-0.1651,0.86908,-0.27997,-0.1269
0.16422,0.97092,-0.17418,1.02183,-0.59218,-0.13924
0.16086,0.97261,-0.16777,0.78329,-0.1154,-0.17369
0.15157,0.97739,-0.14744,0.40786,0.49184,0.03318
0.14263,0.98209,-0.12307,0.05854,0.876,0.20693
0.14557,0.98216,-0.11903,-0.29077,0.46586,0.0408
0.15014,0.98016,-0.12937,0.01069,-0.05281,0.03245
0.15159,0.97685,-0.15091,-0.153,-0.33022,0.25767
0.15227,0.97105,-0.18406,-0.23242,-0.48493,0.34836
0.15846,0.96148,-0.2246,-0.40923,-0.78971,0.20802
0.17456,0.95007,-0.25863,-0.47236,-0.77826,0.20382
0.19888,0.93843,-0.28246,-0.31841,-0.726,0.3708
0.21925,0.92494,-0.3105,-0.07705,-0.47623,0.2966
0.237,0.91069,-0.33834,-0.06937,-0.25663,0.28059
0.26032,0.89479,-0.36274,0.06527,0.4551,0.19403
0.27493,0.88196,-0.38282,0.18492,0.99201,-0.29907
0.28204,0.88231,-0.3768,-0.10829,0.93323,-0.06743
0.28831,0.8848,-0.36605,-0.29073,0.51575,-0.22927
0.28884,0.89107,-0.35009,-0.10216,-0.34473,-0.19243
0.27934,0.89997,-0.33467,0.11613,-0.36783,-0.05326
0.26429,0.91172,-0.3145,0.06458,-0.34505,-0.06767
0.24416,0.92632,-0.28689,0.63989,0.58398,0.01719
0.21782,0.94151,-0.25711,0.26548,0.6317,-0.26308
0.19621,0.95319,-0.23004,0.06086,0.199,-0.19223
0.18677,0.96105,-0.20371,-0.27213,-0.25409,0.04188
0.18034,0.96635,-0.18344,-0.41636,-0.37656,0.19465
0.16958,0.97035,-0.17219,-0.40731,-0.54587,0.36635
0.15386,0.97477,-0.16171,-0.22618,-0.9179,0.17915
0.13885,0.98112,-0.13461,-0.06887,-1.08158,0.06706
0.13328,0.98566,-0.10342,-0.02768,-0.72147,0.11012
0.13516,0.98527,-0.10476,0.11667,0.60984,0.20798
0.13641,0.98279,-0.12454,0.34957,2.42241,-0.35235
0.13649,0.98365,-0.11744,-0.19779,0.54709,0.71798
0.16876,0.97678,-0.13194,0.1855,-0.64786,0.08084
0.18558,0.9679,-0.1695,0.75601,-0.73291,-0.34423
0.18521,0.96738,-0.17281,0.56183,-0.61991,-0.19356
0.17683,0.97168,-0.15674,0.51639,0.39775,0.16124
0.17045,0.9752,-0.14119,0.09324,0.78739,0.14471
0.16565,0.97734,-0.13178,-0.06491,0.49187,0.05558
0.1712,0.97725,-0.12512,-0.02419,0.26097,-0.03072
0.18033,0.97554,-0.12566,0.22696,-0.1478,0.05087
0.18288,0.9727,-0.14284,0.05887,-0.2568,0.15618
0.18547,0.96824,-0.16762,-0.09114,-0.32547,0.20845
0.18931,0.96218,-0.19588,-0.31404,-0.53472,0.26062
0.19827,0.95383,-0.22557,-0.34515,-0.5488,0.33976
0.21561,0.9416,-0.25865,-0.3549,-0.54646,0.38832
0.23734,0.92595,-0.29375,-0.19064,-0.10641,0.1474
0.25977,0.91004,-0.32303,-0.17699,0.14949,0.1369
0.2804,0.89523,-0.34633,0.18707,0.76586,0.24409
0.28687,0.89064,-0.35279,0.02648,0.89971,-0.38996
0.29002,0.89148,-0.34805,0.15216,0.90516,-0.09715
0.30259,0.89362,-0.33148,-0.30094,0.13694,-0.32874
0.31277,0.89832,-0.30852,-0.12252,-0.03083,-0.25444
0.30965,0.90503,-0.29161,0.20158,0.01793,-0.09812
0.28872,0.91741,-0.27384,0.23928,0.13589,-0.04851
0.25597,0.93361,-0.2507,0.29975,0.18001,-0.07425
0.22664,0.9483,-0.22216,0.2753,0.25322,-0.16242
0.21101,0.95882,-0.19009,-0.00088,-0.06105,-0.01662
0.20323,0.96495,-0.16603,-0.16415,-0.19322,0.12078
0.19208,0.96955,-0.15187,-0.34521,-0.56278,0.14093
0.17859,0.97396,-0.13963,-0.29002,-0.95423,0.32016
0.16168,0.97863,-0.127,-0.13412,-1.16246,0.27328
0.13933,0.98409,-0.11019,-0.15768,-1.31138,0.10893
0.13134,0.98815,-0.07932,-0.25236,-1.01216,0.01086
0.13991,0.98783,-0.06792,-0.04285,0.47065,-0.13661
0.15219,0.98615,-0.06583,0.0476,2.48541,0.27703
0.1485,0.98711,-0.05968,-0.05318,2.48717,0.11972
0.14994,0.98585,-0.07483,0.09063,-0.45625,0.26763
0.16808,0.98007,-0.10585,0.74537,-0.17994,-0.11221
0.17055,0.97687,-0.12893,0.79348,-0.54844,-0.26469
0.16989,0.97689,-0.12969,0.37479,0.32794,-0.32966
0.1684,0.97772,-0.12525,0.29766,0.80195,0.04423
0.17092,0.97737,-0.12464,-0.0645,-0.1418,0.23299
0.18135,0.97316,-0.14161,-0.07265,-0.28347,0.25747
0.19914,0.9667,-0.1607,-0.26965,-0.33987,0.21296
0.2099,0.96031,-0.18365,-0.39812,-0.39995,0.18757
0.21899,0.95178,-0.21484,-0.35241,-0.50882,0.26172
0.23187,0.94134,-0.24518,-0.34884,-0.60757,0.26582
0.24917,0.92958,-0.27164,-0.20405,-0.73314,0.39902
0.27222,0.91613,-0.29428,-0.15768,-0.71497,0.16578
0.30343,0.90095,-0.31016,-0.26788,-0.33516,0.14483
0.33615,0.88213,-0.32991,-0.12311,0.34068,0.14972
0.36466,0.86382,-0.3476,0.66839,1.59611,-0.11088
0.37795,0.86176,-0.3384,0.51484,1.39239,-0.44799
0.38178,0.86846,-0.31624,-0.15894,0.70093,-0.35167
0.3811,0.87401,-0.30143,-0.09262,0.10315,-0.23423
0.36646,0.88234,-0.29527,0.04621,-0.22477,-0.13352
0.33998,0.89741,-0.2812,0.13962,-0.24282,-0.04795
0.30439,0.91545,-0.26323,0.19856,0.26086,0.01517
0.27159,0.93105,-0.24367,0.16855,0.33006,-0.12352
0.24633,0.94357,-0.22133,0.15916,0.28427,-0.22276
0.22363,0.95433,-0.19808,0.02563,0.00056,-0.19453
0.2058,0.96255,-0.17647,-0.18274,-0.19995,0.00307
0.18889,0.96891,-0.15974,-0.29891,-0.32396,0.24123
0.17156,0.97359,-0.15058,-0.16852,-0.63775,0.32142
0.15702,0.97676,-0.14589,-0.2634,-0.94986,0.1183
0.15347,0.97977,-0.12842,-0.3318,-0.96735,0.08315
0.15813,0.98264,-0.09699,-0.27412,-0.75762,0.10218
0.16186,0.98324,-0.0839,-0.03667,0.50268,-0.07719
0.15815,0.98362,-0.08639,0.43151,1.37535,0.07052
0.17038,0.98055,-0.09743,0.42415,0.64606,0.2364
0.1862,0.97687,-0.10511,0.18462,-0.41812,0.41903
0.19654,0.97255,-0.12451,0.38735,-0.56974,0.15982
0.20414,0.96927,-0.13725,0.19554,-0.71068,0.03896
0.21095,0.96824,-0.13417,-0.09729,-0.59048,-0.14275
0.20878,0.97045,-0.12097,0.06314,0.62908,0.1039
0.20478,0.9734,-0.10269,0.119,0.8707,0.12494
0.20602,0.97375,-0.09673,0.09728,0.33408,0.06658
0.20675,0.97336,-0.0991,0.23956,-0.09776,-0.08982
0.20252,0.97395,-0.10201,0.23282,-0.24778,0.08889
0.19961,0.97343,-0.11214,0.15235,-0.34419,0.03768
0.19808,0.97132,-0.13154,0.03375,-0.45699,0.11329
0.19811,0.96744,-0.15752,-0.06044,-0.48401,0.19328
0.20126,0.96031,-0.19312,-0.12156,-0.58779,0.31993
0.21352,0.94786,-0.23655,-0.17646,-0.44124,0.0498
0.23668,0.93216,-0.27397,-0.18277,0.06369,0.11908
0.26552,0.91532,-0.30279,-0.20279,0.5973,0.04612
0.2809,0.90343,-0.32389,-0.04353,0.87623,0.09479
0.29008,0.89497,-0.33895,0.1543,0.82192,-0.22492
0.29488,0.89309,-0.33976,0.03143,0.84338,-0.19275
0.301,0.89272,-0.33532,-0.03629,0.41551,-0.15432
0.30606,0.8937,-0.32805,-0.19792,-0.09239,-0.02681
0.30694,0.89761,-0.31633,-0.18486,-0.25022,-0.00813
0.29686,0.9049,-0.30499,-0.03345,-0.07782,0.07428
0.27618,0.9163,-0.29001,0.06537,0.07245,-0.06581
0.24644,0.93141,-0.26783,0.09661,0.13003,-0.13142
0.21497,0.94609,-0.24227,0.12541,0.08912,-0.1936
0.19021,0.95781,-0.21542,0.14329,0.01365,-0.15096
0.17252,0.9666,-0.1895,0.07927,-0.10614,-0.01381
0.15621,0.97316,-0.16897,-0.06953,-0.25441,0.15205
0.13977,0.97676,-0.16246,-0.07793,-0.38754,0.14355
0.12503,0.97894,-0.16138,-0.01288,-0.61555,0.1998
0.11488,0.98116,-0.15534,-0.08337,-0.93683,0.22809
0.10812,0.98463,-0.13712,-0.27922,-1.10445,0.09019
0.10623,0.98831,-0.10933,-0.31114,-0.92526,0.00833
0.10236,0.98875,-0.10903,-0.25655,-0.30401,-0.15023
0.10083,0.98973,-0.10127,-0.13073,2.48953,0.18835
0.11494,0.98885,-0.09462,0.27819,0.50066,0.59386
0.11562,0.98698,-0.11178,0.34136,0.28765,0.05622
0.12409,0.98508,-0.11922,0.52702,-0.05994,0.15523
0.13634,0.98306,-0.1225,0.38342,-0.17576,0.00745
0.13854,0.98312,-0.11951,0.18115,0.16532,-0.02608
0.1315,0.98531,-0.10896,0.17725,0.12562,0.06883
0.122,0.98798,-0.09488,0.04518,-0.07592,0.15372
0.11309,0.98993,-0.08512,0.12858,-0.18617,0.01873
0.10427,0.99156,-0.07707,0.20202,-0.21421,-0.11749
0.09383,0.99346,-0.06497,0.30934,-0.05225,-0.06973
0.07746,0.99572,-0.05047,0.28998,-0.10108,-0.00997
0.05537,0.9977,-0.03916,0.36298,-0.11378,-0.00466
0.03624,0.99867,-0.03647,0.3802,-0.15393,0.07437
0.01955,0.99901,-0.03989,0.31054,-0.21097,-0.04222
0.00497,0.9989,-0.04662,0.24969,-0.21618,-0.02918
-0.00687,0.99853,-0.05366,0.21512,-0.18115,0.12981
-0.01556,0.99735,-0.0711,0.05659,-0.32127,0.28147
-0.02085,0.9946,-0.10164,-0.1655,-0.50211,0.40193
-0.01688,0.98976,-0.14174,-0.40025,-0.49501,0.28904
0.00694,0.9835,-0.18076,-0.64384,-0.15435,0.04856
0.04545,0.97767,-0.20517,-0.09333,0.68846,0.1626
0.08471,0.97068,-0.22495,0.72678,1.77174,-0.14425
0.11145,0.96639,-0.23167,0.99027,1.00197,0.2962
0.13734,0.96045,-0.24223,0.26772,0.68628,0.32747
0.16572,0.95295,-0.25381,0.07865,0.77253,-0.00344
0.19012,0.94743,-0.25736,0.03994,0.73344,0.00391
0.20418,0.94338,-0.26144,0.12631,0.43964,0.03542
0.21217,0.94088,-0.26406,0.14988,0.42013,0.10118
0.21464,0.93922,-0.26793,0.17996,0.14238,0.19023
0.2136,0.93829,-0.272,0.21125,-0.10707,0.26045
0.20463,0.9399,-0.27335,0.18401,-0.25127,0.27005
0.18773,0.94415,-0.27081,0.14968,-0.30627,0.30119
0.16392,0.94965,-0.267,0.11643,-0.39837,0.34579
0.13651,0.95544,-0.2617,-0.01148,-0.45882,0.36029
0.10845,0.96038,-0.25671,-0.12232,-0.51402,0.30781
0.08123,0.9643,-0.25206,-0.09667,-0.51071,0.1532
0.05545,0.96812,-0.24427,0.02811,-0.3533,0.07027
0.03198,0.97112,-0.23645,0.19226,-0.14615,-0.09303
0.01771,0.97093,-0.23868,0.18239,-0.0009,0.16047
0.01808,0.96701,-0.25408,0.08813,-0.04973,0.2146
0.03117,0.96449,-0.26226,-0.08054,-0.30257,0.27605
0.03761,0.96434,-0.26198,-0.21573,-0.13063,-0.11022
0.03521,0.96241,-0.26929,0.00712,1.41721,0.30889
0.04292,0.96208,-0.26935,0.28974,1.45988,0.45496
0.05615,0.96106,-0.27056,0.28821,-0.01872,0.16883
0.05835,0.95949,-0.27563,0.09508,-0.29883,0.33665
0.05029,0.95896,-0.27902,0.33751,-0.45971,0.44633
0.02847,0.96055,-0.27664,0.51111,-0.33814,0.43962
-0.00373,0.9646,-0.2637,0.21028,0.39122,0.44963
-0.02929,0.97133,-0.23591,-0.04213,0.50606,0.31526
-0.04655,0.97866,-0.20014,-0.29993,0.09962,0.22756
-0.05694,0.98356,-0.17138,-0.05785,-0.11805,0.16018
-0.06011,0.98749,-0.14577,0.07485,-0.14186,0.13208
-0.06441,0.99083,-0.11878,0.08418,-0.15568,0.04385
-0.07189,0.99326,-0.09092,0.11326,-0.13489,0.04604
-0.08157,0.99461,-0.06389,0.14059,-0.12035,0.07186
-0.09225,0.99494,-0.03982,0.13473,-0.15373,0.09422
-0.10282,0.99453,-0.01847,0.22049,-0.08439,0.02936
-0.11083,0.99383,0.00232,0.24365,-0.04745,0.04211
-0.11524,0.9931,0.02136,0.19329,-0.05425,0.01007
-0.11777,0.99235,0.03702,0.19408,-0.0543,-0.04204
-0.12075,0.99141,0.05029,0.24248,-0.04527,-0.04751
-0.12442,0.99034,0.06111,0.30337,0.00915,-0.0681
-0.12825,0.98923,0.07052,0.32547,0.08684,-0.06043
-0.13052,0.98835,0.07829,0.28306,0.15985,-0.15525
-0.13296,0.9875,0.08456,0.34744,0.19923,-0.02409
-0.13409,0.987,0.08863,0.57289,0.00267,0.12254
-0.13713,0.98635,0.09117,0.65896,-0.08071,0.1074
-0.1356,0.98631,0.09381,0.56504,0.00771,0.18249
-0.12717,0.98772,0.09069,0.32226,0.27592,0.16626
-0.1103,0.99115,0.07381,0.14306,0.26457,0.21385
-0.08664,0.99538,0.04139,0.09477,0.12767,0.19242
-0.05576,0.99844,-0.00046,0.02915,0.04677,0.13723
-0.02408,0.99893,-0.03948,-0.03932,0.05081,0.1261
0.00519,0.99733,-0.07278,0.1013,0.35208,-0.0664
0.033,0.99453,-0.09912,0.17165,0.42485,-0.01167
0.05983,0.99082,-0.12117,0.21948,0.38526,0.0436
0.08396,0.98629,-0.14208,0.32509,0.11296,0.08408
0.10506,0.98151,-0.16,0.28063,0.09607,0.09268
0.12334,0.97648,-0.17685,0.18316,0.10308,0.10945
0.14067,0.97132,-0.19168,-0.02341,0.03147,0.15968
0.1576,0.96628,-0.20365,-0.10294,-0.08909,0.13225
0.17505,0.96134,-0.21258,-0.01722,-0.10796,0.46564
0.18859,0.95712,-0.21991,0.02909,-0.00704,0.06591
0.19276,0.95462,-0.22703,0.07853,-0.06135,0.17692
0.19102,0.95377,-0.23202,0.06642,-0.21682,0.25898
0.18458,0.95488,-0.23265,0.02494,-0.3615,0.21004
0.17532,0.95777,-0.22789,-0.02417,-0.33224,0.17822
0.16299,0.962,-0.21906,-0.0466,-0.2902,0.0826
0.14637,0.96746,-0.20639,-0.02048,-0.21239,0.00829
0.12706,0.9732,-0.19168,0.01894,-0.15868,0.07415
0.10956,0.97804,-0.17728,0.16221,0.2879,0.02346
0.09781,0.98066,-0.1695,0.19447,0.35419,-0.153
0.09401,0.98039,-0.17317,0.16462,0.09503,-0.17557
0.10055,0.97683,-0.18893,0.06063,-0.20693,0.12989
0.11214,0.97351,-0.19923,0.0752,-0.32694,0.11387
0.11906,0.9744,-0.19069,0.2231,-0.27332,0.02341
0.12363,0.97755,-0.17059,0.32347,0.91109,0.17743
0.12582,0.97939,-0.15802,-0.00521,1.09653,0.06355
0.12915,0.97909,-0.15717,0.02193,0.01865,0.10436
0.12686,0.97926,-0.15796,0.10622,-0.37884,0.15401
0.11404,0.98131,-0.15499,0.22863,-0.31131,0.29207
0.09577,0.98354,-0.15322,0.03344,-0.36058,0.41982
0.07129,0.98705,-0.14367,-0.12504,-0.10062,0.37035
0.04651,0.991,-0.12551,-0.3181,0.34199,0.24674
0.03082,0.99367,-0.10804,-0.31787,0.23064,-0.0119
0.03275,0.9949,-0.0954,0.08687,-0.07539,-0.01013
0.04424,0.99568,-0.08156,0.14779,-0.15007,-0.0005
0.05209,0.99655,-0.06453,0.18549,-0.20242,-0.03679
0.05209,0.99743,-0.04907,0.20142,-0.194,-0.0006
0.05064,0.99806,-0.03606,0.17484,-0.17505,0.01764
0.05046,0.99844,-0.02377,0.13036,-0.21103,-0.04349
0.05139,0.99856,-0.01496,0.10795,-0.24527,-0.0391
0.05413,0.99848,-0.01053,0.09365,-0.18868,-0.06511
0.05992,0.99813,-0.01169,0.07935,-0.1728,-0.10344
0.06734,0.99763,-0.01366,-0.01712,-0.22485,-0.18473
0.07372,0.99715,-0.01553,-0.03631,-0.3305,-0.04753
0.07786,0.9968,-0.01825,-0.01975,-0.32411,-0.03946
0.07873,0.99666,-0.02145,0.04444,-0.27263,-0.02184
0.07641,0.99675,-0.02553,0.23043,-0.192,0.00472
0.07316,0.99684,-0.03073,0.24342,-0.10469,0.01123
0.06866,0.99703,-0.03478,0.27405,0.02267,0.02678
0.06547,0.99706,-0.03969,0.20463,-0.03098,0.124
0.06546,0.99655,-0.05092,0.14584,-0.11977,0.13767
0.06963,0.99514,-0.06956,0.08138,-0.21067,0.19273
0.07916,0.99218,-0.09651,-0.14492,-0.35982,0.37808
0.10047,0.98485,-0.1413,-0.25113,-0.27735,0.36243
0.13685,0.97222,-0.18987,-0.39979,-0.17138,0.08704
0.1827,0.95852,-0.21876,0.02972,0.60242,-0.13503
0.22201,0.94492,-0.24047,0.22677,0.61959,-0.02962
0.24673,0.93436,-0.25707,0.38852,0.40144,0.04278
0.26328,0.92777,-0.26442,-0.18837,0.45187,-0.11303
0.28098,0.92471,-0.25682,-0.15215,0.39072,-0.14723
0.29493,0.92421,-0.24257,-0.23284,-0.07198,-0.20233
0.29879,0.92706,-0.22645,-0.12445,-0.22926,-0.18838
0.29527,0.93212,-0.20969,0.16744,-0.43904,-0.07697
0.28278,0.93943,-0.19364,0.22326,-0.29649,-0.14362
0.2624,0.94937,-0.17271,0.28775,-0.21942,-0.04096
0.23473,0.95943,-0.15614,0.26849,-0.15861,-0.1901
0.20464,0.96896,-0.13867,0.18722,0.14041,-0.19704
0.18437,0.97599,-0.11593,0.22588,0.20855,-0.14453
0.17592,0.97987,-0.0943,0.03838,0.06937,-0.01603
0.16957,0.98228,-0.07976,-0.3195,-0.30382,0.05858
0.16314,0.9842,-0.0688,-0.31396,-0.60857,0.13269
0.1556,0.98669,-0.0472,-0.24102,-0.69001,0.01752
0.14633,0.98894,-0.0242,-0.18461,-0.25523,-0.06164
0.13504,0.99053,-0.02476,-0.08957,0.34349,-0.1387
0.12296,0.99231,-0.01399,-0.16558,1.42665,-0.02789
0.11829,0.99271,-0.0229,-0.11307,-0.12562,0.11922
0.13,0.99092,-0.03431,0.07838,-0.78776,0.16576
0.15298,0.98626,-0.06223,0.61303,-0.67337,-0.51936
0.16228,0.98378,-0.07634,0.25405,-0.46955,-0.1779
0.16949,0.98375,-0.05924,0.33931,0.06707,-0.02273
0.16944,0.98493,-0.03451,0.07493,0.49326,0.21988
0.16707,0.9858,-0.01666,-0.10883,0.07775,0.09301
0.1698,0.98541,-0.01158,-0.12021,-0.05346,-0.2501
0.1703,0.98534,-0.00998,-0.0005,-0.05013,-0.15178
0.16768,0.98577,-0.01143,0.00986,-0.16723,-0.00186
0.16504,0.98608,-0.01978,0.01034,-0.29819,0.01549
0.16447,0.98582,-0.03331,0.02979,-0.3436,0.03363
0.16752,0.98477,-0.04642,0.08297,-0.40672,0.09963
0.17713,0.9821,-0.06402,0.03251,-0.44024,0.2528
0.19132,0.97712,-0.09289,0.02553,-0.41183,0.22671
0.2085,0.96857,-0.13566,-0.06259,0.0105,-0.37917
0.23141,0.95727,-0.17341,-0.0942,0.38687,-0.24131
0.25808,0.94428,-0.20425,-0.0672,0.78592,0.07395
0.27489,0.93257,-0.23399,-0.25185,0.51311,-0.5056
0.29081,0.92413,-0.24781,0.03978,1.03756,-0.23775
0.30293,0.91728,-0.25852,-0.14701,0.71666,-0.22251
0.30876,0.91375,-0.26407,-0.22382,-0.09362,-0.02075
0.3159,0.91321,-0.25739,-0.08178,-0.27066,-0.04302
0.31808,0.91549,-0.24637,-0.12918,-0.35861,0.01323
0.31485,0.92128,-0.22829,-0.04507,-0.24614,-0.1528
0.3002,0.93047,-0.21002,0.0359,-0.17349,-0.19789
0.27154,0.94215,-0.19651,0.10753,-0.25831,-0.25165
0.23674,0.95477,-0.17991,0.23874,-0.19329,-0.10483
0.20745,0.96539,-0.15805,0.38164,-0.1186,-0.0966
0.189,0.97248,-0.13625,0.3079,-0.11118,-0.13712
0.17658,0.97735,-0.11661,0.05889,-0.19197,-0.1403
0.16779,0.98098,-0.09762,-0.08602,-0.22574,-0.14822
0.1605,0.9839,-0.07856,-0.29439,-0.09537,-0.03254
0.15481,0.9858,-0.065,-0.39063,-0.18156,-0.01175
0.14943,0.98752,-0.0497,-0.25366,-0.43576,0.08511
0.14273,0.98913,-0.03514,-0.11985,-0.38185,-0.05604
0.13768,0.99015,-0.02517,-0.03035,0.37363,0.06606
0.13257,0.99096,-0.02056,-0.00838,1.17286,0.11774
0.13039,0.99135,-0.01445,0.10161,1.88453,-0.01108
0.13589,0.99063,-0.0132,0.19139,-0.51923,0.51305
0.15284,0.98751,-0.03827,0.72189,-0.44979,-0.0098
0.16523,0.98447,-0.05924,0.26838,-0.60375,-0.42666
0.17406,0.98313,-0.05612,9e-05,-0.49235,-0.17616
0.17564,0.98342,-0.0451,0.19669,0.11654,-0.1071
0.17696,0.98378,-0.02922,0.1582,0.54326,0.04193
0.17945,0.98361,-0.01712,0.05378,0.09903,0.08388
0.18356,0.98289,-0.0152,-0.03813,-0.14475,-0.21451
0.18365,0.98288,-0.01482,-0.0053,-0.17773,-0.17603
0.18016,0.98353,-0.01451,0.09811,-0.10169,-0.06687
0.17762,0.98392,-0.01877,0.05331,-0.32274,-0.01341
0.17647,0.98384,-0.03008,0.00941,-0.38281,0.01227
0.17728,0.98272,-0.05321,0.00167,-0.40711,0.09336
0.17998,0.97964,-0.08892,-0.00594,-0.42999,0.38953
0.18698,0.9726,-0.13817,-0.08377,-0.37843,0.36623
0.2068,0.96019,-0.18778,-0.19468,-0.26157,-0.02753
0.24314,0.94455,-0.22068,-0.20803,0.85811,0.17365
0.27026,0.92974,-0.25009,0.07426,0.59288,0.23078
0.28853,0.92034,-0.26403,0.07552,1.08437,-0.51807
0.30414,0.91399,-0.26853,0.18534,0.71571,-0.26075
0.31592,0.9094,-0.27053,-0.12477,0.05406,-0.16872
0.32979,0.90791,-0.2587,0.14353,-0.42381,-0.11443
0.33893,0.90873,-0.24359,0.08868,-0.72094,0.02946
0.3303,0.9154,-0.2301,-0.07157,-0.49416,-0.12508
0.30906,0.9264,-0.21506,0.05091,-0.22206,-0.15672
0.27773,0.93936,-0.20114,0.04464,-0.0128,-0.19418
0.24591,0.95165,-0.18407,0.02042,0.03805,-0.08199
0.21963,0.96158,-0.16467,0.00953,0.0267,-0.06412
0.1999,0.96917,-0.14404,-0.00078,0.02638,-0.08141
0.18286,0.97592,-0.11888,-0.14093,0.11003,-0.05693
0.16614,0.98157,-0.09436,-0.31152,0.14875,-0.00381
0.156,0.98477,-0.07679,-0.14447,-0.18191,0.03189
0.15268,0.9863,-0.06239,0.05813,-0.55552,-0.01624
0.15021,0.98782,-0.04066,0.1102,-0.76501,0.06297
0.1457,0.98922,-0.01432,0.09306,-0.68544,-0.12274
0.13918,0.99026,-0.0006,0.06794,0.27943,-0.30791
0.12922,0.99161,-0.00281,0.01491,1.41586,0.23366
0.12,0.99263,0.01689,-0.21091,0.56943,0.083
0.12588,0.99167,0.02714,0.07191,1.36151,0.12665
0.13386,0.99037,0.03525,-0.06314,0.08113,0.31713
0.1492,0.9887,0.01407,0.41532,-0.39226,-0.12497
0.16138,0.98679,-0.0144,-0.00103,-0.51662,-0.4643
0.17038,0.98531,-0.01104,-0.09296,-0.59823,-0.27926
0.16796,0.98579,-0.00047,0.30041,0.4428,-0.08054
0.16226,0.98666,0.01277,0.19945,0.48601,-0.0116
0.16172,0.9864,0.02948,-0.0145,-0.00237,0.07161
0.16559,0.9857,0.03117,0.04838,-0.1493,-0.1866
0.16624,0.98583,0.02228,0.06829,-0.13697,-0.17963
0.16731,0.98584,0.0114,0.03019,-0.21129,-0.04552
0.16865,0.98565,-0.00669,0.02886,-0.35691,0.05204
0.17311,0.98439,-0.03179,0.01014,-0.47226,0.12693
0.18257,0.98105,-0.06479,-0.03738,-0.57992,0.21714
0.20123,0.97345,-0.10906,-0.09118,-0.60707,0.28378
0.22711,0.96055,-0.16053,-0.16862,-0.2994,-0.39422
0.26142,0.94563,-0.19349,-0.10328,0.61166,0.0203
0.28995,0.93041,-0.22419,0.12178,0.91654,0.1451
0.30292,0.92035,-0.24736,0.13645,0.4871,-0.27797
0.31377,0.9141,-0.25684,0.08043,1.19747,-0.42254
0.32354,0.90971,-0.26028,-0.07123,0.64914,-0.39013
0.33366,0.90729,-0.25591,-0.18902,0.00297,-0.28788
0.34051,0.90688,-0.24823,-0.13684,-0.59414,-0.09326
0.33504,0.91138,-0.23903,-0.27382,-0.51955,-0.07454
0.31819,0.92026,-0.22775,0.07912,-0.19611,-0.17429
0.28842,0.93309,-0.21487,0.23125,0.05854,-0.2548
0.24771,0.94856,-0.19717,0.25472,0.18981,-0.2652
0.21044,0.96206,-0.17366,0.2373,0.14508,-0.16675
0.18821,0.97084,-0.14849,0.19698,0.04763,-0.15255
0.17537,0.97627,-0.12702,0.03586,-0.13213,-0.10059
0.16353,0.98012,-0.11234,-0.07362,-0.30109,-0.08103
0.15341,0.98274,-0.10341,-0.14223,-0.36373,0.02811
0.14583,0.98469,-0.09551,-0.25408,-0.51772,0.01865
0.14014,0.98668,-0.08257,-0.19404,-0.64679,0.18601
0.13453,0.989,-0.06148,-0.3162,-0.48712,0.10475
0.12752,0.99094,-0.04217,-0.15119,0.36706,0.08101
0.11697,0.99251,-0.03513,-0.17065,1.02207,0.259
0.11758,0.9923,-0.0388,0.21642,0.38206,0.18278
0.12803,0.99072,-0.04568,0.22661,0.844,-0.23896
0.13489,0.98999,-0.04143,0.3513,0.05105,0.27887
0.14849,0.98804,-0.04161,0.59972,-0.19331,0.19132
0.15507,0.98606,-0.06026,0.31514,-0.28446,-0.23897
0.16007,0.98484,-0.06683,0.05895,-0.16274,-0.16874
0.15917,0.9856,-0.05698,-0.02465,0.03126,0.0214
0.15277,0.98709,-0.04809,-0.03511,0.1949,-0.13342
0.14921,0.988,-0.03999,0.00731,0.11633,-0.0777
0.15029,0.98801,-0.03526,0.09066,-0.07094,-0.00559
0.1514,0.98782,-0.03581,0.08431,-0.21326,-0.21932
0.15143,0.98758,-0.04181,0.07421,-0.22415,-0.16318
0.14967,0.98748,-0.0498,0.08757,-0.22369,-0.08916
0.14676,0.9873,-0.06078,0.08022,-0.25203,0.07294
0.14517,0.9866,-0.07447,0.08181,-0.25133,0.08663
0.1499,0.98429,-0.0933,-0.05038,-0.51609,0.25972
0.16205,0.9792,-0.12207,-0.16962,-0.40625,0.29218
0.18128,0.96973,-0.1636,-0.22997,-0.23061,0.05187
0.20851,0.95783,-0.19769,-0.24148,0.05122,-0.18699
0.24006,0.94584,-0.21854,0.07213,0.76864,0.00611
0.26231,0.93482,-0.2394,0.19807,0.49309,0.05036
0.28109,0.92583,-0.25265,0.36335,0.26996,-0.03939
0.29358,0.92072,-0.25708,-0.16838,0.68411,-0.23484
0.30488,0.91822,-0.25281,0.10294,0.69626,-0.09682
0.30987,0.9177,-0.24861,-0.27329,0.09585,-0.16635
0.3084,0.9204,-0.24032,-0.16677,-0.22469,-0.13625
0.2973,0.92671,-0.22984,0.07049,-0.22476,-0.12799
0.27551,0.93579,-0.21996,0.2138,-0.14881,-0.17977
0.24546,0.94712,-0.20666,0.34072,-0.05393,-0.23078
0.21483,0.95855,-0.18717,0.41098,0.11482,-0.19588
0.19215,0.96698,-0.1674,0.29232,0.07498,-0.07223
0.17956,0.97266,-0.14725,-0.00683,-0.03223,-0.00761
0.17184,0.97631,-0.13145,-0.10943,-0.16577,-0.02329
0.16405,0.979,-0.12102,-0.19465,-0.33375,0.04739
0.15481,0.98155,-0.11224,-0.17298,-0.42855,0.11045
0.14302,0.98478,-0.09873,-0.14165,-0.78152,0.18419
0.12665,0.98893,-0.07729,-0.20004,-1.11447,0.01274
0.10815,0.99283,-0.05089,-0.17369,-1.09824,-0.01901
0.08893,0.99527,-0.03917,-0.2613,-0.49206,-0.30194
0.06946,0.99598,-0.05652,-0.17658,2.01159,0.49916
0.06458,0.99718,-0.03833,-0.43001,2.47287,0.07411
0.07222,0.9968,-0.03422,0.63336,-0.42099,0.05764
0.0683,0.99696,-0.03755,0.59151,0.48324,-0.51195
0.06211,0.99742,-0.03594,0.5842,0.37015,0.31196
0.06456,0.99745,-0.03044,0.47207,-0.20248,0.07262
0.06408,0.99738,-0.03343,0.25675,-0.04298,-0.11632
0.05929,0.99782,-0.02885,0.07426,0.11906,0.08084
0.05013,0.99847,-0.02317,0.05673,0.00176,0.01833
0.03732,0.99914,-0.018,0.17291,0.03241,-0.06298
0.02313,0.99971,-0.00586,0.31913,-0.02916,0.01062
0.00819,0.99996,0.00287,0.3517,-0.14565,-0.05382
-0.00713,0.99997,0.00351,0.32297,-0.20357,-0.04133
-0.02205,0.99975,0.00306,0.3362,-0.25332,-0.08397
-0.03593,0.99935,0.00406,0.34767,-0.2692,-0.06912
-0.04822,0.99883,0.00306,0.36416,-0.31199,0.04331
-0.05873,0.99826,-0.00574,0.34683,-0.35066,0.03367
-0.06592,0.99755,-0.02339,0.32043,-0.39287,0.01312
-0.06829,0.99664,-0.04522,0.25495,-0.5361,0.11445
-0.06319,0.9956,-0.06925,-0.1164,-0.34803,-0.1155
-0.04185,0.99447,-0.09634,-0.1715,-0.13032,-0.02902
-0.00461,0.99292,-0.11868,-0.10899,0.12541,0.10918
0.03028,0.99028,-0.13571,0.79373,0.88095,0.08986
0.05506,0.98731,-0.14892,0.95323,1.09,-0.07201
0.07496,0.9864,-0.14628,-0.0006,1.60752,0.20315
0.10343,0.98308,-0.15115,-0.27478,1.22482,0.14285
0.13477,0.97808,-0.15873,-0.17335,0.85307,0.06052
0.15998,0.97378,-0.16173,0.06525,0.48813,0.00266
0.18099,0.96977,-0.16365,0.34592,0.44774,0.03818
0.19944,0.96603,-0.16435,0.43048,0.31284,0.10023
0.2112,0.96354,-0.16424,0.38302,0.01425,0.14527
0.21709,0.96229,-0.16394,0.24747,-0.16726,0.23036
0.21777,0.96245,-0.16207,0.17082,-0.25528,0.24968
0.2136,0.96367,-0.16034,0.12873,-0.29772,0.35104
0.2052,0.96542,-0.1608,0.03024,-0.37971,0.4885
0.19332,0.96759,-0.16249,-0.3248,-0.54811,0.5201
0.17676,0.97002,-0.16678,-0.50392,-0.58074,0.43565
0.15701,0.97229,-0.17321,-0.52635,-0.50738,0.2172
0.13771,0.97448,-0.17727,-0.41593,-0.42387,0.12352
0.11836,0.97641,-0.1806,-0.06553,-0.198,-0.25593
0.09917,0.9785,-0.18084,0.17443,-0.04365,-0.18883
0.08677,0.97819,-0.18874,0.23648,-0.02799,-0.04931
0.08572,0.97154,-0.22083,0.31121,-0.05561,0.01688
0.09988,0.96377,-0.24733,0.18508,-0.1457,-0.07639
0.11737,0.96242,-0.2449,0.24922,-0.17294,-0.27738
0.11879,0.96089,-0.25017,0.34471,1.12387,-0.02303
0.13579,0.95496,-0.26385,0.74962,1.81292,0.55067
0.15527,0.95979,-0.23386,-0.25759,0.31363,0.05402
0.15444,0.9609,-0.22981,-0.33753,-0.32698,0.23234
0.15094,0.95559,-0.2531,-0.15156,-0.3339,0.21645
0.14985,0.95422,-0.25884,0.04679,-0.20722,0.58292
0.13853,0.95873,-0.24829,0.43601,0.19632,0.52837
0.10776,0.96748,-0.22884,0.26347,0.49744,0.48859
0.08062,0.97439,-0.20993,-0.15558,0.36488,0.05739
0.06847,0.97989,-0.18741,-0.20845,-0.01064,0.08448
0.06659,0.98491,-0.15972,-0.00905,-0.08149,0.05046
0.06103,0.98911,-0.13391,-0.01697,-0.18049,0.01482
0.0461,0.99372,-0.1019,-0.0771,-0.47009,0.09038
0.02561,0.99745,-0.06653,-0.22271,-0.35048,0.08168
0.00526,0.99931,-0.03659,-0.15411,-0.15671,0.10248
-0.00768,0.99987,-0.01401,0.00516,0.02236,0.02429
-0.01186,0.99989,0.00835,0.10793,-0.14667,-0.15685
-0.01206,0.99949,0.02946,0.08926,-0.15051,-0.20045
-0.01392,0.99864,0.05018,0.09416,-0.0984,-0.21
-0.01596,0.99754,0.06821,0.31009,-0.12633,-0.07769
-0.01523,0.99688,0.07739,0.33501,-0.15637,-0.03398
-0.01456,0.99641,0.08335,0.30193,-0.1275,-0.03507
-0.01631,0.99569,0.09131,0.2455,0.36849,0.07832
-0.01916,0.99516,0.09631,0.42636,0.17206,0.09115
-0.02137,0.99548,0.0925,0.59966,0.03177,0.09484
-0.01928,0.99608,0.08633,0.45829,0.08969,0.15473
-0.01149,0.9969,0.07783,0.22917,0.29517,0.12412
0.00709,0.99837,0.05663,-0.00802,0.43625,0.14238
0.03053,0.99937,0.01812,-0.11754,0.0196,0.30473
0.06145,0.99764,-0.03044,-0.14846,0.02132,0.35329
0.09647,0.99249,-0.07523,-0.01984,0.25135,0.08032
0.13002,0.98557,-0.10834,-0.01086,0.45808,0.03174
0.16117,0.9781,-0.13171,-0.11317,0.53205,0.09237
0.18919,0.96923,-0.15745,0.10197,0.32654,0.04936
0.21335,0.9602,-0.18026,0.11736,0.187,0.09411
0.23343,0.95136,-0.20104,0.08359,0.10784,0.11133
0.25188,0.94171,-0.22303,0.03512,-0.09585,0.15528
0.2698,0.93161,-0.24353,0.00024,-0.23262,0.20642
0.28245,0.92271,-0.26233,0.00196,-0.26392,0.236
0.28678,0.91622,-0.2798,0.02787,-0.24885,0.24628
0.28202,0.91276,-0.29552,-0.03989,-0.17428,0.22985
0.27157,0.91232,-0.30646,-0.04688,-0.14371,0.22478
0.25832,0.91469,-0.31082,-0.06399,-0.23508,0.22525
0.24387,0.91938,-0.30864,-0.0534,-0.28153,0.22226
0.22709,0.92597,-0.30166,-0.03936,-0.30636,0.20747
0.20575,0.93377,-0.2928,-0.09928,-0.23002,0.15965
0.18079,0.9424,-0.2814,-0.11681,-0.00872,0.07507
0.15788,0.95162,-0.26359,-0.06058,0.31234,0.03484
0.14304,0.95778,-0.24939,-0.04869,0.39624,0.0141
0.13637,0.95809,-0.25194,-0.21219,0.26956,0.08495
0.14146,0.95294,-0.26812,-0.17352,-0.01939,0.16344
0.15606,0.94741,-0.27938,-0.06337,-0.43204,0.05711
0.17016,0.94652,-0.27412,0.11528,0.01391,0.23006
0.17897,0.94745,-0.26514,0.32853,0.67773,0.25492
0.18518,0.9474,-0.26105,0.07253,0.5805,0.00202
0.18686,0.9493,-0.25279,0.05286,0.46953,-0.11369
0.18014,0.95009,-0.25469,0.09896,0.32986,0.06409
0.17103,0.95306,-0.24985,0.26633,-0.18441,0.35037
0.15661,0.95655,-0.24595,0.23522,-0.3414,0.40878
0.13348,0.96205,-0.238,0.16149,-0.34021,0.4192
0.10778,0.96939,-0.2206,-0.0628,0.13202,0.37125
0.08834,0.9758,-0.20003,-0.29935,0.31976,0.24341
0.07977,0.98047,-0.17974,-0.08624,0.04708,0.10289
0.08334,0.98365,-0.15966,-0.0126,-0.1232,0.10206
0.09011,0.98647,-0.13697,0.02048,-0.18623,0.07099
0.09029,0.98926,-0.11493,0.03422,-0.17771,0.02803
0.08688,0.99149,-0.09698,0.15862,-0.06879,0.0365
0.08343,0.9932,-0.08124,0.2105,-0.14713,0.05541
0.08076,0.99447,-0.06714,0.16448,-0.20986,0.04287
0.08108,0.99516,-0.05555,0.11051,-0.22704,0.0286
0.08319,0.99535,-0.04848,-0.01737,-0.21551,0.06363
0.08759,0.99496,-0.04874,-0.00899,-0.25958,0.07599
0.09479,0.99383,-0.05761,0.01537,-0.32201,0.05195
0.10101,0.9924,-0.07029,0.01903,-0.22232,0.06638
0.10148,0.99172,-0.07862,-0.01922,-0.16343,0.07781
0.09783,0.99154,-0.08534,-0.01262,-0.08661,0.00615
0.09096,0.99166,-0.09128,0.38513,0.15797,0.18895
0.08442,0.99207,-0.09312,0.33973,-0.17943,0.3559
0.08408,0.99139,-0.10042,0.1202,-0.33678,0.38205
0.0932,0.98782,-0.12458,-0.033,-0.2646,0.36897
0.11141,0.97965,-0.16695,-0.35929,-0.31078,0.3636
0.1329,0.96631,-0.2204,-0.53698,-0.53575,0.00074
0.15162,0.95092,-0.26975,-0.28086,-0.51744,0.07699
0.17292,0.9384,-0.29918,-0.21737,-0.54585,0.13882
0.20095,0.92315,-0.32773,0.00137,-0.06219,0.1581
0.23484,0.90467,-0.35555,0.24398,0.27711,0.30855
0.26247,0.88883,-0.37561,0.38126,0.39483,0.40981
0.27538,0.8855,-0.37425,-0.1195,0.70645,-0.34815
0.28475,0.89361,-0.34695,-0.05802,0.81652,-0.42167
0.28608,0.90187,-0.32371,-0.26819,0.48154,-0.43682
0.28087,0.90867,-0.30892,0.22876,-0.14185,-0.2855
0.26803,0.91636,-0.29738,0.44315,-0.1206,-0.04085
0.25206,0.92644,-0.27958,0.45785,0.10505,-0.07658
0.2362,0.93732,-0.25618,0.27618,0.46577,-0.03311
0.22356,0.94677,-0.23161,-0.13554,0.22533,-0.21486
0.21403,0.95489,-0.20583,-0.3446,-0.08195,0.01716
0.20264,0.96171,-0.18453,-0.40524,-0.30453,0.24267
0.18759,0.96708,-0.17197,-0.30346,-0.6231,0.27254
0.17073,0.97287,-0.15613,-0.19522,-0.97383,0.20097
0.15654,0.97931,-0.12823,-0.09975,-1.05542,0.16714
0.15001,0.98291,-0.10671,-0.10033,-0.38133,-0.07871
0.15205,0.98114,-0.11935,0.00122,1.06233,0.1938
0.15675,0.98047,-0.11873,0.23259,2.35049,-0.31696
0.16885,0.97951,-0.10976,0.09624,-0.33016,0.17075
0.18589,0.97544,-0.11818,0.34761,-0.26727,-0.01503
0.18794,0.9717,-0.1431,0.50784,-0.48702,-0.26266
0.19098,0.97069,-0.14589,0.37591,-0.22893,-0.09532
0.1891,0.97311,-0.13154,0.34388,0.30915,-0.09475
0.18672,0.97615,-0.11077,0.18951,0.61203,0.09481
0.18577,0.97766,-0.09834,-0.06927,0.16612,0.03916
0.18888,0.97697,-0.09929,-0.04766,0.06039,-0.01444
0.19053,0.97628,-0.10283,0.04102,-0.05978,-0.01647
0.1935,0.97415,-0.11655,-0.16906,-0.49617,0.31757
0.20076,0.9683,-0.14864,-0.25091,-0.58573,0.32476
0.2088,0.95855,-0.19384,-0.30698,-0.65432,0.30457
0.22156,0.94727,-0.23148,-0.22614,-0.56429,0.19658
0.24241,0.93476,-0.25971,-0.17147,-0.51535,0.19511
0.26427,0.91962,-0.29063,-0.14682,-0.42069,0.21858
0.28685,0.90288,-0.32019,-0.02243,0.38705,0.10777
0.31063,0.88466,-0.34769,0.15185,0.81218,0.15248
0.31778,0.87684,-0.3608,0.25547,1.22979,-0.40713
0.31657,0.88213,-0.34875,-0.20694,0.75731,-0.2244
0.32046,0.88654,-0.3337,-0.3939,0.4248,-0.30822
0.32182,0.89233,-0.31651,0.05207,-0.28984,-0.16007
0.31326,0.90235,-0.29603,0.18479,-0.31884,-0.11643
0.295,0.91592,-0.27215,0.34401,-0.08677,-0.11392
0.26952,0.93191,-0.24268,0.36335,0.43398,-0.17558
0.24773,0.94491,-0.21393,0.03925,0.2286,-0.03526
0.23602,0.9539,-0.18536,-0.10121,-0.03238,-0.00858
0.22174,0.96134,-0.16326,-0.30412,-0.52279,0.15854
0.20049,0.96815,-0.14996,-0.31249,-0.6118,0.21868
0.17781,0.97429,-0.13836,-0.28307,-0.80665,0.2686
0.15705,0.98042,-0.11875,-0.27673,-1.11745,0.15917
0.14877,0.98487,-0.0889,-0.35334,-0.80139,0.05058
0.15269,0.98534,-0.07613,-0.02641,0.80135,-0.09362
0.16531,0.9829,-0.08106,0.09068,2.20089,0.02164
0.17577,0.98219,-0.06632,0.03231,2.06645,0.48818
0.18768,0.97975,-0.06969,0.06241,-0.7384,0.37871
0.20378,0.97382,-0.10072,0.75427,-0.6762,-0.08486
0.21095,0.96906,-0.12811,0.52628,-1.04298,-0.28272
0.21613,0.96857,-0.12308,0.31109,-0.08808,-0.25608
0.2153,0.97067,-0.10692,0.25163,0.7357,0.04753
0.21032,0.97387,-0.08569,0.00017,1.02525,0.05548
0.20804,0.97513,-0.07642,-0.13126,0.25011,-0.05453
0.20767,0.97528,-0.07546,0.1328,-0.10504,-0.02966
0.20058,0.97694,-0.07316,0.12816,-0.2501,0.1239
0.19604,0.97749,-0.078,0.04057,-0.34333,0.19478
0.19687,0.97555,-0.09764,-0.31951,-0.44783,0.21287
0.19789,0.97122,-0.13251,-0.38782,-0.47228,0.29466
0.20034,0.96365,-0.17675,-0.4253,-0.58215,0.3443
0.21491,0.95098,-0.22236,-0.26667,-0.35587,-0.0546
0.24445,0.93469,-0.25806,-0.13102,-0.02899,0.1446
0.27992,0.91525,-0.28975,-0.03657,0.30131,0.10369
0.30301,0.89754,-0.32033,0.38122,0.50535,0.18268
0.31099,0.88688,-0.34166,-0.01941,0.62396,-0.34051
0.31058,0.88632,-0.34348,-0.13361,0.93975,-0.27416
0.32101,0.88827,-0.32852,-0.02997,0.90746,-0.18497
0.33163,0.88921,-0.31517,-0.23976,-0.22432,-0.14388
0.33741,0.89271,-0.2987,-0.13798,-0.25638,-0.03342
0.32762,0.90063,-0.28555,-0.04091,-0.24164,0.05143
0.30401,0.91415,-0.26814,0.25378,-0.04646,-0.09197
0.27148,0.93147,-0.24218,0.30533,0.14069,-0.10075
0.23788,0.94701,-0.21584,0.29546,0.22955,-0.14578
0.21703,0.95784,-0.18823,-0.05399,-0.15064,0.05273
0.20481,0.96459,-0.16617,-0.22523,-0.31827,0.11817
0.19206,0.96905,-0.15511,-0.26648,-0.48847,0.17899
0.17928,0.97215,-0.15091,-0.32763,-0.80521,-0.00821
0.17051,0.97574,-0.13734,-0.25775,-0.96956,0.28167
0.17032,0.9786,-0.11544,-0.20401,-0.38479,0.00016
0.17406,0.9792,-0.1043,0.05746,1.12908,0.25342
0.1769,0.98047,-0.08596,0.09367,2.07152,-0.02871
0.17575,0.98121,-0.07955,0.06151,-0.26863,0.76462
0.19867,0.97452,-0.10407,0.59564,-0.54903,0.18042
0.21435,0.96624,-0.14294,0.73819,-0.69314,-0.02494
0.22378,0.96219,-0.15525,-0.01005,-0.67994,-0.22379
0.2303,0.96231,-0.14462,0.14342,0.4348,-0.11095
0.232,0.96533,-0.1196,0.02863,1.27447,0.1436
0.23131,0.96828,-0.09445,-0.06595,0.34896,0.22901
0.23407,0.96796,-0.09089,0.2694,-0.06041,-0.10689
0.22936,0.96878,-0.09413,0.3514,-0.18065,-0.03157
0.2215,0.97044,-0.09581,0.10722,-0.15007,0.08486
0.2144,0.97121,-0.1038,-0.04016,-0.23406,0.07047
0.20704,0.97061,-0.12269,-0.09565,-0.3432,0.13336
0.20227,0.96846,-0.14549,-0.20135,-0.45009,0.23705
0.20606,0.96286,-0.17447,-0.2898,-0.52208,0.30073
0.2228,0.95177,-0.21094,-0.29975,-0.52184,0.28895
0.24387,0.93807,-0.24608,-0.33816,-0.47182,0.17477
0.26609,0.92477,-0.27204,-0.13256,0.33334,0.11922
0.2857,0.9118,-0.29494,0.05105,0.56446,0.18093
0.29735,0.89946,-0.32025,0.35597,0.78171,0.06351
0.31248,0.89079,-0.32992,0.18996,1.08291,-0.2972
0.33364,0.8877,-0.31729,-0.027,1.09091,-0.22049
0.34954,0.8847,-0.30843,-0.1981,0.23554,-0.34453
0.35496,0.88518,-0.30078,0.01745,-0.29968,-0.11111
0.35061,0.88986,-0.29192,0.43176,-0.2767,0.0392
0.32859,0.9017,-0.28101,0.17168,0.0788,-0.14689
0.29762,0.91861,-0.25994,0.18477,0.24444,-0.21005
0.26696,0.93477,-0.23437,0.14284,0.04676,-0.10307
0.24004,0.94696,-0.21365,0.04799,-0.19211,-0.05306
0.21626,0.95601,-0.19818,-0.03896,-0.22602,-0.03255
0.19625,0.96293,-0.18505,-0.12422,-0.2473,0.11608
0.18131,0.9681,-0.17296,-0.26084,-0.26738,0.27434
0.16923,0.9719,-0.16359,-0.43301,-0.45916,0.29046
0.15889,0.97466,-0.15747,-0.31466,-0.83463,0.23877
0.14712,0.97814,-0.14699,-0.27777,-1.19141,0.1795
0.14033,0.98208,-0.12579,-0.27215,-0.90061,0.01139
0.14123,0.98291,-0.11804,-0.05656,-0.04131,-0.21432
0.141,0.9785,-0.15054,-0.03531,1.23897,-0.01549
0.14938,0.97802,-0.14544,-0.11833,-0.11052,0.52038
0.16893,0.9741,-0.15027,0.24867,-0.40338,0.13106
0.17312,0.97167,-0.16087,0.93546,0.89568,-0.3388
0.17489,0.9725,-0.15379,0.80424,0.50922,0.41984
0.18206,0.97275,-0.14354,0.75411,-0.01873,0.24235
0.18247,0.97193,-0.14848,0.3531,-0.09255,-0.1581
0.173,0.9745,-0.14288,0.20579,0.09604,-0.07083
0.16333,0.97826,-0.12775,0.06113,0.37533,-0.01278
0.15693,0.98142,-0.11035,-0.05063,0.03635,0.02834
0.14682,0.98464,-0.09449,-0.0164,-0.06993,0.06422
0.13713,0.98666,-0.08771,0.07764,-0.06756,0.11238
0.12747,0.98755,-0.09221,0.17624,-0.21477,0.05572
0.11878,0.98742,-0.10435,0.20007,-0.28024,0.02602
0.11154,0.98667,-0.11851,0.10987,-0.32062,0.15392
0.10694,0.98545,-0.13211,0.05586,-0.34437,0.08439
0.10121,0.98365,-0.14898,-0.04704,-0.43602,0.22712
0.09559,0.98038,-0.17237,-0.16027,-0.36103,0.30194
0.09586,0.97413,-0.20464,-0.24094,-0.0991,0.10317
0.10534,0.96625,-0.23506,0.01348,0.35198,0.14693
0.12312,0.95879,-0.25606,0.23381,0.70757,0.1841
0.14082,0.95212,-0.27134,0.30362,0.55787,0.19012
0.15354,0.94756,-0.28027,0.12242,0.81871,-0.38564
0.17001,0.9451,-0.27909,-0.00845,1.13575,-0.13267
0.18699,0.94227,-0.27779,-0.01722,0.5155,-0.15393
0.20177,0.9392,-0.27784,0.13758,0.03511,-0.04153
0.21344,0.93792,-0.27341,0.13052,-0.11518,0.01589
0.21707,0.93951,-0.26496,0.20223,-0.27248,0.1144
0.21067,0.94261,-0.25904,0.11249,-0.15262,0.10725
0.19845,0.94588,-0.25675,0.03924,-0.09798,0.11956
0.18127,0.94999,-0.25428,0.02648,-0.13462,0.15679
0.157,0.95501,-0.25161,0.0428,-0.21557,0.16528
0.12657,0.96061,-0.24742,0.06136,-0.27564,0.15185
0.09546,0.9664,-0.23863,-0.07955,-0.42186,0.06264
0.06913,0.97154,-0.22656,-0.10974,-0.40106,0.01591
0.04625,0.97514,-0.21669,-0.05678,-0.33736,0.00137
0.02746,0.97723,-0.21038,0.03604,-0.25192,0.02722
0.01443,0.97857,-0.20542,0.06326,-0.15581,0.00911
0.00638,0.97943,-0.20166,0.02056,-0.13443,-0.022
0.00246,0.98024,-0.19777,-0.0042,-0.12467,-0.04582
0.0013,0.98099,-0.19404,0.03832,-0.31468,-0.15633
0.00279,0.98129,-0.19251,0.06838,-0.36132,-0.15468
0.00788,0.98084,-0.19467,0.11857,-0.41811,-0.12108
0.01485,0.97933,-0.20174,0.06447,-0.16924,-0.007
0.02601,0.97614,-0.21555,0.12328,-0.03466,0.04458
0.03679,0.97199,-0.23211,-0.06633,0.25118,0.03872
0.03825,0.96874,-0.2451,0.0158,1.42169,0.55226
0.03164,0.96732,-0.25157,-0.20216,0.76463,1.05145
0.01589,0.96625,-0.25712,0.41344,0.89447,0.24212
-0.00505,0.96521,-0.26141,0.72222,0.41095,0.45953
0.00486,0.9656,-0.25997,0.72329,0.11162,0.34166
0.02702,0.97017,-0.24089,0.02539,0.85574,0.06897
0.02472,0.97561,-0.21811,-0.10702,0.34501,0.31045
0.0038,0.98291,-0.18406,0.06034,0.23292,0.29405
-0.01215,0.98839,-0.15147,0.2078,0.14528,0.29063
-0.02188,0.99232,-0.12169,0.13188,0.05632,0.22301
-0.02841,0.99529,-0.09265,0.09265,-0.23312,0.15956
-0.03836,0.99728,-0.0629,-0.03645,-0.38455,0.08194
-0.05349,0.99806,-0.03167,-0.07953,-0.39946,0.04756
-0.06879,0.99763,-0.00229,-0.08579,-0.40322,0.11338
-0.08086,0.99649,0.02153,-0.07214,-0.40915,0.08586
-0.08903,0.99533,0.03736,-0.07084,-0.26144,-0.01314
-0.09689,0.99412,0.04826,-0.04881,-0.17659,-0.07133
-0.10507,0.99288,0.05609,0.12124,-0.1216,-0.02414
-0.11295,0.99182,0.05947,0.30076,-0.02182,-0.03441
-0.11957,0.99092,0.06142,0.45096,0.02023,-0.00642
-0.1273,0.98974,0.06481,0.60108,0.00245,0.0227
-0.13639,0.98837,0.06718,0.68741,0.12348,-0.01724
-0.14429,0.98695,0.07141,0.63585,0.213,-0.06237
-0.15118,0.98547,0.07736,0.65251,0.23412,-0.02986
-0.15527,0.98455,0.08092,0.75668,0.20258,0.01633
-0.15422,0.98486,0.07911,0.75371,0.19564,0.04723
-0.14611,0.98657,0.07292,0.31805,0.22243,0.1866
-0.13064,0.98974,0.05774,0.30351,0.07697,0.27095
-0.11124,0.99345,0.02593,0.15463,0.04491,0.16573
-0.08542,0.99622,-0.0159,-0.09906,0.1046,0.20341
-0.05251,0.99714,-0.05431,-0.03658,0.17389,0.04422
-0.01703,0.99705,-0.07477,-0.05173,0.3262,0.06427
0.02068,0.99563,-0.09109,-0.06554,0.45554,-0.00462
0.05865,0.99199,-0.11187,0.14465,0.33044,0.07834
0.09188,0.98743,-0.12861,0.19448,0.18854,0.11955
0.12007,0.98238,-0.14321,0.24807,0.05381,0.14898
0.14765,0.97632,-0.15811,0.19797,-0.07343,0.24601
0.17203,0.96974,-0.17323,0.16069,-0.08497,0.39842
0.19758,0.96083,-0.19433,0.12801,-0.15694,0.12598
0.21472,0.95435,-0.20761,0.09095,-0.07031,0.21553
0.22686,0.94865,-0.22043,0.12105,-0.06773,0.30443
0.23307,0.94342,-0.23587,0.0678,-0.02605,0.25083
0.23467,0.9405,-0.24576,0.02102,-0.06426,0.22241
0.2345,0.93969,-0.24899,-0.00742,-0.13666,0.20615
0.23078,0.94109,-0.24716,-0.02344,-0.23734,0.20071
0.2205,0.94465,-0.24292,0.00533,-0.27552,0.22644
0.20409,0.95007,-0.23602,0.03775,-0.29128,0.19839
0.1838,0.95609,-0.22828,0.11999,-0.21297,0.14077
0.16233,0.96123,-0.22288,0.14011,-0.00977,0.1379
0.14345,0.96509,-0.21914,0.12672,0.11136,0.09437
0.12971,0.96654,-0.22131,0.0291,0.23334,-0.22725
0.12132,0.96728,-0.22283,-0.01002,0.03519,0.08542
0.11799,0.96566,-0.23148,0.00885,-0.01928,0.18129
0.12021,0.96431,-0.2359,0.08905,-0.24413,0.09836
0.12415,0.967,-0.22249,0.19346,-0.1102,-0.14059
0.1268,0.96935,-0.21043,0.49421,0.72197,0.22943
0.13365,0.96988,-0.20363,0.08095,0.64053,0.28683
0.13765,0.97206,-0.19013,0.03082,0.3676,0.0133
0.13274,0.97331,-0.18719,-0.01955,0.0571,0.13393
0.1172,0.97379,-0.19495,0.24715,-0.12755,0.27602
0.09482,0.97573,-0.19737,0.25758,-0.32369,0.46339
0.06342,0.97896,-0.19395,0.15452,-0.19757,0.48242
0.03554,0.98298,-0.18026,-0.11812,0.1146,0.37613
0.02093,0.98768,-0.1551,-0.43744,0.28271,0.12211
0.01403,0.99095,-0.13348,-0.1654,0.00292,0.09521
0.01858,0.99298,-0.11682,0.1196,-0.12448,0.04556
0.02813,0.99489,-0.09692,0.14886,-0.15281,0.01377
0.03128,0.99662,-0.07592,0.1293,-0.2059,0.00717
0.02885,0.99795,-0.05715,0.10686,-0.19567,0.04575
0.02639,0.99875,-0.04233,0.09925,-0.17824,-0.01366
0.02442,0.99927,-0.02949,0.09617,-0.20292,-0.00463
0.02528,0.99948,-0.0202,0.08588,-0.21298,-0.00551
0.0297,0.99939,-0.01854,0.07023,-0.21573,-0.072
0.03816,0.999,-0.0235,0.05738,-0.23683,-0.11921
0.04636,0.99834,-0.03411,0.03811,-0.28243,-0.1746
0.05197,0.99772,-0.04295,0.05564,-0.39976,0.06827
0.05618,0.99733,-0.04659,0.07615,-0.36791,0.09598
0.05647,0.99692,-0.05442,0.11834,-0.31836,0.05384
0.05254,0.99652,-0.06473,0.33162,0.20267,0.0367
0.04492,0.9968,-0.06603,0.36418,0.15033,0.06415
0.04276,0.99686,-0.06668,0.37637,0.06393,0.07609
0.0473,0.99613,-0.07414,0.14798,-0.10413,-0.0057
0.05686,0.99467,-0.08604,0.08224,-0.13302,0.0795
0.06905,0.99249,-0.10102,0.04408,-0.19207,0.1958
0.08744,0.98783,-0.12864,-0.18719,-0.36069,0.38552
0.11411,0.97837,-0.17255,-0.3469,-0.35631,0.14246
0.14939,0.96776,-0.2028,-0.348,-0.09459,-0.08465
0.18892,0.95748,-0.21804,-0.124,0.10911,0.17328
0.2229,0.94664,-0.23278,0.31145,0.24608,0.04232
0.25327,0.93602,-0.24437,0.38508,0.8396,-0.30172
0.27848,0.92969,-0.24108,0.21647,0.62097,-0.18279
0.29752,0.9261,-0.23199,0.01812,0.32944,-0.20753
0.30935,0.92516,-0.21994,0.01838,-0.25932,-0.14314
0.3114,0.92772,-0.20584,0.11368,-0.304,-0.06022
0.30188,0.93449,-0.18869,-0.0101,-0.19442,-0.13254
0.28166,0.94406,-0.17154,0.2064,0.22542,-0.14021
0.25354,0.95478,-0.15532,0.16617,0.15681,0.1541
0.23074,0.96326,-0.13746,0.16862,0.10185,-0.38832
0.21315,0.96963,-0.11993,0.04414,-0.17387,-0.02315
0.19467,0.97587,-0.09892,0.01181,-0.15929,0.00032
0.17513,0.98103,-0.08316,-0.13924,-0.26081,0.08041
0.15827,0.9848,-0.07156,-0.09693,-0.63028,0.0388
0.14319,0.98803,-0.05743,-0.14639,-0.99344,-0.10759
0.12874,0.99114,-0.0327,-0.18041,-1.0792,-0.01167
0.12127,0.9926,-0.0068,-0.17505,-0.48394,0.09557
0.12351,0.99232,-0.00642,-0.01989,0.79717,0.1567
0.12692,0.99186,-0.01029,0.05312,1.67222,-0.12086
0.13437,0.99092,-0.00508,0.2284,0.80925,-0.47021
0.13877,0.99024,-0.01265,0.13876,0.50568,0.10771
0.14004,0.99,-0.01707,0.44157,-0.00324,-0.05714
0.1366,0.99017,-0.03003,0.44983,-0.58397,-0.16682
0.13567,0.99013,-0.03528,0.43478,0.01461,-0.35516
0.13174,0.99077,-0.03198,0.29158,0.46936,-0.30241
0.13005,0.9912,-0.02474,0.01772,0.40782,0.12549
0.13818,0.98986,-0.03297,-0.19302,-0.30582,0.30462
0.154,0.98613,-0.06196,-0.33512,-0.53148,0.21909
0.17013,0.98014,-0.10193,-0.39509,-0.75308,0.04793
0.1838,0.9726,-0.1424,-0.37885,-0.78638,0.05525
0.1967,0.9654,-0.17122,-0.27226,-0.81363,0.29621
0.20927,0.95656,-0.20299,-0.14365,-0.71202,0.19004
0.23144,0.94522,-0.23019,0.12755,0.20663,0.04752
0.26614,0.93052,-0.25162,0.29597,0.56674,0.19488
0.29385,0.91814,-0.26584,0.4172,0.82283,0.23921
0.29838,0.92031,-0.25299,0.09058,0.69487,-0.32451
0.28805,0.92833,-0.235,-0.24375,0.44895,-0.47492
0.26978,0.93826,-0.21654,-0.32075,0.179,-0.57529
0.24997,0.94689,-0.20229,0.34353,-0.06444,-0.21339
0.23088,0.95512,-0.18559,0.36097,0.01446,-0.23604
0.21006,0.96427,-0.16143,0.38332,0.17059,-0.27595
0.19075,0.97263,-0.13269,-0.00914,0.21692,-0.08707
0.1793,0.97791,-0.10749,-0.18802,-0.06973,-0.0438
0.17293,0.98109,-0.08697,-0.28197,-0.3115,0.02065
0.1621,0.98411,-0.07241,-0.33692,-0.85319,0.05934
0.14461,0.98803,-0.05365,-0.28439,-0.8463,0.11557
0.13073,0.99111,-0.02482,-0.24082,-0.53055,0.19568
0.12643,0.99192,-0.01015,-0.09275,0.40195,-0.14742
0.13319,0.99096,-0.01578,0.05437,2.1758,-0.01068
0.13497,0.99085,-0.00233,0.24931,0.41565,0.48766
0.16062,0.98702,-0.00113,0.73876,-0.33646,-0.12454
0.17998,0.98306,-0.03452,0.91415,-0.51262,-0.18268
0.18066,0.98237,-0.04799,0.39417,-0.61662,-0.24607
0.17624,0.98346,-0.04166,0.15621,0.16531,-0.00761
0.17104,0.98501,-0.0224,0.07424,0.4786,0.0143
0.16641,0.98605,-0.00391,-0.20082,0.63683,-0.0213
0.16484,0.98632,-0.00137,0.01185,0.115,0.0148
0.16273,0.98664,-0.00769,0.14927,-0.30024,0.1488
0.16506,0.98586,-0.02874,-0.0721,-0.53556,0.09475
0.1753,0.98241,-0.06441,-0.36824,-0.69829,0.17627
0.18445,0.97679,-0.10888,-0.44496,-0.85593,0.19566
0.19407,0.96884,-0.1539,-0.35764,-0.71092,-0.0078
0.21494,0.95895,-0.185,-0.14263,-0.10938,0.02226
0.24669,0.94407,-0.2188,0.04028,0.62954,-0.02426
0.27637,0.9287,-0.24726,0.48516,0.81837,0.24037
0.28976,0.92105,-0.26019,0.22306,0.28445,-0.24771
0.29484,0.92101,-0.25456,-0.04643,0.67062,-0.27698
0.29929,0.92552,-0.23202,-0.13685,0.57489,-0.46746
0.29741,0.93219,-0.20632,0.14718,-0.05908,-0.33351
0.28422,0.94104,-0.18346,0.29624,-0.02613,-0.20686
0.26002,0.95138,-0.16512,0.40761,0.03033,-0.06794
0.22754,0.96337,-0.14193,0.42599,0.19006,-0.13177
0.19841,0.97416,-0.1079,0.08214,0.05561,-0.04339
0.18198,0.98035,-0.07612,-0.1445,-0.24598,-0.04204
0.16501,0.98472,-0.05559,-0.28968,-1.03195,0.09632
0.14045,0.98915,-0.04309,-0.19459,-1.05949,0.10751
0.11881,0.99238,-0.03272,-0.16405,-1.04752,-0.00494
0.11331,0.99351,-0.00946,-0.04306,-0.5638,0.07269
0.13031,0.99138,0.01383,0.10651,0.00896,-0.17957
0.1544,0.9879,0.01489,0.13885,0.60296,-0.17956
0.15883,0.98719,0.01524,-0.20089,0.72596,-0.15262
0.15486,0.98794,0.00077,0.04234,0.95255,-0.22976
0.14122,0.98995,-0.007,0.34871,-0.02015,-0.08938
0.13884,0.9902,-0.0149,0.44276,-0.08867,-0.27302
0.13723,0.99034,-0.01995,0.37134,0.19912,-0.15391
0.13875,0.9902,-0.0158,0.20008,0.3044,-0.05235
0.14559,0.98907,-0.02336,-0.12278,-0.1325,0.17634
0.15169,0.98758,-0.04085,-0.13688,-0.27163,0.25289
0.15847,0.98512,-0.06646,-0.25709,-0.53618,0.28948
0.17082,0.98013,-0.10085,-0.43705,-0.7505,0.22187
0.186,0.97382,-0.13065,-0.43145,-0.78678,0.19415
0.19981,0.96717,-0.15705,-0.10905,-0.6832,0.02569
0.21918,0.95843,-0.18271,0.01099,-0.0358,-0.19019
0.24817,0.94688,-0.20451,0.13497,0.37413,-0.12424
0.28405,0.93231,-0.22387,0.62066,0.6997,0.19982
0.30266,0.92318,-0.23695,0.63117,0.24087,-0.29737
0.30127,0.92439,-0.23398,0.01904,0.3742,-0.50302
0.29167,0.93334,-0.2093,-0.00633,0.78924,-0.34417
0.27176,0.94269,-0.1936,-0.08595,0.40759,-0.52768
0.25112,0.95187,-0.17575,0.10875,0.20531,-0.4931
0.22962,0.96085,-0.15502,0.29403,-0.09449,-0.012
0.20881,0.96852,-0.13551,0.15147,-0.33308,0.05229
0.19188,0.97462,-0.11532,0.10571,-0.69552,0.03014
0.1756,0.9799,-0.09461,0.10279,-0.98498,0.0203
0.15554,0.98489,-0.07614,0.04452,-1.17514,-0.0125
0.13767,0.98867,-0.0598,-0.16841,-1.22114,-0.15335
0.13096,0.99056,-0.04045,-0.43836,-1.00941,-0.03707
0.14172,0.98965,-0.02246,-0.34313,-0.05276,-0.02835
0.16479,0.98581,-0.0318,-0.16182,1.68795,0.37568
0.17062,0.98523,-0.01438,0.20665,2.43697,-0.55891
0.16873,0.98526,-0.02801,0.1021,-0.26368,0.3423
0.17642,0.98334,-0.04383,0.58197,-0.31671,-0.03909
0.17583,0.98265,-0.05898,0.51104,-0.05891,-0.06712
0.17863,0.98188,-0.06324,0.13619,0.07316,-0.26256
0.18185,0.98155,-0.05913,0.15984,0.56788,-0.05705
0.18296,0.98152,-0.05608,0.06471,0.3664,0.02988
0.18923,0.97987,-0.06365,-0.02082,-0.16467,0.10417
0.19964,0.97672,-0.07851,-0.11566,-0.29824,0.19902
0.21024,0.97215,-0.10356,-0.22901,-0.59306,0.28383
0.22353,0.96523,-0.13551,-0.16365,-0.60778,0.12301
0.23426,0.95726,-0.16965,-0.16869,-0.53772,-0.00267
0.24631,0.94782,-0.2024,-0.22703,-0.20722,0.07809
0.26878,0.93502,-0.23128,-0.0513,0.99468,0.09237
0.29752,0.92025,-0.2542,0.05423,1.08127,0.03995
0.30855,0.91482,-0.26056,0.16625,0.72641,-0.29093
0.3072,0.91669,-0.25554,-0.19052,0.29772,-0.37001
0.29944,0.92282,-0.24236,-0.03583,0.19478,-0.33041
0.28648,0.92941,-0.23264,0.18898,0.07564,-0.29133
0.26591,0.93778,-0.2233,0.46372,0.37832,-0.21507
0.24323,0.9484,-0.20342,0.40068,0.35966,-0.2376
0.22551,0.95826,-0.17575,0.19857,0.24818,-0.29442
0.2098,0.96598,-0.15119,-0.06195,-0.37481,-0.05897
0.19446,0.97192,-0.13246,-0.10331,-0.50969,0.06508
0.17809,0.97681,-0.11885,-0.15376,-0.66056,0.15707
0.16058,0.98129,-0.10621,-0.10393,-1.17099,0.17103
0.14077,0.98589,-0.09055,-0.11209,-1.22791,0.07272
0.11839,0.99096,-0.0631,-0.15297,-1.28149,-0.09234
0.10768,0.993,-0.04845,-0.04067,0.69195,-0.21786
0.11505,0.99124,-0.06484,-0.01013,1.45528,0.42602
0.1306,0.99108,-0.02647,-0.04759,1.8406,0.15289
0.13857,0.98967,-0.03676,0.14374,-0.19846,0.00881
0.13596,0.98912,-0.05612,0.38057,0.32217,-0.293
0.1427,0.9886,-0.04814,0.76125,0.32775,0.15705
0.14647,0.98831,-0.04235,0.33278,-0.00676,-0.03124
0.14321,0.98893,-0.03893,0.19042,0.0027,-0.14245
0.13284,0.99072,-0.02883,0.04733,0.3886,-0.01597
0.1197,0.99269,-0.01534,0.11052,0.16298,-0.0684
0.10502,0.99446,-0.00364,0.12951,0.02894,-0.05473
0.08879,0.99602,0.00742,0.19849,0.00924,-0.00862
0.07436,0.99711,0.01568,0.25097,-0.03904,-0.0725
0.06219,0.9979,0.01807,0.26371,-0.08668,-0.08345
0.05255,0.99848,0.01654,0.20734,-0.1771,-0.03395
0.04554,0.99891,0.01017,0.17385,-0.23303,-0.04166
0.04193,0.99911,-0.00334,0.15752,-0.3219,-0.02325
0.04087,0.99895,-0.02085,0.11181,-0.49835,0.09125
0.0421,0.99831,-0.04003,-0.08263,-0.56148,0.11089
0.04755,0.99692,-0.06229,-0.15685,-0.41535,0.18524
0.06137,0.99443,-0.08564,0.07282,-0.13419,0.27872
0.07973,0.99104,-0.10717,0.50238,0.42954,0.10289
0.10431,0.98638,-0.12715,0.73007,2.12644,-0.21993
0.13812,0.98356,-0.11636,-0.22506,1.75065,-0.0692
0.16058,0.9792,-0.12398,-0.1267,0.51352,0.04492
0.18148,0.97345,-0.13953,0.12267,0.30397,0.0315
0.19642,0.96873,-0.15159,0.08881,0.20874,-0.01037
0.21277,0.96476,-0.15479,0.16115,0.2789,-0.00809
0.22732,0.96082,-0.15857,0.19747,0.09364,0.15036
0.23775,0.95728,-0.16459,0.17262,-0.00841,0.20294
0.24576,0.95416,-0.17084,0.00316,-0.0619,0.22385
0.25109,0.95165,-0.17699,-0.02044,-0.20085,0.20804
0.24831,0.95101,-0.18418,-0.01988,-0.35285,0.22586
0.23595,0.95269,-0.19159,-0.03581,-0.47218,0.3103
0.21802,0.95569,-0.19782,-0.02399,-0.51559,0.31214
0.20051,0.95885,-0.20098,-0.19107,-0.42979,0.26799
0.18489,0.96181,-0.20183,-0.19244,-0.40345,0.18432
0.16945,0.96457,-0.20223,-0.08125,-0.22092,0.0392
0.15265,0.96704,-0.20378,0.02796,0.02826,-0.09073
0.13538,0.96871,-0.20803,0.16165,0.08566,-0.20461
0.12552,0.96937,-0.21112,0.16449,-0.12275,-0.02388
0.12707,0.96779,-0.21733,0.07518,-0.19677,-0.04787
0.13348,0.9659,-0.22186,0.07765,0.01073,-0.09815
0.13923,0.96642,-0.21599,0.02407,-0.03754,-0.1022
0.14021,0.9691,-0.20296,0.0409,-0.09831,-0.20341
0.13621,0.97083,-0.19733,0.36305,0.77465,0.15615
0.13837,0.97029,-0.19846,0.23026,0.81831,0.29204
0.14531,0.9714,-0.18778,-0.04423,0.90444,0.40349
0.14711,0.97049,-0.19108,0.02207,0.11891,0.19263
0.14957,0.96601,-0.21085,0.11874,-0.08548,0.12056
0.14844,0.96365,-0.22214,0.09211,-0.25412,0.34903
0.14137,0.9632,-0.2286,0.07741,-0.48363,0.34652
0.13171,0.96666,-0.21959,-0.06706,-0.09905,0.3039
0.1197,0.97299,-0.19741,-0.00396,0.47044,0.22994
0.11151,0.9784,-0.17409,0.04976,0.39557,0.15012
0.10714,0.98207,-0.15513,0.18507,0.09095,0.19602
0.10885,0.98481,-0.13528,0.10187,-0.05944,0.15924
0.10622,0.98749,-0.11651,-0.09523,-0.1616,0.11285
0.0951,0.99063,-0.09804,-0.1091,-0.14195,0.1708
0.08181,0.99358,-0.07816,-0.09263,-0.04051,0.15127
0.07142,0.99568,-0.05937,-0.09025,-0.00671,0.13011
0.06337,0.99715,-0.04081,-0.05518,-0.03014,0.12788
0.05688,0.99818,-0.02025,0.02118,-0.10422,0.13012
0.05232,0.99863,0.00136,0.03739,-0.11751,0.11296
0.04821,0.99861,0.02138,0.02796,-0.1264,0.06174
0.04433,0.99826,0.03881,0.04895,-0.13297,0.01477
0.04204,0.99766,0.0539,0.08066,-0.0592,0.01124
0.04036,0.99707,0.065,0.10861,0.08011,-0.02867
0.03794,0.99656,0.07373,0.08735,0.08198,-0.00609
0.03536,0.99604,0.08155,0.06859,-0.01186,-0.007
0.03235,0.99552,0.08888,0.10609,0.00592,0.00708
0.02633,0.99495,0.09689,0.13264,0.05875,0.01807
0.0213,0.99422,0.10525,0.09299,0.01187,0.05185
0.01814,0.9938,0.10971,0.14893,0.02337,0.03755
0.01678,0.99405,0.10765,0.2479,0.06969,0.11784
0.01943,0.9945,0.10289,0.14867,0.23037,0.20854
0.02708,0.99499,0.0962,0.1001,0.29717,0.18142
0.0417,0.99534,0.08697,0.05065,0.49539,0.11107
0.05727,0.9957,0.07276,-0.08811,0.28381,0.09433
0.07146,0.99616,0.05046,-0.11776,0.14798,0.12112
0.08526,0.99611,0.02214,-0.24458,-0.1147,0.07011
0.1014,0.99484,-0.00383,-0.25061,-0.12203,0.04478
0.11893,0.99253,-0.02721,-0.12789,0.02725,0.0105
0.1359,0.98947,-0.04976,-0.0323,0.12817,-0.01279
0.15262,0.98585,-0.0693,-0.00844,0.21025,0.07151
0.16774,0.98167,-0.09047,-0.04169,0.18523,0.13013
0.17888,0.97767,-0.11031,-0.14226,0.07548,0.08867
0.18728,0.97426,-0.1255,-0.21946,-0.05616,0.10494
0.194,0.97094,-0.14014,-0.23216,-0.09068,0.11403
0.1984,0.96775,-0.15521,-0.19628,-0.04794,0.1038
0.20145,0.96498,-0.16803,-0.13627,0.02198,0.08902
0.20414,0.96232,-0.17964,-0.1412,0.0063,0.07851
0.20528,0.96001,-0.19036,-0.151,-0.05936,0.06871
0.20202,0.95888,-0.19933,-0.16228,-0.10549,0.08895
0.19522,0.95891,-0.20588,-0.09285,-0.11421,0.08315
0.18684,0.95985,-0.20924,-0.10432,-0.04963,0.02279
0.17983,0.96078,-0.2111,-0.10416,-0.02883,0.02781
0.17387,0.96135,-0.21351,-0.11463,-0.04686,-0.014
0.16959,0.96169,-0.21539,-0.14469,-0.07096,-0.03678
0.16793,0.96203,-0.21515,-0.19056,-0.06778,-0.03184
0.16566,0.96215,-0.2164,-0.20307,-0.00515,-0.01247
0.16131,0.96195,-0.22051,-0.1984,0.03139,0.00198
0.15709,0.96232,-0.22196,-0.1755,0.03065,-0.15432
0.15496,0.96266,-0.22198,-0.16325,-0.01118,-0.11839
0.15675,0.96219,-0.22276,-0.1768,-0.03927,-0.08161
0.15926,0.96119,-0.22526,-0.2278,-0.11096,-0.07627
0.16509,0.9604,-0.22445,-0.18447,-0.1582,-0.05704
0.16481,0.96113,-0.2215,-0.15123,0.0438,-0.06883
0.16782,0.96134,-0.2183,-0.15863,0.34455,0.24346
0.172,0.9599,-0.22136,-0.23675,0.28131,0.29947
0.17377,0.95722,-0.23136,-0.20845,0.28811,0.26809
0.17189,0.95388,-0.24612,0.00435,0.08606,0.19717
0.17309,0.95129,-0.25512,0.14145,0.05717,0.34567
0.17355,0.95097,-0.256,0.13335,-0.04031,0.33769
0.16971,0.95363,-0.24856,0.03569,0.01339,0.34356
0.15946,0.9589,-0.23471,-0.01629,0.25992,0.25009
0.14458,0.9654,-0.21701,0.01204,0.25229,0.1026
0.13229,0.97165,-0.19591,0.06824,0.09287,0.07766
0.12362,0.97716,-0.17283,0.04256,-0.1106,0.0489
0.11387,0.98208,-0.15016,-0.06305,-0.16598,0.0157
0.10136,0.98637,-0.12959,-0.10584,-0.11863,0.03411
0.08712,0.98984,-0.11239,-0.08462,0.01166,0.0667
0.07328,0.99228,-0.09999,-0.02303,0.01869,0.05378
0.06177,0.9936,-0.09455,-9e-05,0.00144,0.09852
0.05392,0.99413,-0.09382,-0.0162,-0.03049,0.06836
0.04865,0.99462,-0.09143,0.00363,-0.01908,-0.03221
0.04367,0.99557,-0.08324,0.10997,0.01203,0.04885
0.03726,0.99664,-0.07289,0.14921,0.0773,0.0688
0.02891,0.99762,-0.06255,0.18592,0.06547,0.10156
0.01871,0.99823,-0.05634,0.2712,0.0095,0.26966
0.0087,0.99857,-0.05265,0.13297,-0.02509,0.12462
-0.00096,0.999,-0.04455,-0.06493,-0.04724,0.04292
-0.00775,0.99948,-0.03119,-0.12964,0.02123,0.01499
-0.00908,0.9998,-0.01768,-0.08492,0.01421,-0.00031
-0.00825,0.99994,-0.00738,0.02253,0.0143,0.02836
-0.00869,0.99996,-0.00199,0.00224,0.08914,0.08773
-0.01013,0.99995,0.00034,0.01422,0.0882,0.0674
-0.01111,0.99994,0.0013,0.02396,0.06565,0.05551
-0.01011,0.99995,0.00037,0.01933,0.04412,-0.01406
-0.00687,0.99997,-0.00257,0.02848,0.04519,-0.0134
-0.00049,0.99997,-0.008,0.03486,0.03444,-0.01009
0.0094,0.99984,-0.0151,0.13077,-0.03384,-0.01374
0.0216,0.99943,-0.02595,0.12994,-0.03548,-0.00942
0.03649,0.99858,-0.03882,0.1365,-0.04023,0.00362
0.05506,0.99719,-0.05081,0.16651,-0.09411,-0.03833
0.07566,0.9953,-0.06037,0.1375,-0.11005,-0.04199
0.09512,0.99324,-0.0665,0.11678,-0.1454,-0.03456
0.11303,0.99094,-0.07253,0.10334,-0.13507,-0.04687
0.12602,0.98858,-0.08259,0.09728,-0.12725,-0.04951
0.13723,0.98589,-0.0958,0.0715,-0.09847,-0.03691
0.1479,0.98281,-0.11051,0.17992,-0.0641,-0.00671
0.15882,0.9799,-0.12072,0.2347,-0.1249,0.01634
0.16913,0.97751,-0.12592,0.24832,-0.19399,0.00144
0.17879,0.97538,-0.12909,0.28787,-0.2439,-0.004
0.18808,0.97317,-0.13253,0.28486,-0.26624,-0.01857
0.19677,0.97103,-0.13556,0.25855,-0.28364,-0.04194
0.20414,0.96933,-0.13683,0.19751,-0.22211,-0.02632
0.21048,0.96816,-0.13552,0.18803,-0.1732,-0.02537
0.21558,0.96727,-0.13384,0.21475,-0.11426,0.04732
0.2174,0.9668,-0.1343,0.19842,-0.09582,0.06396
0.21707,0.96652,-0.13682,0.19391,0.01877,-0.0186
0.21539,0.96634,-0.14065,0.21546,0.1157,-0.0032
0.2148,0.96546,-0.14748,0.21021,0.08165,0.19034
0.21714,0.96208,-0.16507,0.22053,-0.0892,0.30965
0.22432,0.95424,-0.19772,0.12355,-0.36498,0.29965
0.23652,0.9426,-0.23572,-0.02568,-0.57034,0.23221
0.25426,0.92852,-0.27056,-0.25561,-0.44199,0.27906
0.27482,0.91252,-0.30295,-0.45059,-0.16363,0.32129
0.29881,0.89614,-0.32811,-0.40357,0.22946,0.49298
0.32945,0.88021,-0.3416,-0.57449,1.08256,-0.30442
0.36756,0.86735,-0.33554,0.34237,1.28978,-0.14007
0.3894,0.85913,-0.33206,0.1814,0.0096,-0.16172
0.40393,0.85529,-0.32453,0.09195,-0.27243,-0.06531
0.41098,0.85533,-0.31544,0.14815,-0.26715,0.02021
0.40476,0.86058,-0.30914,0.04454,0.16688,-0.07314
0.38238,0.87141,-0.30729,0.16021,0.34793,-0.07502
0.34928,0.88628,-0.30416,0.11431,0.32605,-0.12102
0.31675,0.90159,-0.29462,-0.03088,0.25961,-0.01908
0.29145,0.91477,-0.27974,-0.07705,0.22454,-0.02431
0.26964,0.92693,-0.26095,-0.15135,0.06851,0.00961
0.24966,0.93842,-0.23881,-0.14141,-0.0062,0.21154
0.23064,0.94853,-0.21699,-0.1242,0.03194,0.17315
0.21585,0.95694,-0.19409,-0.21814,0.00563,0.22949
0.20964,0.96161,-0.17705,-0.22038,-0.46531,0.28503
0.20826,0.96405,-0.16499,-0.16912,-0.63982,0.25813
0.20198,0.96809,-0.14831,-0.13153,-0.81337,0.20463
0.18497,0.97457,-0.12646,-0.08318,-1.15586,-0.00805
0.16393,0.97998,-0.113,-0.15792,-1.11216,-0.01344
0.1498,0.98175,-0.11716,-0.30991,0.11713,0.03156
0.15074,0.98119,-0.12061,-0.43316,1.47095,0.6235
0.15361,0.9838,-0.09243,0.04617,2.11806,-0.35761
0.17101,0.98122,-0.08917,0.22372,-0.34554,0.44153
0.20523,0.9723,-0.11186,0.67553,-0.28985,0.00227
0.22127,0.96323,-0.15237,0.69862,-0.75156,-0.23911
0.21602,0.96285,-0.162,0.35537,-0.24676,-0.07342
0.20702,0.96609,-0.1543,0.27527,0.39097,0.03605
0.20307,0.96884,-0.14179,0.03002,0.80608,0.14145
0.20551,0.96952,-0.1334,-0.06266,0.29559,0.13952
0.21012,0.96907,-0.12941,-0.01829,0.13092,-0.0475
0.20599,0.96988,-0.13,0.20793,0.07575,0.08956
0.20486,0.96879,-0.13959,0.1015,-0.15597,0.12134
0.2058,0.96631,-0.15458,0.06875,-0.37645,0.15786
0.20706,0.96307,-0.17208,-0.08564,-0.49214,0.2694
0.21077,0.95829,-0.19303,-0.27711,-0.39562,0.36241
0.22084,0.94764,-0.23069,-0.22574,-0.03133,-0.01942
0.23959,0.93201,-0.27193,-0.1439,0.19422,0.16757
0.26815,0.91592,-0.29864,0.22483,0.80338,-0.18076
0.29347,0.89691,-0.3308,0.29911,1.2842,-0.48881
0.31424,0.88534,-0.34266,0.27231,1.21565,-0.15688
0.32701,0.87896,-0.34712,-0.2617,0.15543,-0.25203
0.33052,0.87565,-0.35213,-0.16914,0.02168,-0.06907
0.331,0.8751,-0.35303,-0.06428,0.04419,-0.03401
0.32939,0.87736,-0.34892,-0.31217,0.2082,-0.21442
0.33306,0.88465,-0.3263,-0.17291,0.1398,-0.19261
0.33468,0.89319,-0.30032,0.05665,-0.21026,0.00193
0.32049,0.90345,-0.2847,-0.03481,-0.57118,0.03244
0.29156,0.91825,-0.26799,-0.05239,-0.55408,0.12878
0.2584,0.93261,-0.25191,-0.17437,-0.32498,0.18936
0.2314,0.94335,-0.2378,-0.11625,-0.29027,0.20693
0.21154,0.95173,-0.22237,-0.15827,-0.321,0.1563
0.19548,0.95902,-0.20508,-0.24432,-0.31526,0.04355
0.18203,0.96518,-0.18786,-0.34183,-0.10837,0.0119
0.17242,0.96951,-0.17411,-0.29696,0.04498,0.12245
0.16813,0.97191,-0.16469,-0.27497,-0.09712,0.27742
0.16928,0.9734,-0.15435,-0.20375,-0.15689,0.13421
0.17101,0.97493,-0.14235,-0.0553,-0.01656,-0.0618
0.17018,0.97668,-0.1309,-0.02586,0.15896,-0.20193
0.16886,0.9775,-0.12639,0.03581,0.16762,-0.12979
0.17452,0.97714,-0.1214,0.05999,-0.02125,0.07778
0.1821,0.97568,-0.12199,0.02822,0.0596,0.18145
0.18536,0.97414,-0.12923,0.0198,0.34259,0.12429
0.18207,0.97449,-0.13125,0.09156,0.60573,0.16121
0.17739,0.97686,-0.11945,0.39794,0.43364,-0.04226
0.17877,0.97839,-0.10387,0.55377,0.7079,-0.05106
0.18822,0.97775,-0.09264,0.25999,0.16948,0.18933
0.19709,0.97608,-0.09179,0.13188,0.06451,0.10696
0.195,0.97598,-0.09712,0.00547,-0.06279,0.03696
0.19335,0.97671,-0.09299,-0.2024,-0.07328,0.17204
