gravity.x,gravity.y,gravity.z,userAcceleration.x,userAcceleration.y,userAcceleration.z
0.23638,0.94694,-0.21777,-0.11926,-0.64829,-0.15705
0.23817,0.94702,-0.21545,-0.07664,-0.84783,-0.11136
0.2422,0.94609,-0.21506,0.08459,-0.42747,-0.14309
0.2387,0.94533,-0.22219,0.38804,0.04011,0.2005
0.22206,0.94777,-0.22895,0.50675,0.40842,0.50626
0.21401,0.94773,-0.23667,-0.03538,-0.2191,0.39771
0.21581,0.9433,-0.25221,-0.43581,-0.70956,0.21411
0.21874,0.93679,-0.27309,-0.66156,-0.88988,0.26853
0.21406,0.92928,-0.30102,-0.46672,-0.77175,0.42801
0.20874,0.92166,-0.32705,-0.22144,-0.12151,0.18361
0.21406,0.90809,-0.35994,0.25679,1.35748,-0.0789
0.23145,0.89046,-0.39181,0.60235,1.78763,-0.08137
0.24467,0.88498,-0.39617,0.0244,0.37287,-0.18284
0.25464,0.88505,-0.38967,0.03833,-0.169,-0.15718
0.26576,0.88386,-0.38491,0.09162,-0.14538,-0.04398
0.27321,0.88282,-0.38207,-0.1107,0.22287,-0.06283
0.28287,0.87932,-0.38311,-0.1531,0.42463,-0.14617
0.28937,0.87947,-0.37789,-0.03989,0.41665,0.00431
0.28863,0.88711,-0.36018,-0.00695,0.12658,0.0477
0.28214,0.89836,-0.33667,0.04128,-0.08564,-0.03293
0.27214,0.90898,-0.31572,0.02377,-0.18079,-0.104
0.26194,0.91836,-0.29665,-0.11758,-0.23649,-0.03257
0.25215,0.92655,-0.27913,-0.38483,-0.27479,-0.07885
0.24252,0.93342,-0.2644,-0.52038,-0.54783,0.12997
0.23626,0.93781,-0.25432,-0.53918,-0.67442,0.23008
0.23262,0.94121,-0.24497,-0.15282,-1.07532,0.22032
0.23878,0.94281,-0.23258,0.03504,-1.04855,0.26451
0.25667,0.94035,-0.22327,0.03517,-0.83159,0.31431
0.2745,0.93412,-0.22817,0.84487,1.90853,-0.21641
0.26123,0.93443,-0.24208,0.85814,1.90822,-0.2025
0.23503,0.94613,-0.22268,-0.41501,0.69777,0.13342
0.23371,0.94494,-0.22906,0.15845,0.48853,-0.2246
0.24376,0.93845,-0.24471,0.64919,0.68929,-0.5843
0.24431,0.9387,-0.24323,0.45827,0.22567,-0.27934
0.24858,0.93813,-0.24108,0.53935,0.09231,-0.04555
0.25853,0.93692,-0.23524,0.10513,0.0497,0.16081
0.25925,0.93898,-0.22603,-0.00623,0.21669,0.02828
0.25598,0.94087,-0.22187,0.07093,-0.03721,-0.01046
0.25464,0.9399,-0.22747,0.02188,-0.30391,-0.08039
0.25379,0.93709,-0.23968,0.05259,-0.3221,0.14452
0.24954,0.93447,-0.25393,0.14813,-0.26512,0.32965
0.24324,0.93161,-0.27007,-0.01534,-0.38252,0.3802
0.23748,0.92598,-0.29353,-0.21784,-0.59969,0.30737
0.233,0.91857,-0.31927,-0.43632,-0.75047,0.28545
0.2293,0.91168,-0.34098,-0.47936,-0.63961,0.35096
0.22595,0.90402,-0.36289,-0.2738,0.30714,-0.00238
0.22412,0.89143,-0.39386,-0.0586,0.88784,0.00648
0.22891,0.87883,-0.41863,0.72908,1.3916,0.08831
0.23168,0.87493,-0.42524,-0.02509,0.58827,-0.05782
0.23516,0.87055,-0.43224,-0.0737,0.40148,-0.1551
0.24293,0.86428,-0.44046,-0.11453,1.13174,-0.30129
0.25157,0.86087,-0.44228,-0.04875,0.44226,-0.19232
0.25961,0.85932,-0.44064,0.0111,-0.27899,0.0359
0.2673,0.86185,-0.43101,0.04932,-0.59535,0.12568
0.26992,0.87039,-0.41177,0.02514,-0.43452,0.11636
0.26388,0.8834,-0.38726,-0.03045,-0.37478,0.0607
0.2495,0.89806,-0.36226,-0.07709,-0.41395,0.04332
0.23253,0.91204,-0.33781,-0.14209,-0.54494,0.12099
0.2205,0.92254,-0.31669,-0.27632,-0.55285,0.07068
0.21527,0.92842,-0.30281,-0.31004,-0.49273,0.04312
0.21348,0.93168,-0.29394,-0.18331,-0.15426,0.10961
0.21281,0.93466,-0.28481,-0.15983,0.04979,-0.03411
0.22261,0.93455,-0.27759,-0.25646,-0.18215,-0.0455
0.23835,0.93234,-0.27189,-0.33974,-0.2771,0.16641
0.25264,0.93101,-0.26341,-0.30569,-0.42523,0.26566
0.2548,0.9321,-0.25742,-0.21096,-0.52304,0.31854
0.24438,0.93439,-0.2592,0.06374,-0.22084,0.46248
0.23562,0.93768,-0.25542,0.34632,0.75623,0.46686
0.23289,0.9389,-0.25342,0.68183,1.62171,0.03309
0.23776,0.93812,-0.25177,-0.04366,1.03363,-0.2932
0.24529,0.93131,-0.26923,0.08217,1.33125,0.25342
0.25848,0.92703,-0.27166,0.33224,0.00992,-0.50613
0.27371,0.92233,-0.27272,0.55749,-0.15827,-0.06199
0.28634,0.9189,-0.27136,0.50048,0.01822,0.13693
0.29379,0.92138,-0.25444,-0.02609,0.11991,0.18071
0.28893,0.9283,-0.23402,-0.27747,0.43658,0.10653
0.28323,0.93366,-0.21921,-0.10458,0.17799,-0.06354
0.28049,0.93612,-0.21213,0.08405,-0.24893,-0.14099
0.27723,0.93746,-0.21051,0.03046,-0.5156,0.0005
0.27179,0.9393,-0.20936,-0.01402,-0.63027,0.06567
0.26058,0.94266,-0.20854,-0.04691,-0.59026,0.01733
0.24773,0.94533,-0.21208,0.07913,-0.46387,0.08922
0.23541,0.9475,-0.21636,0.30188,-0.27279,0.03654
0.22237,0.94962,-0.22082,0.35698,-0.22578,0.14718
0.20937,0.95048,-0.22968,0.15051,-0.24187,0.17051
0.19833,0.94922,-0.24422,-0.09857,-0.31749,0.32508
0.18959,0.94617,-0.26231,-0.30969,-0.44109,0.2958
0.18209,0.94193,-0.28213,-0.46533,-0.38354,0.23153
0.17895,0.93611,-0.30276,-0.38067,0.23048,0.0978
0.18442,0.92406,-0.3348,-0.08217,1.19157,0.24796
0.19639,0.91315,-0.3572,0.2958,0.85661,-0.26695
0.19622,0.90905,-0.36758,0.18635,0.96761,-0.09906
0.20037,0.90464,-0.37614,0.26881,0.93248,-0.09189
0.20715,0.90171,-0.37947,0.03563,0.58887,-0.2993
0.21113,0.90214,-0.37624,-0.02241,0.39458,-0.33117
0.21035,0.90633,-0.36649,-0.00546,-0.16405,-0.00271
0.20647,0.91256,-0.35299,-0.0207,-0.43344,0.13192
0.19791,0.92094,-0.33571,-0.08231,-0.43614,0.22256
0.187,0.93074,-0.31424,-0.14713,-0.39974,0.13737
0.1766,0.93977,-0.29263,-0.19085,-0.49054,0.16642
0.16468,0.94802,-0.27228,-0.25405,-0.61399,0.15723
0.15472,0.9549,-0.25344,-0.30919,-0.65677,0.09748
0.14972,0.95945,-0.23881,-0.3567,-0.65516,0.11396
0.14461,0.96202,-0.23152,-0.20732,-0.30578,0.13212
0.14087,0.96308,-0.2294,-0.10497,-0.10555,0.08647
0.15524,0.96021,-0.23212,0.03925,-0.38551,-0.02362
0.1841,0.95514,-0.23198,0.06491,-0.39158,0.04314
0.21548,0.94985,-0.22658,0.08559,-0.31787,0.01736
0.23282,0.94748,-0.21926,0.0575,-0.25955,0.08164
0.2288,0.94957,-0.21439,-0.1577,-0.15683,0.54561
0.216,0.95281,-0.21327,0.17934,1.16373,0.40193
0.20873,0.9561,-0.20568,0.4138,1.15665,0.03667
0.21894,0.95636,-0.19346,0.14539,0.31666,-0.31199
0.23468,0.9526,-0.19355,0.26825,0.34752,-0.08327
0.24388,0.9499,-0.19548,0.44335,0.79147,-0.13374
0.24267,0.95046,-0.19424,0.67605,1.00169,-0.18226
0.23771,0.95293,-0.18818,0.35215,0.34651,-0.02126
0.23412,0.95564,-0.17868,0.05067,0.12878,0.05629
0.22894,0.95854,-0.16967,-0.11565,-0.01025,0.00768
0.22073,0.9617,-0.16248,-0.12449,-0.05274,-0.05032
0.21157,0.96433,-0.15907,-0.02611,-0.28488,-0.00513
0.20178,0.96677,-0.15696,0.08531,-0.47071,0.08456
0.19101,0.96897,-0.15689,0.11705,-0.67754,0.08547
0.17759,0.97064,-0.16223,0.13369,-0.84211,0.20569
0.16211,0.97187,-0.17081,0.06429,-0.82794,0.202
0.14967,0.9719,-0.18165,-0.01904,-0.68272,0.16512
0.14015,0.97017,-0.19781,-0.04329,-0.59625,0.17077
0.13287,0.96728,-0.21611,-0.10957,-0.65506,0.21011
0.12866,0.96423,-0.23175,-0.02702,-0.64805,0.2427
0.12681,0.95987,-0.25012,-0.05766,-0.32978,0.16365
0.13043,0.95115,-0.27982,0.15566,1.55596,-0.07945
0.14751,0.93732,-0.31568,0.49134,1.72851,0.11959
0.1591,0.92878,-0.33474,0.35558,0.7588,-0.2147
0.1654,0.92221,-0.34952,0.40374,0.87561,-0.30111
0.1712,0.9138,-0.36831,0.4057,1.31807,-0.47184
0.17437,0.90881,-0.37902,0.06897,0.76638,-0.29051
0.18048,0.90673,-0.38113,0.03899,0.46336,-0.25116
0.18361,0.90727,-0.37835,0.1577,-0.1997,-0.03449
0.18188,0.91098,-0.37018,0.26024,-0.35087,0.02763
0.17218,0.91867,-0.35551,0.2449,-0.38513,0.06442
0.15806,0.92721,-0.33956,-0.02295,-0.44857,0.19231
0.14145,0.93595,-0.32245,-0.11782,-0.62954,0.28873
0.12441,0.94555,-0.30075,-0.17208,-0.70141,0.23225
0.10881,0.9556,-0.27381,-0.13249,-0.71313,0.12901
0.09461,0.96484,-0.24522,-0.10753,-0.69265,0.00936
0.082,0.97125,-0.22346,-0.09218,-0.58254,0.03826
0.07467,0.97519,-0.20837,-0.00974,-0.37381,0.10421
0.07315,0.97794,-0.19565,0.01825,-0.09607,0.07507
0.0696,0.9797,-0.18799,-0.18833,0.29977,-0.04343
0.06557,0.98006,-0.18754,-0.23964,0.31387,-0.16694
0.06141,0.97972,-0.19074,-0.07519,-0.30639,-0.23592
0.06327,0.9787,-0.19526,0.01728,-0.51946,-0.21516
0.07206,0.97666,-0.20233,0.07811,-0.80359,0.25762
0.07913,0.973,-0.21681,-0.08068,0.42167,0.49283
0.07569,0.96562,-0.24867,0.01455,1.33478,0.58635
0.06283,0.96265,-0.26332,0.94573,2.06661,0.77723
0.0668,0.96365,-0.25865,0.05354,0.40066,0.08219
0.08518,0.95683,-0.27788,0.38578,1.02413,-0.31758
0.0954,0.95193,-0.29107,0.35951,0.55779,-0.16001
0.09262,0.95186,-0.29218,0.78379,0.58737,0.11814
0.09838,0.95502,-0.27973,0.64676,0.37315,-0.00982
0.10309,0.95999,-0.26035,0.26702,0.35834,0.00998
0.1015,0.96559,-0.23942,-0.02705,0.18733,0.09527
0.10395,0.97087,-0.21586,0.06854,-0.08411,0.14547
0.11181,0.97524,-0.19078,0.08417,-0.44661,0.22246
0.11691,0.98015,-0.16011,0.03092,-0.48993,0.19629
0.11049,0.98517,-0.13122,0.0916,-0.30519,0.15143
0.09573,0.9892,-0.11093,0.12258,-0.29064,0.08693
0.08242,0.99202,-0.09537,0.10284,-0.36902,-0.01401
0.07183,0.99372,-0.08579,-0.05677,-0.38139,-0.13478
0.05987,0.99478,-0.08252,-0.12153,-0.34906,-0.16466
0.04885,0.99546,-0.08161,0.19181,-0.03239,-0.00537
0.04084,0.99551,-0.0853,0.64241,-0.07313,-0.1486
0.03401,0.9951,-0.09275,0.69292,-0.22075,-0.15571
0.02697,0.9948,-0.09813,0.69291,-0.36675,-0.14891
0.02468,0.99409,-0.10567,0.40311,0.14267,0.04044
0.02554,0.99199,-0.12368,0.26328,0.1173,0.02818
0.02555,0.98888,-0.14646,0.1688,0.11537,0.21575
0.02584,0.98381,-0.17733,0.4889,0.64505,0.30114
0.03691,0.97847,-0.20302,0.38878,0.65291,0.2925
0.04906,0.97341,-0.22374,0.2624,0.52189,0.17499
0.05611,0.96801,-0.24455,0.01385,0.39621,0.14845
0.05829,0.96304,-0.26295,0.07633,0.44264,0.20187
0.06046,0.95874,-0.27776,0.18714,0.42322,0.18819
0.06127,0.9554,-0.28889,0.34919,0.19937,0.09663
0.05737,0.95288,-0.29787,0.32442,0.17095,0.14658
0.05113,0.95189,-0.30213,0.2802,0.09029,0.18592
0.04427,0.95228,-0.30199,0.09942,-0.20557,0.24009
0.03567,0.95295,-0.30102,0.07639,-0.32572,0.24825
0.02391,0.95412,-0.29846,0.04405,-0.47243,0.37301
0.01009,0.95574,-0.29401,-0.04142,-0.50111,0.33304
-0.00261,0.95849,-0.2851,-0.10186,-0.47076,0.29122
-0.01147,0.96205,-0.27262,-0.10123,-0.19369,0.12176
-0.01724,0.96526,-0.26071,0.04308,-0.04226,-0.11199
-0.02426,0.96817,-0.24911,0.11137,-0.02407,-0.12827
-0.03134,0.97026,-0.24001,0.32612,-0.05708,-0.09753
-0.03651,0.97204,-0.23195,0.35152,-0.0205,-0.08093
-0.0375,0.97339,-0.22605,0.20635,0.10084,-0.06236
-0.03413,0.97425,-0.22284,0.06765,0.13019,-0.10071
-0.02774,0.97455,-0.22244,0.06086,-0.16461,-0.18081
-0.01749,0.97466,-0.22298,0.07373,-0.19445,-0.14385
-0.00127,0.97337,-0.22921,0.1648,-0.04316,0.01289
0.01609,0.97025,-0.24153,0.38045,0.17196,0.13629
0.02714,0.96931,-0.24432,0.32338,0.19762,0.21933
0.0289,0.96974,-0.24242,0.65633,0.78306,0.03426
0.02212,0.97252,-0.23176,0.78644,-0.00958,-0.00256
0.01632,0.9736,-0.22763,0.58035,-0.32978,0.19811
0.01879,0.97566,-0.21845,0.45762,-0.29143,0.49563
0.02073,0.98128,-0.19143,0.23841,0.45417,0.39889
0.0103,0.98715,-0.15946,-0.1068,0.70736,0.1903
0.01239,0.99114,-0.1322,0.04492,0.15594,0.20152
0.02514,0.99337,-0.11213,0.00775,-0.21764,0.18728
0.03403,0.9949,-0.09487,0.01472,-0.21232,0.08082
0.03027,0.99663,-0.07612,0.22368,-0.12896,-0.04816
0.02453,0.99803,-0.05771,0.30054,-0.02329,-0.07297
0.02465,0.99876,-0.04308,0.25823,-0.1033,-0.04519
0.02746,0.99915,-0.03038,0.22463,-0.23716,-0.02006
0.03063,0.99938,-0.01715,0.24357,-0.35372,-0.1467
0.03424,0.99938,-0.0068,0.28686,-0.25492,-0.12214
0.03816,0.99926,-0.00087,0.35743,-0.17137,-0.10858
0.04445,0.99899,0.00577,0.29123,-0.07025,-0.00304
0.05049,0.99867,0.00985,0.21395,-0.04324,-0.09316
0.05441,0.99847,0.00881,0.20386,0.01225,-0.11506
0.05693,0.99836,0.00532,0.47574,0.09159,0.17229
0.06304,0.998,-0.00059,0.39636,0.24324,0.28805
0.07422,0.99716,-0.01234,0.27391,0.37549,0.4279
0.08589,0.99578,-0.03203,-0.37011,-0.04357,-0.00264
0.09062,0.99451,-0.05229,-0.30441,-0.04803,-0.05306
0.0886,0.9935,-0.0714,-0.15328,0.29993,0.03122
0.08986,0.99104,-0.09874,0.11111,0.63959,-0.01877
0.09874,0.98627,-0.13231,0.26564,0.4264,-0.1945
0.10624,0.9821,-0.15553,0.26475,0.0521,-0.1657
0.11237,0.97931,-0.16826,0.17094,-0.03893,-0.06171
0.12338,0.97682,-0.17492,0.03026,-0.05755,-0.00519
0.13627,0.97442,-0.1787,-0.07031,-0.07174,-0.02681
0.14653,0.97244,-0.18131,-0.07913,-0.25843,0.01704
0.15316,0.97155,-0.18061,-0.06043,-0.31877,0.0599
0.15677,0.9721,-0.17443,-0.0226,-0.46918,0.08292
0.15486,0.974,-0.1653,-0.14316,-0.42338,0.00475
0.1494,0.97618,-0.15729,-0.18192,-0.31934,-0.03436
0.14367,0.97796,-0.15145,-0.21613,-0.40422,-0.06657
0.13866,0.97929,-0.14748,-0.15395,-0.60034,-0.06097
0.13456,0.9805,-0.1432,-0.09296,-0.67927,-0.08395
0.13215,0.98249,-0.13131,0.09225,-0.6354,-0.00779
0.13129,0.98491,-0.11274,0.11547,-0.54672,-0.03267
0.13147,0.98673,-0.09525,-0.00365,-0.17969,0.02408
0.1331,0.98749,-0.08451,-0.16644,0.19321,-0.08333
0.13707,0.98742,-0.07879,-0.33153,0.32492,-0.10229
0.14143,0.98708,-0.07518,-0.3158,-0.28986,0.02664
0.1421,0.9875,-0.06815,-0.18418,-0.87834,0.0986
0.14328,0.98798,-0.05788,-0.06681,-1.0794,0.01972
0.15433,0.98674,-0.05015,0.04429,-0.71683,0.24622
0.17322,0.98305,-0.05996,0.51988,0.50772,0.03066
0.18197,0.97979,-0.08299,1.47248,2.66521,-0.12099
0.17926,0.98162,-0.06536,-0.16052,0.56748,0.00193
0.19037,0.97993,-0.05906,-0.84598,-0.0976,-0.03661
0.20119,0.97623,-0.0806,0.26985,1.42732,-0.36828
0.1843,0.9793,-0.08367,1.0919,0.64317,-0.60238
0.17542,0.9808,-0.08516,0.55795,-0.08442,0.00858
0.17712,0.98085,-0.0809,0.1667,-0.20424,0.07128
0.17632,0.98212,-0.06585,0.11279,-0.05182,-0.0784
0.16849,0.98384,-0.06049,0.11776,0.03699,-0.37234
0.16171,0.98442,-0.06894,0.10625,-0.46816,-0.1234
0.15727,0.98447,-0.07796,0.07333,-0.58891,-0.08595
0.15188,0.98466,-0.08589,0.06358,-0.72451,0.01022
0.14661,0.98482,-0.09281,-0.01996,-0.61509,0.23308
0.14196,0.98426,-0.10517,-0.1172,-0.53857,0.23043
0.13557,0.98286,-0.12486,-0.20666,-0.52917,0.21653
0.12979,0.9808,-0.14553,-0.40392,-0.56886,0.30254
0.13035,0.9767,-0.17048,-0.33799,-0.32387,0.22115
0.1402,0.96778,-0.20913,-0.26323,0.18452,0.06077
0.1557,0.95515,-0.25185,0.37369,1.94926,-0.05987
0.17152,0.94599,-0.27508,-0.28709,1.30263,-0.28914
0.18795,0.93751,-0.2928,-0.09794,0.88579,-0.31646
0.20121,0.9326,-0.29961,0.25792,0.64823,-0.40127
0.20406,0.93222,-0.29885,0.35113,0.14183,-0.32797
0.20328,0.9334,-0.2957,0.17552,-0.45778,-0.23499
0.20117,0.93657,-0.28698,0.01921,-0.71289,-0.14259
0.1948,0.94155,-0.27481,-0.19198,-0.57032,-0.08711
0.19001,0.94725,-0.25807,-0.10822,-0.4751,-0.09143
0.18819,0.95319,-0.23665,-0.13165,-0.53222,-0.11348
0.18764,0.95858,-0.21425,-0.1478,-0.63247,-0.10912
0.18562,0.96298,-0.19546,-0.12234,-0.6893,0.03009
0.18278,0.96696,-0.1777,-0.22938,-0.71324,0.1148
0.18455,0.97002,-0.15807,-0.31354,-0.4766,0.04091
0.18857,0.97257,-0.1362,-0.03937,0.02216,-0.12161
0.19849,0.97317,-0.11632,0.20977,-0.67129,-0.10779
0.21712,0.97045,-0.10527,0.15858,-0.83591,-0.00708
0.2367,0.96706,-0.09358,-0.3029,-0.67517,0.17897
0.25078,0.96425,-0.08559,-0.16288,0.1398,0.23382
0.2577,0.9618,-0.09227,0.25921,1.41916,0.13692
0.24938,0.96375,-0.09477,0.45034,1.04037,-0.02843
0.25507,0.96393,-0.07597,-0.86385,0.45422,-0.26177
0.27262,0.95806,-0.08825,-0.51603,1.04113,-0.20819
0.27541,0.95556,-0.10509,0.95141,0.40322,-0.55963
0.26799,0.95692,-0.11171,0.97655,0.25001,-0.25224
0.26318,0.95795,-0.11426,0.60731,0.03901,0.01161
0.26286,0.95936,-0.10261,-0.27968,0.22283,-0.05765
0.25721,0.96207,-0.09083,-0.33801,0.09748,-0.22807
0.24717,0.96521,-0.08525,-0.11438,-0.14004,-0.2249
0.23619,0.96804,-0.08424,0.14493,-0.43038,-0.24341
0.22525,0.97036,-0.08746,0.2232,-0.66143,-0.01954
0.21322,0.97263,-0.09225,0.14635,-0.65585,0.20641
0.19939,0.97505,-0.09757,-0.00745,-0.52639,0.26792
0.18574,0.9766,-0.10835,-0.12437,-0.57359,0.1846
0.17283,0.97705,-0.12444,-0.30293,-0.70005,0.07342
0.16205,0.97628,-0.14355,-0.28517,-0.7788,0.08587
0.15624,0.97377,-0.16539,-0.17625,-0.60388,0.06415
0.15733,0.96821,-0.19442,-0.16028,0.33747,-0.21497
0.16773,0.95657,-0.2384,-0.05779,1.09366,-0.22221
0.18087,0.94557,-0.27051,0.2094,1.21999,-0.08912
0.19141,0.94225,-0.2748,0.0612,0.89427,-0.11814
0.20808,0.93785,-0.27772,0.29658,0.39476,-0.44737
0.22418,0.93228,-0.28387,-0.14477,0.96953,-0.49083
0.23438,0.9287,-0.28734,-0.16206,0.81664,-0.40796
0.24462,0.92755,-0.28249,0.00571,-0.23555,-0.20322
0.25069,0.92937,-0.27097,0.1505,-0.55473,-0.07869
0.24968,0.93488,-0.25231,0.23614,-0.50632,-0.04663
0.23899,0.94401,-0.22744,-0.01945,-0.3998,-0.11179
0.22567,0.95289,-0.20264,-0.06711,-0.45515,-0.08455
0.21253,0.96053,-0.17945,-0.08666,-0.5026,-0.08427
0.20124,0.96654,-0.15902,-0.20695,-0.52912,0.00707
0.19623,0.97012,-0.14266,-0.34343,-0.5923,0.10828
0.20083,0.97137,-0.12687,-0.39521,-0.62024,0.06469
0.20842,0.97208,-0.10779,-0.36008,-0.42421,-0.15321
0.2044,0.97481,-0.08915,-0.2011,0.21384,-0.24991
0.19063,0.97839,-0.08003,-0.05301,0.16654,-0.14775
0.19173,0.97861,-0.07458,0.0737,-0.55904,0.07699
0.2048,0.97609,-0.07275,-0.19302,-0.80371,0.20625
0.21622,0.97382,-0.07014,-0.13872,-0.42345,0.21798
0.21924,0.97301,-0.07192,0.74501,1.24234,0.02702
0.21484,0.97322,-0.08174,1.12485,1.58388,-0.15955
0.21462,0.97385,-0.07444,-0.02908,0.61587,-0.24531
0.22416,0.9721,-0.06907,-0.32856,0.61106,0.04534
0.22988,0.96926,-0.08759,0.46958,1.1381,-0.24568
0.21981,0.97091,-0.09485,0.88723,0.82863,-0.38267
0.21277,0.97265,-0.0931,0.30321,-0.10043,0.02096
0.21534,0.97287,-0.08454,0.20469,-0.22953,-0.06098
0.21694,0.97369,-0.06964,-0.04801,0.05156,-0.01844
0.21408,0.97493,-0.06066,-0.13142,-0.02572,-0.16255
0.20887,0.97606,-0.06057,-0.02454,-0.18144,-0.17547
0.20076,0.97759,-0.06333,-0.00199,-0.31488,-0.2368
0.19279,0.9788,-0.06914,0.07848,-0.6742,-0.16047
0.18344,0.98008,-0.0761,0.28339,-0.77599,-0.12759
0.17333,0.98145,-0.08193,0.32949,-0.63237,0.01461
0.16703,0.98184,-0.08992,0.15716,-0.45001,0.23735
0.1666,0.98065,-0.10271,-0.06937,-0.46788,0.36819
0.16748,0.9786,-0.1195,-0.23715,-0.57542,0.3187
0.16663,0.97637,-0.13757,-0.38815,-0.41804,0.24179
0.16721,0.97284,-0.16007,-0.49003,-0.01225,-0.10372
0.17338,0.96769,-0.18307,-0.50334,0.98451,-0.09151
0.18563,0.95906,-0.21385,0.38083,0.86433,-0.2383
0.19768,0.95301,-0.22954,0.42606,0.22503,-0.13793
0.20642,0.94991,-0.23464,0.5658,0.15127,-0.24376
0.21868,0.94599,-0.23932,0.58452,0.30174,-0.36811
0.23085,0.94365,-0.23712,-0.11428,1.02974,-0.4906
0.23876,0.94408,-0.22738,-0.15983,0.77163,-0.44752
0.23999,0.94647,-0.21586,-0.03363,0.04421,-0.08733
0.23652,0.95037,-0.20211,0.05868,-0.1637,-0.04129
0.22915,0.95631,-0.18155,0.00664,-0.19224,-0.15329
0.22137,0.96285,-0.15461,-0.10615,-0.38151,-0.19928
0.21008,0.96918,-0.12866,-0.26018,-0.66396,-0.24051
0.20023,0.9737,-0.10861,-0.52219,-0.88473,-0.12882
0.19636,0.97558,-0.09835,-0.45016,-1.00734,0.02078
0.19327,0.97703,-0.08972,-0.22234,-1.05673,-0.01235
0.18544,0.97956,-0.07791,0.14677,-0.6756,-0.11676
0.18816,0.97948,-0.07218,0.0604,-0.91605,0.02105
0.2089,0.97518,-0.07329,-0.19697,-1.15012,0.16333
0.23291,0.96966,-0.07415,-0.27419,-0.36972,0.29488
0.24162,0.96655,-0.086,0.5755,1.29584,-0.30411
0.23236,0.96842,-0.09033,0.97789,1.70921,0.14365
0.23058,0.96982,-0.0792,-0.51995,0.46838,-0.67742
0.22923,0.96711,-0.1102,0.31833,2.87676,0.11478
0.20129,0.97202,-0.12102,0.7489,-0.44674,-0.69314
0.18941,0.97432,-0.1217,0.93569,-0.99761,-0.50174
0.19999,0.9711,-0.13022,0.78331,-0.33126,0.14813
0.20875,0.96959,-0.12773,0.35476,0.06293,0.28215
0.20361,0.97023,-0.13112,-0.18229,0.35858,0.22094
0.19706,0.96986,-0.1433,-0.40713,-0.47372,-0.03015
0.19488,0.96695,-0.16441,-0.40408,-0.76976,-0.02242
0.19692,0.96219,-0.18815,-0.53451,-0.6865,-0.02239
0.19528,0.95701,-0.21447,-0.44479,0.12504,0.1171
0.19665,0.94975,-0.24349,0.66417,1.08787,0.11525
0.20293,0.94105,-0.27062,0.89555,1.27663,0.00353
0.21643,0.937,-0.2742,0.42375,0.45537,-0.38694
0.23221,0.93565,-0.26575,-0.05811,0.34427,-0.38586
0.24051,0.93509,-0.26032,-0.44206,0.69974,-0.31849
0.2484,0.93385,-0.25732,-0.30982,-0.06604,-0.03606
0.25032,0.9348,-0.25194,-0.06198,-0.57505,0.02491
0.24337,0.94072,-0.23625,-0.00422,-0.64966,0.10858
0.23212,0.94945,-0.21133,-0.03466,-0.37129,0.07851
0.22267,0.95669,-0.18749,-0.07785,-0.3092,-0.04448
0.21288,0.96246,-0.16835,-0.23491,-0.22763,-0.1001
0.20206,0.96788,-0.14955,-0.29581,-0.20903,-0.13359
0.19507,0.97238,-0.12812,-0.24579,-0.23805,-0.107
0.19195,0.97506,-0.11133,-0.23359,-0.2727,0.00409
0.19099,0.97646,-0.10024,-0.01205,-0.7888,0.02133
0.1927,0.97741,-0.08681,0.05568,-1.1126,0.01003
0.19817,0.97742,-0.07322,-0.00687,-1.08733,0.07293
0.21025,0.97583,-0.05959,0.01893,-0.96234,-0.13313
0.23082,0.97149,-0.05403,-0.14143,-0.11257,0.16562
0.24798,0.96561,-0.07802,1.1025,2.84046,-0.4996
0.24016,0.96624,-0.09328,0.76637,1.06103,-0.02528
0.24197,0.96704,-0.07916,-0.40542,0.03965,-0.11978
0.25512,0.9628,-0.08895,0.40958,0.4952,-0.53917
0.25684,0.96167,-0.096,0.38641,0.14646,-0.43696
0.24235,0.96546,-0.09565,0.47421,-0.04192,-0.29339
0.23928,0.96645,-0.09327,0.24347,-0.04255,-0.18072
0.2436,0.96591,-0.08757,0.37605,0.3788,-0.3684
0.24302,0.96661,-0.0812,0.42339,0.24462,-0.32208
0.24558,0.96597,-0.08116,0.23109,-0.17892,-0.19313
0.24519,0.96557,-0.08683,0.12844,-0.39976,0.11339
0.23534,0.96758,-0.09164,-0.02346,-0.31699,0.29521
0.21866,0.97092,-0.0974,-0.22565,-0.3419,0.30523
0.20179,0.97321,-0.11019,-0.3778,-0.60519,0.23746
0.18818,0.97385,-0.12723,-0.27876,-0.45153,0.176
0.1785,0.97313,-0.14541,-0.14048,-0.21291,0.14023
0.17422,0.97027,-0.16795,-0.02287,0.09349,0.06504
0.17914,0.96373,-0.19778,0.34582,1.05769,-0.17472
0.1929,0.95635,-0.21952,-0.11694,0.32535,-0.33951
0.20378,0.95231,-0.22709,0.04901,0.27579,-0.24457
0.21237,0.9489,-0.23341,0.35593,0.29875,-0.31486
0.21954,0.946,-0.23847,0.28177,0.24517,-0.34939
0.21749,0.94595,-0.24054,0.02035,0.13604,-0.12389
0.212,0.94753,-0.23923,-0.06705,-0.17158,0.07385
0.20447,0.95086,-0.23249,-0.09896,-0.35365,0.12806
0.19566,0.95611,-0.21808,-0.16488,-0.65373,0.12346
0.18302,0.96265,-0.19949,-0.26014,-0.46407,0.03499
0.17212,0.96856,-0.1796,-0.23381,-0.57647,0.06544
0.16489,0.97318,-0.1604,-0.19865,-0.60862,-0.07982
0.15987,0.97707,-0.1406,-0.22735,-0.50156,-0.13076
0.15557,0.98038,-0.12101,-0.23431,-0.1572,-0.19506
0.14721,0.98349,-0.1052,-0.13902,0.31514,-0.18882
0.13649,0.98602,-0.09557,-0.10526,0.49049,-0.13403
0.13582,0.98619,-0.09473,-0.19211,0.22664,-0.34747
0.1429,0.98446,-0.10201,-0.27853,-0.02533,-0.50578
0.15315,0.98154,-0.11448,0.01285,-0.43833,-0.34902
0.16684,0.97698,-0.13293,0.17,-0.80625,0.21542
0.18202,0.97058,-0.1576,0.05048,-0.86445,0.55129
0.19509,0.9659,-0.17021,0.15975,0.60791,0.41756
0.20455,0.96022,-0.19009,0.99038,1.97432,0.5692
0.20413,0.96097,-0.18671,0.24756,1.08809,0.23729
0.20874,0.9623,-0.17433,-0.20417,0.82885,0.16618
0.21054,0.96121,-0.17813,0.08406,0.4532,-0.25161
0.20485,0.96278,-0.17629,0.35501,0.54054,-0.13117
0.2053,0.96346,-0.17203,0.67868,0.43962,-0.09128
0.20776,0.96563,-0.15616,0.46853,0.21578,-0.04808
0.2024,0.9707,-0.12946,0.15083,0.11003,-0.077
0.19883,0.97511,-0.09802,0.01642,-0.02709,-0.05643
0.19961,0.9772,-0.07233,-0.09121,-0.30219,0.03056
0.19828,0.97887,-0.04995,-0.20721,-0.44818,-0.02037
0.18782,0.98176,-0.02949,-0.12291,-0.40586,-0.10412
0.17167,0.98502,-0.01616,0.07612,-0.47557,-0.11813
0.158,0.9874,-0.00852,0.14585,-0.61154,-0.11079
0.14675,0.98917,0.00102,0.0853,-0.58086,-0.0204
0.13425,0.9908,0.01709,0.07437,-0.11256,-0.17778
0.12219,0.99204,0.03038,0.16308,0.25952,-0.07653
0.11488,0.99282,0.03319,0.32644,0.08256,-0.20504
0.10924,0.9936,0.02876,0.46356,0.07733,-0.40618
0.10075,0.9946,0.02456,0.58534,0.07508,-0.35183
0.09357,0.99532,0.02394,0.62255,0.08897,-0.01381
0.09353,0.99533,0.02385,0.2805,0.03809,0.16873
0.09907,0.9949,0.01873,0.2389,0.02449,0.20203
0.10706,0.9942,0.00979,0.26921,0.24522,0.38686
0.11812,0.9929,-0.01346,0.25089,0.34972,0.34705
0.13149,0.99008,-0.04945,-0.17871,0.52873,0.12221
0.14712,0.98577,-0.08122,-0.25372,0.49024,0.06854
0.16161,0.98063,-0.11063,-0.04448,0.21444,-0.07576
0.16872,0.97615,-0.13662,0.31605,0.07347,-0.0279
0.17057,0.97235,-0.15946,0.42405,-0.03193,0.00441
0.16984,0.96923,-0.17815,0.26329,-0.0254,0.00182
0.16722,0.96589,-0.19771,0.08708,0.09252,0.0325
0.16683,0.96105,-0.22035,0.0348,0.13879,0.19661
0.16835,0.95515,-0.24358,0.01691,-0.00766,0.37079
0.17352,0.94961,-0.26101,-0.07802,-0.31298,0.34362
0.17855,0.94577,-0.27137,-0.19777,-0.37771,0.26845
0.17731,0.94525,-0.27398,-0.26718,-0.23816,0.2916
0.17002,0.94654,-0.27415,-0.20244,-0.18792,0.22494
0.16247,0.94773,-0.27459,-0.11145,-0.18449,0.0824
0.15753,0.94867,-0.27424,-0.00311,-0.15015,0.03859
0.15422,0.95042,-0.27002,0.06924,-0.11978,-0.00849
0.151,0.95299,-0.26268,0.08646,-0.0795,-0.0945
0.14836,0.95552,-0.2549,0.0748,-0.03791,-0.25224
0.14372,0.95783,-0.24881,0.02287,0.03148,-0.25041
0.13715,0.95923,-0.24712,0.09283,-0.09448,-0.17256
0.13258,0.96053,-0.24454,0.16045,-0.16419,-0.08286
0.13574,0.96006,-0.24464,0.14679,-0.25409,-0.15633
0.15032,0.95811,-0.24377,0.17902,0.17898,0.1497
0.16702,0.95278,-0.25357,0.15814,0.43799,0.11435
0.17847,0.94865,-0.26117,0.13296,0.59208,0.17206
0.17918,0.94983,-0.25635,0.09706,0.74492,0.2952
0.16642,0.95054,-0.26224,0.44284,0.24927,0.19296
0.15147,0.95192,-0.26626,0.54336,-0.12751,0.2837
0.14356,0.95275,-0.26766,0.14804,-0.1727,0.4501
0.14873,0.95408,-0.26001,-0.01527,0.07366,0.43598
0.14851,0.95805,-0.24513,-0.07325,0.44183,0.34976
0.13681,0.96465,-0.22522,-0.08934,0.40096,0.13913
0.13585,0.96975,-0.20281,-0.08838,0.39587,0.11672
0.14725,0.97199,-0.18316,0.05908,-0.29815,0.25042
0.16118,0.97327,-0.1636,-0.1324,-0.29999,0.00059
0.16645,0.97541,-0.14443,-0.13767,-0.30213,-0.01858
0.16237,0.97816,-0.12973,0.07933,-0.15675,-0.00691
0.16053,0.98008,-0.11689,0.27424,-0.1284,0.0884
0.16578,0.9808,-0.10267,0.24278,-0.31468,0.09479
0.17106,0.98124,-0.08885,0.19412,-0.31596,0.07867
0.17162,0.98226,-0.07553,0.16531,-0.19395,0.06909
0.16768,0.98394,-0.0612,0.12335,-0.05452,0.06782
0.16482,0.98526,-0.04572,0.11302,-0.01932,-0.00186
0.1632,0.98603,-0.03341,0.09521,0.14334,0.0301
0.1595,0.98689,-0.02434,0.0794,0.18912,-0.00404
0.15419,0.98786,-0.01886,0.07091,0.20599,-0.02796
0.14966,0.98858,-0.01763,0.27135,0.22028,-0.07149
0.14692,0.98896,-0.01897,0.35085,0.16903,-0.08304
0.14642,0.98899,-0.02117,0.39487,0.0774,-0.10287
0.14747,0.98875,-0.02485,0.35986,0.15909,-0.02552
0.14942,0.98828,-0.03125,0.19256,0.17205,0.02911
0.15168,0.98753,-0.04215,-0.10137,-0.10577,0.30663
0.15258,0.98659,-0.05784,0.03232,-0.12966,0.44393
0.15445,0.98451,-0.08298,0.21013,0.07171,0.34976
0.15941,0.98023,-0.1172,0.06769,0.37085,0.21912
0.16986,0.97424,-0.14829,-0.06346,0.32626,0.15265
0.18329,0.96678,-0.17814,0.01522,0.26849,0.12848
0.19329,0.96006,-0.2023,0.0535,0.16114,0.14572
0.19986,0.95456,-0.22106,0.11998,0.162,0.12296
0.20414,0.94956,-0.23801,0.07119,0.0797,0.10433
0.19987,0.94629,-0.25412,0.01689,0.10002,0.13109
0.18953,0.94451,-0.26828,0.01195,0.16915,0.15976
0.18177,0.94254,-0.28032,-0.02157,0.04757,0.21673
0.18117,0.93959,-0.29042,-0.0444,-0.06566,0.26724
0.18674,0.93607,-0.29814,-0.13183,-0.29839,0.25586
0.19277,0.93406,-0.3006,-0.18932,-0.35473,0.24385
0.19507,0.93537,-0.29499,-0.19588,-0.38082,0.19613
0.19289,0.93847,-0.28645,-0.10555,-0.30578,0.16458
0.18927,0.94105,-0.28034,-0.06463,-0.27032,0.26459
0.18676,0.94258,-0.27687,-0.06924,-0.22597,0.15018
0.1851,0.94523,-0.26882,-0.09886,-0.24777,0.09069
0.18254,0.9489,-0.25742,-0.12126,-0.20267,0.10849
0.17895,0.95211,-0.24789,-0.21708,-0.17343,0.03823
0.17724,0.95399,-0.24183,-0.17623,-0.24966,0.02482
0.17578,0.95369,-0.24407,-0.20658,-0.20751,0.19654
0.17573,0.95201,-0.25056,-0.20875,-0.25006,0.29189
0.17877,0.95192,-0.24877,-0.03313,-0.08688,-0.059
0.18578,0.95319,-0.23856,-0.04014,-0.08815,-0.06921
0.19858,0.95328,-0.22764,-0.12823,0.40146,-0.10091
0.2156,0.95229,-0.21599,-0.10149,0.00501,0.06436
0.22658,0.95251,-0.20344,-0.08704,-0.41023,0.15818
0.22837,0.95429,-0.19281,-0.0346,-1.13141,0.33754
0.22707,0.9569,-0.18107,-0.12773,-1.03424,0.28475
0.22977,0.95855,-0.16845,-0.25145,-0.74224,0.35146
0.23959,0.95572,-0.17085,-0.03114,0.51266,0.12291
0.24503,0.9512,-0.18753,0.82405,2.39627,-0.11479
0.24902,0.95131,-0.18165,0.38056,0.47055,-0.1206
0.25911,0.94753,-0.18717,-0.05356,-0.35362,0.07381
0.26237,0.94329,-0.20336,0.60067,1.09951,-0.33888
0.24819,0.94668,-0.20541,0.41964,0.54677,-0.31089
0.23715,0.94879,-0.20869,0.23308,0.24082,-0.023
0.23897,0.94773,-0.21139,-0.07369,0.14721,0.00149
0.23847,0.94782,-0.21159,-0.06651,0.18783,-0.12832
0.22891,0.94984,-0.21308,0.01551,0.06304,-0.26992
0.21619,0.95141,-0.21927,0.45033,-0.5152,-0.03579
0.20498,0.95186,-0.22791,0.31394,-0.68983,0.10029
0.1964,0.95181,-0.23554,-0.12492,-0.74235,0.3894
0.18677,0.95183,-0.24315,-0.20851,-0.44906,0.36178
0.17495,0.95122,-0.2541,-0.3325,-0.13417,0.26521
0.16353,0.94789,-0.27342,-0.42362,0.17733,0.18082
0.16231,0.94063,-0.29809,-0.17282,0.62055,0.27736
0.16933,0.93021,-0.32563,0.09795,0.84367,0.41291
0.17991,0.92133,-0.34464,-0.01604,0.84048,-0.07127
0.19409,0.91438,-0.3553,-0.11226,0.97767,-0.204
0.21131,0.90702,-0.36422,-0.13221,0.95023,-0.17579
0.22916,0.9008,-0.36883,-0.06772,0.43082,-0.14284
0.24826,0.89452,-0.37175,0.12671,-0.22084,-0.08088
0.26461,0.8904,-0.37036,0.15441,-0.40787,0.0058
0.2718,0.8905,-0.36487,0.16821,-0.33833,0.04898
0.26996,0.89456,-0.3562,-0.05788,0.02115,0.05978
0.26567,0.89985,-0.34596,-0.11664,0.09802,0.02119
0.25996,0.90691,-0.33155,-0.2185,0.01452,-0.01594
0.2542,0.91605,-0.31023,-0.36569,-0.09317,0.11496
0.25091,0.92591,-0.28237,-0.4069,-0.3906,0.17317
0.24958,0.93467,-0.25316,-0.35242,-0.69956,0.21204
0.24737,0.94156,-0.22863,-0.32664,-0.74867,0.09647
0.24511,0.94644,-0.21018,-0.16131,-0.57914,-0.09696
0.24115,0.95042,-0.19635,0.28929,-0.66259,0.02832
0.24286,0.95168,-0.18796,0.50993,-1.173,-0.12643
0.26207,0.94707,-0.18542,0.40924,-1.3438,0.00362
0.29062,0.93999,-0.17877,-0.7134,-0.98154,0.28765
0.30249,0.9364,-0.1779,-1.00324,0.3391,0.70064
0.27462,0.94171,-0.19432,-0.15517,1.33725,0.28557
0.2591,0.94328,-0.20756,1.14871,1.66069,-0.20444
0.28216,0.93816,-0.20061,-0.10946,-0.26203,-0.21547
0.30515,0.92933,-0.20792,-0.03647,0.40447,-0.06492
0.29415,0.92706,-0.23242,1.09519,1.17952,-0.65146
0.2624,0.9325,-0.24818,0.37568,-0.02873,-0.02389
0.25844,0.92865,-0.2661,0.22863,-0.24866,-0.13611
0.26616,0.92262,-0.27915,0.49872,-0.06148,-0.00985
0.26642,0.91932,-0.28961,0.18341,-0.24616,0.14258
0.26363,0.91424,-0.30766,-0.12011,-0.34607,0.18965
0.25672,0.91069,-0.32364,-0.27972,-0.38703,0.41188
0.24798,0.90851,-0.33633,-0.41729,-0.4003,0.43767
0.24195,0.90438,-0.3515,-0.27048,-0.4723,0.38778
0.23696,0.89822,-0.37019,-0.29145,-0.16025,0.40966
0.23737,0.88524,-0.4,0.09646,1.28674,0.11602
0.25046,0.86718,-0.43042,0.39038,1.3216,0.26236
0.26162,0.85946,-0.43918,-0.02501,0.16239,-0.07447
0.26443,0.86018,-0.43608,-0.28378,-0.00744,-0.12859
0.26723,0.85983,-0.43505,0.04313,0.95331,-0.01237
0.27328,0.85962,-0.4317,0.14753,0.39069,-0.06999
0.27805,0.86259,-0.42263,0.14608,-0.12323,0.00569
0.27774,0.86984,-0.40772,-0.26575,-0.19813,-0.10197
0.27352,0.87978,-0.38881,-0.22435,0.0719,-0.00998
0.27589,0.8855,-0.37385,-0.0602,-0.15802,-0.08054
0.27697,0.89086,-0.36007,-0.11044,-0.28806,-0.06196
0.27165,0.90029,-0.34011,-0.104,-0.18089,0.01957
0.26037,0.91204,-0.31684,-0.19221,0.02821,0.02908
0.2486,0.92245,-0.29543,-0.41541,0.18789,0.07433
0.24122,0.93031,-0.27629,-0.36197,-0.15905,0.28331
0.24249,0.93476,-0.25964,-0.13861,-0.76716,0.39296
0.24444,0.93816,-0.24516,0.04346,-1.10008,0.26875
0.25059,0.94167,-0.22461,-0.01401,-1.27022,0.21971
0.26024,0.94427,-0.20154,-0.26671,-0.99623,0.0253
0.27225,0.94267,-0.19302,-0.29217,-0.46464,0.26209
0.28001,0.93842,-0.20236,0.32598,1.27199,0.06896
0.27301,0.93697,-0.21803,1.21467,2.25815,-0.2682
0.26963,0.94088,-0.20501,0.57108,0.75588,0.28141
0.27705,0.93869,-0.20515,-0.33166,0.11415,0.14062
0.28798,0.93228,-0.21889,0.87068,1.11502,-1.034
0.26997,0.93542,-0.22824,0.53716,0.21025,-0.05991
0.25734,0.93743,-0.23452,0.45963,-0.28971,0.05339
0.26192,0.9363,-0.23398,0.12058,-0.05834,0.01418
0.26189,0.9376,-0.2287,0.021,0.31815,-0.14499
0.25298,0.9398,-0.22974,0.20107,0.15241,0.02741
0.24459,0.93951,-0.23977,0.15443,-0.24685,0.30105
0.23739,0.9371,-0.25588,-0.01405,-0.46866,0.49616
0.22986,0.93394,-0.27372,-0.23937,-0.59235,0.47233
0.22007,0.93089,-0.29156,-0.44014,-0.55116,0.19363
0.21259,0.92584,-0.31245,-0.44062,-0.33026,0.09645
0.20897,0.91743,-0.3386,-0.38754,-0.18292,0.08602
0.21161,0.90413,-0.37117,0.70464,1.15219,0.06179
0.22095,0.8903,-0.39818,0.45757,0.95483,0.00308
0.23224,0.88463,-0.40434,-0.17876,0.57915,0.02482
0.23995,0.88449,-0.40011,-0.15575,0.66192,-0.168
0.24199,0.88976,-0.38699,-0.11403,0.53619,-0.16742
0.24499,0.89675,-0.36854,0.03739,-0.17629,-0.08027
0.25195,0.89996,-0.35579,0.1323,-0.45517,-0.10977
0.25687,0.90368,-0.34259,-0.18023,-0.03041,-0.0401
0.26417,0.90726,-0.32726,-0.20301,0.18677,-0.03506
0.26791,0.91193,-0.31081,-0.09415,0.22654,-0.0771
0.26314,0.92071,-0.28816,0.04884,-0.02147,0.10473
0.25387,0.93113,-0.2618,-0.02797,-0.32345,0.18326
0.24515,0.94014,-0.23671,-0.28129,-0.38327,0.29407
0.23834,0.94638,-0.21807,-0.52269,-0.41913,0.16215
0.23622,0.95123,-0.1984,-0.27059,-0.70023,0.11589
0.23588,0.95489,-0.18038,-0.05588,-0.99647,-0.09081
0.24294,0.95564,-0.1665,-0.03479,-1.1496,-0.09376
0.26165,0.95252,-0.15569,-0.00396,-1.26113,-0.04622
0.28498,0.94686,-0.14913,-0.52002,-0.67293,0.2333
0.30148,0.94029,-0.15796,-0.5442,-0.07225,0.21554
0.28442,0.93885,-0.19404,1.47713,2.775,0.42147
0.26886,0.94281,-0.19702,0.13098,0.638,-0.01473
0.2776,0.9443,-0.17674,-0.76928,0.23937,-0.43879
0.29179,0.93501,-0.20151,0.6469,1.1046,-1.01276
0.27464,0.93752,-0.2136,0.63803,-0.20058,-0.16958
0.26469,0.93768,-0.22516,0.80136,-0.43125,0.01054
0.27174,0.934,-0.23192,0.42797,-0.24538,0.03896
0.27531,0.93506,-0.22332,0.1853,-0.05603,0.02645
0.26926,0.93825,-0.21721,0.04743,0.33075,0.08289
0.25889,0.941,-0.21793,-0.17224,0.05565,0.55442
0.25252,0.94114,-0.22469,-0.28394,-0.23479,0.49304
0.24775,0.9378,-0.24321,-0.27917,-0.23145,0.51155
0.24417,0.93155,-0.26944,-0.32784,-0.64853,-0.04773
0.24295,0.92358,-0.29661,-0.24601,-0.46426,0.1144
0.24431,0.91172,-0.33028,-0.1717,-0.062,0.17294
0.23777,0.8996,-0.36631,0.78428,1.32295,0.14892
0.23334,0.89584,-0.37818,0.63379,1.21831,0.29319
0.2507,0.89332,-0.373,-0.52952,0.79792,-0.24287
0.27637,0.88632,-0.37155,-0.33753,0.83708,-0.17873
0.28901,0.88289,-0.3701,-0.08189,0.25462,-0.08379
0.28962,0.88491,-0.36476,0.11381,-0.32299,0.03953
0.28501,0.88956,-0.35698,-0.00161,-0.43095,0.02958
0.28095,0.89558,-0.34497,-0.13897,-0.28048,0.0063
0.2753,0.90154,-0.3338,-0.13411,-0.18371,0.04853
0.26156,0.90967,-0.32261,-0.07179,-0.12444,0.04694
0.24129,0.92065,-0.30687,-0.06512,0.00528,-0.07905
0.22247,0.93239,-0.28488,-0.08056,0.06082,-0.0597
0.21304,0.94077,-0.26375,-0.12315,0.08638,-0.03085
0.21334,0.94403,-0.25156,-0.24657,-0.1572,0.07241
0.2178,0.94472,-0.24507,-0.41865,-0.39071,0.28175
0.22257,0.94661,-0.23319,-0.34695,-0.72916,0.34846
0.22351,0.95078,-0.21461,-0.15718,-0.937,0.28697
0.22216,0.95566,-0.19325,-0.03821,-1.11768,0.10823
0.22519,0.95947,-0.16938,0.04429,-1.23729,0.04092
0.23148,0.96023,-0.1561,-0.24122,-0.98051,0.11997
0.23872,0.95567,-0.17234,-0.53298,-0.32889,0.1484
0.23276,0.94924,-0.21159,0.06062,1.3052,0.04679
0.21319,0.95348,-0.21314,1.5265,2.02322,0.16683
0.22295,0.95815,-0.17954,0.46937,0.26928,-0.75919
0.25047,0.9458,-0.20671,0.50616,1.08799,0.30962
0.24599,0.94396,-0.22006,0.19558,0.73369,-0.44372
0.21361,0.95468,-0.20726,-0.03523,-0.40944,-0.32138
0.20879,0.95337,-0.21789,0.47072,-0.45189,-0.50553
0.22052,0.9486,-0.22699,0.69244,-0.04732,-0.155
0.22712,0.9452,-0.23453,0.82142,0.11026,0.03655
0.22248,0.94524,-0.23878,0.76154,0.22001,0.334
0.20961,0.94785,-0.24006,-0.29782,-0.21591,0.43655
0.19964,0.94782,-0.24856,-0.52914,-0.35099,0.34313
0.19176,0.94261,-0.27333,-0.65744,-0.45139,0.39035
0.17607,0.93772,-0.29945,-0.40799,-0.29681,0.49914
0.16224,0.93195,-0.32425,-0.0716,0.59067,0.25004
0.16297,0.91755,-0.36267,0.54596,1.33239,0.04868
0.17312,0.90432,-0.39017,0.42817,1.14628,-0.07721
0.18213,0.89998,-0.39605,-0.05243,0.24176,-0.2152
0.19906,0.89379,-0.40188,0.10709,0.41602,-0.25842
0.21125,0.88811,-0.4082,0.14559,0.60034,-0.30923
0.21388,0.88647,-0.41039,0.18904,0.23627,-0.21229
0.21273,0.8889,-0.40571,0.20318,-0.20512,-0.12937
0.20977,0.89523,-0.39314,0.28622,-0.39268,-0.06312
0.19782,0.90479,-0.37712,0.27872,-0.39209,0.04695
0.17634,0.91579,-0.36087,0.02915,-0.48996,0.37821
0.15376,0.9267,-0.3429,-0.03964,-0.59073,0.34486
0.13436,0.93736,-0.3214,-0.08672,-0.60088,0.3037
0.12021,0.94738,-0.29667,-0.23592,-0.52986,0.19602
0.1122,0.95565,-0.27229,-0.26348,-0.45576,0.1375
0.10606,0.96221,-0.25078,-0.16995,-0.3177,0.12433
0.09907,0.96776,-0.23154,-0.12516,-0.08105,0.09185
0.08936,0.97218,-0.21653,-0.17246,0.23429,-0.1227
0.0832,0.97479,-0.20701,-0.15955,0.28024,-0.00498
0.08399,0.97421,-0.20943,-0.1877,0.05463,-0.19261
0.09036,0.97189,-0.2174,-0.19092,-0.04513,-0.38008
0.10109,0.96925,-0.22434,-0.06021,-0.20761,-0.35983
0.11682,0.96475,-0.23581,0.24003,-0.64682,-0.00376
0.13028,0.95834,-0.25419,0.10624,-0.66102,0.54707
0.12663,0.95281,-0.27589,0.10692,0.16197,0.33572
0.1067,0.94686,-0.30343,0.52701,1.83512,0.76663
0.09928,0.94368,-0.3156,0.88874,2.00685,0.93426
0.113,0.94294,-0.31321,0.24775,0.99072,0.10383
0.11596,0.94104,-0.31781,0.73548,0.42403,0.02932
0.11002,0.94145,-0.31871,0.18959,0.24581,-0.07483
0.11011,0.94281,-0.31462,0.36523,0.66509,-0.02531
0.11747,0.94793,-0.29602,0.56188,0.39165,0.01178
0.12215,0.95555,-0.26833,0.38657,0.04178,0.10192
0.11853,0.96391,-0.23838,0.14358,-0.23262,0.19912
0.11358,0.97207,-0.20535,0.05056,-0.36117,0.30026
0.11202,0.97901,-0.17023,-0.0376,-0.26013,0.27118
0.10991,0.98423,-0.13861,-0.19788,-0.28518,0.15647
0.10496,0.98807,-0.1127,-0.1692,-0.42093,0.16487
0.09702,0.99086,-0.09374,-0.01947,-0.4709,0.09052
0.08761,0.99279,-0.08177,0.09202,-0.50124,0.10381
0.07653,0.99467,-0.06907,0.06488,-0.43566,0.12713
0.06507,0.99608,-0.05985,-0.01161,0.0105,0.00562
0.05677,0.99663,-0.05912,0.09713,0.34845,-0.08141
0.05044,0.99676,-0.06256,0.4503,0.19855,-0.15681
0.04446,0.99665,-0.06861,0.84053,0.06718,-0.3097
0.03998,0.99684,-0.06865,0.79577,0.27095,-0.14058
0.0388,0.9969,-0.06844,0.71016,0.3989,-0.00366
0.04094,0.99645,-0.07355,0.50542,0.10758,0.2231
0.04432,0.99557,-0.08287,0.47291,-0.00195,0.32527
0.04775,0.99364,-0.102,0.31013,-0.09883,0.22597
0.04881,0.99021,-0.13073,0.11771,0.23748,0.28684
0.04976,0.98664,-0.1551,-0.07594,0.35544,0.25328
0.05366,0.98274,-0.17704,-0.05979,0.33741,0.173
0.05775,0.97807,-0.20012,0.2011,0.17837,0.04219
0.05859,0.97349,-0.22109,0.44644,0.10828,0.07996
0.05672,0.97084,-0.23291,0.4545,0.08076,0.11818
0.05422,0.9682,-0.24423,0.29721,0.1747,0.08198
0.05385,0.96462,-0.25808,0.09329,0.06706,0.13512
0.05311,0.96215,-0.2673,0.09704,-0.04018,0.2113
0.04956,0.96157,-0.27006,0.15221,-0.30374,0.26704
0.04457,0.962,-0.26939,0.14532,-0.37083,0.28778
0.03722,0.96347,-0.26519,0.03677,-0.33034,0.26028
0.02916,0.96585,-0.25745,-0.01842,-0.24148,0.25878
0.02179,0.96835,-0.24865,-0.03902,-0.18548,0.20183
0.01664,0.97063,-0.24001,-0.02969,-0.23044,0.101
0.01472,0.97257,-0.23212,0.02132,-0.1544,0.02746
0.01416,0.97405,-0.2259,0.08583,-0.08951,-0.11045
0.01097,0.97534,-0.22044,0.21502,0.0084,-0.1517
0.00292,0.97684,-0.21392,0.27494,0.17758,-0.18586
-0.00604,0.97857,-0.20581,0.19289,0.10955,-0.11438
-0.00571,0.97968,-0.20047,0.12563,-0.01635,-0.03861
0.00334,0.97994,-0.19925,0.05761,0.04701,-0.01082
0.01326,0.97979,-0.19957,0.00784,0.30518,-0.02632
0.01896,0.9799,-0.19858,0.11553,0.36799,0.01421
0.02317,0.9798,-0.19861,0.66628,0.05102,0.15864
0.02534,0.97959,-0.19938,0.66411,0.05123,0.1594
0.0214,0.98116,-0.19199,0.57162,-0.17399,0.22353
0.01865,0.98372,-0.1787,0.38585,-0.02657,0.3145
0.01753,0.98688,-0.16051,0.2731,0.05982,0.30394
0.01754,0.98995,-0.14035,0.0754,0.36674,0.2718
0.01628,0.99254,-0.12078,0.19577,0.40988,0.1941
0.01939,0.99472,-0.10073,0.32482,0.24956,0.13919
0.02819,0.99642,-0.07966,0.29157,-0.03316,0.11167
0.03557,0.99772,-0.0573,0.12879,-0.19232,0.01958
0.03823,0.99864,-0.03544,0.04533,-0.25018,-0.05898
0.03839,0.99912,-0.0169,0.10165,-0.33055,-0.05911
0.04028,0.99918,-0.00341,0.16503,-0.40696,-0.01534
0.04459,0.99896,0.00886,0.23295,-0.4457,-0.00204
0.04869,0.99852,0.02396,0.25528,-0.39266,-0.03774
0.05122,0.99782,0.04166,0.25642,-0.21608,-0.13045
0.05221,0.99715,0.05451,0.25327,-0.04721,-0.241
0.05275,0.99669,0.06184,0.24972,-0.06811,-0.23569
0.05335,0.99626,0.06792,0.26954,-0.02621,-0.18681
0.0537,0.99602,0.07113,0.3916,0.25133,-0.10747
0.05457,0.99595,0.07135,0.44923,0.19409,-0.07387
0.05607,0.99606,0.06865,0.35546,0.04499,0.01224
0.06011,0.99635,0.06063,0.29385,0.08913,0.001
0.06763,0.99673,0.04413,0.04228,-0.01332,0.19902
0.07748,0.99679,0.02,0.08492,0.11721,0.3904
0.08936,0.99584,-0.01745,0.11165,0.40854,0.21212
0.10112,0.9934,-0.05408,0.15093,0.54795,0.12082
0.11111,0.99064,-0.07926,0.24294,0.39376,-0.07507
0.11619,0.9883,-0.09882,0.15254,0.17644,-0.07361
0.12271,0.98531,-0.11879,0.10435,0.17351,-0.02825
0.13153,0.98116,-0.1415,0.14314,0.21386,-0.01785
0.13701,0.97691,-0.16394,0.1447,0.28074,0.01241
0.13842,0.97315,-0.18388,0.16263,0.23447,0.0283
0.14417,0.96925,-0.19943,0.02563,-0.17852,0.2241
0.15907,0.96519,-0.20761,-0.08753,-0.5135,0.11871
0.17165,0.96338,-0.20601,-0.12073,-0.66835,0.06873
0.17614,0.96474,-0.19559,-0.13201,-0.60324,0.03048
0.1729,0.96753,-0.18439,-0.1728,-0.3314,-0.0152
0.16849,0.96972,-0.17677,-0.13812,-0.25766,-0.04434
0.16544,0.97102,-0.1725,-0.10608,-0.24831,-0.00699
0.16539,0.9713,-0.17095,-0.09303,-0.33769,-0.04706
0.16539,0.97209,-0.16637,-0.07547,-0.3559,-0.07552
0.16133,0.97449,-0.156,-0.0207,-0.37473,-0.23026
0.15185,0.97804,-0.14277,0.02119,-0.38081,-0.14663
0.14267,0.98096,-0.13178,0.06139,-0.36624,-0.09672
0.13996,0.98261,-0.12198,-0.1388,-0.27786,0.00696
0.14327,0.98343,-0.11107,-0.14211,-0.27867,-0.00396
0.14938,0.98378,-0.09928,-0.1613,0.00929,-0.00549
0.15908,0.98327,-0.08876,-0.05262,0.14382,-0.02144
0.17397,0.98161,-0.07863,-0.06751,0.14549,-0.03157
0.18717,0.97977,-0.07079,0.07603,-0.62128,-0.07504
0.19598,0.97857,-0.06313,-0.19467,-0.93679,0.10619
0.19697,0.97886,-0.05511,-0.32651,-0.77813,0.24444
0.19271,0.97916,-0.06404,-0.29485,-0.55381,0.15341
0.17959,0.97958,-0.0904,1.00696,2.07598,0.19074
0.17346,0.98142,-0.08193,0.73071,1.43873,-0.28076
0.18504,0.98025,-0.06979,-0.35719,0.53913,-0.28357
0.19463,0.97575,-0.10017,1.03451,1.15009,0.17815
0.1964,0.97622,-0.09173,0.7912,0.57926,-0.39842
0.19855,0.97629,-0.08617,0.01351,-0.59423,-0.10261
0.21002,0.97421,-0.0825,0.42611,-0.503,-0.00913
0.21923,0.97326,-0.06859,0.23101,0.05639,-0.10481
0.22047,0.97338,-0.06267,0.00698,0.35154,-0.27656
0.21508,0.97442,-0.06517,0.08828,0.33813,-0.20865
0.20749,0.97604,-0.06556,0.10597,-0.1246,-0.13201
0.20031,0.97724,-0.06976,0.08405,-0.53898,0.24094
0.1928,0.97798,-0.07988,0.05209,-0.51062,0.31783
0.18403,0.97802,-0.09806,-0.15398,-0.5611,0.21999
0.17721,0.97618,-0.12518,-0.26629,-0.64032,0.07781
0.17444,0.97285,-0.1521,-0.26899,-0.68137,0.11383
0.18043,0.96729,-0.17829,-0.22282,-0.52023,0.00599
0.19136,0.9576,-0.21536,0.28608,0.99826,-0.00118
0.20158,0.94663,-0.25152,0.76269,1.41752,-0.07632
0.2154,0.94007,-0.26433,-0.01827,0.61004,-0.35459
0.232,0.93728,-0.26016,-0.24739,0.62066,-0.26146
0.25205,0.93462,-0.2509,-0.04549,0.74275,-0.37131
0.27325,0.93068,-0.24326,0.07053,0.01142,-0.29716
0.29089,0.92805,-0.23261,0.27587,-0.6452,-0.26032
0.29774,0.92984,-0.21621,0.10409,-0.57832,-0.20088
0.29619,0.93419,-0.19889,0.00647,-0.2609,-0.22832
0.28905,0.93907,-0.18601,0.00568,-0.21571,-0.18299
0.27369,0.94649,-0.17105,-0.04635,-0.29722,-0.0082
0.25587,0.95498,-0.15015,-0.22831,-0.40493,0.00495
0.24174,0.9622,-0.12546,-0.38077,-0.46592,0.05678
0.23484,0.96625,-0.10585,-0.54585,-0.50475,0.00132
0.22898,0.96922,-0.09043,-0.46572,-0.1775,-0.04388
0.21741,0.97313,-0.07586,-0.24506,0.38172,-0.02912
0.22092,0.97267,-0.07145,0.00639,-0.28459,-0.01136
0.23518,0.96985,-0.0639,0.06261,-0.72911,-0.02141
0.24757,0.96752,-0.05117,-0.23045,-1.3098,0.11658
0.25316,0.9666,-0.03996,-0.45777,-0.66987,0.38158
0.25834,0.96479,-0.0493,0.23227,0.86712,0.05465
0.26289,0.96176,-0.07679,1.58722,2.70822,-0.44141
0.27527,0.95957,-0.05879,0.19933,0.87541,-0.34888
0.29133,0.95575,-0.04086,-0.21659,-0.40369,-0.13234
0.30166,0.95205,-0.05093,-0.12064,-0.23581,-0.09739
0.28537,0.95632,-0.06333,0.44196,1.03373,-0.30798
0.25313,0.966,-0.0526,0.37953,1.02108,-0.17753
0.24988,0.9674,-0.04122,0.20277,0.48873,-0.46165
0.26315,0.96367,-0.04558,0.49956,-0.49717,-0.26854
0.27398,0.96046,-0.04948,0.37522,-0.58514,-0.23192
0.27435,0.96001,-0.0557,0.16381,-0.55962,-0.14756
0.26519,0.962,-0.06505,-0.01302,-0.23181,0.05342
0.25203,0.96465,-0.077,-0.08856,-0.25418,0.07869
0.23952,0.96656,-0.09164,-0.12132,-0.34639,0.06665
0.2277,0.96778,-0.10752,-0.17256,-0.72199,0.31472
0.21945,0.96715,-0.1283,-0.23994,-0.78671,0.28915
0.21447,0.96516,-0.14992,-0.27384,-0.80734,0.28978
0.21444,0.96107,-0.17425,-0.54074,0.34863,-0.13429
0.21891,0.95142,-0.21652,-0.43319,1.3996,-0.11686
0.22239,0.94377,-0.24464,-0.00477,0.65478,-0.22432
0.22152,0.94265,-0.24968,0.41606,0.24345,-0.26545
0.23093,0.93906,-0.25463,0.61657,0.53952,-0.24937
0.2486,0.9325,-0.26197,-0.12809,1.20411,-0.49238
0.25997,0.93164,-0.2539,-0.46634,0.27252,-0.37673
0.25629,0.93748,-0.23547,-0.31318,-0.23419,-0.27601
0.25175,0.94332,-0.21625,0.12671,-0.97272,-0.0662
0.25106,0.94746,-0.19819,0.29356,-0.87419,-0.13934
0.24537,0.95285,-0.17852,0.01449,-0.60567,-0.09682
0.23724,0.9582,-0.15992,-0.09377,-0.42486,-0.15969
0.22705,0.96334,-0.14289,-0.24816,-0.16636,-0.22132
0.21516,0.968,-0.1292,-0.35888,-0.06542,-0.15448
0.20709,0.97059,-0.12276,-0.42036,-0.11953,0.02579
0.20299,0.97278,-0.11181,-0.21991,0.10355,0.07882
0.20673,0.97375,-0.09529,-0.1655,0.0362,-0.16885
0.21935,0.97191,-0.08528,-0.12855,-0.48396,0.00042
0.23044,0.96983,-0.07951,-0.09051,-0.86455,0.20556
0.23612,0.96908,-0.07169,-0.18574,-0.85015,0.33751
0.2389,0.96859,-0.06903,-0.02999,-0.321,0.1411
0.24049,0.96729,-0.08074,0.46053,1.09059,-0.0206
0.24208,0.96656,-0.08463,1.03495,0.91555,-0.06437
0.25064,0.96564,-0.06868,-0.11665,0.26127,-0.17996
0.25757,0.96297,-0.07963,0.27552,1.51168,-0.11916
0.25654,0.96202,-0.09331,0.29714,0.929,-0.46643
0.25271,0.96267,-0.097,0.25329,0.3151,-0.55286
0.25552,0.96189,-0.09736,0.34733,-0.3557,-0.05001
0.26125,0.96142,-0.0861,0.34159,-0.35524,-0.06127
0.26349,0.96207,-0.07066,-0.12241,0.2325,-0.1333
0.25204,0.96565,-0.06313,0.06594,0.25328,-0.17071
0.23903,0.96905,-0.06168,0.07895,0.24988,-0.17216
0.23138,0.97086,-0.06231,0.18135,-0.24758,-0.14814
0.22685,0.97181,-0.06415,-0.03614,-0.74249,-0.02165
0.22018,0.97292,-0.07038,-0.093,-0.63777,0.00336
0.20902,0.97427,-0.08426,-0.05832,-0.45836,0.06893
0.19544,0.97525,-0.1034,0.00791,-0.43112,0.26946
0.18456,0.97524,-0.12181,-0.0209,-0.53307,0.26397
0.17838,0.97387,-0.14058,-0.09555,-0.59945,0.23139
0.17989,0.97011,-0.16285,-0.45296,0.32617,-0.15463
0.18811,0.96218,-0.19702,-0.41633,1.01319,-0.12817
0.19954,0.95286,-0.22857,0.35941,1.27882,0.04124
0.20871,0.94953,-0.23418,0.27104,0.36909,-0.15698
0.21967,0.94654,-0.23625,0.3425,0.09758,-0.33145
0.23657,0.94046,-0.24404,0.25351,1.02079,-0.55123
0.24616,0.93707,-0.24758,-0.09355,0.56332,-0.43305
0.24797,0.93804,-0.24208,-0.17192,-0.02738,-0.31864
0.25156,0.93995,-0.23066,0.16825,-0.34236,-0.02738
0.25448,0.94207,-0.21848,0.31711,-0.21464,0.10285
0.24917,0.9474,-0.20085,0.08,-0.09627,0.00514
0.24013,0.95401,-0.17947,-0.03342,-0.02511,-0.31606
0.22545,0.96145,-0.15745,-0.00746,0.0037,-0.34026
0.21014,0.96845,-0.13394,-0.09635,-0.05317,-0.18882
0.20376,0.97229,-0.11459,-0.36115,-0.41982,0.159
0.20493,0.97376,-0.09893,-0.42287,-0.53742,0.21238
0.2053,0.9752,-0.08267,-0.30905,-0.72499,0.04835
0.20165,0.97749,-0.06213,-0.08469,-0.8052,-0.13836
0.19961,0.97868,-0.04841,-0.00088,-0.98043,-0.27571
0.20531,0.97756,-0.04707,-0.02574,-1.38067,-0.1793
0.22203,0.97409,-0.04309,-0.18449,-1.25744,0.07182
0.23991,0.97027,-0.03178,-0.464,-0.9324,0.4759
0.24869,0.96807,-0.03164,0.45032,1.34248,-0.35112
0.24267,0.96915,-0.04314,0.96052,2.94339,0.07624
0.24229,0.96974,-0.03002,-0.23472,0.27222,-0.70113
0.255,0.96625,-0.03661,-0.28264,0.0188,0.26146
0.25681,0.96478,-0.05697,0.79785,0.81003,-1.06089
0.23155,0.97016,-0.07192,0.8965,0.46839,-0.23873
0.22289,0.97076,-0.08906,0.44065,0.02392,0.10861
0.23039,0.96756,-0.10365,0.12122,-0.04259,0.00439
0.23612,0.96421,-0.1206,-0.06397,-0.45063,-0.01179
0.23547,0.96179,-0.13971,-0.17372,-0.64681,0.03106
0.23033,0.95942,-0.16269,-0.25063,-0.7775,0.17327
0.2274,0.95631,-0.18373,-0.23491,-0.65094,0.2993
0.22793,0.95098,-0.20901,-0.23544,-0.6456,0.32458
0.23107,0.9411,-0.24685,-0.10388,1.64392,-0.12861
0.23058,0.93398,-0.27297,0.0289,1.23042,0.0068
0.23595,0.93276,-0.27256,0.07101,0.04913,-0.24508
0.24638,0.93218,-0.26521,0.35657,-0.0691,-0.15353
0.25607,0.93115,-0.25956,0.31302,0.54951,-0.45691
0.25985,0.93327,-0.24797,-0.02636,0.76456,-0.40492
0.25851,0.93758,-0.23264,-0.08039,0.38269,-0.38983
0.25252,0.94333,-0.21531,-0.13019,0.03454,-0.21235
0.24493,0.94838,-0.20145,-0.00347,-0.18314,-0.02372
0.23763,0.95341,-0.18585,-0.0483,-0.2906,-0.00061
0.23031,0.95836,-0.16883,-0.15934,-0.2784,-0.00161
0.2221,0.96317,-0.15159,-0.24013,-0.2719,0.09577
0.2158,0.9672,-0.13396,-0.31362,-0.54768,0.00394
0.20872,0.97133,-0.11383,-0.39463,-1.01674,-0.15572
0.20141,0.97476,-0.09627,-0.25217,-1.22591,0.02968
0.20541,0.97497,-0.08511,-0.04127,-1.37922,0.02737
0.21793,0.97307,-0.07507,-0.11321,-1.43291,0.02046
0.23026,0.97108,-0.06307,-0.46804,-1.09852,0.31299
0.23375,0.97045,-0.0599,-0.44907,-0.13241,0.32149
0.21828,0.97242,-0.08217,0.10334,2.26199,-0.29031
0.20404,0.97493,-0.0888,1.01656,2.47461,-0.54385
0.20741,0.97417,-0.0893,0.65417,-0.19762,-0.04722
0.21214,0.97222,-0.09895,0.96492,0.05417,-0.70078
0.20022,0.97355,-0.11009,1.13885,0.28094,-0.53838
0.1864,0.97536,-0.11804,0.55839,0.18233,-0.15211
0.18257,0.97611,-0.11779,0.20802,-0.055,-0.28996
0.18083,0.97623,-0.11951,0.09497,-0.07834,-0.01604
0.17659,0.97595,-0.12785,0.16153,-0.20025,0.26266
0.16887,0.97606,-0.13708,-0.01259,-0.3907,0.28462
0.1576,0.97655,-0.14667,-0.24038,-0.5317,0.34774
0.14733,0.97614,-0.15952,-0.57466,-0.39984,0.17571
0.14488,0.97421,-0.17298,-0.54942,0.26639,0.10081
0.15195,0.96829,-0.19833,0.06047,0.99651,0.16095
0.16369,0.95953,-0.22914,0.43321,0.86563,-0.17123
0.17628,0.95464,-0.23998,0.1029,0.56974,-0.2006
0.18985,0.95086,-0.24457,0.11484,0.28221,-0.18204
0.20381,0.94676,-0.24922,0.20741,0.00251,-0.34231
0.20622,0.94557,-0.25174,0.12061,-0.22248,-0.31409
0.19917,0.9477,-0.2494,-0.00514,-0.25654,-0.11242
0.1926,0.95055,-0.24365,0.01671,-0.35928,0.01011
0.1862,0.9544,-0.23336,-0.01793,-0.35879,0.10802
0.18044,0.95903,-0.21842,-0.14083,-0.32391,-0.04159
0.1758,0.96364,-0.2012,-0.26105,-0.29401,-0.09169
0.17104,0.96771,-0.18513,-0.22412,-0.35979,-0.06337
0.16552,0.97119,-0.17145,-0.09656,-0.45878,-0.07124
0.16291,0.9741,-0.15682,-0.03292,-0.52578,-0.06976
0.16185,0.97633,-0.14345,-0.09305,-0.14306,-0.11228
0.15818,0.9782,-0.13452,-0.20741,0.57049,-0.31757
0.15773,0.97862,-0.13198,-0.23715,0.57118,-0.45215
0.15724,0.97757,-0.14011,-0.0459,-0.74886,-0.08136
0.16015,0.97599,-0.1476,-0.01701,-0.97763,0.23744
0.16767,0.97381,-0.15353,-0.05283,-1.00967,0.54921
0.17878,0.96864,-0.17253,0.34031,1.24336,0.2958
0.18648,0.96283,-0.19541,0.33261,1.24918,0.31868
0.19021,0.96335,-0.18914,0.50196,0.56146,-0.10215
0.20053,0.96249,-0.18277,0.39386,0.92753,-0.09761
0.21215,0.9576,-0.19492,0.69814,1.1491,-0.31105
0.20745,0.95885,-0.19381,0.39783,0.5357,0.02211
0.20761,0.96031,-0.18628,0.19658,0.10726,0.08646
0.21353,0.96263,-0.16659,0.15033,0.03599,0.02216
0.21338,0.96663,-0.14174,0.27497,0.28208,0.01397
0.21223,0.97024,-0.11656,0.19732,0.13199,0.04242
0.21359,0.97232,-0.09471,0.09054,-0.22717,0.1211
0.21365,0.97418,-0.07305,-0.08422,-0.36999,0.14953
0.20713,0.97709,-0.04895,-0.19836,-0.33886,0.05845
0.19471,0.9804,-0.03002,-0.16275,-0.28033,-0.00718
0.18188,0.98315,-0.01848,-0.01888,-0.29613,-0.03262
0.17277,0.98494,-0.00629,0.09848,-0.36238,-0.14929
0.16673,0.98598,0.007,0.10212,-0.27925,-0.34123
0.16037,0.98689,0.01824,0.0913,0.02076,-0.34376
0.15271,0.98796,0.02488,0.34511,0.26811,-0.23277
0.14309,0.9893,0.02844,0.74158,0.15088,-0.2822
0.13122,0.99087,0.0308,0.54541,-0.05667,-0.24449
0.11931,0.99232,0.03274,0.46617,-0.06553,-0.08614
0.11209,0.99329,0.02861,-0.00177,0.04039,0.16098
0.11041,0.99382,0.01141,-0.20067,0.05139,0.1998
0.11396,0.99339,-0.01403,0.30784,0.23753,0.45314
0.1225,0.99101,-0.05383,0.58695,0.40856,0.39323
0.14118,0.98572,-0.09175,0.35879,0.33804,0.19464
0.16066,0.9801,-0.11653,0.08385,0.244,-0.03013
0.17063,0.9754,-0.13955,-0.07781,0.34732,-0.06669
0.17347,0.97093,-0.1649,-0.07049,0.25857,0.01456
0.17638,0.96608,-0.18863,0.18154,0.06171,0.00888
0.17813,0.96195,-0.20717,0.30773,-0.02706,0.03015
0.17489,0.95935,-0.2215,0.25604,0.03414,0.15643
0.17127,0.9569,-0.23453,0.06588,-0.0058,0.21732
0.16765,0.95456,-0.24639,-0.04608,-0.03554,0.24699
0.15783,0.95381,-0.25559,-0.07265,-0.20278,0.29839
0.14621,0.95392,-0.26202,-0.0526,-0.15142,0.26177
0.13871,0.95386,-0.2663,-0.10302,-0.18611,0.22464
0.13429,0.9542,-0.26732,-0.13258,-0.31663,0.18991
0.13146,0.95503,-0.26579,-0.16342,-0.38828,0.09469
0.12802,0.95613,-0.2635,-0.08622,-0.37291,0.00215
0.12526,0.9577,-0.25908,-0.04023,-0.28663,-0.04502
0.1232,0.95863,-0.25659,0.08009,-0.09934,-0.22786
0.12138,0.95942,-0.25453,0.10998,-0.06283,-0.23067
0.11979,0.96044,-0.25142,0.2568,-0.06302,-0.36202
0.11792,0.96187,-0.24679,0.33069,-0.06831,-0.09736
0.11923,0.96174,-0.24667,0.28378,-0.03884,-0.09219
0.12703,0.96086,-0.24619,0.19267,-0.00569,-0.12843
0.14039,0.95947,-0.24432,-0.05717,0.13627,-0.03044
0.15353,0.9568,-0.2469,-0.07031,0.13895,-0.02786
0.15976,0.95321,-0.25662,0.16303,0.64902,0.16193
0.1587,0.95555,-0.24845,-0.27628,-0.20709,0.32077
0.15118,0.95744,-0.24586,-0.30981,0.05196,0.49795
0.13711,0.95514,-0.26249,-0.11992,0.54988,0.43006
0.13059,0.95445,-0.26825,0.54181,-0.30187,0.24175
0.13657,0.95437,-0.26555,0.46804,-0.36512,0.26422
0.15111,0.9552,-0.25448,0.33673,-0.20323,0.33814
0.15989,0.95757,-0.23976,0.26847,0.29252,0.19955
0.1574,0.96223,-0.22212,0.14701,0.60201,0.09424
0.15926,0.96656,-0.20099,-0.07616,0.27468,0.29004
0.1714,0.96862,-0.17998,-0.07579,-0.16894,0.29392
0.18342,0.97024,-0.15808,-0.18838,-0.3087,0.2122
0.18414,0.9733,-0.13705,-0.18753,-0.25345,0.13357
0.17691,0.97699,-0.11912,-0.09227,-0.16461,0.12794
0.17308,0.97928,-0.1051,0.01085,-0.08019,0.09128
0.17587,0.97989,-0.0942,0.12082,-0.15185,0.07776
0.18055,0.9801,-0.08248,0.12532,-0.22592,0.01481
0.18288,0.98069,-0.06931,0.14061,-0.21222,-0.03041
0.1813,0.98176,-0.05718,0.18577,-0.0319,-0.10151
0.17883,0.98275,-0.047,0.10841,0.03144,-0.08785
0.17661,0.98347,-0.03981,0.04386,0.14037,-0.02802
0.17249,0.98435,-0.03608,0.13767,0.24914,0.01805
0.16805,0.98518,-0.03421,0.23119,0.15163,-0.02472
0.16554,0.98556,-0.03563,0.34226,0.07548,0.01933
0.16528,0.98539,-0.04114,0.2949,0.16574,-0.01364
0.16658,0.98455,-0.054,0.02465,0.1799,0.10115
0.16928,0.98294,-0.07187,-0.02925,-0.00673,0.2823
0.17335,0.97989,-0.09885,0.09352,-0.04943,0.29601
0.17825,0.97442,-0.13686,0.16966,0.13112,0.14795
0.18322,0.96912,-0.16503,0.03936,0.43367,0.26169
0.19009,0.96325,-0.18974,0.12061,0.55426,0.0688
0.19563,0.95692,-0.21454,0.08945,0.31749,0.05919
0.19953,0.95056,-0.23796,0.13206,0.06151,0.10492
0.2028,0.94508,-0.25631,0.09153,0.04227,0.12606
0.20595,0.94095,-0.26869,-0.11872,0.0197,0.09517
0.20718,0.93662,-0.2825,-0.13132,0.07372,0.06006
0.20761,0.93261,-0.29518,-0.10579,-0.05055,0.13344
0.20976,0.92897,-0.30497,-0.05424,-0.25419,0.18752
0.21398,0.92618,-0.31049,-0.01716,-0.32541,0.25477
0.21741,0.92518,-0.31108,-0.0404,-0.38321,0.2588
0.21518,0.92715,-0.30673,-0.25792,-0.33859,0.19208
0.20968,0.93038,-0.30072,-0.22919,-0.34535,0.17
0.20518,0.93357,-0.29385,-0.20015,-0.37146,0.16548
0.20396,0.93607,-0.28666,-0.1049,-0.39844,0.11083
0.20533,0.93867,-0.27701,-0.09352,-0.41943,-0.06277
0.20409,0.94316,-0.26227,-0.1076,-0.45625,-0.20175
0.19633,0.9481,-0.25011,0.00507,-0.41986,-0.0035
0.18542,0.95223,-0.24265,0.04845,-0.3678,-0.11062
0.17652,0.95558,-0.23601,0.08159,-0.30653,-0.15174
0.1763,0.95659,-0.23208,0.00425,-0.26906,0.06287
0.19057,0.95496,-0.22744,-0.1653,-0.26011,0.19584
0.21211,0.95239,-0.21899,-0.26774,-0.21335,0.26724
0.23447,0.95068,-0.20305,-0.31982,-0.3578,0.30369
0.2444,0.95094,-0.18968,-0.32846,-0.44912,0.20253
0.23984,0.95159,-0.19221,-0.33773,-0.3381,0.31097
0.22821,0.94853,-0.21958,0.4052,0.902,0.33639
0.22727,0.94225,-0.24598,0.80471,1.36018,0.24709
0.24334,0.94056,-0.23693,0.22855,1.37321,-0.12137
0.24068,0.93754,-0.25119,0.28785,2.14663,-0.02728
0.24251,0.93598,-0.25521,0.2154,0.09979,-0.48523
0.24149,0.93256,-0.26836,0.68514,-0.32861,0.08356
0.24073,0.93334,-0.26631,0.60499,-0.18246,0.11048
0.23734,0.93985,-0.24565,0.14276,0.02482,0.16259
0.2274,0.94652,-0.22888,-0.30368,0.47529,-0.04983
0.21829,0.95068,-0.22034,-0.08559,-0.02914,0.02335
0.21271,0.95276,-0.21678,-0.01299,-0.52155,0.01959
0.2077,0.95484,-0.21246,0.01257,-0.56395,0.02003
0.198,0.95688,-0.21257,0.17389,-0.53735,-0.10589
0.18466,0.95945,-0.21297,0.35318,-0.41036,-0.00938
0.17036,0.96139,-0.21613,0.28258,-0.18197,0.26534
0.15946,0.96144,-0.22406,0.00086,-0.11432,0.46773
0.15078,0.96063,-0.23336,-0.11306,-0.20837,0.4977
0.14074,0.96007,-0.24179,-0.31309,-0.56152,0.27627
0.13446,0.9565,-0.25888,-0.43942,-0.50094,0.16074
0.13749,0.94738,-0.28908,-0.41459,-0.10197,0.07608
0.15248,0.93112,-0.3313,0.01369,0.90808,0.27527
0.17001,0.9149,-0.36614,0.69879,1.05245,-0.0363
0.18131,0.91105,-0.37028,0.07992,0.74779,-0.14527
0.19713,0.90814,-0.36935,-0.18686,0.09479,-0.1767
0.22206,0.90147,-0.37155,-0.1309,0.39446,-0.10545
0.24275,0.89664,-0.37029,0.10519,0.02522,-0.11442
0.2569,0.8973,-0.35895,0.13322,-0.47226,0.08266
0.26533,0.89911,-0.34813,0.17945,-0.64699,-0.03355
0.27208,0.90204,-0.33509,-0.00397,-0.35428,-0.1751
0.27945,0.90447,-0.32225,-0.10868,0.16075,-0.15445
0.27869,0.90767,-0.31379,-0.07185,0.34671,0.03676
0.27103,0.91494,-0.29905,-0.10202,0.34289,0.15101
0.26271,0.92403,-0.27776,-0.32027,-0.27691,0.15893
0.25806,0.93125,-0.25726,-0.32132,-0.88501,0.08557
0.25549,0.9369,-0.23863,-0.32519,-1.28259,0.01843
0.25377,0.94101,-0.22383,-0.21482,-1.47769,0.05727
0.26391,0.9405,-0.21404,-0.1529,-1.036,0.11897
0.2874,0.93527,-0.20656,-0.22279,-0.77521,0.26013
0.31161,0.92457,-0.21924,-0.10792,-0.35365,0.46479
0.31054,0.91814,-0.24613,1.13031,2.98272,0.23919
0.29049,0.93008,-0.22488,0.01951,1.33435,0.20461
0.29309,0.92839,-0.22844,-0.24209,0.47616,-0.29024
0.30026,0.92251,-0.24251,1.19428,-0.08018,-0.23196
0.28778,0.92472,-0.24917,1.30463,-0.16506,-0.0397
0.29067,0.92295,-0.25233,0.77885,-0.34119,0.3025
0.29912,0.92224,-0.24496,-0.03334,0.05672,0.13496
0.29296,0.92672,-0.2353,-0.4273,0.39335,-0.15996
0.27882,0.93132,-0.23432,-0.41505,-0.14428,0.01719
0.26692,0.93126,-0.24802,-0.17262,-0.57106,0.18118
0.25704,0.9298,-0.26343,0.11273,-0.64863,0.45147
0.24703,0.92871,-0.27655,0.16301,-0.67871,0.47438
0.23964,0.92725,-0.28772,0.07896,-0.57767,0.25831
0.236,0.92488,-0.29817,-0.2806,-0.40965,0.04637
0.23369,0.91937,-0.31645,-0.49287,-0.14822,0.00429
0.23377,0.90868,-0.34592,0.04719,1.30597,0.32507
0.24227,0.89541,-0.37356,0.537,0.7275,0.10073
0.25395,0.88892,-0.38121,0.34467,0.53748,-0.0339
0.26671,0.88343,-0.38526,-0.00121,0.8726,-0.26703
0.27969,0.8785,-0.38731,-0.20658,1.08471,-0.26759
0.28695,0.87602,-0.38761,-0.21221,0.05482,-0.13959
0.28912,0.87566,-0.38683,0.1178,-0.48994,0.02945
0.28973,0.87791,-0.38122,0.21938,-0.63,0.06701
0.28784,0.8844,-0.36741,-0.04275,-0.19867,0.05659
0.28375,0.89242,-0.35083,-0.1375,-0.04073,-0.0084
0.27595,0.90058,-0.33588,-0.19469,0.08627,0.01529
0.26214,0.9097,-0.32208,-0.18655,0.0322,0.11544
0.24707,0.91996,-0.30434,-0.19101,-0.07746,0.26862
0.23459,0.92872,-0.28713,-0.21139,-0.12187,0.30798
0.22874,0.93438,-0.27316,-0.4264,-0.08387,0.08455
0.23376,0.93775,-0.25685,-0.44843,-0.03222,0.02402
0.24308,0.93906,-0.24307,-0.07882,-0.54085,0.10379
0.25459,0.93808,-0.23494,0.1295,-1.12596,0.16611
0.26732,0.93583,-0.22969,0.07256,-1.43164,0.2103
0.28057,0.93459,-0.2187,-0.17458,-1.48216,0.26002
0.29182,0.93423,-0.20508,-0.39457,-0.93682,0.03676
0.30182,0.93217,-0.1999,-0.41529,-0.1786,0.17931
0.30249,0.9283,-0.21625,0.62787,1.81943,-0.31213
0.29972,0.92411,-0.23705,1.45054,1.67015,0.32276
0.30772,0.92724,-0.21339,-0.2561,-0.12603,-0.26691
0.31883,0.92432,-0.2097,-0.36296,0.77633,0.42558
0.31451,0.92109,-0.22952,0.52057,1.89286,-0.71163
0.28665,0.92808,-0.23771,0.39293,0.20875,-0.22021
0.28227,0.92713,-0.24647,0.37565,-0.14288,-0.19265
0.28984,0.92198,-0.25679,0.47189,-0.28194,-0.22316
0.28926,0.92117,-0.26032,0.19399,-0.15935,-0.1197
0.28177,0.92278,-0.26283,0.13438,-0.14551,-0.07699
0.27225,0.9247,-0.26611,0.00707,-0.23305,0.21261
0.26155,0.92681,-0.26946,-0.17363,-0.34947,0.39537
0.25347,0.92694,-0.27666,-0.2521,-0.42334,0.39067
0.24646,0.92502,-0.28913,-0.36876,-0.45259,0.35277
0.23759,0.92235,-0.30465,-0.43072,-0.13733,0.27716
0.23028,0.9188,-0.32059,-0.33394,0.1975,0.27831
0.23032,0.91112,-0.34177,0.15572,0.86457,0.26154
0.23579,0.90313,-0.35883,0.23276,0.97202,-0.11308
0.23919,0.89932,-0.36608,0.16213,0.86332,-0.12347
0.24477,0.89607,-0.37033,-0.00559,0.56229,-0.13626
0.25686,0.89172,-0.37263,-0.02038,0.43312,-0.22995
0.2652,0.88955,-0.37197,-0.018,0.14528,-0.17609
0.26877,0.89021,-0.36782,0.03852,-0.27302,-0.07338
0.26961,0.89261,-0.36132,-0.12041,-0.18749,-0.06203
0.27061,0.89655,-0.35066,-0.12629,-0.01058,0.07274
0.27201,0.9015,-0.3366,-0.02928,-0.09474,0.12182
0.27038,0.90891,-0.31744,-0.08573,-0.18916,0.29229
0.26519,0.91799,-0.29492,-0.13706,-0.26015,0.24467
0.25983,0.92632,-0.27278,-0.41233,-0.64147,0.24666
0.25873,0.93241,-0.25231,-0.5412,-0.85501,0.0882
0.26192,0.93653,-0.23304,-0.50851,-0.96349,0.05986
0.2656,0.93991,-0.21453,-0.02477,-1.14596,0.01333
0.26916,0.94117,-0.20432,0.14892,-1.1481,0.02202
0.28287,0.93675,-0.20612,-0.16875,-1.01869,0.15765
0.3073,0.92921,-0.20527,-0.51769,-0.48964,0.22552
0.31922,0.92166,-0.22055,-0.45166,0.5412,0.25759
0.31111,0.91757,-0.24753,1.15507,2.19122,-0.27568
0.30724,0.9225,-0.23367,-0.15546,0.3078,-0.0809
0.31259,0.92138,-0.23096,-0.27635,2.77961,0.57596
0.30706,0.91624,-0.25735,0.31535,0.2949,-0.9146
0.26869,0.92843,-0.25655,0.67305,-1.16224,-0.30105
0.26574,0.92701,-0.26462,0.39002,-0.64242,0.00665
0.28576,0.91718,-0.2777,0.56715,-0.49746,0.20994
0.30267,0.91013,-0.28293,0.36084,0.67872,-0.15755
0.30216,0.90926,-0.28627,0.09015,0.48906,0.11363
0.30765,0.90672,-0.28846,0.04002,-0.17494,0.46228
0.31448,0.90142,-0.29756,-0.13835,-0.51954,0.43341
0.30912,0.9,-0.30731,-0.29632,-0.44092,0.34795
0.29413,0.89985,-0.32212,-0.40554,-0.19117,0.3215
0.27769,0.89683,-0.34436,-0.20147,0.56127,0.25663
0.26925,0.89035,-0.36713,0.20355,0.52637,0.01546
0.27072,0.88222,-0.38522,0.28467,0.54834,-0.06888
0.27215,0.87578,-0.39867,-0.17347,0.70624,-0.10452
0.27818,0.86896,-0.4093,-0.28302,0.69223,-0.02065
0.28542,0.86609,-0.4104,-0.3182,0.43065,-0.08433
0.28998,0.86835,-0.40233,0.23684,-0.17458,-0.09848
0.28865,0.87254,-0.39416,0.05032,-0.049,-0.07049
0.29009,0.87582,-0.38574,-0.08393,0.07833,-0.13793
0.29378,0.88036,-0.37238,-0.16884,0.16986,-0.15316
0.28952,0.88811,-0.35698,-0.07437,0.19806,0.02379
0.27688,0.89893,-0.33951,0.04557,-0.00588,0.07669
0.26148,0.91216,-0.31557,0.12036,-0.21792,0.10944
0.24711,0.92491,-0.28892,-0.13953,-0.29927,0.24216
0.24006,0.93317,-0.26752,-0.2982,-0.13832,0.16211
0.23917,0.9387,-0.24826,-0.42524,0.0418,0.09957
0.24208,0.94259,-0.23006,-0.15692,-0.68981,0.23235
0.24679,0.94434,-0.21752,-0.00843,-0.9812,0.15644
0.25745,0.94413,-0.20574,0.08071,-1.2386,0.11266
0.27033,0.94381,-0.19013,-0.28594,-1.62267,0.06963
0.27626,0.94493,-0.17545,-0.42559,-1.3505,0.29884
0.27718,0.94701,-0.16231,-0.4782,-0.09641,0.31038
0.27008,0.9511,-0.14991,-0.09085,1.83542,-0.49995
0.26046,0.95084,-0.16751,0.10711,2.3639,0.08058
0.26041,0.94993,-0.17265,0.50137,-0.42245,-0.48993
0.26721,0.94973,-0.16312,0.34973,0.14608,-0.25281
0.26929,0.94606,-0.18012,0.69407,0.67714,-0.60119
0.25552,0.94473,-0.20542,1.15494,0.24273,-0.36651
0.24456,0.94489,-0.21768,0.43429,-0.41296,0.0115
0.24132,0.94345,-0.22728,0.30528,-0.41179,0.2137
0.23927,0.94069,-0.24053,-0.04099,-0.07765,0.34741
0.23072,0.93785,-0.25925,-0.41134,-0.04663,0.23703
0.21374,0.93582,-0.28029,-0.59875,-0.11943,0.24517
0.19501,0.93425,-0.29859,-0.49622,-0.07113,0.4134
0.18606,0.92739,-0.32454,-0.1396,0.71842,0.13194
0.19417,0.91205,-0.3612,0.63826,0.90279,-0.02396
0.20055,0.90207,-0.38216,0.44778,0.83681,-0.01196
0.20711,0.89793,-0.38837,0.27882,0.47622,-0.04729
0.22257,0.89218,-0.39304,0.05032,0.1491,-0.41407
0.23011,0.88923,-0.39536,-0.30334,0.12463,-0.22433
0.22249,0.88901,-0.40019,-0.04014,-0.13978,0.12838
0.20857,0.89161,-0.40191,0.26543,-0.48791,0.19964
0.19312,0.89985,-0.39113,0.20216,-0.626,0.1837
0.18009,0.91091,-0.37123,-0.25579,-0.05951,-0.04152
0.17865,0.91865,-0.35237,-0.33944,-0.02078,-0.04651
0.17875,0.92343,-0.33961,-0.2973,-0.02265,0.00775
0.17811,0.92622,-0.33224,-0.08013,-0.1853,-0.06948
0.17619,0.92871,-0.32626,-0.02983,-0.25476,0.05946
0.17587,0.93218,-0.31641,0.02637,-0.06565,0.04292
0.17618,0.93582,-0.30528,-0.16123,0.28558,-0.20096
0.17792,0.9366,-0.30188,-0.34091,0.3698,-0.34002
0.18287,0.9338,-0.30754,0.09909,-0.65174,-0.04979
0.18857,0.93059,-0.31375,0.15544,-1.1146,0.1159
0.1925,0.93169,-0.30805,-0.17486,-0.89737,0.45714
0.19218,0.93317,-0.30373,-0.29101,-0.13984,0.48809
0.18438,0.92707,-0.32641,0.23313,1.95617,0.64927
0.18165,0.92423,-0.33586,1.30401,1.87155,0.02201
0.18731,0.92698,-0.32501,0.36952,0.77241,0.5776
0.2023,0.92388,-0.32483,0.56454,0.84774,-0.109
0.20063,0.92375,-0.32625,0.03111,0.1024,0.12278
0.19012,0.92771,-0.32125,0.48066,0.54459,0.1094
0.18973,0.93285,-0.30624,0.37099,0.29755,0.13182
0.19145,0.93945,-0.28423,0.241,0.28121,0.19863
0.18419,0.94853,-0.25762,0.14056,0.208,0.23082
0.17633,0.95697,-0.23047,-0.0132,-0.1841,0.24455
0.17305,0.96323,-0.20551,-0.13805,-0.26598,0.20353
0.169,0.96866,-0.18203,-0.1852,-0.254,0.15027
0.15739,0.97428,-0.16129,0.04007,-0.41745,0.13376
0.14339,0.97893,-0.14535,0.10638,-0.49961,0.07841
0.12932,0.98284,-0.13153,0.18934,-0.57194,0.01602
0.11519,0.98651,-0.11634,0.14167,-0.37146,-0.04197
0.1035,0.98925,-0.10328,0.09874,-0.1481,-0.11034
0.09479,0.99072,-0.09736,0.32146,0.27702,-0.083
0.08757,0.99163,-0.09491,0.67544,0.0641,-0.19449
0.08067,0.99224,-0.09467,0.75835,-0.07941,-0.16002
0.07107,0.99295,-0.09483,0.55159,0.04092,0.02891
0.06132,0.99354,-0.09553,0.14089,0.18626,0.24299
0.05431,0.99312,-0.10378,0.03349,0.14487,0.26163
0.05238,0.99113,-0.12216,0.38187,0.12125,0.37617
0.05142,0.98775,-0.14736,0.70845,0.31824,0.49692
0.05629,0.98262,-0.17689,0.53763,0.47924,0.26132
0.06888,0.97762,-0.19878,0.21997,0.38131,0.09265
0.07568,0.97399,-0.21359,0.04888,0.16218,0.16303
0.07741,0.9701,-0.23002,0.01192,0.15034,0.20485
0.07811,0.9652,-0.24957,0.28317,0.10732,0.23284
0.07789,0.96156,-0.26331,0.42878,0.11769,0.19133
0.07362,0.95958,-0.27165,0.30578,0.0053,0.20794
0.06489,0.95778,-0.28008,0.1653,0.05922,0.23315
0.0558,0.956,-0.28799,-0.00021,-0.0904,0.25749
0.04684,0.95485,-0.29336,0.0223,-0.08893,0.25445
0.03601,0.95398,-0.29771,0.04222,-0.13353,0.28265
0.02296,0.95306,-0.30189,0.07268,-0.19884,0.3544
0.00871,0.95189,-0.30632,0.03768,-0.21603,0.33402
-0.00281,0.95001,-0.31221,-0.11537,-0.20601,0.05336
-0.00857,0.94746,-0.31977,-0.03078,-0.20071,0.04384
-0.00745,0.94492,-0.32722,-0.00265,-0.20102,-0.05306
-0.00445,0.94388,-0.33026,0.01246,-0.22571,-0.16121
-0.00631,0.94476,-0.3277,0.27047,-0.05412,-0.17095
-0.01209,0.94547,-0.32548,0.30091,-0.04728,-0.20217
-0.01466,0.94645,-0.32253,0.34956,-0.0844,-0.15072
-0.01158,0.94805,-0.31792,0.33533,-0.09563,-0.1842
-0.00651,0.95015,-0.31174,0.29118,-0.07716,-0.2493
-0.00146,0.95296,-0.30308,0.26092,-0.12951,-0.21568
0.00582,0.95558,-0.29466,0.20422,0.05992,-0.03136
0.01528,0.95469,-0.29721,0.32742,0.53092,0.18537
0.02394,0.95598,-0.29247,0.24679,0.21765,0.2047
0.02535,0.96105,-0.27521,-0.06615,0.089,0.16879
0.01677,0.96324,-0.26812,0.43576,0.21674,0.19614
0.00427,0.9634,-0.26803,0.80702,-0.08649,0.34751
-0.00077,0.96475,-0.26315,0.76028,-0.16144,0.39209
0.00448,0.96921,-0.2462,0.44472,0.06679,0.33302
0.01025,0.97536,-0.22036,0.0784,0.55907,0.111
0.01249,0.98126,-0.1923,0.18233,0.26003,0.18641
0.01872,0.98579,-0.16696,0.19968,0.07296,0.26174
0.03052,0.98873,-0.14659,-0.00492,-0.21268,0.27717
0.04365,0.99123,-0.12471,-0.05917,-0.31699,0.0875
0.04996,0.99373,-0.10003,-0.0315,-0.26534,0.03661
0.04965,0.99586,-0.0761,0.15185,-0.11571,3e-05
0.05421,0.99713,-0.05284,0.18167,-0.31427,0.03946
0.06345,0.99749,-0.03142,0.18131,-0.35995,0.05437
0.06873,0.99758,-0.01064,0.22963,-0.19951,0.0419
0.06892,0.99753,0.01327,0.26194,-0.09159,-0.0047
0.06823,0.99708,0.0344,0.24941,-0.05681,-0.03713
0.06915,0.99635,0.04994,0.10962,-0.01592,-0.21314
0.06982,0.99567,0.06131,0.09258,0.0516,-0.15526
0.06788,0.99518,0.07075,0.30884,0.1737,-0.15339
0.06503,0.99495,0.07642,0.42833,0.30517,-0.17142
0.06252,0.99502,0.07763,0.43089,0.24085,-0.25806
0.06164,0.99513,0.07695,0.48024,0.09345,-0.24452
0.063,0.99524,0.07432,0.59807,0.03422,-0.15315
0.06623,0.99529,0.07084,0.50488,-0.0157,-0.17375
0.07121,0.99527,0.06609,0.18964,-0.11383,-0.03946
0.0779,0.99529,0.05767,0.11096,-0.16218,0.30785
0.08674,0.99535,0.04189,0.0949,0.15495,0.3594
0.09874,0.99503,0.01291,0.01204,0.37384,0.23591
0.11208,0.9935,-0.01991,-0.18017,0.59662,0.15477
0.12704,0.99075,-0.04768,-0.09028,0.44001,0.04914
0.14192,0.98707,-0.07451,0.05447,0.28974,0.03567
0.15222,0.98375,-0.09524,0.25049,0.07973,0.01179
0.15701,0.98144,-0.11012,0.19004,0.04491,-0.02662
0.15843,0.9796,-0.12364,0.03119,0.01891,-0.04066
0.15665,0.97775,-0.13953,-0.03851,0.0978,-0.04704
0.1563,0.97534,-0.15583,-0.00848,0.13188,0.02394
0.16352,0.97187,-0.16948,0.04406,-0.00645,0.08026
0.17919,0.96704,-0.18088,0.05486,-0.3331,0.11276
0.19455,0.963,-0.1865,-0.02482,-0.50061,0.11692
0.20309,0.96215,-0.1817,-0.07673,-0.53539,0.13145
0.20194,0.96408,-0.17257,-0.25075,-0.3672,0.06371
0.19814,0.96596,-0.1663,-0.18678,-0.29738,0.03633
0.19488,0.96746,-0.16138,-0.1423,-0.29232,0.06714
0.19294,0.96876,-0.1558,-0.06428,-0.32737,0.01256
0.18915,0.97084,-0.14728,-0.05529,-0.32895,-0.1063
0.18286,0.97386,-0.13476,-0.03704,-0.33603,-0.11669
0.17521,0.97697,-0.12176,-0.06466,-0.21563,-0.04636
0.16853,0.97916,-0.11332,-0.10206,0.03323,-0.08274
0.16648,0.98015,-0.10765,-0.12495,0.01188,-0.09299
0.17008,0.98025,-0.10094,-0.06808,-0.09295,-0.0854
0.17553,0.97985,-0.09531,0.03469,-0.1733,-0.11468
0.18171,0.9795,-0.087,0.0304,-0.13867,-0.12785
0.19094,0.97865,-0.07601,-0.06995,-0.01683,-0.08365
0.20319,0.97659,-0.07062,-0.07723,-0.36173,-0.05628
0.21338,0.97453,-0.06893,-0.13924,-0.78058,-0.08277
0.21702,0.97392,-0.06613,-0.15851,-0.90178,-0.08348
0.21441,0.97464,-0.06415,-0.26473,-0.74452,0.21381
0.21307,0.9743,-0.07305,-0.20202,-0.66775,0.17925
0.21752,0.97185,-0.09049,0.7742,1.57368,-0.17658
0.22271,0.97025,-0.09495,0.91369,1.90033,-0.22505
0.23291,0.9692,-0.08004,-0.29405,0.3048,0.06959
0.2431,0.96449,-0.1032,0.81778,1.16676,-0.10041
0.24321,0.96401,-0.10736,0.1869,-0.19355,-0.62283
0.23562,0.96632,-0.10348,0.16505,-0.65594,-0.09229
0.23627,0.96553,-0.10918,0.30625,-0.1832,-0.14466
0.2417,0.96468,-0.10475,0.16732,0.45526,-0.2611
0.23173,0.96742,-0.102,0.07976,0.69729,-0.12605
0.21824,0.97049,-0.10257,0.21485,-0.27467,-0.18503
0.21548,0.97127,-0.10102,0.33822,-0.56192,-0.18816
0.21728,0.97149,-0.09482,0.23026,-0.55392,-0.03744
0.21704,0.97185,-0.0917,0.14069,-0.24177,0.10063
0.20993,0.97315,-0.09442,0.09801,0.05998,0.28779
0.19692,0.97511,-0.10187,0.02059,0.15602,0.30822
0.18691,0.97567,-0.11463,-0.20463,-0.35124,0.13501
0.18096,0.97483,-0.13021,-0.36635,-0.62969,0.12475
0.18113,0.97235,-0.14742,-0.4108,-0.5522,0.10819
0.18859,0.96682,-0.1723,-0.09395,0.60759,-0.03474
0.19904,0.95833,-0.20489,0.58401,0.96171,-0.19382
0.20803,0.95417,-0.21514,0.40207,0.88117,-0.04596
0.21816,0.95214,-0.21411,0.06154,0.2897,-0.27583
0.23074,0.94953,-0.2125,0.112,0.3544,-0.30948
0.23965,0.94848,-0.20724,-0.08786,0.19542,-0.23685
0.24635,0.94801,-0.20146,-0.15712,-0.182,-0.2556
0.2501,0.94842,-0.19483,-0.00881,-0.19477,-0.0452
0.25202,0.95016,-0.18354,0.03268,-0.14739,-0.01741
0.24902,0.954,-0.16694,0.01233,-0.11606,-0.01269
0.23739,0.96043,-0.14567,-0.16642,-0.19233,-0.10666
0.21931,0.968,-0.12194,-0.21459,-0.19486,-0.11409
0.20135,0.97409,-0.10297,-0.26051,-0.16911,-0.0792
0.1914,0.97731,-0.0907,-0.33186,-0.07393,0.06395
0.19054,0.97892,-0.07356,-0.30208,-0.0606,-0.07109
0.19037,0.98046,-0.04956,-0.31337,0.10432,0.01884
0.18784,0.98155,-0.0358,-0.10056,-0.533,0.09324
0.18735,0.98174,-0.03308,-0.05888,-0.877,0.00529
0.19012,0.98147,-0.02365,0.07303,-1.48134,-0.0299
0.19838,0.9801,-0.007,0.00559,-1.46998,-0.29036
0.20928,0.97779,0.01141,-0.18691,-1.10532,-0.32547
0.22639,0.97395,0.01328,0.03969,0.22416,0.03102
0.23827,0.97111,-0.0132,1.47741,2.83343,-0.32925
0.24042,0.9703,-0.02673,1.31566,2.5916,0.27421
0.24265,0.97008,-0.00761,-0.85627,-0.39588,-0.00693
0.25086,0.96788,-0.01651,-0.46903,0.65646,-0.20531
0.25084,0.96721,-0.03978,0.11582,1.13217,-1.24338
0.21793,0.97456,-0.05233,0.76699,0.09801,-0.29203
0.20172,0.97684,-0.0713,0.75157,-0.30845,0.10751
0.2055,0.97449,-0.09016,0.61042,-0.45133,0.13573
0.204,0.97362,-0.10226,0.05236,-0.47305,-0.07213
0.19276,0.97389,-0.11994,-0.09575,-0.45428,0.13369
0.17955,0.97314,-0.14411,-0.22385,-0.63773,0.13903
0.17003,0.97104,-0.16783,-0.3219,-0.68743,0.28755
0.17111,0.96549,-0.19633,-0.5173,0.29827,-0.10113
0.18068,0.95403,-0.23913,-0.35465,1.40759,0.3177
0.18712,0.94375,-0.27263,0.38893,0.67784,-0.03291
0.19782,0.94092,-0.27485,0.38138,0.27216,0.02924
0.21919,0.93636,-0.2742,0.26581,0.45074,-0.0711
0.23879,0.929,-0.28272,0.00537,0.87874,-0.64456
0.24224,0.92931,-0.27875,-0.14234,0.24609,-0.33747
0.24555,0.93103,-0.26999,-0.03653,-0.06803,-0.26535
0.25311,0.93163,-0.26076,0.15969,-0.31479,-0.15325
0.25991,0.93373,-0.24617,0.2687,-0.39766,0.08355
0.25931,0.94041,-0.21998,-0.09425,-0.07833,-0.00278
0.25564,0.9476,-0.19158,-0.33941,0.26311,-0.39164
0.24461,0.9552,-0.16661,-0.11608,0.00606,-0.24105
0.22925,0.96247,-0.14525,-0.04627,-0.15213,-0.19093
0.21781,0.96759,-0.12775,-0.08402,-0.35042,0.04905
0.21239,0.97076,-0.11182,-0.33857,-0.22881,0.10105
0.20671,0.97373,-0.09552,-0.55864,-0.1352,0.11254
0.19875,0.9766,-0.0821,-0.49549,-0.30722,-0.08764
0.18753,0.97971,-0.07072,-0.17647,-0.9608,-0.04453
0.17771,0.9824,-0.0576,-0.00325,-1.29668,-0.06018
0.18558,0.98122,-0.0525,-0.06493,-1.48873,-0.15845
0.21154,0.97591,-0.05343,-0.16766,-1.23239,0.0533
0.23995,0.96909,-0.05732,-0.19705,-0.71433,0.25646
0.25801,0.96294,-0.0786,0.62046,1.46765,0.01857
0.26147,0.9595,-0.10485,1.56177,2.20139,0.2666
0.27373,0.95837,-0.08124,-0.19041,0.11177,-0.32405
0.29155,0.95446,-0.06321,-1.07953,0.04679,0.42682
0.30967,0.94737,-0.08123,0.62967,2.07238,-1.44945
0.29106,0.95136,-0.101,1.05913,0.33818,0.07631
0.2607,0.96036,-0.09871,0.65111,-0.56444,-0.25732
0.25644,0.96125,-0.10114,0.46159,-0.46943,-0.13348
0.26103,0.95932,-0.10759,0.4177,-0.1421,-0.32547
0.25893,0.9585,-0.11932,0.31885,-0.12935,-0.06011
0.25558,0.95675,-0.13892,0.01766,-0.39636,0.12578
0.25164,0.95511,-0.15633,-0.36552,-0.4796,0.19643
0.24688,0.95333,-0.17382,-0.69712,-0.3564,0.1493
0.24029,0.95022,-0.19837,-0.54102,0.36262,-0.0346
0.23403,0.94546,-0.22654,0.11552,1.09466,0.27406
0.23389,0.9383,-0.25473,0.51822,0.66619,-0.08571
0.24683,0.93184,-0.26598,0.44849,0.22967,-0.11299
0.25852,0.92922,-0.26405,0.25506,0.23454,-0.24217
0.26279,0.92947,-0.25891,-0.23956,0.66541,-0.30718
0.26563,0.93029,-0.25299,-0.1491,0.44227,-0.28797
0.26879,0.93072,-0.24803,-0.04862,0.07352,-0.14503
0.26943,0.93294,-0.23883,-0.07267,-0.01948,-0.07268
0.26788,0.9374,-0.22254,-0.03684,-0.02628,-0.01776
0.26198,0.94365,-0.20219,0.08144,-0.18459,0.05875
0.25174,0.95119,-0.1785,0.0484,-0.26056,-0.17207
0.23903,0.95911,-0.15154,-0.21843,-0.41152,0.03841
0.22923,0.96531,-0.12502,-0.27742,-0.45132,0.02567
0.225,0.96866,-0.10518,-0.34823,-0.50783,0.0022
0.22271,0.9708,-0.08919,-0.24558,-0.9627,0.19673
0.21955,0.97289,-0.07272,-0.21162,-1.08678,0.14208
0.21965,0.9739,-0.05717,-0.20609,-1.0539,-0.25108
0.22928,0.97229,-0.04564,-0.10391,-1.105,-0.28456
0.24815,0.96781,-0.04199,-0.11332,-1.05263,-0.10059
0.27017,0.96167,-0.04696,-0.31732,-0.51204,0.27114
0.27937,0.9577,-0.06898,0.70309,1.66483,-0.24348
0.26836,0.95942,-0.08657,1.33856,2.7228,-0.00335
0.25335,0.9656,-0.05863,-0.36893,-0.05448,-0.82706
0.25289,0.96591,-0.05533,-0.83124,-0.07677,0.09906
0.25103,0.96348,-0.09321,1.65147,2.63631,-1.62215
0.22161,0.96825,-0.11566,1.09472,-0.10207,0.05809
0.2178,0.96826,-0.12258,0.08784,-1.03157,0.12106
0.2232,0.96619,-0.12902,0.12102,-0.18296,0.06259
0.21888,0.96693,-0.1309,-0.16741,0.17925,-0.05862
0.20539,0.96832,-0.14201,-0.14502,-0.0287,0.07478
0.19153,0.96837,-0.1599,-0.04724,-0.22582,0.19046
0.18147,0.96716,-0.17797,-0.09664,-0.84352,0.2271
0.17633,0.96559,-0.19117,-0.14588,-0.88771,0.21409
0.1789,0.96206,-0.20599,-0.13,0.08994,-0.09819
0.18777,0.95315,-0.23718,0.0584,1.51856,-0.17916
0.19231,0.94599,-0.26099,0.16035,1.14271,0.02791
0.1919,0.94685,-0.25814,-0.13678,0.28528,-0.17492
0.19516,0.94623,-0.258,0.00885,-0.1579,-0.21302
0.20263,0.94386,-0.26088,0.27812,0.26166,-0.21005
0.20794,0.9435,-0.25802,-0.00646,0.64183,-0.32623
0.22043,0.94215,-0.25249,-0.0208,0.39096,-0.37347
0.22749,0.943,-0.24289,0.06648,0.11163,-0.24705
0.2274,0.94693,-0.2272,0.21448,-0.08432,-0.00943
0.22135,0.95358,-0.20418,0.04426,-0.2982,0.15115
0.21498,0.96038,-0.17734,-0.21807,-0.39901,0.05115
0.21108,0.96519,-0.15442,-0.43835,-0.43884,0.1057
0.20932,0.96788,-0.13927,-0.64354,-0.41704,0.02476
0.20852,0.96979,-0.12662,-0.7354,-0.41839,-0.05264
0.20545,0.97254,-0.10937,-0.27547,-0.79871,-0.22435
0.20195,0.97502,-0.09247,0.13811,-1.20399,-0.15199
0.20656,0.97467,-0.08578,0.36995,-1.53054,0.03232
0.22911,0.96944,-0.08773,0.42429,-1.66203,0.07069
0.2599,0.96256,-0.07703,-0.10504,-1.23413,0.05011
0.27302,0.96025,-0.05802,-0.49008,-0.14573,0.1457
0.26637,0.96196,-0.06064,-0.44283,0.91838,-0.02913
0.25702,0.96225,-0.08951,1.06686,2.25746,0.00683
0.26166,0.96162,-0.0826,0.33685,-0.19164,-0.41519
0.28035,0.95678,-0.07729,0.04745,0.48907,-0.48879
0.28213,0.95427,-0.0988,1.17014,1.77151,-0.87492
0.2551,0.96028,-0.11311,0.74886,-0.02027,-0.38623
0.2412,0.96258,-0.12351,0.63376,-0.35805,-0.22395
0.23636,0.96258,-0.13254,0.59659,-0.09445,-0.14245
0.23031,0.96236,-0.14427,0.19358,-0.14031,-0.01163
0.2222,0.96156,-0.16132,-0.08996,-0.41893,0.13287
0.21425,0.96059,-0.17712,-0.49051,-0.67222,0.28742
0.2019,0.96102,-0.18887,-0.75825,-0.73011,0.36704
0.18735,0.96131,-0.20192,-0.67713,-0.53265,0.32741
0.17737,0.95932,-0.21966,-0.22273,0.78156,0.05615
0.17559,0.9533,-0.24571,0.55978,1.13173,0.21315
0.19011,0.94594,-0.2628,0.55365,0.84539,0.01846
0.2056,0.94069,-0.26986,0.23675,0.23475,-0.17791
0.21226,0.93773,-0.27496,-0.03865,0.70755,-0.27005
0.21846,0.93454,-0.28092,-0.29927,0.9928,-0.39397
0.22316,0.93283,-0.28289,-0.25836,0.27227,-0.25835
0.22443,0.93389,-0.27835,-0.05104,-0.2006,-0.07139
0.22841,0.93601,-0.26778,0.23408,-0.53107,0.09237
0.22851,0.94083,-0.25025,0.33274,-0.67285,0.13433
0.21901,0.94802,-0.23083,-0.0977,-0.42228,0.0204
0.20692,0.95462,-0.21419,-0.21493,-0.45589,0.03919
0.19294,0.9614,-0.19617,-0.22175,-0.50149,0.07971
0.17938,0.96797,-0.17567,-0.21626,-0.48608,0.01866
0.16779,0.97337,-0.15618,-0.27594,-0.44624,-0.13146
0.15803,0.97737,-0.14063,-0.29713,-0.33862,-0.11871
0.1494,0.97981,-0.13282,-0.15676,0.03898,-0.12023
0.14264,0.9813,-0.12923,-0.15265,0.09489,-0.18575
0.14209,0.98157,-0.12775,-0.17134,0.1422,-0.29089
0.15003,0.97979,-0.13233,0.00543,-0.17638,-0.46621
0.16625,0.97547,-0.14431,0.12921,-0.50774,-0.36761
0.19035,0.96921,-0.15622,0.04064,-0.91083,0.09456
0.20304,0.96416,-0.1708,0.08956,-0.66205,0.4241
0.20025,0.96018,-0.1948,0.42362,0.76392,0.2246
0.19445,0.95691,-0.21566,1.59765,2.61607,0.47068
0.19425,0.95928,-0.20504,-0.19496,0.60373,-0.65318
0.19739,0.96104,-0.19349,0.27434,0.72786,0.24019
0.19924,0.95743,-0.20889,0.77358,0.78944,0.01663
0.19431,0.9603,-0.20016,0.25311,0.52801,-0.07868
0.19635,0.96268,-0.18627,0.31943,0.30615,0.08801
0.20736,0.96445,-0.16382,0.20372,0.13371,0.10823
0.21246,0.96782,-0.13487,-0.0503,0.10524,0.13717
0.20842,0.97223,-0.10647,-0.07726,0.09024,0.08169
0.20474,0.97551,-0.08037,-0.11787,-0.18732,0.14005
0.20209,0.97781,-0.05512,-0.19251,-0.40019,0.08387
0.19542,0.98023,-0.03096,-0.13559,-0.56794,-0.01784
0.18191,0.98325,-0.011,0.08787,-0.64886,0.00962
0.16732,0.98589,0.00408,0.23406,-0.66317,-0.02692
0.15692,0.98735,0.02276,0.18514,-0.60283,-0.131
0.14888,0.98785,0.04455,0.07964,-0.07628,-0.20991
0.14031,0.98841,0.05796,-0.04355,0.50459,-0.1199
0.13041,0.98938,0.06423,0.04833,0.36279,-0.34185
0.11776,0.99111,0.06186,0.2022,0.31464,-0.53084
0.10458,0.99303,0.05434,0.66261,0.13562,-0.48482
0.09808,0.99386,0.05129,0.76633,0.06517,-0.29867
0.10143,0.99369,0.04786,0.41118,-0.04781,0.12893
0.11329,0.99268,0.04176,0.25629,-0.03895,0.37858
0.13008,0.9912,0.02449,0.25215,0.16273,0.4895
0.14771,0.98896,-0.01152,0.11287,0.50539,0.34621
0.1635,0.98527,-0.05018,-0.16996,0.43453,0.16615
0.18047,0.98015,-0.08211,-0.36965,0.31618,0.01725
0.19513,0.97458,-0.11008,-0.21358,0.16643,-0.05458
0.20333,0.96955,-0.13647,0.30207,0.14383,0.00361
0.20503,0.9652,-0.1623,0.39949,0.12687,0.0276
0.20059,0.96212,-0.18464,0.43587,0.06889,0.01562
0.19263,0.95909,-0.20746,0.1226,-0.06721,0.04542
0.18494,0.95542,-0.23016,0.07311,-0.08115,0.1419
0.18141,0.95175,-0.24752,0.02546,-0.10898,0.23705
0.18077,0.94891,-0.25864,-0.05658,-0.42689,0.35564
0.17888,0.94721,-0.26605,-0.086,-0.46144,0.32396
0.1737,0.94715,-0.26971,-0.13959,-0.44533,0.26472
0.16838,0.94816,-0.26952,-0.23731,-0.1535,0.13843
0.16539,0.9492,-0.2677,-0.22015,-0.13345,0.10048
0.16625,0.94947,-0.26619,-0.18014,-0.11668,0.06335
0.16782,0.95008,-0.26303,0.05716,-0.11987,0.02413
0.16635,0.95209,-0.25662,0.11496,-0.06441,0.0283
0.16117,0.95553,-0.24696,0.03807,0.20197,-0.15871
0.15476,0.95917,-0.23672,-0.14818,0.33731,-0.15619
0.1502,0.96035,-0.23485,-0.14586,0.07505,-0.16403
0.15052,0.95932,-0.23884,-0.1146,-0.09998,-0.18403
0.15486,0.95702,-0.2452,0.0087,-0.03419,-0.10534
0.1654,0.95227,-0.25655,0.08323,0.13435,-0.05223
0.17777,0.94454,-0.27612,0.7019,0.84782,0.16853
0.19153,0.9407,-0.28,0.57199,-0.13972,0.08414
0.20018,0.94305,-0.26568,0.37961,-0.40132,0.25654
0.1975,0.94546,-0.25903,0.30624,-0.24572,0.53177
0.18983,0.94739,-0.2577,0.10748,0.01341,0.60756
0.17402,0.95307,-0.24772,0.08541,0.54793,0.67009
0.15579,0.96232,-0.22286,-0.30124,0.62824,0.28239
0.1601,0.96741,-0.19618,-0.12751,0.1425,0.22154
0.17388,0.96844,-0.17858,-0.12511,0.11123,0.23624
0.181,0.96958,-0.16478,-0.0722,-0.02686,0.19702
0.1829,0.97145,-0.15108,0.01411,-0.14472,0.09181
0.1845,0.97311,-0.13786,0.00382,-0.19218,0.05005
0.18537,0.97481,-0.124,0.03866,-0.25165,-0.04664
0.18486,0.97634,-0.11221,0.12248,-0.31006,-0.00661
0.18375,0.97751,-0.1035,0.16003,-0.33232,0.05799
0.1841,0.97823,-0.09581,0.15505,-0.34241,0.05551
0.18728,0.97852,-0.08617,0.05593,-0.26097,0.04726
0.1916,0.97855,-0.07573,0.02947,-0.17841,-0.0107
0.19314,0.97888,-0.06705,0.06284,0.11971,-0.08682
0.19065,0.97975,-0.06118,0.14688,0.07881,-0.01526
0.18576,0.98096,-0.05657,0.15654,0.02061,0.00012
0.18064,0.98227,-0.05013,0.1195,0.03461,-0.02679
0.1773,0.98315,-0.04455,0.28318,0.18456,-0.03851
0.17657,0.98344,-0.04088,0.32378,0.22053,-0.01846
0.17649,0.98349,-0.04002,0.33427,0.27144,0.00462
0.17498,0.9836,-0.04381,0.11199,0.27315,0.15941
0.17385,0.98329,-0.05404,0.04785,0.15612,0.24415
0.17499,0.98209,-0.06985,0.04181,0.06273,0.31481
0.17875,0.97901,-0.0979,-0.03384,-0.16019,0.14031
0.18379,0.97343,-0.13659,-0.03888,-0.15461,0.179
0.19016,0.96709,-0.16905,-0.0158,0.16174,0.20735
0.19627,0.96054,-0.19708,0.23409,0.25102,-0.01415
0.19901,0.9543,-0.22296,0.29212,0.20913,0.01977
0.19821,0.94906,-0.24493,0.23061,0.10595,0.0487
0.19829,0.94382,-0.26436,-0.02373,0.21878,0.02441
0.20262,0.93702,-0.2845,-0.10756,0.28913,0.03645
0.20783,0.9302,-0.30255,-0.18018,0.33451,0.13156
0.21404,0.92395,-0.317,-0.10473,-0.09369,0.21807
0.2205,0.91848,-0.32827,-0.03538,-0.28436,0.20019
0.22783,0.91453,-0.33425,0.11729,-0.36694,0.15197
0.23162,0.91341,-0.33472,0.07896,-0.28173,0.15091
0.22779,0.91446,-0.33447,-0.07748,-0.23574,0.1842
0.21886,0.9169,-0.33374,-0.16836,-0.3093,0.22101
0.21034,0.92025,-0.33001,-0.14485,-0.33696,0.20694
0.20527,0.92396,-0.32275,-0.11724,-0.33701,0.16526
0.20303,0.92744,-0.31405,-0.04521,-0.36531,0.0558
0.20216,0.93087,-0.30431,-0.01056,-0.37396,0.01998
0.20008,0.93497,-0.29292,0.00424,-0.4057,-0.03478
0.19611,0.93958,-0.28059,-0.05228,-0.38096,0.0826
0.19375,0.94315,-0.27004,-0.1276,-0.32652,0.02187
0.19532,0.94475,-0.26325,-0.13195,-0.22192,0.06759
0.20117,0.94495,-0.25806,-0.05545,-0.08619,0.01007
0.21086,0.94431,-0.25262,-0.04389,0.1824,0.03667
0.22294,0.9432,-0.24631,-0.08507,0.4016,0.05954
0.23801,0.94215,-0.23601,-0.08528,0.06563,0.03247
0.25089,0.9422,-0.22204,-0.25542,-0.25663,0.11372
0.25738,0.94245,-0.2134,-0.29629,-0.41323,0.19935
0.25624,0.94298,-0.21245,-0.30266,-0.47801,0.39125
0.25056,0.9433,-0.21771,0.08179,-0.09554,0.41264
0.25015,0.94252,-0.22152,0.72005,0.76137,0.21696
0.26244,0.93939,-0.22062,0.78634,1.07078,-0.15221
0.27955,0.93635,-0.21236,-0.01918,0.62291,-0.01262
0.28759,0.93196,-0.22075,-0.12235,0.86297,-0.0006
0.28683,0.92851,-0.23577,0.33091,0.52463,-0.04699
0.28552,0.92874,-0.23648,0.32829,0.1577,-0.09177
0.29089,0.92791,-0.23315,0.23108,-0.15675,0.11041
0.29858,0.92787,-0.22337,0.08303,-0.22109,0.11551
0.30042,0.93128,-0.20608,-0.15241,-0.03792,0.13708
0.29652,0.9355,-0.19216,-0.17854,0.03637,0.10384
0.29112,0.93819,-0.18721,-0.0576,-0.06746,0.06912
0.28464,0.94053,-0.18541,-0.0213,-0.26466,0.09198
0.27649,0.94344,-0.18296,0.08151,-0.33754,-0.0355
0.26745,0.94591,-0.18365,0.12222,-0.36611,-0.05273
0.25953,0.94719,-0.18832,0.22577,-0.36727,-0.01832
0.25242,0.94827,-0.19254,0.23288,-0.36834,-0.0141
0.24542,0.94955,-0.19526,0.21156,-0.18549,0.01532
0.23719,0.95047,-0.20087,0.16987,-0.13321,0.04753
0.22671,0.95156,-0.20768,0.16758,-0.16209,0.10696
0.21462,0.95204,-0.21806,-0.00104,-0.3499,0.37995
0.20393,0.95071,-0.23356,-0.28325,-0.39586,0.35789
0.19672,0.94805,-0.24999,-0.48526,-0.24004,0.24755
0.19675,0.94288,-0.26883,-0.39774,0.4441,0.21299
0.20669,0.93044,-0.3026,-0.00015,1.25838,0.33388
0.21711,0.91753,-0.33316,0.35935,0.97294,-0.13488
0.21639,0.91362,-0.34419,0.00057,0.53758,-0.12008
0.22081,0.91002,-0.35087,-0.12882,0.44376,-0.04084
0.23603,0.90323,-0.35843,-0.22823,0.42835,-0.15804
0.25414,0.89713,-0.36135,-0.14358,0.26245,-0.21369
0.26476,0.89472,-0.35969,0.08779,-0.12352,-0.02775
0.26801,0.89604,-0.35395,0.18105,-0.43013,0.02086
0.26476,0.90159,-0.34211,-0.04905,-0.38631,0.07588
0.2602,0.90863,-0.32663,-0.16198,-0.21469,0.03074
0.25664,0.91528,-0.31048,-0.23108,-0.15884,0.08807
0.254,0.92095,-0.29553,-0.26042,-0.18175,0.0069
0.25082,0.927,-0.27886,-0.24629,-0.4161,0.02759
0.2474,0.93327,-0.26038,-0.22883,-0.50677,0.1299
0.24751,0.93841,-0.24111,-0.23251,-0.32268,0.15822
0.24727,0.94307,-0.22243,-0.32711,0.08809,-0.0373
0.24332,0.94719,-0.20885,-0.35867,0.0954,0.08536
0.24304,0.94773,-0.20672,-0.25946,-0.6637,0.19982
0.24144,0.94831,-0.20596,-0.0954,-0.90093,0.09366
0.24541,0.94796,-0.20285,5e-05,-0.80472,0.47057
0.26052,0.94247,-0.20946,0.36996,-0.08365,0.35178
0.28357,0.93214,-0.22518,1.39759,1.77883,-0.46084
0.28935,0.93013,-0.22611,0.39487,1.45398,-0.07815
0.27797,0.93557,-0.21781,-0.77013,0.20007,-0.00614
0.27866,0.93287,-0.22824,0.05879,0.36719,0.06517
0.2763,0.93337,-0.22905,0.44126,0.34122,-0.18064
0.26782,0.93772,-0.22127,0.30569,0.14943,0.15815
0.26831,0.94,-0.21071,0.04091,0.00906,0.06903
0.27398,0.94109,-0.19821,-0.03852,0.21649,-0.19714
0.27559,0.94188,-0.19214,0.04312,0.11524,-0.15809
0.2725,0.94183,-0.1967,0.19,-0.11517,0.00473
0.26654,0.94146,-0.20641,0.19198,-0.44074,0.12267
0.25761,0.94161,-0.2168,0.09479,-0.71557,0.28808
0.24916,0.94139,-0.2274,-0.10819,-0.95371,0.20661
0.24473,0.93749,-0.24743,-0.19082,-0.9303,0.19266
0.24366,0.93101,-0.27176,-0.24985,-0.71354,0.19106
0.24362,0.92382,-0.2953,-0.23756,-0.18252,0.14303
0.24446,0.91147,-0.33084,-0.12483,0.94766,0.25217
0.24744,0.89719,-0.36583,0.65925,1.73641,0.08719
0.24983,0.89295,-0.37446,-0.08549,0.80389,0.08358
0.25844,0.88944,-0.37696,-0.15514,0.28962,-0.15534
0.2742,0.88232,-0.38253,-0.14164,0.66245,-0.09803
0.28926,0.87456,-0.38919,-0.23244,0.52597,-0.18322
0.30068,0.87395,-0.38183,-0.22362,0.29621,-0.14391
0.30908,0.87931,-0.36234,0.13239,-0.46454,-0.27946
0.31309,0.88748,-0.33815,0.16901,-0.0764,-0.24702
0.30913,0.89684,-0.3164,0.17297,-0.08576,-0.26878
0.30102,0.90499,-0.30063,0.02713,0.19562,-0.08969
0.28993,0.91248,-0.28866,-0.33029,0.19658,0.03382
0.2801,0.91899,-0.27749,-0.39865,-0.02688,0.21263
0.27263,0.92276,-0.27237,-0.4654,-0.62667,0.33045
0.26614,0.92722,-0.2635,-0.48187,-1.26747,0.29697
0.26104,0.93533,-0.23878,-0.36209,-1.39549,0.10792
0.2648,0.93953,-0.21718,-0.13909,-1.07849,-0.07973
0.27879,0.93546,-0.21724,-0.05214,-0.91725,0.13058
0.30248,0.92479,-0.23078,-0.30889,-0.73006,0.2678
0.3194,0.913,-0.2538,-0.03203,-0.03635,0.73219
0.31822,0.90566,-0.28019,1.35979,2.75608,-0.0427
0.30692,0.9145,-0.26358,0.72191,1.42523,-0.02329
0.30823,0.91838,-0.24814,-0.93668,0.06814,-0.08322
0.31551,0.9107,-0.26659,-0.19194,1.30803,0.09476
0.2998,0.91442,-0.27194,0.95931,0.21612,-0.72994
0.29591,0.91515,-0.27373,0.51595,-0.8406,0.01325
0.31116,0.90985,-0.27448,0.47586,-0.24333,-0.10447
0.31446,0.90951,-0.27185,0.12363,0.02614,-0.08561
0.29547,0.91532,-0.27364,-0.04114,0.45022,0.21802
0.27411,0.92196,-0.27358,0.00371,0.11359,0.17526
0.266,0.92546,-0.26974,0.21923,-0.13203,0.16457
0.26372,0.92607,-0.26989,0.08471,-0.47711,0.21502
0.25958,0.92496,-0.2776,-0.28712,-0.52274,0.29773
0.25193,0.9216,-0.29527,-0.34879,-0.49855,0.38347
0.2394,0.91987,-0.31069,-0.38927,-0.23784,0.23165
0.2295,0.91747,-0.32492,-0.27366,0.65719,0.1562
0.23291,0.90724,-0.35023,0.09811,1.22296,0.28188
0.24682,0.89581,-0.36959,0.10586,0.67534,0.03252
0.25554,0.88976,-0.37819,-0.13165,0.54391,-0.00832
0.26061,0.88508,-0.38562,0.00906,0.48593,-0.01749
0.2674,0.88149,-0.38919,-0.07479,0.36795,-0.05861
0.27748,0.87846,-0.38898,-0.05324,0.25765,-0.19199
0.28865,0.87691,-0.38433,0.08564,0.05352,-0.10586
0.29581,0.878,-0.37631,0.0625,-0.12782,-0.01301
0.29301,0.88319,-0.36622,0.03463,-0.16005,0.094
0.28041,0.89184,-0.35494,0.01793,-0.22511,0.18976
0.26254,0.90271,-0.34086,-0.03803,-0.29475,0.16566
0.24714,0.91415,-0.32132,-0.07856,-0.32862,0.06625
0.23658,0.92376,-0.30116,-0.1353,-0.31022,-0.00055
0.23024,0.93014,-0.28606,-0.32274,0.02215,-0.00103
0.2294,0.93435,-0.27267,-0.20959,0.24225,0.03197
0.23325,0.93816,-0.25582,-0.21236,0.23141,-0.04193
0.2363,0.94086,-0.24279,-0.26681,0.18822,-0.06837
0.24078,0.94156,-0.23553,-0.33659,-0.1989,0.39015
0.25309,0.94007,-0.22848,-0.3381,-0.40325,0.46421
0.26924,0.938,-0.21832,-0.25314,-0.91056,0.22662
0.28215,0.93708,-0.20559,0.02566,-1.03387,0.03654
0.28752,0.93816,-0.19281,0.1352,-1.04627,-0.04549
0.28426,0.94118,-0.18266,0.06617,-1.17672,-0.15377
0.27985,0.9424,-0.18317,-0.24305,-0.72491,0.06781
0.27526,0.93904,-0.206,-0.41599,-0.06991,0.14303
0.26966,0.93322,-0.23744,0.60815,2.48663,0.3461
0.26803,0.93763,-0.22138,0.85261,1.19064,-0.37907
0.2785,0.93635,-0.21374,-0.60569,-0.18551,-0.1708
0.29562,0.92276,-0.24722,0.476,1.77942,-0.20526
0.28142,0.92533,-0.2541,0.65551,0.7312,-0.57723
0.26647,0.92955,-0.25479,0.4209,-0.44724,-0.01284
0.27106,0.92769,-0.25673,0.50479,-0.59674,0.04664
0.26604,0.93044,-0.25198,-0.07717,0.04757,-0.13169
0.25178,0.9345,-0.2516,-0.14306,0.43656,-0.14082
0.2432,0.93443,-0.26017,0.26665,-0.22891,0.06274
0.24057,0.93262,-0.26896,0.29678,-0.61467,0.10574
0.23768,0.93076,-0.27784,0.1219,-0.62198,0.34688
0.23197,0.93068,-0.28287,-0.00348,-0.49288,0.38301
0.22654,0.92958,-0.29079,-0.0974,-0.29046,0.3884
0.22127,0.9265,-0.30436,-0.29268,-0.10995,0.15797
0.21868,0.92324,-0.31593,-0.2876,0.49871,0.28103
0.22766,0.91546,-0.33181,-0.08511,1.25516,0.24727
0.24936,0.90408,-0.34706,0.23346,1.13635,0.06624
0.2606,0.89833,-0.35368,0.15002,0.6061,-0.24206
0.27031,0.89404,-0.35724,0.0105,0.41841,-0.05897
0.28346,0.889,-0.35961,-0.04907,0.25687,-0.12232
0.29184,0.88575,-0.36094,-0.03435,0.2496,0.03157
0.29409,0.88578,-0.35902,0.11268,0.06011,0.10958
0.29061,0.88899,-0.35389,0.14025,-0.07121,0.04133
0.28222,0.8936,-0.34903,0.1121,-0.13252,0.07663
0.27053,0.89917,-0.34396,-0.10909,-0.02798,0.10497
0.25987,0.90415,-0.33909,-0.22972,-0.13159,0.17758
0.25112,0.90971,-0.3307,-0.28407,-0.23475,0.17539
0.2445,0.91661,-0.31629,-0.20184,-0.26146,0.11333
0.23559,0.92545,-0.29669,-0.11996,-0.14294,0.12234
0.22516,0.93469,-0.27504,-0.08021,-0.03363,0.09863
0.21783,0.94148,-0.25722,-0.26928,0.22745,-0.067
0.2138,0.94495,-0.24768,-0.26525,0.22398,-0.07654
0.21243,0.947,-0.24096,-0.31223,-0.05239,0.38964
0.21179,0.94862,-0.23506,-0.07115,-0.89541,0.1678
0.2112,0.95145,-0.2239,-0.07056,-0.89824,0.15664
0.21449,0.95552,-0.2024,0.01955,-1.41135,-0.04528
0.2192,0.9595,-0.17694,-0.02955,-1.39044,-0.1658
0.22477,0.96071,-0.1628,-0.10598,-1.02144,-0.18141
0.23109,0.95883,-0.16505,-0.20054,-0.62643,-0.33278
0.23142,0.9547,-0.18703,0.69166,1.61181,0.16513
0.23188,0.95002,-0.20903,1.44803,2.28254,0.14889
0.23921,0.95299,-0.18597,0.52366,0.64038,0.40682
0.25057,0.9524,-0.1736,-0.81471,-0.45915,-0.12548
0.25821,0.94483,-0.20155,-0.42064,1.32272,-0.33771
0.22556,0.94894,-0.22054,1.50445,1.1403,-1.09455
0.20483,0.95191,-0.22782,1.40494,-0.09643,-0.27935
0.20033,0.9531,-0.22686,1.00211,-0.47588,0.26285
0.18657,0.95789,-0.21823,0.50865,0.10783,0.26773
0.15886,0.9629,-0.21813,0.01673,0.473,0.16929
0.14137,0.96319,-0.22863,-0.37327,0.19137,-0.00099
0.12727,0.96033,-0.24812,-0.17767,-0.63822,0.12817
0.11352,0.95681,-0.26762,-0.08161,-1.08451,0.32182
0.1,0.95364,-0.28384,-0.07427,-0.88505,0.36493
0.09112,0.95015,-0.29816,-0.03512,0.13336,0.37633
0.08877,0.94326,-0.31996,0.20898,1.42403,0.15454
0.10132,0.93103,-0.35058,0.34098,1.92312,0.51655
0.11913,0.92265,-0.36677,0.06422,0.31305,0.13878
0.13124,0.91753,-0.37537,0.19844,0.31713,-0.01422
0.13969,0.91329,-0.38261,0.2494,0.44717,-0.11566
0.14699,0.90861,-0.39091,0.29534,0.6096,-0.20317
0.1593,0.90297,-0.39907,0.3474,0.49713,-0.00443
0.16424,0.9023,-0.39858,0.27699,0.13076,0.14817
0.15595,0.90809,-0.38865,0.22754,-0.15107,0.28436
0.14308,0.91494,-0.37738,0.06402,-0.22454,0.31911
0.13097,0.9196,-0.37037,-0.10825,-0.25267,0.24246
0.12022,0.92468,-0.36125,-0.17027,-0.35704,0.14752
0.10978,0.93078,-0.34871,-0.17434,-0.41053,0.0924
0.10075,0.9374,-0.33335,-0.11555,-0.42103,0.07186
0.09311,0.94417,-0.31603,0.11446,-0.43915,-0.00046
0.08582,0.94998,-0.30029,0.20036,-0.35624,-0.02365
0.0781,0.95398,-0.28952,0.20739,-0.14081,-0.15322
0.06885,0.95683,-0.28238,0.18982,0.1527,-0.03695
0.05672,0.95853,-0.27928,0.07655,0.43757,-0.02248
0.05057,0.95964,-0.27664,0.00385,0.49318,-0.10785
0.05381,0.95965,-0.27598,0.1274,-0.02943,-0.26761
0.06515,0.95719,-0.28201,0.25452,0.02109,0.07802
0.07774,0.9514,-0.29797,0.25127,0.19769,0.10887
0.08341,0.95006,-0.30071,0.14598,0.22215,0.23885
0.07713,0.95076,-0.30016,0.30034,0.5702,0.12662
0.0622,0.95091,-0.30314,0.62716,0.06729,0.11549
0.05576,0.95036,-0.30611,0.79057,-0.23718,0.18302
0.06406,0.94991,-0.30589,0.51532,-0.25162,0.42437
0.0781,0.95256,-0.29414,0.41029,0.07882,0.39228
0.07478,0.95883,-0.27396,0.38661,0.47406,0.31122
0.0576,0.96724,-0.24722,-0.17638,0.33898,0.31516
0.05152,0.97338,-0.22331,-0.08009,0.12462,0.35992
0.05771,0.97715,-0.20456,-0.05038,-0.06795,0.37387
0.06463,0.9804,-0.18612,-0.10523,-0.2872,0.04571
0.06179,0.98362,-0.16934,-0.01686,-0.28388,0.02056
0.05083,0.98699,-0.1525,0.13885,-0.25329,0.03197
0.04489,0.99018,-0.13241,0.63831,-0.16042,0.13365
0.04549,0.99264,-0.11218,0.54377,-0.283,0.15529
0.04696,0.99479,-0.09051,0.30001,-0.44492,0.16615
0.04414,0.99699,-0.06375,0.19792,-0.31655,0.17146
0.03884,0.99856,-0.03701,0.12729,-0.05309,0.03647
0.03554,0.99921,-0.01736,0.14634,0.21197,-0.06443
0.03337,0.99943,-0.00517,0.19357,0.20333,-0.06476
0.02877,0.99958,9e-05,0.1817,0.22396,-0.2151
0.02177,0.99976,-0.00205,0.40166,0.22519,-0.29946
0.015,0.99984,-0.00959,0.70967,0.01795,-0.24524
0.01208,0.99975,-0.01886,0.8436,-0.14535,-0.09106
0.01376,0.99959,-0.02492,0.65324,-0.08249,0.13018
0.01785,0.99938,-0.03033,0.26203,-0.03989,0.39263
0.02296,0.9988,-0.04317,0.19971,0.02578,0.43923
0.0275,0.99696,-0.07279,0.16108,0.26263,0.28675
0.03133,0.99467,-0.09816,0.15632,0.50212,0.19784
0.0377,0.9918,-0.12211,0.14985,0.46635,0.13611
0.04528,0.98817,-0.14653,0.15209,0.20382,-0.00894
0.04884,0.98473,-0.16708,0.25513,0.10783,0.06927
0.0492,0.98186,-0.18311,0.29644,0.00877,0.07834
0.04754,0.97977,-0.19437,0.21646,-0.11561,0.0141
0.04664,0.97772,-0.20465,0.17277,-0.04257,0.06387
0.04756,0.97603,-0.21236,0.14789,-0.0199,0.14418
0.05079,0.97544,-0.21432,0.10506,-0.23521,0.21548
0.05448,0.9754,-0.21361,0.14779,-0.32797,0.19281
0.05401,0.97632,-0.20945,0.10234,-0.36924,0.18619
0.05069,0.97822,-0.20129,-0.04221,-0.16926,0.14935
0.04761,0.98068,-0.18971,-0.03928,-0.17648,0.07283
0.04594,0.98292,-0.17818,-0.03761,-0.17872,0.0613
0.04672,0.98442,-0.16951,-0.00122,-0.07382,-0.04658
0.04854,0.98519,-0.16445,0.11506,-0.03843,-0.17077
0.04759,0.98604,-0.15956,0.14804,-0.01523,-0.18422
0.04323,0.98708,-0.15424,0.15621,0.02724,-0.15967
0.04154,0.98708,-0.15472,0.03876,-0.00465,-0.11317
0.0498,0.98607,-0.1587,0.03049,-0.00363,-0.10918
0.06556,0.98482,-0.16069,-0.0384,-0.09784,-0.10009
0.08338,0.98321,-0.16228,0.34519,0.23981,0.0663
0.09896,0.98115,-0.16598,0.55123,0.31042,0.05897
0.10645,0.98052,-0.16504,0.71577,0.11765,0.16306
0.10171,0.98196,-0.15936,0.37483,-0.13269,0.21983
0.09532,0.98449,-0.14729,0.38123,-0.13521,0.20776
0.09291,0.9865,-0.13485,0.15862,-0.01966,0.20225
0.09089,0.98857,-0.12028,0.04589,0.28035,0.21274
0.08898,0.99044,-0.1054,-0.0642,0.44143,0.08903
0.09703,0.99107,-0.09144,0.14483,0.24833,0.08141
0.11188,0.99038,-0.0814,0.20149,-0.05733,0.07835
0.1255,0.98978,-0.06766,0.13225,-0.20508,0.04251
0.13323,0.98983,-0.04978,0.10981,-0.23563,-0.06924
0.13628,0.99011,-0.03327,0.11788,-0.22459,-0.0752
0.13791,0.99023,-0.02035,0.09726,-0.3045,-0.04906
0.1394,0.99018,-0.0098,0.12093,-0.30383,-0.07215
0.14031,0.9901,-0.0005,0.08236,-0.17869,-0.15416
0.14082,0.99,0.00835,0.04848,-0.0857,-0.19028
0.14103,0.98991,0.01315,0.08794,-0.03621,-0.13781
0.14078,0.98993,0.01463,0.07881,-0.0622,-0.16757
0.13872,0.99023,0.01367,0.07252,-0.06396,-0.24758
0.13757,0.99043,0.01069,0.19652,0.08766,-0.18464
0.14021,0.99011,0.00358,0.33649,0.13261,0.00104
0.14551,0.9893,-0.00994,0.42875,0.20143,0.18865
0.15491,0.9874,-0.03224,0.07793,0.34973,0.44377
0.16694,0.98408,-0.06096,-0.38778,0.14904,0.12677
0.17404,0.98058,-0.09039,-0.37933,0.20115,0.1703
0.176,0.97713,-0.11928,-0.00167,0.37692,0.10675
0.17655,0.97428,-0.14002,0.13743,0.53623,-0.09143
0.1754,0.97163,-0.15864,0.17445,0.50387,-0.12288
0.17702,0.96809,-0.17735,0.1865,0.15407,-0.07517
0.18161,0.96501,-0.1891,0.11158,-0.06803,-0.07573
0.18924,0.96278,-0.19299,0.04426,-0.23289,-0.03742
0.19822,0.96025,-0.19654,-0.01192,-0.46583,-0.0422
0.20424,0.95778,-0.20232,-0.0713,-0.56903,0.00406
0.20786,0.95578,-0.20804,-0.07315,-0.55888,0.02907
0.20908,0.95501,-0.21034,-0.13107,-0.40468,0.06666
0.20916,0.95561,-0.20748,-0.19201,-0.26297,-0.04478
0.20879,0.9568,-0.20232,-0.07948,-0.26964,-0.08849
0.2053,0.95873,-0.1967,0.03469,-0.37073,-0.03612
0.19884,0.96147,-0.18982,0.06137,-0.46629,0.03571
0.19319,0.9645,-0.18001,-0.00578,-0.48519,-0.08802
0.19041,0.96731,-0.16748,-0.0745,-0.54238,-0.08139
0.19089,0.96934,-0.15471,-0.10973,-0.57299,-0.16659
0.19239,0.97071,-0.14389,-0.19744,-0.4482,-0.15165
0.19266,0.97145,-0.1384,-0.22642,-0.29884,-0.10813
0.19385,0.9715,-0.13636,-0.17569,0.48505,0.02602
0.20387,0.9702,-0.13094,-0.21898,0.50044,-0.02424
0.21486,0.96951,-0.11777,-0.13161,0.00618,-0.1929
0.21751,0.97008,-0.10782,-0.26446,-0.28868,-0.08392
0.21447,0.97072,-0.10814,-0.25731,-0.38582,-0.00031
0.21076,0.97001,-0.12107,0.06251,-0.23079,0.31117
0.20929,0.96982,-0.12503,0.71177,0.76142,0.22438
0.21968,0.96925,-0.11081,0.69505,0.62947,-0.30876
0.2399,0.96463,-0.10924,0.20834,0.78212,-0.29492
0.25601,0.95806,-0.12872,0.48442,1.30155,-0.04181
0.25409,0.95822,-0.13131,0.46435,0.96248,-0.06362
0.25212,0.9584,-0.13381,0.12019,-0.30695,-0.01126
0.2554,0.95823,-0.12867,0.08287,-0.17356,0.08512
0.25685,0.95986,-0.11262,0.05992,-0.08012,0.03569
0.25373,0.96243,-0.09662,-0.08685,0.1942,-0.03262
0.25107,0.96434,-0.08372,-0.06259,-0.10046,-0.11168
0.24925,0.96542,-0.07636,-0.05915,-0.17572,-0.12797
0.24581,0.96639,-0.07527,-0.07509,-0.40557,-0.17917
0.23868,0.96805,-0.07676,0.07588,-0.48467,-0.12745
0.22903,0.97017,-0.07941,0.2628,-0.44855,-0.0764
0.21914,0.97227,-0.08161,0.35549,-0.32585,-0.00375
0.21104,0.97385,-0.08409,0.1149,-0.31418,-0.04227
0.20243,0.97531,-0.08822,0.09761,-0.25139,0.0106
0.1941,0.9766,-0.09261,0.0961,-0.20102,0.0455
0.18612,0.97731,-0.10108,-0.0326,-0.34685,0.15882
0.18135,0.97667,-0.11497,-0.09799,-0.41025,0.22464
0.18143,0.97453,-0.13179,-0.22833,-0.42993,0.23419
0.18861,0.97025,-0.15174,-0.2586,0.83654,-0.06085
0.20447,0.96073,-0.18756,-0.02246,1.20304,0.01932
0.2149,0.95079,-0.22316,0.42513,0.55214,-0.30369
0.21426,0.94767,-0.23665,0.29657,0.49024,-0.24356
0.22115,0.94357,-0.24649,0.10084,0.75444,-0.28955
0.23951,0.93588,-0.25836,-0.26356,0.6653,-0.27286
0.2552,0.93062,-0.26234,-0.19425,0.03244,-0.15214
0.26836,0.9273,-0.26093,-0.04813,-0.28496,-0.18266
0.27882,0.92576,-0.2554,0.12053,-0.54308,-0.04737
0.28183,0.9269,-0.24783,-0.04878,-0.30118,0.0627
0.27882,0.93005,-0.23926,-0.09314,-0.30014,0.08444
0.27302,0.93492,-0.22666,-0.10111,-0.4178,0.01272
0.26296,0.94188,-0.20904,-0.10329,-0.47295,0.05005
0.24931,0.95021,-0.1869,-0.11578,-0.5163,0.0435
0.23714,0.95719,-0.16597,-0.23882,-0.55844,-0.04387
0.23298,0.96088,-0.1497,-0.29353,-0.52943,-0.15276
0.23609,0.96219,-0.13579,-0.32306,-0.46013,-0.17861
0.2381,0.96296,-0.12653,-0.29914,0.28054,-0.16867
0.23112,0.96519,-0.1224,-0.15875,0.72564,0.006
0.23002,0.9663,-0.11548,-0.11422,0.36629,0.02123
0.23882,0.96498,-0.10851,-0.06646,-0.71356,0.13833
0.24903,0.96343,-0.09884,-0.11913,-0.85525,0.07602
0.25203,0.96372,-0.08788,-0.22189,-0.61199,0.24823
0.25344,0.96288,-0.09285,0.35127,0.66035,-0.04584
0.25574,0.96054,-0.10928,1.16259,1.45756,-0.36011
0.25972,0.9596,-0.10815,0.19214,0.41997,-0.1573
0.27348,0.95647,-0.10182,-0.04918,0.20825,-0.09174
0.29334,0.94961,-0.11042,0.14275,0.68566,-0.2443
0.30079,0.94653,-0.1166,0.34723,0.7735,-0.25222
0.29483,0.9488,-0.11332,0.17862,0.10001,-0.0038
0.29403,0.95025,-0.10277,-0.04357,-0.13566,-0.00723
0.29792,0.95051,-0.08813,-0.12867,0.0028,-0.0743
0.29578,0.95213,-0.0772,-0.17428,0.05024,-0.16329
0.28633,0.95546,-0.07141,-0.01513,-0.05931,-0.12865
0.27669,0.95852,-0.06842,0.15782,-0.26355,-0.08464
0.27161,0.9601,-0.06655,0.20791,-0.43927,-0.14829
0.2695,0.9608,-0.06499,0.1284,-0.5928,-0.21884
0.26726,0.96146,-0.06444,0.13406,-0.5042,-0.15848
0.2616,0.96274,-0.06856,0.11749,-0.23396,-0.10619
0.25122,0.96496,-0.07569,0.06724,-0.07475,-0.16212
0.23963,0.96747,-0.08099,0.18648,-0.2085,-0.03277
0.22964,0.96927,-0.08816,0.17956,-0.34545,-0.06051
0.2234,0.9696,-0.09979,0.12557,-0.46096,0.12633
0.22086,0.96867,-0.11351,0.12811,-0.46004,0.14005
0.22119,0.9666,-0.12943,-0.40717,-0.16113,0.11355
0.22294,0.9633,-0.14949,-0.40209,1.15284,0.07406
0.22745,0.95739,-0.17792,-0.14021,1.31729,0.28238
0.23114,0.95132,-0.20385,0.32054,0.46857,-0.20999
0.23077,0.94879,-0.21572,0.27338,0.63681,-0.03033
0.23854,0.94575,-0.22055,0.19765,0.7506,-0.10228
0.25442,0.94064,-0.22463,-0.39199,0.90137,-0.35311
0.27085,0.93575,-0.22586,-0.25975,0.38304,-0.26092
0.28289,0.93235,-0.22514,-0.06344,0.05216,-0.1839
0.28839,0.93135,-0.2223,0.31406,-0.62664,0.00175
0.28521,0.93463,-0.21242,0.23173,-0.65246,0.01946
0.27469,0.94116,-0.19684,0.0161,-0.48804,-0.03296
0.26407,0.94712,-0.18229,-0.19649,-0.43251,-0.01394
0.2529,0.9526,-0.1691,-0.1944,-0.51116,-0.01012
0.24114,0.95826,-0.15355,-0.19791,-0.56393,-0.0343
0.22926,0.96396,-0.13498,-0.29368,-0.5778,-0.01657
0.21926,0.96858,-0.11732,-0.41155,-0.46921,-0.0388
0.21333,0.97135,-0.10472,-0.44267,-0.40683,-0.03559
0.20943,0.973,-0.09693,-0.31864,-0.04499,-0.16149
0.20455,0.97472,-0.08986,-0.13111,0.09028,-0.13079
0.20308,0.97566,-0.08263,-0.06166,0.00969,-0.1291
0.21016,0.97458,-0.07752,0.02278,-0.20408,-0.1013
0.2234,0.97178,-0.0757,-0.06766,-0.12589,-0.02521
0.2357,0.96886,-0.07581,-0.1314,-0.02146,-0.05038
0.23953,0.96783,-0.07695,-0.02932,-0.01664,0.02805
0.23648,0.96745,-0.08999,0.28766,0.38589,0.24531
0.23243,0.9672,-0.10237,0.56563,0.75032,0.11921
0.2348,0.96721,-0.09672,0.28317,0.20341,-0.38708
0.2476,0.96481,-0.08842,0.22238,-0.0161,-0.11002
0.26643,0.95971,-0.08923,0.25778,-0.01834,-0.04049
0.28097,0.95553,-0.08952,0.35659,0.86718,-0.06785
0.28119,0.95527,-0.09154,0.37445,1.41321,0.05852
0.2757,0.95774,-0.08198,0.21894,0.57966,-0.12678
0.27143,0.95959,-0.07423,-0.13677,-0.26026,-0.06332
0.26768,0.96061,-0.07466,-0.16531,-0.31043,0.04402
0.26383,0.96162,-0.07532,-0.12689,-0.28416,0.09472
0.25854,0.96311,-0.07463,-0.03898,-0.17449,-0.02092
0.25097,0.96534,-0.07163,0.12502,-0.29456,-0.16028
0.24409,0.96723,-0.0699,0.11028,-0.43471,-0.14711
0.24092,0.96785,-0.07226,-0.01657,-0.76727,-0.06784
0.23661,0.96852,-0.07731,-0.01473,-0.63205,-0.0483
0.2296,0.96975,-0.0828,0.1794,-0.26747,-0.05696
0.22065,0.97163,-0.08504,0.25472,-0.10292,-0.03981
0.21224,0.97305,-0.09007,0.11796,-0.25923,0.01132
0.20542,0.97353,-0.10014,0.09854,-0.30714,0.12508
0.2003,0.97324,-0.11262,0.06206,-0.35435,0.21911
0.19892,0.9716,-0.12817,-0.35498,-0.12989,-0.02964
0.20589,0.96737,-0.14762,-0.36196,-0.12567,-0.01018
0.22276,0.9575,-0.18323,0.14819,1.34322,0.06551
0.23638,0.94643,-0.21996,0.33673,0.40279,-0.33583
0.23529,0.9421,-0.23889,0.35781,0.38048,-0.2383
0.2339,0.94024,-0.24745,0.16309,0.66222,-0.23755
0.24759,0.93492,-0.2542,-0.20392,1.00048,-0.39125
0.2662,0.92852,-0.25879,-0.2484,0.79638,-0.37453
0.27621,0.92567,-0.25851,0.05334,-0.18106,-0.21567
0.27778,0.92605,-0.25547,0.16889,-0.53731,-0.06876
0.27339,0.92948,-0.24761,0.18415,-0.55486,-0.02471
0.26633,0.93469,-0.23542,-0.09862,-0.36352,-0.05989
0.25919,0.9399,-0.22226,-0.12118,-0.42574,0.00911
0.24821,0.94573,-0.2097,-0.11786,-0.47446,0.0323
0.23386,0.95299,-0.19264,-0.13777,-0.59157,0.10358
0.22031,0.96026,-0.17131,-0.23036,-0.58214,0.05547
0.21144,0.96564,-0.15112,-0.30397,-0.55144,0.03832
0.20888,0.96881,-0.13329,-0.44444,-0.27887,-0.05734
0.20791,0.97093,-0.1186,-0.41351,0.03921,-0.09992
0.20309,0.97303,-0.10935,-0.24954,0.12488,-0.14959
0.20071,0.97421,-0.10303,0.00987,-0.19504,0.01411
0.20732,0.97361,-0.09539,-0.04184,-0.30189,-0.10328
0.2223,0.97114,-0.0864,-0.18698,-0.27036,-0.17999
0.23568,0.96862,-0.07887,-0.10875,-0.1935,-0.18534
0.24233,0.96687,-0.08016,0.04739,-0.08694,0.15767
0.23957,0.96661,-0.09091,0.26198,0.206,0.11687
0.23398,0.96703,-0.10046,1.0077,0.93365,0.1452
0.23588,0.967,-0.09624,0.22796,0.25564,-0.1122
0.24886,0.96464,-0.08681,-0.00501,0.29446,-0.13319
0.26704,0.95989,-0.08542,-0.04954,0.66334,-0.33676
0.27725,0.95646,-0.09115,0.41812,0.83364,-0.16441
0.27653,0.95642,-0.09374,0.52633,0.55907,0.02041
0.27588,0.95714,-0.08815,0.13198,-0.18195,0.00948
0.27873,0.95752,-0.07392,-0.12264,-0.16122,-0.09954
0.28083,0.95787,-0.06001,-0.16485,-0.12816,-0.06082
0.28261,0.95787,-0.05105,-0.11517,-0.11849,-0.03913
0.28276,0.95809,-0.04599,0.07993,-0.18266,-0.09044
0.27808,0.95966,-0.04149,0.13063,-0.23708,-0.09634
0.27122,0.96171,-0.03917,0.12682,-0.32527,-0.1082
0.26418,0.9636,-0.04095,0.01204,-0.36393,-0.16582
0.25439,0.96578,-0.05057,-0.02363,-0.34982,-0.2248
0.24285,0.96818,-0.06034,0.04576,-0.34349,-0.18609
0.23133,0.97043,-0.06884,0.24489,-0.38216,-0.13107
0.22133,0.97214,-0.07718,0.29677,-0.34077,0.03714
0.21203,0.97332,-0.08761,0.26041,-0.29835,0.18881
0.20311,0.97374,-0.10285,-0.19592,-0.23197,0.15422
0.19331,0.97364,-0.12108,-0.35548,-0.01242,-0.02733
0.18564,0.97245,-0.14095,-0.36003,0.76291,-0.12831
0.1864,0.96787,-0.16877,0.01229,1.1019,0.06851
0.19756,0.95899,-0.20321,0.38856,0.70328,-0.17687
0.2033,0.95401,-0.22027,0.31911,0.50726,-0.15425
0.20881,0.95153,-0.22581,0.20049,0.70175,-0.1727
0.22394,0.94663,-0.23181,0.04496,0.86494,-0.30286
0.24309,0.94051,-0.23738,-0.29076,0.38454,-0.27445
0.2579,0.93612,-0.23907,-0.14265,-0.31254,-0.15978
0.26559,0.93349,-0.24094,-0.02495,-0.49985,-0.06398
0.2665,0.93378,-0.23879,0.22617,-0.49399,0.07984
0.26009,0.93781,-0.22991,-0.06293,-0.08575,-0.0242
0.25458,0.94189,-0.21916,-0.09136,-0.04597,-0.08414
0.24583,0.94624,-0.2102,-0.06195,-0.06867,-0.00295
0.23306,0.95213,-0.1978,-0.03935,-0.15349,-0.03554
0.22071,0.95843,-0.18081,-0.07871,-0.19102,-0.02466
0.21221,0.96362,-0.16246,-0.08802,-0.17795,-0.01057
0.2061,0.96777,-0.14471,-0.2332,-0.11969,-0.15729
0.19984,0.97137,-0.12844,-0.41811,0.12314,-0.17609
0.19123,0.97428,-0.11919,-0.46499,0.36814,0.09305
0.18482,0.97591,-0.11595,-0.10977,-0.42033,0.12892
0.18315,0.97632,-0.11511,0.11647,-0.97432,0.0809
0.18575,0.97644,-0.10977,0.23321,-1.32808,0.0051
0.192,0.97676,-0.09524,0.13857,-1.49336,-0.09166
0.20045,0.97691,-0.07387,0.10768,-1.4632,-0.14032
0.21381,0.97532,-0.05508,-0.18289,-0.9947,-0.17415
0.22487,0.9732,-0.04804,-0.27799,0.4753,-0.05301
0.22561,0.97238,-0.05972,0.05373,1.56598,-0.02384
0.21592,0.97325,-0.07842,0.99391,2.01691,0.1481
0.21348,0.97482,-0.06432,0.01941,-0.40402,-0.18152
0.22694,0.97166,-0.0661,0.03265,0.27195,-0.19798
0.23373,0.96748,-0.09667,1.1263,1.77864,-0.9768
0.21427,0.96938,-0.11992,0.51513,-0.38875,-0.16782
0.2071,0.96923,-0.13306,0.47033,-0.5407,-0.09958
0.2037,0.9678,-0.14783,0.39152,-0.57323,-0.0908
0.19272,0.96821,-0.15944,0.00261,-0.2485,0.23666
0.17713,0.96877,-0.17351,-0.14,-0.34899,0.15923
0.16637,0.96767,-0.18952,-0.26449,-0.43676,0.13305
0.16056,0.96575,-0.20382,-0.27142,0.32514,0.1112
0.16326,0.95991,-0.22782,-0.18094,0.76929,0.19512
0.17568,0.94916,-0.26118,-0.01614,1.09648,0.17402
0.18357,0.94207,-0.2807,0.18373,0.75818,-0.16546
0.19472,0.93823,-0.28602,0.11784,0.71549,-0.27019
0.21531,0.93224,-0.2908,0.01978,0.57329,-0.40466
0.23198,0.92771,-0.29244,-0.03011,0.185,-0.31466
0.24578,0.92305,-0.29593,0.29585,-0.00694,-0.27997
0.25516,0.91997,-0.29756,0.33078,-0.16425,-0.05771
0.25668,0.92123,-0.29231,0.13785,-0.22393,-0.01296
0.25036,0.92564,-0.28372,0.04044,-0.28062,0.02266
0.23813,0.9319,-0.27359,-0.20216,-0.35515,0.13425
0.22561,0.93791,-0.26345,-0.22393,-0.44544,0.13212
0.21705,0.94355,-0.2502,-0.2137,-0.48296,0.08599
0.21042,0.9491,-0.23438,-0.20052,-0.49692,0.04642
0.20353,0.95487,-0.21632,-0.12915,-0.53842,0.03393
0.19672,0.96052,-0.1967,-0.1222,-0.52844,-0.02765
0.19094,0.96541,-0.1775,-0.17117,-0.19808,-0.22596
0.18446,0.96962,-0.16066,-0.15857,-0.12902,-0.14349
0.17246,0.97384,-0.14792,-0.11971,-0.04185,-0.15143
0.15832,0.97744,-0.13978,-0.15392,0.22442,-0.22793
0.15199,0.97871,-0.1379,-0.14258,0.13746,-0.43029
0.15711,0.977,-0.14415,-0.09699,-0.20638,-0.52487
0.16603,0.97446,-0.15118,0.0115,-0.6171,-0.18834
0.17678,0.97137,-0.1587,-0.12086,-0.54456,0.39758
0.18138,0.96844,-0.17095,-0.03654,-0.14962,0.42674
0.17101,0.96632,-0.19226,1.16234,1.87164,0.58458
0.15847,0.96784,-0.19539,0.58021,0.37291,0.07675
0.16498,0.96978,-0.17973,0.01605,0.35516,0.01895
0.17539,0.96779,-0.1806,0.62047,1.34488,-0.29472
0.17164,0.96842,-0.18081,0.36598,0.49314,-0.057
0.16766,0.97025,-0.17461,0.34931,0.3762,0.01218
0.1779,0.97057,-0.16228,0.2195,-0.0055,0.16864
0.18772,0.97293,-0.1348,0.05401,-0.01679,0.21386
0.1889,0.9766,-0.10274,-0.03662,0.03087,0.13103
0.18773,0.97941,-0.07417,-0.09687,-0.096,0.04846
0.18885,0.98067,-0.05111,-0.13864,-0.31749,0.03617
0.18721,0.98183,-0.03101,-0.15082,-0.48056,-0.00773
0.18083,0.98342,-0.01369,-0.05071,-0.55921,-0.01137
0.17146,0.98519,0.00151,0.14992,-0.54894,-0.0046
0.16236,0.98655,0.01864,0.20012,-0.47321,-0.05256
0.15476,0.98714,0.03993,0.20927,-0.35694,-0.12889
0.14891,0.98738,0.05377,0.01093,0.36111,-0.24044
0.14239,0.98801,0.05954,0.07807,0.24626,-0.29326
0.13327,0.98899,0.06423,0.25372,0.17626,-0.3481
0.12414,0.99023,0.0634,0.81021,0.0743,-0.33169
0.11843,0.99118,0.05933,0.70507,-0.00185,-0.24513
0.11777,0.99147,0.05572,0.62954,0.02399,-0.1201
0.12409,0.99104,0.04939,0.06004,-0.13694,0.19329
0.13508,0.99017,0.03614,0.01717,-0.10684,0.29517
0.14713,0.98903,0.01241,0.02459,-0.01591,0.34588
0.15927,0.98688,-0.02642,0.11205,0.66264,0.19494
0.17334,0.98275,-0.06436,-0.03299,0.51795,0.13462
0.19299,0.97672,-0.09366,-0.04159,0.30491,-0.11517
0.20939,0.97075,-0.11748,0.09684,0.24179,-0.10861
0.21918,0.96531,-0.14188,0.15469,0.2378,-0.0665
0.22326,0.96046,-0.16632,0.28135,0.0371,0.01206
0.22289,0.95677,-0.18683,0.18445,-0.0421,0.02268
0.22166,0.95326,-0.2053,0.14642,0.07168,0.04669
0.22191,0.94978,-0.22063,-0.05105,-0.03703,0.21913
0.22559,0.94581,-0.23355,0.02155,-0.20889,0.31835
0.23004,0.94125,-0.24725,0.02585,-0.31193,0.34876
0.22791,0.93942,-0.25601,-0.24366,-0.39888,0.28397
0.21769,0.94087,-0.25956,-0.26116,-0.23198,0.25418
0.20714,0.94267,-0.26164,-0.25347,-0.16719,0.22981
0.19995,0.94415,-0.2619,-0.22293,-0.17648,0.12494
0.19745,0.94521,-0.25998,-0.07436,-0.19304,-0.02519
0.19518,0.94746,-0.25342,0.07073,-0.2425,-0.12022
0.18923,0.95125,-0.24351,0.19623,-0.19112,-0.08652
0.18097,0.95508,-0.23467,0.15978,-0.0441,-0.1343
0.17383,0.95822,-0.22713,0.00148,0.21063,-0.21532
0.16988,0.9597,-0.22387,-0.05301,0.24119,-0.13266
0.16728,0.95979,-0.22542,0.01678,-0.02379,-0.05676
0.16532,0.95939,-0.22853,-0.08715,0.0716,-0.12662
0.16709,0.95922,-0.22797,-0.08863,0.10583,-0.19174
0.1726,0.95859,-0.22649,0.07529,0.26881,0.02235
0.17799,0.95554,-0.23506,0.12268,0.43911,-0.01703
0.17993,0.95365,-0.24119,-0.16113,0.2743,0.02726
0.17927,0.95463,-0.23778,-0.04614,0.17666,0.20967
0.17683,0.95306,-0.24578,0.12327,0.1366,0.12945
0.17468,0.94973,-0.25978,0.57651,-0.23034,0.33396
0.17503,0.94891,-0.26255,0.53854,-0.23876,0.45282
0.17856,0.95067,-0.25364,0.4387,-0.10164,0.39461
0.18119,0.95393,-0.23911,0.29542,0.08203,0.3162
0.17593,0.95827,-0.22528,-0.26619,0.28314,0.25714
0.16696,0.96328,-0.21026,-0.20613,0.20632,0.31132
0.16618,0.96635,-0.19634,-0.12461,0.11753,0.32349
0.17572,0.96712,-0.18384,0.04605,-0.0636,0.21962
0.18766,0.96735,-0.17032,0.00032,-0.06305,0.15671
0.19462,0.96851,-0.15527,-0.02069,-0.07971,0.10483
0.197,0.97039,-0.13974,0.08893,-0.13195,0.09572
0.19913,0.97181,-0.12618,0.12677,-0.12586,0.07778
0.20233,0.97243,-0.11588,0.14958,-0.12235,0.06512
0.20556,0.97288,-0.10604,0.11435,-0.17965,0.07034
0.20786,0.97349,-0.09542,0.11206,-0.18026,0.05971
0.20815,0.97442,-0.08469,0.05541,-0.03081,0.01513
0.2065,0.97555,-0.07515,0.02191,-0.05192,-0.01541
0.20474,0.97648,-0.06756,0.02645,-0.09632,-0.0175
0.20275,0.97742,-0.05951,0.06779,-0.09889,-0.02148
0.20028,0.97849,-0.04945,0.10032,-0.05226,-0.04759
0.19719,0.97949,-0.04128,0.13513,0.02226,-0.06084
0.19315,0.98046,-0.03726,0.31725,0.07298,0.00946
0.18939,0.98132,-0.0338,0.35378,-0.02369,-0.02655
0.1872,0.98183,-0.0309,0.32843,-0.01693,-0.05992
0.18531,0.98222,-0.02995,0.30184,0.06183,-0.15488
0.18418,0.98245,-0.0294,0.37394,0.11362,-0.09192
0.18492,0.98227,-0.0307,0.34669,0.14409,-0.03883
0.18791,0.98154,-0.03559,0.17359,0.06708,0.20278
0.19133,0.98057,-0.04313,0.18115,0.0634,0.47754
0.19532,0.97898,-0.05866,0.09141,0.03411,0.4871
0.20121,0.97577,-0.0859,-0.20181,0.08498,0.17682
0.20845,0.97131,-0.11441,-0.25661,0.37288,0.22317
0.21571,0.966,-0.14247,-0.2803,0.39896,0.19417
0.22379,0.95994,-0.16859,0.11536,0.19715,0.08992
0.22954,0.95445,-0.19063,0.27766,0.13062,0.09505
0.23233,0.95018,-0.2078,0.28655,0.12812,0.12308
0.23329,0.94648,-0.22303,0.10283,0.17524,0.10057
0.23146,0.94295,-0.23931,-0.0627,0.241,0.1473
0.22767,0.93925,-0.25684,-0.09287,0.24298,0.1585
0.22378,0.93582,-0.27231,-0.06002,0.03583,0.22031
0.22354,0.93269,-0.28305,-0.04108,-0.17127,0.26411
0.22703,0.92932,-0.29123,-0.01685,-0.21063,0.2493
0.22789,0.92701,-0.29785,-0.11487,-0.27088,0.24688
0.22185,0.92693,-0.30261,-0.14098,-0.26476,0.23847
0.21202,0.92824,-0.30563,-0.1566,-0.11185,0.25886
0.20378,0.92924,-0.30818,-0.15985,-0.00191,0.20311
0.19905,0.92983,-0.30951,-0.12169,0.02421,0.13026
0.19653,0.93036,-0.30952,-0.06813,-0.04243,0.14541
0.1945,0.93126,-0.3081,-0.0382,-0.08732,0.17419
0.19336,0.93256,-0.30486,-0.06807,-0.05149,0.12569
0.19421,0.93353,-0.30133,-0.13998,-0.03309,0.10945
0.19633,0.93404,-0.29837,-0.12768,-0.07606,0.13175
0.19774,0.93521,-0.29373,-0.05572,-0.0906,0.11414
0.19747,0.93698,-0.2882,0.00187,-0.12483,0.09922
0.19513,0.93883,-0.28377,0.04901,-0.23767,0.06468
0.19204,0.94085,-0.27912,0.00445,-0.26019,0.0325
0.19011,0.94254,-0.27471,-0.04216,-0.24335,0.02146
0.19047,0.94352,-0.27107,-0.0628,-0.22848,0.07641
0.19474,0.94394,-0.26656,0.02018,-0.24254,0.04066
0.20176,0.94424,-0.26019,0.05854,-0.27982,0.0397
0.21027,0.94477,-0.25137,0.00515,-0.16746,0.01138
0.2193,0.94501,-0.24261,-0.081,-0.03224,1e-05
0.22689,0.94491,-0.23593,-0.09516,0.0532,-0.03821
0.23199,0.94494,-0.23078,-0.13865,0.21665,-0.14454
0.23587,0.94487,-0.22711,-0.11952,-0.00907,-0.09652
0.24126,0.94425,-0.22402,-0.12492,-0.00844,-0.0996
0.24676,0.94393,-0.21931,-0.15382,-0.40233,0.03361
0.24927,0.94469,-0.21313,-0.23325,-0.57246,0.20682
0.24812,0.94568,-0.21006,-0.2321,-0.57345,0.20376
0.24386,0.9461,-0.21311,0.04818,-0.0556,0.36487
0.23875,0.9465,-0.21709,0.5145,1.107,0.19527
0.24105,0.94713,-0.21175,0.5122,1.10637,0.18993
0.2527,0.94503,-0.20749,-0.03133,0.45603,0.13599
0.26354,0.93956,-0.21856,0.55839,1.67407,-0.00133
0.26342,0.93922,-0.22013,0.55851,1.67441,0.00024
0.26052,0.94024,-0.21924,0.07994,-0.39228,-0.06456
0.26712,0.9371,-0.22469,0.23988,-0.41067,0.16271
0.27709,0.937,-0.21271,0.22991,-0.41057,0.15073
0.28171,0.94032,-0.19088,0.13211,0.36361,0.12652
0.28033,0.94455,-0.17097,-0.02976,0.51539,0.1076
0.28361,0.94679,-0.15215,-0.07559,-0.11322,0.05861
0.28575,0.94823,-0.13858,-0.32922,-0.36183,0.07205
0.28339,0.94968,-0.13342,-0.39435,-0.4732,0.11085
0.27751,0.95152,-0.13259,-0.17497,-0.36557,0.11904
0.26968,0.95348,-0.13468,0.11738,-0.14023,-0.02724
0.26414,0.95443,-0.1389,0.23151,-0.34972,-0.08569
0.26072,0.95375,-0.14958,0.2491,-0.41969,-0.08614
0.2563,0.95287,-0.16231,0.17214,-0.51622,-0.04315
0.24774,0.95302,-0.17424,0.1768,-0.374,-0.14938
0.23529,0.95403,-0.18561,0.26793,-0.24709,-0.05307
0.22148,0.95486,-0.19792,0.30737,-0.19755,0.14482
0.20868,0.95475,-0.21187,0.08274,-0.27891,0.32909
0.19746,0.95375,-0.22665,-0.03076,-0.33277,0.33304
0.18969,0.95068,-0.24538,-0.39997,-0.07996,0.17807
0.19048,0.94425,-0.2685,-0.55068,0.52779,-0.08697
0.20497,0.93088,-0.30241,-0.5401,0.98447,-0.01349
0.2268,0.91375,-0.33706,0.54078,0.75359,-0.2074
0.23268,0.90798,-0.34846,0.37882,0.50909,-0.10854
0.23526,0.90618,-0.35141,0.31016,0.45691,-0.09714
0.24989,0.89914,-0.35929,-0.05097,0.68602,-0.22858
0.26691,0.89084,-0.36763,-0.22154,0.6706,-0.06804
0.27715,0.88687,-0.36964,-0.24197,0.27391,0.01978
0.28221,0.88582,-0.36834,0.15326,-0.433,0.06716
0.27963,0.88925,-0.36198,0.2083,-0.32217,0.15183
0.27437,0.89477,-0.35227,-0.02398,-0.06826,0.1182
0.27046,0.89932,-0.34361,-0.17476,-0.02252,0.14932
0.26315,0.90475,-0.33491,-0.16052,-0.21502,0.23621
0.25434,0.91204,-0.32168,-0.16977,-0.3012,0.21753
0.24602,0.9204,-0.30385,-0.21065,-0.3083,0.10132
0.24085,0.9282,-0.2836,-0.31993,-0.09434,0.00781
0.24138,0.9334,-0.26551,-0.32045,-0.09953,-0.01027
0.24503,0.9355,-0.25455,-0.45987,0.41868,-0.02454
0.24677,0.93678,-0.24806,-0.19275,-0.22856,0.37106
0.25064,0.93821,-0.2386,-0.19662,-0.22999,0.3616
0.2573,0.93889,-0.22862,0.01948,-0.94016,0.3195
0.27071,0.939,-0.2121,0.11328,-1.31528,-0.05104
0.28472,0.93957,-0.19008,0.09927,-1.31585,-0.07305
0.29727,0.93873,-0.17436,-0.14531,-1.05403,-0.12803
0.30761,0.93396,-0.18187,-0.45952,-0.7208,0.23893
0.30944,0.92934,-0.2014,-0.5936,-0.49372,0.32956
0.29854,0.92967,-0.21581,1.07741,2.87398,0.23149
0.29553,0.93458,-0.19799,-0.23642,0.18062,-0.33839
0.31152,0.92827,-0.20312,-0.7062,0.04237,0.16122
0.32443,0.91783,-0.22873,0.41718,1.65327,-0.28192
0.30151,0.92397,-0.2353,0.534,0.23694,-0.73705
0.28804,0.92493,-0.24805,0.56489,-0.38234,-0.01049
0.28888,0.92243,-0.25624,0.57963,-0.43799,-0.0744
0.28512,0.92422,-0.25399,0.05413,-0.19731,-0.00543
0.27014,0.92793,-0.25681,0.02726,0.08957,0.02801
0.25598,0.92959,-0.26519,0.00603,0.183,0.2141
0.24771,0.92899,-0.27498,0.01826,-0.37189,0.25589
0.24182,0.9271,-0.28635,-0.01899,-0.45918,0.29573
0.23706,0.9237,-0.30094,-0.11067,-0.50735,0.31374
0.23177,0.91921,-0.31831,-0.32564,-0.23217,0.13637
0.22874,0.91285,-0.33818,-0.27958,0.49176,0.08248
0.23098,0.90254,-0.36341,0.00837,1.05617,0.23958
