gravity.x,gravity.y,gravity.z,userAcceleration.x,userAcceleration.y,userAcceleration.z
-0.22851,0.84439,0.48455,0.11108,0.52454,-0.01724
-0.23166,0.83615,0.49717,0.04369,-0.00042,-0.23781
-0.22889,0.83115,0.50676,0.30025,-0.01518,-0.15329
-0.23131,0.82928,0.50871,0.3696,-0.04183,-0.19725
-0.23781,0.83189,0.5014,0.48769,-0.27887,-0.2299
-0.24303,0.83927,0.48637,0.49321,-0.39574,-0.22194
-0.24121,0.85123,0.46608,0.43534,-0.49757,-0.20997
-0.22854,0.86794,0.44096,0.0598,-0.60476,-0.04118
-0.20633,0.88777,0.41144,-0.1935,-0.65769,-0.13162
-0.17664,0.9076,0.38086,-0.26075,-0.60813,-0.24713
-0.14206,0.92317,0.35717,-0.22871,-0.33429,-0.30593
-0.10486,0.93518,0.33829,0.08532,0.12178,0.15474
-0.07156,0.94748,0.31169,0.05201,0.10948,0.18134
-0.04973,0.95856,0.28052,0.36247,0.00589,0.2321
-0.04252,0.96675,0.25216,0.46508,0.02407,0.20009
-0.04316,0.97239,0.22932,0.22363,0.23757,0.38102
-0.06022,0.97449,0.21618,0.28639,0.35742,-0.56704
-0.07596,0.97893,0.18952,0.01981,-0.10663,0.03016
-0.08126,0.97666,0.19882,0.0251,-0.10436,0.02086
-0.08555,0.97491,0.20548,-0.58226,1.43019,0.68402
-0.09914,0.96813,0.22998,-0.34371,0.31744,-0.57574
-0.10731,0.96069,0.25604,-0.33555,0.32488,-0.6018
-0.10731,0.95642,0.27155,0.04568,-0.54527,-0.46847
-0.10962,0.95618,0.27148,-0.30057,0.61331,-0.03772
-0.1138,0.95886,0.26006,-0.27404,0.70043,-0.21302
-0.11915,0.96178,0.24655,-0.03769,0.08026,-0.16264
-0.1189,0.96448,0.23586,-0.00825,-0.09162,-0.139
-0.11291,0.96724,0.22738,0.02802,-0.10872,-0.05585
-0.10297,0.96933,0.22313,0.05223,-0.13982,0.09312
-0.09021,0.9708,0.22229,0.00678,-0.15903,0.11491
-0.07534,0.97176,0.22362,-0.05001,-0.14543,0.14674
-0.05969,0.9732,0.22208,-0.13261,-0.14867,0.0449
-0.04351,0.97439,0.22062,-0.22819,-0.13267,-0.00201
-0.02656,0.975,0.22062,-0.30473,-0.10874,-0.02526
-0.01006,0.97489,0.22244,-0.23703,-0.00245,-0.02873
0.00705,0.97432,0.22503,-0.23428,0.00411,0.00102
0.02671,0.97373,0.22611,-0.3704,-0.05819,-0.09555
0.04638,0.97235,0.22886,-0.46347,0.03125,-0.27355
0.06071,0.96975,0.23641,-0.33852,0.24813,-0.03815
0.06144,0.96669,0.24845,0.20173,0.62823,0.15258
0.04981,0.96109,0.27171,0.13882,0.56606,0.13835
0.03115,0.95211,0.30416,0.09692,0.54731,0.02783
0.00812,0.94082,0.33881,0.1419,0.62434,0.05003
-0.01746,0.93005,0.36702,0.03945,0.62423,-0.2545
-0.04162,0.9208,0.3878,-0.14895,0.28496,-0.34648
-0.06022,0.91375,0.40178,-0.13041,0.03621,0.00473
-0.07559,0.90807,0.41192,-0.08534,0.10908,-0.07639
-0.08853,0.90475,0.41664,0.0545,0.03487,-0.30006
-0.10054,0.90409,0.41534,0.15382,-0.13409,-0.33036
-0.10568,0.90458,0.41298,0.29344,-0.18078,-0.32956
-0.10128,0.90609,0.41077,0.30002,-0.21788,-0.32471
-0.09148,0.9075,0.40997,0.2045,-0.23341,-0.35789
-0.07606,0.90865,0.41056,0.18628,-0.20707,-0.25844
-0.0583,0.90991,0.41068,0.26598,-0.0656,0.03566
-0.04536,0.91187,0.40796,0.25303,-0.06755,0.03837
-0.0374,0.91394,0.40411,0.10892,0.00526,0.04175
-0.0294,0.91554,0.40114,-0.06095,0.04354,-0.00844
-0.02051,0.91725,0.39779,-0.06984,0.04183,-0.00509
-0.01173,0.9197,0.39243,-0.13266,-0.12678,-0.00672
-0.00241,0.92174,0.3878,-0.15651,-0.13263,0.05132
0.0065,0.92267,0.38552,-0.25296,-0.04552,0.1111
0.01252,0.92411,0.3819,-0.40131,0.18874,0.14323
0.01276,0.92519,0.37928,-0.5183,0.43759,0.20201
0.00439,0.92564,0.37837,-0.47784,0.35208,0.12354
-0.00917,0.92571,0.37811,-0.35328,-0.00228,0.14252
-0.02304,0.92728,0.37364,-0.20838,-0.39536,0.04677
-0.03224,0.93144,0.36246,0.0122,-0.40034,-0.14209
-0.03502,0.93764,0.34584,0.27721,-0.0533,-0.49293
-0.03182,0.94526,0.32474,0.41004,0.49613,-0.22177
-0.02271,0.95099,0.30837,0.32638,0.83264,0.13705
-0.01922,0.94856,0.31601,-0.06311,0.90836,0.22773
-0.02218,0.94239,0.33376,0.47646,-0.59761,-0.48133
-0.01547,0.93957,0.342,0.58347,-0.83416,-0.44256
0.00379,0.94083,0.33884,-0.05606,-0.55814,-0.72466
0.01721,0.94347,0.331,-0.52626,0.79246,-0.36345
0.0155,0.94808,0.31763,-0.38028,0.61013,-0.19553
0.01205,0.95426,0.29871,0.00916,0.05008,-0.23975
0.01397,0.9598,0.28032,0.19442,0.04017,-0.24625
0.02557,0.96489,0.26139,0.34624,0.04861,-0.22407
0.04368,0.96896,0.24331,0.34755,-0.12835,-0.10569
0.06438,0.9726,0.22337,0.24397,-0.12864,-0.08054
0.08066,0.97595,0.20252,-0.11961,-0.01109,-0.14985
0.09269,0.9787,0.18316,-0.151,0.00477,-0.07348
0.10423,0.98073,0.16523,-0.13729,-0.02382,-0.05957
0.11765,0.98185,0.14872,-0.14691,-0.0762,-0.02377
0.13195,0.98235,0.13255,-0.18406,-0.02999,0.00183
0.14532,0.98236,0.11768,-0.18354,0.06291,0.04611
0.15646,0.98213,0.1046,-0.18453,-0.02941,0.11104
0.16739,0.98159,0.092,-0.24705,-0.04665,0.09259
0.17734,0.98084,0.08063,-0.32352,-0.00574,-0.05438
0.18566,0.98013,0.06975,-0.34101,0.03529,-0.13455
0.18532,0.98085,0.05982,-0.31032,0.06442,-0.10643
0.18901,0.98096,0.04467,-0.28567,0.01599,-0.14017
0.19045,0.98123,0.03019,-0.18773,0.01692,-0.14883
0.1916,0.98135,0.01544,0.08454,0.00928,0.05781
0.1947,0.98085,0.00327,0.04093,0.06529,0.0016
0.19884,0.98003,-0.00271,-0.07638,0.22023,-0.0414
0.19931,0.97992,-0.00518,-0.33809,0.29973,0.09287
0.19407,0.98098,0.00057,-0.43809,0.2383,0.03635
0.18229,0.9831,0.01669,-0.40781,0.26598,0.05062
0.1656,0.98525,0.04307,-0.28459,0.34324,0.20509
0.14818,0.98517,0.08644,-0.05293,0.32275,0.27289
0.12972,0.98054,0.14736,0.05509,0.16035,0.00992
0.108,0.97315,0.20325,0.13489,0.09101,-0.34805
0.08564,0.96418,0.25104,0.07873,0.15811,-0.46336
0.06407,0.95398,0.29292,-0.11833,0.26341,-0.36435
0.04478,0.94381,0.32743,-0.31576,0.47131,-0.27861
0.02491,0.93349,0.35774,-0.26892,0.54602,-0.26345
0.00767,0.92333,0.38391,-0.04897,0.32926,-0.43837
-0.00765,0.91402,0.4056,0.10395,-0.00488,-0.44901
-0.02264,0.90658,0.42141,0.23665,-0.19134,-0.39208
-0.03483,0.90109,0.43221,0.24853,-0.19484,-0.38311
-0.04548,0.89828,0.43705,0.21987,-0.19559,-0.30816
-0.05527,0.89831,0.43587,0.12298,-0.2259,-0.32286
-0.05962,0.89999,0.4318,0.10025,-0.20013,-0.365
-0.05462,0.90335,0.42539,0.13914,-0.19932,-0.37545
-0.04192,0.90938,0.41384,0.16864,-0.21054,-0.18781
-0.02557,0.91861,0.39432,0.14941,-0.19863,-0.11627
-0.00833,0.93053,0.36611,0.15035,-0.15601,0.01968
0.00983,0.94172,0.33623,-0.04476,0.29753,-0.01056
0.02755,0.94854,0.31546,-0.05611,0.42488,0.04802
0.04485,0.94938,0.3109,0.04867,0.10578,0.54184
0.05237,0.94795,0.31408,-0.08144,-0.04963,0.44879
0.05065,0.94912,0.31081,-0.21226,-0.22759,-0.09502
0.04385,0.95238,0.30173,-0.3034,-0.2768,-0.18834
0.03761,0.9557,0.29194,-0.35107,-0.24346,-0.13164
0.02884,0.95792,0.28556,-0.38286,0.23176,-0.46102
0.01525,0.96308,0.26878,0.08977,0.47828,-0.81021
0.0098,0.97072,0.24001,0.09393,0.36558,-0.0437
0.01111,0.96977,0.24376,0.25688,-0.0309,0.4512
0.01961,0.96823,0.24927,0.62052,-0.40346,0.32022
0.03688,0.9687,0.24547,0.52401,-0.22833,-0.32056
0.05882,0.9694,0.23834,0.13468,0.04161,-0.13723
0.07547,0.96951,0.23314,-0.36026,0.15949,-0.1676
0.08815,0.96782,0.23568,-0.36435,0.20631,-0.05575
0.09381,0.96795,0.23296,-0.39591,0.12834,-0.10523
0.09924,0.96942,0.22443,-0.44817,-0.03397,-0.12692
0.1057,0.97118,0.21359,-0.39736,-0.05027,-0.12018
0.1096,0.97336,0.20139,-0.28726,-0.08018,-0.0879
0.11184,0.97549,0.18948,-0.00747,-0.11442,-0.07058
0.115,0.97696,0.17975,0.00629,-0.16565,0.02631
0.11842,0.97753,0.17438,-0.04561,-0.17373,0.05937
0.11933,0.97759,0.17344,-0.15984,-0.16942,-0.0352
0.11634,0.97735,0.17679,-0.13315,-0.21445,-0.14456
0.11082,0.97656,0.1845,-0.08922,-0.27736,-0.08515
0.10444,0.97543,0.19396,-0.10729,-0.32544,0.09305
0.09839,0.97411,0.20352,-0.14275,-0.29957,-0.07684
0.09295,0.9731,0.21076,-0.16439,-0.28876,-0.10708
0.08718,0.97223,0.21719,-0.1373,-0.12849,0.13108
0.08167,0.97131,0.22334,-0.16251,0.04233,-0.08557
0.07671,0.96944,0.23302,-0.34477,0.07913,0.07847
0.06952,0.96685,0.2457,-0.56278,-0.00484,-0.08283
0.06009,0.96275,0.26361,-0.54461,0.00888,-0.13162
0.04551,0.9547,0.29404,-0.5044,0.08108,-0.13074
0.02485,0.94174,0.33542,-0.15569,0.46702,-0.00235
-0.00154,0.92465,0.3808,0.23156,0.33864,-0.15811
-0.02629,0.90481,0.425,0.33018,0.31643,-0.13395
-0.04888,0.88885,0.45557,0.49756,0.23932,-0.12211
-0.07491,0.87964,0.46969,0.13487,0.44713,0.06115
-0.09969,0.87604,0.47181,0.04817,0.7379,0.01088
-0.1202,0.87803,0.46324,0.03445,0.46041,-0.2213
-0.13022,0.88304,0.45085,0.41359,-0.28979,-0.17141
-0.12565,0.89022,0.43784,0.44157,-0.48205,-0.10159
-0.11263,0.89904,0.42313,0.29621,-0.65011,-0.07904
-0.09549,0.90896,0.40578,0.14063,-0.65902,0.07718
-0.08114,0.92141,0.38001,0.13459,-0.67913,0.07732
-0.06354,0.93516,0.34846,0.12177,-0.55514,0.02123
-0.03512,0.94775,0.31707,0.06675,0.27647,-0.01594
0.0021,0.95571,0.29427,-0.00241,0.37951,-0.00965
0.03783,0.9595,0.27916,-0.13689,0.16538,0.15625
0.06104,0.9634,0.26103,-0.24511,-0.41203,0.11163
0.07147,0.96862,0.23805,-0.18417,-0.51099,-0.04757
0.0729,0.9759,0.20567,0.29886,-0.23276,0.0823
0.07368,0.98214,0.17309,0.31195,0.02651,0.23992
0.07631,0.98591,0.14883,0.24672,0.22687,0.00571
0.07717,0.9872,0.13952,-0.22663,0.51206,-0.11796
0.07148,0.9885,0.13327,-0.18899,0.28806,-0.31384
0.06281,0.99018,0.12486,-0.08983,0.30163,-0.20103
0.04537,0.9903,0.1313,-0.80796,1.40437,0.30594
0.01558,0.9887,0.14908,-0.89029,0.88879,0.20735
-0.00255,0.98712,0.15997,0.0011,-0.22405,-0.09373
0.00038,0.98664,0.16287,0.05074,-0.32576,-0.01761
0.00938,0.98457,0.17473,0.10936,-0.1578,0.13142
0.02039,0.98408,0.17653,0.25013,-0.04344,0.08565
0.0256,0.98472,0.17221,0.11971,0.03246,0.05339
0.02892,0.98617,0.16315,-0.24761,0.16681,0.07076
0.02604,0.98789,0.15296,-0.43531,0.13667,0.14526
0.01604,0.98933,0.14481,-0.42392,-0.12956,0.17131
0.00665,0.98996,0.14119,-0.29963,-0.10928,0.06602
-0.00038,0.98903,0.14768,-0.27715,-0.084,0.0383
-0.00494,0.98626,0.16512,-0.23148,-0.14869,0.13711
-0.00738,0.98139,0.19185,-0.13224,-0.18244,-0.05794
-0.01081,0.97274,0.23163,0.01699,-0.11462,-0.03979
-0.02202,0.95775,0.28673,-0.10702,0.40815,0.22912
-0.04399,0.93655,0.34776,-0.17161,0.77518,0.09405
-0.07174,0.91151,0.40495,0.05783,0.57535,-0.25841
-0.09946,0.88473,0.45536,0.13744,0.31986,-0.52886
-0.12455,0.85994,0.49495,0.35199,0.2879,0.27409
-0.15358,0.84622,0.51021,0.15296,0.30713,0.04913
-0.17624,0.84255,0.50897,0.17855,0.10951,-0.03742
-0.19592,0.84597,0.49593,0.16916,-0.07308,-0.12808
-0.20491,0.85351,0.47909,0.16019,-0.41667,-0.31799
-0.20103,0.86399,0.46163,0.17305,-0.7409,-0.16681
-0.18618,0.87747,0.44201,0.21372,-0.78327,-0.09868
-0.15962,0.89411,0.41843,0.14086,-0.6268,0.00854
-0.12179,0.91299,0.38937,-0.02815,-0.55006,0.06468
-0.07689,0.9317,0.355,0.09045,-0.31188,-0.14702
-0.02809,0.94614,0.32251,0.11206,-0.19762,-0.19767
0.01839,0.95506,0.29583,0.05636,0.12409,-0.2865
0.05344,0.96205,0.26757,0.12797,0.28828,0.23819
0.0717,0.96952,0.23426,0.19899,0.12551,0.40342
0.08146,0.9758,0.2029,0.16683,0.03876,0.45472
0.08323,0.98113,0.17453,-0.00445,0.03134,0.37661
0.07439,0.98527,0.15393,-0.04125,-0.00166,0.01222
0.06516,0.9883,0.13787,0.17175,-0.00083,-0.82764
0.0636,0.98894,0.13398,-0.52841,-0.00516,0.33725
0.06116,0.98811,0.14104,-0.6925,-0.00753,0.16388
0.0487,0.98826,0.14477,-0.16333,0.54747,0.00679
0.03061,0.9878,0.15268,-0.06498,1.17128,0.02847
0.00161,0.98514,0.17173,-0.54467,1.06259,-0.06914
-0.01858,0.98314,0.18187,0.23124,-0.55481,-0.47255
-0.02315,0.98334,0.18027,0.28288,-0.5438,-0.41957
-0.02083,0.9834,0.18024,0.06946,0.07127,0.02987
-0.01476,0.98308,0.18254,-0.10088,-0.02939,0.14402
-0.01239,0.98374,0.17917,-0.07137,-0.03507,0.16206
-0.00958,0.9842,0.17679,-0.04771,0.0845,0.19493
-0.00818,0.98455,0.17486,-0.03321,0.08814,0.08359
-0.00721,0.98443,0.17562,-0.04825,-0.2302,-0.02511
-0.00424,0.98303,0.18335,-0.18629,-0.25476,0.02252
-0.00023,0.98,0.19898,-0.4792,-0.03951,0.17434
-0.0008,0.97519,0.22136,-0.27575,-0.0051,0.02145
-0.00605,0.96738,0.25324,-0.20528,-0.00733,-0.06527
-0.01867,0.95382,0.29978,-0.17169,0.40532,0.05152
-0.03915,0.93332,0.3569,-0.07158,0.52181,0.01029
-0.06238,0.90777,0.41478,0.0702,0.49794,-0.11628
-0.08262,0.88049,0.46679,0.23798,0.10825,-0.34752
-0.09747,0.85459,0.51007,0.43466,0.20558,0.15168
-0.11497,0.84048,0.52949,0.48754,0.34059,0.32469
-0.12477,0.83899,0.52965,0.10758,0.08469,-0.02684
-0.13217,0.84056,0.52533,0.1743,-0.30202,-0.44481
-0.13899,0.84447,0.51724,0.18112,-0.30593,-0.43672
-0.13878,0.85163,0.50543,0.30278,-0.67819,-0.08016
-0.13021,0.86318,0.48781,0.27608,-0.62803,0.0087
-0.11159,0.87869,0.46416,0.17847,-0.35303,0.15692
-0.08474,0.89814,0.43146,-0.02099,-0.22773,0.20421
-0.05144,0.91871,0.39155,-0.13899,-0.17273,0.01105
-0.01498,0.93545,0.35314,-0.13428,-0.10108,-0.27623
0.01943,0.94789,0.31799,-0.01621,-0.01777,-0.35985
0.0477,0.95743,0.28468,0.09878,0.05715,-0.07978
0.07084,0.96468,0.2537,0.23078,0.02084,0.22974
0.08403,0.97057,0.22568,0.34152,-0.20517,0.24722
0.09378,0.97555,0.19875,0.26802,0.08523,0.47777
0.09954,0.97903,0.17774,0.26226,0.08175,0.49879
0.08756,0.98131,0.17132,0.016,-0.09676,-1.09555
0.07434,0.98643,0.14637,0.06644,-0.21871,0.20767
0.06572,0.98714,0.14569,-0.42679,0.37602,0.44443
0.04758,0.98724,0.15194,-0.68584,1.91019,1.28515
0.01359,0.9843,0.17594,-0.38496,0.75389,-0.81726
-0.01321,0.98147,0.19113,0.15603,-0.76344,-0.45096
-0.02383,0.97675,0.21306,0.20205,-0.84595,-0.62582
-0.01443,0.97635,0.21572,-0.09157,0.89037,0.03106
-0.00186,0.97751,0.21085,-0.10414,0.8892,0.03593
1e-05,0.98019,0.19803,-0.00481,0.31156,-0.02533
-0.00093,0.98158,0.19103,-0.07804,-0.12057,0.08146
-0.0005,0.98277,0.18479,-0.08843,-0.21611,0.1159
0.0024,0.98354,0.18064,-0.09325,-0.46961,0.14869
0.00881,0.98372,0.17945,-0.03658,-0.14557,0.15617
0.0169,0.98352,0.17997,-0.03021,-0.06369,0.08917
0.0215,0.98322,0.18113,-0.05136,-0.11133,-0.02499
0.0251,0.98284,0.18272,-0.21938,-0.22539,-0.15609
0.0295,0.98232,0.18486,-0.32251,-0.18483,-0.06961
0.03321,0.98117,0.19025,-0.48066,-0.04723,-0.06587
0.03313,0.9801,0.19573,-0.45866,-0.08085,-0.11029
0.02992,0.978,0.20644,-0.3071,-0.09139,-0.12795
0.02244,0.97404,0.22523,-0.12446,0.17298,0.04206
0.00715,0.96641,0.25687,-0.07047,0.37164,0.14292
-0.01956,0.95267,0.30335,0.06018,0.69094,0.35757
-0.05265,0.93293,0.35618,0.4725,0.55287,-0.01319
-0.08236,0.90967,0.40708,0.63267,0.48808,0.37093
-0.10532,0.88508,0.45335,0.48841,0.57909,0.34859
-0.12322,0.8682,0.48067,0.00471,-0.31487,-0.1213
-0.12736,0.85659,0.50003,0.14542,-0.18218,-0.08721
-0.12358,0.84918,0.51344,0.21345,-0.09657,-0.15679
-0.12434,0.84481,0.52041,0.21568,-0.2062,-0.19
-0.12768,0.84506,0.5192,0.27258,-0.43386,-0.18059
-0.1296,0.85135,0.50833,0.34457,-0.56526,-0.17474
-0.12197,0.86189,0.49221,0.22911,-0.49667,-0.22201
-0.10011,0.8771,0.46975,0.06602,-0.52471,-0.1974
-0.06528,0.89547,0.4403,0.01955,-0.58727,-0.14715
-0.02258,0.91522,0.40232,-0.26662,-0.58168,-0.06704
0.0229,0.93173,0.36242,-0.41953,-0.07513,-0.14222
0.06511,0.94342,0.32512,-0.22807,0.33828,-0.02573
0.09764,0.95333,0.28568,0.18312,0.4345,0.24325
0.12019,0.96158,0.24679,0.39431,0.10803,0.25804
0.13319,0.96777,0.2137,0.30411,-0.25298,-0.07959
0.13808,0.97386,0.18033,0.14962,-0.12729,0.30483
0.13903,0.97856,0.15192,-0.08823,0.58925,0.20326
0.13172,0.98096,0.14267,0.00575,0.33021,-0.22861
0.12098,0.98296,0.13837,-0.31322,0.0038,-0.02735
0.10849,0.98376,0.14294,-0.366,1.52393,0.85371
0.08936,0.98135,0.17015,-0.34687,1.52634,0.8265
0.06406,0.97872,0.1949,-0.34885,-0.26043,-0.75223
0.0429,0.97543,0.21608,0.26546,-0.81363,-0.42378
0.03429,0.97366,0.2254,0.07272,-0.28748,-0.40961
0.03165,0.9754,0.21812,-0.18615,0.5242,0.13685
0.02704,0.97775,0.20798,-0.21936,0.20775,-0.08867
0.02142,0.97995,0.19805,-0.20136,0.08871,-0.04698
0.01786,0.98085,0.1939,-0.06817,-0.11274,0.0543
0.01963,0.98075,0.19424,-0.0082,-0.32836,0.05297
0.02739,0.97986,0.19776,-0.02434,-0.25972,0.05362
0.03975,0.97833,0.20321,-0.07568,-0.07427,0.21931
0.05248,0.97696,0.20687,-0.13271,-0.00338,0.03388
0.06235,0.97591,0.20904,-0.11887,-0.13833,0.1221
0.06833,0.9749,0.21186,-0.27952,-0.11959,-0.01735
0.07153,0.97394,0.21519,-0.32953,-0.11945,0.00589
0.07356,0.97245,0.22119,-0.31452,-0.12197,0.02402
0.07339,0.96957,0.23352,-0.32939,0.14581,-0.08514
0.06798,0.96304,0.26062,-0.22282,0.46272,0.22549
0.05327,0.95217,0.30086,-0.10806,0.48485,0.26767
0.03145,0.93695,0.34802,0.24655,0.4942,-0.16782
0.00636,0.9171,0.39859,0.39046,0.57173,0.08946
-0.01729,0.89187,0.45194,0.50788,0.68978,0.37443
-0.04381,0.87399,0.48395,0.30441,0.18332,-0.0539
-0.06623,0.86489,0.49757,0.12516,-0.38451,-0.0364
-0.07738,0.85888,0.50628,0.13839,-0.4261,-0.07649
-0.08476,0.85704,0.50822,0.14758,-0.23761,-0.24952
-0.09128,0.85657,0.50789,0.15466,-0.26202,-0.0271
-0.0972,0.8608,0.49957,0.17068,-0.30261,-0.03984
-0.09774,0.86995,0.48334,0.30446,-0.25138,-0.21872
-0.08689,0.88059,0.46584,0.26978,-0.31874,-0.20113
-0.06595,0.893,0.44519,0.20061,-0.42304,-0.18407
-0.03827,0.90866,0.41578,0.01724,-0.84794,-0.18036
-0.00616,0.92645,0.37636,-0.09292,-0.8459,-0.24672
0.03387,0.94174,0.33462,-0.12341,-0.30083,-0.21654
0.07995,0.94985,0.3023,-0.14098,0.2913,0.01944
0.12337,0.95407,0.273,-0.04121,0.46586,0.43797
0.15255,0.95896,0.23899,0.08703,-0.0145,0.53985
0.16297,0.96364,0.21172,0.17402,-0.17664,0.14352
0.15617,0.96988,0.18691,0.18651,-0.02722,-0.01845
0.13746,0.97519,0.17352,0.01497,0.12641,-0.63126
0.11507,0.98006,0.16196,0.05776,-0.04163,0.19737
0.1025,0.98094,0.16508,-0.37659,1.27889,1.09762
0.08062,0.9759,0.20273,-0.88566,2.10596,0.79289
0.04474,0.97278,0.22736,-0.23201,-0.48807,-0.74709
0.02021,0.96664,0.25534,0.20628,-1.18656,-0.2692
0.01298,0.96433,0.26437,0.08248,-0.1736,0.14005
0.01942,0.96574,0.25878,-0.14552,1.154,-0.15276
0.02426,0.96896,0.24599,-0.23649,0.38393,-0.06829
0.02255,0.96978,0.24294,-0.10784,0.10934,0.01785
0.0235,0.9697,0.24316,0.01133,-0.25505,0.02978
0.03051,0.96965,0.24256,0.09377,-0.39231,0.04083
0.0465,0.96963,0.24008,0.01731,-0.21145,0.12683
0.0686,0.9692,0.23651,-0.16537,0.10293,0.22177
0.08962,0.96946,0.22829,-0.32624,0.08322,-0.04306
0.10812,0.96926,0.22097,-0.39416,-0.05705,0.08174
0.12533,0.96913,0.21229,-0.48997,-0.20592,-0.09866
0.14322,0.96838,0.20426,-0.46521,0.05079,-0.0234
0.16046,0.96731,0.19634,-0.4578,0.16333,0.03729
0.17684,0.96591,0.18902,-0.51904,0.12617,-0.21246
0.1914,0.96313,0.18905,-0.48209,0.18871,-0.09647
0.19983,0.95954,0.19835,-0.22509,0.47958,0.25012
0.19619,0.95575,0.21919,0.16533,0.50862,0.13283
0.18102,0.95078,0.25147,0.26602,0.45739,-0.00198
0.15791,0.9449,0.28674,0.43532,0.45168,-0.10562
0.13047,0.94029,0.31436,0.17782,0.58691,-0.20385
0.10373,0.93835,0.32973,-0.1902,0.36855,-0.25757
0.08566,0.93771,0.33666,-0.27377,0.26758,-0.17622
0.07287,0.93747,0.34034,-0.11926,0.07649,-0.10024
0.06221,0.93912,0.33788,-0.0155,-0.00684,-0.16679
0.05488,0.94199,0.33112,0.18003,-0.13319,-0.20929
0.05248,0.94509,0.32257,0.3706,-0.13008,-0.2247
0.05536,0.94827,0.3126,0.34084,-0.18028,-0.23948
0.06012,0.94969,0.30735,0.17308,-0.21492,-0.27486
0.07182,0.94889,0.3073,0.1485,-0.16116,-0.12431
0.0875,0.94671,0.30994,0.20045,-0.14752,0.07879
0.10236,0.9449,0.31092,0.18681,-0.12753,0.15817
0.11337,0.94429,0.30896,0.00587,-0.05342,0.07226
0.1231,0.94368,0.30708,-0.07488,0.00505,-0.02763
0.13388,0.94239,0.30655,-0.11564,0.0124,-0.04968
0.14579,0.94011,0.30809,-0.09914,-0.07238,0.04776
0.15921,0.93668,0.3119,-0.09755,0.03874,0.16683
0.17425,0.93231,0.31689,-0.11259,0.04311,0.16184
0.1882,0.92883,0.31915,-0.14434,-0.00861,0.24394
0.19673,0.92696,0.31941,-0.18291,-0.03845,0.25128
0.19768,0.92681,0.31928,-0.20061,-0.05144,0.15597
0.19004,0.93031,0.31369,-0.15586,-0.12408,-0.11728
0.17799,0.9364,0.30245,-0.08671,-0.14945,0.06614
0.16564,0.94217,0.29132,0.09106,-0.02263,0.00679
0.1524,0.94793,0.27965,0.31174,0.17677,-0.24539
0.14177,0.95359,0.26563,0.58497,0.79302,-0.04658
0.13764,0.95635,0.25777,0.09614,1.01135,0.32927
0.12811,0.95229,0.27698,-0.20872,-0.16405,-0.07708
0.11789,0.94926,0.29155,0.03986,-1.05621,-0.49669
0.12594,0.94762,0.2935,-0.01098,-0.88259,-0.45724
0.14506,0.94688,0.287,-0.48778,0.29558,-0.51389
0.15304,0.9501,0.27181,-0.68229,1.20757,-0.38644
0.14617,0.95631,0.25319,-0.20041,0.58596,-0.06925
0.13804,0.96288,0.23197,0.14538,-0.11031,0.09327
0.1417,0.96637,0.21455,0.39481,-0.1831,-0.11827
0.1552,0.96762,0.19902,0.38659,-0.15093,-0.10668
0.17128,0.96838,0.18135,0.25319,-0.11447,-0.10278
0.18499,0.96916,0.16276,0.04136,-0.06908,-0.16268
0.19668,0.96987,0.14375,-0.03877,-0.01764,-0.17313
0.2067,0.97049,0.12416,-0.16387,0.0396,-0.2198
0.21571,0.97094,0.10365,-0.22175,-0.08405,-0.18929
0.22403,0.97107,0.08265,-0.18698,-0.07182,-0.15086
0.23211,0.97078,0.0609,-0.06567,0.03198,-0.04028
0.24035,0.9699,0.03901,0.03099,0.01275,0.19237
0.2495,0.96814,0.02097,0.02372,-0.00095,0.21746
0.25897,0.96585,0.00743,-0.09947,-0.03058,0.15274
0.26865,0.96322,-0.00525,-0.22681,-0.01518,-0.09786
0.27819,0.96032,-0.01982,-0.24805,0.01708,-0.10559
0.28585,0.95768,-0.03374,-0.21856,0.13008,-0.01053
0.29023,0.95572,-0.04851,-0.16573,0.1158,0.08548
0.29046,0.95461,-0.06594,-0.12216,0.10718,0.13328
0.28757,0.95433,-0.08093,-0.00864,0.06535,0.22633
0.28438,0.95445,-0.09023,-0.00156,0.04065,0.26951
0.27982,0.9557,-0.09127,-0.04169,0.0073,0.12293
0.2753,0.95775,-0.0832,-0.29103,0.38348,0.08792
0.27464,0.95848,-0.07666,-0.34248,0.3448,0.06181
0.26995,0.96046,-0.06813,-0.4091,0.31321,0.00393
0.25918,0.9644,-0.05236,-0.39779,0.34369,0.00276
0.24331,0.96956,-0.0274,-0.24792,0.33808,0.19198
0.22701,0.97382,0.01143,-0.15506,0.28611,0.25742
0.21127,0.97514,0.06669,0.13782,0.10028,0.22679
0.19383,0.97226,0.13088,0.22438,0.02368,-0.01708
0.17293,0.96593,0.19253,0.08237,0.13512,-0.37187
0.15196,0.95674,0.24808,-0.06709,0.26649,-0.45575
0.12958,0.94603,0.29703,-0.19743,0.48879,-0.49756
0.10935,0.93531,0.33648,-0.19471,0.5566,-0.35232
0.09442,0.92392,0.37073,-0.0121,0.37828,-0.29709
0.08093,0.9127,0.40051,0.12941,0.08675,-0.24576
0.06343,0.9037,0.42342,0.15648,-0.12473,-0.33473
0.04474,0.89745,0.43883,0.17772,-0.21723,-0.30457
0.02775,0.89342,0.44835,0.15159,-0.21686,-0.3112
0.01117,0.89098,0.4539,0.10908,-0.18743,-0.38037
-0.00087,0.88835,0.45916,0.10605,-0.16834,-0.46645
-0.00507,0.88525,0.46506,0.14188,-0.18572,-0.43493
-0.00227,0.88394,0.46759,0.20202,-0.22953,-0.29619
0.00475,0.88615,0.46336,0.24311,-0.24857,-0.2153
0.01423,0.89153,0.45271,0.27767,-0.22567,-0.14888
0.02587,0.89944,0.43626,0.30228,-0.23739,-0.06949
0.04004,0.90931,0.41418,0.26593,-0.13396,0.03086
0.05556,0.92059,0.38653,0.01429,0.04134,0.09253
0.07178,0.93205,0.35513,-0.08907,0.09151,0.10326
0.08892,0.94055,0.32778,-0.14676,0.2872,0.24701
0.10562,0.94196,0.31866,-0.07204,0.39471,0.43984
0.10969,0.94036,0.32198,-0.1882,0.23817,0.27161
0.09949,0.94269,0.31847,-0.27068,-0.12004,0.15394
0.08127,0.94689,0.3111,-0.21295,-0.20453,0.00269
0.06295,0.94951,0.30734,-0.12271,-0.0938,-0.15531
0.05091,0.95246,0.30036,-0.04737,0.15634,-0.36026
0.04906,0.95687,0.28631,0.30682,0.56393,-0.47569
0.04952,0.95841,0.28103,0.14054,0.54845,-0.19703
0.0445,0.95553,0.29149,0.64322,-0.60984,0.00066
0.04236,0.9516,0.30439,0.74658,-0.70628,-0.04623
0.05855,0.95294,0.29744,0.64042,-0.60839,-0.21505
0.08426,0.95835,0.27286,-0.00747,0.50651,-0.56238
0.09769,0.9632,0.25039,-0.23508,0.34675,-0.19657
0.10607,0.96478,0.2407,-0.18789,0.08927,-0.02736
0.11667,0.96462,0.23638,-0.24704,0.03794,-0.13832
0.12974,0.96414,0.23148,-0.20029,-0.00591,-0.12165
0.14339,0.96474,0.22068,0.00767,-0.0654,-0.10143
0.15655,0.96534,0.20881,-0.06172,-0.0176,-0.08758
0.16628,0.96675,0.19423,-0.03727,0.10884,-0.07242
0.17221,0.96862,0.17916,-0.04804,0.04427,-0.06392
0.17587,0.96981,0.16892,-0.03331,-0.09877,-0.01351
0.17836,0.97039,0.16283,-0.05078,-0.15058,0.00422
0.17944,0.97076,0.15944,-0.12112,-0.11747,-0.00692
0.17721,0.97163,0.15657,-0.18046,-0.08154,-0.04804
0.17071,0.97302,0.15518,-0.19722,-0.02384,0.06116
0.1607,0.9741,0.15903,-0.28189,-0.12397,-0.04442
0.14794,0.9744,0.16922,-0.20147,-0.39442,0.1935
0.13575,0.97291,0.1871,0.03359,-0.6041,0.26912
0.12814,0.97133,0.20023,0.04302,-0.3472,-0.14349
0.12335,0.96942,0.21215,-0.08883,-0.05162,-0.24292
0.11775,0.96784,0.22229,-0.25548,-0.07454,0.00534
0.11148,0.96637,0.23169,-0.11985,-0.24958,-0.12101
0.10633,0.96488,0.24019,0.00902,-0.24839,-0.19014
0.1039,0.96257,0.25029,-0.13277,0.07252,0.00072
0.10379,0.96035,0.25871,-0.21168,0.34258,-0.15321
0.10275,0.95851,0.26588,-0.39725,0.27549,-0.1755
0.0946,0.95557,0.27916,-0.26918,0.43379,0.01036
0.07633,0.94895,0.30602,-0.13642,0.53469,0.09246
0.04786,0.93631,0.34787,0.10653,0.5975,0.19998
0.01365,0.91659,0.39958,0.46604,0.50756,0.04475
-0.01735,0.89267,0.45036,0.58939,0.25366,-0.26312
-0.03806,0.86876,0.49375,0.50736,0.13826,-0.39418
-0.05003,0.84767,0.52814,0.04441,0.01283,0.16754
-0.06547,0.83653,0.54399,0.03968,0.22785,0.01107
-0.075,0.83619,0.54327,0.08645,0.38949,-0.28082
-0.07818,0.8382,0.53971,0.24507,-0.13602,-0.29501
-0.07899,0.84302,0.53203,0.29783,-0.28901,-0.2635
-0.07959,0.85392,0.51427,0.41607,-0.5591,-0.11455
-0.07777,0.86964,0.4875,0.34712,-0.5634,-0.09458
-0.06445,0.88572,0.4597,0.16892,-0.54734,-0.0246
-0.04102,0.90051,0.43287,-0.18234,-0.50763,0.09752
-0.01237,0.91568,0.40169,-0.34529,-0.47461,-0.30521
0.02398,0.92842,0.37073,-0.29899,-0.30528,-0.41208
0.06616,0.93525,0.34774,0.14498,0.09159,0.16557
0.1046,0.93817,0.32996,0.14015,0.11108,0.28553
0.13357,0.94004,0.31379,0.13424,0.08115,0.28014
0.14506,0.94523,0.29238,0.34499,-0.20907,-0.00076
0.14916,0.95228,0.26626,0.4454,-0.17847,0.16608
0.14739,0.95629,0.25252,-0.01899,0.14475,-0.17648
0.13421,0.95841,0.25185,0.20906,0.12728,-0.56519
0.13174,0.96069,0.24435,-0.05627,0.00662,0.6191
0.13054,0.9547,0.26739,-0.41315,0.30931,-0.08332
0.11788,0.95599,0.26864,-0.4265,1.05696,-0.26403
0.08862,0.95665,0.27741,-0.82097,1.62593,0.0041
0.05076,0.95096,0.30509,-0.17304,-0.19458,0.31823
0.03201,0.9455,0.32401,0.40003,-0.64689,-1.19437
0.03092,0.9443,0.32761,0.25656,-0.21707,0.13864
0.03995,0.94067,0.33695,0.12329,0.2281,0.48119
0.04701,0.94409,0.3263,-0.01896,0.29753,-0.16315
0.04743,0.94573,0.32144,0.00102,0.16717,0.07541
0.04747,0.94772,0.31552,-0.04596,0.01132,-0.05417
0.05041,0.94917,0.31067,-0.09715,-0.19865,0.00578
0.05707,0.94997,0.30706,-0.08574,-0.38726,-0.0535
0.06694,0.95093,0.30206,-0.1834,-0.31174,0.12851
0.07811,0.95261,0.29398,-0.27973,-0.00827,0.00175
0.08539,0.95425,0.28655,-0.23654,0.206,0.07164
0.08571,0.95405,0.28711,-0.16806,0.08575,-0.02757
0.08082,0.95236,0.29405,-0.29298,0.10254,-0.05995
0.06837,0.94664,0.31493,-0.27812,0.27377,0.00765
0.04517,0.93592,0.34928,-0.21898,0.43986,0.10421
0.01257,0.92063,0.39022,0.22197,0.76425,-0.04937
-0.01756,0.89914,0.43729,0.50641,0.64089,-0.12194
-0.04299,0.87329,0.48529,0.56094,0.38511,-0.11034
-0.05748,0.85162,0.52098,0.46298,0.12343,0.18638
-0.07555,0.84228,0.53371,0.1462,0.00895,-0.1366
-0.0855,0.83742,0.53982,0.15615,0.01381,-0.14271
-0.09417,0.83458,0.54277,0.30058,-0.28904,-0.24969
-0.10339,0.83492,0.54056,0.31544,-0.61387,-0.25098
-0.11125,0.83978,0.53139,0.32331,-0.61873,-0.24181
-0.11062,0.84803,0.51826,0.17614,-0.64101,-0.2863
-0.09643,0.8598,0.50144,0.02729,-0.56747,-0.19934
-0.07264,0.87631,0.47623,0.0035,-0.58398,-0.17414
-0.04012,0.89547,0.44329,-0.26523,-0.31577,-0.26772
0.00041,0.9125,0.40906,-0.18573,0.09275,-0.2061
0.04088,0.92582,0.37572,-0.11675,0.20993,-0.13161
0.06975,0.93871,0.33757,0.15366,0.20076,0.01773
0.0861,0.95153,0.29523,0.31041,0.14507,0.17691
0.09511,0.96274,0.25314,0.17898,0.41655,0.33129
0.09402,0.97233,0.21385,-0.20626,0.475,0.15207
0.07644,0.97922,0.18784,0.21877,-0.10814,-0.847
0.06521,0.98426,0.16422,0.42832,-0.20483,-0.16487
0.07296,0.97658,0.20239,0.54043,-0.31904,1.64337
0.07427,0.96996,0.23164,-0.14704,0.31743,-0.66005
0.06211,0.97115,0.23021,-0.00332,0.36202,-1.14015
0.05066,0.97192,0.22976,-0.00282,0.48955,-0.40749
0.03308,0.97016,0.24017,-0.74977,0.81178,0.31095
0.00329,0.9735,0.22864,-0.0426,-0.02048,-0.5092
-0.01124,0.97289,0.23098,0.23675,-0.31485,-0.1578
-0.00861,0.96756,0.25247,0.24416,-0.41542,-0.08122
0.00171,0.96377,0.26671,0.22122,-0.30103,0.07629
0.01647,0.96131,0.27495,0.30113,-0.05273,0.22949
0.03052,0.96062,0.27615,0.17676,0.10703,0.05324
0.04222,0.96232,0.26859,-0.00646,0.14103,-0.00719
0.04959,0.96383,0.26184,-0.56776,0.23752,-0.03714
0.05038,0.96407,0.26081,-0.65412,0.10385,-0.11497
0.0426,0.96193,0.26992,-0.5859,0.00582,-0.14677
0.02983,0.95541,0.29375,-0.21429,-0.01111,-0.01075
0.01456,0.94375,0.33032,0.06474,0.30631,0.20617
-0.00657,0.92599,0.37748,0.24321,0.42286,0.12479
-0.02903,0.90264,0.4294,0.59393,0.4752,-0.11515
-0.05121,0.87648,0.47869,0.50896,0.27295,-0.24751
-0.06332,0.85195,0.51978,0.48971,0.25465,-0.14379
-0.07631,0.83467,0.54543,0.091,0.08165,0.11334
-0.08887,0.82841,0.55301,0.0559,0.0388,-0.12041
-0.09668,0.82535,0.55627,0.08177,-0.02571,-0.1172
-0.10081,0.8262,0.55427,0.23866,-0.38826,-0.31323
-0.10371,0.83185,0.54521,0.32086,-0.61592,-0.26151
-0.10355,0.84299,0.52786,0.28475,-0.67192,-0.21898
-0.09401,0.85918,0.50294,0.15048,-0.57879,-0.06932
-0.07393,0.87918,0.4707,0.03334,-0.49365,0.03073
-0.04319,0.90171,0.43017,-0.1409,-0.27613,-0.0588
-0.00251,0.92067,0.39032,-0.22843,0.05434,-0.31779
0.04366,0.93325,0.35655,-0.12623,0.27334,-0.3244
0.08104,0.94219,0.32511,0.01895,0.17043,-0.09093
0.10385,0.95165,0.28908,0.23695,-0.00333,0.0705
0.11994,0.96104,0.24903,0.29981,-0.12958,0.24737
0.12663,0.9692,0.21122,0.32701,-0.04308,0.3523
0.12358,0.97631,0.17759,0.0212,0.09425,0.51006
0.1085,0.98201,0.1545,0.48357,-0.01337,-0.68261
0.09933,0.9859,0.13463,0.53098,0.00023,0.00164
0.10185,0.9829,0.1534,-0.22965,-0.05085,0.68523
0.105,0.97948,0.17203,-0.02603,0.8967,0.06168
0.09596,0.97936,0.17789,-0.07805,1.34018,0.11183
0.06782,0.97804,0.19706,-0.53289,0.37323,0.06319
0.0346,0.97506,0.21919,0.29116,-0.70875,-0.33413
0.02448,0.97477,0.22184,0.42735,-0.65278,-0.83459
0.02876,0.97617,0.21506,0.23049,-0.15311,-0.40398
0.03933,0.97583,0.21493,0.01165,0.34695,0.09061
0.04348,0.97772,0.20531,0.07625,0.20164,-0.02416
0.04415,0.97787,0.20447,0.13128,-0.00992,0.11682
0.04814,0.9768,0.20866,0.17029,-0.30189,0.0708
0.05567,0.97498,0.21518,0.11651,-0.48221,0.0928
0.06671,0.97306,0.22067,-0.07577,-0.22935,0.21213
0.07328,0.97177,0.22425,-0.13317,-0.03145,0.16678
0.07276,0.97114,0.22712,-0.28445,0.02488,0.0064
0.07003,0.9701,0.23237,-0.29108,-0.1259,-0.16101
0.06967,0.96765,0.24246,-0.35305,-0.12338,-0.17633
0.07183,0.96446,0.25425,-0.4332,-0.09923,-0.10615
0.07384,0.96109,0.26617,-0.33208,0.05355,-0.1998
0.07102,0.95517,0.28739,-0.16486,0.37507,0.16635
0.05745,0.9458,0.31962,-0.06007,0.58946,0.16947
0.03429,0.93161,0.36183,0.50418,0.88005,0.09903
0.00465,0.91283,0.4083,0.58948,0.66035,0.0092
-0.02265,0.89082,0.45378,0.73102,0.4252,0.00096
-0.04162,0.87009,0.49113,0.42485,-0.07028,-0.029
-0.05689,0.85832,0.50995,0.07695,-0.29437,-0.12729
-0.06419,0.85225,0.51917,0.0209,-0.10293,-0.20599
-0.06355,0.84853,0.52531,0.04349,-0.0838,-0.24916
-0.06405,0.84728,0.52727,0.12493,-0.32771,-0.26458
-0.06312,0.85141,0.52068,0.24221,-0.53244,-0.29526
-0.05715,0.86082,0.50568,0.35547,-0.60312,-0.3001
-0.04064,0.87309,0.48585,0.28489,-0.5809,-0.26672
-0.01301,0.88813,0.45939,0.12971,-0.5346,-0.07638
0.0209,0.90472,0.42549,-0.04151,-0.52901,0.04695
0.06217,0.9204,0.38599,-0.20397,-0.3194,0.05777
0.10714,0.93271,0.34434,-0.17488,0.02666,-0.11393
0.14374,0.94042,0.30813,0.05568,0.26101,-0.09865
0.16313,0.94557,0.28157,0.09155,0.071,0.06564
0.17141,0.95078,0.25811,0.18417,-0.14137,0.06495
0.17236,0.95729,0.23214,0.30893,0.03133,0.30807
0.16565,0.96386,0.20863,-0.20437,0.41978,0.81972
0.13789,0.96981,0.2011,-0.10932,0.34078,-0.87032
0.11441,0.97793,0.17478,0.07153,-0.0439,-0.818
0.10096,0.9784,0.18036,-0.22932,0.02371,0.3273
0.09384,0.97496,0.20162,-0.07343,0.35366,0.28219
0.07829,0.97311,0.2166,0.26388,1.63136,0.47316
0.05354,0.97213,0.22823,-0.22411,0.65746,-0.44747
0.02019,0.96818,0.24944,-0.06972,-0.17502,-0.28247
0.00536,0.96528,0.26116,0.22552,-0.52071,-0.34515
0.00332,0.9659,0.25887,-0.11107,0.13548,-0.05405
0.00956,0.96655,0.25628,-0.00535,0.08514,-0.19489
0.01863,0.96947,0.24447,0.09296,0.06755,-0.2135
0.02785,0.97118,0.23672,-0.11724,0.53137,0.28109
0.03019,0.97136,0.23569,-0.12586,0.33031,0.21948
0.03162,0.97014,0.24046,0.04211,-0.32537,0.12013
0.0366,0.96852,0.2462,-0.20841,-0.57486,0.09607
0.04561,0.96696,0.2508,-0.27634,-0.33494,0.08547
0.05366,0.96421,0.25963,-0.31055,0.1146,-0.03526
0.05452,0.95912,0.27768,-0.11709,-0.02655,-0.02886
0.0498,0.95267,0.29989,-0.12165,-0.08393,-0.16384
0.03965,0.94244,0.332,-0.23977,0.08576,-0.17241
0.02468,0.92604,0.3766,-0.1,0.41853,0.05427
0.00624,0.90552,0.42425,0.1019,0.44021,0.00669
-0.00799,0.88422,0.46699,0.50461,0.30664,-0.14642
-0.01472,0.86295,0.50507,0.59283,0.35916,-0.03074
-0.02458,0.84903,0.52777,0.50427,0.09128,0.10469
-0.03599,0.84299,0.53672,0.23939,0.18379,-0.0349
-0.04497,0.84188,0.53779,0.22252,0.11174,-0.12731
-0.05097,0.84336,0.53492,0.20887,-0.01253,-0.17836
-0.05482,0.84802,0.52712,0.1723,-0.39384,-0.12998
-0.05652,0.85668,0.51274,0.22632,-0.55566,-0.16438
-0.05092,0.86717,0.49539,0.23971,-0.5441,-0.18093
-0.03558,0.87879,0.47587,0.10038,-0.40092,-0.14756
-0.01017,0.89241,0.4511,-0.08651,-0.39722,-0.08654
0.02312,0.90597,0.42269,-0.19651,-0.40691,-0.04133
0.0603,0.91698,0.39434,-0.22415,-0.18677,-0.01303
0.09289,0.92575,0.36654,-0.05498,-0.08345,0.03423
0.11753,0.93388,0.3377,0.11762,0.01222,0.09788
0.13415,0.93979,0.31431,0.20277,0.07722,0.21202
0.14619,0.94316,0.29843,0.06357,-0.11441,0.14388
0.15067,0.94758,0.28175,0.09602,-0.06823,0.10867
0.14256,0.95281,0.26801,-0.003,0.13281,0.01161
0.12775,0.95954,0.25092,0.31152,0.15299,-0.48343
0.12312,0.96335,0.23832,-0.00589,0.27034,0.17834
0.11881,0.96346,0.24007,-0.21706,0.12903,-0.09088
0.11677,0.9649,0.23523,0.10334,-0.10137,-0.219
0.12072,0.96629,0.2274,0.26647,1.11225,0.23757
0.11067,0.96682,0.23022,-0.55146,1.60953,0.30759
0.08282,0.96679,0.24178,-0.2704,-0.08097,0.17623
0.06516,0.96482,0.25471,0.03968,-0.62488,0.09707
0.06722,0.96596,0.2498,0.1626,-0.51857,-0.87239
0.07777,0.96487,0.25094,-0.09087,-0.01909,0.00206
0.08847,0.96469,0.24806,0.03267,0.45514,0.43433
0.09323,0.96777,0.23396,0.08179,0.31943,-0.29791
0.09838,0.96943,0.22477,-0.22434,-0.15733,0.04654
0.10643,0.96951,0.22074,-0.27889,-0.24383,0.0802
0.11832,0.9687,0.21821,-0.25066,-0.31759,0.00842
0.13415,0.96632,0.21959,-0.18759,-0.05228,0.14747
0.15118,0.96321,0.2222,-0.18863,-0.01147,0.1116
0.16614,0.9602,0.22453,-0.19168,-0.02984,0.04862
0.17995,0.9572,0.22667,-0.34569,0.11953,0.06593
0.1932,0.95452,0.22709,-0.40202,0.14024,0.10827
0.20471,0.95224,0.22658,-0.40327,0.09951,0.10074
0.21532,0.94991,0.22652,-0.46246,-0.03629,-0.22585
0.22308,0.94657,0.2329,-0.39329,0.08889,-0.18313
0.22466,0.9415,0.2512,0.00665,0.63759,0.30944
0.21103,0.93628,0.28078,0.31297,0.49156,0.04146
0.18569,0.92955,0.3185,0.36897,0.25914,-0.13927
0.15951,0.92158,0.35389,0.34017,0.17323,-0.27309
0.13611,0.91373,0.38286,0.25168,0.18885,-0.41334
0.12186,0.90526,0.407,-0.1537,0.59986,-0.32112
0.11203,0.89727,0.42702,-0.14826,0.84366,-0.20621
0.10049,0.89398,0.43669,0.03703,0.52482,-0.22603
0.0921,0.89664,0.43307,0.13208,0.16198,-0.30769
0.09099,0.90225,0.4215,0.21817,-0.03537,-0.30697
0.09811,0.90892,0.40527,0.29964,-0.12989,-0.28676
0.11207,0.91555,0.38628,0.28716,-0.25097,-0.26312
0.12789,0.921,0.36796,0.11379,-0.30586,-0.36552
0.14966,0.92302,0.35445,0.16504,-0.28154,-0.29113
0.17651,0.92138,0.34626,0.2678,-0.28732,-0.20971
0.20531,0.91774,0.34,0.348,-0.23294,0.00027
0.23151,0.91372,0.33393,0.17387,-0.14602,0.00095
0.25497,0.90813,0.33209,0.07637,-0.014,-0.02394
0.27363,0.90121,0.33607,0.00472,0.00069,-0.00893
0.2873,0.89421,0.34328,-0.09457,-0.02661,0.06784
0.29669,0.88865,0.34968,-0.29825,-0.02915,0.06778
0.30051,0.88544,0.35452,-0.45101,0.0577,0.0255
0.30088,0.88347,0.35911,-0.38206,0.16443,0.00672
0.29634,0.88413,0.36124,-0.22392,0.17127,-0.05255
0.28715,0.88813,0.35884,-0.18127,0.16567,0.02004
0.27422,0.89396,0.35445,-0.21402,-0.01089,0.00779
0.25969,0.90078,0.34807,-0.01375,-0.19847,-0.14825
0.24734,0.90781,0.33869,0.34847,-0.19215,-0.31268
0.24056,0.91542,0.32269,0.62692,0.14439,-0.24501
0.23648,0.92128,0.30873,0.56026,0.37585,0.15088
0.23504,0.92138,0.30953,0.00133,0.89518,0.40625
0.2202,0.92058,0.32254,-0.00756,-0.2967,-0.40967
0.21153,0.92051,0.32849,-0.00281,-0.62767,-0.66128
0.21961,0.92007,0.3244,-0.17344,-0.50795,-0.59845
0.23566,0.91994,0.31333,-0.5588,0.56625,-0.21293
0.24532,0.91972,0.30649,-0.50068,0.63943,-0.22484
0.25059,0.92173,0.29599,-0.29971,0.40182,-0.32919
0.25461,0.92488,0.28242,0.12136,-0.11251,0.05101
0.25871,0.92801,0.26806,0.18529,-0.15053,0.08002
0.26659,0.93032,0.25184,0.17216,-0.16375,-0.11912
0.278,0.93169,0.23379,-0.00726,-0.0079,-0.14654
0.28954,0.93244,0.21615,-0.03925,0.08088,-0.13271
0.29952,0.93255,0.20159,-0.04717,0.11753,-0.11436
0.30915,0.9321,0.18869,-0.07693,0.04431,-0.08511
0.31902,0.93112,0.17677,-0.09899,-0.00137,-0.04243
0.32873,0.92988,0.16508,-0.12887,-0.03247,-0.02349
0.33805,0.9286,0.15304,-0.12252,0.02482,-0.04721
0.34664,0.92742,0.14044,-0.11195,0.03828,-0.01643
0.35551,0.92604,0.12676,-0.17538,0.04587,0.02908
0.36489,0.9243,0.11188,-0.21152,0.00499,0.01974
0.37435,0.92229,0.09615,-0.21754,0.0264,0.02876
0.38389,0.91984,0.08067,-0.25869,0.05193,0.02704
0.39296,0.91717,0.0661,-0.30786,0.10985,-0.07011
0.39922,0.91538,0.05193,-0.29029,0.10859,-0.03382
0.40169,0.91503,0.03684,-0.17664,0.03776,-0.07898
0.4019,0.91544,0.02094,-0.14008,0.03822,-0.02767
0.40154,0.91581,0.0066,-0.11863,0.03887,0.03227
0.40165,0.91577,-0.00587,-0.16857,-0.04161,0.09899
0.39811,0.91722,-0.01413,-0.34378,0.0344,-0.02946
0.39711,0.91761,-0.01723,-0.37284,0.24431,-0.08589
0.39589,0.91811,-0.01862,-0.35931,0.55177,0.00766
0.391,0.92031,-0.01184,-0.30482,0.67498,-0.05065
0.3799,0.92501,0.00453,-0.24052,0.65186,-0.04617
0.36506,0.93058,0.02754,-0.00127,0.41633,0.22487
0.34842,0.93506,0.06532,0.10045,0.19469,0.29465
0.32977,0.93701,0.11514,0.20398,0.00922,-0.00407
0.31144,0.93616,0.16307,0.1655,-0.0427,-0.40323
0.29365,0.93352,0.20569,0.04482,0.02408,-0.41667
0.27833,0.92922,0.24303,-0.0169,0.09865,-0.34031
0.26473,0.92391,0.27623,-0.13171,0.33252,-0.22141
0.24981,0.92007,0.30176,-0.0962,0.34133,-0.19846
0.23211,0.91736,0.32337,-0.03127,0.2249,-0.27339
0.21382,0.91542,0.341,0.04769,-0.01221,-0.34596
0.19699,0.9145,0.35337,0.14139,-0.24161,-0.27494
0.18351,0.91423,0.36125,0.18655,-0.23956,-0.28932
0.17405,0.91472,0.36469,0.11367,-0.21505,-0.2964
0.16759,0.91576,0.36509,0.08356,-0.1998,-0.29751
0.16415,0.91691,0.36375,0.09596,-0.21683,-0.30664
0.16575,0.91797,0.36036,0.09762,-0.27936,-0.29574
0.17135,0.9197,0.35324,0.08298,-0.31015,-0.13446
0.17909,0.923,0.34059,0.07459,-0.22839,-0.07927
0.18897,0.92788,0.32143,0.03147,-0.04472,0.05355
0.19992,0.93253,0.30068,-0.17715,0.33454,0.12649
0.20994,0.93539,0.28454,-0.17939,0.33693,0.19222
0.21618,0.93481,0.28177,-0.05167,0.03547,0.40615
0.21608,0.93413,0.28408,-0.20566,-0.26375,0.15318
0.21433,0.93675,0.27669,-0.23931,-0.34784,-0.0538
0.21383,0.94061,0.26367,-0.33131,-0.39029,-0.27453
0.21183,0.94445,0.25128,-0.08427,0.48243,-0.2843
0.20797,0.94685,0.24539,0.08078,0.83394,-0.35701
0.20102,0.94864,0.24428,-0.07262,0.02171,-0.00758
0.18819,0.9479,0.25705,0.08821,-0.54706,-0.23826
0.1778,0.94923,0.2595,0.2584,-0.90931,-0.22526
0.19326,0.94815,0.2523,0.16078,-0.30568,-0.32359
0.21332,0.94743,0.23847,-0.16699,0.78032,-0.34269
0.22275,0.94664,0.23291,-0.14619,0.73468,-0.32186
0.22907,0.94585,0.23,0.02631,-0.06181,0.11914
0.23708,0.94479,0.22619,-0.01511,-0.08044,0.08642
0.246,0.945,0.21554,-0.15824,0.01992,-0.16104
0.25351,0.9462,0.20108,-0.20665,0.01743,-0.11992
0.25654,0.94822,0.18726,-0.17318,-0.02997,-0.09349
0.25717,0.95045,0.17463,-0.13225,-0.07867,-0.02806
0.2577,0.95227,0.16359,-0.11831,-0.0824,0.05146
0.25716,0.95371,0.15591,-0.16882,-0.12183,0.06281
0.25426,0.95487,0.15353,-0.18392,-0.17077,0.10123
0.24905,0.9556,0.15744,-0.20532,-0.19001,0.05269
0.24137,0.95613,0.16595,-0.25259,-0.21372,0.01903
0.2301,0.95638,0.17998,-0.23256,-0.33769,0.03687
0.21857,0.95576,0.19685,-0.16371,-0.33052,0.06832
0.20889,0.95479,0.21151,-0.17399,-0.26389,-0.06035
0.20068,0.95375,0.22379,-0.07498,-0.19958,-0.21096
0.1946,0.95226,0.2352,-0.06635,-0.16378,-0.06775
0.19143,0.95027,0.24565,-0.053,-0.03045,0.01131
0.19112,0.94819,0.25376,-0.15682,0.13701,-0.04159
0.19125,0.94712,0.25764,-0.332,0.21613,-0.15229
0.19288,0.94672,0.25791,-0.39442,0.20556,-0.20246
0.19542,0.94571,0.25968,-0.39696,0.20657,-0.20422
0.19703,0.94266,0.26939,-0.23784,0.52808,0.0595
0.18998,0.93749,0.29157,-0.03364,0.73318,0.35974
0.16849,0.92912,0.32916,-0.01215,0.74155,0.32215
0.13736,0.91547,0.37821,0.39141,0.52827,0.29838
0.10354,0.89885,0.42584,0.52046,-0.13866,-0.29718
0.07688,0.88048,0.46779,0.54711,-0.12029,-0.33913
0.06846,0.86304,0.50047,-0.06927,-0.45084,-0.24334
0.06568,0.84954,0.52341,-0.17375,-0.0821,0.19854
0.06312,0.84641,0.52877,0.22852,0.54775,0.02596
0.06041,0.84852,0.52569,0.29121,0.37494,-0.15939
0.06275,0.85105,0.52132,0.33953,-0.44122,-0.26894
0.06868,0.85562,0.51303,0.30091,-0.66307,-0.23579
0.07529,0.86394,0.49793,0.16957,-0.79697,-0.15499
0.08283,0.87578,0.47554,-0.07437,-0.67385,-0.02778
0.09193,0.88936,0.44786,-0.09906,-0.67531,0.02754
0.10665,0.90309,0.41599,-0.1482,-0.63661,0.03858
0.1328,0.91429,0.38266,-0.14844,-0.22455,-0.16914
0.16917,0.92042,0.35242,-0.14573,-0.05792,-0.19256
0.20263,0.92235,0.32893,-0.10595,0.17106,0.04966
0.22349,0.92531,0.30633,-0.02098,0.14468,0.13108
0.23196,0.93173,0.27942,0.07702,0.04504,0.16893
0.23438,0.9401,0.24755,0.40257,-0.08386,0.25384
0.23493,0.94589,0.2238,0.14727,0.1291,0.12348
0.2204,0.95142,0.215,0.18228,0.02444,-0.35412
0.20832,0.95633,0.20501,-0.09816,-0.27309,0.23205
0.20333,0.95513,0.21533,-0.41906,0.01308,-0.05297
0.19338,0.95685,0.21686,-0.18848,1.10653,0.26979
0.16672,0.95513,0.24481,-0.74764,2.30153,0.35204
0.12801,0.95333,0.27344,-0.25689,-0.23294,-0.06228
0.10556,0.95021,0.29318,0.29422,-0.96806,-0.49913
0.10134,0.9501,0.295,0.30374,-0.58784,-0.29033
0.12041,0.94621,0.30028,-0.04739,0.82736,0.5189
0.12764,0.94801,0.29152,-0.29425,1.1289,0.03047
0.1205,0.951,0.28472,-0.11266,0.25714,-0.10084
0.1201,0.95086,0.28537,0.03963,-0.11112,0.11307
0.12636,0.94881,0.28946,-0.09572,-0.16062,0.28825
0.1352,0.94541,0.29651,-0.15679,-0.07704,0.2287
0.14283,0.9417,0.30461,-0.10163,-0.2131,0.08722
0.14679,0.93778,0.31466,-0.14026,-0.31833,0.15058
0.14749,0.93455,0.32383,-0.19063,-0.24952,-0.22765
0.14693,0.92899,0.33967,-0.2626,0.01618,-0.02087
0.14027,0.91916,0.36804,-0.34731,0.10105,-0.13353
0.12771,0.9036,0.40889,-0.24389,0.31397,-0.1772
0.10606,0.88176,0.4596,0.02397,0.42851,0.02036
0.08061,0.85576,0.51104,0.15882,0.46722,-0.10774
0.05074,0.83163,0.553,0.43414,0.39597,0.02791
0.02846,0.81526,0.57838,0.12677,0.34494,0.16145
0.00627,0.80994,0.58647,-0.03056,0.00875,-0.16218
-0.00464,0.80788,0.58932,0.03967,-0.15104,-0.15066
-0.01148,0.80988,0.58647,0.29518,-0.02032,-0.04068
-0.02671,0.81479,0.57913,0.28185,-0.08614,-0.10284
-0.03833,0.8241,0.56513,0.33123,-0.24691,-0.16814
-0.04187,0.83664,0.54614,0.16722,-0.45496,-0.29536
-0.0314,0.85112,0.52403,0.08843,-0.42741,-0.20906
-0.01093,0.86884,0.49497,-0.07316,-0.54137,-0.06732
0.0159,0.88725,0.461,-0.35938,-0.75119,-0.14269
0.04991,0.90354,0.42557,-0.40184,-0.67539,-0.18272
0.08894,0.91427,0.39521,-0.21984,-0.24568,-0.30941
0.12817,0.92252,0.36403,0.15156,0.27851,-0.13549
0.15878,0.93217,0.32534,0.2123,0.35294,0.04344
0.17553,0.94221,0.28536,0.23814,0.10754,0.35009
0.17616,0.95291,0.24683,0.09168,-0.09111,0.34087
0.17017,0.96321,0.20799,0.12248,-0.05607,0.13994
0.16584,0.97129,0.17056,0.10894,0.18527,0.15871
0.1607,0.97585,0.14794,0.1868,0.20897,-0.22601
0.16243,0.97773,0.13286,0.58773,0.03962,0.30412
0.16816,0.97558,0.14126,-0.23811,-0.31523,0.57749
0.17485,0.97444,0.14105,-0.32854,-0.20423,0.34407
0.16867,0.97603,0.13753,-0.30568,2.06147,0.04864
0.13832,0.9784,0.15359,-1.03083,0.92515,-0.72253
0.09821,0.97937,0.17657,-0.14557,-0.86945,-0.09173
0.07835,0.97684,0.19908,0.14177,-1.18575,0.1236
0.07834,0.97902,0.18809,0.26385,-0.03671,-0.44737
0.08474,0.97776,0.19182,0.177,0.33442,0.03046
0.09155,0.97711,0.192,0.05469,0.43907,-0.02676
0.0898,0.9783,0.18673,0.05362,0.02645,-0.08048
0.08829,0.97787,0.18963,-0.08602,-0.24655,0.10957
0.09055,0.97655,0.19531,-0.22399,-0.36173,0.30502
0.09552,0.97513,0.2,-0.05991,-0.26925,0.11739
0.10245,0.97352,0.20434,-0.09445,-0.18839,0.10375
0.11006,0.97222,0.20657,-0.12254,-0.09432,0.00139
0.11801,0.97103,0.20779,-0.18541,0.01997,-0.12612
0.12458,0.97002,0.20864,-0.39324,0.16799,-0.05896
0.12756,0.96953,0.20911,-0.47305,0.26362,-0.0357
0.1272,0.96987,0.20774,-0.44611,0.07992,-0.10758
0.12722,0.96975,0.20832,-0.17722,0.07881,-0.0949
0.12594,0.96846,0.21496,-0.06878,0.19255,-0.01205
0.11798,0.96498,0.2343,0.13547,0.55861,0.38225
0.10009,0.95898,0.26519,0.32017,0.65582,0.43386
0.07151,0.95036,0.3028,0.39327,0.61763,0.29213
0.03575,0.93796,0.34489,0.41939,0.03424,-0.09228
0.00717,0.91939,0.39327,0.2442,-0.20409,-0.00695
-0.00386,0.89753,0.44093,0.25523,-0.18223,-0.05461
-0.00621,0.88114,0.4728,-0.14427,-0.05419,-0.08158
-0.00483,0.87091,0.4914,0.30467,0.01696,0.01608
-0.00442,0.86645,0.49924,0.30425,0.02143,0.00824
-0.00792,0.86552,0.50079,0.34836,-0.02644,-0.2227
-0.01044,0.86766,0.49704,0.14533,-0.44862,-0.2109
-0.00581,0.8739,0.48606,0.0983,-0.61827,-0.23665
0.00928,0.88315,0.469,0.08468,-0.71859,-0.22306
0.03453,0.89397,0.44678,-0.05013,-0.70346,-0.23351
0.0661,0.90677,0.41641,-0.1057,-0.73575,-0.16479
0.10027,0.91999,0.3789,-0.17734,-0.75072,-0.10245
0.141,0.92995,0.33955,-0.19358,-0.07644,-0.08755
0.18212,0.93537,0.30317,-0.17548,0.16983,-0.05981
0.21173,0.93882,0.27163,0.18872,0.22444,0.14603
0.23186,0.94242,0.241,0.14218,-0.00077,0.25117
0.2467,0.9457,0.21162,0.05306,-0.15182,0.27327
0.25145,0.94994,0.18541,0.24083,-0.09595,0.272
0.24913,0.95472,0.16261,0.3173,0.06364,0.63126
0.23956,0.9587,0.15329,0.11051,0.50268,-0.01107
0.22627,0.96489,0.13332,-0.46268,0.03802,0.35226
0.21336,0.96781,0.13347,-0.3954,0.37106,0.58662
0.19656,0.96728,0.16038,-0.37859,0.37158,0.55971
0.17222,0.96474,0.19901,-0.66476,0.65409,-0.44354
0.14878,0.96245,0.22703,-0.4341,-0.10691,-0.99958
0.14368,0.95551,0.25757,0.19933,-0.68855,-0.23797
0.14955,0.95301,0.26345,-0.04188,0.1589,-0.09273
0.15342,0.95376,0.25845,0.04059,0.34075,-0.30357
0.15339,0.9573,0.24504,0.07848,0.08395,-0.07796
0.15186,0.96052,0.23309,-0.06452,0.35746,0.25997
0.14744,0.96284,0.22624,-0.17825,0.29759,0.11234
0.14429,0.9638,0.22418,0.02533,-0.36976,0.20267
0.14732,0.96263,0.22722,0.15997,-0.6357,0.21822
0.15684,0.96144,0.22589,-0.00362,-0.34022,0.12392
0.16864,0.95939,0.22612,-0.22339,0.14106,0.11546
0.1768,0.95765,0.22724,-0.35002,0.25059,0.06129
0.17905,0.95596,0.23255,-0.4346,0.11173,-0.1235
0.17709,0.95214,0.24912,-0.44688,0.06265,-0.04166
0.16962,0.94511,0.27927,-0.35198,0.13267,-0.00765
0.15617,0.93332,0.3233,0.12143,0.33123,0.13309
0.13927,0.917,0.37376,0.33326,0.36073,0.02931
0.12049,0.89723,0.42479,0.575,0.23372,-0.14558
0.10321,0.87579,0.47151,0.33638,0.02808,0.05359
0.09078,0.85523,0.51022,0.33848,0.12931,0.32584
0.07434,0.84601,0.52794,0.15418,0.22424,0.13563
0.06136,0.84376,0.53319,0.21099,0.04731,-0.08949
0.05292,0.84336,0.53472,0.18226,-0.01225,-0.08962
0.04332,0.84741,0.52916,0.15901,-0.15396,-0.17708
0.03601,0.85568,0.51623,0.17549,-0.52986,-0.26713
0.03635,0.86618,0.49839,0.20847,-0.59363,-0.25826
0.04725,0.87806,0.47619,0.15667,-0.52529,-0.25647
0.06905,0.88994,0.4508,-0.04496,-0.53618,-0.08048
0.10071,0.90206,0.41969,-0.12421,-0.60434,-0.00273
0.13944,0.91383,0.3814,-0.26905,-0.6536,-0.01055
0.18441,0.92207,0.34024,-0.05445,-0.00401,-0.19113
0.2291,0.92566,0.30108,0.03379,0.25583,-0.15141
0.25977,0.92819,0.26639,0.06535,0.40961,0.24589
0.27546,0.93138,0.23801,-0.23824,0.31453,0.77884
0.26625,0.93895,0.21789,-0.27313,0.31283,0.69205
0.22692,0.95282,0.20158,0.30961,-0.08546,-1.48379
0.19616,0.96873,0.1519,0.41103,-0.15953,-0.70692
0.18454,0.97168,0.14758,0.17261,-0.054,0.78457
0.18052,0.96445,0.19298,-0.36985,0.73716,0.68807
0.17017,0.96208,0.21315,-0.02155,0.68729,0.20279
0.16264,0.96164,0.22088,0.30704,0.87123,-0.27703
0.14694,0.95699,0.25014,0.06894,-0.14276,-0.03691
0.13548,0.95576,0.26107,-0.05346,-0.12875,0.17252
0.12169,0.95777,0.26049,-0.12923,0.16911,-0.13178
0.11147,0.95866,0.26177,0.03158,-0.30814,-0.27071
0.10729,0.95735,0.26825,0.06332,-0.55083,-0.21627
0.11169,0.9559,0.2716,0.06296,-0.75097,-0.07687
0.12451,0.9565,0.26379,0.06493,-0.48365,0.01445
0.14089,0.95798,0.24984,0.04069,-0.06357,0.11117
0.15372,0.95846,0.24022,-0.00224,0.17386,0.34616
0.15595,0.95849,0.23869,-0.38934,0.49905,0.14654
0.15391,0.95805,0.24174,-0.32891,-0.12007,0.05503
0.15554,0.95604,0.24856,-0.35244,-0.42038,-0.07734
0.16056,0.95189,0.26098,-0.40817,-0.16518,0.00185
0.16243,0.94366,0.28829,-0.31021,0.36884,0.20807
0.15369,0.93086,0.33146,-0.08435,0.74982,0.27524
0.1399,0.91283,0.38362,0.27454,0.64272,0.20566
0.12247,0.89249,0.43411,0.55937,0.41479,-0.15092
0.10665,0.87059,0.48029,0.57426,0.30504,0.00303
0.09445,0.852,0.51493,0.25838,0.37135,0.21233
0.0783,0.8435,0.53139,-0.14009,-0.13041,-0.09143
0.07132,0.83972,0.53831,0.09699,-0.12332,-0.07984
0.06698,0.83935,0.53944,0.15723,-0.03271,-0.1865
0.06263,0.84127,0.53696,0.12353,-0.083,-0.22337
0.05912,0.84889,0.52525,0.23549,-0.3599,-0.2413
0.06098,0.86096,0.50498,0.23819,-0.56748,-0.31242
0.07367,0.87449,0.4794,0.02068,-0.46789,-0.11978
0.09579,0.89026,0.44526,-0.07523,-0.5135,-0.0388
0.12324,0.90685,0.40303,-0.30819,-0.61444,0.03414
0.15283,0.92148,0.35708,-0.3561,-0.21713,-0.21336
0.18444,0.93238,0.31086,-0.20702,0.00182,-0.23604
0.21245,0.93938,0.26911,0.13825,0.22329,-0.21002
0.23596,0.94424,0.22964,0.48197,0.05021,0.48055
0.25529,0.94695,0.19519,0.41657,-0.08416,0.6458
0.26062,0.95068,0.16816,0.14314,-0.28748,0.38679
0.25488,0.95652,0.14173,0.17705,0.0799,0.6081
0.24161,0.96209,0.12647,-0.07834,0.19778,0.55015
0.22203,0.96852,0.11253,-0.07594,0.19455,-1.09653
0.20377,0.97434,0.09553,-0.40093,0.0521,0.72544
0.18465,0.97606,0.11487,-0.47636,0.77664,0.5044
0.15785,0.97793,0.13685,-0.32638,0.98189,0.25924
0.13591,0.9796,0.14799,-0.38454,0.6564,-0.29902
0.11741,0.98042,0.15808,-0.11426,-0.35598,-0.49529
0.1074,0.9792,0.17214,-0.06664,0.02447,-0.18473
0.10388,0.97844,0.17846,-0.10946,0.20874,0.15054
0.10145,0.97683,0.18844,0.06108,0.1293,0.03381
0.10338,0.97575,0.19293,0.22937,-0.45211,-0.21808
0.11254,0.97441,0.19455,0.15699,-0.47786,-0.15466
0.12961,0.97291,0.19142,-0.0988,-0.03393,-0.01894
0.14806,0.97213,0.18176,-0.34945,0.08198,0.12209
0.16353,0.97197,0.16889,-0.46063,0.15952,0.16839
0.17483,0.97224,0.15548,-0.55339,0.16704,0.11758
0.18523,0.97137,0.14875,-0.42438,0.01488,0.18294
0.19852,0.9688,0.14832,-0.30405,-0.08358,0.11836
0.21625,0.96534,0.1461,-0.30176,-0.00042,0.20971
0.23321,0.96182,0.14318,-0.48561,0.1593,-0.07131
0.2439,0.95873,0.14607,-0.58213,0.44778,-0.04188
0.2473,0.9559,0.15837,-0.19417,0.68051,0.21625
0.23913,0.954,0.1808,0.33947,0.56316,0.13028
0.22492,0.95125,0.21101,0.47793,0.3064,-0.08599
0.21079,0.94642,0.24465,0.55372,0.13317,-0.13467
0.19764,0.94094,0.2749,0.56421,0.14732,-0.24479
0.18598,0.93608,0.29858,0.25463,0.3669,-0.2384
0.17718,0.93118,0.31858,-0.00747,0.78302,0.06446
0.1631,0.93039,0.32826,-0.32894,0.68186,-0.02561
0.14455,0.93538,0.32274,-0.06162,-0.05232,-0.33267
0.13237,0.9409,0.31174,0.00485,-0.20176,-0.34661
0.13146,0.94404,0.30249,0.1676,-0.31503,-0.35486
0.13817,0.94462,0.29765,0.09084,-0.27537,-0.19319
0.15001,0.94412,0.29348,0.06651,-0.16944,-0.1787
0.16552,0.94247,0.29043,0.11975,-0.11501,-0.12988
0.18124,0.94024,0.28825,0.23711,-0.22877,-0.03685
0.19307,0.93879,0.28528,0.22506,-0.24365,-0.01332
0.20186,0.93699,0.28513,0.13432,-0.09119,0.08725
0.20758,0.93446,0.2893,-0.02939,0.22771,0.27848
0.21038,0.93185,0.29563,-0.11643,0.23231,0.34428
0.2139,0.93005,0.29874,-0.35154,0.13189,0.38564
0.2179,0.92773,0.30304,-0.06665,-0.14945,0.02861
0.21754,0.92469,0.31244,0.03171,-0.20019,-0.07853
0.21387,0.92324,0.31917,0.00909,-0.25132,-0.10534
0.20645,0.92494,0.31915,-0.05173,-0.16789,-0.08027
0.19389,0.92908,0.31497,-0.04684,-0.13277,-0.0827
0.17821,0.93288,0.31301,0.07274,0.32333,0.05813
0.1667,0.93927,0.29995,0.01999,0.54164,0.29534
0.1606,0.94234,0.29357,0.00116,0.55171,0.23772
0.15961,0.94152,0.29673,0.25421,-0.12379,-0.13713
0.17155,0.93999,0.29492,0.32952,-0.24927,-0.20147
0.19349,0.93906,0.28411,0.22056,-0.1934,-0.27782
0.2147,0.93896,0.2688,-0.08964,0.20144,-0.40304
0.22832,0.93985,0.25407,-0.34273,0.11925,-0.32665
0.23744,0.9414,0.23955,-0.42222,0.04656,-0.30701
0.2436,0.9429,0.22714,-0.24023,0.10295,-0.11271
0.25136,0.94307,0.21777,-0.122,0.07692,-0.06584
0.26157,0.94227,0.20904,0.03449,0.00824,-0.07345
0.27417,0.94153,0.19583,0.09473,0.02654,-0.07922
0.28428,0.94227,0.17692,0.01823,-0.02113,-0.09524
0.28881,0.9446,0.1559,-0.13124,-0.06605,-0.20078
0.29124,0.94715,0.13448,-0.12356,-0.0771,-0.13235
0.294,0.94887,0.11487,-0.05952,0.02775,-0.09548
0.29878,0.94925,0.09819,-0.00126,0.08808,-0.03335
0.30522,0.9485,0.08478,0.03676,-0.01144,0.08429
0.31269,0.94701,0.07339,0.03004,-0.03725,0.0718
0.32054,0.9452,0.06198,0.00698,-0.05787,0.06636
0.32825,0.94328,0.04961,-0.0846,-0.04454,0.00282
0.33581,0.94122,0.0364,-0.15669,0.07544,0.0615
0.34346,0.93892,0.02135,-0.18967,0.10013,0.09369
0.35078,0.93644,0.00479,-0.25642,0.10831,0.09811
0.35575,0.93451,-0.01139,-0.21413,0.0491,0.15203
0.35955,0.93272,-0.02734,-0.20243,0.05579,0.15429
0.35566,0.93396,-0.03497,-0.21438,0.06273,0.00225
0.3482,0.93657,-0.03984,-0.193,0.11075,0.14574
0.34401,0.93784,-0.04596,-0.17143,0.22548,0.19551
0.33961,0.93947,-0.04544,-0.1989,0.45734,0.17938
0.33305,0.94229,-0.03398,-0.38123,0.57399,0.02616
0.32078,0.9471,-0.00964,-0.32926,0.54106,-0.03981
0.30329,0.95257,0.02478,-0.09629,0.37065,0.16612
0.28396,0.95617,0.07143,0.23577,0.16371,0.27636
0.26654,0.95501,0.12996,0.25318,0.16486,0.21783
0.25289,0.94967,0.18482,0.07487,-0.02061,-0.67681
0.24208,0.94252,0.23033,-0.23706,0.13745,-0.22021
0.22689,0.93451,0.27424,-0.32717,0.21122,-0.11928
0.20994,0.92805,0.30765,-0.21362,0.50897,-0.21574
0.19142,0.92335,0.33282,0.01628,0.33178,-0.32948
0.16956,0.91988,0.35364,0.08326,0.14239,-0.35629
0.14949,0.91641,0.37127,0.15251,-0.11128,-0.33076
0.13398,0.91291,0.38553,0.17286,-0.23612,-0.32741
0.12144,0.90921,0.39821,0.15913,-0.23595,-0.3217
0.1117,0.90575,0.40881,0.11417,-0.21003,-0.29405
0.1053,0.90293,0.41668,0.08324,-0.19941,-0.29872
0.10466,0.9006,0.42184,0.11642,-0.19,-0.34066
0.11115,0.89835,0.42498,0.16368,-0.22609,-0.32662
0.12285,0.89686,0.4249,0.20806,-0.27896,-0.13542
0.13577,0.8976,0.41936,0.20125,-0.25338,-0.06982
0.14793,0.90108,0.40763,0.14631,-0.16367,0.00199
0.16041,0.90601,0.39166,0.01078,0.0648,0.11516
0.17469,0.91012,0.37571,-0.02082,0.12083,0.15829
0.18956,0.91155,0.36486,-0.10988,0.1489,0.29705
0.20298,0.90892,0.3642,-0.10807,0.14035,0.34728
0.20672,0.90526,0.37116,-0.16448,0.10995,0.33137
0.203,0.90505,0.37371,-0.25437,-0.27783,0.16712
0.19461,0.91008,0.36589,-0.25459,-0.31505,0.10335
0.18456,0.91518,0.3583,-0.10546,0.08899,-0.21296
0.17793,0.91829,0.35365,-0.07182,0.74751,-0.59536
0.16852,0.92381,0.34376,-0.07892,0.9007,-0.47931
0.15297,0.92537,0.34682,0.2353,0.15493,-0.05593
0.14583,0.91841,0.36775,0.72164,-0.79285,-0.05996
0.16068,0.91641,0.36655,0.48565,-0.78195,-0.1457
0.1786,0.92345,0.33961,0.02605,0.25064,-0.55629
0.18574,0.93026,0.31639,-0.0526,0.65374,-0.61299
0.1931,0.93228,0.30587,-0.21283,0.30272,-0.25343
0.20278,0.9323,0.29949,-0.18463,0.02444,-0.17298
0.21339,0.93413,0.2861,-0.08305,0.07238,-0.24095
0.22502,0.93656,0.26871,-0.0529,0.00675,-0.16243
0.23688,0.93842,0.25147,-0.02245,-0.05694,-0.09002
0.24555,0.94076,0.23381,0.06515,0.03369,-0.03581
0.24949,0.94397,0.21603,0.08149,0.01532,-0.02658
0.25227,0.94625,0.20238,0.07814,-0.04542,0.01408
0.2559,0.94733,0.19253,0.0051,-0.1836,0.0212
0.26074,0.94739,0.18565,-0.12337,-0.11777,0.05859
0.26347,0.94765,0.18038,-0.28515,-0.02971,0.02931
0.26058,0.94906,0.17714,-0.34839,0.00492,-0.12305
0.25225,0.95113,0.1781,-0.24506,-0.1034,0.10424
0.2411,0.95206,0.18825,-0.18821,-0.14651,0.17822
0.2298,0.95131,0.20539,-0.16057,-0.29262,0.25296
0.21991,0.95033,0.22023,-0.04036,-0.44055,-0.22067
0.21376,0.94882,0.23244,-0.02448,-0.39221,-0.22796
0.2112,0.94639,0.2444,-0.11028,-0.24716,-0.11955
0.21183,0.94344,0.25502,-0.13872,0.16265,-0.10345
0.2122,0.94088,0.26402,-0.14759,0.22006,-0.17226
0.21075,0.93838,0.27389,-0.30127,0.25997,0.02655
0.2086,0.93716,0.27966,-0.32844,0.14571,-0.11543
0.20513,0.93589,0.28641,-0.35552,0.11143,-0.1327
0.19891,0.93258,0.30121,-0.38487,0.05572,-0.10602
0.18857,0.92436,0.33165,-0.09096,0.36148,-0.03089
0.17297,0.90902,0.37916,0.05044,0.50003,0.17243
0.15268,0.88852,0.43268,0.29219,0.57879,0.05139
0.13201,0.86607,0.48216,0.43331,0.17308,-0.43254
0.11733,0.84243,0.52586,0.34733,0.04925,-0.45758
0.10557,0.82435,0.55615,0.02088,-0.04577,-0.32485
0.09351,0.81432,0.57283,0.05069,0.51887,-0.12306
0.07388,0.81318,0.57729,0.15468,0.70021,-0.14846
0.05518,0.82267,0.56582,0.07292,0.28687,-0.27206
0.04184,0.83955,0.54166,0.13175,0.03159,-0.26211
0.03777,0.86065,0.50778,0.18101,-0.38038,-0.2854
0.03684,0.88101,0.47164,0.27259,-0.75836,-0.14866
0.04374,0.89734,0.43916,0.22879,-0.79308,-0.04575
0.06153,0.9111,0.40755,0.02152,-0.7579,0.11151
0.09442,0.92176,0.37607,0.12573,-0.1916,-0.308
0.14312,0.92687,0.34702,0.16462,-0.11882,-0.27759
0.19798,0.92555,0.32274,0.26653,0.07944,-0.19458
0.24986,0.91963,0.30304,0.46709,0.32213,0.13303
0.27882,0.91662,0.28647,0.26154,-0.20652,0.48393
0.28322,0.92073,0.26838,-0.01826,-0.30204,0.24268
0.27704,0.92981,0.24225,-0.24326,-0.34951,0.10152
0.27023,0.93804,0.21691,-0.30613,-0.32306,0.18965
0.25936,0.94249,0.21079,-0.40033,-0.2788,0.0503
0.24377,0.9448,0.21889,-0.46758,-0.08296,-0.77113
0.23171,0.94621,0.22581,-0.07454,0.25682,0.2716
0.21849,0.94128,0.25739,0.01804,0.54642,0.74576
0.18334,0.94429,0.27329,-0.17407,1.48515,0.07259
0.13706,0.94441,0.29882,-0.09151,0.94349,-0.3264
0.09982,0.94226,0.31964,0.02467,0.2505,-0.17512
0.08101,0.94051,0.32996,0.20703,-0.7376,-0.46179
0.07856,0.93927,0.33407,0.19844,-0.13833,-0.22379
0.09252,0.9391,0.33092,0.18447,-0.13817,-0.22065
0.10946,0.93999,0.32315,-0.04354,0.80581,0.42738
0.11702,0.94139,0.31637,-0.13122,0.38402,0.231
0.11802,0.94286,0.31157,-0.13223,0.38255,0.23579
0.12038,0.9413,0.31535,-0.09667,-0.37955,0.26316
0.12391,0.93898,0.32086,-0.2982,-0.44908,0.24027
0.1267,0.93653,0.32688,-0.28058,-0.37485,-0.03698
0.1253,0.93192,0.34031,-0.16967,-0.11838,-0.20125
0.11504,0.92253,0.36837,-0.14017,0.13083,-0.16653
0.09624,0.90664,0.41077,-0.08077,0.43971,-0.03019
0.07913,0.88382,0.46107,-0.04547,0.72518,-0.18155
0.06434,0.85613,0.51273,0.2102,0.53572,-0.1775
0.05679,0.82611,0.56063,0.4384,0.43285,-0.01178
0.05128,0.80522,0.59075,0.70282,0.19383,0.35286
0.03613,0.79927,0.59987,0.46656,-0.13553,0.04068
0.02407,0.80032,0.59908,0.4845,0.00916,0.02687
0.01228,0.80304,0.59579,0.2681,0.18793,-0.28382
0.00321,0.80589,0.59205,0.18721,-0.18869,-0.25162
-0.00244,0.81274,0.58261,0.23473,-0.35918,-0.24797
0.00133,0.82286,0.56823,0.20431,-0.36913,-0.26183
0.01785,0.8345,0.55071,0.10027,-0.40635,-0.17931
0.04232,0.84968,0.52558,0.01821,-0.45653,-0.0942
0.06989,0.86822,0.49122,-0.25318,-0.64549,-0.08018
0.09971,0.88667,0.45151,-0.35683,-0.58078,-0.09244
0.1332,0.90255,0.40945,-0.05956,-0.12507,-0.22818
0.16487,0.91451,0.36943,0.16755,0.1939,-0.27362
0.19043,0.92252,0.33568,0.21286,0.29368,0.05728
0.20687,0.92997,0.30389,0.14701,-0.08743,0.31947
0.20759,0.93875,0.27503,0.12957,-0.14581,0.20428
0.19382,0.94733,0.25492,0.08837,0.01249,0.05289
0.1746,0.95602,0.23566,0.20828,-0.12666,-0.59801
0.16964,0.95817,0.23049,0.01347,-0.11073,0.14525
0.16924,0.95356,0.24913,-0.49793,0.2369,0.13398
0.15444,0.95556,0.25108,-0.15381,0.78127,0.20165
0.11817,0.9534,0.27757,-0.37363,2.20907,0.56029
0.07803,0.95061,0.30039,-0.16544,-0.01266,-0.25986
0.0547,0.95042,0.30612,0.20334,-0.78983,-0.49218
0.05039,0.94963,0.30928,0.10565,-0.60519,-0.39055
0.06632,0.94741,0.31306,0.145,0.17512,0.03444
0.0771,0.94826,0.30797,0.04004,0.74093,-0.01462
0.07567,0.94833,0.30812,0.09603,0.19544,0.10657
0.07643,0.94838,0.30777,0.06902,-0.27814,0.10025
0.08033,0.94852,0.30633,-0.02819,-0.4482,0.10846
0.08765,0.94943,0.30147,-0.18828,-0.40891,0.02684
0.09561,0.95057,0.29542,-0.16606,0.05618,-0.0622
0.10318,0.95009,0.29441,-0.15192,0.14793,0.02079
0.10911,0.94986,0.29301,-0.18031,0.01744,-0.08664
0.11369,0.95009,0.29052,-0.41171,0.03397,-0.12762
0.11804,0.949,0.29231,-0.51115,0.1113,-0.12544
0.11944,0.94594,0.30152,-0.3933,0.23382,-0.13075
0.11676,0.94043,0.3193,0.02126,0.19763,0.05648
0.10957,0.93005,0.35069,0.09828,0.30837,0.13463
0.09455,0.91525,0.39161,0.26586,0.55769,0.28535
0.07484,0.89834,0.43287,0.46516,0.42774,-0.01748
0.05485,0.88009,0.47161,0.46389,0.33872,-0.09563
0.04064,0.85955,0.50942,0.30222,0.18806,-0.19487
0.03327,0.84113,0.5398,0.15867,0.13888,-0.05223
0.02463,0.82908,0.55858,0.15324,0.1172,-0.0757
0.01758,0.82306,0.56768,0.28786,0.02748,-0.07193
0.00916,0.82202,0.56937,0.26065,0.01462,-0.26951
0.00179,0.82468,0.56559,0.20653,-0.05203,-0.34962
-0.0006,0.82993,0.55786,0.13292,-0.55417,-0.35243
0.00359,0.83816,0.54541,0.10048,-0.57189,-0.30755
0.01646,0.84901,0.5281,0.04916,-0.54958,-0.26075
0.03841,0.86261,0.50439,-0.02262,-0.53035,-0.09114
0.06493,0.87947,0.4715,-0.05454,-0.61363,0.02203
0.09261,0.89823,0.42966,-0.11587,-0.73059,0.07782
0.12632,0.91434,0.38474,-0.0265,0.0062,-0.53423
0.16441,0.92242,0.34943,-0.02211,0.35471,-0.62822
0.19312,0.92737,0.32044,0.03582,0.69348,-0.21247
0.20892,0.93451,0.28814,0.42816,-0.0557,0.59026
0.22141,0.9404,0.2581,0.30096,-0.12618,0.59701
0.22234,0.94612,0.23537,0.11098,-0.15241,0.4033
0.21705,0.95177,0.21683,0.10922,-0.1803,0.08988
0.21014,0.95561,0.20651,0.07455,-0.17944,0.03297
0.20712,0.95721,0.20206,0.07713,0.24362,-0.44244
0.2088,0.95847,0.19426,-0.00776,0.18373,-0.13024
0.20481,0.95917,0.19501,-0.52206,-0.14693,0.19627
0.18658,0.96304,0.19425,-0.6091,-0.50474,0.0183
0.16601,0.96628,0.19683,-0.25658,-0.19102,-0.08958
0.14973,0.96819,0.20043,-0.01246,1.52866,0.08271
0.12534,0.96704,0.2216,-0.36376,1.76193,0.39114
0.09438,0.96586,0.24122,0.03255,-0.45283,-0.41177
0.08358,0.96518,0.24786,0.3328,-1.02895,-0.70687
0.08236,0.96382,0.25349,0.35876,-1.10605,-0.30749
0.09584,0.96029,0.262,0.28076,0.30759,0.26271
0.10146,0.96026,0.25999,-0.16317,0.74016,0.1617
0.0937,0.96261,0.25417,-0.15077,0.52004,0.17116
0.08615,0.96427,0.25052,-0.0338,-0.08481,0.00291
0.08875,0.96546,0.24497,-0.23628,-0.40578,-0.07005
0.09925,0.96584,0.23934,-0.30369,-0.18876,-0.12101
0.10766,0.9635,0.24508,-0.39265,0.30369,0.03181
0.10933,0.95994,0.25797,-0.17591,0.1429,0.1393
0.1051,0.95516,0.27679,-0.15483,0.04101,-0.09636
0.09946,0.94625,0.30775,-0.10935,-0.06562,-0.24492
0.09031,0.92858,0.35995,0.08115,0.37574,0.14316
0.0738,0.90402,0.42106,0.08635,0.54616,0.05547
0.0546,0.8763,0.47865,0.17183,0.41953,-0.16579
0.03985,0.8465,0.53088,0.24741,-0.05405,-0.35339
0.0339,0.81858,0.57338,0.2786,-0.19597,-0.23926
0.02457,0.79807,0.60205,0.42699,-0.06354,-0.24065
0.00668,0.78683,0.61712,0.4659,0.34595,-0.05802
-0.00845,0.78542,0.6189,0.26945,0.23146,-0.12828
-0.01435,0.78804,0.61544,0.04867,-0.17989,-0.2333
-0.01319,0.79579,0.60541,-0.02566,-0.49858,-0.36664
-0.00889,0.80752,0.58977,0.00533,-0.55384,-0.33746
0.00335,0.82265,0.56852,0.07107,-0.59298,-0.28013
0.02399,0.84177,0.53929,0.22157,-0.44393,0.09793
0.05671,0.86388,0.50048,0.15354,-0.32825,0.1444
0.09934,0.88404,0.45672,0.07018,0.05577,-0.12031
0.145,0.89803,0.41533,0.0669,0.20103,-0.29278
0.18382,0.90441,0.38502,0.03589,0.31036,-0.06191
0.21129,0.90844,0.36067,0.09739,0.24604,0.54252
0.21966,0.91473,0.33913,0.06456,0.17966,0.57789
0.20755,0.92635,0.31432,0.1294,-0.14691,-0.08444
0.19558,0.93708,0.28917,0.18621,-0.09125,0.02806
0.19292,0.94381,0.2683,-0.13146,0.33162,0.29222
0.18831,0.94917,0.25218,-0.05382,0.46294,-0.40015
0.18011,0.95469,0.23689,0.05947,0.30918,-0.19008
0.17098,0.95686,0.23489,-0.29889,-0.13583,0.11298
0.16019,0.95848,0.2359,-0.36974,-0.6246,0.14019
0.15331,0.95977,0.23522,-0.10657,-0.56354,-0.17688
0.15523,0.96021,0.23215,0.18255,1.06154,0.04954
0.14202,0.95737,0.25152,-0.26249,1.97899,0.81508
0.11402,0.95683,0.26734,-0.14192,-0.21037,-0.24261
0.09173,0.95808,0.27138,0.26702,-1.11853,-0.5863
0.08398,0.95863,0.27197,0.2188,-0.32955,-0.47354
0.08831,0.95738,0.27497,-0.0539,0.31798,0.11497
0.09029,0.95903,0.26851,0.00121,0.08723,-0.0627
0.08932,0.9599,0.26572,0.2362,0.00345,0.00786
0.09368,0.95897,0.26755,0.22248,0.16624,0.05838
0.09611,0.95899,0.26664,-0.23177,-0.25423,0.14483
0.09888,0.95873,0.26656,-0.24962,-0.33747,0.16685
0.10276,0.95869,0.26521,-0.19392,-0.27812,0.1486
0.10854,0.95804,0.26527,-0.15101,0.09323,-0.06814
0.1155,0.9567,0.26716,-0.20217,0.1824,-0.08451
0.12028,0.95472,0.27207,-0.39394,0.24361,-0.04804
0.12407,0.95172,0.28077,-0.39932,0.09023,-0.1243
0.1243,0.94492,0.30277,-0.35968,0.14444,-0.08144
0.11824,0.9334,0.33879,-0.06604,0.39607,0.06276
0.10348,0.91687,0.38552,0.38503,0.48416,0.17425
0.08208,0.89407,0.44032,0.54365,0.44794,0.11434
0.06002,0.86884,0.49142,0.60125,0.26156,-0.21559
0.04695,0.84213,0.53721,0.31277,-0.20125,-0.24031
0.04294,0.81878,0.57249,0.18098,-0.32243,-0.13726
0.03812,0.80166,0.59655,-0.01122,-0.21717,-0.21748
0.03615,0.79099,0.61075,0.32993,0.18636,-0.06443
0.02638,0.79025,0.61221,0.32823,0.17746,-0.14796
0.02393,0.79546,0.60552,0.2168,-0.12087,-0.30499
0.03174,0.80635,0.59057,0.27682,-0.46707,-0.24676
0.04465,0.82351,0.56553,0.14967,-0.5402,-0.26835
0.06269,0.84475,0.53146,-0.15629,-0.68119,-0.181
0.08529,0.8663,0.49218,-0.28828,-0.71926,-0.08117
0.11269,0.88598,0.4498,-0.37267,-0.433,-0.12801
0.15002,0.90176,0.40535,-0.09008,0.33339,-0.24278
0.1919,0.91329,0.35925,0.0713,0.6775,-0.26583
0.22237,0.92164,0.31798,0.25804,0.274,0.14897
0.24249,0.92751,0.28445,0.24367,-0.12348,0.38089
0.24961,0.93362,0.25699,0.12072,-0.10957,0.40004
0.24682,0.94135,0.23008,0.1717,0.099,0.318
0.24157,0.94895,0.20282,0.07151,0.21251,0.42548
0.23007,0.95324,0.19595,0.10866,0.10879,-0.62997
0.21838,0.95652,0.19333,0.19622,-0.22606,-0.22005
0.21617,0.95453,0.20527,-0.37548,-0.25609,0.22088
0.21108,0.95294,0.21756,-0.46892,-0.20218,0.00943
0.20168,0.95143,0.23257,0.13902,1.53485,0.24021
0.18573,0.94966,0.25228,-0.74493,0.35407,-0.33726
0.15267,0.95149,0.26712,-0.08686,-0.78895,-0.33191
0.13166,0.95053,0.28132,0.08385,-0.94205,-0.30015
0.12907,0.95021,0.28361,0.01747,0.0559,-0.28011
0.13628,0.94738,0.28962,0.106,0.10692,0.10117
0.1436,0.9464,0.28929,0.15515,0.04502,-0.02872
0.14923,0.94799,0.28112,-0.03577,0.0917,0.14368
0.15698,0.94882,0.27401,-0.18917,0.05565,0.14935
0.16655,0.94965,0.26537,-0.30429,-0.00394,0.11004
0.17789,0.9499,0.25699,-0.51341,0.00265,0.14037
0.19112,0.94927,0.24968,-0.46155,0.09255,0.08338
0.20493,0.94752,0.24536,-0.3877,0.12945,0.08461
0.21909,0.94444,0.245,-0.16049,0.03017,0.04707
0.23509,0.94047,0.24542,-0.30688,-0.00947,-0.14787
0.24977,0.93628,0.24693,-0.43994,0.07817,-0.26463
0.25959,0.93014,0.25971,-0.17669,0.73564,0.32807
0.25858,0.92405,0.28151,0.18618,0.57805,0.04408
0.24497,0.91771,0.31272,0.19979,0.5844,0.01287
0.22704,0.90952,0.34815,0.40719,0.24464,-0.22058
0.21078,0.90014,0.38118,0.45524,0.45804,-0.30581
0.1935,0.89286,0.40663,0.28303,0.54391,-0.33529
0.1833,0.88753,0.4227,-0.16749,0.72486,-0.1577
0.17278,0.88518,0.43196,-0.13302,0.40959,-0.30499
0.16375,0.88651,0.43274,0.07383,0.08047,-0.4881
0.15885,0.88897,0.42952,0.10158,-0.0871,-0.52526
0.16076,0.89181,0.42286,0.18612,-0.18372,-0.40146
0.16948,0.89516,0.41226,0.2021,-0.1945,-0.36957
0.18129,0.89807,0.40074,0.09415,-0.25922,-0.4064
0.19822,0.89945,0.38947,0.21106,-0.26576,-0.35871
0.21839,0.89879,0.38008,0.26707,-0.27018,-0.30089
0.24024,0.89627,0.37279,0.25477,-0.27592,-0.14147
0.26254,0.89254,0.36665,0.17943,-0.08039,0.01692
0.2823,0.88914,0.36018,0.13747,0.01548,0.03684
0.30303,0.8841,0.35571,0.07988,0.17602,0.08574
0.32248,0.87695,0.35631,-0.03714,0.06469,0.1006
0.33875,0.86751,0.36424,-0.06432,0.01504,0.14974
0.35266,0.85717,0.37534,-0.11244,-0.02558,0.25846
0.36438,0.84962,0.38127,-0.14624,0.00614,0.18006
0.37197,0.84711,0.37951,-0.16537,0.02446,0.16053
0.37214,0.85015,0.37249,-0.27117,0.10269,0.02094
0.36502,0.85791,0.36158,-0.35999,0.12358,0.06932
0.35036,0.86779,0.35238,-0.25611,0.03771,0.11198
0.3333,0.87949,0.33971,-0.1615,-0.00694,0.04467
0.32358,0.89256,0.31405,0.02116,0.14608,-0.45597
0.31544,0.90541,0.2841,0.13382,0.27807,-0.56699
0.30445,0.9153,0.26368,0.38072,0.36804,0.63719
0.30046,0.91586,0.26629,0.32657,0.0753,0.4936
0.29712,0.90772,0.29622,0.21466,-0.35247,0.18159
0.2984,0.90182,0.31253,0.03528,-0.9546,-0.60429
0.3144,0.90196,0.29598,-0.41067,0.16865,-0.99054
0.32688,0.90372,0.27646,-0.69997,0.79097,-0.52484
0.31986,0.91037,0.26251,-0.41454,0.6167,-0.24867
0.31112,0.91721,0.24885,-0.26406,0.48332,0.26667
0.30989,0.9216,0.23368,-0.00834,-0.02472,0.18117
0.31716,0.92271,0.2191,0.34692,-0.05334,-0.30627
0.3291,0.92314,0.19874,0.34199,-0.15112,-0.11181
0.33974,0.92361,0.1775,0.27416,-0.20025,-0.01099
0.34688,0.92483,0.15608,-0.09346,-0.08678,-0.11492
0.35176,0.92676,0.13181,-0.1924,0.05163,-0.17744
0.35654,0.92783,0.10956,-0.1794,0.10963,-0.13971
0.36294,0.92723,0.09224,-0.12138,0.05634,-0.01927
0.37083,0.92547,0.0773,-0.1524,-0.04851,0.05324
0.3788,0.9234,0.06185,-0.19294,-0.0605,0.13409
0.38527,0.92162,0.04662,-0.21749,0.04751,0.07265
0.39015,0.92021,0.03136,-0.20691,0.12201,0.0795
0.3946,0.91874,0.01424,-0.23852,0.09358,0.07662
0.39822,0.91728,-0.00298,-0.25679,0.04852,0.095
0.39655,0.91789,-0.01474,-0.27337,0.04792,0.08159
0.39447,0.91854,-0.02582,-0.2237,0.08776,-0.00166
0.39052,0.91996,-0.0339,-0.14859,0.09397,0.01231
0.3839,0.92252,-0.03959,-0.05724,0.10046,0.0627
0.37409,0.92628,-0.04544,-0.01903,0.07127,0.14664
0.36453,0.92971,-0.05241,-0.11851,0.02021,0.16026
0.35887,0.93163,-0.05712,-0.33341,0.05923,0.05514
0.35931,0.9315,-0.05658,-0.41024,0.40653,-0.02387
0.35807,0.93225,-0.0519,-0.41445,0.56946,-0.01286
0.35321,0.93464,-0.04099,-0.43135,0.5176,-0.04087
0.34365,0.93881,-0.02328,-0.36728,0.45695,-0.08376
0.33112,0.94358,0.0024,-0.01436,0.26961,0.17199
0.31714,0.94735,0.04398,0.24493,0.14714,0.47145
0.30177,0.94795,0.10161,0.30682,0.07097,0.25405
0.28628,0.94452,0.16099,0.24219,-0.00259,-0.28534
0.2722,0.93772,0.21583,-0.1295,0.28689,-0.39596
0.25995,0.92879,0.26411,-0.20393,0.39706,-0.33758
0.24412,0.92086,0.30399,-0.38163,0.54632,-0.328
0.22999,0.91406,0.33405,-0.14364,0.37646,-0.30396
0.21493,0.9087,0.35786,-0.0419,0.20324,-0.35914
0.20194,0.90403,0.37674,0.09807,-0.06396,-0.39141
0.19305,0.89957,0.39178,0.13598,-0.24663,-0.30039
0.18635,0.89639,0.40217,0.12723,-0.23016,-0.29074
0.18137,0.89497,0.40757,0.06855,-0.15077,-0.35319
0.17708,0.8932,0.41331,0.07704,-0.14373,-0.40767
0.1756,0.89036,0.42001,0.07765,-0.1361,-0.45449
0.17832,0.88673,0.4265,0.08883,-0.15139,-0.3226
0.18386,0.88378,0.43026,0.09959,-0.19074,-0.24843
0.19068,0.88253,0.42984,0.123,-0.21954,-0.11746
0.19826,0.88343,0.42453,0.14233,-0.14693,-0.02069
0.20711,0.88589,0.41507,0.11052,-0.11445,-0.01532
0.21701,0.88885,0.40352,0.02043,0.00763,0.01216
0.22712,0.89187,0.39111,-0.02482,0.02103,0.078
0.23728,0.89412,0.37977,-0.06417,0.04812,0.11672
0.2475,0.8951,0.37083,-0.11091,0.04308,0.20558
0.25755,0.89518,0.36373,-0.08959,-0.00625,0.31385
0.26591,0.89575,0.35624,-0.12008,-0.06965,0.38016
0.26865,0.89817,0.348,-0.20061,-0.0521,0.31178
0.26653,0.90298,0.33702,-0.28771,-0.03567,0.19687
0.25889,0.90902,0.32657,-0.30038,-0.00626,0.01319
0.24702,0.91417,0.32135,-0.00866,0.33553,-0.28796
0.242,0.91825,0.31343,0.32798,0.89036,-0.41148
0.23697,0.91888,0.31542,0.20637,0.81871,-0.10528
0.22766,0.91489,0.33337,0.00737,-0.68299,-0.19999
0.22637,0.91542,0.33279,0.16009,-1.17595,-0.46802
0.23838,0.91852,0.31541,-0.09323,-0.34363,-0.57939
0.25097,0.92194,0.29502,-0.32328,0.94353,-0.39953
0.25463,0.92435,0.2841,-0.17611,0.70271,-0.31912
0.25945,0.92558,0.27562,0.0055,-0.09964,0.10055
0.26338,0.92773,0.26445,0.04173,-0.2053,-0.00342
0.27057,0.92956,0.25038,0.02117,-0.17608,-0.22203
0.28181,0.93078,0.23284,-0.10303,-0.01136,-0.10832
0.29062,0.93262,0.21386,-0.11376,0.06138,-0.06033
0.29416,0.93543,0.19601,-0.06729,0.13703,-0.08859
0.29516,0.938,0.1817,-0.05693,-0.0741,0.00614
0.29586,0.93961,0.17197,-0.07765,-0.11427,0.01005
0.29729,0.94021,0.16616,-0.1621,-0.1285,0.04699
0.29818,0.94072,0.16161,-0.35042,-0.02846,0.04734
0.29517,0.94269,0.15555,-0.40597,-0.00867,0.06786
0.28608,0.94608,0.15187,-0.38877,0.10833,0.05206
0.27095,0.9501,0.15454,-0.20091,-0.17456,-0.03776
0.25371,0.95284,0.16647,-0.14925,-0.30837,0.22185
0.2442,0.95183,0.18537,0.08378,-0.5962,0.31502
0.24165,0.95014,0.19704,0.07434,-0.31934,-0.3831
0.24255,0.94782,0.20685,0.05463,-0.13161,-0.34915
0.24415,0.94409,0.22152,-0.20961,0.37064,0.06132
0.24478,0.94146,0.23178,-0.26974,0.30184,0.07564
0.24264,0.93997,0.23994,-0.27891,0.11971,0.11841
0.23942,0.93781,0.25134,-0.30366,0.13885,0.0675
0.23628,0.93385,0.26849,-0.30435,0.20992,-0.04201
0.2315,0.92489,0.30162,-0.39759,0.31538,-0.00121
0.22119,0.9086,0.35426,-0.06508,0.12178,-0.11644
0.21141,0.88356,0.41786,0.11015,0.05827,-0.3805
0.21,0.85305,0.47769,0.38218,-0.11097,-0.43376
0.20911,0.82417,0.52629,0.29757,-0.3264,-0.21953
0.20197,0.80604,0.55631,0.03826,-0.21907,-0.14182
0.18693,0.80104,0.56866,0.02514,-0.08205,-0.24146
0.17275,0.8036,0.56953,-0.01847,0.00498,-0.29118
0.15539,0.81157,0.56319,0.15255,-0.15146,-0.43787
0.1386,0.82445,0.54868,0.18268,-0.30707,-0.32637
0.13632,0.84355,0.51945,0.08408,-0.2086,-0.07263
0.15288,0.86294,0.48161,-0.03206,-0.20174,0.10833
0.18201,0.8797,0.43929,-0.20382,-0.22334,0.32287
0.20955,0.89394,0.39617,-0.19986,-0.16567,0.01564
0.22291,0.90684,0.35767,-0.00132,-0.03305,-0.13362
0.2301,0.91529,0.33059,0.29649,0.37201,0.05392
0.24327,0.91957,0.30854,0.26801,0.25855,0.20765
0.25544,0.92538,0.27999,-0.05052,-0.0714,0.09287
0.25831,0.93362,0.2482,-0.11548,0.08392,0.23776
0.24789,0.94206,0.22593,0.22046,0.09364,-0.6439
0.23489,0.95027,0.20445,0.28173,0.00345,-0.46916
0.22721,0.95261,0.20219,0.05956,-0.03742,-0.00044
0.22184,0.95083,0.21607,-0.11933,0.04303,0.57289
0.20992,0.95118,0.22623,0.18445,0.38171,-0.04081
0.19628,0.95361,0.22822,0.19683,0.83272,-0.26707
0.17044,0.95587,0.23927,-0.69424,0.5934,-0.06157
0.1406,0.95451,0.26293,-0.23238,-0.57766,-0.0272
0.13387,0.95152,0.27691,-0.00061,-0.78878,-0.3196
0.14348,0.94884,0.28123,0.04308,0.24496,-0.12508
0.15797,0.94479,0.28706,0.10542,0.82701,0.12949
0.16039,0.94531,0.28398,0.00232,0.60727,0.06644
0.1577,0.94581,0.28381,0.03479,-0.11737,0.16018
0.16092,0.94536,0.28352,-0.15517,-0.02434,0.1332
0.1677,0.94475,0.2816,-0.25227,0.03802,0.13503
0.17291,0.94431,0.27994,-0.29266,0.08996,0.1593
0.17295,0.94412,0.28055,-0.34624,0.17053,0.04507
0.17126,0.9418,0.28925,-0.33427,0.20467,-0.07248
0.16645,0.93707,0.30689,-0.31179,-0.03593,-0.22461
0.15844,0.92772,0.33796,-0.15226,0.14937,-0.00595
0.14638,0.91254,0.38186,-0.01781,0.22674,-0.03401
0.13217,0.89126,0.43379,0.21166,0.20211,-0.05676
0.12136,0.86472,0.48736,0.33919,-0.14784,-0.23322
0.11966,0.83517,0.5368,0.29887,-0.19523,-0.123
0.12176,0.81076,0.57256,0.36927,-0.02295,0.19543
0.11384,0.7999,0.58922,0.20092,0.33489,-0.07643
0.10135,0.79812,0.5939,0.21584,0.27256,-0.14733
0.0923,0.79685,0.59707,0.26526,-0.00574,-0.23296
0.08235,0.80018,0.59406,0.28464,-0.44407,-0.23458
0.07004,0.8106,0.58138,0.2926,-0.52639,-0.22205
0.0655,0.8257,0.56028,-0.01424,-0.48044,-0.17494
0.07498,0.84312,0.53245,-0.11985,-0.47699,-0.04246
0.09382,0.8624,0.49744,-0.29647,-0.54036,0.02711
0.11707,0.88305,0.45443,-0.35079,-0.43149,-0.05157
0.14673,0.90037,0.40962,-0.35973,-0.25379,-0.11124
0.18136,0.91394,0.36305,0.01233,0.34928,-0.25982
0.20901,0.92425,0.31946,0.18242,0.569,-0.06253
0.22839,0.93373,0.27563,0.22867,0.55175,0.18121
0.23752,0.94244,0.23532,0.09127,-0.15953,0.34733
0.23472,0.95102,0.20115,0.14915,-0.41308,0.32665
0.23039,0.95792,0.17114,-0.01035,-0.27837,0.18863
0.22593,0.9618,0.15454,0.23589,-0.06557,-0.65734
0.22481,0.96219,0.15374,0.13723,0.01768,0.23182
0.22611,0.9574,0.17958,-0.47681,0.31578,0.48805
0.20816,0.95891,0.19274,-0.29245,0.81368,0.42778
0.17642,0.96211,0.20787,-0.19246,1.78336,-0.27018
0.14439,0.96217,0.23099,-0.31045,0.16301,-0.52158
0.11729,0.95913,0.2575,-0.05528,-0.58622,-0.2873
0.10798,0.95828,0.26462,0.23789,-1.06099,-0.42901
0.11323,0.95979,0.25685,0.24194,-0.53126,-0.29632
0.13106,0.95871,0.25234,-0.04431,1.04016,0.3341
0.13263,0.95908,0.2501,-0.04152,0.20216,0.20889
0.13059,0.95875,0.25244,0.11769,-0.19722,0.1791
0.13422,0.95629,0.25977,0.15804,-0.44073,0.19185
0.1453,0.9538,0.26293,-0.13337,-0.27216,0.08637
0.15667,0.95174,0.26389,-0.37043,0.25348,0.05882
0.1647,0.94977,0.26608,-0.37064,0.32031,0.0842
0.16757,0.94743,0.27254,-0.32576,0.22101,-0.13717
0.16527,0.94225,0.29126,-0.39417,0.26487,-0.00201
0.15604,0.9325,0.32571,-0.35405,0.33087,0.01768
0.13935,0.91753,0.37242,-0.07301,0.41516,-0.02409
0.11824,0.89582,0.42838,0.37686,0.13943,-0.29857
0.09921,0.86778,0.48693,0.424,-0.02529,-0.39008
0.09003,0.83826,0.53777,0.21077,-0.29187,-0.35317
0.08719,0.81463,0.57336,0.09681,-0.31967,0.11841
0.07194,0.80128,0.59393,0.24644,0.11123,0.05975
0.05129,0.79985,0.59798,0.31629,0.26698,0.01455
0.03532,0.80372,0.59394,0.14498,0.13105,-0.26234
0.0313,0.8073,0.5893,0.16308,-0.22974,-0.27959
0.03366,0.81465,0.57896,0.22688,-0.46865,-0.14017
0.04193,0.82783,0.55939,0.13601,-0.59661,-0.17309
0.06052,0.84398,0.53294,0.05208,-0.58882,-0.11991
0.08683,0.86008,0.5027,-0.14127,-0.55166,0.05284
0.11579,0.87641,0.46742,-0.15513,-0.48494,0.04081
0.15124,0.89171,0.42656,-0.10499,-0.36577,-0.09529
0.19689,0.90243,0.3832,0.15383,0.5713,-0.45177
0.24074,0.90964,0.33851,0.12706,0.55956,-0.08207
0.26809,0.91733,0.29431,0.13329,0.41464,0.30337
0.2773,0.92623,0.25531,0.01334,-0.16844,0.48865
0.26596,0.93793,0.22258,-0.10532,-0.248,0.26193
0.24228,0.95006,0.19666,-0.29549,-0.30579,-0.27103
0.21941,0.96065,0.17031,0.05454,0.00269,0.30236
0.21263,0.96253,0.16825,-0.13624,0.24442,0.86278
0.20532,0.95927,0.19401,-0.20594,0.62231,0.53276
0.18521,0.96347,0.19345,0.2804,1.40857,0.08604
0.1601,0.96599,0.20304,-0.32479,0.97962,-0.15534
0.12429,0.9637,0.23626,-0.03234,-0.56053,0.04444
0.10916,0.95994,0.25804,0.10938,-0.71284,-0.37976
0.10948,0.95778,0.26582,-0.12063,-0.22139,-0.19369
0.12347,0.95543,0.26813,-0.13473,0.44848,-0.04536
0.13608,0.95682,0.25682,-0.20333,0.55914,0.05892
0.14122,0.95892,0.246,-0.10768,0.54999,0.34485
0.14131,0.96189,0.23408,-0.20263,0.27197,0.22315
0.13803,0.96366,0.22868,-0.26438,-0.20104,0.03391
0.13747,0.96211,0.23542,-0.26725,-0.2599,0.20557
0.13683,0.95728,0.25473,-0.13956,-0.19211,0.09569
0.132,0.94797,0.28969,0.00108,-0.06476,0.07584
0.12131,0.93191,0.34177,0.09123,0.03974,-0.13421
0.11035,0.90868,0.40264,0.14528,0.15988,-0.32382
0.10642,0.87797,0.46672,0.20864,0.18822,-0.4259
0.10375,0.84562,0.5236,0.14946,-0.18021,-0.08565
0.10363,0.82014,0.56268,0.10437,-0.16323,-0.05573
0.09767,0.80306,0.58783,0.006,0.0047,-0.10768
0.08246,0.79459,0.6015,0.36451,0.11309,0.00691
0.05905,0.79793,0.59984,0.36361,0.083,-0.13418
0.04419,0.80683,0.58911,0.27062,-0.12938,-0.28745
0.04347,0.81889,0.57229,0.16577,-0.42738,-0.13199
0.05242,0.83557,0.54687,0.14184,-0.4857,-0.03933
0.06802,0.8554,0.51347,0.01073,-0.60125,0.0598
0.09241,0.87475,0.47566,-0.2195,-0.54452,0.03297
0.12492,0.89224,0.43392,-0.30749,-0.25935,-0.07251
0.16537,0.90667,0.38806,-0.34697,0.41378,-0.32518
0.20672,0.9178,0.33897,0.21401,0.7761,-0.01918
0.23502,0.92795,0.28926,0.18993,0.40696,0.27374
0.24621,0.93727,0.24677,0.05988,-0.23884,0.44682
0.2345,0.94875,0.21183,-0.01472,-0.76128,0.12737
0.21841,0.95822,0.18465,-0.2004,-0.76605,0.3018
0.2065,0.96394,0.16782,0.22338,0.06557,-0.00521
0.20237,0.96513,0.16601,0.03225,0.4287,0.68259
0.2004,0.96047,0.19323,-0.25493,0.98126,0.92598
0.16926,0.96479,0.20129,-0.06889,1.83404,-0.0639
0.12502,0.96432,0.23332,-0.06139,1.0605,-0.19641
0.09828,0.95953,0.26388,0.15573,-0.65109,-0.15846
0.09085,0.95705,0.27529,0.00818,-0.96015,-0.54937
0.09699,0.95509,0.27996,-0.00873,0.02716,-0.04181
0.11742,0.9545,0.2741,-0.07349,0.81106,0.20979
0.12194,0.95567,0.26798,-0.21261,0.9607,0.30229
0.11577,0.95936,0.25732,-0.03241,0.03669,0.18719
0.11271,0.96084,0.25311,0.06766,-0.25164,0.16916
0.11376,0.96071,0.25314,-0.30695,-0.32295,0.12122
0.11836,0.95755,0.26283,-0.46743,0.03801,0.14157
0.11552,0.9496,0.29136,-0.40211,0.17274,0.1453
0.10242,0.93488,0.33986,0.14909,0.03978,-0.10992
0.08579,0.91382,0.39693,0.24357,0.06653,-0.2262
0.07329,0.88556,0.45869,0.27969,0.11775,-0.36238
0.06553,0.85472,0.51491,0.30536,-0.12273,-0.39669
0.06473,0.82635,0.55941,0.12333,-0.24286,-0.04534
0.05563,0.80787,0.58672,-0.17077,-0.07238,-0.12232
0.04638,0.79814,0.60067,0.17899,0.08521,-0.10809
0.03312,0.79697,0.6031,0.35447,0.12335,-0.19268
0.02287,0.80461,0.59335,0.31133,-0.00788,-0.15965
0.02568,0.8181,0.57449,0.29827,-0.24104,-0.01841
0.03674,0.83748,0.54522,0.19441,-0.35254,0.08164
0.05102,0.85891,0.50956,0.17435,-0.60822,0.09133
0.07052,0.87911,0.47136,-0.01861,-0.79963,0.01969
0.09972,0.89617,0.43235,-0.25692,0.18377,-0.32311
0.14251,0.90838,0.39309,-0.19196,0.49517,-0.29229
0.18951,0.91497,0.35622,0.1441,0.85152,-0.15325
0.22722,0.92126,0.31566,0.36142,0.19122,0.31448
0.25238,0.92769,0.27512,0.36771,-0.06564,0.39419
0.26427,0.93361,0.2419,0.24748,-0.2955,0.45429
0.26172,0.94077,0.21552,-0.0947,-0.48201,0.50038
0.25204,0.94789,0.19487,-0.40254,-0.6011,0.21712
0.23775,0.954,0.18263,-0.46085,-0.56702,-0.99501
0.23093,0.958,0.16996,-0.02021,0.06739,0.1145
0.23292,0.95481,0.18457,-0.20581,0.38704,0.50885
0.21995,0.9559,0.19458,-0.24254,0.67897,0.10192
0.19352,0.95865,0.20861,0.0411,1.65577,0.62918
0.16837,0.95413,0.24753,-0.36182,0.89102,-0.07307
0.14757,0.95203,0.26803,-0.02084,-0.57005,-0.40086
0.14314,0.94815,0.28374,0.02438,-0.75932,-0.54589
0.14939,0.94485,0.29143,-0.05148,-0.35784,-0.33879
0.16537,0.94317,0.28823,-0.27212,0.55131,0.36201
0.16476,0.94516,0.28199,-0.22173,0.40538,0.37891
0.16123,0.94833,0.27325,0.19505,0.0106,0.02841
0.16513,0.94936,0.26726,0.06099,-0.3527,0.15342
0.17087,0.95032,0.26017,-0.43615,-0.15106,0.17582
0.17812,0.94966,0.2577,-0.56583,0.29308,0.22228
0.18652,0.94746,0.25985,-0.4561,0.4947,0.00564
0.19508,0.94377,0.26688,-0.47566,0.23419,-0.08062
0.20622,0.93931,0.27415,-0.52647,0.16904,-0.16987
0.21728,0.93302,0.28679,-0.10296,0.18583,0.17706
0.22211,0.92487,0.30867,0.11163,0.13818,0.18297
0.21771,0.91581,0.33747,0.28735,0.16487,0.11915
0.20361,0.90589,0.37135,0.38727,0.17828,-0.10139
0.18303,0.89762,0.40096,0.19078,0.24615,-0.44733
0.16148,0.88915,0.42816,0.06725,0.44556,-0.55839
0.142,0.88126,0.45079,-0.28523,0.88487,-0.15677
0.12361,0.88015,0.45831,-0.25252,0.473,-0.16224
0.10676,0.88517,0.45284,-0.1137,0.33805,-0.14413
0.0953,0.8931,0.43963,0.01828,0.13796,-0.1607
0.0873,0.90245,0.42183,0.10712,0.01098,-0.31746
0.08488,0.9104,0.40491,0.13146,-0.08252,-0.38264
0.09242,0.913,0.39733,0.05692,-0.22898,-0.45447
0.11227,0.91157,0.3955,0.21085,-0.29455,-0.23337
0.13526,0.9091,0.39399,0.18786,-0.29208,-0.23187
0.15602,0.90776,0.38938,0.28543,-0.16014,0.03637
0.17482,0.90775,0.38133,0.23474,-0.11515,0.00667
0.19346,0.90699,0.37407,0.10929,-0.0532,-0.02445
0.21071,0.90491,0.36977,0.09398,-0.02198,-0.02063
0.22508,0.90283,0.36637,0.07411,0.08364,0.05079
0.23748,0.90061,0.364,0.01913,0.14173,0.15104
0.24892,0.89735,0.36439,-0.10454,0.11812,0.23537
0.25656,0.8949,0.36513,-0.30174,-0.0324,0.2559
0.26539,0.89386,0.36136,-0.39373,-0.05004,0.23874
0.2757,0.89456,0.35177,-0.42984,0.06035,0.16914
0.28195,0.89616,0.34264,-0.45008,0.23337,0.15146
0.28249,0.89842,0.33621,-0.43924,0.30448,0.06359
0.27721,0.9019,0.33125,-0.31463,0.14192,0.09389
0.26912,0.90672,0.3247,-0.19429,-0.16055,0.16917
0.26101,0.91348,0.31211,0.03475,-0.24796,0.0357
0.25516,0.92086,0.29478,0.35781,0.0129,-0.20937
0.25122,0.92781,0.27578,0.36362,0.4285,-0.14991
0.24944,0.93256,0.26095,0.25367,0.50515,0.06982
0.24996,0.93205,0.26229,0.02972,0.40648,0.41459
0.25023,0.92763,0.27725,-0.11585,-0.48713,-0.10631
0.24735,0.92364,0.29275,-0.06839,-0.7539,-0.49864
0.25078,0.92548,0.28387,-0.02619,-0.45706,-0.92739
0.26543,0.92783,0.26203,-0.14088,0.05141,-0.69264
0.26633,0.93215,0.24528,-1.00521,0.88781,-0.13267
0.25416,0.93703,0.23953,-0.27097,0.34552,-0.1987
0.24256,0.94168,0.23323,-0.03085,0.14984,-0.04872
0.23913,0.94659,0.21628,0.24389,-0.18775,-0.08277
0.2492,0.94705,0.20245,0.20063,0.13106,-0.11131
0.26309,0.94553,0.19171,0.17129,0.20187,-0.18104
0.27403,0.94452,0.18105,0.2154,-0.03565,-0.18108
0.28312,0.94462,0.16592,0.21417,-0.13098,-0.03334
0.29288,0.94481,0.14677,0.02355,0.00113,-0.04518
0.30102,0.94507,0.12736,-0.13414,0.11645,-0.15467
0.30684,0.9456,0.1081,-0.14626,0.0674,-0.14749
0.31287,0.94547,0.09047,-0.08094,-0.03492,-0.02928
0.31952,0.94464,0.07451,-0.05479,-0.08881,0.04446
0.32681,0.94319,0.05983,-0.07469,-0.07541,0.08194
0.33436,0.94142,0.04398,-0.08975,-0.05079,0.08656
0.34186,0.93936,0.02696,-0.10299,-0.00665,0.10335
0.34933,0.93694,0.01002,-0.18556,0.0927,0.21848
0.35548,0.93467,-0.00525,-0.2035,0.14892,0.24815
0.35839,0.93337,-0.01946,-0.21183,0.16592,0.26434
0.35791,0.93321,-0.03191,-0.25284,0.19607,0.21091
0.35412,0.93433,-0.04012,-0.20471,0.1196,0.11736
0.34763,0.93663,-0.04317,-0.13457,0.10835,0.14512
0.34456,0.93782,-0.042,-0.20658,0.32652,0.19353
0.33981,0.94,-0.03031,-0.28541,0.35437,0.14309
0.33229,0.94315,-0.00733,-0.3083,0.40605,0.07854
0.32091,0.94661,0.03073,-0.18335,0.44809,0.05654
0.30802,0.94805,0.0795,0.05395,0.25207,0.29781
0.29505,0.94529,0.13917,0.02348,0.1719,0.08251
0.28042,0.93919,0.19819,0.11763,0.13383,-0.42309
0.26214,0.9324,0.24882,0.05222,0.25204,-0.26011
0.23943,0.92656,0.29008,-0.06354,0.33107,-0.24406
0.21558,0.9221,0.32132,-0.19434,0.41779,-0.20115
0.19172,0.91753,0.34839,-0.04644,0.28661,-0.32761
0.17128,0.91239,0.37175,0.01669,0.14573,-0.41704
0.15587,0.90555,0.39456,0.08712,-0.10962,-0.45208
0.1448,0.89796,0.41556,0.07975,-0.19537,-0.34049
0.13497,0.89144,0.43257,0.06052,-0.22144,-0.27088
0.12694,0.88695,0.44406,0.07857,-0.1946,-0.25584
0.12154,0.88555,0.44836,0.10543,-0.16387,-0.33669
0.12197,0.8858,0.44774,0.1206,-0.11361,-0.41327
0.12851,0.88641,0.44469,0.14129,-0.20799,-0.36643
0.13955,0.88728,0.4396,0.13468,-0.32329,-0.15568
0.15109,0.89034,0.42948,0.0905,-0.31779,-0.09809
0.16169,0.89662,0.41221,0.07264,-0.22482,0.00065
0.17139,0.90472,0.38999,-0.05214,0.07331,0.04296
0.18205,0.91197,0.36765,-0.11038,0.15053,0.06552
0.19537,0.91691,0.34799,-0.1746,0.19054,0.15937
0.21359,0.91727,0.33613,0.00368,0.14419,0.30042
0.2311,0.9149,0.33098,0.04253,0.18252,0.33211
0.23329,0.91536,0.32813,-0.08171,-0.16416,0.23655
0.22524,0.91843,0.32519,-0.05616,-0.28035,0.16838
0.21573,0.92256,0.3199,-0.04577,-0.22732,-0.03604
0.20782,0.92651,0.31365,-0.12736,-0.01973,-0.26438
0.19882,0.93244,0.30169,-0.18337,0.02598,-0.47033
0.19264,0.94184,0.27537,-0.00549,0.30382,-0.19832
0.18793,0.94365,0.2724,0.07983,0.43932,0.07991
0.1844,0.93773,0.29436,0.26448,0.37207,-0.03187
0.19236,0.93665,0.29271,0.35115,-0.44217,-0.38943
0.20383,0.94037,0.2723,0.17307,-0.09166,-0.18885
0.2114,0.94381,0.254,-0.04289,0.30666,-0.41281
0.21663,0.94585,0.24172,-0.12282,0.23558,-0.25867
0.22187,0.94676,0.23324,-0.1091,0.01072,0.01799
0.22711,0.94817,0.22221,-0.08275,0.01455,-0.05985
0.23346,0.94957,0.2093,-0.12637,0.00156,-0.21258
0.24407,0.94873,0.20083,-0.09061,0.00044,-0.00075
0.25307,0.94868,0.18963,-0.06081,0.00709,-0.03687
0.26149,0.94875,0.17743,-0.05606,0.02011,-0.02765
0.26725,0.94937,0.16511,-0.0427,-0.04279,0.04436
0.2698,0.95045,0.15444,-0.04409,-0.12406,0.03216
0.27068,0.95136,0.1471,-0.05095,-0.1384,0.07269
0.27058,0.95238,0.14051,-0.09501,-0.04359,0.15795
0.26966,0.95308,0.13752,-0.19812,-0.05684,0.03269
0.26798,0.95284,0.14238,-0.15839,-0.05903,0.11317
0.26807,0.95182,0.14888,-0.18864,-0.05546,0.17854
0.26502,0.9508,0.16042,-0.17508,-0.14152,-0.02834
0.2583,0.95002,0.1753,-0.11448,-0.29228,0.04224
0.24956,0.94879,0.19368,-0.13076,-0.34945,0.08815
0.23964,0.94704,0.21372,0.03708,-0.45111,-0.12077
0.23169,0.94544,0.22901,0.01925,-0.44877,-0.13583
0.22511,0.94336,0.24369,-0.06471,-0.28551,-0.07438
0.22081,0.94128,0.2554,-0.16458,0.04231,-0.01861
0.2163,0.94041,0.26235,-0.23272,0.16948,-0.20767
0.2132,0.93858,0.2713,-0.35685,0.30045,0.02681
0.2096,0.9357,0.28377,-0.36644,0.45549,-0.0462
0.20997,0.93035,0.30059,-0.24288,0.60188,0.10224
0.20917,0.9219,0.3261,-0.09769,0.69189,0.19835
0.2012,0.90912,0.36471,0.06625,0.56139,0.22414
0.18713,0.88998,0.41581,0.19289,0.48789,0.11666
0.17482,0.86845,0.46391,0.43211,0.16698,-0.28289
0.16817,0.84715,0.50402,0.39253,-0.22303,-0.32524
0.16558,0.83043,0.53194,0.2866,-0.23708,-0.09544
0.15409,0.82317,0.54647,0.07568,0.08239,-0.07199
0.13875,0.82635,0.54579,0.16312,0.09062,-0.15832
0.12297,0.83527,0.5359,0.19679,-0.02944,-0.21555
0.11197,0.84798,0.51806,0.2818,-0.43126,-0.40186
0.10849,0.86179,0.49551,0.29351,-0.563,-0.36085
0.11093,0.87582,0.4697,0.01008,-0.58064,-0.10992
0.12125,0.88909,0.44136,-0.22007,-0.54594,0.21211
0.13775,0.90146,0.41035,-0.28626,-0.5448,0.32366
0.16133,0.91163,0.37801,-0.1496,-0.0627,0.04708
0.18793,0.91907,0.34638,0.07188,0.29436,-0.15624
0.20749,0.92403,0.3211,0.25757,0.26002,-0.08248
0.21683,0.93038,0.29557,0.20034,-0.10572,0.03011
0.21701,0.93879,0.26754,0.20783,-0.22374,-0.00809
0.20731,0.94866,0.23884,0.26268,-0.15563,-0.11677
0.20188,0.95681,0.20915,0.17348,-0.08334,0.14129
0.20316,0.96177,0.18359,-0.38901,-0.08607,0.13382
0.20508,0.96464,0.16552,-0.42113,-0.0794,-0.00863
0.20286,0.9669,0.15476,-0.31732,-0.02258,-0.21336
0.19812,0.9692,0.14622,0.02653,0.05321,-0.17524
0.19093,0.97011,0.14972,-0.24781,0.03539,0.72929
0.17377,0.97188,0.1589,-0.3712,-0.00334,0.84004
0.15097,0.97443,0.1664,-0.01453,0.50029,-0.30884
0.12263,0.97414,0.18972,-0.17097,1.65832,0.7263
0.09448,0.9717,0.21647,-0.22939,1.27569,0.38317
0.07215,0.97278,0.22017,0.33196,-0.69802,-0.4472
0.06175,0.9702,0.23427,0.34477,-0.97815,-0.23781
0.07015,0.96902,0.23678,0.27277,-0.13739,0.22797
0.08546,0.9686,0.23343,-0.06333,0.92629,0.4564
0.085,0.969,0.23195,-0.03504,0.85772,0.21818
0.07903,0.96858,0.23577,0.0969,-0.13622,0.33445
0.07898,0.96669,0.24346,-0.12092,-0.32656,0.03885
0.08386,0.96368,0.25354,-0.45243,0.03835,0.12694
0.08957,0.96022,0.26447,-0.51662,0.17917,0.06476
0.09379,0.95672,0.27547,-0.40822,0.29554,-0.17159
0.09313,0.9499,0.29834,-0.31841,0.20934,-0.04831
0.0869,0.93723,0.33769,-0.21347,0.34853,-0.02744
0.0706,0.91776,0.39078,0.17266,0.35519,-0.01472
0.04989,0.8929,0.44746,0.62661,-0.13467,-0.33059
0.03344,0.8642,0.50201,0.62887,-0.27163,-0.38829
0.03142,0.83553,0.54853,0.25205,-0.56496,-0.21245
0.0317,0.81486,0.57878,0.14495,-0.14779,0.02714
0.02607,0.8032,0.59513,0.33756,0.13525,0.1024
0.01234,0.80263,0.59634,0.58005,0.38696,-0.01983
0.00123,0.80453,0.59391,0.30696,-0.00959,-0.24703
0.00023,0.8081,0.58903,0.3161,-0.24267,-0.21269
0.00461,0.81692,0.57672,0.28302,-0.51898,-0.10632
0.01651,0.83132,0.55553,0.14984,-0.50567,0.02568
0.04138,0.84907,0.52665,0.08253,-0.49873,0.10792
0.07728,0.86808,0.49036,-0.19567,-0.34799,0.08539
0.11997,0.88511,0.44964,-0.20603,-0.17789,0.0522
0.16434,0.89899,0.40596,-0.01812,0.38342,-0.34137
0.20055,0.90998,0.36291,0.07235,0.31228,-0.19129
0.22166,0.92147,0.31897,0.15961,-0.03514,0.07146
0.23527,0.9318,0.27638,0.14245,-0.14487,0.14821
0.23997,0.94037,0.24107,0.12462,-0.07443,0.29009
0.23233,0.94881,0.21395,0.09974,-0.18674,0.57725
0.21445,0.95524,0.20378,-0.0053,-0.23186,0.36867
0.19817,0.96127,0.1915,0.1536,-0.40716,-0.52238
0.19576,0.96031,0.19869,-0.23123,0.23748,0.37606
0.18265,0.96038,0.21049,-0.51515,0.58975,0.21801
0.15346,0.96603,0.2079,-0.0472,0.94112,-0.19084
0.12525,0.96531,0.22909,-0.08629,1.23405,0.64127
0.10271,0.96058,0.2583,-0.0798,0.34829,0.34411
0.095,0.95834,0.26935,0.15002,-0.81666,-0.7366
0.1049,0.95508,0.27714,-0.02837,-0.70523,-0.12736
0.12568,0.95321,0.27491,-0.11391,-0.07408,0.25724
0.13327,0.95542,0.26345,-0.35665,1.36362,0.20619
0.12489,0.9606,0.24826,-0.24189,0.32989,-0.06817
0.11725,0.96312,0.24218,-0.10443,-0.11564,-0.00446
0.11779,0.96331,0.24114,-0.19755,-0.23025,0.40869
0.11994,0.96371,0.23848,-0.25529,0.0001,0.1532
0.11905,0.96191,0.24608,-0.10513,0.00413,0.11527
0.11517,0.9564,0.26838,0.10112,-0.11773,0.15824
0.10693,0.9463,0.30507,0.07863,-0.14708,-0.03341
0.09597,0.92959,0.35587,0.06673,0.08126,-0.27302
0.08793,0.90442,0.41746,0.11707,0.22606,-0.25731
0.08513,0.87248,0.48116,0.23569,0.22264,-0.2293
0.08181,0.84239,0.5326,0.22208,0.03956,-0.34686
0.08283,0.81841,0.56863,0.16033,-0.02207,0.06443
0.07222,0.8021,0.5928,0.29108,0.22331,0.11121
0.05276,0.79704,0.6016,0.37789,0.23796,0.00158
0.03495,0.79982,0.59921,0.23217,0.07032,-0.29115
0.02868,0.8062,0.59093,0.15812,-0.33411,-0.27654
0.02796,0.81842,0.57393,0.12417,-0.55612,-0.12522
0.03314,0.83452,0.54997,0.06136,-0.62589,-0.14347
0.04676,0.85105,0.52298,-0.05481,-0.66972,-0.0674
0.0665,0.86983,0.48884,-0.06906,-0.64847,0.03356
0.09653,0.8902,0.44522,-0.1106,-0.23642,-0.05855
0.14331,0.90643,0.39727,0.08495,0.45859,-0.29606
0.19009,0.91753,0.34928,0.12569,0.54593,-0.31998
0.22088,0.92679,0.30376,0.17904,0.30695,-0.07299
0.23494,0.93583,0.2627,0.14882,-0.17219,0.27423
0.23797,0.94295,0.23283,0.14952,-0.27348,0.4047
0.22916,0.95066,0.20911,0.06646,-0.30497,0.47514
0.21368,0.9564,0.19908,-0.18482,-0.38579,0.4472
0.18496,0.96198,0.20091,0.04821,-0.53465,-0.65333
0.168,0.96437,0.20436,0.11031,-0.1733,0.42798
0.1632,0.95766,0.23715,-0.31649,0.48645,0.61193
0.13083,0.95972,0.24861,-0.77722,1.65028,0.15163
0.09538,0.96004,0.2631,-0.3061,0.57793,-0.0097
0.06953,0.95414,0.29114,0.14539,-0.4812,-0.01656
0.06038,0.95304,0.29675,0.22867,-0.58705,-0.42262
0.06524,0.95432,0.29155,0.24596,-0.08301,-0.28067
0.08236,0.95625,0.28068,0.2328,0.36053,0.36439
0.09452,0.95564,0.27895,0.20495,0.72536,0.63273
0.0974,0.95712,0.2728,0.07899,0.35576,0.05694
0.10043,0.9571,0.27178,0.0435,-0.01981,0.10499
0.10711,0.95504,0.27642,-0.35076,-0.15887,0.42466
0.11284,0.95337,0.2799,-0.46483,-0.04004,0.09366
0.11736,0.94886,0.29305,-0.33717,-0.04581,0.00013
0.11769,0.93999,0.32025,-0.26951,-0.0757,-0.03597
0.11235,0.92539,0.36196,-0.07155,-0.04815,-0.04879
0.10406,0.90582,0.41066,-0.03855,0.02418,-0.35319
0.10028,0.88122,0.46194,0.07669,-0.00034,-0.44571
0.10223,0.85386,0.51035,0.27146,-0.17016,-0.5044
0.10779,0.82854,0.54944,0.24454,-0.15941,-0.0457
0.10592,0.81024,0.57643,0.30354,0.10536,-0.06478
0.09269,0.80205,0.59001,0.62027,0.51198,0.19787
0.06805,0.80585,0.58818,0.27817,0.22519,-0.13692
0.04938,0.81517,0.5771,0.2352,-0.02299,-0.23742
0.04388,0.82488,0.56358,0.08087,-0.35867,-0.19292
0.04416,0.8384,0.54325,0.03561,-0.43431,-0.16692
0.05035,0.85451,0.51697,0.03049,-0.50893,-0.07211
0.06521,0.87038,0.48802,-0.0337,-0.51067,0.15977
0.09136,0.88639,0.45382,-0.1358,-0.35938,0.30699
0.13095,0.90172,0.412,-0.11471,0.02901,0.09244
0.17624,0.91315,0.36754,0.05487,0.35178,-0.42602
0.21564,0.91893,0.33023,0.03941,0.23477,-0.04056
0.24117,0.92442,0.29541,0.00143,0.09473,0.16098
0.25255,0.93022,0.26626,0.03753,-0.16234,0.37988
0.2521,0.93799,0.23793,0.14782,-0.42642,0.49603
0.24637,0.94432,0.21808,-0.17334,-0.32066,0.27476
0.23112,0.9498,0.21081,-0.34148,-0.40699,-0.72219
0.22628,0.95428,0.19527,0.24788,-0.23761,0.06523
0.22828,0.94993,0.21334,0.09498,0.1768,0.57649
0.20993,0.95203,0.2226,-0.26102,1.2808,0.0525
0.1753,0.95837,0.22534,-0.24143,1.44995,0.3632
0.13947,0.95728,0.2533,-0.39882,0.66557,0.06319
0.12026,0.95498,0.27119,0.12843,-0.74166,-0.58441
0.12103,0.9512,0.28382,0.01804,-0.76817,-0.49576
0.13714,0.94553,0.29522,0.0015,-0.59485,-0.17318
0.15951,0.9434,0.29077,-0.00017,1.0574,0.27978
0.16714,0.94598,0.2778,-0.05837,1.03968,0.42114
0.16126,0.95014,0.26687,-0.10975,0.53218,0.37836
0.15729,0.95298,0.259,-0.22422,-0.32093,0.18793
0.16218,0.95149,0.26144,-0.36743,-0.28799,0.17358
0.1722,0.94536,0.27682,-0.39215,-0.13068,0.08879
0.18243,0.93458,0.30541,-0.16238,0.00109,-0.07564
0.19063,0.91607,0.35279,-0.06775,0.09467,-0.05189
0.19462,0.8932,0.40533,0.09549,0.12001,-0.29905
0.19866,0.86969,0.45185,0.25913,0.01511,-0.47205
0.19866,0.84808,0.4912,0.2314,-0.15961,-0.4737
0.1931,0.83406,0.51675,0.07883,-0.26573,-0.23264
0.18235,0.82599,0.53337,0.05149,0.0925,-0.08832
0.16671,0.82357,0.54214,0.05974,0.12145,-0.1071
0.1513,0.82653,0.54216,0.09767,0.17709,-0.10976
0.13711,0.83645,0.5306,0.22145,0.07354,-0.11779
0.13489,0.85119,0.50722,0.16681,-0.14145,-0.18682
0.14429,0.86585,0.47903,0.12832,-0.20211,-0.141
0.15761,0.8768,0.45427,-0.04802,-0.35375,-0.08012
0.16932,0.88581,0.43203,-0.10067,-0.52218,-0.1849
0.1816,0.8952,0.40696,-0.09771,-0.53641,-0.22285
0.20355,0.90325,0.37775,0.04451,-0.22416,-0.1112
0.23531,0.90783,0.34708,0.27473,0.26525,0.10278
0.26943,0.9094,0.31686,0.25941,0.34193,0.1813
0.29614,0.90791,0.29663,0.15263,0.38787,0.47594
0.30415,0.90529,0.29654,0.06213,0.38602,1.11992
0.27979,0.91022,0.3053,-0.23502,-0.00655,0.85457
0.24975,0.91695,0.31114,-0.34858,-0.40922,0.06545
0.23192,0.9205,0.31445,-0.31706,-0.33847,-0.08752
0.21704,0.9251,0.31156,0.05713,0.28201,-0.0936
0.20229,0.92625,0.31801,0.04111,0.68616,0.10673
0.18129,0.93116,0.31632,0.29381,-0.042,-0.86067
0.17384,0.93983,0.29409,0.42556,-0.3021,-0.26441
0.17086,0.93517,0.31026,0.10178,0.78552,0.2715
0.15868,0.93801,0.30813,-0.45294,1.49229,-0.68007
0.1466,0.94177,0.30258,0.08702,0.29785,-0.06473
0.1457,0.94224,0.30158,0.37957,-0.31924,-0.3241
0.15426,0.94642,0.28371,0.26881,0.20178,-0.59075
0.16744,0.9492,0.26639,0.18025,0.46141,-0.41078
0.18105,0.95085,0.2512,-0.05102,0.43271,0.05315
0.19114,0.95369,0.23221,-0.00909,0.24018,0.04678
0.20146,0.9559,0.21366,0.14345,-0.07378,-0.10602
0.21627,0.95531,0.20146,0.06792,-0.25162,-0.146
0.23535,0.953,0.19077,-0.03568,-0.21783,-0.08808
0.25273,0.95127,0.17666,-0.20776,-0.05869,-0.09008
0.26587,0.95067,0.15975,-0.15349,-0.12662,-0.03696
0.27598,0.95056,0.14234,-0.13781,-0.1566,-0.02312
0.28602,0.94995,0.12557,-0.15799,-0.16307,0.00573
0.29523,0.94891,0.11131,-0.19708,-0.13602,0.0289
0.30371,0.94755,0.0995,-0.13758,-0.04591,-0.00821
0.31226,0.94575,0.08971,-0.06638,0.05937,0.02674
0.3199,0.94407,0.0799,-0.0193,0.10734,0.1085
0.32594,0.94284,0.06938,-0.02343,0.12449,0.05512
0.32954,0.94239,0.05749,0.02412,0.09704,0.03062
0.33248,0.94213,0.04278,0.03836,0.03534,0.10395
0.33617,0.94126,0.03166,-0.09087,0.02991,0.05307
0.34035,0.93994,0.02591,-0.16124,0.27356,-0.00795
0.34452,0.93846,0.02428,-0.25404,0.31851,0.02731
0.34619,0.93761,0.03211,-0.21983,0.34997,0.07366
0.34397,0.93761,0.05071,-0.14896,0.41768,0.18887
0.34069,0.9365,0.08301,-0.07939,0.29692,0.25243
0.33702,0.93242,0.13037,0.02226,0.1436,0.21349
0.33078,0.92453,0.18924,0.06224,0.04428,0.00309
0.32101,0.9136,0.24956,0.05059,0.06345,-0.11073
0.30577,0.9019,0.30506,-0.1069,0.35191,-0.23906
0.28607,0.89132,0.35171,-0.21658,0.44433,-0.31828
0.26829,0.88271,0.38578,-0.38738,0.52911,-0.49374
0.25989,0.87501,0.4084,-0.26819,0.20351,-0.44757
0.25782,0.86783,0.42472,-0.15198,0.10185,-0.45103
0.25916,0.8611,0.43741,-0.03915,-0.07007,-0.40198
0.26404,0.85487,0.44661,-0.06892,-0.08536,-0.27272
0.26821,0.85131,0.45091,-0.05469,-0.07773,-0.29107
0.27017,0.85057,0.45114,-0.00188,-0.08699,-0.33564
0.27158,0.851,0.44948,0.04188,-0.04081,-0.54422
0.27415,0.85103,0.44784,0.02851,-0.0151,-0.55873
0.27864,0.85095,0.44523,0.01013,0.05796,-0.4519
0.28312,0.85183,0.44069,0.05064,0.12026,-0.19975
0.28801,0.85311,0.43502,0.06497,0.10917,-0.12813
0.29212,0.85376,0.43099,0.08772,0.08986,-0.02355
0.2935,0.85351,0.43053,0.02193,0.13942,-0.05255
0.29122,0.85248,0.43411,-0.00486,0.21032,-0.091
0.28635,0.85054,0.44109,-0.03934,0.15225,-0.11374
0.27974,0.8484,0.44938,-0.07487,0.08855,-0.14524
0.27349,0.84671,0.45635,-0.1545,0.00178,-0.21468
0.26911,0.84645,0.45944,-0.14648,0.0125,-0.29712
0.26596,0.8483,0.45787,-0.1128,0.00684,-0.24774
0.26247,0.85222,0.45256,-0.10226,-0.0014,-0.20599
0.25694,0.85784,0.44506,-0.07393,-0.02314,-0.09246
0.24803,0.86493,0.43629,-0.09092,-0.01839,-0.07208
0.23688,0.87281,0.4267,-0.09625,-0.02584,-0.07555
0.22817,0.87981,0.41696,-0.07225,0.03442,-0.0798
0.2245,0.88479,0.40832,-0.07687,0.03766,-0.06681
0.22608,0.88751,0.40149,-0.05761,0.05544,-0.03461
0.22987,0.8888,0.39645,-0.14976,0.02299,0.04879
0.23037,0.89067,0.39193,-0.17977,0.0514,0.08208
0.22564,0.89413,0.38678,-0.19506,0.0837,0.06593
0.2181,0.89811,0.38186,-0.25605,0.02978,0.00487
0.21107,0.9018,0.37707,-0.23936,-0.1244,-0.03354
0.20568,0.90714,0.36713,-0.19895,-0.21285,-0.05797
0.20408,0.91443,0.34951,-0.04292,-0.21789,-0.10431
0.2064,0.92319,0.32421,0.26153,0.18794,-0.08439
0.20783,0.93241,0.29565,0.50127,0.56492,0.07231
0.2089,0.93791,0.27688,0.52999,1.26681,0.14675
0.20892,0.93323,0.29226,0.54251,1.43657,0.2814
0.21099,0.92419,0.31835,0.07638,-0.66437,0.14408
0.21508,0.91993,0.3278,-0.05143,-1.39437,-0.55943
0.22282,0.92358,0.31198,0.07206,-0.72639,-0.65292
0.23623,0.92755,0.28952,-0.23592,-0.08322,-0.47405
0.24119,0.93188,0.27094,-0.7449,1.21117,-0.31136
0.22893,0.93473,0.27178,-0.74586,0.88351,-0.5896
0.21738,0.93579,0.27752,0.0299,0.1904,-0.41983
0.21526,0.93913,0.26774,0.33187,-0.4216,0.19369
0.23179,0.94093,0.24681,0.54386,-0.36668,0.28272
0.24527,0.94179,0.22991,0.26843,0.00072,-0.23279
0.25916,0.94178,0.21416,0.19432,0.00571,-0.38716
0.27228,0.94099,0.20099,0.04402,0.04559,-0.18108
0.28127,0.94126,0.18682,-0.09933,0.12252,-0.05563
0.28704,0.94267,0.17017,-0.14204,0.15632,-0.08727
0.28985,0.94478,0.15285,-0.15237,-0.02945,-0.08767
0.29058,0.94681,0.13822,-0.14141,-0.08095,-0.07895
0.29019,0.94845,0.12735,-0.12383,-0.13932,0.01502
0.28873,0.94983,0.12019,-0.17116,-0.12474,0.22455
0.28495,0.95158,0.11528,-0.21592,-0.10659,0.27243
0.27813,0.95372,0.1142,-0.27596,-0.05646,0.34248
0.26847,0.95577,0.12002,-0.19894,-0.23811,0.19564
0.25764,0.95664,0.13582,-0.13438,-0.30386,0.13701
0.24688,0.95585,0.15934,-0.10805,-0.35815,0.16617
0.23941,0.95444,0.1781,-0.10283,-0.36636,0.12743
0.23412,0.95428,0.18581,-0.17841,-0.28337,-0.49985
0.22915,0.95234,0.20128,-0.07199,-0.01706,0.11253
0.22962,0.94775,0.22142,-0.07245,-0.01246,0.09239
0.23246,0.94419,0.23334,-0.18656,0.25944,-0.0174
0.23082,0.94185,0.24419,-0.27032,0.08191,-0.00902
0.22918,0.93932,0.25521,-0.26028,0.03123,-0.03455
0.22531,0.93711,0.26653,-0.27038,-0.03822,-0.06272
0.22125,0.93381,0.28113,-0.25699,-0.08127,-0.07234
0.2145,0.92756,0.30594,-0.07518,0.25144,-0.13103
0.20352,0.91499,0.34837,0.1985,0.51708,0.26027
0.18774,0.89696,0.40024,0.37981,0.51592,0.07279
0.1674,0.87903,0.44639,0.33597,0.1665,-0.38151
0.14586,0.86239,0.48477,0.10985,-0.09108,-0.51355
0.1302,0.84605,0.51694,-0.04644,0.21944,0.16215
0.11062,0.83459,0.53964,-0.02686,0.89924,0.29589
0.09595,0.83104,0.54785,-0.12021,0.47343,-0.16811
0.08591,0.82863,0.55314,0.01964,-0.09893,-0.22006
0.0798,0.8286,0.5541,0.15401,-0.39542,-0.10247
0.07754,0.83197,0.54936,0.27627,-0.52193,-0.05587
0.07992,0.83929,0.53777,0.28339,-0.4701,-0.08542
0.08953,0.84999,0.51912,0.17675,-0.29043,-0.17214
0.10807,0.86206,0.49513,0.07598,-0.25682,-0.17114
0.13634,0.87377,0.46683,0.0225,-0.42476,-0.19405
0.1735,0.88322,0.43566,-0.12764,-0.54141,-0.26101
0.21502,0.88994,0.40219,-0.18505,-0.35244,-0.27273
0.25905,0.89456,0.36419,-0.0316,0.06575,-0.25088
0.30173,0.89615,0.32536,0.17843,0.43454,0.01145
0.33685,0.8963,0.28837,0.35869,0.5113,0.69132
0.35088,0.90039,0.25721,0.12798,0.01635,0.87378
0.34657,0.90862,0.23298,-0.09418,-0.53225,-0.35162
0.3411,0.91511,0.21496,-0.11262,-0.64535,-0.32521
0.3364,0.91916,0.20488,-0.36966,-0.73269,-0.22484
0.32928,0.92232,0.20222,-0.60402,0.10877,-0.45675
0.31057,0.92867,0.20274,-0.44198,0.3301,-0.23439
0.28724,0.93421,0.2115,-0.34332,0.60702,0.56467
0.25774,0.93995,0.2237,-0.00106,1.79374,0.27592
0.22553,0.9424,0.24699,-0.04601,1.56367,-0.04782
0.19281,0.94132,0.27699,0.04612,-0.21273,-0.49124
0.18196,0.93768,0.29603,0.29298,-0.55699,-0.35958
0.18907,0.93472,0.30089,0.13057,-0.45248,-0.40292
0.20327,0.93479,0.29125,-0.00028,0.13694,-0.06527
0.21208,0.93632,0.27986,-0.05663,1.05602,0.50567
0.21013,0.93959,0.27019,-0.20133,0.74996,0.19028
0.20107,0.94354,0.26324,-0.13242,-0.12129,0.22027
0.19478,0.9424,0.27188,-0.13268,-0.3106,0.20826
0.19257,0.93814,0.28774,-0.23518,-0.32722,0.22641
0.18993,0.93097,0.31178,-0.1227,-0.23071,0.02472
0.18395,0.91905,0.34856,-0.01075,-0.01979,-0.12743
0.17317,0.90131,0.39704,0.01655,0.00775,-0.27738
0.16506,0.87571,0.45372,0.07496,0.19968,-0.38722
0.16012,0.84515,0.50996,0.11814,0.06642,-0.52401
0.15261,0.81494,0.55907,0.0902,-0.05665,-0.52244
0.1466,0.7892,0.59637,-0.15985,0.06977,0.2073
0.14478,0.76911,0.62248,0.21395,0.39245,0.36688
0.12872,0.7645,0.63162,0.58174,0.55188,0.39577
0.11133,0.77146,0.62645,0.32894,0.33819,-0.11092
0.1043,0.78014,0.61683,0.08213,-0.32329,-0.26641
0.10239,0.79035,0.60403,0.07469,-0.62978,-0.18375
0.09891,0.80459,0.58552,0.06941,-0.75253,-0.05455
0.09737,0.8221,0.56093,0.069,-0.72708,0.03507
0.10757,0.84036,0.53123,0.06684,-0.46052,0.00805
0.1336,0.85725,0.49724,-0.16235,-0.05609,-0.11537
0.17334,0.87119,0.45931,-0.25238,0.34404,-0.30031
0.21773,0.88234,0.41719,-0.15184,0.40723,-0.27989
0.25185,0.89234,0.37454,-0.03473,0.27024,-0.08182
0.27452,0.90188,0.33352,0.08533,0.01011,0.32429
0.28322,0.90968,0.30373,0.08883,-0.09169,0.41705
0.27885,0.91953,0.27692,0.08464,-0.1935,0.33849
0.26256,0.93258,0.24766,-0.32032,-0.36842,-0.42309
0.24054,0.94416,0.22512,-0.2321,-0.35472,-0.82318
0.23223,0.95095,0.20434,0.09249,-0.19133,-0.49136
0.2324,0.94829,0.21615,-0.01355,0.36969,0.61564
0.21671,0.94869,0.23025,-0.10936,1.21895,1.10628
0.18276,0.95586,0.23003,0.05537,1.53146,-0.12035
0.14075,0.95749,0.25174,-0.03498,-0.42647,-0.26891
0.11878,0.95433,0.27411,0.12214,-0.72697,-0.23321
0.11678,0.95207,0.28268,-0.00896,-0.53363,-0.47456
0.12711,0.95105,0.28165,-0.02802,0.09358,-0.17642
0.14011,0.95168,0.27324,0.05236,0.53874,0.10948
0.14166,0.95349,0.26602,0.05551,1.25578,0.30876
0.13489,0.95732,0.25558,-0.05423,-0.11925,0.02206
0.13185,0.95758,0.2562,-0.04008,-0.43002,0.14269
0.1367,0.95634,0.25829,-0.12408,-0.65511,0.39701
0.14594,0.95669,0.25185,-0.22403,0.13073,0.20092
0.15363,0.95585,0.25045,-0.24102,0.42035,0.13646
0.15437,0.95326,0.2597,-0.32107,-0.06198,-0.13762
0.15142,0.94856,0.27801,-0.36939,-0.07839,-0.10994
0.14649,0.94062,0.30618,-0.44097,-0.04626,-0.07883
0.13508,0.92809,0.34697,-0.43194,-0.00748,-0.27333
0.12511,0.90809,0.39963,-0.25751,-0.04232,-0.35559
0.12316,0.88037,0.458,0.18739,-0.14759,-0.36402
0.12688,0.8502,0.51092,0.58544,-0.24807,-0.21816
0.13249,0.82355,0.55153,0.52741,-0.14661,-0.11933
0.12791,0.80447,0.58004,0.17218,0.16515,0.04597
0.10465,0.80066,0.58989,0.66727,0.66933,0.30201
0.08071,0.8081,0.58346,0.20396,0.36393,-0.1922
0.0652,0.81347,0.57791,0.21884,0.01134,-0.30487
0.06067,0.81816,0.57175,0.16916,-0.45191,-0.07633
0.05931,0.82834,0.55706,0.17286,-0.49814,-0.057
0.06128,0.8429,0.53455,0.20961,-0.58174,-0.04094
0.07334,0.85785,0.50862,0.09593,-0.42937,0.03661
0.09673,0.87362,0.47687,-0.12369,-0.34049,0.12869
0.13084,0.88812,0.44056,-0.15934,-0.20909,0.07487
0.17637,0.8998,0.39903,-0.12463,0.1282,-0.43426
0.22466,0.90646,0.35755,-0.07072,0.32514,-0.41727
0.25905,0.9122,0.31742,-0.09597,0.33075,0.11615
0.27068,0.92012,0.28299,-0.10235,-0.15436,0.49297
0.2644,0.93073,0.2526,-0.15141,-0.15612,0.28979
0.24922,0.94328,0.21931,-0.15168,-0.20829,0.24224
0.23203,0.95436,0.18799,-0.29228,-0.19568,-0.07275
0.20986,0.96219,0.1736,0.18175,-0.00567,-0.59198
0.19384,0.96609,0.17052,0.22474,-0.00413,0.12585
0.189,0.96028,0.20521,-0.25975,0.03576,0.81325
0.16434,0.96121,0.22144,-0.21643,0.10939,0.33889
0.13904,0.966,0.21794,0.18266,0.44088,-0.31787
0.10927,0.96541,0.23668,-0.37389,1.30104,0.16524
0.07472,0.96252,0.26068,-0.17866,-0.32119,-0.14953
0.05921,0.96067,0.27124,0.1543,-0.82373,-0.53299
0.06206,0.95635,0.28552,0.27531,-0.90187,-0.33908
0.08496,0.95193,0.29427,0.30301,0.8618,0.4407
0.10646,0.95227,0.28605,-0.01742,1.18126,0.42466
0.10648,0.95507,0.27654,-0.38692,0.53713,0.30546
0.10446,0.95719,0.2699,-0.16287,-0.14767,-0.00883
0.10878,0.95705,0.2687,-0.25533,-0.19612,0.06365
0.11847,0.95502,0.27182,-0.41434,-0.08732,0.17738
0.13081,0.9524,0.27532,-0.16753,0.11869,-0.00341
0.14054,0.94824,0.28471,-0.12647,0.06399,-0.03407
0.14583,0.94173,0.30309,-0.11875,0.01613,0.01983
0.14611,0.93226,0.33093,-0.1732,0.10079,-0.08662
0.13867,0.91867,0.36986,-0.12538,0.19407,-0.09462
0.12987,0.89959,0.41695,0.22248,0.09495,-0.1669
0.12596,0.87551,0.46646,0.34479,0.06014,-0.2239
0.12889,0.84869,0.51291,0.41844,0.01878,-0.11965
0.13009,0.82644,0.54776,0.22254,0.00718,0.05233
0.11988,0.81378,0.56866,0.34828,0.12597,0.1235
0.09982,0.8112,0.57616,0.39766,0.17899,0.12503
0.07874,0.81562,0.57318,0.09245,0.15462,-0.32064
0.06718,0.82036,0.56786,0.10317,-0.1897,-0.21891
0.06042,0.82815,0.55722,0.14957,-0.44116,-0.22459
0.06004,0.84009,0.5391,0.14176,-0.60421,-0.25325
0.07029,0.85378,0.51584,-0.03013,-0.58812,-0.14667
0.0905,0.86855,0.48725,-0.19096,-0.58125,-0.02881
0.11973,0.88381,0.45224,-0.26014,-0.4602,0.02828
0.1612,0.8972,0.41113,-0.19481,-0.03675,-0.05786
0.20764,0.90696,0.36644,0.01153,0.44597,-0.26111
0.23947,0.91434,0.32652,0.13013,0.51131,-0.14967
0.25338,0.92163,0.29389,0.23763,0.13451,0.32263
0.25902,0.92863,0.2656,0.30797,-0.07549,0.65319
0.25609,0.93741,0.23591,0.0383,-0.14599,0.42229
0.24879,0.94702,0.20308,-0.03376,-0.13116,0.31923
0.24003,0.95519,0.17315,-0.3242,-0.03867,0.06826
0.22569,0.96137,0.15751,-0.23454,-0.10935,-1.0855
0.21521,0.96523,0.14833,-0.15589,-0.40296,0.20772
0.21369,0.96311,0.16349,-0.21297,-0.42729,0.68096
0.20411,0.96224,0.18004,0.02725,0.00175,0.65796
0.18943,0.96346,0.1893,0.50727,2.22176,0.38231
0.16127,0.96115,0.22398,-0.45825,1.05216,-0.11021
0.12642,0.96149,0.24399,0.19717,-0.80374,-0.6751
0.11672,0.96088,0.25114,-0.07401,-0.90849,-0.46711
0.12404,0.95768,0.25969,-0.05813,-0.36423,-0.33557
0.13881,0.95707,0.25442,-0.08779,0.72299,0.25007
0.14043,0.9593,0.24493,-0.08617,0.88318,0.15088
0.1347,0.96206,0.23723,-0.05522,0.29655,0.04901
0.13184,0.96299,0.23505,-0.04473,-0.42116,0.12228
0.137,0.96284,0.2327,-0.3721,-0.14047,0.31498
0.14692,0.96403,0.22143,-0.36489,0.17877,0.20542
0.15246,0.96481,0.21419,-0.24522,0.44412,0.07718
0.15383,0.96437,0.21518,-0.19674,-0.03876,-0.01204
0.1539,0.96279,0.2221,-0.16225,-0.10454,-0.03475
0.15251,0.95816,0.24216,-0.19127,-0.16599,0.05752
0.14907,0.94935,0.27658,-0.04866,-0.1002,-0.06439
0.14256,0.93591,0.32206,-0.01419,-0.03329,-0.20724
0.13642,0.91653,0.37595,0.18402,-0.01101,-0.15948
0.13388,0.89329,0.42906,0.26197,-0.06237,-0.22007
0.13307,0.87089,0.47308,0.28498,-0.09369,-0.30952
0.13084,0.85346,0.50445,0.1585,-0.1455,-0.13219
0.11889,0.84203,0.52614,0.11218,0.00341,-0.15189
0.10084,0.83638,0.53878,0.42403,0.44433,0.16525
0.0781,0.84054,0.53607,0.13949,0.1466,-0.11003
0.06643,0.84916,0.52391,0.01978,-0.16285,-0.15958
0.06501,0.85739,0.51053,-0.05605,-0.39309,-0.22441
0.07085,0.86478,0.4971,-0.10714,-0.54727,-0.13417
0.08632,0.87149,0.48274,-0.06815,-0.59466,0.0897
0.10973,0.87891,0.46416,-0.06068,-0.57958,0.21858
0.13491,0.88943,0.43669,0.02037,-0.28663,0.19986
0.16903,0.8996,0.40265,0.10933,0.17908,-0.13274
0.21192,0.9062,0.36587,0.12089,0.34039,-0.33556
0.25054,0.9099,0.33059,0.01727,0.25287,-0.20205
0.27936,0.91391,0.29445,-0.02461,0.03078,0.19888
0.29457,0.91696,0.26904,-0.0953,-0.09738,0.35298
0.29657,0.92193,0.24913,0.0008,-0.18478,0.27899
0.29179,0.9295,0.22555,0.0568,-0.4286,0.10094
0.28824,0.93591,0.20241,-0.10231,-0.45596,0.14153
0.28302,0.93855,0.19748,-0.35401,-0.37284,-0.17022
0.27597,0.94186,0.19161,-0.12166,-0.19825,-0.64327
0.27329,0.944,0.1848,-0.1155,-0.0858,0.21069
0.26633,0.94393,0.19506,-0.59051,0.54602,0.64011
0.23622,0.95017,0.20336,-0.14259,1.33554,-0.18362
0.20027,0.95436,0.22149,-0.27761,1.70987,0.52912
0.16873,0.95271,0.2527,0.12839,-0.48615,-0.28127
0.14904,0.95288,0.26414,0.25188,-0.86922,-0.50252
0.15101,0.94751,0.28177,0.20283,-0.94783,-0.57721
0.17406,0.93812,0.29935,0.01574,-0.10917,-0.11387
0.20789,0.93355,0.29197,-0.18183,0.88262,0.31976
0.22394,0.93393,0.27858,-0.30922,0.76361,0.26901
0.23231,0.9384,0.25576,-0.2712,0.18167,0.18502
0.24109,0.9418,0.23423,-0.51215,0.01378,0.05549
0.25199,0.94269,0.21865,-0.53995,0.00799,0.05595
0.26661,0.94153,0.20596,-0.41945,-0.05688,0.03259
0.28708,0.93771,0.19558,-0.28857,0.1449,-0.12123
0.31045,0.93197,0.18714,-0.27711,0.23432,-0.11073
0.32776,0.92687,0.18291,-0.16397,0.42852,-0.02521
0.33434,0.92342,0.18839,0.17219,0.32808,0.36874
0.33054,0.92033,0.20908,0.20157,0.30402,0.27777
0.32192,0.91566,0.24064,0.29414,0.27448,0.10599
0.30818,0.91055,0.27551,0.20623,0.26684,-0.22735
0.2926,0.90584,0.3063,0.11707,0.29974,-0.33158
0.27736,0.90295,0.32821,-0.2072,0.55542,-0.35235
0.26579,0.90001,0.34541,-0.26892,0.64381,-0.15635
0.25023,0.90089,0.35461,-0.07228,0.42926,-0.24099
0.23092,0.90673,0.35283,0.03231,0.06831,-0.34969
0.21517,0.9133,0.34575,0.15647,-0.12235,-0.38164
0.20721,0.91898,0.33544,0.24511,-0.19745,-0.32894
0.20323,0.92245,0.32826,0.20073,-0.28059,-0.29327
0.20505,0.92335,0.32457,0.10321,-0.23073,-0.20113
0.21427,0.9217,0.3233,0.13426,-0.22235,-0.16818
0.22817,0.91804,0.32422,0.24951,-0.37278,0.11535
0.24454,0.91297,0.32659,0.26648,-0.35872,0.16404
0.26257,0.90706,0.32905,0.20638,-0.2744,0.13971
0.28262,0.89949,0.33319,-0.0043,0.24301,0.21129
0.29907,0.89255,0.33745,-0.12873,0.22814,0.31265
0.30743,0.88837,0.34097,-0.22538,0.09726,0.27249
0.30885,0.886,0.3458,-0.33485,0.0542,0.12976
0.30491,0.88551,0.35054,-0.30014,-0.06016,0.11086
0.29572,0.88722,0.35406,-0.34914,-0.20333,0.22722
0.27801,0.89318,0.35342,-0.45324,-0.30688,0.18575
0.25552,0.90336,0.34442,-0.37744,-0.3223,-0.08414
0.23627,0.91302,0.33248,-0.27314,-0.28462,-0.1746
0.2206,0.92147,0.31969,0.21571,0.21556,-0.3357
0.21092,0.92715,0.30964,0.4191,1.3585,0.15967
0.20344,0.91939,0.33661,0.25943,1.71817,0.45281
0.19233,0.9103,0.36652,0.19841,-0.96969,-0.52379
0.2026,0.9125,0.35533,0.17637,-1.46193,-0.51472
0.22344,0.91709,0.33014,-0.21862,-1.01083,-0.38877
0.22354,0.92485,0.30766,-0.53029,1.32152,-1.3412
0.23879,0.92545,0.29411,-0.19631,1.22981,-0.04861
0.24711,0.92895,0.27563,-0.18163,0.67778,-0.07497
0.25141,0.93601,0.24626,0.18398,-0.06147,-0.42884
0.26362,0.93932,0.21946,0.46774,-0.20853,-0.2365
0.28051,0.93937,0.19718,0.47433,-0.33103,0.06427
0.29775,0.93894,0.17237,0.27469,-0.19251,0.08682
0.31312,0.93831,0.14666,-0.03996,0.00121,0.02244
0.32659,0.93709,0.12317,-0.17993,0.07649,0.03478
0.33579,0.93629,0.10293,-0.37215,0.0967,0.01151
0.34273,0.9354,0.0868,-0.36641,0.0033,0.01572
0.34807,0.93453,0.07406,-0.27043,-0.06832,0.01492
0.35279,0.93375,0.06016,-0.12068,-0.08326,0.07319
0.35844,0.93261,0.04168,-0.10255,-0.04269,0.16965
0.36475,0.9309,0.01928,-0.20404,0.02217,0.18572
0.36961,0.92917,-0.00181,-0.2635,0.14056,0.24035
0.37118,0.92835,-0.01928,-0.26959,0.2088,0.22448
0.37032,0.92816,-0.03684,-0.28398,0.20915,0.12022
0.36724,0.92869,-0.05142,-0.14634,0.11271,-0.05771
0.36471,0.92869,-0.06711,0.06416,0.0286,-0.00076
0.36677,0.92661,-0.08281,0.00594,0.30249,0.16985
0.36761,0.92552,-0.09084,-0.42245,0.30174,0.20272
0.36393,0.92714,-0.0891,-0.38926,0.42599,0.02032
0.3527,0.93296,-0.0719,-0.25774,0.48078,-0.00392
0.33645,0.94062,-0.04491,-0.20668,0.39722,0.32986
0.32197,0.94671,-0.00684,-0.02516,0.21033,0.52393
0.31057,0.94955,0.04339,0.24487,-0.05346,-0.12251
0.30135,0.94911,0.09143,0.18728,-0.07714,-0.46345
0.29247,0.9469,0.13347,-0.21186,0.03525,-0.20403
0.27915,0.94488,0.171,-0.35578,0.31803,-0.2178
0.26341,0.94325,0.20217,-0.22853,0.50435,-0.21202
0.24505,0.94224,0.22825,0.06669,0.29666,-0.12819
0.22534,0.94088,0.25287,0.11334,0.16354,-0.17783
0.20848,0.93855,0.275,0.12829,-0.0416,-0.19591
0.19117,0.93606,0.29532,0.11046,-0.1522,-0.14588
0.17268,0.9327,0.31658,0.05112,-0.17255,-0.1284
0.15559,0.92881,0.33628,-0.06695,-0.21677,-0.25977
0.14392,0.92348,0.3556,-0.03975,-0.17785,-0.28789
0.13892,0.91666,0.37472,0.03438,-0.19125,-0.29078
0.14221,0.90842,0.39309,0.10091,-0.36382,-0.08273
0.15203,0.8992,0.41025,0.0935,-0.40226,-0.02398
0.16554,0.89021,0.42438,0.05784,-0.36979,0.01869
0.18012,0.88354,0.43229,-0.01648,-0.13563,0.03914
0.19487,0.88094,0.43121,-0.064,-0.00579,0.0021
0.21108,0.88015,0.42516,-0.05556,-0.06438,0.02902
0.22969,0.87829,0.4193,-0.06107,-0.14215,0.17539
0.25072,0.87638,0.41117,-0.03754,-0.1684,0.34187
0.27074,0.87566,0.39985,0.04768,-0.07072,0.44498
0.2818,0.87585,0.39172,0.14482,0.14388,0.36025
0.27804,0.87777,0.3901,0.12715,-0.04829,0.21531
0.26639,0.88074,0.39154,0.19978,-0.23692,0.06083
0.25295,0.88016,0.40163,0.45591,0.085,-0.12483
0.23905,0.87567,0.41955,0.31709,0.64784,0.38122
0.23458,0.86734,0.43892,-0.26197,0.86041,-0.45473
0.21882,0.86496,0.45159,-0.5861,-0.20854,-1.01506
0.21259,0.86819,0.44834,-0.33303,-0.33511,-0.45484
0.20606,0.87415,0.43973,-0.14943,0.40835,-0.41969
0.19911,0.88429,0.42233,0.02808,0.72371,-0.58082
0.19962,0.89415,0.40076,-0.06264,0.50908,-0.40211
0.20037,0.9027,0.38072,-0.05866,0.12644,-0.33041
0.20092,0.91155,0.35872,0.07519,0.00231,-0.08264
0.20239,0.92014,0.33518,0.23473,-0.10024,-0.14341
0.20573,0.92743,0.31227,0.18355,-0.12723,-0.18341
0.21535,0.93236,0.29035,0.15022,-0.07397,-0.06847
0.22832,0.93519,0.27069,0.02995,0.0218,-0.00757
0.2391,0.93765,0.25223,-0.1006,-0.00764,-0.10221
0.24679,0.94006,0.23527,-0.18154,-0.09404,-0.12104
0.25245,0.94261,0.21847,-0.22551,-0.01849,-0.0903
0.25656,0.9448,0.20371,-0.1776,0.05471,-0.02947
0.26034,0.946,0.19306,-0.15879,0.04752,-0.03721
0.26314,0.9469,0.18472,-0.08437,-0.03698,0.07055
0.26349,0.94844,0.17608,-0.1398,-0.08156,0.1188
0.26004,0.95146,0.16456,-0.21295,0.00663,0.06867
0.25037,0.95569,0.15472,-0.026,-0.00181,0.08058
0.24553,0.95749,0.15136,0.03494,-0.05211,0.12897
0.24378,0.95755,0.15378,-0.01127,-0.11435,0.15829
0.23967,0.95864,0.15341,-0.21698,0.00159,0.02611
0.23778,0.9595,0.15099,-0.25269,0.04795,-0.00636
0.22993,0.96041,0.15723,-0.21941,-0.10213,-0.12833
0.21621,0.96232,0.16482,-0.15925,-0.19271,-0.07235
0.20337,0.96365,0.17316,-0.04037,-0.47093,0.04123
0.19247,0.96399,0.18345,0.00503,-0.52089,-0.0341
0.18612,0.96358,0.19195,0.03931,-0.41368,-0.13014
0.18523,0.96114,0.20463,-0.01423,-0.05936,-0.0113
0.18791,0.95718,0.22015,-0.13898,0.00652,0.16665
0.1889,0.95472,0.22977,-0.22572,-0.06948,0.09007
0.18857,0.95338,0.23552,-0.35893,0.1034,-0.20575
0.18974,0.95225,0.23914,-0.47336,0.2529,-0.17016
0.1947,0.95003,0.24393,-0.55226,0.2756,0.08518
0.19961,0.94738,0.25018,-0.41413,0.34949,-0.01901
0.19977,0.94288,0.26652,-0.10939,0.36512,0.04988
0.19406,0.93663,0.29161,0.12093,0.31619,0.14164
0.18044,0.92744,0.32752,0.20115,0.41634,0.21676
0.16049,0.91435,0.37171,0.29144,0.48372,-0.0271
0.13895,0.89959,0.41401,0.44618,0.43866,-0.26037
0.11928,0.88464,0.45071,0.53204,0.41215,-0.02656
0.09752,0.87525,0.47369,0.19627,0.29329,-0.00111
0.07364,0.87253,0.48294,0.13501,0.40921,0.03711
0.05372,0.86919,0.49151,0.07068,0.42714,0.0214
0.03635,0.86604,0.49862,0.06413,-0.19224,-0.2667
0.02511,0.86225,0.50582,0.21078,-0.36158,-0.17545
0.01936,0.85694,0.51501,0.24863,-0.32029,-0.10406
0.01987,0.85365,0.52043,0.20757,-0.24864,-0.15262
0.02658,0.85339,0.52056,0.22206,-0.25219,-0.26043
0.03813,0.85521,0.51683,0.24507,-0.38004,-0.34664
0.05144,0.85847,0.51023,0.25224,-0.50246,-0.36982
0.06478,0.86333,0.50043,0.19466,-0.5878,-0.15446
0.07835,0.87275,0.4818,0.12071,-0.57082,-0.08149
0.09316,0.88794,0.45038,-0.08327,-0.43273,-0.03119
0.11238,0.90385,0.41278,-0.17723,-0.13878,-0.15289
0.14047,0.91568,0.37652,-0.1752,0.11603,-0.22236
0.16957,0.92284,0.3458,-0.11832,0.23143,-0.08806
0.18939,0.92821,0.32019,0.01218,0.26553,0.14193
0.19786,0.9342,0.29681,0.20055,0.26472,0.39539
0.19595,0.94281,0.2696,0.23391,-0.00404,0.49546
0.19041,0.95198,0.23968,0.07367,-0.21869,0.12709
0.18724,0.95872,0.21394,-0.02613,-0.21371,-0.04191
0.18178,0.96309,0.19844,-0.09081,-0.08341,-0.30618
0.1785,0.96503,0.19188,-0.1761,-0.06823,-0.21276
0.17952,0.96503,0.19095,-0.29663,-0.22463,0.11931
0.18069,0.96198,0.20472,-0.50191,-0.29931,0.39899
0.17111,0.96254,0.21026,0.13747,-0.22963,-0.67232
0.15998,0.96517,0.20692,0.26943,0.70922,0.47807
0.14211,0.96267,0.23031,-0.53769,1.19195,-0.57283
0.10592,0.96416,0.2432,-0.08384,0.03207,-1.24901
0.08299,0.96315,0.25578,0.36879,-0.91456,-0.51169
0.08073,0.95508,0.2851,0.27603,-0.56416,0.0081
0.10377,0.952,0.2879,0.16808,0.76171,0.2833
0.12121,0.9539,0.27449,0.03148,1.10901,0.02752
0.12264,0.95673,0.26381,-0.14814,0.47734,0.32393
0.11792,0.95965,0.2552,-0.1783,0.17714,0.38592
0.11291,0.96061,0.25387,-0.206,-0.29801,0.26354
0.11335,0.95885,0.26026,-0.30477,-0.17862,0.03749
0.11701,0.95543,0.27099,-0.378,-0.12654,-0.07458
0.11671,0.9465,0.30081,-0.09247,0.02103,0.29501
0.10914,0.93163,0.34659,0.16583,0.22691,-0.00067
0.09563,0.90993,0.40353,0.27757,0.29063,-0.19066
0.08328,0.88027,0.46706,0.39604,0.29122,-0.37053
0.07405,0.84846,0.52401,0.60496,-0.13025,-0.3436
0.06608,0.82088,0.56722,0.24364,-0.50333,-0.04499
0.05673,0.79896,0.59867,-0.05505,0.04066,-0.10921
