gravity.x,gravity.y,gravity.z,userAcceleration.x,userAcceleration.y,userAcceleration.z
0.82463,0.53448,0.18524,-0.18695,0.12583,-0.09543
0.82941,0.53434,0.16295,-0.19762,0.0167,-0.1026
0.83469,0.53178,0.14318,-0.08162,0.12774,-0.03385
0.83953,0.52899,0.12395,-0.09855,0.21122,0.05299
0.84264,0.52743,0.10849,-0.2699,0.38228,0.27809
0.84345,0.52748,0.10174,-0.38671,0.41522,0.36059
0.84168,0.52981,0.10429,-0.32953,0.30314,0.34058
0.83836,0.53019,0.12667,-0.15608,0.11385,0.6221
0.83324,0.52425,0.17572,-0.15671,0.31421,0.00153
0.82512,0.515,0.23226,-0.01574,0.51022,-0.42101
0.81013,0.51098,0.28738,0.11441,0.41931,-0.33279
0.78964,0.5103,0.34067,0.16246,0.36833,-0.54143
0.76056,0.51702,0.39273,0.19304,0.60881,-0.5242
0.72939,0.53103,0.43128,0.22084,0.65836,-0.19395
0.69739,0.5506,0.45879,0.33299,0.68448,-0.49657
0.66913,0.56767,0.4796,0.27853,0.55283,-0.31898
0.64555,0.58029,0.49652,0.20938,0.05919,-0.38353
0.62929,0.58862,0.50746,0.17547,-0.00032,-0.40524
0.62021,0.59764,0.5081,-0.04237,0.06105,-0.34008
0.61553,0.60709,0.50255,-0.0571,-0.01417,-0.37964
0.61396,0.6174,0.49181,-0.05805,-0.11807,-0.45005
0.61828,0.62442,0.47732,-0.05312,-0.31685,-0.58671
0.629,0.62696,0.45965,-0.13031,-0.46741,-0.36342
0.64512,0.6264,0.43754,-0.16546,-0.43597,-0.27896
0.66496,0.62268,0.41242,-0.1674,-0.36049,-0.09804
0.68786,0.61405,0.38704,-0.15578,-0.30213,0.00684
0.7113,0.60298,0.36119,-0.15086,-0.04456,0.08409
0.72861,0.597,0.33574,-0.28616,0.55893,0.31622
0.73118,0.59986,0.32488,-0.46474,0.5819,0.35867
0.72538,0.60559,0.32725,-0.37149,0.28301,0.033
0.71891,0.61467,0.32457,-0.25401,0.44311,-0.17704
0.70921,0.62979,0.31682,0.61908,1.03636,-0.29203
0.69233,0.64706,0.31935,0.50117,0.06416,-0.33954
0.67996,0.65499,0.3296,0.28149,-0.73781,-0.22094
0.6899,0.63929,0.33962,-0.28447,-0.69415,-0.42671
0.71321,0.61521,0.33592,-0.18132,-0.17128,-1.1813
0.7441,0.59175,0.31007,-0.03123,0.08101,-0.855
0.7659,0.5684,0.30052,0.18698,0.89585,0.28623
0.77463,0.55732,0.29891,-0.01262,0.4857,0.21061
0.773,0.56093,0.29635,-0.15334,0.22839,-0.08367
0.77306,0.56589,0.28659,-0.12161,-0.00199,-0.26947
0.77718,0.57068,0.26517,-0.07863,0.07117,0.0254
0.78027,0.57699,0.24136,-0.11498,0.03757,0.00652
0.78127,0.58271,0.22375,-0.17011,0.00352,-0.10367
0.78164,0.5872,0.21029,-0.28587,-0.01453,-0.06907
0.78244,0.59048,0.19778,-0.30422,-0.01073,-0.00969
0.78285,0.5935,0.1868,-0.28508,-0.06185,-0.02394
0.78292,0.59664,0.1762,-0.2595,-0.10009,0.12337
0.78249,0.59959,0.16789,-0.22369,-0.08919,0.21823
0.78139,0.60243,0.1628,-0.27685,-0.07147,0.19388
0.7798,0.60529,0.1598,-0.37091,-0.12895,0.13919
0.77928,0.60644,0.15797,-0.40049,-0.09269,0.08649
0.77999,0.60474,0.16091,-0.35247,0.01151,0.14572
0.77826,0.60381,0.17239,-0.31887,0.01914,0.32871
0.77174,0.60682,0.19024,-0.25008,0.24173,0.07577
0.75957,0.60982,0.22619,0.21051,0.70307,0.20443
0.73904,0.61194,0.28167,0.51315,0.75862,0.42988
0.70832,0.61574,0.34519,0.4631,0.28546,0.15263
0.67694,0.6171,0.40117,0.35534,-0.35236,-0.4978
0.66296,0.6024,0.44451,0.40177,-0.42561,-0.5449
0.66591,0.58574,0.46202,0.52816,0.1405,-0.04908
0.6682,0.57889,0.46733,0.17943,0.74784,0.16898
0.66531,0.58613,0.46239,0.12013,0.46659,0.01875
0.66628,0.60146,0.44081,0.04333,0.06041,-0.11719
0.67431,0.62031,0.40066,0.01933,-0.32363,-0.31683
0.69137,0.63391,0.34665,-0.05013,-0.38093,-0.33216
0.71098,0.64111,0.28894,-0.3189,-0.44488,-0.21222
0.73495,0.63949,0.22561,-0.61201,-0.58845,-0.1799
0.75845,0.63111,0.16262,-0.68804,-0.53026,-0.17089
0.77665,0.6212,0.10453,-0.86883,-0.159,0.39494
0.78137,0.61919,0.07789,-1.04835,0.29785,1.17351
0.77563,0.62431,0.09292,-0.92396,-0.16679,0.91682
0.76338,0.6358,0.11407,-0.8715,-0.49215,-0.64789
0.74448,0.65178,0.1447,-0.70624,-0.91025,-0.86688
0.72831,0.66635,0.15983,-0.5275,-1.05771,-0.50454
0.73127,0.67013,0.12713,0.12635,-0.4704,0.69254
0.74549,0.65731,0.11037,0.32635,0.29821,0.25646
0.76545,0.63202,0.12095,1.95572,2.57601,4.49824
0.76476,0.61867,0.17997,0.73953,1.33452,-1.81064
0.73982,0.64425,0.1939,-0.94667,-0.08877,-0.42474
0.72325,0.65145,0.22916,-0.75838,-0.49141,-0.20823
0.73258,0.63939,0.23346,0.11509,0.22865,0.73066
0.73154,0.62967,0.26147,1.69682,1.41228,1.17143
0.7098,0.63008,0.31492,1.03531,1.56062,0.42944
0.66707,0.64565,0.37169,1.14875,1.27085,0.3421
0.62486,0.64908,0.43387,1.14275,0.41432,-0.23831
0.58803,0.64749,0.48475,0.12888,-0.6901,-0.22043
0.56953,0.6377,0.51862,-0.04181,-0.50402,-0.19037
0.56626,0.6255,0.53674,-0.18769,-0.20619,-0.30051
0.57558,0.6145,0.53953,0.01811,-0.14505,-0.42957
0.59329,0.60819,0.52736,0.04428,-0.18535,-0.31569
0.6145,0.60773,0.50304,0.06831,-0.23563,-0.24061
0.64013,0.61324,0.46278,0.06092,-0.25248,-0.328
0.67215,0.61804,0.40773,-0.17258,-0.3019,-0.32585
0.70591,0.62097,0.34071,-0.45074,-0.38162,-0.27825
0.73962,0.61737,0.26797,-0.62483,-0.50844,-0.16683
0.76612,0.61191,0.19651,-0.76739,-0.34412,-0.11212
0.78061,0.6121,0.12638,-0.95368,-0.00996,0.09575
0.77982,0.61996,0.08681,-1.29909,0.28637,1.00341
0.76709,0.6336,0.10063,-1.11221,0.09022,0.89511
0.75097,0.64829,0.12555,-0.61439,-0.55309,0.14469
0.73809,0.65982,0.14094,0.03508,-1.18753,-0.58003
0.73615,0.66383,0.13195,0.16828,-1.04008,-0.39853
0.74424,0.65671,0.12182,0.19168,-0.35086,0.02906
0.76073,0.62812,0.16358,1.10642,2.80831,-0.19724
0.75039,0.61949,0.23053,-0.31148,0.78138,-0.57425
0.72519,0.63764,0.25986,-0.85005,-0.54572,-0.55251
0.70193,0.64324,0.30584,-0.84603,-0.75197,-0.59401
0.70439,0.63665,0.31385,-0.26685,0.24972,1.59038
0.70393,0.61804,0.35001,2.45728,3.12561,1.3333
0.6693,0.62179,0.40671,2.05865,2.49324,0.65649
0.61713,0.63119,0.46984,1.03999,0.32639,0.00997
0.58276,0.62242,0.52248,0.56577,0.03822,-0.0376
0.55758,0.6133,0.55944,0.12978,-0.34837,-0.18076
0.5475,0.60303,0.58017,-0.25163,-0.14,-0.06325
0.55545,0.59409,0.58184,0.02922,-0.04567,-0.1876
0.57073,0.59174,0.56931,0.15058,-0.2123,-0.30483
0.59051,0.59434,0.54595,0.1204,-0.24934,-0.23752
0.61475,0.6022,0.50935,0.091,-0.18413,-0.19551
0.64605,0.61205,0.45609,0.05726,-0.16944,-0.16399
0.68174,0.61951,0.38915,-0.08502,-0.22998,-0.26769
0.71672,0.6224,0.31454,-0.19642,-0.34451,-0.26183
0.74764,0.61918,0.2401,-0.35123,-0.32264,-0.24532
0.77198,0.61265,0.16942,-0.67978,-0.1195,-0.17694
0.78782,0.60558,0.11232,-0.9752,0.01462,0.33597
0.79291,0.60452,0.07652,-1.17619,0.18723,0.66956
0.78999,0.60923,0.06903,-1.23891,0.1106,0.76372
0.78305,0.61801,0.07003,-0.94841,-0.38511,0.33746
0.7726,0.63122,0.06816,-0.45954,-0.76875,-0.24873
0.76182,0.64333,0.0758,-0.18306,-0.96273,-0.43086
0.76352,0.64076,0.08042,0.37381,0.03608,0.9268
0.77393,0.62764,0.08432,0.24631,0.8445,1.1857
0.77916,0.61739,0.10837,0.30643,1.22401,1.08676
0.76532,0.62483,0.15452,0.10802,0.90259,-0.82284
0.73912,0.6469,0.18769,-0.27253,-0.34079,0.20019
0.71979,0.65606,0.22688,-0.40012,-0.5962,-0.48587
0.71815,0.64254,0.26721,0.02399,0.42746,0.90088
0.70726,0.62395,0.33236,1.83587,1.89431,0.7978
0.66364,0.62928,0.40445,1.24033,0.84321,0.10629
0.61367,0.63317,0.4717,0.7692,-0.39097,-0.73769
0.58731,0.62399,0.51546,0.7504,-0.11146,-0.30956
0.57387,0.61766,0.53774,0.24009,0.2502,0.31364
0.56128,0.61673,0.55191,0.30428,0.17662,-0.08251
0.56149,0.61153,0.55746,0.16039,-0.03412,-0.42006
0.57686,0.60528,0.54851,-0.05147,-0.32443,-0.49666
0.60436,0.59773,0.52675,-0.05968,-0.37506,-0.49025
0.636,0.5925,0.49441,-0.15179,-0.31626,-0.29081
0.671,0.59174,0.44676,-0.41839,-0.30404,-0.29552
0.70644,0.59326,0.38598,-0.77273,-0.49717,-0.1633
0.7407,0.59403,0.31384,-0.96461,-0.60469,-0.03799
0.7723,0.58779,0.24094,-1.04513,-0.39937,0.05827
0.79284,0.58202,0.18072,-1.08017,0.32521,-0.01338
0.7929,0.59225,0.14337,-1.0831,0.63584,-0.04187
0.76828,0.61993,0.15946,-0.97884,0.56609,1.28936
0.74765,0.6368,0.18841,-0.02724,-0.42802,0.19231
0.74023,0.6491,0.17528,0.61924,-0.96163,-0.61833
0.75215,0.63807,0.16476,1.23949,-0.51029,0.83135
0.75918,0.60627,0.23682,-0.67593,0.58937,-0.10788
0.7404,0.60998,0.28236,-0.90255,0.31533,-0.09343
0.72072,0.61109,0.3273,-0.71511,0.36533,-0.15809
0.70153,0.61219,0.3648,0.37817,1.23289,0.84473
0.67087,0.60067,0.43489,1.69653,1.97135,0.51626
0.61825,0.59601,0.51238,1.0382,0.06737,-0.76893
0.57016,0.59711,0.56424,0.6326,-0.78464,-0.77171
0.55319,0.58698,0.59113,0.39034,-0.79505,-0.32166
0.55506,0.57703,0.59912,0.30164,0.15599,-0.00036
0.56507,0.57883,0.58792,0.17583,0.13907,-0.24008
0.58635,0.58562,0.55968,-0.0216,-0.00878,-0.38469
0.61704,0.59129,0.51926,-0.0662,0.01404,-0.34295
0.65341,0.59716,0.46524,-0.12745,-0.0504,-0.1857
0.68974,0.60613,0.39605,-0.37033,-0.17139,-0.1784
0.72515,0.60989,0.31967,-0.40133,-0.43901,-0.11978
0.75932,0.60385,0.24248,-0.49447,-0.59549,-0.2383
0.78568,0.59516,0.16879,-0.70364,-0.38158,-0.00209
0.79841,0.58894,0.12523,-1.19487,0.18105,0.61959
0.798,0.59105,0.11775,-1.32468,0.31946,0.79721
0.79109,0.59864,0.12572,-0.75208,-0.16921,0.01869
0.7807,0.60827,0.14323,-0.01008,-0.7149,-0.24602
0.78283,0.60916,0.12686,0.61072,-0.40698,-0.54258
0.79067,0.59753,0.13338,1.78726,1.4003,1.78765
0.79884,0.57926,0.16222,0.72307,2.68159,2.76199
0.78167,0.58959,0.20339,-1.08815,0.97067,-1.21137
0.7678,0.59723,0.23195,-0.71229,-0.34785,-0.42626
0.76193,0.59963,0.24477,-0.53465,-0.17925,-0.50939
0.77403,0.59491,0.2167,-0.04794,0.41339,-0.4871
0.78533,0.58738,0.19554,0.23112,0.99413,0.3896
0.78834,0.57897,0.20814,0.329,0.81007,0.49341
0.78036,0.57856,0.23728,0.2722,0.68432,0.72387
0.76316,0.58645,0.27142,0.45106,0.92225,0.5937
0.73361,0.59681,0.32501,0.56134,0.70412,-0.18852
0.7021,0.60633,0.37338,0.7061,0.59998,-0.48094
0.67537,0.61681,0.40424,0.74855,0.46107,-0.54688
0.65033,0.62984,0.42471,0.41455,0.17253,-0.13265
0.62913,0.65082,0.425,0.25444,0.32592,0.05491
0.61051,0.67487,0.41452,0.14787,0.50226,-0.32044
0.5967,0.69546,0.40036,0.03988,0.08471,-0.41998
0.59258,0.70905,0.38222,0.08888,-0.32044,-0.39092
0.59892,0.71648,0.3577,0.08469,-0.35937,-0.35926
0.6121,0.71602,0.33563,0.08702,-0.43254,-0.23646
0.62923,0.70919,0.318,-0.07325,-0.4415,0.01694
0.65051,0.69699,0.30173,-0.17207,-0.40817,0.07907
0.67353,0.67906,0.29195,-0.21555,-0.37816,0.13626
0.69218,0.6585,0.29541,0.06378,0.03119,0.17115
0.70076,0.6431,0.30879,0.1398,0.21819,0.14438
0.69886,0.63667,0.32594,0.03539,0.42635,0.21431
0.68981,0.63558,0.34669,-0.75581,0.19308,0.06263
0.68426,0.63189,0.36401,-0.75025,0.19676,0.04531
0.68172,0.63367,0.36568,-0.67701,0.13246,-0.32577
0.6812,0.64381,0.34852,-0.38652,0.00665,-0.29524
0.68614,0.65572,0.31502,-0.28374,-0.0765,-0.08459
0.69952,0.66187,0.26942,0.21613,0.02851,0.08531
0.71213,0.65887,0.24243,1.39745,1.1311,0.93385
0.70917,0.65219,0.26782,0.82317,0.77631,0.65721
0.7013,0.64418,0.30532,-0.46684,-0.85844,-0.59015
0.71149,0.633,0.30511,-0.54153,-1.0842,-0.52432
0.7325,0.6175,0.28658,-0.44014,-0.56611,-1.2087
0.76444,0.59613,0.24549,0.03427,0.19668,-1.25914
0.79515,0.56902,0.20965,0.74409,1.17267,0.38178
0.81145,0.5514,0.19366,-0.15118,1.28696,0.30937
0.81544,0.54907,0.18324,-0.41412,0.36382,-0.21957
0.81461,0.55942,0.15318,0.11224,-0.26974,-0.24394
0.81425,0.56989,0.11056,0.19588,-0.5809,-0.2897
0.81627,0.57322,0.07161,0.10272,-0.41428,0.013
0.81745,0.57489,0.03575,-0.02302,0.01992,0.29381
0.81622,0.57773,0.00252,-0.162,0.15861,0.25885
0.8144,0.5799,-0.02157,-0.20864,-0.04033,0.06271
0.81472,0.57864,-0.03751,-0.13125,-0.17125,-0.10295
0.81703,0.57395,-0.0552,-0.0662,-0.07197,-0.01249
0.81962,0.56803,-0.07459,-0.08014,0.13024,0.17273
0.82273,0.56076,-0.09307,-0.10426,0.22907,0.25546
0.82548,0.55361,-0.11002,-0.14619,0.29017,0.31049
0.82735,0.54829,-0.12197,-0.07953,0.31046,0.35537
0.82855,0.54539,-0.12673,-0.01508,0.35264,0.36839
0.82902,0.54546,-0.12331,-0.20541,0.42714,0.29242
0.8294,0.54792,-0.10896,-0.21138,0.43639,0.19502
0.82876,0.55364,-0.08149,-0.12793,0.51396,0.07604
0.82439,0.56507,-0.03275,0.00735,0.82106,0.36329
0.81562,0.57726,0.03926,-0.11829,0.60888,0.33378
0.80092,0.5849,0.12815,0.15353,0.32289,-0.11567
0.77397,0.59769,0.20917,0.34907,-0.00499,-0.34212
0.73753,0.619,0.26999,0.4345,-0.01867,-0.41894
0.70209,0.64228,0.30748,0.27568,0.28657,-0.50167
0.67205,0.65993,0.33591,0.02366,0.51119,-0.52498
0.64534,0.66982,0.36725,0.09068,0.62742,-0.41998
0.61231,0.68468,0.39532,0.14731,0.64214,-0.32774
0.57581,0.7021,0.41892,0.18461,0.15132,-0.41339
0.54571,0.71641,0.43468,0.18055,-0.51027,-0.51308
0.52564,0.72326,0.44788,0.01377,-0.48878,-0.37912
0.5156,0.72402,0.4582,0.01524,-0.4887,-0.30732
0.51203,0.7248,0.46098,0.00084,-0.40212,-0.23435
0.51124,0.7252,0.46121,0.10034,-0.14103,-0.29829
0.51234,0.72495,0.46038,0.08716,-0.14568,-0.30806
0.51721,0.72447,0.45566,0.05324,-0.25348,-0.30318
0.52606,0.72475,0.44498,0.0342,-0.44179,-0.21836
0.53905,0.72523,0.42833,0.0346,-0.49119,-0.15506
0.55735,0.72421,0.40605,0.04623,-0.52974,-0.01674
0.58026,0.7195,0.3816,-0.04761,-0.22827,0.07026
0.60268,0.71181,0.36071,-0.07144,-0.01653,0.10746
0.61754,0.70498,0.34877,0.00291,0.49343,0.27777
0.61681,0.70264,0.35476,0.11363,0.82469,0.45388
0.60344,0.70659,0.36959,-0.21652,0.19747,0.15403
0.58949,0.71655,0.37289,-0.47284,-0.06349,0.13708
0.58168,0.72811,0.36265,-0.42318,-0.07975,-0.15235
0.58714,0.73557,0.33795,-0.08929,0.03441,-0.51132
0.5807,0.7388,0.34199,1.26698,1.20595,0.04894
0.56856,0.72364,0.39127,0.19164,-0.93241,-0.34606
0.5789,0.70342,0.4124,-0.34284,-1.30387,-0.23798
0.60494,0.68627,0.40383,-0.31174,-0.73551,-0.83944
0.63544,0.674,0.37676,-0.21109,-0.03076,-0.84009
0.66864,0.65671,0.34878,0.5713,1.39914,0.16805
0.68132,0.64101,0.35341,0.38,1.30413,-0.01872
0.67993,0.63542,0.36597,-0.14021,0.10978,-0.13999
0.67643,0.63597,0.37146,-0.1837,-0.56719,-0.37149
0.68031,0.63442,0.367,-0.0646,-0.31275,-0.21067
0.68675,0.63539,0.35306,-0.08954,-0.04878,0.11177
0.68861,0.63864,0.34344,-0.04933,-0.09725,-0.02936
0.68932,0.64127,0.33705,-0.13213,-0.1925,-0.11863
0.69076,0.64195,0.33279,-0.20573,-0.14097,-0.13418
0.69241,0.64039,0.33237,-0.27451,-0.2372,-0.05656
0.69532,0.63728,0.33227,-0.35589,-0.31191,0.03207
0.70024,0.63247,0.33113,-0.28014,-0.2969,0.10402
0.7053,0.62734,0.33013,-0.19557,-0.20034,0.1109
0.70863,0.62353,0.33023,-0.25033,-0.1542,0.05064
0.71165,0.61976,0.33084,-0.29726,-0.02558,0.01299
0.71208,0.61569,0.33744,-0.23394,0.1284,0.02058
0.70385,0.6174,0.35131,-0.22228,0.09513,0.30867
0.68509,0.62448,0.37507,-0.2335,0.14615,0.0566
0.65641,0.62959,0.41561,0.31374,0.7121,0.29382
0.61683,0.63209,0.46902,0.69268,0.70956,0.11214
0.57369,0.63019,0.52319,0.47463,-0.35698,-0.80273
0.54627,0.61867,0.56465,0.44251,-0.58753,-0.78607
0.54566,0.60328,0.58165,0.47841,-0.09026,0.39827
0.54068,0.59992,0.5897,0.34385,0.29339,0.12745
0.53335,0.61051,0.5855,0.16657,0.20105,-0.18049
0.53389,0.62621,0.56818,0.22136,0.05133,-0.2001
0.54302,0.64388,0.53902,0.2477,-0.06904,-0.15073
0.56016,0.65764,0.50372,0.17614,-0.28409,-0.06747
0.58393,0.66624,0.46384,-0.01536,-0.24279,-0.11164
0.61289,0.66957,0.41957,0.10795,-0.32538,-0.1347
0.64235,0.67112,0.3701,-0.11192,-0.44036,-0.18071
0.66837,0.67217,0.31853,-0.51628,-0.4775,-0.28519
0.69224,0.67086,0.26598,-0.97305,-0.22599,-0.05586
0.70405,0.67476,0.22136,-1.20637,0.0016,0.1932
0.6952,0.68693,0.21172,-1.15951,0.06254,-0.04068
0.67786,0.69944,0.22646,-0.46816,-0.77685,-0.24906
0.6642,0.71676,0.21235,-0.4545,-0.79417,-0.23495
0.65796,0.72699,0.19637,-0.06132,-0.956,0.27638
0.6675,0.71655,0.20247,0.82817,-0.03563,-0.01997
0.67907,0.70346,0.20977,0.75406,0.18198,0.21646
0.67801,0.69635,0.23536,0.41078,1.41713,1.1452
0.65817,0.70796,0.25612,-0.22487,0.24521,-0.45662
0.63924,0.71488,0.28341,-0.299,-0.18283,-0.51894
0.63036,0.70283,0.32965,-0.1441,-0.0077,-0.46666
0.61459,0.68295,0.39478,1.0748,1.3488,1.22663
0.57051,0.68053,0.45979,1.256,1.15502,0.42784
0.51436,0.68309,0.51848,1.18449,0.65998,-0.36986
0.47675,0.6718,0.56692,1.09637,-0.30635,-0.84666
0.45746,0.65843,0.59766,0.48821,-0.30243,-0.25609
0.44547,0.65921,0.6058,0.08969,-0.20349,-0.35388
0.45026,0.66235,0.59879,0.09919,-0.09555,-0.76698
0.47657,0.66501,0.57501,-0.05302,-0.1791,-0.62208
0.5094,0.66527,0.54583,0.00911,-0.13801,-0.42216
0.53602,0.67657,0.50491,-0.14086,-0.32107,-0.22183
0.56305,0.6946,0.44777,-0.64272,-0.55144,-0.12473
0.59368,0.70894,0.38071,-0.88055,-0.80028,0.06838
0.62973,0.71108,0.31273,-0.83704,-1.02758,0.11984
0.65732,0.70497,0.26637,-0.85583,-0.31518,-0.21426
0.65575,0.71179,0.2517,-0.83371,0.37079,-0.09497
0.64142,0.72184,0.25986,-0.69074,-0.23732,0.99484
0.63889,0.72736,0.25053,-0.08724,-0.84485,-0.39862
0.64698,0.72467,0.23724,0.2178,-0.57015,-0.50666
0.66356,0.70406,0.25295,1.62097,1.49319,3.40658
0.63843,0.70987,0.29747,0.75571,1.42643,-1.01093
0.60948,0.73006,0.30912,-0.459,-0.21283,-0.47483
0.58802,0.73708,0.33307,-0.29161,-0.32859,-0.37239
0.5758,0.72924,0.36968,-0.34501,0.23645,0.49543
0.55789,0.70508,0.43776,1.35406,1.74455,1.40406
0.50374,0.70369,0.50107,2.06913,1.39603,-0.00687
0.45425,0.69596,0.55615,1.32874,-0.47026,-0.83203
0.43211,0.67149,0.60197,0.17531,-0.4308,0.19711
0.42073,0.6648,0.61728,0.39354,-0.2157,-0.1305
0.42241,0.66389,0.61711,0.41784,-0.04507,-0.40518
0.44247,0.66457,0.60213,0.20438,-0.01641,-0.48048
0.47157,0.66803,0.57564,0.0871,-0.29292,-0.413
0.50305,0.67634,0.53805,0.05127,-0.37025,-0.26229
0.53771,0.69053,0.48378,-0.40501,-0.497,-0.2893
0.57795,0.70169,0.41665,-0.69651,-0.63196,-0.09041
0.61891,0.70643,0.34338,-0.69364,-0.73289,0.00387
0.65503,0.70222,0.27897,-0.82002,-0.32531,-0.31727
0.67132,0.70134,0.23968,-1.09564,0.51706,-0.57683
0.65999,0.71637,0.22632,-1.21394,0.55952,-0.16828
0.64301,0.73211,0.22486,-0.55754,-0.4154,0.17683
0.63408,0.74121,0.22031,0.07342,-0.94821,-0.5414
0.63245,0.74689,0.20531,0.57702,-0.87959,-0.17017
0.65192,0.72921,0.20796,0.9428,-0.39211,0.38785
0.65467,0.70495,0.27286,0.65661,1.59047,-0.41211
0.62643,0.7222,0.29328,-0.66581,0.01378,-0.05707
0.60599,0.73052,0.31482,-0.75829,-0.20049,-0.15496
0.59123,0.73018,0.34246,-0.08002,0.51687,0.16225
0.5733,0.71064,0.40781,1.25444,1.68276,1.33552
0.5297,0.6921,0.49032,1.88805,1.41258,0.12317
0.46781,0.68601,0.55726,1.10469,-0.54379,-0.76098
0.4359,0.66344,0.60814,1.27778,-0.49576,-0.45485
0.42233,0.64726,0.63458,0.58703,-0.01472,0.07615
0.40724,0.64807,0.64355,0.39922,-0.03549,-0.2313
0.41041,0.65099,0.63857,0.20241,-0.02521,-0.45821
0.43179,0.65433,0.62082,0.12549,-0.24278,-0.45428
0.46293,0.66102,0.59054,0.01807,-0.35423,-0.5668
0.49835,0.66923,0.55116,-0.06671,-0.39841,-0.42018
0.53548,0.68392,0.49549,-0.36931,-0.44206,-0.30492
0.57717,0.69817,0.42358,-0.69998,-0.59421,-0.21388
0.62097,0.70401,0.34461,-0.68122,-0.84067,-0.29328
0.6599,0.69805,0.27795,-0.67951,-0.68584,-0.25204
0.68707,0.68818,0.23311,-0.77352,-0.06224,-0.15431
0.69271,0.69073,0.20747,-1.136,0.36576,0.76418
0.67583,0.70618,0.21109,-1.1138,0.39013,1.00376
0.65869,0.71975,0.2193,-0.2974,-0.45014,-0.08911
0.65054,0.73051,0.20775,0.23261,-0.74894,-0.50137
0.64797,0.7319,0.21083,0.45473,-0.6726,-0.05296
0.64263,0.72181,0.25693,1.78285,1.38395,2.24823
0.61175,0.74177,0.27484,0.02231,0.52599,-0.99217
0.58466,0.75289,0.30219,-0.40715,0.14896,-0.45048
0.57045,0.74732,0.34072,-0.21232,0.06275,-0.23931
0.55999,0.72251,0.40544,1.12025,1.59283,1.36932
0.53099,0.69922,0.47867,1.95326,1.62733,0.31088
0.47222,0.69209,0.5459,1.28513,-0.02901,-0.50943
0.42694,0.67365,0.60325,1.53842,-0.27727,-0.62237
0.40224,0.65511,0.63955,0.17267,-0.4596,0.03766
0.38931,0.64947,0.65316,0.18633,-0.26266,-0.14776
0.39377,0.64654,0.6534,0.18222,-0.04497,-0.41426
0.41856,0.64218,0.6422,0.10041,-0.13937,-0.38798
0.45446,0.64297,0.61648,0.06209,-0.26553,-0.33896
0.4926,0.65354,0.57466,0.05365,-0.30205,-0.23877
0.53312,0.67279,0.51297,0.04372,-0.27815,-0.27673
0.58056,0.68802,0.43541,0.06445,-0.30084,-0.36879
0.62781,0.68976,0.36068,-0.00231,-0.33569,-0.31484
0.66454,0.68378,0.30138,-0.49659,-0.36378,-0.2577
0.68998,0.67964,0.24905,-1.04154,-0.09701,0.3951
0.69692,0.68422,0.2148,-1.45147,0.26629,0.88275
0.68937,0.69463,0.20556,-1.12374,0.1353,0.10956
0.6758,0.70433,0.21728,0.00012,-0.75852,-0.18135
0.66163,0.71717,0.2189,0.01429,-0.77135,-0.18296
0.66468,0.71916,0.20251,0.69791,-0.69873,-0.3269
0.67813,0.70617,0.20363,1.48178,0.41604,0.31236
0.68339,0.69154,0.23399,0.55134,2.5683,2.03425
0.66537,0.70092,0.2569,-0.7123,1.63754,-1.01941
0.65141,0.71006,0.26735,-0.6143,0.0987,-0.2729
0.65255,0.71192,0.25951,-0.16925,-0.03685,-0.46424
0.6668,0.70824,0.23189,0.09872,0.25272,-0.57617
0.68747,0.69196,0.22039,0.62196,0.16859,-0.15171
0.70176,0.67538,0.22672,0.72917,0.47077,0.29916
0.71041,0.66641,0.22629,-0.50172,0.43863,0.19614
0.71162,0.66322,0.23179,-0.10631,1.09306,0.51487
0.69816,0.67053,0.25091,0.37464,0.81263,0.62748
0.67605,0.67473,0.29614,0.4952,0.44708,0.50388
0.65326,0.66936,0.35385,0.42368,0.24367,-0.35761
0.63289,0.65826,0.40759,0.49076,0.19197,-0.66383
0.61098,0.65101,0.45044,0.56496,0.24935,-0.72047
0.5921,0.65181,0.47387,0.61411,0.41798,-0.57149
0.56769,0.67089,0.47711,0.2857,0.71621,0.04398
0.5373,0.68915,0.48619,0.23072,0.55986,-0.28229
0.5184,0.69525,0.49789,0.24747,0.00988,-0.62538
0.50931,0.69024,0.51397,0.05872,-0.61785,-0.70993
0.51456,0.67802,0.5249,0.02198,-0.68798,-0.64002
0.5289,0.66485,0.52749,-0.01126,-0.68049,-0.56312
0.54876,0.65272,0.52232,-0.07851,-0.53169,-0.51062
0.57256,0.64189,0.51005,-0.06359,-0.48481,-0.45111
0.60167,0.6323,0.48804,-0.02918,-0.59939,-0.17217
0.63645,0.62302,0.45474,-0.02115,-0.6364,0.0256
0.67322,0.6075,0.42157,0.1506,-0.45453,0.13862
0.70542,0.58211,0.40439,0.62106,0.5124,0.28799
0.71658,0.56161,0.41364,0.81073,1.14782,0.61124
0.69799,0.55949,0.44697,-0.15637,0.89899,0.53584
0.68499,0.5659,0.45885,-0.85071,-0.21231,0.00971
0.67557,0.57401,0.46272,-0.92135,-0.4636,0.00307
0.67474,0.58017,0.45622,-0.34785,0.0273,-0.30377
0.66807,0.58348,0.46176,1.66078,1.38634,-0.09694
0.65505,0.58283,0.48085,-0.19411,-0.13133,-0.58163
0.66166,0.57528,0.48089,-0.44637,-0.65995,-0.47607
0.68453,0.55859,0.4684,-0.43985,-0.44003,-1.26509
0.71965,0.53462,0.44304,-0.22032,-0.1331,-1.39072
0.75718,0.50275,0.41703,0.54987,0.48877,-0.6666
0.77672,0.48019,0.40758,0.44475,1.1363,0.16268
0.78967,0.48161,0.38008,-0.04074,0.72484,-0.13025
0.79946,0.4923,0.34425,-0.16205,0.05598,-0.2931
0.80814,0.50162,0.3087,0.02594,-0.17973,-0.46127
0.81742,0.50707,0.2733,0.08156,-0.18755,-0.30251
0.8274,0.51079,0.23344,-0.05248,-0.05846,-0.12718
0.83654,0.51168,0.19592,-0.18203,-0.0922,-0.0313
0.84352,0.51226,0.16146,-0.21796,-0.05556,-0.11821
0.84856,0.51336,0.12812,-0.22061,-0.0463,-0.20321
0.85263,0.51268,0.10091,-0.20682,-0.06068,-0.23921
0.85769,0.50848,0.07626,-0.12022,-0.00335,-0.09899
0.86353,0.50196,0.0485,-0.13685,0.30767,0.17012
0.86748,0.49663,0.02903,-0.09451,0.45044,0.3518
0.86997,0.49264,0.02132,-0.08666,0.43599,0.15415
0.87188,0.48923,0.02187,-0.14108,0.40776,-0.07644
0.87349,0.48613,0.02628,-0.1695,0.47518,-0.17072
0.8736,0.48554,0.03265,-0.022,0.69315,-0.28469
0.87127,0.48899,0.04207,0.0776,0.83922,-0.18961
0.86736,0.49426,0.05824,0.02085,0.64329,0.07488
0.86147,0.50052,0.08577,-0.08995,0.36698,0.18239
0.85352,0.50364,0.13364,-0.14922,0.12178,0.51354
0.83915,0.50324,0.20637,-0.06907,-0.04666,0.23667
0.82058,0.50327,0.27086,0.05502,-0.18093,-0.2646
0.79816,0.50384,0.3303,0.05968,-0.03092,-0.6275
0.77756,0.50176,0.379,0.0964,0.49364,-0.74143
0.75725,0.50837,0.41005,0.03604,0.76728,-0.51136
0.72912,0.5272,0.4364,0.00167,0.71978,-0.53988
0.69967,0.55604,0.44864,0.10753,0.7557,-0.52426
0.67001,0.59009,0.45042,0.32452,0.56631,-0.64612
0.64557,0.61854,0.44794,0.20071,-0.16651,-0.63278
0.63067,0.63466,0.4466,0.15148,-0.37784,-0.31252
0.62082,0.64493,0.44571,0.04631,-0.39025,-0.22606
0.61423,0.65589,0.43878,-0.01278,-0.30727,-0.17487
0.61158,0.66553,0.42784,-0.04108,-0.19849,-0.28492
0.6149,0.6698,0.41626,-0.04175,-0.18776,-0.31804
0.62373,0.66831,0.40536,-0.05136,-0.22233,-0.34196
0.63649,0.66225,0.39534,-0.04871,-0.32139,-0.2159
0.65276,0.65326,0.38362,-0.04112,-0.27493,-0.12268
0.67035,0.64305,0.37029,-0.08935,-0.13214,-0.02852
0.6861,0.63411,0.3566,-0.22892,0.08255,0.03512
0.69798,0.62945,0.34148,-0.34601,0.14303,0.15371
0.70465,0.62889,0.3286,-0.46724,0.0411,0.21988
0.70778,0.63478,0.31001,-0.62671,0.37459,0.21099
0.70205,0.65193,0.28654,-0.6714,0.99718,0.15061
0.69514,0.66314,0.27754,0.83807,1.47222,-0.82968
0.69357,0.65749,0.29438,0.25102,-0.69802,0.78987
0.70612,0.62866,0.32586,0.02075,-0.92046,0.7869
0.73397,0.59626,0.3252,-0.10005,-0.59759,-0.76842
0.7658,0.56197,0.31264,0.06894,0.1378,-0.85708
0.79661,0.53095,0.28898,0.09635,0.52423,-0.45175
0.80743,0.51942,0.27975,0.098,1.11241,0.25913
0.80643,0.52283,0.27626,-0.31341,0.30783,-0.15425
0.80597,0.53008,0.26347,-0.19558,0.02969,-0.30387
0.80683,0.53938,0.24104,-0.09264,-0.04088,-0.21972
0.80832,0.54795,0.21533,-0.17549,-0.21491,0.03661
0.80986,0.55236,0.19753,-0.31194,-0.11854,-0.07263
0.81113,0.5551,0.18422,-0.33932,-0.13422,0.01432
0.81219,0.55668,0.1745,-0.36161,-0.1381,0.18152
0.81227,0.55857,0.16799,-0.38208,-0.03298,0.22796
0.81079,0.56185,0.16417,-0.39369,-0.0089,0.31081
0.80689,0.56768,0.16329,-0.45876,-0.01017,0.27419
0.80274,0.57358,0.16315,-0.49831,-0.11007,0.10478
0.80017,0.57605,0.16698,-0.47345,-0.1034,0.08807
0.79662,0.57672,0.18107,-0.28887,0.10557,0.26848
0.78742,0.58092,0.20617,-0.36701,0.20898,0.19082
0.77034,0.58883,0.24464,-0.0856,0.42626,0.18512
0.7477,0.59154,0.30172,0.48509,0.82138,0.28755
0.71844,0.58774,0.37202,0.85644,0.69303,0.01897
0.68958,0.57754,0.43695,0.42147,-0.169,-0.42696
0.67536,0.561,0.47872,0.44015,-0.45736,-0.49415
0.6732,0.5459,0.4988,0.46486,0.29598,0.01858
0.66724,0.54276,0.51011,0.18337,0.49634,0.19156
0.66761,0.54434,0.50792,0.05348,0.07214,-0.19658
0.67759,0.54952,0.48876,0.01772,-0.08538,-0.21789
0.69355,0.55563,0.45853,0.0116,-0.24687,-0.17743
0.71334,0.56309,0.41722,-0.06611,-0.2615,-0.14383
0.73633,0.56982,0.36486,-0.19292,-0.20163,-0.14446
0.76135,0.57318,0.30301,-0.27294,-0.20575,-0.108
0.78579,0.57197,0.23535,-0.40798,-0.31394,-0.03015
0.80604,0.5661,0.1727,-0.53549,-0.33222,-0.01197
0.81719,0.56293,0.12374,-1.10785,0.08047,0.19054
0.81499,0.57051,0.10154,-1.41551,0.20871,0.51479
0.80658,0.58078,0.11009,-1.40834,-0.03357,0.67851
0.79343,0.59588,0.1241,-0.84889,-0.76849,-0.03079
0.78014,0.61292,0.12531,-0.34434,-0.73777,-0.61887
0.77313,0.62313,0.11823,-0.13733,-0.87154,-0.33516
0.78109,0.61307,0.11845,0.44005,0.57751,0.9549
0.78619,0.60265,0.13683,0.6091,1.10397,0.27222
0.78049,0.60657,0.15135,0.57279,1.22293,0.68117
0.76342,0.62048,0.1794,-0.15196,-0.05051,-0.3738
0.75264,0.62651,0.20255,-0.42198,-0.33,-0.21367
0.74847,0.62126,0.232,-0.0442,0.51243,0.64062
0.73523,0.61561,0.28367,0.36141,1.31898,0.81655
0.69538,0.6254,0.354,1.18594,1.60564,0.66611
0.64426,0.63728,0.42285,1.41284,0.22153,-0.25609
0.60618,0.63158,0.48337,1.21741,-0.73655,-0.5779
0.58811,0.62006,0.51928,0.05726,-0.56984,0.07746
0.5838,0.61579,0.52913,0.14567,0.2877,-0.39417
0.59018,0.61539,0.52249,0.13579,0.2612,-0.54603
0.6074,0.61524,0.50254,-0.00364,-0.15819,-0.53314
0.6294,0.61529,0.47463,-0.13969,-0.27944,-0.26938
0.65113,0.62263,0.434,-0.22634,-0.26594,-0.24876
0.67644,0.6317,0.37865,-0.35752,-0.26096,-0.25948
0.70304,0.63902,0.31206,-0.88,-0.37477,-0.03119
0.72989,0.63843,0.24428,-0.80514,-0.752,-0.02098
0.75618,0.63019,0.17625,-0.83662,-0.84666,-0.11654
0.77345,0.6231,0.11628,-0.92344,-0.21572,-0.41765
0.77136,0.62831,0.10112,-1.14146,0.37459,0.51289
0.75872,0.64006,0.1211,-1.09377,0.54879,1.95151
0.74848,0.65045,0.12922,-0.30793,-0.46817,-0.62658
0.74429,0.65817,0.11329,0.20174,-0.50639,-0.37304
0.74802,0.65065,0.13084,1.23376,0.90802,2.43632
0.73899,0.64971,0.17824,0.88915,1.15716,-0.34195
0.71443,0.66654,0.21289,-0.53733,0.0686,-0.07516
0.69846,0.66771,0.25751,-0.52539,-0.31046,-0.24266
0.68547,0.65998,0.3075,-0.13645,0.50849,0.34146
0.66267,0.648,0.37545,0.51244,1.23319,1.27791
0.62894,0.6414,0.43936,1.53262,0.61316,-0.85593
0.59507,0.63657,0.49059,1.26861,-0.05689,-1.07588
0.57892,0.62617,0.52226,0.74215,-0.65942,-0.19393
0.58016,0.61412,0.53504,0.26277,-0.00788,-0.24406
0.59441,0.61554,0.51748,0.35516,0.26025,-0.21944
0.61795,0.62089,0.48232,0.11406,0.20052,-0.24668
0.64488,0.62673,0.43743,-0.14868,-0.12355,-0.23226
0.67282,0.6326,0.38356,-0.31422,-0.19097,-0.12053
0.69958,0.63803,0.32173,-0.78519,-0.29212,0.00821
0.72307,0.63861,0.26334,-0.95093,-0.76476,-0.11556
0.74471,0.63092,0.21762,-1.05093,-0.84283,-0.25506
0.75688,0.62595,0.18794,-1.24476,-0.12223,0.09541
0.75598,0.62456,0.19599,-0.79669,-0.09338,0.88705
0.75824,0.62345,0.19073,-0.28624,-0.36151,-0.26367
0.75889,0.62721,0.17517,0.02089,-0.29567,-0.49147
0.76579,0.62414,0.15494,0.80901,0.59458,1.48037
0.75688,0.62475,0.19187,1.25636,2.8106,0.77919
0.72762,0.65103,0.21617,-0.05587,0.16663,-0.3994
0.69798,0.67336,0.24376,-0.39306,-0.91712,-0.40581
0.68645,0.67938,0.25927,-0.54407,-0.49478,-0.17921
0.68514,0.67596,0.27142,-0.47658,0.31545,0.54351
0.67192,0.66469,0.32667,0.57289,1.78923,1.25375
0.63551,0.66542,0.39158,1.85316,2.19725,0.12785
0.58183,0.67502,0.45369,0.97904,-0.19389,-0.71255
0.5522,0.66085,0.50829,0.93979,-0.61208,-0.43074
0.53982,0.64257,0.54378,0.10952,-0.52444,0.0683
0.53766,0.63474,0.555,0.23434,-0.21334,0.29122
0.5493,0.63179,0.54691,0.16211,0.15534,-0.38198
0.57286,0.62965,0.52476,0.07605,-0.24464,-0.38172
0.60154,0.6294,0.49194,0.01678,-0.29835,-0.29791
0.63373,0.63272,0.44504,-0.07712,-0.31218,-0.20012
0.67183,0.63522,0.38096,-0.41463,-0.31537,-0.18623
0.71283,0.63135,0.30541,-0.60054,-0.39085,-0.12786
0.75276,0.61484,0.2352,-0.57303,-0.40526,-0.0768
0.77874,0.60004,0.18309,-0.7146,0.01934,-0.26509
0.78942,0.59616,0.14634,-1.15023,0.23651,0.16498
0.78293,0.60419,0.14822,-1.37489,0.24262,0.66405
0.77477,0.61356,0.15259,-0.53134,-0.27505,0.43467
0.76369,0.6249,0.16209,-0.27921,-0.57653,-0.70673
0.75673,0.63464,0.15684,-0.10229,-0.63775,-0.54574
0.75745,0.63564,0.14911,0.66246,0.11819,0.94775
0.75129,0.63478,0.1806,1.47973,1.68722,2.78151
0.73118,0.65272,0.19829,-0.28039,0.20032,-0.60218
0.71254,0.66823,0.21389,-0.52309,-0.10326,-0.41994
0.70572,0.66444,0.24591,-0.41208,-0.20899,-0.33078
0.70479,0.65614,0.26972,-0.24353,0.56168,0.89992
0.69062,0.64753,0.3221,0.35244,1.15272,1.14267
0.65418,0.65196,0.3834,0.9075,1.57785,0.70997
0.60605,0.65724,0.44803,0.64767,-0.08322,-0.89316
0.57603,0.64162,0.50647,0.67676,-0.41185,-0.72566
0.56781,0.61719,0.54467,0.35042,-0.05871,-0.08706
0.56545,0.59749,0.56857,0.0533,-0.0857,0.23683
0.5662,0.59098,0.5746,-0.01137,-0.02812,-0.38704
0.58275,0.58591,0.56312,-0.06966,-0.21137,-0.36143
0.6105,0.58249,0.53665,-0.02201,-0.30417,-0.19386
0.64151,0.58714,0.49369,0.03627,-0.28317,-0.12458
0.67625,0.59548,0.43369,0.14359,-0.12169,-0.0572
0.71075,0.6003,0.3667,0.21364,-0.01581,-0.09389
0.74177,0.60128,0.29707,0.07646,0.05795,-0.04221
0.76439,0.60165,0.23178,-0.32529,-0.17472,-0.157
0.78008,0.6027,0.168,-0.72961,-0.16915,0.26892
0.78643,0.60645,0.11721,-1.29464,0.0406,0.74129
0.78003,0.6169,0.10479,-1.34546,-0.00503,0.30421
0.77078,0.62876,0.10276,-0.95961,-0.64014,-0.51118
0.75784,0.64415,0.10368,-0.50079,-0.82629,-0.30024
0.75458,0.64974,0.09191,0.41496,-0.73025,0.13803
0.76339,0.63842,0.09831,1.49011,0.74119,0.53721
0.76796,0.63117,0.1089,0.48895,0.9002,-0.02577
0.76518,0.63431,0.11025,-0.47457,1.40956,1.31347
0.75672,0.64119,0.12747,-0.33108,0.74272,-0.08664
0.75079,0.64513,0.14182,-0.13039,0.10143,-0.29867
0.7546,0.64106,0.14005,-0.16412,-0.15422,-0.38387
0.76927,0.62673,0.12427,0.05361,0.03663,-0.11103
0.78683,0.60592,0.11731,0.45385,0.44646,0.25025
0.79472,0.59482,0.12085,0.19968,0.58776,0.46244
0.79786,0.58757,0.13481,-0.4458,0.59614,0.59116
0.79557,0.58519,0.15692,-0.07453,0.68629,0.57678
0.78686,0.58631,0.19259,0.48359,0.72942,0.42333
0.77251,0.58482,0.24742,0.57667,0.67807,0.29224
0.75701,0.57895,0.30288,0.22838,0.28881,-0.38172
0.74114,0.57361,0.34884,0.35658,0.3535,-0.62014
0.72127,0.58023,0.37828,0.39134,0.48143,-0.54164
0.70207,0.60245,0.37967,0.19123,0.61847,-0.14756
0.6803,0.63391,0.3679,0.10571,0.5886,-0.02066
0.65975,0.65991,0.35951,0.07433,0.44002,-0.07046
0.65157,0.67384,0.34841,-0.04253,-0.11773,-0.3388
0.65465,0.67668,0.33694,-0.16445,-0.45714,-0.50323
0.66506,0.67294,0.3238,-0.1305,-0.45905,-0.34786
0.67934,0.66448,0.31137,-0.09559,-0.4183,-0.28775
0.69461,0.65402,0.29962,-0.02919,-0.42314,-0.19021
0.71196,0.64115,0.28642,-0.05927,-0.48812,-0.08438
0.73067,0.62477,0.27526,-0.05561,-0.53928,0.04354
0.75003,0.60474,0.26785,0.01664,-0.42381,0.05393
0.76635,0.58743,0.26006,0.08004,0.09293,0.16042
0.77264,0.57827,0.26198,-0.03688,0.93133,0.64372
0.76447,0.57967,0.28208,-0.31414,0.94113,0.54853
0.75135,0.58837,0.29881,-0.55579,0.31289,0.02994
0.74062,0.60018,0.30209,-0.59888,-0.01675,-0.18155
0.73548,0.61428,0.28589,-0.61724,-0.11596,-0.44035
0.73886,0.62664,0.24781,0.12574,0.06685,-0.22715
0.74446,0.62957,0.22229,1.57541,1.07392,0.59875
0.73888,0.62497,0.25191,0.94001,0.90055,0.57596
0.73264,0.61722,0.28683,-0.51946,-0.82332,-0.64919
0.74258,0.60523,0.28684,-0.56864,-1.04677,-0.51747
0.76412,0.58635,0.26891,-0.4168,-0.55753,-1.11332
0.7927,0.56113,0.23823,0.01278,0.11096,-1.17363
0.8207,0.53229,0.20767,0.7767,1.10489,0.42388
0.82889,0.52125,0.20309,-0.00043,1.17074,0.52916
0.82814,0.52663,0.19195,-0.25136,0.31181,-0.31086
0.82625,0.53784,0.16741,0.05872,-0.15619,-0.45998
0.82622,0.54734,0.13333,0.13759,-0.30403,-0.39627
0.82655,0.55481,0.09484,0.05484,-0.29337,-0.03724
0.82588,0.56106,0.0559,-0.03523,-0.08767,0.13874
0.82383,0.56647,0.02044,-0.11428,-0.03139,0.10379
0.82115,0.57062,-0.01013,-0.11207,-0.1057,0.01082
0.81948,0.57177,-0.03915,-0.09086,-0.19257,-0.1025
0.81926,0.56958,-0.06627,-0.03583,-0.15008,-0.07338
0.81998,0.56508,-0.09117,-0.07328,0.14382,0.12187
0.8203,0.56077,-0.11245,-0.17158,0.36184,0.31987
0.82037,0.55741,-0.12761,-0.12175,0.38691,0.39963
0.81979,0.55643,-0.13538,-0.02986,0.26814,0.33968
0.81957,0.55656,-0.13621,-0.04479,0.21676,0.23067
0.81925,0.55766,-0.13359,-0.05048,0.23013,0.2688
0.81873,0.56025,-0.12571,-0.06665,0.26182,0.25497
0.81779,0.56452,-0.11194,-0.04646,0.49856,0.23272
0.81665,0.57006,-0.09007,-0.01926,0.5243,0.36118
0.81487,0.57739,-0.05106,-0.19431,0.46872,0.71668
0.80949,0.58667,0.02323,-0.25598,0.40994,0.42471
0.79493,0.59708,0.10755,-0.03778,0.37907,-0.22612
0.77252,0.60632,0.18864,0.1527,0.26265,-0.4844
0.74705,0.61264,0.25804,0.5557,0.35761,-0.65734
0.71737,0.62317,0.3115,0.61472,0.38077,-0.31896
0.68049,0.64522,0.34729,0.30649,0.27619,-0.05382
0.64292,0.66761,0.37542,0.47051,0.2878,-0.21233
0.60977,0.68764,0.39412,0.38221,0.34199,-0.55943
0.57111,0.70954,0.41276,0.1616,0.36864,-0.39437
0.53954,0.72329,0.43099,0.16508,-0.07733,-0.41441
0.51978,0.7258,0.4506,0.12672,-0.43893,-0.56137
0.50968,0.72218,0.46763,-0.10054,-0.58107,-0.38905
0.50795,0.7164,0.47828,-0.10068,-0.55566,-0.34299
0.51149,0.71006,0.48392,-0.08745,-0.43197,-0.30306
0.51799,0.70471,0.48483,-0.0255,-0.28462,-0.28204
0.52845,0.70014,0.48015,-0.0347,-0.30335,-0.27516
0.54314,0.69603,0.46961,-0.05341,-0.42841,-0.20352
0.56195,0.69168,0.45363,0.00618,-0.44506,-0.10093
0.5837,0.68753,0.43196,0.0371,-0.2921,-0.05159
0.60492,0.6841,0.40751,0.02725,0.00686,0.05907
0.62144,0.68022,0.38873,0.09725,0.36612,0.3111
0.62772,0.67508,0.38759,0.18866,0.55327,0.46579
0.62036,0.67454,0.40018,0.19597,0.62449,0.2916
0.60451,0.68223,0.41124,-0.03034,0.15302,0.09195
0.58767,0.69501,0.41425,-0.36125,-0.18421,0.03196
0.5763,0.7089,0.40661,-0.5241,-0.39643,-0.07937
0.57936,0.72078,0.38055,-0.36415,-0.34805,-0.26762
0.59681,0.72836,0.33662,0.13774,0.04706,-0.37835
0.60629,0.73091,0.31334,0.5174,0.31293,-0.25378
0.60324,0.72191,0.33902,1.19659,0.5988,0.59162
0.60199,0.70609,0.37287,0.39225,-0.45446,-0.13049
0.6128,0.69244,0.38078,-0.16955,-1.16734,-0.33956
0.63652,0.68,0.3639,-0.18598,-0.95349,-0.62355
0.66896,0.66191,0.33818,-0.093,-0.20355,-0.83467
0.7,0.64054,0.31575,0.22159,0.69367,-0.22252
0.71593,0.62426,0.31263,0.01759,1.45112,0.1782
0.71439,0.62016,0.3241,-0.31391,0.49999,-0.21986
0.70814,0.6257,0.32716,-0.13355,-0.32036,-0.19625
0.70779,0.62935,0.32085,-0.00108,-0.36809,-0.03394
0.71294,0.62897,0.31002,0.04327,-0.02234,-0.01127
0.71762,0.63091,0.2949,0.00973,-0.01577,0.03918
0.72015,0.63494,0.27971,-0.03223,-0.06211,0.01775
0.72306,0.63755,0.26592,-0.14251,-0.0814,-0.12197
0.72708,0.63702,0.25602,-0.16144,-0.0778,-0.07911
0.73138,0.63476,0.24934,-0.18169,-0.07604,-0.04439
0.73419,0.63361,0.24391,-0.20773,-0.03123,0.03101
0.7339,0.63544,0.24,-0.1956,-0.02903,0.0353
0.73143,0.63974,0.23611,-0.1826,-0.04104,0.06812
0.72658,0.64594,0.23419,-0.28213,-0.06932,0.11014
0.71993,0.65367,0.23326,-0.31377,-0.12816,0.05362
0.71377,0.66075,0.23225,-0.30382,-0.18496,-0.04394
0.70911,0.66556,0.23278,-0.20079,-0.1127,0.11282
0.70535,0.66916,0.23388,-0.17247,-0.09291,0.04929
0.7003,0.67261,0.23908,-0.21375,0.0348,-0.02053
0.69135,0.67501,0.25767,-0.21526,0.05941,0.0655
0.67499,0.67601,0.29562,-0.18592,0.12773,0.20692
0.64923,0.67327,0.35384,0.32753,0.5065,0.37247
0.61558,0.66278,0.42636,0.51038,0.58638,0.22458
0.5788,0.64732,0.49594,0.58917,0.30158,-0.27298
0.55275,0.62452,0.55176,0.40742,-0.53085,-0.76414
0.5417,0.60891,0.57946,0.50422,-0.42092,-0.31535
0.52805,0.60905,0.59179,0.5841,0.36271,0.29538
0.51183,0.6177,0.59705,0.1784,0.06257,-0.1663
0.51108,0.62942,0.58534,0.08537,-0.06397,-0.22691
0.52367,0.64411,0.55757,0.13584,-0.24969,-0.19947
0.54524,0.65675,0.52095,0.08123,-0.40065,-0.32616
0.57343,0.66506,0.47841,0.00613,-0.37351,-0.28013
0.6065,0.6717,0.4254,-0.10665,-0.31325,-0.19092
0.6431,0.67655,0.35874,-0.01785,-0.23585,-0.08123
0.67574,0.67761,0.29019,-0.24938,-0.19965,0.04698
0.69905,0.67304,0.24155,-0.6027,-0.18609,0.0455
0.70905,0.67206,0.21349,-0.89177,-0.02531,0.11846
0.70141,0.68093,0.21061,-1.11801,-0.01885,0.01464
0.69096,0.68846,0.22044,-1.12772,-0.40841,-0.06657
0.68329,0.69955,0.20916,-0.6121,-0.84155,-0.44741
0.67531,0.71192,0.19267,-0.46213,-0.8877,-0.28816
0.67974,0.70794,0.19178,0.79098,-0.10517,0.70166
0.68679,0.69924,0.19844,1.4521,1.14236,1.59963
0.67751,0.69522,0.2401,0.04559,0.92169,-0.47696
0.65242,0.7063,0.27474,-0.22069,0.25135,-0.74061
0.63146,0.71063,0.31026,-0.47559,-0.60906,-0.1435
0.62342,0.70321,0.34182,-0.2013,0.2266,0.14113
0.61291,0.68982,0.38532,0.07965,0.68441,0.69104
0.58804,0.67484,0.44586,1.82088,2.05828,0.33083
0.53017,0.67796,0.5092,1.18622,0.19367,-0.66552
0.48204,0.67352,0.56036,1.29243,-0.36476,-0.72398
0.45759,0.65959,0.59627,0.04943,-0.80452,0.22677
0.45008,0.65555,0.60636,0.31347,0.12704,-0.13572
0.45565,0.6601,0.59719,0.25283,0.26052,-0.35319
0.47385,0.66693,0.57504,0.10055,-0.13026,-0.39869
0.49811,0.67486,0.54447,0.12612,-0.21412,-0.21313
0.52395,0.68763,0.50263,0.09613,-0.23426,-0.13117
0.5531,0.70356,0.44619,-0.09193,-0.3323,-0.21276
0.58635,0.71547,0.37985,-0.3051,-0.62645,-0.23616
0.62212,0.7152,0.31851,-0.44407,-0.7712,-0.22423
0.65623,0.70439,0.27053,-0.85349,-0.4197,-0.31382
0.67547,0.69982,0.23236,-1.2381,0.39034,-0.06499
0.67238,0.70719,0.21859,-1.22698,0.5518,0.95809
0.65929,0.71802,0.22311,-0.5631,-0.33255,0.3416
0.64415,0.73163,0.22314,-0.02632,-0.8878,-0.58102
0.63612,0.74388,0.2049,0.45509,-0.93164,0.03056
0.64716,0.73194,0.21317,1.77262,0.31294,1.92196
0.65385,0.70551,0.27339,0.99514,1.45114,-0.51988
0.6278,0.71748,0.3018,-0.48461,-0.04855,-0.4816
0.60889,0.72079,0.33121,-0.89042,-0.59449,-0.44736
0.60687,0.72047,0.33559,-0.48305,0.11083,-0.33214
0.5989,0.72204,0.34637,-0.30014,1.1456,1.13543
0.5707,0.71596,0.40211,2.02516,2.79875,1.08126
0.50508,0.72694,0.46524,1.45534,0.57337,0.00103
0.44488,0.7256,0.52496,1.1536,-0.50126,-0.67139
0.41875,0.70014,0.57831,0.48838,-0.96921,-0.48683
0.41615,0.68141,0.60207,0.256,0.08443,0.29415
0.41609,0.67862,0.60526,0.55556,0.43171,-0.14833
0.42687,0.68431,0.59118,0.13957,0.05768,-0.2951
0.44871,0.69525,0.56149,0.03023,-0.29581,-0.29424
0.47742,0.70792,0.52049,0.15925,-0.3366,-0.33076
0.51325,0.72042,0.46644,0.13071,-0.31617,-0.26397
0.55504,0.72849,0.40152,-0.22101,-0.40341,-0.20142
0.59918,0.7266,0.33619,-0.36896,-0.55865,-0.18125
0.64067,0.71562,0.27824,-0.58914,-0.67441,-0.15988
0.67308,0.70433,0.22557,-1.07197,0.0614,-0.19239
0.6871,0.70377,0.18057,-1.13845,0.22461,0.18535
0.68065,0.71244,0.17071,-1.11192,0.26061,0.61457
0.66733,0.72219,0.18194,-0.29271,-0.71929,0.04804
0.65659,0.72918,0.19283,-0.08132,-0.91122,-0.19776
0.65457,0.73324,0.18408,0.45882,-0.66989,0.02257
0.66216,0.72042,0.20622,1.99769,1.66013,2.94385
0.65952,0.69983,0.27434,0.37561,0.95677,-1.05233
0.63476,0.70828,0.30889,-0.79192,-0.26826,-0.47218
0.612,0.70698,0.35444,-0.59796,-0.41299,0.0572
0.59823,0.69991,0.39017,-0.01298,0.52816,1.12286
0.57541,0.68246,0.45071,1.96539,2.12667,0.8223
0.52725,0.68063,0.50866,1.60208,0.8516,-0.624
0.47242,0.67775,0.56343,1.13891,-0.47701,-0.90076
0.4403,0.67074,0.59685,0.39828,-0.74326,-0.11338
0.43247,0.66261,0.61148,0.3264,-0.25146,0.11607
0.43632,0.66897,0.60175,0.52145,0.09072,-0.13258
0.45882,0.6786,0.57356,0.15407,0.03386,-0.41682
0.49407,0.68436,0.53622,0.09241,-0.15488,-0.43449
0.53159,0.68637,0.49628,-0.01405,-0.32436,-0.22046
0.56968,0.69341,0.44117,-0.52694,-0.51523,-0.07289
0.60606,0.70077,0.3763,-0.98649,-0.59961,0.08279
0.64729,0.69441,0.31433,-0.87122,-0.62336,-0.11303
0.68334,0.68109,0.26298,-0.70847,-0.05125,-0.52859
0.69449,0.68158,0.23048,-0.88617,0.26093,0.07556
0.6794,0.69743,0.22802,-0.66861,0.07784,1.44284
0.6642,0.70952,0.23537,-0.25643,-0.80924,-0.2464
0.65307,0.72035,0.23362,0.04761,-0.8528,-0.66645
0.65107,0.72496,0.22478,0.2582,-0.6325,-0.17417
0.65879,0.70839,0.25331,1.97798,1.37266,3.93329
0.64442,0.69662,0.31534,0.04061,0.17318,-1.01063
0.61949,0.70884,0.3373,-0.38727,-0.21149,-0.78987
0.61016,0.70823,0.35511,-0.69097,-0.19352,-0.41088
0.61255,0.69786,0.37117,-0.27411,0.58623,0.84103
0.59732,0.68946,0.40968,-0.03693,1.23154,1.27421
0.55171,0.69521,0.46075,1.71517,1.42926,0.17007
0.49474,0.69767,0.51815,1.19854,-0.04839,-0.38643
0.45847,0.68155,0.57034,0.96506,-0.44994,-0.58088
0.44258,0.66466,0.60195,0.20752,-0.56293,0.02177
0.44065,0.65868,0.60988,0.21224,-0.07845,0.02228
0.45343,0.65408,0.60545,0.24071,0.10221,-0.33081
0.47677,0.65162,0.58997,0.1368,-0.07589,-0.2994
0.50637,0.65394,0.56208,0.12497,-0.25702,-0.24619
0.53977,0.66059,0.52178,0.22213,-0.28098,-0.19839
0.57852,0.67142,0.46314,0.15103,-0.2574,-0.27225
0.62287,0.6782,0.38996,-0.1299,-0.25457,-0.25357
0.66362,0.6746,0.32328,-0.47788,-0.49897,-0.20906
0.69883,0.66234,0.27008,-0.72242,-0.50923,-0.37243
0.72448,0.6542,0.21714,-1.07495,-0.14847,-0.16115
0.73422,0.65519,0.17788,-1.24237,0.32778,1.07874
0.72792,0.66133,0.181,-0.71768,-0.14017,0.41658
0.71595,0.67302,0.18562,-0.40611,-0.68106,-0.34484
0.6986,0.69029,0.18829,-0.12082,-1.0081,-0.72079
0.6948,0.69686,0.17782,0.41515,-0.75024,-0.49836
0.7101,0.68447,0.1651,1.20761,0.39462,0.84947
0.72821,0.66345,0.17186,0.94838,1.76355,1.75092
0.72881,0.65442,0.20142,-0.42015,1.32846,-0.47133
0.71922,0.65831,0.22215,-0.42477,0.45051,-0.35371
0.71801,0.65677,0.23046,0.14573,0.42631,-0.5818
0.72477,0.65376,0.21749,0.04696,0.18235,-0.28651
0.74421,0.6376,0.19902,0.34042,-0.24177,0.19357
0.76065,0.61342,0.21243,0.57062,0.44611,0.69608
0.75656,0.60786,0.24106,0.42388,1.1272,0.87477
0.7369,0.61606,0.27829,0.38429,1.3358,0.61397
0.702,0.62661,0.33845,0.52473,0.61734,-0.45333
0.66238,0.63752,0.39347,0.84309,0.10787,-0.74465
0.62552,0.6511,0.42987,0.85263,0.14341,-0.53978
0.59548,0.65867,0.45995,0.58431,0.33259,-0.13489
0.57126,0.6641,0.48231,0.34613,0.69961,-0.1934
0.54075,0.6795,0.49583,0.33797,0.56305,-0.25767
0.50901,0.69568,0.50689,0.2975,-0.07177,-0.58082
0.4908,0.70122,0.51711,0.14394,-0.36438,-0.75292
0.4876,0.70089,0.52057,0.02027,-0.43279,-0.70424
0.49687,0.69754,0.51629,0.0367,-0.49659,-0.59984
0.51493,0.69234,0.50546,-0.01447,-0.58628,-0.51372
0.54085,0.68335,0.49041,-0.15368,-0.75599,-0.30883
0.57357,0.67287,0.46717,-0.22328,-0.82,-0.19601
0.61154,0.66181,0.4336,-0.30068,-0.87412,-0.11103
0.64862,0.64329,0.40678,0.00923,-0.60366,0.01292
0.67767,0.62222,0.39191,0.30241,0.37903,0.19433
0.67796,0.61117,0.40845,0.49114,1.1043,0.48824
0.65468,0.61615,0.43788,-0.8573,0.53935,0.18507
0.64077,0.62413,0.44707,-0.9177,0.02672,-0.05431
0.62795,0.63338,0.45222,-0.80464,-0.23828,-0.15665
0.62939,0.64576,0.43226,1.23784,0.51324,0.07387
0.6201,0.649,0.44075,2.1545,1.67763,0.87205
0.5996,0.63149,0.49161,0.5411,0.46935,-0.27637
0.60437,0.61551,0.50584,-0.58543,-1.4368,-0.45104
0.62242,0.60184,0.50038,-0.45164,-0.98766,-1.19405
0.65545,0.59459,0.46566,-0.37444,-0.3154,-1.58468
0.69536,0.57605,0.42968,0.5427,0.65797,-0.83813
0.72438,0.54858,0.41751,1.05854,1.73457,0.06343
0.74293,0.52845,0.41085,0.0151,0.82603,-0.36303
0.7578,0.52255,0.39073,-0.03615,0.0443,-0.38777
0.7695,0.52591,0.36233,0.23549,-0.33512,-0.42402
0.78523,0.52631,0.3262,0.08036,-0.42519,-0.37831
0.80536,0.52097,0.28282,0.05531,-0.33798,-0.22084
0.82284,0.51615,0.23774,0.03403,-0.0151,0.04376
0.83327,0.51719,0.19535,-0.27439,0.11757,-0.05524
0.83986,0.51966,0.15676,-0.3147,0.01203,-0.06472
0.84476,0.52014,0.12579,-0.2506,-0.22787,-0.48832
0.8507,0.51706,0.09467,-0.13133,-0.22824,-0.29222
0.85723,0.51144,0.05985,-0.07673,-0.0062,0.14306
0.86398,0.50277,0.02748,-0.08009,0.37776,0.47496
0.86956,0.49369,0.01149,-0.00229,0.43287,0.36251
0.87382,0.4862,0.00677,0.01186,0.41062,0.20861
0.87719,0.4801,0.00615,-0.10097,0.28488,-0.03128
0.88061,0.47376,0.00868,-0.08964,0.27458,-0.01909
0.88342,0.46838,0.01364,-0.15405,0.51599,-0.14748
0.88431,0.46652,0.01843,-0.12713,0.84869,-0.23583
0.88374,0.46724,0.02604,-0.03108,0.86789,0.0518
0.88085,0.47138,0.04362,-0.0196,0.78663,0.19347
0.87503,0.47766,0.07847,-0.09411,0.44728,0.28406
0.8645,0.48217,0.14194,0.04071,0.19549,0.36461
0.84731,0.48609,0.21393,0.18429,-0.02751,-0.19903
0.82578,0.49222,0.27533,0.11612,-0.09672,-0.52443
0.79969,0.5027,0.3283,-0.03179,0.24497,-0.6473
0.77758,0.51441,0.36157,-0.17312,0.6104,-0.54012
0.75431,0.53026,0.38707,-0.05229,0.7695,-0.44821
0.73,0.54782,0.40863,0.14988,0.79851,-0.39829
0.70689,0.56638,0.42368,0.28345,0.45889,-0.505
0.67931,0.58941,0.43717,0.27419,0.2092,-0.5928
0.65386,0.60882,0.44921,0.16256,-0.1837,-0.60805
0.63566,0.61845,0.462,0.06264,-0.23161,-0.42173
0.6225,0.62204,0.47491,-0.09937,-0.29199,-0.29677
0.61486,0.62347,0.48294,-0.06845,-0.23678,-0.29553
0.6108,0.6224,0.48941,0.02641,-0.06457,-0.37952
0.61011,0.61879,0.49483,0.03293,-0.02109,-0.43945
0.61322,0.61393,0.49703,-0.0605,-0.22441,-0.41479
0.62021,0.60918,0.49419,-0.11306,-0.43119,-0.30319
0.63172,0.6047,0.48503,-0.11849,-0.46182,-0.2405
0.64771,0.59895,0.47087,-0.08006,-0.40692,-0.11488
0.66917,0.59059,0.45099,-0.18132,-0.27411,0.02295
0.69268,0.57996,0.42875,-0.19989,-0.00436,0.0624
0.71309,0.56914,0.40936,-0.12509,0.33829,0.17838
0.72354,0.56143,0.4016,0.1091,0.77799,0.41179
0.71947,0.56165,0.40853,0.02171,0.77354,0.23705
0.71047,0.57184,0.41015,-0.63451,0.089,0.07917
0.70202,0.58873,0.40069,-0.73919,-0.03058,0.14513
0.70385,0.60217,0.3768,0.25601,0.46497,-0.32422
0.7021,0.61221,0.36363,1.78608,1.82699,0.50975
0.68209,0.60752,0.40701,0.38138,-0.62501,-0.50771
0.68012,0.59629,0.42647,-0.48195,-1.52957,-0.20582
0.69482,0.58658,0.41611,-0.45854,-0.81724,-0.89223
0.71631,0.58402,0.38185,-0.30857,-0.13338,-0.9985
0.74528,0.57344,0.34016,0.3615,0.87554,-0.28896
0.76834,0.55488,0.31899,0.33226,1.57861,-0.3239
0.77792,0.54283,0.31649,-0.10373,0.63621,-0.18237
0.77951,0.54397,0.31055,-0.12041,-0.17344,-0.13146
0.78254,0.54939,0.29291,-0.09872,-0.3402,-0.1947
0.79073,0.54973,0.26932,-0.11026,-0.25313,-0.02492
0.80117,0.54595,0.24506,-0.12496,-0.17295,0.04072
0.80961,0.54225,0.22468,-0.19986,0.12566,0.09198
0.81502,0.54102,0.20745,-0.30101,0.11321,0.09875
0.81815,0.5404,0.19646,-0.4023,0.02515,0.0415
0.81983,0.53907,0.19305,-0.43235,-0.071,-0.03055
0.82124,0.53687,0.19317,-0.40352,-0.11556,0.22972
0.82204,0.53464,0.19596,-0.42463,-0.10794,0.16579
0.82156,0.53362,0.20069,-0.41234,-0.1368,0.00332
0.82089,0.53322,0.20447,-0.40962,-0.15968,0.11806
0.821,0.53197,0.20724,-0.34348,-0.0676,0.02085
0.82187,0.52874,0.21203,-0.23313,0.04785,-0.01377
0.82118,0.52569,0.22206,-0.16764,0.0658,0.34705
0.81708,0.52585,0.23633,-0.17184,0.09558,0.33633
0.808,0.52759,0.26226,-0.25748,0.33872,0.10421
0.78987,0.52963,0.30917,-0.00701,0.58264,0.41871
0.76191,0.53225,0.36904,0.21865,0.73009,0.40692
0.72644,0.53221,0.43478,0.57389,0.58766,-0.37176
0.69625,0.52218,0.49249,0.45818,0.13492,-0.74629
0.67732,0.51413,0.52621,0.41582,-0.22482,-0.42986
0.66926,0.51355,0.53697,0.26766,0.13096,0.48474
0.65868,0.52398,0.53998,0.23819,0.14159,0.05794
0.6554,0.53803,0.53006,-0.06994,-0.08745,-0.28511
0.66504,0.55222,0.50276,-0.1212,-0.13126,-0.24781
0.68365,0.56483,0.46216,-0.03933,-0.2165,-0.17667
0.70762,0.57184,0.41506,-0.07755,-0.19603,-0.25899
0.73263,0.57307,0.36719,-0.13698,-0.20086,-0.21503
0.75752,0.57252,0.31367,-0.20902,-0.28214,-0.1039
0.77928,0.57161,0.25685,-0.36287,-0.35993,-0.0425
0.79816,0.56672,0.20437,-0.61032,-0.39909,0.00308
0.80981,0.5631,0.16466,-1.29523,0.30025,0.3464
0.80887,0.56956,0.14604,-1.47899,0.30427,0.48741
0.79664,0.58249,0.16144,-1.34017,0.23889,0.49255
0.78188,0.60144,0.16408,-0.43786,-0.74938,-0.59762
0.76835,0.62236,0.14933,-0.10316,-1.02689,0.01317
0.77155,0.62209,0.13308,0.84888,0.25376,0.9718
0.78104,0.60691,0.14708,1.20597,0.98207,0.73886
0.78277,0.59581,0.17965,0.33523,1.57033,0.08181
0.76589,0.60455,0.2189,-0.50433,0.11997,-0.42532
0.7493,0.6152,0.24508,-0.80077,-0.39973,-0.30851
0.74319,0.61625,0.26057,-0.55186,0.02621,0.03686
0.73919,0.60959,0.28633,0.15176,1.13613,1.02305
0.72537,0.60075,0.33606,2.00907,2.53322,0.92041
0.67748,0.61579,0.40226,1.31211,0.82604,0.21667
0.6274,0.62135,0.46934,1.43681,-0.4708,-0.76917
0.58867,0.6116,0.52858,0.92547,-0.78746,-0.36527
0.57169,0.60586,0.55327,-0.07407,-0.29688,-0.01629
0.56951,0.60501,0.55643,-0.04049,0.34636,-0.30096
0.57523,0.60518,0.55032,0.04231,0.26523,-0.43971
0.58879,0.60933,0.53107,-0.03676,-0.16934,-0.28398
0.60551,0.61864,0.50063,-0.10423,-0.35248,-0.21749
0.62694,0.63215,0.45533,-0.21145,-0.42278,-0.32789
0.65598,0.64204,0.39681,-0.45805,-0.42648,-0.26418
0.68814,0.64593,0.3305,-0.66767,-0.60938,-0.18071
0.72547,0.63622,0.2625,-0.8482,-0.73489,-0.22433
0.75721,0.6215,0.20092,-1.09565,-0.3261,-0.31191
0.77219,0.61737,0.15025,-1.16606,0.31788,-0.14233
0.76394,0.63048,0.13746,-1.12465,0.44402,1.64953
0.74547,0.64952,0.14962,-0.69938,0.12682,1.40668
0.73211,0.6677,0.13487,-0.03246,-0.76517,-0.61945
0.72718,0.67898,0.10096,0.33816,-0.79221,-0.02851
0.74392,0.6573,0.12053,2.4388,1.49542,3.83209
0.74406,0.6434,0.18001,0.4639,1.4036,-0.82822
0.72252,0.6585,0.21056,-1.06847,-0.22689,-0.6472
0.71256,0.66091,0.23548,-1.0109,-0.42125,-0.42237
0.71889,0.65717,0.22654,-0.84903,-0.29529,-0.42426
0.72197,0.64603,0.24779,1.62152,2.20114,1.22098
0.71511,0.63135,0.3,2.14826,2.63608,0.82271
0.66691,0.6496,0.36502,1.76346,1.7026,0.81479
0.62423,0.65605,0.42419,1.18022,-0.08845,-0.51818
0.60167,0.64209,0.47509,1.04082,-0.04449,-0.50031
0.58732,0.62819,0.51032,0.59722,-0.01188,-0.1014
0.57775,0.62287,0.52747,-0.21894,-0.33801,-0.39577
0.58623,0.61527,0.52703,-0.15113,-0.251,-0.54996
0.60824,0.60729,0.51111,-0.01273,-0.17571,-0.55285
0.63531,0.60123,0.48466,-0.01215,-0.36376,-0.43694
0.6649,0.59869,0.44662,-0.15702,-0.38296,-0.38121
0.69863,0.59757,0.39347,-0.34376,-0.41251,-0.32763
0.73495,0.59682,0.32195,-0.97878,-0.58066,-0.04227
0.77255,0.58756,0.24069,-1.00929,-0.54366,-0.00687
0.80179,0.57282,0.17028,-0.90064,0.06193,0.09545
0.81086,0.57153,0.1259,-0.8819,0.46608,0.28246
0.79986,0.58927,0.11388,-0.97528,0.40534,0.81899
0.78503,0.60567,0.12996,-0.25534,-0.56514,0.11084
0.77919,0.61554,0.11822,-0.00505,-0.74804,-0.42679
0.78018,0.61718,0.10197,0.34598,-0.54806,-0.24759
0.79046,0.60047,0.12086,1.60012,2.49209,2.30645
0.76991,0.61355,0.17543,-0.38956,0.52408,-1.03966
0.74828,0.63321,0.19781,-0.66785,-0.05034,-0.40108
0.73731,0.64013,0.21585,-0.25268,-0.32814,-0.20626
0.73596,0.63401,0.23746,-0.10054,0.1929,0.52734
0.73235,0.61292,0.29663,0.45444,0.79861,0.99536
0.70795,0.60348,0.36688,1.41299,1.44112,0.33716
0.65973,0.61527,0.43149,0.76384,-0.06187,-0.67883
0.62904,0.61069,0.48099,0.78578,-0.40999,-0.35344
0.61636,0.59779,0.51258,0.1096,-0.09483,0.21418
0.60779,0.59617,0.52456,0.17194,0.12085,-0.08601
0.61267,0.594,0.52133,-0.01396,0.08923,-0.33275
0.62976,0.59081,0.50433,-0.07498,-0.14098,-0.43464
0.65394,0.58809,0.47593,-0.0795,-0.29459,-0.24017
0.6799,0.59253,0.43201,-0.07993,-0.35995,-0.22339
0.71074,0.59831,0.36996,-0.18158,-0.39886,-0.26551
0.74605,0.59688,0.2952,-0.27298,-0.39622,-0.16681
0.77992,0.58775,0.21511,-0.45274,-0.40749,-0.09859
0.8053,0.57332,0.15098,-0.6499,-0.24682,-0.02552
0.8186,0.56456,0.10564,-0.99943,0.0784,0.0084
0.81843,0.57059,0.06777,-1.1607,0.2334,0.20917
0.8081,0.58474,0.07108,-1.32935,0.18165,0.7102
0.79984,0.59459,0.08196,-0.65426,-0.57039,-0.18502
0.78839,0.60926,0.08503,-0.1129,-0.73829,-0.17019
0.78289,0.61784,0.07312,0.42441,-0.63008,0.07341
0.78507,0.61399,0.08168,0.76206,0.49496,0.40919
0.78504,0.61025,0.10636,0.78139,2.26991,2.43509
0.7665,0.62565,0.14504,-0.30536,0.83712,-0.72983
0.74614,0.6451,0.16464,-0.2594,-0.15359,-0.01035
0.7317,0.65482,0.18926,-0.19374,-0.40672,-0.1987
0.72475,0.65018,0.22801,-0.24448,0.2461,0.31222
0.71542,0.63393,0.29376,1.15503,1.67372,1.31997
0.68157,0.63552,0.36272,1.72392,1.58329,0.44707
0.63388,0.64787,0.42243,1.18632,0.43358,-0.37557
0.61158,0.63994,0.46524,0.52107,-0.66684,-0.16861
0.61087,0.62765,0.48259,0.25963,-0.12943,0.23546
0.61178,0.62522,0.48458,0.2669,0.26626,0.32151
0.62229,0.62201,0.47523,-0.02637,0.13077,-0.28131
0.64354,0.6154,0.45511,-0.08772,-0.05141,-0.29183
0.66976,0.6103,0.42302,-0.12545,-0.1771,-0.25814
0.69794,0.61026,0.37478,-0.22815,-0.39065,-0.16102
0.72842,0.61172,0.30854,-0.50475,-0.40658,-0.22139
0.76065,0.60426,0.23721,-0.59787,-0.40224,-0.1555
0.78571,0.59234,0.17829,-0.66695,-0.39688,-0.20785
0.80271,0.58244,0.12809,-0.87509,-0.28195,-0.18054
0.80821,0.58122,0.09466,-1.0157,-0.12712,-0.14203
0.80014,0.59076,0.10378,-1.22714,0.03475,0.93701
0.79225,0.59968,0.11279,-0.81883,-0.26241,0.54308
0.7845,0.61118,0.10497,-0.0534,-0.68031,-0.48149
0.78717,0.60886,0.09823,0.69397,-0.20755,-0.42774
0.79916,0.59516,0.08438,1.26187,0.27463,0.19651
0.80331,0.58561,0.10837,-0.36056,2.15806,0.38699
0.79119,0.59491,0.14176,-0.56157,0.49156,-0.51093
0.78266,0.60348,0.15249,-0.66538,0.26561,-0.02241
0.78192,0.60481,0.15097,-0.18032,-0.03648,-0.54425
0.79213,0.59571,0.13285,0.03247,-0.0817,0.06704
0.80706,0.57436,0.13695,0.76385,0.41174,0.67513
0.8088,0.56179,0.17385,0.02677,0.9233,0.74267
0.80059,0.55887,0.21613,0.12818,1.07976,0.64917
0.7808,0.56656,0.26336,0.7026,1.29268,-0.00069
0.75046,0.57794,0.32062,1.0271,0.90082,-0.60224
0.72409,0.5895,0.35802,0.84214,0.29649,-0.5127
0.69749,0.59907,0.39321,0.56418,-0.23393,0.09532
0.67598,0.61019,0.41317,0.10013,-0.13602,-0.13971
0.66265,0.62123,0.41829,0.10228,0.50976,-0.33638
0.64937,0.6353,0.41797,0.15968,0.65681,-0.37849
0.63844,0.64603,0.41837,0.3083,0.11675,-0.31864
0.63219,0.65515,0.41365,0.32326,-0.24658,-0.28548
0.63094,0.66582,0.39824,0.13287,-0.38437,-0.25328
0.63792,0.67113,0.37766,0.02406,-0.51355,-0.12316
0.65088,0.66959,0.35777,-0.00661,-0.45224,-0.05568
0.66565,0.66318,0.34218,-0.05443,-0.39052,-0.06866
0.6814,0.65301,0.33054,-0.16306,-0.34352,-0.05111
0.69736,0.63909,0.32441,-0.13051,-0.25582,-0.03894
0.71218,0.62306,0.32339,-0.06524,-0.02377,0.00432
0.72324,0.60854,0.32648,-0.07471,0.14863,0.1764
0.72819,0.59879,0.33345,-0.18531,0.23563,0.3446
0.72665,0.59401,0.34513,-0.26216,0.27162,0.2479
0.72148,0.59523,0.35377,-0.33318,0.27134,0.08117
0.71512,0.60381,0.35215,-0.44424,0.27355,0.0831
0.70644,0.61815,0.34471,-0.5089,0.28554,0.02062
0.69968,0.63314,0.33101,-0.54285,0.23772,-0.03394
0.70114,0.64372,0.30662,-0.17578,-0.09508,-0.15862
0.70951,0.64607,0.2814,0.18499,0.05049,0.00561
0.71524,0.64031,0.28003,0.65634,0.29,0.24125
0.70745,0.63594,0.30834,1.0607,1.27276,0.76409
0.68653,0.63317,0.35744,0.04307,0.00059,0.05921
0.68801,0.62862,0.36259,-0.56395,-1.2921,-0.60804
0.70202,0.62851,0.33487,-0.40975,-0.28645,-0.76621
0.71648,0.63517,0.28845,-0.3548,0.0588,-0.87885
0.72609,0.63877,0.25445,1.13085,1.13858,0.04469
0.73285,0.63411,0.24665,0.20401,0.25393,0.2154
0.73938,0.62341,0.25429,-0.0501,-0.25456,-0.17067
0.75245,0.60865,0.2517,-0.03885,-0.43288,-0.0889
0.77213,0.58671,0.24409,-0.00551,-0.28613,-0.06757
0.79514,0.56038,0.23177,0.02722,-0.13054,-0.07863
0.81903,0.53192,0.21505,-0.00996,0.38277,0.01777
0.83936,0.50664,0.19692,-0.17889,0.62458,0.07261
0.8529,0.49118,0.17691,-0.25697,0.63079,0.09854
0.86139,0.48373,0.15495,-0.33067,0.26066,-0.04346
0.86703,0.48102,0.12993,-0.31882,0.10493,-0.12862
0.87108,0.48091,0.09975,-0.32286,0.10448,-0.1016
0.87292,0.48319,0.0673,-0.21655,0.21795,0.01577
0.87245,0.48736,0.03601,-0.07277,0.22881,0.08962
0.87015,0.49269,0.00952,-0.06152,0.13653,0.16216
0.8679,0.49661,-0.01135,-0.12008,0.07874,0.15622
0.86707,0.49744,-0.02724,-0.13376,0.05484,0.1447
0.86684,0.49711,-0.03833,-0.1116,0.09062,0.0961
0.86676,0.49646,-0.04738,-0.11652,0.14728,0.02233
0.86608,0.49635,-0.05936,-0.08799,0.20897,0.08389
0.86493,0.4966,-0.07259,-0.1585,0.32551,0.18445
0.86335,0.49765,-0.08346,-0.26362,0.40186,0.23062
0.86141,0.50052,-0.0863,-0.28758,0.52677,0.15535
0.85755,0.50859,-0.07705,-0.10324,0.56647,0.05524
0.85173,0.52057,-0.05962,0.00505,0.37465,0.1672
0.84618,0.53215,-0.02805,-0.00731,0.22,0.35716
0.84018,0.54197,0.01895,-0.01976,0.29688,0.20765
0.83063,0.55189,0.07396,0.00116,0.3755,-0.02713
0.81657,0.56438,0.12117,0.19057,0.31225,-0.17591
0.797,0.58193,0.1617,0.21015,0.2947,-0.21643
0.7739,0.60373,0.19127,0.23232,0.30429,-0.4395
0.7479,0.62617,0.22034,0.26235,0.27999,-0.18323
0.71963,0.6473,0.25124,0.23454,0.26461,-0.12061
0.6929,0.6643,0.28033,0.16836,0.22671,-0.14311
0.66694,0.6786,0.30772,0.04719,0.07694,-0.21921
0.64271,0.69049,0.33187,0.15499,0.04555,-0.32286
0.62047,0.69968,0.35419,0.17599,-0.10001,-0.33369
0.59999,0.70737,0.37365,0.1524,-0.23974,-0.33879
0.58279,0.71276,0.39028,0.05589,-0.3844,-0.25924
0.57041,0.71431,0.40545,0.02652,-0.42238,-0.36579
0.56318,0.71196,0.41945,0.00509,-0.41554,-0.32638
0.56163,0.70613,0.43121,-0.00115,-0.45052,-0.24255
0.567,0.69681,0.43927,-0.04583,-0.48395,-0.17743
0.57928,0.68466,0.44233,-0.06211,-0.49137,-0.07299
0.59739,0.67038,0.44013,-0.107,-0.47129,0.07635
0.61915,0.65389,0.43482,-0.07136,-0.11814,0.25073
0.64051,0.6367,0.42936,0.04113,0.1252,0.41228
0.65535,0.62126,0.42958,0.1122,0.24698,0.50824
0.65843,0.61349,0.43599,0.19202,0.16506,0.23556
0.65378,0.61348,0.44294,0.09986,0.10193,0.31205
0.64632,0.61552,0.451,0.01098,0.0924,0.33347
0.64953,0.60992,0.45397,0.75902,0.12026,-0.09068
0.64484,0.60439,0.46786,0.69643,0.32414,-0.07655
0.64404,0.6044,0.46894,0.06113,-0.21655,-0.60894
0.64887,0.61077,0.45379,-0.0473,-0.03084,-0.9038
0.65864,0.62173,0.42384,0.03041,0.11751,-0.8325
0.67005,0.62712,0.39718,0.22863,0.48671,-0.32393
0.68041,0.62444,0.38354,0.16848,0.29469,-0.34013
0.69012,0.62052,0.3724,0.07548,0.08646,-0.15032
0.69822,0.6198,0.35822,0.07004,-0.04342,-0.16183
0.70704,0.6219,0.33662,0.06452,-0.10034,-0.23228
0.71886,0.62264,0.30912,0.0433,-0.09703,-0.14623
0.73041,0.62197,0.28223,0.0385,-0.03475,-0.02133
0.73819,0.6244,0.25533,-0.07373,-0.01376,0.01518
0.74442,0.62664,0.23055,-0.17108,-0.03991,-0.02042
0.74857,0.62935,0.20869,-0.15546,0.01362,-0.09186
0.75235,0.63103,0.1891,-0.12501,-0.06366,-0.02887
0.75606,0.63158,0.17169,-0.09442,-0.09953,0.03847
0.75929,0.63149,0.15715,-0.12056,-0.07358,0.11861
0.76145,0.63168,0.14549,-0.16335,0.0101,0.19243
0.76156,0.63318,0.13819,-0.2326,0.04042,0.15816
0.7585,0.63707,0.13715,-0.28192,0.00863,0.01761
0.75314,0.64259,0.14087,-0.29147,-0.10812,-0.00967
0.74729,0.64848,0.14499,-0.27861,-0.18787,0.02551
0.74348,0.65228,0.14753,-0.21491,-0.19427,0.09309
0.74233,0.65292,0.15046,-0.18914,-0.16976,-0.09419
0.7432,0.65214,0.14952,-0.15591,-0.10316,-0.01857
0.74549,0.65057,0.14491,-0.14581,-0.05731,0.07228
0.74804,0.64939,0.13681,-0.1473,0.01226,0.028
0.75093,0.64867,0.12376,-0.15003,0.11909,-0.121
0.75472,0.64666,0.11054,-0.17878,0.15156,-0.06646
0.75968,0.64231,0.10155,-0.20835,0.16076,-0.02553
0.76432,0.63741,0.09756,-0.12453,0.12282,0.12445
0.76779,0.63226,0.1036,-0.20451,0.10225,0.1772
0.76848,0.62791,0.12313,-0.17523,0.20962,0.03036
0.75576,0.63577,0.1569,0.225,0.66666,0.64361
0.73991,0.6374,0.21505,0.41222,0.78138,0.50592
0.70634,0.64989,0.28057,0.71927,0.79672,0.33974
0.66301,0.671,0.33192,1.0971,-0.01428,-0.28178
0.61041,0.69751,0.37533,0.94322,-0.29774,-0.33228
0.56736,0.71321,0.41161,0.81036,-0.54272,-0.14373
0.54042,0.71227,0.44789,0.03153,0.06398,-0.15462
0.51604,0.70964,0.47968,0.09001,0.34593,-0.17275
0.49257,0.70476,0.51057,0.17457,0.57149,-0.26954
0.465,0.70206,0.53932,0.26372,-0.08701,-0.16605
0.43518,0.7082,0.55593,0.23268,-0.31055,-0.20056
0.41661,0.71593,0.56024,0.11748,-0.54234,-0.31858
0.40987,0.72251,0.55675,0.06614,-0.61687,-0.34351
0.41457,0.72641,0.54813,-0.00325,-0.64739,-0.39211
0.42824,0.72725,0.53638,-0.04422,-0.47376,-0.26259
0.44802,0.72716,0.5201,-0.12688,-0.51228,-0.17353
0.47529,0.72814,0.49386,-0.15821,-0.5589,-0.16017
0.51271,0.72927,0.45309,-0.18098,-0.55529,-0.26574
0.5604,0.72584,0.39886,-0.16639,-0.41453,-0.35489
0.61249,0.71444,0.33826,-0.10743,-0.28547,-0.29701
0.65436,0.69805,0.29074,-0.29818,0.1405,-0.02143
0.67863,0.68535,0.26409,-0.78793,0.24427,0.06385
0.68968,0.68125,0.24541,-0.91208,0.14187,0.18321
0.6876,0.68691,0.23527,-0.97915,-0.23433,-0.27547
0.67538,0.69773,0.23881,-0.88328,-0.34798,-0.63164
0.66503,0.71212,0.22497,-0.39586,-0.98394,0.20451
0.6687,0.71279,0.21154,0.65223,-0.80767,0.64564
0.68587,0.69211,0.22482,1.94543,0.7638,0.82535
0.679,0.6847,0.26484,0.927,2.08864,1.27096
0.64238,0.70359,0.30379,-0.54158,0.19208,-0.87362
0.61883,0.71338,0.32884,-0.56904,-0.60597,-0.4849
0.61264,0.71794,0.33047,-0.2959,-0.31058,-0.50094
0.61597,0.72217,0.31471,-0.11452,-0.0241,0.17789
0.60802,0.72324,0.32745,0.15376,0.34492,0.58481
0.59011,0.71669,0.37164,1.88365,1.93936,0.64548
0.53533,0.72477,0.43372,0.89528,1.35504,0.28889
0.48014,0.72484,0.49403,1.13479,0.39589,-0.16522
0.43735,0.70544,0.55773,1.27572,-0.0582,-0.89069
0.41625,0.68458,0.5984,0.18622,-0.74816,0.19982
0.40878,0.67457,0.61468,0.14696,0.25701,-0.18467
0.40905,0.67462,0.61445,0.17255,0.29525,-0.15522
0.41269,0.67847,0.60775,0.28447,-0.09663,-0.3517
0.42354,0.68436,0.59351,0.26754,-0.39171,-0.38983
0.44352,0.69381,0.56735,0.24279,-0.43004,-0.36691
0.47213,0.70505,0.52913,0.16484,-0.44823,-0.32656
0.50857,0.71436,0.48065,-0.14611,-0.38407,-0.29653
0.54895,0.72,0.42455,-0.27374,-0.42484,-0.23691
0.59135,0.72077,0.36164,-0.32415,-0.49654,-0.25961
0.63543,0.71304,0.29629,-0.30311,-0.42233,-0.23309
0.66812,0.70534,0.23684,-0.34729,-0.1334,-0.04872
0.67935,0.70701,0.19649,-0.79208,0.18703,0.23943
0.67205,0.71631,0.18773,-1.24619,0.14347,0.55895
0.66004,0.72636,0.19166,-0.90065,-0.39612,-0.27464
0.64911,0.73821,0.18357,-0.24158,-0.78755,-0.33391
0.64693,0.74293,0.17183,0.52005,-1.05877,0.02459
0.66239,0.72835,0.17528,1.10783,-0.10525,0.22287
0.66912,0.71747,0.19366,1.80373,1.76811,1.74803
0.63828,0.73595,0.22575,-0.592,1.60201,-0.96783
0.61306,0.75182,0.2427,-0.56974,-0.04406,0.03406
0.60337,0.75978,0.24221,-0.21267,-0.54135,-0.57726
0.60963,0.76084,0.22239,-0.19889,-0.44877,-0.4463
0.62208,0.75317,0.21385,0.02123,-0.11784,0.02612
0.62516,0.74052,0.24654,1.12258,1.0941,0.75393
0.60767,0.74039,0.28731,0.87203,1.06486,0.60007
0.57121,0.75161,0.32982,0.41327,0.73878,0.7003
0.53345,0.75076,0.38958,0.88829,0.28726,-0.53892
0.50652,0.72918,0.46014,0.83584,-0.38425,-0.67998
0.49788,0.69746,0.51541,0.65062,-0.23646,0.01648
0.48915,0.67988,0.54633,0.54721,0.12524,0.09444
0.47909,0.67536,0.56066,0.32832,-0.07766,-0.305
0.48206,0.67159,0.56265,0.09255,-0.23621,-0.44686
0.49788,0.67139,0.54894,0.14905,-0.33364,-0.44631
0.51992,0.67481,0.52373,0.16772,-0.38116,-0.47457
0.54657,0.67979,0.48901,0.03656,-0.37387,-0.39413
0.57611,0.68713,0.44264,-0.18172,-0.45592,-0.31775
0.61189,0.69138,0.38415,-0.46246,-0.5661,-0.27776
0.65359,0.6872,0.31711,-0.68092,-0.64595,-0.10723
0.69616,0.67292,0.25003,-0.73846,-0.50016,0.1489
0.72729,0.65807,0.1949,-0.72763,0.0538,-0.05859
0.73509,0.65312,0.18183,-0.9818,0.38299,0.49996
0.72216,0.662,0.20059,-0.85842,0.13851,1.37197
0.70105,0.68111,0.2112,-0.44005,-0.7052,-0.79014
0.67732,0.69923,0.22868,-0.16158,-0.76614,-1.30587
0.67106,0.70599,0.22639,0.14252,-0.99255,-1.1438
0.69339,0.68957,0.20903,1.69066,2.33802,4.10748
0.6784,0.68083,0.27609,0.49772,2.62379,0.51021
0.6457,0.70397,0.29578,-0.1963,1.35821,-1.94602
0.61914,0.71926,0.31514,0.10407,-0.46142,-0.66827
0.60533,0.72909,0.31937,-0.09304,-0.45401,-0.48351
0.59999,0.72689,0.33411,-0.29921,-0.41967,-0.22811
0.59058,0.70786,0.38746,1.92791,2.05793,0.86603
0.55808,0.69671,0.45069,2.03345,2.25183,0.36014
0.50189,0.69609,0.51338,1.00154,0.39571,-0.74883
0.475,0.68078,0.55758,0.8314,-0.79672,-0.72728
0.46514,0.66364,0.58585,0.42976,-0.43907,-0.00958
0.46172,0.65492,0.59823,0.43409,0.16792,0.08032
0.47118,0.64882,0.5975,0.20613,0.15523,-0.39799
0.49307,0.64513,0.58367,0.15434,-0.13376,-0.47187
0.51922,0.64644,0.55903,0.21924,-0.29461,-0.34107
0.54835,0.65425,0.52083,0.17054,-0.30256,-0.29584
0.58448,0.66109,0.47046,-0.02202,-0.35819,-0.31565
0.6266,0.6618,0.41155,-0.22983,-0.45099,-0.29008
0.67447,0.65185,0.34665,-0.4482,-0.3932,-0.24562
0.71179,0.64236,0.28411,-0.74803,0.05645,0.04068
0.73036,0.64138,0.23492,-1.20207,0.16368,0.56221
0.73054,0.64547,0.22287,-1.08421,0.01017,0.49481
0.71881,0.65603,0.23007,-0.70232,-0.39727,0.23239
0.6995,0.66907,0.25106,-0.03127,-0.77491,0.03814
0.69178,0.67411,0.25884,0.49946,-0.79638,-0.69863
0.698,0.6649,0.26588,0.91749,-0.11903,0.1577
0.70475,0.65288,0.2776,0.19303,1.15995,0.28707
0.69392,0.66372,0.27918,-0.32608,1.86412,1.50445
0.66923,0.68741,0.28213,-0.08075,0.76767,-0.74564
0.65114,0.706,0.27851,0.3363,-0.00915,-0.5033
0.64454,0.71345,0.27484,-0.0568,-0.47157,-0.26848
0.65516,0.70178,0.27975,0.01012,-0.40152,-0.13646
0.66935,0.67818,0.30336,0.18013,0.24297,0.19719
0.67058,0.65777,0.343,0.58673,0.96357,0.77361
0.65205,0.65392,0.38369,0.5313,1.07445,0.31004
0.61646,0.65603,0.43542,0.48149,0.68781,-0.03628
0.58059,0.65447,0.48433,0.65679,0.31201,-0.65315
0.55466,0.64343,0.52758,0.67689,0.13039,-0.78449
0.5429,0.6238,0.56225,0.53196,0.03351,-0.08829
0.52519,0.62097,0.58186,0.21982,0.3207,0.06066
0.50644,0.62459,0.59447,0.13678,0.11609,-0.3019
0.49744,0.62336,0.6033,0.08199,-0.09056,-0.38011
0.50083,0.61741,0.6066,0.02732,-0.36071,-0.48445
0.51305,0.60958,0.6043,0.08128,-0.2617,-0.48573
0.52916,0.60309,0.59687,0.08104,-0.27201,-0.45405
0.5476,0.59676,0.58652,0.07609,-0.42969,-0.35318
0.57168,0.58848,0.57172,0.052,-0.42141,-0.33838
0.6018,0.57792,0.55121,0.03449,-0.34857,-0.18761
0.63533,0.56538,0.52601,-0.07289,-0.20891,-0.10822
0.66846,0.55134,0.49917,-0.0914,-0.13302,-0.06114
0.69908,0.53478,0.47465,-0.05811,-0.06383,-0.029
0.72134,0.51765,0.4601,0.3058,0.14441,0.35384
0.72849,0.50218,0.46596,0.16394,0.22898,0.44133
0.72541,0.49514,0.47812,0.00928,0.28577,0.48721
0.72389,0.49652,0.47901,-0.28071,-0.03126,0.06694
0.72339,0.50275,0.47322,-0.20864,-0.0829,-0.0327
0.72012,0.51057,0.46982,-0.16042,-0.13761,-0.11487
0.71864,0.51664,0.46544,-0.09411,-0.17295,0.06665
0.71728,0.52006,0.46371,0.35514,0.27139,0.24939
0.71313,0.52672,0.4626,0.62312,0.49984,-0.31129
0.71212,0.54366,0.44419,0.31949,0.31715,-0.72378
0.69909,0.55695,0.44841,0.7364,0.41231,0.39249
0.68088,0.56526,0.4657,0.43887,1.29074,-0.49198
0.67097,0.5686,0.4759,0.13703,-0.19767,-0.1457
0.67525,0.56395,0.47538,0.06524,-0.57269,-1.01005
0.69773,0.5584,0.44872,0.19101,0.09181,-0.67939
0.72017,0.55665,0.41411,0.29344,0.25113,-0.33869
0.73608,0.56037,0.37969,0.38556,0.50825,-0.09583
0.74538,0.57112,0.34383,0.00607,0.36295,-0.14894
0.75119,0.58189,0.31163,-0.02833,0.16771,-0.18216
0.75832,0.58811,0.28118,-0.05646,-0.18525,-0.32255
0.76841,0.58869,0.25096,-0.07563,-0.25504,-0.25413
0.78118,0.58416,0.22022,-0.05584,-0.20291,-0.0972
0.79452,0.57607,0.19203,-0.03359,-0.05956,-0.01005
0.80603,0.5673,0.16877,-0.08589,0.05228,0.02857
0.81428,0.56074,0.15002,-0.20298,0.10646,-0.01406
0.82009,0.55687,0.13166,-0.21645,0.07829,-0.07529
0.82508,0.55363,0.11282,-0.02431,0.06664,0.01633
0.8293,0.55063,0.09522,0.04758,0.12636,0.15656
0.83242,0.54835,0.0799,-0.03414,0.13039,0.15402
0.83477,0.54624,0.069,-0.12173,0.17722,0.02684
0.83642,0.54448,0.06271,-0.0801,0.20381,-0.04376
0.83368,0.54813,0.06727,-0.0524,0.16119,-0.03114
0.82656,0.55741,0.07797,-0.02638,0.13319,-0.05433
0.81903,0.56898,0.07382,-0.01556,0.12286,-0.15667
0.81966,0.5691,0.0653,-0.02155,0.11617,-0.15
0.82115,0.56784,0.05718,-0.0913,0.0905,-0.10692
0.81772,0.57356,0.04839,-0.10627,0.07689,-0.11019
0.81708,0.57505,0.04113,-0.07468,0.1094,-0.16047
0.81273,0.58218,0.02284,-0.03739,0.12142,-0.14536
0.80758,0.58957,0.01477,0.02003,0.05977,0.01226
0.80622,0.59131,0.01885,0.01907,0.05983,-0.03122
0.80425,0.59365,0.02741,0.02751,0.06995,-0.08499
0.79982,0.59958,0.02789,0.20395,0.03787,-0.14875
0.79888,0.59971,0.04607,0.22112,-0.05966,-0.12283
0.7988,0.59789,0.06665,0.21481,-0.14916,-0.18761
0.79984,0.59434,0.08369,0.0926,-0.20396,-0.28053
0.80175,0.58983,0.09639,0.06852,-0.14455,-0.28157
0.8033,0.58629,0.10467,0.0684,-0.10227,-0.28692
0.80361,0.5853,0.10782,0.06079,-0.09738,-0.30561
0.80345,0.58525,0.10925,0.08084,-0.13507,-0.31026
0.80714,0.58169,0.1007,0.09398,-0.16763,-0.31106
0.8234,0.56463,0.0566,0.11244,-0.24276,-0.15542
0.82812,0.55874,0.04482,0.09673,-0.22393,-0.11951
0.83378,0.55098,0.03491,0.0758,-0.19624,-0.09308
0.86009,0.51011,0.00518,0.02465,-0.06538,-0.02433
0.86716,0.49802,0.00239,0.01178,-0.04178,-0.01409
0.88029,0.47442,0.00075,0.00106,0.00095,-0.04653
0.88482,0.46593,-0.00113,0.01944,0.00131,-0.06234
0.88619,0.46331,-0.00284,0.0267,-0.00116,-0.06676
0.88689,0.46196,-0.00458,0.02219,-6e-05,-0.05963
0.88676,0.46214,-0.00781,0.01167,0.00114,-0.01921
0.88728,0.4611,-0.01074,0.00042,0.00138,-5e-05
0.88795,0.45963,-0.01673,-0.01241,0.02067,0.02802
0.88879,0.45783,-0.02068,-0.01546,0.04215,0.04528
0.88978,0.4558,-0.02294,-0.01579,0.05168,0.04932
0.89069,0.45394,-0.02445,-0.02902,0.06527,0.0266
0.89087,0.45358,-0.02473,-0.03783,0.05166,0.00149
0.89119,0.45283,-0.02663,-0.04425,0.04691,0.00436
0.89007,0.45498,-0.02776,-0.05877,0.05004,0.0248
0.88888,0.45708,-0.03101,-0.05834,0.05157,0.0372
0.88758,0.45935,-0.03458,-0.05347,0.04596,0.0341
0.88624,0.46168,-0.03768,-0.04559,0.04738,0.02231
0.88475,0.46429,-0.0405,-0.03726,0.03886,0.00707
0.88313,0.46709,-0.04366,-0.02254,0.02122,0.00465
0.8815,0.46978,-0.04758,-0.01754,0.02,0.01429
0.87966,0.47277,-0.05183,-0.0051,0.03064,0.01948
0.87755,0.47622,-0.05586,0.00096,0.05001,0.01735
0.87533,0.47976,-0.06014,-0.00177,0.0657,0.01376
0.87272,0.48388,-0.06485,-0.00705,0.06321,0.0268
0.86961,0.48873,-0.07005,-0.01416,0.05628,0.02387
0.86569,0.495,-0.07452,-0.01844,0.06825,0.0076
0.86067,0.50259,-0.08156,-0.02424,0.09902,-0.00567
0.85453,0.51116,-0.09216,-0.04299,0.10989,-0.01645
0.84746,0.52076,-0.10299,-0.01108,0.0325,0.00274
0.83992,0.53007,-0.11638,-0.02172,0.03027,-0.06467
0.83152,0.53955,-0.1321,-0.05061,0.01314,-0.04784
0.8236,0.54882,-0.14307,-0.07232,0.0337,0.01192
0.81672,0.5575,-0.14886,-0.05379,0.01168,-0.03463
0.81084,0.56562,-0.15034,-0.07067,-0.09435,-0.04976
0.80661,0.57171,-0.15003,-0.06,-0.19208,-0.08236
0.80452,0.57416,-0.15192,-0.11667,-0.14246,-0.14161
0.80337,0.57409,-0.15812,-0.13809,-0.08537,-0.17163
0.80122,0.57498,-0.16562,-0.04614,0.01512,-0.21763
0.79768,0.57741,-0.17405,0.29778,0.25141,-0.0616
0.79371,0.58138,-0.17892,0.23914,0.10633,0.03519
0.79089,0.58512,-0.17925,0.19993,-0.0754,0.12541
0.78934,0.58824,-0.17579,0.11512,-0.15712,0.01942
0.78803,0.591,-0.17242,0.06903,-0.10223,-0.01707
0.78621,0.59398,-0.17046,0.05551,0.02426,0.01499
0.78408,0.59788,-0.16658,-0.04686,0.38348,0.41787
0.7821,0.60356,-0.15505,-0.03948,0.23798,0.32531
0.78025,0.60903,-0.14242,-0.14827,0.10505,-0.04045
0.77783,0.61467,-0.13096,-0.19342,0.18709,-0.03759
0.77943,0.61487,-0.12005,-0.10287,0.36699,-0.01148
0.78344,0.61052,-0.11608,-0.39599,0.29818,-0.19776
0.77546,0.61999,-0.11942,-0.17979,0.10428,0.09835
0.77175,0.62579,-0.11306,-0.05465,0.10213,-0.06196
0.76676,0.63184,-0.11334,0.01968,-0.01203,-0.08863
0.7615,0.63734,-0.11794,0.15375,-0.07086,0.03609
0.758,0.64087,-0.12131,0.12963,-0.06671,0.08053
0.75584,0.64339,-0.12142,0.12745,-0.05589,0.06203
0.75357,0.64619,-0.12063,-0.12357,-0.1752,0.07462
0.75075,0.64991,-0.11825,-0.17672,-0.19985,0.00879
0.74857,0.65255,-0.11751,-0.02795,-0.09321,0.03815
0.74617,0.65543,-0.11677,0.03821,-0.04163,0.08717
0.74468,0.65715,-0.1166,-0.03638,0.04173,0.14173
0.7443,0.65766,-0.11618,0.01515,0.19407,0.09717
0.74298,0.65911,-0.11642,0.08152,0.22109,0.1219
0.74202,0.66061,-0.11397,-0.20633,0.04909,0.06092
0.74016,0.66283,-0.11319,-0.0819,0.16836,0.05186
0.73773,0.66633,-0.1084,-0.08293,0.04307,-0.06822
0.73397,0.67033,-0.10925,0.02399,-0.06209,0.06242
0.73031,0.67387,-0.11196,0.03803,0.06899,0.05204
0.72624,0.67813,-0.11274,-0.12007,0.04738,0.04789
0.7238,0.68035,-0.11505,-0.18234,0.01707,0.08854
0.72218,0.68179,-0.1167,-0.02967,0.08005,0.06188
0.71979,0.6841,-0.11788,-0.0557,-0.15653,0.03818
0.71841,0.68509,-0.12053,0.09144,-0.10184,0.08151
0.7173,0.68587,-0.12269,0.01739,-0.03297,0.08714
0.7171,0.68558,-0.12544,0.10831,0.03309,0.06496
0.71773,0.6846,-0.12722,0.07365,-0.0406,0.06965
0.71931,0.68306,-0.12657,-0.08231,-0.15829,0.08518
0.72113,0.68156,-0.12427,-0.19952,-0.13591,0.05089
0.72299,0.67957,-0.12435,-0.16937,-0.02689,0.04224
0.72508,0.67706,-0.12585,-0.10814,0.02863,0.05832
0.72741,0.67389,-0.12938,0.00802,0.1275,0.05655
0.73011,0.66993,-0.13459,0.02367,0.10625,0.08807
0.73352,0.66531,-0.13896,-0.05446,0.10888,0.01324
0.73711,0.66002,-0.14507,0.00446,0.08991,0.05557
0.74028,0.65484,-0.15219,0.01546,0.11587,0.08962
0.74354,0.64961,-0.15857,0.0053,0.16811,0.04784
0.74807,0.64227,-0.16696,0.07887,0.22779,0.17774
0.75386,0.63481,-0.16942,0.20701,0.51343,0.28504
0.75998,0.62858,-0.16527,0.18021,0.55236,0.37768
0.76611,0.62376,-0.15491,0.2188,0.46404,0.27374
0.77117,0.62158,-0.13757,0.17884,0.42642,0.31759
0.77387,0.62351,-0.11115,-0.02493,0.32104,0.27133
0.77327,0.62926,-0.07792,-0.12291,0.13783,0.22763
0.77039,0.63601,-0.04455,-0.11234,0.04011,0.25665
0.76742,0.64105,-0.01017,0.0515,0.09148,0.1803
0.76353,0.64523,0.02635,0.24789,0.10306,0.07611
0.75751,0.64981,0.06249,0.30531,0.01143,0.03738
0.74936,0.65503,0.09693,0.25075,-0.04228,0.02473
0.74171,0.65843,0.12778,0.23935,-0.08448,-0.0524
0.73594,0.66078,0.14746,0.25315,-0.13873,-0.04518
0.73131,0.66306,0.1598,0.33585,-0.24428,0.02451
0.72867,0.6634,0.1701,0.3484,-0.25785,-0.0788
0.72602,0.66619,0.17053,0.29617,-0.20082,-0.13688
0.72105,0.67458,0.1582,0.14481,0.00552,-0.12574
0.71211,0.68747,0.14236,0.00446,0.37762,0.07488
0.69444,0.70692,0.13416,-0.12805,0.50608,0.05674
0.67127,0.72953,0.13103,-0.20666,0.26969,-0.01861
0.64871,0.74787,0.14088,-0.06807,-0.20377,-0.09063
0.62629,0.76246,0.16247,-0.00581,-0.51182,-0.12045
0.60743,0.77186,0.18775,-0.00515,-0.54954,-0.18265
0.59395,0.77834,0.20345,0.04929,-0.50039,-0.12579
0.58262,0.78251,0.2196,-0.15005,-0.52403,-0.06016
0.58321,0.7762,0.23951,-0.10645,-0.17825,0.06559
0.57071,0.77748,0.26421,0.15358,-0.16334,-0.12813
0.5495,0.7807,0.29756,-0.04464,-0.23774,-0.1545
0.53138,0.78245,0.32465,-0.04779,-0.52725,-0.159
0.51793,0.78099,0.34898,0.11816,-0.07323,-0.10099
0.50765,0.77848,0.3691,0.12844,-0.07072,-0.12112
0.50189,0.77296,0.38811,0.10458,-0.30979,-0.04405
0.49772,0.76656,0.40577,0.06068,-0.21754,-0.09808
0.49645,0.76179,0.41618,0.05216,-0.25669,-0.13635
0.49729,0.75996,0.41851,-0.03788,-0.31886,-0.0594
0.49815,0.75795,0.42112,0.09752,-0.31778,0.00624
0.50769,0.75605,0.41308,0.08887,-0.45168,-0.18664
0.52294,0.75849,0.38886,0.15852,-0.28223,-0.20924
0.53753,0.76546,0.35372,0.41671,0.07601,-0.14675
0.55264,0.76899,0.32128,0.42082,-0.04165,0.14528
0.56891,0.77356,0.27914,0.45088,0.07678,-0.13994
0.58455,0.77649,0.23528,0.23734,0.09117,-0.12714
0.6067,0.76998,0.19756,-0.2243,-0.14153,0.13594
0.63354,0.75303,0.17768,0.30828,0.00384,-0.34211
0.67271,0.71994,0.17069,0.03669,0.12543,0.03889
0.70714,0.68806,0.16282,-0.05858,-0.24179,-0.20791
0.73598,0.65926,0.15393,0.12434,0.07893,-0.19086
0.75685,0.63435,0.15739,0.12458,0.50438,0.08584
0.76886,0.61425,0.17761,0.11716,0.05999,-0.11968
0.77581,0.59967,0.1962,0.35611,0.08661,0.03595
0.77003,0.60326,0.20767,0.84586,0.56903,0.23508
0.7574,0.61505,0.21918,0.05157,0.33322,0.26762
0.7455,0.62322,0.23625,-0.4405,0.49193,0.03264
0.73813,0.62435,0.25562,-0.40817,1.10345,0.14981
0.71817,0.65544,0.23371,0.25751,0.42151,0.37887
0.68743,0.69833,0.19939,-0.00158,-0.30272,0.07949
0.66068,0.72942,0.17731,0.04588,-0.68217,-0.40619
0.64697,0.74383,0.16771,0.26135,-0.92361,-0.65419
0.64383,0.74553,0.17221,0.07132,-0.58757,-0.67035
0.6457,0.74171,0.18144,0.20757,-0.51579,-0.46858
0.65496,0.73716,0.16617,0.07412,-0.49689,0.61412
0.67345,0.73006,0.11608,-0.21788,-0.21048,0.7412
0.68955,0.71889,0.08781,-0.19275,0.04735,0.42339
0.70336,0.70694,0.07424,-0.004,-0.05714,-0.17556
0.71649,0.69522,0.05743,0.05317,-0.11144,-0.26526
0.72425,0.68839,0.03972,0.19126,0.14949,-0.03682
0.7275,0.68566,0.02465,-0.25294,0.048,-0.00494
0.73187,0.68124,0.01616,0.01826,0.09296,-0.15167
0.73332,0.67984,0.00693,0.09003,0.13875,0.12881
0.73138,0.68194,-0.00531,0.01938,0.15394,0.24656
0.72767,0.68569,-0.01774,0.01002,0.11793,0.2514
0.72548,0.68766,-0.02821,-0.03916,-0.06594,0.08366
0.72881,0.68392,-0.03276,0.04244,0.04243,0.19412
0.73335,0.67902,-0.03339,-0.01875,0.04697,0.22499
0.73944,0.67253,-0.03044,-0.09156,-0.04876,0.08062
0.74328,0.66868,-0.01978,-0.00071,0.02282,-0.05605
0.74262,0.66964,-0.00904,-0.01748,0.0179,-0.1217
0.73752,0.67531,0.0034,0.05336,0.00641,-0.03776
0.72845,0.68492,0.01557,-0.13653,0.12499,-0.10529
0.71633,0.69745,0.02054,-0.0434,0.12869,-0.04203
0.70326,0.7105,0.02467,-0.0663,0.14993,-0.14984
0.69045,0.72304,0.02176,-0.09255,0.32084,-0.10968
0.67751,0.73524,0.01978,0.00123,0.25485,0.14137
0.6667,0.74504,0.02047,0.06723,0.16918,0.16238
0.6525,0.75757,0.01792,0.43155,0.28226,0.10209
0.638,0.76989,0.01438,0.28364,0.11267,0.12637
0.62605,0.77967,0.01295,0.18085,0.12721,0.00957
0.60664,0.79496,0.0049,0.60772,0.25965,0.05799
0.57225,0.82002,-0.00953,0.51056,-0.07589,0.13421
0.53248,0.84632,-0.01416,0.22433,-0.33367,-0.07346
0.49656,0.86788,-0.0138,0.10463,-0.40324,-0.07043
0.46848,0.88335,-0.01422,-0.01845,-0.43508,0.01795
0.4363,0.89967,-0.01519,0.52584,0.0104,-0.01894
0.38768,0.92171,-0.0117,0.445,-0.23073,0.01833
0.33849,0.94095,-0.00526,-0.16278,-0.50697,0.01221
0.30747,0.95154,0.00405,-0.58144,-0.64884,-0.0268
0.2969,0.95487,0.00817,0.1153,-0.29427,0.04795
0.28905,0.95725,0.01024,-0.02771,-0.34268,0.01773
0.28229,0.95925,0.01155,0.03271,-0.24243,0.01386
0.27211,0.96216,0.01368,0.03382,-0.19779,0.05187
0.26072,0.96532,0.0131,-0.03889,-0.18067,0.13433
0.25196,0.96771,0.00678,-0.03367,-0.08093,0.11164
0.24235,0.97018,-0.00184,-0.10697,0.19353,0.43738
0.22508,0.97431,-0.00713,-0.04966,-0.06798,-0.13225
0.21011,0.97756,-0.01477,0.04205,0.06387,0.12034
0.19937,0.97972,-0.01998,0.00225,0.23673,0.36646
0.18429,0.98266,-0.01997,-0.07201,0.15529,0.22778
0.1695,0.9853,-0.02127,-0.0019,0.18399,0.11154
0.15548,0.98752,-0.02469,0.11736,0.06031,0.04362
0.14559,0.98893,-0.02832,0.13943,0.02507,0.014
0.1388,0.98986,-0.03013,0.09725,-0.01534,0.04315
0.13441,0.99049,-0.0293,0.06153,-0.06496,0.07916
0.13054,0.99109,-0.02633,-0.08937,-0.02841,0.1438
0.1279,0.99138,-0.02825,-0.07487,0.06888,-0.16976
0.12664,0.99138,-0.0335,-0.09894,-0.01426,0.01856
0.12712,0.9912,-0.03666,-0.09189,-0.02254,0.01513
0.12893,0.99101,-0.03554,-0.13183,0.12456,0.18115
0.13188,0.99082,-0.02946,-0.15743,0.14103,0.15475
0.1343,0.99073,-0.02035,-0.13856,0.06421,-0.00109
0.13723,0.99045,-0.0125,-0.10644,-0.02741,-0.10123
0.13906,0.99024,-0.00845,-0.14799,-0.06978,-0.09843
0.13347,0.99104,-0.0037,-0.21809,-0.02079,0.01452
0.12219,0.9925,0.00041,-0.22516,-0.01916,0.10825
0.10745,0.9942,0.00324,-0.16464,-0.00305,0.06499
0.08935,0.99599,0.00412,-0.06571,-0.02165,-0.10245
0.06904,0.99761,0.00021,0.01209,-0.01573,-0.14484
0.04911,0.99877,-0.00598,0.08222,-0.00779,-0.00385
0.03309,0.9994,-0.00934,0.11846,0.05998,0.12867
0.02338,0.9997,-0.00593,0.2164,0.08526,0.20262
0.0192,0.99981,-0.00014,0.22314,0.09887,0.08507
0.01402,0.99989,0.0034,0.20232,0.09664,-0.01965
-0.00047,0.99999,0.00323,0.05436,-0.04604,-0.03871
-0.02447,0.99969,0.00105,0.0663,-0.02347,0.00564
-0.04462,0.999,-9e-05,0.05545,-0.01209,0.06244
-0.05255,0.99861,0.00063,0.10881,0.06264,0.03636
-0.05424,0.99852,0.00034,0.09278,0.04729,0.01398
-0.052,0.99864,-0.00324,-0.00046,-0.02737,-0.02449
-0.04847,0.99879,-0.00806,-0.06372,-0.03452,0.00054
-0.04264,0.99901,-0.01206,-0.09456,-0.02706,0.00602
-0.03439,0.9993,-0.01447,-0.22154,-0.06607,0.02434
-0.02537,0.99951,-0.01816,-0.20948,-0.06256,-0.01091
-0.01568,0.99962,-0.02252,-0.19856,-0.067,-0.0361
-0.00673,0.99951,-0.03023,-0.19951,-0.03295,-0.1734
0.00082,0.99898,-0.04495,-0.15919,0.02119,0.03752
0.00886,0.99821,-0.05913,-0.09375,0.04151,0.19576
0.01869,0.99773,-0.0646,-0.06772,0.05819,0.14428
0.029,0.9974,-0.06588,-0.02236,0.08254,0.03887
0.03902,0.99685,-0.06902,-0.06087,0.06819,0.05201
0.04869,0.99624,-0.07162,-0.14996,-0.00265,0.10943
0.058,0.99557,-0.07395,-0.19188,-0.03823,0.15316
0.06722,0.99495,-0.07454,-0.20179,-0.06823,0.17345
0.07622,0.99439,-0.07332,-0.21642,-0.02727,0.11466
0.08344,0.99399,-0.07078,-0.27024,0.09794,0.15458
0.08744,0.9937,-0.06998,-0.24593,-0.05183,0.11873
0.09058,0.99318,-0.07334,-0.2055,-0.02748,0.14357
0.092,0.99287,-0.07574,-0.16143,-0.09716,0.25781
0.09204,0.99302,-0.07369,-0.1478,-0.12319,0.23621
0.09443,0.99306,-0.07005,-0.13598,-0.15792,0.19682
0.09758,0.99313,-0.06452,-0.13917,-0.15025,0.24659
0.09839,0.9936,-0.05541,-0.1263,-0.30801,0.19677
0.09695,0.99428,-0.04471,-0.07997,-0.27733,0.21178
0.09756,0.99448,-0.03854,-0.02962,-0.35982,0.197
0.10005,0.99448,-0.03141,-0.21139,-0.38009,0.32598
0.10261,0.99444,-0.02368,-0.31797,-0.28614,0.20852
0.10544,0.99422,-0.01991,-0.43466,-0.24482,0.11134
0.10778,0.99399,-0.01913,-0.59074,-0.19008,0.14565
0.10862,0.99387,-0.02015,-0.51964,-0.17579,0.11744
0.10723,0.99405,-0.01894,-0.39948,-0.15779,0.03175
0.10369,0.99456,-0.00971,-0.26076,0.0352,0.00425
0.09787,0.99512,0.01219,-0.20661,0.33038,-0.05206
0.08963,0.99455,0.05327,-0.18429,0.62779,0.0635
0.07147,0.99165,0.10732,-0.12515,0.67516,0.1455
0.05459,0.98543,0.16102,0.04889,0.62043,-0.1262
0.0336,0.97721,0.20957,0.31205,0.54389,-0.41164
0.01144,0.96888,0.24723,0.52586,0.49443,-0.46813
-0.00115,0.96067,0.27766,0.74839,0.59595,-0.15132
-0.00258,0.954,0.29978,0.36107,0.64969,0.10885
-0.00884,0.94865,0.31618,0.15008,0.53118,0.10087
-0.01806,0.94299,0.33231,0.28504,0.27425,-0.034
-0.02973,0.93849,0.34402,0.25693,0.14702,-0.20328
-0.04015,0.93563,0.35067,0.20064,0.03153,-0.2761
-0.05153,0.93478,0.35146,0.0854,-0.10569,-0.24568
-0.06013,0.93544,0.34831,0.04055,-0.13396,-0.20165
-0.06117,0.93834,0.34025,0.12348,-0.23067,-0.15352
-0.05313,0.94269,0.32941,0.26556,-0.30836,-0.1197
-0.03783,0.94801,0.31596,0.15886,-0.34968,-0.19851
-0.01994,0.95392,0.29939,0.1081,-0.34092,-0.19147
-0.00159,0.96041,0.27855,0.06631,-0.33763,-0.18027
0.01779,0.96767,0.25157,0.01912,-0.30599,-0.11399
0.03593,0.97499,0.21929,0.00019,-0.27918,-0.06613
0.05353,0.9814,0.18435,-0.00271,-0.06109,0.05813
0.06314,0.98702,0.14763,-0.09109,-0.03802,0.15294
0.06598,0.99113,0.11531,-0.07045,-0.01849,0.22946
0.06559,0.99294,0.09878,0.07938,-0.04497,0.39864
0.06542,0.99314,0.09685,0.1017,-0.05679,0.44529
0.06197,0.9926,0.10434,0.07983,-0.00286,0.30675
0.05505,0.99158,0.11719,0.08169,-0.0508,0.27856
0.04662,0.99038,0.13023,0.10846,-0.11463,0.19683
0.0396,0.98894,0.14287,0.04555,-0.10232,0.17332
0.03189,0.9866,0.15997,0.01619,0.01015,0.10011
0.02261,0.9836,0.17889,-0.00591,0.18987,-0.0746
0.01387,0.98233,0.18662,-0.07064,0.35791,-0.31015
0.00837,0.98127,0.19244,-0.09135,0.44361,0.07465
0.00274,0.97958,0.20099,-0.54385,0.54665,0.13737
-0.01227,0.98119,0.19264,-0.32269,0.42651,-0.29146
-0.02662,0.98326,0.18022,-0.10976,0.33751,0.10936
-0.03691,0.98446,0.17163,-0.28196,0.49884,0.1534
-0.04499,0.98589,0.16121,-0.38503,0.42291,0.04794
-0.05278,0.98734,0.14953,-0.24193,0.25591,0.07024
-0.05985,0.98924,0.1335,-0.20233,0.11878,-0.07529
-0.06724,0.99165,0.11002,-0.14276,-0.11758,-0.16666
-0.07337,0.99398,0.08135,-0.13894,-0.18727,-0.05759
-0.07687,0.9956,0.05354,-0.25185,-0.30468,0.04131
-0.07955,0.99634,0.03102,-0.29607,-0.32119,0.12288
-0.08307,0.99644,0.01431,-0.30122,-0.30389,0.14661
-0.08585,0.9963,0.00037,-0.12732,-0.23657,-0.02363
-0.0862,0.99617,-0.01448,-0.02658,-0.21986,-0.02663
-0.08553,0.99581,-0.03231,-0.00378,-0.14551,0.05572
-0.08481,0.99511,-0.05051,-0.05675,-0.06271,0.14506
-0.08537,0.99421,-0.06516,-0.09805,-0.03791,0.16658
-0.08833,0.99321,-0.07568,-0.13291,-0.00136,0.05604
-0.09197,0.99208,-0.08547,-0.08674,0.01793,0.06707
-0.09433,0.99098,-0.09509,-0.06207,0.03458,0.08174
-0.09633,0.98995,-0.10344,-0.06508,0.02623,0.09061
-0.10168,0.98882,-0.10905,-0.03428,0.02646,-0.03492
-0.10557,0.98736,-0.11814,-0.03385,0.01289,-0.03043
-0.1076,0.98569,-0.12973,-0.01838,-0.00366,0.01934
-0.10796,0.98426,-0.13988,-0.03436,-0.02224,0.08312
-0.10563,0.98226,-0.15491,-0.04871,-0.01928,0.08013
-0.10201,0.9797,-0.17253,-0.05595,-0.00279,0.07807
-0.09756,0.97714,-0.18888,-0.08891,0.0001,0.11181
-0.09213,0.97413,-0.20634,-0.0976,0.00715,0.15066
-0.0863,0.97127,-0.22174,-0.10137,0.02108,0.18131
-0.08012,0.96914,-0.2331,-0.08415,0.07639,0.14742
-0.07151,0.96705,-0.2443,-0.1168,0.10207,0.15362
-0.06418,0.96535,-0.25293,-0.20203,0.12471,0.20833
-0.05704,0.96358,-0.26124,-0.21785,0.11749,0.27047
-0.04964,0.9622,-0.26775,-0.22446,0.09355,0.23748
-0.04177,0.96136,-0.27209,-0.26975,0.08085,0.14367
-0.0334,0.96088,-0.27491,-0.3068,0.11994,0.13191
-0.02465,0.96069,-0.2765,-0.33811,0.14514,0.1504
-0.01612,0.96129,-0.27504,-0.5005,0.19242,0.10384
-0.01347,0.96385,-0.26611,-0.48231,0.20589,0.04012
-0.01495,0.96857,-0.24829,-0.43154,0.20107,0.03741
-0.01876,0.97544,-0.21944,-0.43229,0.1564,0.10088
-0.0248,0.98392,-0.17685,-0.38237,0.01614,0.18315
-0.031,0.99165,-0.12515,-0.27238,-0.11489,0.12767
-0.04043,0.99693,-0.06699,-0.19221,-0.13131,0.0439
-0.0521,0.99861,-0.00677,-0.15902,-0.03844,-0.10057
-0.06609,0.9965,0.05115,-0.17195,0.07012,-0.23446
-0.08133,0.99139,0.10253,-0.23458,0.18875,-0.33108
-0.10078,0.98428,0.14504,-0.33396,0.24148,-0.33696
-0.11831,0.97662,0.17946,-0.33022,0.39719,-0.32147
-0.13623,0.96875,0.20724,-0.19957,0.27786,-0.24388
-0.15574,0.96013,0.23212,-0.12105,0.18748,-0.22893
-0.17666,0.9512,0.25296,-0.0546,0.11519,-0.26786
-0.1964,0.9423,0.27109,0.07648,0.03646,-0.30662
-0.2136,0.93381,0.287,0.1433,-0.04371,-0.30526
-0.22828,0.92604,0.30055,0.14642,-0.04116,-0.31427
-0.2411,0.91907,0.31171,0.12225,-0.03388,-0.30159
-0.25238,0.91309,0.32026,0.11558,-0.00827,-0.26304
-0.26189,0.9085,0.32562,0.1404,-0.00466,-0.23917
-0.26979,0.90548,0.32756,0.20014,-0.01626,-0.12712
-0.27632,0.90357,0.3274,0.21173,-0.0317,-0.05002
-0.28132,0.90197,0.32755,0.20052,-0.05487,-0.043
-0.28417,0.9006,0.32887,0.18317,-0.09234,-0.05012
-0.28468,0.89977,0.33069,0.18003,-0.12621,-0.04671
-0.28251,0.89985,0.33234,0.16196,-0.13909,-0.0489
-0.27766,0.90085,0.33369,0.14871,-0.15388,-0.04262
-0.27077,0.90302,0.33352,0.0333,-0.16379,0.05081
-0.26427,0.90587,0.33098,-0.01214,-0.1555,0.08514
-0.25929,0.90871,0.32711,-0.11651,-0.07137,0.20167
-0.25603,0.91064,0.32431,-0.19976,-0.00591,0.24288
-0.2563,0.91094,0.32324,-0.24631,0.01451,0.24309
-0.26315,0.91003,0.32028,-0.28638,-0.02161,0.09455
-0.27481,0.90906,0.31318,-0.21247,-0.13388,0.09568
-0.28661,0.90836,0.3045,-0.16563,-0.15694,0.13201
-0.29651,0.90876,0.29365,-0.07045,0.04522,0.04917
-0.29978,0.91077,0.28392,-0.03971,0.48246,0.05189
-0.30082,0.9103,0.28434,-0.0514,0.63174,0.18505
-0.30146,0.90391,0.3034,-0.08692,0.59674,0.3203
-0.30204,0.90195,0.30862,0.38562,-0.10859,-0.43844
-0.296,0.90516,0.30505,0.29218,-0.19433,-0.40262
-0.28794,0.91031,0.29733,0.02868,-0.21926,-0.44842
-0.28331,0.91636,0.28285,-0.12616,-0.10621,-0.55485
-0.27855,0.9205,0.274,-0.11438,-0.00447,-0.19296
-0.27381,0.92189,0.27412,-0.08074,0.08437,0.05591
-0.26997,0.92336,0.27298,0.05135,0.21412,-0.07151
-0.26541,0.92634,0.26727,0.1239,0.13079,-0.08212
-0.26181,0.92981,0.25865,0.07066,0.05735,-0.07144
-0.25935,0.93354,0.24747,0.04011,0.00058,-0.05653
-0.25698,0.9375,0.2346,0.0185,-0.01847,-0.04459
-0.25402,0.94152,0.22138,-0.03904,-0.05167,-0.01712
-0.25148,0.94504,0.20891,-0.06496,-0.06916,-0.1216
-0.25073,0.94718,0.19993,-0.00326,-0.13317,-0.20258
-0.24939,0.94938,0.19096,0.06861,-0.1884,0.01725
-0.24635,0.95226,0.18026,0.01106,-0.18792,0.06603
-0.24292,0.95448,0.17303,-0.08959,-0.16919,0.03179
-0.24029,0.95607,0.16787,-0.11916,-0.16884,0.11573
-0.23889,0.9571,0.16392,-0.10994,-0.18031,0.1514
-0.23841,0.95759,0.1618,-0.05912,-0.18763,0.06287
-0.23784,0.95782,0.16122,-0.04652,-0.18732,0.06937
-0.23632,0.95806,0.16203,-0.08063,-0.1725,0.09563
-0.23413,0.95848,0.16277,-0.08283,-0.17291,0.09489
-0.23214,0.95905,0.1622,-0.19588,-0.15339,-0.03812
-0.23123,0.95954,0.16062,-0.20212,-0.14347,-0.06066
-0.23103,0.96021,0.15686,-0.17999,-0.1213,-0.0452
-0.23077,0.96115,0.15139,-0.17683,-0.07631,0.00325
-0.23023,0.96213,0.14588,-0.17405,-0.07322,-0.04965
-0.22966,0.96305,0.14063,-0.16747,-0.07665,-0.05052
-0.23074,0.96362,0.13487,-0.16305,-0.08084,-0.02142
-0.23157,0.96402,0.13051,-0.16227,-0.12231,0.04332
-0.23224,0.96379,0.13098,-0.1578,-0.1582,0.10075
-0.23556,0.9614,0.14213,-0.19659,-0.13171,0.12113
-0.24119,0.9558,0.16811,-0.24319,0.06129,0.09355
-0.24712,0.94555,0.21178,-0.21528,0.12099,0.14348
-0.25342,0.92818,0.27248,-0.10356,0.25641,0.33614
-0.26208,0.904,0.33777,0.09645,0.68196,-0.10766
-0.27409,0.87997,0.38795,0.25236,0.7192,-0.33986
-0.28087,0.86119,0.42362,0.43581,0.41536,-0.096
-0.28708,0.84535,0.4505,0.04465,0.32578,0.16528
-0.30004,0.82906,0.47182,-0.02786,0.35761,0.03049
-0.31635,0.81373,0.4876,-0.07961,0.31089,-0.09765
-0.32976,0.80288,0.49662,0.15793,0.03093,-0.06793
-0.33617,0.80029,0.4965,0.17508,-0.03379,-0.04828
-0.33929,0.8062,0.48467,0.15803,-0.10848,-0.0554
-0.33882,0.81839,0.46414,0.3098,-0.11454,-0.17607
-0.33298,0.83633,0.43551,0.36513,-0.18096,-0.17567
-0.32173,0.85796,0.40048,0.33731,-0.15007,-0.17679
-0.30538,0.8813,0.36061,0.13839,-0.39193,-0.19545
-0.28774,0.90424,0.31551,0.10427,-0.48888,-0.11504
-0.27245,0.92538,0.2635,0.05696,-0.62513,-0.04771
-0.25537,0.94338,0.21168,0.21386,-0.9009,-0.1045
-0.23837,0.9574,0.16294,0.15937,-0.92481,-0.2004
-0.22568,0.96616,0.12483,-0.10816,-1.00376,0.4497
-0.22368,0.96722,0.12013,-0.31786,-0.85587,0.67818
-0.2366,0.96155,0.13943,-0.0995,-0.68324,0.24004
-0.25033,0.95793,0.14032,0.44509,-0.13524,-0.49809
-0.24647,0.95762,0.14904,0.10599,0.39932,0.95278
-0.23059,0.95695,0.17628,-0.32335,0.664,1.28252
-0.22936,0.94937,0.21467,-0.78535,0.8626,-0.77945
-0.23313,0.94688,0.22151,-0.43099,0.60797,-0.32593
-0.25453,0.93996,0.22731,-0.13233,-0.0353,-0.29451
-0.26606,0.93519,0.23372,-0.05651,-0.27445,-0.10245
-0.25309,0.93545,0.2467,0.06638,0.04936,0.2412
-0.23613,0.93075,0.27917,-0.21104,0.82816,0.69189
-0.25462,0.90736,0.33445,-0.57232,0.73032,1.17716
-0.28703,0.87667,0.38607,-0.40536,1.13879,0.01504
-0.3107,0.84227,0.44049,0.13787,1.15437,-0.51502
-0.31849,0.82038,0.47489,0.41018,0.57018,0.34365
-0.32929,0.80574,0.49228,0.22484,0.39854,0.03369
-0.34417,0.79483,0.49977,0.20718,0.24731,-0.25618
-0.3538,0.78995,0.50079,0.19144,0.03837,-0.32525
-0.35603,0.7934,0.49371,0.22879,-0.07846,-0.2488
-0.35386,0.8047,0.47669,0.19912,-0.11853,-0.22602
-0.34763,0.82266,0.44985,0.25156,-0.10576,-0.27254
-0.33779,0.8446,0.41537,0.27431,-0.14245,-0.31746
-0.32331,0.86786,0.37718,0.2676,-0.21901,-0.32788
-0.30503,0.89205,0.33346,0.26235,-0.39982,-0.36077
-0.28373,0.91609,0.28331,0.12367,-0.68692,-0.04498
-0.26178,0.93768,0.22851,0.04358,-0.83056,0.16426
-0.24412,0.95375,0.17539,-0.22228,-0.93656,0.01821
-0.23603,0.96265,0.13259,-0.21129,-1.03355,0.07258
-0.23676,0.96359,0.1242,-0.37838,-0.99661,0.56806
-0.2447,0.95948,0.13965,0.06843,-0.80419,0.21667
-0.25575,0.95689,0.13764,0.53751,-0.52784,-0.53254
-0.26197,0.95454,0.1422,0.53297,-0.11588,-0.19986
-0.26436,0.95115,0.15943,-0.06001,0.97227,2.65675
-0.28107,0.93875,0.19937,-0.23056,1.83056,-0.867
-0.28707,0.93302,0.21693,-0.45321,1.13621,-0.7704
-0.28864,0.92647,0.24152,-0.42167,0.62779,-0.68561
-0.29502,0.92065,0.25567,-0.16257,-0.18465,-0.08708
-0.30866,0.91126,0.27261,-0.01791,-0.21138,0.18194
-0.33135,0.88818,0.31833,0.19665,-0.19993,0.47973
-0.35797,0.85524,0.37473,-0.19155,0.61315,0.5398
-0.39353,0.81913,0.41731,-0.10875,1.23649,-0.30767
-0.4119,0.79542,0.44457,0.01758,1.24244,-0.0748
-0.40733,0.78482,0.46704,0.0623,0.68659,0.43509
-0.40665,0.78134,0.47342,0.20485,0.50594,0.14597
-0.4054,0.7836,0.47076,0.44425,0.05294,-0.41396
-0.39731,0.79478,0.45876,0.3347,-0.13557,-0.36673
-0.3853,0.81438,0.43395,0.2551,-0.14573,-0.28878
-0.36855,0.83998,0.39824,0.11155,-0.12695,-0.16397
-0.34687,0.86913,0.35255,0.0885,-0.27817,-0.03248
-0.32551,0.89663,0.30015,0.09279,-0.51054,0.02468
-0.30794,0.91767,0.25109,0.23444,-0.81238,-0.06571
-0.29073,0.93426,0.20644,0.19753,-0.94864,-0.37726
-0.27404,0.94754,0.16452,-0.00556,-1.01008,-0.00292
-0.26489,0.95466,0.13583,-0.39938,-0.97027,0.97925
-0.27268,0.94883,0.15924,-0.01403,-0.88071,0.48585
-0.2871,0.94381,0.16367,0.37153,-0.57955,-0.58085
-0.29446,0.94116,0.16586,0.20827,0.29396,0.54093
-0.29503,0.93349,0.20382,-0.39882,0.61991,0.72494
-0.30152,0.92679,0.22391,-0.28311,1.01539,-0.78829
-0.30207,0.92123,0.24513,-0.31511,0.5266,-0.50386
-0.30688,0.91443,0.26388,-0.01593,0.24345,-0.04865
-0.31883,0.9089,0.26879,0.23059,-0.04099,0.10992
-0.33197,0.90153,0.27755,0.38123,-0.26522,0.24269
-0.33746,0.88849,0.31097,-0.05558,0.24942,0.6207
-0.34833,0.86573,0.35941,-0.82998,0.58973,0.7581
-0.37356,0.83407,0.40592,-0.69292,0.92031,0.1287
-0.39567,0.80321,0.4453,-0.1366,1.1624,-0.47653
-0.39953,0.78452,0.47423,0.40067,0.80342,-0.03847
-0.39778,0.77759,0.48694,0.55584,0.46354,0.17273
-0.39454,0.7781,0.48876,0.53588,0.28109,-0.21158
-0.39071,0.78568,0.47963,0.3564,0.19682,-0.36924
-0.38401,0.80185,0.45778,0.3081,0.09967,-0.35167
-0.3691,0.82561,0.42675,0.17081,0.03577,-0.24138
-0.34884,0.85336,0.38739,0.07133,-0.00371,-0.1618
-0.32837,0.88139,0.33957,0.02366,-0.20857,-0.13874
-0.30588,0.90644,0.29119,-0.03565,-0.39791,-0.12342
-0.28593,0.9276,0.24039,0.03148,-0.54282,-0.01063
-0.2686,0.94471,0.18806,0.00514,-0.82116,-0.17112
-0.25323,0.95699,0.14152,-0.06672,-1.01183,0.08147
-0.25079,0.96246,0.10374,-0.09996,-1.08504,0.36727
-0.25905,0.96109,0.09587,-0.14216,-1.11912,0.80652
-0.27054,0.95703,0.10435,0.28945,-0.82225,-0.3134
-0.27507,0.95656,0.09653,0.50831,-0.64274,-0.72574
-0.2769,0.9563,0.0938,0.52022,-0.156,0.1074
-0.28122,0.94889,0.14324,-0.50308,1.03742,1.80977
-0.29824,0.93908,0.17076,-0.58947,1.24909,0.20629
-0.29827,0.93626,0.18559,-0.67772,1.30065,-0.66342
-0.30297,0.93137,0.20184,-0.0468,0.28667,-0.0826
-0.30587,0.92858,0.21017,0.04308,0.10192,-0.06642
-0.30349,0.92654,0.22226,0.06394,-0.14879,-0.04825
-0.30298,0.91424,0.269,0.0398,0.14851,0.5429
-0.31043,0.88564,0.34535,-0.20729,0.24319,1.13848
-0.34859,0.8513,0.39212,-0.31681,1.0002,0.48218
-0.37156,0.82442,0.42691,-0.09039,1.27229,-0.40111
-0.37166,0.81027,0.45313,-0.09028,1.28645,-0.42733
-0.37227,0.80309,0.46523,0.334,0.40424,0.0255
-0.36987,0.80139,0.47006,0.30081,0.20688,-0.18608
-0.36057,0.80791,0.46611,0.28434,0.10139,-0.2227
-0.34542,0.8236,0.44984,0.2421,0.05627,-0.1747
-0.32569,0.84594,0.42226,0.12654,0.1157,-0.10318
-0.30358,0.87067,0.38698,0.07369,0.15008,-0.05735
-0.27916,0.89675,0.34336,0.1292,-0.18752,-0.08301
-0.25093,0.92256,0.2931,-0.04261,-0.15852,-0.01295
-0.22609,0.94452,0.23824,-0.07559,-0.32847,0.02418
-0.20809,0.96104,0.1819,-0.0229,-0.70696,-0.04563
-0.19426,0.97141,0.13646,-0.02631,-0.99971,0.03697
-0.18725,0.97712,0.10082,-0.28478,-1.07458,0.56129
-0.19404,0.9759,0.09982,-0.11388,-1.15958,0.35962
-0.20315,0.97364,0.10363,0.31785,-1.0126,-0.2603
-0.20052,0.97491,0.09661,0.52944,-0.98759,-0.43117
-0.19499,0.97654,0.0913,0.53398,-0.58457,-0.29051
-0.18347,0.97846,0.09453,-0.04538,0.27253,0.37032
-0.16865,0.9807,0.09883,-0.8431,1.1401,0.4195
-0.1605,0.98218,0.09769,-1.08205,1.44918,0.26884
-0.1692,0.98006,0.1041,-1.12662,0.88494,0.46791
-0.18274,0.97697,0.11009,-0.60957,0.62827,-0.0157
-0.19087,0.97513,0.11258,-0.44655,0.15857,-0.06342
-0.20061,0.97295,0.11449,-0.29571,-0.02143,0.12845
-0.21634,0.96952,0.11493,-0.15994,-0.0442,0.14159
-0.22612,0.96619,0.12386,0.00738,-0.09834,-0.27163
-0.22656,0.96073,0.16017,0.01228,0.05054,-0.02336
-0.2184,0.94915,0.22673,0.00412,0.06213,-0.08992
-0.21293,0.93299,0.29014,-0.30186,0.63134,0.07158
-0.22547,0.91187,0.34299,-0.10799,0.91604,-0.68477
-0.24838,0.89239,0.37674,0.20369,1.06602,-0.5051
-0.26432,0.88039,0.39373,0.08253,0.89668,-0.25416
-0.26901,0.86919,0.41487,-0.11682,0.67393,0.11792
-0.27477,0.85962,0.43075,-0.12724,0.39655,-0.03814
-0.2882,0.85224,0.43659,-0.25857,0.25295,-0.18822
-0.30224,0.84852,0.43433,-0.13867,-0.30325,-0.3248
-0.3145,0.85183,0.41888,-0.19844,-0.06689,-0.31517
-0.3165,0.85795,0.40464,-0.134,0.24779,-0.38886
-0.30855,0.86527,0.39508,0.25567,-0.13518,-0.10168
-0.29921,0.87536,0.37973,0.26458,-0.18629,-0.12355
-0.28513,0.88621,0.36512,0.26471,-0.28139,-0.11402
-0.26588,0.89757,0.35165,0.24349,-0.27569,-0.12348
-0.23888,0.90968,0.33971,0.20084,-0.34176,-0.16552
-0.20947,0.9207,0.32926,-0.03363,-0.32288,0.01683
-0.18442,0.92555,0.33066,-0.09946,-0.36128,0.47862
-0.1648,0.92325,0.34705,-0.20031,-0.54051,0.42895
-0.15708,0.91655,0.36775,-0.32073,-0.3871,-0.73497
-0.17387,0.91073,0.37461,-0.0742,0.05958,-1.0132
-0.19527,0.91427,0.35492,-0.03864,0.26743,-0.5988
-0.19325,0.92001,0.34092,-0.45668,0.4282,0.27201
-0.18587,0.91871,0.34842,-0.79628,0.42699,-0.21649
