gravity.x,gravity.y,gravity.z,userAcceleration.x,userAcceleration.y,userAcceleration.z
-0.14114,0.97986,0.14119,-0.06161,-0.35902,-0.03909
-0.1473,0.98111,0.12538,-0.12783,-0.30819,-0.10834
-0.16247,0.98117,0.10441,-0.14321,-0.28586,-0.12003
-0.18202,0.97973,0.08361,-0.07884,-0.33832,-0.1043
-0.19556,0.97841,0.06676,0.0763,-0.34531,-0.07201
-0.19795,0.97865,0.0552,0.19656,-0.11009,0.01648
-0.19317,0.97999,0.04785,0.20667,-0.01776,0.05698
-0.18751,0.98123,0.04483,0.21521,0.09515,0.12532
-0.18333,0.98182,0.04896,0.18822,0.04956,0.13668
-0.1815,0.9816,0.05922,0.16187,-0.10002,0.08627
-0.18167,0.98092,0.06914,0.17332,-0.24504,-0.04764
-0.18205,0.98061,0.0725,0.17394,-0.29562,-0.3391
-0.17784,0.98188,0.06536,0.13534,-0.16364,-0.37079
-0.16445,0.98476,0.05652,-0.20753,0.43011,-0.22199
-0.14303,0.98787,0.06033,-0.29087,0.60244,-0.1791
-0.11551,0.99021,0.07834,-0.26483,1.06933,-0.38509
-0.0884,0.99023,0.10775,-0.24682,1.18048,0.03189
-0.08193,0.98933,0.12042,0.0902,0.46608,0.13499
-0.09099,0.98943,0.11284,0.18797,0.23049,0.19579
-0.10906,0.98862,0.10352,0.40352,-0.12162,0.21522
-0.13098,0.98591,0.10397,0.25903,-0.2386,0.24057
-0.15291,0.98191,0.11158,0.1647,-0.26486,0.22354
-0.16824,0.97888,0.11611,-0.21207,-0.38681,0.0265
-0.17614,0.97789,0.11267,-0.33131,-0.39281,-0.11177
-0.18048,0.97834,0.10131,-0.37436,-0.21079,-0.23664
-0.18312,0.97935,0.08564,-0.34663,-0.03977,-0.20277
-0.18086,0.98079,0.07298,-0.21827,0.05539,-0.09323
-0.17427,0.9823,0.0686,-0.03401,0.05026,-0.00805
-0.16598,0.98353,0.07148,0.12489,-0.08404,0.04085
-0.15954,0.9842,0.07679,0.15194,-0.24799,0.02743
-0.15588,0.98439,0.08167,0.07675,-0.36511,0.00198
-0.15224,0.98465,0.08528,-0.02005,-0.42236,0.03139
-0.14656,0.98531,0.08754,-0.06479,-0.37399,0.00827
-0.14039,0.98612,0.08858,-0.1055,-0.28129,-0.03133
-0.13648,0.98651,0.0903,-0.11333,-0.1521,-0.05279
-0.13558,0.98634,0.09346,-0.07772,-0.08287,-0.14973
-0.13708,0.98605,0.09437,-0.0109,-0.08138,-0.25712
-0.13922,0.9862,0.08952,0.11906,-0.09736,-0.37953
-0.14112,0.98685,0.07871,0.32101,-0.04392,-0.19484
-0.1438,0.98728,0.06778,0.32506,0.00367,-0.01671
-0.14992,0.98659,0.06443,0.27396,0.17299,0.15145
-0.15844,0.98491,0.06952,0.34892,0.76874,0.14676
-0.16865,0.98141,0.09154,-0.02544,1.68438,0.39511
-0.18564,0.97533,0.11943,-0.52896,1.54157,0.26563
-0.20446,0.96948,0.13526,-0.17376,0.17962,-0.17333
-0.21795,0.96675,0.13368,-0.07296,-0.05751,-0.24678
-0.22588,0.96703,0.11754,-0.07679,-0.24592,-0.16521
-0.22811,0.96845,0.10033,0.03284,-0.17349,0.22963
-0.22393,0.97017,0.09279,0.06369,-0.15496,0.29028
-0.21309,0.9721,0.09799,0.11861,-0.17748,0.22632
-0.19864,0.97387,0.11002,0.21368,-0.33268,0.10964
-0.18356,0.97559,0.12051,0.23317,-0.45389,0.04511
-0.17041,0.97761,0.12336,0.11745,-0.52315,0.04767
-0.1645,0.9794,0.11707,-0.0007,-0.46531,0.03033
-0.16796,0.9803,0.10383,0.01546,-0.39501,0.02221
-0.18001,0.97976,0.08744,0.05334,-0.2897,-0.01823
-0.1945,0.9783,0.07129,0.10158,-0.20312,-0.05959
-0.20252,0.97737,0.06103,0.16963,-0.06578,-0.0608
-0.20139,0.97775,0.05855,0.12603,0.15448,0.00721
-0.19614,0.97869,0.06067,0.08142,0.19026,0.0389
-0.19081,0.97936,0.06655,0.01958,0.12681,0.11615
-0.18705,0.97947,0.07503,0.09196,-0.11943,0.12849
-0.18578,0.97921,0.08138,0.06998,-0.14425,0.11407
-0.18688,0.97876,0.08425,-0.01099,-0.17963,0.09955
-0.18943,0.97814,0.08575,0.10003,-0.22887,0.04376
-0.19085,0.97788,0.08547,0.13293,-0.17573,-0.07569
-0.18705,0.97887,0.08251,0.10683,0.02683,-0.288
-0.17426,0.9815,0.07929,-0.02258,0.23097,-0.34217
-0.15336,0.98477,0.08182,-0.11309,0.29363,-0.28162
-0.13242,0.98691,0.09198,-0.10166,0.46196,-0.24986
-0.1184,0.98724,0.1064,-0.17638,0.89165,-0.30774
-0.11168,0.98538,0.12858,-0.17098,1.12189,-0.065
-0.12052,0.98317,0.13727,0.16928,0.39328,0.02113
-0.13786,0.98149,0.13288,0.24895,-0.10464,0.17526
-0.15611,0.97926,0.12912,0.3198,-0.31359,0.27514
-0.17198,0.97661,0.12901,0.33568,-0.31094,0.27524
-0.1833,0.97427,0.13111,-0.09019,-0.35139,0.11272
-0.18691,0.97364,0.13066,-0.29506,-0.33462,-0.03656
-0.18323,0.97506,0.12519,-0.30798,-0.24673,-0.15755
-0.17773,0.97717,0.11633,-0.27444,0.01674,-0.24706
-0.17325,0.9788,0.10922,-0.21102,0.22312,-0.21443
-0.16815,0.97975,0.10862,-0.11853,0.29077,-0.1045
-0.16253,0.97974,0.11691,0.02255,0.15029,-0.00819
-0.15806,0.97876,0.1305,0.12419,-0.11011,0.06934
-0.15615,0.97749,0.14184,0.07779,-0.35925,0.09331
-0.15535,0.97678,0.14748,-0.03999,-0.48526,0.0838
-0.15346,0.97706,0.1476,-0.1613,-0.48892,0.01692
-0.14907,0.97835,0.1435,-0.18094,-0.45189,-0.00376
-0.1438,0.97991,0.13817,-0.17427,-0.3299,-0.05455
-0.14073,0.981,0.13348,-0.14619,-0.23537,-0.15047
-0.14038,0.98173,0.12838,-0.05647,-0.08784,-0.31587
-0.14199,0.98274,0.11855,0.05016,0.04375,-0.41325
-0.14585,0.98376,0.10451,0.19491,0.18665,-0.3407
-0.15488,0.9831,0.09751,0.16245,0.37353,-0.06155
-0.17011,0.98018,0.10149,0.21955,0.5546,0.0592
-0.18874,0.97582,0.11016,0.15951,1.2275,0.26597
-0.20796,0.97004,0.12556,0.01858,1.32983,0.30904
-0.22407,0.96263,0.15203,-0.32096,0.84797,0.19029
-0.23655,0.95498,0.17903,-0.20254,-0.11922,-0.08395
-0.24681,0.95011,0.19067,-0.1497,-0.2042,-0.11666
-0.25528,0.94915,0.18423,-0.07253,-0.20131,0.03811
-0.26036,0.95014,0.17153,-0.02672,-0.13621,0.20908
-0.2585,0.95212,0.16318,0.01325,-0.10393,0.22088
-0.24721,0.95456,0.16641,0.19199,-0.17836,0.14086
-0.23051,0.9571,0.17555,0.21943,-0.22091,0.09804
-0.21349,0.96,0.18112,0.1452,-0.30505,0.0479
-0.20146,0.96348,0.17635,0.01714,-0.40799,-0.01392
-0.19618,0.96735,0.16039,-0.01793,-0.43119,-0.02524
-0.19922,0.97,0.13925,-0.02864,-0.33,-0.04139
-0.21027,0.97044,0.11838,-0.00631,-0.27252,-0.047
-0.22285,0.96962,0.10085,0.06454,-0.23181,-0.06434
-0.22906,0.96923,0.09005,0.1139,-0.17647,-0.02854
-0.22586,0.97052,0.08406,0.09706,-0.06978,0.02388
-0.21652,0.9733,0.0761,0.08719,0.01565,0.08218
-0.20648,0.97625,0.06542,0.11685,-0.01013,0.08722
-0.19782,0.97853,0.05778,0.1233,-0.05574,0.08577
-0.19152,0.97997,0.05449,0.1161,-0.1077,0.06337
-0.18847,0.98064,0.05307,0.09042,-0.14601,0.04715
-0.19022,0.98033,0.05252,0.08866,-0.1761,-0.01677
-0.19436,0.97965,0.05002,0.12969,-0.14432,-0.12276
-0.19401,0.97998,0.04459,0.13984,0.06902,-0.21535
-0.18275,0.98237,0.03915,-0.02193,0.37214,-0.23947
-0.16159,0.98613,0.03779,-0.10889,0.46948,-0.23847
-0.13812,0.98934,0.04593,-0.2775,0.68955,-0.33871
-0.11863,0.9907,0.06649,-0.53877,1.10813,-0.31129
-0.10871,0.98987,0.09129,-0.61464,1.20627,-0.19612
-0.11718,0.98857,0.09474,0.1351,0.40889,0.1317
-0.13437,0.98716,0.08625,0.34985,0.00931,0.24128
-0.15041,0.9853,0.08097,0.25154,-0.27247,0.37157
-0.16172,0.98334,0.08291,0.18573,-0.32314,0.32712
-0.16716,0.9821,0.08681,0.01776,-0.40447,0.09895
-0.16765,0.9818,0.08921,-0.16829,-0.37955,-0.15217
-0.1664,0.98226,0.08636,-0.18779,-0.30482,-0.18454
-0.16579,0.98312,0.07731,-0.18402,-0.21365,-0.17986
-0.16566,0.98384,0.06793,-0.11785,-0.04377,-0.05346
-0.16534,0.98401,0.06611,-0.04666,-0.03331,0.02949
-0.16226,0.98411,0.07199,0.0562,-0.14428,0.06754
-0.15654,0.98463,0.07741,0.11418,-0.30862,0.04023
-0.15003,0.98557,0.07824,0.02436,-0.39932,0.0308
-0.14332,0.98659,0.07798,-0.11434,-0.45466,0.03111
-0.13644,0.98758,0.07783,-0.19561,-0.45104,0.00377
-0.12945,0.98862,0.07651,-0.24156,-0.38293,-0.03412
-0.12378,0.98946,0.0751,-0.21785,-0.22949,-0.00504
-0.12136,0.98974,0.07539,-0.19334,-0.0053,0.11638
-0.12183,0.98957,0.07674,-0.18403,0.05425,0.13893
-0.12397,0.98925,0.07744,-0.14432,0.11693,0.08657
-0.12675,0.98916,0.07408,0.01455,-0.00044,-0.28244
-0.12955,0.98943,0.06505,0.08637,-0.03837,-0.35751
-0.13328,0.9896,0.05399,0.26153,0.03252,-0.15501
-0.13961,0.98903,0.04825,0.25596,0.13542,-0.00837
-0.15063,0.98728,0.05075,0.22864,0.53922,0.21219
-0.16178,0.98494,0.06085,0.24191,1.01942,0.22706
-0.17248,0.98169,0.08084,-0.13723,1.2948,0.22415
-0.18774,0.97657,0.1051,-0.29378,1.01824,0.12705
-0.19894,0.97198,0.12513,-0.35303,0.08049,-0.05437
-0.20386,0.96998,0.13258,-0.30391,-0.14136,-0.09114
-0.20203,0.97107,0.12729,-0.17841,-0.35383,-0.03228
-0.1945,0.9738,0.1178,-0.05099,-0.31294,0.10167
-0.18245,0.97673,0.11268,0.05888,-0.24436,0.20388
-0.16678,0.97933,0.11438,0.18735,-0.21896,0.23898
-0.14922,0.98147,0.12017,0.28068,-0.31492,0.1634
-0.1335,0.98333,0.12343,0.24504,-0.31102,0.1088
-0.1235,0.98521,0.11874,0.2081,-0.28764,0.07569
-0.12292,0.9867,0.10635,0.09128,-0.23291,-0.00403
-0.13009,0.98715,0.09275,0.10215,-0.30203,-0.07128
-0.14092,0.98653,0.08297,0.15244,-0.34217,-0.07435
-0.14782,0.98585,0.079,0.21378,-0.27877,0.03234
-0.14822,0.98569,0.08019,0.169,-0.1829,0.09519
-0.14436,0.9857,0.08678,-0.03285,-0.01406,0.26159
-0.13866,0.98538,0.09892,-0.11686,-0.10933,0.23911
-0.1346,0.98448,0.11256,-0.14668,-0.31056,0.17107
-0.13441,0.98338,0.12199,-0.17877,-0.4993,0.06
-0.13656,0.98307,0.1221,-0.12516,-0.55079,-0.41366
-0.13332,0.9847,0.11217,0.04782,-0.06614,-0.53227
-0.11887,0.98787,0.09987,-0.34025,1.1774,-0.39189
-0.09182,0.99067,0.10061,-0.85883,2.03572,-0.33913
-0.05697,0.99215,0.11124,-0.42046,2.00037,-0.43361
-0.03713,0.99323,0.10997,0.17613,1.29113,-0.60906
-0.03436,0.9932,0.11116,0.2978,0.33254,-0.25773
-0.0417,0.99104,0.12681,0.45035,-0.07784,0.17823
-0.05278,0.98907,0.13761,0.34167,-0.4082,0.37983
-0.06877,0.98785,0.13936,0.26135,-0.50686,0.29673
-0.09121,0.98616,0.13843,0.00669,-0.50395,0.15137
-0.1112,0.9862,0.12264,-0.13957,-0.6232,0.05855
-0.12365,0.98826,0.08967,-0.22956,-0.6188,-0.06684
-0.12336,0.99084,0.05492,-0.37648,-0.39747,-0.21756
-0.11041,0.99335,0.0324,-0.29544,-0.31716,-0.14908
-0.09209,0.99549,0.0226,-0.14516,-0.08159,-0.08382
-0.07336,0.99712,0.01873,-0.10625,0.07282,-0.03998
-0.05592,0.99826,0.01849,-0.10059,0.08426,0.0181
-0.04172,0.99883,0.02434,-0.11861,0.08148,0.11677
-0.03284,0.99882,0.03565,-0.16839,0.09467,0.16653
-0.02943,0.99853,0.0453,-0.17912,0.11522,0.19523
-0.03017,0.99835,0.04877,-0.28648,0.03524,0.2807
-0.03433,0.99835,0.04585,-0.31712,-0.05756,0.3055
-0.03864,0.99853,0.03787,-0.34177,-0.06278,0.20514
-0.03926,0.99883,0.02793,-0.42851,0.27784,0.17324
-0.03934,0.99893,0.02403,-0.42232,0.31839,0.08722
-0.04017,0.99891,0.02357,-0.39973,0.41415,-0.34362
-0.04141,0.99889,0.02227,-0.22539,0.38757,-0.54448
-0.04672,0.99881,0.01369,-0.0888,0.09261,-0.61175
-0.05903,0.99825,-0.00234,0.02572,-0.03491,-0.58142
-0.07604,0.99697,-0.01626,0.07851,-0.17697,-0.22958
-0.08975,0.99583,-0.01605,0.07043,0.01328,-0.14738
-0.09864,0.99511,-0.00422,0.13098,0.12595,-0.16389
-0.10298,0.99459,0.01312,0.04582,0.35964,-0.18468
-0.10303,0.99402,0.03602,-0.24621,0.31534,-0.16268
-0.10409,0.99285,0.05827,-0.36788,0.17892,-0.17686
-0.10582,0.99176,0.07209,-0.40428,-0.16638,-0.26903
-0.10346,0.99186,0.07417,-0.38791,-0.12023,-0.44698
-0.09739,0.99311,0.06504,-0.39397,-0.12148,-0.43784
-0.08963,0.9946,0.05213,-0.06756,-0.02677,-0.4475
-0.07895,0.99582,0.04571,0.00268,0.00569,-0.2673
-0.0673,0.99635,0.05231,0.02151,-0.00118,-0.19365
-0.05465,0.99636,0.06531,0.10959,-0.14248,-0.10956
-0.04027,0.99664,0.07125,0.18449,-0.29017,-0.06569
-0.02631,0.99747,0.06596,0.1707,-0.31845,0.00331
-0.01508,0.99843,0.0539,0.09783,-0.25047,0.05482
-0.0078,0.99902,0.04339,0.04113,-0.19645,0.05765
-0.00333,0.99919,0.03992,0.04195,-0.14815,0.03505
-0.00025,0.99912,0.04171,0.05619,-0.12901,0.03235
0.00086,0.99901,0.04431,-0.02503,-0.12012,0.01696
-0.00109,0.9989,0.04682,-0.14661,-0.10379,-0.06616
-0.00469,0.99869,0.05078,-0.20603,-0.06066,-0.07401
-0.00688,0.99833,0.05725,-0.25859,0.01969,0.05996
-0.00789,0.99774,0.06656,-0.37152,0.12018,0.22088
-0.01002,0.99686,0.07852,-0.46854,0.14,0.25893
-0.01391,0.9958,0.09042,-0.37224,0.10773,0.0176
-0.02016,0.99457,0.10205,-0.36658,0.10973,0.02516
-0.02648,0.99334,0.11212,-0.25819,0.27839,-0.06201
-0.03429,0.99161,0.12455,-0.12385,0.48182,-0.05619
-0.04057,0.98893,0.1427,-0.20278,0.65957,-0.1496
-0.03322,0.98934,0.14175,0.218,0.3999,-0.46529
-0.0152,0.99227,0.1231,0.52643,0.16627,-0.54188
-0.00265,0.99367,0.1122,0.46899,0.13029,-0.45165
-0.00235,0.99244,0.12268,0.18763,-0.02451,-0.18693
-0.01628,0.98929,0.145,-0.06183,-0.14356,-0.19342
-0.0356,0.98729,0.15483,-0.40596,-0.16307,-0.34367
-0.05013,0.98834,0.14375,-0.4205,-0.01708,-0.31012
-0.05824,0.99102,0.1203,-0.27386,0.04702,-0.2847
-0.06069,0.99372,0.09389,-0.07548,0.00907,-0.28727
-0.05437,0.99588,0.07253,0.19057,0.07203,-0.22506
-0.0432,0.99709,0.06266,0.34573,0.10094,-0.06175
-0.035,0.99747,0.06185,0.3773,0.03174,0.08729
-0.03534,0.99733,0.06379,0.28705,-0.06461,0.12481
-0.04618,0.99669,0.06686,-0.05205,-0.20845,0.0217
-0.06246,0.99563,0.06928,-0.16154,-0.22192,-0.08495
-0.0797,0.99455,0.06715,-0.18089,-0.25763,-0.10586
-0.09468,0.99361,0.06134,-0.18137,-0.25425,-0.04414
-0.105,0.99282,0.05726,-0.15138,-0.24239,0.03226
-0.11017,0.99216,0.05884,-0.06337,-0.25123,0.0792
-0.11199,0.99152,0.06589,-0.01846,-0.25903,0.08055
-0.113,0.99078,0.07472,0.03118,-0.28385,0.04305
-0.11339,0.9901,0.08264,-0.05796,-0.29696,0.0052
-0.11278,0.98949,0.09038,-0.07607,-0.28687,0.01045
-0.1113,0.98878,0.09958,-0.09567,-0.25945,0.02158
-0.1084,0.98789,0.11093,-0.14056,-0.18803,0.06344
-0.10322,0.98705,0.12276,-0.16716,-0.15799,0.06038
-0.09727,0.98635,0.13283,-0.19928,-0.09147,0.0859
-0.0926,0.98574,0.14049,-0.21027,-0.02446,0.08508
-0.09037,0.98509,0.14635,-0.18847,-0.04037,-0.03536
-0.09034,0.98468,0.14911,-0.11498,-0.13238,-0.22759
-0.09329,0.98485,0.14615,-0.02658,-0.32558,-0.43753
-0.09881,0.98596,0.13457,0.13064,-0.55734,-0.62526
-0.10329,0.98766,0.11765,0.33629,-0.52907,-0.4419
-0.10286,0.98927,0.10367,0.34188,-0.21884,-0.15111
-0.10444,0.99047,0.08976,0.42959,-0.03768,0.07304
-0.10884,0.99052,0.08371,0.44602,1.10076,0.42715
-0.11789,0.98775,0.10213,0.27848,2.57967,0.26561
-0.14462,0.98039,0.13381,-0.65016,1.82212,-0.29142
-0.17137,0.97121,0.16545,-0.77356,0.3118,-0.34761
-0.19583,0.96475,0.17578,-0.61834,-0.39537,-0.42193
-0.21249,0.9639,0.1604,-0.53028,-0.62648,-0.20013
-0.21802,0.9669,0.13248,-0.22123,-0.57343,0.0686
-0.21063,0.97108,0.11233,-0.09158,-0.2823,0.27953
-0.19394,0.9747,0.11102,0.0217,-0.07543,0.34549
-0.17102,0.9778,0.12101,0.22389,-0.06635,0.26713
-0.14769,0.98048,0.12973,0.31702,-0.2052,0.1067
-0.1295,0.9834,0.12702,0.18991,-0.32384,-0.06072
-0.12198,0.98619,0.11202,-0.01189,-0.38165,-0.0854
-0.12909,0.98718,0.09376,-0.12065,-0.3846,-0.02768
-0.14623,0.98634,0.07577,-0.07215,-0.41979,-0.00373
-0.16983,0.98375,0.05822,0.10106,-0.52533,0.0198
-0.19,0.98079,0.04411,0.28419,-0.53229,0.04245
-0.19841,0.97936,0.03848,0.31383,-0.301,0.09415
-0.19501,0.98003,0.03865,0.12537,0.0322,0.1524
-0.18621,0.98177,0.03802,0.06903,0.18068,0.12464
-0.17787,0.98336,0.03671,0.17093,0.04334,-0.0146
-0.17253,0.9843,0.03698,0.32783,-0.11796,-0.16535
-0.16877,0.98506,0.03409,0.38254,-0.19731,-0.33273
-0.16285,0.98627,0.02703,0.19143,-0.15954,-0.30108
-0.15296,0.98789,0.0259,-0.07911,-0.08281,-0.04893
-0.13654,0.99013,0.03144,-0.36166,0.64316,-0.56337
-0.10476,0.99265,0.06053,-0.82055,1.22421,-0.35344
-0.07385,0.99216,0.10072,-1.34978,2.03951,-0.22675
-0.07337,0.99226,0.10013,0.02079,0.62204,0.099
-0.0835,0.99239,0.09043,0.15752,0.32583,0.26415
-0.09888,0.99107,0.08934,0.47489,0.06322,0.40669
-0.11943,0.98826,0.09527,0.47003,-0.33953,0.37155
-0.14411,0.98446,0.10029,0.39036,-0.45568,0.25742
-0.16599,0.98109,0.09947,0.13408,-0.59681,0.0938
-0.18122,0.97943,0.08869,-0.09193,-0.72042,-0.02509
-0.1896,0.9792,0.07208,-0.13619,-0.67201,-0.08224
-0.19226,0.97963,0.05785,-0.22929,-0.29115,-0.18601
-0.18795,0.9808,0.0518,-0.14927,-0.14642,-0.19542
-0.17622,0.98293,0.05282,-0.03182,-0.14156,-0.19461
-0.16086,0.9851,0.06075,0.09444,-0.20864,-0.0873
-0.14641,0.98648,0.07351,0.08445,-0.2932,0.08114
-0.13707,0.98686,0.08547,-0.05872,-0.34346,0.09416
-0.13181,0.9871,0.09076,-0.20218,-0.31653,-0.10863
-0.12719,0.98827,0.08447,-0.17474,-0.35498,-0.35203
-0.12178,0.9901,0.06978,0.11623,-0.43388,-0.45668
-0.11702,0.99137,0.05896,0.29686,-0.4242,-0.11413
-0.11507,0.99149,0.06075,0.35874,-0.18388,0.23488
-0.11916,0.99028,0.07162,0.4517,0.47424,0.3292
-0.13271,0.98698,0.09077,0.63291,1.15825,0.25472
-0.15523,0.98129,0.11388,-0.62683,2.44027,0.4824
-0.17829,0.97617,0.12364,-0.49973,0.94532,0.03911
-0.19667,0.97202,0.1284,-0.43092,0.01692,-0.26517
-0.21127,0.96958,0.12358,-0.37203,-0.49915,-0.29752
-0.2173,0.96992,0.10963,-0.1552,-0.69114,-0.06665
-0.21499,0.97219,0.09282,0.00632,-0.63964,0.25246
-0.20435,0.97519,0.08505,-0.04594,-0.38608,0.43822
-0.18931,0.97742,0.09378,0.09675,-0.33573,0.40886
-0.17506,0.97838,0.11007,0.22033,-0.49582,0.23167
-0.16418,0.97935,0.11793,0.26243,-0.56185,0.00759
-0.15862,0.98122,0.1097,0.1667,-0.44613,-0.09781
-0.16285,0.98252,0.09014,-0.00397,-0.23889,-0.17102
-0.17684,0.98175,0.06988,-0.10718,0.08031,-0.16101
-0.19457,0.97936,0.05455,0.03806,0.17811,-0.08467
-0.20553,0.97757,0.04584,0.26482,0.05626,0.01712
-0.20439,0.97795,0.04276,0.49353,-0.12524,-0.06433
-0.19524,0.97979,0.04349,0.43532,-0.25713,-0.10527
-0.18123,0.98219,0.04953,0.17919,-0.27073,-0.18765
-0.16465,0.98468,0.05727,-0.10436,-0.05144,-0.39469
-0.14562,0.98706,0.06705,-0.56565,0.50388,-0.479
-0.12926,0.98784,0.08635,-0.84359,1.3763,-0.14047
-0.13139,0.98658,0.09684,0.02851,1.13466,0.1337
-0.14478,0.9856,0.08728,0.11819,0.72512,0.13896
-0.15642,0.98498,0.0731,0.34419,0.05885,0.22462
-0.16851,0.98319,0.07029,0.50672,-0.46721,0.30534
-0.18325,0.97985,0.07936,0.42402,-0.50504,0.31239
-0.19538,0.97658,0.09001,0.07505,-0.461,0.25711
-0.2013,0.97512,0.09277,-0.30079,-0.44999,-0.02377
-0.20252,0.9756,0.08472,-0.31692,-0.41809,-0.1025
-0.20051,0.97713,0.07079,-0.29519,-0.28316,-0.16886
-0.19304,0.97945,0.05829,-0.2299,-0.03571,-0.08392
-0.17855,0.98237,0.05523,-0.20231,0.03469,-0.0049
-0.16068,0.98491,0.06421,0.03169,0.02986,0.16833
-0.14663,0.98637,0.07456,0.1374,-0.0517,0.08915
-0.14092,0.98692,0.07818,0.01325,-0.19296,-0.13227
-0.14059,0.98731,0.07379,-0.08644,-0.2717,-0.22699
-0.14134,0.98798,0.06247,-0.04673,-0.35676,-0.47573
-0.14308,0.98841,0.05059,0.11268,-0.31716,-0.24007
-0.1477,0.98798,0.04553,0.14253,-0.24336,-0.09096
-0.15609,0.9865,0.04942,0.24052,0.13141,0.30217
-0.16708,0.98371,0.06628,0.26994,0.33334,0.31991
-0.17721,0.98006,0.08977,0.31324,1.37904,0.09813
-0.18741,0.97646,0.10672,-0.27358,1.20686,0.178
-0.19772,0.97399,0.11061,-0.31927,0.11361,0.0817
-0.20385,0.97321,0.10627,-0.31988,-0.11925,0.02941
-0.20779,0.97361,0.09428,-0.31483,-0.44699,-0.03909
-0.20988,0.97451,0.07911,-0.02219,-0.5939,0.08924
-0.20859,0.97571,0.06683,0.03838,-0.53693,0.15729
-0.20198,0.97746,0.06128,0.05956,-0.25243,0.22518
-0.19138,0.97963,0.06068,0.08847,-0.1126,0.28226
-0.18159,0.98136,0.06277,0.12637,-0.21853,0.22041
-0.17656,0.98223,0.06359,0.1351,-0.36301,0.07337
-0.17693,0.98242,0.05947,0.12887,-0.35476,-0.07395
-0.18382,0.98186,0.04633,0.11619,-0.24086,-0.15907
-0.19537,0.98042,0.02432,0.16168,-0.08627,-0.10089
-0.20573,0.9786,0.00332,0.25001,0.0297,-0.0435
-0.20904,0.97788,-0.0065,0.30112,-0.05457,-0.05551
-0.20078,0.9796,-0.00783,0.30597,-0.21223,-0.32443
-0.1838,0.98295,-0.00453,0.13518,-0.24351,-0.37208
-0.15926,0.98721,0.00605,-0.08425,0.02274,-0.32407
-0.13112,0.99097,0.02783,-0.27455,0.65437,-0.31955
-0.11,0.99218,0.05885,-0.39393,1.45377,0.11292
-0.10688,0.99126,0.07726,-0.23019,1.40001,0.30093
-0.116,0.99026,0.07692,-0.09355,0.45858,0.12842
-0.12768,0.98914,0.07267,0.12078,-0.05773,0.15414
-0.14169,0.9874,0.07036,0.19572,-0.30376,0.17475
-0.1601,0.98486,0.06636,-0.05356,-0.48335,0.07933
-0.17772,0.98239,0.05755,-0.08936,-0.50126,0.017
-0.18932,0.98076,0.04753,-0.12754,-0.44166,-0.00747
-0.1941,0.98011,0.04117,-0.11672,-0.24238,-0.02466
-0.19445,0.97999,0.04235,-0.09753,-0.15818,-0.03554
-0.18914,0.98054,0.05256,-0.06842,-0.01412,-0.07569
-0.17806,0.98142,0.07132,-0.0048,0.01877,-0.03826
-0.1653,0.98188,0.09264,0.02863,0.00418,-0.01127
-0.15814,0.9818,0.10512,0.12126,-0.25485,-0.15532
-0.15714,0.98187,0.10598,0.07401,-0.46867,-0.32699
-0.15902,0.98245,0.0974,0.16197,-0.62958,-0.37972
-0.16042,0.98339,0.0848,0.25599,-0.61135,-0.15479
-0.16317,0.98331,0.08036,0.19578,-0.36156,0.07911
-0.1705,0.98128,0.0895,0.13509,-0.16948,0.19132
-0.18218,0.97697,0.11102,0.08069,0.84298,0.19134
-0.19672,0.97079,0.13734,-0.25711,1.78191,0.38402
-0.21553,0.96493,0.14979,-0.41672,1.93352,0.37032
-0.23001,0.96236,0.14474,-0.21669,0.58505,0.0001
-0.23676,0.96284,0.1299,-0.1025,-0.1825,-0.18972
-0.23788,0.96461,0.1137,-0.03338,-0.48034,-0.13991
-0.23628,0.96597,0.10518,0.02994,-0.54058,0.12891
-0.23124,0.96698,0.10708,-0.06711,-0.41682,0.36713
-0.22199,0.96768,0.11962,-0.10905,-0.21592,0.36078
-0.21093,0.96844,0.13274,-0.02505,-0.26365,0.27354
-0.20131,0.97074,0.13086,0.17769,-0.378,0.0456
-0.19499,0.97457,0.1104,0.17027,-0.24445,-0.12697
-0.19168,0.97777,0.08495,0.12018,-0.15637,-0.11797
-0.19301,0.97894,0.06646,0.0312,0.02009,-0.07256
-0.19878,0.97834,0.05774,0.05758,0.06962,0.02565
-0.20489,0.97726,0.05456,0.21711,-0.08863,-0.00744
-0.20719,0.97694,0.05153,0.39639,-0.30082,-0.09239
-0.20215,0.97829,0.04551,0.41063,-0.28147,-0.30131
-0.18876,0.9812,0.04005,0.26076,-0.06572,-0.29051
-0.16491,0.9853,0.04446,0.11097,0.08402,-0.26295
-0.13803,0.98828,0.06504,-0.30014,0.66493,-0.3092
-0.118,0.98829,0.09664,-0.52405,1.14241,-0.32261
-0.11256,0.98627,0.12077,-0.47022,1.28169,-0.00584
-0.11968,0.98518,0.12285,0.04813,0.542,0.16028
-0.12722,0.98503,0.11626,0.20889,0.00607,0.28209
-0.13438,0.98418,0.11543,0.32344,-0.25427,0.3592
-0.14502,0.98206,0.12051,0.26989,-0.40323,0.31634
-0.15645,0.97981,0.1244,0.0328,-0.38324,0.17761
-0.16446,0.97872,0.1227,-0.11839,-0.39169,0.03464
-0.16855,0.9793,0.11201,-0.17709,-0.45734,-0.11696
-0.17,0.98076,0.09593,-0.2554,-0.24618,-0.11926
-0.1688,0.98199,0.08476,-0.19926,0.0791,-0.0365
-0.16273,0.98324,0.0821,-0.14599,0.08858,-0.04429
-0.15174,0.9847,0.08555,-0.03097,0.00423,0.00171
-0.1401,0.98589,0.09154,0.0988,-0.15917,0.13043
-0.13161,0.98646,0.09775,0.07764,-0.20596,0.1264
-0.12694,0.9868,0.10048,-0.01841,-0.29717,0.0784
-0.12348,0.98747,0.09824,-0.1997,-0.36543,-0.02864
-0.11995,0.98857,0.09131,-0.23308,-0.35383,-0.07092
-0.11681,0.98971,0.08256,-0.2556,-0.21725,-0.13956
-0.11557,0.99063,0.07268,-0.04523,-0.09767,-0.30031
-0.11674,0.9913,0.06072,0.18632,-0.00767,-0.29099
-0.1216,0.99139,0.04837,0.30436,0.14491,-0.09228
-0.13023,0.99056,0.0427,0.21367,0.2986,0.05876
-0.1407,0.98886,0.04835,0.21754,0.40033,0.05683
-0.15067,0.98627,0.06748,0.19498,1.02827,0.25214
-0.16298,0.98233,0.09192,-0.46285,1.22972,0.36554
-0.17775,0.97811,0.10811,-0.53409,0.93584,0.3103
-0.18719,0.97564,0.11438,-0.31411,-0.04468,-0.03873
-0.19086,0.9758,0.10666,-0.0972,-0.43837,-0.26947
-0.18942,0.97791,0.08832,0.01001,-0.56977,-0.19353
-0.18372,0.98082,0.06507,0.08534,-0.5374,0.0831
-0.17376,0.98354,0.04949,0.09057,-0.42294,0.32489
-0.16072,0.98566,0.05124,0.07156,-0.22654,0.42999
-0.14834,0.98678,0.0652,0.0969,-0.17921,0.37676
-0.13861,0.98736,0.07675,0.12929,-0.22839,0.13266
-0.135,0.98795,0.07554,0.06582,-0.33413,-0.10893
-0.13864,0.98843,0.06145,0.03264,-0.30755,-0.12939
-0.14758,0.98812,0.04265,-0.00994,-0.19955,-0.14768
-0.15953,0.98686,0.02524,0.02872,-0.07691,-0.05422
-0.16851,0.98559,0.01422,0.11084,-0.00077,0.10165
-0.16994,0.98534,0.01484,0.14246,0.00592,0.16375
-0.16428,0.98605,0.02633,0.18801,0.047,0.18746
-0.15416,0.98711,0.04272,0.19231,-0.00678,0.00527
-0.13887,0.98841,0.06121,0.14287,-0.0756,-0.26316
-0.11707,0.99033,0.07432,-0.04584,0.02836,-0.34518
-0.09454,0.99251,0.07723,-0.24735,0.26501,-0.26311
-0.08251,0.99341,0.07942,-0.27343,0.4113,-0.15741
-0.08099,0.99204,0.09637,-0.31473,1.07084,-0.10145
-0.0843,0.98814,0.12829,-0.41344,1.40224,0.06197
-0.09467,0.98507,0.14372,-0.07355,0.47527,0.11943
-0.10339,0.9832,0.1504,0.02653,-0.097,0.29171
-0.11,0.98182,0.15463,0.0981,-0.39169,0.3338
-0.11811,0.98142,0.15118,0.0851,-0.61574,0.27585
-0.12646,0.98201,0.1402,-0.03234,-0.60902,0.14955
-0.13057,0.98341,0.12588,-0.17042,-0.50436,-0.00738
-0.1299,0.98505,0.11311,-0.33408,-0.36707,-0.10155
-0.12445,0.98647,0.10668,-0.38304,-0.28368,-0.08025
-0.11338,0.9877,0.10759,-0.43254,-0.14728,0.00983
-0.09808,0.98866,0.11362,-0.34316,-0.05246,0.18933
-0.0813,0.98932,0.12095,-0.28426,-0.06286,0.18197
-0.06502,0.99036,0.12221,-0.12672,-0.15711,0.03382
-0.05216,0.99172,0.11727,-0.26674,-0.22958,0.01816
-0.04179,0.99246,0.11512,-0.40611,-0.21691,0.03567
-0.03318,0.99282,0.11484,-0.58603,-0.20646,0.02097
-0.02815,0.99379,0.10761,-0.62299,-0.13698,-0.12224
-0.02834,0.99523,0.09325,-0.39471,-0.14184,-0.24595
-0.032,0.99662,0.07552,-0.27894,-0.15574,-0.36403
-0.03293,0.99753,0.06193,0.27996,0.29054,-0.60369
-0.02995,0.99787,0.05782,0.55148,0.45571,-0.47844
-0.03263,0.9977,0.05936,0.61292,0.53644,-0.30405
-0.04304,0.99678,0.06748,0.54886,0.97392,-0.10998
-0.06686,0.99349,0.09216,0.33011,1.1526,0.04649
-0.09531,0.98705,0.12893,-0.28257,1.25048,0.4385
-0.1138,0.98068,0.15908,-0.94901,0.55799,-0.17427
-0.12818,0.97613,0.17528,-0.83126,0.03364,-0.39093
-0.13179,0.97487,0.17955,-0.76279,-0.24471,-0.38699
-0.11893,0.97794,0.17168,-0.38476,-0.24099,-0.37245
-0.09621,0.98298,0.15646,0.15754,-0.1359,-0.28152
-0.07128,0.98711,0.14325,0.21444,-0.13579,-0.21681
-0.04867,0.98932,0.13731,0.31922,-0.13242,-0.11839
-0.03137,0.99023,0.13577,0.29246,-0.15506,-0.12529
-0.023,0.99107,0.13126,0.21275,-0.25937,-0.21151
-0.02171,0.99207,0.12373,0.16865,-0.46267,-0.27891
-0.02349,0.99311,0.11471,0.13753,-0.61703,-0.2519
-0.02301,0.99425,0.10453,0.29353,-0.46791,-0.02385
-0.02063,0.99483,0.09932,0.21878,-0.04584,0.19151
-0.02124,0.99369,0.11009,-0.02284,0.31729,0.42399
-0.02127,0.99047,0.13597,-0.05771,0.32663,0.34311
-0.02147,0.98745,0.15639,-0.0663,0.30164,0.21646
-0.02902,0.98635,0.16201,-0.14283,-0.02464,-0.08387
-0.04321,0.98483,0.16802,-0.29798,-0.24491,-0.21935
-0.06255,0.98074,0.18497,-0.34819,-0.28531,-0.2117
-0.08014,0.97445,0.20977,-0.56734,0.57952,0.04798
-0.08766,0.96979,0.22763,-0.63039,0.60497,-0.08836
-0.07929,0.97449,0.20992,-0.51787,0.59849,-0.30518
-0.06007,0.98195,0.17928,0.01878,0.38934,-0.86388
-0.04291,0.98481,0.16821,0.05457,0.40388,-0.74455
-0.03404,0.98401,0.17478,-0.0535,0.20726,-0.40875
-0.035,0.98399,0.17467,-0.27802,0.01835,-0.03287
-0.04688,0.98667,0.15574,-0.26455,-0.02028,0.01028
-0.06559,0.98958,0.12812,0.01994,-0.084,-0.12549
-0.08295,0.9913,0.10206,0.10933,-0.1181,-0.09427
-0.09202,0.99241,0.08144,0.18542,-0.14291,-0.0188
-0.09296,0.99347,0.06603,0.16123,-0.15265,-0.00709
-0.08977,0.99443,0.05504,0.12889,-0.15973,0.0063
-0.08816,0.99503,0.04606,0.00961,-0.19297,-0.01283
-0.09002,0.99521,0.03782,-0.13127,-0.19872,-0.03846
-0.0932,0.99526,0.02744,-0.17248,-0.17563,-0.06339
-0.09536,0.99534,0.01402,-0.17748,-0.16262,-0.05793
-0.09603,0.99536,0.00351,-0.13453,-0.16863,-0.02443
-0.09515,0.99545,0.00025,-0.06766,-0.17456,0.09673
-0.09282,0.99567,0.00298,-0.04971,-0.15287,0.1488
-0.09155,0.99578,0.0053,-0.01943,0.00672,0.23316
-0.09475,0.99549,0.00352,-0.06043,0.0274,0.18958
-0.0977,0.99521,-0.00074,-0.19339,-0.14627,0.00714
-0.09922,0.99504,-0.006,-0.37302,-0.12494,-0.00883
-0.10085,0.99485,-0.00957,-0.55958,-0.09369,0.0528
-0.1015,0.99475,-0.01254,-0.61374,0.06348,0.04237
-0.10073,0.99475,-0.01784,-0.51271,0.35006,-0.01045
-0.10213,0.99435,-0.02881,-0.41718,0.41886,-0.25539
-0.10734,0.99338,-0.0408,-0.27445,0.46701,-0.42789
-0.1168,0.99189,-0.05006,-0.13264,0.39171,-0.41831
-0.13253,0.98954,-0.0568,0.04364,0.2136,-0.45429
-0.15191,0.98637,-0.06304,0.26287,-0.01384,-0.48252
-0.17033,0.98303,-0.06798,0.39032,-0.17142,-0.41307
-0.18473,0.98046,-0.06748,0.43029,-0.12496,-0.25709
-0.19578,0.97891,-0.05829,0.39634,0.09279,-0.05667
-0.20433,0.97814,-0.03853,0.30575,0.26284,0.07713
-0.20572,0.97857,-0.00776,0.1624,0.39954,0.04635
-0.20353,0.97875,0.02456,0.01252,0.28846,-0.1124
-0.20237,0.97821,0.04627,-0.16919,0.04367,-0.18472
-0.20161,0.97803,0.05292,-0.31665,-0.03058,-0.19951
-0.20114,0.97849,0.04574,-0.33285,-0.04187,-0.2366
-0.2001,0.97911,0.0359,-0.16245,-0.00694,-0.19628
-0.19834,0.9794,0.03778,0.02811,0.00423,-0.07228
-0.19397,0.97952,0.05375,0.14508,-0.03411,0.08807
-0.1855,0.9797,0.07586,0.15396,-0.1434,0.18212
-0.17449,0.98018,0.09373,0.12762,-0.31175,0.11707
-0.16355,0.98107,0.10363,0.10475,-0.35268,0.04789
-0.15637,0.9818,0.10767,0.0778,-0.38407,0.00012
-0.15468,0.98179,0.11022,0.03235,-0.42176,-0.03581
-0.15881,0.98057,0.11507,0.01124,-0.43437,-0.01415
-0.16646,0.97838,0.12268,0.0101,-0.44797,-0.02436
-0.1744,0.97598,0.13052,0.03889,-0.47569,-0.04606
-0.18085,0.97435,0.13383,0.06755,-0.4636,-0.04862
-0.18364,0.97436,0.12991,0.00446,-0.28872,0.02012
-0.18238,0.97572,0.12119,-0.00927,-0.22332,0.044
-0.17866,0.97763,0.11087,0.01051,-0.08986,0.03692
-0.17516,0.97909,0.10331,0.10125,0.03487,-0.04498
-0.17394,0.97936,0.1028,0.13792,0.04865,-0.0639
-0.17542,0.97847,0.10866,0.20947,0.06127,-0.01862
-0.17978,0.97661,0.11787,0.14691,-0.00966,0.1065
-0.1856,0.9744,0.12683,0.13329,-0.04858,0.09901
-0.19078,0.97278,0.13147,0.13336,-0.11067,-0.07982
-0.18818,0.97346,0.13017,0.01643,0.06002,-0.44885
-0.17484,0.97599,0.12983,-0.10663,0.21472,-0.41535
-0.15226,0.97925,0.1337,-0.34249,0.47419,-0.26706
-0.13322,0.98143,0.13792,-0.21958,0.61616,-0.30032
-0.12187,0.98233,0.142,-0.19931,0.79226,0.06642
-0.11337,0.98212,0.15021,-0.14788,0.89736,0.24827
-0.11284,0.98277,0.1463,0.05199,0.26314,0.06689
-0.12054,0.98329,0.13632,0.1369,-0.1053,0.1095
-0.12998,0.98293,0.1301,0.10367,-0.28623,0.16787
-0.13895,0.9825,0.12392,0.02871,-0.46418,0.12055
-0.14638,0.98262,0.11408,-0.0874,-0.54307,0.00954
-0.15026,0.98323,0.10327,-0.19833,-0.46078,-0.03659
-0.15101,0.98392,0.09528,-0.2581,-0.30524,-0.02569
-0.15111,0.98425,0.09162,-0.28322,-0.14543,0.00221
-0.15024,0.98455,0.08981,-0.26985,-0.03109,0.00519
-0.14443,0.98565,0.08724,-0.2006,-0.00323,-0.06069
-0.13255,0.98749,0.08528,-0.09526,-0.08332,-0.12431
-0.11906,0.9888,0.08984,-0.01188,-0.10703,-0.07256
-0.1084,0.98904,0.10018,0.00427,-0.10204,-0.03951
-0.10362,0.9888,0.10731,-0.01276,-0.19411,-0.17121
-0.10343,0.98932,0.10263,0.06034,-0.34392,-0.38513
-0.10792,0.99044,0.0858,0.30236,-0.45426,-0.39692
-0.11423,0.99114,0.06761,0.3716,-0.33642,0.12456
-0.12283,0.99043,0.06282,0.3245,-0.1949,0.23787
-0.13505,0.98795,0.07548,0.26692,-0.03031,0.22011
-0.1479,0.98376,0.10155,0.2592,0.99474,-0.04453
-0.15894,0.97858,0.13077,-0.22661,1.59762,0.11491
-0.17296,0.9743,0.14425,-0.47729,1.11095,0.33115
-0.18523,0.97191,0.14511,-0.4006,0.36525,0.16059
-0.19362,0.97158,0.13608,-0.31436,-0.23466,-0.08629
-0.20045,0.9725,0.1185,-0.23397,-0.64238,-0.21258
-0.20634,0.97325,0.10088,-0.05284,-0.79326,-0.04739
-0.20693,0.97425,0.0894,0.15504,-0.68133,0.17139
-0.1998,0.97594,0.0872,0.09652,-0.31982,0.24746
-0.19005,0.97731,0.09343,0.14143,-0.17146,0.22037
-0.181,0.97814,0.10229,0.19285,-0.31252,0.15067
-0.17663,0.97852,0.10624,0.13253,-0.36148,-0.06125
-0.17851,0.9788,0.10034,0.10187,-0.23852,-0.11326
-0.18666,0.97874,0.08487,0.06308,-0.03935,-0.2012
-0.19961,0.97776,0.06412,0.28991,0.10433,-0.24677
-0.20913,0.97684,0.04502,0.34385,0.05255,-0.26494
-0.20168,0.97871,0.0377,0.23637,0.10289,-0.38798
-0.18128,0.98224,0.04811,-0.06311,0.21997,-0.20759
-0.15251,0.98553,0.07378,-0.22123,0.33159,-0.22529
-0.12278,0.9868,0.10551,-0.62486,1.03914,-0.0091
-0.10594,0.98655,0.12437,-0.4068,1.12603,0.12151
-0.10677,0.98731,0.11749,-0.23576,0.67555,-0.00926
-0.1146,0.98838,0.09977,0.10566,-0.14382,0.05363
-0.12509,0.98848,0.08511,0.192,-0.27713,0.15679
-0.13623,0.98744,0.07995,0.10818,-0.29234,0.24446
-0.14477,0.98605,0.08196,-0.02991,-0.23418,0.23722
-0.14769,0.98529,0.08589,-0.15552,-0.20262,0.08926
-0.14714,0.98519,0.08792,-0.2155,-0.23296,-0.08439
-0.14477,0.98564,0.08683,-0.23442,-0.21438,-0.14251
-0.14107,0.98636,0.08473,-0.21438,-0.08198,-0.15905
-0.13551,0.98707,0.08546,-0.0747,-0.03877,-0.0525
-0.12856,0.98714,0.09489,0.06465,0.00515,0.11951
-0.12256,0.98626,0.11069,0.16392,0.00556,0.10039
-0.1207,0.98538,0.12012,0.2124,-0.16336,-0.21561
-0.12269,0.98565,0.11579,0.25313,-0.42836,-0.52904
-0.12563,0.98659,0.10413,0.31645,-0.56091,-0.46822
-0.12953,0.98676,0.09753,0.18045,-0.35274,0.06505
-0.1385,0.98491,0.10369,0.11593,-0.18048,0.17994
-0.15488,0.98006,0.12442,0.11565,0.32213,0.19098
-0.17759,0.97183,0.15489,-0.48159,1.81983,0.37256
-0.20434,0.96265,0.17754,-0.6856,1.9237,0.43763
-0.22926,0.95515,0.18735,-0.37767,1.06878,0.0389
-0.24697,0.95106,0.18564,-0.24297,0.02863,-0.23342
-0.25803,0.951,0.17028,-0.05782,-0.40274,-0.32298
-0.26328,0.95212,0.15531,0.01785,-0.52624,-0.00354
-0.26411,0.95271,0.1502,0.02187,-0.5871,0.36457
-0.25782,0.95303,0.1589,-0.02014,-0.45001,0.45783
-0.24624,0.95329,0.1749,0.06634,-0.40304,0.34956
-0.23362,0.95511,0.18212,0.22767,-0.4751,0.07934
-0.22334,0.95939,0.17224,0.24218,-0.55001,-0.11754
-0.21882,0.96449,0.14782,0.18402,-0.53256,-0.14466
-0.22045,0.96813,0.11877,-0.00288,-0.12943,-0.22373
-0.22827,0.96871,0.09729,-0.02169,0.18273,-0.1523
-0.23958,0.96698,0.08682,0.10694,0.26944,-0.00038
-0.24423,0.9661,0.08353,0.29721,0.11817,0.15396
-0.23727,0.96796,0.08203,0.43443,-0.06219,0.0465
-0.22398,0.97134,0.07948,0.43174,-0.02479,-0.2698
-0.20528,0.97559,0.07783,0.32638,0.02287,-0.32737
-0.18278,0.97945,0.08507,-0.23447,0.16616,-0.36217
-0.15959,0.98204,0.10055,-0.47676,0.34255,-0.47316
-0.14083,0.9832,0.116,-0.64654,0.79545,-0.4556
-0.13053,0.98282,0.13039,-0.72519,0.97053,0.01997
-0.13328,0.98167,0.13616,-0.11057,0.5581,0.2776
-0.14243,0.98137,0.12882,0.12343,0.31184,0.29443
-0.15179,0.9813,0.11826,0.41784,-0.12244,0.32191
-0.16059,0.98058,0.11248,0.3421,-0.31609,0.36485
-0.16934,0.97944,0.10953,0.22795,-0.47209,0.23579
-0.17599,0.97873,0.10532,0.02192,-0.56143,0.06639
-0.17803,0.97907,0.09849,-0.146,-0.52486,-0.03991
-0.17762,0.98005,0.08903,-0.24401,-0.30973,-0.10817
-0.17866,0.98054,0.0813,-0.33913,0.01716,-0.09999
-0.18111,0.98035,0.07804,-0.33877,0.21309,-0.05798
-0.17982,0.9805,0.07911,-0.19063,0.23416,-0.03656
-0.17294,0.98116,0.086,-0.10897,0.17214,-0.02175
-0.1642,0.98178,0.09555,0.03472,-0.08404,0.02304
-0.15784,0.98199,0.10372,-0.00433,-0.27321,0.00404
-0.15518,0.98197,0.10782,-0.02061,-0.42349,-0.10932
-0.15552,0.9823,0.10426,0.05269,-0.50666,-0.32557
-0.15779,0.98311,0.09264,0.24378,-0.5491,-0.36577
-0.16217,0.98344,0.08079,0.36267,-0.42514,-0.11315
-0.17143,0.98219,0.07682,0.25772,-0.07722,0.16125
-0.18544,0.97856,0.08948,0.06433,0.97638,0.07133
-0.20082,0.97254,0.11756,-0.06783,1.40347,0.09002
-0.21649,0.96626,0.13949,-0.51859,1.70704,0.18456
-0.23385,0.96172,0.1428,-0.2348,0.92799,0.01179
-0.24512,0.95963,0.13784,-0.12147,0.13676,-0.01431
-0.24995,0.96024,0.12429,0.07545,-0.4088,-0.03994
-0.24862,0.9627,0.10663,0.17612,-0.63813,0.04002
-0.24332,0.96564,0.09123,0.12077,-0.62063,0.32666
-0.23549,0.96783,0.08844,0.0272,-0.45572,0.40347
-0.22711,0.96862,0.10088,0.02568,-0.34968,0.32383
-0.21902,0.96884,0.11557,0.08329,-0.28113,0.13957
-0.21354,0.96977,0.118,0.09285,-0.20482,-0.00669
-0.21211,0.97158,0.10496,0.01568,-0.01548,-0.05331
-0.21504,0.97289,0.085,-0.06557,0.23494,-0.0965
-0.22153,0.97277,0.06803,-0.00798,0.37483,-0.08676
-0.23111,0.97117,0.05822,0.13127,0.25438,-0.02029
-0.23901,0.96947,0.05462,0.31077,-0.09276,-0.07689
-0.23876,0.96955,0.05423,0.4479,-0.38597,-0.20151
-0.22774,0.97231,0.05223,0.36963,-0.4106,-0.30137
-0.20987,0.9764,0.05077,0.04845,-0.26482,-0.21416
-0.18783,0.98044,0.05855,-0.14236,-0.01464,-0.256
-0.16418,0.98356,0.07509,-0.23107,0.46772,-0.39568
-0.14121,0.98489,0.10018,-0.58065,1.18288,-0.06576
-0.12709,0.98343,0.12923,-0.29912,1.27165,0.3472
-0.12873,0.98185,0.13922,0.05294,0.46179,0.25046
-0.13724,0.9818,0.13121,0.28548,-0.04665,0.15154
-0.14673,0.98199,0.11895,0.31342,-0.34152,0.17196
-0.15953,0.98111,0.10931,0.14195,-0.4722,0.18669
-0.17312,0.97943,0.10355,-0.14729,-0.43979,0.06738
-0.18258,0.97764,0.10419,-0.2421,-0.40506,-0.00878
-0.18833,0.97598,0.10938,-0.2991,-0.22392,-0.04266
-0.19115,0.97476,0.11524,-0.32192,-0.11673,-0.04117
-0.18834,0.97468,0.12045,-0.2233,0.13367,0.00104
-0.17742,0.97622,0.1245,-0.11359,0.14892,0.01246
-0.16331,0.97789,0.13055,0.07867,0.08037,0.08512
-0.1524,0.97839,0.13965,0.1477,-0.16923,0.07883
-0.14877,0.97835,0.1438,0.10728,-0.25292,-0.01944
-0.1507,0.97878,0.13878,-0.01966,-0.35117,-0.26828
-0.15277,0.98028,0.12523,0.04599,-0.42021,-0.53647
-0.15343,0.98242,0.1062,0.18962,-0.4373,-0.32919
-0.15374,0.98395,0.09047,0.23375,-0.36663,-0.18272
-0.15719,0.98379,0.0862,0.22782,0.16036,0.207
-0.16585,0.98157,0.09479,0.21831,0.75945,0.21308
-0.17618,0.9779,0.11248,0.24687,1.12084,0.14254
-0.1843,0.97348,0.13547,-0.37104,1.29717,0.15663
-0.1927,0.96975,0.14977,-0.42634,0.93603,0.10708
-0.19986,0.96749,0.15489,-0.26767,0.04217,-0.0811
-0.20588,0.96659,0.15262,-0.12866,-0.33126,-0.1571
-0.21115,0.96711,0.14177,-0.04735,-0.58095,0.00228
-0.21514,0.96819,0.12772,0.00137,-0.63702,0.22034
-0.21421,0.96955,0.11865,0.02752,-0.51386,0.32995
-0.20784,0.97102,0.11791,0.08845,-0.32733,0.26022
-0.19853,0.97289,0.11855,0.15791,-0.25623,0.10168
-0.1903,0.97511,0.11371,0.11991,-0.37428,-0.06982
-0.1862,0.97704,0.10347,0.08602,-0.35063,-0.10449
-0.18624,0.9784,0.08963,0.06017,-0.3004,-0.12546
-0.18985,0.9792,0.07141,0.05813,0.01372,-0.08789
-0.19731,0.97907,0.0497,0.11753,0.15437,0.04668
-0.20445,0.97839,0.03053,0.17108,0.15886,0.11061
-0.20619,0.97827,0.02123,0.34701,0.11128,0.04181
-0.20162,0.97918,0.02324,0.28821,0.13163,-0.16313
-0.19232,0.98079,0.03229,0.16127,0.18338,-0.3409
-0.17613,0.98328,0.04602,-0.20911,0.16218,-0.27149
-0.1549,0.98612,0.05966,-0.40897,0.18608,-0.21359
-0.14011,0.98767,0.06975,-0.40603,0.36722,-0.33427
-0.13552,0.9877,0.07783,-0.44498,0.83061,-0.05309
-0.13642,0.98683,0.08677,-0.04621,0.74008,0.19991
-0.14121,0.98626,0.08562,0.10033,0.37812,0.15174
-0.14667,0.98592,0.08019,0.20988,0.12686,0.14902
-0.15233,0.98524,0.078,0.30937,-0.34063,0.23811
-0.15958,0.98426,0.07577,0.17211,-0.5377,0.18624
-0.16728,0.98333,0.0712,0.07095,-0.56426,0.12643
-0.17099,0.983,0.06675,-0.25646,-0.3573,-0.1197
-0.17205,0.98305,0.06317,-0.3052,-0.18552,-0.10439
-0.17421,0.98276,0.06177,-0.2904,-0.03479,-0.06104
-0.17562,0.98231,0.06491,-0.21629,-0.00811,-0.04141
-0.17262,0.98234,0.07203,-0.16585,-0.0215,-0.0095
-0.16454,0.98306,0.08059,-0.04875,-0.09162,0.15468
-0.15435,0.984,0.08887,-0.02428,-0.15186,0.17039
-0.14574,0.98468,0.0956,-0.03376,-0.19716,0.14816
-0.14079,0.98494,0.1003,-0.11842,-0.38418,0.0283
-0.13968,0.98477,0.10347,-0.14697,-0.41515,0.00618
-0.14123,0.98445,0.10438,-0.14594,-0.3632,-0.15478
-0.14466,0.98432,0.10083,0.0541,-0.24812,-0.47683
-0.14833,0.98476,0.09072,0.17999,-0.11089,-0.35794
-0.15262,0.98508,0.07943,0.22168,0.01401,-0.18593
-0.16115,0.98405,0.07518,0.28293,0.53426,0.28934
-0.1763,0.98112,0.07933,0.38059,1.05489,0.24359
-0.19572,0.97643,0.09087,0.33246,1.45332,0.24014
-0.21722,0.97017,0.10754,-0.35526,0.90577,0.07183
-0.23448,0.96271,0.13483,-0.42089,0.1115,0.01024
-0.24568,0.95505,0.16581,-0.39772,-0.37974,-0.09214
-0.25338,0.94997,0.1826,-0.35266,-0.67204,-0.07322
-0.25634,0.94962,0.18027,-0.2369,-0.69289,-0.00749
-0.25419,0.95291,0.16529,-0.0445,-0.48326,0.11797
-0.24481,0.95743,0.15287,0.04423,-0.28434,0.23731
-0.22827,0.96197,0.14996,0.07901,-0.20902,0.24268
-0.20769,0.96636,0.15161,0.09867,-0.19108,0.17583
-0.19175,0.96996,0.14963,0.07433,-0.11731,0.0583
-0.18786,0.97241,0.13819,0.02975,-0.08661,-0.10671
-0.19479,0.97346,0.12005,0.06632,-0.08864,-0.1544
-0.2052,0.97329,0.10282,0.19627,-0.03058,-0.04216
-0.21358,0.97263,0.09135,0.23417,0.08051,0.1462
-0.21462,0.97239,0.09155,0.1212,0.07913,0.27166
-0.21275,0.97152,0.10419,0.00974,-0.1284,0.31134
-0.2112,0.96977,0.12213,-0.04591,-0.43665,0.14865
-0.20884,0.96864,0.13454,-0.06261,-0.53146,-0.11196
-0.20361,0.96984,0.1339,0.04721,-0.34654,-0.43608
-0.19374,0.97305,0.12501,-0.10202,0.46488,-0.42698
-0.17973,0.97731,0.11202,-0.32118,0.92076,-0.35801
-0.16354,0.98011,0.11232,-1.06777,1.58588,-0.39838
-0.15114,0.98105,0.12118,-0.81705,1.26041,-0.71993
-0.14122,0.98264,0.12028,-0.66864,0.90645,-0.77695
-0.13012,0.98483,0.1147,0.03654,-0.0563,-0.24475
-0.11845,0.98705,0.10814,0.51873,-0.18129,0.17598
-0.11038,0.9887,0.10138,0.5094,-0.18514,0.28261
-0.10705,0.98966,0.09536,0.37424,-0.23554,0.38274
-0.11104,0.99003,0.08658,0.19834,-0.23627,0.24946
-0.12163,0.99,0.07135,0.04523,-0.27607,0.01164
-0.1329,0.98997,0.04776,-0.05292,-0.31753,-0.16375
-0.1412,0.98978,0.01943,-0.14492,-0.30456,-0.18978
-0.14423,0.98952,-0.00485,-0.23797,-0.26679,-0.11649
-0.1403,0.98991,-0.0195,-0.26366,-0.24899,0.04202
-0.1288,0.99131,-0.02653,-0.21053,-0.23204,0.13656
-0.11061,0.99339,-0.03054,-0.07676,-0.21246,0.13775
-0.08942,0.99549,-0.03148,0.04615,-0.13587,0.13715
-0.06956,0.99721,-0.02684,0.03277,-0.05165,0.1399
-0.05523,0.9983,-0.0181,-0.10035,0.06395,0.15068
-0.04867,0.99876,-0.00954,-0.48369,0.10582,0.23127
-0.0491,0.99877,-0.00548,-0.62152,0.15737,0.00954
-0.05224,0.99858,-0.00951,-0.6312,0.28452,-0.00457
-0.05362,0.99845,-0.01456,-0.60492,0.48163,-0.10473
-0.0555,0.99832,-0.01637,-0.63493,0.46871,-0.25203
-0.05937,0.99812,-0.01484,-0.52831,0.49976,-0.43961
-0.06805,0.99751,-0.01805,-0.20073,0.15892,-0.47789
-0.0861,0.99594,-0.02611,-0.09288,0.03742,-0.54204
-0.1092,0.99341,-0.03465,0.08616,-0.1727,-0.55268
-0.13044,0.99081,-0.03547,0.24447,-0.06882,-0.44084
-0.1448,0.98912,-0.02564,0.30517,0.15887,-0.26684
-0.15375,0.98808,-0.00704,0.29698,0.26861,-0.16599
-0.15514,0.98769,0.01962,-0.05978,0.51364,0.08878
-0.14892,0.9874,0.05332,-0.21308,0.37371,-0.06135
-0.14181,0.98618,0.08553,-0.28635,0.0445,-0.27365
-0.13343,0.98537,0.10592,-0.44627,-0.14191,-0.41709
-0.12432,0.98617,0.10953,-0.59404,-0.17932,-0.53669
-0.11612,0.98812,0.10061,-0.46472,-0.15654,-0.57557
-0.10571,0.9901,0.09227,-0.18024,-0.13953,-0.4926
-0.0925,0.99121,0.09451,0.03697,-0.1468,-0.33328
-0.0767,0.99153,0.10472,0.19292,-0.18757,-0.20743
-0.05833,0.9917,0.11454,0.27032,-0.27748,-0.10839
-0.0396,0.99234,0.11691,0.28543,-0.31058,-0.05534
-0.02278,0.99355,0.11102,0.24088,-0.27341,-0.07153
-0.01047,0.99472,0.102,0.18557,-0.20841,-0.087
-0.00545,0.99528,0.09683,0.11826,-0.18852,-0.04461
-0.00678,0.99514,0.09817,0.10654,-0.17681,-0.03231
-0.01048,0.99453,0.10382,0.05847,-0.10299,0.06524
-0.01401,0.99387,0.10954,-0.00241,-0.01847,0.02794
-0.01687,0.9935,0.11253,-0.0753,0.08727,-0.01259
-0.01838,0.99332,0.11383,-0.161,0.10603,0.02152
-0.01766,0.99315,0.11542,-0.24778,0.03366,0.11388
-0.01648,0.99273,0.11916,-0.34136,-0.09876,0.22604
-0.01756,0.99193,0.12552,-0.36405,-0.12582,0.1931
-0.02292,0.99066,0.13434,-0.36691,0.00201,0.1404
-0.03032,0.98904,0.14443,-0.33731,0.13636,0.04542
-0.03988,0.98715,0.15465,-0.27733,0.28534,-0.0767
-0.05193,0.98421,0.16916,-0.26791,0.69166,-0.37621
-0.06173,0.98188,0.1791,-0.08666,0.60189,-0.57773
-0.05374,0.98572,0.15957,0.12352,0.47859,-0.67478
-0.03825,0.99032,0.13338,0.21532,0.10506,-0.27088
-0.02464,0.99172,0.126,0.11222,0.04925,-0.10815
-0.02286,0.9892,0.14472,0.03232,-0.0271,-0.06899
-0.03056,0.98677,0.15917,-0.25944,-0.18637,-0.05976
-0.04161,0.9874,0.15259,-0.11471,-0.07156,-0.12687
-0.05324,0.9894,0.13504,0.02458,-0.06607,-0.23192
-0.06535,0.99158,0.1117,0.17306,-0.0792,-0.20358
-0.07088,0.99361,0.08773,0.1942,-0.03118,-0.08988
-0.06825,0.99502,0.07251,0.17288,-0.00746,0.00246
-0.06471,0.99567,0.06662,0.14552,-0.0763,0.02545
-0.06571,0.99568,0.06543,0.11285,-0.12778,-0.00047
-0.07216,0.99538,0.06327,-0.02123,-0.30435,-0.10082
-0.08248,0.99488,0.05823,-0.09147,-0.33668,-0.09766
-0.09393,0.99419,0.05244,-0.19326,-0.33702,0.0018
-0.10389,0.9934,0.04838,-0.12926,-0.24031,0.05931
-0.11241,0.99258,0.04628,-0.06311,-0.2336,0.04305
-0.11946,0.99173,0.04684,-0.04291,-0.24841,0.0378
-0.12498,0.99077,0.05241,0.03324,-0.33874,0.02471
-0.1279,0.98996,0.06,0.07004,-0.37935,0.00815
-0.12743,0.98958,0.06689,0.04893,-0.37638,0.02255
-0.12403,0.98949,0.0743,-0.0872,-0.28058,-0.00204
-0.11856,0.98948,0.08276,-0.19006,-0.15129,-0.03237
-0.11239,0.98924,0.09362,-0.25633,-0.0135,-0.0736
-0.10787,0.98857,0.10525,-0.2652,0.03565,-0.20268
-0.10766,0.98808,0.10992,-0.11165,-0.10036,-0.41083
-0.11228,0.98855,0.1007,0.05547,-0.31724,-0.48964
-0.12288,0.9892,0.07983,0.29113,-0.50989,-0.30531
-0.13602,0.9892,0.05451,0.46953,-0.53389,0.10914
-0.14871,0.98815,0.03775,0.35275,-0.10211,0.34735
-0.1639,0.98567,0.03962,0.4527,0.68963,0.05239
-0.17592,0.98257,0.05996,0.20038,1.84183,0.38612
-0.18355,0.97886,0.09009,-0.5243,1.68331,0.3793
-0.20023,0.97389,0.10693,-0.39102,0.6866,0.02601
-0.21595,0.97031,0.10883,-0.33753,0.00103,-0.18502
-0.22739,0.96941,0.09226,-0.29841,-0.41115,-0.20047
-0.2354,0.96941,0.06931,-0.23943,-0.58465,0.02888
-0.2363,0.97005,0.0561,-0.14789,-0.51741,0.24958
-0.22813,0.97201,0.05599,-0.11578,-0.30835,0.25451
-0.21651,0.9743,0.06201,0.04516,-0.25984,0.19387
-0.20581,0.97638,0.0657,0.24852,-0.27809,0.14362
-0.1989,0.97802,0.06244,0.3241,-0.25977,0.09442
-0.19715,0.97897,0.05226,0.30261,-0.11348,-0.00139
-0.20143,0.97873,0.03857,0.28455,-0.02492,-0.1204
-0.21122,0.97706,0.02683,0.28515,-0.06399,-0.14531
-0.22308,0.97463,0.01758,0.32913,-0.1607,-0.18076
-0.23013,0.9731,0.0104,0.34871,-0.42283,-0.35289
-0.2232,0.97474,0.00757,0.22334,-0.3539,-0.35115
-0.20467,0.97875,0.01156,0.10898,-0.21781,-0.32549
-0.17632,0.98397,0.02651,-0.27166,0.86753,-0.40221
-0.14494,0.98772,0.05818,-0.58421,1.56022,0.19862
-0.12583,0.98739,0.096,-0.31868,1.60131,0.35188
-0.12738,0.98561,0.11107,-0.15099,0.18068,0.18563
-0.13478,0.98471,0.11027,0.01582,-0.25359,0.20498
-0.14189,0.9842,0.10585,0.00859,-0.44976,0.20447
-0.15248,0.98347,0.09753,-0.06135,-0.50464,0.19386
-0.1641,0.98276,0.08509,-0.19845,-0.47177,0.09891
-0.17101,0.98236,0.07558,-0.27162,-0.27223,-0.0132
-0.17253,0.98236,0.07207,-0.2939,-0.16708,-0.06931
-0.17165,0.9825,0.07223,-0.30044,0.14836,-0.0978
-0.16792,0.98305,0.07346,-0.15546,0.21429,0.00012
-0.15967,0.98412,0.0774,-0.06094,0.20412,0.04339
-0.1509,0.9845,0.08923,0.12937,0.09965,0.23968
-0.14577,0.98363,0.10586,0.18915,-0.04613,0.23666
-0.14528,0.98212,0.11961,0.12026,-0.22981,0.06238
-0.14618,0.9808,0.12899,-0.02254,-0.36047,-0.22735
-0.14294,0.9806,0.13409,-0.08112,-0.44491,-0.52597
-0.13501,0.98203,0.13181,0.07365,-0.55233,-0.62326
-0.12546,0.98463,0.12143,0.19673,-0.54203,-0.38307
-0.11983,0.98648,0.11173,0.24771,-0.40396,-0.07497
-0.12289,0.98636,0.10938,0.29976,-0.11936,0.14304
-0.13577,0.98459,0.11018,0.44255,0.3711,0.20534
-0.15119,0.98178,0.11505,0.62952,1.4422,0.21426
-0.16128,0.97769,0.13454,-0.45618,1.80509,0.35866
-0.17302,0.97343,0.14994,-0.42654,0.77558,0.18252
-0.18306,0.96946,0.16312,-0.28992,-0.00113,-0.08779
-0.18971,0.96679,0.1712,-0.2515,-0.46247,-0.27276
-0.19597,0.96606,0.16826,-0.20997,-0.62956,-0.18292
-0.20197,0.96647,0.15853,-0.09129,-0.63848,0.06284
-0.20402,0.96724,0.151,-0.0779,-0.49431,0.26056
-0.19782,0.96876,0.14949,-0.10782,-0.27284,0.39602
-0.18654,0.97119,0.14822,-0.02036,-0.16654,0.37229
-0.1769,0.97437,0.13887,0.14751,-0.20779,0.14819
-0.17319,0.97771,0.11861,0.23545,-0.20906,-0.06366
-0.17749,0.97957,0.09449,0.19657,-0.13817,-0.14735
-0.18686,0.97965,0.07313,0.13912,-0.05741,-0.14099
-0.19878,0.97847,0.05545,0.11936,-0.02134,-0.0822
-0.21012,0.97683,0.04047,0.21289,-0.06663,0.02966
-0.21612,0.97585,0.03149,0.35917,-0.10216,0.05554
-0.21448,0.97628,0.02928,0.37189,-0.0998,-0.03395
-0.20554,0.97811,0.03211,0.36362,0.00919,-0.30898
-0.18736,0.9815,0.03916,0.1049,0.21372,-0.36607
-0.15973,0.98601,0.04742,-0.22156,0.38934,-0.21641
-0.13553,0.9893,0.05394,-0.34091,0.69566,-0.4717
-0.12036,0.99134,0.05228,-0.41482,0.83136,-0.33945
-0.11437,0.99221,0.04913,-0.40305,1.0165,-0.06743
-0.12079,0.99176,0.04255,0.06952,0.14463,0.10884
-0.13036,0.99079,0.03649,0.17545,-0.11855,0.23103
-0.13748,0.98964,0.04121,0.1212,-0.26001,0.30759
-0.14254,0.98833,0.05349,0.02323,-0.39613,0.2338
-0.14626,0.98728,0.06218,-0.10236,-0.43636,0.09139
-0.1479,0.98722,0.05914,-0.20626,-0.46409,-0.03931
-0.14864,0.98785,0.04523,-0.30767,-0.32575,-0.15044
-0.15011,0.98828,0.02751,-0.37373,-0.04539,-0.11624
-0.15243,0.9882,0.01439,-0.32144,0.10088,-0.05591
-0.15363,0.98805,0.0116,-0.18794,0.07639,-0.01847
-0.15116,0.98831,0.01936,-0.04426,0.03447,0.04642
-0.14507,0.98883,0.03398,0.07701,-0.06821,0.07616
-0.13879,0.98911,0.04885,0.08976,-0.19557,0.08677
-0.13388,0.98913,0.06073,0.02042,-0.31923,0.06042
-0.12998,0.98922,0.06731,-0.01936,-0.42016,-0.01873
-0.12629,0.98987,0.06473,0.02685,-0.42598,-0.27857
-0.12376,0.99108,0.04927,0.21226,-0.41598,-0.40938
-0.12371,0.99194,0.02723,0.28318,-0.26852,-0.26017
-0.12811,0.99167,0.01257,0.24191,0.00587,0.01397
-0.13835,0.99028,0.01401,0.16084,0.39693,0.0959
-0.15256,0.9877,0.03417,0.22546,0.96346,0.01095
-0.16569,0.98382,0.06809,-0.22158,1.39514,0.17331
-0.17734,0.97961,0.09434,-0.42897,0.93342,0.30044
-0.18822,0.9767,0.10306,-0.24944,0.14032,0.10933
-0.19414,0.97628,0.09581,-0.07915,-0.36536,-0.07407
-0.19708,0.97728,0.07786,-0.00863,-0.54625,-0.09791
-0.19901,0.97815,0.06003,-0.01698,-0.49675,0.04567
-0.19996,0.97859,0.04866,-0.01053,-0.34493,0.20357
-0.19792,0.97882,0.05225,-0.05308,-0.15475,0.30099
-0.19355,0.97869,0.06845,-0.03333,-0.10433,0.2557
-0.18803,0.9787,0.0823,-0.00029,-0.21732,0.11077
-0.18497,0.97936,0.0814,0.00775,-0.32515,-0.02949
-0.18613,0.98031,0.06575,-0.00488,-0.23353,-0.1069
-0.19185,0.98053,0.0417,-0.00488,-0.07816,-0.08441
-0.20095,0.97949,0.01443,0.04575,0.05056,-0.02857
-0.21034,0.97759,-0.00772,0.20395,0.08801,-0.01529
-0.21544,0.97634,-0.0184,0.42506,0.01399,-0.06684
-0.21243,0.977,-0.01805,0.466,-0.11717,-0.28121
-0.20187,0.97935,-0.01,0.3546,-0.10406,-0.27412
-0.1856,0.98261,0.00269,0.23464,-0.0514,-0.266
-0.16548,0.98604,0.01811,-0.14707,0.54855,-0.34798
-0.14759,0.9883,0.03822,-0.28414,0.79908,-0.35449
-0.13761,0.9886,0.06099,-0.45002,0.99067,-0.19747
-0.14054,0.9871,0.07654,-0.05366,0.34499,0.16708
-0.14926,0.98549,0.08067,0.01239,0.07107,0.15109
-0.15804,0.98404,0.08167,0.16026,-0.2997,0.13009
-0.16598,0.98241,0.0854,0.11657,-0.37785,0.13921
-0.17354,0.9808,0.08887,-0.14268,-0.34693,0.17417
-0.17713,0.9803,0.08725,-0.21774,-0.35404,0.10483
-0.17712,0.98076,0.082,-0.28754,-0.21979,-0.00957
-0.17605,0.98145,0.07576,-0.30551,0.02975,-0.06461
-0.17535,0.98189,0.07156,-0.25327,0.16398,-0.04765
-0.17183,0.98251,0.07163,-0.11832,0.13965,0.02357
-0.16462,0.98331,0.07731,0.02664,0.04253,0.09603
-0.15757,0.98371,0.08639,0.11303,-0.11983,0.1617
-0.15465,0.98346,0.09424,0.09697,-0.29428,0.10839
-0.15541,0.98314,0.09625,0.02419,-0.42806,-0.09385
-0.15643,0.98356,0.09017,0.0081,-0.47864,-0.26401
-0.15436,0.98514,0.07522,0.14797,-0.51286,-0.39598
-0.15151,0.98692,0.05495,0.26267,-0.50688,-0.26435
-0.14908,0.98792,0.04201,0.30454,-0.35485,-0.06076
-0.15108,0.98758,0.04302,0.23425,0.01016,0.08467
-0.15983,0.98563,0.05456,0.18292,0.7113,0.04426
-0.17274,0.98218,0.07397,-0.06863,1.42692,0.08114
-0.18467,0.9781,0.0959,-0.40481,1.47765,0.20104
-0.19705,0.97442,0.10798,-0.30118,0.71586,0.16734
-0.20639,0.972,0.11223,-0.1404,0.05716,-0.00493
-0.21189,0.97161,0.10516,-0.06,-0.31202,-0.03782
-0.21526,0.97216,0.09251,0.03391,-0.45926,0.04697
-0.21766,0.97254,0.08232,0.12737,-0.44699,0.22484
-0.21725,0.97276,0.08074,0.06281,-0.31987,0.3599
-0.21403,0.97283,0.08813,0.05073,-0.19921,0.31988
-0.20922,0.97324,0.09496,0.08959,-0.26081,0.16244
-0.20492,0.97431,0.09338,0.03678,-0.40959,-0.00652
-0.20306,0.97559,0.08352,-0.00275,-0.40071,-0.03675
-0.20477,0.97647,0.06747,-0.01584,-0.35077,-0.07761
-0.21121,0.97627,0.04764,0.07616,-0.05159,-0.11475
-0.22143,0.97477,0.0277,0.14669,-0.01259,-0.05744
-0.23106,0.97286,0.01163,0.23484,-0.00039,-0.02245
-0.23275,0.97252,0.00367,0.45342,0.00522,-0.26191
-0.22342,0.9747,0.00568,0.4269,0.06237,-0.31721
-0.20476,0.97866,0.01663,0.32817,0.13198,-0.32994
-0.17915,0.98319,0.03515,-0.31026,0.39919,-0.21737
-0.15632,0.98602,0.05757,-0.38912,0.59214,-0.31939
-0.14125,0.98706,0.07577,-0.47306,0.82776,-0.30488
-0.13844,0.98664,0.08584,-0.36243,1.06059,0.19439
-0.14601,0.98575,0.08344,-0.17081,0.69513,0.13216
-0.15362,0.98489,0.0799,0.16582,-0.09301,0.15924
-0.15805,0.98396,0.08265,0.26472,-0.28469,0.22342
-0.16373,0.98263,0.08726,0.12971,-0.41798,0.23711
-0.16973,0.98179,0.08522,-0.01788,-0.43725,0.17178
-0.17324,0.98199,0.07526,-0.17313,-0.43573,-0.00322
-0.17529,0.98256,0.06193,-0.21529,-0.36214,-0.01577
-0.17789,0.98276,0.05023,-0.24638,-0.25044,-0.01999
-0.17903,0.98286,0.04368,-0.2296,0.09129,-0.05636
-0.174,0.98376,0.04378,-0.19318,0.11879,-0.05727
-0.16291,0.9853,0.05122,-0.06219,0.05547,-0.02339
-0.1515,0.98637,0.06401,0.04505,-0.03641,0.04101
-0.14408,0.9867,0.0752,0.07879,-0.14739,0.0579
-0.14126,0.98673,0.07996,-0.04471,-0.35978,0.00245
-0.13984,0.98705,0.07842,-0.0616,-0.40362,-0.16702
-0.13757,0.98797,0.07054,0.03048,-0.381,-0.29614
-0.13526,0.98922,0.05588,0.24244,-0.30583,-0.43091
-0.13456,0.99005,0.04106,0.30299,-0.13451,-0.17134
-0.13783,0.98984,0.03458,0.26762,-0.00136,0.02442
-0.14769,0.98832,0.0374,0.1068,0.52137,0.15754
-0.16087,0.98587,0.04641,0.08364,0.74754,0.07468
-0.17178,0.98309,0.06333,-0.11469,1.1953,-0.00285
-0.18026,0.98021,0.08166,-0.43018,0.6641,0.00173
-0.18601,0.97839,0.09015,-0.33202,0.37134,0.00695
-0.1867,0.97866,0.08569,-0.17007,-0.04473,-0.03326
-0.18569,0.98003,0.07108,0.08007,-0.35005,0.00848
-0.18517,0.98111,0.05587,0.12904,-0.35379,0.08422
-0.18463,0.98161,0.04829,0.19141,-0.27089,0.24067
-0.18219,0.98176,0.05418,0.16628,-0.11295,0.28722
-0.17737,0.98165,0.06995,0.09488,-0.10077,0.22405
-0.17191,0.98128,0.08676,-0.03085,-0.23886,0.11253
-0.16982,0.98086,0.09513,-0.12084,-0.37268,-0.00774
-0.17267,0.98086,0.08987,-0.11607,-0.41789,-0.10337
-0.17884,0.98117,0.07282,-0.06086,-0.35171,-0.09076
-0.18675,0.98115,0.04957,-0.00853,-0.21467,-0.0012
-0.19305,0.9808,0.02739,0.04715,-0.00011,0.0837
-0.19558,0.9806,0.01289,0.09808,0.12431,0.15185
-0.19454,0.98083,0.01086,0.17197,0.08991,0.11112
-0.19156,0.98128,0.01936,0.25622,-0.03188,-0.0592
-0.18486,0.98222,0.03237,0.21514,-0.07677,-0.28083
-0.17211,0.98405,0.04487,0.01745,0.03237,-0.3116
-0.15391,0.9865,0.05582,-0.29302,0.17329,-0.2873
-0.13858,0.98849,0.0606,-0.36584,0.38479,-0.1634
-0.13632,0.98852,0.06509,-0.33788,0.73933,-0.07723
-0.14245,0.98656,0.07991,-0.34855,1.09785,0.16221
-0.14892,0.98398,0.09793,-0.24549,1.11958,0.23885
-0.15226,0.98262,0.10609,0.0671,0.24003,0.21955
-0.1536,0.98154,0.11385,0.1828,-0.05118,0.24621
-0.15727,0.97982,0.12328,0.14753,-0.29552,0.23271
-0.1649,0.978,0.12772,0.03583,-0.5154,0.1429
-0.17453,0.97701,0.12233,-0.10085,-0.57624,0.00681
-0.18135,0.97723,0.11004,-0.22472,-0.47725,-0.10114
-0.18254,0.9783,0.09793,-0.3099,-0.30836,-0.13414
-0.17862,0.97957,0.09227,-0.36815,-0.13352,-0.01601
-0.16953,0.98106,0.09356,-0.34844,-0.11728,0.02669
-0.15666,0.98289,0.09678,-0.31599,-0.11552,0.06786
-0.14211,0.98503,0.09747,-0.13131,-0.19395,0.09376
-0.12773,0.9873,0.09434,-0.06554,-0.28554,0.04299
-0.11492,0.98926,0.09024,-0.06762,-0.33136,0.01859
-0.10374,0.99065,0.08855,-0.2762,-0.22874,0.08137
-0.09406,0.99155,0.08929,-0.32074,-0.19606,0.1112
-0.08721,0.99218,0.08916,-0.32795,-0.18016,0.13606
-0.08401,0.99279,0.08535,-0.19172,-0.07276,0.13717
-0.08476,0.99332,0.07819,-0.12212,-0.06017,0.12741
-0.08897,0.99376,0.06712,-0.04317,-0.10987,-0.06747
-0.09676,0.99407,0.04937,0.11115,-0.00753,-0.46021
-0.10237,0.99421,0.03226,0.15558,0.3705,-0.62576
-0.11123,0.99354,0.022,0.21969,0.51943,-0.38901
-0.13215,0.99093,0.0242,0.23628,0.76663,-0.13876
-0.16273,0.98581,0.04102,0.21012,0.88823,-0.02873
-0.18991,0.97922,0.07098,-0.07985,1.46708,0.15017
-0.20744,0.97287,0.10233,-0.60236,0.97636,-0.09574
-0.21962,0.96671,0.1312,-0.70199,0.61536,-0.23813
-0.23297,0.95967,0.15728,-0.75345,-0.17119,-0.27839
-0.2415,0.9551,0.1716,-0.70015,-0.35083,-0.24571
-0.23672,0.9562,0.17215,-0.35372,-0.54894,-0.19829
-0.21922,0.96159,0.16515,0.17152,-0.63404,-0.23502
-0.19511,0.96876,0.15302,0.21512,-0.61337,-0.19598
-0.17074,0.97552,0.13853,0.24021,-0.34574,-0.00905
-0.15246,0.98044,0.12445,0.26854,-0.23971,0.00482
-0.14189,0.9834,0.11299,0.29127,-0.22851,-0.01929
-0.13624,0.98537,0.10232,0.28642,-0.20763,0.02452
-0.13285,0.9868,0.09258,0.19915,-0.17959,0.15217
-0.1299,0.98769,0.08711,0.10734,-0.11024,0.12479
-0.12692,0.98837,0.08367,0.12437,-0.00636,0.0242
-0.1246,0.98879,0.08214,0.10572,0.10808,0.10025
-0.12368,0.98832,0.08891,-0.03869,0.26327,0.26505
-0.12368,0.987,0.10254,-0.26558,0.27424,0.27032
-0.12531,0.98595,0.1104,-0.28862,0.03136,-0.04394
-0.12917,0.98549,0.11002,-0.34948,-0.05591,-0.09589
-0.13343,0.98441,0.1145,-0.36059,0.11733,0.20802
-0.13535,0.98319,0.12247,-0.38848,0.37271,0.32425
-0.13381,0.9815,0.13685,-0.47068,0.52298,0.15427
-0.12816,0.98093,0.14604,-0.53911,0.64504,-0.01367
-0.11098,0.98544,0.12872,0.19076,0.3672,-0.80415
-0.08664,0.99069,0.10495,0.15498,0.26897,-0.54403
-0.06538,0.99309,0.09741,0.07063,0.14229,-0.34768
-0.05433,0.99235,0.11076,-0.01665,0.03565,-0.21995
-0.05706,0.99076,0.12294,-0.31802,-0.24816,-0.3702
-0.06806,0.9913,0.1126,-0.32728,-0.24051,-0.38417
-0.08251,0.99275,0.08733,-0.2716,-0.22451,-0.36211
-0.09769,0.99324,0.06256,0.13642,-0.00964,-0.19195
-0.10629,0.99319,0.04758,0.22501,0.08053,-0.08189
-0.10416,0.99364,0.04265,0.27025,0.13274,0.01678
-0.0963,0.99441,0.04304,0.33666,0.0463,0.11006
-0.09048,0.99493,0.04369,0.3294,-0.0332,0.07755
-0.09151,0.99479,0.04471,0.30697,-0.113,0.03478
-0.09986,0.99402,0.04403,-0.01473,-0.26482,-0.14038
-0.11431,0.99261,0.04059,-0.10779,-0.24378,-0.16603
-0.1302,0.99088,0.03459,-0.32564,-0.2141,-0.11817
-0.14165,0.98951,0.02821,-0.31096,-0.17353,0.00394
-0.1455,0.98903,0.02537,-0.21064,-0.16296,0.11823
-0.14306,0.98938,0.02539,-0.09251,-0.1506,0.18311
-0.13801,0.99011,0.02496,-0.02319,-0.10794,0.16814
-0.13382,0.99077,0.02149,-0.01761,-0.08981,0.14184
-0.13096,0.99125,0.01592,-0.07499,-0.05044,0.06554
-0.12881,0.99159,0.01172,-0.12264,-0.02745,0.05692
-0.12724,0.9918,0.01091,-0.12362,-0.02755,0.05695
-0.12651,0.9919,0.01107,-0.10336,-0.06743,0.07875
-0.1271,0.99185,0.00778,-0.11883,-0.08344,0.12328
-0.12778,0.99179,0.00205,-0.13276,-0.08167,0.16103
-0.13195,0.99125,-0.001,-0.1844,-0.03812,0.21471
-0.13844,0.99036,-0.0024,-0.2571,-0.01535,0.12262
-0.14634,0.98922,-0.00408,-0.29804,0.13464,0.10842
-0.15066,0.98856,-0.00631,-0.31829,0.35687,0.05892
-0.15395,0.98802,-0.01024,-0.31342,0.3611,-0.17836
-0.15927,0.98709,-0.01645,-0.2039,0.4191,-0.4666
-0.16906,0.98528,-0.02514,-0.05126,0.3555,-0.50564
-0.18686,0.9818,-0.03355,0.08429,0.10688,-0.42014
-0.20932,0.97709,-0.03827,0.17362,-0.20933,-0.41015
-0.23054,0.97232,-0.03793,0.20733,-0.29345,-0.38827
-0.24938,0.96795,-0.02948,0.24147,0.01768,-0.26391
-0.26744,0.96349,-0.01181,0.21887,0.33829,-0.11781
-0.28182,0.95931,0.01715,-0.00752,0.56093,0.10984
-0.28791,0.95587,0.05832,-0.2216,0.66601,0.12795
-0.28729,0.95303,0.09582,-0.22632,0.5665,-0.021
-0.28319,0.95189,0.117,-0.15259,-0.10863,-0.2881
-0.27645,0.95334,0.12123,-0.225,-0.26832,-0.36336
-0.27023,0.95625,0.11197,-0.23122,-0.27123,-0.3541
-0.26467,0.95862,0.10477,-0.0841,-0.11434,-0.19916
-0.25888,0.95958,0.11029,0.06421,-0.06742,-0.03596
-0.25026,0.96003,0.12529,0.18647,-0.14535,0.02851
-0.23709,0.9611,0.1416,0.26891,-0.25009,0.04453
-0.2224,0.96299,0.15221,0.26367,-0.358,0.06584
-0.20958,0.96545,0.15482,0.21377,-0.36302,0.05308
-0.20215,0.96755,0.15153,0.16171,-0.365,0.02732
-0.20186,0.96841,0.14634,0.01549,-0.36801,-0.08685
-0.20654,0.968,0.14251,0.01825,-0.35255,-0.09507
-0.21258,0.96686,0.14134,0.03294,-0.34435,-0.09532
-0.21787,0.96563,0.1417,0.00042,-0.25147,-0.0446
-0.22094,0.96508,0.14071,-0.02678,-0.17571,-0.01901
-0.22106,0.96545,0.13796,-0.06628,-0.1068,0.02189
-0.21695,0.96698,0.13367,0.01967,-0.02588,0.02886
-0.21106,0.96877,0.13007,0.066,-0.04217,-0.00367
-0.20686,0.9699,0.12843,0.0974,-0.05603,-0.02704
-0.20605,0.96993,0.12945,0.10562,-0.11849,0.02136
-0.20921,0.96898,0.13153,0.09254,-0.12201,0.05662
-0.21653,0.96719,0.13283,0.02367,-0.15039,0.11534
-0.22569,0.96504,0.13323,-0.01475,-0.20045,0.11635
-0.23398,0.9631,0.13297,-0.00813,-0.23682,0.08659
-0.24049,0.96181,0.13067,0.07414,-0.22556,-0.08166
-0.24306,0.96238,0.12137,0.1604,-0.10195,-0.51541
-0.23547,0.96604,0.10634,0.11874,0.04367,-0.60793
-0.21435,0.97169,0.09929,-0.20942,0.75422,-0.39737
-0.18727,0.97628,0.10857,-0.45441,1.06779,-0.53726
-0.16089,0.97771,0.13481,-0.48079,1.06635,-0.5635
-0.15209,0.97501,0.16187,-0.19138,1.18643,0.06601
-0.16296,0.97323,0.16202,0.10272,0.2595,0.10716
-0.17834,0.97304,0.14617,0.37691,-0.19979,0.0814
-0.19125,0.97222,0.13487,0.53401,-0.42831,0.08338
-0.20397,0.96991,0.13289,0.34115,-0.55642,0.12103
-0.21589,0.96665,0.13768,-0.04098,-0.60839,0.07882
-0.22207,0.96488,0.14025,-0.21659,-0.65206,0.02673
-0.22332,0.96549,0.13398,-0.22733,-0.55131,-0.09751
-0.22195,0.9679,0.11788,-0.24994,-0.32895,-0.25413
-0.21804,0.97088,0.09917,-0.22786,-0.07781,-0.28229
-0.21027,0.97361,0.08861,-0.19359,0.09505,-0.20077
-0.19948,0.97569,0.09061,-0.02302,0.07281,-0.07265
-0.18913,0.97654,0.10286,0.10267,-0.09402,0.03166
-0.1811,0.97684,0.11386,0.04553,-0.25699,0.06833
-0.17446,0.97763,0.11739,-0.02831,-0.29471,0.06945
-0.16689,0.97916,0.11566,-0.18777,-0.33277,0.0784
-0.15658,0.98116,0.11312,-0.20463,-0.21521,0.00291
-0.14647,0.98279,0.11244,-0.17339,-0.13415,-0.04736
-0.13843,0.98392,0.1128,-0.1416,-0.06972,-0.0938
-0.13195,0.98467,0.11404,-0.11085,0.13423,-0.06775
-0.12839,0.98479,0.117,-0.1144,0.13411,-0.07071
-0.12903,0.98492,0.11521,0.17754,0.10937,-0.44551
-0.13441,0.98517,0.10655,0.36091,0.0217,-0.35019
-0.14432,0.98487,0.09586,0.34456,0.02514,-0.16328
-0.15646,0.98379,0.08753,0.24716,0.05472,0.03903
-0.16934,0.98216,0.08161,0.39506,0.61639,0.32865
-0.18298,0.97938,0.08557,0.4087,0.61918,0.32469
-0.2014,0.9742,0.10173,-0.24721,1.38517,0.11766
-0.21981,0.9683,0.11855,-0.34583,0.29261,-0.22253
-0.23076,0.96432,0.12969,-0.26439,-0.04373,-0.28092
-0.23366,0.9638,0.12838,-0.212,-0.45311,-0.25649
-0.23114,0.96649,0.11161,-0.19187,-0.58268,-0.0747
-0.22591,0.97002,0.08948,-0.12422,-0.54642,0.11845
-0.21912,0.9725,0.07877,-0.08824,-0.47591,0.19557
-0.21236,0.97359,0.08369,0.1536,-0.16329,0.16564
-0.20539,0.97408,0.09465,0.14152,-0.22573,0.1309
-0.19941,0.97463,0.10156,0.16506,-0.3926,0.02067
-0.1943,0.9761,0.0973,0.18914,-0.5243,-0.02167
-0.19171,0.97804,0.08168,0.18167,-0.44056,-0.03324
-0.19529,0.97894,0.05932,0.10306,-0.24209,0.04719
-0.20219,0.97866,0.03651,0.06709,0.01295,0.07145
-0.20858,0.97781,0.01909,0.152,0.12465,0.08355
-0.20914,0.97781,0.01178,0.33612,0.11823,0.07869
-0.20455,0.97871,0.01634,0.40271,0.10767,-0.05363
-0.19747,0.97988,0.02886,0.3474,0.05099,-0.29227
-0.18659,0.98136,0.04572,0.01457,0.26329,-0.34534
-0.17114,0.98322,0.063,-0.14734,0.38445,-0.34276
-0.15329,0.98512,0.07758,-0.39288,0.54596,-0.3369
-0.13951,0.98559,0.09551,-0.65243,0.91899,-0.16824
-0.13682,0.98413,0.11295,-0.54523,0.95076,-0.03724
-0.1439,0.98253,0.11793,-0.07237,0.615,0.18161
-0.15077,0.98185,0.11501,0.22909,0.01245,0.3011
-0.15466,0.98112,0.11605,0.23044,-0.17248,0.32676
-0.15973,0.9795,0.12268,0.15712,-0.32789,0.22821
-0.16694,0.97781,0.12645,-0.03706,-0.38991,0.0758
-0.17321,0.97741,0.12102,-0.21411,-0.44787,-0.05678
-0.1776,0.9783,0.10662,-0.29481,-0.41487,-0.17524
-0.18116,0.97935,0.08958,-0.32419,-0.21587,-0.23766
-0.18267,0.98006,0.07804,-0.25759,-0.01175,-0.17109
-0.17922,0.98085,0.07613,-0.0888,-0.01134,-0.08394
-0.17155,0.98157,0.08407,0.08734,-0.12303,0.01671
-0.16108,0.98213,0.09721,0.22412,-0.24461,0.13998
-0.15161,0.98241,0.10895,0.16618,-0.33061,0.23827
-0.1448,0.9827,0.1154,0.04164,-0.3452,0.1719
-0.13953,0.98317,0.11785,-0.08962,-0.29051,-0.00933
-0.13416,0.98372,0.1195,-0.22419,-0.16994,-0.16006
-0.12806,0.98442,0.12039,-0.18402,-0.09178,-0.25219
-0.12372,0.98529,0.11777,0.07918,-0.10497,-0.54301
-0.1229,0.98626,0.11033,0.13964,-0.10424,-0.47961
-0.12675,0.98684,0.10033,0.20019,-0.07218,-0.35744
-0.1357,0.98655,0.09106,0.23386,0.15882,0.075
-0.14775,0.98538,0.08475,0.27714,0.28716,0.13051
-0.15969,0.98314,0.08902,0.45243,1.03223,0.20218
-0.17161,0.97956,0.10486,-0.33044,1.26557,0.25834
-0.18292,0.97529,0.12379,-0.41013,0.6778,0.09392
-0.18942,0.97173,0.14089,-0.27531,0.08939,-0.15405
-0.1922,0.97047,0.14566,-0.19748,-0.35818,-0.29113
-0.19291,0.97166,0.13656,-0.19974,-0.47189,-0.2783
-0.19374,0.97357,0.12084,-0.04754,-0.46268,0.01855
-0.19258,0.97477,0.11275,-0.05183,-0.30795,0.26673
-0.18817,0.97495,0.1185,-0.07404,-0.20765,0.31492
-0.18032,0.97504,0.1295,0.11211,-0.16982,0.22496
-0.1716,0.97597,0.13423,0.15695,-0.3281,0.10907
-0.16686,0.97766,0.12772,0.15624,-0.39031,0.01191
-0.16988,0.97931,0.10983,0.12312,-0.31902,-0.04817
-0.1798,0.97994,0.08581,0.09197,-0.16395,-0.09274
-0.19213,0.97935,0.06277,0.11874,-0.03787,-0.08796
-0.2024,0.97817,0.0469,0.2145,0.02021,-0.04362
-0.20727,0.97741,0.04103,0.36497,-0.01979,-0.08071
-0.20558,0.97761,0.04459,0.33972,-0.04181,-0.19124
-0.19788,0.97859,0.05648,0.17144,-0.00236,-0.3064
-0.1814,0.98054,0.07491,-0.17623,0.15314,-0.24191
-0.15746,0.98293,0.09503,-0.44648,0.47793,-0.35836
-0.13502,0.98435,0.11319,-0.68555,0.90439,-0.18332
-0.12527,0.98415,0.12544,-0.58596,1.11367,0.10255
-0.13252,0.98324,0.12512,-0.02801,0.64542,0.17646
-0.14391,0.98278,0.11578,0.1508,0.0741,0.16123
-0.15283,0.98225,0.10868,0.24928,-0.0855,0.17475
-0.16173,0.98094,0.10764,0.15067,-0.36063,0.19648
-0.17145,0.97935,0.10705,-0.03186,-0.44421,0.17328
-0.17834,0.97857,0.10278,-0.13338,-0.50453,0.01262
-0.18125,0.97895,0.09373,-0.17304,-0.49736,-0.06424
-0.1815,0.97998,0.08175,-0.26035,-0.20471,-0.12627
-0.18018,0.98097,0.07213,-0.2109,0.0251,-0.09144
-0.1748,0.98209,0.07016,-0.07834,0.10971,-0.08907
-0.16483,0.98309,0.0796,0.05992,0.08612,-0.03913
-0.15452,0.9832,0.09706,0.13115,-0.02717,0.05003
-0.14756,0.98289,0.11011,0.12382,-0.18507,0.04495
-0.14552,0.98268,0.11465,0.01393,-0.32414,-0.04627
-0.14564,0.98271,0.1142,-0.08567,-0.36911,-0.17473
-0.14552,0.98319,0.11019,-0.04225,-0.35399,-0.37346
-0.14581,0.984,0.10229,0.09597,-0.35647,-0.45269
-0.14758,0.98445,0.09516,0.15794,-0.25448,-0.30769
-0.15344,0.9837,0.0936,0.12622,0.02367,0.01274
-0.16464,0.98147,0.09795,0.07858,0.18546,0.10849
-0.17741,0.97845,0.10557,0.26651,1.2783,0.25113
-0.19281,0.97376,0.12077,0.28191,1.28298,0.23594
-0.21095,0.96781,0.13716,-0.46018,1.25081,0.30408
-0.22348,0.96275,0.15216,-0.27997,0.30468,0.08992
-0.23084,0.96058,0.15482,-0.10314,-0.31085,-0.2158
-0.23464,0.96161,0.14225,-0.0736,-0.52459,-0.27409
-0.23714,0.96395,0.12057,-0.06932,-0.55833,-0.04431
-0.23812,0.96589,0.10168,-0.01294,-0.45222,0.17841
-0.23537,0.96705,0.09689,0.00316,-0.22282,0.29465
-0.22832,0.96782,0.10569,0.09348,-0.19138,0.26298
-0.21766,0.96913,0.11569,0.13151,-0.27777,0.08061
-0.20809,0.97133,0.11491,0.08324,-0.30749,-0.04385
-0.20472,0.97353,0.10152,0.01004,-0.18821,-0.12247
-0.21131,0.97403,0.08121,0.01651,-0.14485,-0.11457
-0.22603,0.9723,0.05935,0.03438,-0.087,-0.09657
-0.24078,0.96963,0.04257,0.12839,0.04601,0.03958
-0.24941,0.96779,0.03398,0.23171,0.07554,0.07308
-0.25055,0.96752,0.03338,0.24251,0.08032,0.07337
-0.2489,0.96774,0.03877,0.29071,-0.0791,-0.08639
-0.24497,0.96839,0.04684,0.26578,-0.1274,-0.19213
-0.23684,0.97011,0.05254,0.21202,-0.15725,-0.27086
-0.22275,0.97327,0.05574,-0.14142,-0.04882,-0.29772
-0.20679,0.97661,0.05875,-0.29292,0.18523,-0.30452
-0.19532,0.97858,0.06488,-0.32211,0.35911,-0.39624
-0.18622,0.97937,0.07831,-0.50158,1.10789,0.29297
-0.18087,0.9786,0.09805,-0.29451,0.96516,0.31371
-0.18457,0.97709,0.10586,0.03848,0.1811,0.18187
-0.18952,0.97612,0.10606,0.35611,-0.26261,0.15447
-0.19146,0.97608,0.10291,0.36248,-0.34145,0.16836
-0.19219,0.97674,0.09493,0.11236,-0.3527,0.03278
-0.19333,0.97748,0.08447,-0.04025,-0.34921,-0.05428
-0.19365,0.97812,0.0759,-0.07293,-0.33511,-0.04866
-0.19548,0.97815,0.07066,-0.14919,-0.09358,0.01114
-0.20128,0.97696,0.07085,-0.18665,0.03052,0.03784
-0.20612,0.9755,0.07671,-0.17137,0.05761,0.03457
-0.2034,0.97562,0.08231,-0.02306,0.03727,-0.00986
-0.19346,0.97741,0.08501,0.06889,-0.06373,-0.02364
-0.1821,0.97924,0.08893,0.05208,-0.13038,0.00695
-0.17367,0.98022,0.09476,-0.03506,-0.34048,0.02138
-0.16958,0.98046,0.0996,-0.10368,-0.35406,-0.03447
-0.16696,0.9808,0.10067,-0.14116,-0.32701,-0.07714
-0.16371,0.98161,0.09806,-0.02773,-0.23143,-0.39288
-0.16127,0.98264,0.09158,0.06134,-0.10812,-0.47739
-0.16091,0.9834,0.08371,0.09873,0.08609,-0.20024
-0.1645,0.98316,0.07946,0.06428,0.37324,0.06716
-0.17356,0.98169,0.07836,0.12199,0.73535,0.00813
-0.18482,0.97953,0.0796,0.1974,1.13306,0.06347
-0.19317,0.97702,0.08999,-0.1107,1.16786,0.19615
-0.20137,0.97377,0.10582,-0.09928,0.4434,0.11694
-0.20763,0.9703,0.12404,-0.03767,-0.15014,0.02917
-0.21173,0.96793,0.13517,0.01788,-0.47673,-0.0307
-0.21478,0.96732,0.13467,0.02487,-0.55053,-0.03564
-0.21645,0.96803,0.12666,0.00623,-0.46034,0.07618
-0.21534,0.9694,0.11782,-0.01152,-0.32702,0.20097
-0.20987,0.97096,0.11479,0.04187,-0.17278,0.26131
-0.20095,0.97271,0.11588,0.10209,-0.10043,0.19977
-0.19145,0.97462,0.1159,0.08916,-0.11064,0.14264
-0.18577,0.97625,0.11135,0.01136,-0.16659,-0.00584
-0.18761,0.97703,0.10096,-0.00633,-0.15855,-0.03474
-0.19844,0.97642,0.08485,-0.01035,-0.13691,-0.1327
-0.21343,0.97469,0.06638,0.08834,-0.13748,-0.07433
-0.22439,0.97314,0.0512,0.12651,-0.11358,-0.00654
-0.22695,0.97294,0.04324,0.15017,-0.09194,0.04819
-0.22365,0.9737,0.04319,0.27429,-0.05964,0.03842
-0.21871,0.97463,0.0474,0.28726,-0.05498,-0.05582
-0.21088,0.97605,0.05326,0.28547,0.04333,-0.29621
-0.19682,0.97857,0.06044,0.0297,0.19407,-0.27481
-0.17492,0.98212,0.06941,-0.22831,0.31171,-0.14396
-0.15469,0.98475,0.07956,-0.27168,0.51467,-0.35088
-0.13895,0.98583,0.09383,-0.5901,1.0582,-0.20603
-0.12545,0.98542,0.1148,-0.52105,1.2833,0.18253
-0.12268,0.98531,0.11868,0.04839,0.39876,0.19116
-0.12437,0.98586,0.11218,0.23654,-0.0603,0.24849
-0.12819,0.98542,0.11177,0.27195,-0.30999,0.30678
-0.13543,0.98385,0.11697,0.02056,-0.5181,0.1691
-0.14555,0.98226,0.11812,-0.13704,-0.53303,-0.05353
-0.1526,0.98224,0.1091,-0.19436,-0.55855,-0.11877
-0.15535,0.98355,0.09205,-0.29339,-0.36087,-0.19089
-0.15495,0.98508,0.0747,-0.32583,-0.19352,-0.16305
-0.15239,0.98622,0.06417,-0.31988,0.05641,-0.0721
-0.14718,0.98716,0.06185,-0.06295,0.0809,0.03993
-0.13897,0.9882,0.06427,0.05166,0.00329,0.0457
-0.12784,0.98941,0.06854,0.20774,-0.23783,0.07625
-0.11847,0.99016,0.0744,0.11829,-0.33513,0.1027
-0.11411,0.99,0.08281,-0.04299,-0.39906,0.11008
-0.11448,0.98902,0.0933,-0.22119,-0.41514,0.05161
-0.11535,0.98809,0.10177,-0.35707,-0.33394,-0.07815
-0.11643,0.98771,0.10414,-0.41751,-0.30693,-0.34654
-0.11769,0.98802,0.09974,-0.27378,-0.183,-0.63006
-0.11849,0.98876,0.09109,-0.07153,0.08706,-0.48224
-0.12028,0.98931,0.08229,0.05513,0.37881,-0.13188
-0.1247,0.98939,0.07442,0.1961,0.59804,0.21564
-0.13133,0.98863,0.07314,0.49538,0.8918,0.34515
-0.14018,0.98657,0.08374,0.4037,1.42547,0.44371
-0.15625,0.98191,0.10683,-0.22121,1.01862,0.29098
-0.17663,0.97438,0.13914,-0.41692,0.29968,0.05094
-0.1921,0.96638,0.17083,-0.37204,-0.20129,-0.15261
-0.203,0.96079,0.18882,-0.34882,-0.5042,-0.21818
-0.20756,0.95982,0.1888,-0.29679,-0.61325,-0.11176
-0.2068,0.96246,0.17575,-0.01551,-0.36184,0.14266
-0.20116,0.96596,0.1626,0.07184,-0.25355,0.2099
-0.19307,0.96849,0.15724,0.15265,-0.17055,0.22149
-0.18203,0.97059,0.1575,0.23877,-0.13647,0.15995
-0.17114,0.97247,0.15807,0.15742,-0.21034,0.11402
-0.16552,0.97389,0.15532,0.11233,-0.23027,0.06728
-0.16815,0.97452,0.14838,0.04034,-0.27973,-0.14787
-0.17649,0.97435,0.13953,0.10587,-0.26604,-0.09708
-0.18503,0.97402,0.13046,0.15046,-0.21684,-0.00382
-0.18781,0.9742,0.1251,-0.02173,0.13556,0.26731
-0.18515,0.97434,0.12789,-0.08737,0.15398,0.30139
-0.18044,0.97375,0.1387,-0.1347,0.12022,0.29997
-0.17558,0.97236,0.15385,-0.25982,-0.32066,0.12641
-0.17085,0.97084,0.16811,-0.30092,-0.42422,0.07045
-0.16723,0.97003,0.17623,-0.31226,-0.5766,0.09568
-0.16312,0.97088,0.17541,0.1602,-0.58584,-0.32238
-0.15319,0.97396,0.16709,0.34564,-0.24434,-0.25423
-0.14027,0.97828,0.15254,0.35036,0.9419,-0.21233
-0.12417,0.98266,0.13761,-0.39512,2.0046,-0.3574
-0.09672,0.98387,0.15044,-0.52502,2.3064,-0.86008
-0.08813,0.9816,0.16935,-0.70928,0.50649,-0.70504
-0.08819,0.97964,0.18031,-0.32068,-0.35337,-0.25497
-0.08578,0.98176,0.16958,-0.06561,-0.43606,-0.13155
-0.08491,0.98501,0.15006,0.32709,-0.23639,0.25132
-0.08874,0.98698,0.13405,0.27914,-0.06642,0.33991
-0.09024,0.98772,0.12743,0.22983,-0.03608,0.32101
-0.09189,0.98825,0.12204,0.16699,-0.1669,0.09996
-0.09671,0.98967,0.10575,0.11635,-0.23285,0.00717
-0.1001,0.99195,0.07738,0.04409,-0.30795,-0.22402
-0.10377,0.99349,0.04686,-0.07392,-0.19492,-0.22301
-0.11097,0.99343,0.02752,-0.12134,-0.1486,-0.1365
-0.1185,0.99265,0.02421,-0.22851,-0.24758,0.1188
-0.12161,0.9922,0.02685,-0.16215,-0.33759,0.24091
-0.11699,0.99281,0.02494,-0.08665,-0.28453,0.19299
-0.10452,0.9943,0.02048,-0.0972,-0.27424,0.08336
-0.08804,0.99589,0.02069,-0.16607,-0.15907,0.05826
-0.07197,0.99709,0.0248,-0.3474,0.03375,0.14925
-0.05734,0.99789,0.03027,-0.41467,0.1115,0.26916
-0.04619,0.99836,0.0335,-0.47345,0.24981,0.1218
-0.03747,0.99879,0.03153,-0.35803,0.56038,-0.0274
-0.03188,0.99915,0.02561,-0.34506,0.68168,-0.36776
-0.0329,0.99926,0.01916,-0.36824,0.57918,-0.46435
-0.0428,0.99897,0.01442,-0.32312,0.32526,-0.59333
-0.06081,0.99809,0.0096,-0.12739,0.02315,-0.57805
-0.07998,0.99678,0.00337,0.04486,-0.22078,-0.47471
-0.09713,0.99526,-0.00252,0.09342,-0.25518,-0.34881
-0.10918,0.99401,-0.00149,0.11644,-0.0908,-0.28951
-0.11146,0.99373,0.00788,0.07829,0.14708,-0.05858
-0.10723,0.99392,0.02446,-0.11768,0.19112,-0.02772
-0.09752,0.99393,0.0507,-0.24269,0.22671,-0.0773
-0.08604,0.99302,0.08051,-0.41798,0.07793,-0.26233
-0.07531,0.99216,0.09966,-0.35023,-0.04465,-0.41811
-0.06794,0.99268,0.09977,-0.40786,-0.04973,-0.60722
-0.06536,0.99431,0.08403,-0.38195,-0.01753,-0.64255
-0.0626,0.99574,0.06758,-0.15591,0.00153,-0.50954
-0.05708,0.99623,0.06509,0.06044,-0.02967,-0.25073
-0.04967,0.99571,0.07793,0.2139,-0.08554,-0.08649
-0.04068,0.99455,0.09593,0.27257,-0.2151,-0.02369
-0.02944,0.99398,0.10545,0.2618,-0.36202,-0.02491
-0.01725,0.99477,0.10055,0.19359,-0.38341,-0.03284
-0.00722,0.99626,0.08602,0.09536,-0.28492,-0.00122
-0.00335,0.99729,0.07341,-0.01754,-0.1599,0.03856
-0.00684,0.99747,0.07063,-0.05585,-0.09792,0.06455
-0.01494,0.99696,0.07631,-0.05779,-0.07451,0.0317
-0.02541,0.99627,0.08231,-0.08827,-0.05985,-0.06622
-0.0352,0.99591,0.08306,-0.23389,0.12097,-0.04029
-0.04222,0.99585,0.08043,-0.29515,0.17926,0.03527
-0.04665,0.99562,0.08083,-0.45573,0.23042,0.1856
-0.0478,0.9951,0.08647,-0.50338,-0.03153,0.18544
-0.0503,0.99417,0.09529,-0.42211,-0.16067,0.01865
-0.05606,0.99304,0.1035,-0.34745,-0.14639,0.02699
-0.06305,0.99177,0.1113,-0.17343,0.16028,0.05447
-0.06952,0.99027,0.12043,-0.0957,0.40603,0.05488
-0.08098,0.98739,0.13593,-0.11473,0.56417,-0.11124
-0.08885,0.98464,0.15023,0.28552,0.32682,-0.51404
-0.07956,0.98711,0.13879,0.58336,0.39898,-0.62679
-0.06615,0.99122,0.1144,0.37664,0.34794,-0.36055
-0.05834,0.9923,0.10911,0.1115,0.23504,-0.15678
-0.06457,0.98918,0.13163,-0.07029,0.07425,-0.15262
-0.08115,0.98477,0.15371,-0.32029,-0.0981,-0.19567
-0.09898,0.98307,0.15414,-0.30193,-0.18268,-0.19145
-0.11472,0.98356,0.13937,-0.16487,-0.2274,-0.19637
-0.12883,0.98471,0.11717,-0.02468,-0.19853,-0.17996
-0.13653,0.98594,0.09622,0.10167,-0.11904,-0.11767
-0.13479,0.9873,0.08396,0.17753,-0.07005,-0.02042
-0.12688,0.98861,0.08081,0.18172,-0.05813,0.01932
-0.12052,0.98937,0.08126,0.11336,-0.10161,0.01052
-0.12051,0.98946,0.08014,-0.00191,-0.1523,-0.11727
-0.1257,0.9891,0.07662,-0.02756,-0.15468,-0.148
-0.13439,0.98839,0.07075,-0.04072,-0.15224,-0.15153
-0.14444,0.98742,0.06422,-0.00459,-0.12775,0.02858
-0.15431,0.98616,0.06044,0.01446,-0.12839,0.08022
-0.16258,0.98467,0.06306,0.04044,-0.14575,0.12708
-0.16895,0.98302,0.0714,0.12263,-0.31451,0.0996
-0.17339,0.98149,0.08117,0.12706,-0.31297,0.08983
-0.17568,0.98044,0.08867,0.04651,-0.4116,0.01605
-0.17516,0.97991,0.09525,-0.11607,-0.37525,0.04569
-0.17025,0.97994,0.1035,-0.16437,-0.33307,0.0395
-0.16093,0.9805,0.1127,-0.19837,-0.28856,0.01571
-0.14914,0.98162,0.11895,-0.22282,-0.14122,0.03656
-0.13666,0.98299,0.12259,-0.21605,-0.10108,0.07774
-0.12467,0.98439,0.12414,-0.19701,-0.05875,0.10218
-0.11481,0.98587,0.12188,-0.05598,0.00545,-0.03048
-0.108,0.98742,0.11542,-0.04551,-0.01847,-0.11851
-0.10346,0.98893,0.10624,-0.03676,-0.10572,-0.35481
-0.10149,0.99024,0.09543,0.07199,-0.23778,-0.5568
-0.10246,0.99125,0.08314,0.2043,-0.31713,-0.44037
-0.10568,0.99171,0.07291,0.26837,-0.21948,-0.09897
-0.1139,0.99154,0.06209,0.3541,0.08283,0.06724
-0.12826,0.99049,0.04968,0.57658,0.90357,0.12436
-0.14756,0.9876,0.05345,-0.36997,2.42386,0.50096
-0.17051,0.98236,0.07658,-0.59296,1.84288,0.32085
-0.19391,0.97556,0.10322,-0.39921,0.55141,-0.04624
-0.21333,0.96995,0.11695,-0.22161,-0.48269,-0.43947
-0.22738,0.96777,0.10813,-0.20849,-0.59274,-0.35861
-0.23488,0.9682,0.08606,-0.10022,-0.68216,-0.07242
-0.2351,0.96965,0.06698,-0.04128,-0.42804,0.27215
-0.22741,0.97158,0.06549,-0.04706,-0.30809,0.30894
-0.21485,0.97325,0.08121,0.02863,-0.28359,0.28834
-0.19952,0.97475,0.10017,0.05405,-0.47893,0.04525
-0.18641,0.97695,0.10392,0.01881,-0.50788,-0.06008
-0.18124,0.97944,0.08848,0.0112,-0.49165,-0.12709
-0.18555,0.98073,0.061,0.03559,-0.401,-0.12193
-0.19897,0.97954,0.02979,0.13652,-0.24567,-0.01384
-0.21556,0.97648,0.00346,0.21115,-0.12119,0.06129
-0.22461,0.97435,-0.01358,0.31969,0.22358,0.1402
-0.22306,0.97454,-0.02242,0.29359,0.32531,0.15831
-0.21588,0.9762,-0.02052,0.18301,0.14702,0.08969
-0.21065,0.97752,-0.00794,0.21551,-0.02839,-0.06541
-0.20659,0.97839,0.00794,0.19692,-0.13725,-0.29923
-0.20242,0.97915,0.01646,0.13022,-0.06501,-0.48985
-0.19501,0.98067,0.01524,-0.16406,0.16,-0.23819
-0.18266,0.98303,0.01659,-0.42255,0.27022,-0.02107
-0.16985,0.9851,0.0267,-0.43614,0.31675,-0.163
-0.15698,0.98663,0.04357,-0.72934,0.84667,-0.02644
-0.14617,0.98712,0.0649,-0.42387,1.00579,0.22493
-0.1458,0.98709,0.06612,0.02579,0.38006,0.18234
-0.14717,0.98767,0.05318,0.12409,0.17926,0.20052
-0.14716,0.98815,0.04352,0.24524,-0.12444,0.19491
-0.15,0.98789,0.03944,0.11352,-0.31684,0.10307
-0.15802,0.98675,0.03664,0.00773,-0.40099,0.07385
-0.16734,0.9853,0.03417,-0.17325,-0.45019,-0.00591
-0.17581,0.9839,0.03191,-0.19995,-0.37748,-0.0224
-0.18543,0.98219,0.03015,-0.22876,-0.27767,-0.04362
-0.19427,0.98047,0.03044,-0.16857,-0.07179,-0.04078
-0.1957,0.98008,0.03366,-0.09871,-0.06615,-0.03695
-0.18802,0.98126,0.0419,-0.02027,-0.06238,-0.02537
-0.17629,0.98274,0.05585,0.11763,-0.11386,0.1291
-0.1661,0.98362,0.06984,0.08309,-0.13964,0.11963
-0.15987,0.98381,0.08084,0.03289,-0.16912,0.08577
-0.15687,0.98371,0.08772,0.00667,-0.27312,-0.38759
-0.15587,0.98395,0.08674,0.10354,-0.29422,-0.52953
-0.15655,0.98462,0.07742,0.22006,-0.23752,-0.30399
-0.16055,0.98478,0.06648,0.12837,-0.03147,0.08922
-0.16943,0.98372,0.05977,0.08369,0.13046,0.21144
-0.18372,0.98125,0.0581,0.09062,0.51914,0.14252
-0.20112,0.97738,0.06531,0.30769,1.1099,0.00941
-0.21765,0.9723,0.08506,-0.17709,1.40082,0.20673
-0.2311,0.9671,0.10629,-0.248,0.78289,0.26403
-0.2369,0.96437,0.11767,-0.12928,0.1145,0.08598
-0.23807,0.96418,0.11686,-0.03264,-0.33869,-0.12439
-0.23741,0.96543,0.10752,-0.03497,-0.53335,-0.07614
-0.237,0.96664,0.0971,-0.04251,-0.54276,0.10793
-0.23665,0.96711,0.0931,-0.00981,-0.45268,0.24497
-0.23348,0.96736,0.09838,0.01462,-0.3214,0.22239
-0.22631,0.96813,0.10718,0.04397,-0.33002,0.18402
-0.21851,0.96932,0.1125,0.07724,-0.38274,0.0684
-0.21507,0.97056,0.10836,0.09033,-0.36768,0.0176
-0.21868,0.9712,0.09446,0.05952,-0.25798,0.0142
-0.22824,0.97069,0.0752,0.02388,-0.05441,-0.00403
-0.24057,0.96896,0.05673,0.16037,0.08794,-0.01273
-0.25002,0.9673,0.04239,0.24122,0.11122,0.00664
-0.25254,0.96699,0.03368,0.44876,0.06469,-0.12139
-0.24542,0.96892,0.03078,0.45456,0.10774,-0.28119
-0.22987,0.97262,0.03391,0.25631,0.23684,-0.24395
-0.20701,0.97728,0.04532,-0.05495,0.23854,-0.17861
-0.18274,0.98093,0.06607,-0.23931,0.28732,-0.32521
-0.16394,0.98239,0.08955,-0.45415,0.6545,-0.35389
-0.15394,0.98151,0.11368,-0.64307,0.99307,-0.00733
-0.15852,0.9788,0.12962,-0.29409,0.48342,0.28659
-0.17066,0.97673,0.1298,-0.06096,0.02701,0.35137
-0.18115,0.97545,0.12517,0.12592,-0.16609,0.32571
-0.18798,0.97436,0.12357,0.13415,-0.3247,0.25374
-0.19279,0.97361,0.12202,0.05271,-0.41127,0.09941
-0.19441,0.97415,0.11493,-0.07523,-0.4885,-0.028
-0.19396,0.97553,0.10346,-0.17305,-0.43467,-0.05172
-0.19404,0.97638,0.09492,-0.27129,-0.19855,0.01855
-0.19699,0.97593,0.09352,-0.29764,-0.06092,0.05599
-0.19977,0.97501,0.09705,-0.26026,0.19184,0.07611
-0.19659,0.97514,0.10219,-0.02826,0.02778,0.00988
-0.18726,0.97619,0.1094,0.02927,-0.03393,0.00126
-0.17701,0.97707,0.11827,0.0454,-0.09842,0.02172
-0.16878,0.97774,0.12457,0.0348,-0.38014,-0.03352
-0.16274,0.97899,0.12275,0.03428,-0.42327,-0.16307
-0.15813,0.98158,0.10712,0.07043,-0.45881,-0.3507
-0.15508,0.98434,0.08368,0.36985,-0.41526,-0.29467
-0.15288,0.98603,0.06594,0.38998,-0.32523,-0.09872
-0.15595,0.98584,0.06157,0.36786,-0.19928,0.0765
-0.16651,0.98354,0.07001,0.11854,0.68157,0.16202
-0.18107,0.97958,0.08725,0.09066,1.01463,0.04387
-0.1974,0.97414,0.10986,-0.41353,1.44568,0.09329
-0.21748,0.96782,0.12649,-0.51491,0.98594,0.2129
-0.2332,0.96354,0.1311,-0.34694,0.38657,0.1459
-0.24339,0.96235,0.12094,-0.21265,-0.1137,-0.03041
-0.24881,0.96334,0.10028,-0.12913,-0.41465,-0.04654
-0.25049,0.9648,0.08004,-0.03842,-0.62188,0.08177
-0.24828,0.96627,0.06823,0.04807,-0.66319,0.19365
-0.24097,0.96822,0.06687,0.05873,-0.55179,0.20106
-0.23132,0.97045,0.0685,0.10876,-0.42736,0.15835
-0.22288,0.97259,0.06613,0.16856,-0.33425,0.08356
-0.22035,0.97364,0.05884,0.1924,-0.2289,0.00327
-0.22465,0.97323,0.04835,0.1874,-0.12478,-0.06873
-0.23405,0.97148,0.03773,0.20173,0.14126,-0.01633
-0.2466,0.96871,0.02761,0.28115,0.21097,0.01915
-0.25709,0.96624,0.01642,0.33109,0.19309,-0.0057
-0.26157,0.96516,0.00599,0.38297,-0.12328,-0.23519
-0.25696,0.96641,0.00025,0.34958,-0.2256,-0.28249
-0.24588,0.96928,0.00533,0.1011,-0.22599,-0.39616
-0.22926,0.97307,0.0236,-0.24641,0.21939,-0.53143
-0.2069,0.97677,0.05557,-0.50141,0.54229,-0.57193
-0.18199,0.97867,0.09524,-0.87302,1.17058,0.44509
-0.16917,0.97847,0.11812,-0.09901,0.80786,0.37511
-0.17149,0.97824,0.11666,0.15796,0.37017,0.24211
-0.17921,0.97842,0.10275,0.42529,0.04407,0.14363
-0.18847,0.97793,0.09009,0.38337,-0.27192,0.1539
-0.20143,0.97575,0.08549,0.18527,-0.44678,0.16947
-0.21459,0.97277,0.08743,-0.01599,-0.48175,0.15884
-0.22292,0.97048,0.09198,-0.13701,-0.40129,0.08947
-0.22686,0.96935,0.09422,-0.24278,-0.23246,0.08504
-0.22896,0.96871,0.0957,-0.3084,-0.03916,0.07033
-0.22812,0.96859,0.09886,-0.26894,0.07372,0.05692
-0.22122,0.9696,0.10446,-0.11701,0.11217,-0.00819
-0.2099,0.97094,0.11487,-0.03134,0.10293,-0.04113
-0.19976,0.97174,0.12568,0.0671,-0.14743,-0.05317
-0.19463,0.97256,0.12738,0.02816,-0.40155,-0.17683
-0.19321,0.97385,0.11946,0.00229,-0.53592,-0.2953
-0.19278,0.97551,0.10582,0.06676,-0.60564,-0.33699
-0.1939,0.97709,0.08767,0.30901,-0.66407,-0.07636
-0.19594,0.97804,0.07089,0.32026,-0.58484,0.01634
-0.20029,0.97768,0.06333,0.29994,-0.45227,0.05871
-0.21087,0.97522,0.06682,0.23782,1.09633,0.15242
-0.227,0.97052,0.08095,-0.0924,1.66243,0.35008
-0.2421,0.96607,0.08991,-0.48237,2.0144,0.34064
-0.25236,0.96436,0.07939,-0.12604,1.14648,0.0609
-0.25724,0.96404,0.06661,0.0693,0.25676,-0.10493
-0.25898,0.96425,0.05607,0.16819,-0.27948,-0.11202
-0.25626,0.96528,0.05053,0.13465,-0.5028,0.07757
-0.25228,0.96625,0.05195,0.10933,-0.58173,0.32839
-0.24837,0.96681,0.05968,-0.03682,-0.42546,0.45536
-0.24535,0.96655,0.07464,-0.02864,-0.361,0.36198
-0.2404,0.96645,0.09037,-0.00208,-0.38777,0.22711
-0.23531,0.96733,0.0942,0.07454,-0.40116,0.08052
-0.23357,0.96898,0.08059,0.07437,-0.38405,-0.04452
-0.23624,0.97006,0.05619,-0.01868,-0.1046,-0.1212
-0.24398,0.96921,0.03298,0.0225,0.14233,-0.06331
-0.25525,0.96671,0.01758,0.16466,0.22214,0.01789
-0.26351,0.96461,0.008,0.2821,0.15053,-0.01164
-0.26224,0.96499,0.00288,0.42872,-0.12083,-0.16348
-0.25025,0.96816,0.00517,0.25419,-0.18615,-0.24264
-0.23081,0.97288,0.01447,0.09133,-0.23193,-0.26491
-0.20557,0.97819,0.02933,-0.24628,-0.09489,-0.41552
-0.17704,0.98325,0.04303,-0.41541,0.38397,-0.52382
-0.1497,0.98709,0.05673,-0.70688,0.90105,0.1264
-0.13783,0.98751,0.0762,-0.15348,0.98531,0.34269
-0.14192,0.98623,0.08483,0.1096,0.58782,0.33264
-0.14981,0.98557,0.07865,0.1175,0.58848,0.33882
-0.15678,0.98502,0.07167,0.38223,-0.01551,0.22727
-0.16744,0.98315,0.07328,0.1434,-0.27143,0.25373
-0.18205,0.98005,0.07965,-0.04341,-0.41862,0.19954
-0.19614,0.97676,0.08624,-0.17396,-0.44968,0.08807
-0.20662,0.97417,0.09099,-0.35092,-0.2778,0.0099
-0.2134,0.97256,0.09258,-0.40246,-0.11948,-0.03985
-0.21508,0.97224,0.092,-0.30816,0.00449,-0.07043
-0.20876,0.97355,0.09272,-0.09294,0.05839,-0.05709
-0.1975,0.97512,0.10052,0.1244,0.04062,-0.02577
-0.18723,0.97577,0.11313,0.18685,-0.08606,-0.0041
-0.18195,0.97614,0.11839,0.16312,-0.28646,-0.11061
-0.18145,0.97721,0.11007,0.15787,-0.38656,-0.18906
-0.18397,0.9787,0.09097,0.2758,-0.65903,-0.36889
-0.18824,0.9796,0.07022,0.36916,-0.66538,-0.15951
-0.19269,0.97935,0.061,0.3577,-0.54536,-0.05396
-0.2006,0.9773,0.06796,0.18848,0.27184,0.09525
-0.21132,0.97296,0.09315,0.14857,1.13759,0.13938
-0.21926,0.96696,0.12995,-0.23804,1.74796,0.29957
-0.22836,0.96138,0.15357,-0.26797,1.18131,0.19749
-0.24092,0.95819,0.15427,-0.16065,0.40452,0.00066
-0.25241,0.95717,0.14177,-0.13897,-0.10794,-0.07942
-0.26257,0.95673,0.12532,-0.07993,-0.50069,0.03856
-0.27139,0.95602,0.11114,-0.0141,-0.61871,0.24218
-0.27451,0.95572,0.10589,0.00938,-0.45112,0.32827
-0.27029,0.956,0.11394,-0.0228,-0.31856,0.34954
-0.26168,0.95665,0.12774,0.04076,-0.30423,0.28414
-0.25201,0.95805,0.13646,0.10977,-0.34631,0.13155
-0.24592,0.96,0.13378,0.14082,-0.32144,0.00756
-0.2455,0.96172,0.12169,0.12366,-0.20533,-0.04459
-0.25113,0.96215,0.10577,0.08438,-0.04955,-0.07851
-0.26097,0.96111,0.09019,0.10202,0.01494,-0.04333
-0.26986,0.95953,0.08035,0.31402,-0.00355,0.07265
-0.27092,0.95933,0.07915,0.31868,-0.0036,0.02362
-0.26335,0.96099,0.08449,0.31575,0.01982,-0.22858
-0.24706,0.96446,0.09358,-0.07423,0.12895,-0.1968
-0.22381,0.9686,0.10823,-0.42758,0.20688,-0.1796
-0.20132,0.97121,0.12726,-0.6686,0.54429,-0.11035
-0.18028,0.97215,0.14967,-0.79101,1.19849,0.25572
-0.1682,0.97084,0.17077,-0.56129,1.20172,0.18128
-0.1731,0.96892,0.17667,0.01132,0.29138,0.22243
-0.1807,0.96777,0.17537,0.22883,0.05196,0.26146
-0.18847,0.96644,0.17449,0.27647,-0.21373,0.20945
-0.19784,0.96454,0.17465,0.1385,-0.45317,0.12319
-0.20708,0.96234,0.17608,-0.0115,-0.63296,0.05289
-0.21282,0.96058,0.17882,-0.12927,-0.69566,-0.00668
-0.21423,0.96024,0.17896,-0.24621,-0.56169,-0.05549
-0.21099,0.96181,0.17432,-0.31649,-0.36782,-0.02259
-0.20204,0.96508,0.1667,-0.30658,-0.20937,0.06543
-0.18811,0.96872,0.16181,-0.21735,-0.13551,0.08988
-0.17102,0.97184,0.16206,-0.13532,-0.16088,0.1026
-0.15272,0.97488,0.16209,-0.12888,-0.15096,0.101
-0.13621,0.97809,0.1574,-0.17246,-0.13621,0.07845
-0.12261,0.98107,0.14982,-0.2389,-0.06551,0.09756
-0.11161,0.98305,0.14535,-0.26288,-0.00205,0.13291
-0.10541,0.98381,0.14489,-0.25082,-0.00354,0.13395
-0.10335,0.98456,0.14117,-0.10836,-0.18562,-0.00807
-0.10702,0.98558,0.131,-0.08374,-0.21947,-0.14601
-0.11437,0.98678,0.11472,0.12043,-0.18853,-0.52105
-0.12069,0.98796,0.09674,0.26098,0.12418,-0.53164
-0.12168,0.98907,0.08319,0.24897,0.24151,-0.49993
-0.12746,0.98886,0.07674,0.5046,0.92769,-0.41803
-0.1349,0.9869,0.08837,-0.0004,1.73559,-0.00749
-0.14354,0.98145,0.12698,-0.18631,2.12121,0.19615
-0.16773,0.97042,0.17358,-0.58961,0.7353,-0.16183
-0.19044,0.95799,0.2144,-0.67792,-0.05262,-0.4202
-0.21206,0.94598,0.24522,-0.58793,-0.39108,-0.28129
-0.22925,0.93854,0.25801,-0.53607,-0.64848,-0.06559
-0.23294,0.93975,0.25018,-0.19531,-0.56844,0.00965
-0.21924,0.94729,0.23359,-0.0746,-0.37955,-0.0805
-0.19292,0.95563,0.22255,0.06743,-0.22727,-0.11798
-0.16288,0.96236,0.21751,0.19198,-0.10845,-0.20986
-0.13798,0.9679,0.21005,0.23545,-0.00279,-0.22617
-0.1248,0.97261,0.19607,0.18603,-0.02136,-0.18975
-0.12075,0.97587,0.18186,0.17917,-0.10643,-0.10366
-0.12069,0.97744,0.17328,0.2232,-0.16782,0.01789
-0.11883,0.97866,0.1676,0.27656,-0.22442,0.14996
-0.11536,0.98028,0.1604,0.22106,-0.18679,0.13178
-0.11484,0.98161,0.15243,0.05063,-0.20816,0.08891
-0.11808,0.98189,0.14809,-0.12205,-0.12206,0.08145
-0.1209,0.98158,0.14784,-0.30581,0.00322,0.10072
-0.12195,0.98158,0.14703,-0.50297,0.06646,0.13741
-0.1212,0.98201,0.14476,-0.58055,0.01149,0.17391
-0.11964,0.98227,0.14427,-0.44974,-0.01401,0.01196
-0.11703,0.98198,0.14832,-0.29351,0.07968,0.13125
-0.11146,0.98116,0.15772,-0.28179,0.255,0.12528
-0.10298,0.98096,0.1646,-0.11287,0.45854,-0.03812
-0.09481,0.98099,0.16925,-0.13848,0.63118,-0.12192
-0.09023,0.97882,0.18371,-0.14958,0.75137,-0.46835
-0.08587,0.97754,0.19239,0.10894,0.46394,-0.61569
-0.07218,0.98004,0.18518,0.11342,0.31302,-0.60579
-0.0583,0.98317,0.17311,0.02924,-0.0146,-0.23182
-0.04982,0.983,0.17665,-0.1091,-0.20328,-0.1163
-0.05129,0.9799,0.1927,-0.30331,-0.36734,-0.19254
-0.06115,0.97921,0.19335,-0.35108,-0.2732,-0.28269
-0.07248,0.9822,0.17323,-0.12593,-0.05288,-0.27763
-0.08576,0.98515,0.1487,0.05357,0.03303,-0.24999
-0.09789,0.98715,0.12624,0.21616,0.04531,-0.17968
-0.10211,0.98879,0.10882,0.2568,0.06557,-0.07455
-0.09849,0.99011,0.09984,0.2818,0.07532,0.02485
-0.0964,0.99052,0.09772,0.29249,0.06061,0.05365
-0.10295,0.98977,0.09873,-0.04561,-0.08655,-0.02822
-0.11802,0.98793,0.10023,-0.03054,-0.08472,-0.02972
-0.13567,0.98582,0.09868,-0.29806,-0.1518,-0.19603
-0.15086,0.98431,0.09139,-0.30752,-0.17753,-0.1422
-0.15884,0.98385,0.08246,-0.25333,-0.16408,-0.06229
-0.15923,0.98426,0.07657,-0.18828,-0.17232,0.02436
-0.1551,0.98512,0.07387,0.05983,-0.1575,0.19135
-0.15084,0.98593,0.07194,0.0715,-0.12649,0.19395
-0.14856,0.98656,0.06796,0.03737,-0.0708,0.14252
-0.14763,0.98715,0.06094,-0.00212,-0.07558,0.03817
-0.1465,0.9878,0.05271,-0.01475,-0.12854,-0.03267
-0.14408,0.98849,0.04591,-0.01577,-0.12153,-0.02925
-0.1407,0.9892,0.04101,-0.08236,-0.06286,0.04859
-0.13699,0.9899,0.03638,-0.13681,-0.02056,0.13133
-0.13409,0.9905,0.03022,-0.14337,-0.00802,0.13743
-0.13315,0.99085,0.02191,-0.14136,0.11874,0.05481
-0.13365,0.9909,0.01555,-0.20247,0.36326,-0.06394
-0.13684,0.9905,0.01308,-0.25434,0.51748,-0.2146
-0.14388,0.98948,0.01473,-0.36156,0.57319,-0.25033
-0.15589,0.98762,0.01697,-0.35781,0.45638,-0.31834
-0.17347,0.9847,0.01607,-0.13378,0.05993,-0.50668
-0.19372,0.98099,0.01045,-0.02249,-0.07613,-0.51214
-0.21362,0.97689,0.00515,0.11417,-0.31126,-0.37827
-0.2289,0.9734,0.00912,0.22894,-0.22972,-0.01863
-0.23535,0.97159,0.02467,0.25598,-0.106,0.05535
-0.23681,0.97051,0.04487,0.20958,0.13598,0.09822
-0.23325,0.97021,0.0654,0.05832,0.16863,-0.02688
-0.22644,0.97023,0.08582,-0.14429,0.15787,-0.16966
-0.22199,0.96959,0.1029,-0.25925,0.19497,-0.25488
-0.22228,0.96838,0.11317,-0.29166,0.183,-0.27253
-0.22381,0.96785,0.11468,-0.17673,0.09581,-0.205
-0.22322,0.96822,0.11273,0.00171,-0.03473,-0.1214
-0.22042,0.96846,0.11614,0.14093,-0.12587,-0.02686
-0.21429,0.96859,0.1261,0.18006,-0.23952,0.01327
-0.20495,0.96918,0.13662,0.16417,-0.33318,0.01901
-0.19429,0.97059,0.1421,0.11255,-0.32995,7e-05
-0.18347,0.97257,0.1429,0.04804,-0.29542,-0.04308
-0.17515,0.97431,0.14149,-0.00162,-0.23983,-0.0642
-0.17109,0.97509,0.14109,-0.01399,-0.19816,-0.02036
-0.17072,0.97465,0.14452,0.02587,-0.20146,0.0253
-0.17244,0.97335,0.15114,0.06818,-0.26232,0.01152
-0.17596,0.97182,0.15678,0.08958,-0.34165,-0.02441
-0.18116,0.97063,0.15823,0.07128,-0.36027,-0.05189
-0.18795,0.96993,0.15455,0.06252,-0.32658,-0.03955
-0.19575,0.96954,0.14716,0.03992,-0.26956,-0.00317
-0.20234,0.96926,0.13992,-0.02544,-0.05294,0.05445
-0.20678,0.96888,0.13598,-0.021,-0.05256,0.05838
-0.20962,0.96835,0.13542,0.10462,0.08399,-0.03218
-0.21288,0.96731,0.13772,0.08436,0.07002,0.00738
-0.21728,0.96556,0.14305,0.08876,0.07178,0.00204
-0.22249,0.96324,0.15048,0.07082,-0.08206,0.06889
-0.22756,0.96129,0.15529,0.21008,-0.23853,-0.20175
-0.23182,0.96074,0.15236,0.24429,-0.27173,-0.35319
-0.22965,0.96293,0.14144,0.23566,-0.24784,-0.43112
-0.21602,0.96729,0.13295,-0.20185,0.35605,-0.332
-0.19414,0.97162,0.13507,-0.32199,0.48486,-0.39916
-0.16904,0.97421,0.14943,-0.63206,0.91787,-0.33041
-0.14891,0.97371,0.17235,-0.65505,1.30593,0.02423
-0.14616,0.9729,0.17913,-0.12935,0.78049,0.16066
-0.15262,0.97383,0.16833,0.11561,0.27281,0.14462
-0.15903,0.97466,0.15725,0.30272,0.0106,0.14269
-0.16528,0.97405,0.1546,0.28498,-0.26651,0.14058
-0.17246,0.97276,0.15486,0.11829,-0.51444,0.04937
-0.17916,0.97218,0.15084,-0.05697,-0.63984,-0.02363
-0.18301,0.97307,0.14012,-0.09504,-0.65436,-0.02732
-0.18467,0.97475,0.1255,-0.15764,-0.34611,-0.06811
-0.18476,0.97651,0.11081,-0.16791,-0.21696,-0.04286
-0.18351,0.97782,0.1009,-0.10902,-0.00865,-0.01498
-0.18016,0.97864,0.09891,0.01355,0.00912,-0.00505
-0.17333,0.97912,0.1061,0.01206,-0.03151,-0.00108
-0.16375,0.97909,0.12062,-0.09355,-0.08578,0.10341
-0.15297,0.97844,0.1387,-0.17143,-0.08977,0.07229
-0.14445,0.9771,0.1562,-0.20472,-0.09741,0.02117
-0.13966,0.97566,0.16899,-0.23806,-0.18837,-0.15075
-0.13715,0.97483,0.17574,-0.17517,-0.28664,-0.37653
-0.13697,0.97518,0.17392,0.03447,-0.37358,-0.64229
-0.14055,0.97694,0.16066,0.19508,-0.35049,-0.47052
-0.14738,0.9788,0.14213,0.20579,-0.23248,-0.0058
-0.15778,0.97941,0.12585,0.20853,0.00087,0.34882
-0.16978,0.97819,0.11958,0.45254,0.50519,0.21852
-0.17962,0.97499,0.13081,0.36625,1.61108,0.30779
-0.18415,0.97136,0.15009,-0.09897,2.00483,0.27095
-0.18751,0.96837,0.16454,-0.07215,0.56027,0.09573
-0.19327,0.9654,0.17499,-0.06491,-0.09358,-0.1063
-0.20013,0.9646,0.17165,-0.11484,-0.42556,-0.22673
-0.209,0.96536,0.15611,-0.18933,-0.5439,-0.09184
-0.22042,0.96523,0.14044,-0.15775,-0.52248,0.16901
-0.22917,0.96383,0.13597,-0.1249,-0.42659,0.28009
-0.23002,0.96255,0.14343,-0.09125,-0.36285,0.23642
-0.22339,0.96317,0.14959,0.14913,-0.41065,0.02204
-0.21296,0.9664,0.14384,0.19345,-0.39206,-0.04524
-0.20475,0.97058,0.12662,0.16732,-0.29303,-0.02859
-0.20302,0.97358,0.10441,0.1398,-0.15715,-0.00616
-0.20896,0.97414,0.0858,0.1751,0.11997,-0.02094
-0.22007,0.97259,0.07488,0.24097,0.1207,-0.03229
-0.23027,0.97067,0.06892,0.32785,0.09076,-0.13107
-0.23382,0.97011,0.06471,0.39107,-0.0913,-0.36103
-0.22749,0.9716,0.06491,0.26036,-0.08598,-0.31933
-0.21252,0.97438,0.07354,0.11552,-0.0784,-0.2484
-0.1901,0.97767,0.08949,-0.27276,0.35638,-0.49506
-0.16614,0.97986,0.1107,-0.48799,0.6564,-0.36315
-0.14814,0.9788,0.14135,-0.71481,0.96824,-0.21186
-0.14923,0.97599,0.15859,-0.08691,0.45516,0.20149
-0.1621,0.97477,0.15338,-0.03299,0.20243,0.29391
-0.17508,0.97454,0.13996,0.15312,-0.0879,0.31054
-0.18632,0.97375,0.1307,0.21352,-0.20449,0.25274
-0.19742,0.97173,0.12942,0.09101,-0.30338,0.18346
-0.20488,0.96996,0.13103,-0.04481,-0.38206,0.10385
-0.20859,0.96892,0.13292,-0.16277,-0.37666,-0.03291
-0.21181,0.96782,0.1358,-0.26384,-0.1927,-0.10558
-0.21583,0.96625,0.1406,-0.36421,0.12285,-0.02411
-0.21782,0.96475,0.14763,-0.26155,0.1814,0.01932
-0.21438,0.96394,0.1576,-0.12675,0.14649,0.01232
-0.20998,0.96231,0.17276,0.09699,-0.04283,0.11398
-0.20841,0.95937,0.19015,0.1154,-0.22675,0.06902
-0.21097,0.95682,0.19992,0.10592,-0.31432,-0.04804
-0.21566,0.95639,0.19694,0.111,-0.48114,-0.5735
-0.21967,0.95826,0.18292,0.22788,-0.48708,-0.58632
-0.22133,0.96143,0.16324,0.17841,-0.37306,-0.22141
-0.22263,0.9629,0.15243,0.06265,-0.08302,0.17091
-0.22774,0.9607,0.15863,0.02461,0.42405,0.32196
-0.23733,0.95497,0.178,0.21398,1.13211,0.2683
-0.24864,0.94865,0.19548,-0.04979,1.77756,0.1084
-0.25946,0.94498,0.19919,-0.22156,0.8255,0.07132
-0.26687,0.94215,0.20274,-0.06377,0.14082,0.05351
-0.27198,0.93982,0.20676,0.11632,-0.28317,-0.01769
-0.27651,0.93929,0.20311,0.17188,-0.55157,0.08075
-0.27766,0.94164,0.19026,0.11697,-0.54128,0.15781
-0.27404,0.94475,0.1798,-0.01653,-0.36196,0.20212
-0.26538,0.94712,0.18034,-0.02166,-0.34647,0.19275
-0.25338,0.94826,0.19127,0.00205,-0.36678,0.1407
-0.24159,0.94885,0.2032,-0.01449,-0.39615,0.025
-0.23606,0.95006,0.20407,-0.02529,-0.4167,-0.07501
-0.23975,0.95244,0.18803,-0.00372,-0.33679,-0.09479
-0.25086,0.95465,0.16028,0.02837,-0.14574,-0.07102
-0.26604,0.95478,0.13264,0.1792,0.00527,-0.02423
-0.27675,0.95425,0.11311,0.37152,0.05757,0.00486
-0.27758,0.95516,0.10299,0.5526,0.03524,-0.1506
-0.26982,0.95776,0.09939,0.47903,-0.04177,-0.30534
-0.25819,0.96063,0.1025,0.29159,0.01384,-0.41206
-0.24033,0.96414,0.11247,-0.00596,0.25575,-0.39248
-0.21649,0.96774,0.12879,-0.69318,0.96884,-0.28325
-0.19182,0.96861,0.15802,-0.90149,1.28059,-0.06392
-0.17989,0.96602,0.18556,-0.37185,1.29677,0.18528
-0.18704,0.96404,0.18876,0.08681,0.46843,0.15164
-0.19848,0.96312,0.18163,0.35803,0.00154,0.16673
-0.20969,0.96153,0.17737,0.46564,-0.29491,0.1569
-0.22287,0.95874,0.17643,0.27712,-0.55472,0.08563
-0.2372,0.95468,0.17971,0.0063,-0.5838,0.06396
-0.24623,0.95049,0.1895,-0.16887,-0.52747,0.02464
-0.24953,0.94704,0.20208,-0.27705,-0.38887,-0.04607
-0.25007,0.9446,0.21254,-0.39002,-0.09469,-0.07049
-0.24831,0.94374,0.21834,-0.42065,0.15527,0.01963
-0.24223,0.94491,0.2201,-0.23574,0.21324,0.01513
-0.23372,0.94639,0.22294,0.06396,0.13081,-0.13432
-0.22558,0.94632,0.23146,0.19227,-0.07215,-0.19202
-0.21998,0.94513,0.24148,0.14181,-0.32889,-0.1342
-0.21767,0.94378,0.24875,0.05957,-0.48293,-0.15361
-0.21712,0.94399,0.24844,0.04668,-0.55241,-0.29064
-0.21816,0.94658,0.23742,0.17069,-0.57684,-0.3672
-0.21831,0.94955,0.22509,0.23711,-0.54205,-0.14284
-0.21691,0.95106,0.22003,0.27109,-0.1338,0.17938
-0.21811,0.95048,0.22135,0.23863,0.13525,0.1816
-0.22315,0.94762,0.22846,0.10589,1.71171,0.15954
-0.2327,0.9425,0.23984,-0.30477,2.20405,0.23189
-0.24657,0.93804,0.24346,-0.34315,0.88602,0.17247
-0.2589,0.93364,0.24752,-0.1598,0.10257,-0.14942
-0.2705,0.92931,0.25137,-0.04694,-0.39936,-0.17013
-0.28004,0.92765,0.24702,0.00184,-0.66453,0.00382
-0.28571,0.92938,0.23368,0.01736,-0.60487,0.14888
-0.28393,0.9313,0.22812,-0.04732,-0.42056,0.30349
-0.27681,0.93162,0.23547,-0.03463,-0.32384,0.34926
-0.26625,0.9317,0.24705,0.0754,-0.3097,0.22144
-0.25713,0.93278,0.25255,0.20572,-0.30808,-0.01284
-0.25372,0.9356,0.24547,0.19125,-0.26565,-0.11115
-0.25786,0.93914,0.22694,0.15124,-0.15413,-0.14171
-0.26845,0.94148,0.20378,0.19701,-0.15835,-0.14374
-0.27833,0.94267,0.18406,-0.06091,-0.01611,-0.16197
-0.28446,0.94243,0.17575,0.06107,-0.04181,0.05989
-0.28472,0.94204,0.17741,0.29377,-0.01748,0.06647
-0.28182,0.94231,0.18055,0.33916,-0.06243,-0.00247
-0.27526,0.94478,0.17778,0.31918,-0.00279,-0.33436
-0.26423,0.94898,0.17203,0.16674,0.32109,-0.44631
-0.24679,0.95357,0.17253,-0.18059,0.61082,-0.29413
-0.22638,0.95631,0.18494,-0.42979,0.80576,-0.34437
-0.20809,0.95532,0.20983,-0.58329,0.97769,-0.23532
-0.20039,0.9512,0.23459,-0.48503,1.08728,0.02632
-0.20535,0.94827,0.24207,-0.33941,0.65078,-0.07644
-0.21094,0.94645,0.24437,0.29853,0.09373,0.19293
-0.21698,0.94375,0.24947,0.32212,-0.13689,0.16873
-0.22554,0.9388,0.26031,0.19801,-0.28548,0.16661
-0.23564,0.93193,0.27561,0.00361,-0.33697,0.05732
-0.2467,0.92661,0.28372,-0.1724,-0.37669,-0.07942
-0.2585,0.92456,0.27988,-0.18915,-0.36701,-0.1148
-0.26907,0.92482,0.26886,-0.19804,-0.36108,-0.18013
-0.2733,0.92635,0.25915,-0.21292,-0.34336,-0.15185
-0.26906,0.92801,0.25763,-0.21749,-0.23009,-0.06807
-0.26058,0.92905,0.26255,-0.18845,-0.13154,-0.03945
-0.25139,0.93017,0.26752,-0.09032,-0.14959,0.08032
-0.24287,0.9315,0.27073,-0.01882,-0.21151,-0.05517
-0.2335,0.93309,0.27348,0.02859,-0.26813,-0.06587
-0.22328,0.9352,0.27479,-0.04418,-0.28761,0.03103
-0.21373,0.93718,0.27566,-0.06914,-0.27899,0.09772
-0.20646,0.93868,0.27608,-0.0859,-0.25457,0.12559
-0.20152,0.9417,0.26936,-0.12935,-0.29194,0.03251
-0.19735,0.94746,0.25168,-0.11552,-0.26437,-0.00346
-0.19249,0.95425,0.22874,-0.10468,-0.2171,-0.02167
-0.18543,0.95978,0.21075,-0.00336,0.06537,-0.11353
-0.17815,0.96346,0.19995,-0.01394,0.09962,-0.14282
-0.17475,0.96612,0.18987,0.15035,0.05935,-0.39258
-0.17578,0.96891,0.17404,0.274,0.01713,-0.35995
-0.18094,0.9714,0.15369,0.28236,0.12518,-0.08898
-0.19051,0.97181,0.13882,0.15319,0.33595,0.18262
-0.20312,0.96936,0.13806,0.1815,0.62061,0.27707
-0.21497,0.96466,0.1523,0.19171,1.26959,0.21173
-0.22936,0.95685,0.17831,-0.46543,1.24903,0.00613
-0.24665,0.94726,0.20455,-0.53359,0.35131,-0.01441
-0.25839,0.93856,0.2287,-0.42764,0.08327,-0.05239
-0.26675,0.93293,0.24177,-0.18109,-0.46098,-0.19255
-0.27285,0.93312,0.23411,-0.06902,-0.69826,-0.12115
-0.27181,0.93831,0.21368,-0.03817,-0.70462,-0.0037
-0.26174,0.94504,0.19588,0.0404,-0.4297,0.22384
-0.24576,0.95063,0.1894,0.15342,-0.29017,0.22467
-0.22669,0.95469,0.19276,0.16317,-0.25561,0.19104
-0.20937,0.95769,0.19742,0.09611,-0.27048,0.03827
-0.20025,0.96031,0.19408,-0.00135,-0.29108,-0.06751
-0.20257,0.96249,0.18041,-0.057,-0.21596,-0.09295
-0.21389,0.96362,0.16016,-0.04636,-0.07497,-0.15035
-0.2292,0.9636,0.13752,0.07466,0.0268,-0.09869
-0.2388,0.96368,0.11942,0.19648,0.11412,-0.02051
-0.23787,0.96458,0.11389,0.20861,0.15344,0.03328
-0.23061,0.96528,0.12255,0.10369,0.03765,0.16592
-0.22321,0.96481,0.13891,0.09629,0.03812,0.14955
-0.21615,0.96393,0.15523,0.23141,-0.06145,-0.19237
-0.20715,0.96346,0.16972,0.11636,0.0876,-0.3587
-0.19546,0.96381,0.18119,0.01494,0.19264,-0.36774
-0.18595,0.96334,0.1933,-0.31245,0.07485,-0.20772
-0.18291,0.96097,0.20749,-0.45587,0.32196,-0.09538
-0.18211,0.95583,0.23065,-0.71173,0.94542,0.15971
-0.1812,0.95121,0.24966,-0.55196,1.04032,-0.0354
-0.18914,0.95064,0.24592,-0.08689,0.22895,0.10179
-0.19564,0.95133,0.23806,0.04914,0.06265,0.24746
-0.19995,0.95135,0.23437,0.31399,-0.19541,0.3211
-0.20572,0.95032,0.23353,0.12492,-0.38076,0.12729
-0.21298,0.94871,0.23356,0.01229,-0.38763,0.02744
-0.21775,0.94765,0.23347,-0.09134,-0.39698,-0.06659
-0.21812,0.94819,0.23092,-0.34277,-0.4738,-0.1428
-0.21429,0.95083,0.22356,-0.38387,-0.40294,-0.11771
-0.20476,0.95553,0.21214,-0.42311,-0.30188,-0.08987
-0.18817,0.96139,0.20072,-0.27199,-0.08476,0.03004
-0.16687,0.9664,0.19542,-0.22644,-0.1064,0.0172
-0.14366,0.96976,0.19721,-0.1768,-0.13338,-0.00344
-0.12083,0.97219,0.20055,-0.05804,-0.2037,0.01877
-0.10067,0.97424,0.20172,-0.11095,-0.20353,0.03899
-0.08436,0.9762,0.1997,-0.17165,-0.23692,0.05068
-0.07191,0.97852,0.19313,-0.24048,-0.20685,0.15599
-0.0646,0.98106,0.18254,-0.22237,-0.14561,0.19211
-0.06495,0.98347,0.16893,-0.15679,-0.10009,0.22703
-0.0718,0.98566,0.15263,-0.14125,-0.13371,0.18004
-0.08265,0.98799,0.13046,-0.22061,-0.18432,-0.08502
-0.09452,0.99012,0.10347,-0.25317,0.4378,-0.62327
-0.10539,0.9917,0.07354,-0.32283,0.79628,-0.78531
-0.12153,0.99094,0.05702,-0.30068,0.89516,-0.69237
-0.14711,0.98762,0.05412,-0.24345,0.81839,-0.45315
-0.17766,0.98154,0.0707,-0.22209,0.83325,-0.19504
-0.20176,0.97477,0.09538,-0.20841,0.73884,-0.09196
-0.21306,0.97039,0.11372,-0.31371,0.59001,-0.1577
-0.21705,0.96744,0.1301,-0.46932,0.26714,-0.19598
-0.21906,0.96465,0.14642,-0.48876,0.05949,-0.20779
-0.21651,0.96361,0.15668,-0.33187,-0.51126,-0.28417
-0.20584,0.96658,0.15274,-0.23438,-0.67654,-0.42332
-0.19007,0.97283,0.13211,-0.10923,-0.64386,-0.53646
-0.1732,0.97939,0.10383,-0.04549,-0.36346,-0.4917
-0.15755,0.98431,0.07925,0.05952,0.03818,-0.38293
-0.14451,0.98731,0.06562,0.20234,0.32861,-0.26095
-0.13092,0.98942,0.06234,0.39999,0.36404,-0.09894
-0.11582,0.99126,0.06301,0.51107,0.14713,0.03751
-0.10212,0.99293,0.06033,0.48215,-0.03947,0.10792
-0.09294,0.99418,0.0543,0.33367,-0.20035,0.12156
-0.09027,0.99457,0.05152,0.18812,-0.31534,0.1182
-0.09312,0.9941,0.05533,0.07696,-0.36649,0.17174
-0.09728,0.99329,0.06234,-0.01663,-0.32827,0.19464
-0.09997,0.99264,0.06824,-0.09642,-0.22947,0.08504
-0.09995,0.99244,0.07106,-0.13043,-0.12536,0.03895
-0.09655,0.99272,0.07182,-0.2976,0.20716,0.15575
-0.09093,0.99291,0.0764,-0.47516,0.22312,0.26045
-0.08649,0.99248,0.08646,-0.62256,0.11172,0.26942
-0.0859,0.99145,0.09813,-0.66793,0.00608,0.28827
-0.09039,0.9901,0.10728,-0.58924,-0.15491,0.284
-0.09898,0.98912,0.10869,-0.48873,-0.26299,0.22193
-0.10579,0.98885,0.10471,0.06691,-0.06494,-0.15037
-0.11116,0.98772,0.10966,0.02714,0.60507,0.03484
-0.11701,0.98428,0.13217,-0.03184,0.7845,0.06473
-0.12042,0.97882,0.16546,-0.07703,0.82379,-0.08238
-0.11235,0.9789,0.17062,0.29669,0.26238,-0.91992
-0.09924,0.9819,0.16122,0.12035,0.41428,-0.80359
-0.09668,0.97919,0.17833,-0.076,0.50507,-0.6518
-0.10178,0.97255,0.20919,-0.45617,0.01004,-0.24766
-0.11095,0.96857,0.22254,-0.58397,-0.09191,-0.1791
-0.12174,0.96965,0.21198,-0.55397,-0.10928,-0.083
-0.1335,0.97183,0.19416,0.0859,-0.08654,-0.16511
-0.14099,0.9746,0.17392,0.22271,-0.0606,-0.15572
-0.14157,0.97758,0.15579,0.30668,-0.04354,-0.13957
-0.13462,0.9804,0.14379,0.36966,-0.03049,0.00801
-0.12703,0.98215,0.13859,0.26775,-0.09342,0.0808
-0.12443,0.98233,0.13972,0.03619,-0.16981,0.10156
-0.12951,0.98106,0.14391,-0.17944,-0.23476,-0.00477
-0.13866,0.97992,0.14316,-0.24274,-0.2602,-0.08315
-0.14729,0.98001,0.13364,-0.315,-0.27383,-0.22365
-0.15107,0.981,0.12162,-0.24499,-0.21179,-0.10978
-0.14937,0.98199,0.11554,-0.2059,-0.19938,-0.02814
-0.14421,0.98255,0.11732,-0.02691,-0.21966,0.15244
-0.13861,0.98261,0.12346,0.06551,-0.22026,0.13629
-0.13407,0.98237,0.1302,0.09477,-0.21502,0.10556
-0.1306,0.98216,0.1352,0.09227,-0.25296,0.04134
-0.12787,0.9819,0.13958,0.04511,-0.25072,0.06049
-0.12608,0.98127,0.14554,0.02554,-0.24366,0.07295
-0.12534,0.98007,0.15401,-0.08873,-0.19692,0.07733
-0.1257,0.97879,0.16167,-0.1955,-0.16676,0.10992
-0.12645,0.97793,0.16621,-0.24521,-0.15608,0.1363
-0.12681,0.97765,0.16761,-0.30512,-0.17819,0.17596
-0.12653,0.97821,0.16451,-0.30184,-0.21036,0.10986
-0.12557,0.97953,0.15724,-0.28559,-0.22519,0.09314
-0.12521,0.98074,0.1498,-0.26365,-0.18245,0.07244
-0.12628,0.98127,0.14539,-0.22707,-0.11132,0.00521
-0.12877,0.98166,0.1405,-0.1183,-0.11296,-0.23152
-0.13322,0.98256,0.12964,0.00216,-0.15761,-0.56035
-0.14003,0.98334,0.11582,0.19297,-0.11519,-0.67878
-0.14302,0.98383,0.10768,0.27159,-0.0474,-0.6123
-0.14947,0.98331,0.10358,0.46004,0.3041,-0.24674
-0.16263,0.98135,0.10234,0.38707,1.19031,-0.03435
-0.18431,0.97537,0.12105,0.22256,2.47203,0.39224
-0.21431,0.96293,0.16374,-0.39238,1.91149,0.2986
-0.23933,0.94828,0.20844,-0.56746,0.29575,-0.0902
-0.2601,0.93407,0.2446,-0.36239,-0.39017,-0.24977
-0.27521,0.92479,0.26268,-0.28763,-0.60777,-0.09619
-0.28516,0.92289,0.2587,-0.19844,-0.74998,0.01471
-0.28309,0.92694,0.24621,-0.09301,-0.5447,0.09307
-0.27176,0.93198,0.23983,-0.07659,-0.34806,0.08625
-0.25217,0.93816,0.23714,0.11977,-0.3131,0.02709
-0.22733,0.94607,0.23073,0.29924,-0.31982,-0.09557
-0.20385,0.95481,0.21621,0.2818,-0.28428,-0.16206
-0.18666,0.96266,0.19599,0.16755,-0.24856,-0.1241
-0.17699,0.96764,0.17978,0.0829,-0.24819,0.03858
-0.17621,0.96933,0.17121,0.11629,-0.3329,0.15213
-0.1834,0.96888,0.16615,0.26768,-0.51081,0.16064
-0.19303,0.96847,0.15737,0.40546,-0.61044,0.08217
-0.20115,0.96913,0.14244,0.45031,-0.56976,0.03234
-0.20524,0.97093,0.12302,0.11781,0.03584,-0.00173
-0.20569,0.97304,0.10422,0.0614,0.15921,0.0386
-0.20408,0.97424,0.0958,0.06347,0.31458,0.05714
-0.20498,0.97336,0.1026,0.1606,0.23689,0.0615
-0.21101,0.97068,0.11499,0.23201,0.0483,0.09999
-0.21974,0.96797,0.12135,0.28336,-0.09872,0.05945
-0.22614,0.96666,0.11998,0.33605,-0.1209,-0.27675
-0.22552,0.96769,0.11261,0.09435,0.23166,-0.41523
-0.21162,0.97114,0.1099,-0.40763,0.38046,-0.24447
-0.18722,0.97508,0.11892,-0.70612,0.45646,-0.35633
-0.15685,0.9772,0.143,-0.82481,0.62226,-0.39194
-0.13561,0.97671,0.16618,-0.87166,1.20456,-0.29116
-0.13472,0.97658,0.16768,-0.28897,0.49158,0.09905
-0.14134,0.97733,0.15754,-0.06768,0.19091,0.26231
-0.14826,0.97781,0.14791,0.32917,-0.15092,0.34545
-0.15488,0.97677,0.14798,0.38223,-0.29925,0.29666
-0.16245,0.97483,0.15261,0.34698,-0.35204,0.22385
-0.17134,0.97337,0.15219,0.1028,-0.42271,0.06963
-0.18042,0.97358,0.13983,0.00576,-0.46133,-0.04469
-0.18864,0.975,0.11729,-0.09038,-0.39396,-0.14598
-0.19332,0.97637,0.09646,-0.20659,-0.15862,-0.13364
-0.19427,0.9769,0.08889,-0.30095,0.09364,-0.06127
-0.19287,0.97658,0.09521,-0.28421,0.13772,-0.01088
-0.19115,0.9757,0.10696,-0.17523,-0.0499,-0.02102
-0.18889,0.97505,0.11647,-0.05932,-0.30517,-0.01793
-0.18577,0.97486,0.12292,-0.06244,-0.30498,-0.02438
-0.18163,0.97479,0.12948,-0.07085,-0.47741,-0.02902
-0.17612,0.9747,0.13755,-0.08421,-0.4513,-0.09145
-0.17018,0.97506,0.14232,-0.07145,-0.42732,-0.17694
-0.16642,0.97678,0.13482,0.102,-0.40833,-0.45036
-0.16573,0.97952,0.11421,0.26585,-0.43582,-0.37355
-0.16774,0.98149,0.0923,0.27383,-0.29417,-0.03718
-0.17722,0.98067,0.08274,0.12455,0.12336,0.18325
-0.19487,0.97681,0.08852,0.27972,0.86103,0.02507
-0.2149,0.96998,0.11374,-0.03321,1.97473,0.31302
-0.22924,0.96416,0.13345,-0.75487,1.67779,0.5253
-0.23559,0.96114,0.1438,-0.14215,0.47088,0.25059
-0.23784,0.95954,0.15063,-0.04435,-0.25429,-0.09428
-0.2378,0.95952,0.15082,-0.10148,-0.58229,-0.21382
-0.23611,0.96095,0.1442,-0.1117,-0.66901,-0.04381
-0.23543,0.96231,0.136,-0.11372,-0.57363,0.24956
-0.23248,0.963,0.13623,-0.11426,-0.27194,0.40105
-0.22723,0.96347,0.14165,-0.02688,-0.07443,0.35737
-0.22133,0.96457,0.14346,0.15094,-0.12572,0.17841
-0.21681,0.9667,0.13586,0.28746,-0.25953,-0.02947
-0.21645,0.96905,0.11862,0.22802,-0.26913,-0.10895
-0.22097,0.97012,0.10003,0.06469,-0.04422,-0.08106
-0.23064,0.96948,0.08301,0.13483,-0.06433,-0.07034
-0.24253,0.96794,0.06517,0.22896,-0.13403,-0.10895
-0.25,0.96706,0.0476,0.47068,-0.40844,-0.32908
-0.24621,0.96858,0.03468,0.39323,-0.38721,-0.35236
-0.23117,0.97234,0.03293,0.0766,-0.16035,-0.07633
-0.20589,0.97739,0.04787,-0.02837,-0.0351,-0.01032
-0.17581,0.9816,0.07434,-0.28856,0.77087,-0.19378
-0.14466,0.98305,0.11247,-0.95995,1.5548,0.28497
-0.12928,0.98121,0.14309,-0.81768,1.5961,0.32709
-0.13578,0.98085,0.13952,-0.24473,0.20215,0.19209
-0.14578,0.98208,0.11929,-0.03312,-0.12872,0.19963
-0.15574,0.98309,0.09616,0.0588,-0.29243,0.16312
-0.16909,0.98263,0.07635,0.00939,-0.39248,0.25637
-0.18158,0.98129,0.06386,0.00396,-0.33891,0.20625
-0.18703,0.98057,0.05888,-0.04939,-0.27777,0.0914
-0.18782,0.98047,0.05809,-0.12415,-0.17197,0.03942
-0.18741,0.98063,0.05669,-0.09477,-0.01869,0.02925
-0.1842,0.98141,0.05374,-0.01879,0.07877,0.0033
-0.17777,0.98258,0.054,0.05983,0.14125,-0.07393
-0.17138,0.98331,0.06079,0.16495,0.05704,-0.12088
-0.16917,0.98325,0.06772,0.22664,-0.14632,-0.23724
-0.17138,0.98288,0.06748,0.18313,-0.42126,-0.32546
-0.17436,0.98293,0.05857,0.22435,-0.80988,-0.28808
-0.1759,0.98333,0.04578,0.26876,-0.87234,-0.19541
-0.1752,0.98367,0.0409,0.29962,-0.83722,-0.1202
-0.17575,0.9832,0.04899,0.07731,-0.08405,-0.10763
-0.18242,0.98083,0.06839,0.08398,-0.08167,-0.12703
-0.19276,0.97606,0.10065,-0.05582,1.59906,0.65173
-0.20844,0.9715,0.11279,-0.37746,2.08867,0.68771
-0.22868,0.96854,0.098,-0.17379,1.11431,0.03771
-0.24078,0.96697,0.08343,-0.11687,0.00158,-0.17287
-0.24401,0.96693,0.07412,-0.0504,-0.50384,-0.17336
-0.24287,0.96735,0.0722,-0.05675,-0.61503,0.10362
-0.23927,0.96824,0.07241,-0.06508,-0.66378,0.36031
-0.23477,0.96903,0.07643,-0.11676,-0.48687,0.3658
-0.2295,0.9696,0.08476,-0.07191,-0.40452,0.25809
-0.22371,0.97064,0.08823,0.07301,-0.36142,0.11143
-0.21996,0.97218,0.0804,0.18601,-0.32946,0.00749
-0.21921,0.97353,0.06445,0.18137,-0.13358,-0.02476
-0.22047,0.97428,0.04637,0.17583,0.05975,-0.1046
-0.22558,0.97382,0.02775,0.20248,0.13948,-0.24494
-0.2312,0.97284,0.01064,0.25055,-0.04159,-0.26731
-0.22819,0.9736,0.00424,0.29087,-0.35749,-0.17077
-0.21786,0.97589,0.0125,0.18937,-0.46669,-0.16976
-0.20367,0.97863,0.02781,0.13162,-0.1239,-0.53202
-0.17418,0.98266,0.0633,-1.02382,1.19844,0.53538
-0.14113,0.98286,0.11845,-1.12821,1.55009,0.48188
-0.13621,0.98162,0.1336,-0.13288,0.44279,0.04797
-0.14089,0.98281,0.11921,0.07601,0.05539,0.08372
-0.14631,0.98471,0.09444,0.153,-0.12225,0.2512
-0.15569,0.98499,0.0743,0.04018,-0.07203,0.36578
-0.16637,0.98377,0.06703,-0.02232,-0.01418,0.29683
-0.17475,0.98239,0.06588,-0.03307,0.02624,0.06915
-0.17977,0.98163,0.06377,-0.02929,0.05362,-0.0024
-0.18195,0.9814,0.06105,-0.04939,0.19519,-0.23056
-0.18418,0.98119,0.05767,0.08087,0.0461,-0.37511
-0.18466,0.9815,0.05032,0.14761,-0.08668,-0.38743
-0.18437,0.98174,0.04657,0.31018,-0.54868,-0.17583
-0.18662,0.98094,0.05382,0.2616,-0.84416,0.07271
-0.19262,0.9789,0.06799,0.24093,-1.13268,0.2627
-0.20331,0.97564,0.08225,0.22589,-1.42246,0.17136
-0.21141,0.97286,0.09391,0.20166,-1.52296,0.02852
-0.20737,0.97235,0.10724,0.14154,-0.88225,-0.22655
-0.20135,0.971,0.12879,-0.86408,0.1408,-0.29117
-0.19335,0.96965,0.14958,-0.76389,1.11692,0.80182
-0.19406,0.97305,0.12442,-0.45221,1.81117,0.84535
-0.20003,0.97745,0.06754,-0.0687,2.31264,-0.1994
-0.21087,0.97718,0.02499,0.2767,1.58834,-0.29625
-0.22165,0.97492,0.01965,0.57181,0.21587,0.16773
-0.23262,0.97215,0.02787,0.54201,-0.77834,0.12222
-0.23994,0.96992,0.0408,0.33165,-1.06582,0.08564
-0.24773,0.96772,0.04604,0.14909,-1.10762,0.06959
-0.25486,0.96594,0.04454,0.10546,-0.87632,0.07077
-0.25338,0.96653,0.03994,0.12428,-0.30764,-0.04597
-0.24683,0.9685,0.03237,0.14767,0.03012,-0.23421
-0.23283,0.97223,0.02338,0.19712,0.14481,-0.47215
-0.21009,0.97737,0.02421,0.11681,0.30362,-0.40203
-0.18801,0.9812,0.04329,-0.07547,0.83609,-0.26799
-0.17618,0.98186,0.06987,-0.17439,1.22018,-0.32434
-0.17009,0.9801,0.10225,-0.63808,1.2418,0.22539
-0.17313,0.97665,0.12709,-0.2187,0.66542,0.42853
-0.18119,0.9749,0.12925,-0.16409,-0.08408,0.22736
-0.18884,0.97436,0.12219,-0.03266,-0.43878,0.13205
-0.19556,0.97366,0.1171,0.05118,-0.51172,0.17398
-0.20251,0.9728,0.11234,-0.0225,-0.50048,0.22605
-0.20889,0.97262,0.10172,-0.10451,-0.39563,0.17305
-0.21147,0.97359,0.08587,-0.16539,-0.20746,0.07926
-0.21287,0.97447,0.07115,-0.19852,-0.01343,0.03733
-0.21373,0.97478,0.06396,-0.16156,0.0239,-0.06198
-0.21063,0.97537,0.06535,-0.08937,-0.02711,-0.11868
-0.20328,0.97646,0.072,0.05304,-0.04914,-0.014
-0.19541,0.97739,0.08068,0.12188,-0.11046,0.04529
-0.18972,0.97785,0.08827,0.10656,-0.23482,-0.02915
-0.18675,0.97824,0.09032,0.11868,-0.42306,-0.24724
-0.18442,0.97936,0.08253,0.18555,-0.58125,-0.46281
-0.18194,0.98105,0.06645,0.2449,-0.61627,-0.46599
-0.1794,0.98245,0.05083,0.27032,-0.4328,-0.15206
-0.18006,0.98272,0.04262,0.08959,-0.08591,0.14198
-0.18811,0.98116,0.04388,0.04167,0.19575,0.18703
-0.2025,0.97739,0.06067,-0.02774,1.62921,0.22429
-0.21854,0.9722,0.08393,-0.25322,2.09582,0.20428
-0.23414,0.96755,0.09484,-0.41196,1.5969,0.14103
-0.24086,0.96544,0.09943,-0.00891,0.01555,-0.00836
-0.24177,0.96562,0.09542,0.09943,-0.53781,-0.14348
-0.23908,0.96699,0.08801,0.09672,-0.69779,0.01432
-0.23409,0.96865,0.08305,0.05345,-0.67837,0.28234
-0.22762,0.96997,0.08556,-0.02909,-0.5394,0.40253
-0.21882,0.97105,0.09572,-0.05619,-0.44296,0.37966
-0.20815,0.97242,0.10507,0.04831,-0.43119,0.23257
-0.19743,0.97467,0.10495,0.10661,-0.39494,0.0166
-0.19193,0.97708,0.09198,0.07175,-0.32905,-0.11536
-0.1931,0.97866,0.07005,-0.01184,-0.14311,-0.10376
-0.19667,0.9792,0.04953,-0.04039,0.07919,-0.06221
-0.20443,0.97824,0.03507,0.0709,0.11281,-0.01841
-0.21371,0.97652,0.0266,0.29249,-0.00198,-0.03337
-0.21787,0.9757,0.02285,0.433,-0.14631,-0.1226
-0.2115,0.97698,0.02747,0.24831,-0.04754,-0.11059
-0.19683,0.97944,0.04401,-0.01397,0.15026,-0.05849
-0.17246,0.98272,0.06709,-0.35914,0.37744,-0.21616
-0.14419,0.98521,0.09244,-0.74638,0.91536,-0.16605
-0.12794,0.98503,0.1154,-0.69759,1.54199,-0.11994
-0.13647,0.98357,0.11805,-0.08539,0.43763,0.20833
-0.15196,0.98171,0.1146,0.00015,0.14705,0.31185
-0.16369,0.97965,0.11603,0.22386,-0.16376,0.36123
-0.1767,0.9768,0.12087,0.31687,-0.42889,0.3617
-0.19149,0.97351,0.12487,0.12627,-0.57197,0.30425
-0.19823,0.97222,0.1244,-0.02573,-0.56809,0.23406
-0.19781,0.97347,0.11485,-0.33791,-0.57736,-0.0742
-0.19357,0.97647,0.09498,-0.35233,-0.5127,-0.13598
-0.18578,0.97985,0.07317,-0.3511,-0.42304,-0.15313
-0.17326,0.98277,0.06422,-0.25133,-0.01968,0.20824
-0.15739,0.98487,0.07235,-0.191,0.02235,0.29079
-0.14142,0.98617,0.08627,-0.12464,0.00615,0.31465
-0.12963,0.98739,0.09077,-0.21921,-0.30039,0.15162
-0.12133,0.98902,0.08423,-0.34549,-0.29522,0.07988
-0.11524,0.99047,0.07526,-0.50879,-0.20626,-0.07946
-0.10896,0.99167,0.0685,-0.56368,-0.18756,-0.03388
-0.10399,0.99258,0.06282,-0.56864,-0.18847,-0.0282
-0.10352,0.99321,0.05285,-0.27969,-0.19946,-0.1839
-0.10378,0.99403,0.03337,0.30423,0.13341,-0.61485
-0.1063,0.99417,0.01766,0.36384,0.46576,-0.49947
-0.10775,0.99399,0.01903,0.46131,0.67435,-0.38849
-0.11754,0.99248,0.0339,0.54427,0.80592,-0.3859
-0.13598,0.98874,0.06233,0.50646,1.18552,-0.18005
-0.16155,0.98158,0.1019,-0.23469,0.88726,0.22816
-0.17927,0.97407,0.13792,-0.80042,0.38245,-0.04315
-0.18959,0.96855,0.16107,-0.88065,-0.02209,-0.28352
-0.19544,0.96623,0.16789,-0.90713,-0.41079,-0.25329
-0.18649,0.97003,0.15566,-0.60654,-0.23763,-0.25279
-0.16282,0.97749,0.13405,-0.21718,-0.05367,-0.26918
-0.13353,0.98419,0.11624,0.05191,0.0651,-0.21469
-0.10627,0.98866,0.10598,0.21147,0.10074,-0.14161
-0.08545,0.99139,0.0991,0.22522,0.10788,-0.12152
-0.07506,0.99301,0.09091,0.26923,-0.05242,-0.10293
-0.07359,0.9937,0.08443,0.21774,-0.33411,-0.06318
-0.07527,0.99354,0.08486,0.19972,-0.53528,0.00529
-0.07349,0.99314,0.09083,0.22982,-0.637,0.06893
-0.06611,0.99312,0.09654,0.25296,-0.48761,0.10532
-0.05787,0.99351,0.0978,0.09677,-0.23503,0.2097
-0.04968,0.99378,0.09956,-0.07039,-0.03292,0.25977
-0.04312,0.99394,0.10102,-0.14098,0.00614,0.1428
-0.04065,0.99465,0.09489,-0.11938,-0.03446,-0.01015
-0.04588,0.99531,0.08509,-0.03778,0.05696,-0.21395
-0.05615,0.99472,0.08573,0.05544,0.23437,-0.18932
-0.06993,0.99254,0.09975,0.14911,0.70536,-0.18975
-0.08595,0.98837,0.12535,-0.21378,0.94952,0.00742
-0.09835,0.98371,0.15042,-0.21823,0.41904,-0.44228
-0.10429,0.98239,0.15494,-0.15871,0.19354,-0.58398
-0.10016,0.98267,0.15589,-0.14815,0.13528,-0.66313
-0.09312,0.98071,0.17179,-0.36092,-0.08662,-0.37225
-0.08811,0.97762,0.19099,-0.43195,-0.12689,-0.3292
-0.08762,0.97788,0.18987,-0.49382,-0.16799,-0.25283
-0.09315,0.98158,0.16674,-0.08559,-0.08708,-0.01475
-0.10434,0.98512,0.13649,0.09448,-0.02598,-0.03197
-0.11438,0.98757,0.10767,0.24522,0.03008,-0.05325
-0.12125,0.98905,0.08401,0.34979,-0.00922,-0.07356
-0.12526,0.98967,0.06955,0.30649,-0.05683,-0.03256
-0.13153,0.98927,0.06345,0.27935,-0.1052,0.00927
-0.14275,0.98775,0.06283,0.0183,-0.28298,0.08495
-0.15702,0.98557,0.063,-0.0691,-0.2945,0.0615
-0.17062,0.98371,0.05642,-0.1447,-0.29682,0.02401
-0.17874,0.98303,0.04098,-0.23731,-0.24071,-0.16514
-0.17793,0.98365,0.02732,-0.23306,-0.19616,-0.11071
-0.17072,0.98495,0.02644,-0.2152,-0.14679,-0.01908
-0.16186,0.9862,0.03437,-0.05833,-0.06145,0.26267
-0.15598,0.98695,0.03973,-0.03894,-0.04611,0.25757
-0.1545,0.98733,0.03598,-0.01446,-0.04534,0.09216
-0.15558,0.98754,0.02335,0.02431,-0.07912,-0.02749
-0.1558,0.98775,0.00772,0.0305,-0.08971,-0.01442
-0.15323,0.98818,-0.00288,0.038,-0.00594,0.06662
-0.14891,0.98882,-0.00713,-0.03988,0.01556,0.15703
-0.1462,0.9892,-0.00997,-0.06239,0.00127,0.20087
-0.14779,0.98891,-0.01428,-0.14753,-0.0097,0.24141
-0.1532,0.98798,-0.02009,-0.31664,0.11021,0.11468
-0.16014,0.98675,-0.02582,-0.36916,0.21514,0.14557
-0.1679,0.98529,-0.03163,-0.41062,0.31459,-0.07812
-0.1769,0.98342,-0.0395,-0.45772,0.43245,-0.26055
-0.18918,0.98067,-0.04969,-0.43004,0.45698,-0.28045
-0.20717,0.97625,-0.06317,-0.3968,0.24514,-0.39885
-0.22885,0.97032,-0.07804,-0.23514,0.01929,-0.55555
-0.25061,0.96385,-0.09034,-0.02287,-0.21329,-0.6375
-0.26962,0.95829,-0.09469,0.0909,-0.33002,-0.53986
-0.28252,0.95535,-0.08648,0.13385,-0.12177,-0.34724
-0.2906,0.95442,-0.06791,0.19244,0.14506,-0.09446
-0.29735,0.95367,-0.04562,0.13385,0.30358,0.05946
-0.30112,0.95332,-0.02214,0.08892,0.29851,-0.04223
-0.30137,0.9535,-0.00095,0.02903,0.12472,-0.23033
-0.30288,0.95293,0.01261,-0.07627,0.00967,-0.32114
-0.30704,0.95154,0.0168,-0.27548,0.01106,-0.39214
-0.31364,0.94942,0.01477,-0.33741,0.00713,-0.38626
-0.31745,0.94809,0.01799,-0.16038,0.02168,-0.2214
-0.31809,0.9474,0.03493,0.09022,-0.00458,-0.07421
-0.31256,0.94803,0.05945,0.19506,-0.07219,0.02745
-0.29972,0.95084,0.07776,0.22309,-0.17789,0.04684
-0.28336,0.95528,0.0844,0.19492,-0.2362,0.02955
-0.26696,0.95994,0.08505,0.13499,-0.25042,0.0109
-0.255,0.96295,0.08765,-0.05777,-0.1923,-0.05711
-0.24939,0.96364,0.09583,-0.07951,-0.14809,-0.00715
-0.24794,0.96254,0.10967,-0.04643,-0.16366,-0.01441
-0.24756,0.96076,0.12503,-0.00401,-0.1845,-0.03416
-0.24672,0.95958,0.13529,0.17482,-0.30089,-0.10325
-0.24544,0.95936,0.13914,0.13454,-0.3217,-0.08987
-0.24392,0.95955,0.1405,0.06837,-0.33115,-0.08143
-0.24176,0.95989,0.14191,-0.07404,-0.29485,-0.10488
-0.23914,0.96046,0.14247,-0.05407,-0.30133,-0.11699
-0.23607,0.96129,0.14205,-0.02547,-0.3155,-0.12191
-0.23357,0.9619,0.14201,0.0617,-0.31702,-0.0294
-0.23347,0.96189,0.14225,0.07762,-0.27737,0.01238
-0.23693,0.96124,0.14092,0.09234,-0.22355,0.05736
-0.24387,0.96009,0.13689,0.03351,0.02281,0.09602
