gravity.x,gravity.y,gravity.z,userAcceleration.x,userAcceleration.y,userAcceleration.z
-0.2541,0.92543,-0.2811,0.4898,0.00734,0.77584
-0.23392,0.92949,-0.28517,0.45757,0.959,0.2811
-0.21423,0.93434,-0.28479,0.52545,0.69965,0.26239
-0.20653,0.94398,-0.25737,0.52454,0.58071,0.51012
-0.20627,0.95215,-0.2255,0.60781,0.29862,0.70792
-0.20996,0.95771,-0.19671,0.61112,0.20115,0.57093
-0.21471,0.96323,-0.16153,0.49406,0.13435,0.47853
-0.20617,0.97184,-0.11408,0.17988,0.17005,0.35936
-0.18211,0.98158,-0.05771,0.03042,0.10384,0.22306
-0.15389,0.98807,0.00492,-0.05554,-0.00519,0.08135
-0.12963,0.98933,0.06653,-0.27104,-0.19436,-0.11714
-0.11268,0.9868,0.11627,-0.2038,-0.42105,-0.20256
-0.102,0.98287,0.15348,-0.15774,-0.53124,-0.31031
-0.10403,0.97768,0.18249,0.02847,-0.20858,-0.65611
-0.11731,0.97265,0.20047,0.18224,0.26574,-0.34273
-0.12746,0.96774,0.21732,0.19238,0.27065,-0.35958
-0.13637,0.96217,0.23586,0.21625,0.12415,-0.20958
-0.14312,0.95615,0.25552,0.33832,0.22024,-0.32622
-0.14984,0.9497,0.27497,0.37503,0.29852,-0.44685
-0.15645,0.94735,0.27937,0.29297,0.20783,-0.53579
-0.16308,0.95087,0.26315,0.0681,0.31947,-0.61926
-0.16813,0.95503,0.24421,0.1492,0.5647,-0.57391
-0.18203,0.95994,0.21299,0.40774,0.79363,-0.67834
-0.20628,0.96674,0.15117,0.75539,0.99551,-0.64597
-0.23036,0.97123,0.06026,0.83113,0.8057,-0.94224
-0.25061,0.96707,-0.04427,0.65779,0.70544,1.11294
-0.26341,0.95809,-0.11254,0.88313,0.89225,1.28998
-0.26894,0.94915,-0.16364,0.8534,0.67707,1.32637
-0.27545,0.93548,-0.22135,0.67491,0.44849,1.27509
-0.2741,0.92097,-0.2769,0.78784,0.35079,0.79085
-0.26216,0.91844,-0.2962,0.83339,0.29631,0.62568
-0.23443,0.92521,-0.29837,1.35887,0.1984,-0.08957
-0.19498,0.92773,-0.31826,0.85373,0.22565,0.66521
-0.18041,0.92608,-0.3314,0.79955,0.19196,1.01942
-0.18243,0.92151,-0.34282,0.66357,0.00547,1.31085
-0.17928,0.91532,-0.36062,0.51556,0.0365,0.95245
-0.18681,0.91071,-0.36837,0.17909,-0.07913,0.97484
-0.20738,0.90792,-0.36424,0.08439,-0.22073,1.0714
-0.23083,0.90626,-0.35411,0.05278,-0.23502,1.08968
-0.24723,0.90777,-0.33887,-0.17419,-0.27904,0.97641
-0.25242,0.91396,-0.31774,-0.30378,-0.30736,0.79456
-0.25102,0.92325,-0.29086,-0.34835,-0.3683,0.66414
-0.24352,0.93457,-0.25937,-0.40707,-0.45674,0.43071
-0.23133,0.94672,-0.22405,-0.42713,-0.48348,0.28574
-0.21757,0.9584,-0.18472,-0.39088,-0.16936,-0.1287
-0.21141,0.96738,-0.13952,0.21398,0.35752,-0.61383
-0.20659,0.9727,-0.10572,0.34421,1.54995,-2.90234
-0.21323,0.96863,-0.12758,1.39912,0.78292,-1.67304
-0.19998,0.97133,-0.12855,1.44425,-0.5169,-0.33003
-0.17396,0.97969,-0.09971,0.90014,-0.19613,1.09124
-0.17817,0.98003,-0.08832,0.00631,0.86194,1.60788
-0.1996,0.97443,-0.10313,-0.91975,1.17268,-0.86684
-0.225,0.9661,-0.12652,-0.07225,-0.59805,1.10474
-0.23316,0.96757,-0.09718,0.21309,-0.57131,1.00744
-0.24175,0.96709,-0.07933,0.37415,-0.5461,0.82317
-0.24984,0.96642,-0.06001,0.89162,-0.14277,0.91766
-0.25243,0.96752,-0.01352,1.0521,0.4406,1.04551
-0.26192,0.96457,0.03157,1.06756,0.57037,0.92804
-0.2703,0.96082,0.06128,0.61604,0.17285,0.23934
-0.25449,0.96233,0.09566,0.31306,-0.18143,-0.09328
-0.21117,0.96574,0.15084,0.18895,-0.2069,-0.08803
-0.16022,0.96315,0.216,-0.09248,-0.13596,-0.03461
-0.12553,0.95322,0.27497,-0.34092,-0.00809,-0.42215
-0.10986,0.94199,0.31715,-0.38533,0.00485,-0.42241
-0.1028,0.93494,0.33958,-0.40684,0.0307,-0.17524
-0.09713,0.93017,0.35403,-0.37205,0.19661,-0.06006
-0.09963,0.92317,0.37125,-0.08755,0.12584,-0.30843
-0.10596,0.91646,0.38582,0.13013,0.18679,-0.29455
-0.10914,0.91251,0.39421,0.21038,0.14979,-0.31863
-0.10624,0.90976,0.40129,0.29608,0.16388,-0.44562
-0.09733,0.90399,0.41632,0.44276,0.32755,-0.64589
-0.08994,0.8936,0.43974,0.30587,0.36108,-0.8012
-0.08765,0.8932,0.44103,0.02466,0.26467,-0.68935
-0.09558,0.90262,0.41968,-0.07678,0.30011,-0.80223
-0.105,0.9137,0.39257,0.24684,0.51278,-0.99616
-0.11556,0.92954,0.35014,0.30074,0.61157,-0.95314
-0.1328,0.94948,0.28432,0.44083,0.81358,-0.70673
-0.1507,0.96538,0.2129,0.66883,0.51184,-0.18885
-0.16467,0.97769,0.13038,0.53713,0.42407,0.01823
-0.1738,0.98374,0.04506,0.30096,0.46677,0.53503
-0.17923,0.98338,-0.02867,0.09044,0.69994,0.87596
-0.17958,0.97905,-0.09589,0.00474,0.64033,0.97364
-0.16882,0.97157,-0.16597,0.23119,0.24593,0.27763
-0.14423,0.9654,-0.21724,0.27808,0.26945,0.00633
-0.1259,0.9682,-0.21618,0.76046,0.05638,-0.08381
-0.10377,0.96644,-0.23497,0.21763,-0.15094,0.37303
-0.0842,0.95977,-0.26784,0.11696,-0.23028,0.54433
-0.0709,0.95563,-0.2859,0.02118,-0.43866,0.64029
-0.06195,0.95418,-0.29274,0.04878,-0.48192,0.56433
-0.06205,0.95269,-0.29754,-0.05555,-0.70496,0.5072
-0.06667,0.95255,-0.29696,-0.18946,-0.76608,0.52906
-0.07252,0.95529,-0.28663,-0.24085,-0.77926,0.46467
-0.07903,0.95971,-0.26965,-0.13188,-0.80918,0.4893
-0.08328,0.96565,-0.2461,-0.10654,-0.80612,0.62243
-0.08188,0.97426,-0.21002,-0.13827,-0.69017,0.43953
-0.07959,0.98345,-0.16271,-0.08728,-0.32797,0.19815
-0.0779,0.99072,-0.11136,-0.13026,0.22202,-0.18898
-0.07467,0.99478,-0.06942,-0.40217,0.8323,-1.06606
-0.07291,0.99523,-0.06477,-0.16981,0.32988,-0.39373
-0.07171,0.99633,-0.04663,0.03962,0.0481,-0.22612
-0.07094,0.99734,-0.01666,0.12426,-0.22526,-0.21637
-0.066,0.99762,0.01953,0.09856,-0.27414,0.07425
-0.0523,0.99723,0.05269,0.08033,-0.34646,0.28508
-0.0356,0.9961,0.08063,-0.04,-0.23731,0.23219
-0.02432,0.99401,0.10644,-0.39518,0.68898,0.05323
-0.03455,0.98954,0.13998,-0.22029,0.41118,-0.98071
-0.04011,0.98484,0.16873,0.1608,-0.03905,-0.03697
-0.04636,0.98524,0.16472,0.47712,0.15633,-0.68912
-0.06161,0.98784,0.14272,0.46648,0.8694,-0.63739
-0.06326,0.98767,0.14313,0.58488,2.9718,-1.63724
-0.04524,0.98807,0.14717,-0.32929,-0.27713,0.42795
-0.02596,0.98702,0.15846,-0.32111,-0.71123,0.24879
-0.00514,0.98596,0.16687,-0.20726,-0.98996,0.22122
0.00202,0.98832,0.15232,-0.21713,-0.54479,0.35389
-0.01624,0.99287,0.118,-0.1388,-0.42105,0.38464
-0.03906,0.99576,0.08319,-0.04269,0.1958,0.28493
-0.0649,0.99552,0.06861,0.17842,0.91622,-2.71254
-0.07629,0.98854,0.13025,-0.00309,0.39884,-1.26831
-0.08538,0.98994,0.11274,-0.02544,-0.42718,-0.06362
-0.08745,0.99005,0.11017,0.11673,-0.25083,-1.2149
-0.08981,0.99228,0.08543,0.18632,-0.07871,-1.19686
-0.09666,0.99485,0.0301,0.04877,0.0448,-1.08189
-0.09979,0.99383,-0.04823,-0.16065,0.36537,-0.15183
-0.10713,0.98291,-0.14968,0.07576,0.23546,0.15488
-0.12398,0.96468,-0.23239,0.46333,-0.08541,0.90887
-0.15032,0.94425,-0.2929,0.90807,-0.24656,0.96483
-0.13207,0.92914,-0.34533,1.0051,0.00336,0.73954
-0.0576,0.92102,-0.38522,0.56551,0.7861,-0.23348
-0.01946,0.90736,-0.4199,-0.1699,0.69583,0.42132
0.01165,0.89598,-0.44393,-0.56606,-0.0042,0.46015
0.04202,0.89596,-0.44213,-0.41856,-0.39696,0.39321
0.05971,0.90502,-0.42115,-0.29727,-0.48145,0.37467
0.06467,0.92258,-0.38035,-0.06624,-0.50249,0.41993
0.05191,0.94395,-0.32598,-0.07824,-0.16068,0.36206
0.02297,0.96504,-0.26108,-0.1028,0.0374,0.15412
-0.01258,0.98273,-0.18458,-0.13674,0.34455,-0.21975
-0.03805,0.99472,-0.09529,0.14631,0.1733,-0.16811
-0.047,0.99886,-0.00762,0.15744,0.32049,-0.29924
-0.05751,0.99773,0.03484,0.08328,0.31271,-0.41738
-0.05871,0.99724,0.04542,0.17295,-0.07446,-1.48582
-0.04482,0.99748,0.05498,0.34492,-0.35911,-1.40639
-0.03187,0.99712,0.06871,0.2007,-1.07812,0.61792
-0.02792,0.99719,0.06949,0.06667,-0.95587,0.40407
-0.03332,0.99755,0.06149,-0.02109,-0.2863,-0.92147
-0.06137,0.99461,0.08352,-0.09805,4.20551,-1.6569
-0.08778,0.99116,0.09945,0.74372,0.6133,0.00136
-0.08557,0.99395,0.06885,0.28202,-0.1133,0.3741
-0.06786,0.99594,0.05905,0.08216,0.17797,0.29482
-0.04461,0.99601,0.07715,0.27371,0.64075,-0.31232
-0.0221,0.997,0.07403,0.08231,-0.13652,0.02417
-0.01811,0.99847,0.05217,-0.0689,-0.34782,-0.39917
-0.02806,0.99933,0.0232,-0.34041,-0.36315,-0.58738
-0.04444,0.999,0.00461,-0.51275,-0.38083,-0.13039
-0.0594,0.99823,-0.00089,-0.57885,-0.53071,-0.36579
-0.06675,0.99765,-0.01544,-0.39042,-0.40504,-0.94936
-0.06735,0.99701,-0.03766,-0.18332,-0.18897,-0.55506
-0.0574,0.99511,-0.08033,0.1099,0.41117,-0.72192
-0.04004,0.98857,-0.1453,0.3691,0.87215,-0.552
-0.03466,0.97469,-0.22083,0.70899,0.50054,0.57536
-0.04618,0.95565,-0.29083,1.05747,0.29799,1.12178
-0.03281,0.93673,-0.3485,0.61891,0.42635,0.54263
0.01409,0.92597,-0.37732,-0.22359,1.03729,-0.4201
0.05044,0.91706,-0.39554,-0.55693,0.97349,-0.08876
0.07265,0.91096,-0.40603,-0.31882,0.14505,0.19166
0.08296,0.91355,-0.39818,-0.23887,-0.53118,0.33746
0.08308,0.92486,-0.37111,-0.16629,-0.63304,0.37013
0.06922,0.94257,-0.32675,0.08474,-0.59275,0.47077
0.04721,0.95947,-0.27782,-0.00984,-0.13955,0.57377
0.03134,0.97351,-0.22646,-0.14661,-0.21355,0.47528
0.01952,0.98507,-0.17104,-0.33405,-0.40902,0.3126
0.01205,0.99384,-0.11011,-0.19647,-0.44872,0.19094
0.00477,0.99896,-0.04514,-0.06984,-0.49166,0.06661
-0.01302,0.99985,0.01113,0.0512,-0.50977,-0.20847
-0.03374,0.99757,0.06088,0.21953,-0.07954,-0.26498
-0.04389,0.99375,0.10259,0.26811,0.11404,-0.18965
-0.0384,0.99335,0.10844,0.28335,0.7618,-0.91853
-0.02701,0.99596,0.08552,-0.08246,-0.40179,-1.06797
-0.01174,0.99568,0.0921,-0.1095,-0.53576,-0.96252
0.0034,0.9924,0.12293,-0.35052,-0.45017,-0.58858
0.01711,0.98854,0.14996,-0.4719,0.97087,0.904
0.0138,0.98685,0.16098,-0.70837,1.72321,1.08207
-0.00587,0.98653,0.16342,-0.30644,-0.13608,0.16923
-0.01395,0.98662,0.16238,0.08374,0.139,-0.07101
-0.02311,0.98667,0.16106,0.24592,0.50537,-0.19016
-0.02969,0.98454,0.17257,1.15856,1.23405,-0.43771
-0.02294,0.98397,0.17682,0.61138,1.4405,-0.29844
-0.01621,0.98454,0.17436,0.05723,0.87727,-0.09471
-0.01008,0.98467,0.17411,-0.19725,-0.13474,0.24714
-0.00928,0.98585,0.16735,-0.27712,-0.25602,0.41897
-0.01332,0.98547,0.1693,-0.2829,-0.27848,0.47776
-0.01868,0.98129,0.19159,-0.0937,-0.09633,0.27808
-0.01858,0.97385,0.2264,0.09829,-0.08055,-0.10227
-0.0159,0.96549,0.25993,0.14894,-0.10091,-0.29563
-0.01148,0.9526,0.30398,0.07729,0.05248,-1.55678
-0.00342,0.93985,0.34153,0.07358,0.00349,-1.04778
-0.02199,0.94742,0.31923,0.168,-0.03091,-0.71789
-0.04319,0.95407,0.29643,0.45144,-0.27406,-0.84411
-0.05125,0.96194,0.26838,0.22418,-0.34056,-0.75808
-0.05475,0.97123,0.23174,0.02744,-0.50129,-0.1736
-0.05564,0.97789,0.20154,0.09382,-0.51596,0.03079
-0.05596,0.98329,0.17322,0.10308,-0.06167,-0.20996
-0.05649,0.98718,0.14921,0.07912,0.03752,-0.49881
-0.06279,0.99129,0.11574,0.20052,-0.0217,-0.46808
-0.07162,0.99544,0.0629,0.38685,0.14787,-0.71799
-0.07376,0.99725,-0.0071,0.39459,0.70037,-1.03641
-0.0649,0.99375,-0.0908,0.48502,1.16691,-0.33682
-0.06649,0.98126,-0.18085,0.5525,0.8003,0.60377
-0.07087,0.96414,-0.25573,0.6103,0.57065,1.43108
-0.04344,0.95002,-0.30913,0.08509,0.71586,0.43551
0.01192,0.94034,-0.34,-0.31266,1.30007,-0.52233
0.05387,0.92689,-0.37145,-0.51855,0.76492,0.18817
0.08094,0.91557,-0.39393,-0.73183,-0.1365,0.47123
0.1084,0.91119,-0.39746,-0.27882,-0.5974,0.33642
0.12444,0.91511,-0.38352,-0.14566,-0.59803,0.36005
0.12465,0.92517,-0.35849,-0.072,-0.64079,0.46706
0.11846,0.93773,-0.32654,-0.45028,-0.52112,0.45047
0.11254,0.95206,-0.28443,-0.59669,-0.62455,0.39374
0.10124,0.96755,-0.2315,-0.64219,-0.71956,0.3191
0.08187,0.98193,-0.17061,-0.40203,-0.80499,0.26114
0.0506,0.99329,-0.10393,-0.24341,-0.71076,0.30535
0.01296,0.9992,-0.03758,-0.03764,-0.31196,0.45184
-0.02643,0.99955,0.01359,0.28442,0.54384,-0.2231
-0.06049,0.99603,0.06523,0.47919,0.77553,-0.35081
-0.07482,0.98995,0.11991,0.59406,1.00089,-0.84902
-0.07137,0.99058,0.11681,0.13416,-0.35343,-1.75933
-0.06162,0.99039,0.12378,0.00182,-0.38194,-1.69648
-0.04383,0.98573,0.16246,-0.14669,0.23752,-0.05115
-0.02534,0.98236,0.18522,-0.22972,0.48291,0.80344
-0.02335,0.9819,0.18792,-0.26614,-0.33677,0.63142
-0.02683,0.98283,0.1825,-0.19164,-0.59096,0.2429
-0.02575,0.9841,0.17573,-0.02751,1.17019,-0.21111
-0.02587,0.98365,0.1782,1.11094,4.20303,-4.35505
-0.0095,0.99053,0.13692,0.18936,0.27979,0.42207
0.00094,0.99375,0.11161,-0.40331,-0.58432,0.54811
0.01774,0.99628,0.08426,-0.47754,-0.50588,0.6365
0.01976,0.99714,0.07291,-0.61557,-0.24859,0.37271
-0.00238,0.99699,0.07738,-0.46057,-0.10861,0.17517
-0.02647,0.99538,0.09222,-0.22803,-0.06276,0.07782
-0.0443,0.9918,0.11986,0.28282,0.29913,-0.24996
-0.05743,0.9844,0.16625,1.3937,1.03479,-0.97924
-0.07449,0.97814,0.1941,0.86112,0.3937,-0.39769
-0.07205,0.9771,0.20017,0.85164,-0.40282,-0.83274
-0.07675,0.97725,0.19769,0.1748,-0.1949,-1.74967
-0.07774,0.98264,0.16839,-0.08577,-0.00082,-1.7921
-0.07364,0.98961,0.12345,-0.38903,0.04627,-0.58676
-0.08301,0.99483,0.05841,-0.31679,-0.21237,-0.51314
-0.09459,0.99525,-0.02286,-0.35099,-0.23612,-0.42549
-0.10319,0.98816,-0.11345,0.40771,0.00195,0.19886
-0.1106,0.97661,-0.18435,0.96285,-0.08199,0.96632
-0.10638,0.96511,-0.23926,1.16687,-0.11385,1.27469
-0.05921,0.95412,-0.29349,0.66219,0.95549,-0.07544
0.00963,0.94366,-0.33076,0.24113,1.32135,-0.7465
0.03791,0.92605,-0.37548,-0.07011,0.46793,0.19494
0.06056,0.91081,-0.40834,-0.55291,0.3477,0.16361
0.07427,0.90372,-0.42162,-0.81378,0.01727,0.15624
0.08042,0.90427,-0.41931,-0.74795,-0.33773,0.39281
0.08526,0.91246,-0.40016,-0.51358,-0.46682,0.59404
0.07572,0.92735,-0.36645,-0.36571,-0.29266,0.59217
0.0451,0.94609,-0.32073,-0.27198,0.03877,0.46715
-0.0004,0.96316,-0.2689,-0.20237,-0.01219,0.24004
-0.0471,0.97652,-0.2102,0.04182,-0.17322,0.10228
-0.0874,0.98548,-0.14556,0.26707,-0.23303,0.07308
-0.11974,0.98943,-0.08172,0.47269,-0.19996,-0.20049
-0.14566,0.98916,-0.0183,0.63241,-0.04844,-0.84994
-0.1516,0.9877,0.03823,0.67435,0.05925,-0.94496
-0.13846,0.98779,0.07131,0.83832,0.03728,-1.30811
-0.11534,0.98865,0.09623,1.05125,-0.45534,-1.07702
-0.10272,0.98852,0.11073,0.38772,-1.20735,1.00331
-0.0976,0.99193,0.08089,-0.05377,-1.1177,1.13576
-0.10816,0.99267,0.0537,-0.40278,0.93239,0.92745
-0.1365,0.9881,0.07086,-0.86902,2.2426,-0.13007
-0.12636,0.98021,0.15233,-0.47652,1.52815,-0.88399
-0.1171,0.98083,0.1557,0.48386,2.19263,-1.69406
-0.1322,0.98293,0.12791,-0.25926,0.03798,0.36739
-0.13306,0.98435,0.1155,0.14371,-0.75638,0.25785
-0.13747,0.98486,0.10548,0.32224,-0.76131,0.11945
-0.14855,0.98391,0.09922,0.4174,-0.70331,-0.0096
-0.16166,0.97932,0.12162,0.63926,0.14902,-0.33992
-0.17062,0.96795,0.18423,1.32598,0.20104,-0.75352
-0.17145,0.9657,0.19498,0.85779,-0.14612,-0.4447
-0.17026,0.96765,0.18617,0.40483,-0.26878,-0.63714
-0.17065,0.97333,0.15327,-0.56514,0.01596,-2.50393
-0.17104,0.9776,0.12259,-0.51409,-0.0596,-1.23152
-0.18055,0.97945,0.08983,0.08108,-0.27193,0.1264
-0.1958,0.98028,0.02633,0.41052,-0.09695,-0.25404
-0.2083,0.97643,-0.05648,0.66396,0.14693,-0.3077
-0.2213,0.96758,-0.12165,1.53609,0.88853,0.59021
-0.21736,0.96216,-0.16431,1.20463,1.16091,1.13451
-0.16449,0.95917,-0.23005,0.64764,0.99069,0.92147
-0.09597,0.95771,-0.27125,-0.7427,1.28604,-0.88874
-0.05645,0.95121,-0.30331,-0.76285,1.13037,-0.40397
-0.03199,0.94186,-0.33446,-0.52772,0.48493,0.03064
-0.01629,0.93712,-0.34861,-0.28221,-0.41988,0.55361
-0.01562,0.93594,-0.35181,-0.16957,-0.59263,0.60266
-0.03233,0.93827,-0.34439,-0.03514,-0.65991,0.60879
-0.05143,0.94374,-0.32666,0.15972,-0.60598,0.60454
-0.05789,0.95235,-0.29943,0.08907,-0.58108,0.56042
-0.0596,0.96296,-0.26295,-0.0259,-0.70155,0.50175
-0.06372,0.97293,-0.22211,-0.2646,-1.0152,0.33711
-0.07405,0.98057,-0.1816,-0.46957,-1.11368,-0.07146
-0.0973,0.98593,-0.13589,-0.4355,-1.0056,-0.25823
-0.12935,0.98847,-0.07868,-0.13835,0.2919,-0.76459
-0.14621,0.98847,-0.0393,0.1627,1.60371,-2.1528
-0.15321,0.98525,-0.07619,0.15852,1.59468,-1.97004
-0.16214,0.97982,-0.11681,-0.42298,-0.08064,-0.31381
-0.16758,0.9746,-0.14856,-0.6548,-0.58403,-1.04369
-0.18221,0.96775,-0.17395,-2.17428,2.05072,0.21264
-0.20385,0.9619,-0.18219,0.20666,1.32434,1.60717
-0.18142,0.96216,-0.20328,1.99781,-0.08942,0.2761
-0.16514,0.96212,-0.21691,2.21641,0.10963,2.09104
-0.15873,0.96199,-0.22218,-0.93663,1.28981,0.15222
-0.17947,0.96266,-0.20264,0.12567,0.01219,0.48279
-0.18523,0.96618,-0.17938,0.22681,0.16596,0.44745
-0.17534,0.97487,-0.13737,0.37815,0.63102,0.2503
-0.16902,0.98139,-0.09111,0.64324,1.00758,-0.02042
-0.1638,0.98536,-0.04715,0.61467,0.60604,-0.11084
-0.15895,0.98727,-0.00411,0.31006,0.12566,0.05176
-0.14584,0.9885,0.03972,0.19389,-0.07658,0.12914
-0.12188,0.98852,0.08917,0.01655,-0.2476,0.11998
-0.08908,0.98476,0.14932,-0.15259,-0.27266,-0.06997
-0.05934,0.97434,0.21707,-0.26839,-0.26929,-0.08878
-0.04455,0.95843,0.2818,-0.2853,-0.39694,-0.18821
-0.04224,0.94032,0.33764,-0.28382,-0.42294,-0.39539
-0.04858,0.92079,0.38699,-0.24982,-0.26305,-0.80141
-0.05665,0.90772,0.41571,-0.10363,0.03396,-0.81373
-0.06003,0.90038,0.43091,0.03217,0.16756,-0.39656
-0.05618,0.89213,0.44825,0.05694,0.554,-0.5167
-0.04545,0.87969,0.47335,0.12727,0.68191,-0.79138
-0.04077,0.87016,0.49106,0.16301,0.31366,-0.9706
-0.0767,0.87702,0.47428,-0.07392,0.33687,-0.57811
-0.13213,0.88733,0.44179,0.00102,0.43317,-0.39537
-0.16569,0.89267,0.41913,0.23474,0.43501,-0.01884
-0.17263,0.89724,0.40637,0.61673,0.33155,-0.11212
-0.16341,0.90501,0.39272,0.74496,0.57439,-0.27433
-0.14443,0.90958,0.3896,1.20295,0.95908,-0.99175
-0.12705,0.9213,0.36748,0.68659,0.64643,-0.90654
-0.11218,0.94575,0.3049,0.41757,0.56407,-0.55803
-0.10518,0.96646,0.23425,0.22825,0.35097,0.07083
-0.09731,0.98192,0.16233,0.24326,0.38503,0.20785
-0.0856,0.99187,0.09404,0.32653,0.69237,0.65059
-0.07148,0.99691,0.03231,0.07868,0.37514,0.76214
-0.05358,0.99823,-0.02554,0.09371,0.29387,0.69093
-0.04053,0.99624,-0.07648,0.11388,0.25966,0.61966
-0.03134,0.99282,-0.11544,0.19546,0.07239,0.48565
-0.01945,0.99088,-0.13329,0.29015,-0.01078,0.56824
-0.00555,0.99113,-0.13273,0.41663,-0.11433,0.48194
0.02687,0.98848,-0.14889,0.83597,-0.10045,0.32635
0.06269,0.98243,-0.17575,0.60446,0.03345,0.51878
0.08181,0.97542,-0.20459,0.30018,0.02751,0.87622
0.08972,0.96786,-0.23491,0.12834,0.0224,0.88123
0.09422,0.96073,-0.26099,-0.05653,0.05868,0.74635
0.08837,0.95448,-0.28485,-0.24896,0.04136,0.82959
0.07593,0.94912,-0.30561,-0.53634,-0.08485,0.86322
0.06536,0.94432,-0.32246,-0.56761,-0.13173,0.80905
0.05725,0.94103,-0.33342,-0.57107,-0.15635,0.7616
0.05056,0.94008,-0.33716,-0.66669,-0.32917,0.63389
0.0481,0.94184,-0.33258,-0.73328,-0.48069,0.45298
0.05056,0.9468,-0.31781,-0.67039,-0.50689,0.43852
0.05774,0.95448,-0.29263,-0.59603,-0.3797,0.14767
0.06199,0.96263,-0.26361,-0.30469,0.20503,-0.23034
0.06972,0.96704,-0.24487,0.03272,0.94234,-1.2058
0.06859,0.95905,-0.2748,0.68898,0.96365,-2.32621
0.0916,0.95178,-0.29278,1.57231,-0.58604,-0.02395
0.13865,0.95366,-0.26703,1.44469,-0.99528,0.7971
0.16467,0.95667,-0.2401,0.30439,-0.82292,2.17231
0.15921,0.96602,-0.20358,-0.64991,0.68276,0.96664
0.09207,0.97375,-0.20817,-1.05716,2.37667,-3.59233
0.03234,0.97358,-0.22601,-0.31148,-0.22545,1.4892
0.01032,0.97267,-0.23192,-0.02337,-0.27014,0.93317
-0.00986,0.97508,-0.22161,0.24138,-0.46558,0.78548
-0.03071,0.98317,-0.18007,0.32424,-0.39838,0.99018
-0.0448,0.99006,-0.13327,0.54951,0.20459,0.83839
-0.05955,0.99233,-0.10829,0.477,0.3605,0.56425
-0.07065,0.99295,-0.09506,0.24988,0.25376,0.26653
-0.05894,0.99571,-0.07119,0.1482,0.03204,0.13013
-0.02646,0.99927,-0.02737,-0.01335,-0.14502,0.30497
0.01324,0.9997,0.02035,-0.13417,-0.29256,0.17965
0.04979,0.99656,0.06617,-0.30896,-0.1961,0.04867
0.07271,0.99047,0.1169,-0.54961,-0.04945,-0.1471
0.08195,0.98378,0.15952,-0.71745,0.05594,-0.15479
0.08061,0.98118,0.17543,-0.34766,0.00475,-0.16394
0.06883,0.9809,0.18186,-0.15556,0.03091,-0.18364
0.0555,0.98118,0.18491,0.03598,0.16135,-0.16402
0.04644,0.98089,0.18888,0.21277,0.12709,-0.26418
0.04477,0.97909,0.19841,0.27524,0.11948,-0.33932
0.04748,0.975,0.21701,0.45565,0.24484,-0.54001
0.04371,0.96978,0.23999,0.14024,0.16697,-0.37731
0.0402,0.96913,0.24321,0.06517,0.17155,-0.27063
0.03835,0.97306,0.22732,-0.08919,0.03502,-0.16871
0.03754,0.97651,0.21214,-0.16565,0.21967,-0.67325
0.03565,0.97848,0.20322,0.30069,0.45254,-0.55541
0.02422,0.98596,0.16517,0.50541,0.60195,-0.30923
0.00407,0.99455,0.10406,0.59923,0.68725,-0.31569
-0.00848,0.99933,0.03539,0.31665,0.38768,-0.36761
-0.02207,0.99874,-0.04501,0.11338,0.31923,0.10611
-0.04409,0.99016,-0.13275,0.17806,0.48127,0.58171
-0.06884,0.9737,-0.21715,0.31,0.59426,1.29477
-0.08124,0.95197,-0.29521,0.06523,0.56785,1.02452
-0.07211,0.92773,-0.36621,0.0705,0.62212,0.45246
-0.05449,0.90706,-0.41746,0.34236,0.36365,-0.10123
-0.05906,0.90267,-0.42625,0.64945,0.40116,0.39109
-0.05838,0.88605,-0.45988,0.40312,0.32981,0.79265
-0.05089,0.86493,-0.4993,0.15051,0.14879,0.87602
-0.04116,0.85086,-0.52377,-0.14719,-0.45389,0.94035
-0.04414,0.83862,-0.54291,-0.16401,-0.5605,0.85143
-0.05692,0.82855,-0.55702,-0.07917,-0.62821,0.79151
-0.07446,0.82412,-0.56149,-0.08211,-0.70684,0.80744
-0.08453,0.82667,-0.55629,-0.15213,-0.67044,0.75603
-0.08292,0.83617,-0.54216,-0.19112,-0.63828,0.70035
-0.0732,0.85081,-0.52034,-0.23025,-0.63348,0.62144
-0.06384,0.86858,-0.49141,-0.36253,-0.445,0.50911
-0.06233,0.88685,-0.45782,-0.39351,-0.03262,0.15068
-0.07536,0.90448,-0.4198,-0.12204,0.52843,-0.01767
-0.09442,0.91822,-0.38465,0.00319,0.6048,-0.07122
-0.09842,0.9255,-0.36572,-0.09552,0.20235,0.00525
-0.0859,0.92935,-0.35906,-0.0852,-0.25538,-0.04672
-0.06963,0.93509,-0.3475,-0.07303,-0.34883,0.05212
-0.0588,0.94307,-0.32734,-0.09723,-0.29572,0.18295
-0.04808,0.95274,-0.29993,-0.026,-0.18115,0.25338
-0.0356,0.96247,-0.26902,0.07894,-0.05277,0.21493
-0.02656,0.97081,-0.23836,0.25062,-0.02478,-0.22773
-0.02297,0.97805,-0.20706,0.42873,-0.16171,-0.53236
-0.02215,0.98387,-0.17747,0.30871,-0.23251,0.37651
-0.01699,0.98707,-0.15937,0.18893,0.59757,0.78639
-0.02109,0.98718,-0.15816,-0.03021,0.7645,0.61273
-0.03404,0.9874,-0.15453,-0.00169,-0.24733,0.17896
-0.0405,0.98903,-0.14203,-0.00613,0.11925,-0.08942
-0.0277,0.99191,-0.12383,0.55453,3.97657,-1.84502
0.02558,0.99409,-0.10547,-0.5186,-0.16447,0.88267
0.08649,0.99278,-0.08305,-0.56404,-0.561,0.5703
0.12673,0.98874,-0.07948,-0.41843,-0.84531,0.34831
0.14287,0.98396,-0.10677,-0.56935,-0.62039,0.61972
0.13353,0.97956,-0.15038,-0.60259,-0.50811,0.76748
0.11152,0.97687,-0.18242,-0.5177,-0.21236,0.70004
0.08761,0.97766,-0.19104,-0.24667,0.62628,-0.72835
0.05421,0.985,-0.16376,0.497,0.60754,-2.07008
0.028,0.99316,-0.11328,0.12133,-0.00049,-0.17287
0.04234,0.99079,-0.12861,-0.08313,-0.40001,-0.51898
0.05786,0.9904,-0.12554,-0.30501,-0.04604,-1.16563
0.04778,0.98418,-0.17056,-0.11225,-0.03332,-0.5636
0.03742,0.97104,-0.23593,-0.06735,-0.02932,-0.49121
0.04069,0.94935,-0.31156,0.04842,0.11657,0.23461
0.03424,0.91366,-0.40502,0.46378,-0.00071,0.94631
0.00126,0.87117,-0.49097,0.8093,0.00937,1.34694
-0.00398,0.83618,-0.54843,0.76422,0.45448,0.87908
0.06312,0.81213,-0.58005,0.16961,0.93432,0.29344
0.10672,0.78795,-0.60642,-0.16972,0.65887,0.6863
0.12415,0.76347,-0.63379,-0.42159,0.48374,0.83069
0.15959,0.75354,-0.63774,-0.77439,0.23634,0.3852
0.18971,0.75859,-0.62334,-0.79797,-0.15219,0.46953
0.21257,0.77922,-0.58959,-0.7282,-0.29108,0.44202
0.21787,0.81136,-0.54242,-0.37682,-0.37519,0.59183
0.1978,0.84968,-0.48879,-0.28604,-0.1349,0.419
0.16046,0.88848,-0.42993,-0.22574,0.20899,0.08783
0.11219,0.92271,-0.36879,-0.02531,0.18472,0.1869
0.06711,0.95128,-0.30093,0.18704,-0.03827,0.453
0.04204,0.96935,-0.24203,0.22908,0.09069,0.2002
0.02948,0.97822,-0.20545,0.05757,0.21001,-0.3948
0.02265,0.98576,-0.16658,0.14072,0.0578,-0.47996
0.02426,0.99023,-0.13731,0.02585,-0.21917,-1.23945
0.03756,0.98978,-0.13752,-0.18908,-0.95026,-0.24674
0.0301,0.99213,-0.12147,0.07322,-1.08154,0.55384
0.01316,0.99473,-0.10159,0.525,-0.63713,0.90111
-0.00317,0.9957,-0.0925,0.20817,1.51684,0.39847
-0.01304,0.99664,-0.08086,0.34986,1.29636,-1.78964
-0.00443,0.99756,-0.06966,-0.26959,0.74343,0.67422
0.00837,0.99631,-0.08535,-0.28517,1.55906,-0.09292
0.01634,0.99584,-0.08954,0.11814,0.70409,-0.57427
0.03553,0.99343,-0.10874,-0.28263,-0.45003,0.70528
0.05663,0.99048,-0.12543,-0.15015,-0.74814,0.47765
0.07102,0.98781,-0.13848,-0.28255,-0.09415,0.78158
0.06522,0.98691,-0.14746,-0.35024,0.00253,0.7793
0.04779,0.98595,-0.16,-0.31567,-0.05938,0.53409
0.03098,0.98633,-0.16181,-0.77457,0.46531,-2.83532
0.01796,0.98891,-0.14736,-0.50322,0.11677,-1.38897
0.01713,0.98864,-0.14932,-0.17359,-0.43526,0.24253
0.0243,0.98751,-0.15563,0.139,-0.11653,-1.14447
0.03766,0.9805,-0.19288,0.10301,-0.13246,-0.87415
0.05197,0.96941,-0.23985,0.21866,0.12484,-0.5101
0.0618,0.94716,-0.31473,0.68179,0.71695,0.3688
0.06777,0.91635,-0.3946,1.03129,0.48731,0.96289
0.04885,0.87654,-0.47883,1.14196,0.49379,1.52075
0.04455,0.83749,-0.54463,0.95604,0.66265,1.41069
0.11567,0.8091,-0.57618,0.3291,0.9435,0.03319
0.18096,0.78585,-0.59134,-0.35301,0.59475,0.42084
0.20481,0.75856,-0.61858,-0.67719,0.0295,0.64163
0.217,0.74057,-0.63598,-0.85354,-0.10643,0.66886
0.23806,0.73721,-0.63233,-1.00099,-0.25334,0.55303
0.25433,0.75158,-0.60864,-0.62541,-0.08369,0.46571
0.24856,0.78276,-0.57052,-0.38333,0.09048,0.44173
0.22425,0.82099,-0.52505,-0.33848,0.44518,0.39366
0.18206,0.86032,-0.47613,-0.31966,0.18161,0.32269
0.13026,0.89581,-0.4249,-0.26742,0.03515,0.23643
0.08818,0.92445,-0.37097,-0.2567,-0.27517,0.2927
0.06467,0.94865,-0.30965,-0.15389,-0.398,0.24579
0.05235,0.96748,-0.24745,-0.18065,-0.27215,0.0961
0.03026,0.97995,-0.19691,-0.05648,0.32597,0.13029
0.00384,0.98781,-0.15557,0.15758,0.38284,0.04511
-0.01724,0.99321,-0.11498,0.28181,0.33278,-0.16464
-0.01438,0.99431,-0.10546,0.27581,-0.28925,-0.84011
0.00904,0.99365,-0.11208,0.02799,-0.72714,-0.4698
0.03581,0.99296,-0.11286,-0.17987,-1.07247,-1.1293
0.05531,0.99197,-0.1137,-0.1627,-1.22753,0.02876
0.06181,0.99071,-0.12109,-0.27074,-0.95476,1.34393
0.05979,0.98967,-0.13027,-0.28659,0.91556,0.57216
0.03402,0.99191,-0.12229,-0.31554,2.25527,0.66185
0.00329,0.99324,-0.11597,0.03489,1.96322,0.33639
-0.01213,0.99613,-0.08702,0.97601,0.96719,-1.61874
0.02072,0.99555,-0.09193,-0.54038,1.05554,0.57064
0.06334,0.99228,-0.10659,-0.48047,-0.68417,0.36501
0.09023,0.98951,-0.11278,-0.21172,-0.8753,0.15099
0.09859,0.9865,-0.13069,-0.15343,-0.32105,0.35964
0.07556,0.98553,-0.15172,-0.19523,0.25671,-0.65132
0.03322,0.98764,-0.15315,0.25502,0.74321,-1.30989
0.03043,0.98945,-0.14164,0.25339,0.11082,-0.13736
0.04194,0.98872,-0.14376,-0.29508,-0.03056,-0.74455
0.03843,0.98405,-0.17363,-0.44515,-0.01964,-0.81433
0.02829,0.97159,-0.23495,-0.13585,0.00978,-0.45731
0.02751,0.95026,-0.31023,0.18509,0.45863,0.01281
0.03449,0.91801,-0.39505,0.45411,0.49729,0.4888
0.01471,0.87783,-0.47874,0.94884,0.2602,1.40815
-0.00863,0.83617,-0.5484,0.84251,0.28704,1.03654
0.04301,0.80204,-0.59572,0.34571,0.51179,0.15872
0.11112,0.77629,-0.6205,-0.31626,1.20791,-0.21282
0.13836,0.74852,-0.64852,-0.51197,0.27666,0.59794
0.16578,0.73285,-0.65988,-0.52452,0.20039,0.57321
0.19512,0.73441,-0.65004,-0.64489,-0.22793,0.44353
0.2189,0.74849,-0.62597,-0.59627,-0.37111,0.51481
0.22137,0.77216,-0.59561,-0.5052,-0.32698,0.5413
0.20331,0.80278,-0.56054,-0.47778,0.15257,0.5005
0.16961,0.84004,-0.51533,-0.48483,0.13015,0.44407
0.1286,0.87889,-0.45935,-0.40762,0.23634,0.28752
0.0852,0.91273,-0.39957,-0.23042,0.14621,0.16536
0.04862,0.93879,-0.34102,-0.06713,-0.10691,0.16228
0.02315,0.95945,-0.28093,0.05105,-0.18195,0.08763
-0.00087,0.97469,-0.22353,0.17742,0.03092,0.13359
-0.02406,0.98443,-0.17409,0.27319,-0.11929,0.2901
-0.03565,0.98923,-0.14195,0.25025,-0.27484,0.22155
-0.03522,0.99175,-0.1232,0.23731,-0.70289,-0.69038
-0.00974,0.99015,-0.13963,0.41365,-0.77141,-1.69522
0.02276,0.98826,-0.15105,0.46896,-0.90859,-2.27531
0.0251,0.99261,-0.11867,0.02511,-0.54122,1.48276
0.01488,0.99337,-0.11395,-0.56396,1.62615,1.20823
0.00485,0.99093,-0.13425,-0.96095,3.17348,0.46361
-0.01734,0.99352,-0.11229,0.36509,-0.68016,0.30684
-0.0269,0.99244,-0.1197,0.71223,1.22625,-1.30159
-0.02658,0.99176,-0.12526,0.53061,3.37196,-1.4441
0.00774,0.99368,-0.11194,0.06416,-0.4681,0.72931
0.04718,0.99228,-0.1146,0.21727,-0.77341,0.1068
0.06631,0.98788,-0.14033,0.19488,-0.64269,-0.09889
0.0577,0.98228,-0.1783,-0.42686,-0.28091,-0.58486
0.03564,0.98284,-0.18097,-0.43817,-0.23746,-0.20991
0.02439,0.98272,-0.18345,-0.33148,-0.00521,-0.20055
0.03361,0.97758,-0.20785,-0.16023,0.03532,-0.95893
0.04015,0.97042,-0.23803,-0.19275,-0.05917,-0.21014
0.03546,0.95563,-0.29242,-0.21183,0.16817,0.00547
0.0347,0.93228,-0.36005,0.30378,0.64101,0.24378
0.02162,0.90238,-0.4304,0.84703,0.49191,0.92611
0.00988,0.87071,-0.49169,0.80747,0.38056,1.16785
0.02488,0.84307,-0.53722,0.34327,0.28175,0.92518
0.06052,0.82474,-0.56226,-0.50859,0.5115,0.15017
0.09144,0.8107,-0.57827,-0.92952,1.03096,0.17472
0.12115,0.80055,-0.58689,-0.67669,0.37586,0.15479
0.14123,0.79971,-0.58354,-0.45766,-0.28042,0.52857
0.15787,0.81001,-0.56476,-0.411,-0.37139,0.59141
0.15715,0.82977,-0.53552,-0.31943,-0.25917,0.70121
0.13586,0.8542,-0.50188,-0.17502,0.0364,0.67718
0.10343,0.87841,-0.46658,-0.19143,-0.03852,0.68562
0.07912,0.90314,-0.42199,-0.17434,-0.09781,0.46782
0.05789,0.92681,-0.37103,-0.01652,-0.00477,0.37994
0.03949,0.95106,-0.30645,0.07292,0.01253,0.16052
0.01958,0.97191,-0.23452,0.14479,-0.07585,-0.18169
-0.00111,0.98606,-0.16637,0.07209,-0.00456,-0.37522
-0.01511,0.99394,-0.1088,0.47507,-0.17044,-0.86488
-0.01367,0.99508,-0.09809,0.5871,-0.70055,-1.03688
0.00022,0.99238,-0.12315,0.43539,-1.00122,-1.20613
0.00764,0.99134,-0.13103,-0.04055,-1.4828,-0.40434
-0.00145,0.99514,-0.09836,0.0065,-0.86785,1.1628
-0.01184,0.99495,-0.09956,-0.23345,-0.11579,0.85055
-0.02983,0.99344,-0.11037,-0.88658,3.11539,0.19789
-0.05949,0.9952,-0.07769,0.76118,0.54501,-1.62559
-0.06825,0.9943,-0.08178,0.36398,1.71488,-1.0512
-0.06153,0.99208,-0.10948,-0.3242,1.5445,0.10118
-0.04059,0.99247,-0.11554,-0.23518,-0.5932,0.47745
-0.01075,0.99243,-0.1223,0.05801,-0.66476,0.21898
-0.00162,0.99298,-0.11822,0.16397,-0.51106,0.17023
-0.01619,0.9931,-0.11606,0.59427,0.14671,-0.56328
-0.04556,0.99286,-0.11015,0.59183,0.40489,-0.20605
-0.04941,0.99339,-0.10357,0.1895,0.03342,-0.73293
-0.0481,0.99184,-0.11797,-0.47833,-0.23585,-1.03097
-0.06405,0.98548,-0.1572,-0.41837,-0.11779,-0.739
-0.10392,0.97054,-0.21733,-0.3539,0.12878,-0.31504
-0.15303,0.9457,-0.28676,0.20253,0.80554,0.44935
-0.19959,0.91432,-0.35238,0.86408,0.51297,0.82806
-0.23406,0.88212,-0.40874,0.88703,0.58697,0.74761
-0.23599,0.86374,-0.44525,0.23979,1.16737,-0.40967
-0.19443,0.84874,-0.49176,-0.11142,1.09914,-0.23981
-0.16688,0.83361,-0.52653,-0.54539,0.50739,0.42977
-0.16163,0.8168,-0.55381,-0.58709,0.06058,0.61899
-0.15441,0.80823,-0.56825,-0.22312,-0.14391,0.50995
-0.15575,0.80632,-0.57061,0.07877,-0.33876,0.60033
-0.16799,0.8091,-0.56314,0.26506,-0.49216,0.75913
-0.18141,0.81848,-0.54514,0.18188,-0.47176,0.82376
-0.19053,0.8332,-0.51911,0.08128,-0.52828,0.81197
-0.19582,0.85096,-0.48736,-0.03982,-0.71616,0.60621
-0.20209,0.86953,-0.45064,0.02156,-0.6548,0.34038
-0.20638,0.88788,-0.41119,-0.01332,-0.62701,0.17387
-0.21219,0.90633,-0.36543,-0.08454,-0.25708,-0.13961
-0.23244,0.92282,-0.30718,-0.20931,0.34679,-1.09032
-0.25609,0.9307,-0.26115,0.20412,0.93348,-1.17371
-0.267,0.9269,-0.26372,-0.09027,0.50969,-1.1472
-0.27779,0.91807,-0.28279,-0.05162,-0.0718,-0.38097
-0.27934,0.90892,-0.30956,0.01864,-0.21258,-0.35899
-0.27371,0.90086,-0.33693,-0.15434,-0.25709,-1.04251
-0.28449,0.9011,-0.32722,0.42802,0.95739,3.61686
-0.3015,0.90221,-0.30838,0.68264,-0.21744,2.05787
-0.28648,0.90876,-0.30345,0.39979,-0.10853,0.49014
-0.25779,0.91299,-0.31622,0.15566,2.04621,0.73684
-0.24782,0.90557,-0.34427,0.12154,1.09304,0.34619
-0.2552,0.90684,-0.33543,0.49022,-0.02735,0.79029
-0.24997,0.91514,-0.31628,0.69728,0.28878,0.94917
-0.24385,0.92325,-0.29686,0.76883,0.50301,0.87273
-0.23829,0.93358,-0.26763,0.65124,0.5901,0.71717
-0.23288,0.94522,-0.22874,0.51341,0.48206,0.53352
-0.21969,0.95825,-0.183,0.15127,0.30212,0.11667
-0.19592,0.974,-0.11366,-0.12224,0.21234,0.05717
-0.17305,0.98437,-0.03253,-0.32361,0.03043,-0.23908
-0.16073,0.98634,0.03591,-0.35726,-0.29238,-0.03436
-0.14982,0.98512,0.08406,-0.34708,-0.61655,-0.15553
-0.12625,0.98425,0.12369,-0.1001,-0.6054,-0.24033
-0.12077,0.97951,0.16108,0.00472,-0.3521,-0.30794
-0.12976,0.97414,0.18493,0.09009,0.04785,-0.19022
-0.14111,0.97128,0.19154,0.0896,0.28719,-0.19415
-0.1504,0.96932,0.19437,0.20065,0.19291,-0.43703
-0.15286,0.96557,0.21044,0.59706,0.13495,-1.26168
-0.14226,0.95026,0.27703,0.81723,0.33924,-1.34118
-0.12235,0.93882,0.32191,0.09202,0.57072,-0.42207
-0.12111,0.95018,0.28717,-0.25067,0.43016,-0.443
-0.13881,0.96404,0.2266,-0.24034,0.30385,-0.78466
-0.16345,0.97336,0.16076,0.32664,0.63098,-0.74083
-0.19426,0.97629,0.09543,0.57529,0.99042,-0.4256
-0.23548,0.97167,0.01963,0.80421,1.08054,0.10385
-0.26896,0.9596,-0.08253,0.97508,1.09875,0.50758
-0.26918,0.94639,-0.17852,1.07915,1.18083,1.06604
-0.25728,0.93299,-0.25163,0.80717,0.64632,1.08858
-0.25019,0.91717,-0.31015,0.80009,0.66214,1.14709
-0.23868,0.9128,-0.33137,0.89632,0.27258,1.04477
-0.22408,0.91774,-0.32792,1.21337,0.27466,0.41663
-0.1729,0.92501,-0.33831,0.93259,0.2796,0.31594
-0.13017,0.93095,-0.34113,0.49172,0.14012,0.59127
-0.13658,0.92901,-0.34392,0.21727,-0.04246,1.33451
-0.1588,0.92195,-0.35324,0.19533,-0.13364,1.14682
-0.17885,0.91586,-0.35944,0.08449,-0.31512,0.79275
-0.19731,0.9148,-0.35242,-0.07726,-0.4896,0.81983
-0.21738,0.91585,-0.33758,-0.08448,-0.49078,0.81658
-0.23931,0.91709,-0.31885,0.05383,-0.32274,0.84595
-0.25689,0.91996,-0.2961,0.07305,-0.22014,0.83211
-0.26609,0.92485,-0.27174,0.00934,-0.19776,0.77063
-0.26719,0.93126,-0.24768,-0.10244,-0.26023,0.65717
-0.26097,0.93905,-0.22374,-0.34862,-0.35512,0.3282
-0.24724,0.94907,-0.19524,-0.35824,-0.24111,0.25812
-0.23147,0.95915,-0.16262,-0.37859,-0.09721,-0.09875
-0.21825,0.9666,-0.1343,-0.03881,0.83291,-1.35032
-0.21015,0.96919,-0.12843,0.32668,1.13048,-1.96143
-0.20512,0.96643,-0.15469,1.18263,0.1201,-1.13446
-0.19313,0.96743,-0.16361,1.29096,-0.69221,-0.29114
-0.17271,0.97394,-0.14694,1.25239,-0.82091,0.17834
-0.16029,0.97844,-0.13019,0.36193,-0.27838,1.41604
-0.14658,0.9832,-0.10867,-0.28454,0.49522,1.20968
-0.15049,0.98562,-0.07671,-0.55441,0.76366,0.66555
-0.17791,0.98252,-0.05459,-0.83504,1.54114,-1.72659
-0.21164,0.97545,-0.06077,-0.16608,-0.35562,1.14399
-0.23034,0.97165,-0.0532,0.0332,-0.45411,1.05009
-0.2406,0.96934,-0.04968,0.34688,-0.75606,0.73158
-0.24416,0.96944,-0.02361,0.51557,-0.65199,0.82284
-0.241,0.9701,0.02822,0.66109,-0.41858,0.80209
-0.23498,0.96869,0.08009,0.79968,0.4659,0.72412
-0.24355,0.9634,0.11193,0.50728,0.58351,0.30268
-0.24932,0.95869,0.13686,0.45885,0.5317,0.08258
-0.23029,0.95812,0.17014,0.3674,-0.01923,-0.484
-0.19436,0.95405,0.22801,0.05565,-0.16424,-0.34262
-0.16459,0.94322,0.28848,-0.02257,-0.21534,-0.25817
-0.15388,0.93756,0.31188,-0.15083,-0.14855,-0.51077
-0.1463,0.93834,0.31319,-0.25288,0.19116,-0.41171
-0.13809,0.94152,0.30733,-0.25543,0.28799,-0.21358
-0.14135,0.94191,0.30464,-0.10198,0.17226,-0.17172
-0.15077,0.93961,0.30722,0.12229,0.06108,-0.20022
-0.15447,0.93787,0.31068,0.27689,-0.03679,-0.18542
-0.15423,0.93672,0.31423,0.40207,-0.05265,-0.15543
-0.15005,0.93569,0.31928,0.48788,-0.01211,-0.17719
-0.14354,0.93319,0.32943,0.52412,0.00453,-0.22844
-0.13425,0.92767,0.3484,0.49868,0.1357,-0.24685
-0.12384,0.91902,0.37422,0.29115,0.22267,-0.24045
-0.11102,0.90865,0.40249,0.20653,0.20325,-0.26777
-0.10382,0.89807,0.4274,0.08302,0.13822,-0.25998
-0.10767,0.89034,0.44235,-0.14712,-0.02312,-0.51616
-0.11775,0.88572,0.44901,-0.28062,0.03846,-0.71893
-0.12197,0.8867,0.44594,-0.06262,0.34082,-0.31804
-0.12781,0.8956,0.42609,0.29767,0.53382,-0.1694
-0.13489,0.90944,0.39332,0.45726,0.88492,-0.31212
-0.12847,0.92552,0.35622,0.64313,0.80071,-0.73036
-0.11643,0.94186,0.31515,-0.07075,0.23686,-1.14503
-0.11354,0.96355,0.24221,-0.0671,0.12129,-0.7558
-0.12121,0.9785,0.16682,0.22405,0.25925,0.19096
-0.13579,0.98634,0.09315,0.51151,0.48673,0.67501
-0.14129,0.98967,0.0238,0.51628,0.52954,0.7459
-0.14112,0.98925,-0.03808,0.42326,0.42551,0.64553
-0.13529,0.98655,-0.09165,0.75716,0.19823,0.06958
-0.11689,0.98565,-0.12169,0.83367,0.17316,-0.15886
-0.08469,0.98671,-0.1386,0.42156,0.25135,0.14244
-0.05208,0.98453,-0.16724,0.26671,0.24832,0.30048
-0.03454,0.97869,-0.2024,-0.02842,0.07382,0.46071
-0.02973,0.97029,-0.24009,-0.32148,-0.27798,0.47313
-0.02114,0.96074,-0.27661,-0.29251,-0.3557,0.30462
-0.01308,0.95347,-0.30118,-0.0261,-0.41853,0.26481
-0.0063,0.94986,-0.3126,0.03909,-0.30003,0.37313
-0.00237,0.9493,-0.31436,-0.03108,-0.29987,0.42734
-0.00436,0.95019,-0.31162,-0.03621,-0.32405,0.43976
-0.01222,0.95154,-0.30727,-0.19861,-0.42215,0.33568
-0.02414,0.95352,-0.30033,-0.26359,-0.44437,0.34733
-0.03608,0.95684,-0.28835,-0.30161,-0.46574,0.33592
-0.04367,0.96222,-0.26872,-0.2408,-0.40981,0.22906
-0.04485,0.96963,-0.2404,-0.19358,-0.21463,0.08517
-0.0453,0.97802,-0.20351,-0.16088,-0.124,-0.01489
-0.04549,0.98548,-0.16352,0.18178,-0.02235,-0.20478
-0.03775,0.99023,-0.13415,0.42359,-0.17368,-0.37262
-0.02817,0.9924,-0.1197,0.48473,-0.21477,-0.32177
-0.02748,0.99437,-0.10225,0.5824,-0.37783,-0.07721
-0.03235,0.99649,-0.07716,0.46761,-0.36306,0.03056
-0.03146,0.99807,-0.05343,0.39013,-0.27405,-0.00535
-0.02628,0.99901,-0.03579,0.26583,-0.04947,-0.12798
-0.01766,0.99966,-0.01861,0.08672,-0.04469,-0.31649
-0.00655,0.99996,0.00479,-0.06096,0.00413,-0.4429
0.00226,0.99951,0.03077,-0.29241,0.10104,-0.59876
0.00127,0.99866,0.05147,-0.27418,0.05633,-0.2298
-0.00289,0.99691,0.07838,-0.28777,0.98316,0.51135
-0.01277,0.99371,0.11113,-0.3276,0.29246,0.59465
-0.01405,0.99169,0.1278,-0.10776,0.01565,0.33243
-0.0179,0.99192,0.12548,0.06716,-0.26628,0.11523
-0.02555,0.99247,0.11972,0.18404,1.03143,0.11258
-0.03449,0.99125,0.12735,1.31726,2.56384,-1.67422
-0.02969,0.99175,0.12465,-0.07435,0.49666,0.148
-0.02107,0.99172,0.12657,-0.01919,-0.24862,0.31223
-0.01488,0.99362,0.11171,-0.00618,-0.388,0.36699
-0.0126,0.9955,0.09377,-0.17133,-0.41753,0.65693
-0.01494,0.99485,0.1002,-0.25924,-0.16434,0.74205
-0.01276,0.99117,0.13192,-0.07852,0.04152,0.0088
-0.01093,0.98538,0.16995,-0.03599,0.03404,-0.14204
-0.00854,0.97817,0.20758,0.0965,-0.03983,-0.6359
0.0045,0.96593,0.2587,0.49541,-0.01778,-0.97061
0.03015,0.96018,0.2777,0.39461,-0.04786,-0.73377
0.02591,0.965,0.26092,-0.00579,-0.26386,-0.96968
0.01688,0.97053,0.24036,-0.03184,-0.32494,-0.83291
0.01312,0.97784,0.2089,-0.06926,-0.57494,-0.06411
0.00529,0.98358,0.18031,-0.21275,-0.17823,-0.39393
-0.0023,0.98708,0.16016,-0.25443,-0.14931,-0.23087
-0.01363,0.98855,0.15023,-0.24679,-0.15664,-0.22388
-0.02813,0.99014,0.13716,0.09814,-0.17891,-0.20942
-0.03922,0.9921,0.11906,0.43201,0.11654,-0.29339
-0.04581,0.99394,0.0998,0.58911,0.12073,-0.35348
-0.04312,0.9965,0.07144,0.46135,0.12908,-0.97447
-0.04234,0.99883,0.02306,0.22076,0.39988,-0.89372
-0.04627,0.99781,-0.04712,0.21268,0.71456,-0.69871
-0.04692,0.99048,-0.12935,0.84966,1.07049,0.13667
-0.04689,0.97677,-0.20908,0.95521,0.89524,0.43814
-0.03868,0.96198,-0.27034,0.83581,0.52253,0.98431
0.00517,0.95165,-0.30713,0.3833,1.1752,0.47264
0.07992,0.94135,-0.32782,-0.28741,0.9709,-0.43506
0.13535,0.92708,-0.34955,-0.74468,0.58055,-0.08684
0.16414,0.91197,-0.37596,-1.31723,-0.23753,0.07837
0.18732,0.90381,-0.38474,-0.72444,-0.41099,0.3298
0.18301,0.9049,-0.38425,-0.204,-0.34533,0.43477
0.16012,0.91162,-0.37854,-0.06611,-0.34587,0.5367
0.13583,0.92201,-0.36255,-0.33018,-0.49166,0.52803
0.12132,0.93517,-0.33274,-0.48044,-0.55735,0.54925
0.1114,0.94922,-0.29422,-0.55958,-0.60684,0.45375
0.10061,0.96298,-0.25008,-0.55105,-0.67297,0.32219
0.08839,0.97607,-0.19866,-0.28394,-0.74082,0.31185
0.0714,0.98684,-0.14505,-0.28528,-0.61708,-0.08854
0.04061,0.99287,-0.11199,-0.04152,-0.38575,-0.41684
0.00055,0.99724,-0.07412,0.35113,0.29315,-0.58286
-0.02502,0.99851,-0.04836,0.55955,1.48965,-1.18745
-0.03623,0.99849,-0.04102,0.21149,0.34842,-0.77146
-0.04825,0.99882,-0.00026,0.30867,-0.54382,0.0304
-0.04838,0.99755,0.05022,0.24107,-0.88405,0.39566
-0.04351,0.99509,0.08882,-0.02202,0.21397,0.48847
-0.03317,0.99331,0.11048,-0.23201,1.34424,0.51185
-0.03457,0.99119,0.12773,0.25041,0.12877,-1.36444
-0.03061,0.98543,0.16726,0.44527,-0.22404,-0.99619
-0.01236,0.98702,0.16007,0.21293,0.38099,0.16629
-0.02872,0.98925,0.14333,-0.03605,1.4011,-0.00116
-0.03957,0.99031,0.13301,0.5719,1.20721,-1.43027
-0.03808,0.99207,0.11971,-0.08321,-0.0538,0.39604
-0.03491,0.99353,0.108,-0.00887,-0.14065,0.32109
-0.03349,0.99517,0.09217,-0.16298,-0.18319,0.66022
-0.03635,0.99548,0.08759,-0.13621,-0.1065,0.62365
-0.04077,0.99382,0.10314,-0.01223,-0.00734,0.09959
-0.04111,0.99069,0.12966,0.23926,-0.12287,-0.32682
-0.0389,0.98587,0.16288,0.53152,-0.05275,-1.04232
-0.03344,0.97546,0.21755,0.35101,-0.14337,-1.16654
-0.0327,0.97525,0.21863,0.13173,-0.28706,-1.04433
-0.03193,0.98226,0.18469,-0.2571,-0.43473,-0.56636
-0.03094,0.9839,0.17592,-0.46347,-0.27356,-0.69632
-0.03555,0.98616,0.16188,-0.30497,-0.16385,-0.72014
-0.05012,0.98887,0.14001,-0.13953,-0.35937,-0.17137
-0.06251,0.99087,0.11936,0.03294,-0.36469,-0.20981
-0.07333,0.99263,0.09634,0.30415,-0.08447,-0.48359
-0.08493,0.99446,0.06171,0.37051,0.087,-0.479
-0.09383,0.99544,0.01629,0.79904,0.78109,-0.96467
-0.09117,0.99446,-0.05212,0.66754,1.09003,-1.00093
-0.08418,0.98721,-0.13528,0.4696,1.03686,-0.50754
-0.08757,0.97233,-0.21655,0.28386,0.51501,1.19162
-0.0903,0.95329,-0.28823,0.25904,0.10346,0.83103
-0.07617,0.93891,-0.33561,0.04735,0.25764,0.28451
-0.0284,0.93172,-0.36203,-0.27344,1.27497,-0.42973
0.01616,0.9227,-0.38517,-0.52119,0.38927,0.05854
0.0386,0.91247,-0.4073,-0.63462,0.01151,0.31021
0.0543,0.90693,-0.41775,-0.49916,-0.3538,0.35798
0.06035,0.90875,-0.41294,-0.26095,-0.32307,0.45064
0.0546,0.91656,-0.39614,-0.10302,-0.30511,0.45093
0.04383,0.92776,-0.37058,0.15986,-0.24218,0.45998
0.03244,0.94088,-0.33718,0.03308,-0.26516,0.46014
0.02137,0.95452,-0.29734,-0.05724,-0.29716,0.4066
0.0102,0.96762,-0.25217,-0.30437,-0.53288,0.26909
-0.00181,0.97911,-0.20327,-0.26804,-0.65196,0.06892
-0.01462,0.98862,-0.14968,-0.01291,-0.48592,0.08595
-0.03538,0.996,-0.0819,0.26608,-0.22574,0.37884
-0.05896,0.99823,-0.00589,0.46353,0.14624,0.08073
-0.07293,0.99549,0.06054,0.39048,1.25197,-0.75834
-0.07592,0.99466,0.06972,0.28438,0.57689,-1.29485
-0.07154,0.99469,0.07378,0.17296,-0.56412,-0.85672
-0.05692,0.99384,0.09493,0.04917,-0.54095,-0.67182
-0.03827,0.99133,0.12557,-0.21643,-0.43776,-0.18574
-0.02225,0.98814,0.15185,-0.4942,-0.36026,-0.24306
-0.01423,0.98838,0.15126,-0.8784,-0.25338,-0.1857
-0.01763,0.98952,0.14323,-0.6069,0.60217,1.04468
-0.04786,0.98798,0.14691,0.36739,0.01443,-0.48679
-0.08594,0.98636,0.14028,0.71149,0.33439,-0.77398
-0.10859,0.98594,0.12692,1.1606,1.86898,-0.99071
-0.0973,0.98897,0.11153,0.61001,1.28105,-0.8939
-0.06461,0.99282,0.10054,-0.18929,0.73386,0.10502
-0.04138,0.99535,0.08678,-0.36505,-0.41569,0.415
-0.02525,0.9972,0.07024,-0.34831,-0.54859,0.4222
-0.0228,0.99823,0.05462,-0.37863,-0.39589,0.568
-0.03652,0.99815,0.0483,-0.13137,0.03728,0.37548
-0.05252,0.99673,0.06113,0.05272,0.07054,0.11683
-0.0654,0.99392,0.08839,0.08722,0.09693,0.01903
-0.07399,0.99137,0.1081,-0.06897,0.05689,-1.88596
-0.07933,0.9924,0.09391,-0.30135,-0.46817,-0.22669
-0.07898,0.99226,0.09572,-0.38456,-0.57478,-0.31203
-0.08822,0.99417,0.06176,-0.41333,-0.2424,-1.04315
-0.10095,0.99476,0.01536,-0.16505,-0.12598,-0.6171
-0.10651,0.9937,-0.03438,0.52693,-0.00938,-0.67239
-0.09519,0.99029,-0.10123,0.64408,0.42541,-0.55548
-0.08729,0.97925,-0.18287,0.69832,0.58094,0.04879
-0.09576,0.95826,-0.26935,1.04992,0.80509,1.06781
-0.09831,0.9345,-0.34208,0.50139,0.55864,0.39204
-0.08007,0.91122,-0.40403,0.30406,0.13261,0.29785
-0.06508,0.8923,-0.44671,0.07041,-0.06425,0.29982
-0.03249,0.88105,-0.4719,-0.44227,0.39444,0.08961
0.01368,0.87736,-0.47963,-0.53259,0.30471,-0.06888
0.0449,0.87952,-0.47372,-0.5601,0.00692,0.1086
0.06924,0.88968,-0.45129,-0.34332,-0.2962,0.23168
0.07883,0.90482,-0.41841,-0.1285,-0.47078,0.38044
0.06856,0.92175,-0.38164,-0.09947,-0.35207,0.42937
0.0464,0.93867,-0.34165,-0.29858,-0.11856,0.4302
0.01905,0.95429,-0.29826,-0.32336,0.0078,0.38157
-0.0053,0.96823,-0.24997,-0.26377,-0.12942,0.26947
-0.02347,0.98081,-0.19351,-0.09301,-0.3042,0.13328
-0.03317,0.99077,-0.13133,0.03245,-0.26398,-0.08407
-0.04192,0.99699,-0.0651,0.09096,-0.02233,-0.47372
-0.05565,0.99843,-0.0033,0.22013,0.25405,-0.5956
-0.06288,0.99629,0.05852,0.4751,0.42867,-0.66252
-0.05456,0.99482,0.08566,0.41751,0.06822,-1.09724
-0.04074,0.99547,0.08572,0.20748,-0.26096,-0.94584
-0.02346,0.99449,0.10201,0.03536,-0.43216,-0.58911
-0.00502,0.99201,0.12595,-0.14273,-0.67475,0.60919
0.00777,0.99138,0.13069,-0.36302,-0.00107,0.97425
-0.0004,0.992,0.12609,-0.55912,-0.11261,-0.20988
-0.02663,0.99046,0.13507,-0.18745,-0.26639,-0.79296
-0.03231,0.9858,0.16468,0.13599,0.18915,-0.47759
-0.02415,0.98255,0.18437,1.21684,3.55576,-1.91114
-0.02475,0.98863,0.14819,0.74505,1.98195,-1.48415
-0.01933,0.99241,0.12135,-0.31382,-0.26986,0.72816
-0.00021,0.99401,0.10918,-0.37394,-0.53919,0.71745
0.01537,0.99633,0.08408,-0.52419,-0.3534,0.92658
0.00969,0.99736,0.07176,-0.66731,-0.30515,0.97666
-0.00839,0.99669,0.08072,-0.26823,0.1857,0.42526
-0.02413,0.99389,0.10755,-0.12986,0.31996,0.28436
-0.04097,0.98934,0.13967,0.02638,0.46577,-0.01097
-0.05559,0.98273,0.17641,0.49943,-0.073,-1.46432
-0.09025,0.97774,0.18936,0.36536,-0.39622,-0.42542
-0.0979,0.9748,0.20039,0.76745,-0.49739,-0.70454
-0.10361,0.97394,0.20169,0.67583,-0.40225,-0.83916
-0.1076,0.97652,0.18654,0.12423,-0.06897,-0.62273
-0.10171,0.98084,0.16606,-0.17618,0.01986,-0.67325
-0.09647,0.98644,0.13264,-0.11462,-0.11904,-0.63332
-0.09833,0.99242,0.07355,-0.0056,-0.18364,-0.71403
-0.10284,0.99465,-0.00892,0.16256,0.14444,-0.76494
-0.10545,0.9899,-0.09465,0.36465,0.45488,0.12525
-0.11431,0.97853,-0.17144,0.62792,0.59732,0.46795
-0.13194,0.96107,-0.24272,0.8899,0.71491,0.7603
-0.10378,0.94494,-0.31031,0.92972,0.41577,0.439
-0.03536,0.936,-0.3502,0.58381,0.27876,-0.03494
0.00865,0.92499,-0.37988,0.03021,0.72852,0.00873
0.03756,0.90831,-0.41659,-0.3859,0.70958,0.18289
0.06574,0.89623,-0.43867,-0.79084,0.05993,0.03197
0.09215,0.89362,-0.43925,-0.60658,-0.27837,0.07161
0.1051,0.90127,-0.42031,-0.43417,-0.40723,0.25119
0.09582,0.91439,-0.3933,-0.14863,-0.42576,0.35244
0.07425,0.92997,-0.36004,0.0283,-0.27996,0.38855
0.04872,0.9465,-0.31899,-0.06815,-0.26182,0.48905
0.02072,0.96257,-0.27021,-0.14712,-0.31787,0.43506
-0.00822,0.97654,-0.21513,-0.12135,-0.35638,0.1817
-0.0367,0.98628,-0.16086,-0.10268,-0.42922,0.04204
-0.06269,0.99228,-0.10687,0.01243,-0.43915,0.0438
-0.08287,0.99522,-0.05135,0.15517,-0.27795,-0.02172
-0.10033,0.9949,0.00893,0.17722,0.22814,-0.1606
-0.11353,0.99077,0.0739,0.17948,0.452,-0.17174
-0.11017,0.98403,0.13975,-0.01137,0.8976,-0.77814
-0.09569,0.98436,0.14782,0.00733,-0.70605,-1.16585
-0.07358,0.98848,0.13216,0.00262,-0.90613,-0.92942
-0.05302,0.99097,0.12305,-0.1929,-1.32935,-1.71553
-0.04548,0.9902,0.13196,-0.41025,-1.16538,0.64662
-0.07131,0.98838,0.13415,-0.3025,0.28361,1.30646
-0.11325,0.98639,0.1191,-1.04836,2.4717,-0.40285
-0.1159,0.98396,0.13546,1.32653,1.20587,-0.63342
-0.10111,0.98555,0.13575,2.01595,1.93135,-2.41523
-0.08184,0.99038,0.11147,-0.47015,0.11979,1.15779
-0.05763,0.99376,0.09533,-0.27919,-0.72,0.28428
-0.04264,0.99528,0.08697,-0.36131,-0.60667,0.41415
-0.04605,0.99434,0.09557,-0.31829,-0.29908,0.54081
-0.06511,0.99285,0.0999,0.00502,0.29491,0.17882
-0.08872,0.99057,0.10422,0.12288,0.53718,-0.55511
-0.10024,0.9793,0.17579,-0.01411,0.62814,-2.09243
-0.07911,0.97279,0.2177,-0.37102,-0.06933,-0.31059
-0.08709,0.97504,0.20417,-0.30524,-0.31592,-0.52054
-0.1074,0.97348,0.20194,-0.69019,-0.38487,-1.30367
-0.14579,0.97785,0.15006,-0.21814,-0.15354,-1.00057
-0.18258,0.97924,0.08788,-0.0698,-0.0884,-0.34362
-0.22538,0.97407,0.01918,0.48318,0.24682,0.01102
-0.26358,0.96352,-0.04606,0.95064,0.46375,0.42829
-0.29109,0.94975,-0.115,1.19592,0.6748,0.43206
-0.27577,0.94263,-0.1881,0.85091,1.1011,-0.44321
-0.23431,0.93855,-0.25338,0.69916,0.86438,-0.4638
-0.20003,0.93135,-0.30425,-0.08289,0.46062,0.04923
-0.17499,0.92294,-0.34286,-0.65858,0.25704,0.37256
-0.15208,0.9176,-0.36725,-0.41684,0.01292,0.35426
-0.13196,0.91687,-0.37672,-0.35727,-0.24191,0.30871
-0.12524,0.91951,-0.37256,0.00274,-0.57097,0.48381
-0.13573,0.92566,-0.35316,0.2511,-0.69903,0.57383
-0.15617,0.93397,-0.32139,0.31602,-0.74681,0.5685
-0.16832,0.94453,-0.282,0.20476,-0.74992,0.4358
-0.16472,0.95701,-0.23869,0.02626,-0.91403,0.30114
-0.1512,0.96896,-0.19552,-0.11055,-0.73232,0.0205
-0.13903,0.97861,-0.15157,-0.15962,-0.36254,-0.3536
-0.13162,0.98693,-0.09291,-0.07734,0.20446,-0.56205
-0.12212,0.99248,-0.00644,-0.35534,1.7293,-2.1395
-0.11115,0.99375,0.00967,0.23569,1.10345,-1.93606
-0.10837,0.99381,-0.02399,-0.11183,-0.07175,-0.22069
-0.10937,0.99265,-0.05161,-0.81893,0.40422,-1.01995
-0.12981,0.98952,-0.06305,-1.27352,1.29528,1.49834
-0.16193,0.98427,-0.07053,-0.18153,-0.42265,1.87745
-0.15051,0.98468,-0.08797,0.3708,0.10523,0.67488
-0.16744,0.9825,-0.08142,0.42992,0.21546,0.87561
-0.16922,0.98165,-0.08782,0.47817,0.56575,0.51193
-0.1592,0.98275,-0.09396,0.56792,0.35114,0.50929
-0.15537,0.98549,-0.0682,0.76064,0.45695,0.73954
-0.15407,0.98782,-0.02125,0.60041,0.55706,0.49079
-0.14911,0.98843,0.02734,0.42454,0.4258,0.29322
-0.1338,0.98806,0.07622,0.11062,0.26691,-0.0557
-0.10752,0.98498,0.13502,-0.21431,0.17727,-0.3596
-0.07424,0.97792,0.1953,-0.26358,0.0712,-0.3078
-0.0454,0.96907,0.24253,-0.31306,-0.18452,-0.15353
-0.02577,0.95919,0.28152,-0.29688,-0.36987,-0.25636
-0.01674,0.94814,0.31738,-0.29704,-0.35998,-0.3264
-0.01569,0.93503,0.35418,-0.19675,-0.35141,-0.40345
-0.02489,0.91929,0.39275,0.0256,-0.00176,-0.64848
-0.04202,0.90433,0.42472,0.15133,0.05934,-0.57461
-0.05485,0.89495,0.44274,0.24925,0.19303,-0.43477
-0.05864,0.88874,0.45461,0.45087,0.40353,-0.90775
-0.04703,0.87541,0.48106,0.54921,0.55671,-1.08822
-0.03018,0.85345,0.52026,0.03067,0.37073,-1.13321
-0.02789,0.86017,0.50922,-0.15209,0.33511,-0.95833
-0.04735,0.87903,0.47438,-0.19339,1.01312,-0.83104
-0.07137,0.90179,0.4262,0.56239,0.99437,-0.33716
-0.08621,0.93261,0.35039,0.75381,1.01227,-0.40793
-0.09282,0.95799,0.27131,0.9303,0.52155,-0.43418
-0.10096,0.97683,0.18862,0.8215,0.65314,0.38767
-0.10162,0.9898,0.09973,0.76387,0.84132,0.68654
-0.09485,0.99523,0.02232,0.60384,0.85886,0.76232
-0.08756,0.99503,-0.04729,0.39149,0.54334,0.70198
-0.07615,0.99123,-0.1079,0.59286,0.35967,0.59209
-0.06002,0.9873,-0.14705,0.71287,0.18717,0.66639
-0.04249,0.98582,-0.16229,1.04854,-0.00173,0.50823
-0.02407,0.98201,-0.18726,0.73142,0.05193,0.69717
0.00474,0.9745,-0.22428,0.59102,0.0786,0.83033
0.02303,0.96501,-0.26116,0.40201,0.03841,1.04052
0.02438,0.95481,-0.29619,0.23793,0.0176,1.1283
0.01169,0.94456,-0.32812,0.0271,-0.08094,1.18373
-0.01665,0.93484,-0.35467,-0.20949,-0.20153,1.32101
-0.04875,0.92643,-0.37327,-0.54106,-0.23338,1.18724
-0.0748,0.92118,-0.38187,-0.72639,-0.24712,1.03195
-0.09347,0.91962,-0.3815,-0.73238,-0.40653,0.89305
-0.0974,0.92336,-0.37135,-0.71076,-0.57768,0.66432
-0.08735,0.93399,-0.34643,-0.60019,-0.48363,0.49343
-0.07084,0.95143,-0.29958,-0.68583,-0.02058,-0.15463
-0.06174,0.96431,-0.25743,-0.29987,0.65602,-0.94888
-0.05529,0.96654,-0.25047,-0.4024,0.39772,-1.25749
-0.05458,0.96448,-0.25842,-0.057,0.03492,-0.86048
-0.05179,0.95904,-0.27846,0.5212,-0.27069,-1.15009
-0.04684,0.95468,-0.29391,0.93552,-0.48361,-0.53924
-0.04818,0.96449,-0.25967,1.32648,-0.83189,2.42575
-0.03004,0.97579,-0.2166,-0.11273,1.09637,1.01608
-0.01189,0.9806,-0.19563,-0.72573,2.16403,-0.39562
-0.02923,0.9804,-0.19479,-0.62862,0.99213,-0.11146
-0.05177,0.97925,-0.19592,0.01991,-0.59858,0.99186
-0.05544,0.97726,-0.20461,0.12076,-0.73093,0.80808
-0.0618,0.9767,-0.20547,0.2427,-0.84912,0.69334
-0.06989,0.98153,-0.17801,0.36578,-0.06425,0.91051
-0.07068,0.98799,-0.13736,0.35936,0.43436,0.82819
-0.07713,0.99129,-0.10663,0.33577,0.89723,0.6414
-0.07577,0.993,-0.09056,0.35538,0.10552,-0.13263
-0.05279,0.99648,-0.06502,0.21614,-0.22701,-0.42439
-0.01679,0.99985,-0.00081,-0.08959,-0.40768,-0.02699
0.02393,0.99759,0.06501,-0.40357,-0.29999,-0.18537
0.0485,0.99368,0.1011,-0.4592,-0.17906,-0.19144
0.05863,0.99149,0.11617,-0.52459,0.03923,-0.0394
0.06114,0.98872,0.13663,-0.128,0.07605,-0.10123
0.05577,0.98578,0.15844,-0.01082,0.06361,-0.14949
0.04953,0.98437,0.16895,0.20021,0.06048,-0.28502
0.04667,0.98355,0.17446,0.27833,0.10618,-0.34394
0.04755,0.98119,0.18701,0.49933,0.19628,-0.53076
0.04694,0.97553,0.21474,0.18612,0.13203,-0.58619
0.04756,0.97126,0.23315,0.07816,0.09917,-0.47532
0.05098,0.97337,0.22342,-0.02221,-0.01151,-0.31477
0.05418,0.97806,0.20108,-0.24649,0.11454,-0.25859
0.05225,0.98176,0.18273,-0.25892,0.54897,-0.65088
0.04253,0.98734,0.15274,-0.09009,0.76861,-0.56583
0.02359,0.99567,0.08979,0.43141,0.96539,-0.49012
0.00153,0.99993,0.01057,0.64456,0.52131,-0.29402
-0.01461,0.99724,-0.07266,0.52463,0.37266,-0.00264
-0.02664,0.98621,-0.16326,0.17851,0.45171,0.94455
-0.03908,0.96649,-0.25367,0.00553,0.70651,1.16683
-0.03799,0.94156,-0.33466,-0.21515,0.88445,1.03043
-0.02154,0.91749,-0.39715,-0.28602,0.36232,0.24505
0.00203,0.90667,-0.42182,0.27171,0.13076,-0.10093
0.00041,0.90414,-0.42723,0.4442,0.08897,0.5791
-0.01009,0.8792,-0.47633,0.18573,-0.02239,0.64048
-0.00838,0.85295,-0.52191,0.01813,-0.09853,0.83446
0.00276,0.83849,-0.5449,-0.07904,-0.21001,0.83392
-0.00468,0.82755,-0.56137,-0.06043,-0.48082,0.90877
-0.02597,0.81785,-0.57484,-0.03616,-0.65008,0.83717
-0.05111,0.81262,-0.58054,-0.11701,-0.72842,0.79694
-0.0737,0.81283,-0.57781,-0.15805,-0.70006,0.69469
-0.09208,0.81793,-0.5679,-0.16004,-0.59565,0.65513
-0.10547,0.83043,-0.54705,-0.08072,-0.48181,0.66718
-0.11142,0.85093,-0.51331,-0.04576,-0.25776,0.61713
-0.11488,0.87471,-0.47082,-0.12595,0.17201,0.25128
-0.11076,0.89995,-0.42168,-0.094,0.14291,0.07652
-0.0964,0.92297,-0.3726,-0.08521,0.17173,-0.12351
-0.07261,0.93338,-0.35145,0.04382,-0.14598,-0.08393
-0.04849,0.94135,-0.33392,0.06131,-0.17674,-0.08859
-0.03696,0.95045,-0.30865,0.06618,-0.09908,-0.12509
-0.03764,0.95877,-0.28166,-0.08133,0.07657,0.08899
-0.03791,0.96606,-0.25548,-0.18832,0.19484,-0.02469
-0.03409,0.97115,-0.236,-0.27456,0.20921,-0.32864
-0.03468,0.97708,-0.21,-0.1679,1.13198,0.46706
-0.03947,0.98454,-0.1706,-0.16997,0.81551,0.78011
-0.03828,0.98841,-0.14685,0.0605,-0.40934,0.68101
-0.03234,0.98878,-0.14576,0.21713,-0.05287,0.39893
-0.03892,0.98778,-0.15086,0.27869,0.13287,0.22265
-0.04451,0.98742,-0.15167,1.00034,3.13215,-1.72908
-0.01598,0.98986,-0.14108,-0.11598,0.49262,0.14813
0.02421,0.99186,-0.12495,-0.36468,-0.22335,0.67187
0.05063,0.99131,-0.12136,-0.31324,-0.52698,0.54973
0.0578,0.98912,-0.13521,-0.37684,-0.50969,0.7014
0.04931,0.98753,-0.14946,-0.39095,-0.45021,0.76957
0.03688,0.98675,-0.15792,-0.05669,-0.18141,0.37281
0.02723,0.98599,-0.16453,0.45855,0.06489,-1.62943
-0.00052,0.99107,-0.13326,0.36867,-0.01428,-1.84394
-0.01825,0.99197,-0.12509,0.04088,-0.27621,0.07188
-0.01414,0.98886,-0.14808,-0.12323,-0.48682,0.14872
-0.00548,0.98927,-0.14591,-0.08262,-0.52657,0.11376
-0.00246,0.98834,-0.15219,0.02092,-0.32014,-0.38265
0.00102,0.98593,-0.1671,-0.00234,-0.11043,-0.37324
0.01193,0.98142,-0.19144,-0.05583,0.10435,-0.66682
0.0326,0.97367,-0.22556,-0.08728,0.06833,-0.40516
0.05029,0.95973,-0.27634,0.0021,0.06529,-0.32804
0.05066,0.93433,-0.35278,0.4691,0.54521,-0.25948
0.03029,0.89661,-0.44177,1.08159,1.00346,0.71207
0.00805,0.85693,-0.51537,1.0815,0.75193,1.17885
0.01524,0.82228,-0.56887,0.64393,0.51083,1.17176
0.02754,0.7957,-0.60506,-0.97553,0.82945,-0.25973
0.0641,0.77757,-0.62552,-0.95375,1.10169,-0.16992
0.0905,0.76929,-0.63245,-0.77188,0.79776,0.06818
0.10539,0.76592,-0.63423,-0.56052,-0.28472,0.65934
0.12126,0.77113,-0.62502,-0.44236,-0.53346,0.75312
0.12911,0.7889,-0.60079,-0.29197,-0.62155,0.77216
0.12187,0.81815,-0.56194,-0.16187,-0.35913,0.72944
0.10657,0.85111,-0.51405,-0.30573,0.02586,0.68829
0.08999,0.8835,-0.4597,-0.45626,0.20306,0.55659
0.07715,0.91104,-0.40502,-0.45514,0.0873,0.327
0.07649,0.9324,-0.35321,-0.08124,-0.06673,0.46353
0.0744,0.95282,-0.29426,0.07475,0.118,0.26599
0.05694,0.97093,-0.23244,0.13151,0.17739,-0.21452
0.04787,0.98098,-0.1881,0.9574,0.12147,-1.58548
0.07469,0.97687,-0.2003,0.57988,-0.78937,-1.4341
0.08806,0.97883,-0.18469,-0.26571,-1.45581,0.84645
0.09162,0.98238,-0.16283,-0.31113,-1.24032,0.92141
0.0983,0.98226,-0.15966,-0.27998,-0.05968,0.75229
0.07394,0.98397,-0.16223,-0.48096,3.20394,-0.01986
0.00351,0.98877,-0.14936,0.2329,2.56426,-0.56759
-0.02282,0.99379,-0.10883,2.11447,3.54539,-4.35778
0.02654,0.9874,-0.15593,-0.83687,-0.53133,1.27426
0.08705,0.98272,-0.16333,-0.44873,-0.96959,0.37964
0.13132,0.97783,-0.16306,-0.45091,-0.91588,0.46612
0.13902,0.97375,-0.18022,-0.53889,-0.49991,0.73825
0.10773,0.97254,-0.20627,-0.31353,0.10232,0.38567
0.05778,0.97192,-0.22807,-0.00158,0.50338,-0.9513
-0.00439,0.97462,-0.22381,1.09954,0.92561,-2.0798
0.02376,0.95821,-0.28506,-0.80615,-0.10103,-0.8958
0.06029,0.93827,-0.34059,-1.0753,-0.04201,-0.08508
0.06113,0.90473,-0.42157,-0.98514,-0.16507,0.5545
0.04661,0.86623,-0.49746,0.70926,-0.43759,1.09843
0.00671,0.82873,-0.55959,1.46065,-0.25062,1.14585
0.02468,0.79864,-0.60129,0.52821,0.76251,0.41131
0.0661,0.77355,-0.63027,-0.902,0.88621,0.64255
0.0813,0.74797,-0.65873,-0.92703,0.56956,0.65796
0.08909,0.73781,-0.6691,-0.88439,-0.05443,0.75997
0.11713,0.75044,-0.65047,-0.6622,-0.17685,0.67632
0.15752,0.78358,-0.60098,-0.40907,-0.26501,0.50745
0.18489,0.82403,-0.53552,0.06453,-0.13104,0.39947
0.18901,0.86184,-0.47064,0.11392,0.02801,0.35526
0.17228,0.89529,-0.41081,0.36205,0.22523,-0.00464
0.1403,0.92653,-0.34905,0.31268,0.15118,-0.03216
0.11571,0.95555,-0.27113,0.42636,0.37918,0.05652
0.10754,0.9741,-0.19888,0.36278,0.22474,-0.18799
0.10354,0.98344,-0.14869,0.07827,0.14833,-0.36788
0.11585,0.98586,-0.12097,0.19522,0.0015,-1.22887
0.14107,0.98117,-0.13185,0.08023,-0.5512,-1.40499
0.14528,0.98035,-0.13338,-0.31013,-1.23514,1.52184
0.13753,0.98189,-0.13023,-0.28454,-1.07854,1.10606
0.12327,0.98363,-0.13138,-0.36198,0.07773,0.94359
0.09152,0.98506,-0.14584,-0.86294,2.80933,-0.21659
0.04874,0.98988,-0.13323,0.09121,0.88389,-0.97969
0.0338,0.99282,-0.11469,0.31773,2.67848,-3.94993
0.03843,0.98408,-0.17348,-0.37597,-0.6627,1.34895
0.07066,0.98091,-0.18114,-0.18706,-0.76272,0.57256
0.09221,0.97654,-0.19456,-0.07969,-0.65206,0.47494
0.08716,0.97093,-0.22287,-0.00955,0.1625,-0.26081
0.05151,0.96487,-0.2576,0.56915,0.29453,-0.29674
0.06409,0.9489,-0.30897,0.09538,0.1575,0.33258
0.09523,0.92774,-0.36086,-0.71343,0.13604,-0.81594
0.09696,0.89289,-0.43969,-0.55651,-0.07032,1.13539
0.09459,0.85517,-0.50963,-0.22148,-0.18212,1.48934
0.08901,0.82118,-0.56367,0.8317,-0.50804,1.1337
0.09676,0.78704,-0.60926,0.69159,0.11364,0.26944
0.12785,0.76237,-0.63438,0.48288,0.46836,0.30717
0.12901,0.74316,-0.65655,-0.18582,0.46953,0.61943
0.13424,0.73225,-0.66767,-0.72326,0.54562,0.53177
0.15878,0.7373,-0.65663,-0.82016,0.58287,0.44162
0.18609,0.75674,-0.62666,-0.81606,0.15364,0.28514
0.21319,0.78694,-0.57902,-0.29385,-0.29084,0.35809
0.22891,0.82362,-0.51889,-0.20936,-0.42376,0.42511
0.22132,0.86608,-0.44824,-0.24712,-0.26871,0.36194
0.19189,0.91073,-0.3657,-0.09335,0.18082,-0.06412
0.14913,0.94606,-0.2876,0.12615,0.16717,-0.15345
0.11763,0.96656,-0.22784,0.59061,0.29745,0.02024
0.10349,0.97715,-0.18563,0.42681,0.06211,-0.22092
0.09212,0.98433,-0.15033,0.26499,-0.17666,-0.3634
0.10068,0.9865,-0.1291,0.7431,-0.37918,-2.05438
0.12655,0.9831,-0.13222,0.45727,-0.76346,-0.88943
0.13187,0.98387,-0.12081,-0.28673,-1.26739,1.48911
0.12607,0.983,-0.13339,-0.64588,0.39635,1.02468
0.10382,0.98356,-0.14771,-1.11299,2.1421,-0.19162
0.04999,0.9914,-0.1209,-0.85116,1.23846,-0.11405
0.03106,0.9902,-0.13608,0.2017,2.37364,-1.98787
0.04423,0.98152,-0.18611,-0.46944,1.08487,0.25685
0.08713,0.98058,-0.17564,-0.21474,-0.62811,0.69173
0.11147,0.97715,-0.18096,-0.14985,-0.65804,0.48291
0.10395,0.97253,-0.20824,-0.14412,-0.35119,0.4469
0.06715,0.96862,-0.23925,-0.18953,-0.26387,0.38061
0.02131,0.96662,-0.25532,0.52822,0.44691,-1.16697
0.03812,0.95561,-0.29213,0.04694,0.25383,-0.07348
0.08309,0.94441,-0.31807,-0.73578,0.26556,-0.43983
0.09817,0.91691,-0.38681,-0.47819,0.44231,-0.04429
0.10494,0.8808,-0.46169,0.07333,0.29261,1.10853
0.1045,0.8449,-0.52461,0.90222,-0.04546,1.3554
0.09724,0.80467,-0.58571,0.63363,-0.00488,0.12561
0.10808,0.76686,-0.63264,0.20954,0.32805,0.01549
0.10011,0.7369,-0.66854,-0.15223,0.50506,0.2428
0.08692,0.71371,-0.69502,-0.5962,0.6525,0.65391
0.0976,0.70414,-0.70332,-0.94554,0.2315,0.57294
0.12077,0.71201,-0.6917,-0.8113,0.00999,0.56998
0.14889,0.73397,-0.66266,-0.24366,-0.30396,0.53121
0.16829,0.76626,-0.62009,0.08629,-0.31923,0.55605
0.17135,0.8083,-0.56328,0.00175,-0.3159,0.43283
0.1524,0.85495,-0.49581,-0.09004,-0.13409,0.26065
0.1131,0.89837,-0.42441,0.01238,0.25623,0.1195
0.06774,0.93285,-0.35383,0.37769,0.18986,0.23336
0.03717,0.95636,-0.2898,0.72185,0.11501,0.22648
0.01933,0.97322,-0.22904,0.45166,0.05558,-0.13322
0.01526,0.98336,-0.181,0.61762,0.31222,-1.47817
0.04488,0.98135,-0.18688,0.57742,-0.4627,-1.13978
0.05405,0.98298,-0.17551,-0.17735,-1.38626,1.52132
0.06198,0.98551,-0.15783,-0.50173,-1.35375,1.29158
0.07365,0.98866,-0.13082,-1.27244,-1.27876,1.03917
0.08753,0.99038,-0.10705,-0.38546,2.25934,0.33007
0.04654,0.99553,-0.08211,0.637,3.66373,-0.70094
-0.03275,0.99647,-0.07713,1.73775,1.56668,-1.57645
-0.00403,0.99497,-0.10005,-0.20912,1.60854,-0.93036
0.02644,0.9958,-0.08751,-0.27604,-0.31483,0.60073
0.04418,0.9952,-0.08723,0.02631,-0.77109,0.27148
0.04064,0.99462,-0.09523,0.40481,-0.26007,-1.2217
0.00295,0.98891,-0.14844,0.53801,0.53773,-1.90033
-0.03354,0.98185,-0.18663,0.10245,0.29861,-0.58268
-0.03611,0.97056,-0.23809,-0.40641,-0.16414,-0.04291
-0.06286,0.94951,-0.30736,-0.50733,0.04277,0.173
-0.10626,0.91936,-0.37877,0.18336,-0.05745,0.86623
-0.13456,0.88612,-0.44348,0.95171,-0.13764,0.65796
-0.14114,0.85894,-0.49222,1.13991,0.09543,0.0909
-0.09056,0.83817,-0.53782,1.14998,1.2689,0.03021
-0.0746,0.81258,-0.57805,0.07643,0.90763,0.31044
-0.10317,0.78862,-0.60615,-0.37034,0.61955,0.54368
-0.13345,0.77715,-0.615,-0.58553,0.11305,0.58849
-0.15537,0.77482,-0.61279,-0.13188,-0.19625,0.67472
-0.1641,0.782,-0.60128,0.22888,-0.37136,0.61279
-0.17588,0.79768,-0.57686,0.66778,-0.61666,0.70837
-0.17671,0.82149,-0.54214,0.3833,-0.50579,0.78457
-0.15551,0.85275,-0.49862,0.00923,-0.43058,0.62574
-0.12207,0.88522,-0.44885,-0.11093,-0.31094,0.29718
-0.09384,0.91308,-0.39682,-0.12764,-0.06956,-0.15875
-0.07829,0.93852,-0.33621,-0.26725,0.31922,-0.6424
-0.0906,0.96102,-0.26119,0.05755,1.68859,-2.36116
-0.09443,0.95823,-0.26992,0.62372,0.60636,-1.19947
-0.10413,0.95035,-0.29323,0.01503,-0.17282,-0.27949
-0.12117,0.94289,-0.31027,-0.47008,-0.54393,-1.07544
-0.15269,0.93965,-0.30616,-0.07342,-0.28151,1.99366
-0.16864,0.93266,-0.3189,0.02299,1.38236,2.67228
-0.14871,0.92033,-0.36175,-0.39167,0.32253,1.32884
-0.10098,0.92137,-0.37532,-0.38353,1.49335,1.29872
-0.07094,0.93146,-0.35683,0.01989,0.6005,0.94033
-0.06574,0.93868,-0.33845,0.34857,0.169,0.74076
-0.08297,0.94167,-0.32614,0.56341,0.64638,0.70256
-0.11169,0.9418,-0.31707,0.63954,0.83929,0.47906
-0.14051,0.94725,-0.28802,0.611,0.46564,-0.20842
-0.15568,0.96364,-0.21715,0.45184,0.3382,0.4816
-0.15305,0.97546,-0.15824,0.34892,0.32787,0.33254
-0.13475,0.98454,-0.11183,0.34727,0.24038,0.24387
-0.11208,0.99198,-0.05834,0.23042,-0.03857,0.17845
-0.0897,0.99592,-0.00823,0.25816,-0.09674,-0.06376
-0.07297,0.99642,0.04248,0.33059,-0.2755,-0.25173
-0.06664,0.99318,0.09549,0.27311,-0.62183,-0.42639
-0.06353,0.98581,0.15532,0.14506,-0.43274,-0.94119
-0.04269,0.97197,0.23115,-0.16313,0.63643,-2.68499
-0.01676,0.96911,0.24602,-0.08094,0.20852,-0.44961
-0.03909,0.97333,0.22601,0.07616,0.09993,-0.42912
-0.07827,0.98174,0.17332,0.07192,0.11954,-0.94374
-0.10748,0.98778,0.11278,0.41194,0.47923,-0.90269
-0.13895,0.98838,0.06151,0.79365,0.80375,-0.63141
-0.18503,0.98265,-0.01228,1.55641,0.84621,0.02255
-0.22047,0.96909,-0.11063,1.69992,0.98161,0.80909
-0.23001,0.95315,-0.19643,1.55888,1.11604,1.06316
-0.2272,0.93676,-0.26615,0.74059,1.20563,1.10335
-0.21017,0.91906,-0.33338,0.45808,1.42675,1.21192
-0.16951,0.90644,-0.38681,0.32916,1.06112,0.89089
-0.12164,0.91186,-0.39205,0.74403,0.10882,0.09609
-0.09397,0.92667,-0.36393,1.18345,-0.16827,0.38567
-0.08134,0.92332,-0.37529,1.14347,-0.06827,0.68701
-0.09486,0.9151,-0.3919,0.80385,0.0537,1.44622
-0.11689,0.90903,-0.39999,0.64917,0.00447,1.38173
-0.14035,0.90418,-0.40342,0.49545,-0.02543,1.18851
-0.16687,0.89963,-0.4035,0.09916,-0.22327,0.99876
-0.19986,0.89594,-0.39665,-0.03065,-0.38595,1.093
-0.22371,0.89766,-0.37967,-0.02096,-0.3869,0.99902
-0.23378,0.90479,-0.35593,0.01835,-0.25092,0.96088
-0.23368,0.91543,-0.32767,-0.13974,-0.15525,0.92235
-0.22454,0.9287,-0.29511,-0.175,-0.1896,0.85514
-0.20743,0.94325,-0.25929,-0.27177,-0.34932,0.53746
-0.18548,0.95821,-0.21775,-0.34449,-0.33336,0.42321
-0.16332,0.97202,-0.1688,-0.24682,-0.18752,0.20406
-0.1478,0.98146,-0.12198,0.00299,0.59774,-0.59166
-0.1304,0.98615,-0.10242,-0.02381,1.4285,-3.32483
-0.13038,0.9819,-0.13728,0.58924,1.21214,-3.18217
-0.10896,0.9838,-0.14232,1.22175,-0.69283,-0.34012
-0.08781,0.9901,-0.1094,0.90053,-0.25066,0.82734
-0.10422,0.99065,-0.0879,0.39113,0.76893,1.73057
-0.14952,0.98502,-0.08576,-0.44826,1.38659,0.85711
-0.16814,0.98003,-0.10604,-0.10385,-0.45948,0.07932
-0.15249,0.98393,-0.09275,-0.12119,-0.53775,0.55167
-0.14856,0.98638,-0.07039,0.11749,-0.70225,0.63749
-0.15759,0.98639,-0.04667,0.27731,-0.58748,0.91754
-0.16237,0.98666,-0.01074,0.36787,-0.03176,0.87037
-0.17526,0.9841,0.02849,0.52844,0.40511,0.62164
-0.19329,0.97935,0.05903,0.57022,0.35352,0.23182
-0.19661,0.97659,0.08718,0.55684,0.23821,0.13213
-0.1807,0.97541,0.1261,0.38782,-0.12954,-0.00677
-0.14497,0.97298,0.17961,0.06927,-0.18668,-0.20387
-0.10536,0.96193,0.25212,-0.0871,0.03566,-0.5392
-0.09602,0.94598,0.30963,-0.39087,0.01883,-1.19771
-0.10084,0.94319,0.31654,-0.07884,0.25829,-0.34599
-0.10039,0.94593,0.30838,0.03193,0.28312,-0.18229
-0.10915,0.94372,0.31216,0.16452,0.10428,-0.12658
-0.1172,0.93854,0.32463,0.35774,0.0837,-0.16644
-0.11962,0.93428,0.33584,0.50281,0.15955,-0.39367
-0.11285,0.92894,0.35256,0.64397,0.29052,-0.73594
-0.09439,0.91545,0.39117,0.46877,0.29595,-0.76385
-0.07142,0.89944,0.43113,-0.14673,0.11744,-0.62689
-0.07352,0.90941,0.40932,-0.18758,0.25542,-0.60011
-0.0811,0.92629,0.36794,-0.165,0.38358,-0.62196
-0.08786,0.93949,0.33109,0.10907,0.72459,-0.9261
-0.09436,0.95589,0.27811,0.73662,0.63203,-0.50608
-0.11376,0.9718,0.20647,0.81964,0.54147,-0.33974
-0.13394,0.98362,0.12054,0.73968,0.65205,0.04819
-0.14287,0.98937,0.02678,0.6677,0.69314,0.84812
-0.13816,0.98845,-0.06207,0.44407,0.7175,0.93081
-0.12307,0.98179,-0.14467,0.15743,0.82118,0.92049
-0.10167,0.97056,-0.21832,-0.05435,0.38506,0.32474
-0.07171,0.96757,-0.24216,0.3327,0.12387,-0.40582
-0.04766,0.97121,-0.23336,0.53241,0.09066,0.10395
-0.04702,0.96151,-0.27067,0.30324,-0.14769,0.71923
-0.05117,0.94712,-0.31676,0.08121,-0.26195,0.77461
-0.05362,0.93747,-0.34388,0.069,-0.37078,0.75895
-0.0714,0.93104,-0.35785,0.14597,-0.52598,0.72062
-0.09845,0.92472,-0.36769,0.11105,-0.58237,0.67451
-0.12098,0.92101,-0.37024,0.02279,-0.60716,0.65426
-0.13391,0.92143,-0.36473,-0.04327,-0.57523,0.60145
-0.13855,0.92616,-0.35074,-0.184,-0.55078,0.58501
-0.13525,0.93423,-0.32999,-0.26744,-0.58283,0.50202
-0.12246,0.94637,-0.29896,-0.27848,-0.48026,0.47077
-0.10594,0.9614,-0.25391,-0.07858,0.1945,0.30854
-0.0943,0.97576,-0.19741,-0.00267,0.38764,0.16799
-0.08101,0.98777,-0.13315,0.15678,0.45081,-0.09458
-0.06855,0.99308,-0.09526,0.08651,0.12297,-0.68421
-0.05671,0.99365,-0.0971,0.09109,0.00867,-0.64788
-0.05058,0.99477,-0.08855,0.15408,-0.11897,-0.41916
-0.05124,0.99656,-0.0649,0.21346,-0.26945,-0.30134
-0.05243,0.99802,-0.03429,0.19499,-0.27433,-0.26867
-0.04601,0.99888,-0.01014,0.12116,-0.1133,-0.15912
-0.03544,0.99928,0.01226,0.00252,0.08353,-0.0169
-0.02275,0.99909,0.03564,-0.04815,-0.05772,-0.00524
-0.00827,0.99845,0.05477,-0.10478,-0.19854,-0.17037
0.00368,0.99729,0.07327,-0.28887,-0.27221,-0.54832
0.01702,0.99479,0.10035,-0.327,-0.15622,-0.44017
0.03041,0.98981,0.13897,-0.35441,1.25166,0.20862
0.02883,0.9853,0.16826,0.31221,-0.17068,-0.61475
0.03036,0.98505,0.1695,0.55353,-0.33415,-0.67662
0.02071,0.98772,0.15476,0.33454,0.0801,-0.06839
0.00826,0.99041,0.13783,0.52743,1.59326,-0.41867
-0.00437,0.99186,0.12714,0.75353,3.24506,-1.31345
-0.01428,0.99165,0.12803,-0.08893,-0.09688,0.52004
-0.00976,0.99301,0.11747,0.07394,-0.32562,0.31597
-0.01313,0.99478,0.10108,0.02508,-0.34544,0.45509
-0.01703,0.99671,0.07909,-0.2188,-0.41405,1.00358
-0.0234,0.99634,0.08204,-0.10511,0.07101,0.63798
-0.02492,0.99388,0.10746,-0.02925,0.18239,0.32505
-0.02796,0.99109,0.13009,0.14708,0.03404,-1.68795
-0.02147,0.98031,0.19622,0.31545,-0.00727,-1.83945
0.01314,0.97536,0.22017,-0.12444,-0.04259,-0.51082
0.00578,0.98195,0.18899,-0.13766,-0.45833,-0.1383
-0.01043,0.98056,0.19587,-0.10713,-0.47859,-0.69715
-0.03143,0.98208,0.18574,-0.19626,-0.3256,-0.55505
-0.05315,0.98541,0.16156,-0.20013,-0.25075,-0.29064
-0.06796,0.98827,0.13666,0.10622,0.00645,-0.84812
-0.0875,0.99234,0.08707,0.62739,-0.03041,-0.55965
-0.10103,0.99479,0.01263,0.77683,0.21131,-0.55095
-0.10894,0.99084,-0.07963,0.26047,0.75464,-0.63341
-0.128,0.97455,-0.18397,0.38545,1.3827,-0.3599
-0.14142,0.95583,-0.25761,0.72478,0.52586,1.57072
-0.16416,0.93145,-0.32471,0.41034,-0.38999,0.98737
-0.1484,0.91187,-0.3827,0.29986,-0.54909,0.21318
-0.11148,0.90323,-0.4144,-0.63997,1.04717,-0.05432
-0.07743,0.89453,-0.44024,-1.08709,1.1202,0.2915
-0.04761,0.89204,-0.44943,-0.79748,-0.02913,0.28228
-0.02863,0.89416,-0.44681,-0.11316,-0.49954,0.42383
-0.02128,0.90485,-0.42519,0.14354,-0.52159,0.53459
-0.02542,0.92165,-0.38716,0.12251,-0.49769,0.53292
-0.03617,0.93928,-0.34121,-0.04754,-0.37669,0.48594
-0.04438,0.95593,-0.29019,-0.10041,-0.27963,0.45546
-0.04671,0.97109,-0.23406,-0.0606,-0.26047,0.33279
-0.0342,0.98402,-0.17469,0.26609,-0.21104,0.17443
-0.01081,0.99537,-0.09542,0.72494,0.08898,0.31847
0.00433,0.99998,-0.00074,0.76423,0.41158,0.08134
0.01673,0.99831,0.05546,1.06458,0.48067,-1.77947
0.04472,0.99707,0.06191,0.58698,-0.8338,-1.43262
0.0715,0.99602,0.05289,0.26664,-1.06212,-1.48737
0.08265,0.99556,0.04465,-0.49273,-1.31708,0.81408
0.08577,0.99472,0.05618,-0.53382,-1.27668,0.69544
0.08182,0.99363,0.07725,-0.56876,-0.92079,0.53392
0.07188,0.99238,0.09989,-0.65736,1.82971,0.28691
0.02967,0.99263,0.11738,-0.42751,2.5981,-0.97029
0.01894,0.98989,0.14045,1.68731,1.61915,-3.02662
0.01972,0.99365,0.11062,-0.17283,2.07854,-0.81172
0.04838,0.9934,0.1039,-0.35874,-0.79132,0.51631
0.07562,0.99149,0.10585,-0.28096,-0.89938,0.34016
0.0743,0.99294,0.09227,-0.20658,-0.49587,0.35863
0.04816,0.99807,0.03878,-0.46039,0.07332,0.39411
0.00664,0.99966,-0.02454,-0.53075,0.41634,0.33607
-0.02699,0.99933,-0.02433,0.08865,0.24852,-1.05832
-0.02415,0.99669,-0.07749,-0.09566,-0.14383,-0.12507
-0.00494,0.99076,-0.13547,-0.79061,-0.15416,-0.48898
-0.01562,0.97352,-0.22803,-0.23683,-0.21749,0.79647
-0.03353,0.94925,-0.3127,0.64881,-0.38127,1.04729
-0.05255,0.92313,-0.38087,1.62122,-0.7097,0.84166
-0.03896,0.89677,-0.44075,1.20127,-0.06187,-0.35413
-0.03124,0.87183,-0.4888,0.70525,0.39653,-0.04903
-0.04127,0.84914,-0.52655,-0.73219,0.66008,0.53613
-0.05053,0.836,-0.54638,-0.65996,0.01318,0.49868
-0.04131,0.83591,-0.5473,-0.48134,-0.0486,0.42139
-0.02177,0.85076,-0.52508,0.08391,0.07885,0.50106
0.00228,0.87802,-0.4786,-0.02927,-0.11017,0.38636
0.01645,0.91046,-0.41324,-0.05551,-0.27635,0.11959
0.01625,0.94295,-0.33251,0.09132,-0.33345,-0.20591
0.01156,0.96997,-0.24291,0.44446,-0.27986,0.01517
0.01988,0.98762,-0.15552,0.69588,-0.14302,0.20445
0.034,0.99618,-0.08033,0.77205,0.28625,0.21528
0.03892,0.99904,-0.01936,0.48386,0.11679,-0.39376
0.04168,0.99816,0.0436,0.44218,-0.05616,-0.66979
0.06092,0.99517,0.07673,0.66441,-0.58281,-2.46999
0.07773,0.99427,0.07318,-0.21083,-1.31641,0.59
0.09251,0.99174,0.08868,-0.59265,-1.07214,0.96765
0.08908,0.99002,0.10907,-0.80128,0.21466,0.48279
0.0687,0.98903,0.13065,-1.14969,2.90134,-0.61036
0.05844,0.98899,0.13584,0.97876,3.06059,-3.79621
0.05928,0.98976,0.12974,0.97793,3.05982,-3.79011
0.06546,0.99618,0.05747,-0.41068,-0.43809,1.87712
0.07526,0.99627,0.04176,-0.11332,-0.85907,0.5396
0.08152,0.99647,0.019,-0.11958,-0.85927,0.56236
0.07687,0.99696,-0.01103,-0.25434,-0.40483,0.50178
0.05483,0.99772,-0.03891,-0.2699,0.09653,0.25438
0.03251,0.99812,-0.05171,-0.22021,0.44017,-0.4395
0.01671,0.99888,-0.04385,-0.435,0.44632,-2.37399
0.0288,0.99556,-0.0895,-0.29618,0.08817,-0.15948
0.04799,0.98843,-0.14382,-0.46086,0.16312,-0.56182
0.04609,0.96699,-0.25056,-0.06093,0.31687,-0.03468
0.01802,0.93754,-0.34737,0.60155,0.07149,0.94872
0.01391,0.90467,-0.42588,1.21323,-0.29727,1.2059
0.03318,0.8702,-0.49157,0.92066,-0.04442,0.02516
0.02975,0.83846,-0.54414,-0.00874,0.61491,0.06582
0.00973,0.81072,-0.58535,-0.24519,0.32043,0.43604
-0.00622,0.79077,-0.61208,-0.52915,-0.09094,0.57399
0.00073,0.78536,-0.61903,-0.79414,-0.18709,0.36865
0.02256,0.79779,-0.6025,-0.65102,-0.39645,0.27943
0.05351,0.82464,-0.56311,-0.12411,-0.47472,0.28783
0.07352,0.86373,-0.49855,0.38801,-0.22345,0.39907
0.06408,0.90446,-0.42169,0.37308,-0.0847,0.33521
0.03628,0.93899,-0.34201,0.22703,0.32568,0.24872
0.01256,0.96529,-0.26082,0.26205,-0.11956,0.29689
0.001,0.98263,-0.18552,0.42353,-0.24885,0.29241
0.0033,0.99371,-0.11179,0.50996,-0.00626,-0.03038
0.01149,0.99928,-0.03569,0.30065,-0.04394,-0.24965
0.03161,0.99884,0.03581,0.35189,-0.08566,-0.62784
0.0692,0.99679,0.03995,-0.03163,-0.09522,-3.16648
0.08253,0.99656,0.00494,-0.34358,-0.62748,-2.18464
0.05971,0.9974,0.03993,-0.87548,-1.3514,1.82838
0.02627,0.99592,0.08618,-0.66452,2.51554,0.05637
0.00407,0.99707,0.07618,-0.02654,2.32816,-1.07677
-0.01401,0.9978,0.0646,0.49489,1.36408,-0.85633
-0.00353,0.99897,0.04494,-0.14042,1.16,0.34704
0.02729,0.99955,-0.01137,-0.59651,-0.5971,0.9402
0.06241,0.99786,-0.01886,-0.39296,-0.93919,0.64375
0.07494,0.997,-0.01847,-0.23036,-0.76165,0.65332
0.05349,0.99757,-0.04428,-0.21868,-0.30459,0.69421
0.00741,0.99708,-0.07583,-0.14182,-0.02059,0.60438
-0.03893,0.99566,-0.08432,0.64885,0.4881,-2.1383
-0.07508,0.99709,0.01229,0.45416,0.0962,-1.66399
-0.05821,0.99821,-0.01218,0.1593,0.04643,-0.64195
-0.04054,0.99884,-0.02526,-0.36793,-0.09137,-1.4355
-0.04595,0.9958,-0.07906,-0.08622,-0.04644,-0.77118
-0.05328,0.9865,-0.15477,0.05165,0.11283,-0.46701
-0.06309,0.9699,-0.23513,0.49183,0.36271,0.24113
-0.08247,0.94831,-0.30642,0.59262,0.37863,1.06888
-0.07623,0.92633,-0.36888,0.50906,0.38153,0.78186
-0.05607,0.90359,-0.42469,0.12347,0.19537,0.09572
-0.03744,0.88293,-0.46799,0.00999,0.68334,0.0548
-0.03488,0.864,-0.50226,-0.22564,0.48942,0.2932
-0.03732,0.85201,-0.52218,-0.4538,0.21704,0.46414
-0.03633,0.85141,-0.52323,-0.1994,-0.22314,0.37255
-0.0273,0.86505,-0.50092,-0.0386,-0.33736,0.39918
-0.01569,0.88755,-0.46042,0.25123,-0.29484,0.50126
-0.01245,0.91357,-0.40646,0.21499,0.0491,0.53717
-0.02286,0.9397,-0.34121,0.11415,0.0789,0.45554
-0.04041,0.9619,-0.27034,0.05152,0.1549,0.34659
-0.05118,0.97937,-0.1954,0.03416,-0.32569,-0.04407
-0.04872,0.99222,-0.11449,0.08809,-0.48987,-0.14467
-0.04379,0.99843,-0.03449,0.1918,-0.63338,-0.3126
-0.03331,0.99853,0.04247,0.73394,-0.55833,-1.71803
-0.00855,0.997,0.0767,0.83493,-0.25335,-2.12298
0.01516,0.99787,0.06317,0.04092,-0.78227,-0.87184
0.0179,0.99492,0.09885,-0.27831,-1.23765,1.3244
-0.00676,0.98969,0.14298,-0.40653,-0.91002,0.87667
-0.02143,0.98521,0.1699,-0.66682,2.69422,0.00818
-0.01253,0.98337,0.18107,1.30788,0.30297,-2.51023
-0.00167,0.98296,0.18373,2.02648,0.22122,-2.27144
-0.00528,0.98763,0.15663,-0.06699,0.95491,-0.06177
0.00366,0.9885,0.15109,-0.04892,0.09627,0.78028
0.01085,0.9909,0.13406,0.18913,-0.52599,0.19199
0.01034,0.99362,0.11213,0.00655,-0.20192,-1.54477
0.00668,0.99514,0.0981,-0.16811,0.51927,-0.62885
-0.00159,0.99799,0.06319,-0.02247,0.46439,-0.19344
-0.01429,0.99987,0.00424,-0.70766,0.45931,-0.97998
-0.03692,0.99667,-0.07248,0.0057,0.49135,0.42291
-0.06741,0.98705,-0.14545,0.44203,0.3238,0.80438
-0.09812,0.97279,-0.20983,0.81679,0.30718,0.18578
-0.08198,0.96144,-0.26248,1.12672,0.90805,-0.4063
-0.03248,0.95025,-0.30975,0.72637,1.23647,-0.47237
-0.01726,0.93367,-0.3577,-0.35213,0.90476,0.09267
-0.01835,0.91806,-0.396,-0.76737,0.27062,0.5853
-0.01713,0.90816,-0.41826,-0.94877,-0.03794,0.5585
-0.00613,0.90441,-0.42661,-0.13375,-0.48777,0.5219
-0.00127,0.90729,-0.42048,0.04776,-0.54538,0.55705
0.00256,0.9147,-0.40409,0.12703,-0.44104,0.50706
0.00733,0.92637,-0.37653,-0.17022,-0.45098,0.39647
0.01052,0.93976,-0.34165,-0.28172,-0.53546,0.31093
0.00852,0.95203,-0.30584,-0.27277,-0.57754,0.11961
0.00277,0.96383,-0.26648,-0.48571,-0.60961,-0.26077
-0.01362,0.97615,-0.21663,-0.37636,-0.50863,-0.53089
-0.04019,0.98672,-0.15727,0.31365,-0.16537,-0.64508
-0.05061,0.99315,-0.10516,0.64192,0.37249,-1.14798
-0.04922,0.9944,-0.09335,0.05233,0.19905,-1.05827
-0.05462,0.99343,-0.10043,-0.15368,0.09048,-0.57505
-0.05457,0.99331,-0.10161,-0.3515,-0.08844,-0.54242
-0.05012,0.99162,-0.11892,-0.43706,-0.47252,0.00098
-0.04959,0.99208,-0.11525,-0.20858,-0.06232,3.6732
-0.05374,0.99379,-0.09736,-1.58725,1.19834,1.11596
-0.05669,0.99594,-0.0697,0.33028,0.09376,0.24344
-0.11065,0.99289,-0.04356,1.08059,0.24055,1.03607
-0.14829,0.9859,-0.07742,0.82911,0.55434,0.62699
-0.12767,0.98745,-0.09279,0.89432,0.8622,0.2507
-0.08499,0.995,-0.05218,0.84137,0.906,0.1501
-0.05709,0.99833,0.00698,0.84253,0.79082,0.22716
-0.04606,0.9976,0.05147,0.46098,0.38332,0.13186
-0.02883,0.99578,0.08693,0.31917,0.40856,0.20421
0.00427,0.99249,0.12212,0.07777,0.24897,0.28237
0.03946,0.98545,0.1652,-0.31431,0.21638,0.14667
0.06666,0.97333,0.21943,-0.55576,0.15617,-0.00372
0.10598,0.94998,0.2937,-0.7178,-0.22193,-0.29503
0.13323,0.91442,0.38216,-0.70746,-0.46121,-0.60013
0.15001,0.88908,0.43243,-0.44743,-0.65339,-0.74452
0.16241,0.88543,0.43543,0.05155,0.04186,-0.96619
0.16409,0.88502,0.43563,-0.00888,0.44314,-1.19797
0.17367,0.86499,0.47074,0.24142,0.22519,-0.88937
0.18017,0.84972,0.49546,-0.1119,0.31506,-0.56674
0.15484,0.85367,0.49722,-0.21976,0.26954,-0.59024
0.11369,0.86985,0.47999,-0.20484,0.13909,-0.83053
0.0793,0.89027,0.44842,0.20633,0.50115,-1.11178
0.06666,0.90418,0.42187,0.64156,0.70565,-0.67795
0.04408,0.92154,0.38573,0.85746,0.79943,-0.65472
0.00204,0.94972,0.31302,0.91868,0.73041,-0.90528
-0.02642,0.97685,0.21219,0.97353,1.0695,-0.54036
-0.038,0.99436,0.0989,0.97959,1.06401,-0.03564
-0.02776,0.9996,0.00258,0.82687,1.1867,0.87348
-0.00553,0.99763,-0.0684,0.5183,0.82436,0.96478
0.01802,0.99304,-0.11628,0.47657,0.61086,0.96995
0.04123,0.99038,-0.132,0.62182,0.13599,1.01083
0.05729,0.98949,-0.13269,0.70612,-0.19885,0.77852
0.07145,0.98562,-0.15304,1.0596,-0.25675,0.32055
0.11522,0.97688,-0.18001,0.91071,0.05855,0.14453
0.13375,0.96998,-0.20307,0.75795,-0.08077,1.01819
0.12058,0.96235,-0.24355,0.69438,-0.14736,1.41346
0.10646,0.9536,-0.2816,0.41295,-0.2019,1.05757
0.09524,0.94811,-0.30331,0.07874,-0.07549,0.95173
0.07626,0.94534,-0.31701,-0.12399,0.04872,1.24711
0.0471,0.94305,-0.32926,-0.46807,-0.11076,1.12695
0.02585,0.94185,-0.33502,-0.6395,-0.164,0.89326
0.01773,0.94379,-0.33003,-0.63432,-0.13677,0.85021
0.01721,0.94737,-0.31963,-0.63315,-0.16469,0.79134
0.02407,0.95137,-0.30708,-0.54983,-0.32518,0.59095
0.03743,0.95601,-0.2909,-0.59396,-0.36467,0.46264
0.05015,0.96165,-0.26963,-0.71071,-0.38773,0.23927
0.05533,0.96755,-0.24648,-0.3261,-0.28178,-0.35093
0.05032,0.97234,-0.22806,0.11896,-0.14665,-0.49234
0.05217,0.9722,-0.22823,0.19023,1.06927,-1.89716
0.03624,0.96149,-0.27239,0.8143,1.50054,-1.68781
0.05118,0.95426,-0.29453,1.0354,0.07969,-0.47131
0.05621,0.95813,-0.28072,0.502,0.71391,0.75394
0.05834,0.95673,-0.28505,-0.57294,0.17413,0.93181
0.08013,0.95161,-0.29663,-0.79369,-0.26987,1.16899
0.09351,0.94542,-0.31211,-1.33619,-0.57863,-0.7678
0.08312,0.95254,-0.2928,-0.08791,-0.59085,1.02099
0.06806,0.96452,-0.25506,0.20848,0.01354,1.14779
0.04603,0.9755,-0.2151,0.12522,0.6429,0.67617
0.03551,0.98493,-0.1692,0.21564,0.49073,0.52913
0.02736,0.99056,-0.13421,0.33757,0.32333,0.41227
0.01347,0.99362,-0.11188,0.69707,0.01947,-0.03182
-0.00925,0.9957,-0.09204,0.46329,0.21649,-0.11464
-0.0228,0.99775,-0.06281,0.46218,0.12946,-0.03004
-0.01472,0.99934,-0.03266,0.26599,-0.1389,0.25606
0.00756,0.99992,-0.00833,0.14373,-0.22883,0.29067
0.03768,0.99921,0.01158,0.0316,-0.26248,0.31192
0.0679,0.9972,0.03075,-0.13205,-0.21774,0.07678
0.09099,0.99401,0.06024,-0.19698,-0.09612,0.07718
0.10365,0.98908,0.10462,-0.26968,0.03933,0.03485
0.10493,0.98214,0.15608,-0.41543,0.20787,-0.16231
0.10627,0.97439,0.19807,-0.17529,0.0908,-0.07632
0.10951,0.96908,0.22103,-0.09025,0.06902,-0.15165
0.11786,0.96293,0.24258,0.24121,0.33273,-1.53183
0.14858,0.95123,0.27027,-0.01501,0.29376,-0.79017
0.16246,0.95068,0.26416,-0.28177,0.12801,0.06341
0.13778,0.95823,0.25055,-0.12784,0.20388,-0.29779
0.11272,0.96662,0.23001,0.15764,0.36218,-0.36201
0.09659,0.9759,0.19561,0.5319,0.57808,-0.3115
0.08509,0.9843,0.15455,0.84269,0.68779,-0.36465
0.07393,0.99097,0.11169,1.10364,0.61265,-0.54096
0.06777,0.9967,0.04445,0.42633,0.27439,-0.48642
0.05873,0.99702,-0.04981,0.10558,0.30277,0.14822
0.0418,0.98795,-0.1489,0.10602,0.40116,0.93947
0.03188,0.97089,-0.23734,0.02307,0.89128,1.01743
0.02948,0.95141,-0.30647,-0.36103,1.10299,1.16446
0.0511,0.93097,-0.36146,-0.29685,0.31512,0.66731
0.086,0.92,-0.38234,-0.07471,0.09535,0.61984
0.08008,0.91651,-0.39189,0.6513,0.04537,-0.33049
0.0525,0.88794,-0.45694,0.50949,-0.01873,0.60012
0.04301,0.86042,-0.50775,0.1854,-0.15342,0.87867
0.04473,0.84541,-0.53222,0.00709,-0.30723,0.90819
0.02492,0.83381,-0.55148,0.11584,-0.49569,0.94858
-0.00477,0.82407,-0.56645,0.03578,-0.5369,0.82369
-0.03305,0.81786,-0.57446,-0.15723,-0.55205,0.77261
-0.05395,0.81679,-0.57439,-0.36388,-0.50977,0.68381
-0.06376,0.82294,-0.56453,-0.37608,-0.44953,0.63298
-0.06348,0.83529,-0.54612,-0.36629,-0.31783,0.5321
-0.05157,0.85255,-0.52008,-0.21497,-0.05723,0.48969
-0.03083,0.87621,-0.48093,-0.22564,-0.04221,0.4986
-0.00759,0.9052,-0.42491,-0.11677,0.20978,0.47787
0.01669,0.9326,-0.36051,0.11476,0.27665,0.21507
0.04338,0.94813,-0.31488,0.1892,0.12086,0.06297
0.06909,0.95333,-0.29389,0.28929,-0.06386,-0.04502
0.07591,0.95696,-0.28007,0.21347,-0.11416,-0.02291
0.06446,0.96149,-0.26712,0.16232,-0.11936,-0.00793
0.05458,0.96688,-0.2493,0.19356,-0.10366,0.05495
0.05682,0.973,-0.22365,0.22887,-0.16421,-0.00032
0.07209,0.97696,-0.20083,0.28051,-0.46307,-0.15082
0.09277,0.97641,-0.19492,-0.26574,-0.99466,-0.38513
0.10002,0.97426,-0.20198,-0.47668,-0.91066,0.92445
0.10938,0.97776,-0.1789,-0.39723,-0.50806,1.01188
0.10488,0.98245,-0.15414,-0.40021,1.61522,0.476
0.08532,0.98214,-0.16762,-0.16367,2.33524,-0.10624
0.04142,0.98208,-0.18378,0.89355,3.594,-4.04895
0.05752,0.97612,-0.20944,-0.29155,-0.21713,1.52757
0.11658,0.96716,-0.22579,-0.26776,-1.04453,0.75998
0.15873,0.96072,-0.22761,-0.23813,-1.10027,0.64909
0.17181,0.95619,-0.23699,-0.21455,-0.66246,0.57744
0.1481,0.95444,-0.25903,-0.12838,0.63527,0.60585
0.09325,0.9597,-0.26507,-0.01292,0.70633,0.39074
0.04466,0.97415,-0.22138,0.29059,0.08616,-0.62937
0.066,0.97334,-0.21963,-0.19491,-0.07713,0.37341
0.09225,0.97312,-0.21095,-0.42274,-0.33422,0.04248
0.09119,0.96942,-0.2278,-0.80425,-0.38215,-0.81886
0.06864,0.9627,-0.26169,-0.30599,-0.23527,-0.23251
0.06309,0.95012,-0.30539,-0.04841,-0.00208,-0.23533
0.06763,0.92683,-0.36933,0.75267,0.80355,-0.33608
0.03808,0.89166,-0.45109,1.22074,0.72866,0.94836
-0.00511,0.85175,-0.52391,1.25191,0.51612,1.25841
-0.02791,0.80957,-0.58635,0.67343,0.41594,1.33446
0.01293,0.77876,-0.62717,-0.63031,0.52865,-0.29197
0.06351,0.75453,-0.65318,-0.86915,0.95298,-0.13315
0.08155,0.73282,-0.67551,-1.14063,0.62846,0.56998
0.09989,0.72259,-0.68402,-0.56601,-0.12331,0.62649
0.12255,0.72758,-0.67499,-0.50496,-0.16666,0.67677
0.13421,0.75003,-0.64764,-0.31117,-0.26327,0.72793
0.13367,0.78467,-0.60532,0.01002,-0.18944,0.66173
0.12514,0.82273,-0.55448,-0.11084,-0.00275,0.51258
0.1119,0.86044,-0.49711,-0.30367,-0.05912,0.44489
0.10788,0.89217,-0.43862,-0.06422,-0.31113,0.51628
0.11321,0.91688,-0.38275,0.08507,-0.25877,0.45702
0.11111,0.93689,-0.33147,0.19697,-0.08377,0.31099
0.09567,0.95303,-0.28735,0.10755,0.26714,-0.12236
0.07409,0.9671,-0.24334,0.1932,0.35813,-0.38496
0.08161,0.96895,-0.23335,0.26522,0.17077,-1.22385
0.1118,0.96428,-0.24009,0.04826,-1.05248,-1.17261
0.12481,0.96953,-0.21074,-0.22583,-1.37302,0.03754
0.12298,0.97853,-0.16531,0.00328,-1.33826,1.20687
0.11793,0.97942,-0.16375,0.05083,-0.85396,0.84392
0.09226,0.97837,-0.18511,-0.12543,2.70314,-0.2888
0.03071,0.98438,-0.17331,0.03971,1.71798,0.30617
0.00135,0.99273,-0.12023,1.56371,3.55719,-3.51217
0.03573,0.99304,-0.11216,0.97124,1.93557,-1.90493
0.10132,0.98837,-0.11326,-0.82048,-0.60519,0.82914
0.14941,0.98353,-0.10155,-0.52009,-0.67398,0.45316
0.16166,0.98014,-0.11478,-0.44676,-0.68692,0.44409
0.13992,0.97851,-0.15139,-0.50941,-0.01881,0.55096
0.09823,0.97696,-0.18942,0.05494,1.148,-3.10396
0.04163,0.97364,-0.22423,0.67987,1.09071,-3.70256
0.03961,0.95982,-0.27777,-0.57529,-0.34649,0.22369
0.07568,0.94886,-0.30647,-0.7281,-0.16129,-0.27385
0.07933,0.92425,-0.37343,-0.62685,-0.13713,0.13616
0.07106,0.89355,-0.44328,0.1262,-0.30661,0.92813
0.05335,0.86448,-0.49981,0.67393,-0.44068,1.09523
0.03529,0.83478,-0.54943,0.83128,-0.55369,1.03068
0.06292,0.81206,-0.58016,0.69196,0.62368,0.17943
0.08978,0.79375,-0.60157,-0.1091,1.03145,0.56982
0.09484,0.77566,-0.62398,-0.05415,0.35926,0.73685
0.09478,0.76648,-0.63523,-0.52703,-0.19553,0.77041
0.10826,0.77269,-0.62547,-0.59723,0.13232,0.63367
0.14131,0.79451,-0.59057,-0.48447,0.24898,0.48282
0.16298,0.82711,-0.53787,-0.19183,0.55549,0.26317
0.15696,0.86503,-0.47653,-0.09998,0.26396,0.19043
0.13261,0.90342,-0.40771,-0.02603,0.13831,-0.06199
0.10555,0.93861,-0.32841,0.2544,-0.13191,-0.62682
0.08788,0.96207,-0.25824,0.51038,-0.17679,-0.02465
0.08581,0.97067,-0.22452,0.43306,-0.03604,0.0997
0.08549,0.97386,-0.21041,0.08692,-0.2108,0.16605
0.08555,0.97664,-0.19704,0.00621,-0.55752,0.01014
0.08819,0.97756,-0.19126,-0.35101,-0.48004,-1.97559
0.08226,0.97425,-0.20986,-0.40095,-1.21281,0.325
0.08179,0.97663,-0.19872,-0.18573,-0.89273,1.22155
0.08016,0.9789,-0.18788,-0.35862,1.5736,0.95822
0.05844,0.98007,-0.18982,0.234,1.55253,0.01152
0.02534,0.98536,-0.16853,0.67288,2.30705,-1.83067
0.02583,0.98295,-0.18197,0.26178,1.09712,0.28181
0.08389,0.97297,-0.21509,-0.59506,-0.80954,1.16592
0.13464,0.96789,-0.21222,-0.29226,-0.69989,0.48021
0.15486,0.96241,-0.2231,-0.26385,-0.49579,0.58101
0.13022,0.95897,-0.25178,-0.24959,0.12243,0.77514
0.07577,0.95975,-0.27039,0.16057,0.25596,-0.4093
0.03304,0.9668,-0.25335,1.31559,0.21452,-2.81069
0.07129,0.95959,-0.27219,-0.78458,0.01497,-0.15904
0.1091,0.95081,-0.2899,-1.23148,0.10557,-0.68374
0.11614,0.92836,-0.35303,-1.06467,0.003,-0.6954
0.1227,0.89944,-0.41945,0.16344,0.08463,0.34593
0.1278,0.86884,-0.47831,1.09399,0.16098,0.86434
0.12376,0.83119,-0.54203,1.14504,0.21549,1.06371
0.12374,0.79289,-0.59666,0.81242,0.38144,0.65576
0.1276,0.75761,-0.6401,-0.35407,0.28012,0.39918
0.13599,0.7314,-0.66825,-0.47098,0.33962,0.3088
0.15218,0.71662,-0.68065,-0.4744,1.05784,0.54889
0.18531,0.71193,-0.67735,-0.65914,0.71002,0.38008
0.21428,0.71569,-0.66473,-0.62967,-0.01834,0.19568
0.23167,0.72991,-0.64307,-0.373,-0.51873,0.22178
0.23325,0.75728,-0.61,-0.21141,-0.42596,0.46886
0.22367,0.7926,-0.56723,-0.33877,-0.10517,0.45381
0.20347,0.83298,-0.51451,-0.49467,0.15856,0.33165
0.17514,0.87591,-0.44954,-0.3039,0.44406,0.33061
0.14481,0.91326,-0.38076,-0.01038,0.11041,0.41562
0.12036,0.93884,-0.32261,0.22154,-0.08764,0.23476
0.10067,0.95631,-0.27443,0.21601,0.18929,0.00842
0.08258,0.97183,-0.22068,0.42433,0.45692,-0.10463
0.05636,0.98305,-0.17443,0.32427,0.11522,-0.06319
0.04428,0.98881,-0.14238,0.34948,-0.39259,-0.32721
0.06199,0.98847,-0.13809,0.40149,-0.81244,-0.73994
0.08595,0.98544,-0.14661,0.21675,-1.18056,-1.19006
0.09197,0.9838,-0.15382,-0.26737,-1.39801,-0.11971
0.08848,0.98576,-0.14292,-0.37948,-0.92119,1.18126
0.09094,0.98493,-0.14702,-0.21333,-0.02625,1.11269
0.084,0.98229,-0.16743,-0.9049,2.99138,-0.44315
0.05012,0.98764,-0.14845,0.2703,0.45322,0.15061
0.02959,0.9878,-0.1528,1.269,3.20693,-3.48973
0.05225,0.98195,-0.18171,-0.43979,-0.62729,1.44566
0.10941,0.97569,-0.18985,-0.33692,-0.78124,0.89494
0.13294,0.96943,-0.20617,-0.26325,-0.6728,0.69004
0.11822,0.96457,-0.23583,-0.15944,-0.07794,0.72458
0.07445,0.96275,-0.2599,-0.09013,-0.02961,0.58444
0.02215,0.96621,-0.25676,0.59368,0.38141,-2.03167
0.01133,0.9688,-0.24756,-0.1739,0.26402,-0.67856
0.04756,0.96053,-0.27406,-0.5666,0.16754,-0.1281
0.05721,0.94749,-0.3146,-0.84856,0.09296,-0.63387
0.0416,0.92,-0.38969,-0.38096,-0.12523,0.3656
0.03013,0.88745,-0.45991,0.05245,0.03199,0.58311
0.01121,0.85238,-0.52279,1.0958,0.05087,1.00682
0.01541,0.81723,-0.57609,1.03331,0.43386,0.66449
0.03404,0.78797,-0.61477,0.15105,0.66255,0.22132
0.05196,0.76415,-0.64293,-0.85367,0.7067,0.3891
0.0641,0.74738,-0.6613,-0.99009,0.62982,0.37591
0.07749,0.7424,-0.66546,-0.98684,0.44253,0.40208
0.09489,0.75532,-0.64845,-0.32668,-0.00019,0.4356
0.11039,0.78351,-0.61149,0.23487,-0.28093,0.36964
0.10927,0.81871,-0.5637,0.38629,-0.30666,0.40758
0.09382,0.85608,-0.50824,-0.02123,0.089,0.5871
0.07655,0.8917,-0.44609,-0.09416,0.13134,0.48069
0.06497,0.92176,-0.38225,-0.12573,0.11765,0.42841
0.0622,0.94654,-0.31652,0.24492,-0.09253,0.21219
0.05264,0.96692,-0.24957,0.23931,-0.09764,0.09378
0.03066,0.98239,-0.18425,0.20668,-0.07606,0.0073
0.01723,0.99127,-0.1306,0.31531,-0.08447,-0.54399
0.03224,0.99237,-0.11891,0.164,-0.33887,-1.17687
0.05665,0.98851,-0.14005,-0.03047,-0.7341,-1.11331
0.0612,0.98776,-0.14339,-0.5934,-1.52986,-0.03831
0.05092,0.99278,-0.10849,-0.71732,-1.57071,0.60524
0.04951,0.99697,-0.05985,-0.48041,-1.17284,0.7587
0.04102,0.99819,-0.04377,-0.30761,2.69165,0.59716
-0.00453,0.99705,-0.0765,-0.03366,3.14579,0.32774
-0.03739,0.99788,-0.05312,0.59437,0.33194,-0.22764
-0.02692,0.99961,-0.00516,1.2918,0.8677,-2.06263
-0.02592,0.99965,0.00085,-0.1947,2.20923,0.17175
-0.01787,0.99982,-0.00355,-0.34498,0.03379,0.58411
-0.00777,0.99995,0.00453,0.06666,-0.74329,0.31298
-0.01432,0.99956,0.02547,0.25282,-0.77219,0.42762
-0.03563,0.99807,0.05061,0.52546,-0.089,0.21184
-0.05596,0.99551,0.07621,0.80384,0.54038,-0.67416
-0.06254,0.99131,0.11564,-0.43996,0.14694,-0.66998
-0.06936,0.99195,0.10582,-0.35813,-0.05381,0.04582
-0.08803,0.99208,0.0895,-0.74478,-0.21479,-0.59261
-0.12415,0.99113,0.04725,-0.34196,0.52384,-0.36288
-0.1723,0.98498,-0.01047,0.20402,0.66286,0.1514
-0.21894,0.97272,-0.07651,0.80791,0.50712,0.46642
-0.24545,0.95879,-0.14303,1.52128,1.36415,0.5787
-0.25315,0.9447,-0.20843,1.52899,1.37824,0.6441
-0.23938,0.93164,-0.27336,1.75534,1.2426,-0.01141
-0.20881,0.92093,-0.32904,1.01716,0.93966,0.66392
-0.16279,0.9088,-0.38415,0.81329,1.27826,0.8572
-0.1195,0.90743,-0.40284,0.68359,1.39717,1.2799
-0.08863,0.91522,-0.39306,0.15501,0.34549,0.8865
-0.0735,0.9139,-0.39922,-0.01093,0.16549,0.56015
-0.09302,0.91075,-0.40234,0.02776,-0.11544,0.8395
-0.11537,0.91595,-0.38434,0.13591,-0.60281,0.9198
-0.14708,0.92386,-0.35331,0.14615,-0.67974,1.05903
-0.1842,0.93043,-0.3168,-0.09121,-0.95165,1.25717
-0.20604,0.93832,-0.27764,-0.19432,-0.93672,1.00716
-0.21322,0.95053,-0.22588,-0.15748,-0.8469,0.99334
-0.21677,0.96381,-0.15514,-0.59079,-0.23369,0.89234
-0.22514,0.96969,-0.09487,-1.07971,1.8162,-2.65765
-0.23935,0.96401,-0.11566,-1.11116,1.82197,-2.33181
-0.24748,0.95749,-0.14813,-0.37387,0.11165,-0.86794
-0.24554,0.9515,-0.18531,0.36148,-0.39722,-0.8423
-0.25691,0.94385,-0.20767,0.7935,-0.4901,-1.34783
-0.25766,0.94797,-0.18693,2.56991,1.34163,2.62321
-0.23336,0.94771,-0.21766,-0.56076,0.54112,0.36953
-0.20934,0.93684,-0.28016,-1.50496,0.30861,-0.54602
-0.21481,0.94383,-0.25104,0.39309,-0.87309,0.66619
-0.22469,0.95433,-0.19684,0.84422,-0.4286,1.14091
-0.24369,0.9545,-0.17183,0.90864,-0.07277,1.09361
-0.24766,0.95509,-0.16263,1.10366,0.60361,0.75772
-0.23742,0.96125,-0.14003,1.15109,0.71549,0.49356
-0.23629,0.96475,-0.11576,1.13238,0.69129,0.31751
-0.24241,0.96729,-0.07462,0.78643,0.25889,-0.18554
-0.23036,0.97302,-0.01221,0.5165,-0.03196,0.01186
-0.19028,0.98072,0.0443,0.35264,-0.15836,0.1508
-0.14331,0.98587,0.08657,0.08934,-0.1458,0.22531
-0.11316,0.98595,0.12273,-0.1747,-0.14133,0.12358
-0.08619,0.98308,0.16156,-0.58013,-0.21121,-0.02017
-0.01858,0.97699,0.21239,-0.70327,0.25883,-0.27445
0.01391,0.96212,0.27222,-0.75227,-0.34788,-0.46143
0.01025,0.95308,0.30248,-0.48957,-0.37915,-0.17631
-0.02086,0.95335,0.3011,0.05557,-0.00752,-0.10974
-0.0529,0.95606,0.28829,0.26089,0.10239,-0.21816
-0.06558,0.95695,0.28269,0.32644,0.08114,-0.22596
-0.06747,0.95393,0.2923,0.39224,0.21854,-0.26028
-0.07425,0.94588,0.31585,0.43507,0.49992,-0.46815
-0.07963,0.92937,0.36041,0.24633,0.3975,-0.63602
-0.07155,0.90839,0.41191,0.28415,0.28968,-0.3141
-0.06487,0.89999,0.43102,-0.00828,0.20603,-1.02484
-0.07712,0.90737,0.41315,0.14837,0.36092,-0.79716
-0.10103,0.92202,0.37367,0.43068,0.46369,-0.51898
-0.1215,0.93613,0.32995,0.74452,0.81633,-0.74649
-0.13868,0.94937,0.28184,0.80548,0.74056,-0.75126
-0.15742,0.96375,0.21536,0.70355,0.43683,-0.62949
-0.17788,0.97341,0.14423,0.73948,0.47944,-0.35616
-0.19917,0.97746,0.06985,0.78841,0.7188,0.12983
-0.2126,0.97712,-0.00465,0.9814,0.5388,0.76317
-0.21474,0.9737,-0.076,0.77959,0.47741,0.77545
-0.20782,0.96765,-0.14295,0.70727,0.33537,0.732
-0.19267,0.96475,-0.17922,0.63087,0.10186,0.56691
-0.17722,0.96794,-0.17796,0.86429,0.04283,-0.04215
-0.15274,0.97116,-0.18304,0.79184,0.11887,-0.06742
-0.13385,0.96994,-0.2032,0.59352,0.0351,0.24943
-0.13258,0.96584,-0.22263,0.27667,-0.08179,0.73035
-0.13648,0.95991,-0.24479,0.22071,-0.09,0.73826
-0.14089,0.9533,-0.26713,0.19794,-0.0644,0.51446
-0.15135,0.94724,-0.28252,0.13214,-0.1576,0.57207
-0.15899,0.94249,-0.29397,0.10449,-0.16853,0.57363
-0.16212,0.9388,-0.30389,-0.01414,-0.09193,0.55447
-0.16118,0.93664,-0.31097,0.01593,-0.07834,0.56628
-0.15614,0.93627,-0.31464,-0.04499,-0.15551,0.51578
-0.14726,0.93839,-0.3126,-0.10878,-0.42518,0.52027
-0.13374,0.94347,-0.30325,-0.1312,-0.48032,0.50908
-0.11737,0.95056,-0.28747,-0.15164,-0.55464,0.46717
-0.1001,0.95895,-0.26527,-0.24391,-0.618,0.22096
-0.08516,0.96819,-0.23524,-0.20808,-0.55471,0.06342
-0.07774,0.97655,-0.20073,-0.03595,0.065,-0.70231
-0.08135,0.98062,-0.17816,0.89046,1.53706,-1.67104
-0.0892,0.98056,-0.1747,0.32259,0.39715,-0.882
-0.08774,0.98035,-0.17661,0.09151,-0.04014,-0.72495
-0.07725,0.9817,-0.174,-0.21166,-0.39549,-0.39413
-0.06395,0.98525,-0.15864,-0.18769,-0.24893,0.69545
-0.05061,0.99043,-0.12832,-0.03685,-0.23605,1.37056
-0.04418,0.99495,-0.09004,-0.17328,0.191,0.50738
-0.05019,0.99671,-0.06347,0.0516,2.29682,-2.90626
-0.06751,0.99482,-0.07592,0.10411,0.31813,0.21945
-0.08062,0.995,-0.0588,0.1572,-0.62691,0.88308
-0.08119,0.99544,-0.0499,0.24965,-0.6817,0.66759
-0.07965,0.9963,-0.03194,0.3854,-0.52801,0.58827
-0.0771,0.99701,0.00181,0.44334,-0.19939,0.40669
-0.08082,0.99611,0.03465,0.55522,0.38397,0.32522
-0.09419,0.99376,0.05956,0.56914,0.6304,0.1248
-0.10393,0.99115,0.08244,0.39308,0.29646,-0.3369
-0.09329,0.98875,0.11683,0.2749,0.02412,-0.31859
-0.06728,0.98632,0.15043,0.14349,-0.19452,-0.19004
-0.0329,0.98363,0.17711,0.02359,-0.3266,-0.05629
-0.00023,0.98066,0.19565,-0.07637,-0.17571,-0.07779
0.02064,0.9774,0.2103,-0.143,-0.02327,-0.1021
0.02528,0.97261,0.23099,-0.25145,0.13563,-0.26157
0.02686,0.96445,0.26284,-0.02654,0.15837,-0.77201
0.03491,0.95764,0.2858,0.07868,0.14214,-0.56826
0.04026,0.95634,0.28942,0.08419,-0.00387,-0.25357
0.04042,0.95594,0.29073,0.15858,-0.18685,-0.20752
0.03524,0.95351,0.29923,0.19133,-0.21949,-0.28217
0.02927,0.95063,0.30889,0.24777,0.00172,-0.59145
0.02981,0.95252,0.30297,-0.11119,0.06123,-1.11425
0.02983,0.95992,0.27864,-0.12085,-0.12808,-0.37635
0.02137,0.96555,0.2593,0.07862,-0.25142,0.19553
0.00812,0.97137,0.23738,0.17683,-0.45939,0.09601
-0.00333,0.97621,0.21674,0.15832,-0.48088,-0.00971
-0.00965,0.97777,0.2094,0.13068,-0.41228,-0.00664
-0.01375,0.97744,0.21069,0.10738,-0.1238,-0.42565
-0.02107,0.97687,0.21274,0.134,-0.15178,-0.67744
-0.03381,0.97868,0.20252,0.22215,-0.20465,-0.49856
-0.05168,0.98177,0.18286,0.24385,-0.03085,-0.67007
-0.0744,0.98734,0.13999,0.2541,0.73046,-1.01067
-0.09696,0.9928,0.07017,0.3627,0.94874,-0.43112
-0.11709,0.99303,-0.01232,0.62966,0.77435,0.05953
-0.1309,0.98675,-0.09573,0.7766,0.84026,0.27352
-0.13363,0.97617,-0.17091,0.61967,1.15093,0.73713
-0.1099,0.96455,-0.2399,0.33264,1.16704,0.87121
-0.03821,0.96,-0.27736,-0.16753,1.55615,0.26502
0.04662,0.95713,-0.28587,-0.6873,0.63196,-0.17847
0.07716,0.93826,-0.33719,-0.26681,0.02797,0.60739
0.08714,0.92177,-0.3778,-0.14505,-0.12474,0.39788
0.10086,0.91309,-0.39506,0.01274,-0.06554,0.27394
0.09945,0.90779,-0.40746,-0.09744,-0.25012,0.45415
0.08787,0.90768,-0.41034,-0.18012,-0.35847,0.56961
0.07162,0.91382,-0.39973,-0.39157,-0.76369,0.66939
0.04999,0.92409,-0.37887,-0.36892,-0.83785,0.76497
0.02784,0.93659,-0.3493,-0.31219,-0.90493,0.77227
0.00961,0.95004,-0.31197,-0.14998,-0.95999,0.75646
8e-05,0.96327,-0.2685,-0.20689,-0.97137,0.66139
0.00123,0.97576,-0.21879,-0.25731,-1.01135,0.52215
0.01022,0.98796,-0.1543,-0.12812,0.42091,0.32352
0.01624,0.99696,-0.07608,-0.05846,1.00336,0.04367
0.01716,0.99978,0.01121,0.1731,1.32551,-0.08578
0.0291,0.99687,0.07327,1.16068,0.38707,-2.54713
0.06279,0.99565,0.06862,0.5213,0.04959,-2.03387
0.09151,0.99395,0.06056,-0.08858,-0.42409,-0.90017
0.12307,0.98994,0.06968,-0.18754,-1.32708,0.89311
0.14728,0.98607,0.07713,-0.33936,-1.34825,0.8597
0.15026,0.98446,0.09074,-0.30473,-0.88612,0.61297
0.13229,0.98479,0.11252,-0.06768,2.4268,-0.37431
0.08431,0.988,0.12935,0.28042,2.32174,-0.61316
0.08161,0.9881,0.13025,1.19512,2.61573,-2.6791
0.12248,0.98754,0.09866,-0.3367,1.19938,-0.03358
0.17026,0.98303,0.06814,-0.61389,-1.04055,0.38083
0.20591,0.97455,0.08842,-0.54615,-1.18738,0.25107
0.22473,0.96671,0.12228,-0.74995,-0.39569,0.68215
0.208,0.96978,0.12747,-0.39595,0.23771,0.56011
0.16594,0.98125,0.09792,-0.2452,0.0986,0.36984
0.12272,0.98995,0.07017,-0.0697,0.17863,0.17009
0.08981,0.99201,0.08846,0.05307,0.60296,-3.0701
0.07674,0.98819,0.13255,-0.02968,0.09107,-1.38061
0.08044,0.98941,0.12072,0.03427,-0.31177,0.03422
0.07806,0.99195,0.09959,-0.52565,-0.29213,-1.36456
0.05493,0.9979,0.03397,-0.23744,-0.28449,-0.4999
0.02325,0.99897,-0.03862,0.06667,0.09621,-0.23338
-0.01,0.99267,-0.12033,0.48384,0.55007,-0.01357
-0.04526,0.97961,-0.19568,0.89251,0.96364,0.3309
-0.08335,0.96286,-0.25677,0.7188,0.64706,0.79902
-0.08108,0.94351,-0.32126,0.59959,0.38228,0.53073
-0.04053,0.92969,-0.3661,0.34792,0.44679,0.35067
0.01351,0.91994,-0.39182,-0.83792,0.86377,-0.27105
0.05697,0.91124,-0.40789,-0.74366,0.34651,-0.02942
0.07743,0.90593,-0.41627,-0.69647,0.08342,0.31286
0.09146,0.90806,-0.40872,-0.30333,-0.32378,0.37753
0.09053,0.91775,-0.38668,-0.23213,-0.36592,0.49299
0.07973,0.93227,-0.35284,-0.1908,-0.29587,0.51266
0.06324,0.94844,-0.31057,-0.23919,-0.31143,0.44596
0.04731,0.96341,-0.26378,-0.23574,-0.40721,0.44062
0.0319,0.97704,-0.21062,-0.19993,-0.50437,0.41551
0.02364,0.98774,-0.15423,-0.05896,-0.68183,0.29854
0.02391,0.99484,-0.09852,0.0991,-0.4584,-0.00039
0.02539,0.99885,-0.04039,0.35556,-0.13517,-0.18342
0.02124,0.99953,0.02148,0.42567,0.05043,-0.14891
0.01917,0.99737,0.06975,0.31478,0.27261,-0.34532
0.03312,0.99586,0.08449,0.64838,0.90432,-2.09656
0.05369,0.99613,0.06938,0.29804,-0.3897,-1.37114
0.08106,0.99325,0.08281,-0.19262,-0.55772,-0.26399
0.11412,0.987,0.1131,-0.46635,-0.47644,0.5697
0.13575,0.97928,0.15015,-1.0713,0.79017,0.76722
0.14885,0.96983,0.19299,-0.55365,-0.06567,-0.18861
0.1449,0.96574,0.21521,0.00128,-0.44357,-0.34839
0.12416,0.97441,0.18728,0.44448,0.12483,-0.42817
0.08187,0.98851,0.12697,0.93894,1.0781,-0.23496
0.05083,0.99165,0.1184,0.84501,2.21434,-0.05087
0.05626,0.98791,0.14433,0.42435,1.15982,-0.22227
0.07078,0.98487,0.1581,0.09679,-0.04038,-0.00456
0.07786,0.98403,0.16001,-0.00562,-0.42816,0.26028
0.08086,0.98324,0.16334,-0.10369,-0.46183,0.4415
0.07911,0.98142,0.17472,-0.13909,-0.06774,0.41281
0.07884,0.9782,0.19202,-0.10887,-0.022,0.19194
0.08169,0.97324,0.2147,-0.08303,-0.08217,-0.37206
0.0851,0.96552,0.24595,-0.11308,-0.01397,-1.19042
0.10197,0.9489,0.29858,-0.18438,0.00398,-1.8792
0.11972,0.94968,0.2894,-0.42056,-0.03969,-1.16024
0.09952,0.95955,0.26329,-0.1985,-0.23636,-0.81726
0.06929,0.96725,0.2441,-0.15096,-0.28357,-0.695
0.05154,0.97457,0.21799,-0.23844,-0.2821,-0.44904
0.04085,0.98187,0.18502,-0.1691,-0.24951,-0.11772
0.02896,0.98919,0.14362,-0.07381,-0.16519,-0.1954
0.01158,0.99593,0.08921,0.23033,0.01232,-0.42332
-0.00201,0.99973,0.02252,0.52805,0.23196,-0.90756
-0.00892,0.99795,-0.06312,0.75608,0.62398,-0.70133
-0.01566,0.98707,-0.15944,1.07007,1.16667,-0.18573
-0.02852,0.97036,-0.23994,0.77527,0.2962,1.25538
-0.01239,0.95028,-0.31111,0.55306,0.21883,1.10036
0.03171,0.93268,-0.35929,0.19968,0.43802,0.06804
0.07009,0.91517,-0.3969,-0.38507,1.11745,-0.0436
0.0901,0.89573,-0.43536,-1.22372,0.86523,0.26769
0.11018,0.88045,-0.46114,-1.01189,-0.35052,0.14922
0.13116,0.87522,-0.46558,-0.78259,-0.44909,0.27215
0.14124,0.88255,-0.44849,-0.55029,-0.4474,0.37708
0.13325,0.90002,-0.41496,0.05869,-0.30723,0.72392
0.11598,0.92078,-0.37241,0.04996,-0.15674,0.71856
0.10838,0.93998,-0.32354,-0.07243,-0.11631,0.62245
0.10131,0.95759,-0.2697,-0.33354,-0.32349,0.31707
0.08833,0.97306,-0.21291,-0.38615,-0.53292,0.15299
0.07259,0.98472,-0.15826,-0.23138,-0.54964,0.0996
0.06011,0.99421,-0.08898,0.15623,-0.26961,0.41776
0.04286,0.99906,0.00272,0.49158,0.29336,0.51801
0.01975,0.99719,0.07213,0.64849,1.05128,-0.17357
0.00592,0.99583,0.09087,0.92722,1.01891,-1.94122
0.01062,0.99557,0.09322,0.82768,-0.39224,-1.60169
0.02883,0.99309,0.11364,0.2674,-0.61598,-0.95765
0.05712,0.98892,0.13689,-0.24601,-0.77033,-0.6288
0.08636,0.98589,0.14328,-0.6831,-0.90607,-0.33974
0.09164,0.98873,0.11823,-0.74031,-1.18179,0.8147
0.08212,0.98872,0.12514,-0.89006,-0.58499,0.52434
0.06012,0.98726,0.14722,0.11058,0.95065,0.20872
-0.00351,0.99235,0.12325,0.67919,1.25134,0.03689
-0.04678,0.99211,0.1162,1.03112,1.1689,-1.01242
-0.01633,0.98723,0.15836,0.70201,3.26089,-1.64565
0.01535,0.98969,0.14231,0.67033,3.25843,-1.6296
0.03642,0.98981,0.13754,-0.89803,-0.51909,0.43018
0.06023,0.98884,0.13617,-0.52621,-0.8547,0.28597
0.06329,0.99018,0.12454,-0.47889,-0.77028,0.40067
0.04767,0.99358,0.10243,-0.15411,0.00153,0.30584
0.0258,0.99622,0.0828,0.82127,1.30952,-3.88792
0.0088,0.99653,0.08262,0.60747,1.26818,-4.72082
0.00863,0.99898,0.04395,-0.46248,-0.13274,0.20517
0.00579,0.99987,0.01386,-0.76316,-0.67248,-0.73482
-0.01564,0.99854,-0.05156,-0.55231,-0.53352,-0.73979
-0.04337,0.98953,-0.13758,-0.16325,-0.13884,-0.22593
-0.06419,0.97467,-0.21418,0.72209,-0.2975,0.98281
-0.08609,0.9554,-0.28244,0.96913,-0.35023,0.9316
-0.08588,0.93467,-0.34496,0.80527,-0.29339,0.26817
-0.03331,0.91887,-0.39313,0.87523,1.14593,-0.3338
-0.00981,0.89712,-0.44165,0.32537,1.21014,0.32256
-0.00069,0.87248,-0.48863,-0.02337,0.28091,0.45019
0.01314,0.85703,-0.51508,-0.74538,0.08874,0.46119
0.04394,0.85395,-0.51848,-0.94423,0.22155,0.35803
0.07601,0.86333,-0.49887,-0.70224,0.33076,0.11821
0.08537,0.88119,-0.46498,0.18198,0.13501,0.24026
0.07216,0.90542,-0.41833,0.31521,0.0751,0.28324
0.04451,0.93214,-0.35933,-0.0651,-0.18846,0.45011
0.01506,0.95527,-0.29532,-0.17057,-0.28619,0.47779
-0.00178,0.97367,-0.22792,-0.18152,-0.26964,0.41142
-0.00824,0.98634,-0.16447,0.15982,-0.29395,0.30202
-0.00855,0.99491,-0.10025,0.28405,-0.26884,0.4208
-0.00733,0.99964,-0.0255,0.35375,-0.04373,0.15902
-0.00192,0.99899,0.04452,-0.03688,0.29114,-0.71919
0.01956,0.9954,0.09367,0.29432,0.59408,-2.14792
0.05128,0.99767,0.04469,0.52654,-0.24753,-2.19248
0.07471,0.99687,0.02552,0.03243,-1.64805,-0.72745
0.08818,0.99204,0.08974,-0.37085,-1.6567,2.10626
0.06586,0.98644,0.1502,-0.2508,-1.559,1.42606
0.05305,0.98758,0.14777,-0.61198,0.98899,-0.33103
0.0256,0.99309,0.11438,0.07964,2.5068,-0.64323
-0.00357,0.99417,0.10766,0.4324,0.92916,-0.72274
-0.00366,0.99288,0.11897,1.70783,2.19565,-1.91162
0.01034,0.99551,0.09391,-0.30801,0.37854,0.5062
0.04577,0.99536,0.08443,-0.35351,-0.29642,0.64539
0.06559,0.9955,0.06817,-0.19773,-0.69748,0.15605
0.06226,0.99683,0.04935,-0.37565,-0.40228,0.19397
0.04658,0.99803,0.04177,-0.39287,-0.2146,0.18345
0.03533,0.9985,0.0416,0.43296,0.10108,-1.52547
0.03663,0.99906,0.02257,-0.01073,-0.197,-0.308
0.04317,0.99906,-0.00057,-0.27721,-0.11084,-0.67164
0.03304,0.99752,-0.06192,-0.34149,0.11587,-0.64467
0.01586,0.9901,-0.1394,0.25971,0.21232,0.07127
-0.00477,0.97703,-0.21302,0.62238,0.19908,0.39382
-0.03045,0.96088,-0.27526,1.14594,0.15831,1.01016
-0.02418,0.94169,-0.33558,0.68275,0.42731,0.15408
0.00949,0.92385,-0.38263,0.42998,0.56479,-0.21813
0.03075,0.90701,-0.41996,-0.09749,0.90608,-0.31655
0.04376,0.89132,-0.45124,-0.8057,0.49729,0.27455
0.06593,0.88498,-0.46092,-0.71386,0.29837,0.25181
0.07838,0.88601,-0.45698,-0.39851,-0.04272,0.24673
0.08209,0.8948,-0.43884,0.0886,-0.30479,0.3564
0.07332,0.90972,-0.40867,0.1504,-0.27221,0.41159
0.05703,0.92647,-0.37199,0.01328,-0.12232,0.47505
0.04473,0.94432,-0.32596,-0.21098,-0.18354,0.45313
0.03217,0.96201,-0.27109,-0.25422,-0.27274,0.43824
0.01749,0.97713,-0.21187,-0.27039,-0.38123,0.28986
0.00707,0.9872,-0.15929,-0.16515,-0.33403,-0.03487
0.00185,0.99482,-0.10151,0.0538,-0.22982,0.03445
-0.01443,0.99954,-0.02621,0.41236,0.04775,0.35066
-0.02987,0.99856,0.04434,0.31035,0.35003,-0.4988
-0.02006,0.9951,0.0967,0.93792,0.27881,-2.01395
0.00493,0.99616,0.08732,0.51304,-0.78703,-2.07723
0.0259,0.99494,0.097,0.12153,-1.12195,-1.09841
0.03562,0.99203,0.12076,-0.37095,-1.47523,1.15423
0.02553,0.99006,0.13818,-0.65123,-1.38138,0.16175
0.00966,0.98502,0.17212,-0.51378,0.50353,-0.70244
-0.01328,0.98396,0.17779,0.0544,2.52618,0.48319
-0.05957,0.98392,0.1683,1.00178,1.42181,-0.75972
-0.04118,0.97746,0.20699,1.52407,0.67134,-1.17541
-0.01569,0.97915,0.20248,0.97003,1.73098,-1.30143
0.00258,0.98107,0.19357,-0.57099,-0.17328,0.26398
0.01134,0.98141,0.1915,-0.39028,-0.74081,0.37794
0.00905,0.98212,0.18795,-0.44457,-0.65816,0.58023
-0.01295,0.98054,0.19584,-0.41873,-0.04745,0.54107
-0.03214,0.97534,0.21831,0.15903,0.41242,-0.02853
-0.03932,0.96663,0.25307,0.39284,0.46055,-0.5221
-0.02109,0.9436,0.33038,1.13359,-0.11846,-1.62116
-0.01527,0.93728,0.34821,0.36986,-0.0528,-0.27341
-0.03745,0.93541,0.35153,0.13863,-0.08652,-0.30395
-0.05245,0.93311,0.3557,-0.64898,0.26182,-1.62389
-0.05095,0.94055,0.33577,-0.59038,0.31105,-1.38022
-0.06905,0.94864,0.30867,-0.29994,-0.13497,-0.30791
-0.10833,0.95653,0.27073,0.19704,-0.18457,0.02573
-0.14753,0.96475,0.21785,0.57333,-0.03449,0.00488
-0.17087,0.97055,0.16972,0.87772,0.59103,-0.01188
-0.17913,0.97522,0.12978,1.28467,0.816,0.01798
-0.1802,0.98033,0.0804,1.36806,1.07862,-0.278
-0.15863,0.98702,0.02458,1.22865,1.29447,-0.25313
-0.12046,0.99222,-0.03116,0.75212,1.12012,0.03781
-0.07436,0.99291,-0.0926,0.36687,1.08207,0.28146
-0.02055,0.98933,-0.1442,0.04244,1.23676,0.48742
0.03105,0.98735,-0.15546,-0.22371,0.80012,0.78594
0.08708,0.98518,-0.14769,0.14432,0.24672,0.09787
0.12576,0.97767,-0.16833,0.19991,0.0657,0.05464
0.13649,0.97329,-0.18457,0.15544,-0.21232,0.39283
0.13941,0.97241,-0.18701,-0.02077,-0.55927,0.83287
0.13425,0.97348,-0.18519,-0.10855,-0.61086,0.89105
0.1198,0.97602,-0.18168,-0.35898,-0.90731,0.91727
0.10392,0.9802,-0.16848,-0.5282,-0.98965,0.66044
0.09247,0.98568,-0.14097,-0.51311,-0.9723,0.56468
0.08457,0.99159,-0.09783,-0.50621,-0.90761,0.64243
0.07298,0.99649,-0.04066,-0.57894,0.82745,-1.62133
0.06202,0.99616,-0.06163,-0.53358,2.38029,-2.67051
0.04417,0.99128,-0.12408,-0.86951,0.84626,-1.84555
0.0333,0.98433,-0.17312,-0.05136,-0.61201,-0.94161
0.02448,0.97714,-0.21113,0.02258,-0.78633,-1.12757
0.03556,0.98243,-0.18315,1.73887,1.57242,2.22833
0.03223,0.97871,-0.20265,-0.88492,0.48651,0.66369
0.02124,0.97227,-0.23287,-1.25914,0.02399,0.43267
0.00242,0.976,-0.2177,0.29109,-0.67521,0.99755
-0.01996,0.98174,-0.18915,0.74761,-0.31307,1.22186
-0.0318,0.98332,-0.17905,0.64558,0.05192,1.01528
-0.02853,0.98583,-0.16523,0.55404,1.22559,0.5259
-0.02944,0.98989,-0.13869,0.54105,0.5733,0.26478
-0.03609,0.99385,-0.10463,0.52883,0.2963,0.14078
-0.03845,0.99716,-0.06464,0.30406,0.10335,0.02062
-0.02161,0.99947,-0.02391,0.19886,-0.02896,0.07996
0.01084,0.9998,0.01616,0.05921,-0.03546,0.08023
0.05115,0.99693,0.05913,-0.25732,-0.19563,-0.00144
0.08765,0.99018,0.10878,-0.4374,-0.23921,-0.21779
0.11656,0.9791,0.1666,-0.50262,-0.21727,-0.26366
0.1355,0.96678,0.21667,-0.36786,-0.20783,-0.32601
0.13638,0.9601,0.2441,-0.2971,-0.06081,-0.26726
0.12282,0.95919,0.25465,-0.22641,0.05361,-0.22737
0.11001,0.95967,0.25867,-0.15673,0.16392,-0.17148
0.10609,0.95683,0.27054,-0.1331,0.0094,-0.17842
0.10411,0.94862,0.29876,-0.01375,-0.2077,-0.12126
0.09859,0.93868,0.33034,0.21847,0.35898,-0.37492
0.09064,0.93174,0.35161,0.26912,0.43571,-0.5704
0.08406,0.92454,0.37166,0.29288,0.4394,-0.73485
0.08865,0.91215,0.40012,0.1165,0.30103,-0.73036
0.09901,0.90756,0.40804,-0.09157,0.23181,-0.18433
0.09835,0.91362,0.39445,-0.14017,0.22742,-0.21652
0.08711,0.91992,0.38227,-0.03673,0.31006,-0.38785
0.07088,0.92576,0.37136,0.37925,0.59197,-0.50515
0.05805,0.93746,0.34317,0.64341,0.71046,-0.4908
0.04791,0.95517,0.29212,0.62232,0.52068,-0.32173
0.04496,0.97231,0.22929,0.22951,0.09729,-0.26598
0.04625,0.9852,0.16498,0.01169,0.18591,-0.18691
0.04249,0.99458,0.09477,0.08871,0.37143,0.0737
0.02894,0.99916,0.02876,0.46334,0.32358,0.60821
0.01513,0.99948,-0.02818,0.52597,0.33298,0.64154
0.00923,0.99615,-0.0871,0.50745,0.29133,0.56296
0.01271,0.98902,-0.14719,0.47871,0.13957,0.30319
0.02372,0.98035,-0.19577,0.50019,0.15879,0.1955
0.03983,0.97613,-0.21346,0.485,0.12311,0.17723
0.06466,0.9737,-0.21844,0.29458,0.1465,0.43751
0.08681,0.96527,-0.24637,0.26489,0.13695,0.58115
0.09421,0.95247,-0.28967,0.20453,0.09581,0.64021
0.08853,0.93872,-0.33308,-0.06627,-0.08707,0.61226
0.0813,0.9245,-0.37238,-0.15559,-0.14352,0.60924
0.07359,0.91324,-0.4007,-0.34761,-0.27459,0.68169
0.06302,0.90572,-0.41915,-0.25923,-0.24222,0.72495
0.05069,0.90161,-0.42954,-0.1673,-0.21836,0.73919
0.04312,0.90128,-0.43107,-0.19352,-0.23508,0.68605
0.04133,0.90485,-0.42369,-0.37188,-0.40901,0.54755
0.04481,0.91189,-0.40797,-0.42286,-0.45925,0.46309
0.0532,0.923,-0.3811,-0.42631,-0.40632,0.33018
0.06381,0.93752,-0.34201,-0.48735,0.43353,-0.06882
0.07173,0.95077,-0.30145,-0.39662,0.76775,-0.5365
0.07709,0.95482,-0.28697,0.07226,0.70623,-1.41998
0.07905,0.94801,-0.30823,0.38275,-0.04856,-1.19382
0.09111,0.93978,-0.3294,0.61811,-0.47796,-0.47959
0.10777,0.94433,-0.31083,0.12021,-0.14456,1.855
0.11746,0.95387,-0.27625,-0.05682,0.56663,1.35258
0.10323,0.96423,-0.2441,-0.31879,1.56331,-2.03677
0.0884,0.96414,-0.25022,0.00201,-0.27156,0.87574
0.0813,0.96736,-0.23997,-0.0852,-0.13016,0.78356
0.07721,0.97103,-0.22611,-0.07866,-0.08213,0.77788
0.06918,0.97677,-0.20278,-0.0839,-0.05195,0.63146
0.05988,0.982,-0.17908,0.03823,-0.06893,0.42624
0.04769,0.98532,-0.16387,0.08581,-0.02736,0.394
0.03287,0.98831,-0.14878,-0.04396,0.18423,0.22482
0.02174,0.99189,-0.12515,-0.07495,0.23862,0.14897
0.02293,0.99496,-0.09747,0.0266,0.13522,0.13236
0.02814,0.99657,-0.07775,0.02223,-0.04608,0.18197
0.03757,0.99712,-0.06573,-0.00437,-0.06791,0.22313
0.05354,0.9972,-0.05204,-0.04478,-0.14658,0.24717
0.07056,0.99691,-0.03429,-0.09412,-0.24566,0.33794
0.08534,0.99625,-0.0137,-0.11101,-0.16461,0.29633
0.09515,0.99541,0.00919,-0.13652,-0.02187,0.20146
0.09892,0.99458,0.03182,-0.12957,0.0447,-0.0699
0.0968,0.99394,0.05196,-0.12746,0.04534,-0.09004
0.09015,0.99322,0.07325,0.05787,-0.02401,-0.17988
0.08661,0.99143,0.0977,0.12991,0.03169,-0.09001
0.08868,0.98839,0.12331,0.1707,0.12171,-0.12821
0.09284,0.98374,0.15366,0.21661,0.20605,-0.57679
0.09819,0.97446,0.2019,-0.00556,0.21271,-1.14708
0.10177,0.97197,0.21186,-0.09866,0.11943,-0.32515
0.09714,0.97815,0.18376,-0.04152,0.14836,-0.12914
0.08593,0.98485,0.15056,0.13755,0.21947,0.11302
0.0726,0.99071,0.11492,0.25501,0.47455,0.21088
0.06112,0.99523,0.07595,0.33338,0.56685,0.2015
0.05082,0.99792,0.0393,0.10787,0.19421,-0.14141
0.04263,0.99908,0.0008,-0.44067,0.15094,-0.43234
0.02391,0.99763,-0.06443,-0.36308,0.16518,-0.15956
0.0002,0.98987,-0.14192,-0.11094,0.33093,0.24234
-0.0167,0.97586,-0.21772,0.07044,0.21288,0.69029
-0.01233,0.95521,-0.29564,0.08667,0.24938,0.67405
0.00138,0.93472,-0.35537,0.42753,0.45174,0.91123
-0.00225,0.92107,-0.38938,0.52606,0.19578,0.52291
-0.01118,0.91828,-0.39576,0.48348,0.1839,0.12785
0.00337,0.91538,-0.40256,0.33266,0.17913,-0.09173
0.01645,0.90474,-0.42563,-0.07453,0.03165,0.59382
0.00615,0.89372,-0.44856,-0.20578,-0.00334,0.71059
-0.01164,0.88442,-0.46653,-0.38043,-0.2319,0.65862
-0.02855,0.8746,-0.484,-0.31871,-0.24972,0.61239
-0.04174,0.8649,-0.5002,-0.20176,-0.30806,0.50954
-0.04273,0.85796,-0.51192,-0.15677,-0.1927,0.53206
-0.03089,0.85426,-0.51892,-0.18241,-0.09744,0.51047
