gravity.x,gravity.y,gravity.z,userAcceleration.x,userAcceleration.y,userAcceleration.z
0.15255,0.98791,0.02739,0.45649,0.37816,0.04066
0.13951,0.98634,0.08755,0.56726,0.41603,-0.4091
0.12527,0.98117,0.14698,0.42986,0.55548,0.05326
0.1065,0.97296,0.20495,0.36331,0.6126,0.07245
0.08775,0.96233,0.25733,0.0892,0.47365,-0.13071
0.06497,0.9503,0.30449,0.09774,0.13798,-0.11726
0.04244,0.93785,0.34443,0.08832,0.01537,-0.42629
0.02454,0.92363,0.38251,0.04109,-0.07017,-0.61977
0.01356,0.9059,0.42326,0.00568,-0.27907,-0.58541
0.01115,0.88751,0.46065,0.07952,-0.41542,-0.59838
0.01881,0.87033,0.49211,0.09107,-0.56069,-0.61444
0.03178,0.85696,0.51439,0.17122,-0.59042,-0.48449
0.04684,0.85019,0.52438,0.24576,-0.61308,-0.43655
0.06173,0.85015,0.5229,0.26717,-0.63168,-0.37707
0.07384,0.85652,0.5108,0.01205,-0.61722,-0.26574
0.08306,0.86953,0.48683,-0.05129,-0.57107,-0.20564
0.08653,0.88719,0.45322,-0.089,-0.46008,-0.12116
0.0834,0.90419,0.41891,0.00925,0.05805,0.58322
0.07685,0.91344,0.39965,0.0158,0.0488,0.60247
0.07979,0.90936,0.40828,0.22716,0.75412,0.75409
0.07973,0.90085,0.42673,0.03134,0.71305,0.31489
0.07445,0.89253,0.44479,-0.03094,0.48706,0.15897
0.06915,0.88767,0.45526,-0.21027,-0.38098,0.42978
0.07221,0.88849,0.45317,-0.02393,-0.57284,0.54686
0.07591,0.89625,0.43699,0.02987,-0.18565,0.31348
0.05567,0.91204,0.4063,0.30424,0.43047,-0.25473
0.01885,0.9215,0.38793,0.33698,1.50955,-1.45767
0.0133,0.91487,0.40351,0.66689,0.82229,-0.19592
0.02649,0.91331,0.4064,0.77395,-1.34498,-0.31452
0.0387,0.92321,0.38233,0.53666,-1.25306,0.03439
0.01531,0.9505,0.31034,-0.03571,-0.642,0.31092
0.00751,0.96673,0.25568,-0.09429,0.61162,-1.36974
0.01982,0.97075,0.23927,-0.18766,0.98897,-0.26289
0.03007,0.97772,0.20776,-0.10572,0.20988,0.07628
0.03735,0.98566,0.16455,0.07577,-0.25016,-0.03599
0.04895,0.99121,0.12288,0.11273,-0.33638,-0.16902
0.06081,0.99423,0.0884,0.07096,-0.33822,-0.16945
0.07203,0.9958,0.05656,0.00753,-0.02531,-0.00344
0.07949,0.9966,0.02165,-0.01774,0.05864,0.0525
0.08757,0.99608,-0.01192,-0.09833,-0.12386,0.10088
0.09879,0.99426,-0.04093,-0.08794,-0.19654,0.01351
0.11101,0.99156,-0.06699,-0.11108,-0.14102,-0.01089
0.1256,0.98772,-0.09289,-0.10029,-0.1187,0.09548
0.14198,0.98248,-0.12071,-0.09161,-0.02772,0.13392
0.15738,0.97591,-0.15108,-0.2111,0.08062,0.17875
0.17005,0.96938,-0.17713,-0.29048,0.05431,0.24185
0.17876,0.96444,-0.1947,-0.3283,0.07689,0.43702
0.18809,0.96087,-0.20332,-0.19498,0.07036,0.28752
0.19934,0.95821,-0.20518,-0.17975,0.09264,0.20378
0.20602,0.95664,-0.20589,-0.36009,0.32328,0.29534
0.20701,0.95798,-0.19856,-0.39733,0.45076,0.31198
0.20061,0.96315,-0.17915,-0.42586,0.61495,0.30719
0.1829,0.97299,-0.14084,-0.35764,0.59192,-0.0251
0.1589,0.98376,-0.08346,0.04774,0.65833,0.46949
0.13915,0.99013,-0.01656,0.46664,0.53529,0.11853
0.12623,0.99091,0.04652,0.6158,0.41366,-0.4545
0.11769,0.98727,0.107,0.62703,0.39494,-0.09332
0.09959,0.98037,0.17015,0.58064,0.47852,0.07963
0.08297,0.97025,0.22742,0.11208,0.60128,-0.4874
0.06383,0.9575,0.28126,-0.01505,0.23332,-0.03587
0.04234,0.94357,0.32846,-0.01884,0.08762,-0.21471
0.02468,0.92762,0.3727,0.11451,-0.00404,-0.61525
0.01516,0.90762,0.41951,0.08178,-0.09746,-0.71367
0.01552,0.88597,0.46348,0.0802,-0.16513,-0.74508
0.02241,0.86622,0.49916,0.06917,-0.63192,-0.63275
0.03406,0.85062,0.52468,0.10205,-0.74181,-0.52842
0.05012,0.84211,0.53697,0.12844,-0.72982,-0.51697
0.06711,0.84193,0.53539,0.18495,-0.70724,-0.40168
0.08338,0.8497,0.52064,0.13322,-0.71984,-0.32884
0.09836,0.86438,0.49313,-0.02216,-0.64778,-0.22803
0.11068,0.88352,0.45512,-0.16152,-0.46211,-0.04467
0.11874,0.90227,0.41449,-0.16868,-0.1368,0.39468
0.11574,0.91114,0.3955,-0.16541,0.47396,0.72292
0.12075,0.9035,0.41122,0.28902,1.07305,0.99186
0.11051,0.89787,0.42615,0.44312,0.54793,0.66888
0.09523,0.89335,0.43914,0.27387,0.20422,0.08663
0.08464,0.89102,0.44601,0.20475,-0.13243,0.30019
0.08354,0.88418,0.45962,0.51523,0.5254,0.60639
0.0803,0.87775,0.47235,0.39788,0.99123,0.19796
0.06143,0.87683,0.47686,-0.11735,0.46593,-1.23753
0.0423,0.88865,0.45662,0.56878,-1.59411,-0.71822
0.03859,0.89744,0.43945,0.85652,-1.72503,-0.69073
0.02059,0.91148,0.41084,-0.21918,0.21267,-0.36366
0.00305,0.93954,0.34243,-0.05333,1.13653,-1.30571
0.01832,0.95108,0.30838,-0.11659,1.26283,-0.91715
0.03023,0.96166,0.27256,-0.1932,0.20943,-0.18095
0.03782,0.97267,0.2291,0.10105,-0.25582,-0.05925
0.04933,0.98087,0.18829,0.19263,-0.35015,-0.24047
0.06525,0.98649,0.1503,0.21034,-0.28789,-0.12172
0.08217,0.99033,0.11179,0.03438,-0.20229,0.05689
0.09614,0.99249,0.07561,-0.07507,-0.09215,0.07365
0.10497,0.99361,0.04141,-0.20665,0.05009,-0.03607
0.11278,0.99355,0.01158,-0.20526,-0.17635,0.08098
0.1217,0.99246,-0.01477,-0.16717,-0.26312,0.1259
0.13194,0.99048,-0.03923,-0.07911,-0.1417,0.00143
0.14338,0.98752,-0.06515,-0.08743,-0.05432,0.05929
0.1552,0.98341,-0.09385,-0.09749,-0.0631,0.04821
0.16604,0.97821,-0.12464,-0.19232,0.02437,0.16188
0.17633,0.97238,-0.15292,-0.22549,0.05782,0.33324
0.18639,0.96749,-0.17091,-0.20957,0.04821,0.48151
0.19625,0.96408,-0.17901,-0.21009,0.16585,0.39298
0.20601,0.96214,-0.17845,-0.39441,0.24436,0.03079
0.2127,0.96113,-0.17602,-0.46474,0.35469,0.09223
0.21635,0.96206,-0.16624,-0.37444,0.30496,0.44708
0.21214,0.96665,-0.14345,-0.47073,0.51942,0.28347
0.19869,0.97469,-0.1025,-0.69625,0.46314,0.01741
0.17606,0.98337,-0.04462,-0.26572,0.55258,0.38967
0.1536,0.98788,0.02229,0.37528,0.54442,0.12952
0.13187,0.98787,0.08195,0.58132,0.46614,-0.34285
0.1135,0.98366,0.13977,0.68744,0.60333,-0.18116
0.09068,0.97631,0.19643,0.56792,0.77265,0.14693
0.06815,0.96679,0.24629,0.18697,0.73651,-0.50536
0.04137,0.95511,0.29334,0.00268,0.62999,-0.28597
0.01211,0.94311,0.33224,0.09501,0.08335,-0.36787
-0.00866,0.9308,0.36544,0.08793,0.05204,-0.57408
-0.01892,0.91435,0.40448,0.07323,-0.00593,-0.64634
-0.02048,0.89531,0.44497,0.03702,-0.45244,-0.59675
-0.01341,0.87663,0.48097,0.09763,-0.60855,-0.64703
0.00243,0.86085,0.50884,0.07896,-0.6915,-0.67478
0.02326,0.85115,0.52441,0.23664,-0.54818,-0.53192
0.04498,0.84811,0.5279,0.2575,-0.5567,-0.5078
0.06511,0.85102,0.52108,0.2701,-0.56463,-0.46102
0.08275,0.85969,0.50406,-0.00089,-0.59466,-0.36147
0.09776,0.87485,0.47443,-0.06305,-0.54294,-0.27715
0.10773,0.89381,0.43532,-0.08502,-0.07644,0.3306
0.10605,0.90789,0.40557,0.03564,0.44013,0.83681
0.10384,0.9067,0.40879,0.38792,1.17246,0.90152
0.10437,0.89724,0.42903,0.28294,0.68397,0.64778
0.09652,0.88931,0.447,0.07323,0.23544,0.23167
0.08485,0.88484,0.45811,-0.06774,-0.05619,0.19544
0.07819,0.88396,0.46098,-0.22257,-0.85396,0.34122
0.08529,0.8858,0.45616,0.11868,-0.08067,0.3084
0.07952,0.89798,0.43279,0.11006,0.20633,0.16927
0.04462,0.91026,0.41162,0.12599,1.66139,-1.46301
0.02975,0.90687,0.42037,0.7147,0.44448,-0.28049
0.0305,0.90461,0.42514,0.74323,-0.82667,-0.15757
0.04502,0.91011,0.41191,0.37578,-1.06776,0.383
0.025,0.93838,0.34471,-0.34377,0.32594,-1.05514
0.02005,0.95639,0.29139,-0.24546,0.88107,-1.18281
0.03068,0.96224,0.27047,-0.36139,1.08615,-0.25864
0.04013,0.97047,0.23786,-0.11944,0.08622,-0.1088
0.04582,0.97949,0.19624,0.08675,-0.30412,-0.102
0.05777,0.98556,0.15917,0.22285,-0.42454,-0.05682
0.07093,0.98954,0.12565,0.3386,-0.43453,-0.01865
0.08247,0.99217,0.09381,0.19178,-0.23326,0.09795
0.08975,0.99402,0.06216,0.00493,0.05354,-0.06707
0.09573,0.99481,0.03453,-0.13644,-0.06533,0.02292
0.10435,0.99448,0.0106,-0.16324,-0.14071,0.08126
0.11456,0.99336,-0.0106,-0.16217,-0.14087,-0.07915
0.12505,0.9916,-0.03297,-0.22858,-0.05317,0.07676
0.13587,0.98899,-0.05868,-0.24168,-0.03052,0.14434
0.14696,0.98503,-0.09012,-0.1256,0.01616,0.16491
0.15932,0.97974,-0.12136,-0.17934,0.0135,0.20771
0.1707,0.97477,-0.14379,-0.20593,0.01979,0.19332
0.18072,0.97033,-0.16065,-0.21174,0.16194,0.25809
0.19262,0.96714,-0.16596,-0.23704,0.15666,0.17956
0.20257,0.96429,-0.1706,-0.26401,0.2509,0.12483
0.20984,0.96262,-0.17125,-0.20779,0.20294,0.44919
0.21347,0.96388,-0.15924,-0.27836,0.32837,0.45491
0.20748,0.96878,-0.13571,-0.39083,0.58994,0.29031
0.18837,0.97716,-0.09832,-0.53981,0.46903,-0.05235
0.16373,0.98554,-0.04374,-0.04236,0.63921,0.45964
0.14232,0.98961,0.02049,0.422,0.45915,0.26814
0.12565,0.98879,0.08063,0.6796,0.33802,-0.41814
0.11095,0.9842,0.13798,0.52224,0.45322,0.08869
0.09144,0.97662,0.19453,0.39018,0.53599,0.13729
0.07355,0.96571,0.24898,-0.18511,0.61527,-0.15172
0.04624,0.95446,0.29474,-0.17159,0.20544,-0.0501
0.01662,0.94334,0.3314,0.01125,0.03243,-0.51719
-0.00662,0.92963,0.36844,0.11653,-0.14177,-0.62921
-0.02176,0.91241,0.40869,0.12375,-0.28644,-0.54811
-0.02673,0.89698,0.44126,0.18747,-0.42286,-0.47294
-0.02264,0.88318,0.46848,0.20353,-0.48887,-0.57758
-0.0145,0.87211,0.48909,0.22057,-0.55261,-0.37564
-0.00452,0.86673,0.49875,0.20868,-0.56652,-0.37706
0.00785,0.86694,0.49835,0.22155,-0.66467,-0.3801
0.02156,0.87162,0.48971,0.08963,-0.61788,-0.3261
0.03461,0.88134,0.47121,0.02943,-0.62595,-0.26734
0.0438,0.89595,0.442,-0.07076,-0.4017,0.08566
0.04698,0.91187,0.40778,0.00635,-0.16167,0.31331
0.05005,0.92284,0.38192,0.10088,0.02086,0.40834
0.05958,0.92166,0.3834,0.14414,0.78263,0.79583
0.05672,0.91571,0.39782,-0.05042,0.90927,0.62226
0.0406,0.90913,0.41454,0.0177,0.63912,0.2783
0.02557,0.90392,0.42693,-0.12925,-0.39187,0.4999
0.02307,0.90247,0.43013,-0.23831,-0.95899,0.51297
0.02537,0.9062,0.42208,-0.00891,-0.09476,0.13961
0.01513,0.9218,0.38737,0.27009,0.70171,-0.90108
-0.01289,0.92752,0.37355,0.37875,1.65485,-1.37335
-0.02052,0.91701,0.39833,0.65718,0.47134,0.39545
-0.0079,0.91153,0.41115,0.90814,-0.77327,0.06157
0.00906,0.92117,0.38904,0.42948,-1.14095,0.26391
-0.01456,0.95057,0.31016,-0.15895,-0.45098,-0.00276
-0.01762,0.9652,0.26091,-0.3027,0.89419,-1.22015
-0.00555,0.96978,0.24392,-0.23081,0.51411,-0.12517
0.00605,0.97673,0.21437,-0.0541,0.00113,-0.06215
0.02071,0.98478,0.17256,0.04982,-0.17845,-0.08012
0.03798,0.99036,0.13318,0.34032,-0.35975,-0.07374
0.05405,0.99365,0.09873,0.32424,-0.36303,-0.03928
0.06968,0.99548,0.06454,0.18223,-0.18318,0.15163
0.08143,0.99627,0.02849,0.0156,0.03849,0.06229
0.0935,0.99561,-0.0044,-0.18188,-0.08797,0.10595
0.10621,0.99374,-0.03465,-0.19336,-0.17657,0.08915
0.11912,0.991,-0.06106,-0.1167,-0.26085,-0.07213
0.13279,0.98735,-0.08668,-0.12383,-0.21279,0.01147
0.14814,0.98256,-0.11235,-0.10317,-0.08353,0.12156
0.16315,0.97655,-0.14048,-0.12162,0.01653,0.07894
0.176,0.97012,-0.16703,-0.2072,-0.01989,0.12071
0.18591,0.96485,-0.18573,-0.24106,0.00385,0.31117
0.19432,0.96096,-0.19698,-0.2079,0.21177,0.42284
0.20432,0.95842,-0.19921,-0.25208,0.32099,0.25164
0.21245,0.95669,-0.19902,-0.41958,0.45008,0.16716
0.21492,0.95777,-0.19103,-0.46366,0.61944,0.38807
0.20883,0.96329,-0.16869,-0.50387,0.60204,0.27232
0.18772,0.97321,-0.13276,-0.3714,0.76701,-0.03011
0.15827,0.98391,-0.08288,0.06947,0.70711,0.42095
0.13516,0.99067,-0.01719,0.57103,0.46657,0.20344
0.12371,0.99125,0.04591,0.64796,0.2321,-0.35012
0.11706,0.98757,0.10484,0.63792,0.16391,-0.10969
0.10155,0.98101,0.16526,0.41807,0.3968,0.04513
0.08712,0.97083,0.22336,0.17585,0.53895,-0.22581
0.06768,0.95985,0.27224,0.02587,0.33309,-0.08948
0.04333,0.94838,0.31416,0.01991,0.10224,-0.25715
0.01916,0.93579,0.35202,0.05164,-0.06505,-0.52187
0.00255,0.92031,0.39118,0.0299,-0.29739,-0.58469
-0.00123,0.90267,0.43033,0.01197,-0.47095,-0.64562
0.00267,0.88564,0.46437,0.08425,-0.61392,-0.5285
0.00894,0.87194,0.48954,0.17296,-0.58985,-0.3953
0.01726,0.86428,0.50272,0.21538,-0.54076,-0.41402
0.02789,0.86317,0.50413,0.21736,-0.5491,-0.37869
0.03932,0.86833,0.49442,0.12942,-0.565,-0.29108
0.04945,0.87958,0.47317,-0.0267,-0.54135,-0.17678
0.05529,0.8954,0.4418,-0.12989,-0.37256,-0.00464
0.05703,0.90966,0.41142,-0.16779,-0.07172,0.2066
0.05498,0.91556,0.3984,-0.12449,0.42711,0.45004
0.05611,0.91193,0.40649,-0.10708,0.57187,0.59567
0.05374,0.90719,0.41727,0.31136,0.46569,0.48942
0.04838,0.90067,0.4318,0.30145,0.39604,0.24652
0.04495,0.89467,0.44445,0.22005,0.23733,0.15765
0.0431,0.89341,0.44717,0.07388,-0.4641,0.41446
0.04575,0.89723,0.4392,0.14045,-0.36172,0.35695
0.03864,0.90476,0.42416,0.46461,0.57128,0.04216
0.01441,0.91049,0.41327,0.02851,1.64642,-0.98816
-0.00511,0.90976,0.4151,0.2284,0.23282,-0.65536
-0.00729,0.91325,0.40733,0.54663,-0.98553,-0.46752
0.01009,0.91652,0.39987,0.14356,-0.47558,0.42061
-0.00701,0.94035,0.34013,-0.32269,0.45243,-0.34398
-0.00964,0.96096,0.27652,-0.365,0.84686,-1.20435
0.00039,0.9683,0.2498,-0.20705,0.44674,-0.0695
0.01292,0.97597,0.2175,-0.10314,0.06651,-0.05819
0.0263,0.98347,0.17916,-0.00201,-0.19785,-0.05005
0.04286,0.98915,0.14048,0.18819,-0.32155,-0.14203
0.05739,0.99293,0.1039,0.19409,-0.27555,-0.08674
0.0688,0.99528,0.0684,0.00891,0.00417,0.02911
0.07493,0.99666,0.03245,-0.05285,0.0935,-0.00671
0.08058,0.99675,-0.00042,-0.11696,-0.11525,0.11365
0.08919,0.99555,-0.03027,-0.09899,-0.23193,0.1099
0.10086,0.99329,-0.05652,-0.09077,-0.20933,-0.07539
0.1139,0.9901,-0.08208,-0.0873,-0.11064,-0.00265
0.12758,0.98581,-0.1091,-0.05474,-0.03484,0.07029
0.14122,0.9802,-0.13875,-0.08976,0.07181,0.14169
0.154,0.97362,-0.16834,-0.2385,0.10383,0.22221
0.16432,0.96808,-0.18923,-0.3198,0.09713,0.36224
0.17176,0.96401,-0.20291,-0.1805,0.19294,0.46211
0.18108,0.96141,-0.20711,-0.18325,0.14448,0.28909
0.19031,0.95956,-0.20743,-0.29303,0.37108,0.1979
0.19633,0.95895,-0.20459,-0.2953,0.35841,0.45162
0.19745,0.9613,-0.19213,-0.27844,0.44678,0.38908
0.19158,0.96752,-0.1649,-0.53753,0.43564,0.10495
0.17419,0.97697,-0.12326,-0.39136,0.46523,0.12285
0.15157,0.98637,-0.06406,-0.19963,0.48819,0.39176
0.13234,0.9912,-0.0001,0.32678,0.41546,-0.24404
0.11899,0.9912,0.05796,0.50966,0.37332,-0.46517
0.10617,0.98765,0.11517,0.52948,0.33107,-0.24066
0.08778,0.98101,0.17296,0.36991,0.56451,0.00985
0.07093,0.97126,0.22718,0.18635,0.46859,-0.2999
0.04749,0.9607,0.27348,0.15481,0.17387,0.01141
0.02246,0.9501,0.31113,0.14087,-0.02246,-0.33483
0.00104,0.9379,0.34691,0.03992,-0.11223,-0.53585
-0.01518,0.92255,0.38558,0.0561,-0.18537,-0.47504
-0.02221,0.90564,0.42346,0.0743,-0.54718,-0.54081
-0.02115,0.88949,0.45646,0.14911,-0.66488,-0.48913
-0.01276,0.87682,0.48065,0.19511,-0.62499,-0.43833
0.00234,0.87009,0.49288,0.25094,-0.61565,-0.38565
0.02102,0.87001,0.49257,0.17425,-0.62561,-0.27148
0.03858,0.87579,0.48115,0.03985,-0.51334,-0.22464
0.05189,0.88661,0.4596,-0.04152,-0.44786,-0.1911
0.05838,0.90011,0.43173,-0.10215,-0.09584,0.13004
0.06038,0.91066,0.40871,-0.10538,0.03733,0.30885
0.06486,0.9131,0.40255,-0.04165,0.29241,0.78977
0.06986,0.90997,0.40874,-0.02698,0.28057,0.87719
0.06303,0.90602,0.4185,0.08495,0.4609,0.63147
0.05174,0.90123,0.43024,0.31293,0.29011,0.21855
0.04688,0.89721,0.43911,0.23037,-0.14797,0.41696
0.04677,0.89399,0.44564,0.35921,0.26199,0.36883
0.04635,0.89489,0.44388,0.37582,0.97798,-0.32586
0.03292,0.89299,0.44886,0.14264,1.36235,-0.80171
0.01974,0.89351,0.4486,0.16725,0.15052,-0.69297
0.02071,0.90276,0.42965,0.55026,-1.07545,-0.63624
0.01869,0.91519,0.40259,-0.1443,-0.29422,0.00384
0.00024,0.93778,0.34723,-0.43091,0.64988,-0.99718
0.00669,0.95242,0.3047,-0.18813,0.70279,-0.72848
0.02399,0.95996,0.27909,-0.2517,0.30697,-0.14272
0.03612,0.96972,0.24151,-0.15095,0.03392,4e-05
0.04673,0.9797,0.19495,0.16349,-0.22508,-0.15729
0.06015,0.98656,0.15191,0.263,-0.27837,-0.17969
0.0746,0.99067,0.11407,0.14792,-0.28563,-0.05301
0.08896,0.99312,0.07611,0.07268,-0.05162,0.11008
0.10039,0.99415,0.03982,-0.06899,0.0454,0.03159
0.10988,0.99392,0.0069,-0.1229,-0.02995,0.07218
0.12035,0.9925,-0.02154,-0.11122,-0.19716,-0.0538
0.13172,0.9902,-0.0465,-0.12606,-0.15536,-0.08385
0.14412,0.98685,-0.07324,-0.15085,-0.10887,-0.06585
0.15632,0.98224,-0.10379,-0.19706,0.09567,0.02361
0.16681,0.97632,-0.13778,-0.31426,0.12999,0.25786
0.1752,0.9706,-0.16503,-0.30983,0.0854,0.37936
0.18197,0.96696,-0.17854,-0.06452,0.15722,0.33564
0.18981,0.96437,-0.18429,-0.11289,0.10744,0.1497
0.1997,0.96284,-0.18181,-0.27326,0.25675,0.08498
0.20617,0.96156,-0.18135,-0.48388,0.3407,0.16045
0.2085,0.96155,-0.17872,-0.36748,0.53941,0.28289
0.20535,0.96482,-0.16419,-0.38172,0.51138,0.17939
0.18998,0.97235,-0.13577,-0.39591,0.58383,0.10083
0.16314,0.98199,-0.09527,-0.00791,0.59407,0.47291
0.13761,0.98975,-0.03808,0.44051,0.37662,0.17796
0.12002,0.99252,0.02244,0.58923,0.20629,-0.34392
0.10853,0.99099,0.07853,0.51115,0.20198,-0.13981
0.09258,0.98636,0.13607,0.3263,0.34478,0.12389
0.07457,0.97852,0.19221,0.11582,0.4892,-0.26335
0.055,0.96845,0.24307,0.10395,0.2039,-0.15025
0.03042,0.95706,0.28829,0.15552,0.15734,-0.3051
0.00723,0.94443,0.32864,0.15894,0.05832,-0.48109
-0.01093,0.92915,0.36955,0.12197,-0.1646,-0.46588
-0.02042,0.91208,0.4095,0.05411,-0.24158,-0.61868
-0.02025,0.89414,0.44734,0.10623,-0.4964,-0.49428
-0.01452,0.87898,0.47664,0.18477,-0.61604,-0.40884
-0.00347,0.86935,0.49418,0.20034,-0.60472,-0.41651
0.01243,0.86573,0.50036,0.26262,-0.57287,-0.4181
0.02999,0.86822,0.49528,0.18408,-0.61848,-0.3198
0.0467,0.87683,0.47853,-0.01484,-0.57696,-0.23947
0.05885,0.89042,0.45131,-0.10288,-0.44194,-0.10318
0.06555,0.90559,0.41907,-0.08203,-0.19558,0.19754
0.0684,0.91599,0.39533,-0.03253,0.30099,0.6542
0.06586,0.91571,0.39639,0.01666,0.61525,0.92799
0.06112,0.9097,0.41074,0.07165,0.521,0.76882
0.05139,0.9037,0.42507,0.08138,0.527,0.75449
0.04158,0.90077,0.4323,-0.12428,-0.16351,0.21052
0.0406,0.90067,0.43259,0.07462,-0.26284,0.32894
0.04442,0.90298,0.42738,0.30557,0.17995,0.26253
0.03719,0.9102,0.41249,0.31831,1.25531,-0.5884
0.01786,0.90805,0.41849,0.35805,2.14229,-0.64681
-0.00287,0.90044,0.43498,0.1434,0.72314,-0.32272
-0.00069,0.90689,0.42137,0.90273,-1.55722,-0.42998
0.01537,0.91728,0.39794,-0.44951,0.12968,0.23146
-0.00533,0.94116,0.33792,-0.74252,1.10387,-0.63117
-0.00134,0.96063,0.27781,-0.15598,0.83043,-0.77038
0.0182,0.96443,0.26372,-0.06835,0.1894,0.20845
0.03934,0.96955,0.24169,0.0435,-0.2707,0.3191
0.05283,0.97834,0.20015,0.26014,-0.32101,-0.15291
0.0674,0.98586,0.15339,0.154,-0.23467,-0.20905
0.08086,0.99013,0.11449,0.03962,-0.16878,-0.10981
0.09262,0.99249,0.07991,-0.14037,0.07187,0.09039
0.10131,0.99382,0.04532,-0.22809,0.04274,0.08882
0.10973,0.99385,0.01496,-0.19621,-0.0775,0.11901
0.1205,0.99265,-0.0111,-0.04095,-0.29448,0.00177
0.13427,0.99029,-0.03611,-0.05858,-0.18979,-0.13342
0.14914,0.98683,-0.06262,-0.08835,-0.04425,-0.11829
0.16299,0.98224,-0.0929,-0.08864,0.04646,0.06038
0.17582,0.97615,-0.12733,-0.21654,0.11435,0.23242
0.18762,0.96913,-0.15993,-0.31703,0.08967,0.32914
0.19825,0.96359,-0.17943,-0.22691,0.14667,0.479
0.20618,0.96,-0.18945,-0.21673,0.20618,0.28396
0.21353,0.95793,-0.19174,-0.38778,0.28515,0.04997
0.21878,0.95698,-0.19061,-0.4427,0.31881,0.23445
0.21879,0.95838,-0.1834,-0.44937,0.59593,0.24509
0.21138,0.96398,-0.16141,-0.37301,0.60077,0.09663
0.1912,0.97381,-0.12305,-0.2598,0.70428,-0.04099
0.16368,0.98387,-0.07222,0.03649,0.58909,0.40169
0.14133,0.98993,-0.00819,0.26277,0.413,0.32458
0.13242,0.98963,0.05558,0.62741,0.30207,-0.45477
0.12728,0.98508,0.11583,0.32672,0.36777,0.10492
0.11345,0.97763,0.17709,0.17317,0.38957,0.06992
0.09781,0.96684,0.23589,0.12182,0.36413,-0.16254
0.07929,0.95426,0.28826,0.08446,0.05004,-0.29503
0.05495,0.94188,0.33143,0.04467,0.05791,-0.4033
0.02822,0.92871,0.36973,-0.02583,0.11858,-0.55862
0.00839,0.91237,0.40927,-0.07457,-0.05648,-0.66253
-0.00055,0.89392,0.44822,0.01133,-0.35452,-0.58787
-0.00167,0.87689,0.48068,0.14646,-0.56981,-0.47959
0.00441,0.86514,0.5015,0.27923,-0.57079,-0.42434
0.01422,0.859,0.51177,0.2716,-0.50892,-0.42314
0.02459,0.85804,0.51299,0.22113,-0.48693,-0.39266
0.03276,0.86132,0.50701,0.11989,-0.51362,-0.33879
0.03593,0.86956,0.49251,0.03203,-0.57897,-0.25839
0.03449,0.88295,0.4682,-0.02484,-0.45965,-0.06563
0.02864,0.90002,0.43489,-0.02327,-0.26857,0.23395
0.02345,0.91567,0.40124,0.07049,0.03704,0.48068
0.02742,0.92214,0.38588,-0.09584,0.6929,0.80099
0.03169,0.91934,0.39217,-0.18205,0.77133,0.55056
0.02464,0.91397,0.40503,-0.18756,0.6912,0.3423
0.0173,0.90842,0.4177,-0.22986,-0.4223,0.46217
0.01935,0.90672,0.42128,-0.14605,-0.47288,0.49759
0.02908,0.91158,0.41009,-0.14178,-0.18228,0.38359
0.03068,0.92223,0.38542,0.66946,1.09509,-0.64345
0.01914,0.93454,0.35533,0.73797,1.73596,-1.25096
-0.00025,0.92848,0.37138,0.38866,1.30666,-0.47731
-0.01447,0.92378,0.38265,0.91602,-1.74975,-0.27927
-0.00963,0.93055,0.36603,0.72189,-1.22883,-0.17969
-0.01568,0.9447,0.32756,0.16919,-0.59449,0.16196
-0.03319,0.96864,0.24622,-0.34439,0.87146,-1.6319
-0.02394,0.98028,0.19616,-0.19595,0.84567,-0.62699
-0.00285,0.98191,0.18931,0.0756,-0.02525,0.17994
0.02209,0.98643,0.16269,0.24831,-0.48426,0.20903
0.04022,0.99248,0.11559,0.1509,-0.37632,-0.08011
0.0553,0.99602,0.06985,0.08726,-0.19277,-0.29595
0.06946,0.99695,0.03546,-0.05623,0.08513,-0.16411
0.08009,0.99679,7e-05,-0.24047,0.12103,0.12758
0.08859,0.99546,-0.03461,-0.10464,-0.06651,-0.02718
0.09998,0.99284,-0.0654,0.01488,-0.22668,-0.01383
0.11597,0.98878,-0.09413,0.05083,-0.19037,0.02061
0.13234,0.98385,-0.12052,-0.05629,-0.08956,0.04807
0.14621,0.9781,-0.14812,-0.25556,0.00916,0.13135
0.15782,0.97156,-0.1765,-0.20564,0.01531,0.18219
0.16851,0.96522,-0.19989,-0.17121,0.05973,0.30965
0.17934,0.96008,-0.21468,-0.11315,0.11648,0.47055
0.18961,0.9563,-0.22255,-0.09549,0.21867,0.32646
0.19796,0.95426,-0.22403,-0.1853,0.26759,0.19205
0.20376,0.95357,-0.22176,-0.46532,0.33992,0.22842
0.20635,0.95483,-0.21381,-0.41581,0.62523,0.38408
0.20407,0.96009,-0.19128,-0.4508,0.53264,0.12865
0.18844,0.96979,-0.15489,-0.4056,0.58732,-0.10512
0.16181,0.98112,-0.1059,0.17809,0.49482,0.47032
0.13649,0.98972,-0.04255,0.42056,0.43447,0.19103
0.11962,0.99262,0.01984,0.55079,0.39224,-0.20365
0.10959,0.99094,0.07758,0.40058,0.23136,0.15128
0.09518,0.98584,0.13803,0.35039,0.28912,0.18112
0.0814,0.97728,0.19568,0.30398,0.36926,0.01059
0.06857,0.96583,0.24994,0.173,0.13412,-0.14171
0.04925,0.95334,0.29783,0.13603,0.05137,-0.23755
0.02572,0.94045,0.33893,0.02775,-0.00109,-0.47597
0.00399,0.92595,0.3776,0.00295,-0.06704,-0.59946
-0.00645,0.90817,0.41855,-0.02513,-0.20509,-0.7033
-0.00825,0.89071,0.45449,0.11715,-0.54075,-0.5106
-0.00385,0.8764,0.48156,0.22053,-0.57399,-0.46728
0.00511,0.86758,0.49727,0.21157,-0.56516,-0.48299
0.01691,0.86579,0.50012,0.27594,-0.59189,-0.36016
0.02855,0.87037,0.49156,0.1957,-0.61277,-0.28903
0.03615,0.881,0.47173,0.01466,-0.64552,-0.23724
0.03853,0.89664,0.44107,-0.09473,-0.38579,-0.06715
0.03653,0.91325,0.40576,-0.13318,-0.13859,0.33109
0.0328,0.9238,0.38147,-0.08695,0.05297,0.61153
0.02859,0.91947,0.39212,-0.01127,1.42001,0.87917
0.02093,0.90688,0.42086,-0.02154,1.17733,0.38996
0.01412,0.89404,0.44775,0.01274,0.57978,0.11247
0.01262,0.88652,0.46251,0.03322,-0.9003,0.26771
0.01851,0.8848,0.46559,0.33786,-0.15038,0.25995
0.02607,0.89174,0.45178,0.37025,0.3045,0.2101
0.01426,0.90575,0.42356,0.29113,2.28129,-1.20491
-0.01287,0.89965,0.43642,0.06041,0.63166,-0.18375
-0.02809,0.8935,0.44818,1.10245,-2.08823,-0.40548
-0.01095,0.90241,0.43073,0.95866,-1.71668,-0.37316
-0.00575,0.91825,0.39596,-0.5761,0.11682,0.40205
-0.03393,0.94794,0.31663,-0.71769,0.95436,-1.7943
-0.02657,0.96445,0.2629,-0.23738,0.9219,-1.74595
-0.00551,0.96734,0.2534,0.03751,-0.2196,0.33503
0.01467,0.97313,0.22978,0.01733,-0.22539,0.35864
0.02749,0.98245,0.18447,0.35348,-0.34546,-0.11941
0.0408,0.98979,0.13653,0.40988,-0.21908,-0.27954
0.05377,0.99342,0.10113,0.29624,-0.22187,-0.29418
0.06731,0.99518,0.0713,-0.08474,0.04095,0.1197
0.07708,0.99622,0.03988,-0.25356,0.12112,0.08486
0.08464,0.99636,0.00942,-0.12503,-0.13102,0.02486
0.09459,0.99532,-0.01952,0.02276,-0.28379,-0.03753
0.10712,0.99318,-0.04584,-0.08121,-0.09562,-0.10596
0.12077,0.98992,-0.07397,-0.10758,-0.0593,-0.0579
0.13415,0.98539,-0.10492,-0.16183,0.02536,0.07868
0.14638,0.97954,-0.13812,-0.20005,0.12709,0.14147
0.15726,0.97317,-0.16796,-0.18021,0.20851,0.32881
0.16598,0.96816,-0.18738,-0.16708,0.26672,0.64165
0.17393,0.96473,-0.19757,-0.21582,0.26589,0.39982
0.18341,0.96302,-0.19735,-0.26939,0.3352,0.05976
0.19197,0.96196,-0.19437,-0.35649,0.29602,0.27038
0.19641,0.96259,-0.18665,-0.31915,0.53141,0.41555
0.19289,0.96605,-0.17189,-0.39021,0.51398,0.20471
0.18152,0.97345,-0.13945,-0.28759,0.44622,0.02414
0.16026,0.98241,-0.09585,-0.1261,0.40703,0.36597
0.1384,0.98972,-0.03608,0.01094,0.34813,0.31869
0.12174,0.99225,0.02487,0.43594,0.28707,-0.47106
0.11149,0.99041,0.08152,0.36736,0.28434,-0.12409
0.09822,0.9857,0.13689,0.33984,0.3174,0.03354
0.08218,0.97801,0.19163,0.18702,0.33006,-0.18473
0.06827,0.96804,0.24132,0.20443,0.14222,-0.06673
0.0482,0.95738,0.28475,0.20096,0.04306,-0.17099
0.02627,0.9461,0.32277,0.07999,0.02832,-0.46987
0.00495,0.9335,0.35852,0.01382,-0.07902,-0.57186
-0.00811,0.91785,0.39681,0.01019,-0.26385,-0.52607
-0.01373,0.90106,0.43346,0.04736,-0.46086,-0.45777
-0.01272,0.88596,0.46356,0.11817,-0.57908,-0.41745
-0.00652,0.87429,0.48534,0.20867,-0.54977,-0.39898
0.00159,0.86787,0.49677,0.23116,-0.5343,-0.35871
0.01095,0.86679,0.49853,0.18097,-0.58823,-0.25816
0.01732,0.87119,0.49062,0.08395,-0.61657,-0.20867
0.01829,0.88176,0.47132,0.00388,-0.38832,-0.04521
0.01672,0.89586,0.444,0.02318,-0.2891,0.05846
0.01511,0.90828,0.41806,0.02113,-0.07062,0.27443
0.01399,0.91427,0.40485,-0.17093,0.40699,0.47911
0.01568,0.91337,0.40681,-0.11923,0.28774,0.66832
0.01141,0.91104,0.41214,0.01056,0.27174,0.63611
0.00149,0.90757,0.41987,0.14883,0.22393,0.25915
-0.00623,0.90445,0.42651,0.11722,0.19928,0.38816
-0.00241,0.90358,0.4284,0.14146,0.33524,0.50935
0.0053,0.90423,0.42699,0.21376,1.53484,0.05112
-0.001,0.90016,0.43554,0.11242,1.16042,-0.73468
-0.03178,0.89426,0.4464,-0.00167,-0.1602,-0.79576
-0.05809,0.90687,0.41736,1.31297,-2.00674,-0.62184
-0.04445,0.91689,0.39664,0.85496,-1.04779,0.15129
-0.06401,0.93019,0.36143,-0.7258,1.35884,0.04978
-0.07606,0.95589,0.28369,-0.48153,0.93124,-1.62353
-0.06433,0.96519,0.25349,-0.27081,0.45838,-0.33182
-0.04313,0.97029,0.23802,0.06775,-0.28212,0.2547
-0.02197,0.97877,0.20376,0.35031,-0.49358,-0.09086
-0.00074,0.98696,0.16088,0.30224,-0.2812,-0.27859
0.01761,0.9928,0.11843,0.14005,0.00232,-0.13472
0.03242,0.99604,0.08272,-0.10735,0.09313,-0.10162
0.04359,0.99787,0.04843,-0.1624,0.12721,0.09703
0.0522,0.99853,0.01408,-0.10122,-0.1148,0.20337
0.06349,0.99781,-0.01791,-0.02556,-0.32892,0.07054
0.07793,0.9959,-0.04573,-0.05176,-0.25445,-0.18178
0.09357,0.99294,-0.07287,-0.10033,-0.08038,-0.16921
0.10931,0.98849,-0.10452,-0.05404,0.00072,0.10555
0.12444,0.98237,-0.13947,-0.09296,-0.0158,0.2447
0.13988,0.97577,-0.1682,-0.20327,0.08636,0.38818
0.15178,0.97058,-0.1869,-0.20311,0.21799,0.44873
0.16201,0.96688,-0.19721,-0.17521,0.22327,0.31707
0.17454,0.96445,-0.19837,-0.30053,0.29372,0.1063
0.18505,0.96279,-0.19694,-0.53272,0.47383,0.29452
0.18624,0.96338,-0.19289,-0.47,0.62712,0.26273
0.17737,0.96793,-0.17785,-0.43619,0.6211,-0.09295
0.15388,0.9767,-0.14955,-0.22592,0.7151,0.06603
0.1203,0.98674,-0.10889,0.15457,0.58276,0.49045
0.09208,0.99453,-0.04915,0.70688,0.30346,0.38209
0.07785,0.99686,0.01389,0.80006,0.11547,-0.27874
0.07161,0.9949,0.07094,0.67728,0.11287,-0.25528
0.05945,0.9897,0.13018,0.27188,0.32984,0.11085
0.045,0.98069,0.19026,0.21473,0.42917,0.06063
0.02912,0.9699,0.24171,0.07906,0.2935,-0.15538
0.00583,0.95819,0.28604,0.03538,0.03745,-0.30388
-0.0206,0.94564,0.32454,0.04363,0.00326,-0.46919
-0.04166,0.93145,0.36146,0.05328,-0.16723,-0.59698
-0.05124,0.91525,0.39959,0.05033,-0.39738,-0.50309
-0.05404,0.89927,0.43402,0.08161,-0.4486,-0.46012
-0.0518,0.88588,0.46098,0.29021,-0.54264,-0.3604
-0.04414,0.87717,0.47812,0.28255,-0.53393,-0.37753
-0.03291,0.87317,0.48628,0.28799,-0.63796,-0.37696
-0.0213,0.87363,0.48611,0.15062,-0.64595,-0.3174
-0.01054,0.87908,0.47654,0.06831,-0.60526,-0.25805
-0.00265,0.88973,0.45645,-0.04003,-0.3713,-0.09164
0.0008,0.90365,0.42825,-0.04373,-0.22116,0.12449
0.00323,0.91613,0.40083,-0.05402,-0.13215,0.28061
0.00666,0.92276,0.3853,-0.06004,0.33765,0.68669
0.00507,0.92263,0.38562,-0.09151,0.575,0.7349
-0.00929,0.9183,0.39576,0.10748,0.69833,0.48182
-0.02641,0.91179,0.40978,0.15362,0.15638,0.32487
-0.0349,0.90915,0.41497,0.28204,-0.35076,0.43601
-0.03065,0.91219,0.40859,0.17455,-0.07168,0.37933
-0.03056,0.91714,0.39737,0.46601,0.58851,-0.00746
-0.03832,0.92069,0.38838,0.56252,1.47268,-0.82976
-0.0504,0.91309,0.40461,0.33261,0.38876,-0.30787
-0.05549,0.91869,0.39103,0.83746,-1.55195,-0.41775
-0.04235,0.92951,0.36634,0.03373,-0.63884,0.12371
-0.05298,0.94856,0.31209,-0.52605,0.32919,-0.19434
-0.05596,0.96973,0.23763,-0.24374,0.90406,-1.03979
-0.03949,0.97614,0.21349,-0.23381,0.42024,0.1009
-0.01767,0.98055,0.19544,0.10976,-0.28604,0.10632
-0.00204,0.98765,0.15663,0.24191,-0.40688,0.01738
0.01272,0.99363,0.11192,0.34316,-0.35996,-0.06975
0.02715,0.99691,0.07362,0.25922,-0.27947,-0.06973
0.0404,0.99839,0.03961,-0.04675,0.07301,0.05821
0.0499,0.99873,0.00631,-0.13178,0.12537,0.06738
0.05839,0.99799,-0.02425,-0.16997,-0.0048,0.12718
0.0689,0.99632,-0.05088,-0.03696,-0.28863,0.00772
0.08211,0.9939,-0.07357,-0.11078,-0.18143,-0.08376
0.09681,0.99056,-0.09701,-0.10226,-0.01602,-0.05985
0.11104,0.98589,-0.12518,-0.12345,0.04704,0.03708
0.1243,0.97961,-0.15783,-0.22447,0.06899,0.18748
0.1371,0.97308,-0.18521,-0.21546,0.01972,0.50561
0.14977,0.9683,-0.19991,-0.14281,0.1808,0.53386
0.16356,0.96448,-0.2074,-0.17636,0.18988,0.19578
0.17866,0.96179,-0.20743,-0.45124,0.40935,0.07792
0.18779,0.96011,-0.20716,-0.62726,0.36335,0.32571
0.19189,0.96015,-0.20319,-0.41445,0.51918,0.40255
0.18912,0.96381,-0.18786,-0.46532,0.47302,0.07613
0.17365,0.97218,-0.15716,-0.32901,0.53919,-0.00807
0.14586,0.9829,-0.11234,0.0417,0.52816,0.42513
0.11882,0.99153,-0.05225,0.27031,0.48012,0.33376
0.09874,0.99508,0.0074,0.69304,0.34878,-0.43194
0.08968,0.99386,0.06473,0.65574,0.34194,-0.01331
0.07492,0.98927,0.12537,0.58353,0.4171,0.12413
0.05523,0.98147,0.18344,0.24958,0.42306,-0.23177
0.039,0.97094,0.23609,0.20994,0.21115,-0.0953
0.01678,0.95932,0.28179,0.12042,0.15135,-0.16372
-0.00967,0.94732,0.32011,0.05353,0.01431,-0.49904
-0.03014,0.93318,0.35812,0.00665,-0.21179,-0.55862
-0.04051,0.91639,0.3982,0.01892,-0.35816,-0.62777
-0.04044,0.89853,0.43701,0.09789,-0.54659,-0.55399
-0.03233,0.88249,0.4692,0.24215,-0.64706,-0.44079
-0.01884,0.87151,0.48998,0.23372,-0.62084,-0.41634
-0.0043,0.86749,0.49742,0.29206,-0.57851,-0.35753
0.00664,0.86996,0.49306,0.21613,-0.58199,-0.28783
0.01325,0.87917,0.4763,0.06338,-0.52701,-0.14552
0.01745,0.89324,0.44921,-0.11282,-0.36355,0.038
0.01883,0.90782,0.4189,-0.18213,-0.08194,0.33122
0.016,0.91442,0.40443,-0.18182,0.30786,0.62526
0.01343,0.9116,0.41084,-0.15884,0.43098,0.96804
0.00445,0.90774,0.41949,0.0474,0.46009,0.72195
-0.01074,0.90311,0.42926,0.11931,0.4346,0.42107
-0.02098,0.89876,0.43791,0.26027,0.31974,0.50455
-0.02001,0.89555,0.44448,0.40783,0.47055,0.58793
-0.02117,0.88839,0.45858,0.42225,1.1836,-0.03318
-0.03618,0.8815,0.47077,0.19962,-0.68497,-1.12398
-0.05225,0.89229,0.44841,0.93787,-1.59508,-1.05131
-0.05233,0.90574,0.42056,0.87182,-1.07928,-0.00541
-0.05167,0.91541,0.39917,-0.07829,0.97253,-0.66852
-0.05928,0.94093,0.33335,-0.26628,0.9652,-1.12386
-0.04398,0.95352,0.29809,-0.41302,0.63061,-0.09362
-0.02656,0.96372,0.26555,-0.20115,-0.143,-0.07416
-0.01662,0.97468,0.22295,0.02218,-0.31423,-0.23538
-0.00473,0.98336,0.18157,0.10776,-0.2804,-0.14067
0.00954,0.98957,0.14365,0.19996,-0.27002,-0.02301
0.02646,0.99365,0.10923,0.237,-0.11605,0.00202
0.04259,0.99642,0.07294,0.08482,0.05362,0.1157
0.05592,0.99776,0.03644,-0.06874,-0.02518,0.13259
0.06851,0.99763,0.00546,-0.11585,-0.20617,0.12897
0.08258,0.99636,-0.02074,-0.12408,-0.19253,-0.05016
0.09651,0.99422,-0.04691,-0.17253,-0.07611,-0.17078
0.11,0.99079,-0.07885,-0.16982,-0.03988,-0.14485
0.12307,0.98568,-0.11525,-0.1672,-0.00591,0.04142
0.13627,0.9791,-0.15093,-0.20177,0.04247,0.19969
0.14819,0.97313,-0.1762,-0.14701,0.14569,0.44341
0.15806,0.96934,-0.18809,-0.08593,0.21984,0.3213
0.16788,0.96713,-0.19094,-0.07277,0.24445,0.19486
0.17875,0.96611,-0.18618,-0.38562,0.36221,0.17277
0.18627,0.96555,-0.18166,-0.44576,0.34521,0.22784
0.19074,0.96563,-0.17654,-0.36789,0.32145,0.20509
0.18937,0.96798,-0.16475,-0.4788,0.49717,0.27678
0.17907,0.97427,-0.1368,-0.56984,0.42935,0.17647
0.15662,0.98332,-0.09238,-0.13775,0.40355,0.40752
0.13406,0.99052,-0.02965,0.34105,0.36185,0.18974
0.11627,0.99254,0.0366,0.44313,0.33184,-0.228
0.1036,0.98979,0.0978,0.47612,0.32829,-0.48248
0.08753,0.98362,0.15752,0.23455,0.65177,-0.169
0.06515,0.97419,0.21607,0.0587,0.60311,-0.27459
0.04501,0.96118,0.27219,-0.05755,0.52464,-0.22066
0.02189,0.94771,0.31836,0.01395,0.17899,-0.42474
-0.00152,0.93383,0.35769,0.03737,0.19287,-0.46408
-0.02061,0.91739,0.39743,0.0583,-0.06569,-0.62402
-0.0322,0.89841,0.43796,0.01398,-0.28082,-0.60625
-0.03637,0.87881,0.47577,0.07299,-0.48186,-0.55468
-0.03423,0.86184,0.506,0.13837,-0.62524,-0.53144
-0.02912,0.85014,0.52573,0.21588,-0.66223,-0.43238
-0.02164,0.8454,0.53367,0.31118,-0.53236,-0.42094
-0.01401,0.84717,0.53112,0.34249,-0.53986,-0.38762
-0.00896,0.85443,0.51947,0.21946,-0.50822,-0.32189
-0.00664,0.8677,0.49703,0.16948,-0.48995,-0.26431
-0.00499,0.88579,0.46403,-0.03038,-0.25728,-0.00556
-0.0033,0.90526,0.42483,-0.06749,-0.02838,0.3295
-0.0025,0.91968,0.39263,-0.07603,0.16479,0.44762
0.00381,0.92202,0.38711,-0.11102,0.71756,0.90792
0.01009,0.91776,0.39697,0.15972,0.53629,0.8292
-0.00073,0.91532,0.4027,0.1885,0.58845,0.54434
-0.02024,0.91257,0.40839,-0.17788,-0.1977,0.32888
-0.03125,0.91054,0.41222,-0.14843,-0.25641,0.48124
-0.021,0.91341,0.40648,0.14536,0.07027,0.19886
-0.00982,0.92332,0.38389,0.34344,0.89504,-0.54397
-0.01766,0.93209,0.36177,0.36057,1.38047,-1.02362
-0.03512,0.9252,0.37783,0.17086,1.21992,-0.43376
-0.05668,0.9249,0.37593,1.00739,-1.71243,-0.26802
-0.04593,0.93133,0.36124,1.0652,-1.40545,-0.13687
-0.04315,0.94275,0.33067,-0.60109,0.29796,0.15376
-0.06356,0.96623,0.24967,-0.67173,0.92647,-1.77165
-0.0548,0.9775,0.20363,-0.26382,0.66628,-0.66437
-0.0326,0.97766,0.20761,0.04783,-0.05391,0.33109
-0.00236,0.98247,0.18635,0.32406,-0.47205,0.11604
0.01636,0.99012,0.13922,0.28218,-0.22686,-0.23779
0.03107,0.99547,0.08974,0.28424,-0.04986,-0.20949
0.04083,0.99771,0.0537,0.00266,0.00226,-0.08742
0.05008,0.9985,0.02168,-0.03383,-0.00799,0.16301
0.05886,0.99815,-0.01481,-0.07669,-0.04107,0.20827
0.07053,0.99635,-0.04801,-0.12335,-0.25944,0.03556
0.0847,0.99379,-0.07212,-0.08131,-0.23388,-0.11258
0.10127,0.99017,-0.09643,-0.06274,-0.18255,-0.12923
0.11992,0.98474,-0.12606,-0.05625,-0.02941,0.0996
0.13611,0.97826,-0.15646,-0.34745,0.00226,0.31225
0.14752,0.97254,-0.17999,-0.40798,0.07748,0.43592
0.1552,0.96842,-0.1951,-0.30949,0.20326,0.52989
0.16422,0.96607,-0.19934,-0.25229,0.26398,0.23308
0.17469,0.96489,-0.19612,-0.43607,0.40961,0.23645
0.17919,0.96521,-0.19038,-0.50805,0.39519,0.31423
0.17527,0.96877,-0.17535,-0.43709,0.55012,0.21874
0.16177,0.97569,-0.14781,-0.51289,0.51869,0.06588
0.13638,0.98517,-0.10404,-0.4364,0.56498,-0.11107
0.10693,0.99333,-0.04299,0.74169,0.57227,0.13265
0.08631,0.99605,0.02058,0.87958,0.50081,-0.25453
0.07582,0.99396,0.07927,0.89441,0.4619,-0.40662
0.06249,0.9884,0.13837,0.60177,0.43523,0.15753
0.04382,0.97961,0.19601,0.26186,0.54421,-0.17231
0.02657,0.96802,0.24942,-0.12372,0.25466,-0.11558
0.00202,0.95491,0.29684,-0.11513,-0.06267,-0.2944
-0.02205,0.94241,0.33369,0.0046,-0.09155,-0.49125
-0.04005,0.92878,0.36842,0.06091,-0.19568,-0.55514
-0.04687,0.913,0.40524,0.06526,-0.43907,-0.64016
-0.04119,0.89736,0.43935,0.14161,-0.6276,-0.60375
-0.03164,0.88277,0.46872,0.2645,-0.66216,-0.48211
-0.02216,0.87206,0.48888,0.28943,-0.60797,-0.47339
-0.00974,0.86847,0.49563,0.31441,-0.59662,-0.41104
0.00345,0.87237,0.48882,0.20594,-0.62093,-0.31293
0.01449,0.88318,0.46879,0.07032,-0.49697,-0.21551
0.02057,0.89982,0.43576,-0.05336,-0.27525,-0.053
0.01813,0.91704,0.39837,-0.10831,0.05901,0.35464
0.00701,0.92676,0.37556,-0.20278,0.65071,0.80722
-0.00147,0.92162,0.38806,-0.125,0.58857,1.2091
-0.01641,0.91445,0.40434,-0.12135,0.52387,0.74127
-0.03081,0.90842,0.4169,0.1921,0.34091,0.19431
-0.03621,0.90195,0.43029,0.36023,-0.23652,0.1188
-0.03287,0.89782,0.43912,0.56144,-0.19454,0.28737
-0.0272,0.89998,0.43506,0.24062,0.31195,-0.49034
-0.035,0.91073,0.41149,0.19824,0.83224,-0.7411
-0.06095,0.91587,0.39678,0.28922,1.31249,-0.71385
-0.07515,0.91029,0.40706,1.09336,-1.35332,-0.33077
-0.07029,0.91581,0.39539,1.07128,-1.30082,-0.59252
-0.0578,0.92909,0.36527,0.73516,-1.07872,-0.29977
-0.07183,0.95351,0.29263,-0.52152,0.83227,-1.033
-0.06894,0.97151,0.22671,-0.43451,0.86824,-1.37836
-0.05756,0.97722,0.20421,-0.32914,0.40695,-0.06073
-0.04099,0.9835,0.17616,0.07042,-0.23097,0.06746
-0.0244,0.9908,0.13308,0.19934,-0.32757,0.03771
-0.00701,0.99581,0.0911,0.32479,-0.2369,-0.10593
0.00653,0.99837,0.05664,0.09146,-0.12955,-0.15837
0.0188,0.99946,0.02659,0.00809,-0.05041,-0.12359
0.02872,0.99958,-0.00275,-0.10925,0.00581,0.04748
0.03794,0.99879,-0.03099,-0.08563,-0.15873,0.14164
0.04921,0.99716,-0.05683,-0.07725,-0.15985,0.10851
0.06133,0.99488,-0.0803,-0.11997,-0.05162,-0.00167
0.07328,0.99178,-0.10486,-0.09792,-0.06984,-0.04769
0.08629,0.98756,-0.1314,-0.02856,-0.07643,0.03021
0.10084,0.98179,-0.16096,-0.12176,0.09185,0.15057
0.11579,0.97531,-0.18803,-0.25512,0.03061,0.36576
0.12757,0.97025,-0.20574,-0.29827,0.17944,0.54398
0.13697,0.96652,-0.21694,-0.27062,0.27086,0.36439
0.14698,0.96446,-0.21957,-0.31857,0.33242,0.1722
0.1541,0.96346,-0.21904,-0.45948,0.33834,0.31282
0.15599,0.96427,-0.2141,-0.33388,0.4709,0.46525
0.15258,0.96809,-0.19877,-0.25062,0.47756,0.27342
0.14019,0.9759,-0.16722,-0.29543,0.5688,0.00164
0.12045,0.98562,-0.11847,-0.11464,0.44753,0.33138
0.10172,0.99322,-0.05619,0.42244,0.30003,-0.08001
0.08806,0.99609,0.00617,0.56074,0.26989,-0.44381
0.07873,0.99485,0.06374,0.43741,0.29789,-0.05445
0.06415,0.99055,0.12115,0.26852,0.41924,0.20814
0.04573,0.98328,0.1762,0.24448,0.35417,-0.24859
0.0306,0.97373,0.22561,0.26603,0.25918,-0.18997
0.01245,0.96288,0.2696,0.08577,0.03208,-0.26774
-0.00947,0.95101,0.30897,0.05109,0.04406,-0.33876
-0.03074,0.93787,0.34559,-0.02704,-0.09971,-0.46427
-0.04495,0.92309,0.38191,0.0139,-0.2605,-0.51839
-0.04922,0.90842,0.41513,0.05043,-0.35729,-0.50235
-0.04698,0.896,0.44153,0.29437,-0.56225,-0.47292
-0.0404,0.88738,0.45925,0.29476,-0.5804,-0.42182
-0.03167,0.88402,0.46635,0.27095,-0.59406,-0.42868
-0.02281,0.88606,0.46299,0.24152,-0.68173,-0.28213
-0.01527,0.89413,0.44753,0.10971,-0.61189,-0.18691
-0.00843,0.90738,0.42019,-0.02032,-0.43955,-0.04879
-0.00125,0.92156,0.38821,-0.06108,-0.15896,0.31385
0.00299,0.92894,0.37019,-0.17777,0.53779,0.6255
0.00131,0.92149,0.38838,-0.15283,0.7587,0.93606
-0.00546,0.90968,0.41526,0.10176,0.43322,0.82688
-0.01618,0.90149,0.43248,0.16627,0.24988,0.31043
-0.02766,0.89586,0.44346,0.09575,-0.02878,0.19491
-0.02679,0.8921,0.45101,0.09546,-0.45154,0.12472
-0.00983,0.89416,0.44761,0.26671,0.04607,0.21421
-0.0016,0.90279,0.43006,0.37059,0.36006,0.3297
-0.01884,0.91053,0.41299,0.19079,2.31471,-0.39104
-0.04845,0.90474,0.42318,0.11358,-0.06041,-0.38768
-0.06745,0.9112,0.40638,1.1295,-2.02062,-0.63386
-0.05472,0.92399,0.37847,1.27393,-1.88616,-0.75878
-0.05698,0.94056,0.33479,-0.35327,0.2989,0.13208
-0.06148,0.96409,0.25834,-0.56589,1.05528,-1.1195
-0.04399,0.97356,0.22412,-0.32648,0.9382,-0.48561
-0.02317,0.97839,0.20541,-0.24296,-0.02492,0.325
-0.0073,0.98564,0.16865,-0.00304,-0.31149,0.26715
0.00987,0.99192,0.12642,0.36084,-0.32287,-0.15577
0.02656,0.99587,0.08674,0.3417,-0.21572,-0.08811
0.04181,0.9977,0.05329,0.05858,-0.03712,0.02259
0.05179,0.99849,0.01794,-0.17302,0.17348,0.01124
0.05794,0.99817,-0.01662,-0.23952,0.00967,0.07355
0.06568,0.99673,-0.0469,-0.08981,-0.27308,0.07642
0.07767,0.99421,-0.07419,0.04798,-0.3131,-0.15404
0.09411,0.99047,-0.10047,0.02798,-0.14385,-0.04417
0.10921,0.98569,-0.12839,-0.13795,0.02725,0.10521
0.12217,0.97997,-0.15722,-0.26935,0.02724,0.14667
0.13283,0.9735,-0.18611,-0.24891,0.11652,0.2041
0.14296,0.96778,-0.20727,-0.13858,0.13421,0.56916
0.154,0.96416,-0.21605,-0.17771,0.20967,0.36914
0.16621,0.96203,-0.21649,-0.41966,0.30659,0.12507
0.17572,0.9612,-0.21262,-0.63834,0.41606,0.2074
0.17856,0.96134,-0.20961,-0.45455,0.36822,0.37982
0.17434,0.96441,-0.19877,-0.24403,0.53155,0.3401
0.16557,0.97079,-0.17359,-0.22435,0.4503,0.25252
0.14851,0.98024,-0.1306,-0.10482,0.48745,0.37366
0.12857,0.9894,-0.0674,0.23657,0.40504,0.40412
0.11211,0.99369,-0.00218,0.55829,0.40411,-0.34914
0.1007,0.99319,0.05844,0.54786,0.40859,-0.27664
0.0887,0.98917,0.11684,0.41179,0.40525,0.21954
0.0705,0.98203,0.17499,0.17079,0.41006,-0.08089
0.05291,0.97227,0.22776,0.04322,0.30875,-0.20531
0.0319,0.96127,0.27371,-0.02838,-0.01414,-0.17105
0.01095,0.94959,0.31326,-0.0255,-0.05137,-0.43488
-0.00817,0.93695,0.34933,-0.00757,-0.16046,-0.50156
-0.02157,0.92172,0.38724,-0.01782,-0.21195,-0.5498
-0.02551,0.90567,0.42319,0.05535,-0.39374,-0.48163
-0.02309,0.89115,0.45309,0.22373,-0.51745,-0.52657
-0.01798,0.87929,0.47593,0.2761,-0.4996,-0.4448
-0.0108,0.87319,0.48724,0.28611,-0.5044,-0.39274
-0.0034,0.8738,0.48626,0.27227,-0.51918,-0.36341
0.00168,0.88013,0.47471,0.13339,-0.59139,-0.2669
0.00565,0.89138,0.4532,0.06209,-0.54278,-0.18025
0.00788,0.90655,0.422,-0.02703,-0.46597,-0.11474
0.00739,0.92221,0.3866,-0.16511,-0.0345,0.38824
0.00454,0.93108,0.36477,-0.14911,0.15219,0.63002
0.00052,0.92797,0.37262,0.00317,0.58358,1.27162
-0.01314,0.92326,0.38392,0.28647,0.73242,0.37191
-0.02698,0.91614,0.39994,0.30031,0.73955,0.35589
-0.03399,0.91,0.41319,0.07743,-0.5691,0.43899
-0.02592,0.90766,0.41888,0.20899,0.06271,0.20604
-0.02431,0.91315,0.40688,0.23794,0.34117,-0.20827
-0.0383,0.92502,0.37795,0.40132,1.43287,-1.52218
-0.05987,0.92132,0.38415,0.2575,-0.13833,0.11985
-0.06682,0.92214,0.38103,0.70244,-1.21765,-0.032
-0.05597,0.92914,0.36544,0.89711,-1.43885,-0.64052
-0.05952,0.9436,0.32566,-0.21993,-0.23997,0.10849
-0.07464,0.96614,0.24694,-0.20481,-0.26251,0.18721
-0.06239,0.97749,0.20152,-0.15782,0.79829,-0.82225
-0.03952,0.98125,0.18862,-0.09104,0.33964,-0.03463
-0.02115,0.9873,0.1574,0.22118,-0.24073,0.05352
-0.0091,0.99357,0.11279,0.29496,-0.26643,-0.2216
0.00226,0.99748,0.07088,0.16671,-0.22462,-0.10483
0.01146,0.99931,0.03514,0.11468,-0.15376,0.03188
0.01929,0.99981,0.00112,0.0405,0.03256,0.03138
0.02786,0.99903,-0.03396,-0.05834,-0.08599,0.07586
0.04028,0.99691,-0.06731,-0.07341,-0.20431,-0.00491
0.0557,0.994,-0.09408,-0.089,-0.17495,-0.07174
0.07268,0.99034,-0.11801,-0.05183,-0.1153,0.03867
0.09072,0.98546,-0.14362,-0.04644,-0.04502,0.09075
0.10746,0.97917,-0.17225,-0.18136,0.11736,0.15901
0.12207,0.9723,-0.19931,-0.33781,0.0749,0.36871
0.13411,0.96681,-0.21745,-0.38905,0.15766,0.54191
0.14322,0.96299,-0.22832,-0.25595,0.17973,0.28823
0.15415,0.96055,-0.23146,-0.29684,0.27582,0.14179
0.16435,0.95871,-0.23206,-0.4002,0.32846,0.2009
0.1702,0.95846,-0.22888,-0.28112,0.41044,0.43733
0.16957,0.96163,-0.21564,-0.31161,0.61574,0.33043
0.1607,0.96923,-0.18644,-0.43645,0.50533,-0.0113
0.13821,0.97983,-0.14432,-0.10104,0.43201,0.35755
0.11219,0.99011,-0.08417,0.09674,0.42235,0.54852
0.09108,0.99561,-0.02117,0.48174,0.34541,-0.04481
0.07736,0.99633,0.03649,0.60381,0.32905,-0.21818
0.06406,0.9934,0.09502,0.36594,0.36597,0.19811
0.04602,0.98693,0.15437,0.19811,0.48597,-0.11584
0.03202,0.97745,0.20868,0.20169,0.30606,-0.12202
0.01196,0.9667,0.25561,0.09951,0.11021,-0.0864
-0.01188,0.95505,0.29619,0.07988,0.08,-0.25774
-0.03351,0.9424,0.33278,-0.00068,-0.07549,-0.49014
-0.04767,0.92754,0.37065,0.02507,-0.20011,-0.58711
-0.05203,0.91147,0.40804,0.06234,-0.42856,-0.49658
-0.04845,0.89687,0.4396,0.08845,-0.50942,-0.53204
-0.0381,0.88501,0.46398,0.23356,-0.56371,-0.49453
-0.02531,0.87815,0.4777,0.24183,-0.5557,-0.46665
-0.01317,0.87785,0.47873,0.18895,-0.65588,-0.29358
-0.00258,0.88438,0.46675,-0.02076,-0.61313,-0.19482
0.0049,0.89713,0.44172,-0.0656,-0.4832,-0.10069
0.00821,0.91217,0.40971,-0.10632,-0.2166,0.15489
0.00528,0.92278,0.38528,-0.01281,0.52249,0.71158
0.00237,0.92408,0.38217,0.06986,0.65308,0.83671
0.00432,0.92071,0.39021,0.18549,0.52963,0.89191
-0.0031,0.91686,0.39918,0.27462,0.4173,0.20729
-0.01292,0.91153,0.411,0.09473,0.29074,0.18159
-0.02032,0.9085,0.41736,-0.04483,-0.03866,0.28152
-0.02047,0.90839,0.4176,0.11113,0.10697,0.41935
-0.02752,0.91575,0.40078,0.09709,0.43778,0.02121
-0.05052,0.92532,0.37579,0.24249,1.2697,-1.06008
-0.07335,0.92349,0.37652,0.68434,-0.45185,-0.02309
-0.07885,0.92432,0.37335,1.09805,-1.10174,0.00375
-0.06429,0.92948,0.36321,0.48325,-0.74481,0.02232
-0.07222,0.94698,0.31305,-0.55102,0.6281,-0.75731
-0.08222,0.96894,0.23319,-0.36392,0.92603,-1.20569
-0.07641,0.97736,0.19727,-0.29523,0.4207,-0.04944
-0.06009,0.98154,0.18155,0.14568,-0.25688,0.02499
-0.03843,0.98812,0.14877,0.26304,-0.39391,-0.02953
-0.01851,0.99398,0.10789,0.28693,-0.20393,-0.09426
-0.00254,0.99759,0.06923,0.07929,-0.06236,-0.07802
0.01123,0.9992,0.03811,0.03961,-0.04251,-0.0081
0.02107,0.99974,0.00761,-0.05719,-0.03099,0.04613
0.03072,0.99926,-0.02287,-0.07242,-0.14535,0.12192
0.04318,0.99782,-0.04971,-0.09431,-0.17122,0.12791
0.05677,0.99567,-0.07353,-0.14296,-0.12558,-0.07946
0.06928,0.99272,-0.09843,-0.12051,-0.11832,-0.02318
0.08206,0.98861,-0.1261,-0.07599,-0.0607,0.08365
0.09555,0.98295,-0.1571,-0.16194,0.04107,0.15519
0.10882,0.97632,-0.18692,-0.2335,0.04721,0.38692
0.12076,0.97085,-0.207,-0.25528,0.12256,0.50845
0.1312,0.96725,-0.21726,-0.18083,0.18575,0.30419
0.14276,0.96507,-0.21964,-0.42384,0.33832,0.12934
0.14983,0.96417,-0.21889,-0.43091,0.33922,0.12859
0.15152,0.96416,-0.21778,-0.42585,0.31372,0.40702
0.14836,0.96663,-0.20884,-0.2962,0.4551,0.25562
0.13944,0.97255,-0.18627,-0.40781,0.468,0.085
0.11978,0.98159,-0.14873,-0.39232,0.53019,-0.03416
0.09595,0.99091,-0.09417,0.53106,0.44323,0.33583
0.07889,0.99641,-0.03061,0.54813,0.43774,0.27226
0.06901,0.99718,0.02909,0.77643,0.40208,-0.37599
0.0597,0.99439,0.08721,0.63591,0.41006,0.08006
0.04055,0.98883,0.1434,0.51531,0.48049,0.15142
0.02104,0.98063,0.1947,0.14388,0.43522,-0.25851
-0.00263,0.97081,0.23981,-0.03559,0.00762,-0.14116
-0.0277,0.96052,0.27679,-0.00024,-0.06224,-0.29081
-0.04871,0.949,0.31147,-0.00816,-0.11019,-0.45894
-0.06187,0.93468,0.35005,0.01789,-0.30395,-0.51839
-0.06322,0.91931,0.3884,0.08298,-0.43805,-0.52443
-0.05806,0.90474,0.42196,0.19356,-0.57279,-0.51862
-0.05159,0.89236,0.44834,0.34376,-0.53292,-0.42336
-0.04436,0.88443,0.46454,0.36897,-0.53302,-0.43142
-0.03616,0.88198,0.46987,0.38403,-0.57267,-0.37914
-0.02714,0.88501,0.46476,0.10653,-0.58563,-0.30624
-0.01761,0.89382,0.44806,0.097,-0.59444,-0.28954
-0.01159,0.90691,0.42114,-0.0598,-0.2844,-0.03801
-0.01466,0.91988,0.3919,-0.08634,0.01052,0.43105
-0.02381,0.92583,0.37716,-0.01675,0.41136,0.98098
-0.02421,0.92456,0.38023,-0.01475,0.41261,0.87906
-0.02622,0.92124,0.38809,-0.11306,0.24514,0.5729
-0.038,0.91748,0.39593,-0.0976,0.37027,0.1601
-0.05205,0.91151,0.40794,-0.18374,0.03676,0.14676
-0.05856,0.90829,0.41421,-0.10018,-0.57264,0.39039
-0.05357,0.91495,0.39997,0.04951,-0.27898,0.41691
-0.05201,0.92905,0.36624,0.5112,0.53675,-0.16312
-0.06424,0.94096,0.33233,0.60034,1.33679,-0.96501
-0.07577,0.93393,0.34931,0.57239,1.14371,0.18093
-0.08066,0.92866,0.36202,0.96178,-1.53441,-0.28365
-0.06928,0.93569,0.34594,0.90138,-1.47313,-0.43345
-0.0665,0.9489,0.30847,0.38023,-0.98079,0.18236
-0.08723,0.96993,0.22716,-0.48571,0.91872,-1.74788
-0.08149,0.98052,0.17868,-0.23551,0.8816,-0.59787
-0.06576,0.9827,0.1731,-0.17844,0.16579,0.30613
-0.04979,0.9881,0.14546,0.17775,-0.35917,0.00354
-0.03491,0.99403,0.10329,0.35275,-0.365,-0.13066
-0.0178,0.99772,0.06497,0.38961,-0.32679,-0.13569
-0.00344,0.99944,0.03317,0.16069,-0.10097,0.10097
0.00949,0.99995,0.00096,-0.04924,0.10712,-0.02235
0.02005,0.99934,-0.03011,-0.21959,-0.00309,0.09136
0.03138,0.99774,-0.05928,-0.2014,-0.19907,0.2115
0.04519,0.99541,-0.0843,-0.12029,-0.15875,-0.03053
0.05856,0.99242,-0.10801,-0.10977,-0.08782,-0.06999
0.0717,0.98826,-0.13484,-0.08639,-0.11732,0.04721
0.0865,0.9825,-0.16492,-0.01134,-0.08148,0.16141
0.10305,0.97516,-0.19604,-0.12598,-0.02002,0.23178
0.11963,0.9679,-0.22101,-0.2088,0.01689,0.32082
0.13285,0.96223,-0.23759,-0.30506,0.20041,0.44463
0.14649,0.95843,-0.24482,-0.27876,0.22127,0.35023
0.15925,0.95604,-0.24619,-0.37841,0.35778,0.20087
0.16442,0.9552,-0.24607,-0.43922,0.32451,0.31909
0.16277,0.95716,-0.23946,-0.4136,0.44677,0.37024
0.15244,0.96366,-0.21934,-0.52183,0.56726,-0.0455
0.1271,0.97385,-0.18826,-0.22964,0.77735,0.22994
0.09986,0.98535,-0.13819,0.27296,0.63681,0.67896
0.08085,0.99383,-0.07586,0.69435,0.27642,-0.27265
0.07056,0.99738,-0.01564,0.65954,0.25293,-0.41144
0.06215,0.99706,0.04451,0.63128,0.24381,-0.29438
0.04724,0.99328,0.10561,0.18822,0.44634,0.1423
0.03189,0.98618,0.16255,0.20852,0.40617,-0.22392
0.01349,0.97735,0.21116,0.2227,0.31022,-0.14683
-0.00824,0.96685,0.25518,0.11215,0.0409,-0.28872
-0.02968,0.95482,0.29567,0.09465,-0.06185,-0.4149
-0.0443,0.94041,0.33711,0.06377,-0.1972,-0.47827
-0.05111,0.92477,0.37704,0.02881,-0.40227,-0.48597
-0.05217,0.91073,0.40966,0.12004,-0.54156,-0.44743
-0.05003,0.89955,0.43391,0.16467,-0.53887,-0.44081
-0.04349,0.89232,0.44928,0.27997,-0.51348,-0.43676
-0.03384,0.88995,0.45479,0.30675,-0.53561,-0.3432
-0.02317,0.89341,0.44862,0.18452,-0.64234,-0.22845
-0.01243,0.9026,0.43027,0.02496,-0.63194,-0.17349
-0.00353,0.91578,0.40163,-0.04271,-0.42681,-0.0508
0.00302,0.92912,0.36973,-0.07276,-0.18373,0.22385
0.00634,0.93624,0.35127,-0.10246,0.13657,0.61884
0.00435,0.93429,0.35647,-0.09607,0.46813,0.98962
-0.00649,0.92968,0.36828,0.08838,0.47748,0.87449
-0.02076,0.92384,0.38218,0.24902,0.58585,0.62726
-0.03381,0.91862,0.39366,-0.18865,-0.42962,0.36194
-0.03342,0.91791,0.39535,0.03521,-0.5967,0.37341
-0.0244,0.92324,0.38342,0.28025,0.15078,0.08968
-0.0277,0.93224,0.36074,0.3771,0.92011,-0.53309
-0.04639,0.93199,0.35947,0.09688,1.81972,-0.44909
-0.06481,0.92579,0.37241,0.59185,-0.64474,-0.28782
-0.06479,0.92888,0.36463,1.18687,-1.72968,-0.57382
-0.0489,0.93552,0.34984,0.91596,-1.38712,-0.21579
-0.06615,0.95703,0.28231,-0.59641,0.86943,-1.15905
-0.06374,0.97273,0.22297,-0.30388,1.16056,-1.02311
-0.05048,0.9768,0.20805,-0.30357,0.48238,0.13194
-0.03817,0.9833,0.17789,0.08624,-0.25076,0.0226
-0.02398,0.99088,0.13256,0.33436,-0.31368,-0.20842
-0.00528,0.99595,0.08967,0.35242,-0.29646,-0.17161
0.01061,0.99853,0.05304,0.17937,-0.14854,0.00421
0.02643,0.99949,0.01778,0.07501,0.0354,0.04672
0.03827,0.99911,-0.01734,0.00966,0.1063,-0.02799
0.05037,0.99744,-0.05058,-0.13176,-0.21317,0.15782
0.06536,0.99475,-0.07865,-0.13033,-0.2453,0.06103
0.08111,0.99138,-0.10285,-0.08491,-0.15632,-0.04745
0.09807,0.98684,-0.12848,-0.07882,-0.09018,0.11759
0.11563,0.98099,-0.15582,-0.13626,-0.07265,0.10126
0.13075,0.97387,-0.18568,-0.32176,0.03154,0.12718
0.14332,0.96663,-0.21229,-0.47624,-0.04245,0.36129
0.15268,0.96122,-0.22962,-0.33456,0.07331,0.52772
0.16145,0.95724,-0.24004,-0.2118,0.16152,0.46954
0.17287,0.95464,-0.24241,-0.25184,0.2665,0.18882
0.18073,0.95273,-0.2442,-0.45507,0.39813,0.3468
0.18303,0.95301,-0.24135,-0.46551,0.39487,0.37058
0.17892,0.95734,-0.22688,-0.46763,0.48754,0.20493
0.16103,0.96685,-0.19811,-0.37701,0.59505,-0.01728
0.13365,0.97902,-0.15376,-0.05977,0.64575,0.48354
0.11006,0.98931,-0.09561,0.2936,0.51612,0.2616
0.09348,0.9949,-0.0377,0.5332,0.35504,-0.43677
0.08383,0.99631,0.01816,0.50258,0.29445,-0.22689
0.06881,0.99457,0.07804,0.39614,0.40376,0.22016
0.05272,0.98972,0.13289,0.211,0.45909,0.01049
0.03795,0.98268,0.18135,0.26088,0.41677,-0.25591
0.01847,0.9735,0.22789,0.05634,0.06722,-0.17085
-0.0023,0.96257,0.271,0.00645,-0.03691,-0.51897
-0.01801,0.94919,0.31417,0.00092,-0.13255,-0.53042
-0.02663,0.93396,0.35635,0.01758,-0.22289,-0.47597
-0.02656,0.9185,0.39452,0.20467,-0.46772,-0.4664
-0.02175,0.90536,0.42407,0.21762,-0.51067,-0.46666
-0.01355,0.89584,0.44415,0.17677,-0.56654,-0.39932
-0.00242,0.89109,0.45381,0.18436,-0.62004,-0.35339
0.01063,0.89133,0.45321,0.16375,-0.63541,-0.32902
0.02374,0.8974,0.44056,-0.0583,-0.60814,-0.17515
0.03372,0.90863,0.41622,-0.1213,-0.40715,0.07694
0.036,0.9221,0.38525,-0.09983,-0.31008,0.33818
0.03009,0.93132,0.36293,-0.00803,0.36444,0.72455
0.02571,0.92841,0.37063,0.09119,0.80784,0.89225
0.01349,0.9215,0.38812,0.19142,0.65963,0.73089
-0.00212,0.91343,0.40696,0.02559,0.13837,0.27663
-0.01316,0.90897,0.41662,-0.13397,-0.4641,0.48061
-0.00969,0.90898,0.4167,0.06767,-0.54393,0.56569
-0.00685,0.91158,0.41104,0.30077,0.44601,0.4612
-0.02224,0.91556,0.40154,0.27244,1.40106,-0.92907
-0.03903,0.91087,0.41081,0.32841,1.70869,-1.00534
-0.04043,0.91185,0.4085,0.77265,-1.41802,-0.60491
-0.02403,0.91548,0.40161,0.81749,-1.4849,-0.14918
-0.03724,0.93117,0.36265,0.20762,-1.06426,0.68052
-0.05069,0.95785,0.28273,-0.39314,0.93329,-1.76212
-0.03753,0.96795,0.24828,-0.23714,1.36298,-0.25823
-0.02139,0.97431,0.22416,-0.21465,0.28662,-0.00779
-0.00959,0.98262,0.18532,0.15762,-0.31484,-0.06536
0.00691,0.98972,0.14277,0.31383,-0.39716,-0.25635
0.02392,0.99447,0.10219,0.29682,-0.40191,-0.21578
0.03638,0.9972,0.06522,0.19878,-0.1455,0.11488
0.04504,0.99861,0.02698,0.09586,0.04072,0.14182
0.05115,0.99863,-0.01035,0.00293,-0.01439,0.05775
0.06002,0.99724,-0.0436,-0.05969,-0.13534,0.11153
0.07298,0.99462,-0.07339,-0.1219,-0.20844,-0.05067
0.08644,0.99127,-0.09948,-0.12503,-0.14242,-0.07806
0.10155,0.98681,-0.12598,-0.1081,-0.10061,0.0331
0.11805,0.98095,-0.15423,-0.06385,-0.03196,0.10663
0.135,0.97333,-0.18545,-0.11826,0.0169,0.12553
0.15021,0.96575,-0.21156,-0.22249,0.03477,0.17431
0.15963,0.96031,-0.22872,-0.33305,0.25311,0.45638
0.16786,0.95671,-0.23772,-0.29256,0.25532,0.32815
0.17697,0.95467,-0.23934,-0.27106,0.21254,0.20888
0.18483,0.95267,-0.24133,-0.43039,0.34976,0.33961
0.19029,0.95283,-0.23643,-0.33961,0.43755,0.40156
0.18932,0.95648,-0.22203,-0.41329,0.59593,0.28792
0.17674,0.96515,-0.19298,-0.45829,0.56632,-0.06698
0.1511,0.97688,-0.15118,-0.18951,0.50101,0.25674
0.12647,0.98749,-0.09406,-0.01368,0.50224,0.42535
0.10799,0.99353,-0.03493,0.44305,0.23834,-0.36595
0.09667,0.99506,0.02249,0.43837,0.17545,-0.30272
0.08256,0.99309,0.08333,0.27451,0.37314,0.12478
0.06534,0.98765,0.14232,0.14071,0.48786,-0.17233
0.0487,0.97969,0.19446,0.21068,0.44899,-0.24324
0.0275,0.97007,0.24122,0.06759,0.1999,-0.15054
0.00312,0.95928,0.28241,0.04894,0.11881,-0.42831
-0.01769,0.9462,0.32307,0.06435,0.04675,-0.50497
-0.02909,0.93058,0.3649,0.0476,-0.24218,-0.53108
-0.03279,0.91423,0.40383,0.10872,-0.39145,-0.51014
-0.03079,0.89944,0.43594,0.14451,-0.50326,-0.46336
-0.02324,0.88824,0.45877,0.19204,-0.55979,-0.42053
-0.01248,0.88236,0.47039,0.23608,-0.58081,-0.37913
0.00067,0.88182,0.47156,0.24186,-0.61335,-0.33833
0.01384,0.88602,0.46341,0.05905,-0.65783,-0.23824
0.02412,0.8947,0.44599,-0.01735,-0.47519,-0.06053
0.02732,0.90646,0.42139,-0.00445,-0.37443,0.0871
0.02431,0.91681,0.39855,0.02751,0.08653,0.52319
0.02185,0.92021,0.39078,-0.00763,0.40413,0.66006
0.02451,0.91607,0.40024,-0.03627,0.37674,0.7842
0.01798,0.9113,0.41133,-0.05339,0.48467,0.5204
0.00244,0.90605,0.42314,-0.19302,0.40141,0.17376
-0.00667,0.9018,0.43207,-0.12935,-0.22985,0.33336
-0.00137,0.90366,0.42822,0.10046,-0.23266,0.52826
-0.00041,0.91217,0.40979,0.30323,0.32867,0.30793
-0.02199,0.92317,0.38374,0.29871,0.87397,-0.17014
-0.04534,0.91721,0.39578,0.35706,1.63549,-0.51928
-0.06114,0.91394,0.40118,0.84737,-1.4211,-0.32631
-0.04591,0.92075,0.38742,1.24337,-2.03975,-0.38055
-0.04117,0.93087,0.36298,0.09306,-0.78105,0.71386
-0.06548,0.95791,0.27947,-0.96224,0.85478,-1.37803
-0.05865,0.97229,0.22628,-0.48023,0.97245,-1.89802
-0.04051,0.97496,0.21863,-0.29153,0.60849,0.24416
-0.0233,0.98139,0.19054,0.12331,-0.32118,0.06111
-0.00596,0.98886,0.14865,0.363,-0.43053,-0.19056
0.01072,0.99431,0.10588,0.3463,-0.23296,-0.16893
0.02234,0.99734,0.06931,0.1655,-0.10187,-0.06205
0.03327,0.99875,0.03696,0.15457,-0.10329,-0.0297
0.04204,0.99911,0.00201,-0.09281,0.08274,0.12019
0.05184,0.99818,-0.03066,-0.17088,-0.12522,0.15806
0.0641,0.99618,-0.05916,-0.14777,-0.26269,0.09019
0.07666,0.99344,-0.08475,-0.1673,-0.12535,-0.07291
0.08971,0.9895,-0.11329,-0.14319,-0.03671,0.06662
0.10475,0.98394,-0.14446,-0.11409,-0.02467,0.09228
0.11975,0.97744,-0.17397,-0.104,-0.03688,0.0878
0.1311,0.97166,-0.19668,-0.27955,0.06637,0.49442
0.13976,0.96752,-0.21061,-0.28567,0.13139,0.51304
0.14923,0.96514,-0.215,-0.24444,0.23855,0.16175
0.15908,0.96367,-0.21453,-0.41503,0.39922,0.25378
0.16433,0.96326,-0.21242,-0.43322,0.46079,0.42647
0.16277,0.96565,-0.20251,-0.37378,0.5478,0.36123
0.15436,0.97176,-0.17843,-0.51828,0.49357,0.06266
0.13519,0.98112,-0.13827,-0.46644,0.57056,0.04229
0.11243,0.99042,-0.08006,0.17648,0.52974,0.49801
0.09338,0.99549,-0.01639,0.49959,0.45263,-0.36198
0.07933,0.99591,0.04315,0.58052,0.39794,-0.48044
0.06447,0.99264,0.10248,0.401,0.40835,0.15013
0.04228,0.98631,0.15933,0.21646,0.48351,-0.10559
0.02167,0.97728,0.2108,0.18702,0.50784,-0.36065
0.00037,0.96593,0.25878,0.11435,0.13466,-0.1594
-0.01984,0.95336,0.30115,0.07897,0.03306,-0.36818
-0.04012,0.93958,0.33994,0.05174,-0.01532,-0.44158
-0.05458,0.92411,0.37817,0.00545,-0.28247,-0.51254
-0.05853,0.90791,0.41502,0.06428,-0.49589,-0.58104
-0.05546,0.89362,0.44536,0.12592,-0.69754,-0.56827
-0.04799,0.88253,0.46778,0.23799,-0.6529,-0.46663
-0.03712,0.87697,0.47909,0.25227,-0.63078,-0.4488
-0.02535,0.8777,0.47851,0.26231,-0.63477,-0.40887
-0.01338,0.8848,0.46576,0.14984,-0.66803,-0.27008
-0.00147,0.89769,0.4406,0.00527,-0.62237,-0.20031
0.00886,0.91327,0.40722,-0.03819,-0.52009,-0.07029
0.01302,0.92397,0.38222,-0.05303,0.10798,0.63969
0.00609,0.92334,0.3839,0.19797,0.98282,1.11139
0.00182,0.9167,0.39955,0.29187,0.77238,1.10632
-0.00835,0.91079,0.41276,0.15943,0.46357,0.40287
-0.01711,0.90491,0.42522,-0.27772,0.05636,-0.03011
-0.01769,0.90142,0.43257,-0.06521,-0.41523,0.16887
-0.01303,0.90443,0.42639,0.25366,-0.05592,0.46293
-0.02239,0.9149,0.40304,0.29821,0.53156,0.27961
-0.04601,0.92305,0.38189,0.04506,1.61215,-0.8626
-0.07467,0.91626,0.39354,0.12908,0.91156,-0.51355
-0.08666,0.9193,0.38388,1.55607,-1.98753,-0.46866
-0.05538,0.92519,0.37542,1.52479,-1.99343,-0.4602
-0.0628,0.94304,0.32666,-0.36552,-0.05756,0.4554
-0.06732,0.9672,0.24488,-0.62224,0.87662,-1.80284
-0.05413,0.97361,0.22165,-0.30588,0.82531,-1.65917
-0.0359,0.9778,0.2064,-0.27509,0.27882,0.29651
-0.02387,0.98542,0.16838,0.23584,-0.29574,-0.19958
-0.00975,0.99216,0.1245,0.28223,-0.27389,-0.18367
0.00215,0.99633,0.08553,0.16881,-0.29131,0.01233
0.01411,0.99851,0.05251,0.05901,-0.06971,0.01179
0.02478,0.99944,0.02207,-0.05662,0.11034,0.01972
0.03334,0.99939,-0.00919,-0.09673,-0.07096,0.15977
0.0433,0.99832,-0.03831,-0.06001,-0.25918,0.12162
0.05601,0.99652,-0.06166,-0.04324,-0.19494,-0.03426
0.07022,0.99398,-0.08405,-0.12833,-0.08332,-0.02613
0.08562,0.99035,-0.10888,-0.13198,-0.08076,0.0014
0.10109,0.98535,-0.1373,-0.18317,0.00618,0.04642
0.11594,0.97884,-0.16861,-0.26717,0.06665,0.16895
0.12928,0.97226,-0.19491,-0.24158,0.08272,0.51806
0.14085,0.96745,-0.21023,-0.22864,0.19309,0.60786
0.15326,0.96458,-0.21469,-0.24302,0.26124,0.21458
0.16525,0.96304,-0.21269,-0.45584,0.3917,0.17815
0.17107,0.96267,-0.20974,-0.49365,0.4607,0.35176
0.17023,0.96491,-0.19989,-0.39844,0.51676,0.37877
0.1619,0.97144,-0.17343,-0.51507,0.53903,-0.12186
0.13972,0.98081,-0.1359,-0.41493,0.5983,-0.11599
0.11584,0.99006,-0.07974,0.02981,0.49763,0.45249
0.09606,0.99524,-0.01627,0.43478,0.40256,-0.18065
0.08333,0.99553,0.0444,0.53389,0.36757,-0.47418
0.07045,0.99217,0.10304,0.35699,0.37819,0.22591
0.05044,0.98582,0.16,0.19256,0.33565,-0.12957
0.03153,0.97672,0.21215,0.14999,0.27735,-0.31751
0.01316,0.96501,0.26185,-0.00687,0.0887,-0.31991
-0.00628,0.95201,0.30598,0.01981,0.0566,-0.36731
-0.02517,0.93815,0.34529,0.02295,-0.01537,-0.45089
-0.03912,0.92271,0.38347,0.07948,-0.21567,-0.55443
-0.04579,0.90634,0.42005,0.11634,-0.42352,-0.53463
-0.04584,0.89103,0.4516,0.14618,-0.53457,-0.52879
-0.04089,0.87949,0.47413,0.24587,-0.596,-0.42212
-0.03473,0.87377,0.48508,0.28625,-0.52364,-0.42859
-0.02721,0.87397,0.48519,0.30315,-0.49235,-0.3863
-0.02054,0.87959,0.47527,0.21391,-0.58511,-0.24861
-0.01645,0.89087,0.45393,0.11119,-0.47909,-0.15068
-0.0143,0.90669,0.42152,0.05652,-0.39726,-0.03385
-0.01532,0.92258,0.38548,0.00562,-0.01587,0.54404
-0.02055,0.93181,0.36235,-0.08901,0.49941,0.79561
-0.02157,0.92899,0.36946,-0.13282,0.64099,0.81935
-0.03331,0.92303,0.38325,0.01892,0.47318,0.23868
-0.05174,0.91632,0.39707,-0.02696,0.24573,0.10528
-0.0647,0.91057,0.40824,-0.16297,-0.07259,0.11992
-0.06485,0.90821,0.41344,0.00632,-0.25161,0.34149
-0.05428,0.91404,0.40196,0.22263,0.0882,0.40421
-0.05332,0.92595,0.37384,0.36316,0.98486,-0.10349
-0.07513,0.93177,0.35517,0.07214,1.84806,-1.00073
-0.10697,0.9228,0.37011,0.44755,-0.35558,-0.6883
-0.12285,0.92389,0.36239,1.12706,-1.45044,-0.48551
-0.08639,0.92586,0.36783,1.24557,-1.3836,0.5826
-0.09039,0.94278,0.32091,-0.61577,0.95404,-0.44948
-0.09158,0.96977,0.22616,-0.68683,1.01345,-1.97771
-0.0765,0.97723,0.19786,-0.56337,1.10399,0.06418
-0.06106,0.98144,0.18177,-0.16875,-0.12101,0.18394
-0.04847,0.98856,0.14276,0.00827,-0.3539,-0.03328
-0.0327,0.99465,0.0979,0.2979,-0.28222,-0.1411
-0.01993,0.99799,0.06001,0.27536,-0.28672,0.00465
-0.00596,0.99959,0.02774,0.20118,-0.27307,0.13319
0.00762,0.99995,-0.00441,0.00604,0.09729,0.09072
0.01807,0.99909,-0.03856,-0.11022,-0.0656,0.19044
0.02986,0.99709,-0.0701,-0.07448,-0.27319,0.13656
0.04448,0.99447,-0.09508,-0.06179,-0.20997,-0.02707
0.06125,0.99078,-0.1208,-0.12104,-0.10276,-0.05141
0.07887,0.98542,-0.1507,-0.12211,0.01383,0.0179
0.09472,0.97858,-0.18273,-0.19923,0.08038,0.12817
0.10802,0.97216,-0.2079,-0.35855,0.17568,0.44049
0.11573,0.96791,-0.22305,-0.2613,0.29541,0.48961
0.12409,0.96542,-0.22925,-0.1603,0.26375,0.37627
0.13541,0.96402,-0.22873,-0.35161,0.46025,0.31
0.14421,0.96304,-0.2275,-0.39839,0.35168,0.37598
0.14823,0.96382,-0.22151,-0.39629,0.33287,0.4194
0.14506,0.96748,-0.20718,-0.70056,0.40476,0.05857
0.13013,0.97544,-0.17769,-0.63878,0.42608,-0.03084
0.10375,0.98553,-0.13401,0.02795,0.41697,0.5756
0.07885,0.9941,-0.07437,0.46717,0.33163,0.22326
0.06068,0.99809,-0.01128,0.68806,0.25753,-0.4119
0.04933,0.9976,0.04853,0.58144,0.3327,-0.17884
0.03496,0.99357,0.10765,0.37558,0.53759,0.13749
0.01713,0.98594,0.16617,0.25745,0.55881,-0.00043
-7e-05,0.97595,0.21795,0.14849,0.33615,0.03554
-0.02336,0.96492,0.26147,0.03014,0.07642,-0.27146
-0.04664,0.95306,0.29913,0.07282,0.07372,-0.37196
-0.06616,0.93932,0.33657,0.01002,-0.13267,-0.48746
-0.07835,0.92364,0.37515,0.04011,-0.31663,-0.5523
-0.08125,0.90757,0.41195,0.09053,-0.42408,-0.4853
-0.07648,0.89381,0.44185,0.27249,-0.60838,-0.48021
-0.06679,0.88317,0.46426,0.31258,-0.57683,-0.5087
-0.05336,0.87663,0.47818,0.33005,-0.56888,-0.50622
-0.04061,0.87526,0.48192,0.31752,-0.62018,-0.3418
-0.03227,0.88005,0.47376,0.10273,-0.58037,-0.21552
-0.0299,0.8921,0.45084,0.00251,-0.50472,-0.13306
-0.03214,0.90795,0.41783,-0.07525,-0.15383,0.30158
-0.03859,0.91978,0.39052,-0.07182,0.25994,0.6838
-0.0444,0.91997,0.38945,-0.07584,0.46034,0.78587
-0.04872,0.91676,0.39644,0.10983,0.33382,0.71065
-0.05629,0.9136,0.40269,0.19913,0.40853,0.22088
-0.06284,0.90812,0.41395,0.08383,0.3594,0.12835
-0.0685,0.90343,0.42322,-0.01477,-0.248,0.43678
-0.06196,0.90612,0.41844,0.13067,-0.03574,0.52246
-0.0541,0.91382,0.40248,0.226,0.10931,0.63485
-0.06899,0.92088,0.38366,0.24213,1.485,-0.93412
-0.09798,0.91383,0.39409,0.58644,-0.83048,-0.51088
-0.11833,0.91714,0.38057,1.11101,-1.70477,-0.27861
-0.10442,0.92544,0.36419,1.48218,-1.84367,-0.28294
-0.10111,0.93821,0.33093,-0.61106,1.0273,-0.89161
-0.11127,0.96407,0.24119,-0.50367,1.1035,-1.86787
-0.095,0.97598,0.19602,-0.28548,1.02568,-1.49149
-0.07594,0.98125,0.17711,0.02221,-0.24981,0.11722
-0.06081,0.98895,0.13516,0.16031,-0.39396,-0.05465
-0.04405,0.99514,0.08803,0.23442,-0.40346,-0.14552
-0.02683,0.99863,0.0447,0.30379,-0.26173,0.09112
-0.00895,0.99992,0.00844,0.22697,-0.17236,0.12953
0.0081,0.99963,-0.02561,0.13611,-0.04108,0.09028
0.02147,0.99811,-0.05747,-0.18848,-0.16243,0.22632
0.0353,0.99577,-0.08475,-0.15572,-0.21352,0.10905
0.04976,0.99298,-0.10725,-0.12895,-0.21364,-0.00385
0.06231,0.98948,-0.13054,-0.19186,-0.02767,0.00233
0.07308,0.98441,-0.15996,-0.14856,0.00515,0.11138
0.08489,0.97798,-0.1906,-0.10262,0.05807,0.16796
0.10017,0.97126,-0.21588,-0.03275,-0.01059,0.33776
0.11695,0.96552,-0.23257,-0.04954,-0.00484,0.35446
0.13189,0.96163,-0.24054,-0.26513,0.31777,0.2699
0.14401,0.95955,-0.24192,-0.43704,0.34508,0.15972
0.14992,0.95898,-0.24057,-0.56717,0.45966,0.16234
0.1509,0.95903,-0.23975,-0.24804,0.3668,0.38707
0.15014,0.96127,-0.2311,-0.27305,0.5672,0.33667
0.14352,0.9669,-0.21094,-0.3894,0.52126,0.39766
0.12683,0.97647,-0.17437,-0.35648,0.46872,0.26672
0.10295,0.98734,-0.12061,0.13381,0.37585,0.64269
0.0826,0.9951,-0.05417,0.50898,0.25285,0.02745
0.06706,0.99769,0.01082,0.57941,0.21112,-0.41952
0.05424,0.99606,0.07014,0.42107,0.34277,-0.01571
0.03594,0.99093,0.12944,0.06565,0.57175,-0.08687
0.01444,0.98187,0.18896,-0.15672,0.49994,-0.09971
-0.00939,0.97,0.2429,0.06224,0.20297,-0.08038
-0.0349,0.95816,0.28407,0.1375,0.1223,-0.36636
-0.05948,0.94517,0.32109,0.15105,0.10097,-0.43174
-0.0801,0.92966,0.35957,0.04475,-0.18113,-0.45065
-0.09321,0.91304,0.39705,0.02424,-0.31572,-0.44356
-0.09785,0.89731,0.43041,0.16842,-0.52064,-0.53413
-0.09361,0.88315,0.45964,0.21394,-0.50267,-0.57848
-0.08241,0.87287,0.48093,0.22848,-0.48864,-0.52812
-0.06847,0.86916,0.48975,0.39601,-0.55692,-0.38295
-0.05668,0.87094,0.4881,0.36037,-0.59275,-0.33696
-0.04711,0.87795,0.47641,0.2914,-0.61076,-0.32301
-0.03992,0.89054,0.45314,0.0778,-0.46737,-0.16799
-0.03533,0.90722,0.41914,0.00397,-0.28941,0.15352
-0.03585,0.92392,0.38089,0.02184,-0.20674,0.38617
-0.03873,0.93204,0.36027,0.08016,0.66251,0.68868
-0.04164,0.92563,0.37612,-0.15842,1.01055,0.91062
-0.05392,0.91509,0.39961,-0.1468,0.86616,0.73744
-0.06974,0.90661,0.41616,-0.21292,-0.02626,0.41609
-0.07506,0.90393,0.42103,-0.16464,-0.52479,0.39992
-0.07049,0.91006,0.40842,-0.00809,-0.20251,0.32761
-0.07291,0.92371,0.37606,0.14086,0.07804,-0.20398
-0.09286,0.93992,0.32851,0.40539,1.05001,-1.15439
-0.11831,0.94254,0.31241,0.61355,1.33411,-0.50701
-0.13467,0.93559,0.32638,0.61229,1.00087,0.29763
-0.1301,0.93902,0.31827,1.22519,-1.31894,-0.40111
-0.11097,0.94998,0.29191,0.74688,-0.88338,-0.28603
-0.12073,0.96751,0.22211,-0.76588,0.85561,-1.01464
-0.11821,0.98165,0.14958,-0.33293,0.5347,-1.13325
-0.10627,0.9854,0.13294,-0.13174,0.0633,0.27133
-0.08019,0.98924,0.12232,0.08352,-0.21245,0.32165
-0.05769,0.99515,0.07959,0.24016,-0.22864,-0.11675
-0.03937,0.99869,0.03262,0.23968,-0.15308,-0.1024
-0.0246,0.99968,-0.00477,0.14757,-0.03304,-0.19125
-0.01098,0.99941,-0.03237,-0.00836,0.02482,0.04369
0.00095,0.9981,-0.06158,-0.05161,0.00962,0.17329
0.01393,0.99573,-0.09119,-0.04464,-0.19062,0.0219
0.02796,0.99281,-0.11638,-0.02258,-0.23548,-0.13925
0.04255,0.9889,-0.14233,-0.05679,-0.17832,-0.08414
0.05701,0.9837,-0.17048,-0.10552,-0.0123,0.12829
0.07074,0.97671,-0.20257,-0.20867,0.16748,0.15482
0.08481,0.96892,-0.23235,-0.21723,0.08085,0.39133
0.09832,0.96306,-0.25069,-0.16592,0.13782,0.60061
0.11155,0.95922,-0.25969,-0.10885,0.27678,0.40554
0.12568,0.9569,-0.26181,-0.17952,0.32956,0.20692
0.13448,0.9561,-0.26035,-0.45083,0.40849,0.30929
0.13568,0.9567,-0.25749,-0.34944,0.36091,0.46893
0.13379,0.96035,-0.24459,-0.28248,0.50309,0.37215
0.12729,0.96788,-0.21681,-0.47359,0.3855,0.12426
0.11189,0.97862,-0.17254,-0.23635,0.38231,0.28825
0.09256,0.98933,-0.11249,0.16262,0.40333,0.48204
0.07606,0.99586,-0.04962,0.47375,0.36774,-0.32421
0.06217,0.99803,0.00765,0.43104,0.35428,-0.03618
0.04936,0.99667,0.06487,0.44385,0.35564,-0.09341
0.02956,0.99175,0.12468,0.08308,0.4903,0.00328
0.00973,0.98377,0.17912,0.1773,0.3863,-0.01516
-0.01101,0.97418,0.2255,0.26501,0.20986,0.01843
-0.03493,0.96307,0.26695,0.1829,0.01442,-0.31466
-0.05907,0.95044,0.30523,0.06362,-0.0379,-0.47464
-0.07706,0.93553,0.34471,0.06972,-0.21741,-0.48524
-0.08477,0.91854,0.38611,0.05914,-0.31109,-0.58685
-0.08142,0.90149,0.42507,0.19233,-0.61206,-0.48519
-0.0712,0.88784,0.45459,0.20723,-0.6231,-0.44841
-0.05995,0.88073,0.46979,0.30424,-0.60754,-0.34406
-0.05216,0.88119,0.46986,0.30013,-0.57151,-0.23419
-0.04822,0.88929,0.45478,0.2327,-0.59783,-0.16998
-0.04698,0.903,0.42704,0.07737,-0.51685,-0.07494
-0.04659,0.91885,0.39183,-0.00506,-0.2962,0.03705
-0.04546,0.93227,0.35888,-0.01695,-0.17052,0.14913
-0.04268,0.93599,0.3494,-0.14853,0.46986,0.6427
-0.04162,0.92919,0.36723,-0.26845,0.70234,1.05094
-0.05171,0.92158,0.38471,0.01004,0.74161,0.62031
-0.06935,0.91571,0.39578,0.18695,0.61872,0.52938
-0.08574,0.9135,0.39767,-0.02399,-0.75602,0.34184
-0.08148,0.91529,0.39444,0.07072,-0.39744,0.17576
-0.0678,0.92371,0.37702,0.23232,-0.10817,0.03021
-0.06945,0.93468,0.34861,0.43164,1.21273,-1.0734
-0.09281,0.93418,0.3445,0.22239,1.36732,-0.50353
-0.10753,0.93465,0.33889,0.07314,0.81303,0.01024
-0.10433,0.93984,0.32527,0.9258,-1.27031,-0.45358
-0.09313,0.95184,0.29209,0.5833,-0.90377,0.06259
-0.0979,0.97128,0.21683,-0.51778,0.73595,-1.19504
-0.08551,0.98224,0.16698,-0.37218,0.71364,-0.579
-0.06658,0.98573,0.15455,-0.34329,0.57204,0.02297
-0.04478,0.9905,0.13002,0.23061,-0.3076,0.05904
-0.02519,0.9957,0.08904,0.36638,-0.31312,0.00541
-0.01116,0.99887,0.04602,0.35615,-0.2513,-0.00026
0.00067,0.99994,0.01043,0.10146,-0.11402,-0.02399
0.01207,0.99967,-0.02242,0.00716,0.03107,0.09879
0.02264,0.99818,-0.05592,-0.05047,0.03009,0.15168
0.03576,0.99547,-0.088,-0.07869,-0.19501,0.08799
0.05093,0.99216,-0.11411,-0.08485,-0.24332,-0.05532
0.06679,0.98801,-0.13915,-0.07912,-0.18363,-0.03399
0.08399,0.9823,-0.16742,-0.02237,0.00702,0.16379
0.10139,0.97483,-0.19855,-0.17652,0.08267,0.18793
0.1169,0.96731,-0.22504,-0.2819,0.03797,0.24603
0.12847,0.96135,-0.24352,-0.30267,0.19721,0.49984
0.13999,0.95712,-0.2536,-0.18913,0.23758,0.43158
0.15476,0.95441,-0.25524,-0.18914,0.2624,0.1764
0.16534,0.95206,-0.25735,-0.41901,0.46864,0.41666
0.17036,0.95242,-0.25273,-0.35005,0.53585,0.38151
0.167,0.957,-0.23716,-0.43539,0.63359,0.29583
0.15367,0.96681,-0.20411,-0.35708,0.54944,0.04641
0.1306,0.97941,-0.15391,0.00662,0.44703,0.59039
0.10912,0.9901,-0.08819,0.28744,0.30874,0.32902
0.09208,0.99546,-0.02405,0.4679,0.33116,-0.52989
0.08009,0.99615,0.0354,0.4497,0.26468,-0.19721
0.06461,0.99309,0.09786,0.14929,0.38729,0.18674
0.04575,0.98624,0.15881,0.05839,0.47732,-0.13495
0.02533,0.97674,0.21289,0.15408,0.25216,-0.05523
0.00157,0.96553,0.26026,0.16894,0.08463,-0.14514
-0.0233,0.95294,0.30225,0.07014,0.0087,-0.41386
-0.04625,0.93822,0.3429,0.0174,-0.06466,-0.50303
-0.06197,0.92125,0.384,0.03955,-0.23066,-0.5949
-0.06662,0.90388,0.42255,0.13873,-0.44316,-0.52205
-0.06238,0.88868,0.45424,0.26496,-0.57846,-0.51923
-0.05559,0.8782,0.47503,0.29165,-0.58072,-0.50834
-0.04929,0.87485,0.48186,0.35007,-0.5886,-0.36299
-0.04464,0.87862,0.47541,0.32216,-0.58218,-0.26869
-0.04182,0.88837,0.4572,0.17528,-0.58008,-0.18996
-0.03917,0.90222,0.42947,0.08887,-0.58047,-0.1477
-0.03715,0.91667,0.3979,-0.12024,-0.09374,0.43372
-0.03884,0.92652,0.37422,-0.19173,0.16418,0.64885
-0.03695,0.92593,0.37586,-0.27216,0.43905,0.78738
-0.03915,0.92245,0.38411,0.14698,0.58039,0.75129
-0.05194,0.91834,0.39235,0.11691,0.54866,0.36758
-0.06398,0.91298,0.40293,0.02206,0.38362,0.14826
-0.06332,0.911,0.4075,0.05254,-0.39771,0.40508
-0.05713,0.91524,0.39883,0.07454,-0.07709,0.40747
-0.06463,0.9235,0.3781,0.21742,0.11929,0.20448
-0.08967,0.92543,0.36812,0.32886,1.23663,-0.88579
-0.10667,0.92471,0.36539,0.56283,-0.02135,-0.45899
-0.09555,0.92783,0.36053,1.15874,-1.29627,-0.11733
-0.08291,0.93619,0.34156,-0.15471,-0.16794,0.21224
-0.1017,0.95964,0.26217,-0.51199,0.57001,-1.42007
-0.09545,0.97484,0.20141,-0.26255,0.80158,-0.56051
-0.0771,0.98006,0.1831,-0.16582,0.24954,0.11965
-0.05648,0.98664,0.15275,0.21616,-0.35758,-0.0117
-0.0356,0.99325,0.11036,0.3307,-0.35677,-0.19817
-0.01577,0.99759,0.06742,0.25855,-0.17139,-0.07731
-0.0006,0.99955,0.02962,0.14856,-0.10788,0.02189
0.01277,0.9999,-0.00404,0.00793,0.02216,0.04037
0.02328,0.99896,-0.03911,-0.05549,-0.01432,0.11131
0.03499,0.9967,-0.07321,-0.07088,-0.11701,0.16237
0.04992,0.99352,-0.1021,7e-05,-0.21736,-0.06537
0.06645,0.9895,-0.12831,-0.05002,-0.12895,-0.04726
0.08332,0.98455,-0.15399,-0.09829,-0.08828,0.03339
0.09992,0.97838,-0.18106,-0.10944,0.05699,0.14408
0.11509,0.97097,-0.20969,-0.25843,0.10374,0.2298
0.12832,0.96422,-0.23195,-0.34699,0.05372,0.32183
0.13774,0.95914,-0.24714,-0.31074,0.21825,0.53349
0.14718,0.95609,-0.25343,-0.21262,0.25995,0.28459
0.15776,0.95484,-0.25177,-0.34369,0.4248,0.27541
0.16333,0.95461,-0.24907,-0.38259,0.37581,0.39336
0.16439,0.95745,-0.23719,-0.25628,0.56826,0.417
0.1591,0.96432,-0.21156,-0.37139,0.50404,0.33685
0.14285,0.97523,-0.16883,-0.40174,0.41622,0.0234
0.11759,0.98702,-0.10929,-0.01852,0.37549,0.65731
0.09582,0.99445,-0.04333,0.16774,0.34262,0.49469
0.07883,0.99677,0.01529,0.46641,0.3821,-0.58504
0.06398,0.9953,0.07266,0.3497,0.37889,-0.00142
0.04464,0.99007,0.13323,0.26179,0.46584,0.2033
0.0273,0.98177,0.18808,0.18278,0.56674,-0.26436
0.0059,0.97076,0.23996,0.19271,0.17467,-0.09289
-0.01863,0.9583,0.28513,0.18575,0.01526,-0.19453
-0.0452,0.94488,0.32426,0.10521,0.00536,-0.42102
-0.06495,0.92931,0.36352,0.041,-0.12116,-0.5291
-0.0743,0.91275,0.40168,0.03634,-0.23004,-0.53651
-0.07424,0.89638,0.43701,0.16528,-0.43372,-0.62637
-0.06682,0.88258,0.46538,0.18686,-0.52061,-0.55473
-0.05538,0.87474,0.4814,0.19224,-0.58057,-0.50402
-0.04407,0.87393,0.48403,0.30844,-0.63168,-0.33403
-0.03603,0.87961,0.47432,0.18294,-0.67927,-0.25479
-0.03317,0.89167,0.45145,0.04542,-0.58613,-0.16906
-0.03501,0.90749,0.4186,0.03985,-0.51427,-0.07154
-0.03857,0.92134,0.38683,0.15202,-0.08039,0.41674
-0.04055,0.92675,0.37346,0.07995,0.4524,0.74108
-0.03799,0.92242,0.38431,0.0057,0.71807,0.89786
-0.04202,0.91642,0.39798,-0.00555,0.39014,0.46551
-0.05176,0.91171,0.40753,-0.08994,0.25227,0.35684
-0.06018,0.90985,0.41052,-0.09624,-0.36664,0.48566
-0.06045,0.91363,0.402,-0.04894,-0.11653,0.44842
-0.07094,0.9231,0.37793,0.19237,0.60712,-0.14122
-0.09426,0.93174,0.35066,0.30393,1.27368,-1.29926
-0.11573,0.9275,0.35544,0.65951,0.21723,-0.46057
-0.117,0.92872,0.35181,1.04379,-0.84209,-0.29236
-0.09376,0.93325,0.34675,0.73741,-1.0109,0.3347
-0.10801,0.95077,0.29045,-0.56296,0.46395,-0.62999
-0.11338,0.97182,0.20665,-0.54472,0.49027,-1.43427
-0.10109,0.9791,0.17644,-0.36551,0.71745,-0.01107
-0.08074,0.98425,0.15724,-0.04121,-0.0874,0.05544
-0.05926,0.99108,0.11931,0.15988,-0.28928,-0.04097
-0.03518,0.99626,0.07878,0.37582,-0.32424,-0.1358
-0.01848,0.99904,0.03964,0.21896,-0.13806,0.03356
-0.00388,0.99998,0.00395,0.12686,-0.09477,0.10618
0.00891,0.99946,-0.03146,0.043,0.04816,0.03219
0.02213,0.99751,-0.06687,-0.0978,-0.11961,0.26459
0.03923,0.99437,-0.09838,-0.11926,-0.18744,0.2174
0.0571,0.99054,-0.12475,-0.1455,-0.16022,-0.10378
0.0736,0.98556,-0.15247,-0.10139,-0.10565,-0.02094
0.09004,0.97904,-0.18268,-0.06604,-0.05759,0.07736
0.10545,0.97085,-0.21523,-0.16046,0.10899,0.21438
0.11994,0.96258,-0.243,-0.31699,0.10252,0.42344
0.12943,0.95611,-0.26285,-0.34278,0.16857,0.52637
0.13931,0.95165,-0.27375,-0.09774,0.21679,0.24912
0.15274,0.94913,-0.27534,-0.16939,0.31446,0.19657
0.16264,0.94775,-0.27443,-0.28463,0.42896,0.3817
0.16693,0.94939,-0.26605,-0.36362,0.5599,0.3167
0.16167,0.95499,-0.24871,-0.54645,0.59693,0.20507
0.14347,0.96584,-0.21579,-0.49366,0.57664,-0.0562
0.11486,0.97883,-0.16941,-0.06166,0.5189,0.46634
0.08958,0.99001,-0.10881,0.22637,0.37707,0.43041
0.07168,0.99622,-0.04889,0.39219,0.3384,-0.10056
0.06161,0.99807,0.00646,0.49628,0.27461,-0.37051
0.04714,0.99657,0.06793,0.14068,0.40507,0.22968
0.03129,0.99143,0.12682,0.12168,0.49408,0.01623
0.01318,0.98363,0.1797,0.17663,0.46754,-0.13006
-0.01382,0.97376,0.22712,0.12588,-0.05257,-0.24471
-0.04376,0.96229,0.26846,0.18403,-0.0646,-0.34852
-0.0665,0.94891,0.30842,0.16665,-0.04534,-0.47126
-0.08111,0.9327,0.35138,0.12117,-0.28611,-0.53248
-0.0867,0.9148,0.39446,0.134,-0.43,-0.5131
-0.08162,0.89897,0.43033,0.14274,-0.50724,-0.50106
-0.06905,0.88812,0.45437,0.21492,-0.68498,-0.37301
-0.05396,0.88365,0.46502,0.23717,-0.63827,-0.34193
-0.03964,0.88579,0.46238,0.24017,-0.6075,-0.29569
-0.02775,0.89399,0.44722,0.06194,-0.49213,-0.15756
-0.01937,0.90599,0.42284,0.0311,-0.40731,-0.10029
-0.01611,0.91859,0.39487,0.0157,-0.32915,0.0158
-0.01797,0.9256,0.37807,-0.09585,0.2396,0.64545
-0.02294,0.92302,0.38404,-0.17932,0.62022,0.97428
-0.03757,0.91744,0.39607,0.11605,0.70643,0.60428
-0.04876,0.9102,0.41126,0.02293,0.36093,0.34782
-0.05219,0.90436,0.42354,0.00847,0.20498,0.34778
-0.04772,0.90256,0.42789,0.22689,0.27201,0.51794
-0.04575,0.90367,0.42576,0.30335,0.52797,0.3557
-0.06845,0.90543,0.41893,0.13432,0.92004,-0.14135
-0.10482,0.90778,0.40611,0.35552,-0.36146,-0.88326
-0.12323,0.91858,0.3755,1.22899,-1.25931,-0.51626
-0.10574,0.92863,0.35559,1.42685,-1.23637,-0.36522
-0.10972,0.94583,0.30552,-0.27213,0.42584,-0.00973
-0.11051,0.96971,0.21781,-0.52778,0.86832,-0.9649
-0.09189,0.98001,0.17644,-0.18674,0.58004,-1.08695
-0.07092,0.98533,0.15519,-0.02522,-0.06361,0.25172
-0.04804,0.99199,0.11674,0.30226,-0.49543,0.01326
-0.02552,0.99721,0.06999,0.25959,-0.42173,-0.05227
-0.00739,0.99961,0.02666,-0.09035,0.00573,-0.21314
0.00505,0.99994,-0.00887,-0.18733,0.08554,-0.07247
0.01385,0.99899,-0.04251,-0.16894,0.06523,0.02352
0.0237,0.99664,-0.0784,0.05116,-0.17063,0.30131
0.03809,0.99304,-0.11142,0.12547,-0.21782,0.22102
0.05497,0.98873,-0.13924,0.01694,-0.16819,0.00925
0.07151,0.98375,-0.16463,-0.09164,-0.06814,-0.05328
0.08745,0.97744,-0.19222,-0.09653,0.04938,0.07786
0.10349,0.96944,-0.2224,-0.16053,0.12301,0.16403
0.11977,0.96148,-0.24738,-0.23506,0.08103,0.39571
0.13339,0.95573,-0.26228,-0.27168,0.2906,0.45367
0.14604,0.9517,-0.27006,-0.28434,0.29462,0.46145
0.1574,0.94944,-0.27164,-0.2772,0.36334,0.05665
0.16344,0.94793,-0.27332,-0.27598,0.4545,0.4589
0.16755,0.94804,-0.27045,-0.28008,0.4544,0.45603
0.16819,0.9523,-0.25463,-0.21297,0.63724,0.35608
0.16058,0.96092,-0.22545,-0.58671,0.36213,0.24596
0.14317,0.97319,-0.17999,-0.5693,0.34987,0.2005
0.119,0.98568,-0.11943,-0.06002,0.14783,0.54911
0.09615,0.99361,-0.05909,0.21654,0.30734,-0.53547
0.076,0.99709,-0.0053,0.23669,0.30386,-0.58925
0.05586,0.99697,0.05409,0.29408,0.48607,0.00978
0.03477,0.99256,0.11661,0.35103,0.61504,-0.08471
0.01521,0.98526,0.17032,0.3736,0.55622,-0.17026
-0.0158,0.97582,0.21798,0.24381,0.25807,-0.09018
-0.05451,0.96534,0.25522,0.14075,-0.04618,-0.20841
-0.0925,0.95301,0.28844,0.11206,-0.08264,-0.41488
-0.11789,0.93654,0.33013,0.04162,-0.14957,-0.57316
-0.1288,0.91732,0.37671,0.1199,-0.35891,-0.63442
-0.12427,0.89703,0.42412,0.17917,-0.53368,-0.72975
-0.10771,0.88115,0.46039,0.24561,-0.78537,-0.50713
-0.09056,0.87398,0.47743,0.36101,-0.74881,-0.30777
-0.07764,0.87607,0.47588,0.33422,-0.70351,-0.25046
-0.0702,0.88517,0.45993,0.19342,-0.587,-0.2402
-0.06777,0.8997,0.4312,0.14318,-0.3863,-0.11879
-0.06814,0.91697,0.39306,0.16084,-0.30871,0.08283
-0.07046,0.93019,0.36024,0.06521,0.13481,0.78924
-0.07158,0.92963,0.36146,-0.30178,1.02105,1.02149
-0.07606,0.92078,0.38258,-0.27761,1.17799,1.11742
-0.08406,0.91462,0.39547,-0.0685,0.04548,0.36097
-0.08542,0.9124,0.40027,-0.19598,-0.31749,0.30046
-0.07878,0.91341,0.39933,-0.14223,-0.20111,0.38924
-0.08709,0.91835,0.38606,0.14725,1.01319,-0.07562
-0.1106,0.92045,0.37486,0.48031,1.82411,-1.41213
-0.13465,0.91199,0.38746,0.57164,1.44915,-0.95117
-0.13717,0.91831,0.37131,1.61031,-1.96926,-0.10945
-0.12163,0.92795,0.35229,0.83493,-1.11383,0.33561
-0.14838,0.95095,0.27142,-0.5951,0.53129,-0.69103
-0.13982,0.97188,0.18943,-0.0088,0.85642,-1.66961
-0.12087,0.9771,0.17508,-0.32461,0.80343,0.04054
-0.09933,0.9832,0.15313,-0.29247,0.19169,0.45307
-0.08133,0.99104,0.10586,0.23979,-0.43158,-0.10037
-0.06078,0.99642,0.05873,0.23232,-0.33696,-0.18613
-0.04341,0.99891,0.0169,0.13763,-0.24445,-0.06314
-0.02856,0.99936,-0.02134,-0.01651,0.01196,0.08088
-0.01532,0.99822,-0.05756,-0.03444,0.03649,0.03902
-0.0004,0.99565,-0.09312,-0.02477,-0.15874,0.25113
0.01938,0.99218,-0.12325,0.0276,-0.26506,0.16245
0.04013,0.98808,-0.14862,-0.02745,-0.17692,0.00479
0.0597,0.98218,-0.17817,-0.08674,-0.13053,0.00324
0.07905,0.9744,-0.21047,-0.13924,-0.0867,0.08582
0.09816,0.96517,-0.2425,-0.24718,0.11387,0.25639
0.11679,0.95645,-0.26751,-0.28284,0.053,0.41591
0.13088,0.95004,-0.28336,-0.32902,0.11156,0.52971
0.14664,0.94557,-0.2905,-0.2096,0.28697,0.20154
0.16182,0.9432,-0.29013,-0.32813,0.38109,0.17697
0.16868,0.94252,-0.28843,-0.44848,0.51347,0.30221
0.16998,0.94587,-0.27647,-0.40726,0.40757,0.41872
0.1619,0.95409,-0.25197,-0.38691,0.66708,0.35402
0.14188,0.96751,-0.20927,-0.45573,0.51669,0.28818
0.11363,0.98252,-0.14743,0.13254,0.56188,0.50529
0.08762,0.99285,-0.081,0.39009,0.48843,0.13841
0.06814,0.99746,-0.0206,0.54261,0.46186,-0.29303
0.05218,0.99778,0.04117,0.55663,0.53862,0.26554
0.03383,0.99389,0.10503,0.4422,0.46432,0.10166
0.014,0.98593,0.16653,0.27042,0.46913,-0.19772
-0.01164,0.9742,0.22535,0.0735,-0.0093,-0.03681
-0.04159,0.96084,0.27396,0.09327,-0.0716,-0.22455
-0.07238,0.9452,0.31834,0.0706,0.04332,-0.50853
-0.09403,0.92598,0.36565,0.05522,-0.07567,-0.66993
-0.10402,0.90426,0.41411,0.10349,-0.14631,-0.64098
-0.09952,0.88535,0.45414,0.23004,-0.73909,-0.53191
-0.0874,0.87254,0.48065,0.29539,-0.74405,-0.51487
-0.07312,0.8682,0.49079,0.2746,-0.74088,-0.48403
-0.05931,0.87313,0.48386,0.21523,-0.69211,-0.30904
-0.04642,0.88589,0.46156,0.05849,-0.588,-0.25323
-0.03897,0.90381,0.42614,0.0001,-0.53842,-0.1845
-0.0407,0.92308,0.38242,-0.03596,-0.21178,0.24725
-0.05196,0.93738,0.3444,0.08707,0.19032,0.53846
-0.06335,0.9375,0.34215,0.12769,0.64838,0.77659
-0.07919,0.93239,0.35266,0.16761,0.40622,0.79869
-0.09562,0.92524,0.36711,0.0118,0.10201,0.29151
-0.10112,0.91795,0.38357,-0.11227,-0.25349,0.25794
-0.09606,0.91312,0.39621,-0.17005,-0.54294,0.53688
-0.09408,0.91439,0.39373,0.10986,0.1029,0.29423
-0.1073,0.92002,0.37687,0.66318,1.03342,-0.48397
-0.12536,0.91607,0.38092,0.4978,2.07806,-0.64639
-0.13452,0.91441,0.38176,0.57587,-0.6552,-0.46892
-0.12488,0.91893,0.37411,0.56622,-0.65972,-0.46127
-0.1246,0.93076,0.34373,0.27687,-0.63523,0.64985
-0.14244,0.95734,0.2514,-0.23827,0.37513,-1.48925
-0.12695,0.96982,0.20816,-0.10847,0.79499,-1.42832
-0.10939,0.978,0.17757,-0.39876,0.56028,0.02968
-0.09641,0.98656,0.13188,0.01133,-0.24872,-0.0027
-0.0747,0.99389,0.0812,0.1364,-0.37202,-0.11291
-0.04997,0.99805,0.03732,0.31568,-0.39275,-0.20654
-0.03149,0.9995,-0.00202,0.27687,-0.16422,0.14508
-0.01551,0.99892,-0.0436,0.16514,-0.00112,0.02293
-0.00035,0.99663,-0.08196,0.08702,0.02243,-0.00069
0.01793,0.99307,-0.1161,-0.05656,-0.12785,0.17374
0.03767,0.98853,-0.1462,-0.06445,-0.16703,0.15375
0.05602,0.98309,-0.17433,-0.06243,-0.12031,0.04789
0.07369,0.97658,-0.20212,-0.11814,-0.13996,0.05892
0.08938,0.9691,-0.2299,-0.13212,-0.12474,0.10836
0.1041,0.96055,-0.25786,-0.26294,0.09447,0.22548
0.11807,0.95354,-0.27714,-0.30213,0.06735,0.52098
0.13106,0.9489,-0.28705,-0.1815,0.25034,0.46426
0.14523,0.94588,-0.29021,-0.15089,0.21001,0.31256
0.15613,0.94441,-0.28933,-0.39483,0.47278,0.35968
0.15966,0.945,-0.28545,-0.51029,0.39031,0.29865
0.1574,0.94857,-0.27465,-0.41085,0.54903,0.36141
0.14845,0.95705,-0.24901,-0.45689,0.4617,0.06394
0.12588,0.96927,-0.21135,-0.40147,0.55017,0.02566
0.09951,0.98214,-0.15967,0.2802,0.5417,0.49684
0.07906,0.99182,-0.10017,0.54716,0.40291,-0.11811
0.06485,0.99686,-0.04529,0.53781,0.39532,-0.3867
0.05077,0.99865,0.01021,0.37015,0.52246,0.16952
0.02995,0.99737,0.06592,0.21055,0.6597,0.13385
0.00749,0.99318,0.11634,0.21646,0.64873,-0.13918
-0.01069,0.98668,0.16231,0.30439,0.02796,-0.08501
-0.03103,0.9779,0.20671,0.14227,-0.14493,-0.20224
-0.05274,0.96735,0.24787,0.12003,-0.13389,-0.3001
-0.06968,0.95463,0.28949,0.02748,-0.25528,-0.50508
-0.07668,0.93939,0.33416,0.02122,-0.40881,-0.56168
-0.074,0.92422,0.37462,0.04429,-0.51317,-0.51179
-0.06471,0.91271,0.40343,0.13734,-0.58593,-0.33569
-0.05575,0.9067,0.41806,0.17793,-0.51236,-0.34945
-0.04881,0.90563,0.42124,0.22263,-0.51993,-0.42014
-0.04142,0.9086,0.41559,0.31039,-0.64513,-0.28815
-0.03493,0.91702,0.39729,0.20738,-0.59446,-0.0628
-0.03078,0.92905,0.36866,0.11062,-0.48541,0.08879
-0.02919,0.9378,0.34592,-0.13392,-0.0341,0.55377
-0.02597,0.9375,0.34699,-0.17786,0.32422,0.95655
-0.02489,0.93283,0.35944,-0.16391,0.34314,1.14401
-0.03895,0.92646,0.37435,0.37388,0.58624,0.50601
-0.04816,0.91654,0.39701,0.36575,0.40596,-0.07299
-0.04904,0.90823,0.41557,0.18848,0.06275,-0.02308
-0.04333,0.90593,0.42118,0.13325,-0.34768,0.41882
-0.04609,0.90959,0.41292,0.29902,0.38467,0.24101
-0.06923,0.9143,0.39907,0.36944,1.43872,-0.38096
-0.09571,0.91606,0.38944,-0.03476,0.84301,-0.65126
-0.10836,0.92124,0.37357,0.70624,-1.11578,-0.34981
-0.09137,0.9249,0.36906,1.20238,-1.26154,-0.44013
-0.09287,0.93973,0.32904,0.20284,-0.39661,0.27324
-0.09937,0.96327,0.24944,-0.31426,0.70465,-1.10978
-0.08546,0.97324,0.2133,-0.26303,0.88822,-0.62741
-0.07009,0.98018,0.18529,-0.28854,0.40679,-0.04471
-0.05517,0.98797,0.14441,0.01002,-0.21148,-0.03723
-0.03404,0.99424,0.10156,0.10786,-0.27723,-0.07882
-0.01413,0.99796,0.06209,0.17259,-0.19634,0.02689
0.00176,0.99974,0.02251,0.0093,-0.15024,0.09264
0.01801,0.99968,-0.0174,-0.00325,-0.11368,0.14391
0.03248,0.99806,-0.05307,-0.0795,-0.05506,0.07015
0.0476,0.99507,-0.08692,-0.10329,-0.21161,0.16937
0.0641,0.99099,-0.11756,-0.05934,-0.21186,-0.03778
0.08086,0.98583,-0.14691,-0.06904,-0.12519,0.09478
0.09901,0.97937,-0.17613,-0.11985,-0.01291,0.16052
0.11664,0.97175,-0.20513,-0.18967,0.15607,0.17608
0.13159,0.9636,-0.23272,-0.37614,0.09298,0.26743
0.14039,0.95764,-0.25139,-0.33514,0.15272,0.55521
0.1477,0.95396,-0.26104,-0.28457,0.20072,0.59063
0.15714,0.95225,-0.26174,-0.28235,0.31557,0.24537
0.164,0.95095,-0.26227,-0.39685,0.48466,0.36504
0.16696,0.95177,-0.2574,-0.31831,0.37434,0.42495
0.1669,0.95599,-0.24129,-0.27124,0.64228,0.42695
0.15846,0.96493,-0.20925,-0.52619,0.4469,0.14514
0.13745,0.97713,-0.16224,-0.40724,0.42746,0.04433
0.11282,0.98847,-0.10091,0.14585,0.36542,0.39578
0.09159,0.995,-0.03962,0.35519,0.39384,-0.46744
0.07425,0.99709,0.01681,0.39197,0.43531,-0.56829
0.05444,0.99555,0.07692,0.22226,0.42438,0.27132
0.03299,0.99032,0.13481,0.16977,0.58767,-0.2447
0.01179,0.9817,0.19003,0.2172,0.41349,-0.13356
-0.01307,0.97138,0.23714,0.25578,0.01922,-0.07419
-0.04167,0.96004,0.27671,0.10269,0.04469,-0.34584
-0.07091,0.94618,0.31577,0.08027,-0.03895,-0.36266
-0.09254,0.92926,0.35764,0.07992,-0.1168,-0.45154
-0.1017,0.91127,0.39903,0.09964,-0.61393,-0.54408
-0.09771,0.895,0.43522,0.09565,-0.59765,-0.58027
-0.08522,0.8834,0.46078,0.19095,-0.74496,-0.46792
-0.06982,0.87931,0.47109,0.27724,-0.73856,-0.26452
-0.05592,0.88313,0.46577,0.26334,-0.74238,-0.2592
-0.04327,0.89371,0.44654,0.1133,-0.64209,-0.1138
-0.03412,0.90876,0.41591,-0.04919,-0.36459,0.08051
-0.03072,0.92433,0.38034,-0.05259,-0.38016,0.11608
-0.03066,0.93334,0.35768,-0.16808,0.24568,0.50568
-0.03196,0.92925,0.36804,-0.08248,0.96046,1.11169
-0.04422,0.92185,0.38499,0.16787,0.82148,0.8173
-0.05373,0.91399,0.40214,0.25653,0.33012,0.32428
-0.05779,0.90926,0.41219,0.13016,-0.2892,0.37512
-0.05189,0.90912,0.41328,0.15802,-0.33434,0.44224
-0.04508,0.91182,0.40809,0.21106,0.20935,0.5126
-0.06152,0.91812,0.39147,0.03263,1.13803,-0.55284
-0.09492,0.91865,0.38348,0.00538,1.13799,-1.06756
-0.11809,0.92449,0.36243,0.67889,-0.85084,-0.48344
-0.09703,0.92567,0.36567,1.42616,-1.27902,0.21024
-0.08988,0.93971,0.32993,-0.21144,0.29526,-0.15571
-0.1017,0.96799,0.22943,-0.50154,0.82492,-1.7679
-0.08894,0.97748,0.19136,-0.50398,0.86157,-0.20499
-0.06909,0.98201,0.17572,-0.28943,0.06035,0.09914
-0.04961,0.98856,0.14239,0.14122,-0.43787,-0.13655
-0.02442,0.99454,0.10139,0.28135,-0.40526,-0.04184
4e-05,0.99813,0.06109,0.2841,-0.29746,0.0114
0.0175,0.99954,0.0246,0.1411,-0.07011,0.10646
0.03197,0.9994,-0.01328,-0.01354,-0.01131,0.1845
0.04348,0.99786,-0.04885,-0.10673,0.00748,0.16941
0.05694,0.99503,-0.08164,-0.13261,-0.24326,0.16389
0.07331,0.99123,-0.1099,-0.1144,-0.21116,-0.05088
0.08952,0.9864,-0.13784,-0.13818,-0.15345,-0.0567
0.10575,0.98006,-0.16819,-0.1362,0.02087,0.19509
0.12225,0.97246,-0.1984,-0.08787,-0.00765,0.27258
0.13804,0.9654,-0.22125,-0.19007,-0.03058,0.30311
0.15005,0.95994,-0.23662,-0.22829,0.25339,0.38063
0.16204,0.95637,-0.24309,-0.2443,0.20836,0.27142
0.17486,0.95415,-0.24292,-0.28016,0.32259,0.17814
0.18378,0.95252,-0.24275,-0.46931,0.3737,0.34814
0.19051,0.95255,-0.23739,-0.38512,0.31547,0.49275
0.19075,0.95668,-0.21994,-0.39311,0.45661,0.31881
0.17764,0.96506,-0.1926,-0.51102,0.45028,0.33445
0.15508,0.97705,-0.14602,-0.13469,0.24855,0.48422
0.12898,0.9882,-0.08259,0.22679,0.32685,0.53743
0.10628,0.99412,-0.02059,0.51068,0.3361,0.1998
0.08783,0.99542,0.03753,0.48669,0.59567,-0.05241
0.06668,0.99311,0.09634,0.50785,0.59799,-0.11122
0.0405,0.98756,0.15193,0.23112,0.7651,0.03708
0.00824,0.97957,0.20091,0.05963,0.68007,0.02088
-0.03012,0.97087,0.2377,0.00346,0.23713,-0.06633
-0.06842,0.96194,0.26453,0.05923,-0.00433,-0.35662
-0.09732,0.9494,0.29861,0.00904,-0.13741,-0.55235
-0.11523,0.93377,0.33879,0.10738,-0.32595,-0.52206
-0.12015,0.91702,0.38029,0.20836,-0.55974,-0.58488
-0.11567,0.89965,0.42099,0.324,-0.62915,-0.62489
-0.10684,0.88614,0.45092,0.31242,-0.55882,-0.41873
-0.09744,0.88089,0.46317,0.35696,-0.61535,-0.32752
-0.08885,0.88309,0.46071,0.3921,-0.67218,-0.28623
-0.08017,0.89075,0.44736,0.23357,-0.67969,-0.30533
-0.07253,0.90336,0.42269,0.11353,-0.58094,-0.18165
-0.06919,0.91839,0.38957,-0.0351,0.09703,0.54407
-0.06914,0.92919,0.36306,-0.03515,0.08622,0.57058
-0.06388,0.92941,0.36345,-0.21821,0.60071,0.97784
-0.05863,0.9269,0.37067,-0.06656,0.29865,0.80282
-0.06397,0.92476,0.37511,0.08677,0.45519,0.53373
-0.07267,0.92122,0.38219,0.02573,0.10205,0.29046
-0.0751,0.91806,0.38926,-0.10787,-0.67474,0.41403
-0.06719,0.92085,0.38408,0.06464,-0.84271,0.23167
-0.06211,0.93309,0.35423,0.21649,-0.17332,-0.22624
-0.07469,0.95293,0.29384,0.86966,0.28772,-1.50511
-0.08425,0.96071,0.26442,1.09946,1.91337,-0.52037
-0.07473,0.94338,0.32315,0.27163,1.6099,1.48532
-0.08701,0.94581,0.31282,0.29804,-1.46612,-0.95429
-0.08532,0.95881,0.27093,0.55818,-1.51459,-0.50147
-0.08538,0.97593,0.20065,-0.02894,-0.43556,-0.41224
-0.06592,0.98834,0.1372,-0.12207,0.84081,-1.40558
-0.02981,0.99308,0.11359,-0.06556,1.29765,-0.94848
-0.007,0.99605,0.08848,-0.09292,0.21658,0.27428
0.00594,0.99905,0.04318,0.09117,-0.31173,0.06732
0.01593,0.99986,-0.00367,0.29346,-0.45773,-0.02842
0.02825,0.99877,-0.04078,0.34195,-0.43979,0.0245
0.04601,0.996,-0.07658,0.10672,0.01024,0.20127
0.06388,0.99147,-0.11354,-0.13521,0.15164,0.10951
0.08294,0.98567,-0.14684,-0.10453,-0.05739,0.13712
0.1033,0.97945,-0.17319,-0.06658,-0.23258,0.15056
0.1214,0.97298,-0.19637,-0.2552,-0.08451,0.05215
0.13628,0.96518,-0.22326,-0.32502,0.01422,0.17033
0.14933,0.9569,-0.24906,-0.39729,0.06834,0.23518
0.16001,0.95085,-0.26511,-0.38741,0.0068,0.32865
0.17027,0.94659,-0.27383,-0.20855,0.16114,0.63107
0.18127,0.94306,-0.27886,-0.18696,0.31061,0.46003
0.19004,0.94167,-0.27774,-0.43956,0.36772,0.1036
0.19297,0.94219,-0.27391,-0.52741,0.4793,0.28064
0.19039,0.94599,-0.2624,-0.31439,0.5887,0.54562
0.18173,0.95519,-0.23362,-0.41863,0.4587,0.30345
0.15716,0.96923,-0.18944,-0.36676,0.48118,0.04685
0.12656,0.98346,-0.12953,-0.10755,0.50232,0.51021
0.09934,0.99305,-0.06301,0.20415,0.53243,0.17685
0.07869,0.99689,-0.00181,0.4471,0.4636,-0.43871
0.05944,0.99664,0.05623,0.45883,0.45595,-0.17972
0.03246,0.99274,0.11574,0.30997,0.41549,0.09476
0.01178,0.9841,0.17718,0.20015,0.42335,-0.18165
-0.00898,0.9726,0.23228,0.275,0.16342,-0.12529
-0.034,0.96001,0.27788,0.20562,0.08198,-0.2695
-0.05815,0.9452,0.32126,0.15984,0.06373,-0.38876
-0.07566,0.92792,0.36499,0.02664,-0.18787,-0.5907
-0.08243,0.90922,0.40806,0.01255,-0.44366,-0.46926
-0.07879,0.89207,0.44495,0.06844,-0.63994,-0.52749
-0.06732,0.87839,0.47316,0.20994,-0.71369,-0.5087
-0.05007,0.871,0.48871,0.25521,-0.69561,-0.49253
-0.03066,0.87046,0.49127,0.32932,-0.78394,-0.37166
-0.01329,0.87647,0.48126,0.2019,-0.66134,-0.28366
6e-05,0.88866,0.45854,0.15052,-0.62411,-0.22536
0.00956,0.9049,0.42551,-0.03196,-0.42719,0.02471
0.0153,0.92053,0.39034,-0.0482,-0.20079,0.54801
0.0188,0.92935,0.3687,-0.03563,-0.04593,0.73072
0.02156,0.92339,0.38324,0.19931,1.02084,1.00657
0.00595,0.9139,0.40587,0.33778,0.96367,0.44611
-0.01178,0.90259,0.43032,0.20722,0.61877,0.20925
-0.02486,0.89493,0.4455,-0.1189,-0.88788,0.38896
-0.0251,0.8961,0.44313,0.09412,-0.85175,0.33514
-0.01642,0.90241,0.43056,0.21852,-0.44194,0.28117
-0.0315,0.92574,0.37683,0.34934,0.39164,-1.39454
-0.05487,0.94486,0.32284,0.60362,1.76845,0.19909
-0.06019,0.93198,0.35747,0.5601,2.24262,1.09112
-0.0564,0.9268,0.37127,0.69405,-1.45213,-0.81207
-0.05026,0.9389,0.34049,0.27948,-1.1926,0.04438
-0.05925,0.96209,0.26621,-0.22264,-0.69538,-0.4439
-0.06265,0.97871,0.19542,-0.33651,1.2753,-0.18423
-0.04589,0.98434,0.17017,-0.31013,0.94246,-0.16743
-0.02755,0.98938,0.14268,-0.1728,0.49803,-0.17875
-0.01531,0.99495,0.0991,0.30979,-0.23148,-0.02368
-0.00291,0.99874,0.04999,0.52157,-0.44581,0.18481
0.00784,0.99994,0.00739,0.50183,-0.54924,0.23905
0.02214,0.99916,-0.03441,0.18287,-0.1815,0.07251
0.03661,0.99646,-0.07555,-0.07163,0.10626,-0.0124
0.0511,0.99231,-0.1127,-0.23336,-0.07336,0.10866
0.06721,0.98735,-0.14361,-0.19695,-0.24256,0.01867
0.08262,0.9818,-0.17098,-0.09388,-0.24527,0.09069
0.09936,0.97475,-0.19995,-0.0716,-0.07017,0.246
0.11703,0.96627,-0.2294,-0.07762,-0.00243,0.28184
0.13307,0.95599,-0.26146,-0.41485,0.0063,0.17529
0.14584,0.94617,-0.28892,-0.5,0.06423,0.36097
0.15699,0.93842,-0.30775,-0.31724,0.24795,0.56411
0.17097,0.93314,-0.31626,-0.11781,0.31758,0.37396
0.18392,0.93025,-0.31749,-0.20319,0.42984,0.38351
0.19304,0.92974,-0.31356,-0.42398,0.4495,0.68524
0.199,0.9355,-0.29194,-0.46796,0.63065,0.39973
0.19315,0.94854,-0.2509,-0.57685,0.52488,0.10432
0.17113,0.96598,-0.19388,-0.12803,0.54102,0.26352
0.13944,0.98156,-0.13075,0.20506,0.78814,-0.00802
0.10643,0.9913,-0.07745,0.49226,0.73542,-0.42145
0.08329,0.99629,-0.02156,0.46783,0.6568,0.11078
0.05832,0.99716,0.04753,0.25848,0.62132,0.34778
0.04131,0.99278,0.11254,0.22426,0.54262,-0.37981
0.02849,0.98465,0.1722,0.25028,0.29584,0.01602
0.00328,0.97343,0.22895,0.13916,0.02619,-0.39689
-0.02412,0.95999,0.27899,0.1524,-0.00341,-0.50567
-0.04578,0.94323,0.32894,0.15752,-0.36907,-0.51711
-0.0562,0.92279,0.38117,0.16593,-0.49238,-0.62412
-0.05198,0.90066,0.43139,0.19724,-0.58178,-0.66651
-0.03606,0.88001,0.47356,0.18565,-0.92468,-0.53942
-0.01701,0.8652,0.50112,0.26414,-0.81109,-0.42303
-0.00029,0.86001,0.51027,0.17654,-0.71204,-0.39662
0.01497,0.86481,0.50186,0.02321,-0.64159,-0.35243
0.02941,0.87847,0.47688,-0.08738,-0.61519,-0.12761
0.03688,0.89856,0.43728,-0.16382,-0.50655,0.14083
0.03342,0.9219,0.38597,-0.14827,-0.13299,0.72486
0.02692,0.93745,0.34706,0.08833,1.04346,1.03787
0.02062,0.93285,0.35967,0.26368,1.69353,1.12318
-0.00856,0.926,0.3774,0.20621,0.17554,0.22787
-0.03434,0.91736,0.39655,0.00645,-0.77514,0.43658
-0.0449,0.91225,0.40714,0.19352,-0.84841,0.63936
-0.03794,0.90724,0.41888,0.3697,0.8447,0.37086
-0.05261,0.90579,0.42042,0.34372,1.33241,-1.36845
-0.07859,0.90742,0.4128,0.36509,1.34567,-1.15202
-0.09397,0.90651,0.41158,0.9085,-0.9906,-0.61202
-0.08886,0.911,0.4027,0.8087,-1.11204,0.30262
-0.09631,0.92945,0.35614,0.12518,-0.70536,0.04554
-0.10318,0.95591,0.27492,-0.11705,1.1253,-1.03153
-0.07601,0.9692,0.23423,-0.19686,0.96859,-0.24272
-0.05426,0.97924,0.19526,-0.11853,0.20975,-0.17752
-0.03672,0.98773,0.15177,0.08429,-0.18272,-0.10173
-0.01716,0.99431,0.10511,0.15377,-0.24664,-0.07228
0.00181,0.99806,0.06223,0.15325,-0.2008,0.02287
0.0181,0.99962,0.02078,0.12188,-0.18887,0.06968
0.03443,0.99914,-0.02285,0.03639,-0.02552,0.15284
0.05044,0.9966,-0.065,-0.09393,0.0525,0.06538
0.06807,0.99273,-0.09922,-0.14122,-0.21339,0.1169
0.08822,0.98776,-0.12858,-0.10303,-0.28258,0.00182
0.10991,0.98117,-0.1588,-0.12471,-0.27598,0.03205
0.1305,0.97283,-0.19123,-0.16859,-0.18044,0.03225
0.14819,0.96218,-0.22858,-0.31276,-0.07059,0.4211
0.16297,0.95051,-0.26451,-0.31365,-0.12159,0.61523
0.17494,0.94242,-0.28501,-0.19607,0.08953,0.79297
0.18844,0.93757,-0.2923,-0.07106,0.2381,0.42244
0.20388,0.93502,-0.29009,-0.29142,0.35118,0.23382
0.21333,0.93397,-0.28667,-0.68407,0.61969,0.51064
0.21404,0.93718,-0.27545,-0.62323,0.50918,0.50897
0.20578,0.94579,-0.25124,-0.64209,0.67649,0.25735
0.18397,0.96067,-0.20798,-0.62069,0.5843,-0.14474
0.15176,0.97695,-0.15013,-0.04712,0.77573,0.4285
0.11949,0.98896,-0.08757,0.46923,0.78858,-0.11151
0.09672,0.9948,-0.03165,0.68041,0.72422,-0.32105
0.07995,0.99639,0.02837,0.52659,0.45544,0.15569
0.05593,0.99383,0.09572,0.34833,0.37977,0.21982
0.03733,0.98665,0.15848,0.31988,0.29237,-0.30776
0.01786,0.9763,0.21565,-0.01135,0.13436,-0.1612
-0.01095,0.96386,0.26616,-0.04502,0.12415,-0.31824
-0.04244,0.95024,0.30858,0.0124,-0.0253,-0.49935
-0.06446,0.93317,0.35358,0.0729,-0.18668,-0.66858
-0.07431,0.91426,0.39824,0.11972,-0.34586,-0.67111
-0.0695,0.89558,0.43943,0.23495,-0.83213,-0.64404
-0.05519,0.88146,0.46901,0.32295,-0.98249,-0.50741
-0.03813,0.87587,0.48102,0.3324,-0.95147,-0.44696
-0.02225,0.87943,0.4755,0.23595,-0.78836,-0.35585
-0.00914,0.88993,0.45598,0.11389,-0.67405,-0.28133
-0.00244,0.90579,0.4237,0.03589,-0.39976,0.02079
-0.00777,0.92646,0.3763,0.17752,-0.0991,0.56111
-0.02376,0.94443,0.32785,0.55502,0.69785,0.77248
-0.02515,0.94392,0.32919,0.33129,1.48111,0.75844
-0.0303,0.9294,0.36782,-0.08463,0.50348,0.595
-0.04272,0.91728,0.39594,-0.16911,-0.61964,0.506
-0.05345,0.91601,0.39755,-0.37218,-1.07181,0.41581
-0.0537,0.91763,0.39378,0.02734,-0.21108,0.34474
-0.06235,0.92562,0.37327,0.01218,0.58302,-0.46686
-0.09183,0.94,0.32858,0.38215,1.46697,-1.89105
-0.11217,0.93601,0.33361,0.55374,2.13301,-0.75965
-0.10776,0.92665,0.36013,1.47241,-1.2951,0.00278
-0.0836,0.92856,0.36164,1.46498,-1.82024,-0.29552
-0.09283,0.95225,0.29083,-0.32514,-0.12498,-1.15071
-0.09467,0.97701,0.19097,-0.18449,0.81025,-1.53754
-0.07094,0.98402,0.16327,-0.33955,1.44827,-0.57868
-0.04964,0.98877,0.14095,-0.22782,0.20844,-0.07747
-0.03417,0.99406,0.10325,0.05926,-0.20265,-0.18964
-0.02019,0.99818,0.05669,0.25156,-0.321,-0.12263
-0.01245,0.99983,0.01354,0.32386,-0.36509,0.09379
-0.00192,0.99965,-0.02638,0.32816,-0.21078,0.27996
0.01209,0.99759,-0.06833,0.18489,0.05451,0.08705
0.02923,0.99381,-0.10716,-0.0514,-0.12902,0.16495
0.05074,0.98888,-0.13975,-0.08527,-0.25284,0.02128
0.07247,0.98325,-0.1672,-0.10243,-0.17352,0.02991
0.09419,0.97659,-0.19339,-0.16026,-0.08361,0.22246
0.11592,0.9682,-0.22169,-0.14479,-0.032,0.26423
0.134,0.95861,-0.2512,-0.29136,-0.04499,0.30553
0.14653,0.9505,-0.27399,-0.57712,0.15744,0.56093
0.15363,0.94473,-0.2896,-0.42682,0.26553,0.50553
0.16331,0.94142,-0.29504,-0.21058,0.21612,0.22175
0.17527,0.93913,-0.29548,-0.38218,0.50221,0.64861
0.18238,0.93935,-0.29045,-0.28908,0.38411,0.5323
0.18441,0.94519,-0.26945,-0.22103,0.51062,0.33184
0.17468,0.95636,-0.2342,-0.50275,0.4293,0.32334
0.15663,0.971,-0.18061,-0.06249,0.29449,0.27319
0.13138,0.98436,-0.11732,0.44563,0.62271,0.048
0.10628,0.99245,-0.06112,0.45482,0.7796,-0.4199
0.08783,0.99609,-0.0089,0.36597,0.70287,0.16726
0.06443,0.99666,0.05017,0.31268,0.61234,0.22107
0.04368,0.99302,0.10949,0.37565,0.49987,-0.11956
0.02562,0.98666,0.16075,0.18468,0.18487,0.03079
-0.00159,0.97871,0.20522,0.11133,-0.11045,-0.27833
-0.03007,0.96927,0.24414,0.13928,-0.11938,-0.51147
-0.05553,0.95772,0.28227,0.15836,-0.2052,-0.50419
-0.07325,0.94322,0.32398,0.1597,-0.25256,-0.60315
-0.08225,0.92682,0.36637,0.22191,-0.63404,-0.57337
-0.07967,0.9107,0.4053,0.27607,-0.73508,-0.56431
-0.06946,0.89868,0.43306,0.26479,-0.78373,-0.56019
-0.05502,0.89409,0.44448,0.23778,-0.89543,-0.37632
-0.04003,0.89751,0.43915,0.14335,-0.74135,-0.29474
-0.02558,0.90799,0.4182,0.05178,-0.63487,-0.20125
-0.01313,0.92322,0.38404,-0.03787,-0.35292,0.16146
-0.00459,0.93844,0.34538,-0.07698,0.09938,0.71729
-0.00667,0.9462,0.32349,-0.00902,1.07736,1.1788
-0.01167,0.93909,0.34345,0.19898,1.2443,1.26628
-0.03007,0.93258,0.3597,0.24105,-0.01827,0.12622
-0.04697,0.92585,0.37495,0.25795,-0.01154,0.11097
-0.0564,0.92136,0.38458,0.05005,-0.667,0.59648
-0.04714,0.91877,0.39195,0.37922,0.39344,0.61359
-0.04296,0.91602,0.39882,0.34899,0.83743,0.43294
-0.06813,0.91444,0.39894,0.04101,1.30061,-1.33487
-0.08917,0.91782,0.38685,0.77342,-1.15985,-0.42318
-0.08511,0.92111,0.37987,1.15486,-1.56383,-0.38088
-0.08378,0.93404,0.34719,-0.33155,-0.39552,-0.5653
-0.09434,0.96278,0.25327,-0.16569,1.51868,-0.77958
-0.07025,0.97531,0.20933,-0.27588,1.358,-0.26959
-0.0504,0.98248,0.17939,-0.25795,0.31815,-0.13316
-0.03421,0.99007,0.13632,0.14742,-0.19418,0.00113
-0.01547,0.99586,0.08956,0.37665,-0.3772,-0.08663
0.00092,0.9989,0.04687,0.35673,-0.29066,-0.09156
0.01417,0.99989,0.00186,0.17067,-0.2995,0.37817
0.02891,0.99854,-0.04557,0.178,-0.04764,0.08332
0.0448,0.99535,-0.08527,-0.04818,-0.01704,0.0997
0.06425,0.99082,-0.1189,-0.17889,-0.20728,0.17751
0.08523,0.98546,-0.14699,-0.12965,-0.25133,-0.02757
0.10698,0.97948,-0.17078,-0.14446,-0.04917,0.18689
0.12716,0.97254,-0.19492,-0.23472,0.00764,0.19065
0.14317,0.9637,-0.22535,-0.32444,0.02754,0.20117
0.15668,0.95442,-0.25403,-0.47063,0.10405,0.46551
0.16368,0.94735,-0.27519,-0.37036,0.36361,0.72549
0.17198,0.94246,-0.28667,-0.24408,0.33822,0.53351
0.18324,0.94049,-0.28617,-0.45983,0.49302,0.30477
0.19134,0.9401,-0.28211,-0.55558,0.64316,0.58705
0.18982,0.94477,-0.26716,-0.52934,0.68629,0.32251
0.17811,0.95576,-0.23409,-0.43061,0.69383,-0.17717
0.14647,0.971,-0.18896,-0.07219,0.73751,0.32234
0.10969,0.9855,-0.12946,0.34418,0.6213,0.25386
0.07935,0.99446,-0.06883,0.69004,0.46653,-0.29343
0.06387,0.99787,-0.01304,0.64619,0.33592,0.01551
0.04947,0.99756,0.04911,0.56046,0.35806,0.249
0.03003,0.99302,0.11404,0.33435,0.47434,-0.21381
0.0184,0.98493,0.17195,0.34979,0.35389,-0.43208
-0.00133,0.97395,0.22674,0.17161,0.16654,-0.19291
-0.02766,0.96122,0.27438,0.07871,-0.05192,-0.42447
-0.05099,0.94654,0.31852,0.09424,-0.22458,-0.45927
-0.06478,0.93029,0.36105,0.11213,-0.43959,-0.64072
-0.0695,0.91315,0.40164,0.09483,-0.73353,-0.49328
-0.06519,0.89897,0.43311,0.16262,-0.77255,-0.49107
-0.05532,0.88956,0.45344,0.20072,-0.76749,-0.48731
-0.04281,0.88681,0.46014,0.30832,-0.75232,-0.37244
-0.02978,0.89084,0.45332,0.14861,-0.68073,-0.3225
-0.01805,0.90046,0.43456,0.07341,-0.63704,-0.25243
-0.00976,0.9144,0.40469,-0.01663,-0.54162,-0.18504
-0.01028,0.9302,0.36688,-0.06265,0.24286,0.54497
-0.02305,0.94001,0.34036,0.0751,0.62902,0.89957
-0.02891,0.93477,0.35407,0.21697,0.98363,1.07759
-0.03525,0.92663,0.37429,-0.01045,0.47794,0.36343
-0.05092,0.91882,0.39137,-0.14441,0.37482,0.13924
-0.06165,0.91134,0.40699,-0.22227,0.09087,0.1663
-0.06025,0.90857,0.41335,0.06459,-0.89563,0.4857
-0.04821,0.91121,0.40909,0.25038,0.00795,0.32834
-0.0592,0.92604,0.37274,0.31928,0.72421,-0.79179
-0.08691,0.93645,0.33986,0.56795,1.90874,-1.15427
-0.09684,0.92886,0.35753,0.63835,0.1285,0.39215
-0.09039,0.92895,0.35898,1.31514,-1.68245,-0.53535
-0.06572,0.93385,0.35157,0.68417,-1.34136,0.79458
-0.08311,0.95882,0.27157,-0.62913,0.34316,-1.09118
-0.08361,0.97813,0.19042,-0.45049,1.43007,-0.52319
-0.0695,0.98365,0.16613,-0.45824,1.07059,-0.05749
-0.05799,0.98815,0.14206,0.09168,-0.24552,0.01923
-0.04336,0.99373,0.10297,0.32069,-0.46085,-0.11677
-0.02113,0.99803,0.059,0.39825,-0.35179,-0.00296
-0.00577,0.99981,0.01844,0.27769,-0.24088,0.11497
0.00669,0.99977,-0.02029,0.08831,-0.04051,0.18523
0.01865,0.99794,-0.06126,-0.07552,0.05174,0.10623
0.03099,0.99456,-0.09943,-0.13554,-0.06527,0.11723
0.04684,0.99003,-0.13282,-0.11457,-0.35462,0.03303
0.06407,0.98445,-0.16357,-0.09545,-0.21487,0.00657
0.08244,0.97742,-0.19453,-0.08334,-0.14383,0.12561
0.10311,0.96865,-0.22601,-0.09516,-0.01926,0.24018
0.12316,0.95869,-0.25641,-0.21185,-0.0819,0.24252
0.14007,0.94906,-0.28225,-0.32154,-0.02709,0.32346
0.15252,0.94142,-0.30077,-0.38625,0.22576,0.49834
0.16305,0.93606,-0.31176,-0.24827,0.33423,0.22276
0.17338,0.93285,-0.3158,-0.19872,0.36014,0.40668
0.18309,0.93189,-0.31313,-0.20697,0.41767,0.54178
0.1891,0.93598,-0.29694,-0.54381,0.71308,0.26079
0.1795,0.9479,-0.26316,-0.71545,0.84543,-0.17444
0.14593,0.96438,-0.22062,-0.24753,1.10262,0.43511
0.10684,0.98049,-0.16497,0.37887,0.80412,0.17469
0.07537,0.99189,-0.10226,0.58927,0.60492,-0.44297
0.05724,0.99748,-0.04179,0.61664,0.53008,-0.30547
0.04275,0.99877,0.02498,0.54522,0.49743,0.49739
0.02589,0.99578,0.08802,0.37905,0.49975,-0.06991
0.00966,0.98971,0.14272,0.42866,0.19398,-0.45976
-0.01178,0.98014,0.19794,0.19876,0.05919,-0.17605
-0.03917,0.96658,0.25331,0.14488,0.05029,-0.43103
-0.06081,0.94894,0.30952,0.06131,-0.32863,-0.52111
-0.07283,0.92908,0.36262,0.14869,-0.66475,-0.58268
-0.07274,0.90941,0.40948,0.1486,-0.64508,-0.62954
-0.06309,0.89225,0.4471,0.0731,-0.78928,-0.49522
-0.04759,0.88138,0.46998,0.25696,-0.73888,-0.49286
-0.0294,0.87828,0.47723,0.23877,-0.73577,-0.50011
-0.01118,0.88273,0.46974,0.16406,-0.78757,-0.33157
0.00434,0.89456,0.44692,-0.06514,-0.52351,0.01012
0.01038,0.91109,0.41206,-0.11634,-0.36855,0.25598
-0.00045,0.92685,0.37541,-0.05249,0.12194,0.76764
-0.01451,0.93051,0.36596,0.46693,0.92305,0.9986
-0.0202,0.92364,0.3827,0.33952,0.69936,0.81897
-0.03306,0.91594,0.39994,-0.17249,0.67317,0.16941
-0.0438,0.90807,0.4165,-0.23337,0.00981,0.23247
-0.04368,0.90342,0.4265,0.24833,-0.32862,0.63587
-0.0388,0.90403,0.42568,0.25306,0.54601,0.36268
-0.04736,0.91048,0.41081,0.13282,1.8541,-1.07898
-0.07104,0.91127,0.40562,0.40182,1.8944,-1.07423
-0.10374,0.90953,0.40246,1.36013,-1.92217,-0.42695
-0.10529,0.92187,0.37291,1.6444,-1.72388,-0.0939
-0.08409,0.93307,0.34971,0.71759,-1.07008,0.78091
-0.10693,0.96149,0.25317,-0.6212,1.05346,-2.34443
-0.08776,0.98057,0.17541,-0.40892,0.95225,-0.47289
-0.06721,0.98449,0.16202,-0.51662,0.52241,0.22622
-0.04511,0.98965,0.13615,0.12316,-0.49228,0.07269
-0.02581,0.99545,0.0917,0.30581,-0.45425,-0.06097
-0.00549,0.99901,0.04414,0.28218,-0.34797,-0.03159
0.01171,0.99988,0.0095,-0.00533,-0.15902,0.04539
0.02628,0.99942,-0.02158,-0.13677,0.0846,0.27697
0.0358,0.99785,-0.05491,-0.21468,0.09259,0.26428
0.04593,0.99538,-0.08431,-0.07116,-0.22324,0.18959
0.05995,0.9922,-0.10926,-0.07809,-0.20504,0.02709
0.07461,0.9882,-0.13377,-0.16268,-0.09637,-0.18551
0.08743,0.98303,-0.16125,-0.12684,-0.05392,0.0715
0.10003,0.9764,-0.19141,-0.13641,-0.00049,0.21702
0.11532,0.96762,-0.22452,-0.15441,0.05785,0.23281
0.13264,0.95795,-0.25441,0.0049,0.1468,0.5876
0.14925,0.95092,-0.27107,-0.09954,0.37045,0.64071
0.16284,0.94707,-0.27663,-0.20777,0.37028,0.43926
0.17487,0.94568,-0.27404,-0.62848,0.47976,0.20406
0.17981,0.94524,-0.27236,-0.53431,0.43298,0.59599
0.17748,0.94906,-0.26035,-0.38054,0.58488,0.58819
0.16918,0.95844,-0.22973,-0.37971,0.45615,0.14395
0.14531,0.97236,-0.18273,-0.21704,0.57024,0.54971
0.11592,0.9859,-0.12064,0.00623,0.49344,0.28145
0.08931,0.99426,-0.05881,0.42624,0.47304,-0.53619
0.06934,0.99759,-0.00193,0.47583,0.46774,0.2067
0.0517,0.99685,0.06015,0.44278,0.54411,0.39293
0.03042,0.99217,0.12113,0.4,0.60909,0.30527
0.01113,0.98443,0.17542,0.26653,0.1578,-0.02631
-0.01683,0.97428,0.22469,0.23976,-0.0805,-0.16043
-0.04609,0.9628,0.26624,0.19765,-0.20511,-0.38217
-0.07043,0.94923,0.30658,0.02774,-0.12968,-0.59714
-0.08789,0.93157,0.35275,0.06094,-0.23576,-0.60681
-0.09541,0.9129,0.39685,0.09672,-0.40643,-0.56297
-0.0942,0.89593,0.43408,0.28058,-0.83189,-0.49468
-0.08665,0.88327,0.46077,0.28356,-0.8242,-0.47327
-0.07563,0.87836,0.47196,0.29226,-0.80895,-0.45264
-0.06292,0.88149,0.46798,0.17911,-0.7333,-0.31165
-0.05162,0.89105,0.45095,0.03611,-0.6546,-0.22236
-0.04258,0.90517,0.4229,-0.05173,-0.39739,0.1271
-0.0391,0.92178,0.38573,0.01532,0.05967,0.86156
-0.05152,0.93338,0.35515,0.15612,0.48503,1.18485
-0.05295,0.93127,0.36045,0.02493,0.99982,0.98217
-0.05755,0.9222,0.3824,-0.1266,0.4655,0.36269
-0.06825,0.9135,0.40105,-0.18086,0.11097,0.16306
-0.07572,0.90814,0.41175,0.16898,-0.25036,0.49431
-0.07491,0.90778,0.41269,0.18601,0.04833,0.51758
-0.07946,0.91363,0.39869,0.27485,0.28734,0.40075
-0.10887,0.9226,0.37007,0.49514,1.16728,-0.75351
-0.13647,0.91961,0.36836,0.99341,-0.19125,-0.32225
-0.13777,0.91596,0.37687,1.58801,-1.27268,-0.31404
-0.10217,0.91614,0.38762,0.62075,-1.23335,1.44286
-0.12297,0.94603,0.29981,-0.49134,0.6081,-2.25192
-0.11947,0.97365,0.19425,-0.21534,0.96422,-2.23282
-0.09656,0.98081,0.16936,-0.43747,0.19856,0.0348
-0.08416,0.98632,0.14174,-0.18709,-0.2524,-0.07254
-0.07068,0.99251,0.09963,0.02875,-0.41046,-0.12885
-0.047,0.99719,0.0583,0.34784,-0.41737,0.01621
-0.02889,0.99939,0.01958,0.41273,-0.26318,0.16937
-0.01469,0.99973,-0.01803,0.24364,-0.08319,0.25698
0.00037,0.99828,-0.05855,0.01223,0.08166,0.10772
0.01486,0.99531,-0.09557,-0.1564,-0.17262,0.16936
0.03215,0.99135,-0.12722,-0.1462,-0.26712,0.10635
0.05031,0.98669,-0.15465,-0.0827,-0.18322,-0.04609
0.06858,0.98039,-0.18473,-0.11324,-0.0762,0.10977
0.08728,0.97227,-0.21694,-0.13159,-0.01834,0.21664
0.10595,0.96287,-0.24829,-0.27102,-0.04886,0.31436
0.11982,0.95483,-0.27193,-0.39237,0.25449,0.51041
0.12991,0.94887,-0.2877,-0.36866,0.31621,0.44436
0.14208,0.94577,-0.29213,-0.29231,0.46322,0.20868
0.15098,0.94383,-0.29392,-0.31228,0.50432,0.44842
0.15563,0.94473,-0.28857,-0.26369,0.40522,0.57529
0.15382,0.95006,-0.27151,-0.3797,0.73672,0.35694
0.1413,0.96116,-0.23708,-0.59317,0.5214,0.01636
0.11465,0.97599,-0.18519,-0.07854,0.57601,0.557
0.08755,0.98917,-0.1178,0.14942,0.55988,0.7123
0.06685,0.99631,-0.05369,0.60414,0.35818,-0.52375
0.05456,0.9985,0.00485,0.55265,0.25411,-0.1564
0.04112,0.9965,0.07279,0.444,0.2991,0.18652
0.02573,0.99012,0.13783,0.01544,0.64692,-0.26953
0.00826,0.98101,0.19375,0.03291,0.65603,-0.32545
-0.01972,0.97092,0.23858,0.19099,-0.05215,-0.36699
-0.04746,0.95996,0.27608,0.16816,-0.0552,-0.37096
-0.0723,0.94709,0.3127,0.07529,-0.2548,-0.50563
-0.08742,0.9323,0.35096,0.10667,-0.56563,-0.54018
-0.09001,0.91702,0.38855,0.1742,-0.80374,-0.56732
-0.08386,0.90285,0.42168,0.17701,-0.81071,-0.5932
-0.07249,0.89234,0.44549,0.23941,-0.7539,-0.45423
-0.05924,0.88878,0.45448,0.30692,-0.73114,-0.35156
-0.0483,0.89204,0.44935,0.1773,-0.68001,-0.24871
-0.04219,0.90096,0.43184,0.09053,-0.56111,-0.10217
-0.04246,0.91484,0.40157,0.09668,-0.30769,0.27961
-0.05041,0.92924,0.36601,0.14155,-0.09741,0.52706
-0.05903,0.9354,0.34861,-0.02886,0.89987,0.80332
-0.05967,0.93037,0.36172,-0.23627,0.61669,0.80221
-0.06406,0.92197,0.3819,-0.17921,0.50926,0.63888
-0.06962,0.91528,0.39675,-0.04146,0.01549,0.3041
-0.07387,0.91124,0.4052,-0.0145,-0.47297,0.39684
-0.07167,0.91268,0.40232,0.12338,-0.41157,0.47872
-0.0712,0.92312,0.37786,0.23393,0.38906,0.08021
-0.09491,0.93913,0.33019,0.25106,1.32062,-1.17912
-0.12506,0.94373,0.30614,0.48406,1.53884,-1.34881
-0.1432,0.93482,0.32495,1.26245,-1.10345,-0.14743
-0.12829,0.93663,0.32598,1.58578,-1.99041,-0.14745
-0.09843,0.94553,0.31027,1.15434,-1.69662,0.43704
-0.11533,0.97056,0.21142,-0.85757,0.92363,-2.14425
-0.09919,0.98646,0.13054,-0.54734,1.35033,-0.98895
-0.08665,0.98941,0.11641,-0.7352,1.17427,0.28124
-0.0707,0.993,0.09462,0.0487,-0.45639,0.03809
-0.05057,0.99728,0.05364,0.32538,-0.49554,-0.03241
-0.02973,0.99951,0.00972,0.40233,-0.40196,0.0436
-0.01726,0.99951,-0.02607,0.30458,-0.24104,0.23262
-0.00362,0.99812,-0.06109,0.14142,0.00591,0.2707
0.00915,0.99529,-0.09648,-0.06356,0.0592,0.11049
0.02377,0.99138,-0.12879,-0.13617,-0.2569,0.1923
0.04199,0.98677,-0.15659,-0.119,-0.29042,-0.07049
0.05866,0.98148,-0.18236,-0.09555,-0.18967,-0.0903
0.07546,0.9742,-0.21268,-0.06656,-0.00605,0.22405
0.09231,0.9652,-0.24466,-0.13307,0.05769,0.32566
0.10512,0.95627,-0.27295,-0.28753,0.09319,0.43327
0.11254,0.94893,-0.29472,-0.36312,0.28358,0.48749
0.12212,0.94436,-0.30539,-0.15665,0.26155,0.31496
0.136,0.94177,-0.30753,-0.16015,0.54403,0.40458
0.14763,0.94073,-0.30533,-0.23624,0.49515,0.66762
0.15639,0.94407,-0.29029,-0.38814,0.66349,0.50347
0.15167,0.95295,-0.26247,-0.62829,0.64773,0.28435
0.13173,0.96702,-0.21799,-0.15706,0.5267,0.36986
0.10202,0.98205,-0.15867,0.33435,0.59541,0.37601
0.07514,0.99262,-0.09511,0.62427,0.49102,-0.37331
0.05814,0.99757,-0.0383,0.57826,0.36943,-0.04886
0.04686,0.99864,0.02286,0.26266,0.45569,0.34576
0.0299,0.99563,0.08845,0.09829,0.59804,-0.24341
0.01463,0.98876,0.1488,0.1128,0.35263,0.06004
-0.00953,0.98029,0.19733,0.21084,-0.06197,-0.28838
-0.03701,0.97037,0.23877,0.17201,-0.0639,-0.38246
-0.0634,0.95883,0.2768,0.09498,-0.13209,-0.41109
-0.08353,0.94383,0.31969,0.07761,-0.33006,-0.5566
-0.09373,0.92709,0.36293,0.11797,-0.46054,-0.56884
-0.09216,0.9099,0.40445,0.17385,-0.70885,-0.57393
-0.08234,0.89513,0.43813,0.23909,-0.7655,-0.48328
-0.07094,0.88721,0.45586,0.29368,-0.77415,-0.45067
-0.06155,0.88785,0.45598,0.25778,-0.69625,-0.28893
-0.05334,0.89596,0.44092,0.05314,-0.576,-0.16699
-0.04942,0.90932,0.41314,-0.03461,-0.5053,-0.09073
-0.05556,0.92496,0.37597,-0.18722,-0.15968,0.35497
-0.07317,0.93806,0.33864,0.00286,0.29254,0.68402
-0.08637,0.93872,0.33366,0.15373,0.6853,1.00408
-0.10165,0.93247,0.34664,0.31274,0.73361,0.59588
-0.11297,0.92348,0.36662,0.06794,0.12328,0.31048
-0.11419,0.9168,0.38267,0.01382,-0.2067,0.4839
-0.10672,0.91535,0.38826,0.0564,-0.26569,0.56998
-0.10398,0.91761,0.38362,0.4404,0.56411,0.17973
-0.12045,0.92565,0.35868,0.55246,0.9046,-0.65966
-0.13548,0.92074,0.36591,0.05949,0.86979,-0.12929
-0.14611,0.92255,0.35714,0.73614,-1.35636,-0.37755
-0.13867,0.93145,0.33639,1.15716,-1.48678,-0.59713
-0.13897,0.94652,0.29119,-0.25347,-0.11984,0.11167
-0.14812,0.97056,0.18992,-0.25599,0.92168,-1.60699
-0.12772,0.98179,0.14063,-0.09235,1.01223,-1.19719
-0.09971,0.98702,0.12585,-0.12003,0.15912,0.18534
-0.07486,0.99331,0.08794,0.269,-0.35842,0.10978
-0.05203,0.99795,0.03724,0.34262,-0.34802,-0.08411
-0.03364,0.99939,-0.00912,0.2465,-0.23996,-0.02579
-0.01758,0.99869,-0.04803,0.04803,-0.13796,0.0319
-0.00224,0.99648,-0.08382,-0.06549,0.1104,0.04101
0.01097,0.99303,-0.11731,-0.15207,0.06364,0.11116
0.02797,0.98867,-0.14746,0.03918,-0.3189,0.03125
0.04698,0.98364,-0.17389,0.00415,-0.27364,-0.01394
0.0651,0.97756,-0.20033,-0.0736,-0.16848,-0.00771
0.08153,0.96996,-0.22918,-0.27805,0.03823,0.23955
0.09675,0.9604,-0.2613,-0.36091,0.04632,0.24638
0.11125,0.95125,-0.28765,-0.27044,0.09694,0.60975
0.12499,0.94421,-0.30471,-0.13651,0.27228,0.61631
0.14032,0.93881,-0.31456,-0.11375,0.30384,0.46887
0.1559,0.93567,-0.31658,-0.38803,0.51227,0.34363
0.16427,0.93443,-0.316,-0.38731,0.41752,0.72836
0.17006,0.93763,-0.3032,-0.31899,0.40357,0.61709
0.16855,0.94622,-0.27615,-0.60043,0.54966,0.30834
0.15394,0.96043,-0.2321,-0.6221,0.47336,0.11705
0.12996,0.97626,-0.17326,-0.07654,0.49276,0.45988
0.10393,0.98853,-0.10957,0.44536,0.65744,-0.13576
0.08018,0.99523,-0.05561,0.46911,0.65074,-0.18972
0.06029,0.99818,0.00308,0.34761,0.58395,0.18163
0.03634,0.99711,0.06672,0.22976,0.58466,-0.03417
0.01883,0.99231,0.12231,0.28928,0.33464,-0.13569
0.0,0.9845,0.17535,0.28934,0.15258,0.00451
-0.02449,0.97405,0.22499,0.22646,-0.21102,-0.46623
-0.04881,0.96198,0.26872,0.08934,-0.05112,-0.47026
-0.07081,0.94649,0.31485,0.10589,-0.08799,-0.44809
-0.08198,0.9279,0.3637,0.17155,-0.50778,-0.61467
-0.07959,0.90825,0.41078,0.22994,-0.68593,-0.64411
-0.06651,0.89159,0.44792,0.24556,-0.7396,-0.5982
-0.05154,0.88228,0.46789,0.30011,-0.85303,-0.39033
-0.03974,0.88175,0.47004,0.24964,-0.81014,-0.29825
-0.03153,0.88839,0.458,0.15813,-0.74645,-0.24185
-0.02713,0.90056,0.43388,0.01485,-0.472,-0.00236
-0.03148,0.9156,0.40084,-0.05365,-0.13031,0.48095
-0.04492,0.92779,0.37038,-0.02331,0.09427,0.65229
-0.04914,0.92726,0.37116,0.10327,0.73649,0.97347
-0.04814,0.92255,0.38286,-0.01764,0.19954,0.7527
-0.05573,0.9197,0.38864,-0.18054,0.22413,0.22217
-0.06233,0.91643,0.3953,-0.13015,-0.00106,0.29138
-0.06047,0.91328,0.4028,0.25837,0.1888,0.79329
-0.05655,0.91425,0.40118,0.4322,0.39193,0.69892
-0.0736,0.91442,0.39802,0.59486,0.81337,0.34266
-0.09552,0.90743,0.4092,0.41996,-0.78963,-1.00266
-0.11284,0.91239,0.39347,0.83927,-1.64694,-0.74147
-0.10598,0.92448,0.36619,1.33549,-1.68286,-0.28834
-0.10941,0.93723,0.33109,-0.54645,0.88375,-1.48801
-0.12165,0.96607,0.22783,-0.38516,1.106,-2.12181
-0.09689,0.97765,0.18657,-0.33327,1.36728,-1.28236
-0.07554,0.98385,0.16225,-0.10631,-0.25193,0.13597
-0.06216,0.99108,0.11784,0.13535,-0.43542,-0.02392
-0.04205,0.99663,0.07043,0.27105,-0.47334,-0.06232
-0.02144,0.9993,0.03044,0.28922,-0.22294,0.01284
-0.00477,0.99998,-0.00457,0.15681,-0.17733,0.18284
0.01199,0.99894,-0.04434,-0.04974,0.10596,0.20602
0.02552,0.99625,-0.08267,-0.13264,-0.11771,0.26658
0.04099,0.99247,-0.11537,-0.09872,-0.26773,0.24948
0.05936,0.98813,-0.1417,-0.11937,-0.23956,-0.04464
0.0784,0.98269,-0.16787,-0.18025,-0.01774,-0.11216
0.09569,0.97528,-0.19918,-0.16733,0.06359,-0.001
0.11036,0.96587,-0.23433,-0.23656,-0.00501,0.41821
0.12251,0.95695,-0.26311,-0.16508,0.08507,0.61982
0.13205,0.95104,-0.27944,-0.09181,0.22695,0.71653
0.14449,0.94786,-0.28404,-0.34116,0.49131,0.07966
0.15778,0.94641,-0.28181,-0.54734,0.60372,0.25629
0.16531,0.94519,-0.2816,-0.66004,0.52657,0.50839
0.16788,0.94746,-0.27226,-0.41265,0.50922,0.4534
0.16144,0.95463,-0.25024,-0.52693,0.68719,0.33285
0.14356,0.96656,-0.21247,-0.52578,0.50431,0.20959
0.11606,0.98088,-0.15623,0.14086,0.62506,0.54835
0.08941,0.99173,-0.09206,0.53286,0.4687,-0.30906
0.06884,0.99703,-0.03443,0.56684,0.5145,-0.58393
0.05188,0.99838,0.02347,0.39119,0.39097,0.38506
0.03142,0.9959,0.08477,0.22608,0.51581,-0.35627
0.01254,0.98995,0.14087,0.24495,0.52177,-0.41237
-0.01265,0.98102,0.1935,0.07654,0.04723,-0.02262
-0.04105,0.97108,0.23521,0.11928,-0.15041,-0.39498
-0.06613,0.95948,0.27391,0.18464,-0.15572,-0.5435
-0.08785,0.94487,0.31545,0.122,-0.18545,-0.52721
-0.09922,0.92765,0.36003,0.17007,-0.46658,-0.62493
-0.09853,0.90946,0.40393,0.23337,-0.73399,-0.58245
-0.09018,0.89362,0.43967,0.25023,-0.76386,-0.56807
-0.07927,0.88465,0.45946,0.36271,-0.77104,-0.272
-0.07118,0.8855,0.45916,0.33003,-0.72763,-0.21051
-0.06693,0.89516,0.44069,0.23589,-0.65351,-0.16231
-0.06673,0.91079,0.40743,0.04799,-0.47363,-0.0243
-0.07022,0.9281,0.36566,0.05515,-0.33706,0.16254
-0.07914,0.94301,0.32322,0.0554,-0.17195,0.40658
-0.08758,0.94695,0.30923,-0.15713,1.30214,1.16131
-0.09432,0.94013,0.32749,-0.05386,1.15958,0.98009
-0.10547,0.9316,0.34786,0.05334,0.81662,0.60817
-0.10966,0.92624,0.36062,0.04831,-0.21085,0.57703
-0.10438,0.92535,0.36446,0.18481,-0.01092,0.72437
-0.10285,0.92657,0.36179,0.27837,0.44343,0.76733
-0.11637,0.92979,0.34921,0.32331,1.18038,-1.06036
-0.14167,0.92359,0.35624,0.11302,-0.27355,-0.72224
-0.16822,0.93074,0.3247,1.67678,-1.89833,-0.04312
-0.14725,0.93946,0.30939,0.70141,-0.97641,0.52879
-0.14865,0.9532,0.26328,-0.71505,1.37888,-1.05372
-0.14944,0.9759,0.15899,-0.25881,0.93039,-1.58528
-0.1259,0.98434,0.1234,-0.31403,0.38406,0.30206
-0.09769,0.98825,0.11757,-0.08641,-0.10724,0.5812
-0.07176,0.99408,0.08153,0.2895,-0.35529,-0.20579
-0.04665,0.99837,0.03295,0.26749,-0.19847,-0.09063
-0.02711,0.99958,-0.01004,0.22696,-0.10354,-0.07671
-0.01183,0.9989,-0.04533,-0.0182,-0.03293,0.11554
0.00242,0.99688,-0.07894,-0.13991,-0.00255,0.29435
0.01635,0.99359,-0.11187,-0.1525,-0.06707,0.38259
0.03273,0.98942,-0.14136,-0.06158,-0.25461,0.10107
0.05088,0.98464,-0.16701,-0.11429,-0.16639,-0.1432
0.06752,0.97889,-0.19292,-0.14455,-0.1112,-0.15809
0.0829,0.97107,-0.22396,-0.11435,0.01705,0.26174
0.09865,0.96129,-0.25728,-0.23057,0.02207,0.35846
0.11357,0.95246,-0.28272,-0.26272,0.04312,0.41678
0.12646,0.94602,-0.29843,-0.19206,0.37462,0.52743
0.14001,0.94262,-0.30308,-0.27507,0.45794,0.23911
0.15197,0.94085,-0.30284,-0.38959,0.54891,0.26434
0.15893,0.94039,-0.30067,-0.35443,0.40418,0.62225
0.15957,0.94451,-0.28712,-0.26888,0.63418,0.40261
0.15149,0.95395,-0.25889,-0.4064,0.52116,0.2956
0.12922,0.96806,-0.21487,-0.34083,0.46648,0.35541
0.09979,0.98287,-0.15495,0.19915,0.51057,0.4382
0.07299,0.99307,-0.09208,0.51699,0.4505,-0.02594
0.0555,0.99784,-0.03501,0.61969,0.42165,-0.14363
0.04171,0.99872,0.02871,0.5008,0.47052,0.51298
0.02256,0.99562,0.09078,0.41847,0.52518,0.30128
0.00725,0.98902,0.14761,0.23763,0.35383,-0.1891
-0.01688,0.98014,0.1976,0.0244,0.06396,-0.07151
-0.04421,0.97008,0.23874,0.07984,-0.0511,-0.31902
-0.07062,0.95793,0.27818,0.0335,-0.07654,-0.46763
-0.08885,0.94227,0.32286,0.16066,-0.45772,-0.52097
-0.09715,0.92491,0.36757,0.21826,-0.62878,-0.5576
-0.09645,0.90843,0.40675,0.28635,-0.67449,-0.57891
-0.09028,0.89649,0.43378,0.18827,-0.69315,-0.24629
-0.08553,0.89285,0.44216,0.18352,-0.68951,-0.25468
-0.08767,0.89615,0.43499,0.18597,-0.72924,-0.43884
-0.09226,0.90416,0.41711,0.1931,-0.76619,-0.37643
-0.09325,0.91722,0.38732,0.16833,-0.72003,-0.24735
-0.09207,0.93199,0.3506,-0.14319,-0.2673,0.32106
