gravity.x,gravity.y,gravity.z,userAcceleration.x,userAcceleration.y,userAcceleration.z
-0.23635,0.89331,0.38226,0.38344,0.19475,-0.49844
-0.24095,0.88239,0.40412,0.37085,0.29179,-0.50452
-0.24931,0.8779,0.4088,0.22271,0.3108,-0.3016
-0.25538,0.87485,0.41159,0.15458,0.36657,-0.25749
-0.2596,0.87438,0.40994,0.08448,0.45508,-0.47854
-0.26351,0.87834,0.39885,0.22541,0.56319,-0.57533
-0.26306,0.88959,0.37338,0.42138,0.64175,-0.47705
-0.25509,0.90898,0.32964,0.36482,0.74092,-0.59551
-0.2395,0.93238,0.27073,0.01567,0.51191,-0.6699
-0.22527,0.95518,0.19204,-0.21597,0.30834,-0.38753
-0.20361,0.97123,0.12345,0.07321,0.31655,0.61863
-0.18344,0.98117,0.06034,-0.23716,0.76753,0.95228
-0.17563,0.98445,0.00049,-0.40493,0.80179,0.83916
-0.18408,0.98137,-0.05489,-0.53259,0.64395,0.73445
-0.18304,0.97832,-0.09686,-0.6579,0.19878,-0.34222
-0.16053,0.97622,-0.14567,-0.58052,0.09821,0.06974
-0.13784,0.97139,-0.19338,-0.58581,-0.0612,0.36323
-0.11959,0.9641,-0.23706,0.23546,-0.29499,0.70975
-0.10286,0.95351,-0.28326,0.27414,-0.22446,0.43565
-0.09383,0.93963,-0.32907,0.2262,-0.26223,0.49778
-0.08927,0.92483,-0.36977,0.08054,-0.25968,0.58011
-0.08303,0.91011,-0.40595,-0.08149,-0.4014,0.56202
-0.08095,0.89645,-0.43569,-0.27387,-0.592,0.64493
-0.08516,0.88641,-0.45499,-0.30303,-0.76718,0.69142
-0.09413,0.88174,-0.46224,-0.15504,-0.8875,0.65214
-0.10905,0.88188,-0.45869,-0.03891,-0.90825,0.59942
-0.12567,0.88842,-0.44149,0.01222,-0.87115,0.39864
-0.14358,0.90293,-0.4051,0.10362,-0.62401,0.03632
-0.164,0.9217,-0.35152,0.03111,-0.2095,-0.25441
-0.18301,0.93781,-0.295,-0.14112,0.38603,-0.55651
-0.1904,0.94602,-0.26229,-0.21791,0.56599,-0.92727
-0.19599,0.94854,-0.24871,0.0044,0.2424,-0.8512
-0.20086,0.94956,-0.24079,0.23896,-0.16579,-0.39423
-0.20244,0.95148,-0.23171,0.27099,-0.18124,-0.21235
-0.20688,0.95278,-0.22227,-0.20492,-0.03046,-1.32302
-0.21603,0.95359,-0.20974,-0.27831,0.77503,0.94106
-0.23716,0.95558,-0.17497,-0.56908,0.46115,1.65972
-0.2245,0.96404,-0.1422,-0.68153,0.83822,1.3254
-0.21345,0.9732,-0.0855,-1.27398,1.8338,0.94704
-0.20801,0.97709,-0.04487,0.20169,-0.14792,0.05381
-0.18686,0.97992,-0.0695,0.38788,-0.56848,-0.22505
-0.1854,0.98002,-0.07202,0.30126,0.02113,0.70849
-0.19242,0.97897,-0.06776,0.32239,0.34806,0.75301
-0.20871,0.97685,-0.04695,0.29554,0.53292,0.70601
-0.2154,0.97648,-0.00905,0.16932,0.30709,0.54074
-0.19878,0.97907,0.04355,-0.04821,0.13471,0.29164
-0.16766,0.97982,0.1088,-0.20095,-0.07407,0.22574
-0.13799,0.97422,0.17844,-0.27454,-0.3157,0.09322
-0.12594,0.96168,0.24353,-0.50994,-0.48264,-0.49227
-0.14471,0.94996,0.2768,-0.61069,-0.5477,-1.05445
-0.16149,0.94224,0.29343,-0.23332,-0.23057,-0.47249
-0.17266,0.9311,0.32128,0.07902,-0.12172,0.31618
-0.19384,0.91914,0.34293,0.25148,0.11708,0.22894
-0.21616,0.91209,0.34836,0.36993,0.21624,-0.15711
-0.22631,0.90578,0.35825,0.49039,0.17592,-0.74393
-0.21629,0.89061,0.40001,0.75116,0.38856,-1.51389
-0.20452,0.88281,0.42286,0.37887,0.14962,-0.8042
-0.21365,0.88348,0.41691,-0.03213,-0.0272,-0.15223
-0.22996,0.88513,0.40455,0.2725,-0.06661,-0.59142
-0.24093,0.88854,0.39044,0.57647,0.22194,-0.98871
-0.24839,0.89929,0.35995,0.57679,0.24327,-0.7789
-0.25173,0.91527,0.31449,0.01607,0.25517,-0.37302
-0.25003,0.92998,0.26946,-0.04465,0.51679,-0.43437
-0.25378,0.94515,0.20561,-0.03213,0.58057,-0.46031
-0.25832,0.95719,0.13058,0.26378,0.63362,0.54848
-0.25825,0.96436,0.05748,0.59567,0.96233,0.99616
-0.25099,0.96781,-0.01852,0.55223,1.1763,0.8343
-0.22644,0.97083,-0.07877,0.01785,1.5185,0.31233
-0.18849,0.9759,-0.10996,-0.43689,1.42654,-0.1609
-0.1522,0.97533,-0.15987,-0.77401,0.43901,-0.00838
-0.13012,0.96935,-0.20837,-0.77047,-0.06587,0.67776
-0.12125,0.96151,-0.24655,-0.75696,-0.37242,0.91702
-0.1205,0.94596,-0.30106,-0.26498,-0.45643,0.4535
-0.11905,0.93219,-0.34183,0.15986,-0.45431,0.57801
-0.11444,0.9228,-0.36789,0.26169,-0.38915,0.67339
-0.11122,0.91372,-0.39083,0.15997,-0.41587,0.6878
-0.11932,0.90422,-0.41006,-0.08686,-0.66049,0.86789
-0.13434,0.89695,-0.42123,-0.28069,-0.9599,0.8109
-0.15547,0.89399,-0.42024,-0.24614,-1.01593,0.6889
-0.18133,0.89447,-0.40871,-0.13762,-1.01878,0.56246
-0.20753,0.90024,-0.38275,-0.05687,-0.7919,0.18755
-0.23216,0.91095,-0.34098,0.18598,-0.0216,-0.81963
-0.24335,0.9205,-0.30571,-0.1226,1.32343,-1.98462
-0.24056,0.92272,-0.30118,-0.0618,1.35599,-1.10614
-0.23688,0.92014,-0.31181,-0.74107,1.7519,-1.05756
-0.23824,0.91659,-0.32109,-1.12422,2.49663,0.03221
-0.25746,0.90112,-0.34885,-1.66501,1.8777,-0.43406
-0.22173,0.89601,-0.38471,-0.17622,-2.25207,2.58103
-0.1909,0.90634,-0.37697,-0.79526,-2.32475,1.948
-0.20045,0.9208,-0.33458,0.11247,-1.67156,0.53348
-0.22916,0.93789,-0.26046,1.05993,-0.76899,1.37017
-0.23025,0.95201,-0.20165,0.39378,0.42972,1.39858
-0.24176,0.96025,-0.13949,-0.19115,1.24505,1.05508
-0.2568,0.96221,-0.09054,-0.43589,1.6827,0.74739
-0.2362,0.9687,-0.07631,0.92877,1.05304,-0.63322
-0.23289,0.97154,-0.0433,1.05745,0.23402,-0.1928
-0.24795,0.96877,-0.00139,1.12023,-0.00141,-0.2114
-0.26859,0.96253,0.0372,0.77312,-0.30673,-0.287
-0.2728,0.95976,0.06664,0.31117,-0.26042,-0.13682
-0.26515,0.95962,0.0939,0.12097,-0.27958,0.02856
-0.25532,0.95939,0.11987,-0.02889,-0.19343,0.21579
-0.25143,0.95772,0.13979,-0.11855,-0.08835,0.45604
-0.2509,0.9545,0.16117,-0.1863,-0.08481,0.07238
-0.24785,0.94585,0.20959,-0.4227,-0.02495,-0.57923
-0.24483,0.93556,0.25451,-0.38943,-0.00851,-0.36658
-0.2591,0.93001,0.26063,-0.07218,0.00939,0.02103
-0.27797,0.92191,0.26981,0.11513,0.08631,-0.05507
-0.29162,0.91139,0.29037,0.2483,0.16002,-0.16089
-0.29833,0.89926,0.31986,0.36172,0.14929,-0.37345
-0.3013,0.88735,0.34903,0.35719,0.15004,-0.46979
-0.31049,0.8795,0.36065,0.30582,0.18067,-0.35377
-0.32187,0.87368,0.36479,0.21994,0.28486,-0.3933
-0.33458,0.87007,0.36198,0.42599,0.5423,-0.35223
-0.34707,0.87191,0.3454,0.54176,0.63494,-0.25763
-0.34936,0.88113,0.31866,0.71829,0.89635,-0.07414
-0.33389,0.8979,0.28683,0.00511,0.72243,-0.33271
-0.30894,0.92017,0.2405,-0.65185,0.52506,-0.82236
-0.29743,0.94098,0.16152,-0.4066,0.3817,-0.05082
-0.28037,0.95585,0.08793,-0.09107,0.26195,0.94889
-0.25347,0.96703,0.02431,-0.09115,0.33813,0.81225
-0.22545,0.9737,-0.03261,-0.32886,0.4283,0.45613
-0.20607,0.97538,-0.07853,-0.44405,0.29441,-0.01946
-0.18876,0.97718,-0.09736,-0.07247,0.18874,-0.05039
-0.16522,0.97798,-0.12745,0.11828,0.23234,0.1905
-0.14317,0.97282,-0.182,-0.1304,-0.15154,0.42041
-0.12765,0.96662,-0.22214,0.11777,-0.23398,0.87431
-0.10406,0.96054,-0.25794,0.21124,-0.25027,0.67839
-0.07523,0.95275,-0.29429,0.07344,-0.29136,0.49978
-0.05117,0.94289,-0.32915,-0.01728,-0.32421,0.60446
-0.03448,0.9308,-0.36388,-0.10837,-0.39699,0.6289
-0.02779,0.91738,-0.39704,-0.25622,-0.47176,0.55662
-0.02809,0.9074,-0.41931,-0.35971,-0.53475,0.59148
-0.0375,0.90339,-0.42717,-0.35769,-0.62291,0.66133
-0.05446,0.90532,-0.42123,-0.32083,-0.69058,0.63441
-0.07775,0.9129,-0.4007,-0.18027,-0.81389,0.51728
-0.10224,0.92656,-0.36198,-0.12236,-0.54164,0.1878
-0.12135,0.94175,-0.31363,-0.13892,-0.26103,-0.06277
-0.13008,0.95051,-0.28213,-0.29761,1.37801,-1.49737
-0.13514,0.95186,-0.27511,0.08999,1.17152,-1.2374
-0.1306,0.95353,-0.27152,0.63892,0.38426,-0.70678
-0.12795,0.95723,-0.25948,-0.26991,0.20134,0.08898
-0.1354,0.9614,-0.23953,-0.48389,0.53997,0.33597
-0.14694,0.96375,-0.2227,-0.8029,1.20909,0.29937
-0.13973,0.96353,-0.22823,0.15852,1.25336,-0.58595
-0.12442,0.95911,-0.25421,-0.25534,-0.91921,1.30768
-0.11683,0.95849,-0.26009,-0.5381,-1.08924,0.86689
-0.11912,0.9651,-0.23322,-0.15839,-0.67912,1.07206
-0.13272,0.97234,-0.1922,-0.1498,-0.55574,0.97308
-0.16302,0.97546,-0.14797,-0.1673,-0.44284,0.79726
-0.19624,0.97467,-0.1072,-0.36125,0.55352,0.68006
-0.21075,0.97465,-0.07505,-0.14829,0.59104,0.66671
-0.22233,0.97322,-0.0583,0.26989,0.59298,0.50636
-0.23271,0.97164,-0.04199,0.59933,0.26704,-0.05031
-0.2425,0.97001,0.01622,0.68888,0.00072,-0.45388
-0.23573,0.96784,0.08778,0.35269,-0.22529,0.01214
-0.21596,0.96835,0.12509,0.13827,-0.25542,0.20104
-0.19753,0.97005,0.14134,0.09113,-0.24843,0.35893
-0.18792,0.96892,0.16085,-0.08413,-0.08846,0.26738
-0.18934,0.96347,0.18938,-0.16427,-0.03549,0.17566
-0.19295,0.95289,0.23403,-0.47276,0.10098,-0.91097
-0.19045,0.94179,0.27705,-0.24182,-0.10024,-0.02365
-0.19767,0.93631,0.29023,-0.06366,0.00615,0.24253
-0.21782,0.92865,0.30027,0.17832,0.10974,0.06067
-0.23123,0.92081,0.31406,0.37924,0.16514,-0.38852
-0.23615,0.91079,0.33866,0.45444,0.17465,-0.54773
-0.23582,0.90125,0.36348,0.43838,0.34185,-0.54312
-0.24208,0.89777,0.36796,0.11585,0.30925,-0.2232
-0.25353,0.89519,0.36653,0.17461,0.3562,-0.33208
-0.26355,0.89451,0.36109,0.28595,0.38636,-0.58654
-0.27191,0.8973,0.34772,0.44298,0.52609,-0.64604
-0.2764,0.90572,0.32136,0.53931,0.60136,-0.50634
-0.2724,0.92074,0.27934,0.44237,0.68161,-0.54457
-0.25925,0.94019,0.22098,0.28409,0.44899,-0.45988
-0.24461,0.95917,0.14193,-0.03797,0.37017,-0.24783
-0.2251,0.97232,0.06252,-0.06929,0.50166,0.62041
-0.19931,0.97987,-0.01067,-0.13661,0.57283,0.97602
-0.17761,0.98071,-0.08158,-0.56548,0.88706,0.86585
-0.17493,0.97382,-0.14512,-0.73548,0.43948,0.40757
-0.17451,0.96765,-0.1822,-0.7775,0.05915,-0.39119
-0.16012,0.96817,-0.19234,-0.58907,0.05079,0.03357
-0.13521,0.96013,-0.24469,-0.42272,-0.00158,0.44244
-0.1161,0.94815,-0.29585,0.31065,-0.1914,0.694
-0.09099,0.93787,-0.33485,0.50938,-0.02876,0.75936
-0.06719,0.92463,-0.37489,0.31257,-0.16872,0.50501
-0.05787,0.90755,-0.41594,0.12732,-0.20802,0.64388
-0.05896,0.88847,-0.45512,-0.1596,-0.50189,0.71904
-0.06266,0.8724,-0.48475,-0.2548,-0.56442,0.75428
-0.07227,0.86291,-0.50016,-0.31424,-0.62509,0.80311
-0.08407,0.86152,-0.50071,-0.17646,-0.74639,0.81256
-0.09695,0.86751,-0.48787,-0.11193,-0.78888,0.79978
-0.10943,0.88088,-0.46051,-0.1023,-0.79271,0.70609
-0.12311,0.90085,-0.4163,0.0775,-0.22352,-0.18786
-0.14128,0.92251,-0.35918,0.0128,0.24372,-0.87638
-0.15416,0.93411,-0.32198,-0.09616,0.98928,-1.28452
-0.14937,0.93363,-0.32561,-0.20629,0.40887,-0.57263
-0.14519,0.933,-0.32927,-0.09808,-0.07589,-0.41089
-0.13896,0.9342,-0.32856,-0.25327,-0.57634,-0.13082
-0.13993,0.9407,-0.30902,-0.65893,-0.17172,0.43393
-0.15092,0.94886,-0.27728,-0.82672,0.11335,0.55081
-0.16294,0.95743,-0.23825,0.03831,0.96925,0.12547
-0.16145,0.95958,-0.23051,0.11245,0.98255,-0.55405
-0.16571,0.96045,-0.22374,-0.21792,-0.24111,0.87702
-0.1679,0.96501,-0.2014,-0.15542,-0.59109,0.75971
-0.1668,0.97108,-0.17083,-0.10328,-0.54537,0.6789
-0.17316,0.97691,-0.12515,-0.0594,-0.28989,0.57324
-0.17994,0.98114,-0.07053,-0.02517,0.04631,0.65918
-0.18478,0.98244,-0.0256,0.08968,0.40174,0.71763
-0.18927,0.98191,-0.00544,0.20907,0.43589,0.46489
-0.18511,0.98271,-0.0024,0.35882,0.17984,0.03708
-0.17313,0.98472,0.01828,0.55251,-0.00246,-0.43443
-0.16729,0.98274,0.07885,0.24696,-0.121,-0.1352
-0.15104,0.98016,0.12827,0.18229,-0.19386,0.08746
-0.13336,0.97964,0.15004,0.02506,-0.17164,0.23659
-0.12472,0.97805,0.16688,-0.05661,-0.0061,0.16808
-0.12595,0.97368,0.18991,-0.1249,0.00218,0.06842
-0.13192,0.96686,0.21857,-0.20001,0.04344,-0.27632
-0.13483,0.95683,0.25747,-0.18759,0.03118,-0.48353
-0.13451,0.94724,0.29093,-0.0067,0.00659,-0.26289
-0.14258,0.94211,0.30348,0.02009,0.0134,-0.04531
-0.15752,0.93529,0.31688,0.12864,-0.02039,-0.12662
-0.17132,0.92739,0.33254,0.21098,0.15607,-0.34853
-0.1795,0.91882,0.35147,0.26338,0.0744,-0.46672
-0.1836,0.91026,0.37109,0.29737,0.20137,-0.45651
-0.19434,0.90573,0.37666,0.24979,0.21833,-0.25229
-0.2066,0.90313,0.37638,0.15792,0.29386,-0.36115
-0.21509,0.90088,0.377,0.11627,0.41142,-0.58277
-0.2215,0.90236,0.3697,0.11545,0.42941,-0.72756
-0.22756,0.90813,0.35143,0.34476,0.55028,-0.61201
-0.23617,0.92031,0.31184,0.37397,0.59315,-0.6778
-0.23979,0.93815,0.24974,0.35168,0.61175,-0.7764
-0.23569,0.95675,0.17052,0.20487,0.5487,-0.17343
-0.22287,0.97044,0.09258,0.24295,0.66019,0.49764
-0.20352,0.97896,0.01435,0.35359,0.57769,1.07537
-0.18276,0.98128,-0.06067,-0.52046,0.98495,0.94639
-0.18324,0.97569,-0.12018,-0.6218,0.74513,0.74663
-0.19214,0.96761,-0.16369,-0.70065,0.50622,0.40005
-0.18598,0.9674,-0.17186,-0.52354,-0.01303,0.08249
-0.16947,0.96047,-0.22084,-0.36536,-0.15561,0.32837
-0.15371,0.94937,-0.27399,-0.19033,-0.27468,0.50739
-0.13988,0.93962,-0.31233,0.22698,-0.28025,0.76853
-0.12293,0.9274,-0.35327,0.19777,-0.2837,0.67333
-0.11319,0.91277,-0.39246,0.21649,-0.26298,0.61599
-0.10336,0.89999,-0.42348,0.13365,-0.35314,0.64391
-0.09515,0.88948,-0.44695,-0.06692,-0.57382,0.72345
-0.0948,0.88276,-0.46016,-0.33269,-0.8299,0.83328
-0.10237,0.88186,-0.46025,-0.29401,-0.86514,0.87282
-0.11638,0.8874,-0.44606,-0.15223,-0.8918,0.85586
-0.1348,0.90008,-0.41434,-0.01897,-0.64834,0.36496
-0.16048,0.91954,-0.35873,0.01201,-0.39731,0.02704
-0.19253,0.93757,-0.28962,-0.49597,2.06703,-1.96216
-0.18881,0.93952,-0.28574,0.31358,1.94311,-1.8808
-0.17216,0.9418,-0.28872,0.50507,0.01143,-0.21015
-0.16086,0.94222,-0.29384,-0.14579,-0.57634,0.04864
-0.15697,0.94263,-0.29462,-0.69521,-0.06185,0.2706
-0.16893,0.94666,-0.2744,-0.75955,0.23443,0.60296
-0.17575,0.95313,-0.24625,-0.59791,1.63288,-0.41536
-0.1798,0.95079,-0.25232,-0.14901,0.18393,0.52231
-0.18797,0.94721,-0.25974,-0.05274,-0.89969,1.25687
-0.19216,0.95224,-0.2373,-0.03524,-0.7695,1.00348
-0.18957,0.96109,-0.20089,-0.04905,-0.49236,0.70622
-0.19744,0.96799,-0.15494,-0.11126,-0.20398,0.68772
-0.2095,0.97149,-0.11094,-0.06803,0.0806,0.68411
-0.21427,0.97377,-0.07649,0.0821,0.28731,0.67428
-0.21992,0.97397,-0.05478,0.1902,0.36041,0.55338
-0.22228,0.97405,-0.04248,0.31976,0.2306,0.18986
-0.21633,0.97619,-0.01531,0.48031,0.04027,-0.50839
-0.21044,0.97566,0.06149,0.26173,-0.06571,-0.34527
-0.19517,0.97114,0.13704,0.17292,-0.13423,-0.04567
-0.18223,0.96966,0.16293,0.1627,-0.24788,0.12499
-0.17572,0.96914,0.17286,0.01501,-0.17506,0.01818
-0.17481,0.96631,0.1889,-0.05855,-0.09122,-0.00531
-0.17779,0.95913,0.22011,-0.16792,0.00817,-0.15325
-0.17837,0.94725,0.26624,-0.00442,-0.02425,-0.17364
-0.1812,0.93696,0.29877,-0.00159,-0.01395,-0.20617
-0.19034,0.92981,0.31497,0.07685,0.17325,-0.17434
-0.20233,0.92173,0.33086,0.25098,0.17122,-0.4802
-0.2113,0.91176,0.35218,0.29972,0.21165,-0.56077
-0.21679,0.902,0.37334,0.31285,0.25372,-0.56404
-0.22459,0.8975,0.37952,0.15536,0.28631,-0.25507
-0.23199,0.8955,0.3798,0.10684,0.36065,-0.28191
-0.23766,0.89482,0.3779,0.09011,0.41643,-0.44071
-0.24543,0.89687,0.36792,0.1325,0.45701,-0.54851
-0.25438,0.90243,0.34771,0.37176,0.61996,-0.40707
-0.25806,0.91491,0.31037,0.50296,0.76761,-0.43529
-0.24884,0.93368,0.25752,0.45344,0.85096,-0.59745
-0.23239,0.95417,0.18854,0.13145,0.45554,-0.5561
-0.21411,0.97026,0.1129,-0.06773,0.40915,0.25501
-0.19509,0.97993,0.04085,0.03717,0.42409,0.99867
-0.18115,0.98309,-0.02648,-0.24321,0.54016,0.84494
-0.18268,0.97948,-0.08504,-0.42471,0.27955,0.61955
-0.19065,0.97203,-0.1371,-0.5455,0.24157,0.31412
-0.19307,0.96776,-0.1617,-0.51841,0.10555,-0.28685
-0.18029,0.96425,-0.19418,-0.12924,-0.02656,0.31094
-0.16907,0.95459,-0.24529,-0.01388,-0.12524,0.50698
-0.15713,0.94455,-0.28833,0.16012,-0.22735,0.79654
-0.14767,0.93135,-0.33283,0.17127,-0.43143,0.68888
-0.13845,0.91659,-0.37509,0.19532,-0.42689,0.64783
-0.12539,0.90472,-0.40713,0.16205,-0.36054,0.60252
-0.11379,0.89522,-0.43086,-0.00888,-0.44966,0.67101
-0.1156,0.88736,-0.44634,-0.18435,-0.74247,0.83749
-0.12349,0.88436,-0.45017,-0.25006,-0.87368,0.83184
-0.1379,0.88738,-0.43993,-0.13993,-0.88079,0.70412
-0.15639,0.89763,-0.41207,-0.0688,-0.64436,0.39857
-0.18008,0.9143,-0.36279,-0.09784,0.00123,-0.38719
-0.21335,0.92786,-0.30587,-0.54631,1.72188,-1.79463
-0.2103,0.92626,-0.31275,-0.08944,2.6596,-2.44883
-0.18892,0.93003,-0.31521,0.56469,0.03015,-0.23513
-0.18,0.92943,-0.32212,-0.0267,-0.5287,-0.02018
-0.17816,0.92828,-0.32642,-0.46741,-0.25572,0.12527
-0.1891,0.93324,-0.30546,-0.63474,0.38749,0.49432
-0.19984,0.94155,-0.27119,-0.53492,1.34043,0.02619
-0.20529,0.93987,-0.27293,-0.15748,0.47653,0.23918
-0.20832,0.93641,-0.28235,-0.3715,-0.5387,0.98805
-0.21596,0.9425,-0.25506,-0.26319,-0.66993,0.9107
-0.21696,0.9525,-0.21368,-0.00748,-0.60419,0.90382
-0.22104,0.96057,-0.16862,-0.06009,-0.23874,0.63092
-0.23432,0.96385,-0.12679,0.03704,0.05562,0.73933
-0.24045,0.9663,-0.0919,0.2004,0.30194,0.75209
-0.24573,0.9671,-0.06574,0.27268,0.45287,0.6852
-0.25065,0.96669,-0.05172,0.40906,0.37735,0.17748
-0.2511,0.96764,-0.02472,0.49827,0.1073,-0.5757
-0.24708,0.96831,0.03612,0.32591,-0.06199,-0.39972
-0.23403,0.9685,0.085,0.18973,-0.13383,-0.20883
-0.21664,0.96928,0.1164,0.14719,-0.10405,0.00983
-0.20296,0.96905,0.14047,0.09175,-0.17003,0.26628
-0.19419,0.96784,0.15985,0.06267,-0.22866,0.17468
-0.19062,0.9642,0.1843,-0.15566,-0.15704,-0.06365
-0.19355,0.95525,0.22364,-0.41482,-0.10812,-0.60559
-0.19974,0.94601,0.25525,-0.29144,-0.16276,-0.14563
-0.21019,0.93902,0.27211,0.03593,0.0373,0.09372
-0.22529,0.931,0.28718,0.1697,0.19426,-0.06318
-0.23795,0.92212,0.30504,0.31289,0.15658,-0.32494
-0.24512,0.91008,0.33415,0.44024,0.22566,-0.56261
-0.24824,0.89962,0.35922,0.35808,0.35663,-0.48981
-0.25498,0.89629,0.36281,0.25637,0.4156,-0.34906
-0.26138,0.89506,0.36128,0.30661,0.43485,-0.51682
-0.26605,0.89669,0.35376,0.1967,0.49139,-0.86324
-0.26876,0.90361,0.33354,0.27611,0.56626,-0.80804
-0.27114,0.91777,0.29013,0.3382,0.70128,-0.66447
-0.26727,0.93717,0.22418,0.3085,0.76549,-0.51417
-0.25545,0.95656,0.14043,0.13301,0.69796,0.09583
-0.23049,0.97105,0.06269,0.11823,0.67145,1.2353
-0.19507,0.98071,-0.01177,-0.39232,1.10855,0.99851
-0.17532,0.98187,-0.072,-0.68488,0.84104,0.68716
-0.18026,0.97613,-0.12114,-0.76929,0.29629,0.18899
-0.17852,0.9722,-0.15146,-0.70563,0.19332,-0.57492
-0.15998,0.96835,-0.19154,-0.46274,0.05479,0.4268
-0.14185,0.95626,-0.25582,-0.06094,-0.35044,0.7069
-0.11694,0.94545,-0.30403,0.29784,-0.36348,0.73683
-0.08476,0.93501,-0.34433,0.38271,-0.29161,0.71512
-0.06706,0.91863,-0.38938,0.37726,-0.45577,0.58225
-0.06186,0.90045,-0.43054,0.13965,-0.4123,0.60174
-0.06311,0.88215,-0.46672,-0.07779,-0.53107,0.67116
-0.07429,0.86675,-0.49317,-0.2656,-0.66633,0.86549
-0.09159,0.85773,-0.50586,-0.2355,-0.70402,0.91308
-0.11303,0.85704,-0.50269,-0.16018,-0.84508,0.95134
-0.13185,0.8657,-0.48289,-0.07277,-0.7978,0.76736
-0.14799,0.88338,-0.44467,0.14483,-0.61748,0.34999
-0.16215,0.90737,-0.38779,0.23379,-0.2013,-0.25498
-0.16931,0.92894,-0.32923,-0.19832,2.50616,-2.07885
-0.15224,0.93504,-0.32017,0.06637,2.41919,-2.11368
-0.14209,0.9358,-0.32262,0.44358,0.38789,-0.49666
-0.13524,0.93612,-0.32462,-0.27847,-0.40948,-0.01481
-0.136,0.9365,-0.32321,-0.56186,-0.3658,0.08797
-0.15204,0.94209,-0.29891,-0.97442,0.62775,0.52604
-0.15877,0.94846,-0.27422,0.36128,0.86025,-0.16704
-0.15218,0.9491,-0.27576,0.11944,0.1696,0.26241
-0.14843,0.94763,-0.28278,-0.12966,-0.44962,1.00698
-0.14927,0.95036,-0.27299,-0.18452,-0.64245,0.90844
-0.15432,0.95711,-0.24517,-0.18759,-0.46589,0.84981
-0.17398,0.96352,-0.20335,-0.21297,-0.18702,0.64374
-0.19281,0.96925,-0.15287,-0.25003,-0.03058,0.60302
-0.19263,0.97615,-0.10001,-0.0189,0.25831,0.56502
-0.19419,0.97895,-0.06268,0.18607,0.55097,0.59839
-0.19891,0.97861,-0.0524,0.38549,0.24991,0.31567
-0.19947,0.97902,-0.04155,0.56958,0.02095,-0.26028
-0.19728,0.98024,0.01432,0.35933,-0.11024,-0.24994
-0.18458,0.97904,0.086,0.26429,-0.13291,0.15495
-0.16947,0.97615,0.13565,0.16834,-0.21153,0.14424
-0.15567,0.97393,0.16498,0.10161,-0.26844,-0.02181
-0.14678,0.97041,0.19167,-0.12281,-0.08983,-0.16027
-0.14975,0.96214,0.22771,-0.4209,0.06975,-0.51904
-0.15644,0.95334,0.25818,0.03469,0.02335,-0.00249
-0.16599,0.94564,0.27965,0.15157,0.03589,0.02635
-0.17708,0.93813,0.29755,0.24129,0.16102,-0.09027
-0.18605,0.93003,0.31688,0.34387,0.17899,-0.50998
-0.18831,0.91926,0.34565,0.32402,0.10707,-0.64981
-0.1894,0.91119,0.36585,0.16388,0.3203,-0.3179
-0.19799,0.90895,0.36686,0.1699,0.23698,-0.09492
-0.20788,0.90748,0.36504,0.19819,0.30761,-0.06048
-0.21545,0.90605,0.3642,0.26915,0.3523,-0.36913
-0.21879,0.9065,0.36108,0.2622,0.36839,-0.55195
-0.22136,0.91265,0.34359,0.26983,0.5124,-0.43831
-0.21927,0.92494,0.31048,0.2288,0.68433,-0.46853
-0.20832,0.94243,0.26156,0.11904,0.59174,-0.65317
-0.19632,0.96198,0.18985,-0.09655,0.21299,-0.62489
-0.1869,0.97684,0.10412,-0.15972,0.214,-0.2478
-0.17101,0.98492,0.02589,0.04125,0.58333,0.97974
-0.1502,0.98745,-0.0487,-0.35452,0.91264,1.07513
-0.14393,0.983,-0.11395,-0.49614,0.39548,0.65182
-0.14614,0.97544,-0.16479,-0.64299,0.08714,-0.36476
-0.13629,0.97638,-0.16761,-0.61112,0.26353,-0.48038
-0.11718,0.97217,-0.20283,-0.1903,0.1214,0.45703
-0.10509,0.95852,-0.26491,0.27535,-0.18904,0.72677
-0.08373,0.94703,-0.31004,0.33803,-0.31264,0.53179
-0.06012,0.93437,-0.35118,0.25214,-0.3141,0.51066
-0.05092,0.9179,-0.39353,0.16392,-0.32784,0.59501
-0.04758,0.90094,-0.43133,0.04548,-0.39639,0.69449
-0.04456,0.88546,-0.46256,-0.0901,-0.4304,0.71892
-0.04659,0.87394,-0.48379,-0.29774,-0.61916,0.81024
-0.0529,0.87018,-0.48988,-0.16571,-0.7191,0.82514
-0.06398,0.87444,-0.48089,-0.12336,-0.7806,0.80623
-0.07802,0.88644,-0.45621,-0.10672,-0.74161,0.56397
-0.09483,0.90482,-0.41509,0.13757,-0.57403,0.19899
-0.10895,0.92814,-0.35593,0.16715,-0.04651,-0.65201
-0.11747,0.94666,-0.30005,-0.34356,1.87127,-1.57842
-0.10629,0.95106,-0.29012,-0.10177,1.99011,-1.55842
-0.09712,0.95094,-0.29372,0.09356,0.13716,-0.50731
-0.08977,0.94911,-0.30187,-0.43547,-0.39918,-0.20428
-0.10196,0.94947,-0.29681,-0.92343,0.24268,0.3504
-0.1267,0.9529,-0.27553,-0.62478,0.95207,0.22532
-0.13048,0.95508,-0.26604,0.22556,0.62748,0.21446
-0.13555,0.9533,-0.26986,-0.01902,-0.48634,1.11796
-0.13978,0.95592,-0.25819,-0.19651,-0.67367,0.9263
-0.14092,0.96506,-0.22086,-0.19681,-0.47451,0.86239
-0.14841,0.97412,-0.17044,-0.24595,-0.19486,0.56668
-0.16445,0.9793,-0.118,-0.25403,-0.13391,0.47598
-0.16967,0.9831,-0.0686,-0.03839,0.30654,0.64521
-0.16681,0.9855,-0.03071,0.20123,0.30792,0.59582
-0.16729,0.9858,-0.01401,0.35932,0.1034,0.26552
-0.16498,0.98628,-0.00401,0.51348,0.04079,-0.20638
-0.15913,0.98662,0.0354,0.36696,-0.17781,-0.28108
-0.15117,0.98247,0.10899,0.23715,-0.1525,0.01752
-0.13495,0.97718,0.16397,0.09648,-0.20471,0.28413
-0.12823,0.97307,0.19151,-0.02244,-0.14904,0.07306
-0.13005,0.96928,0.20874,-0.11802,0.07061,-0.10495
-0.13592,0.96188,0.23728,-0.19078,0.13805,-0.53622
-0.13739,0.94819,0.28644,0.0467,0.02204,-0.50019
-0.14071,0.93925,0.31304,0.10299,0.09603,-0.11681
-0.1511,0.93346,0.32527,0.08007,0.10202,-0.05823
-0.1642,0.92538,0.3416,0.08078,0.19602,-0.29776
-0.17056,0.91537,0.36466,0.18621,0.15195,-0.48231
-0.1735,0.90561,0.38698,0.31274,0.24318,-0.3557
-0.1835,0.90134,0.39229,0.26169,0.21424,-0.12941
-0.1938,0.90014,0.39009,0.20513,0.20719,-0.13859
-0.19974,0.89882,0.39013,0.10126,0.35061,-0.24477
-0.20287,0.89934,0.3873,-0.02108,0.52787,-0.40014
-0.20783,0.90386,0.37393,0.12955,0.53086,-0.36447
-0.21141,0.91464,0.34457,0.32581,0.62991,-0.55634
-0.20667,0.93242,0.29641,0.32789,0.77652,-0.77922
-0.19458,0.95416,0.22738,0.11133,0.38822,-0.71956
-0.18442,0.97316,0.1376,-0.1849,0.29822,-0.25301
-0.16857,0.98402,0.05721,-0.08334,0.36332,0.79536
-0.14856,0.98874,-0.0178,-0.06581,0.38935,1.0683
-0.13827,0.98654,-0.08723,-0.50346,0.55886,0.8288
-0.14377,0.97814,-0.15023,-0.59393,0.11543,0.29127
-0.14146,0.97348,-0.17976,-0.61141,0.1055,-0.3864
-0.12474,0.97442,-0.1869,-0.19554,0.32131,0.16324
-0.11207,0.96255,-0.24682,0.17262,-0.05943,0.58943
-0.09858,0.94866,-0.30051,0.41302,-0.16017,0.71456
-0.08339,0.93441,-0.34629,0.27824,-0.23904,0.62303
-0.07412,0.91733,-0.39115,0.19621,-0.28002,0.57945
-0.06933,0.89993,-0.43049,0.15389,-0.24389,0.66812
-0.06701,0.88416,-0.46235,-0.09601,-0.40932,0.74222
-0.07095,0.87075,-0.48657,-0.27109,-0.57235,0.84634
-0.0759,0.86465,-0.49659,-0.25685,-0.72299,0.90403
-0.08232,0.86763,-0.49034,-0.16316,-0.72722,0.85066
-0.09145,0.87935,-0.46731,-0.04803,-0.69125,0.56051
-0.10277,0.89933,-0.42502,0.04921,-0.61205,0.30963
-0.11667,0.92469,-0.36239,0.02933,-0.49398,0.06384
-0.12816,0.94384,-0.30451,-0.19644,2.19767,-1.69178
-0.11169,0.947,-0.30118,0.24413,2.29028,-2.07297
-0.10507,0.94534,-0.30867,0.39859,0.35377,-0.60511
-0.09656,0.94435,-0.31443,0.04213,-0.56537,-0.08885
-0.09758,0.94559,-0.31035,-0.42329,-0.22073,0.28843
-0.10999,0.95088,-0.28935,-0.69868,0.56292,0.22163
-0.10761,0.95438,-0.27851,0.13344,1.28207,-0.56469
-0.10518,0.95136,-0.28954,0.07788,0.54304,-0.12722
-0.10475,0.94786,-0.30097,-0.39526,-0.84317,1.45991
-0.1037,0.95371,-0.28225,-0.27551,-0.84472,1.06999
-0.10259,0.96656,-0.23499,-0.21586,-0.67082,1.07108
-0.11859,0.97665,-0.17912,-0.32588,-0.18025,0.57287
-0.14702,0.98119,-0.12504,-0.4512,0.07568,0.41773
-0.15978,0.98451,-0.07209,-0.22211,0.31063,0.55375
-0.15868,0.98696,-0.02675,0.16985,0.45916,0.64079
-0.16352,0.98651,-0.00721,0.44977,0.24741,0.40081
-0.17272,0.98494,-0.00742,0.52303,0.16603,0.17601
-0.18166,0.98297,0.02762,0.50597,-0.00144,-0.38663
-0.17861,0.97898,0.09834,0.37043,-0.08845,0.05429
-0.16659,0.97518,0.14582,0.29084,-0.2157,0.24279
-0.15608,0.97315,0.1691,0.10708,-0.2953,0.16796
-0.14972,0.97122,0.18518,-0.01358,-0.11339,0.14569
-0.15225,0.96577,0.20996,-0.13225,0.01195,-0.03978
-0.1528,0.95256,0.26317,-0.45189,-0.00729,-0.73913
-0.14814,0.94139,0.30301,-0.09989,-0.01392,-0.07813
-0.15642,0.93591,0.31558,0.09816,0.15404,-0.03393
-0.17401,0.92886,0.32699,0.18168,0.28264,-0.34664
-0.1861,0.92031,0.34406,0.2848,0.12008,-0.55356
-0.19108,0.91148,0.36424,0.31568,0.21999,-0.4501
-0.19941,0.90754,0.36956,0.28376,0.31075,-0.26206
-0.2082,0.90528,0.37027,0.24485,0.32397,-0.19127
-0.21311,0.90299,0.37306,0.25822,0.45428,-0.19552
-0.21663,0.90335,0.37015,0.17445,0.53515,-0.51705
-0.21814,0.9083,0.35692,0.18414,0.60762,-0.58397
-0.21737,0.921,0.32323,0.28675,0.73082,-0.57534
-0.21058,0.94071,0.2659,0.28305,0.73826,-0.63314
-0.19931,0.96165,0.1884,0.04813,0.39538,-0.68469
-0.18519,0.97718,0.104,-0.10143,0.45626,0.28377
-0.16953,0.98522,0.02416,0.02614,0.41728,1.16384
-0.15562,0.98642,-0.05239,-0.26984,0.5795,1.0001
-0.15503,0.9804,-0.12153,-0.39392,0.51492,0.90128
-0.15603,0.97288,-0.17071,-0.68574,0.19385,-0.31739
-0.14393,0.97454,-0.17189,-0.45038,0.20088,-0.14757
-0.12053,0.96957,-0.21304,-0.05551,0.16525,0.40978
-0.09952,0.95805,-0.26875,0.33551,-0.09918,0.67734
-0.07775,0.94548,-0.31624,0.42605,-0.12535,0.74732
-0.06372,0.92875,-0.36518,0.32398,-0.28463,0.59241
-0.05817,0.91076,-0.40882,0.2032,-0.38594,0.63214
-0.05024,0.89479,-0.44365,-0.09971,-0.51269,0.69249
-0.04629,0.88153,-0.46984,-0.23831,-0.57498,0.75623
-0.04918,0.8737,-0.48396,-0.33852,-0.66607,0.82904
-0.05593,0.87389,-0.48288,-0.14565,-0.83469,0.80432
-0.06813,0.88215,-0.46601,-0.09626,-0.81911,0.81077
-0.08373,0.89813,-0.43168,-0.06439,-0.77307,0.63099
-0.10487,0.92034,-0.3768,-0.06732,0.01094,-0.4803
-0.1243,0.93958,-0.31896,-0.14201,0.78926,-1.06941
-0.11011,0.94233,-0.31605,0.1365,2.65229,-2.15414
-0.1015,0.94037,-0.32465,0.48783,0.59755,-1.0146
-0.09486,0.94001,-0.32767,-0.03918,-0.91099,0.10897
-0.09282,0.94117,-0.3249,-0.30382,-0.47265,0.88408
-0.09708,0.95176,-0.29107,-0.71487,0.32095,1.59088
-0.11709,0.96588,-0.23099,-0.99383,1.34787,0.11766
-0.12602,0.96465,-0.23144,-0.22746,1.6992,-1.81382
-0.14802,0.95935,-0.24024,-0.22717,-0.32541,1.33129
-0.15474,0.95627,-0.24818,0.10114,-1.02097,1.1561
-0.14721,0.96072,-0.23524,0.03341,-0.67675,0.89176
-0.15004,0.97029,-0.18978,-0.29016,-0.35318,0.76211
-0.16091,0.97943,-0.12173,-0.42233,-0.07292,0.62521
-0.16492,0.98434,-0.06214,0.0164,0.48242,0.78146
-0.17896,0.98311,-0.03818,0.35524,0.42326,0.63474
-0.20093,0.97893,-0.03628,0.43379,0.28851,0.19001
-0.20999,0.97769,-0.00411,0.51169,-0.06843,-0.57659
-0.20357,0.9744,0.09536,0.46498,-0.04427,-0.37272
-0.19445,0.96529,0.17433,0.14538,-0.15717,-0.13708
-0.18998,0.96362,0.18795,0.15313,-0.12237,-0.33809
-0.18279,0.96342,0.19594,-0.06035,-0.02143,-0.38938
-0.17869,0.95732,0.22714,-0.28631,0.04685,-0.23464
-0.18077,0.9484,0.26047,-0.166,-0.2092,0.05693
-0.19056,0.94096,0.27975,-0.01291,-0.19903,0.17701
-0.20592,0.93304,0.29498,0.12098,0.07842,-0.17318
-0.217,0.92348,0.31634,0.16782,0.2098,-0.27522
-0.22265,0.91231,0.34366,0.37092,0.16841,-0.56937
-0.22777,0.90207,0.36658,0.43169,0.18547,-0.61383
-0.23548,0.89667,0.37486,0.24212,0.32927,-0.32193
-0.24404,0.89343,0.37712,0.13886,0.39149,-0.37638
-0.25371,0.8925,0.37291,0.13541,0.47448,-0.44437
-0.26286,0.896,0.35787,0.29724,0.59973,-0.68235
-0.26748,0.90599,0.32806,0.47278,0.4979,-0.57121
-0.26273,0.92501,0.27443,0.39143,0.54409,-0.54846
-0.24702,0.9474,0.20347,0.30266,0.58185,-0.46956
-0.22624,0.9668,0.11877,-0.03946,0.76269,0.35448
-0.19713,0.97948,0.04178,-0.04166,0.79623,1.01737
-0.167,0.98533,-0.03503,-0.06887,0.78182,1.27163
-0.14664,0.98367,-0.1043,-0.51549,0.74182,0.80457
-0.13411,0.97857,-0.1562,-0.70986,0.31359,-0.15365
-0.11201,0.98049,-0.16151,-0.76144,0.19821,-0.37637
-0.0836,0.976,-0.20104,-0.29431,0.00152,0.56276
-0.06108,0.96435,-0.25748,-0.15575,-0.26061,0.64847
-0.03783,0.95385,-0.29787,0.05554,-0.33206,0.75144
-0.01242,0.9395,-0.3423,0.58805,-0.30126,0.6451
0.00607,0.9227,-0.38547,0.45094,-0.38771,0.62188
0.01884,0.90665,-0.42146,0.29263,-0.30393,0.67321
0.02498,0.8926,-0.45015,-0.47311,-0.68947,0.78415
0.01641,0.88185,-0.47123,-0.41144,-0.7359,0.98623
-0.00123,0.8785,-0.47773,-0.27505,-0.82442,1.02592
-0.02118,0.88434,-0.46635,-0.2617,-0.91564,0.97207
-0.04024,0.89919,-0.43571,-0.24572,-0.86253,0.72367
-0.06488,0.92115,-0.38376,-0.05025,-0.31595,0.15335
-0.08817,0.94304,-0.32077,-0.2048,0.94484,-1.06933
-0.09342,0.94964,-0.29909,-0.36782,2.35223,-2.22476
-0.07041,0.94791,-0.31064,0.9894,0.74809,-0.81453
-0.05256,0.95059,-0.30596,0.53911,-0.29376,-0.21038
-0.04403,0.95356,-0.29796,-0.22236,-0.7356,0.35725
-0.05631,0.95938,-0.27643,-0.81341,0.35521,0.95788
-0.0776,0.96943,-0.23274,-0.09884,1.25522,-0.14194
-0.07428,0.97026,-0.23035,0.12806,0.87684,-0.59468
-0.07596,0.96516,-0.25036,-0.47766,-0.68021,1.20405
-0.07901,0.96525,-0.24908,-0.3134,-0.91515,0.8213
-0.08461,0.97165,-0.22074,-0.2909,-0.59171,0.9773
-0.10058,0.97875,-0.17866,-0.36061,-0.31214,0.71271
-0.12152,0.98406,-0.12978,-0.44348,-0.06229,0.55411
-0.13466,0.98795,-0.0762,-0.38815,0.19798,0.45163
-0.13861,0.98969,-0.03593,-0.05118,0.37065,0.50359
-0.14584,0.98899,-0.02491,0.31746,0.23786,0.45139
-0.15652,0.98729,-0.0273,0.49101,0.01579,-0.02954
-0.16619,0.98602,0.01124,0.51292,-0.20859,-0.39654
-0.16483,0.98236,0.08822,0.38848,-0.07677,0.0771
-0.15167,0.97744,0.14699,0.30206,-0.03755,0.40145
-0.14429,0.97296,0.18033,0.11507,-0.09083,0.05606
-0.13772,0.96954,0.20249,-0.06656,-0.00252,-0.33105
-0.1433,0.96313,0.22766,-0.29308,0.03345,-0.75631
-0.14871,0.95608,0.25254,-0.13283,-0.02844,-0.14083
-0.15951,0.94952,0.27011,0.1118,-0.11617,0.2436
-0.17641,0.9437,0.2798,0.12869,-0.11036,0.23392
-0.19149,0.93714,0.2917,0.23655,0.21868,-0.32881
-0.19376,0.92492,0.32704,0.38749,0.16611,-0.51444
-0.18714,0.91115,0.36711,0.3162,0.30141,-0.53702
-0.19422,0.90818,0.37077,0.19041,0.31782,-0.37582
-0.20714,0.9051,0.37132,0.2516,0.49269,-0.30357
-0.21511,0.90444,0.36837,0.25791,0.51115,-0.38902
-0.21867,0.90817,0.35692,0.26122,0.54363,-0.48148
-0.2175,0.91896,0.32892,0.39313,0.70721,-0.48201
-0.20532,0.93782,0.27986,0.32288,0.8474,-0.4906
-0.18591,0.95894,0.21413,0.05652,0.58317,-0.53274
-0.16901,0.9773,0.1277,-0.24612,0.43807,-0.30588
-0.14686,0.98803,0.04716,-0.21351,0.54234,0.59931
-0.12291,0.99207,-0.02592,-0.33859,0.7375,0.98514
-0.1124,0.9893,-0.093,-0.54397,0.25736,0.69725
-0.11436,0.98076,-0.1582,-0.57734,0.08753,0.44679
-0.11138,0.97599,-0.18718,-0.54141,0.07815,-0.48427
-0.09287,0.97315,-0.21058,-0.19887,0.13148,0.3903
-0.07539,0.95981,-0.27033,-0.00641,-0.01153,0.62849
-0.05855,0.94333,-0.32665,0.37603,-0.06175,0.79715
-0.04218,0.92329,-0.38178,0.22072,-0.20362,0.6597
-0.03203,0.89966,-0.4354,0.14119,-0.21039,0.65435
-0.02491,0.87612,-0.48145,-0.04133,-0.30155,0.6599
-0.0218,0.85313,-0.52124,-0.23104,-0.40717,0.7565
-0.02605,0.83299,-0.55268,-0.29609,-0.49824,0.80088
-0.03627,0.82132,-0.56931,-0.15809,-0.59625,0.84784
-0.05156,0.81986,-0.57024,-0.16243,-0.69803,0.87048
-0.06667,0.82899,-0.55527,-0.03848,-0.66148,0.69485
-0.08281,0.84671,-0.52556,0.23743,-0.58753,0.16362
-0.09377,0.87071,-0.48277,0.21935,-0.29985,-0.69817
-0.08864,0.89498,-0.43721,0.06021,0.96864,-1.44614
-0.0718,0.90875,-0.41111,-0.19805,1.64308,-1.45896
-0.07438,0.91581,-0.39466,0.03644,0.24925,-0.46516
-0.07651,0.92031,-0.38362,-0.04507,-0.37403,-0.02565
-0.08203,0.92357,-0.37455,-0.68328,0.3643,0.39278
-0.09224,0.92988,-0.3561,-0.35899,0.28475,0.52308
-0.10335,0.94109,-0.32198,0.23031,1.02228,-0.49017
-0.08847,0.94879,-0.30324,-0.16904,0.02693,0.33822
-0.09038,0.95275,-0.29,-0.24887,-0.63849,1.1292
-0.088,0.95843,-0.27141,-0.36553,-0.39033,0.68042
-0.08881,0.96826,-0.23359,-0.34451,-0.20407,0.6024
-0.10134,0.97835,-0.18045,-0.42759,-0.03926,0.50641
-0.1167,0.98515,-0.12585,-0.29823,-0.02429,0.42081
-0.1236,0.98949,-0.07501,-0.03027,0.10164,0.53675
-0.12734,0.99127,-0.03412,0.22872,0.23975,0.61151
-0.13503,0.99069,-0.01722,0.42568,0.17225,0.38578
-0.14351,0.98949,-0.01764,0.51126,0.09683,0.0615
-0.14491,0.9894,-0.00876,0.42915,-0.07973,-0.36095
-0.14086,0.98915,0.04163,0.34531,-0.07826,-0.27824
-0.12954,0.98612,0.10382,0.25628,-0.16523,0.22891
-0.11698,0.98222,0.14677,0.11084,-0.19015,0.01286
-0.10575,0.97881,0.17528,0.04841,-0.12467,0.00376
-0.09952,0.97401,0.20344,-0.02742,-0.03027,-0.0736
-0.0995,0.96562,0.24011,-0.37626,-0.16185,-0.46691
-0.10444,0.95706,0.27038,-0.24027,-0.10072,-0.0952
-0.11015,0.95128,0.28796,-0.0683,-0.00487,0.13338
-0.12445,0.94457,0.30379,0.20455,0.21144,-0.13237
-0.13898,0.93694,0.32064,0.25376,0.30445,-0.32036
-0.14556,0.92569,0.34914,0.29194,0.27285,-0.50448
-0.14347,0.91366,0.38029,0.14077,0.28789,-0.26612
-0.15203,0.91174,0.38157,0.15051,0.28498,-0.23807
-0.16534,0.90916,0.3822,0.20028,0.31121,-0.20698
-0.17434,0.90719,0.38288,0.23055,0.56728,-0.35532
-0.17799,0.9091,0.37662,0.26303,0.64487,-0.32091
-0.17662,0.91688,0.35793,0.30874,0.62378,-0.26374
-0.16666,0.93206,0.32165,0.07059,0.7125,-0.73547
-0.14839,0.95193,0.26795,-0.10539,0.49621,-0.89838
-0.13412,0.97253,0.19022,-0.37412,0.30134,-0.33015
-0.12643,0.98672,0.10192,-0.08568,0.27637,0.96918
-0.11488,0.99303,0.02609,-0.08388,0.35171,1.03989
-0.10164,0.99374,-0.04622,-0.53792,0.41478,0.75699
-0.10147,0.98859,-0.11131,-0.64024,0.226,0.01055
-0.10033,0.98087,-0.1668,-0.6266,0.2978,-0.51658
-0.09321,0.98043,-0.17334,-0.18551,0.28841,0.22957
-0.08461,0.97176,-0.22023,0.02156,-0.10294,0.54894
-0.06965,0.95713,-0.28113,0.0954,-0.09609,0.66939
-0.05215,0.94336,-0.32764,0.13557,-0.22976,0.63733
-0.04107,0.9255,-0.37651,0.16558,-0.29946,0.55992
-0.03346,0.90576,-0.42247,0.19621,-0.30319,0.60876
-0.02529,0.88673,-0.46159,-0.0057,-0.52802,0.61642
-0.02146,0.8686,-0.49503,-0.13524,-0.65364,0.72692
-0.0255,0.85444,-0.51892,-0.14572,-0.72359,0.74622
-0.03515,0.84789,-0.52901,-0.09037,-0.70111,0.79221
-0.05018,0.84939,-0.52537,-0.09763,-0.69399,0.74623
-0.06855,0.85802,-0.50902,0.08541,-0.65611,0.16925
-0.08715,0.87632,-0.47377,0.12159,-0.41454,-0.79577
-0.10208,0.90347,-0.41631,-0.30846,0.84008,-1.44938
-0.10187,0.92202,-0.37349,-0.65216,1.78262,-1.32066
-0.08976,0.92862,-0.36,0.15755,0.32922,-0.50403
-0.08459,0.92653,-0.36656,-0.17984,-0.24892,-0.33388
-0.086,0.91798,-0.38717,-0.2895,-0.35973,-0.23934
-0.10371,0.91604,-0.38744,-0.09479,0.1083,1.30179
-0.1187,0.93595,-0.33151,0.05536,1.02658,0.30202
-0.09607,0.94804,-0.30328,-0.51246,1.62261,-1.01862
-0.10801,0.94622,-0.30495,-0.31368,-0.4195,1.44591
-0.11463,0.95116,-0.28662,-0.14685,-0.63004,0.82013
-0.11203,0.96271,-0.24622,-0.11946,-0.65667,0.9241
-0.10958,0.97408,-0.19786,0.04247,-0.3234,0.67547
-0.12398,0.98069,-0.15123,-0.10042,-0.07766,0.52004
-0.14131,0.98383,-0.10997,-0.13185,0.19033,0.55698
-0.14926,0.98595,-0.07491,0.15126,0.43267,0.68695
-0.1568,0.98596,-0.05733,0.39819,0.18615,0.25819
-0.15946,0.98585,-0.05162,0.43144,0.09295,0.04814
-0.15448,0.98755,-0.02931,0.43723,-0.07123,-0.22071
-0.14434,0.98876,0.03889,0.18062,-0.18353,0.21466
-0.12727,0.985,0.11646,0.09183,-0.19848,0.33073
-0.11481,0.97874,0.16988,-0.03805,-0.25665,-0.12803
-0.10936,0.97373,0.19967,-0.16535,-0.10308,-0.25381
-0.11269,0.96938,0.21812,-0.22955,0.05553,-0.30446
-0.11871,0.9627,0.2431,0.0419,0.00735,-0.23654
-0.12172,0.95461,0.27182,0.14885,0.03509,-0.09958
-0.12745,0.94691,0.29513,0.14825,0.09676,-0.07603
-0.13775,0.93999,0.31214,0.19226,0.24252,-0.17622
-0.148,0.93202,0.33078,0.23532,0.15582,-0.48887
-0.15406,0.9221,0.35494,0.19871,0.29949,-0.63272
-0.15986,0.91626,0.36729,0.14057,0.28781,-0.25405
-0.16822,0.91454,0.36783,0.19589,0.2707,-0.1756
-0.17784,0.91427,0.36396,0.25825,0.28583,-0.27384
-0.18518,0.91589,0.35614,0.1463,0.55753,-0.75384
-0.18808,0.92184,0.33884,0.17908,0.60681,-0.61772
-0.18758,0.93572,0.2987,0.26273,0.60286,-0.59838
-0.18105,0.95479,0.23573,0.15252,0.58172,-0.60095
-0.17205,0.97329,0.15192,0.09534,0.4755,-0.28895
-0.15626,0.9854,0.0675,0.17592,0.65626,0.94024
-0.13006,0.99145,-0.01006,-0.17323,0.8865,0.94799
-0.10717,0.99108,-0.07914,-0.4846,0.66268,0.72169
-0.10332,0.98556,-0.13413,-0.57854,0.27331,0.46972
-0.1027,0.9783,-0.17993,-0.45098,0.00437,-0.25032
-0.08777,0.9776,-0.19129,-0.31328,0.16196,-0.09837
-0.06835,0.97087,-0.22961,-0.01689,-0.09714,0.53575
-0.0509,0.95733,-0.28446,0.06769,-0.34992,0.81228
-0.0318,0.94373,-0.32918,0.10615,-0.38632,0.72242
-0.02329,0.92686,-0.37468,0.2524,-0.30129,0.70084
-0.02421,0.90814,-0.41795,0.13937,-0.27686,0.66504
-0.013,0.89221,-0.45142,-0.12553,-0.33113,0.57339
-0.00837,0.87741,-0.47966,-0.32833,-0.47028,0.81551
-0.01795,0.86604,-0.49965,-0.32294,-0.70201,0.93319
-0.03222,0.86241,-0.50518,-0.20963,-0.80966,0.92648
-0.04748,0.86725,-0.49559,-0.16944,-0.80648,0.86438
-0.06236,0.88012,-0.47063,-0.08463,-0.59968,0.41695
-0.07907,0.89956,-0.42957,-0.02967,-0.04467,-0.54246
-0.10258,0.91614,-0.38751,-0.04769,0.52185,-1.37148
-0.10823,0.91686,-0.38425,0.3921,1.99191,-1.44066
-0.10486,0.91414,-0.39158,-0.02775,-0.4374,-0.42276
-0.09769,0.91298,-0.39612,-0.10189,-0.58737,-0.27398
-0.09229,0.91624,-0.38985,-0.43104,-0.12907,0.42621
-0.09547,0.92408,-0.37007,-0.76204,0.51456,0.46604
-0.10529,0.93135,-0.34855,-0.20117,1.09283,-0.50149
-0.10036,0.93478,-0.34074,0.59095,0.76956,-0.52567
-0.11023,0.93504,-0.33696,-0.26149,-0.86567,1.5036
-0.11269,0.93618,-0.33295,-0.38638,-0.73075,1.04485
-0.10793,0.94726,-0.30173,-0.45662,-0.37179,0.68413
-0.11223,0.96362,-0.24254,-0.23764,-0.20642,0.86476
-0.12892,0.97389,-0.18685,-0.21482,-0.0493,0.6233
-0.14732,0.97915,-0.13984,-0.22087,0.12244,0.41828
-0.15551,0.98403,-0.08652,-0.07513,0.29127,0.40768
-0.15682,0.98701,-0.03485,0.23619,0.31153,0.49287
-0.16421,0.9864,-0.00632,0.47622,0.19018,0.28752
-0.17492,0.98457,0.00298,0.59971,-0.10023,-0.38213
-0.18281,0.98251,0.03524,0.41986,-0.11058,-0.31749
-0.17296,0.98147,0.08232,0.22859,-0.1127,0.16787
-0.15956,0.98009,0.11811,0.15505,-0.21814,-0.02871
-0.14698,0.97788,0.14879,0.12055,-0.17911,0.04293
-0.13482,0.97505,0.17633,-0.02683,0.03354,-0.09688
-0.12763,0.97003,0.20675,-0.27287,0.04224,-0.46042
-0.12997,0.96335,0.23461,-0.24161,-0.03649,-0.33239
-0.13719,0.95776,0.25268,-0.02821,-0.01515,0.03587
-0.14931,0.95237,0.26588,0.10808,0.06686,0.16882
-0.16334,0.94705,0.27641,0.1659,0.19237,0.07063
-0.17703,0.93978,0.29234,0.27473,0.12098,-0.05416
-0.18746,0.93051,0.31462,0.38736,0.15272,-0.42456
-0.19189,0.91689,0.34997,0.29569,0.27913,-0.45549
-0.19094,0.90681,0.37578,0.2033,0.36708,-0.23969
-0.19977,0.90443,0.37694,0.23463,0.48901,-0.28897
-0.21081,0.90218,0.37631,0.24096,0.51379,-0.3654
-0.2195,0.90361,0.36782,0.27797,0.681,-0.24536
-0.2198,0.91142,0.34784,0.31717,0.75496,-0.14691
-0.21102,0.92552,0.31443,0.2007,0.86165,-0.25552
-0.19516,0.94273,0.27048,-0.02347,0.38837,-0.70014
-0.1798,0.96114,0.20944,-0.25536,0.22465,-0.71202
-0.17183,0.977,0.12626,-0.21455,0.27975,0.37954
-0.16212,0.98535,0.05272,0.01648,0.25338,0.93407
-0.15061,0.98847,-0.0149,-0.17048,0.26322,0.7711
-0.14455,0.98614,-0.08141,-0.34033,0.06321,0.42797
-0.13927,0.9803,-0.14,-0.40756,0.05133,0.05932
-0.12295,0.97978,-0.15781,-0.14237,0.17519,0.00243
-0.10401,0.97928,-0.17372,0.00149,0.29794,0.19061
-0.0824,0.97001,-0.22866,0.17525,-0.06777,0.64408
-0.05941,0.95741,-0.28255,0.03653,-0.22067,0.55664
-0.03851,0.94331,-0.32965,-0.00896,-0.24093,0.53592
-0.0214,0.92718,-0.374,-0.02733,-0.24819,0.57694
-0.0071,0.91015,-0.41422,-0.1058,-0.41426,0.60323
0.00334,0.89404,-0.44798,-0.11624,-0.39816,0.63699
0.00227,0.87967,-0.47557,-0.30589,-0.63327,0.75575
-0.00486,0.87093,-0.49138,-0.24029,-0.67183,0.71268
-0.01637,0.87066,-0.49161,-0.18242,-0.67335,0.64621
-0.03519,0.87879,-0.4759,-0.12534,-0.66277,0.48847
-0.05999,0.89411,-0.44381,0.13848,-0.08513,-0.8008
-0.08577,0.91021,-0.40515,0.21354,0.49685,-1.343
-0.09237,0.91875,-0.38388,-0.13165,1.82635,-1.13216
-0.08332,0.92406,-0.37305,0.12797,0.80954,-0.68781
-0.07737,0.92456,-0.37309,0.07929,0.0152,-0.26284
-0.07572,0.92008,-0.38434,-0.30575,-0.50318,0.04364
-0.08119,0.9129,-0.40001,-0.00303,-0.84065,0.02162
-0.08546,0.92219,-0.37716,-0.00906,-0.52517,1.73462
-0.08868,0.94794,-0.30583,-0.16747,0.21134,1.58659
-0.07114,0.96761,-0.2422,-0.46878,3.13455,-3.42907
-0.07357,0.96655,-0.24567,-0.46253,-0.06644,1.27959
-0.08141,0.96554,-0.24717,-0.30868,-0.68168,0.63702
-0.08373,0.96738,-0.23906,-0.28271,-0.70441,0.52084
-0.09743,0.97336,-0.20751,-0.18051,-0.52799,0.77625
-0.11373,0.97928,-0.16751,-0.23051,-0.04577,0.73077
-0.12252,0.98435,-0.12665,-0.2071,0.23544,0.73023
-0.13004,0.98747,-0.08929,0.04428,0.5885,0.7762
-0.14783,0.98654,-0.0699,0.45433,0.43667,0.48797
-0.16166,0.98487,-0.06232,0.58361,0.06943,-0.0816
-0.16148,0.9864,-0.03062,0.38135,-0.17416,-0.31994
-0.15072,0.98695,0.05662,0.19987,-0.0664,0.15993
-0.13841,0.97999,0.14301,0.04316,-0.25578,-0.06378
-0.13062,0.97452,0.18228,0.04688,-0.26966,-0.05266
-0.1223,0.97249,0.19823,-0.23227,-0.08972,-0.24448
-0.12298,0.9678,0.21958,-0.37182,-0.08316,-0.19706
-0.12986,0.96028,0.24697,-0.16038,-0.17669,0.01878
-0.13812,0.95266,0.27082,0.10026,-0.05502,0.06057
-0.15082,0.94462,0.29142,0.15537,0.09049,0.01553
-0.16268,0.93583,0.31265,0.1625,0.2893,-0.24878
-0.1721,0.92576,0.33664,0.24953,0.34368,-0.68447
-0.17632,0.91436,0.36446,0.39913,0.26493,-0.66077
-0.18234,0.90677,0.38013,0.35309,0.3109,-0.3604
-0.19245,0.90379,0.38224,0.19738,0.34561,-0.38302
-0.19997,0.90135,0.38414,0.23596,0.5043,-0.4937
-0.20823,0.90165,0.37901,0.31069,0.56576,-0.5368
-0.21407,0.90696,0.36273,0.42866,0.72876,-0.44702
-0.20962,0.92051,0.3297,0.24916,0.60257,-0.51928
-0.19416,0.9412,0.27647,0.20098,0.46227,-0.49636
-0.17429,0.9634,0.20363,0.13911,0.34402,-0.44185
-0.1514,0.98055,0.12488,-0.12988,0.82403,0.31117
-0.1293,0.99029,0.05094,-0.15484,0.69107,1.17752
-0.11231,0.99343,-0.02166,-0.28262,0.72009,1.14466
-0.10517,0.99031,-0.09058,-0.68584,0.22076,-0.27143
-0.09831,0.98432,-0.1464,-0.74738,0.27721,-0.57216
-0.08257,0.98433,-0.15581,-0.60535,0.2833,-0.48553
-0.07069,0.97688,-0.20172,-0.04528,-0.2052,0.76815
-0.06264,0.96257,-0.26366,0.07193,-0.30901,0.84107
-0.04866,0.94857,-0.31279,0.17523,-0.32317,0.79785
-0.0357,0.93175,-0.36134,0.33778,-0.30774,0.55531
-0.03119,0.91218,-0.40859,0.29219,-0.25848,0.66527
-0.02303,0.89218,-0.45109,0.24133,-0.25991,0.73242
-0.01325,0.87382,-0.48606,-0.27813,-0.56068,0.79987
-0.01572,0.85797,-0.51346,-0.37123,-0.64183,0.908
-0.02724,0.8492,-0.52737,-0.26336,-0.71329,0.98235
-0.04544,0.84886,-0.52665,-0.17286,-0.7428,0.94314
-0.06514,0.85694,-0.51127,-0.1118,-0.73371,0.61511
-0.08072,0.87509,-0.47717,0.13862,-0.34949,-0.29101
-0.09251,0.90132,-0.42316,0.06998,0.85163,-1.32208
-0.09425,0.92108,-0.37778,-0.15622,1.95235,-1.79339
-0.08128,0.92572,-0.36936,0.0254,0.34825,-0.39299
-0.076,0.92814,-0.36438,0.01766,-0.09799,-0.35814
-0.07378,0.92769,-0.36598,-0.26774,-0.55191,-0.07651
-0.08136,0.92929,-0.36026,-0.53415,0.06,0.85252
-0.09646,0.94126,-0.3236,-0.31612,0.51623,1.03243
-0.11066,0.95852,-0.26265,-0.05087,1.29966,0.19235
-0.09595,0.96138,-0.25796,-0.08503,0.13265,0.39954
-0.10961,0.95995,-0.25782,-0.17287,-0.68171,1.15772
-0.11,0.96365,-0.24343,-0.17872,-0.58808,0.72749
-0.11119,0.97112,-0.21108,-0.12576,-0.39522,0.6838
-0.11957,0.97844,-0.16839,-0.10526,-0.36314,0.5785
-0.12835,0.98402,-0.12337,-0.11611,-0.04321,0.65219
-0.13005,0.98823,-0.0805,0.00826,0.36674,0.74621
-0.13364,0.98983,-0.04863,0.23481,0.44328,0.61961
-0.14383,0.98899,-0.03473,0.37777,0.19983,0.29605
-0.15145,0.98808,-0.02728,0.42691,-0.08632,-0.04082
-0.149,0.98882,0.0051,0.26138,-0.22988,-0.29549
-0.13713,0.98701,0.08357,0.14669,-0.06428,0.04726
-0.12397,0.97784,0.16865,0.02,-0.15257,-0.03915
-0.12103,0.97103,0.206,0.03419,-0.23106,-0.24956
-0.11878,0.97007,0.21174,0.00099,-0.13316,-0.23098
-0.12043,0.96606,0.22849,-0.111,-0.03004,-0.13621
-0.12257,0.95846,0.25753,0.00138,-0.07604,-0.06748
-0.12648,0.94991,0.28577,0.03566,-0.10695,-0.01886
-0.13475,0.94188,0.30772,0.03769,0.17798,-0.11624
-0.14486,0.93279,0.33001,0.14107,0.14396,-0.46673
-0.14768,0.92083,0.36089,0.35518,0.23342,-0.74798
-0.14893,0.91099,0.38459,0.32781,0.42752,-0.42751
-0.15775,0.90781,0.38856,0.24447,0.4115,-0.24013
-0.16742,0.90643,0.38772,0.21821,0.49588,-0.31212
-0.17266,0.90751,0.38288,0.109,0.67858,-0.80028
-0.17507,0.91453,0.36464,0.33629,0.71236,-0.46625
-0.17562,0.92991,0.32312,0.36518,0.81978,-0.44515
-0.16615,0.95106,0.26049,0.30384,0.80838,-0.47544
-0.15321,0.9719,0.17864,-0.16556,0.54599,0.26643
-0.14053,0.98589,0.09085,-0.0411,0.53787,1.04932
-0.12439,0.99219,0.00897,0.02739,0.51193,1.2366
-0.10806,0.99212,-0.06324,-0.46964,0.45433,0.51287
-0.09917,0.98698,-0.12659,-0.59717,0.37861,0.06633
-0.08793,0.98337,-0.15886,-0.68369,0.3502,-0.35769
-0.07515,0.9807,-0.18046,-0.2242,0.07153,0.53677
-0.07081,0.96731,-0.24349,0.0084,-0.32551,0.74419
-0.06531,0.95062,-0.30341,0.28276,-0.29972,0.75391
-0.05248,0.9351,-0.35047,0.30974,-0.31629,0.66873
-0.04465,0.91531,-0.40026,0.32762,-0.34663,0.65554
-0.03626,0.89522,-0.44414,0.15848,-0.33,0.67156
-0.02417,0.87675,-0.48033,0.03134,-0.35473,0.68571
-0.01766,0.86157,-0.50732,-0.19493,-0.47099,0.7816
-0.02008,0.85172,-0.52361,-0.33304,-0.72654,0.92876
-0.02871,0.84902,-0.52758,-0.25181,-0.7448,0.89616
-0.04541,0.85442,-0.51759,-0.02111,-0.73176,0.52143
-0.06511,0.87002,-0.4887,0.12944,-0.53283,-0.02621
-0.08634,0.89655,-0.43443,0.03265,0.4685,-1.24641
-0.09849,0.91694,-0.38667,-0.10308,2.51588,-1.99028
-0.07819,0.92049,-0.38286,0.18205,0.65901,-0.64187
-0.07579,0.92039,-0.38358,-0.14316,-0.3072,-0.23069
-0.07359,0.91626,-0.39376,-0.53504,-0.12285,0.1597
-0.085,0.91762,-0.38826,-0.4426,0.62705,0.4595
-0.09262,0.92974,-0.35636,0.09706,0.94161,0.14986
-0.08628,0.93835,-0.33474,-0.12775,0.19362,0.30184
-0.08532,0.93763,-0.33699,-0.27891,-0.81821,1.27418
-0.081,0.94349,-0.32133,-0.36694,-0.59585,0.7939
-0.07811,0.95655,-0.2809,-0.36551,-0.14998,0.89928
-0.08874,0.9703,-0.22503,-0.28333,-0.02183,0.66515
-0.11358,0.9776,-0.17715,-0.24275,0.00134,0.43762
-0.13312,0.98087,-0.14198,-0.19613,0.03552,0.45422
-0.14008,0.98371,-0.11263,0.15758,0.43705,0.62302
-0.14417,0.98496,-0.09519,0.57327,0.3262,0.32703
-0.14883,0.98458,-0.0919,0.63882,0.13435,0.13042
-0.15302,0.98512,-0.07814,0.71308,-0.06726,-0.18347
-0.15267,0.98811,-0.01778,0.27028,-0.19508,0.23785
-0.13866,0.98882,0.05476,0.21176,-0.21773,0.29955
-0.1216,0.9873,0.10216,0.13904,-0.24766,0.28698
-0.10769,0.98523,0.13305,-0.07851,-0.05144,-0.09626
-0.1003,0.98154,0.16279,-0.19949,0.03157,-0.29331
-0.09828,0.97505,0.199,-0.32526,0.08823,-0.45991
-0.1024,0.9678,0.22991,-0.0287,-0.07605,0.10071
-0.11092,0.96332,0.24431,0.0918,-0.02627,0.10533
-0.12496,0.95919,0.2536,0.15889,0.0488,0.04435
-0.13784,0.95355,0.26781,0.29461,0.09062,-0.28467
-0.14579,0.94511,0.29239,0.32629,0.09006,-0.37149
-0.14958,0.93435,0.32343,0.34138,0.1412,-0.46038
-0.15404,0.92931,0.33561,0.21447,0.31288,-0.10088
-0.1601,0.92727,0.33841,0.17681,0.41837,-0.21611
-0.1646,0.92479,0.34301,0.10469,0.41068,-0.52593
-0.16898,0.92449,0.34169,0.14661,0.37796,-0.54315
-0.17741,0.92761,0.32872,0.22282,0.46576,-0.45013
-0.18376,0.93532,0.3023,0.35591,0.68676,-0.44395
-0.18143,0.94776,0.26232,0.24998,0.51446,-0.64352
-0.17216,0.96341,0.20538,0.14411,0.33195,-0.7174
-0.16458,0.97833,0.12557,-0.06235,0.37074,0.19161
-0.15576,0.98701,0.03909,0.08901,0.47713,1.0878
-0.14158,0.98894,-0.044,-0.02203,0.51911,1.06855
-0.12822,0.98459,-0.1189,-0.44611,0.47484,0.6716
-0.1239,0.97512,-0.18379,-0.60623,0.21774,-0.22124
-0.11451,0.96919,-0.21807,-0.58568,0.16385,0.07244
-0.10209,0.97109,-0.21577,-0.26369,0.09863,0.2943
-0.09549,0.96075,-0.26043,0.11406,-0.16041,0.49779
-0.09101,0.94211,-0.32271,0.40398,-0.23238,0.58063
-0.07706,0.92773,-0.3652,0.37649,-0.23068,0.67854
-0.06892,0.91082,-0.407,0.23588,-0.31225,0.6259
-0.06182,0.89281,-0.44617,0.04151,-0.33782,0.64011
-0.05251,0.87575,-0.47989,-0.07676,-0.35207,0.66926
-0.04847,0.86049,-0.50716,-0.16938,-0.54832,0.8045
-0.04994,0.85062,-0.5234,-0.19733,-0.70902,0.76744
-0.05528,0.84857,-0.52618,-0.14544,-0.68518,0.71373
-0.06751,0.85544,-0.51347,-0.06831,-0.65162,0.46541
-0.08464,0.87111,-0.48374,0.08389,-0.53099,-0.03895
-0.10215,0.89482,-0.43457,0.03886,-0.28696,-0.5407
-0.10728,0.9142,-0.3908,-0.31517,2.1006,-1.40362
-0.0832,0.9185,-0.38656,0.01085,0.92148,-1.02276
-0.07697,0.91749,-0.39022,0.0732,-0.14355,-0.45992
-0.07761,0.91355,-0.39924,-0.46478,0.06313,0.35465
-0.09176,0.91444,-0.39417,-0.45786,0.4887,0.30788
-0.10104,0.9231,-0.37103,-0.22607,0.7251,0.22828
-0.09498,0.93106,-0.35227,-0.20945,0.1414,0.41524
-0.09615,0.93095,-0.35225,-0.27956,-0.43226,1.01976
-0.09855,0.93094,-0.35162,-0.35067,-0.65559,1.03399
-0.10224,0.94009,-0.32522,-0.22009,-0.22822,0.99752
-0.10717,0.95488,-0.27696,-0.18055,-0.10335,0.89889
-0.12104,0.96563,-0.22998,-0.15233,-0.03096,0.73271
-0.13759,0.97295,-0.18553,-0.17836,0.10929,0.53133
-0.14653,0.98026,-0.13272,-0.09719,0.24765,0.51483
-0.14904,0.98513,-0.08546,0.24162,0.48701,0.54138
-0.15203,0.98627,-0.06434,0.52331,0.24484,0.27095
-0.15555,0.98611,-0.0582,0.69861,-0.07085,-0.36276
-0.16515,0.98607,-0.01939,0.42278,-0.18355,-0.32268
-0.16159,0.98621,0.03559,0.31765,-0.10636,-0.07734
-0.14856,0.98661,0.06726,0.23471,-0.11228,0.00486
-0.1338,0.98713,0.08752,0.19278,-0.19178,0.16771
-0.12028,0.98664,0.10985,0.13877,-0.14241,0.18193
-0.11086,0.98453,0.13562,-0.0003,-0.09333,0.04726
-0.11135,0.97949,0.16788,-0.22528,-0.06666,-0.26506
-0.11756,0.97098,0.20823,-0.21229,-0.04071,-0.22547
-0.12065,0.96175,0.24588,-0.1151,0.01499,-0.21954
-0.12836,0.95491,0.26768,0.09215,0.19469,-0.13621
-0.13874,0.94846,0.28489,0.20054,0.14966,-0.18505
-0.14937,0.94079,0.30428,0.37435,0.14283,-0.37705
-0.15922,0.93421,0.31918,0.28941,0.23739,-0.21827
-0.16893,0.92975,0.32714,0.25104,0.34545,-0.15506
-0.17848,0.92565,0.33362,0.22198,0.50135,-0.12848
-0.18827,0.92253,0.33687,0.441,0.46946,-0.48556
-0.19648,0.92396,0.32812,0.49952,0.60144,-0.31842
-0.19608,0.93202,0.30474,0.43242,0.68346,-0.34826
-0.18154,0.94603,0.26845,0.17488,0.61527,-0.58377
-0.16097,0.96273,0.21731,-0.18258,0.3323,-0.7929
-0.14802,0.97899,0.1402,-0.42093,0.33511,-0.01855
-0.14015,0.98844,0.0577,-0.17873,0.43177,1.07136
-0.12775,0.99154,-0.02281,-0.21586,0.59149,0.89198
-0.11472,0.98838,-0.09962,-0.43656,0.43097,0.56651
-0.11275,0.9799,-0.16454,-0.62506,0.24408,-0.03244
-0.10702,0.974,-0.19963,-0.57499,0.16644,0.07236
-0.0967,0.97331,-0.20811,-0.46459,0.11069,-0.01286
-0.09228,0.96285,-0.25377,0.11065,-0.10869,0.59613
-0.0879,0.94553,-0.31343,0.37647,-0.18834,0.63071
-0.06924,0.93257,-0.35426,0.30701,-0.26328,0.6555
-0.05035,0.91825,-0.39278,0.24377,-0.32161,0.67145
-0.03546,0.90222,-0.4298,0.09144,-0.39102,0.64834
-0.02426,0.88563,-0.46375,0.00718,-0.43014,0.67142
-0.01779,0.87213,-0.48894,-0.1316,-0.58801,0.67741
-0.02124,0.86428,-0.50256,-0.10433,-0.62139,0.79771
-0.02821,0.86461,-0.50165,-0.18027,-0.66411,0.7226
-0.0403,0.87247,-0.48699,-0.10171,-0.6238,0.49899
-0.05949,0.88673,-0.45844,0.18318,-0.55334,0.19527
-0.07614,0.90677,-0.41468,0.12529,-0.08197,-0.66254
-0.07649,0.92705,-0.36705,-0.32606,1.57823,-1.33746
-0.0513,0.9355,-0.34956,-0.5398,1.76752,-1.53408
-0.04004,0.93595,-0.34985,0.12062,0.16603,-0.56805
-0.03598,0.93268,-0.35889,-0.35597,-0.4195,-0.24401
-0.05389,0.93067,-0.36185,-0.5401,0.33186,0.57969
-0.0814,0.93539,-0.3441,0.14975,1.05115,0.39194
-0.07099,0.94068,-0.33178,0.30408,0.51016,0.01488
-0.06336,0.94339,-0.32557,-0.47268,-0.30466,0.91729
-0.06385,0.94386,-0.32411,-0.36726,-0.56735,0.84346
-0.07287,0.95121,-0.29979,-0.31999,-0.58146,0.74832
-0.08167,0.96359,-0.25459,-0.21108,-0.28827,0.92995
-0.09988,0.97369,-0.20478,-0.25533,-0.09428,0.69093
-0.11992,0.98066,-0.15466,-0.22417,0.0738,0.49388
-0.12915,0.98651,-0.10052,0.02062,0.4485,0.63114
-0.13372,0.98918,-0.06021,0.38767,0.42808,0.57788
-0.14347,0.98843,-0.04915,0.55302,0.17582,0.12308
-0.15306,0.98723,-0.04398,0.6327,-0.12365,-0.45653
-0.16029,0.98704,0.00603,0.44635,-0.04163,-0.12993
-0.15653,0.985,0.07246,0.37489,-0.15048,-0.00035
-0.14229,0.98423,0.105,0.25068,-0.21887,0.17415
-0.12595,0.98467,0.12064,0.17345,-0.1842,0.13975
-0.11105,0.98394,0.13966,0.02232,-0.04785,0.03949
-0.10176,0.98127,0.16354,-0.23259,0.06396,-0.29808
-0.10236,0.97396,0.20227,-0.37964,-0.04595,-0.38552
-0.10749,0.96466,0.24054,-0.2496,-0.16714,0.17228
-0.11614,0.95948,0.25669,-0.05912,0.00716,0.21455
-0.13171,0.95445,0.26768,0.11943,0.21081,-0.17848
-0.14465,0.94729,0.28584,0.3112,0.16076,-0.45333
-0.14816,0.93535,0.32119,0.37231,0.27977,-0.60076
-0.14649,0.92452,0.35183,0.23174,0.2853,-0.26093
-0.1576,0.92207,0.35347,0.23462,0.38296,-0.19609
-0.17033,0.91993,0.35312,0.25918,0.46213,-0.28849
-0.17671,0.9186,0.35345,0.27332,0.41607,-0.47695
-0.18218,0.91966,0.34786,0.29801,0.35245,-0.47224
-0.18494,0.92663,0.32732,0.3234,0.63169,-0.32922
-0.17994,0.93884,0.29357,0.31839,0.61948,-0.29547
-0.16717,0.95477,0.24588,0.03374,0.32865,-0.68241
-0.15435,0.97167,0.17893,-0.21129,0.20861,-0.61239
-0.14899,0.98448,0.09263,-0.2387,0.31018,-0.02642
-0.14058,0.99003,0.00857,-0.02078,0.53062,1.06251
-0.12684,0.98945,-0.06996,-0.39516,0.4438,0.64213
-0.1187,0.98314,-0.13904,-0.49849,0.31602,0.43555
-0.11125,0.97519,-0.19133,-0.62475,0.21827,-0.24244
-0.09724,0.97507,-0.19942,-0.2223,0.09814,0.15833
-0.08647,0.97174,-0.21963,-0.23307,0.10147,0.17854
-0.08124,0.95583,-0.28246,0.32399,-0.21272,0.60545
-0.06735,0.94073,-0.33239,0.4913,-0.18942,0.60589
-0.0503,0.92657,-0.37272,0.35758,-0.29878,0.65343
-0.04074,0.90903,-0.41473,0.15576,-0.31895,0.65217
-0.03058,0.89137,-0.45224,-0.03343,-0.35818,0.67873
-0.02384,0.87557,-0.4825,-0.19892,-0.42525,0.73894
-0.02517,0.86474,-0.50158,-0.21417,-0.5787,0.8404
-0.02998,0.86146,-0.50694,-0.1625,-0.65824,0.8092
-0.03776,0.86662,-0.49754,-0.16653,-0.70767,0.73034
-0.04931,0.88015,-0.47211,-0.09437,-0.69531,0.45727
-0.06305,0.90212,-0.42684,0.04633,-0.49599,0.00863
-0.07262,0.92735,-0.36707,-0.03266,0.37696,-0.8351
-0.06758,0.94203,-0.32863,0.00622,2.21849,-1.84074
-0.04913,0.9419,-0.33227,0.28743,1.20152,-1.39378
-0.04624,0.9379,-0.34379,0.12926,-0.24421,-0.39095
-0.04724,0.93433,-0.35326,-0.36226,-0.36247,0.57925
-0.06243,0.93689,-0.34401,-0.43092,0.04151,0.88557
-0.07215,0.94601,-0.31598,0.08975,0.72513,0.66652
-0.05877,0.95542,-0.28931,-0.13326,1.10042,-1.20222
-0.05259,0.95347,-0.29684,-0.36947,0.16933,0.16412
-0.04941,0.94988,-0.30866,-0.42156,-0.9137,0.89228
-0.04481,0.95342,-0.29829,-0.29694,-0.6928,0.87494
-0.04755,0.96387,-0.26206,-0.2874,-0.31977,0.88825
-0.06428,0.97652,-0.20558,-0.38942,-0.17012,0.66933
-0.087,0.98587,-0.14309,-0.47255,0.15362,0.43353
-0.09819,0.99188,-0.08076,-0.23172,0.50171,0.56889
-0.10206,0.99413,-0.03574,0.26583,0.38664,0.63748
-0.1139,0.99311,-0.0272,0.47447,0.06408,0.2617
-0.13138,0.99091,-0.02875,0.56822,-0.02524,-0.11217
-0.14285,0.9897,0.00807,0.51021,-0.06249,-0.13218
-0.14223,0.98622,0.08437,0.40412,-0.01091,0.08277
-0.13143,0.98197,0.13581,0.29741,-0.09061,0.1157
-0.11958,0.98014,0.15817,0.24007,-0.20963,-0.03715
-0.10544,0.97874,0.17587,0.08105,-0.16433,-0.08745
-0.09504,0.97524,0.19964,-0.18127,0.04459,-0.34124
-0.09076,0.96668,0.23933,-0.27423,0.1241,-0.43234
-0.09514,0.95552,0.27913,-0.21343,-0.14804,0.07486
-0.10441,0.94937,0.29626,0.00132,0.12497,-0.01067
-0.11834,0.94405,0.3078,0.07646,0.25625,-0.21596
-0.12206,0.93362,0.3368,0.34476,0.13198,-0.63144
-0.11516,0.92276,0.36774,0.26338,0.34509,-0.32581
-0.12425,0.92173,0.36736,0.18739,0.34075,-0.22134
-0.14169,0.92029,0.36466,0.21652,0.4081,-0.14043
-0.15156,0.92005,0.36128,0.28381,0.49475,-0.37396
-0.15341,0.92207,0.3553,0.32181,0.51526,-0.50696
-0.15372,0.92965,0.33483,0.32133,0.63059,-0.46608
-0.14738,0.94369,0.29617,0.16455,0.76638,-0.61503
-0.1332,0.96179,0.23918,-0.08577,0.43013,-0.9198
-0.12439,0.97994,0.15565,-0.3333,0.19798,-0.59927
-0.12304,0.99037,0.06338,-0.09317,0.39864,0.80035
-0.11438,0.99318,-0.02212,0.03453,0.43243,1.08131
-0.09548,0.99009,-0.1029,-0.3985,0.51954,0.60638
-0.07832,0.98223,-0.17056,-0.54522,0.48631,0.33149
-0.06471,0.976,-0.20793,-0.66709,0.43131,-0.12195
-0.04978,0.97681,-0.2082,-0.28834,0.34798,-0.18674
-0.04883,0.96634,-0.25256,-0.08602,0.05902,0.61245
-0.0457,0.94678,-0.31861,0.31316,-0.18656,0.53856
-0.02654,0.93192,-0.36169,0.29961,-0.28677,0.65793
-0.01382,0.91565,-0.40172,0.21488,-0.38987,0.7088
-0.01145,0.89624,-0.44341,0.05233,-0.40631,0.76901
-0.00632,0.87704,-0.48037,-0.14048,-0.47466,0.70927
-0.00165,0.86099,-0.50862,-0.20756,-0.5545,0.85126
-0.00368,0.85149,-0.52436,-0.26977,-0.74055,0.86252
-0.00856,0.85049,-0.52592,-0.19976,-0.68546,0.8009
-0.01916,0.85815,-0.51303,-0.07406,-0.67297,0.58876
-0.03455,0.87401,-0.48467,0.14191,-0.55687,0.22005
-0.05011,0.89914,-0.43478,0.03202,0.02615,-0.58085
-0.05788,0.9258,-0.37354,-0.34046,2.05718,-1.42616
-0.03473,0.93513,-0.35259,-0.2689,2.46,-1.86175
-0.0212,0.93303,-0.35916,0.22779,0.03827,-0.46611
-0.01867,0.92801,-0.37207,-0.38727,-0.84215,-0.13333
-0.02724,0.9231,-0.38358,-0.17159,-0.45119,0.50572
-0.04063,0.92781,-0.37081,-0.19799,-0.08968,1.15708
-0.04713,0.94405,-0.32642,0.031,0.41126,1.25182
-0.04252,0.96544,-0.25711,0.10905,2.64872,-2.38434
-0.02713,0.96519,-0.26014,-0.50075,0.07847,1.09531
-0.03733,0.96275,-0.26778,-0.42115,-0.8389,1.04059
-0.03354,0.96243,-0.26943,-0.30872,-0.8573,0.81912
-0.03042,0.97022,-0.24029,-0.29244,-0.75089,0.87353
-0.03762,0.9819,-0.18558,-0.47336,-0.13229,0.62836
-0.05175,0.9905,-0.12738,-0.50277,0.15011,0.59923
-0.06245,0.99517,-0.0757,-0.45572,0.33418,0.58978
-0.07142,0.99659,-0.04107,0.10463,0.42153,0.63628
-0.08778,0.99563,-0.03166,0.29595,0.32271,0.59575
-0.10356,0.99424,-0.02747,0.56272,0.02546,-0.02969
-0.10846,0.99397,0.01548,0.49169,-0.14357,-0.0677
-0.10706,0.98911,0.10095,0.3864,-0.07695,-0.01695
-0.09916,0.98207,0.16028,0.2171,-0.11975,0.05873
-0.08985,0.97976,0.17882,0.15552,-0.0697,-0.07744
-0.08117,0.97824,0.19088,0.07507,-0.08205,-0.09351
-0.07501,0.97285,0.21891,-0.18955,0.13544,-0.21932
-0.07453,0.96198,0.26273,-0.21603,-0.06801,-0.25156
-0.07742,0.95243,0.29474,-0.16202,-0.15247,-0.08504
-0.08472,0.94752,0.30824,-0.01907,0.11709,-0.11264
-0.09548,0.94126,0.32388,0.16097,0.14129,-0.42355
-0.09815,0.93123,0.35093,0.38452,0.2257,-0.55419
-0.09989,0.92366,0.36995,0.29937,0.3476,-0.34494
-0.10923,0.92135,0.37304,0.15824,0.41561,-0.2658
-0.11822,0.91993,0.37382,0.12716,0.47104,-0.28683
-0.12117,0.92014,0.37236,0.07181,0.47073,-0.34936
-0.12443,0.92296,0.36419,0.14759,0.50674,-0.5552
-0.13078,0.93144,0.33955,0.2239,0.52187,-0.5536
-0.13238,0.9461,0.29556,0.29368,0.56373,-0.59032
-0.12685,0.96491,0.22987,0.05341,0.2541,-0.61263
-0.11962,0.98192,0.14667,-0.05602,0.27745,-0.33635
-0.10969,0.99213,0.06032,0.0729,0.50374,1.04972
-0.09626,0.99512,-0.02147,-0.21599,0.66363,0.91998
-0.08625,0.99178,-0.09449,-0.472,0.48073,0.65512
-0.08615,0.98334,-0.16007,-0.69955,0.25925,-0.13588
-0.08096,0.97604,-0.20195,-0.60969,0.20121,-0.18035
-0.06864,0.97713,-0.20126,-0.36245,0.03656,0.33118
-0.06176,0.96661,-0.24867,0.03359,-0.19598,0.62056
-0.05522,0.949,-0.31039,0.37699,-0.24432,0.73959
-0.04424,0.93398,-0.35458,0.45828,-0.27486,0.70988
-0.03749,0.91532,-0.40096,0.30698,-0.19692,0.59194
-0.03005,0.89674,-0.44152,0.12803,-0.24203,0.61767
-0.0183,0.88086,-0.47302,-0.13969,-0.37551,0.71187
-0.01637,0.86688,-0.49824,-0.342,-0.68796,0.90263
-0.02149,0.85787,-0.51341,-0.22213,-0.73852,0.9125
-0.03188,0.85697,-0.51438,-0.09444,-0.7464,0.86463
-0.04753,0.86526,-0.49906,0.02262,-0.7156,0.55271
-0.06231,0.88467,-0.46203,0.11379,-0.50311,0.12443
-0.07517,0.9142,-0.39823,-0.12523,0.38858,-0.76844
-0.07633,0.93665,-0.34184,-0.37823,1.56102,-1.5822
-0.05013,0.93737,-0.34469,0.45137,1.00809,-1.21456
-0.04619,0.93458,-0.35272,0.25426,0.15927,-0.47019
-0.04233,0.9314,-0.36152,-0.25043,-0.83061,0.13615
-0.04867,0.93304,-0.35645,-0.40751,-0.25076,0.91214
-0.0577,0.94465,-0.32296,-0.3987,0.07594,1.14455
-0.06875,0.96163,-0.26559,-0.12221,1.6571,-0.26454
-0.06148,0.96365,-0.25998,-0.29434,1.00957,-1.03995
-0.0828,0.95957,-0.269,-0.31764,-0.20747,1.10356
-0.0938,0.95966,-0.26504,-0.0592,-0.84543,1.02531
-0.09487,0.96566,-0.24186,-0.03866,-0.56879,0.94442
-0.09687,0.976,-0.19501,-0.21578,-0.32152,0.74392
-0.09945,0.9845,-0.14444,-0.28541,0.09118,0.72543
-0.09657,0.9899,-0.10378,-0.10042,0.42313,0.71876
-0.10238,0.99143,-0.08113,0.17858,0.43628,0.61331
-0.118,0.99028,-0.07354,0.32615,0.22267,0.25933
-0.12704,0.99034,-0.05551,0.42525,-0.04529,-0.24096
-0.1235,0.99228,0.01131,0.31993,-0.20004,-0.35796
-0.11234,0.98838,0.10237,0.2153,-0.14144,-0.24185
-0.1014,0.98519,0.13827,0.17413,-0.12012,0.07748
-0.0888,0.98515,0.14694,0.09182,-0.10331,0.10328
-0.07896,0.98378,0.16101,0.04733,-0.10071,0.15441
-0.07429,0.97955,0.18694,-0.24769,-0.01623,-0.32932
-0.0731,0.97117,0.22689,-0.26523,-0.02724,-0.44744
-0.06979,0.9613,0.26651,-0.11383,-0.10885,0.01165
-0.07375,0.95514,0.2868,0.07938,0.17311,-0.09774
-0.08503,0.94933,0.30253,0.14858,0.30654,-0.29984
-0.09215,0.94185,0.32313,0.33931,0.16778,-0.57183
-0.09328,0.933,0.34755,0.24346,0.35082,-0.34563
-0.09599,0.9288,0.35792,0.14134,0.306,-0.25567
-0.10486,0.92761,0.3585,0.08854,0.33427,-0.32942
-0.1123,0.92759,0.3563,0.04687,0.38837,-0.52242
-0.11516,0.92996,0.34914,0.0213,0.42262,-0.61005
-0.1185,0.93694,0.32876,0.22557,0.55489,-0.51344
-0.12416,0.95067,0.28426,0.33871,0.63445,-0.69349
-0.12353,0.96869,0.21534,0.21372,0.45841,-0.66309
-0.11754,0.98505,0.12591,-0.00618,0.50386,0.04266
-0.10773,0.99353,0.03572,0.03908,0.58699,1.00793
-0.09279,0.9945,-0.04839,-0.21087,0.81232,0.954
-0.07795,0.98919,-0.12416,-0.45075,0.65796,0.75793
-0.06993,0.97956,-0.18859,-0.62871,0.35287,0.43017
-0.05527,0.97031,-0.23544,-0.49328,0.14677,-0.14168
-0.03294,0.97072,-0.23793,-0.08566,0.22151,-0.01667
-0.02408,0.96091,-0.27581,0.27448,-0.04463,0.50105
-0.01959,0.94031,-0.33976,0.32177,-0.18089,0.65058
-0.00875,0.9223,-0.38638,0.28585,-0.20106,0.72569
-0.00853,0.90146,-0.43277,0.17554,-0.41121,0.78331
-0.01532,0.87905,-0.47647,0.12273,-0.42672,0.82642
-0.01644,0.8599,-0.51018,-0.14435,-0.49827,0.73335
-0.02294,0.84413,-0.53564,-0.23452,-0.64314,0.88759
-0.03145,0.83528,-0.54892,-0.22424,-0.70439,0.88156
-0.04231,0.83612,-0.54691,-0.07131,-0.68269,0.76227
-0.05752,0.84686,-0.52868,-0.11006,-0.67455,0.64018
-0.07202,0.86742,-0.49234,-0.03187,-0.52678,0.23652
-0.08495,0.89695,-0.4339,-0.24281,0.083,-0.43604
-0.09926,0.92222,-0.37369,-0.39065,2.09191,-1.55307
-0.07993,0.92469,-0.37224,0.54371,1.67448,-1.50434
-0.0692,0.91998,-0.3858,0.22517,-0.04585,-0.39005
-0.06419,0.91259,-0.40379,-0.19474,-0.62254,-0.1064
-0.06749,0.90877,-0.4118,-0.24492,-0.46602,0.51959
-0.07485,0.91798,-0.38948,-0.16857,0.35175,0.66373
-0.07112,0.93516,-0.347,0.33629,1.39425,0.0696
-0.05162,0.94268,-0.32966,-0.0634,1.59041,-1.26584
-0.06407,0.93513,-0.34845,-0.40405,-0.7698,1.82062
-0.06125,0.93255,-0.35581,-0.43658,-0.93484,0.67876
-0.06071,0.94199,-0.3301,-0.32009,-0.59531,0.8638
-0.06575,0.95803,-0.27901,-0.21994,-0.28388,0.96032
-0.08036,0.97177,-0.2218,-0.22839,-0.16913,0.65333
-0.09453,0.98113,-0.16866,-0.2444,0.34982,0.58593
-0.09965,0.98787,-0.11908,0.11343,0.52185,0.6597
-0.10394,0.99096,-0.08481,0.42152,0.31787,0.48018
-0.11748,0.99003,-0.07759,0.50345,0.06526,0.02868
-0.13095,0.98891,-0.06996,0.55019,-0.21105,-0.43494
-0.13549,0.99071,-0.01146,0.34577,-0.12147,-0.05142
-0.12682,0.98966,0.06699,0.1573,-0.18678,0.11352
-0.11312,0.98774,0.10754,0.11683,-0.16657,0.00286
-0.09597,0.98746,0.12534,0.06609,-0.10158,-0.06223
-0.08097,0.98558,0.14852,-0.07685,-0.02634,-0.24075
-0.06913,0.98104,0.18104,-0.26147,0.00851,-0.46494
-0.06764,0.97522,0.21061,-0.21233,-0.0891,-0.13235
-0.07108,0.97067,0.22965,-0.02334,-0.0924,0.17506
-0.08106,0.9667,0.24273,0.02551,-0.02092,0.1588
-0.09598,0.96245,0.25389,0.08696,0.17239,0.05616
-0.10987,0.95657,0.26998,0.2034,0.1149,-0.20191
-0.11776,0.94705,0.29868,0.26712,0.13481,-0.38284
-0.11827,0.93462,0.33538,0.1988,0.23037,-0.37025
-0.12325,0.92983,0.34672,0.22587,0.41504,-0.19784
-0.13391,0.92837,0.34667,0.24084,0.4684,-0.1776
-0.14016,0.92705,0.34772,0.14285,0.43498,-0.45731
-0.14385,0.92865,0.34191,0.26377,0.58963,-0.44399
-0.14549,0.936,0.32051,0.36801,0.62887,-0.37754
-0.13971,0.94953,0.28082,0.3277,0.75784,-0.53855
-0.12658,0.96611,0.22494,0.17223,0.57765,-0.68145
-0.11739,0.9826,0.14392,-0.20135,0.33259,-0.20816
-0.11102,0.9921,0.05832,-0.00637,0.32812,0.91482
-0.10105,0.99462,-0.02244,0.03312,0.35622,1.04876
-0.0911,0.99095,-0.09859,-0.33657,0.52965,0.74113
-0.09356,0.9821,-0.16343,-0.60254,0.22799,-0.34294
-0.09488,0.9746,-0.20285,-0.5534,0.20236,-0.16798
-0.08992,0.97343,-0.21057,-0.36858,0.2215,0.12575
-0.08995,0.96034,-0.26392,-0.03618,-0.07661,0.69203
-0.08599,0.94023,-0.32948,0.26856,-0.18851,0.72513
-0.07831,0.9232,-0.37626,0.34472,-0.2046,0.75965
-0.07878,0.90112,-0.42634,0.27789,-0.32663,0.64166
-0.07735,0.87792,-0.47252,0.23481,-0.36162,0.66481
-0.06433,0.85923,-0.50753,0.02518,-0.41692,0.65425
-0.05725,0.84281,-0.53515,-0.10698,-0.58715,0.82804
-0.0572,0.83274,-0.5507,-0.12399,-0.74016,0.9257
-0.06213,0.83185,-0.5515,-0.11263,-0.71358,0.87435
-0.07253,0.8401,-0.53756,-0.09425,-0.65428,0.63799
-0.08585,0.85708,-0.50797,0.09226,-0.60114,0.15638
-0.09995,0.88311,-0.45839,0.06025,-0.11916,-0.85788
-0.1054,0.90796,-0.40557,-0.1195,1.72808,-1.73847
-0.08725,0.91347,-0.39743,-0.33646,1.56928,-0.98291
-0.07942,0.91257,-0.40112,-0.04557,-0.0395,-0.37175
-0.07669,0.90652,-0.41513,-0.24803,-0.55941,-0.17537
-0.08872,0.90335,-0.41962,-0.54627,-0.01781,0.53954
-0.10679,0.91211,-0.39578,-0.56156,0.27543,0.72088
-0.10672,0.92582,-0.36257,0.16999,1.60406,-1.07449
-0.10305,0.92493,-0.3659,0.20544,0.57243,0.04659
-0.10979,0.9243,-0.36554,-0.0255,-0.39488,1.4607
-0.10006,0.93394,-0.34314,-0.16651,-0.55361,0.9061
-0.08719,0.95042,-0.2985,-0.16482,-0.28063,0.8567
-0.0826,0.9664,-0.24338,-0.20193,-0.11412,0.62662
-0.09435,0.97798,-0.18612,-0.36842,0.18335,0.48495
-0.1059,0.98496,-0.13646,-0.31401,0.28934,0.49807
-0.1091,0.98913,-0.09857,0.21579,0.35607,0.63415
-0.11849,0.98987,-0.07814,0.45571,0.17976,0.34668
-0.13248,0.98872,-0.06977,0.51372,0.08592,0.13221
-0.14324,0.98886,-0.04031,0.53172,-0.20481,-0.25402
-0.14608,0.98875,0.03203,0.24015,-0.11549,0.12915
-0.13483,0.98622,0.09586,0.18804,-0.11892,0.24002
-0.12269,0.98432,0.12671,0.20384,-0.20433,-0.08635
-0.11087,0.98263,0.14877,0.20563,-0.18173,-0.04043
-0.10107,0.97934,0.17513,0.01744,-0.11652,-0.0846
-0.09431,0.97392,0.20633,-0.15899,0.09927,-0.35615
-0.09109,0.96621,0.24112,-0.24355,0.08246,-0.1588
-0.09311,0.95785,0.27175,-0.24861,0.00152,0.18905
-0.10232,0.9508,0.29241,-0.07329,0.23798,-0.07823
-0.11438,0.94353,0.3109,0.27143,0.21451,-0.63236
-0.12252,0.93544,0.33156,0.34972,0.21993,-0.41365
-0.13234,0.93003,0.34281,0.34275,0.31097,-0.10645
-0.14439,0.92729,0.34537,0.3193,0.36381,-0.07839
-0.15222,0.92407,0.35058,0.32141,0.50769,-0.34059
-0.15891,0.92281,0.35094,0.32308,0.56385,-0.49989
-0.16561,0.92725,0.3358,0.39222,0.60046,-0.33929
-0.1644,0.93816,0.30467,0.45226,0.66673,-0.27253
-0.15201,0.95415,0.25782,0.25005,0.67556,-0.29165
-0.13312,0.97067,0.20015,-0.07867,0.33328,-0.83549
-0.12233,0.9855,0.11758,-0.29978,0.24919,-0.71554
-0.11961,0.99238,0.0295,-0.13442,0.28451,1.14628
-0.11426,0.99211,-0.05157,-0.22134,0.42731,0.95593
-0.11052,0.98615,-0.12364,-0.44329,0.27017,0.61186
-0.10642,0.97653,-0.18722,-0.69461,0.25508,-0.35513
-0.09604,0.9732,-0.20894,-0.50475,0.24415,0.0587
-0.09315,0.96901,-0.22879,0.01708,0.11905,0.4069
-0.09876,0.95251,-0.28805,0.32734,-0.06252,0.76348
-0.08957,0.9336,-0.34694,0.54359,-0.08192,0.60463
-0.0689,0.91766,-0.39135,0.34575,-0.16741,0.6531
-0.0543,0.9,-0.43249,0.145,-0.29856,0.66584
-0.04308,0.88137,-0.47045,-0.04026,-0.46755,0.72438
-0.03482,0.86426,-0.50183,-0.10802,-0.52962,0.75671
-0.03531,0.85224,-0.52196,-0.17963,-0.63103,0.83286
-0.03837,0.84799,-0.52862,-0.16274,-0.70121,0.88578
-0.04488,0.85214,-0.52138,-0.16019,-0.7341,0.78801
-0.05765,0.86428,-0.49969,-0.04656,-0.68543,0.55727
-0.07187,0.88572,-0.45862,0.00822,-0.5026,0.01328
-0.08663,0.91307,-0.39848,-0.09559,0.34135,-1.25545
-0.08597,0.9242,-0.37209,-0.16194,2.11639,-1.47451
-0.07155,0.92244,-0.37946,0.18865,0.18595,-0.56996
-0.05943,0.91973,-0.38803,0.05601,-0.29836,-0.51791
-0.05797,0.91553,-0.39804,-0.25658,-0.49425,0.3879
-0.07369,0.91812,-0.38938,-0.26025,-0.11765,0.54638
-0.08818,0.93228,-0.35081,-0.00876,0.43477,1.20993
-0.08165,0.94962,-0.30256,0.00973,1.99741,-1.48585
-0.06719,0.94564,-0.3182,-0.26711,0.9678,-0.54872
-0.07458,0.94156,-0.32847,-0.54044,-0.78104,1.09967
-0.07312,0.94735,-0.31174,-0.33145,-0.76058,0.88644
-0.06728,0.96241,-0.26312,-0.25317,-0.59492,0.9261
-0.07226,0.97607,-0.20508,-0.24663,-0.18968,0.62339
-0.08414,0.9846,-0.15318,-0.37883,0.23785,0.54799
-0.08913,0.99026,-0.10693,-0.10231,0.48763,0.64081
-0.09232,0.99266,-0.078,0.1437,0.52975,0.69439
-0.10432,0.99159,-0.07655,0.56739,0.19899,0.32371
-0.11792,0.99048,-0.07099,0.70511,-0.13756,-0.18822
-0.12325,0.99222,-0.0171,0.48414,-0.25634,-0.17505
-0.11766,0.99046,0.07172,0.27737,-0.08259,0.10722
-0.10648,0.98595,0.12863,0.16008,-0.11324,-0.03171
-0.09573,0.9841,0.14956,0.15484,-0.16762,-0.13525
-0.08374,0.98249,0.1664,0.04232,-0.10545,-0.17537
-0.07739,0.9785,0.19114,-0.20191,0.13766,-0.46335
-0.0779,0.97204,0.22148,-0.26072,0.08342,-0.35318
-0.08522,0.96548,0.24611,-0.16075,-0.12497,0.19677
-0.0968,0.95992,0.263,0.04948,0.12988,-0.00597
-0.11018,0.95433,0.27767,0.22979,0.17114,-0.30628
-0.11561,0.94534,0.3049,0.43652,0.22086,-0.49616
-0.11428,0.93492,0.33593,0.23899,0.3298,-0.25795
-0.12179,0.93133,0.34318,0.2069,0.39093,-0.20285
-0.13317,0.92895,0.34541,0.2052,0.48048,-0.18133
-0.14048,0.92739,0.34671,0.17277,0.44674,-0.58431
-0.14828,0.92924,0.33838,0.27521,0.49062,-0.56333
-0.1528,0.93739,0.31296,0.35922,0.52487,-0.4851
-0.14867,0.95108,0.2708,0.19811,0.56616,-0.43598
-0.13839,0.96712,0.21332,0.08975,0.29545,-0.56777
-0.13098,0.98185,0.13716,-0.05583,0.18738,-0.65003
-0.12974,0.99029,0.04983,0.08665,0.40746,1.06905
-0.1238,0.99167,-0.03529,0.01952,0.45123,1.02078
-0.1135,0.9871,-0.11292,-0.13807,0.51597,0.97944
-0.10774,0.97749,-0.18137,-0.57196,0.29932,-0.15936
-0.09857,0.9704,-0.22047,-0.58351,0.27387,-0.0593
-0.08597,0.97059,-0.22486,-0.52181,0.20017,0.131
-0.07568,0.96348,-0.25686,0.04943,-0.11605,0.71126
-0.06877,0.94536,-0.3187,0.24917,-0.1974,0.71704
-0.05999,0.92753,-0.3689,0.4605,-0.22996,0.68117
-0.04844,0.9109,-0.40976,0.34623,-0.24966,0.61815
-0.03531,0.89348,-0.44771,0.23327,-0.24463,0.65019
-0.02143,0.87705,-0.47991,-0.17531,-0.47344,0.74264
-0.01649,0.8638,-0.50355,-0.35843,-0.64589,0.90868
-0.02047,0.85616,-0.51629,-0.35589,-0.71458,0.94803
-0.02674,0.85703,-0.51456,-0.14412,-0.72448,0.76516
-0.03691,0.86729,-0.49643,-0.11394,-0.65495,0.5791
-0.04993,0.88631,-0.46039,-0.07228,-0.58665,0.39092
-0.06602,0.91243,-0.40386,-0.06059,0.31861,-0.66849
-0.07874,0.93407,-0.3483,-0.30266,2.54417,-2.0728
-0.05851,0.93254,-0.35629,0.20376,2.23404,-2.0902
-0.04649,0.92857,-0.36822,0.29986,-0.27876,-0.3663
-0.04037,0.92751,-0.37159,-0.13373,-0.67164,0.15585
-0.04459,0.92863,-0.3683,-0.27556,-0.45631,0.49269
-0.05653,0.93787,-0.34234,-0.12259,0.78559,1.03846
-0.06504,0.9517,-0.30004,0.22706,1.51017,-0.47092
-0.05418,0.95124,-0.30365,-0.32517,0.04116,0.62841
-0.05369,0.94614,-0.31926,-0.50833,-0.72284,0.77799
-0.05429,0.94946,-0.30914,-0.3532,-0.67494,0.87735
-0.0564,0.96175,-0.26803,-0.29631,-0.40785,1.009
-0.06568,0.97495,-0.21248,-0.39848,-0.23253,0.71045
-0.07594,0.98371,-0.16291,-0.41609,0.09136,0.5886
-0.07717,0.98979,-0.11978,-0.32357,0.20753,0.57782
-0.08072,0.99272,-0.08935,0.2349,0.3761,0.69474
-0.09844,0.99182,-0.08119,0.45567,0.18188,0.32206
-0.11903,0.9903,-0.07168,0.51739,0.00139,0.09905
-0.13196,0.99114,-0.01496,0.47506,-0.21607,-0.34053
-0.13169,0.9884,0.07553,0.2,0.01277,-0.1289
-0.12481,0.98563,0.11376,0.17445,-0.06624,-0.16285
-0.11281,0.98604,0.12241,0.17667,-0.04084,-0.17005
-0.10102,0.98482,0.14109,0.10489,-0.13518,-0.01014
-0.09098,0.98225,0.164,-0.03585,-0.01472,-0.09271
-0.08674,0.97799,0.18974,-0.1631,0.0131,-0.10731
-0.09017,0.97167,0.21842,-0.15713,-0.11776,0.11817
-0.09803,0.9663,0.23798,-0.0513,0.01909,0.17733
-0.11058,0.96185,0.25023,0.07396,0.12392,-0.10446
-0.11713,0.95441,0.27455,0.35402,0.16688,-0.52328
-0.11305,0.9432,0.31239,0.27772,0.27459,-0.53439
-0.11512,0.93883,0.32454,0.15895,0.31762,-0.32581
-0.12714,0.93668,0.32629,0.16257,0.48317,-0.18383
-0.13589,0.93434,0.32944,0.12936,0.45986,-0.33384
-0.14207,0.93414,0.32741,0.10798,0.40282,-0.4906
-0.14987,0.93815,0.31208,0.37173,0.52222,-0.40924
-0.15201,0.94733,0.28186,0.37058,0.68544,-0.39575
-0.14522,0.96064,0.23681,0.20819,0.5235,-0.60095
-0.13394,0.97564,0.17372,-0.12761,0.22097,-0.64447
-0.12677,0.98784,0.08994,-0.17929,0.41336,0.29736
-0.12098,0.99264,0.00551,-0.00093,0.44177,1.05853
-0.10983,0.9912,-0.07387,-0.24698,0.56312,0.99277
-0.10234,0.98439,-0.14317,-0.45479,0.35289,0.69
-0.09879,0.97304,-0.20839,-0.61886,0.24396,-0.24446
-0.08562,0.96641,-0.24232,-0.52189,0.19033,-0.17953
-0.07697,0.96537,-0.24925,-0.18915,0.0768,0.48584
-0.07618,0.95072,-0.30053,0.17745,-0.15087,0.74491
-0.078,0.92936,-0.36083,0.53036,-0.19463,0.66958
-0.06442,0.91258,-0.40378,0.4441,-0.2003,0.65178
-0.04771,0.89495,-0.4436,0.24583,-0.2245,0.60241
-0.0331,0.87606,-0.48106,0.06924,-0.20031,0.71835
-0.02149,0.85779,-0.51354,-0.14049,-0.33301,0.7868
-0.01642,0.8419,-0.53938,-0.24011,-0.57295,0.84377
-0.01806,0.83126,-0.55559,-0.16815,-0.65375,0.8335
-0.02518,0.82933,-0.55818,-0.1337,-0.67348,0.75937
-0.03821,0.83665,-0.54639,-0.03341,-0.64924,0.58755
-0.05343,0.85299,-0.51918,0.16299,-0.51209,0.06735
-0.06397,0.8764,-0.47731,0.09086,0.0528,-0.731
-0.05229,0.89834,-0.43617,-0.18483,1.44828,-1.44623
-0.03062,0.90668,-0.42069,-0.32731,1.16633,-1.15339
-0.03207,0.90828,-0.41713,-0.03834,0.08986,-0.54648
-0.04041,0.90721,-0.41873,0.058,-0.17883,-0.11351
-0.0532,0.90934,-0.41264,0.10975,-0.04305,0.26538
-0.05717,0.91254,-0.40497,0.04843,0.18674,0.28653
-0.06849,0.92394,-0.37634,-0.23911,0.52412,0.63718
-0.07341,0.93969,-0.33405,0.39632,1.1085,-0.59231
-0.05951,0.9412,-0.33255,-0.5781,-0.38738,1.0584
-0.06206,0.9437,-0.32493,-0.43045,-0.35257,0.96349
-0.07385,0.95234,-0.29596,-0.40347,-0.41527,0.56322
-0.08244,0.96705,-0.24084,-0.31385,-0.25956,0.74891
-0.09288,0.97853,-0.18397,-0.2715,-0.12689,0.49565
-0.105,0.98489,-0.13771,-0.29546,-0.00095,0.35486
-0.11106,0.98883,-0.09935,-0.11857,0.25262,0.41307
-0.11546,0.99052,-0.07429,0.26963,0.39331,0.4306
-0.12593,0.98981,-0.06632,0.56504,0.21104,0.16608
-0.13983,0.98916,-0.04469,0.79709,-0.0456,-0.36701
-0.1517,0.98798,0.02949,0.5047,-0.19965,-0.12879
-0.14676,0.98466,0.09431,0.34131,-0.12233,0.02466
-0.13442,0.98427,0.11456,0.25399,-0.19098,-0.01046
-0.11766,0.98472,0.12835,0.20508,-0.19813,0.1661
-0.1025,0.98418,0.14445,-0.02826,0.00813,-0.00553
-0.09432,0.9813,0.16778,-0.33066,0.16734,-0.35398
-0.09024,0.97425,0.2066,-0.3759,-0.02382,0.03536
-0.09469,0.96631,0.23931,-0.28423,-0.19684,0.2616
-0.10637,0.96045,0.25731,0.00142,0.20781,0.05737
-0.12044,0.95344,0.27646,0.21189,0.29294,-0.26209
-0.12522,0.94274,0.30911,0.41557,0.15202,-0.76501
-0.1212,0.93015,0.34657,0.32454,0.31173,-0.56963
-0.12866,0.92553,0.35613,0.22669,0.30307,-0.31094
-0.14657,0.92343,0.35466,0.18275,0.43078,-0.24623
-0.16155,0.92319,0.34871,0.26412,0.45217,-0.37727
-0.17187,0.92558,0.33727,0.52456,0.58054,-0.49311
-0.17158,0.93357,0.31463,0.49625,0.67623,-0.30739
-0.16044,0.94761,0.27618,0.15956,0.73552,-0.34179
-0.1439,0.96415,0.22291,-0.1084,0.38146,-0.67847
-0.13285,0.97989,0.14882,-0.25065,0.51236,0.07863
-0.1285,0.98975,0.06216,-0.02603,0.51138,1.09731
-0.11934,0.99255,-0.02437,-0.12576,0.61077,0.86591
-0.1061,0.98876,-0.10531,-0.38156,0.44656,0.43498
-0.09635,0.98111,-0.16775,-0.6134,0.33036,-0.08908
-0.08866,0.977,-0.1939,-0.56665,0.14725,0.08357
-0.08238,0.97325,-0.21445,-0.30994,-0.05131,0.29144
-0.07974,0.96084,-0.26536,-0.1462,-0.2798,0.79368
-0.07879,0.94142,-0.32788,0.18894,-0.38127,0.72679
-0.07949,0.92198,-0.37899,0.47828,-0.32615,0.70665
-0.08025,0.90175,-0.42474,0.45624,-0.28133,0.65434
-0.06533,0.88318,-0.46445,0.253,-0.30996,0.52564
-0.05199,0.86428,-0.50032,0.03783,-0.32672,0.72517
-0.0517,0.84805,-0.52738,-0.06548,-0.41747,0.82922
-0.05586,0.84003,-0.53966,-0.14009,-0.53462,0.98235
-0.06214,0.84078,-0.53779,-0.19415,-0.61669,0.92337
-0.07128,0.84971,-0.52241,-0.12647,-0.58674,0.6152
-0.0836,0.86714,-0.49099,0.0627,-0.56065,0.156
-0.09077,0.89099,-0.44484,0.07297,-0.03595,-0.77225
-0.08164,0.9129,-0.39992,-0.34693,1.82562,-1.79965
-0.05257,0.91637,-0.39686,-0.30374,1.54051,-1.4372
-0.04521,0.91647,-0.39753,-0.05454,-0.06369,-0.43335
-0.03799,0.91881,-0.39285,-0.45568,-0.30582,-0.00097
-0.05545,0.92417,-0.37793,-0.75437,0.76159,0.72621
-0.07814,0.92726,-0.36617,0.49553,0.4437,0.40735
-0.08011,0.92788,-0.36416,0.24457,-0.05407,0.49575
-0.07739,0.93262,-0.35245,0.11073,-0.18592,0.50147
-0.07101,0.93959,-0.33485,-0.35145,-0.36738,0.78989
-0.06426,0.95182,-0.29983,-0.32548,-0.29636,0.83398
-0.06312,0.96597,-0.25083,-0.29659,-0.25321,0.80028
-0.07182,0.97806,-0.1955,-0.26691,-0.14768,0.54371
-0.08177,0.98688,-0.1392,-0.1868,0.05263,0.549
-0.08851,0.99226,-0.08707,0.12723,0.45843,0.62579
-0.09665,0.99387,-0.05364,0.47453,0.32593,0.44707
-0.10848,0.99331,-0.03944,0.64875,0.11527,-0.01253
-0.11622,0.99315,-0.01186,0.65023,-0.22276,-0.42417
-0.12507,0.99036,0.05947,0.30211,-0.09633,-0.16129
-0.12296,0.98644,0.10862,0.30773,-0.07227,-0.12518
-0.11282,0.98457,0.13369,0.18976,-0.19797,-0.15861
-0.09909,0.98239,0.15833,0.11461,-0.25795,0.01714
-0.08527,0.97931,0.18347,0.02641,-0.1362,0.04316
-0.07884,0.97456,0.20978,-0.09729,0.02262,-0.05916
-0.08389,0.96791,0.23686,-0.21196,-0.00285,-0.20194
-0.09075,0.96076,0.26209,-0.22455,0.08499,0.02085
-0.09935,0.95413,0.28241,-0.04547,0.23655,-0.05177
-0.10758,0.94658,0.30397,0.27979,0.20428,-0.68463
-0.10667,0.93667,0.33354,0.40334,0.20353,-0.57309
-0.1125,0.93233,0.34364,0.31689,0.29759,-0.13722
-0.12779,0.93135,0.34094,0.22651,0.42909,-0.08274
-0.13593,0.92867,0.34508,0.1799,0.58432,-0.16921
-0.14212,0.92775,0.34506,0.37265,0.59384,-0.31569
-0.14387,0.93304,0.32973,0.47164,0.56659,-0.30263
-0.13462,0.9441,0.30088,0.33714,0.74242,-0.22112
-0.11799,0.95928,0.25661,0.05946,0.58574,-0.4139
-0.09988,0.97418,0.20242,-0.35638,0.33601,-0.70949
-0.09409,0.98826,0.12029,-0.40823,0.39763,-0.12941
-0.09727,0.99471,0.03287,-0.32227,0.37309,0.61882
-0.09647,0.994,-0.05133,-0.18005,0.45093,0.95169
-0.09533,0.98707,-0.12882,-0.28203,0.42434,0.81791
-0.09576,0.97685,-0.19126,-0.55509,0.08057,-0.28455
-0.08811,0.97301,-0.21327,-0.40133,0.14415,0.1732
-0.08174,0.9694,-0.23144,0.01337,0.17665,0.34527
-0.08311,0.95368,-0.28909,0.28712,-0.06528,0.80084
-0.07419,0.93401,-0.34945,0.34418,-0.15018,0.7803
-0.05496,0.91459,-0.40062,0.25096,-0.19154,0.62982
-0.03952,0.89348,-0.44735,0.21068,-0.23309,0.58113
-0.02668,0.87165,-0.4894,0.12987,-0.20206,0.658
-0.01587,0.85136,-0.52433,-0.14505,-0.45582,0.74557
-0.01367,0.83559,-0.54917,-0.26256,-0.6269,0.94285
-0.01792,0.82724,-0.56156,-0.19067,-0.61543,1.01814
-0.02411,0.82869,-0.55918,-0.27633,-0.65714,0.87339
-0.03404,0.84021,-0.54118,-0.04719,-0.67261,0.45496
-0.04611,0.86107,-0.50638,0.09794,-0.53965,-0.22945
-0.05582,0.88635,-0.45963,0.12516,0.34818,-1.26266
-0.03631,0.89932,-0.43577,-0.3607,2.07712,-1.6972
-0.03124,0.90131,-0.43203,-0.04884,0.69846,-0.88049
-0.03676,0.90261,-0.42888,-0.08589,-0.34127,0.20961
-0.05034,0.90455,-0.42336,-0.31704,0.36659,0.64988
-0.05923,0.91026,-0.40976,-0.02756,0.60879,0.6605
-0.05838,0.92389,-0.37816,0.01635,1.05267,-0.27281
-0.04164,0.93164,-0.36097,-0.37369,-0.04788,0.47787
-0.04271,0.93274,-0.358,-0.35905,-0.73952,1.14104
-0.04052,0.94275,-0.33102,-0.25185,-0.67915,0.85438
-0.03582,0.95956,-0.27921,-0.22413,-0.23055,0.8566
-0.04369,0.97497,-0.21796,-0.29316,-0.03361,0.65101
-0.06447,0.98401,-0.166,-0.32116,0.11296,0.47752
-0.07535,0.98962,-0.12231,-0.06942,0.29593,0.54852
-0.07892,0.9933,-0.08438,0.32276,0.47335,0.58533
-0.09021,0.99387,-0.06386,0.5505,0.27229,0.23987
-0.10715,0.99302,-0.04917,0.73854,-0.14246,-0.46266
-0.12065,0.99267,0.00604,0.42801,-0.16615,-0.24942
-0.12182,0.99005,0.07032,0.28926,-0.16987,0.03383
-0.11057,0.98849,0.10313,0.23161,-0.18059,0.05469
-0.0955,0.98741,0.12606,0.18119,-0.23925,0.15811
-0.07884,0.98579,0.14828,0.03682,-0.16322,0.02104
-0.06689,0.98228,0.175,-0.22673,0.03751,-0.45801
-0.06319,0.97587,0.20897,-0.34036,0.06245,-0.32343
-0.0645,0.96974,0.23544,-0.20772,-0.12127,0.29369
-0.07433,0.96491,0.2518,-0.10898,0.01943,0.22557
-0.09087,0.96047,0.26308,0.20543,0.18985,-0.37799
-0.10177,0.95377,0.28275,0.33627,0.26158,-0.5407
-0.09756,0.93965,0.32791,0.39184,0.35018,-0.63519
-0.09188,0.92991,0.3561,0.21566,0.4378,-0.39911
-0.10839,0.92999,0.3512,0.2719,0.54425,-0.29688
-0.122,0.93006,0.34652,0.23404,0.46746,-0.4777
-0.12587,0.93277,0.33776,0.17275,0.42685,-0.73144
-0.12603,0.94188,0.31138,0.31524,0.56802,-0.54257
-0.12095,0.95708,0.26335,0.2402,0.71451,-0.64902
-0.11249,0.97486,0.19228,0.10692,0.37125,-0.70068
-0.10677,0.98944,0.09791,-0.09007,0.48367,0.26338
-0.09808,0.99513,0.00856,0.09425,0.51659,1.18613
-0.08078,0.99398,-0.07396,-0.18312,0.79287,1.02361
-0.06637,0.98728,-0.14444,-0.4063,0.55893,0.57588
-0.05285,0.97833,-0.20016,-0.6816,0.52817,-0.23316
-0.04047,0.97529,-0.21716,-0.49919,0.2322,0.02351
-0.03776,0.968,-0.24806,-0.29046,0.08356,0.51775
-0.03875,0.9486,-0.31407,-0.14049,-0.08738,0.85597
-0.02836,0.92629,-0.37573,0.45887,-0.29267,0.67252
-0.01681,0.9058,-0.42335,0.43335,-0.25944,0.75186
-0.01548,0.88197,-0.47104,0.39882,-0.28606,0.77963
-0.01038,0.85804,-0.51347,-0.04541,-0.48268,0.81533
-0.00748,0.83699,-0.54716,-0.36374,-0.63692,0.93397
-0.01307,0.82224,-0.56898,-0.28802,-0.66704,1.08186
-0.02412,0.8169,-0.57627,-0.14744,-0.71361,1.01629
-0.03967,0.82222,-0.56777,-0.1533,-0.70295,0.82499
-0.05277,0.83975,-0.54039,0.05607,-0.65846,0.36443
-0.0636,0.86836,-0.49183,0.08394,-0.24822,-0.4458
-0.0678,0.90129,-0.42787,-0.20472,1.81772,-1.8257
-0.04855,0.91261,-0.40593,-0.12746,2.29804,-1.86567
-0.03751,0.91137,-0.40986,0.08817,0.06531,-0.45408
-0.03765,0.90851,-0.41615,-0.53828,-0.60318,0.04777
-0.05579,0.90462,-0.42255,-0.57484,0.35726,0.88683
-0.07887,0.91272,-0.40089,-0.38023,0.55892,0.90225
-0.07261,0.92561,-0.37142,0.54736,1.01501,-0.32105
-0.04999,0.93317,-0.35592,-0.39567,-0.11576,0.44214
-0.04865,0.93347,-0.35533,-0.33052,-0.63809,1.23882
-0.05166,0.93803,-0.34266,-0.29885,-0.59813,0.89501
-0.06027,0.94916,-0.30894,-0.1951,-0.25722,0.88396
-0.07023,0.96324,-0.25927,-0.13192,-0.17621,0.65882
-0.08355,0.97604,-0.20087,-0.15721,-0.13904,0.57204
-0.09245,0.98574,-0.14057,-0.14912,0.35353,0.49026
-0.09397,0.99115,-0.09364,0.19214,0.51408,0.58696
-0.09636,0.99269,-0.0726,0.44957,0.25341,0.30242
-0.10258,0.99289,-0.06023,0.64277,-0.05089,-0.26041
-0.10701,0.99418,-0.01203,0.54834,-0.1914,-0.32276
-0.10903,0.99209,0.062,0.36799,-0.16266,-0.00857
-0.09984,0.98979,0.10164,0.24804,-0.22088,-0.08391
-0.08522,0.98841,0.12554,0.16365,-0.16966,-0.02935
-0.06775,0.98586,0.15319,0.0742,-0.10059,0.05528
-0.05527,0.98147,0.18344,-0.07385,-0.02884,-0.07026
-0.05127,0.97479,0.21711,-0.21759,0.0508,-0.26046
-0.05176,0.96695,0.24961,-0.21459,-0.06053,-0.06505
-0.05592,0.96007,0.27407,-0.17225,0.04434,-0.0097
-0.06515,0.95334,0.29475,0.0558,0.14194,-0.35114
-0.07118,0.94404,0.32203,0.21064,0.19151,-0.56913
-0.07395,0.93628,0.34334,0.32766,0.44086,-0.31561
-0.08169,0.93349,0.34915,0.23431,0.43845,-0.23796
-0.08827,0.93255,0.35004,0.20201,0.499,-0.27742
-0.09078,0.93475,0.34349,0.01827,0.558,-0.68083
-0.09267,0.94124,0.32475,0.16094,0.61592,-0.66392
-0.09458,0.95502,0.281,0.26193,0.61515,-0.57061
-0.09117,0.97254,0.21408,0.2234,0.56831,-0.60063
-0.085,0.98793,0.12939,-0.08384,0.39949,-0.35754
-0.0798,0.99586,0.04327,0.02385,0.41776,0.97506
-0.07209,0.99674,-0.03611,0.01458,0.52101,0.92305
-0.06372,0.9929,-0.10039,-0.25954,0.56889,0.84905
-0.06424,0.98501,-0.16004,-0.47533,0.46723,0.52959
-0.06148,0.97657,-0.20622,-0.62178,0.42846,-0.56718
-0.05633,0.9713,-0.23107,-0.39582,0.24408,-0.08121
-0.05163,0.95777,-0.28284,-0.16369,-0.17155,0.69123
-0.03795,0.9426,-0.33174,0.14966,-0.24219,0.82914
-0.02146,0.92703,-0.37436,0.34232,-0.31532,0.76535
-0.01937,0.9068,-0.4211,0.36702,-0.32459,0.71382
-0.01886,0.88562,-0.46402,0.36173,-0.27806,0.75062
-0.00484,0.86866,-0.49537,0.00607,-0.45097,0.78445
-4e-05,0.85337,-0.5213,-0.39669,-0.67948,0.91522
-0.006,0.84381,-0.53661,-0.27891,-0.72013,1.09589
-0.02319,0.84279,-0.53774,-0.1624,-0.72566,0.9958
-0.04942,0.85099,-0.52285,-0.0292,-0.78539,0.56513
-0.07429,0.87162,-0.48451,0.08609,-0.51755,0.07506
-0.09179,0.90098,-0.42403,-0.13604,0.85081,-1.26662
-0.0806,0.91483,-0.39571,-0.27361,2.5414,-2.12621
-0.0606,0.91451,-0.39998,0.04809,0.44361,-0.41463
-0.05749,0.91122,-0.40787,-0.26695,-0.56048,-0.22451
-0.06325,0.90464,-0.42145,-0.31308,-0.76586,0.14429
-0.07715,0.91166,-0.40362,-0.18085,0.46871,1.09405
-0.0744,0.93027,-0.35925,0.38597,1.65349,-0.02118
-0.05124,0.93862,-0.3411,0.05429,2.09397,-1.46479
-0.05824,0.93359,-0.35357,-0.34985,-0.75765,1.63837
-0.05836,0.93558,-0.34825,-0.2186,-0.79089,1.04776
-0.05618,0.94629,-0.31837,-0.19973,-0.72181,1.02972
-0.05767,0.962,-0.26688,-0.13526,-0.32491,0.66327
-0.07799,0.9743,-0.2113,-0.25772,0.0147,0.60324
-0.0922,0.98175,-0.16625,-0.16812,0.50306,0.67907
-0.09665,0.98616,-0.13466,0.18948,0.51366,0.64691
-0.10745,0.98699,-0.11954,0.39465,0.27017,0.30205
-0.12061,0.98698,-0.10633,0.5741,-0.01381,-0.3398
-0.12941,0.99056,-0.04496,0.50341,-0.16675,-0.34874
-0.12932,0.99052,0.04616,0.1882,-0.26287,0.03892
-0.12075,0.98876,0.08801,0.19988,-0.32775,-0.02646
-0.10647,0.98897,0.10286,0.19821,-0.20983,0.01375
-0.09247,0.98814,0.12252,0.15942,-0.16934,0.27612
-0.08082,0.98559,0.1485,-0.02831,0.00954,-0.0167
-0.07405,0.98098,0.17934,-0.23002,0.09158,-0.297
-0.07068,0.97363,0.21686,-0.25037,-0.00343,-0.11787
-0.07235,0.96616,0.24752,-0.21149,-0.03719,0.08046
-0.07965,0.95996,0.26853,0.00113,0.12683,-0.15221
-0.0883,0.95228,0.29212,0.20923,0.17285,-0.46107
-0.09481,0.94402,0.31594,0.25151,0.30035,-0.48319
-0.09994,0.93806,0.33171,0.25642,0.36059,-0.41262
-0.10697,0.93437,0.33982,0.33943,0.37662,-0.18658
-0.11615,0.93262,0.34162,0.34935,0.41447,-0.28486
-0.12287,0.9338,0.33601,0.35149,0.4255,-0.40637
-0.12236,0.93955,0.31978,0.26175,0.75645,-0.38791
-0.11641,0.95134,0.28528,0.2778,0.81954,-0.32908
-0.10716,0.96723,0.23012,0.27261,0.83414,-0.29277
-0.09669,0.98288,0.15676,-0.18499,0.27754,-0.52931
-0.09361,0.99351,0.06442,-0.20323,0.37296,0.25353
-0.09094,0.99551,-0.02591,-0.13003,0.39054,0.946
-0.08231,0.99085,-0.10693,-0.33338,0.55377,0.76335
-0.0788,0.98098,-0.17738,-0.53021,0.33281,0.1889
-0.0743,0.97055,-0.22914,-0.61635,0.24462,-0.13327
-0.06785,0.96718,-0.24483,-0.24001,0.22422,0.07414
-0.07086,0.95747,-0.27968,-0.04782,-0.0691,0.71253
-0.07132,0.93546,-0.34614,0.36177,-0.17067,0.64584
-0.06574,0.91385,-0.40068,0.39283,-0.20116,0.71662
-0.05774,0.89354,-0.44525,0.32741,-0.24414,0.73067
-0.04975,0.87272,-0.48566,0.26562,-0.33772,0.73293
-0.03949,0.85381,-0.51908,0.00332,-0.47663,0.73419
-0.03454,0.83829,-0.54412,-0.12433,-0.52159,0.79807
-0.0385,0.82824,-0.55904,-0.18466,-0.63296,0.99705
-0.04516,0.8264,-0.56127,-0.13863,-0.65214,0.92264
-0.05497,0.83334,-0.55001,-0.09835,-0.64801,0.70145
-0.06848,0.85045,-0.52158,0.06703,-0.64616,0.27179
-0.08092,0.87898,-0.46994,-0.00305,-0.18502,-0.4921
-0.08443,0.9072,-0.41212,-0.29213,1.83808,-1.81953
-0.05774,0.91126,-0.40776,-0.00063,1.81823,-1.5427
-0.05245,0.90888,-0.41373,0.15935,0.06879,-0.4608
-0.05161,0.90471,-0.42289,-0.21641,-0.60145,-0.04855
-0.06064,0.90395,-0.4233,-0.51765,0.09385,0.64763
-0.07281,0.91377,-0.39964,-0.45663,0.88257,0.74525
-0.07524,0.92512,-0.37214,0.1801,0.96774,0.06562
-0.064,0.93014,-0.36156,-0.08358,0.37996,-0.35208
-0.06995,0.93025,-0.36017,-0.20959,-0.69957,1.38607
-0.06713,0.93692,-0.34302,-0.22244,-0.71631,1.19719
-0.05897,0.95049,-0.30509,-0.18272,-0.31313,0.81562
-0.06002,0.96615,-0.25086,-0.21032,-0.20036,0.66402
-0.0707,0.97832,-0.19462,-0.21145,-0.22621,0.55384
-0.07723,0.98666,-0.14325,-0.15229,0.21701,0.60062
-0.08132,0.99111,-0.10524,0.15249,0.51323,0.72348
-0.09297,0.9915,-0.09097,0.40112,0.29184,0.47689
-0.10705,0.99052,-0.08596,0.51334,0.02874,0.09521
-0.10868,0.9928,-0.05026,0.44697,-0.15809,-0.17064
-0.10447,0.99402,0.0316,0.34537,-0.04887,-0.02429
-0.09349,0.99095,0.09621,0.26384,-0.0365,0.09302
-0.07983,0.9889,0.1252,0.15168,-0.33578,0.01899
-0.06348,0.98724,0.14596,0.07883,-0.26047,0.03783
-0.0539,0.98407,0.16937,-0.06107,-0.09854,-0.11074
-0.05208,0.97918,0.19616,-0.30791,0.05715,0.00048
-0.05572,0.97332,0.22253,-0.25106,-0.04876,0.17754
-0.06553,0.96779,0.24302,-0.15607,-0.09693,0.15465
-0.07779,0.96274,0.25895,0.11714,0.18156,-0.26416
-0.08602,0.95555,0.28196,0.16585,0.09953,-0.41851
-0.09055,0.94783,0.30559,0.19944,0.25479,-0.36441
-0.10129,0.94393,0.31417,0.26166,0.29239,-0.20194
-0.11306,0.94009,0.32159,0.40086,0.37575,-0.2464
-0.12178,0.93738,0.32628,0.46886,0.47497,-0.27643
-0.12875,0.9379,0.32209,0.44743,0.46292,-0.32637
-0.12832,0.94282,0.30757,0.36454,0.58602,-0.31608
-0.1183,0.95267,0.28002,0.11541,0.80336,-0.25467
-0.10474,0.96597,0.23645,-0.11446,0.39232,-0.58992
-0.0933,0.98014,0.17494,-0.23421,0.26434,-0.76205
-0.09427,0.9915,0.08958,-0.22907,0.44838,0.54661
-0.09578,0.99538,0.00454,0.03639,0.31829,1.08012
-0.08541,0.99342,-0.07618,-0.17872,0.39524,0.83636
-0.07106,0.98604,-0.15051,-0.42322,0.3497,0.3652
-0.05813,0.97674,-0.20634,-0.59246,0.29045,-0.07013
-0.04407,0.97294,-0.22678,-0.48727,0.23235,0.20705
-0.03454,0.96893,-0.24486,-0.09818,0.06817,0.25152
-0.03654,0.9551,-0.29399,0.02771,-0.1788,0.68893
-0.03504,0.93545,-0.35172,0.37017,-0.26946,0.66205
-0.01995,0.91909,-0.39353,0.40487,-0.23784,0.71247
-0.00405,0.9029,-0.42983,0.27303,-0.2815,0.68801
0.01051,0.88415,-0.46707,0.08312,-0.29262,0.68373
0.01849,0.86531,-0.50088,-0.15907,-0.42873,0.73419
0.0177,0.84967,-0.52701,-0.32601,-0.66345,0.74672
0.01036,0.84123,-0.54058,-0.18355,-0.68086,0.83054
0.00143,0.84155,-0.54017,-0.15574,-0.6782,0.75326
-0.0107,0.85002,-0.52663,-0.12624,-0.60761,0.49466
-0.02881,0.8664,-0.4985,-0.04159,-0.5859,0.32948
-0.04549,0.88865,-0.45631,0.08109,0.02534,-0.96819
-0.05217,0.90712,-0.41761,-0.24744,1.5609,-1.32712
-0.04074,0.9114,-0.40949,-0.5084,1.31582,-1.01452
-0.03396,0.90936,-0.4146,-0.00541,0.15585,-0.45441
-0.02866,0.90387,-0.42684,-0.15416,-0.31952,-0.36269
-0.03311,0.89786,-0.43902,-0.35028,-0.17909,0.05945
-0.0485,0.89728,-0.43877,-0.5508,0.61253,0.49206
-0.08091,0.90952,-0.4077,0.40522,1.04181,-0.03034
-0.06974,0.91602,-0.39502,0.09433,0.98878,-0.55762
-0.08188,0.91747,-0.38928,0.0863,0.22215,0.46885
-0.08105,0.92595,-0.36881,-0.27061,-0.40935,0.71347
-0.0701,0.94232,-0.32727,-0.22578,-0.39248,0.83635
-0.05852,0.9601,-0.27346,-0.20336,-0.29718,0.88894
-0.06177,0.97385,-0.21858,-0.2025,-0.12557,0.46256
-0.07191,0.98297,-0.16908,-0.19745,-0.05825,0.40397
-0.07418,0.98968,-0.12254,-0.16675,0.06507,0.41001
-0.07607,0.99325,-0.08742,0.32267,0.33615,0.5051
-0.0874,0.99349,-0.07298,0.42263,0.22691,0.40741
-0.10245,0.99274,-0.06281,0.46105,0.09991,0.19776
-0.10698,0.99402,-0.0213,0.28972,-0.13369,-0.15528
-0.0965,0.99375,0.05597,0.22115,-0.04026,0.06142
-0.08471,0.99057,0.10759,0.25757,-0.166,-0.15318
-0.07101,0.98906,0.1292,0.22029,-0.17288,0.00412
-0.05508,0.98756,0.14718,-0.03397,0.01047,-0.00762
-0.04578,0.98347,0.1751,-0.25935,0.10423,-0.27923
-0.04109,0.97703,0.20905,-0.28246,-0.02891,-0.09523
-0.04202,0.97139,0.23368,-0.21866,-0.0941,0.1173
-0.05303,0.96753,0.24707,0.00045,-0.04682,0.12583
-0.06934,0.96382,0.25734,0.04432,0.21704,0.02847
-0.08302,0.95802,0.27438,0.08577,0.23137,-0.11482
-0.08589,0.94767,0.30744,0.31271,0.10963,-0.62529
-0.07994,0.93404,0.34807,0.26851,0.32192,-0.61886
-0.08498,0.93021,0.35703,0.17221,0.23154,-0.20023
-0.10374,0.92867,0.35606,0.17499,0.37336,-0.23527
-0.11569,0.92863,0.35248,0.08651,0.38143,-0.54
-0.11934,0.93032,0.34675,0.07219,0.59854,-0.6278
-0.12336,0.93726,0.32603,0.21949,0.60394,-0.42002
-0.12799,0.95079,0.28213,0.24071,0.65361,-0.46903
-0.12692,0.96774,0.21759,0.18474,0.41049,-0.53926
-0.12338,0.98282,0.13718,0.05827,0.41761,-0.11034
-0.11776,0.99161,0.05314,0.13098,0.45279,0.9855
-0.10602,0.99398,-0.02743,0.01676,0.5859,0.98083
-0.0882,0.99102,-0.10046,-0.25081,0.53187,0.72879
-0.06906,0.98361,-0.1665,-0.4453,0.41905,0.3409
-0.04783,0.97575,-0.21357,-0.52015,0.2235,-0.1067
-0.03101,0.97438,-0.22272,-0.34193,0.11786,0.1659
-0.02268,0.97048,-0.24009,-0.17701,-0.00199,0.54807
-0.01673,0.95488,-0.29651,0.04846,-0.28073,0.72063
-0.00636,0.93576,-0.35257,0.29993,-0.38055,0.58901
0.00501,0.91927,-0.39357,0.36776,-0.29859,0.67464
0.00841,0.90179,-0.43208,0.2733,-0.31938,0.66925
0.01691,0.88503,-0.46521,0.07325,-0.33384,0.65314
0.02032,0.8704,-0.49191,-0.25316,-0.47474,0.79899
0.01311,0.86033,-0.50956,-0.3558,-0.57201,0.8613
1e-05,0.85821,-0.51328,-0.15658,-0.6694,0.89533
-0.01875,0.86495,-0.5015,-0.071,-0.69028,0.81489
-0.03889,0.88033,-0.47275,-0.0696,-0.6627,0.69722
-0.05815,0.90375,-0.42409,0.00639,-0.2953,0.02931
-0.07394,0.92698,-0.36773,-0.06447,0.85666,-0.99464
-0.06297,0.93178,-0.3575,-0.126,2.05028,-1.62786
-0.04262,0.9252,-0.37707,0.57239,0.73885,-1.19164
-0.03489,0.92139,-0.38705,-0.18184,-0.61927,0.09957
-0.03321,0.91917,-0.39244,-0.36956,-0.57564,0.36744
-0.04728,0.9222,-0.38378,-0.55352,0.28101,0.84141
-0.0607,0.9317,-0.35811,0.07169,0.98711,0.58845
-0.04896,0.93687,-0.34623,0.51536,1.3471,-0.98796
-0.04783,0.9307,-0.36263,-0.36541,-0.28774,0.99689
-0.04188,0.92625,-0.37457,-0.47792,-0.99471,1.08509
-0.0407,0.93515,-0.35189,-0.36867,-0.73373,0.92539
-0.04271,0.9522,-0.30247,-0.23247,-0.23783,1.0239
-0.05607,0.96729,-0.24736,-0.22063,-0.12284,0.75392
-0.07396,0.97708,-0.19955,-0.36414,0.17924,0.45996
-0.08326,0.98325,-0.16206,-0.27586,0.55067,0.44278
-0.08933,0.98608,-0.14018,0.2154,0.48519,0.50903
-0.10763,0.98578,-0.12898,0.53223,0.23727,0.29923
-0.12818,0.98657,-0.10115,0.66775,-0.22198,-0.28269
-0.13787,0.99016,-0.02347,0.38387,-0.19585,-0.01457
-0.12716,0.99008,0.0597,0.23899,-0.13126,0.19337
-0.11255,0.98884,0.09756,0.17355,-0.19451,-0.01602
-0.09357,0.98853,0.11849,0.1216,-0.2278,0.03804
-0.077,0.98729,0.13898,0.03159,-0.11906,-0.04496
-0.07139,0.98342,0.16662,-0.40277,0.07589,-0.6059
-0.07349,0.9789,0.19062,-0.33635,-0.05548,0.18962
-0.0817,0.97437,0.20952,-0.21237,-0.12505,0.36668
-0.0962,0.96937,0.22594,0.07208,0.06992,0.17583
-0.11033,0.96376,0.24286,0.23005,0.20078,-0.04687
-0.11919,0.95564,0.26931,0.37402,0.14638,-0.39447
-0.11637,0.942,0.31476,0.31806,0.24236,-0.77022
-0.1099,0.93365,0.34087,0.0817,0.29084,-0.33429
-0.12126,0.93219,0.34103,0.16377,0.45345,-0.23231
-0.13585,0.9316,0.3371,0.21576,0.42177,-0.30164
-0.14601,0.93275,0.3296,0.30435,0.38897,-0.54674
-0.15109,0.93676,0.31563,0.39352,0.61983,-0.39748
-0.14955,0.94687,0.28469,0.3768,0.66897,-0.35488
-0.14091,0.96114,0.23733,0.34444,0.48836,-0.49696
-0.12999,0.97697,0.16912,0.14522,0.28845,-0.40316
-0.12086,0.98912,0.08377,-0.03803,0.56467,0.28958
-0.10759,0.99419,0.00058,-0.09688,0.62288,1.00788
-0.09129,0.99279,-0.07754,-0.17474,0.72086,1.09141
-0.0799,0.98598,-0.14644,-0.438,0.36964,0.64252
-0.06443,0.9763,-0.20658,-0.57639,0.1876,-0.01353
-0.04519,0.97152,-0.23257,-0.57344,0.10721,-0.09775
-0.03329,0.96992,-0.24113,-0.21528,0.01632,0.22201
-0.02913,0.95631,-0.29087,0.13193,-0.25267,0.78513
-0.02914,0.93365,-0.35697,0.31046,-0.34264,0.6713
-0.0201,0.91463,-0.40379,0.4997,-0.30534,0.63587
-0.01322,0.89608,-0.44368,0.27197,-0.2024,0.67746
-0.00586,0.8752,-0.48371,0.18527,-0.1946,0.73676
-0.00211,0.85567,-0.5175,0.03359,-0.23283,0.80957
-0.00661,0.84095,-0.54107,-0.35469,-0.57543,0.96181
-0.01822,0.83383,-0.55171,-0.21397,-0.57437,0.97819
-0.03272,0.8355,-0.54852,-0.1517,-0.63081,0.96378
-0.04417,0.84748,-0.52899,-0.15916,-0.66686,0.75545
-0.05383,0.8694,-0.49117,0.0265,-0.51954,0.37072
-0.06211,0.89765,-0.43629,0.08753,-0.06286,-0.24329
-0.05635,0.92032,-0.38706,-0.15378,1.42575,-1.37451
-0.02442,0.92289,-0.38428,0.13219,2.10528,-2.169
-0.01883,0.92098,-0.38914,0.24235,0.30992,-0.75701
-0.01069,0.92275,-0.38523,-0.12066,-0.55625,-0.07745
-0.01759,0.92747,-0.37348,-0.68224,0.04849,0.45647
-0.03671,0.9365,-0.34873,-0.44523,0.82093,0.85251
-0.03859,0.94247,-0.33203,0.20556,0.78788,0.39427
-0.03408,0.94236,-0.33285,-0.14774,0.13058,0.16075
-0.03241,0.94352,-0.3297,-0.39718,-0.56727,0.89919
-0.0322,0.95245,-0.30296,-0.26797,-0.43812,0.94935
-0.03492,0.96459,-0.2614,-0.18633,-0.33656,0.79088
-0.04446,0.97683,-0.20933,-0.25182,-0.16605,0.63144
-0.05618,0.98668,-0.15263,-0.3035,0.16812,0.49435
-0.06292,0.99309,-0.09894,-0.03921,0.4432,0.58159
-0.07092,0.99519,-0.0674,0.36064,0.2422,0.53863
-0.08688,0.99478,-0.05339,0.50838,0.02127,0.2239
-0.10017,0.9945,-0.03031,0.53074,-0.20036,-0.13196
-0.10268,0.9943,0.02821,0.29904,-0.13665,-0.16861
-0.09759,0.99118,0.08951,0.27622,-0.01436,-0.03407
-0.08742,0.98928,0.11685,0.27474,-0.04657,-0.13542
-0.07451,0.98812,0.13433,0.12822,-0.10371,-0.13322
-0.06192,0.9863,0.15284,0.00677,-0.07588,-0.0846
-0.05312,0.98312,0.17503,-0.07047,0.04771,0.0245
-0.05217,0.97757,0.204,-0.14826,-0.02695,-0.02425
-0.05608,0.97194,0.2284,-0.09699,-0.08371,-0.02346
-0.06303,0.96805,0.24268,-0.05303,0.07979,-0.0178
-0.07279,0.96435,0.25437,-0.01283,0.17633,-0.11698
-0.07768,0.95824,0.27519,0.11244,0.11711,-0.27947
-0.0784,0.94953,0.30367,0.21967,0.2351,-0.43426
-0.0862,0.94594,0.31264,0.16545,0.2301,-0.34932
-0.10056,0.94503,0.3111,0.15439,0.4033,-0.16028
-0.11289,0.94349,0.31155,0.1677,0.40672,-0.25283
-0.12247,0.94315,0.30894,0.2005,0.37234,-0.35937
-0.13042,0.94677,0.29426,0.4551,0.54989,-0.38931
-0.1312,0.95524,0.2651,0.45588,0.54142,-0.36015
-0.12274,0.96752,0.22093,0.27055,0.60009,-0.54165
-0.1129,0.98071,0.15951,-0.18273,0.2491,-0.7391
-0.11084,0.99097,0.07534,-0.22231,0.3356,-0.08434
-0.10997,0.99388,-0.00924,0.02247,0.39721,1.12811
-0.10099,0.99079,-0.09007,-0.17015,0.46671,0.87822
-0.08601,0.98277,-0.16355,-0.27256,0.39772,0.69454
-0.06619,0.97247,-0.22339,-0.36974,0.3595,0.40056
-0.04723,0.9687,-0.24368,-0.36001,0.19672,0.33339
-0.0385,0.9675,-0.2499,-0.20587,0.08865,0.28219
-0.03872,0.9574,-0.28613,-0.0118,-0.05585,0.60257
-0.03275,0.93898,-0.34238,0.232,-0.21572,0.63057
-0.02036,0.92126,-0.38839,0.2919,-0.25261,0.57
-0.01315,0.90374,-0.42787,0.28123,-0.31727,0.68057
-0.00373,0.88612,-0.46343,0.11097,-0.30934,0.66858
0.00395,0.86963,-0.49368,-0.00369,-0.29654,0.7187
0.00316,0.85629,-0.51649,-0.34157,-0.56443,0.88227
-0.0006,0.8491,-0.52822,-0.265,-0.5652,0.88638
-0.00764,0.85,-0.52673,-0.19502,-0.62386,0.71444
-0.02213,0.8588,-0.51182,-0.122,-0.52663,0.53552
-0.04239,0.87595,-0.48052,-0.05462,-0.28251,0.08849
-0.05895,0.89899,-0.43398,-0.04788,0.5257,-0.678
-0.04781,0.9135,-0.404,-0.11856,1.94531,-1.95211
-0.01912,0.90986,-0.41446,0.46611,0.91855,-1.32315
-0.01045,0.90772,-0.41944,0.14524,-0.2932,-0.25857
-0.00705,0.90788,-0.41915,-0.19284,-0.6402,0.27091
-0.0175,0.90707,-0.42061,0.13153,-0.23385,0.51697
-0.02243,0.9138,-0.40553,0.01625,0.4169,1.17439
-0.03031,0.93366,-0.35684,0.12852,0.74247,1.05908
-0.00729,0.94733,-0.32015,-0.1955,2.04929,-2.22862
0.00639,0.94219,-0.33499,-0.74885,-0.67307,1.49718
0.00577,0.93924,-0.3432,-0.63482,-0.8056,0.63577
0.00324,0.9479,-0.31854,-0.4462,-0.49289,0.92358
-0.00227,0.96343,-0.26791,-0.35596,-0.35186,0.82617
-0.01264,0.97576,-0.21843,-0.36036,-0.13555,0.53566
-0.02307,0.98477,-0.17227,-0.39856,0.27916,0.42027
-0.03137,0.99055,-0.13341,-0.11707,0.58954,0.51828
-0.04621,0.99169,-0.11996,0.3987,0.43981,0.54248
-0.07235,0.99056,-0.11634,0.63587,0.09325,0.15412
-0.0975,0.99227,-0.07665,0.76899,-0.33958,-0.26051
-0.10995,0.99384,0.01314,0.55543,-0.34864,-0.10085
-0.10098,0.99218,0.07322,0.29809,-0.15978,0.0915
-0.08451,0.99149,0.0989,0.28163,-0.15909,0.06581
-0.066,0.99034,0.12187,0.15346,-0.16412,0.04396
-0.05004,0.98796,0.1463,-0.06539,-0.04923,-0.223
-0.04245,0.98336,0.17654,-0.20134,0.00887,-0.43849
-0.03966,0.97785,0.20547,-0.32379,0.06476,-0.46104
-0.04658,0.97285,0.22666,-0.21524,-0.0021,0.21191
-0.05989,0.96764,0.24507,-0.04928,0.11012,0.05657
-0.07333,0.96162,0.26437,0.19241,0.15488,-0.31178
-0.07995,0.95232,0.29441,0.40495,0.14221,-0.58152
-0.08315,0.9452,0.31569,0.27569,0.26747,-0.27636
-0.09469,0.94321,0.31837,0.1844,0.29757,-0.14643
-0.1065,0.94111,0.32085,0.21374,0.42945,-0.18614
-0.11414,0.94095,0.31868,0.18502,0.38248,-0.44193
-0.12113,0.94361,0.30807,0.2497,0.38032,-0.52779
-0.12513,0.95129,0.2817,0.3993,0.50116,-0.39966
-0.12032,0.96316,0.24047,0.37927,0.67683,-0.29211
-0.10823,0.97691,0.18413,0.17266,0.47398,-0.39524
-0.09839,0.98944,0.10634,-0.2433,0.27109,-0.40347
-0.09084,0.99566,0.01957,-0.25085,0.26487,-0.3167
-0.07981,0.99496,-0.06061,-0.22512,0.58865,1.06519
-0.06374,0.98885,-0.13455,-0.32049,0.59796,0.96254
-0.04799,0.97895,-0.19836,-0.62875,0.43487,-0.04018
-0.03126,0.97232,-0.23153,-0.61861,0.3143,-0.14573
-0.01834,0.9712,-0.23752,-0.1079,0.11265,0.17885
-0.02006,0.9592,-0.282,0.03941,-0.13138,0.75389
-0.02488,0.93612,-0.35077,0.33767,-0.24266,0.58237
-0.01453,0.91602,-0.40086,0.32913,-0.18486,0.67994
-0.00201,0.89802,-0.43993,0.1668,-0.29419,0.6761
0.00415,0.87593,-0.48241,0.11453,-0.24916,0.69473
0.00926,0.85319,-0.5215,-0.04939,-0.37564,0.68999
0.00984,0.83277,-0.55353,-0.27255,-0.54598,0.71558
0.0009,0.818,-0.57521,-0.23283,-0.60773,0.846
-0.01255,0.81234,-0.58304,-0.14009,-0.64648,0.82884
-0.03004,0.81596,-0.57732,-0.07898,-0.59187,0.71972
-0.04469,0.82975,-0.55634,0.09517,-0.54789,0.48691
-0.05452,0.8534,-0.51838,0.31118,-0.41191,0.09083
-0.05062,0.88145,-0.46955,0.04303,0.1664,-0.87448
-0.02737,0.90433,-0.42593,-0.45769,1.57462,-1.5893
-0.00913,0.91272,-0.40846,-0.29317,1.45907,-1.17081
-0.0089,0.91326,-0.40726,0.24376,0.17345,-0.48152
-0.01192,0.91095,-0.41233,-0.24941,-0.28816,0.04907
-0.0268,0.90928,-0.41531,-0.50855,0.01679,0.47519
-0.04763,0.91398,-0.40294,-0.3523,0.45013,0.35728
-0.04785,0.92473,-0.3776,0.17094,0.65305,0.28363
-0.02876,0.93447,-0.35487,-0.29672,0.00431,0.96107
-0.01588,0.93665,-0.34988,-0.48743,-0.41546,1.2597
-0.00686,0.94245,-0.33425,-0.51485,-0.44419,0.87081
-0.00738,0.95638,-0.292,-0.30463,-0.34893,0.73856
-0.01065,0.97255,-0.2324,-0.30136,-0.3651,0.67897
-0.01703,0.98367,-0.17912,-0.29653,-0.08679,0.69845
-0.02248,0.98967,-0.14155,0.02704,0.42133,0.7767
-0.034,0.99199,-0.12157,0.03856,0.419,0.75671
-0.05241,0.99172,-0.11713,0.43989,0.21819,0.44149
-0.06828,0.9923,-0.10321,0.47991,0.11092,0.24309
-0.07155,0.99624,-0.0486,0.49689,-0.27278,-0.27536
-0.06173,0.99736,0.03793,0.32648,-0.21082,-0.14172
-0.04761,0.99499,0.0878,0.13232,-0.24085,-0.00996
-0.0295,0.99339,0.11087,0.10933,-0.22387,-0.04463
-0.01146,0.99058,0.13638,0.03621,-0.09051,0.08735
-0.00232,0.98545,0.16987,-0.0577,-0.03425,-0.05012
0.00038,0.9779,0.209,-0.20353,0.02432,-0.24324
7e-05,0.97044,0.24129,-0.273,0.04375,-0.23404
-0.00517,0.96427,0.26481,-0.13934,0.05677,0.03143
-0.01545,0.9581,0.28598,0.07414,0.19084,-0.12959
-0.02228,0.95186,0.30569,0.24242,0.21154,-0.6223
-0.02523,0.94554,0.32448,0.26296,0.16847,-0.25628
-0.03414,0.94428,0.32734,0.19497,0.21426,-0.1486
-0.04437,0.9443,0.32605,0.07398,0.25376,-0.0728
-0.05338,0.94357,0.3268,0.03142,0.35274,-0.15227
-0.05894,0.94378,0.32524,0.00504,0.36004,-0.25407
-0.06324,0.94634,0.3169,0.15126,0.47986,-0.33086
-0.06623,0.95295,0.29577,0.27549,0.54899,-0.44104
-0.06332,0.96367,0.25943,0.23897,0.66974,-0.63251
-0.05649,0.97735,0.20391,0.04079,0.3975,-0.79512
-0.0526,0.99087,0.12403,-0.2372,0.14946,-0.59255
-0.05306,0.998,0.03415,-0.12373,0.33565,0.55568
-0.05169,0.99739,-0.05024,0.03184,0.37737,1.04343
-0.04274,0.99059,-0.12998,-0.22076,0.60689,0.98734
-0.03246,0.97867,-0.20283,-0.42481,0.49567,0.54728
-0.0198,0.96616,-0.25714,-0.57852,0.41065,-0.35324
-0.00679,0.96477,-0.26298,-0.36187,0.31628,0.22047
-0.00163,0.96052,-0.2782,-0.0495,0.15904,0.45879
-0.00106,0.93847,-0.34535,0.11815,-0.12781,0.69784
0.00547,0.91379,-0.40613,0.23071,-0.18935,0.65875
0.02088,0.89474,-0.44608,0.21423,-0.28952,0.65352
0.0323,0.8746,-0.48376,0.17392,-0.30599,0.69292
0.03544,0.85357,-0.51977,0.05984,-0.37868,0.73135
0.03413,0.83469,-0.54966,-0.11395,-0.55168,0.78619
0.02659,0.82075,-0.57065,-0.25147,-0.71446,0.85859
0.01619,0.81616,-0.57759,-0.16881,-0.74115,0.90054
0.00335,0.82242,-0.56887,-0.11154,-0.7041,0.86161
-0.01222,0.83756,-0.5462,-0.01944,-0.54116,0.57243
-0.02879,0.86027,-0.50902,0.08014,-0.38372,0.09293
-0.04273,0.88715,-0.45949,0.03037,0.39911,-1.16839
-0.03052,0.90058,-0.43361,-0.19237,2.30058,-1.68487
-0.01307,0.90351,-0.42836,-0.08855,1.03608,-0.72017
-0.01016,0.90529,-0.42465,-0.18976,0.02403,-0.21852
-0.02096,0.90825,-0.41788,-0.83974,0.58157,0.13575
-0.04777,0.91322,-0.40465,-0.26895,0.48157,0.55016
-0.05744,0.91616,-0.39666,0.02071,0.95061,0.35997
-0.05763,0.92348,-0.37929,0.11485,0.91151,0.27724
-0.06549,0.9333,-0.35307,0.12267,-0.79006,1.17039
-0.05412,0.94551,-0.32103,0.1113,-0.80228,1.13836
-0.03676,0.95995,-0.27772,-0.06833,-0.49445,0.74557
-0.03511,0.9753,-0.21807,-0.19733,-0.07396,0.50333
-0.05421,0.98665,-0.15349,-0.26665,0.01504,0.37892
-0.06781,0.99327,-0.09382,-0.274,0.23882,0.28944
-0.06767,0.99663,-0.04614,0.23068,0.23204,0.31143
-0.07135,0.99731,-0.01616,0.37104,0.20815,0.22864
-0.08351,0.9965,-0.00147,0.53542,0.165,0.04421
-0.09392,0.99533,0.02204,0.43015,0.01729,-0.29481
-0.0937,0.99392,0.05768,0.43088,-0.03301,-0.2055
-0.08568,0.99279,0.08375,0.31918,-0.14269,0.02215
-0.07254,0.99244,0.09887,0.22815,-0.20051,0.22371
-0.0575,0.99175,0.11445,0.12182,-0.1908,0.19911
-0.04069,0.98994,0.13542,0.00507,-0.02031,0.09067
-0.02971,0.98556,0.16664,-0.11742,0.04072,-0.10573
-0.02164,0.97947,0.20035,-0.15672,-0.01726,-0.10832
-0.02007,0.97444,0.22372,-0.158,-0.11959,0.1211
-0.02668,0.9713,0.23633,-0.13792,-0.00728,0.14816
-0.03906,0.96753,0.24968,-0.11185,0.12302,0.09878
-0.04804,0.96082,0.27295,0.11315,0.15187,-0.39727
-0.04661,0.94946,0.31037,0.25927,0.16455,-0.65085
-0.04144,0.94052,0.33717,0.02129,0.27432,-0.41834
-0.05548,0.94144,0.33257,0.13653,0.31145,-0.2334
-0.0742,0.94276,0.32509,0.19665,0.30883,-0.25511
-0.08048,0.94409,0.31969,0.12468,0.26159,-0.48681
-0.08131,0.94727,0.3099,0.1632,0.58607,-0.55305
-0.08348,0.95739,0.27642,0.26836,0.55454,-0.54858
-0.08256,0.97242,0.21808,0.21743,0.57511,-0.75914
-0.07846,0.9877,0.13516,0.03254,0.49684,-0.47188
-0.07496,0.99623,0.04338,0.05538,0.58276,0.60649
-0.06369,0.99698,-0.04418,0.09897,0.63368,1.05176
-0.04128,0.99103,-0.12707,-0.23682,0.81322,1.018
-0.01761,0.98017,-0.19735,-0.47869,0.63584,0.64529
0.00581,0.96844,-0.24917,-0.64435,0.36334,-0.03938
0.02482,0.96494,-0.26126,-0.35485,0.13705,0.07579
0.02341,0.96123,-0.27474,-0.04996,0.11113,0.33102
0.01312,0.93795,-0.3465,0.1442,-0.11404,0.84232
0.01858,0.91085,-0.41231,0.29958,-0.31411,0.68178
0.03039,0.88992,-0.45509,0.18754,-0.35633,0.72893
0.02824,0.86687,-0.49772,0.19714,-0.23989,0.79521
0.02127,0.84344,-0.53679,0.16202,-0.29202,0.8419
0.01186,0.82334,-0.56742,-0.33068,-0.53431,0.86485
-0.00443,0.81017,-0.58618,-0.31439,-0.52114,0.88362
-0.02626,0.80665,-0.59044,-0.1402,-0.62151,0.98065
-0.04917,0.8135,-0.57948,-0.03944,-0.73587,0.94655
-0.06503,0.8325,-0.55018,-0.02358,-0.75488,0.91725
-0.07038,0.86379,-0.4989,0.01563,-0.55091,0.4037
-0.06809,0.89912,-0.43236,0.01899,0.00416,-0.32461
-0.06458,0.92175,-0.38235,-0.10122,0.73529,-0.99784
-0.04482,0.92146,-0.38587,0.38019,2.27437,-1.90585
-0.03487,0.91536,-0.40111,0.43743,0.19174,-0.56799
-0.02519,0.91159,-0.41032,0.0746,-0.2559,-0.22023
-0.0295,0.90801,-0.41789,-0.48985,-0.57669,0.1764
-0.04006,0.91448,-0.40263,-0.39463,0.04615,0.64184
-0.0474,0.93297,-0.35681,-0.23368,0.30951,1.19055
-0.04376,0.94584,-0.32164,0.1248,1.20298,-0.22133
-0.04816,0.93976,-0.33842,-0.21951,1.19438,-0.23534
-0.05937,0.94123,-0.33249,-0.28394,-0.60325,1.19664
-0.05185,0.94722,-0.31635,-0.11836,-0.671,1.07634
-0.04374,0.95795,-0.28354,-0.07041,-0.49885,0.7777
-0.04849,0.96929,-0.24105,-0.16252,-0.26051,0.66055
-0.05255,0.97895,-0.19719,-0.21586,0.52299,0.70444
-0.05424,0.98505,-0.16342,-0.02831,0.53397,0.70047
-0.06699,0.98788,-0.13997,0.24597,0.30103,0.61818
-0.08426,0.98948,-0.11754,0.34086,-0.12153,0.20819
-0.08856,0.99326,-0.0746,0.32249,-0.24365,0.06358
-0.07683,0.99703,-0.0024,0.05623,-0.30645,0.14791
-0.06115,0.99616,0.06241,0.02084,-0.18461,0.20355
-0.04813,0.99468,0.091,0.0366,-0.11685,0.06046
-0.03661,0.99317,0.11065,0.01205,-0.024,0.07719
-0.03207,0.98982,0.13861,-0.03975,-0.068,0.04259
-0.03118,0.98433,0.17349,-0.05929,-0.04758,-0.06373
-0.03324,0.97645,0.21313,-0.07321,0.00796,-0.17908
-0.03545,0.96722,0.25142,0.00972,0.24667,-0.46002
-0.03874,0.9609,0.27413,0.11336,0.26679,-0.42078
-0.04647,0.95627,0.28874,0.22109,0.11232,-0.43913
-0.05615,0.95188,0.30125,0.15086,0.21342,-0.25643
-0.06297,0.95103,0.30257,0.08466,0.12935,-0.19666
-0.06825,0.95097,0.30161,0.13678,0.21678,-0.18009
-0.07561,0.95171,0.2975,0.13364,0.31537,-0.2441
-0.08152,0.95408,0.28819,0.1113,0.42546,-0.37283
-0.08397,0.9575,0.2759,0.14708,0.54536,-0.41082
-0.08294,0.96481,0.24946,0.31634,0.71051,-0.62489
-0.07917,0.97604,0.20261,0.16584,0.71121,-0.77483
-0.075,0.98832,0.13259,-0.11064,0.30638,-0.48237
-0.07719,0.99609,0.04278,-0.04771,0.52241,0.31611
-0.07497,0.99616,-0.04504,0.09361,0.61346,0.9501
-0.06093,0.99002,-0.127,-0.10649,0.68419,0.9823
-0.04001,0.97931,-0.19834,-0.31985,0.38405,0.71975
-0.02029,0.96632,-0.25652,-0.4436,0.2466,0.45862
0.00094,0.95622,-0.29261,-0.38818,0.04345,0.1283
0.01723,0.95657,-0.29096,-0.0574,-0.05157,0.03373
0.02094,0.95446,-0.29759,0.16453,0.04847,0.40945
0.0221,0.93384,-0.35699,0.18414,-0.22333,0.53348
0.02964,0.91439,-0.40373,0.09362,-0.35014,0.66878
0.03219,0.89806,-0.43868,0.09775,-0.36323,0.71935
0.02733,0.87978,-0.47458,0.08494,-0.31577,0.73238
0.02442,0.86206,-0.50621,-0.09064,-0.33862,0.63757
0.02148,0.84824,-0.52917,-0.27779,-0.43132,0.75161
0.01471,0.84043,-0.54172,-0.32899,-0.49666,0.79801
0.00379,0.84106,-0.54092,-0.1379,-0.57891,0.80539
-0.01031,0.8498,-0.527,-0.15883,-0.57586,0.73223
-0.0242,0.86588,-0.49966,-0.08472,-0.47869,0.40743
-0.03731,0.8893,-0.45579,-0.0175,-0.23137,-0.16175
-0.04971,0.91453,-0.40143,-0.21729,0.92507,-1.04546
-0.04925,0.92476,-0.37734,0.21349,1.899,-1.55212
-0.02514,0.92548,-0.37796,0.48275,0.55566,-0.91631
-0.01799,0.92367,-0.38275,0.0395,-0.29969,-0.22474
-0.01231,0.91988,-0.39199,-0.33721,-0.48157,0.18983
-0.01885,0.91927,-0.39315,-0.44796,-0.0635,0.61204
-0.03068,0.92977,-0.36685,-0.30392,0.44342,0.77488
-0.03799,0.94727,-0.31815,0.28418,1.36294,-0.18637
-0.02437,0.94975,-0.31203,0.06373,0.96858,-0.27924
-0.02805,0.94673,-0.32078,-0.51036,-0.5215,1.29513
-0.02417,0.94871,-0.3152,-0.37993,-0.70011,0.7182
-0.02041,0.9597,-0.28026,-0.29601,-0.42999,0.83293
-0.02659,0.97231,-0.23216,-0.31727,-0.29013,0.58993
-0.03797,0.98133,-0.18853,-0.3273,-0.06789,0.53306
-0.04346,0.98786,-0.14908,-0.08684,0.47576,0.68053
-0.04954,0.99184,-0.11743,0.25775,0.35628,0.59383
-0.06475,0.99272,-0.10153,0.37537,0.2396,0.44799
-0.08213,0.9926,-0.0893,0.51358,-0.17299,-0.13818
-0.08714,0.99517,-0.04502,0.32789,-0.18844,-0.0375
-0.08003,0.99601,0.03923,0.188,-0.12345,0.35054
-0.07005,0.99276,0.09743,0.14298,-0.23362,-0.01758
-0.05697,0.99061,0.12419,0.15516,-0.12594,-0.01798
-0.04337,0.98833,0.14597,0.03406,-0.04871,-0.06286
-0.0345,0.98443,0.1723,-0.16982,-0.00196,-0.37768
-0.03024,0.97976,0.19783,-0.20561,0.04128,-0.22252
-0.0285,0.97444,0.22278,-0.10114,-0.00902,0.12149
-0.03423,0.96854,0.24646,-0.00065,0.06183,0.02025
-0.04679,0.96363,0.26306,0.10547,0.13288,-0.24057
-0.05591,0.95737,0.28335,0.26715,0.11578,-0.49924
-0.05667,0.94704,0.31605,0.35561,0.24204,-0.46538
-0.05922,0.94149,0.33175,0.30066,0.3279,-0.2375
-0.06904,0.93989,0.3344,0.2494,0.45411,-0.14957
-0.07585,0.93856,0.33663,0.14594,0.43056,-0.37334
-0.07847,0.93902,0.33476,0.08955,0.52387,-0.53143
-0.08121,0.94439,0.3186,0.24763,0.59362,-0.4149
-0.08127,0.95549,0.28356,0.31326,0.70295,-0.40052
-0.07436,0.9703,0.23012,0.07079,0.41692,-0.52824
-0.06739,0.98486,0.15962,-0.10343,0.27301,-0.52306
-0.06495,0.99535,0.07107,-0.14752,0.52861,0.5129
-0.05677,0.99828,-0.01407,-0.03777,0.52177,1.09346
-0.04039,0.99486,-0.09278,-0.17534,0.55997,1.0731
-0.02434,0.98633,-0.1629,-0.55469,0.46908,0.26643
-0.01253,0.9776,-0.21008,-0.57366,0.3395,-0.0592
-0.00124,0.97557,-0.21965,-0.45286,0.2617,-0.14239
-0.00049,0.96722,-0.25391,-0.11545,-0.03313,0.66485
-0.01142,0.94582,-0.32448,0.20655,-0.23753,0.79189
-0.01801,0.92146,-0.38805,0.39859,-0.31786,0.70017
-0.0111,0.90076,-0.43417,0.38669,-0.24095,0.73716
-0.00516,0.87835,-0.47798,0.14154,-0.29723,0.74437
0.0024,0.85514,-0.51838,-0.00329,-0.32084,0.78946
0.00726,0.83409,-0.55157,-0.11717,-0.36327,0.79831
0.00367,0.81944,-0.57315,-0.23083,-0.59233,0.99307
-0.0046,0.81486,-0.57964,-0.13364,-0.63128,0.9878
-0.0167,0.81941,-0.57296,-0.0755,-0.66305,0.94283
-0.02885,0.83367,-0.5515,0.02351,-0.65443,0.35603
-0.03886,0.85716,-0.51358,0.08187,-0.52027,0.00682
-0.04569,0.88701,-0.45946,0.01017,1.49084,-1.76507
-0.04239,0.90335,-0.42679,-0.15099,2.50702,-1.86079
-0.03987,0.9017,-0.4305,-0.23256,0.82658,-0.42741
-0.03893,0.89667,-0.44098,-0.30711,-0.50926,-0.39223
-0.03486,0.89028,-0.45407,-0.47724,-0.35887,-0.18466
-0.03744,0.8869,-0.46042,-0.4482,-0.28977,0.24608
-0.04827,0.90289,-0.42714,-0.51957,0.34757,1.21445
-0.06434,0.92969,-0.36266,0.2183,1.92787,-1.10738
-0.06406,0.93113,-0.35899,0.21803,1.92643,-1.11104
-0.08865,0.93365,-0.34702,-0.08883,-0.33117,0.97657
-0.09115,0.93873,-0.33236,-0.06224,-0.46682,0.88378
-0.07871,0.9504,-0.30089,0.00335,-0.44941,0.83153
-0.0663,0.96444,-0.25583,-0.04047,-0.30946,0.59504
-0.06456,0.97665,-0.20487,-0.12748,0.2515,0.68308
-0.06142,0.98619,-0.15373,-0.08453,0.50487,0.76374
-0.06049,0.99042,-0.1241,0.30395,0.24522,0.65553
-0.06714,0.99122,-0.1138,0.35625,-0.06111,0.35084
-0.07546,0.99264,-0.09464,0.30736,-0.25028,0.08042
-0.07117,0.9966,-0.0413,0.11112,-0.16252,0.094
-0.05215,0.99798,0.03604,0.09409,-0.10867,0.39199
-0.03291,0.99416,0.10268,0.01618,-0.27198,-0.01635
-0.02728,0.98852,0.14852,0.02713,-0.10301,-0.29466
-0.02551,0.98319,0.18072,0.04206,0.07642,-0.22971
-0.02441,0.97821,0.20613,-0.03217,0.04439,-0.27401
-0.0256,0.97159,0.23522,-0.05763,0.03661,-0.29129
-0.02756,0.96332,0.26687,0.01447,0.00807,-0.22592
-0.03455,0.95608,0.29104,0.0571,0.13984,-0.34687
-0.04362,0.9504,0.30791,0.08668,0.27534,-0.45578
-0.05127,0.94449,0.32447,0.28353,0.25453,-0.39775
-0.05933,0.93944,0.3375,0.30669,0.34959,-0.30956
-0.06963,0.93809,0.33928,0.31553,0.29129,-0.23856
-0.07841,0.93824,0.33695,0.05249,0.42219,-0.46542
-0.08142,0.93878,0.33472,-0.11144,0.46909,-0.70139
-0.08259,0.94233,0.3243,-0.22855,0.46008,-0.90732
-0.09147,0.95116,0.29479,0.1598,0.60719,-0.71444
-0.11012,0.96722,0.22876,0.25243,0.5751,-0.64273
-0.12471,0.98217,0.14062,0.35217,0.59341,-0.51954
-0.13026,0.9905,0.04385,0.54389,0.81498,1.09882
-0.11163,0.9924,-0.05162,0.38849,0.80258,1.1466
-0.07373,0.988,-0.13564,0.08513,0.84424,1.19167
-0.0377,0.97872,-0.20167,-0.60131,0.80677,0.56576
-0.01244,0.96706,-0.25423,-0.60582,0.45335,0.28356
0.00756,0.96127,-0.27547,-0.47734,0.13426,-0.13645
0.01256,0.95977,-0.28047,-0.15331,0.07337,0.17627
0.00372,0.93853,-0.34516,0.04984,-0.21122,0.85315
0.0134,0.91391,-0.40568,0.31555,-0.38745,0.8422
0.03504,0.8977,-0.4392,0.39916,-0.21714,0.87211
0.03744,0.87731,-0.47844,0.44148,-0.365,0.72284
0.03466,0.85585,-0.51605,-0.04657,-0.46495,0.6951
0.02955,0.83921,-0.54299,-0.55209,-0.6416,1.06451
0.00925,0.82858,-0.55979,-0.63034,-0.73771,1.13176
-0.01511,0.827,-0.56199,-0.14391,-0.74601,1.13125
-0.03996,0.83456,-0.54946,-0.09862,-0.78375,0.97761
-0.05498,0.85201,-0.52063,-0.11704,-0.77004,0.84947
-0.06101,0.87874,-0.47338,-0.01324,-0.28779,0.41958
-0.06555,0.91012,-0.40912,0.01898,1.13186,-1.06526
-0.05226,0.92737,-0.37045,-0.27645,2.58601,-2.63945
-0.03802,0.92016,-0.38967,0.86709,0.76552,-0.87032
-0.03275,0.91427,-0.40376,0.33382,-0.22775,-0.1368
-0.02077,0.9097,-0.41474,-0.21725,-0.67617,-0.0889
-0.01819,0.90168,-0.43201,-0.11237,-0.78751,0.27357
-0.0197,0.90448,-0.42604,-0.19519,0.25685,1.15093
-0.01493,0.92392,-0.38227,0.02369,0.94851,0.56238
-0.00966,0.94431,-0.32888,0.03012,2.41555,-1.35736
-0.01339,0.93419,-0.35652,-0.93615,-0.32794,1.63037
-0.02667,0.92405,-0.38134,-0.55065,-1.05512,0.7181
-0.04413,0.92766,-0.37079,-0.20722,-0.82222,1.16353
-0.04197,0.94067,-0.33669,-0.09439,-0.4539,1.0024
-0.04094,0.95619,-0.28986,-0.10339,-0.19604,0.8337
-0.05416,0.97206,-0.22836,-0.4817,0.54568,0.62657
-0.06476,0.98283,-0.17273,-0.27584,0.99598,0.64772
-0.05961,0.98579,-0.15702,0.13873,0.7327,0.65137
-0.06885,0.98398,-0.16441,0.56981,-0.04482,0.08445
-0.0869,0.98465,-0.15132,0.65284,-0.438,-0.30919
-0.09916,0.99253,-0.07095,0.51983,-0.46859,-0.12372
-0.09441,0.99502,0.03179,0.24086,-0.09884,0.55744
-0.08506,0.99255,0.08715,0.19332,-0.20072,-0.00045
-0.07034,0.99137,0.11052,0.18205,-0.15205,0.00311
-0.0534,0.98973,0.13254,0.02974,-0.14905,-0.0575
-0.04663,0.98533,0.16409,-0.29319,-0.00254,-0.37303
-0.04872,0.97809,0.20236,-0.3039,-0.06126,-0.08598
-0.05456,0.96967,0.23821,-0.29293,-0.14237,0.12443
-0.06647,0.96209,0.26445,-0.01732,0.20798,-0.18689
-0.08143,0.95401,0.28847,0.14176,0.26293,-0.446
-0.08452,0.94269,0.32276,0.27388,0.28802,-0.66016
-0.08241,0.93394,0.34776,0.26143,0.3606,-0.25396
-0.09766,0.93159,0.35011,0.29816,0.43378,-0.24674
-0.11546,0.92965,0.34986,0.33291,0.5017,-0.22835
-0.12481,0.92973,0.34642,0.49397,0.53252,-0.31035
-0.1267,0.93337,0.33576,0.57874,0.53525,-0.20693
-0.12106,0.94382,0.30745,0.59401,0.59865,-0.15437
-0.10065,0.95893,0.26515,-0.18289,0.4004,-0.52087
-0.07403,0.97464,0.21113,-0.48331,0.35048,-0.91923
-0.05914,0.98959,0.13115,-0.48483,0.52665,0.52022
-0.06261,0.99719,0.04092,-0.10482,0.46154,1.09125
-0.05681,0.99733,-0.04566,-0.11003,0.56904,1.02077
-0.04226,0.991,-0.12693,-0.45626,0.49493,0.18984
-0.02304,0.98112,-0.19197,-0.49919,0.29743,-0.04982
-0.00261,0.97507,-0.22184,-0.42225,0.22726,0.29359
0.01285,0.96934,-0.24536,-0.14226,-0.1493,0.35818
0.01418,0.95892,-0.28329,0.04005,-0.20904,0.80008
0.01235,0.93881,-0.34419,0.14867,-0.26721,0.81048
0.01718,0.91447,-0.40428,0.33149,-0.26037,0.58252
0.02912,0.89186,-0.45137,0.3228,-0.37387,0.61282
0.03697,0.86891,-0.49358,0.09919,-0.37774,0.75821
0.03378,0.8453,-0.53321,-0.19654,-0.5249,0.79969
0.02299,0.82524,-0.56431,-0.35592,-0.62773,0.91013
0.00412,0.81373,-0.58122,-0.27066,-0.63649,0.94956
-0.01714,0.81144,-0.58417,-0.15325,-0.62184,0.72713
-0.04052,0.81821,-0.57349,0.06532,-0.6019,0.37686
-0.06145,0.83565,-0.54581,0.23791,-0.48364,-0.25608
-0.06514,0.86177,-0.5031,-0.0258,0.32288,-1.33588
-0.0461,0.88484,-0.4636,-1.05937,1.72664,-1.13207
-0.03059,0.89364,-0.44774,-0.13935,0.88804,-0.43283
-0.02179,0.89741,-0.44066,0.09875,-0.00594,-0.43872
-0.02107,0.89531,-0.44493,-0.3465,-0.31847,-0.09951
-0.03751,0.88799,-0.45832,-0.40289,-0.29188,-0.01396
-0.06969,0.89022,-0.45016,-0.14558,0.09957,1.62512
-0.08977,0.91275,-0.39851,0.43929,0.94781,0.51814
-0.05097,0.92422,-0.37843,-0.12668,1.76057,-1.09665
-0.05597,0.92637,-0.37242,-0.49171,0.02606,1.0591
-0.05775,0.93557,-0.34838,-0.15614,-0.52503,0.94344
-0.0497,0.95004,-0.30812,-0.11219,-0.46629,0.92997
-0.04427,0.96447,-0.26044,0.05105,-0.42193,0.75224
-0.052,0.97684,-0.20754,-0.06795,0.03595,0.75356
-0.05687,0.98659,-0.15295,-0.03067,0.35661,0.8349
-0.06398,0.99076,-0.1195,0.39209,0.36966,0.73717
-0.07948,0.99161,-0.10186,0.44425,0.16104,0.40302
-0.0895,0.99311,-0.07553,0.35592,-0.13418,0.01569
-0.07731,0.99681,-0.01946,0.23463,-0.2781,-0.09936
-0.05088,0.99634,0.06855,0.01795,-0.17824,-0.1851
-0.03784,0.98973,0.13776,0.03781,-0.22342,-0.32074
-0.03271,0.98417,0.17414,0.06527,-0.29604,-0.32834
