gravity.x,gravity.y,gravity.z,userAcceleration.x,userAcceleration.y,userAcceleration.z
-0.16548,0.97947,0.11505,-0.2496,-0.34127,-0.21123
-0.17886,0.9731,0.14514,-0.11591,0.03764,-0.0532
-0.20072,0.96454,0.17132,0.05234,0.14189,-0.05208
-0.22555,0.95476,0.19377,0.29673,0.176,-0.32761
-0.24013,0.94286,0.23095,0.30877,0.46496,-0.43
-0.23825,0.92854,0.28465,0.24367,0.39839,-0.56407
-0.23552,0.9159,0.32501,0.47327,0.43163,-0.62011
-0.25014,0.91403,0.31932,0.50196,0.62182,-0.57623
-0.25149,0.91962,0.30171,0.39368,0.56053,-0.38676
-0.24126,0.92577,0.29107,0.16994,0.69276,-0.72406
-0.22921,0.93433,0.27288,0.37612,0.52067,-0.76518
-0.22282,0.94837,0.22568,0.32664,0.40275,-0.62076
-0.21249,0.96428,0.15808,0.03441,0.46209,-0.1696
-0.19814,0.97672,0.08209,0.03571,0.54981,0.74448
-0.18384,0.98295,-0.00032,-0.15512,0.568,0.52874
-0.16727,0.98288,-0.07722,-0.44385,0.76068,0.33167
-0.15804,0.97771,-0.13818,-0.74944,1.07985,0.35217
-0.1708,0.9682,-0.18275,-0.85505,0.46272,0.31497
-0.1876,0.9566,-0.22295,-0.63297,-0.057,0.35934
-0.18691,0.94629,-0.26378,-0.1616,-0.23664,0.59587
-0.17031,0.9381,-0.30158,0.15853,-0.27346,0.63617
-0.15312,0.92769,-0.34049,0.5614,-0.22695,0.72287
-0.14791,0.91356,-0.37884,0.58382,-0.26241,0.85403
-0.1465,0.90197,-0.40619,0.17378,-0.52576,0.62343
-0.14511,0.88804,-0.43625,0.07036,-0.70788,0.71049
-0.14782,0.87668,-0.4578,-0.04451,-0.76924,0.78136
-0.15575,0.87117,-0.46562,-0.13713,-0.73762,0.8211
-0.16516,0.87158,-0.46159,-0.18079,-0.77943,0.76245
-0.17468,0.87782,-0.44599,-0.21347,-0.73216,0.67217
-0.18577,0.88895,-0.41864,-0.30382,-0.36847,0.36203
-0.19726,0.90352,-0.38043,-0.23426,0.20077,-0.5631
-0.20574,0.91628,-0.34365,0.07768,1.74504,-2.55689
-0.20133,0.91068,-0.36072,0.20831,2.01442,-1.98601
-0.19667,0.90275,-0.38257,0.10913,-0.42061,-0.45633
-0.18996,0.89945,-0.39357,0.01582,-0.49441,-0.07216
-0.18577,0.9009,-0.39224,-0.25799,-0.20762,0.17666
-0.18467,0.90668,-0.37924,-0.5543,0.42302,0.49562
-0.18725,0.91384,-0.36031,-0.51417,0.72048,0.90617
-0.17125,0.91934,-0.35424,-0.83752,0.44562,0.07812
-0.17833,0.91441,-0.36339,-0.10693,-0.71107,1.65004
-0.17138,0.90877,-0.38047,-0.09674,-0.52483,1.15209
-0.16124,0.91716,-0.36443,-0.11775,-0.24794,0.99926
-0.16717,0.93269,-0.31959,-0.08281,0.42934,1.19941
-0.18692,0.9434,-0.27394,0.1243,0.6175,1.05134
-0.20611,0.94756,-0.24422,0.26097,0.42042,0.68632
-0.22306,0.95139,-0.21234,0.53565,0.13749,-0.55686
-0.24013,0.9623,-0.1277,0.33313,-0.14716,-0.22679
-0.24394,0.96909,-0.03676,-0.00673,-0.12758,-0.19606
-0.233,0.97247,-0.00213,0.04842,-0.03301,-0.18034
-0.21769,0.97588,0.01588,-0.11813,0.00793,-0.04211
-0.20314,0.97826,0.04148,-0.21529,-0.22558,0.11609
-0.19799,0.97724,0.0761,0.04294,-0.40129,-0.03304
-0.20174,0.97392,0.10377,0.01725,-0.37318,0.00307
-0.21424,0.96904,0.12268,-0.04812,-0.32165,-0.02011
-0.2329,0.96092,0.14961,0.10425,0.0154,0.04126
-0.25656,0.94985,0.17871,0.22584,0.36243,-0.39819
-0.27067,0.93772,0.21771,0.23131,0.5111,-0.43527
-0.26778,0.92365,0.27414,0.13237,0.46766,-0.62009
-0.25856,0.90939,0.32579,0.38591,0.47019,-0.76304
-0.27065,0.9055,0.3268,0.60951,0.54369,-0.55905
-0.28312,0.91189,0.29713,0.60948,0.60139,-0.44074
-0.27929,0.92011,0.27455,0.53198,0.67169,-0.54246
-0.26615,0.92808,0.26043,0.45066,0.42349,-0.78196
-0.24985,0.94164,0.22555,0.41144,0.52485,-0.56381
-0.23641,0.95849,0.15933,0.03979,0.62638,-0.26849
-0.22008,0.97174,0.0853,-0.03186,0.47982,0.72045
-0.20909,0.97784,0.01024,-0.2139,0.57684,0.71625
-0.19644,0.9781,-0.06866,-0.60509,0.92284,0.32391
-0.19541,0.97162,-0.13326,-0.91479,0.94437,0.31046
-0.21831,0.95962,-0.17737,-0.8859,0.31128,0.36986
-0.2381,0.94831,-0.20978,-0.28679,-0.24651,0.53818
-0.23173,0.94233,-0.24147,0.00613,-0.27676,0.51464
-0.19604,0.94137,-0.27455,0.30279,-0.19651,0.63569
-0.16016,0.93821,-0.30675,0.60343,-0.1529,0.55348
-0.15227,0.9236,-0.35181,0.37435,-0.32055,0.64702
-0.14944,0.90765,-0.39221,0.06489,-0.63353,0.64942
-0.15313,0.89059,-0.42824,0.02391,-0.68473,0.71911
-0.16283,0.87609,-0.45381,-0.0646,-0.78476,0.75148
-0.17528,0.86731,-0.46587,-0.12737,-0.80225,0.7613
-0.18636,0.86448,-0.46683,-0.11474,-0.82078,0.7352
-0.195,0.86844,-0.45583,-0.09279,-0.56215,0.54839
-0.20317,0.87767,-0.43406,-0.10797,-0.01916,-0.1003
-0.21065,0.89154,-0.40097,-0.11289,0.94566,-1.35101
-0.21183,0.89957,-0.38196,0.23289,1.71425,-1.8052
-0.20973,0.89364,-0.39675,0.27633,0.40538,-0.6023
-0.21175,0.88736,-0.40958,0.24637,-0.03648,-0.39563
-0.21185,0.88357,-0.41763,-0.07555,-0.1248,0.08403
-0.21178,0.88455,-0.4156,-0.57205,0.35897,0.4708
-0.20773,0.89105,-0.40357,-0.50524,0.63362,0.13344
-0.19465,0.89773,-0.39519,-1.15769,0.86908,-0.46815
-0.17551,0.89487,-0.41036,-0.77858,-0.71866,1.50776
-0.16449,0.8987,-0.40655,-0.43042,-0.95605,1.5593
-0.14675,0.91482,-0.37625,-0.35108,-0.21867,1.0957
-0.1439,0.93441,-0.32581,-0.3017,0.37552,1.07688
-0.15632,0.95023,-0.26947,-0.02549,0.52506,1.19226
-0.17908,0.95733,-0.22681,0.17986,0.57429,1.14189
-0.20388,0.957,-0.20631,0.4331,0.40364,0.46621
-0.22469,0.95847,-0.17563,0.54633,-0.01831,-0.21936
-0.24162,0.96562,-0.09586,0.38336,-0.13992,-0.15396
-0.24452,0.96844,-0.0482,0.16011,-0.12501,-0.14905
-0.23471,0.97173,-0.02524,0.17844,-0.01055,0.08952
-0.2194,0.9756,0.00662,-0.0371,-0.07416,0.21359
-0.19945,0.97915,0.03828,-0.16857,-0.34241,0.18062
-0.18877,0.97996,0.06345,-0.07536,-0.38468,0.02822
-0.19088,0.97765,0.08797,-0.19356,-0.23332,-0.17876
-0.20191,0.9722,0.11852,-0.22761,-0.16965,-0.21688
-0.21996,0.96308,0.1552,0.06254,-0.02641,-0.05905
-0.24314,0.95177,0.18711,0.22815,0.24268,-0.32882
-0.25634,0.93925,0.22821,0.2898,0.60114,-0.50122
-0.25583,0.92408,0.28392,0.16616,0.44266,-0.6212
-0.25468,0.91336,0.31762,0.51584,0.45369,-0.64212
-0.27217,0.91393,0.30106,0.65729,0.55,-0.42436
-0.27737,0.92166,0.27128,0.5761,0.67787,-0.3671
-0.26659,0.92922,0.25584,0.35816,0.50692,-0.63866
-0.24624,0.9376,0.24547,0.25407,0.34074,-0.7473
-0.22755,0.9512,0.20837,0.09356,0.34247,-0.70768
-0.21762,0.96497,0.14647,0.11105,0.52938,-0.22193
-0.20952,0.9755,0.06699,0.1749,0.61804,0.71151
-0.19851,0.97993,-0.01768,-0.28288,0.78914,0.4416
-0.18419,0.97837,-0.09411,-0.29719,0.79071,0.51803
-0.18473,0.97141,-0.14906,-0.96998,0.55534,0.39454
-0.20701,0.95991,-0.18895,-0.93427,0.28949,0.30941
-0.22533,0.94819,-0.22394,-0.47851,-0.25021,0.47733
-0.2176,0.94043,-0.26123,0.06276,-0.19664,0.52125
-0.19106,0.93477,-0.29949,0.23479,-0.1883,0.63323
-0.17615,0.92107,-0.34728,0.7699,-0.20483,0.75861
-0.17569,0.90315,-0.39173,0.40336,-0.35705,0.72088
-0.16618,0.88981,-0.425,0.12642,-0.58623,0.69909
-0.1602,0.87443,-0.45794,-0.00189,-0.71146,0.7969
-0.16351,0.86247,-0.47895,-0.17517,-0.76186,0.79917
-0.17549,0.85326,-0.49107,-0.2522,-0.82924,0.76324
-0.18802,0.84803,-0.49547,-0.26093,-0.84913,0.7578
-0.19836,0.85114,-0.48602,-0.44739,-0.53558,0.32312
-0.2029,0.86582,-0.45736,-0.21351,0.1897,-0.68818
-0.20464,0.8848,-0.41863,-0.00976,0.76801,-1.25409
-0.20625,0.88478,-0.41787,0.10635,0.911,-1.06333
-0.20951,0.87749,-0.43141,0.1177,0.16776,-0.47904
-0.20916,0.87314,-0.4403,0.10363,-0.08886,-0.33577
-0.20222,0.87413,-0.44158,-0.03331,0.10437,-0.06765
-0.19754,0.88128,-0.42932,-0.52774,0.95006,0.44513
-0.18853,0.89359,-0.40736,-0.53675,0.93775,0.42317
-0.16567,0.89934,-0.40464,-0.69508,-0.75739,1.12362
-0.14872,0.8962,-0.41796,-0.41596,-0.86384,1.17694
-0.1199,0.90573,-0.40653,-0.47988,-0.66292,0.83109
-0.1026,0.92748,-0.35952,-0.50121,-0.19434,0.91909
-0.10404,0.94926,-0.29676,-0.5445,0.14241,0.79607
-0.12734,0.96334,-0.23614,-0.1055,0.53271,1.15708
-0.15694,0.96777,-0.19695,0.36513,0.61641,1.07567
-0.18915,0.96617,-0.17528,0.45624,0.42048,0.56778
-0.21202,0.96582,-0.14907,0.83141,0.04936,-0.80933
-0.2216,0.97263,-0.06975,0.53383,-0.1459,-0.3674
-0.21939,0.97555,-0.01287,0.29012,-0.22054,-0.55793
-0.2067,0.97818,0.02054,0.15906,0.02595,-0.28548
-0.19103,0.98034,0.04934,-0.1352,-0.08057,0.29934
-0.17393,0.98318,0.05557,-0.0127,-0.36024,0.18625
-0.17103,0.98307,0.06566,-0.06678,-0.38889,0.07123
-0.18087,0.97974,0.0859,-0.26973,-0.28336,-0.16018
-0.19753,0.97247,0.12355,-0.05746,-0.09171,-0.0408
-0.21829,0.96209,0.16346,0.13553,0.00536,-0.20927
-0.23324,0.94951,0.20979,0.29321,0.49557,-0.40843
-0.23718,0.93295,0.27081,0.21809,0.51784,-0.72505
-0.23806,0.91833,0.31622,0.4005,0.54043,-0.83205
-0.25415,0.9179,0.30472,0.68529,0.55232,-0.31238
-0.2576,0.92561,0.27728,0.64618,0.66763,-0.30818
-0.24669,0.9332,0.2613,0.44084,0.68805,-0.58224
-0.22661,0.94183,0.24819,0.38289,0.45332,-0.79114
-0.21261,0.95572,0.20344,0.3048,0.51245,-0.64798
-0.19964,0.97133,0.129,-0.08462,0.65183,0.26726
-0.18235,0.98205,0.04809,-0.13393,0.53304,0.80314
-0.16285,0.98607,-0.03364,-0.47529,0.66797,0.37075
-0.14683,0.9838,-0.10276,-0.70351,0.94999,0.20382
-0.1506,0.97641,-0.15467,-0.95279,0.78413,0.35412
-0.17833,0.96377,-0.19834,-0.84033,0.13583,0.34935
-0.19879,0.95016,-0.24016,-0.45845,-0.30065,0.54501
-0.18945,0.93977,-0.28448,0.01776,-0.32887,0.66975
-0.16957,0.93135,-0.32221,0.39287,-0.25223,0.76601
-0.15713,0.91814,-0.36375,0.76761,-0.29743,0.78065
-0.16141,0.90139,-0.4018,0.29956,-0.46166,0.66664
-0.1629,0.88504,-0.43609,0.14864,-0.69073,0.65352
-0.16414,0.86805,-0.46855,0.04845,-0.79728,0.73757
-0.17022,0.85696,-0.48645,-0.10354,-0.82865,0.80191
-0.17663,0.85409,-0.48921,-0.15723,-0.82647,0.80984
-0.18126,0.85872,-0.47932,-0.073,-0.79605,0.79905
-0.18645,0.87056,-0.45536,-0.12245,-0.0645,0.2253
-0.19544,0.88702,-0.41831,-0.18142,0.92421,-1.38946
-0.2013,0.90618,-0.37189,-0.07418,2.24131,-3.14186
-0.1966,0.90158,-0.38535,0.13243,1.05728,-0.95726
-0.20067,0.89335,-0.40205,0.18463,-0.39994,-0.40142
-0.20109,0.88816,-0.4132,0.05576,-0.34878,-0.23152
-0.20135,0.8874,-0.41468,-0.44443,0.00917,0.37574
-0.20299,0.8902,-0.40785,-0.47868,0.34776,0.58496
-0.19659,0.89685,-0.39624,-0.68754,0.87906,0.5932
-0.17422,0.90142,-0.39633,-1.12084,0.47863,0.05668
-0.17033,0.90409,-0.39193,-0.37083,-0.6465,1.50147
-0.15046,0.9101,-0.38611,-0.20365,-0.47058,1.21352
-0.13355,0.9262,-0.35259,-0.29208,-0.09943,0.97327
-0.13671,0.94502,-0.29704,-0.15455,0.2944,1.14485
-0.15524,0.95529,-0.25162,0.13881,0.43552,1.07793
-0.18247,0.95661,-0.22715,0.21781,0.44375,0.93614
-0.20884,0.95619,-0.20514,0.51126,0.28991,-0.51913
-0.22619,0.96665,-0.12008,0.41949,-0.03647,-0.2718
-0.23144,0.97191,-0.04251,0.23761,-0.15615,-0.29043
-0.22198,0.97497,-0.01238,0.11296,-0.15911,0.17925
-0.20593,0.97855,0.00454,0.02002,0.00367,-0.21122
-0.19282,0.98067,0.03317,-0.1059,-0.20447,0.13267
-0.18837,0.9803,0.05929,-0.06521,-0.44092,0.00434
-0.19209,0.97812,0.07985,-0.14727,-0.31793,-0.09224
-0.20383,0.97269,0.11099,-0.07209,-0.03218,-0.08012
-0.22336,0.96262,0.15316,0.16823,0.05099,-0.09181
-0.24108,0.95063,0.19536,0.33832,0.15618,-0.36559
-0.24228,0.93787,0.24838,0.13469,0.52556,-0.61345
-0.23394,0.92385,0.30292,0.2689,0.43283,-0.7005
-0.24099,0.91876,0.3127,0.40648,0.39551,-0.65044
-0.25355,0.92441,0.28489,0.49752,0.46133,-0.27592
-0.24932,0.93141,0.26513,0.33669,0.61307,-0.40344
-0.2381,0.93581,0.2599,0.19715,0.66268,-0.62237
-0.22258,0.94348,0.24552,0.35013,0.40971,-0.86395
-0.21486,0.95628,0.19837,0.26415,0.31486,-0.73626
-0.20644,0.97059,0.12381,0.0069,0.63203,0.2467
-0.19259,0.98045,0.0402,-0.11948,0.5295,0.76014
-0.17689,0.98329,-0.04285,-0.37665,0.61067,0.42756
-0.16186,0.98022,-0.11381,-0.70946,0.96257,0.29323
-0.16182,0.97271,-0.16625,-0.87395,0.91615,0.33178
-0.18166,0.96263,-0.20085,-0.8221,0.1926,0.30139
-0.19699,0.95042,-0.24058,-0.42696,-0.1239,0.48577
-0.19208,0.93781,-0.28914,-0.0174,-0.2065,0.62866
-0.1751,0.925,-0.33719,0.3167,-0.19364,0.75266
-0.15957,0.91158,-0.37889,0.79129,-0.19771,0.91111
-0.15794,0.89786,-0.41097,0.33682,-0.40016,0.72512
-0.15982,0.88238,-0.44256,0.13859,-0.58935,0.66878
-0.1611,0.8653,-0.47464,0.01114,-0.77123,0.70235
-0.16739,0.85322,-0.49396,-0.08333,-0.74436,0.78096
-0.1779,0.84794,-0.49934,-0.14609,-0.78864,0.77548
-0.18659,0.84925,-0.49392,-0.14264,-0.838,0.75411
-0.19278,0.85777,-0.4765,-0.1994,-0.61705,0.57476
-0.19954,0.87219,-0.4466,-0.21467,-0.07576,-0.17109
-0.20622,0.88938,-0.40801,-0.21667,1.40202,-2.01276
-0.20774,0.88603,-0.41447,0.20105,1.72784,-1.23458
-0.20575,0.87717,-0.43386,0.24517,-0.24327,-0.46688
-0.20271,0.87034,-0.44879,0.18008,-0.32549,-0.4193
-0.19894,0.86795,-0.45506,-0.28536,-0.13023,0.04192
-0.18925,0.87305,-0.4494,-0.70855,0.40953,0.02056
-0.17938,0.88093,-0.43792,-0.58835,0.37523,0.36031
-0.16135,0.88784,-0.43093,-0.37916,0.44055,0.1321
-0.14307,0.89006,-0.4328,-0.64902,-0.4966,1.30689
-0.13464,0.89897,-0.4168,-0.55391,-0.38211,1.2105
-0.1307,0.91587,-0.37959,-0.35334,-0.0953,1.08653
-0.12827,0.93324,-0.33555,-0.33838,0.02693,0.92955
-0.14444,0.94585,-0.29067,0.1008,0.63073,1.15424
-0.17005,0.95073,-0.2592,0.32449,0.64413,0.86897
-0.19592,0.9515,-0.23717,0.42833,0.59752,0.54806
-0.21894,0.95889,-0.1805,0.64595,0.02809,-0.08042
-0.23271,0.9673,-0.10081,0.25888,-0.16606,-0.12983
-0.22514,0.97235,-0.06195,0.16074,-0.16812,-0.17386
-0.20755,0.97757,-0.03573,0.06285,-0.05931,-0.03589
-0.19053,0.98167,0.0008,-0.28072,-0.25665,0.14457
-0.17511,0.98387,0.03638,-0.18088,-0.44067,0.09933
-0.17232,0.98245,0.07134,-0.09944,-0.43827,0.04623
-0.18112,0.97875,0.09603,-0.18433,-0.26054,-0.19744
-0.1944,0.97334,0.12168,-0.11717,-0.02156,-0.14848
-0.20978,0.96487,0.15812,0.03567,0.07723,0.03687
-0.22704,0.95511,0.19028,0.32462,0.39655,-0.37218
-0.23375,0.94247,0.23895,0.17929,0.5277,-0.47574
-0.22491,0.92697,0.30021,0.06754,0.491,-0.72341
-0.2221,0.91795,0.32866,0.37663,0.40152,-0.69606
-0.24067,0.91963,0.31039,0.43542,0.4913,-0.37937
-0.24952,0.92376,0.29051,0.43341,0.53755,-0.33918
-0.24464,0.92901,0.27762,0.39488,0.53415,-0.68295
-0.22978,0.93855,0.25752,0.37907,0.40877,-0.66429
-0.21753,0.95366,0.20783,0.17043,0.37738,-0.48312
-0.20741,0.96853,0.13752,-0.05634,0.54683,0.02985
-0.19789,0.97827,0.0618,-0.03252,0.50467,0.67125
-0.18665,0.98227,-0.01701,-0.34166,0.5789,0.44714
-0.17606,0.98031,-0.08933,-0.69015,0.8337,0.22955
-0.18341,0.9729,-0.14079,-0.79869,0.43163,0.36105
-0.20901,0.96165,-0.17756,-0.71382,0.23073,0.39294
-0.22505,0.95065,-0.21356,-0.27172,0.02686,0.47955
-0.21543,0.94302,-0.25355,0.0504,-0.18455,0.50219
-0.19032,0.93665,-0.29403,0.31709,-0.20852,0.63174
-0.16822,0.92761,-0.33351,0.57173,-0.17429,0.69547
-0.15651,0.91493,-0.37203,0.23461,-0.42651,0.70481
-0.14683,0.90176,-0.40653,0.07011,-0.59779,0.64705
-0.14319,0.88808,-0.43682,0.00605,-0.71454,0.70273
-0.14402,0.87848,-0.45554,-0.05272,-0.71642,0.75225
-0.1496,0.87329,-0.46366,-0.12805,-0.72737,0.76357
-0.15471,0.8731,-0.46233,-0.09045,-0.77966,0.7055
-0.16064,0.8779,-0.45108,-0.11105,-0.37372,0.44974
-0.1691,0.88582,-0.43212,-0.11544,-0.12579,0.08118
-0.17922,0.89642,-0.40534,-0.08402,0.71068,-1.28278
-0.18638,0.8945,-0.40637,0.2707,1.35817,-1.02401
-0.19045,0.88149,-0.43209,0.16297,0.5041,-0.56832
-0.18831,0.87111,-0.45354,-0.06245,-0.28412,-0.37653
-0.18643,0.8656,-0.46472,-0.4586,0.01002,0.20218
-0.18466,0.86743,-0.46201,-0.66654,0.59936,0.15763
-0.18316,0.87127,-0.45535,-0.49134,0.08517,1.09245
-0.16969,0.86954,-0.46378,-0.60375,-0.24009,0.74502
-0.15551,0.87686,-0.4549,-0.65617,-0.24865,1.18057
-0.15932,0.89319,-0.4205,-0.16342,-0.14669,1.49369
-0.1516,0.90955,-0.38696,-0.29687,0.0444,1.06115
-0.14335,0.92726,-0.34587,-0.11792,0.41849,0.99062
-0.15378,0.94265,-0.29623,0.23676,0.56151,1.05775
-0.17709,0.95011,-0.25676,0.35661,0.51268,0.91736
-0.20073,0.9533,-0.22565,0.45102,0.46475,0.29929
-0.22407,0.9606,-0.16439,0.5328,-0.02934,-0.19447
-0.23419,0.96667,-0.10345,0.24859,-0.12357,-0.23619
-0.2289,0.97098,-0.06922,0.18035,-0.11469,-0.19717
-0.21305,0.97629,-0.03821,-0.00805,-0.0383,0.02602
-0.19629,0.98053,-0.00476,-0.1878,-0.19226,-0.12291
-0.18238,0.98267,0.03289,-0.18711,-0.2429,-0.03487
-0.17888,0.98174,0.06469,0.00712,-0.42581,0.04083
-0.18265,0.97954,0.08442,-0.11132,-0.1424,-0.1491
-0.19201,0.97557,0.10669,-0.16421,-0.06467,-0.17366
-0.20699,0.96833,0.13955,0.09835,-0.05187,-0.01946
-0.22356,0.95925,0.17274,0.17213,0.27993,-0.24154
-0.23229,0.9491,0.21269,0.17637,0.50612,-0.31428
-0.23053,0.9384,0.25737,0.20729,0.47535,-0.62434
-0.22696,0.93123,0.28512,0.40876,0.52371,-0.48661
-0.23483,0.93122,0.27869,0.39881,0.55332,-0.31208
-0.24055,0.93297,0.26774,0.34225,0.60809,-0.40709
-0.23713,0.93529,0.26267,0.27905,0.62846,-0.66167
-0.22618,0.94087,0.25218,0.44533,0.43624,-0.87053
-0.21966,0.95072,0.2188,0.33003,0.41226,-0.76944
-0.21738,0.96326,0.15766,0.20238,0.46133,-0.24357
-0.21457,0.97362,0.07755,0.23139,0.57033,0.62241
-0.20557,0.97861,-0.00762,0.04256,0.51681,0.72196
-0.19291,0.97717,-0.08894,-0.44517,0.66815,0.34036
-0.19168,0.97056,-0.1458,-0.73697,0.81301,0.35971
-0.2122,0.96006,-0.18231,-0.7885,0.33515,0.42758
-0.23376,0.94803,-0.21586,-0.68515,-0.03933,0.36892
-0.23142,0.93952,-0.25247,-0.24023,-0.26168,0.55435
-0.20552,0.93524,-0.28824,0.24541,-0.29017,0.65377
-0.17803,0.92837,-0.32622,0.72571,-0.28377,0.6158
-0.16808,0.91176,-0.37475,0.51976,-0.32283,0.66232
-0.1606,0.89507,-0.41599,0.19508,-0.43061,0.66151
-0.15778,0.87808,-0.45174,-0.00818,-0.69064,0.75896
-0.1615,0.86451,-0.47595,-0.04492,-0.69284,0.81802
-0.17025,0.85685,-0.48664,-0.21214,-0.82767,0.78768
-0.1774,0.85564,-0.48621,-0.21491,-0.8247,0.77031
-0.18146,0.86135,-0.47449,-0.16443,-0.59681,0.59563
-0.18359,0.87422,-0.44948,-0.13518,-0.09576,0.00412
-0.18849,0.89225,-0.41031,-0.0996,0.31042,-0.61863
-0.19356,0.90249,-0.38477,-0.01818,2.02882,-2.54869
-0.19453,0.89385,-0.40397,0.10635,0.28047,-0.66462
-0.196,0.88728,-0.4175,0.17572,-0.41565,-0.36412
-0.19431,0.88399,-0.42522,0.11998,-0.45003,-0.179
-0.19272,0.88675,-0.42015,-0.74279,0.36426,0.85996
-0.18874,0.89333,-0.40783,-0.8296,0.7253,0.56574
-0.17831,0.90165,-0.394,-0.92035,1.75317,-0.38241
-0.16544,0.89903,-0.40543,-0.3527,-1.05693,1.78983
-0.14614,0.90056,-0.40942,-0.29382,-0.88605,1.09961
-0.12151,0.91626,-0.3817,-0.34932,-0.26081,0.96368
-0.11657,0.93474,-0.33565,-0.40456,0.1587,0.8527
-0.13387,0.94887,-0.28585,-0.03703,0.6802,1.28091
-0.16126,0.95629,-0.24394,0.35897,0.64104,1.09466
-0.18985,0.95827,-0.21372,0.65666,0.23697,-0.66983
-0.21195,0.96189,-0.17272,0.53126,0.02405,-0.72596
-0.22613,0.97068,-0.08146,0.37391,-0.11031,-0.41625
-0.22482,0.97388,-0.0317,0.2035,-0.12311,-0.31016
-0.20967,0.9777,-0.01186,0.06063,-0.02573,0.02114
-0.18931,0.98188,0.00818,-0.1177,-0.00484,0.14508
-0.17267,0.98444,0.03239,-0.22361,-0.41033,0.23472
-0.16947,0.98376,0.059,-0.1124,-0.36256,0.01654
-0.17691,0.98108,0.07857,-0.15535,-0.31287,-0.08556
-0.19168,0.97592,0.10407,-0.06677,-0.04042,-0.06098
-0.21223,0.96696,0.14121,0.18478,0.10126,-0.06998
-0.2272,0.95639,0.18357,0.26409,0.40017,-0.31622
-0.22914,0.9433,0.24012,0.12895,0.61244,-0.51451
-0.22277,0.92847,0.29716,0.20175,0.49357,-0.79563
-0.23152,0.92371,0.3052,0.52521,0.4423,-0.58069
-0.24704,0.92778,0.27961,0.5737,0.5585,-0.25404
-0.2491,0.93189,0.26366,0.49227,0.56785,-0.44622
-0.23825,0.93569,0.26022,0.24672,0.46707,-0.87224
-0.22521,0.94479,0.238,0.32397,0.33098,-0.84639
-0.21801,0.9587,0.18263,0.12535,0.39897,-0.63124
-0.20998,0.97163,0.1088,0.03486,0.62527,0.12951
-0.19848,0.97965,0.02988,0.01167,0.41936,0.80577
-0.18555,0.98128,-0.05158,-0.24955,0.54343,0.48019
-0.17072,0.97757,-0.12331,-0.63375,0.87941,0.27215
-0.17552,0.96839,-0.17721,-0.90247,0.93804,0.38073
-0.20398,0.95448,-0.21759,-0.86113,0.29729,0.35634
-0.22039,0.94138,-0.25539,-0.41667,-0.10161,0.50617
-0.20283,0.93243,-0.29905,0.16413,-0.27957,0.65899
-0.17215,0.92379,-0.34202,0.2791,-0.26525,0.70812
-0.1518,0.91236,-0.38021,0.68933,-0.2143,0.87653
-0.14504,0.90051,-0.40992,0.16445,-0.68712,0.64106
-0.14081,0.8839,-0.44596,0.13224,-0.73063,0.72613
-0.14332,0.86727,-0.47675,0.08296,-0.79815,0.78556
-0.14997,0.8583,-0.49074,-0.08152,-0.78114,0.82126
-0.15888,0.85613,-0.49172,-0.11854,-0.77622,0.79714
-0.16639,0.86005,-0.48232,-0.14472,-0.67464,0.70037
-0.17226,0.87006,-0.46187,-0.21333,-0.18869,0.31535
-0.18061,0.88448,-0.4302,-0.14345,0.7821,-1.05444
-0.1897,0.89777,-0.39752,0.01902,2.38304,-2.6178
-0.19388,0.88659,-0.41995,-0.09169,0.52729,-0.62017
-0.19651,0.87477,-0.4429,-0.05209,-0.54789,-0.36409
-0.19406,0.87061,-0.45209,-0.08295,-0.61479,-0.06581
-0.19012,0.87391,-0.44736,-0.42295,-0.00881,0.57308
-0.18696,0.88321,-0.4301,-0.60467,0.49207,0.87914
-0.18437,0.89252,-0.4116,-0.61652,1.11786,0.50193
-0.16614,0.90606,-0.38915,-0.87758,0.6563,-0.2035
-0.16128,0.90792,-0.38688,-0.22355,-0.73792,1.58176
-0.13638,0.9077,-0.39683,-0.24137,-0.53062,0.93761
-0.119,0.92085,-0.37131,-0.2199,-0.1396,0.90584
-0.12104,0.9383,-0.32394,-0.06612,0.54894,1.28042
-0.14293,0.95245,-0.26908,0.14921,0.60834,1.29369
-0.16848,0.95638,-0.23863,0.35297,0.45522,0.9407
-0.19048,0.95644,-0.22123,0.64892,0.1777,-0.82478
-0.21114,0.96579,-0.15057,0.44543,0.03096,-0.3503
-0.22134,0.97362,-0.05544,0.1367,-0.14563,-0.35022
-0.21406,0.97667,-0.01685,0.18983,-0.06894,-0.20517
-0.19489,0.98082,-0.00167,-0.0703,-0.13843,0.02892
-0.17294,0.98475,0.01886,-0.18775,-0.29201,0.14543
-0.16421,0.98528,0.04743,-0.1688,-0.49476,0.14598
-0.16713,0.98336,0.07107,-0.12765,-0.30854,-0.00153
-0.18052,0.97891,0.09557,-0.24985,-0.18837,-0.21047
-0.20002,0.97076,0.13272,0.0024,0.05714,0.0046
-0.22187,0.96048,0.16808,0.22741,0.24411,-0.30944
-0.23171,0.94859,0.21559,0.3086,0.60535,-0.47042
-0.22684,0.93326,0.27851,0.28049,0.47693,-0.81507
-0.2224,0.92205,0.31677,0.46064,0.49372,-0.84488
-0.23376,0.92472,0.30041,0.4839,0.55882,-0.49911
-0.23538,0.93151,0.27727,0.34859,0.72514,-0.50623
-0.22663,0.93685,0.26634,0.36704,0.64849,-0.7792
-0.20953,0.94675,0.24442,0.22038,0.62727,-0.72134
-0.19768,0.96171,0.18982,0.06627,0.5974,-0.43634
-0.18691,0.97596,0.11204,-0.13023,0.53701,-0.00383
-0.17763,0.98362,0.0304,-0.06047,0.60978,0.76747
-0.1692,0.98416,-0.05275,-0.22961,0.71119,0.67781
-0.16329,0.97796,-0.13006,-0.84405,1.02709,0.16157
-0.17684,0.96729,-0.18185,-0.8058,0.47586,0.37944
-0.1991,0.95636,-0.21382,-0.74489,0.15492,0.43824
-0.20803,0.94466,-0.25364,-0.10255,-0.18801,0.54119
-0.19994,0.93286,-0.29964,0.15756,-0.29888,0.60557
-0.18749,0.91744,-0.35093,0.56394,-0.23164,0.82085
-0.17957,0.89918,-0.39903,0.62466,-0.38421,0.75794
-0.1818,0.87992,-0.43895,0.21163,-0.48468,0.71108
-0.18416,0.86021,-0.47552,0.08535,-0.65763,0.76829
-0.18798,0.8422,-0.50533,-0.00361,-0.71506,0.83042
-0.19509,0.8318,-0.51966,-0.11392,-0.74287,0.82966
-0.20188,0.82859,-0.52219,-0.13659,-0.75396,0.81511
-0.2065,0.83185,-0.51515,-0.12605,-0.69498,0.7248
-0.20703,0.84251,-0.4973,-0.13338,-0.3893,0.24564
-0.2097,0.8586,-0.4678,-0.09192,0.46205,-1.01119
-0.21233,0.87208,-0.44089,-0.03022,1.94886,-2.20828
-0.21668,0.86426,-0.45397,0.34549,0.78213,-0.85323
-0.22357,0.85463,-0.46863,0.24727,-0.17371,-0.31662
-0.22654,0.84852,-0.47821,0.05988,-0.26031,-0.32735
-0.22621,0.84871,-0.47803,-0.82501,0.7473,0.33843
-0.21972,0.85317,-0.47309,-0.27124,0.78979,0.51245
-0.20494,0.85501,-0.47639,-0.49428,-0.41422,0.92619
-0.17087,0.8453,-0.50623,-0.78325,-1.08389,1.4359
-0.15049,0.86061,-0.48652,-0.6533,-0.77844,1.03667
-0.14194,0.89117,-0.43088,-0.47334,0.18593,1.35523
-0.13512,0.91684,-0.3757,-0.65137,0.68967,1.01146
-0.13684,0.92844,-0.34536,-0.16182,0.72443,0.93836
-0.15693,0.93372,-0.32177,0.34862,0.65191,0.93386
-0.18769,0.9441,-0.271,0.67336,0.37597,0.66684
-0.2063,0.95782,-0.20004,1.12463,0.15018,-0.0508
-0.21752,0.96717,-0.13136,0.64321,-0.11581,-0.33267
-0.21499,0.97182,-0.0966,0.25361,-0.15559,-0.48859
-0.20116,0.97748,-0.06365,0.14992,-0.06789,-0.15665
-0.18467,0.98247,-0.02541,-0.23989,-0.04648,0.17456
-0.16673,0.98599,0.00329,-0.29718,-0.24704,0.07696
-0.15851,0.98688,0.03061,-0.1318,-0.40825,-0.03691
-0.16296,0.98513,0.05443,-0.12677,-0.29309,-0.04094
-0.17492,0.98145,0.07845,-0.1278,-0.1341,-0.1366
-0.19589,0.97377,0.11571,0.10512,-0.02454,0.01167
-0.22179,0.96303,0.1529,0.28768,0.07353,-0.23251
-0.23887,0.95129,0.19487,0.37568,0.37316,-0.37729
-0.24274,0.93971,0.24086,0.07529,0.42708,-0.52604
-0.23638,0.93308,0.27105,0.16136,0.53603,-0.61084
-0.23976,0.93167,0.27296,0.39363,0.45981,-0.35857
-0.24691,0.93421,0.25744,0.54506,0.59585,-0.23717
-0.24871,0.9389,0.23792,0.76391,0.59284,-0.6159
-0.23553,0.94593,0.22302,0.64202,0.39885,-0.51468
-0.21666,0.95854,0.18505,0.02658,0.54646,-0.85564
-0.19804,0.9716,0.12949,-0.22871,0.61791,-0.14743
-0.18518,0.98094,0.05879,0.05397,0.28119,0.85856
-0.17609,0.98401,-0.02668,-0.21427,0.41875,0.50225
-0.1599,0.98112,-0.10874,-0.52103,0.864,0.28768
-0.15296,0.97414,-0.16627,-0.78853,0.60169,0.36976
-0.17255,0.9632,-0.20609,-0.77919,0.33962,0.30566
-0.1945,0.95186,-0.2369,-0.721,0.10089,0.34084
-0.19045,0.9438,-0.27012,-0.01596,-0.24154,0.56872
-0.15992,0.93845,-0.30616,0.46031,-0.24915,0.68105
-0.13831,0.92655,-0.34981,0.65476,-0.20837,0.68459
-0.13407,0.90936,-0.3938,0.31469,-0.43643,0.62575
-0.13039,0.8945,-0.42762,0.12662,-0.5584,0.60015
-0.13018,0.87875,-0.45918,0.04206,-0.64703,0.65143
-0.13627,0.866,-0.48112,-0.08983,-0.81184,0.75629
-0.14808,0.85952,-0.48918,-0.12989,-0.82882,0.79623
-0.15854,0.85832,-0.48801,-0.24019,-0.85455,0.76555
-0.164,0.86359,-0.47677,-0.13348,-0.72182,0.67409
-0.16618,0.87581,-0.45315,-0.10433,-0.19328,0.22514
-0.17362,0.89141,-0.41863,0.06038,0.07165,-0.21797
-0.17989,0.91086,-0.37144,0.14191,1.52498,-2.07589
-0.17221,0.91234,-0.37144,-0.03757,1.617,-1.55597
-0.17322,0.9043,-0.39017,0.07971,-0.03135,-0.44756
-0.17448,0.89929,-0.40103,0.12671,-0.45189,-0.41929
-0.17444,0.89671,-0.40679,0.0991,-0.62114,0.15511
-0.17504,0.90227,-0.39403,-0.59785,-0.07441,1.18213
-0.16742,0.91,-0.37929,-0.59053,0.08998,1.34795
-0.14999,0.91803,-0.36705,-1.59633,1.89402,-2.03839
-0.16367,0.93891,-0.30273,-0.74821,0.91695,1.4031
-0.16059,0.92795,-0.33632,-0.15583,-0.50821,1.51123
-0.13713,0.92606,-0.35158,-0.15941,-0.48888,0.92165
-0.12987,0.9369,-0.32457,0.04335,-0.54193,1.10855
-0.14406,0.95452,-0.26103,0.1416,0.36019,1.46678
-0.16398,0.96286,-0.21448,0.37727,0.58784,1.19569
-0.18595,0.96346,-0.19279,0.36056,0.47883,0.75254
-0.20143,0.96623,-0.16069,0.63095,0.29189,-0.89588
-0.20994,0.97577,-0.06159,0.21536,-0.1563,-0.23429
-0.20161,0.97944,0.00638,0.06215,-0.11988,-0.2724
-0.18106,0.98303,0.02918,-0.19512,-0.01459,-0.14472
-0.16084,0.98545,0.05487,-0.30875,-0.14667,0.01081
-0.14967,0.98519,0.08362,-0.1621,-0.57804,-0.00321
-0.15408,0.98242,0.10537,-0.20794,-0.53639,-0.10819
-0.17039,0.97786,0.12146,-0.23291,-0.27435,-0.07045
-0.1944,0.97007,0.14547,-0.01782,-0.03716,0.0758
-0.22511,0.95892,0.17258,0.46348,0.47685,-0.33308
-0.2441,0.94392,0.22231,0.57945,0.70124,-0.39469
-0.24089,0.92615,0.29019,0.43976,0.55104,-0.75776
-0.22679,0.91413,0.33605,0.38063,0.59767,-1.01197
-0.23715,0.91725,0.32001,0.56224,0.79042,-0.30748
-0.24779,0.92173,0.29834,0.58817,0.93098,-0.26778
-0.23519,0.92989,0.28282,0.58398,0.49242,-0.74576
-0.21026,0.94495,0.25068,0.36026,0.5433,-0.70325
-0.18687,0.9625,0.19664,-0.21618,0.36805,-0.64798
-0.17261,0.97661,0.12814,-0.07784,0.81779,0.65944
-0.16581,0.98505,0.0467,0.018,0.76501,0.94759
-0.14951,0.98793,-0.04031,-0.49867,0.79095,0.45233
-0.13318,0.98524,-0.10749,-0.7753,0.97974,0.35673
-0.1394,0.97743,-0.15872,-0.77265,0.73783,0.35415
-0.15632,0.96599,-0.20595,-0.73013,0.17877,0.36467
-0.15908,0.954,-0.25411,0.03348,-0.22497,0.55696
-0.14474,0.94275,-0.30043,0.2405,-0.26327,0.65312
-0.13649,0.92882,-0.34446,0.46289,-0.25756,0.75358
-0.13889,0.91475,-0.37939,0.55848,-0.37475,0.70171
-0.13356,0.90175,-0.41111,0.24043,-0.58574,0.63079
-0.12988,0.88719,-0.44275,0.05035,-0.71009,0.80771
-0.13726,0.87449,-0.46521,-0.11965,-0.7709,0.83537
-0.15317,0.86459,-0.47855,-0.1652,-0.84943,0.7753
-0.17043,0.85762,-0.48522,-0.19631,-0.86378,0.77215
-0.18069,0.8568,-0.48295,-0.1288,-0.8788,0.79789
-0.18028,0.86385,-0.47039,-0.20072,-0.05693,0.06669
-0.16673,0.87826,-0.44816,-0.20864,0.47834,-0.78902
-0.1551,0.88977,-0.42924,0.09649,2.16876,-2.55251
-0.15566,0.87743,-0.45375,0.29255,0.19862,-0.43772
-0.17213,0.86316,-0.47468,0.26106,-0.20696,-0.19085
-0.18397,0.85586,-0.48338,-0.42742,0.04516,0.16064
-0.18631,0.8562,-0.48188,-0.83648,0.37377,0.30617
-0.17712,0.86587,-0.46786,-0.66898,1.51342,-0.44809
-0.15811,0.87015,-0.46673,-0.59369,0.30699,0.91077
-0.12428,0.86342,-0.48893,-0.84577,-1.21222,1.29952
-0.10138,0.88023,-0.46359,-0.68172,-0.79156,1.0626
-0.09191,0.91094,-0.40216,-0.56172,0.08692,1.33744
-0.09019,0.93486,-0.34336,-0.60415,0.42413,0.95829
-0.11231,0.95057,-0.28948,-0.06826,0.59599,1.14327
-0.14502,0.95931,-0.24226,0.47584,0.59338,1.06969
-0.17734,0.96332,-0.2014,0.81801,0.43423,0.14679
-0.19661,0.97001,-0.14292,0.83803,0.12687,-0.4203
-0.20239,0.9737,-0.10457,0.50198,-0.25642,-0.54547
-0.19679,0.97714,-0.08038,0.22108,-0.12825,-0.14589
-0.18602,0.9816,-0.04296,0.19253,-0.13474,-0.04265
-0.16833,0.98571,-0.00559,-0.17635,0.02782,-0.09958
-0.15719,0.98704,0.03209,-0.17682,-0.23222,0.10175
-0.15419,0.98649,0.05528,-0.02493,-0.54559,0.11994
-0.15735,0.98497,0.07113,-0.1271,-0.37979,-0.22383
-0.16546,0.98101,0.10112,-0.22115,-0.09457,-0.17594
-0.18394,0.97337,0.13675,-0.12833,0.07449,0.01286
-0.20358,0.96415,0.17017,0.10408,0.25321,-0.28609
-0.21363,0.95242,0.21736,0.14659,0.52734,-0.45394
-0.21121,0.93983,0.26852,0.21804,0.48537,-0.66913
-0.21367,0.93413,0.28588,0.57824,0.49856,-0.54572
-0.22238,0.93789,0.26627,0.58391,0.55094,-0.40224
-0.22025,0.94263,0.25087,0.49776,0.66948,-0.43509
-0.21021,0.9483,0.23775,0.37667,0.43868,-0.81935
-0.19584,0.95876,0.20594,0.34208,0.36872,-0.75356
-0.18637,0.97124,0.14815,0.0318,0.34857,-0.61989
-0.1782,0.98123,0.07365,0.02635,0.48159,0.72377
-0.1702,0.98537,-0.008,-0.05244,0.53584,0.66492
-0.15333,0.98428,-0.08757,-0.25284,0.60437,0.4708
-0.14386,0.97821,-0.14965,-0.76323,0.99693,0.29437
-0.163,0.96737,-0.19395,-0.87,0.90832,0.4562
-0.19236,0.9536,-0.23161,-0.88914,0.27026,0.3787
-0.19475,0.94273,-0.27081,-0.17555,-0.22155,0.52696
-0.1683,0.9349,-0.31247,0.16805,-0.30117,0.66513
-0.14412,0.92531,-0.35075,0.25932,-0.30814,0.7692
-0.13295,0.91255,-0.38675,0.65448,-0.46278,0.70874
-0.1261,0.89822,-0.42105,0.43697,-0.44839,0.73201
-0.12084,0.88058,-0.45822,0.20603,-0.55028,0.66406
-0.12451,0.86592,-0.48444,-0.05514,-0.69772,0.81439
-0.13686,0.85613,-0.4983,-0.10777,-0.72361,0.82716
-0.14808,0.85175,-0.50257,-0.22155,-0.75619,0.80621
-0.15461,0.85361,-0.49744,-0.2542,-0.72492,0.685
-0.15505,0.86265,-0.48145,-0.28182,-0.57221,0.56937
-0.15257,0.87939,-0.45099,-0.12859,0.5633,-1.07588
-0.15274,0.88767,-0.4344,0.22336,1.75608,-1.83785
-0.15863,0.87878,-0.45009,0.07881,0.1299,-0.44603
-0.16195,0.87134,-0.46317,-0.03302,-0.18363,-0.36918
-0.16326,0.86918,-0.46675,-0.00398,-0.47259,-0.10183
-0.16037,0.87324,-0.46014,-0.08565,-0.50611,0.00465
-0.15575,0.8847,-0.43937,-0.74282,0.04693,1.3784
-0.14172,0.89602,-0.42078,-0.77095,0.37351,0.92031
-0.13333,0.92392,-0.35859,-0.83486,2.09422,-0.94058
-0.12237,0.934,-0.33566,-0.23247,-0.02988,1.15211
-0.10224,0.93502,-0.33954,-0.38705,-0.35016,0.92015
-0.09018,0.94396,-0.31749,-0.30107,-0.34191,0.86423
-0.09685,0.95549,-0.27865,-0.13584,-0.24788,0.9265
-0.11477,0.96535,-0.23434,0.08334,0.17161,1.12351
-0.13694,0.96863,-0.20735,0.24201,0.34999,1.00914
-0.15883,0.96767,-0.1959,0.24637,0.36527,0.58251
-0.17391,0.97389,-0.14589,0.29723,0.0389,-0.76669
-0.18257,0.98164,-0.05513,0.1652,-0.14332,-0.16724
-0.17973,0.98371,-0.00088,0.09137,-0.18864,-0.26213
-0.16597,0.98573,0.02784,-0.04603,-0.16539,0.01814
-0.15499,0.9866,0.0509,-0.04541,-0.40892,0.18761
-0.15315,0.98555,0.07232,-0.02494,-0.45529,0.21496
-0.16095,0.98272,0.0914,-0.05121,-0.22625,-0.24665
-0.17455,0.97714,0.12132,-0.05771,0.01299,-0.07947
-0.19503,0.96806,0.15754,0.07734,0.1679,-0.07758
-0.21282,0.95746,0.19487,0.26802,0.34603,-0.4681
-0.21673,0.94491,0.24529,0.25561,0.5294,-0.48697
-0.2119,0.93204,0.29393,0.31964,0.5278,-0.77573
-0.21954,0.9266,0.30529,0.47662,0.50753,-0.60395
-0.23033,0.93074,0.284,0.48741,0.50339,-0.58266
-0.22783,0.93668,0.26592,0.45563,0.78698,-0.40607
-0.21657,0.94223,0.25552,0.47464,0.51186,-0.87901
-0.19837,0.95273,0.23011,0.46753,0.40399,-0.79815
-0.18507,0.96752,0.17218,0.18457,0.30703,-0.65556
-0.17487,0.97964,0.09861,-0.09875,0.55227,0.35699
-0.1658,0.98596,0.01931,0.05215,0.55496,0.83306
-0.15457,0.98596,-0.06305,-0.11002,0.61702,0.72643
-0.14566,0.97997,-0.13578,-0.7722,1.11462,0.22377
-0.15835,0.97034,-0.18264,-0.85245,0.65416,0.36105
-0.17984,0.95995,-0.21483,-0.82689,0.29071,0.43314
-0.18299,0.94942,-0.25517,-0.3898,-0.15615,0.49575
-0.16415,0.93942,-0.30088,0.15421,-0.29289,0.57003
-0.1473,0.9244,-0.35181,0.31301,-0.31147,0.72018
-0.14514,0.90586,-0.39792,0.75493,-0.34919,0.89487
-0.15171,0.89061,-0.42871,0.40618,-0.42705,0.66938
-0.15139,0.8742,-0.46136,0.17317,-0.53728,0.69177
-0.15035,0.85898,-0.48943,0.03448,-0.64911,0.79063
-0.15658,0.84907,-0.50454,-0.11681,-0.74151,0.81058
-0.16671,0.8438,-0.51011,-0.18305,-0.79144,0.8089
-0.17687,0.84465,-0.50526,-0.13598,-0.76535,0.78936
-0.18512,0.85334,-0.48737,-0.16292,-0.47918,0.58188
-0.19132,0.86992,-0.45456,-0.08659,0.09219,-0.5097
-0.18866,0.8839,-0.42794,-0.16788,1.85382,-2.54875
-0.19199,0.87444,-0.44552,0.04051,1.1184,-0.99012
-0.19958,0.86633,-0.45786,0.01128,-0.09687,-0.46466
-0.20373,0.86221,-0.46377,-0.08194,-0.39882,-0.27035
-0.20372,0.865,-0.45854,-0.49913,0.15695,0.33974
-0.19575,0.87098,-0.45064,-0.70738,0.89705,0.30905
-0.17708,0.87674,-0.44718,-0.77252,1.18387,0.16275
-0.16474,0.87536,-0.45454,-0.49361,-0.98861,1.71067
-0.15051,0.88322,-0.44415,-0.24171,-0.97731,1.51875
-0.13181,0.90454,-0.4055,-0.30487,-0.2117,1.18924
-0.12424,0.92651,-0.35517,-0.35949,0.20145,0.9475
-0.14169,0.94495,-0.29496,-0.01791,0.59406,1.19939
-0.16645,0.95473,-0.24653,0.50176,0.5045,1.01053
-0.18885,0.95733,-0.21873,0.50706,0.40328,0.67993
-0.20091,0.96501,-0.1685,0.57414,0.02598,-0.40318
-0.20338,0.9741,-0.09877,0.21444,-0.20286,-0.32874
-0.19516,0.97905,-0.0581,0.16435,-0.17689,-0.20761
-0.18084,0.98313,-0.02737,0.12415,-0.01412,-0.06113
-0.16299,0.98662,0.00044,-0.24341,-0.13299,0.11587
-0.14895,0.98846,0.02755,-0.16476,-0.30448,0.11789
-0.1445,0.98836,0.04742,-0.08674,-0.59925,0.10506
-0.14896,0.98625,0.07153,-0.35039,-0.23658,-0.21282
-0.1649,0.98049,0.10696,-0.32708,-0.12198,-0.17657
-0.19145,0.97156,0.13931,0.00233,0.09182,0.03017
-0.2151,0.96146,0.17122,0.28675,0.48784,-0.47161
-0.22297,0.94816,0.22641,0.32903,0.63362,-0.45089
-0.22039,0.93327,0.28358,0.28653,0.44081,-0.61717
-0.22654,0.92779,0.29643,0.67695,0.47576,-0.68106
-0.23313,0.9346,0.26862,0.54052,0.57814,-0.40049
-0.22379,0.9431,0.2459,0.46932,0.48747,-0.25421
-0.21077,0.9485,0.23646,0.17053,0.35922,-0.84496
-0.19409,0.95733,0.21411,0.23834,0.33091,-0.88049
-0.18579,0.96987,0.15754,0.18716,0.38296,-0.70782
-0.18112,0.98041,0.07733,0.08653,0.64862,0.46841
-0.17359,0.98476,-0.01048,0.09375,0.51546,0.81831
-0.15982,0.98267,-0.09382,-0.28165,0.5947,0.49511
-0.14958,0.9755,-0.1613,-0.69166,1.09857,0.31201
-0.16338,0.96494,-0.20542,-0.87296,0.87933,0.39139
-0.19422,0.95185,-0.23717,-0.86291,0.08829,0.40886
-0.20687,0.9377,-0.27912,-0.52334,-0.26527,0.50593
-0.18951,0.92553,-0.32782,0.01567,-0.25436,0.61359
-0.1708,0.91044,-0.37673,0.26055,-0.33571,0.80561
-0.16178,0.89313,-0.41969,0.80756,-0.28042,0.86425
-0.16605,0.87594,-0.45294,0.45801,-0.48609,0.7645
-0.16319,0.85979,-0.48386,0.26759,-0.55393,0.73682
-0.16421,0.84663,-0.5062,0.07844,-0.69621,0.84081
-0.1712,0.83924,-0.5161,-0.08091,-0.77534,0.85489
-0.18034,0.83785,-0.51524,-0.11173,-0.75828,0.81862
-0.18964,0.8439,-0.50186,-0.06767,-0.70549,0.78851
-0.19749,0.85759,-0.4749,-0.13039,-0.37749,0.59076
-0.20525,0.87615,-0.43615,-0.3079,0.2416,-0.43909
-0.20504,0.88793,-0.41175,-0.14134,2.16265,-3.05679
-0.20723,0.87238,-0.44272,-0.07233,1.16981,-0.93306
-0.20976,0.85925,-0.46656,0.0092,-0.2216,-0.25356
-0.20611,0.85434,-0.4771,0.0557,-0.52365,-0.19595
-0.19961,0.85799,-0.47329,-0.31336,-0.36045,0.337
-0.19559,0.86826,-0.45591,-0.85247,0.36088,0.75575
-0.19193,0.87957,-0.43534,-0.67259,1.26701,-0.91047
-0.17029,0.88653,-0.43019,-0.69423,1.26005,-0.91561
-0.16915,0.88503,-0.43371,-0.43783,-0.71623,1.66805
-0.15116,0.8919,-0.42622,-0.24987,-0.40613,1.05328
-0.13773,0.91052,-0.38985,-0.23708,-0.28942,1.0132
-0.14074,0.9318,-0.33455,-0.24341,0.11544,0.92043
-0.15732,0.9479,-0.27701,0.36249,0.65875,1.22336
-0.17383,0.9548,-0.24112,0.4442,0.55935,1.01241
-0.18942,0.95838,-0.21359,0.56546,0.46528,0.12568
-0.20168,0.96919,-0.14138,0.44088,-0.10454,-0.30404
-0.20132,0.97534,-0.09042,0.25551,-0.17265,-0.34414
-0.18808,0.98015,-0.06266,0.12673,-0.1628,-0.07771
-0.17134,0.98482,-0.02754,-0.15854,-0.0236,0.17297
-0.15429,0.98796,0.01103,-0.19476,-0.35384,0.03859
-0.14389,0.98846,0.04727,-0.04502,-0.54872,0.11793
-0.14447,0.98688,0.07199,-0.03183,-0.40259,-0.14496
-0.15232,0.98327,0.09986,-0.20581,-0.13558,-0.31242
-0.16767,0.97595,0.13927,-0.06214,0.01551,-0.00446
-0.18961,0.96718,0.16913,0.08445,0.16588,-0.22848
-0.20555,0.95756,0.20204,0.15587,0.43882,-0.34375
-0.20711,0.9472,0.24475,0.14989,0.44264,-0.39909
-0.20299,0.93838,0.2797,0.49706,0.42951,-0.4914
-0.21098,0.93607,0.28151,0.61987,0.47769,-0.5591
-0.21179,0.94028,0.26646,0.43834,0.58639,-0.43844
-0.20424,0.94551,0.25354,0.33319,0.77524,-0.68841
-0.19089,0.95261,0.23679,0.4404,0.40293,-0.82532
-0.17803,0.96466,0.19419,0.30996,0.40461,-0.71251
-0.16916,0.97751,0.1259,-0.10277,0.43843,-0.18031
-0.16065,0.9859,0.04666,-0.01098,0.51254,0.7334
-0.15117,0.98796,-0.03261,-0.10984,0.54811,0.66132
-0.14194,0.98409,-0.10677,-0.52571,0.7981,0.3814
-0.14589,0.97509,-0.16703,-0.88067,1.17498,0.27627
-0.17184,0.96253,-0.20975,-0.87203,0.52572,0.43402
-0.19324,0.94867,-0.25034,-0.6905,-0.00038,0.37862
-0.18888,0.93629,-0.29611,-0.11942,-0.15937,0.55324
-0.1675,0.92273,-0.34713,0.0997,-0.23172,0.6441
-0.15469,0.90171,-0.4037,0.18533,-0.22067,0.70549
-0.16537,0.87752,-0.45011,0.70946,-0.26459,0.95714
-0.17667,0.86284,-0.47359,0.43726,-0.49696,0.75474
-0.17998,0.8486,-0.49746,0.15164,-0.64043,0.76257
-0.17983,0.83807,-0.51506,0.02001,-0.67103,0.84212
-0.18372,0.83439,-0.51964,-0.08987,-0.72014,0.89687
-0.18694,0.83691,-0.51442,-0.17825,-0.76528,0.79868
-0.18764,0.84529,-0.50027,-0.1125,-0.75502,0.73315
-0.19206,0.85886,-0.47484,-0.18986,-0.05658,0.11638
-0.20229,0.87717,-0.43548,-0.10899,1.00345,-1.37883
-0.20056,0.88554,-0.41903,-0.16053,2.19145,-3.10025
-0.19895,0.87242,-0.44643,-0.04263,0.14832,-0.57168
-0.19699,0.86446,-0.46248,0.1453,-0.43093,-0.36006
-0.19661,0.86409,-0.46335,0.14335,-0.31827,-0.31665
-0.20192,0.86711,-0.45534,-0.24001,0.13784,0.55133
-0.20791,0.87415,-0.43889,-0.24238,0.52926,0.74946
-0.20025,0.88507,-0.42017,-0.29542,0.53778,1.30682
-0.16139,0.89897,-0.40719,-1.29858,0.65461,-0.58568
-0.15296,0.90516,-0.3966,-0.35783,-0.68332,1.49494
-0.13299,0.90701,-0.39955,-0.31327,-0.74138,1.1346
-0.11436,0.91999,-0.37487,-0.34698,-0.28265,0.87505
-0.11372,0.93831,-0.32655,-0.28573,0.04982,0.94909
-0.13405,0.95488,-0.265,0.0889,0.62936,1.27627
-0.16029,0.96039,-0.22793,0.34564,0.46985,0.95761
-0.18397,0.96054,-0.20858,0.48047,0.31007,0.13983
-0.19808,0.96812,-0.1533,0.60081,0.031,-0.44625
-0.20218,0.97596,-0.08137,0.2744,-0.18976,-0.32821
-0.19203,0.9803,-0.04612,0.12485,-0.1246,-0.25823
-0.17323,0.98475,-0.01604,-0.00279,-0.00629,0.28839
-0.15765,0.98742,0.0118,-0.21972,-0.2476,0.03817
-0.14599,0.98852,0.03872,-0.09815,-0.4199,0.20385
-0.14433,0.98786,0.05735,-0.23194,-0.32378,-0.19852
-0.15009,0.98498,0.08527,-0.29034,-0.2081,-0.19055
-0.16647,0.97825,0.12369,-0.21638,-0.03514,0.0012
-0.18985,0.96981,0.15301,0.13461,0.28738,-0.36323
-0.20703,0.95989,0.18904,0.18682,0.47978,-0.36789
-0.20979,0.94812,0.23882,0.30112,0.5038,-0.34963
-0.20617,0.93641,0.28394,0.59797,0.45648,-0.55806
-0.21181,0.93272,0.29181,0.68178,0.52112,-0.73043
-0.21288,0.93927,0.26914,0.58114,0.51801,-0.5958
-0.20587,0.94619,0.24964,0.33898,0.66413,-0.49561
-0.19012,0.95243,0.23816,0.2173,0.33941,-0.72047
-0.17559,0.96299,0.20447,0.19542,0.33244,-0.75947
-0.16627,0.97571,0.14262,-0.03223,0.50704,-0.39199
-0.16002,0.98522,0.061,-0.04491,0.49149,0.53525
-0.14897,0.98851,-0.02545,-0.17872,0.49054,0.67325
-0.13578,0.98512,-0.10532,-0.52497,0.77941,0.40246
-0.13741,0.97643,-0.16641,-0.71527,0.99554,0.40085
-0.16493,0.9641,-0.20808,-1.10101,0.43849,0.40779
-0.19566,0.9491,-0.24681,-0.88128,-0.03675,0.27716
-0.20451,0.93623,-0.28573,-0.28206,-0.24443,0.54484
-0.18713,0.92552,-0.32922,0.2722,-0.21394,0.73742
-0.16815,0.91066,-0.37737,0.50539,-0.2125,0.82139
-0.16999,0.89049,-0.42205,0.80466,-0.24622,0.92608
-0.16713,0.87755,-0.44941,0.22014,-0.49901,0.63655
-0.16221,0.86199,-0.48028,0.15356,-0.55891,0.6796
-0.16315,0.84921,-0.50221,0.02832,-0.6673,0.76745
-0.16891,0.84286,-0.51094,-0.08078,-0.702,0.82338
-0.17606,0.84287,-0.5085,-0.08998,-0.72135,0.80414
-0.1833,0.84895,-0.49566,-0.0653,-0.74445,0.73719
-0.19091,0.86125,-0.47095,-0.13693,-0.14556,0.31642
-0.19935,0.87789,-0.43539,-0.18727,0.67674,-1.12491
-0.20262,0.88947,-0.4096,-0.04184,1.93712,-2.71449
-0.20581,0.87467,-0.43885,-0.36041,0.48053,-0.52262
-0.20555,0.86197,-0.46342,-0.1534,-0.74388,-0.35219
-0.20077,0.86114,-0.46704,-0.15379,-0.86771,-0.33435
-0.19731,0.8677,-0.45624,-0.64058,-0.07856,0.65828
-0.20164,0.87593,-0.43827,-0.50512,0.36925,1.13742
-0.2003,0.88351,-0.42342,-0.30901,0.92272,0.5924
-0.18048,0.90268,-0.39062,-0.73716,1.01088,-0.22754
-0.17263,0.90437,-0.39027,-0.1598,-0.45297,1.53956
-0.14325,0.90756,-0.39473,-0.29651,-0.36382,0.92489
-0.12494,0.92265,-0.36482,-0.31607,-0.26703,0.92097
-0.12457,0.9426,-0.3098,-0.22044,0.05634,0.94582
-0.14006,0.95693,-0.25428,0.07725,0.44866,1.18951
-0.15809,0.96046,-0.22915,0.19749,0.36368,0.86418
-0.17517,0.95909,-0.22237,0.30511,0.2594,0.12853
-0.19297,0.96723,-0.16497,0.45778,-0.03544,-0.46588
-0.20445,0.97581,-0.0774,0.10875,-0.15427,-0.08701
-0.19819,0.97953,-0.03518,0.00854,-0.10965,-0.16012
-0.1823,0.98317,-0.01158,0.11754,-0.06816,-0.04906
-0.16526,0.98616,0.01261,-0.11367,-0.31902,0.18945
-0.1551,0.98725,0.03565,-0.06386,-0.36437,0.11022
-0.15864,0.98553,0.05957,-0.08346,-0.30502,-0.00298
-0.17128,0.98081,0.09302,-0.12373,-0.23605,-0.18721
-0.19039,0.9724,0.13484,0.02889,0.09904,-0.11937
-0.20864,0.96265,0.17254,0.14425,0.2263,-0.36928
-0.21334,0.95205,0.21927,0.22698,0.40536,-0.50045
-0.20828,0.94085,0.26721,0.20988,0.41929,-0.55858
-0.21253,0.93663,0.27846,0.5225,0.46765,-0.44771
-0.22399,0.94037,0.25599,0.50593,0.56789,-0.32746
-0.22178,0.94641,0.23474,0.39506,0.48831,-0.2467
-0.214,0.95001,0.22733,0.32655,0.55483,-0.50577
-0.20033,0.95398,0.22309,0.24794,0.36729,-0.86375
-0.18943,0.96291,0.19213,0.29484,0.43555,-0.669
-0.18748,0.9736,0.13017,0.005,0.41239,-0.17991
-0.18579,0.9813,0.05016,0.09373,0.40787,0.67553
-0.17926,0.98322,-0.03375,0.03557,0.43661,0.79947
-0.17094,0.97894,-0.11153,-0.54465,0.8237,0.5854
-0.17091,0.96878,-0.17959,-0.96583,0.99344,0.18621
-0.19403,0.9559,-0.22045,-0.97934,0.64136,0.21084
-0.21878,0.94439,-0.24546,-0.84545,-0.00242,0.4043
-0.2187,0.93441,-0.28113,0.04202,-0.20167,0.42643
-0.20301,0.92155,-0.33094,0.11627,-0.1904,0.54381
-0.19325,0.90471,-0.37966,0.5116,-0.23022,0.75282
-0.19085,0.8888,-0.41666,0.64394,-0.22173,0.67722
-0.18992,0.87153,-0.45207,0.32644,-0.37635,0.6611
-0.19149,0.85206,-0.48715,0.16314,-0.5491,0.72395
-0.19522,0.83758,-0.51024,-0.03622,-0.66717,0.80924
-0.20336,0.8293,-0.52049,-0.15179,-0.70353,0.80203
-0.21424,0.82633,-0.52084,-0.1822,-0.74917,0.79298
-0.22274,0.83054,-0.51047,-0.12379,-0.63061,0.67788
-0.22812,0.84173,-0.48933,-0.12731,-0.28751,0.36977
-0.23185,0.85954,-0.45544,-0.19982,0.01965,-0.15328
-0.23456,0.87289,-0.42782,-0.21313,1.95218,-2.35926
-0.23697,0.8628,-0.44655,-0.17324,1.72963,-1.69833
-0.23859,0.85386,-0.46258,-0.09976,-0.26439,-0.43399
-0.23865,0.85096,-0.46788,-0.27858,-0.19485,-0.33891
-0.24288,0.85326,-0.46146,-0.56692,0.27638,0.53049
-0.24497,0.85607,-0.45511,-0.46384,0.75845,0.25266
-0.23599,0.86092,-0.45069,-0.25638,0.76971,0.64867
-0.2093,0.85997,-0.46544,-0.40795,-0.84055,1.45755
-0.19259,0.87112,-0.45173,-0.2704,-0.88343,1.51516
-0.16769,0.89241,-0.41891,-0.25608,-0.40545,1.03241
-0.15205,0.91613,-0.37091,-0.32152,-0.05222,0.83223
-0.15823,0.93761,-0.30957,-0.19398,0.57888,1.08995
-0.17721,0.94746,-0.2663,0.07737,0.79253,1.28081
-0.1929,0.95027,-0.24447,0.39081,0.41884,0.65109
-0.20544,0.9581,-0.19959,0.95381,0.21504,-0.76704
-0.2189,0.96785,-0.12385,0.56088,-0.14011,-0.17246
-0.21618,0.97218,-0.09018,0.10743,-0.12212,-0.07915
-0.20199,0.97688,-0.06995,0.12782,-0.05969,0.03768
-0.18354,0.98218,-0.04045,0.09104,0.06542,0.12297
-0.16451,0.98636,-0.00451,-0.30358,-0.19287,0.09287
-0.1565,0.98705,0.03503,-0.26116,-0.48339,0.20457
-0.15796,0.98521,0.06634,-0.10811,-0.35835,-0.09467
-0.16809,0.98123,0.0945,-0.17624,-0.20539,-0.19018
-0.18584,0.97438,0.12666,-0.15493,-0.1239,-0.16789
-0.20803,0.96574,0.1551,0.20138,0.32038,-0.32052
-0.22108,0.95596,0.19301,0.23463,0.47953,-0.43947
-0.22043,0.94356,0.24715,0.26929,0.49043,-0.48476
-0.21275,0.933,0.29023,0.46668,0.48762,-0.76212
-0.21895,0.9328,0.28624,0.53617,0.51344,-0.637
-0.22322,0.93949,0.25983,0.50834,0.53919,-0.4414
-0.21438,0.94642,0.24148,0.34618,0.50226,-0.73261
-0.19753,0.955,0.22126,0.25836,0.31637,-0.81246
-0.18546,0.96698,0.17477,0.08597,0.30809,-0.76038
-0.18177,0.9782,0.10036,0.01059,0.63281,0.27986
-0.17723,0.98401,0.01736,0.14952,0.62379,0.75644
-0.1686,0.98345,-0.06634,-0.04119,0.57849,0.76815
-0.15988,0.97731,-0.13892,-0.67027,0.99431,0.3684
-0.16655,0.96743,-0.19061,-0.86998,0.91732,0.33656
-0.19081,0.95599,-0.22284,-0.84703,0.52223,0.41694
-0.20956,0.94325,-0.25761,-0.57094,-0.21981,0.38454
-0.20521,0.93025,-0.30416,-0.06117,-0.27216,0.51847
-0.18566,0.91715,-0.35266,0.15557,-0.24303,0.72045
-0.17662,0.89596,-0.4075,0.63952,-0.22177,0.87594
-0.19159,0.87021,-0.45389,0.62611,-0.44107,0.90456
-0.1996,0.85271,-0.48274,0.31821,-0.52375,0.7206
-0.20178,0.83529,-0.51144,0.09985,-0.69294,0.7774
-0.2055,0.82429,-0.52756,-0.03396,-0.71447,0.86759
-0.21246,0.8204,-0.53085,-0.05397,-0.70101,0.88786
-0.21838,0.82355,-0.52353,-0.10527,-0.73178,0.79292
-0.22124,0.83362,-0.50608,-0.15034,-0.58134,0.62956
-0.22532,0.84855,-0.47874,-0.24928,0.03586,-0.134
-0.23702,0.86603,-0.44024,0.03696,1.29671,-1.67711
-0.24464,0.86041,-0.44704,-0.14653,1.95444,-1.70849
-0.24924,0.84407,-0.47479,-0.15713,0.1245,-0.57598
-0.24623,0.83369,-0.49429,-0.21972,-0.6897,-0.47025
-0.24543,0.8355,-0.49164,-0.47487,0.01296,-0.11383
-0.24783,0.84224,-0.47876,-0.68532,0.43926,0.45106
-0.24889,0.84481,-0.47365,-0.28177,1.45475,0.2641
-0.22873,0.83172,-0.50589,-0.65809,-1.13032,1.3513
-0.21403,0.83709,-0.50345,-0.50314,-1.23222,1.72168
-0.1972,0.86508,-0.46124,-0.20958,-0.59398,1.12502
-0.18407,0.89423,-0.40801,-0.28674,0.19148,1.14881
-0.17801,0.9159,-0.35978,-0.28113,0.76205,1.09885
-0.18557,0.92984,-0.31775,0.30923,0.86628,1.21504
-0.19304,0.93935,-0.28347,0.51093,0.56575,0.81371
-0.20091,0.95129,-0.23383,1.05322,0.26467,-0.61207
-0.21434,0.96281,-0.16448,0.71279,-0.13029,-0.28476
-0.21516,0.96796,-0.12939,0.26678,-0.17779,-0.20031
-0.20182,0.97375,-0.10519,0.17585,-0.09607,0.10841
-0.18637,0.97976,-0.07302,-0.14348,-0.09449,0.26311
-0.16753,0.98506,-0.03974,-0.21136,-0.09093,0.11629
-0.15353,0.98814,-0.00212,-0.25577,-0.31962,0.11025
-0.1499,0.98819,0.03158,-0.19187,-0.34214,0.01624
-0.15315,0.98621,0.0627,-0.20151,-0.24378,-0.16213
-0.16628,0.98104,0.09956,-0.16032,-0.15822,-0.18067
-0.18823,0.97333,0.1311,0.1039,0.01223,-0.02952
-0.20894,0.96532,0.15651,0.18494,0.18202,-0.20519
-0.21708,0.95618,0.19645,0.24452,0.57553,-0.36557
-0.21183,0.94544,0.24752,0.17819,0.45138,-0.68783
-0.20976,0.93862,0.27383,0.34518,0.48327,-0.73892
-0.22451,0.94061,0.25462,0.6408,0.55537,-0.50412
-0.23042,0.9463,0.22676,0.80967,0.72764,-0.2272
-0.21782,0.9522,0.21416,0.69607,0.63441,-0.43898
-0.19397,0.96025,0.20075,0.06222,0.39023,-0.73056
-0.17683,0.97154,0.15759,-0.20977,0.40456,-0.71003
-0.16972,0.98133,0.09039,-0.18852,0.49906,-0.32612
-0.16934,0.98552,0.00802,0.08551,0.44301,0.73862
-0.16183,0.98344,-0.08156,-0.25094,0.64707,0.54674
-0.14992,0.97608,-0.15745,-0.64336,0.9075,0.38898
-0.15669,0.96514,-0.20963,-0.86482,0.67672,0.45083
-0.1842,0.95132,-0.24709,-0.81315,0.16571,0.32076
-0.20553,0.93784,-0.27965,-0.68797,-0.05013,0.38079
-0.19973,0.92633,-0.3194,0.10242,-0.25436,0.54502
-0.1797,0.91304,-0.36614,0.44323,-0.13823,0.7089
-0.17769,0.88973,-0.42047,0.82948,-0.24168,0.87584
-0.17996,0.87041,-0.45825,0.39104,-0.33116,0.72261
-0.17753,0.85147,-0.49343,0.15462,-0.5161,0.70368
-0.17849,0.83295,-0.52377,0.02153,-0.63382,0.7888
-0.1825,0.82164,-0.53999,-0.0451,-0.63178,0.87393
-0.18812,0.81738,-0.54451,-0.15159,-0.69437,0.85929
-0.19312,0.81949,-0.53958,-0.12272,-0.68025,0.73633
-0.19513,0.82949,-0.52332,-0.11326,-0.58363,0.64582
-0.19593,0.84743,-0.49344,-0.19189,-0.14407,0.10322
-0.19815,0.86957,-0.45231,-0.14179,2.03497,-2.5362
-0.1968,0.86658,-0.4586,-0.20168,2.04024,-2.02726
-0.20296,0.85171,-0.48311,-0.07908,0.28045,-0.66209
-0.20452,0.84343,-0.49679,-0.06249,-0.44852,-0.44201
-0.20764,0.84293,-0.49634,-0.03774,-0.4187,-0.3865
-0.21302,0.84815,-0.48504,-0.32094,0.27029,0.64334
-0.21313,0.85591,-0.47115,-0.49143,0.77367,0.89416
-0.18787,0.8648,-0.46565,-0.53497,0.79153,0.14342
-0.16917,0.87448,-0.4546,-0.98158,0.83434,-0.87195
-0.15274,0.88125,-0.44728,-0.28204,-0.76472,1.5031
-0.12782,0.8971,-0.42293,-0.30783,-0.43098,0.91963
-0.11583,0.91858,-0.37789,-0.27771,-0.23687,0.89208
-0.13029,0.94138,-0.31117,-0.1851,0.39807,1.08671
-0.15365,0.95423,-0.25657,0.34704,0.66677,1.30952
-0.17272,0.95747,-0.23111,0.47968,0.39405,0.81832
-0.18893,0.96079,-0.20293,0.83564,0.34332,-0.74521
-0.1975,0.9708,-0.13615,0.54248,-0.08271,-0.356
-0.19431,0.97598,-0.09848,0.19245,-0.19009,-0.20704
-0.1821,0.98042,-0.07493,0.06715,-0.12469,-0.0339
-0.16625,0.98523,-0.04089,-0.03321,0.02081,0.10878
-0.15175,0.98841,-0.00431,-0.20132,-0.42723,0.22805
-0.14241,0.98952,0.02363,-0.18354,-0.45527,0.07051
-0.14437,0.98822,0.05061,-0.09473,-0.38279,0.07071
-0.15578,0.98452,0.08029,-0.15429,-0.14953,-0.21426
-0.173,0.97765,0.11943,-0.09753,-0.04557,-0.13162
-0.19297,0.96936,0.15194,0.07644,0.12272,-0.1288
-0.20524,0.9598,0.19143,0.22599,0.47536,-0.33296
-0.20283,0.94955,0.23916,0.23144,0.4659,-0.3643
-0.19567,0.94129,0.27511,0.30001,0.45024,-0.55932
-0.20478,0.94069,0.27049,0.47263,0.5148,-0.54371
-0.20778,0.9463,0.24766,0.44391,0.52914,-0.35559
-0.20175,0.95126,0.23323,0.37435,0.61596,-0.49991
-0.1855,0.95643,0.22542,0.32031,0.30109,-0.7821
-0.16857,0.96671,0.19246,0.30361,0.38932,-0.68959
-0.16083,0.97814,0.13181,-0.13678,0.38972,-0.44722
-0.15794,0.98617,0.0501,0.01954,0.54709,0.56048
-0.15494,0.9872,-0.03763,0.06246,0.53613,0.76435
-0.14708,0.98166,-0.12128,-0.36025,0.68227,0.51767
-0.14361,0.97157,-0.18821,-0.76213,0.99439,0.38807
-0.15975,0.95983,-0.23066,-0.83711,0.48849,0.38639
-0.18231,0.94849,-0.25908,-0.74936,-0.04903,0.40184
-0.18976,0.93701,-0.29324,-0.28885,-0.20384,0.48924
-0.17966,0.92362,-0.33859,0.13587,-0.16605,0.54528
-0.17404,0.90139,-0.39649,0.43878,-0.13886,0.592
-0.18991,0.87116,-0.45278,0.73875,-0.19722,0.90215
-0.19822,0.85085,-0.48658,0.45945,-0.37027,0.83114
-0.19931,0.834,-0.5145,0.16364,-0.52043,0.76314
-0.19681,0.82067,-0.53643,-0.00343,-0.57211,0.77461
-0.19893,0.8135,-0.54648,-0.19329,-0.71872,0.83741
-0.2029,0.81227,-0.54686,-0.22473,-0.7535,0.79002
-0.20489,0.81769,-0.53795,-0.22357,-0.76351,0.76528
-0.20557,0.83106,-0.51679,-0.19636,-0.46073,0.54022
-0.21245,0.85014,-0.4818,-0.11597,0.1637,-0.37414
-0.218,0.86485,-0.45222,0.0485,0.67726,-0.95059
-0.22148,0.85124,-0.47574,0.00383,1.4841,-1.44079
-0.22543,0.83835,-0.49634,-0.0036,-0.00799,-0.45554
-0.22449,0.83433,-0.50349,-0.15532,-0.37525,-0.45119
-0.22995,0.83888,-0.49336,-0.28376,0.08944,0.15962
-0.23085,0.84631,-0.48006,-0.60271,0.6601,0.43897
-0.22551,0.85351,-0.46974,-0.18017,0.89612,0.87651
-0.186,0.85077,-0.49151,-0.91805,-0.53615,0.45059
-0.16524,0.86442,-0.47484,-0.69539,-0.82399,1.34294
-0.14187,0.88784,-0.43773,-0.29581,-0.34962,1.01526
-0.12509,0.91272,-0.38896,-0.33484,-0.07792,0.9202
-0.12591,0.9355,-0.33012,-0.20179,0.42032,0.91019
-0.1479,0.95,-0.27498,0.30186,0.64619,1.19592
-0.17096,0.95499,-0.24241,0.43362,0.48971,0.99879
-0.18929,0.95727,-0.21862,0.52999,0.27779,0.37481
-0.2018,0.96603,-0.16142,0.53863,-0.05864,-0.29704
-0.20475,0.9714,-0.12024,0.22735,-0.16334,-0.28989
-0.19725,0.97581,-0.09424,0.16057,-0.10891,-0.13207
-0.18362,0.98072,-0.06688,0.04067,0.01776,0.18141
-0.1665,0.98537,-0.03638,-0.10956,-0.1423,0.15371
-0.15245,0.9883,-0.00422,-0.16152,-0.31713,0.10816
-0.14747,0.98872,0.02614,-0.15395,-0.39227,0.19528
-0.15069,0.98702,0.05538,-0.13471,-0.27142,-0.16816
-0.16171,0.98236,0.09383,-0.13198,-0.10958,-0.24909
-0.18034,0.97551,0.12586,0.09771,0.01403,-0.0803
-0.19783,0.968,0.15438,0.17397,0.27025,-0.35602
-0.20442,0.95938,0.19442,0.13136,0.41393,-0.28634
-0.20027,0.95092,0.23586,0.10646,0.46157,-0.43407
-0.20094,0.94486,0.25856,0.49168,0.52064,-0.45067
-0.20956,0.94552,0.24915,0.55818,0.53607,-0.44249
-0.20614,0.95048,0.23257,0.49697,0.66717,-0.27838
-0.19591,0.95517,0.22194,0.27034,0.56334,-0.68164
-0.17948,0.96223,0.20465,0.13754,0.412,-0.75253
-0.17242,0.97218,0.15854,-0.03736,0.32526,-0.71188
-0.17443,0.981,0.08492,-0.08245,0.41369,-0.08327
-0.17564,0.98445,-0.00285,0.22508,0.46456,0.76659
-0.17067,0.98096,-0.09262,-0.0443,0.54162,0.75626
-0.16301,0.97182,-0.17022,-0.51986,0.81728,0.52818
-0.17038,0.96003,-0.22204,-0.74728,0.78171,0.28931
-0.19272,0.949,-0.24951,-0.83334,0.28316,0.43727
-0.20919,0.93651,-0.28138,-0.70024,-0.11446,0.39235
-0.19923,0.92455,-0.3248,-0.09625,-0.20703,0.54664
-0.17755,0.91063,-0.37312,0.20751,-0.23862,0.65228
-0.18033,0.88353,-0.43226,0.67169,-0.14719,0.6718
-0.19771,0.85948,-0.47138,0.72856,-0.28044,0.89478
-0.20071,0.84368,-0.49792,0.33302,-0.40879,0.69321
-0.19938,0.82906,-0.5224,0.0241,-0.63196,0.81876
-0.2011,0.81952,-0.5366,-0.03766,-0.62464,0.86306
-0.20419,0.81677,-0.53962,-0.09787,-0.64076,0.87757
-0.20739,0.81947,-0.53428,-0.17174,-0.69915,0.7425
-0.2084,0.82892,-0.51909,-0.11157,-0.65124,0.69861
-0.20961,0.84643,-0.4895,-0.14921,-0.486,0.57292
-0.21108,0.86689,-0.4516,-0.12106,0.83843,-1.16188
-0.20486,0.86091,-0.46569,-0.18114,2.13479,-2.40797
-0.20311,0.8474,-0.49057,0.05365,-0.27794,-0.52433
-0.20286,0.84364,-0.4971,-0.02015,-0.50215,-0.17117
-0.2064,0.84878,-0.48679,-0.24941,-0.01944,0.45965
-0.20576,0.85653,-0.47331,-0.30603,0.73509,0.50866
-0.19328,0.86747,-0.4584,-0.27141,0.47552,0.83996
-0.15579,0.87718,-0.45418,-1.1137,0.45088,-0.91671
-0.14672,0.8863,-0.43925,-0.4544,-0.65705,1.65722
-0.13108,0.89562,-0.42506,-0.33213,-0.69767,1.37329
-0.11425,0.91292,-0.39182,-0.29909,-0.21614,0.73757
-0.11916,0.9345,-0.33542,-0.24243,0.32182,0.9169
-0.14779,0.94944,-0.27697,0.01989,0.59795,1.21594
-0.17586,0.95453,-0.24071,0.50148,0.37459,1.02767
-0.19603,0.95564,-0.21979,0.51093,0.22247,0.44176
-0.20051,0.96429,-0.17299,0.50528,0.05383,-0.58014
-0.19535,0.97531,-0.10292,0.1612,-0.06946,-0.2808
-0.18398,0.98064,-0.06702,0.03708,-0.08438,-0.22965
-0.16934,0.98481,-0.0382,-0.05466,0.03135,0.17408
-0.15496,0.98788,-0.00805,-0.25603,-0.19575,0.20606
-0.14617,0.9891,0.01775,-0.10064,-0.48864,0.07524
-0.14565,0.98851,0.0402,-0.01235,-0.53493,0.10004
-0.15309,0.98653,0.05762,-0.09938,-0.24998,-0.11417
-0.16726,0.98219,0.08551,-0.12997,-0.00545,0.00216
-0.18791,0.97524,0.11656,-0.0073,0.17327,-0.04549
-0.20497,0.96677,0.15275,0.16006,0.40957,-0.43179
-0.20712,0.9559,0.20818,0.198,0.45618,-0.37702
-0.19615,0.94365,0.26655,0.50191,0.47974,-0.79221
-0.19658,0.93704,0.2886,0.58139,0.46921,-0.8417
-0.2029,0.94307,0.26352,0.44762,0.60332,-0.59793
-0.2003,0.95118,0.2348,0.44623,0.7789,-0.38928
-0.18765,0.95846,0.21478,0.28998,0.34481,-0.64518
-0.17248,0.96812,0.1816,0.17291,0.30588,-0.81507
-0.166,0.97913,0.11725,-0.10141,0.43164,-0.35217
-0.16361,0.98594,0.03399,0.10907,0.64201,0.60953
-0.15882,0.98601,-0.05059,0.06623,0.58167,0.76403
-0.15235,0.98001,-0.12793,-0.32683,0.72872,0.6499
-0.15511,0.96855,-0.19453,-0.68061,0.97214,0.41995
-0.17909,0.95535,-0.23499,-0.79747,0.49564,0.30904
-0.20433,0.94269,-0.26376,-0.67704,-0.02958,0.4995
-0.20793,0.9308,-0.30062,-0.39647,-0.28778,0.55936
-0.19319,0.91818,-0.34587,0.04306,-0.22923,0.57151
-0.17933,0.89803,-0.40172,0.24634,-0.25402,0.67067
-0.19203,0.86882,-0.45638,0.69947,-0.17645,0.92089
-0.20129,0.85169,-0.48384,0.54821,-0.2846,0.80327
-0.20431,0.83445,-0.51181,0.09784,-0.52151,0.78422
-0.20787,0.82024,-0.53291,0.00836,-0.56476,0.82099
-0.21333,0.81318,-0.54149,-0.12445,-0.64776,0.88329
-0.21813,0.81392,-0.53847,-0.12089,-0.70242,0.7972
-0.22095,0.82266,-0.52384,-0.06342,-0.63223,0.71734
-0.22285,0.83858,-0.4971,-0.17375,-0.19808,0.26161
-0.23036,0.85764,-0.45976,-0.09034,0.58794,-0.98597
-0.23293,0.86806,-0.43843,-0.12932,1.53351,-2.2428
-0.23461,0.85403,-0.46431,0.04144,0.62345,-0.62315
-0.23186,0.84507,-0.48175,-0.01334,-0.30894,-0.3623
-0.22883,0.84421,-0.48471,-0.21114,-0.14519,-0.02907
-0.23613,0.84774,-0.47494,-0.5444,0.09655,0.65095
-0.23797,0.85268,-0.46509,-0.47231,0.20993,0.84872
-0.23379,0.86467,-0.44462,-0.28286,0.57074,0.8155
-0.1938,0.87483,-0.44397,-0.78065,0.51438,-0.62459
-0.17609,0.88909,-0.42251,-0.47423,-0.53392,1.4553
-0.15439,0.90243,-0.40223,-0.24159,-0.47457,1.09417
-0.13315,0.92042,-0.36755,-0.30192,-0.19244,0.81469
-0.13115,0.93922,-0.31726,-0.19534,0.0845,0.77942
-0.14698,0.95373,-0.26229,0.09167,0.51048,1.05001
-0.16609,0.95886,-0.23022,0.38545,0.37189,0.88142
-0.18235,0.95933,-0.21548,0.46319,0.25813,0.28601
-0.18938,0.96662,-0.17258,0.66315,0.00824,-0.43447
-0.18961,0.97506,-0.11533,0.33608,-0.08523,-0.18489
-0.18011,0.98012,-0.08319,0.15951,-0.10866,-0.14615
-0.16754,0.98441,-0.05355,0.09472,0.04034,0.08614
-0.15445,0.98774,-0.02244,-0.18411,-0.18359,0.28841
-0.14232,0.98981,0.00324,-0.16031,-0.41068,0.15429
-0.13947,0.98973,0.03118,-0.12808,-0.41151,0.12106
-0.14516,0.98761,0.05956,-0.1391,-0.18101,-0.15269
-0.16136,0.98253,0.09262,-0.05234,-0.04804,-0.10038
-0.18179,0.97555,0.12351,0.09349,0.08906,-0.12823
-0.19605,0.96733,0.16071,0.16294,0.36145,-0.3303
-0.197,0.95751,0.21063,0.13241,0.46705,-0.31686
-0.18755,0.94686,0.2613,0.20064,0.37873,-0.64234
-0.19209,0.9423,0.27417,0.45978,0.41552,-0.60664
-0.20042,0.94729,0.24992,0.46286,0.49514,-0.39344
-0.19756,0.95311,0.22922,0.43529,0.65587,-0.14041
-0.18492,0.95794,0.21941,0.2891,0.47338,-0.61045
-0.16718,0.96557,0.19929,0.09882,0.38821,-0.7629
-0.15761,0.97624,0.14865,-0.01825,0.37796,-0.69661
-0.15692,0.98484,0.07386,-0.11417,0.41833,-0.43854
-0.15895,0.98726,-0.00712,0.13243,0.4674,0.72591
-0.1586,0.98343,-0.08778,0.01382,0.48619,0.66581
-0.15833,0.97377,-0.16338,-0.61323,0.94156,0.45857
-0.17328,0.96052,-0.21763,-0.7554,0.85568,0.25495
-0.19844,0.94892,-0.24529,-0.68921,0.08847,0.43932
-0.2102,0.93759,-0.27699,-0.28031,-0.16397,0.50049
-0.19685,0.92545,-0.3237,-0.00196,-0.2174,0.50316
-0.17525,0.9094,-0.37719,0.18548,-0.1972,0.66795
-0.17603,0.88187,-0.4374,0.62189,-0.27043,0.86017
-0.19402,0.85766,-0.4762,0.64545,-0.32965,0.92382
-0.19867,0.84174,-0.50199,0.35763,-0.36922,0.68826
-0.197,0.82576,-0.5285,0.05227,-0.63667,0.73776
-0.19567,0.81527,-0.54502,-0.04158,-0.58349,0.84762
-0.19795,0.81212,-0.54889,-0.09772,-0.58049,0.84923
-0.20117,0.81553,-0.54262,-0.15564,-0.67922,0.78837
-0.20246,0.82591,-0.52618,-0.13439,-0.52554,0.59604
-0.20561,0.84195,-0.49883,-0.21762,-0.0118,-0.00717
-0.21171,0.86236,-0.4599,-0.03765,1.13253,-1.53589
-0.21383,0.86142,-0.46069,-0.01437,1.7433,-1.89851
-0.22414,0.84739,-0.48134,-0.02217,0.24719,-0.55259
-0.22671,0.84113,-0.49103,-0.06481,-0.42834,-0.34419
-0.22861,0.84318,-0.4866,-0.11246,-0.3142,0.1125
-0.2338,0.85038,-0.47136,-0.41161,0.08868,0.83321
-0.23051,0.86092,-0.45351,-0.32667,0.50494,0.91881
-0.20098,0.87358,-0.44324,-0.48556,0.87466,0.16737
-0.17722,0.88912,-0.42197,-0.94449,0.2312,0.0174
-0.1709,0.89199,-0.4185,-0.16083,-0.66208,1.51172
-0.14689,0.8996,-0.41127,-0.24204,-0.41124,0.96582
-0.13126,0.91874,-0.37241,-0.27713,-0.12046,0.89401
-0.13766,0.93959,-0.3134,-0.02715,0.33761,1.04112
-0.15419,0.95106,-0.26778,0.36704,0.48718,1.08951
-0.17262,0.95461,-0.24273,0.44652,0.34883,0.69508
-0.18764,0.95974,-0.209,0.73936,0.18713,-0.69815
-0.19466,0.97062,-0.14142,0.29373,-0.07091,-0.33226
-0.1924,0.97583,-0.10357,0.11987,-0.16965,-0.25906
-0.1843,0.97944,-0.08196,0.12656,-0.15699,-0.03045
-0.16918,0.98422,-0.05172,-0.11209,-0.08653,0.26406
-0.15229,0.98807,-0.0226,-0.21222,-0.27011,0.28975
-0.14164,0.9899,0.00508,-0.21514,-0.34465,0.11714
-0.14328,0.98921,0.03052,-0.1127,-0.31295,0.07507
-0.15418,0.9864,0.05685,-0.10705,-0.18612,-0.14882
-0.17247,0.98068,0.09223,-0.09282,-0.12775,-0.16581
-0.19173,0.97325,0.1265,0.08948,0.13937,-0.14338
-0.20258,0.96466,0.16844,0.17506,0.39561,-0.3446
-0.20125,0.95479,0.21877,0.20688,0.42351,-0.51966
-0.19385,0.94587,0.26025,0.29253,0.43489,-0.67761
-0.19979,0.94513,0.25846,0.49592,0.51099,-0.55683
-0.20229,0.95118,0.23306,0.43995,0.58045,-0.43118
-0.19438,0.95671,0.2166,0.24107,0.47789,-0.60966
-0.18183,0.96275,0.20008,0.23912,0.32664,-0.87497
-0.17464,0.97196,0.15744,0.11486,0.31938,-0.68474
-0.17279,0.98118,0.08616,0.01725,0.40176,-0.37141
-0.16925,0.98556,0.00262,0.26468,0.58379,0.84246
-0.16459,0.98316,-0.07938,0.00349,0.58062,0.69692
-0.16085,0.97459,-0.15587,-0.41045,0.90594,0.71835
-0.1694,0.96038,-0.2213,-0.60564,1.08036,0.57809
-0.19753,0.94701,-0.25328,-0.84988,0.29492,0.38156
-0.21894,0.93575,-0.27644,-0.66167,-0.15904,0.40109
-0.20825,0.92444,-0.31944,-0.068,-0.13265,0.50134
-0.17943,0.91135,-0.37047,0.03917,-0.20062,0.66838
-0.1652,0.88749,-0.43019,0.43575,-0.2743,0.76399
-0.1854,0.85502,-0.48431,0.69964,-0.28965,0.89933
-0.20326,0.83595,-0.50976,0.44444,-0.36099,0.81639
-0.20667,0.81917,-0.53502,0.14666,-0.52694,0.75738
-0.20963,0.80607,-0.55345,-0.02217,-0.57516,0.82677
-0.21653,0.79978,-0.55987,-0.11073,-0.60243,0.87535
-0.22268,0.8005,-0.55642,-0.17666,-0.64607,0.82873
-0.22502,0.80907,-0.54293,-0.20134,-0.62689,0.75723
-0.22713,0.82489,-0.51765,-0.26799,-0.27172,0.29903
-0.2365,0.84489,-0.47982,-0.05918,0.46051,-0.84605
-0.23779,0.85189,-0.46662,-0.02037,2.203,-2.59647
-0.24386,0.83337,-0.496,-0.06909,0.76112,-0.667
-0.24504,0.82129,-0.51521,-0.05008,-0.36081,-0.28551
-0.24477,0.81748,-0.52135,-0.30173,-0.33073,-0.33235
-0.25245,0.82252,-0.50963,-0.30656,-0.02174,-0.07046
-0.25806,0.82775,-0.49823,-0.1932,1.21608,0.57074
-0.25047,0.83303,-0.49329,-0.0328,0.86027,1.00624
-0.21206,0.83247,-0.51188,-0.20465,0.27184,0.63949
-0.18916,0.84896,-0.49343,-0.43165,-0.62002,1.18172
-0.16661,0.8753,-0.45398,-0.3763,-0.41112,1.01361
-0.15124,0.90137,-0.40578,-0.38116,-0.15296,1.02495
-0.15371,0.92467,-0.34837,-0.26429,0.30338,0.89831
-0.17285,0.94288,-0.28477,0.23041,0.70522,1.28202
-0.19021,0.95191,-0.24018,0.42664,0.61183,1.13781
-0.20083,0.95762,-0.20645,0.89197,0.28444,-0.23628
-0.20438,0.96626,-0.15673,0.61051,0.04709,-0.49082
-0.20257,0.9712,-0.12542,0.45213,-0.07545,-0.43718
-0.19688,0.97561,-0.097,0.16508,-0.07594,-0.10949
-0.18746,0.9804,-0.06054,-0.11413,-0.00416,0.2526
-0.17386,0.98436,-0.02822,-0.13316,-0.15517,0.01851
-0.16341,0.98655,0.0003,-0.08925,-0.20808,0.04987
-0.1598,0.98688,0.02296,0.02006,-0.3649,0.08068
-0.16246,0.98588,0.04046,-0.03418,-0.21183,-0.17713
-0.16872,0.98309,0.07116,-0.04363,-0.08541,-0.24398
-0.18027,0.97764,0.10825,-0.03309,-0.01372,-0.0165
-0.19225,0.97053,0.14528,0.0342,0.25215,-0.29173
-0.19489,0.9626,0.18815,0.02872,0.31779,-0.32961
-0.18819,0.95542,0.22748,-0.02333,0.31655,-0.47194
-0.19123,0.95206,0.23876,0.49491,0.53751,-0.35387
-0.20047,0.95476,0.21962,0.54451,0.52612,-0.25375
-0.19733,0.95939,0.20155,0.5127,0.50527,-0.13503
-0.1878,0.96266,0.19497,0.20939,0.41466,-0.63375
-0.17386,0.96691,0.18668,0.1832,0.42129,-0.80246
-0.1648,0.97468,0.15111,0.15943,0.41851,-0.72641
-0.16575,0.98246,0.08539,-0.00559,0.41087,-0.17267
-0.16531,0.98623,0.00452,0.16396,0.42716,0.63972
-0.16306,0.98354,-0.07777,0.03046,0.49743,0.74342
-0.16228,0.9751,-0.15113,-0.43511,0.73427,0.64885
-0.17428,0.96291,-0.20598,-0.80222,0.79794,0.27202
-0.19883,0.95194,-0.23297,-0.83747,0.50607,0.28972
-0.21363,0.94009,-0.26568,-0.61267,-0.00567,0.35969
-0.198,0.93025,-0.3089,-0.1077,-0.12557,0.54986
-0.16988,0.91825,-0.35771,0.22268,-0.17369,0.67967
-0.17149,0.89476,-0.4123,0.70123,-0.20283,0.76731
-0.17908,0.87594,-0.44794,0.50594,-0.19683,0.69798
-0.16919,0.85961,-0.48212,0.15465,-0.43003,0.57831
-0.16169,0.84379,-0.51173,0.04572,-0.53155,0.72675
-0.16149,0.83185,-0.53099,-0.10725,-0.62309,0.80462
-0.16702,0.82437,-0.54085,-0.1366,-0.6331,0.78871
-0.17359,0.82274,-0.54126,-0.16229,-0.65777,0.77069
-0.17798,0.82757,-0.53239,-0.12686,-0.65878,0.68222
-0.17986,0.8389,-0.5137,-0.05482,-0.44703,0.48207
-0.1832,0.85477,-0.4856,-0.02105,-0.23022,0.12659
-0.18732,0.85986,-0.47492,0.10397,2.11977,-1.84845
-0.20226,0.84393,-0.49686,0.06269,1.00278,-0.94337
-0.21225,0.82986,-0.51602,-0.06195,-0.24068,-0.28717
-0.21414,0.82609,-0.52127,-0.58072,0.24102,-0.19493
-0.21302,0.83243,-0.51154,-0.76391,0.67131,0.26687
-0.20329,0.83633,-0.50914,-0.71489,1.75414,-0.58173
-0.19306,0.82052,-0.53802,-0.11641,-0.21487,1.59016
-0.16064,0.81437,-0.55766,-0.48278,-1.60923,1.80608
-0.12166,0.8411,-0.52701,-0.54557,-0.55715,0.70561
-0.10184,0.88603,-0.45231,-0.43971,0.06193,1.2931
-0.08662,0.91869,-0.38536,-0.65151,0.52479,1.10285
-0.08884,0.93813,-0.33467,-0.07463,0.90996,1.086
-0.10797,0.94903,-0.29612,0.22092,0.78913,0.97617
-0.13349,0.95845,-0.25208,0.71835,0.41325,0.13316
-0.15337,0.9713,-0.1818,0.92256,-0.08665,-0.06634
-0.16335,0.97502,-0.15047,0.58134,-0.12,-0.22423
-0.16661,0.97691,-0.13371,0.20686,-0.07783,-0.21854
-0.17075,0.97956,-0.10626,0.06774,-0.17275,0.14122
-0.16734,0.98288,-0.07701,-0.05641,-0.23952,0.38231
-0.1612,0.98588,-0.04525,-0.03118,-0.02426,-0.09387
-0.15489,0.98789,-0.00899,-0.01482,-0.32797,0.09469
-0.15067,0.98844,0.0164,-0.00237,-0.39179,0.11643
-0.15073,0.98799,0.03382,-0.00922,-0.33183,0.15032
-0.15439,0.986,0.06292,-0.00692,-0.08385,-0.3036
-0.16419,0.98141,0.09936,0.07779,-0.04406,-0.01742
-0.17547,0.97631,0.12655,0.06525,0.11724,-0.1762
-0.18145,0.97068,0.15763,0.00866,0.28902,-0.24761
-0.18045,0.96435,0.19356,0.08531,0.3888,-0.2995
-0.18075,0.95864,0.21982,0.40175,0.48124,-0.39704
-0.18287,0.95717,0.22446,0.5343,0.50321,-0.59845
-0.17979,0.9599,0.21508,0.42291,0.4654,-0.55435
-0.17435,0.96381,0.20167,0.3355,0.58519,-0.61593
-0.16708,0.97003,0.17638,0.27342,0.46448,-0.7458
-0.1619,0.97793,0.13203,0.16957,0.37882,-0.729
-0.1586,0.98548,0.06054,-0.01421,0.53606,-0.1026
-0.15486,0.98738,-0.03306,0.19938,0.60625,0.7712
-0.14485,0.98152,-0.12505,-0.27126,0.69759,0.63512
-0.13731,0.97054,-0.19795,-0.49738,0.88532,0.58342
-0.14571,0.95898,-0.24315,-0.69864,1.06649,0.4567
-0.17045,0.94758,-0.27024,-1.05174,0.08881,0.15756
-0.18494,0.93395,-0.30583,-1.03724,0.10244,0.19316
-0.17004,0.91941,-0.35463,0.01376,-0.1197,0.58758
-0.14896,0.90081,-0.40786,0.57628,-0.15226,0.87757
-0.14983,0.87859,-0.45345,0.76307,-0.18966,0.8102
-0.15011,0.86008,-0.48757,0.44763,-0.25946,0.76522
-0.14765,0.83817,-0.52504,0.04941,-0.57874,0.79407
-0.15032,0.81785,-0.55544,0.01005,-0.61093,0.8756
-0.15644,0.80439,-0.57314,-0.1218,-0.64549,0.87036
-0.16377,0.79856,-0.5792,-0.21052,-0.73557,0.87196
-0.17051,0.79981,-0.57553,-0.14822,-0.81719,0.86892
-0.17507,0.80975,-0.56005,-0.0552,-0.71264,0.78004
-0.17719,0.82898,-0.53047,-0.19883,-0.14697,0.15024
-0.17936,0.85527,-0.48615,-0.07048,0.95518,-1.33397
-0.17625,0.86379,-0.47201,-0.15258,2.01319,-1.97874
-0.18705,0.8505,-0.49159,0.0192,0.34126,-0.65597
-0.19517,0.84151,-0.50375,-0.04436,-0.2444,-0.41383
-0.19974,0.83773,-0.50824,-0.04619,-0.15995,-0.05354
-0.2052,0.83912,-0.50375,-0.44498,0.26592,0.59625
-0.20576,0.84442,-0.49457,-0.32715,0.58302,0.62821
-0.19068,0.85892,-0.47528,-0.23195,0.51085,0.59956
-0.14746,0.86778,-0.47456,-1.24765,0.16745,-0.32156
-0.14065,0.87389,-0.46533,-0.45914,-0.65991,1.53683
-0.12845,0.88353,-0.45041,-0.23249,-0.25664,0.93563
-0.11502,0.90049,-0.41939,-0.25446,-0.06018,0.83942
-0.11649,0.92258,-0.36779,-0.19205,0.43711,0.97092
-0.13397,0.94179,-0.30834,0.45066,0.51848,1.14806
-0.14787,0.9502,-0.27432,0.49861,0.35336,0.89079
-0.1539,0.95488,-0.25399,0.77168,0.20706,-0.53406
-0.1608,0.96632,-0.20092,0.36965,-0.07624,-0.25336
-0.16518,0.97494,-0.14898,0.27073,-0.17112,-0.29874
-0.16203,0.97952,-0.11951,0.08462,-0.08044,0.02981
-0.15393,0.98369,-0.09298,-0.05779,0.01048,0.17468
-0.14152,0.98797,-0.06237,-0.15135,-0.06754,0.06085
-0.12826,0.99122,-0.0319,-0.07993,-0.32473,0.08867
-0.11952,0.99282,-0.00289,-0.04863,-0.37826,0.18265
-0.11701,0.99293,0.0198,-0.11513,-0.25981,-0.06715
-0.12137,0.99165,0.04349,-0.15858,-0.11039,-0.14642
-0.13501,0.98773,0.07844,-0.08035,-3e-05,-0.03095
-0.15254,0.9821,0.11045,0.08604,0.1631,-0.23482
-0.16479,0.97574,0.14408,0.18059,0.35882,-0.2224
-0.16645,0.9688,0.1836,0.17141,0.44363,-0.30008
-0.15948,0.96179,0.22252,0.33794,0.52675,-0.51684
-0.15853,0.95781,0.2397,0.40053,0.45234,-0.7386
-0.16,0.96132,0.22416,0.38296,0.59126,-0.55286
-0.15791,0.96659,0.20188,0.31054,0.52447,-0.6353
-0.15168,0.97223,0.17816,0.27378,0.31233,-0.77466
-0.14566,0.97942,0.13963,0.12831,0.28612,-0.74588
-0.14459,0.98663,0.07516,0.07741,0.54676,0.09181
-0.14314,0.9896,-0.01349,0.26547,0.62619,0.8578
-0.13365,0.98545,-0.10496,-0.14824,0.64281,0.63258
-0.12454,0.97605,-0.17836,-0.5891,0.89233,0.57728
-0.1294,0.96412,-0.23176,-0.88052,0.84061,0.40692
-0.15293,0.95259,-0.26301,-1.0458,0.17309,0.27392
-0.17931,0.93896,-0.29359,-0.73893,-0.14303,0.37321
-0.18321,0.92523,-0.33222,-0.02612,-0.20375,0.51464
-0.1648,0.91241,-0.37463,0.21809,-0.19057,0.69128
-0.15351,0.89373,-0.42151,0.64801,-0.15905,0.73784
-0.16168,0.87355,-0.45909,0.59173,-0.33161,0.82223
-0.15978,0.85978,-0.48501,0.20652,-0.42906,0.64412
-0.15736,0.84399,-0.51276,0.07168,-0.64539,0.77074
-0.15737,0.83275,-0.53081,-0.02154,-0.66441,0.81362
-0.16069,0.82808,-0.53709,-0.13642,-0.65855,0.80879
-0.16419,0.82889,-0.53477,-0.17739,-0.65798,0.69959
-0.16676,0.83541,-0.52371,-0.17125,-0.63367,0.63852
-0.16906,0.84721,-0.50364,-0.17399,-0.47344,0.51623
-0.17574,0.86331,-0.47308,0.0424,1.31243,-1.68971
-0.1866,0.87127,-0.45395,-0.00036,1.91883,-2.19945
-0.19569,0.85729,-0.47619,-0.10115,0.17892,-0.64639
-0.19813,0.841,-0.50345,-0.18995,-0.43713,-0.43562
-0.1952,0.83275,-0.51809,-0.12038,-0.37406,-0.37042
-0.1958,0.83361,-0.51648,-0.56447,0.59449,0.48771
-0.19884,0.83601,-0.51141,-0.73492,1.04715,0.35118
-0.20568,0.83464,-0.51094,-0.49036,0.36656,0.58595
-0.19331,0.82155,-0.53636,-0.68972,-1.13941,1.71055
-0.18166,0.8267,-0.53251,-0.40597,-0.77416,1.31367
-0.15818,0.85564,-0.49281,-0.22999,-0.04716,1.31416
-0.14104,0.88977,-0.43406,-0.42568,0.39423,1.04924
-0.12922,0.91743,-0.37632,-0.07543,0.7547,1.14026
-0.13412,0.93823,-0.31896,0.37293,0.63199,1.11483
-0.14521,0.94796,-0.28332,0.47266,0.38726,0.66751
-0.1541,0.95364,-0.25848,0.7871,0.18843,-0.59692
-0.16821,0.9647,-0.2026,0.56857,0.03983,-0.3842
-0.17861,0.97157,-0.15534,0.28933,-0.03179,-0.07591
-0.17515,0.97626,-0.12741,0.25623,-0.01941,0.09767
-0.16521,0.98169,-0.09479,0.09282,-0.00603,0.0429
-0.14808,0.98732,-0.05712,-0.03322,-0.16637,0.15484
-0.13084,0.99111,-0.02365,-0.05892,-0.29826,-0.03593
-0.12216,0.99245,0.01035,-0.03993,-0.38607,0.13294
-0.1207,0.99207,0.03475,-0.05509,-0.23399,0.01105
-0.12542,0.9906,0.05442,-0.18139,-0.09569,-0.12243
-0.13945,0.98658,0.08486,-0.07039,-0.08498,-0.06808
-0.15878,0.98005,0.11949,0.03007,-0.03875,-0.06686
-0.17518,0.97275,0.15184,0.15331,0.33383,-0.33397
-0.18146,0.96433,0.19269,0.1596,0.46986,-0.32807
-0.17469,0.95573,0.23674,0.16236,0.44834,-0.54277
-0.17034,0.94975,0.26258,0.31862,0.5055,-0.6137
-0.17888,0.95131,0.25097,0.34856,0.58412,-0.46246
-0.18299,0.95702,0.22496,0.35366,0.7367,-0.30171
-0.18051,0.96167,0.20636,0.34936,0.46717,-0.73097
-0.1706,0.96828,0.18254,0.39443,0.49576,-0.60136
-0.16568,0.97775,0.1286,0.12442,0.38709,-0.54828
-0.16509,0.98496,0.05083,-0.05306,0.46696,0.26266
-0.16649,0.98536,-0.03664,0.11333,0.53637,0.85436
-0.16475,0.97836,-0.12515,-0.16925,0.63572,0.69938
-0.16324,0.96617,-0.19963,-0.51897,0.86084,0.47496
-0.1763,0.9536,-0.24403,-0.64907,0.50598,0.34629
-0.19532,0.94455,-0.26394,-0.5652,0.25059,0.37423
-0.20475,0.93495,-0.28972,-0.24438,-0.00874,0.4391
-0.18283,0.92473,-0.33383,0.10141,-0.15204,0.56821
-0.14887,0.91126,-0.38397,0.60155,-0.10253,0.73326
-0.12896,0.89354,-0.43006,0.68132,-0.08653,0.69089
-0.12925,0.87237,-0.47144,0.30384,-0.36049,0.63861
-0.13757,0.8454,-0.51612,0.04606,-0.53715,0.80068
-0.15384,0.81817,-0.55402,-0.03862,-0.62774,0.85315
-0.17158,0.79887,-0.5765,-0.23572,-0.61656,0.8672
-0.18788,0.78771,-0.58669,-0.26104,-0.63101,0.81171
-0.19705,0.78533,-0.58687,-0.19725,-0.62116,0.74833
-0.19761,0.79327,-0.5759,-0.18245,-0.38533,0.38463
-0.19606,0.81033,-0.55219,-0.12282,0.27801,-0.56526
-0.19768,0.83099,-0.51998,-0.05175,1.50193,-1.75267
-0.20345,0.82954,-0.52007,0.1866,1.66814,-1.47444
-0.22211,0.81762,-0.53119,0.17793,0.08198,-0.30589
-0.23416,0.80666,-0.54265,0.07156,-0.4614,-0.18349
-0.23741,0.80173,-0.54851,-0.13838,-0.11485,0.14805
-0.23617,0.81048,-0.53604,-0.4661,0.75447,0.4633
-0.22315,0.82563,-0.51821,-0.52038,0.78875,0.54562
-0.19224,0.83632,-0.51343,-0.84572,0.34775,0.11257
-0.17813,0.84209,-0.50907,-0.47558,-0.65363,1.49973
-0.16501,0.85195,-0.49693,-0.22767,-0.42292,1.07205
-0.14911,0.87345,-0.46352,-0.19308,-0.00058,1.05904
-0.14367,0.90072,-0.40996,-0.12558,0.40666,1.1548
-0.15097,0.92596,-0.34613,0.29285,0.53291,1.20208
-0.16676,0.93643,-0.30868,0.3811,0.46613,0.77223
-0.1853,0.93828,-0.29204,0.69907,0.42242,-0.36486
-0.2046,0.94789,-0.24422,0.50723,0.0429,-0.12364
-0.21782,0.95848,-0.18404,0.22192,-0.14515,-0.09219
-0.21759,0.96412,-0.15202,0.16974,-0.06366,-0.00211
-0.20619,0.97047,-0.12515,0.12663,-0.03556,0.17445
-0.19129,0.97707,-0.09343,-0.00878,-0.13398,-0.0798
-0.17523,0.98281,-0.05799,-0.08638,-0.20962,-0.04201
-0.1608,0.98661,-0.02714,-0.02678,-0.36429,0.10574
-0.15232,0.9883,-0.00726,-0.0949,-0.20681,-0.08341
-0.15214,0.98815,0.0198,-0.16645,-0.12345,-0.23481
-0.16233,0.98489,0.0602,0.03663,0.01941,-0.05269
-0.17979,0.97901,0.09588,0.10973,0.09484,-0.24616
-0.19187,0.97208,0.13504,0.16023,0.21914,-0.35064
-0.19165,0.96411,0.18371,0.05879,0.461,-0.48856
-0.18308,0.95706,0.22472,0.23465,0.49092,-0.50362
-0.18856,0.95485,0.22953,0.4616,0.42791,-0.41418
-0.19733,0.95771,0.20939,0.40753,0.49299,-0.31372
-0.19726,0.96122,0.19271,0.40031,0.67743,-0.35408
-0.1915,0.96432,0.18276,0.32131,0.37727,-0.69617
-0.17935,0.97003,0.16392,0.33236,0.33408,-0.71032
-0.17582,0.97711,0.11971,0.04649,0.42894,-0.23853
-0.18072,0.98254,0.04416,0.26627,0.50527,0.66189
-0.18448,0.98192,-0.04237,0.1439,0.63925,0.70821
-0.17975,0.9755,-0.12678,-0.27794,0.75927,0.62817
-0.17487,0.96491,-0.19584,-0.66692,0.93565,0.46482
-0.18738,0.95097,-0.24604,-0.80199,0.40555,0.36957
-0.21676,0.93772,-0.27145,-0.80666,0.21369,0.40482
-0.23551,0.9254,-0.29693,-0.15129,-0.16852,0.51886
-0.22242,0.91383,-0.33977,0.11457,-0.26595,0.5896
-0.19455,0.90072,-0.38838,0.42902,-0.23666,0.75101
-0.17822,0.87984,-0.44059,0.83481,-0.15902,0.86027
-0.18272,0.85679,-0.4822,0.37315,-0.36604,0.73905
-0.18506,0.83875,-0.5121,0.14705,-0.56219,0.68953
-0.18741,0.82186,-0.53797,0.0112,-0.64346,0.80543
-0.19479,0.81019,-0.55285,-0.04952,-0.60662,0.88159
-0.20517,0.80416,-0.55788,-0.12232,-0.64175,0.81154
-0.21524,0.80349,-0.55504,-0.11241,-0.62247,0.76142
-0.2223,0.81131,-0.5407,-0.17244,-0.37954,0.50928
-0.22726,0.82859,-0.51165,-0.13687,0.29372,-0.4611
-0.22833,0.85156,-0.47192,-0.17594,1.76477,-2.2849
-0.22096,0.85019,-0.47786,-0.14896,1.84684,-2.01045
-0.22293,0.83607,-0.50128,0.12736,-0.06665,-0.3931
-0.22343,0.8288,-0.51299,0.12712,-0.2453,-0.16022
-0.22806,0.82515,-0.51684,0.22795,-0.43188,0.36084
-0.2341,0.8288,-0.50821,-0.19623,0.11881,0.84805
-0.23101,0.84077,-0.48962,-0.32989,0.32164,1.10544
-0.20215,0.85945,-0.46955,-0.8719,1.31408,-0.75858
-0.17035,0.88905,-0.42493,-1.29433,1.88361,-1.99342
-0.16158,0.89155,-0.42311,-0.26271,-0.67477,1.25646
-0.14081,0.89304,-0.42737,-0.31803,-0.23926,0.8279
-0.12873,0.90806,-0.39856,-0.27537,-0.17652,0.86229
-0.13755,0.92911,-0.34325,-0.03267,0.06921,1.132
-0.15808,0.94445,-0.28812,0.45396,0.44211,1.13393
-0.17964,0.94855,-0.26073,0.44937,0.41719,0.89258
-0.19684,0.94809,-0.24974,0.61123,0.3812,-0.14447
-0.19992,0.95881,-0.20178,0.50868,0.03331,-0.35549
-0.19602,0.97136,-0.13426,0.25087,-0.21567,-0.37889
-0.18494,0.97795,-0.09698,0.08607,-0.16735,-0.211
-0.17022,0.98295,-0.06952,-0.02965,0.06686,0.16129
-0.15358,0.98715,-0.04404,-0.14263,-0.20111,0.02884
-0.13964,0.98995,-0.02234,-0.02986,-0.37015,0.13415
-0.13338,0.99104,-0.00646,-0.01019,-0.37884,0.09949
-0.13604,0.99063,0.01162,-0.11932,-0.22583,-0.12307
-0.14814,0.98803,0.04301,-0.02841,0.03148,-0.01298
-0.16749,0.98309,0.07392,0.04913,0.08118,-0.09974
-0.18572,0.97692,0.10552,0.18265,0.24302,-0.16535
-0.19302,0.97032,0.14564,0.30028,0.35369,-0.18602
-0.1909,0.96424,0.18381,0.38175,0.49656,-0.21483
-0.18787,0.95975,0.20872,0.53733,0.50639,-0.34903
-0.18491,0.95924,0.2137,0.32169,0.58293,-0.48762
-0.17917,0.96247,0.20381,0.28626,0.67732,-0.52774
-0.17383,0.96604,0.19117,0.26429,0.34181,-0.66558
-0.16388,0.97138,0.17189,0.24376,0.36545,-0.78186
-0.15698,0.97867,0.1325,0.15509,0.32343,-0.68534
-0.1549,0.98583,0.06422,0.12933,0.49413,0.35903
-0.1507,0.98832,-0.02228,0.13075,0.51155,0.75877
-0.144,0.98393,-0.10558,-0.28485,0.68829,0.60102
-0.13849,0.97413,-0.17855,-0.68624,1.1409,0.54664
-0.15117,0.95969,-0.23691,-0.86609,0.57684,0.36004
-0.18046,0.94654,-0.26737,-0.8916,-0.04346,0.29438
-0.20761,0.93313,-0.29353,-0.56908,-0.28385,0.49027
-0.2093,0.92178,-0.32635,-0.03196,-0.23163,0.59274
-0.1813,0.91089,-0.37067,0.29263,-0.18435,0.70817
-0.16621,0.88645,-0.43195,0.76021,-0.24634,0.78334
-0.18236,0.8592,-0.47804,0.6099,-0.22089,0.81775
-0.18957,0.8439,-0.50189,0.18295,-0.48593,0.66646
-0.18766,0.82917,-0.52655,0.02297,-0.62873,0.73471
-0.18987,0.8184,-0.54236,-0.10969,-0.65431,0.79381
-0.19794,0.81297,-0.54762,-0.15113,-0.7356,0.81154
-0.20974,0.81255,-0.54385,-0.09783,-0.72457,0.77697
-0.22146,0.81881,-0.52962,-0.02229,-0.55462,0.65721
-0.22993,0.83183,-0.50515,-0.111,-0.0105,-0.01879
-0.23823,0.85,-0.46984,-0.04036,1.22363,-1.73908
-0.2346,0.85422,-0.46397,0.05748,2.0394,-1.96664
-0.24246,0.83753,-0.48965,-0.05474,0.13998,-0.48474
-0.24815,0.82433,-0.50883,-0.13358,-0.48378,-0.37888
-0.25019,0.82199,-0.51159,-0.51839,0.05661,0.17512
-0.25298,0.82677,-0.50244,-0.74872,0.65966,0.44412
-0.25063,0.83,-0.49828,-0.16519,0.82675,0.70508
-0.23275,0.8274,-0.51111,-0.50866,-0.33569,0.66238
-0.20359,0.83137,-0.51708,-0.80445,-0.80218,1.15249
-0.19183,0.8516,-0.48782,-0.18346,-0.51385,1.24452
-0.17102,0.88014,-0.44283,-0.17667,0.18625,1.14097
-0.15399,0.912,-0.38018,-0.24176,0.61193,1.15124
-0.14571,0.93661,-0.31864,0.13848,0.55381,1.12038
-0.14266,0.95045,-0.27619,0.24357,0.38248,0.75977
-0.14265,0.95676,-0.25348,0.4215,0.23492,0.02833
-0.14906,0.96461,-0.21747,0.66905,0.12311,-0.30859
-0.16459,0.97118,-0.17236,0.21103,-0.02927,0.01157
-0.17343,0.9735,-0.14905,0.16149,-0.06458,0.14359
-0.17078,0.97778,-0.12157,0.10992,-0.11851,0.13591
-0.16498,0.98248,-0.08662,0.0075,-0.14734,0.10846
-0.15703,0.98632,-0.04997,-0.04238,-0.17047,0.15889
-0.15005,0.98853,-0.01709,-0.02046,-0.36406,0.18937
-0.14425,0.9895,0.0083,-0.05283,-0.21585,0.13402
-0.14646,0.98865,0.03332,-0.06112,-0.14373,-0.13392
-0.15609,0.98553,0.06598,-0.00055,-0.11142,-0.17692
-0.16983,0.98028,0.10097,0.1066,0.03962,-0.10403
-0.18436,0.97401,0.13154,0.0986,0.30173,-0.28624
-0.19265,0.96618,0.17139,0.07297,0.43089,-0.26383
-0.1911,0.95747,0.21615,0.24025,0.33857,-0.45923
-0.18582,0.94889,0.25509,0.51741,0.49192,-0.59688
-0.19312,0.94563,0.26169,0.52434,0.53576,-0.58395
-0.19945,0.95057,0.23797,0.52756,0.60348,-0.43925
-0.18997,0.95829,0.2135,0.37573,0.54016,-0.4606
-0.17286,0.9668,0.18816,0.10216,0.49145,-0.48244
-0.15582,0.97742,0.14272,-0.23919,0.33208,-0.56747
-0.14447,0.98617,0.08117,-0.3734,0.29618,-0.35272
-0.14224,0.98981,0.00621,-0.11775,0.29957,0.59533
-0.14446,0.98661,-0.07561,-0.36784,0.70875,0.61858
-0.14948,0.97698,-0.15215,-0.65589,0.84792,0.33117
-0.16248,0.96432,-0.209,-0.75911,0.31749,0.32925
-0.17669,0.95355,-0.24398,-0.74085,-0.04931,0.37148
-0.18782,0.94272,-0.27568,-0.36686,-0.1557,0.51094
-0.18494,0.9314,-0.31349,0.10658,-0.1497,0.53266
-0.17613,0.91416,-0.36509,0.31329,-0.14287,0.55541
-0.18263,0.88484,-0.4286,0.60739,-0.17589,0.85849
-0.19463,0.86109,-0.46973,0.49178,-0.23639,0.77772
-0.20037,0.84412,-0.4973,0.16081,-0.43972,0.72557
-0.19986,0.82755,-0.52462,0.05265,-0.57176,0.76317
-0.19787,0.81557,-0.54378,-0.05222,-0.58945,0.82277
-0.20035,0.81055,-0.55033,-0.10496,-0.61658,0.80774
-0.20631,0.81161,-0.54655,-0.05759,-0.66168,0.79169
-0.21381,0.81951,-0.53169,-0.03114,-0.59957,0.6527
-0.22171,0.83459,-0.50429,-0.18447,-0.15198,0.26799
-0.23204,0.85622,-0.46156,-0.08499,0.61249,-0.94844
-0.22957,0.87359,-0.42912,-0.36913,2.38531,-3.17957
-0.23554,0.85874,-0.45507,-0.00778,0.68336,-0.82081
-0.24522,0.84516,-0.47495,0.15277,-0.37946,-0.20888
-0.24562,0.83849,-0.48642,-0.11876,-0.29892,0.0078
-0.24968,0.83714,-0.48668,-0.43153,-0.04118,0.8285
-0.25036,0.84157,-0.47861,-0.4357,0.43652,0.94604
-0.22984,0.84889,-0.47598,-0.86864,0.95131,0.33294
-0.20671,0.85842,-0.46946,-0.35546,-0.49117,1.68917
-0.21853,0.85864,-0.46366,0.08019,-0.39137,1.32274
-0.2019,0.86787,-0.45391,0.01171,-0.05101,1.17878
-0.18568,0.89156,-0.41308,0.21002,0.43656,1.25791
-0.17833,0.91886,-0.35199,0.41461,0.52203,1.14745
-0.17688,0.93638,-0.30314,0.40603,0.3481,0.69931
-0.17971,0.94508,-0.27297,0.51009,0.17329,0.1175
-0.18538,0.95362,-0.23713,0.40004,-0.02581,-0.2121
-0.18797,0.96715,-0.17113,0.16983,-0.10701,-0.07612
-0.18072,0.97553,-0.12522,0.03882,-0.15778,-0.11879
-0.16846,0.98142,-0.09181,-0.02209,-0.17048,-0.03658
-0.15367,0.98645,-0.05744,-0.13677,-0.05908,0.13916
-0.13875,0.98991,-0.02876,-0.15813,-0.42532,0.11728
-0.12682,0.99186,-0.01071,-0.16023,-0.34796,0.01749
-0.12348,0.99222,0.01552,-0.16865,-0.21256,-0.13136
-0.13334,0.98967,0.05258,-0.02976,-0.08995,-0.03968
-0.15382,0.98464,0.08261,0.04831,0.03781,-0.12978
-0.17743,0.97844,0.10565,0.10568,0.11909,-0.30159
-0.19196,0.97167,0.13781,0.12777,0.24755,-0.18097
-0.19372,0.96532,0.175,0.26545,0.29069,-0.23012
-0.18825,0.95967,0.20876,0.46558,0.48684,-0.25599
-0.18547,0.95737,0.22144,0.45931,0.50989,-0.41262
-0.1814,0.95946,0.21569,0.01505,0.41311,-0.49566
-0.17385,0.96199,0.21057,-0.12707,0.4752,-0.57807
-0.17528,0.96315,0.20397,-0.05491,0.6196,-0.75175
-0.17728,0.96777,0.17887,0.54035,0.43511,-0.74423
-0.17955,0.97463,0.13362,0.52637,0.51144,-0.64084
-0.1837,0.98125,0.05831,0.21045,0.50609,0.31388
-0.18016,0.98308,-0.03303,0.27792,0.552,0.70854
-0.17098,0.97816,-0.1182,-0.13306,0.64915,0.64104
-0.16705,0.96731,-0.19077,-0.58724,1.11276,0.73147
-0.18326,0.95056,-0.25068,-0.81789,0.63815,0.25604
-0.21601,0.93481,-0.2819,-0.77905,0.1383,0.33219
-0.24644,0.92124,-0.30095,-0.57816,-0.3254,0.50023
-0.25027,0.90898,-0.33333,0.05662,-0.21196,0.55633
-0.22998,0.89544,-0.38117,0.29788,-0.18493,0.6823
-0.22005,0.86743,-0.44625,0.74044,-0.1039,0.6494
-0.23803,0.83377,-0.49816,0.78197,-0.17966,1.04635
-0.25215,0.81234,-0.52585,0.22901,-0.46026,0.77527
-0.26079,0.79222,-0.5517,0.15055,-0.50981,0.83432
-0.27177,0.77698,-0.56784,0.02765,-0.57979,0.90032
-0.28603,0.76997,-0.57038,-0.0895,-0.63076,0.92968
-0.29718,0.77243,-0.56128,-0.08144,-0.70151,0.82973
-0.30319,0.78518,-0.53997,-0.03352,-0.65951,0.77512
-0.30386,0.80741,-0.50572,-0.17951,-0.21006,0.35777
-0.30324,0.83517,-0.45884,-0.33694,1.66541,-2.2333
-0.29073,0.85035,-0.43861,-0.5593,2.51138,-3.3149
-0.29195,0.83339,-0.46928,0.06601,-0.21935,-0.43903
-0.29348,0.82305,-0.48627,0.10353,-0.48777,-0.33801
-0.2944,0.81951,-0.49166,-0.17975,-0.07453,0.36245
-0.30313,0.8213,-0.4833,-0.43586,0.53647,0.86665
-0.30342,0.82644,-0.47427,-0.43326,1.38543,0.8625
-0.2808,0.835,-0.47319,-0.90967,0.37461,-0.28697
-0.25433,0.83091,-0.49487,-0.37212,-0.96852,1.87512
-0.23435,0.83993,-0.48949,-0.21714,-0.47071,1.14337
-0.20768,0.86371,-0.45921,-0.25057,-0.1115,0.97826
-0.18927,0.89189,-0.41073,-0.22687,0.30595,1.05188
-0.19154,0.91842,-0.34614,0.23278,0.62522,1.3571
-0.20075,0.93271,-0.29957,0.4279,0.37943,1.0268
-0.20377,0.9392,-0.27638,0.36438,0.33389,0.50372
-0.20347,0.94581,-0.25307,0.68859,0.15475,-0.67329
-0.20865,0.96115,-0.18069,0.33656,-0.11022,-0.17812
-0.20727,0.96989,-0.12786,0.20052,-0.10817,-0.18345
-0.19445,0.97574,-0.10061,0.10757,-0.04951,-0.03999
-0.17878,0.98115,-0.07328,-0.03646,-0.01446,0.18819
-0.16399,0.9855,-0.04357,-0.08219,-0.24781,0.1554
-0.15181,0.98826,-0.01708,-0.03212,-0.41464,0.22745
-0.14588,0.9893,-0.00048,-0.19247,-0.21363,-0.18563
-0.14777,0.98876,0.02266,-0.1754,-0.08997,-0.17543
-0.16069,0.98503,0.06224,-0.04666,0.05667,0.01818
-0.18072,0.97891,0.0952,0.1117,0.20343,-0.27663
-0.19863,0.97161,0.12847,0.14837,0.32248,-0.31352
-0.20651,0.963,0.17312,0.13697,0.40061,-0.28279
-0.20352,0.95417,0.21939,0.59585,0.44285,-0.4593
-0.20394,0.94775,0.24528,0.6462,0.45689,-0.504
-0.21167,0.95038,0.22796,0.57024,0.4577,-0.55566
-0.20609,0.95716,0.20336,0.33158,0.58965,-0.3922
-0.19761,0.9615,0.19096,0.08524,0.29037,-0.7641
-0.1869,0.96744,0.17063,0.06684,0.26168,-0.78701
-0.18743,0.97478,0.12113,0.12319,0.40881,0.0023
-0.1954,0.97975,0.04351,0.30139,0.59354,0.53531
-0.19491,0.97971,-0.04649,0.27011,0.6267,0.78019
-0.18355,0.97411,-0.13196,-0.18559,0.69484,0.62889
-0.17474,0.96273,-0.20642,-0.6216,1.03794,0.6146
-0.18966,0.94626,-0.26192,-0.8252,0.59966,0.29566
-0.22498,0.93124,-0.28665,-0.78915,0.11213,0.40283
-0.25843,0.91669,-0.30477,-0.62284,-0.29633,0.3405
-0.26416,0.90273,-0.33954,0.09416,-0.14663,0.50069
-0.24914,0.88453,-0.39437,0.25361,-0.27946,0.69187
-0.23882,0.85679,-0.45702,0.49341,-0.21443,0.85486
-0.25646,0.82656,-0.50103,0.56911,-0.24442,0.85317
-0.26959,0.81039,-0.52017,0.33948,-0.39102,0.72119
-0.27095,0.79553,-0.54196,0.10959,-0.57298,0.78899
-0.27719,0.78447,-0.55477,0.00342,-0.57393,0.90877
-0.28768,0.77959,-0.5563,-0.03563,-0.58798,0.91108
-0.29598,0.78234,-0.54802,-0.04031,-0.67122,0.82657
-0.30046,0.79404,-0.52841,0.02082,-0.43912,0.64951
-0.30327,0.81437,-0.4948,-0.04103,-0.19538,0.39982
-0.30795,0.8412,-0.44446,-0.27534,1.3886,-2.02531
-0.29729,0.85686,-0.42119,-0.44077,1.76835,-1.75794
-0.30056,0.83756,-0.45623,0.06658,-0.02908,-0.43789
-0.30377,0.82485,-0.4768,0.00219,-0.20741,-0.24474
-0.3018,0.82282,-0.48153,-0.47112,0.30186,0.35629
-0.30865,0.823,-0.47687,-0.30893,0.93337,0.4267
-0.30813,0.82471,-0.47425,-0.02558,1.58369,-0.15919
-0.29663,0.82032,-0.48895,-0.26848,-0.69746,1.58241
-0.24944,0.80397,-0.53982,-0.50235,-1.24101,1.52331
-0.20158,0.82062,-0.53474,-0.48457,-0.65518,0.97891
-0.17819,0.86082,-0.47668,-0.43449,-0.12871,1.13218
-0.16429,0.9003,-0.40306,-0.45541,0.28203,0.9373
-0.16415,0.9292,-0.3311,-0.35399,0.47375,0.95919
-0.17383,0.93969,-0.29456,0.23494,0.50649,0.92227
-0.1887,0.94152,-0.27916,0.72187,0.37606,-0.68568
-0.19677,0.94775,-0.25111,0.93278,0.20637,-0.64881
-0.20112,0.96463,-0.17041,0.82016,0.088,-0.19698
-0.19812,0.97197,-0.12655,0.21053,-0.11504,-0.14254
-0.18512,0.9767,-0.10855,0.17919,-0.00139,0.08542
-0.17005,0.98172,-0.08547,0.04061,0.04825,0.33167
-0.15363,0.98638,-0.05877,-0.15934,-0.34766,0.23847
-0.14049,0.98969,-0.02767,-0.18408,-0.44211,0.33043
-0.13476,0.99087,-0.00261,-0.25019,-0.53208,0.19887
-0.13502,0.99049,0.02636,-0.32486,-0.00245,-0.08276
-0.14957,0.98671,0.06343,-0.12222,0.00296,-0.01399
-0.17075,0.98006,0.10159,0.08846,0.00302,-0.0566
-0.18605,0.97199,0.14357,0.30014,0.44475,-0.31407
-0.19011,0.96236,0.19417,0.15438,0.38389,-0.51206
-0.18797,0.9544,0.23188,0.204,0.39157,-0.64989
-0.19897,0.9543,0.22298,0.56447,0.43331,-0.42019
-0.20439,0.95965,0.19307,0.48243,0.53351,-0.19376
-0.19836,0.96374,0.17844,0.21903,0.45775,-0.63282
-0.18457,0.96751,0.17278,0.20788,0.36812,-0.87712
-0.17192,0.97438,0.14494,0.18505,0.42474,-0.76042
-0.16772,0.98228,0.08361,-0.01282,0.51322,0.00737
-0.16408,0.98644,0.00313,0.07936,0.49557,0.73176
-0.15734,0.98416,-0.08167,0.00176,0.50009,0.72007
-0.15048,0.97498,-0.1636,-0.50354,0.95134,0.55866
-0.15275,0.96059,-0.23223,-0.70944,1.1685,0.56784
-0.17702,0.94543,-0.27353,-0.85934,0.67339,0.42716
-0.20295,0.93393,-0.29425,-0.42795,0.02713,0.36648
-0.2047,0.92335,-0.32484,0.07464,-0.02039,0.57501
-0.1759,0.9089,-0.37809,0.21751,-0.10014,0.68302
-0.15009,0.89081,-0.42887,0.74802,-0.05109,0.78037
-0.13934,0.86957,-0.47375,0.33413,-0.26831,0.74122
-0.13388,0.84842,-0.51211,0.2153,-0.38057,0.69322
-0.14225,0.82356,-0.5491,-0.00872,-0.56683,0.72298
-0.15209,0.80623,-0.57172,-0.12519,-0.62518,0.75792
-0.16186,0.79565,-0.58373,-0.18027,-0.59165,0.78383
-0.16896,0.7904,-0.58882,-0.18347,-0.63055,0.7868
-0.16793,0.7925,-0.5863,-0.15139,-0.64931,0.73734
-0.15854,0.80346,-0.57386,-0.12324,-0.52975,0.45724
-0.14364,0.82385,-0.54829,-0.23266,-0.15523,-0.06051
-0.13982,0.84894,-0.50966,0.15824,0.72559,-1.13977
-0.15801,0.86131,-0.48289,0.69533,1.57128,-1.26878
-0.17788,0.85156,-0.49315,0.38743,0.48251,-0.55517
-0.19346,0.83531,-0.51461,0.17489,-0.1806,-0.19013
-0.19959,0.8283,-0.52352,0.07251,-0.60331,0.09892
-0.20103,0.83476,-0.5126,-0.39119,0.0004,0.39682
-0.19667,0.8537,-0.4822,-1.1251,0.85547,1.06458
-0.18302,0.86778,-0.46202,-1.11126,0.63987,0.35946
-0.18264,0.87847,-0.4415,-0.62734,0.11387,0.12616
-0.18851,0.87597,-0.444,-0.5164,-0.376,1.34689
-0.18641,0.88024,-0.43638,-0.26531,-0.17916,0.99537
-0.1788,0.89585,-0.4068,0.04533,0.03554,1.142
-0.16264,0.91741,-0.36319,0.4673,0.3479,1.17423
-0.15313,0.93629,-0.3161,0.53335,0.39126,1.06134
-0.15185,0.94552,-0.28797,0.53124,0.48627,0.85436
-0.16107,0.95026,-0.26657,0.84054,0.15698,-0.27484
-0.17877,0.96035,-0.21393,0.58462,-0.06918,-0.11813
-0.1904,0.96687,-0.17002,0.2626,-0.18414,0.03148
-0.18878,0.971,-0.14665,0.03517,-0.12094,0.21313
-0.18002,0.97609,-0.12183,-0.09963,-0.12921,0.20369
-0.16639,0.98245,-0.08428,-0.20431,-0.09112,0.30471
-0.14997,0.98752,-0.04804,-0.35991,-0.27997,0.12621
-0.13759,0.99043,-0.01076,-0.27553,-0.39457,0.07099
-0.13214,0.99083,0.02797,-0.18674,-0.28441,-0.11532
-0.13966,0.98859,0.05643,-0.17549,-0.18158,-0.11874
-0.15427,0.9843,0.08568,-0.03953,-0.10948,0.03059
-0.1757,0.97825,0.11023,0.28042,0.23455,-0.17513
-0.19546,0.97101,0.1376,0.30496,0.433,-0.19678
-0.20012,0.96227,0.18434,0.20973,0.37677,-0.22667
-0.19448,0.95274,0.23337,0.44083,0.42879,-0.66292
-0.19484,0.94601,0.25903,0.53711,0.42057,-0.70097
-0.20186,0.94814,0.24551,0.58904,0.72465,-0.36333
-0.20552,0.95306,0.22234,0.56903,0.63106,-0.37415
-0.19256,0.96011,0.20273,0.43348,0.48035,-0.41525
-0.17067,0.9714,0.16505,-0.31731,0.32044,-0.66883
-0.15276,0.98227,0.10864,-0.43472,0.31346,-0.19838
-0.14532,0.98859,0.03962,-0.29873,0.35763,0.40245
-0.1438,0.98891,-0.03691,-0.15487,0.6879,0.59075
-0.136,0.98413,-0.11398,-0.53258,0.93024,0.2404
-0.13037,0.97635,-0.17242,-0.59573,0.68635,0.38396
-0.13991,0.96603,-0.21726,-0.63893,0.26421,0.39071
-0.15263,0.95335,-0.26043,-0.50252,-0.04577,0.46833
-0.15217,0.94024,-0.30462,-0.117,-0.20614,0.55385
-0.137,0.92802,-0.34641,0.24257,-0.21014,0.70689
-0.11972,0.9151,-0.38505,0.6094,-0.20695,0.77244
-0.11332,0.89764,-0.42591,0.49522,-0.31542,0.7051
-0.11217,0.88311,-0.45555,0.19515,-0.52096,0.60872
-0.10903,0.86871,-0.48317,0.01386,-0.65329,0.65506
-0.11308,0.8529,-0.50967,-0.0867,-0.69353,0.72918
-0.12421,0.84118,-0.52629,-0.14763,-0.69433,0.72862
-0.14052,0.83445,-0.53287,-0.14588,-0.67888,0.74016
-0.16082,0.83344,-0.52869,-0.0655,-0.59391,0.74451
-0.17843,0.84016,-0.51215,-0.01241,-0.29287,0.51881
-0.18848,0.85399,-0.48495,-0.09083,0.2236,-0.46624
-0.19417,0.86884,-0.45543,0.22407,2.25243,-2.814
-0.20306,0.86116,-0.46602,-0.0147,1.16417,-0.80019
-0.21929,0.84479,-0.4881,-0.12547,-0.06566,-0.16794
-0.22217,0.83693,-0.50018,-0.69193,0.06775,0.0434
-0.2153,0.83921,-0.49937,-1.17617,1.29112,-0.32666
-0.21758,0.83648,-0.50295,0.02453,1.27816,0.53175
-0.19808,0.81252,-0.54825,-0.07877,-1.52562,2.00511
-0.13507,0.80865,-0.57257,-0.21157,-1.33242,1.54003
-0.07929,0.84063,-0.53578,-0.29688,-0.41736,1.01255
-0.05686,0.88292,-0.46606,-0.51819,0.33881,0.96127
-0.06394,0.91089,-0.40766,-0.48343,1.07338,0.98561
-0.09937,0.91387,-0.39364,0.03692,0.84881,0.81963
-0.15028,0.90971,-0.38709,0.56546,0.52376,-0.15705
-0.20856,0.92681,-0.31229,0.89008,0.10653,-0.05596
-0.24303,0.94605,-0.21429,0.58943,-0.06075,0.18401
-0.24295,0.9533,-0.17944,0.37634,-0.14533,-0.07401
-0.2142,0.96287,-0.16428,0.35916,-0.01342,0.12283
-0.17906,0.97372,-0.1407,-0.13004,-0.24606,0.19733
-0.14407,0.98423,-0.10257,-0.54335,-0.20344,-0.02863
-0.12542,0.99028,-0.06011,-0.49523,-0.18788,-0.08227
-0.12714,0.99151,-0.02709,-0.27217,-0.2492,0.12612
-0.14037,0.99009,0.00283,-0.18453,-0.28794,0.20472
-0.15813,0.98663,0.03921,-0.16369,0.01036,0.03269
-0.17786,0.98077,0.08032,0.27544,0.07079,-0.25254
-0.19611,0.97295,0.12203,0.42542,0.22828,-0.40575
-0.20869,0.96511,0.15814,0.36078,0.36937,-0.47003
-0.21557,0.95997,0.1788,0.45808,0.41733,-0.40066
-0.22319,0.95714,0.18456,0.61004,0.40448,-0.21428
-0.22758,0.95626,0.18375,0.55865,0.47167,-0.33959
-0.22384,0.95665,0.18627,0.53352,0.66865,-0.61015
-0.21645,0.95973,0.17907,0.564,0.45814,-0.65508
-0.20462,0.96671,0.15357,0.38097,0.46152,-0.45419
-0.19323,0.97568,0.10342,0.1131,0.44915,-0.30902
-0.18052,0.98271,0.04107,-0.07867,0.60248,0.39314
-0.16585,0.98574,-0.02824,-0.29572,0.67978,0.83308
-0.14827,0.98368,-0.10186,-0.59443,0.8321,0.40441
-0.1349,0.97689,-0.16579,-0.56458,0.78642,0.29475
-0.14362,0.96633,-0.21348,-0.61949,0.49621,0.40004
-0.16239,0.95281,-0.25648,-0.65085,0.15832,0.3938
-0.171,0.93908,-0.29814,-0.36676,-0.11332,0.66963
-0.1544,0.92805,-0.33894,0.11317,-0.22821,0.68273
-0.12553,0.91699,-0.37864,0.49639,-0.26887,0.73159
-0.11323,0.90039,-0.42009,0.56696,-0.31943,0.8543
-0.10858,0.8858,-0.45119,0.27374,-0.55685,0.69239
-0.10694,0.86998,-0.48136,0.09175,-0.58981,0.71936
-0.11104,0.85159,-0.51231,-0.10913,-0.7006,0.79068
-0.12047,0.83851,-0.5314,-0.1238,-0.69317,0.85561
-0.13504,0.83217,-0.53782,-0.1415,-0.71352,0.86909
-0.15231,0.83158,-0.5341,-0.10321,-0.67324,0.78077
-0.16796,0.83726,-0.52037,-0.02414,-0.45864,0.69548
-0.17838,0.84979,-0.49602,0.02163,-0.27961,0.48905
-0.1823,0.86752,-0.46279,0.19329,2.55375,-3.06036
-0.18455,0.86142,-0.47317,0.01509,1.64651,-1.30984
-0.19368,0.84483,-0.49875,-0.03844,-0.03494,-0.25113
-0.18901,0.8368,-0.51386,-0.20914,-0.5409,-0.40713
-0.18212,0.8392,-0.51241,-0.34135,-0.36868,-0.23567
-0.17788,0.84535,-0.50373,-0.67091,1.24605,0.13071
-0.17876,0.84743,-0.49989,0.05808,1.8565,0.60004
-0.156,0.83494,-0.52777,-0.16788,-0.66469,1.5186
-0.10791,0.83303,-0.5426,-0.4684,-1.28123,1.6719
-0.06336,0.85824,-0.50932,-0.67953,-0.67678,0.83114
-0.04025,0.89467,-0.4449,-0.64161,0.24066,1.0467
-0.03992,0.92178,-0.38564,-0.6222,0.51224,0.64336
-0.06602,0.93696,-0.34314,-0.19417,0.5908,0.83362
-0.10768,0.93623,-0.33448,0.39754,0.31007,1.04827
-0.14817,0.93753,-0.31476,0.74917,0.30217,0.18222
-0.17747,0.94753,-0.26587,0.77663,0.05224,-0.14535
-0.18536,0.96541,-0.18333,0.64133,-0.04598,-0.06333
-0.17559,0.97408,-0.14255,0.33974,-0.08125,-0.28772
-0.15591,0.98032,-0.12107,0.21003,-0.09294,0.01069
-0.12706,0.98613,-0.10672,-0.18303,-0.14843,0.23125
-0.10205,0.99128,-0.0833,-0.37731,-0.22891,0.01629
-0.09101,0.99466,-0.0485,-0.34174,-0.24683,0.05527
-0.092,0.99556,-0.01944,-0.31313,-0.30985,0.09725
-0.1052,0.99439,0.01049,-0.157,0.00523,0.09004
-0.12743,0.99072,0.04706,-0.00211,0.1806,0.02165
-0.15272,0.98472,0.08363,0.35157,0.18352,-0.26481
-0.1724,0.97661,0.12845,0.42053,0.30727,-0.37236
-0.18182,0.96783,0.17387,0.36555,0.33287,-0.58393
-0.18796,0.96208,0.19766,0.68243,0.35195,-0.4817
-0.19568,0.96193,0.19075,0.8055,0.42384,-0.21312
-0.19228,0.96469,0.17998,0.57099,0.52512,-0.4666
-0.181,0.96826,0.17235,0.22835,0.39251,-0.7675
-0.167,0.97452,0.14967,0.18633,0.40721,-0.68037
-0.16001,0.98188,0.10148,0.17373,0.42356,-0.44255
-0.15448,0.98748,0.03179,0.14604,0.54435,0.62072
-0.14559,0.9883,-0.04526,-0.3249,0.48914,0.87755
-0.12776,0.98529,-0.11348,-0.72481,0.87801,0.32377
-0.11967,0.97863,-0.1672,-0.69626,0.93469,0.34376
-0.13082,0.96736,-0.21699,-0.77751,0.70869,0.50494
-0.14827,0.95217,-0.26715,-0.74946,0.33799,0.37244
-0.14383,0.93767,-0.31635,-0.64418,0.1509,0.56371
-0.10501,0.92492,-0.36535,0.1033,-0.06486,0.75334
-0.06897,0.90942,-0.41012,0.41228,-0.39312,0.92606
-0.06191,0.89393,-0.44391,0.46282,-0.43062,0.90196
-0.05513,0.88346,-0.46524,0.16676,-0.47278,0.60906
-0.04498,0.87269,-0.4862,-0.10855,-0.68493,0.6917
-0.03841,0.86132,-0.5066,-0.1509,-0.72744,0.73299
-0.03912,0.85438,-0.51817,-0.156,-0.74234,0.77184
-0.04685,0.8526,-0.52046,-0.1662,-0.6865,0.74199
-0.05743,0.85532,-0.5149,-0.16457,-0.66739,0.67209
-0.07221,0.86131,-0.50291,-0.13874,-0.64854,0.64796
-0.08821,0.87336,-0.47902,0.03851,0.55122,-0.56808
-0.09549,0.88909,-0.44765,0.06283,1.58396,-2.10111
-0.09236,0.88461,-0.45709,0.29468,1.57137,-1.82979
-0.09109,0.87302,-0.4791,0.01105,0.08673,-0.44879
-0.08398,0.86782,-0.48972,-0.27506,-0.18786,-0.19402
-0.07648,0.87247,-0.48263,-0.76433,0.73637,0.39627
-0.06923,0.87486,-0.4794,-0.74264,1.73665,-0.53589
-0.0629,0.8637,-0.50006,-0.19486,0.07818,1.2285
-0.02618,0.84035,-0.5414,-0.72855,-1.52649,1.6188
0.01576,0.853,-0.52166,-0.67755,-0.56449,1.07444
0.04557,0.88749,-0.45857,-0.70449,0.08374,1.27316
0.05258,0.92078,-0.38652,-0.70668,0.71225,0.85372
0.03727,0.94497,-0.32501,-0.21718,0.85718,0.92343
0.00438,0.95579,-0.29399,0.13567,0.67327,0.89708
-0.04082,0.96186,-0.27047,0.68005,0.25689,0.13658
-0.08208,0.97146,-0.22251,0.95389,-0.06755,-0.10677
-0.10143,0.98389,-0.14715,0.79066,-0.12678,-0.05242
-0.09963,0.98787,-0.11903,0.30764,-0.09847,-0.225
-0.08498,0.99103,-0.10307,0.16889,-0.01453,0.05812
-0.06885,0.9945,-0.07881,0.07437,-0.00018,0.20141
-0.0496,0.99755,-0.04912,-0.24462,-0.2816,0.21086
-0.03442,0.99925,-0.0177,-0.39513,-0.35937,-0.06155
-0.02907,0.99928,0.02411,-0.31447,-0.15083,-0.10187
-0.03541,0.99741,0.06254,-0.12461,-0.14583,-0.17808
-0.05112,0.99485,0.08744,0.08611,-0.04231,-0.02742
-0.06938,0.99172,0.10799,0.16749,0.02842,-0.04311
-0.08085,0.98667,0.14116,0.1967,0.3214,-0.2264
-0.0862,0.97836,0.18804,0.03016,0.36291,-0.38825
-0.09019,0.97054,0.22338,0.15943,0.32891,-0.58983
-0.10007,0.96969,0.22289,0.39977,0.39956,-0.28597
-0.10635,0.97269,0.20629,0.39056,0.36687,-0.10192
-0.10064,0.97457,0.20019,0.26131,0.32728,-0.13557
-0.09288,0.97599,0.197,0.16004,0.51199,-0.69851
-0.08138,0.98082,0.17708,0.30807,0.27882,-0.71436
-0.07244,0.98871,0.13115,0.06742,0.31272,-0.57808
-0.06354,0.99593,0.06386,-0.1266,0.43773,-0.09482
-0.05554,0.99841,-0.00866,-0.12296,0.41933,0.72811
-0.05077,0.9954,-0.0812,-0.17773,0.59178,0.69511
-0.04563,0.98746,-0.15112,-0.53379,0.8777,0.31945
-0.04759,0.97751,-0.20544,-0.68354,0.76996,0.27093
-0.06313,0.96591,-0.25103,-0.71014,0.59393,0.37571
-0.07387,0.95164,-0.29819,-0.52111,0.09108,0.53122
-0.06352,0.93684,-0.34392,-0.18055,-0.14569,0.62619
-0.04347,0.92033,-0.38872,0.15011,-0.15473,0.71504
-0.04042,0.89917,-0.43572,0.38728,-0.254,0.74073
-0.04582,0.87889,-0.47481,0.23428,-0.41106,0.71738
-0.04529,0.86333,-0.50259,0.13089,-0.42283,0.67821
-0.04325,0.84717,-0.52956,0.0524,-0.50761,0.70984
-0.04176,0.83532,-0.54817,-0.16832,-0.6872,0.81305
-0.04535,0.83055,-0.5551,-0.16719,-0.67959,0.81663
-0.05217,0.83258,-0.55144,-0.16575,-0.69232,0.81905
-0.05868,0.84156,-0.53696,-0.13196,-0.51597,0.68722
-0.06262,0.85705,-0.51141,-0.14646,-0.31701,0.56218
-0.06769,0.87573,-0.47803,-0.1132,-0.06549,0.25766
-0.07551,0.89107,-0.44752,0.49714,2.51081,-2.78369
-0.07875,0.87864,-0.47093,0.12961,1.38274,-1.15064
-0.0812,0.85957,-0.50452,-0.09226,-0.0922,-0.281
-0.07706,0.8499,-0.52127,-0.1395,-0.70353,-0.22119
-0.07014,0.85097,-0.5205,-0.31079,-0.54048,0.28434
-0.06504,0.85669,-0.51171,-0.63445,0.37143,0.76904
-0.07342,0.86294,-0.49995,-0.52439,0.42076,0.9725
-0.06072,0.8711,-0.48734,-0.32221,1.07573,-0.10133
-0.06212,0.88448,-0.46241,-0.30163,-0.19511,1.64712
-0.05306,0.87677,-0.47797,-0.20893,-0.46489,1.62746
-0.02431,0.88446,-0.46598,-0.28214,-0.16009,1.02617
-0.0032,0.90619,-0.42285,-0.25619,0.18819,0.97746
-0.00866,0.93057,-0.36599,0.00491,0.50554,1.17169
-0.03406,0.94503,-0.32521,0.29784,0.44288,0.8783
-0.07127,0.95147,-0.29937,0.38887,0.32591,0.54506
-0.10313,0.95946,-0.26229,0.62436,0.10042,-0.43095
-0.11774,0.97628,-0.18169,0.29865,-0.14026,-0.11264
-0.11274,0.98468,-0.13301,0.13562,-0.14523,-0.12909
-0.09441,0.98936,-0.11063,0.12467,-0.05476,0.07493
-0.07325,0.99365,-0.08531,-0.10349,-0.09219,0.27039
-0.04978,0.99733,-0.05341,-0.28004,-0.33181,0.22623
-0.03578,0.9992,-0.01772,-0.27605,-0.41024,0.10033
-0.03161,0.99925,0.02231,-0.29303,-0.25639,-0.03734
-0.04003,0.99697,0.06655,-0.38074,-0.11505,-0.28969
-0.05733,0.99257,0.10724,0.02616,0.00193,-0.13189
-0.07833,0.98791,0.13373,0.14097,0.05863,-0.26001
-0.09113,0.98192,0.16588,0.25421,0.45048,-0.29295
-0.09405,0.97396,0.20627,0.26608,0.4012,-0.43206
-0.09624,0.96724,0.2349,0.43065,0.44219,-0.50402
-0.10578,0.96743,0.22994,0.49848,0.41419,-0.47326
-0.10512,0.97217,0.20932,0.29714,0.62385,-0.28835
-0.10134,0.97508,0.19733,0.2371,0.67205,-0.54747
-0.09623,0.97832,0.18337,0.32111,0.3963,-0.74596
-0.09206,0.98505,0.14555,0.19119,0.36328,-0.54392
-0.08879,0.99237,0.0855,0.0871,0.33173,-0.28864
-0.08771,0.99612,0.00675,-0.01956,0.32992,0.07865
-0.0836,0.99342,-0.07826,-0.16924,0.61776,0.68349
-0.0758,0.98462,-0.15739,-0.3644,0.85005,0.63116
-0.07623,0.97166,-0.22373,-0.56571,1.06292,0.55859
-0.09669,0.9595,-0.26459,-0.87295,0.45858,0.43046
-0.11803,0.9482,-0.29491,-0.78245,0.0647,0.39523
-0.11813,0.93679,-0.32932,-0.67963,-0.10427,0.42117
-0.09553,0.92554,-0.36639,0.26714,-0.28428,0.79965
-0.07648,0.91088,-0.40552,0.48116,-0.1691,0.86017
-0.08241,0.88877,-0.45088,0.61787,-0.17748,0.75454
-0.08373,0.87111,-0.48388,0.17098,-0.45482,0.59948
-0.08144,0.85352,-0.51465,0.11802,-0.51752,0.70241
-0.08714,0.83934,-0.53658,-0.06399,-0.66951,0.87564
-0.09685,0.83211,-0.54608,-0.12804,-0.59919,0.91159
-0.10623,0.83251,-0.54372,-0.15601,-0.59876,0.89314
-0.11321,0.84029,-0.53018,-0.08752,-0.6664,0.80458
-0.1152,0.85664,-0.50289,-0.11391,-0.25704,0.58913
-0.11338,0.87818,-0.4647,-0.19027,0.0182,0.27936
-0.11148,0.90268,-0.41562,0.14392,2.2741,-3.29303
-0.10287,0.90097,-0.42151,0.09842,2.39681,-2.94769
-0.10969,0.88561,-0.45128,-0.11235,-0.32401,-0.37587
-0.11296,0.87763,-0.46582,-0.18353,-0.43283,-0.04776
-0.11417,0.87632,-0.46799,-0.55441,0.09559,0.70812
-0.11433,0.87772,-0.46533,-0.55424,0.09419,0.70546
-0.11274,0.88634,-0.4491,-0.52973,1.55415,0.17626
-0.09489,0.88948,-0.44701,-0.88523,0.04479,0.32272
-0.09692,0.87777,-0.46917,-0.23508,-0.80697,1.71568
-0.07786,0.88062,-0.46737,-0.19197,-0.58669,1.32235
-0.049,0.90344,-0.42589,-0.33755,-0.03455,1.04727
-0.04261,0.93238,-0.35894,-0.17898,0.45063,1.19003
-0.06144,0.94814,-0.31184,0.22831,0.49865,1.13412
-0.0899,0.95188,-0.29297,0.41862,0.42545,0.80603
-0.11381,0.95452,-0.27556,0.73797,0.32911,-0.35408
-0.12388,0.97074,-0.2057,0.58143,-0.01188,-0.18412
-0.12365,0.98321,-0.13417,0.08022,-0.18502,-0.25496
-0.11085,0.9881,-0.10655,0.05918,-0.09115,-0.0477
-0.09241,0.99105,-0.09631,-0.0186,-0.07128,0.25294
-0.06993,0.99503,-0.07078,-0.25414,-0.10885,0.13922
-0.05322,0.9979,-0.03681,-0.26466,-0.37449,0.27894
-0.04841,0.99881,-0.00551,-0.29942,-0.44005,0.23714
-0.05322,0.99813,0.03005,-0.3501,-0.12894,-0.1204
-0.07229,0.99513,0.06701,-0.33103,-0.12594,-0.15735
-0.09834,0.99041,0.09701,0.20152,0.05805,-0.14593
-0.11889,0.98461,0.12807,0.29498,0.41976,-0.23654
-0.12392,0.97733,0.17161,0.20855,0.43403,-0.31867
-0.12088,0.96829,0.21862,0.17261,0.37787,-0.4186
-0.13,0.96348,0.23408,0.70477,0.49877,-0.5586
-0.1359,0.96843,0.20895,0.70151,0.49409,-0.37623
-0.12748,0.97409,0.18679,0.55204,0.56722,-0.21378
-0.11476,0.97701,0.17962,-0.01199,0.27743,-0.67678
-0.10095,0.98211,0.15893,0.14302,0.34754,-0.79082
-0.094,0.98997,0.10538,0.18408,0.40123,-0.4871
-0.09111,0.99554,0.02422,0.04819,0.52698,0.2786
-0.0797,0.99458,-0.06671,-0.05415,0.50615,0.86467
-0.06282,0.98687,-0.14877,-0.39893,0.67706,0.5848
-0.05515,0.97528,-0.21396,-0.69876,1.06616,0.53522
-0.07561,0.96176,-0.26325,-0.97056,0.85624,0.47713
-0.11285,0.94798,-0.29764,-0.82363,-0.07124,0.32403
-0.13704,0.93521,-0.32649,-0.51297,-0.26463,0.44058
-0.13097,0.92351,-0.36051,0.12415,-0.23475,0.51777
-0.11286,0.9078,-0.40392,0.65925,-0.17302,0.77372
-0.11142,0.88457,-0.45289,0.79062,-0.09792,0.7935
-0.11516,0.86639,-0.48591,0.36813,-0.32407,0.80894
-0.11586,0.84815,-0.51692,0.04132,-0.60017,0.83699
-0.12226,0.83186,-0.54136,-0.01737,-0.7022,0.92237
-0.13256,0.82458,-0.54999,-0.0978,-0.70788,0.89034
-0.14433,0.82411,-0.54773,-0.13814,-0.71054,0.84645
-0.15418,0.82958,-0.53668,-0.07029,-0.64493,0.77798
-0.1589,0.84227,-0.5151,-0.09684,-0.29716,0.60919
-0.16065,0.86018,-0.48403,-0.22569,0.36279,-0.46119
-0.16164,0.88023,-0.44616,-0.14353,2.39424,-3.39439
-0.16174,0.86782,-0.46981,-0.30414,2.17983,-2.23348
-0.17246,0.8457,-0.50501,-0.15203,-0.42547,-0.21166
-0.17339,0.8361,-0.52044,-0.10365,-0.76066,-0.10179
-0.16549,0.83935,-0.51778,-0.29019,-0.33825,0.55442
-0.16119,0.84739,-0.50592,-0.70282,0.48954,1.11372
-0.16103,0.85777,-0.48815,-0.60183,1.02687,1.16985
-0.14031,0.87376,-0.46567,-0.96012,1.97324,-1.56373
-0.14197,0.86925,-0.47354,-0.56611,0.15896,0.79602
-0.11442,0.8657,-0.4873,-0.1078,-0.643,1.35501
-0.08161,0.88698,-0.45454,-0.25918,-0.26711,1.12238
-0.06951,0.9199,-0.38595,-0.29805,-0.02172,1.06339
-0.07864,0.94287,-0.32373,0.30889,0.51335,1.08513
-0.09716,0.95029,-0.2958,0.32742,0.50593,1.0572
-0.11681,0.9524,-0.28157,0.47234,0.36639,0.02822
-0.13337,0.96542,-0.22398,0.53141,0.05965,-0.36942
-0.14188,0.97788,-0.15365,0.14686,-0.1803,-0.11495
-0.13292,0.9832,-0.1251,0.0964,-0.11422,-0.01609
-0.11221,0.98808,-0.1053,-0.01059,-0.03351,0.2247
-0.08728,0.99359,-0.07182,-0.2084,-0.1974,0.02144
-0.06648,0.99732,-0.03031,-0.22321,-0.39732,0.2673
-0.05616,0.9984,0.00618,-0.15064,-0.35553,0.03772
-0.06004,0.99723,0.04385,-0.25046,-0.16935,-0.16791
-0.07549,0.99395,0.07975,-0.1448,-0.04714,-0.18076
-0.09738,0.98942,0.10753,0.096,0.06706,-0.07689
-0.11504,0.98474,0.13058,0.17144,0.25728,-0.25269
-0.11988,0.97867,0.1668,0.21471,0.53035,-0.30407
-0.11569,0.97002,0.21368,0.23529,0.37411,-0.48785
-0.1163,0.96353,0.24098,0.48315,0.47614,-0.60785
-0.12473,0.9658,0.22731,0.51387,0.62936,-0.34766
-0.11961,0.97169,0.20374,0.38976,0.60551,-0.46437
-0.10782,0.97592,0.18958,0.15842,0.34741,-0.75772
-0.09337,0.98249,0.16123,0.00946,0.39116,-0.76092
-0.09033,0.99075,0.10123,-0.07359,0.46659,-0.56433
-0.09375,0.99546,0.01644,0.11134,0.41705,0.71961
-0.0934,0.9928,-0.07496,-0.06533,0.5323,0.72691
-0.08529,0.98352,-0.15937,-0.45477,0.77038,0.65163
-0.07903,0.96921,-0.23322,-0.82997,0.86728,0.42548
-0.09787,0.95318,-0.28612,-0.88693,0.33234,0.37715
-0.13102,0.93895,-0.31812,-0.72002,-0.09018,0.46292
-0.15066,0.92452,-0.35009,-0.24146,-0.30365,0.46903
-0.14661,0.90987,-0.38811,0.21404,-0.1491,0.65908
-0.13773,0.88913,-0.43644,0.70668,-0.15645,0.76688
-0.14935,0.85732,-0.49264,0.74323,-0.04055,0.9396
-0.16029,0.83397,-0.52802,0.25396,-0.34874,0.73767
-0.1662,0.81176,-0.55984,0.12278,-0.51893,0.81957
-0.17236,0.79501,-0.58159,-0.01626,-0.5883,0.91287
-0.18061,0.78701,-0.58991,-0.10818,-0.60682,0.92427
-0.18887,0.78617,-0.58844,-0.12671,-0.66063,0.89577
-0.19405,0.79394,-0.5762,-0.11963,-0.65168,0.82081
-0.19327,0.81135,-0.55169,-0.17212,-0.29453,0.53216
-0.1926,0.83476,-0.51583,-0.05263,0.77025,-0.92907
-0.19075,0.86026,-0.47282,-0.15619,1.59572,-2.16257
-0.18795,0.85378,-0.48552,-0.3077,1.34468,-1.2843
-0.19815,0.83364,-0.51554,-0.14823,-0.07941,-0.29693
-0.1989,0.82431,-0.53005,-0.00907,-0.43774,-0.2888
-0.19716,0.82496,-0.52968,-0.04965,-0.34347,0.02617
-0.1972,0.83055,-0.52085,-0.54741,0.84616,0.78834
-0.19509,0.83888,-0.50815,-0.54952,0.83783,0.77564
-0.16865,0.84554,-0.50658,-0.6245,0.82623,-0.62574
-0.15763,0.84456,-0.51174,-0.25559,-0.62984,1.61931
-0.14311,0.84745,-0.51122,-0.21016,-0.58942,1.28549
-0.11044,0.86659,-0.48664,-0.20316,-0.4796,1.06209
-0.0892,0.89881,-0.42916,-0.32243,0.10525,0.94047
-0.09221,0.92888,-0.35873,0.01373,0.68039,1.23589
-0.11364,0.93959,-0.32288,0.39551,0.47774,1.05645
-0.13619,0.94283,-0.30416,0.48778,0.29829,0.66887
-0.14622,0.94823,-0.2819,0.62851,0.16923,-0.3111
-0.14322,0.96787,-0.20667,0.44095,-0.00902,-0.19152
-0.1366,0.98079,-0.13921,0.15312,-0.11464,-0.32253
-0.11979,0.98702,-0.10698,0.18808,-0.16706,-0.19069
-0.09563,0.99114,-0.09219,-0.02338,-0.10344,0.01269
-0.06779,0.99519,-0.07069,-0.16363,-0.14296,0.25355
-0.0522,0.99742,-0.0492,-0.20894,-0.28143,0.26542
-0.04699,0.99868,-0.02061,-0.29319,-0.26975,-0.07138
-0.05115,0.99847,0.02084,-0.31004,-0.15564,-0.16789
-0.06819,0.99569,0.0628,-0.17095,-0.04099,0.01415
-0.09188,0.99183,0.08842,0.17176,0.15709,-0.31713
-0.10806,0.9873,0.11645,0.18784,0.31869,-0.27685
-0.11033,0.98159,0.15591,0.16131,0.35948,-0.22933
-0.10436,0.97424,0.19991,0.38987,0.43113,-0.42359
-0.1037,0.96821,0.22763,0.52726,0.45185,-0.53392
-0.10526,0.97034,0.2176,0.4227,0.55587,-0.27664
-0.09865,0.97503,0.19895,0.24216,0.6025,-0.39306
-0.08875,0.97801,0.18873,0.12358,0.35129,-0.76713
-0.07859,0.98399,0.15994,0.1327,0.34819,-0.68219
-0.07715,0.99162,0.10359,-0.0018,0.30339,-0.33903
-0.0788,0.99652,0.02704,0.07979,0.43944,0.52817
-0.0754,0.99553,-0.05687,0.00404,0.50885,0.76398
-0.06691,0.98869,-0.13417,-0.38476,0.61131,0.50296
-0.06085,0.97799,-0.19957,-0.66234,0.94695,0.40164
-0.07337,0.96576,-0.24885,-0.7259,0.56891,0.37672
-0.09851,0.95318,-0.28591,-0.67616,0.12565,0.42466
-0.1176,0.93939,-0.32206,-0.50461,-0.21587,0.53489
-0.1141,0.92354,-0.36613,-0.04098,-0.18028,0.5952
-0.10827,0.90122,-0.41962,0.274,-0.20668,0.65044
-0.11729,0.86946,-0.47987,0.72838,-0.15616,0.83598
-0.13168,0.84604,-0.51659,0.47224,-0.23339,0.81188
-0.13397,0.83078,-0.54023,0.16603,-0.43532,0.75948
-0.13387,0.8172,-0.56059,-0.06645,-0.60479,0.84871
-0.13908,0.80852,-0.57179,-0.14938,-0.61112,0.89128
-0.14821,0.80597,-0.5731,-0.20502,-0.65076,0.88473
-0.15664,0.81004,-0.56506,-0.14211,-0.66555,0.79187
-0.15923,0.82203,-0.54673,-0.1154,-0.57383,0.70785
-0.15493,0.84182,-0.51704,-0.10665,-0.3926,0.52405
-0.15609,0.86473,-0.47736,0.05054,2.10556,-2.70935
-0.16039,0.86657,-0.47258,0.09603,2.11935,-2.18359
-0.17164,0.84848,-0.50061,-0.03763,0.33299,-0.54451
-0.17136,0.83566,-0.52183,-0.19295,-0.54785,-0.20905
-0.16541,0.83358,-0.52705,-0.25805,-0.44852,0.06699
-0.16274,0.83944,-0.51851,-0.35935,-0.15751,0.34022
-0.16433,0.84552,-0.50802,-0.54435,0.66186,0.81722
-0.14999,0.8546,-0.49715,-0.41462,1.20334,0.31667
-0.13157,0.86207,-0.48941,-0.88845,1.3176,-1.07217
-0.12001,0.86015,-0.49572,-0.09221,-0.56149,1.39995
-0.08735,0.87213,-0.4814,-0.21325,-0.24939,1.08275
-0.06588,0.90171,-0.42729,-0.26223,-0.0058,1.05107
-0.06828,0.92906,-0.36356,0.03037,0.51631,1.269
-0.08751,0.93939,-0.3315,0.3472,0.49456,1.06904
-0.11206,0.94215,-0.31589,0.46626,0.36704,0.21799
-0.12762,0.9528,-0.27546,0.60533,0.06961,-0.25342
-0.132,0.97252,-0.19178,0.41293,-0.01944,-0.10856
-0.12123,0.98197,-0.14501,0.17217,-0.09771,-0.11874
-0.09854,0.98774,-0.12108,-0.142,-0.16324,0.22697
-0.06752,0.9927,-0.09995,-0.22319,-0.10022,0.06071
-0.04207,0.99729,-0.06032,-0.32651,-0.32693,0.18834
-0.02767,0.9995,-0.01532,-0.26551,-0.28613,0.00874
-0.02423,0.99952,0.01928,-0.27035,-0.26848,0.02842
-0.03513,0.99843,0.04352,-0.26521,-0.13292,-0.00356
-0.05656,0.99594,0.07004,0.10566,0.07192,-0.01995
-0.07833,0.99225,0.09648,0.2818,0.22769,-0.18477
-0.0879,0.98714,0.13347,0.32061,0.51612,-0.24488
-0.08687,0.97918,0.18346,0.10639,0.37681,-0.45649
-0.07951,0.97057,0.2273,0.19508,0.34669,-0.70156
-0.08487,0.96981,0.2286,0.33367,0.38287,-0.45237
-0.09176,0.9738,0.20806,0.2791,0.43253,-0.17579
-0.09156,0.97509,0.20203,0.09645,0.3134,-0.52214
-0.08645,0.97715,0.19416,0.15287,0.38207,-0.83398
-0.08591,0.98332,0.1603,0.28855,0.24092,-0.78919
-0.0887,0.99118,0.0984,0.34698,0.57812,-0.16823
-0.08955,0.99587,0.01496,0.25725,0.63077,0.46401
-0.07875,0.99432,-0.07156,0.0522,0.51224,0.91879
-0.06751,0.98698,-0.14595,-0.15336,0.48192,0.85249
-0.06643,0.97633,-0.20581,-0.71871,1.08231,0.42912
-0.08924,0.96395,-0.25065,-0.8781,0.53985,0.25214
-0.12677,0.95059,-0.28338,-0.81737,0.09351,0.34037
-0.14621,0.93483,-0.32359,-0.33188,-0.09709,0.5265
-0.13181,0.91931,-0.3708,-0.0638,-0.20167,0.63627
-0.10117,0.90439,-0.41453,0.28152,-0.23824,0.90363
-0.08523,0.8814,-0.46461,0.72049,-0.1322,0.81841
-0.10547,0.85412,-0.50926,0.32935,-0.32232,0.79628
-0.12001,0.83277,-0.54046,0.19502,-0.44553,0.70432
-0.12506,0.8135,-0.56796,0.08568,-0.54248,0.71614
-0.13392,0.80114,-0.5833,-0.16169,-0.62412,0.93042
-0.14216,0.79731,-0.58658,-0.1579,-0.66002,0.93881
-0.14665,0.80273,-0.57803,-0.14135,-0.69499,0.91634
-0.14732,0.81634,-0.55846,-0.15282,-0.29394,0.51076
-0.14594,0.8364,-0.52834,-0.1542,-0.06918,0.14189
-0.14683,0.86164,-0.48582,-0.15931,0.23391,-0.51743
-0.15046,0.86207,-0.48393,-0.06239,0.99504,-1.04915
-0.16053,0.84664,-0.50738,-0.08775,-0.27179,-0.29703
-0.16057,0.83863,-0.5205,-0.21319,-0.27872,-0.12733
-0.15378,0.84255,-0.5162,-0.75664,0.47191,0.79118
-0.14387,0.84764,-0.51069,-0.777,1.36612,0.10299
-0.13824,0.85369,-0.5021,-0.20172,0.90329,0.22201
-0.11343,0.83827,-0.53333,-0.61556,-0.88625,1.49177
-0.08842,0.83616,-0.54131,-0.38471,-0.81234,1.44312
-0.05623,0.86032,-0.50664,-0.40733,-0.2135,1.24017
-0.03213,0.89478,-0.44535,-0.46573,0.38409,1.05237
-0.02781,0.92722,-0.37348,-0.32904,0.5661,1.04831
-0.04669,0.94186,-0.33274,0.38527,0.65249,1.1078
-0.07548,0.9461,-0.31495,0.45167,0.45441,0.50306
-0.10077,0.95287,-0.28615,0.79987,0.0663,-0.50534
-0.11627,0.97118,-0.20804,0.44816,-0.12093,-0.08936
-0.11918,0.97929,-0.16366,0.2405,-0.17146,-0.04261
-0.10428,0.98448,-0.14113,0.17132,-0.09447,0.06522
-0.0825,0.98994,-0.11497,-0.09823,-0.04844,0.37969
-0.05276,0.99527,-0.08149,-0.30927,-0.21909,0.15075
-0.03236,0.99881,-0.03641,-0.42164,-0.36504,0.08019
-0.02441,0.99963,0.01206,-0.40262,-0.24403,-0.06518
-0.03017,0.99817,0.05232,-0.36156,-0.17439,-0.24497
-0.05129,0.99526,0.08259,0.04549,-0.03779,-0.04947
-0.07772,0.99179,0.10154,0.16563,0.0223,-0.06857
-0.09544,0.98757,0.12482,0.33563,0.47535,-0.18091
-0.10027,0.98119,0.16497,0.34046,0.48174,-0.22106
-0.09694,0.97301,0.20942,0.11422,0.30986,-0.53942
-0.09869,0.96872,0.22768,0.21298,0.39443,-0.60144
-0.10482,0.97205,0.21007,0.23819,0.4263,-0.46278
-0.10397,0.97638,0.18936,0.27319,0.65272,-0.22588
-0.09792,0.97937,0.17675,0.24685,0.32031,-0.71848
-0.08797,0.98524,0.14686,0.42682,0.4479,-0.65482
-0.08531,0.99277,0.0844,0.24156,0.38847,-0.43523
-0.08238,0.99659,0.00451,-0.07837,0.36807,0.28687
-0.081,0.99373,-0.07701,-0.01876,0.4917,0.81009
-0.0799,0.98426,-0.1576,-0.26021,0.68947,0.62368
-0.08065,0.971,-0.22506,-0.51197,0.89604,0.45143
-0.09441,0.95779,-0.27153,-0.66469,0.55105,0.52942
-0.11466,0.94453,-0.30776,-0.64245,0.14005,0.4012
-0.12571,0.931,-0.34267,-0.36155,0.00729,0.50675
-0.12122,0.91657,-0.38105,0.05071,-0.11979,0.54766
-0.11091,0.89671,-0.42849,0.30802,-0.08728,0.68226
-0.11096,0.87089,-0.47878,0.51783,-0.18237,0.81815
-0.1144,0.84785,-0.51775,0.28763,-0.24743,0.8232
-0.11227,0.82971,-0.54678,-0.00587,-0.51602,0.80138
-0.1128,0.81423,-0.56947,-0.10666,-0.61889,0.83818
-0.11447,0.80563,-0.58126,-0.16282,-0.60154,0.8459
-0.11975,0.80326,-0.58347,-0.17772,-0.65897,0.84324
-0.12514,0.80774,-0.5761,-0.17404,-0.61045,0.76351
-0.12978,0.81873,-0.55931,-0.15745,-0.51875,0.66742
-0.1335,0.8368,-0.53097,-0.14673,0.2233,-0.26572
-0.13977,0.85895,-0.49261,0.11671,1.69239,-2.30343
-0.14132,0.8586,-0.49278,0.15543,1.98044,-2.47897
-0.1512,0.84156,-0.51857,0.11333,0.00211,-0.18352
-0.15276,0.82895,-0.53806,0.12505,-0.48218,0.07872
-0.1501,0.82548,-0.54411,0.09442,-0.55955,0.36202
-0.14339,0.83295,-0.53445,-0.58847,0.40312,0.95138
-0.1263,0.84835,-0.51415,-0.64809,0.93174,0.90532
-0.09878,0.86948,-0.48399,-0.62363,1.67224,-1.25414
-0.07807,0.88342,-0.46203,-0.28878,-0.31543,1.376
-0.05082,0.87778,-0.47636,-0.36988,-0.58193,1.22364
-0.01585,0.88527,-0.4648,-0.42314,-0.40342,1.05631
-0.00068,0.91326,-0.40736,-0.45983,-0.1219,1.04779
-0.01243,0.93953,-0.34225,-0.21461,0.2524,1.08783
-0.03775,0.95131,-0.30589,0.14291,0.41493,0.93614
-0.07562,0.95357,-0.29151,0.29135,0.39048,0.55643
-0.11239,0.95591,-0.2713,0.56359,0.20709,-0.69708
-0.12862,0.9732,-0.1906,0.46036,0.03154,-0.49765
-0.12834,0.98453,-0.11925,0.20308,-0.20276,-0.27918
-0.11258,0.98978,-0.08753,0.07679,-0.18674,-0.00326
-0.08679,0.9938,-0.0694,-0.0785,-0.16472,0.06152
-0.06132,0.99723,-0.04203,-0.25689,-0.20449,0.15603
-0.04648,0.99886,-0.01032,-0.2386,-0.22021,-0.03846
-0.04688,0.99864,0.02264,-0.12887,-0.23265,-0.01069
-0.0609,0.99693,0.04918,-0.05831,-0.02192,0.03983
-0.08219,0.99374,0.07569,0.05922,0.04848,-0.0147
-0.09819,0.98897,0.11091,0.24339,0.052,-0.12666
-0.1035,0.98249,0.15493,0.26028,0.28338,-0.25706
-0.10284,0.97477,0.19809,0.08832,0.34878,-0.54286
-0.10742,0.97074,0.21477,0.15576,0.48285,-0.59716
-0.11446,0.97301,0.20034,0.36212,0.48876,-0.27943
-0.11825,0.97616,0.18199,0.51231,0.65511,-0.27158
-0.11258,0.97898,0.17007,0.46922,0.51535,-0.43858
-0.09721,0.98345,0.15286,0.45126,0.5235,-0.60534
-0.08548,0.99087,0.1042,-0.11975,0.34842,-0.60861
-0.07831,0.99641,0.03212,-0.18402,0.42634,-0.13472
-0.07632,0.99561,-0.05412,-0.1053,0.52218,0.4808
-0.07108,0.98742,-0.14123,-0.37661,0.56852,0.42933
-0.06545,0.97564,-0.20938,-0.55673,0.78579,0.33346
-0.07817,0.96396,-0.25431,-0.65492,0.65259,0.49169
-0.10498,0.9515,-0.28918,-0.63826,0.26476,0.41375
-0.11881,0.93887,-0.32311,-0.26053,-0.02752,0.53872
-0.10148,0.92636,-0.3627,0.04037,-0.18967,0.62045
-0.06843,0.91142,-0.40575,0.37431,-0.18037,0.71314
-0.05954,0.88496,-0.46183,0.50257,-0.1631,0.73669
-0.06329,0.86266,-0.50181,0.24449,-0.33074,0.74338
-0.0588,0.84587,-0.53014,0.11152,-0.36973,0.72301
-0.059,0.82796,-0.55767,-0.09129,-0.63695,0.82523
-0.06465,0.8154,-0.57527,-0.15427,-0.68494,0.86227
-0.07401,0.8097,-0.58215,-0.13842,-0.7053,0.84686
-0.08183,0.81088,-0.57946,-0.16939,-0.78469,0.79639
-0.08748,0.81844,-0.56789,-0.1116,-0.48833,0.55089
-0.09204,0.83159,-0.54772,-0.14684,-0.28044,0.29344
-0.09972,0.84821,-0.52018,-0.17465,0.48652,-0.93786
-0.11286,0.84746,-0.51873,0.41629,2.00054,-2.3587
-0.12956,0.82966,-0.54303,0.22468,0.37975,-0.33164
-0.14218,0.81252,-0.56533,-0.01482,-0.19351,-0.1421
-0.14912,0.80438,-0.57509,-0.44987,0.21968,0.24866
-0.14905,0.80706,-0.57134,-1.03097,1.12206,0.16671
-0.14042,0.80939,-0.57023,-0.80085,0.86431,0.54856
-0.11782,0.79951,-0.58898,-0.69811,-0.78642,1.34374
-0.09375,0.80421,-0.58691,-0.55098,-0.86239,1.58708
-0.06197,0.83238,-0.55073,-0.38739,-0.19452,1.30998
-0.03391,0.87159,-0.48906,-0.47236,0.53599,1.17394
-0.01987,0.90489,-0.42518,-0.17754,0.80675,1.08937
-0.03662,0.92433,-0.37982,0.32206,0.7577,1.06436
-0.06836,0.93507,-0.34781,0.58482,0.5265,0.46136
-0.09409,0.95144,-0.29308,0.97818,0.19039,-0.16936
-0.11117,0.96611,-0.23294,0.50323,-0.21352,-0.20588
-0.11307,0.97246,-0.20379,0.2487,-0.10926,-0.08536
-0.1047,0.97819,-0.17937,0.19023,-0.06796,0.16368
-0.09005,0.98571,-0.14235,0.13173,-0.08143,0.23808
-0.0665,0.99255,-0.10203,-0.21181,-0.21556,0.05119
-0.04536,0.99745,-0.05512,-0.27967,-0.41653,0.24271
-0.03522,0.99927,-0.01456,-0.28607,-0.45643,0.07399
-0.03093,0.99933,0.01944,-0.25919,-0.28046,-0.15993
-0.04029,0.99773,0.05395,-0.11907,0.02841,0.02069
-0.06051,0.99445,0.08605,0.0386,0.07394,0.01185
-0.07915,0.99007,0.11617,0.13565,0.13399,-0.10932
-0.08973,0.98365,0.15612,0.0454,0.41407,-0.3572
-0.09122,0.97703,0.19256,0.09076,0.43536,-0.47541
-0.09951,0.97459,0.20067,0.28875,0.41604,-0.46091
-0.10664,0.9773,0.18303,0.516,0.4109,-0.21167
-0.0992,0.98072,0.16838,0.38776,0.41871,-0.21771
-0.09001,0.98248,0.1632,0.20022,0.49691,-0.36189
-0.07791,0.98623,0.14589,0.14054,0.26106,-0.87159
-0.07625,0.99217,0.09889,0.09548,0.24901,-0.7863
-0.08025,0.99655,0.02089,0.22905,0.61657,0.40002
-0.08135,0.99398,-0.07335,0.16809,0.53182,0.91948
-0.07156,0.98415,-0.16225,-0.03285,0.63165,0.90838
-0.06317,0.97087,-0.23112,-0.58587,1.05382,0.43058
-0.07489,0.95735,-0.27904,-0.81839,0.72813,0.45078
-0.10924,0.94459,-0.30955,-0.86059,0.43974,0.45231
-0.13688,0.93077,-0.33901,-0.532,-0.04422,0.4404
-0.1303,0.91715,-0.37665,-0.00338,-0.19402,0.57609
-0.09668,0.90364,-0.41724,0.0708,-0.18348,0.7177
-0.07569,0.88032,-0.4683,0.6593,-0.30354,0.76197
-0.0807,0.8526,-0.51629,0.47497,-0.29782,0.95077
-0.08436,0.83279,-0.54713,0.23138,-0.40603,0.77967
-0.0886,0.81259,-0.57606,-0.03139,-0.60544,0.79156
-0.09755,0.79877,-0.59367,-0.12924,-0.64672,0.88434
