gravity.x,gravity.y,gravity.z,userAcceleration.x,userAcceleration.y,userAcceleration.z
0.07708,0.96237,-0.26058,-0.11394,-0.31938,-0.00229
0.05933,0.96725,-0.24677,0.04669,-0.24383,-0.09421
0.044,0.97162,-0.2324,0.15537,-0.1617,-0.1251
0.02614,0.97481,-0.22149,0.13651,-0.13124,-0.11091
0.00927,0.97641,-0.21569,0.04949,0.30398,-0.08138
0.00977,0.97542,-0.22014,0.02404,1.09738,-0.27275
0.03239,0.97185,-0.23334,0.06223,1.00224,-0.36823
0.0552,0.96677,-0.24961,0.04667,-0.08386,-0.67951
0.07012,0.96575,-0.2498,0.26559,0.1419,-0.02545
0.06636,0.96933,-0.23661,0.22907,0.41526,0.24222
0.04823,0.9715,-0.23205,-0.3623,0.56121,0.29107
0.0332,0.97392,-0.22445,-0.44857,0.11377,0.16433
0.02772,0.97603,-0.21588,-0.32943,-0.13481,0.22755
0.02553,0.97611,-0.21578,-0.06566,-0.22992,0.29648
0.0212,0.97702,-0.2121,0.01133,0.04708,0.36371
0.01063,0.97945,-0.20139,0.05609,-0.04363,0.32401
-0.00534,0.98423,-0.1768,0.06025,-0.19115,0.35403
-0.02091,0.9889,-0.14706,-0.07672,0.04609,0.27348
-0.03153,0.99125,-0.12818,-0.20318,0.09538,0.13457
-0.03395,0.99253,-0.11719,-0.11122,-0.15038,0.13687
-0.02851,0.99481,-0.09768,-0.11408,-0.29743,0.08483
-0.02451,0.99734,-0.06857,-0.07188,-0.24479,0.03862
-0.02785,0.99878,-0.04067,-0.03745,-0.15816,0.0412
-0.03839,0.99911,-0.01704,0.13207,-0.04442,0.12186
-0.04971,0.99873,0.00751,0.23973,-0.01083,0.05734
-0.05968,0.99778,0.02942,0.09662,-0.13358,-0.06026
-0.07065,0.9963,0.04897,0.0645,-0.16554,-0.08201
-0.08386,0.99416,0.06784,0.14611,-0.11126,-0.12714
-0.0968,0.99165,0.08515,0.15798,-0.18324,-0.11524
-0.10657,0.98923,0.10028,0.21216,-0.14287,-0.09955
-0.11508,0.98694,0.11271,0.2177,-0.02225,-0.13437
-0.12625,0.98432,0.12312,0.13581,-0.03311,-0.04948
-0.13606,0.98174,0.13293,0.14201,-0.00667,-0.00245
-0.14562,0.97889,0.14338,0.09476,0.07784,-0.03391
-0.15527,0.9759,0.15331,0.30925,0.20394,-0.00553
-0.16451,0.97316,0.16091,0.41184,0.12815,-0.07812
-0.16877,0.97169,0.16532,0.4161,0.12961,-0.08252
-0.16671,0.9719,0.16614,0.21705,0.16129,0.14067
-0.16089,0.9737,0.16132,-0.09779,0.37541,0.0798
-0.14736,0.97885,0.14186,-0.11132,0.37025,0.09926
-0.12572,0.98537,0.11505,0.07013,-0.01915,0.0045
-0.10098,0.99172,0.07931,-0.3143,0.17958,0.09853
-0.07138,0.99658,0.04152,-0.3439,0.17471,0.13632
-0.03544,0.99936,0.00432,-0.38985,0.68275,-0.05663
0.00057,0.9997,-0.02424,-0.20534,0.4229,-0.20503
0.0347,0.99832,-0.04628,-0.18138,0.38222,-0.12583
0.06551,0.99543,-0.0694,0.11722,0.18517,-0.09766
0.09152,0.99141,-0.0934,0.26085,-0.08911,-0.01358
0.11592,0.98627,-0.1176,0.1901,-0.25324,0.0376
0.13518,0.9808,-0.14054,0.11063,-0.32174,0.07379
0.14908,0.97531,-0.16293,0.01978,-0.22442,0.12248
0.15828,0.96931,-0.18812,-0.01683,-0.23896,0.21678
0.1589,0.96387,-0.21376,-0.16336,-0.28796,0.2859
0.15693,0.95947,-0.23405,-0.23729,-0.32673,0.19205
0.1539,0.95665,-0.24723,-0.23575,-0.42386,0.15339
0.14496,0.95604,-0.25488,-0.18436,-0.52149,0.08901
0.12735,0.95817,-0.25629,-0.08087,-0.36465,0.0815
0.10346,0.96257,-0.25051,0.00231,-0.33639,0.06112
0.07871,0.9683,-0.23705,0.20491,-0.21789,-0.00062
0.05598,0.97361,-0.22122,0.14373,-0.04455,-0.08431
0.03628,0.97772,-0.20674,0.03296,0.37279,-0.16703
0.02519,0.97939,-0.2004,-0.16137,0.92689,-0.31643
0.0357,0.97727,-0.20894,-0.15501,1.09145,-0.28232
0.05973,0.97186,-0.22784,0.20224,-0.07665,-0.53214
0.08159,0.96825,-0.2363,0.0996,-0.22118,-0.2917
0.08893,0.96907,-0.23019,0.22159,0.79272,0.38913
0.08371,0.97004,-0.22807,-0.54356,0.47892,0.13228
0.07449,0.97135,-0.22568,-0.18838,-0.11153,0.16245
0.07341,0.97411,-0.21381,-0.04829,-0.33078,0.22219
0.06976,0.97657,-0.20358,-0.08387,-0.0821,0.20134
0.05885,0.97714,-0.20429,-0.05371,0.35261,0.29005
0.04028,0.97916,-0.19902,0.00493,0.01865,0.36725
0.02207,0.98411,-0.17617,-0.02427,-0.1699,0.36908
0.00951,0.98927,-0.1458,-0.31381,0.05558,0.1882
0.00077,0.99245,-0.1226,-0.31237,-0.00654,0.09941
-0.00171,0.9944,-0.10562,-0.22961,-0.08267,0.06045
0.00102,0.99643,-0.08436,-0.03806,-0.31755,0.12852
-9e-05,0.99844,-0.05583,0.04709,-0.33526,0.04455
-0.00957,0.99957,-0.02749,0.04975,-0.27669,0.0208
-0.02139,0.99977,-0.00231,0.1067,-0.06439,0.06389
-0.03142,0.99925,0.02235,0.0575,-0.15552,-0.01024
-0.0423,0.99816,0.04336,0.06838,-0.15443,-0.03124
-0.05491,0.99664,0.06076,0.13497,-0.14189,-0.08419
-0.06881,0.99465,0.07694,0.17538,-0.16351,-0.08753
-0.08329,0.99241,0.09044,0.18985,-0.16126,-0.10103
-0.09859,0.98987,0.10212,0.11856,-0.0915,-0.15296
-0.11468,0.98695,0.11301,0.16377,0.03548,-0.09681
-0.12992,0.98376,0.12382,0.17901,0.03867,-0.10762
-0.14361,0.97997,0.13792,0.2988,0.08478,0.00303
-0.15432,0.97673,0.14893,0.43772,0.04749,-0.01958
-0.15908,0.97522,0.15372,0.44248,0.04899,-0.02437
-0.15764,0.97483,0.15762,0.37274,0.16955,-0.02258
-0.14943,0.97642,0.15578,0.00749,0.37731,0.02867
-0.13517,0.98062,0.14179,-0.17866,0.47881,0.13137
-0.11208,0.98695,0.11562,-0.19861,0.30991,0.16234
-0.08747,0.99282,0.08155,-0.41994,0.36082,0.20697
-0.06201,0.9971,0.04397,-0.43991,0.46686,0.18941
-0.03127,0.9995,0.0045,-0.35023,0.76404,-0.02871
0.00121,0.9997,-0.02435,-0.21331,0.36283,-0.05205
0.03186,0.99847,-0.04514,-0.14404,0.26549,-0.00586
0.06254,0.99556,-0.07026,-0.01235,0.08734,-0.09275
0.08777,0.99139,-0.09712,0.16173,-0.05523,-0.04309
0.10959,0.98653,-0.12141,0.10762,-0.17736,0.01792
0.13185,0.98119,-0.14096,0.01481,-0.35807,0.14634
0.14855,0.97576,-0.1607,-0.01597,-0.39165,0.15551
0.15753,0.97055,-0.18226,-0.08553,-0.39183,0.15628
0.15895,0.96608,-0.20352,-0.16911,-0.38711,0.15814
0.15425,0.96268,-0.22238,-0.15582,-0.3411,0.19674
0.14714,0.96019,-0.23746,-0.13526,-0.38549,0.1715
0.13782,0.9591,-0.24722,-0.1296,-0.42537,0.07528
0.12338,0.9603,-0.25019,-0.11737,-0.39144,0.0669
0.10267,0.96434,-0.24392,-0.08461,-0.38988,0.03858
0.07926,0.97037,-0.22824,0.1075,-0.3127,-0.08488
0.05693,0.97637,-0.20846,0.19761,-0.14065,-0.11118
0.03619,0.98102,-0.1905,0.20004,-0.0359,-0.11105
0.02073,0.98397,-0.17708,0.0493,0.61951,-0.09194
0.01873,0.98387,-0.17786,-0.16888,1.0756,-0.14755
0.0356,0.98006,-0.19546,-0.12687,1.08738,-0.23857
0.05768,0.97455,-0.21661,0.01888,-0.33055,-0.31638
0.07994,0.9726,-0.21827,-0.00338,-0.32861,-0.31472
0.0816,0.97129,-0.22345,0.22172,0.62074,0.27179
0.06734,0.97132,-0.22802,-0.57327,0.40426,0.36238
0.05805,0.97364,-0.22059,-0.33642,-0.1292,0.2287
0.05839,0.97388,-0.21942,-0.15598,-0.27782,0.25697
0.05994,0.97343,-0.22097,-0.12823,-0.07753,0.24157
0.05938,0.97296,-0.22319,-0.01702,0.11771,0.37453
0.05115,0.97594,-0.21195,-0.00879,0.11473,0.36328
0.03658,0.98119,-0.18952,-0.0893,-0.0441,0.26783
0.02375,0.98607,-0.16463,-0.15126,0.00754,0.17038
0.01746,0.98944,-0.14383,-0.1675,0.03293,0.0414
0.01576,0.99217,-0.12389,-0.07616,-0.09755,0.0737
0.0134,0.99485,-0.10045,0.05932,-0.24672,0.08831
0.00468,0.99732,-0.07298,0.15684,-0.2005,0.06152
-0.00934,0.99896,-0.04453,0.16021,-0.11503,0.03268
-0.02227,0.99958,-0.01821,0.14527,-0.1295,0.0297
-0.0334,0.99943,0.00522,0.13307,-0.13292,-0.04053
-0.044,0.99868,0.02647,0.14648,-0.1395,-0.07193
-0.05423,0.99746,0.04618,0.09829,-0.15502,-0.09826
-0.06446,0.99574,0.06588,0.09443,-0.13086,-0.09597
-0.07649,0.99338,0.08568,0.09428,-0.19276,-0.06115
-0.0908,0.99034,0.10474,0.12037,-0.14169,-0.11012
-0.10695,0.98661,0.12311,0.07592,-0.10527,-0.1329
-0.12167,0.98274,0.13933,0.10415,0.09757,-0.11206
-0.13522,0.97879,0.15386,0.15409,0.00952,-0.05421
-0.148,0.97526,0.16417,0.16972,0.02425,-0.093
-0.15786,0.97271,0.17001,0.22887,0.08419,0.00645
-0.1657,0.97099,0.17237,0.30888,0.01638,-0.01895
-0.16938,0.97067,0.17061,0.55953,0.04192,-0.08075
-0.16893,0.97149,0.16629,0.56493,0.30262,0.11976
-0.15399,0.97547,0.15728,0.12082,0.35346,0.24652
-0.12526,0.98185,0.14238,-0.02977,0.37292,0.21317
-0.09292,0.98806,0.12285,-0.59453,0.77027,0.11221
-0.06397,0.99362,0.09281,-0.7763,0.69745,0.16919
-0.03451,0.99796,0.05367,-0.64919,0.6123,0.12031
-0.0048,0.99975,0.02182,-0.30881,0.42236,-0.1477
0.0218,0.99975,-0.00365,-0.07295,0.32189,-0.13412
0.04571,0.99849,-0.03044,0.01085,0.25357,-0.09353
0.06909,0.99607,-0.0553,0.27112,-0.05909,-0.06454
0.09279,0.99252,-0.0793,0.23881,-0.19932,0.05534
0.11526,0.98762,-0.10635,0.16842,-0.23962,0.06273
0.13187,0.98205,-0.13481,0.07137,-0.32513,0.065
0.1431,0.9765,-0.16113,-0.01961,-0.29941,0.14849
0.14813,0.97134,-0.18589,-0.09935,-0.28867,0.19639
0.1481,0.96729,-0.20592,-0.27238,-0.44421,0.21918
0.14192,0.96499,-0.22056,-0.24981,-0.46569,0.18739
0.12926,0.96435,-0.2309,-0.2077,-0.53208,0.13817
0.11331,0.96554,-0.23428,-0.13739,-0.5758,0.0668
0.09404,0.96887,-0.229,-0.06622,-0.50686,0.0086
0.07255,0.97409,-0.21419,0.05782,-0.44756,-0.03473
0.05182,0.97983,-0.19296,0.23796,-0.27007,-0.11566
0.03351,0.98419,-0.17391,0.31874,0.01882,-0.05005
0.01941,0.98673,-0.16118,0.08052,0.48905,-0.101
0.01996,0.98726,-0.15782,-0.17635,1.23178,-0.2867
0.04145,0.98417,-0.17229,-0.13906,1.01661,-0.54742
0.06536,0.97924,-0.19188,0.21664,-0.23078,-0.73043
0.08627,0.97753,-0.19231,0.03578,-0.24862,0.07044
0.0875,0.97482,-0.20507,0.10146,1.20604,0.33715
0.07376,0.97544,-0.20753,-0.49142,1.24401,0.33391
0.07185,0.97793,-0.19617,-0.23257,-0.35815,0.30813
0.08416,0.97872,-0.18713,-0.08899,-0.68465,0.22993
0.08495,0.97847,-0.18807,-0.03873,-0.12283,0.23544
0.0739,0.97987,-0.18542,0.00562,0.31342,0.38862
0.04508,0.9842,-0.17117,-0.06538,0.18894,0.27917
0.01199,0.9889,-0.1481,-0.16475,0.10786,0.2755
-0.00646,0.99264,-0.12091,-0.39172,-0.07385,0.2152
-0.01018,0.99534,-0.09583,-0.28432,-0.14358,0.09125
-0.01073,0.99756,-0.06897,-0.24452,-0.24682,0.12122
-0.01274,0.99922,-0.03715,-0.12365,-0.36469,0.20175
-0.01733,0.99984,0.00066,-0.00655,-0.21806,0.11169
-0.02514,0.99897,0.03771,0.05804,-0.14106,0.07275
-0.03993,0.99716,0.06372,0.0238,-0.06599,0.02132
-0.05686,0.99485,0.08384,0.05788,-0.09887,0.01957
-0.07427,0.99184,0.10355,0.07996,-0.245,-0.10827
-0.09314,0.9881,0.12235,0.18259,-0.12161,-0.1431
-0.11057,0.98418,0.13838,0.25149,-0.09603,-0.12578
-0.12589,0.98072,0.14938,0.21419,-0.0775,-0.17264
-0.14042,0.97753,0.15715,0.17558,-0.00498,-0.2133
-0.15321,0.97462,0.16316,0.276,0.05911,-0.14375
-0.16478,0.97179,0.16871,0.35931,0.12108,-0.16342
-0.17503,0.96926,0.17284,0.55724,0.12516,-0.01693
-0.17979,0.96825,0.17364,0.69761,0.06005,-0.02018
-0.17929,0.96794,0.17588,0.61896,0.0251,-0.04795
-0.1735,0.96823,0.18003,0.2136,0.38782,0.14577
-0.15608,0.972,0.17564,-0.00223,0.41439,0.29347
-0.12979,0.97904,0.15691,-0.23073,0.38081,0.21075
-0.10036,0.98634,0.1306,-0.41637,0.35627,0.16476
-0.07213,0.99241,0.09954,-0.48266,0.48046,0.20943
-0.04483,0.99685,0.06536,-0.63194,0.67233,0.13028
-0.01411,0.99945,0.02969,-0.5211,0.57748,-0.16471
0.01818,0.99983,0.00101,-0.11808,0.33848,-0.06015
0.04604,0.99858,-0.02666,0.04931,0.20435,-0.08797
0.07088,0.99581,-0.05763,0.19902,0.0223,-0.11143
0.0961,0.99144,-0.08829,0.27901,-0.10895,-0.01727
0.12196,0.98549,-0.11802,0.23412,-0.25243,0.08668
0.14118,0.97912,-0.14624,0.13984,-0.33954,0.21305
0.15953,0.97241,-0.17018,-0.05517,-0.30288,0.10127
0.17164,0.96591,-0.19379,-0.18102,-0.35067,0.18773
0.17772,0.95998,-0.21641,-0.29984,-0.37721,0.22029
0.17848,0.95535,-0.23544,-0.29969,-0.47121,0.24954
0.17329,0.95242,-0.25072,-0.23967,-0.41099,0.18605
0.16394,0.95191,-0.25879,-0.18297,-0.47528,0.17638
0.14758,0.95415,-0.26039,-0.14404,-0.45632,0.12325
0.12628,0.95956,-0.25157,-0.01549,-0.36586,0.04907
0.10366,0.96712,-0.23222,0.09861,-0.30423,-0.11129
0.0828,0.97372,-0.21213,0.1127,-0.05272,-0.22634
0.06412,0.97727,-0.20206,0.06783,0.07368,-0.22144
0.04988,0.97939,-0.1957,0.00413,0.74653,-0.19852
0.05261,0.97931,-0.19539,-0.1619,1.24506,-0.30902
0.07097,0.97559,-0.2078,-0.04473,1.20242,-0.34925
0.0802,0.97171,-0.22214,0.18214,-0.2097,-0.76311
0.08857,0.97308,-0.21275,0.38158,0.45502,0.1891
0.08559,0.97439,-0.20789,0.38456,0.45371,0.18424
0.07137,0.97485,-0.2111,-0.53156,0.47411,0.36802
0.06308,0.97778,-0.1999,-0.30697,-0.19642,0.35462
0.06776,0.97927,-0.19085,-0.17765,-0.45939,0.34689
0.06958,0.98072,-0.18259,-0.2345,-0.32224,0.24911
0.06059,0.98252,-0.17599,-0.10028,0.02401,0.40432
0.03635,0.98678,-0.15789,0.05672,0.02495,0.37681
0.00402,0.99116,-0.13256,0.12261,-0.02696,0.37519
-0.01565,0.9939,-0.1091,-0.16886,0.15469,0.0709
-0.01635,0.99589,-0.08906,-0.16816,0.1527,0.05086
-0.01005,0.99787,-0.06443,-0.1058,-0.33249,0.13692
-0.00902,0.99921,-0.03849,-0.01855,-0.40018,0.11349
-0.01542,0.99982,-0.01053,0.00849,-0.34252,0.03436
-0.02989,0.9994,0.01714,0.01785,-0.09234,0.04284
-0.04634,0.99803,0.04216,0.09633,-0.00909,0.05557
-0.06055,0.99618,0.06279,0.04527,-0.0973,-0.02037
-0.07676,0.99361,0.0826,-0.02241,-0.22215,-0.07391
-0.09586,0.99011,0.10238,0.06365,-0.16282,-0.08859
-0.11363,0.98628,0.11972,0.21336,-0.12341,-0.09934
-0.12875,0.9829,0.13162,0.21217,-0.14511,-0.16121
-0.14069,0.98023,0.1391,0.20468,-0.03862,-0.15559
-0.15126,0.97769,0.1457,0.21832,0.00438,-0.10075
-0.16225,0.97505,0.15146,0.25479,0.17243,-0.1131
-0.1729,0.97238,0.15676,0.2148,0.20076,-0.15631
-0.18126,0.97003,0.1618,0.44722,0.12883,-0.02834
-0.1852,0.96848,0.16653,0.51733,0.05644,-0.06703
-0.17984,0.96855,0.17194,0.48051,0.12636,0.01796
-0.16486,0.97007,0.17823,0.18006,0.40082,0.21871
-0.14095,0.97495,0.17203,-0.01229,0.38566,0.27839
-0.10994,0.98256,0.14993,-0.10366,0.35025,0.11255
-0.08073,0.98982,0.11714,-0.47925,0.37994,0.09127
-0.05594,0.9953,0.0789,-0.62497,0.55928,0.09615
-0.03166,0.9987,0.03985,-0.60805,0.59025,0.06318
-0.00294,0.99997,0.00571,-0.50797,0.57266,-0.02954
0.02738,0.99935,-0.0231,-0.01242,0.39323,-0.03617
0.05507,0.99704,-0.05352,0.22294,0.1427,-0.10325
0.08135,0.99324,-0.08275,0.21618,0.05086,-0.05687
0.10891,0.98748,-0.11409,0.13395,-0.2007,0.0658
0.13174,0.98068,-0.14455,0.00374,-0.29681,0.10285
0.14671,0.97368,-0.17441,-0.01123,-0.28981,0.1327
0.15534,0.96695,-0.20217,-0.13541,-0.38722,0.24729
0.15965,0.96073,-0.22693,-0.19885,-0.44219,0.24774
0.16215,0.95549,-0.24644,-0.23594,-0.40059,0.27074
0.16347,0.95099,-0.26246,-0.25007,-0.43918,0.25775
0.16348,0.94778,-0.27384,-0.29226,-0.5302,0.21199
0.15828,0.94699,-0.27956,-0.28706,-0.52941,0.21772
0.14405,0.94956,-0.27853,-0.16789,-0.54786,0.13473
0.12405,0.95569,-0.26693,0.06502,-0.3532,-0.0059
0.10452,0.96329,-0.24727,0.11826,-0.26727,-0.10763
0.0848,0.96911,-0.23159,0.17076,0.00894,-0.21423
0.06956,0.97192,-0.22479,0.39716,0.72498,-0.17808
0.06585,0.972,-0.22553,0.33457,0.93679,-0.17988
0.07614,0.96935,-0.23358,0.17887,0.89953,-0.28106
0.08596,0.96517,-0.24707,-0.39605,0.13914,-0.64958
0.08909,0.96458,-0.24826,-0.33751,0.15041,-0.41124
0.08701,0.96862,-0.23278,-0.1871,0.61937,0.19617
0.08259,0.96948,-0.23084,-0.15971,0.50719,0.17398
0.08421,0.96919,-0.23147,-0.25086,0.3722,0.15708
0.09378,0.96921,-0.22765,-0.21454,-0.39306,0.30042
0.10167,0.97125,-0.21526,-0.22265,-0.32664,0.33008
0.09049,0.97399,-0.20772,-0.16145,-0.0721,0.39659
0.0637,0.97852,-0.19603,-0.08424,-0.11849,0.36281
0.03119,0.98387,-0.17614,0.01532,-0.03643,0.36155
0.00395,0.98897,-0.14802,0.03549,0.08146,0.28904
-0.01155,0.99234,-0.12296,-0.10855,0.09064,0.1184
-0.01282,0.99436,-0.10524,-0.08043,-0.12095,0.09715
-0.01224,0.99609,-0.08744,-0.12068,-0.45596,0.14566
-0.01431,0.99792,-0.06284,-0.08215,-0.39988,0.13485
-0.01852,0.99924,-0.03419,-0.01466,-0.27429,0.11177
-0.02671,0.9996,-0.00864,0.06408,-0.07422,0.0372
-0.03487,0.99927,0.01497,0.18668,-0.08875,0.0059
-0.03923,0.99847,0.03894,0.14908,-0.16567,-0.01312
-0.04447,0.99711,0.06145,0.124,-0.19183,-0.06317
-0.05148,0.99554,0.07895,0.15242,-0.13173,-0.13129
-0.05681,0.99415,0.09178,0.24657,-0.12042,-0.12741
-0.06118,0.99287,0.10222,0.26391,-0.12515,-0.14671
-0.06731,0.99123,0.11364,0.24347,-0.04922,-0.18746
-0.07736,0.98922,0.12432,0.18353,0.05189,-0.189
-0.09051,0.98654,0.13611,0.18242,0.08037,-0.09939
-0.10592,0.98314,0.14902,0.07946,0.13025,-0.03739
-0.12121,0.97997,0.15797,0.23306,0.0834,-0.0545
-0.13503,0.97692,0.16549,0.24688,0.08645,-0.06202
-0.1375,0.97631,0.16701,0.33607,0.14426,-0.01076
-0.13919,0.97573,0.169,0.4662,0.3234,0.04446
-0.13063,0.97676,0.16988,0.45764,0.32237,0.04358
-0.11,0.98086,0.1606,-0.052,0.34837,0.24514
-0.08386,0.98658,0.14005,-0.08446,0.31994,0.09175
-0.0575,0.99214,0.11108,-0.28587,0.34628,0.1178
-0.03334,0.99658,0.07559,-0.33768,0.36172,0.06573
-0.00814,0.99907,0.04223,-0.50587,0.68658,-0.09588
0.01803,0.99974,0.01383,-0.38313,0.54451,-0.01113
0.04498,0.99888,-0.01413,-0.08801,0.27352,0.04872
0.06881,0.99661,-0.04502,0.14811,0.08559,-0.05108
0.09373,0.99261,-0.07697,0.18637,0.00841,-0.02479
0.1209,0.98659,-0.10959,0.16235,-0.11255,0.025
0.14172,0.98,-0.13967,0.00975,-0.27845,0.08193
0.1561,0.97362,-0.16636,-0.03229,-0.30166,0.12094
0.16578,0.96767,-0.19007,-0.12482,-0.32369,0.16586
0.17313,0.9618,-0.21205,-0.21317,-0.36985,0.196
0.17918,0.95605,-0.23208,-0.21933,-0.39156,0.2048
0.18245,0.95098,-0.24967,-0.20672,-0.44218,0.25286
0.18056,0.94734,-0.26446,-0.2108,-0.4415,0.25405
0.17172,0.94652,-0.27313,-0.19338,-0.45205,0.20005
0.15731,0.94913,-0.27278,-0.10679,-0.3853,0.09576
0.13979,0.95488,-0.26202,-0.00251,-0.36783,0.03288
0.12085,0.96213,-0.24434,0.09279,-0.27998,-0.05535
0.10365,0.9692,-0.2234,0.08639,0.08984,-0.30429
0.09168,0.97394,-0.20745,0.1835,0.47496,-0.23044
0.08683,0.97449,-0.20695,0.20153,0.74226,-0.18581
0.09214,0.97134,-0.21909,0.25326,0.84209,-0.32063
0.09789,0.96652,-0.23717,0.26058,0.05866,-0.50694
0.10029,0.96588,-0.23875,0.01388,0.04196,-0.01542
0.10555,0.96547,-0.23818,0.27163,0.98676,0.20446
0.11172,0.96525,-0.23624,-0.49728,0.94991,0.42461
0.1097,0.96808,-0.22533,-0.62813,-0.08663,0.25704
0.11909,0.97091,-0.20771,-0.14969,-0.61468,0.26555
0.12082,0.97287,-0.19728,-0.09891,-0.59506,0.22003
0.10847,0.97296,-0.20389,-0.17437,0.06227,0.20375
0.08318,0.97622,-0.20017,-0.00295,-0.03498,0.43956
0.05304,0.98222,-0.18004,-0.00484,0.02211,0.44377
0.03402,0.98791,-0.1512,0.00263,0.12805,0.3405
0.02762,0.99174,-0.12526,-0.21678,0.10159,0.03835
0.02787,0.99405,-0.10523,-0.07798,-0.23516,0.07128
0.02718,0.99592,-0.08601,-0.02518,-0.33126,0.11173
0.02559,0.99779,-0.06124,0.08549,-0.44841,0.14607
0.02073,0.99927,-0.03191,-0.01782,-0.19789,0.05675
0.01239,0.99991,-0.00244,-0.03728,-0.07912,0.01863
0.00161,0.99973,0.02305,-0.05239,-0.07201,0.02425
-0.01014,0.99877,0.04841,-0.04575,-0.2002,-0.02515
-0.02453,0.99701,0.07322,-0.02312,-0.18858,-0.10281
-0.04066,0.99485,0.09274,0.09519,-0.20536,-0.11969
-0.05675,0.99263,0.10703,0.21348,-0.08523,-0.18137
-0.07231,0.99042,0.11758,0.22905,-0.08303,-0.19192
-0.08625,0.98824,0.12621,0.16906,0.11053,-0.07517
-0.09831,0.98595,0.13499,0.21006,0.0781,-0.11514
-0.11138,0.98312,0.1451,0.22314,0.08094,-0.12525
-0.12132,0.9808,0.15263,0.40648,0.05909,0.0136
-0.12594,0.97962,0.15642,0.42218,0.11596,-0.06792
-0.121,0.97987,0.15876,0.36704,0.15952,-0.02675
-0.10665,0.9813,0.16018,0.15798,0.4331,0.18558
-0.08312,0.98539,0.14864,-0.06872,0.40329,0.23725
-0.05433,0.99113,0.12127,-0.15647,0.34678,0.1247
-0.02581,0.99608,0.08457,-0.3563,0.32491,0.13741
0.00037,0.99879,0.04908,-0.40521,0.50966,0.0483
0.0269,0.99947,0.01792,-0.47171,0.56333,0.04998
0.0576,0.99827,-0.01121,-0.04074,0.43906,-0.1312
0.08728,0.99533,-0.04113,0.06918,0.34189,-0.1539
0.10907,0.99147,-0.07132,0.13989,0.21315,-0.10766
0.13085,0.98642,-0.09923,0.19621,-0.05849,-0.03609
0.15664,0.97936,-0.12768,0.16132,-0.15035,0.03504
0.17701,0.97137,-0.15845,0.02885,-0.3056,0.10551
0.19079,0.96362,-0.18714,-0.16688,-0.40542,0.16352
0.19953,0.95658,-0.21243,-0.20805,-0.43716,0.21027
0.20219,0.95058,-0.23559,-0.26913,-0.47571,0.24709
0.19937,0.94614,-0.25508,-0.2603,-0.45967,0.22487
0.19285,0.94406,-0.2675,-0.23243,-0.44059,0.22338
0.18125,0.94452,-0.2739,-0.18343,-0.51604,0.15528
0.16401,0.94777,-0.27355,-0.15431,-0.44116,0.07102
0.14384,0.95349,-0.26487,-0.06156,-0.38356,-0.06298
0.12453,0.95996,-0.25092,0.10783,-0.24788,-0.18475
0.10793,0.96445,-0.24119,0.17831,-0.02338,-0.20806
0.09535,0.9673,-0.23502,0.19188,0.37216,-0.1232
0.09197,0.9689,-0.22972,0.1412,1.12226,-0.22783
0.10116,0.9667,-0.23507,-0.02408,1.17793,-0.41096
0.10974,0.96261,-0.24766,-0.05175,0.00423,-0.63224
0.11566,0.9615,-0.24925,-0.13515,-0.33664,-0.7382
0.11105,0.96268,-0.24678,0.20958,0.90785,0.78434
0.10272,0.96272,-0.25022,-0.58607,0.4981,0.25354
0.09764,0.96635,-0.23798,-0.53058,-0.15545,0.05062
0.09917,0.9686,-0.22796,-0.17829,-0.5033,0.28382
0.0966,0.96924,-0.22634,-0.11095,-0.11077,0.24769
0.08857,0.97087,-0.22262,0.08085,0.50554,0.51873
0.07118,0.97617,-0.20499,0.30633,0.07583,0.40105
0.0572,0.98315,-0.17359,-0.07184,-0.27177,0.2701
0.04727,0.98927,-0.13824,-0.14961,-0.31257,0.2172
0.03613,0.99306,-0.11188,-0.26245,-0.22756,0.08672
0.02846,0.9952,-0.09353,-0.19404,-0.17936,0.15678
0.02832,0.99696,-0.07252,-0.1767,-0.29017,0.14713
0.02686,0.99879,-0.04112,-0.09895,-0.30181,0.04236
0.01959,0.99974,-0.01157,0.00607,-0.09242,0.05684
0.00835,0.99989,0.0118,0.09091,-0.00834,0.07356
-0.00045,0.99945,0.03298,0.16512,-0.04315,0.03973
-0.0095,0.99858,0.05227,0.14934,-0.23801,-0.11129
-0.02105,0.99728,0.07057,0.19048,-0.22903,-0.12817
-0.03153,0.99568,0.0873,0.21601,-0.22471,-0.1396
-0.04021,0.99398,0.10183,0.19771,0.06731,-0.23762
-0.04779,0.99212,0.11579,0.17595,0.14555,-0.20591
-0.05575,0.98999,0.12959,0.1445,0.09667,-0.07215
-0.06725,0.98753,0.1423,0.15604,0.11827,-0.03542
-0.07859,0.98523,0.15212,0.19502,0.0533,0.01439
-0.08712,0.98374,0.15704,0.49936,0.03331,-0.05265
-0.09002,0.98327,0.15835,0.43964,0.11762,0.05909
-0.08321,0.98358,0.16011,0.38091,0.28853,-0.02293
-0.0648,0.9857,0.15555,0.00474,0.32963,0.29378
-0.04114,0.98983,0.13612,0.06145,0.11274,0.13856
-0.01686,0.99474,0.10101,-0.08754,0.18072,0.14062
0.0068,0.9983,0.05771,-0.39727,0.71106,0.10552
0.03379,0.99925,0.01878,-0.54615,0.81102,-0.06901
0.06473,0.99784,-0.01113,-0.42636,0.66304,-0.05151
0.09477,0.99481,-0.03702,-0.02383,0.31501,-0.06922
0.11992,0.99059,-0.06584,0.16028,0.21491,-0.12596
0.14102,0.9856,-0.09325,0.21608,0.10824,-0.08947
0.16441,0.97895,-0.12087,0.17103,-0.26721,0.08768
0.18241,0.97139,-0.15206,0.08401,-0.34942,0.11339
0.19235,0.96413,-0.18288,0.00296,-0.39518,0.15605
0.19694,0.95735,-0.21138,-0.2187,-0.35263,0.2631
0.19772,0.95104,-0.23753,-0.33601,-0.33448,0.2776
0.19443,0.94598,-0.25945,-0.40486,-0.41317,0.27708
0.18734,0.94293,-0.27526,-0.35975,-0.49973,0.24789
0.17639,0.94215,-0.28502,-0.24304,-0.49197,0.20807
0.16198,0.94433,-0.28634,-0.16035,-0.49844,0.0971
0.14425,0.94975,-0.27777,-0.09095,-0.44488,-0.00595
0.12489,0.95725,-0.2609,0.06002,-0.34695,-0.13702
0.10658,0.96421,-0.24274,0.22088,-0.1726,-0.2058
0.0892,0.96892,-0.23072,0.19199,0.09189,-0.13775
0.08041,0.97184,-0.22147,0.1984,0.86042,-0.14641
0.08864,0.97051,-0.22415,0.03609,1.5641,-0.33228
0.10388,0.96521,-0.23996,0.07427,0.56849,-0.58475
0.11514,0.96089,-0.25186,-0.23222,-0.38211,-0.61303
0.11627,0.96127,-0.24988,0.03214,0.10103,0.02483
0.10583,0.96184,-0.2523,-0.41687,0.74841,0.46962
0.09973,0.96565,-0.23995,-0.5005,-0.14471,0.15685
0.10347,0.96826,-0.22751,-0.35823,-0.43069,0.30706
0.10836,0.96974,-0.21874,-0.18134,-0.36351,0.27085
0.10546,0.97155,-0.21205,0.09399,0.19677,0.51984
0.08652,0.97649,-0.19742,0.24896,0.01855,0.49263
0.05899,0.98361,-0.17038,0.19255,-0.25884,0.32816
0.03483,0.9902,-0.13523,-0.2386,-0.0391,0.27144
0.01948,0.99374,-0.10999,-0.33026,0.0084,0.12911
0.01697,0.99568,-0.09127,-0.24828,-0.13377,-0.01648
0.023,0.99784,-0.06153,-0.09795,-0.42075,0.14713
0.02511,0.99933,-0.02636,-0.07965,-0.45148,0.08703
0.01876,0.99981,0.00318,-0.01796,-0.35174,-0.02392
0.00893,0.99951,0.02988,0.22717,0.11386,0.05877
0.00241,0.99834,0.05754,0.28423,0.07788,0.05463
-0.00789,0.99699,0.07711,0.04549,-0.13056,-0.11666
-0.02104,0.99558,0.09144,0.16462,-0.124,-0.24242
-0.03379,0.99347,0.10893,0.21174,-0.1642,-0.22508
-0.04427,0.99139,0.12317,0.26015,-0.11331,-0.11053
-0.05628,0.98913,0.13578,0.14568,-0.04702,-0.13095
-0.07008,0.98602,0.15113,0.06631,0.13228,0.00107
-0.08436,0.98275,0.16455,0.36094,0.09151,-0.01906
-0.09687,0.97984,0.17468,0.47451,0.04671,0.00078
-0.10222,0.97789,0.18239,0.52101,0.0881,-0.05336
-0.09747,0.97696,0.18986,0.52172,0.2094,0.07374
-0.08911,0.97699,0.19376,0.48009,0.29244,0.07718
-0.07272,0.97883,0.19129,0.05688,0.39972,0.3327
-0.04951,0.98294,0.17712,0.01073,0.29554,0.27292
-0.02509,0.98865,0.14808,-0.22316,0.24791,0.11563
-0.00019,0.99385,0.11068,-0.47871,0.22591,0.14314
0.02445,0.99711,0.07191,-0.53551,0.36094,0.09966
0.04954,0.99813,0.03585,-0.57278,0.44894,0.05253
0.0769,0.99703,0.00323,-0.31301,0.43035,-0.08129
0.1036,0.99419,-0.029,0.02218,0.39402,-0.09194
0.12269,0.99038,-0.06393,0.15973,0.06182,-0.08086
0.14394,0.985,-0.0951,0.16749,-0.1131,0.0366
0.16924,0.97753,-0.12564,0.12412,-0.22582,0.04454
0.19183,0.96879,-0.157,-0.02473,-0.31376,0.05564
0.20862,0.9598,-0.18773,-0.11246,-0.34251,0.10308
0.21833,0.95135,-0.21739,-0.21891,-0.35574,0.14268
0.21961,0.94455,-0.2441,-0.25717,-0.37416,0.15899
0.21723,0.93938,-0.26528,-0.25893,-0.32511,0.20824
0.21276,0.93559,-0.28177,-0.17102,-0.45677,0.20984
0.20436,0.93532,-0.28882,-0.08641,-0.59501,0.11154
0.19105,0.93957,-0.28408,-0.0728,-0.52311,0.07061
0.1732,0.94685,-0.27107,-0.03964,-0.38029,-0.03025
0.15497,0.95445,-0.25497,0.19829,-0.17947,-0.10578
0.13999,0.96019,-0.24171,0.14779,-0.14106,-0.1554
0.13058,0.96437,-0.23007,-0.0232,0.14282,-0.20299
0.13104,0.9649,-0.2276,-0.02385,1.68463,-0.32302
0.1384,0.96072,-0.24054,-0.03833,1.9123,-0.42341
0.14063,0.95681,-0.25441,-0.17053,0.18103,-0.30976
0.14391,0.95565,-0.25695,0.15981,0.54016,0.25324
0.14848,0.95382,-0.2611,-0.15427,0.70141,0.35169
0.14913,0.95434,-0.25884,-0.21967,-0.02464,0.28562
0.15845,0.95435,-0.25321,-0.05545,-0.45554,0.35044
0.17457,0.95687,-0.2322,-0.06982,-0.76531,0.3346
0.17515,0.96127,-0.21279,-0.22358,-0.24823,0.28821
0.14997,0.96884,-0.19711,0.03832,0.16881,0.34598
0.10225,0.97856,-0.17877,0.0777,0.16977,0.38631
0.05336,0.98636,-0.1557,-0.10348,0.23404,0.18157
0.03474,0.99157,-0.12477,-0.22959,-0.02435,0.02974
0.04249,0.99454,-0.09531,-0.04813,-0.33855,0.05563
0.04797,0.99648,-0.06876,-0.15885,-0.48262,0.17954
0.04462,0.99806,-0.04338,-0.12439,-0.51429,0.09044
0.03239,0.99938,-0.01375,-0.04655,-0.28028,0.03795
0.01538,0.99966,0.02109,0.16882,0.04011,0.10418
0.00396,0.9984,0.05627,0.2685,0.01742,-0.00259
-0.006,0.99677,0.07998,0.02501,-0.22172,-0.15771
-0.0177,0.99506,0.0976,0.00075,-0.22637,-0.13975
-0.03171,0.99215,0.12097,0.08761,-0.15595,-0.12932
-0.0486,0.98815,0.1456,0.26572,0.03439,-0.16821
-0.0647,0.98486,0.16082,0.23867,0.14283,-0.16902
-0.08085,0.98216,0.16974,0.18344,0.00183,-0.06276
-0.0989,0.97904,0.17804,0.24977,0.12254,-0.12782
-0.11611,0.97555,0.18658,0.4766,0.172,0.00457
-0.12636,0.97296,0.19332,0.61195,0.10329,-0.03564
-0.13029,0.97131,0.1989,0.40285,0.13458,-0.066
-0.12678,0.97043,0.2054,0.59425,0.33014,0.22962
-0.11282,0.97184,0.20684,-0.13762,0.29433,0.36086
-0.08747,0.97731,0.19289,-0.15711,0.19685,0.35663
-0.05619,0.9866,0.15315,-0.29851,0.42877,0.11876
-0.02788,0.99466,0.09933,-0.52523,0.40506,-0.02635
0.00307,0.99831,0.0579,-0.54984,0.65228,0.08555
0.03328,0.99904,0.02837,-0.37072,0.51222,-0.06709
0.06494,0.99788,-0.00455,-0.26704,0.46692,-0.08926
0.0954,0.99477,-0.03634,-0.16018,0.42909,-0.07059
0.12294,0.99021,-0.06602,0.18089,0.02712,-0.07548
0.15323,0.98335,-0.09768,0.22368,-0.21444,-0.03776
0.17982,0.97519,-0.12912,0.10892,-0.27757,0.04593
0.19745,0.96736,-0.1588,-0.07557,-0.37331,0.13965
0.20984,0.95953,-0.18778,-0.13632,-0.38132,0.18621
0.21759,0.95171,-0.21656,-0.18313,-0.38803,0.24155
0.21995,0.945,-0.24208,-0.24948,-0.47769,0.25633
0.21749,0.94024,-0.26199,-0.22913,-0.50241,0.23935
0.20941,0.9382,-0.27554,-0.20344,-0.50897,0.2529
0.19493,0.93933,-0.28223,-0.15322,-0.60728,0.14385
0.17516,0.94413,-0.27915,-0.12705,-0.54498,0.07406
0.15234,0.9521,-0.26514,-0.10423,-0.55294,0.06005
0.12861,0.96051,-0.24672,0.30146,-0.28748,-0.12402
0.10604,0.96652,-0.23364,0.22765,0.03899,-0.14499
0.09195,0.96893,-0.22957,0.19257,0.38678,-0.10099
0.09585,0.96844,-0.23006,0.1247,1.71105,-0.29248
0.11025,0.9636,-0.24356,-0.08332,1.63578,-0.32984
0.11513,0.95788,-0.26306,-0.05499,-0.11043,-0.56057
0.11748,0.95831,-0.26044,-0.05243,-0.25733,0.26026
0.11301,0.95725,-0.26625,-0.48939,0.78193,0.24648
0.10794,0.95855,-0.26366,-0.66832,0.62531,0.06905
0.11321,0.96175,-0.24941,-0.20286,-0.53369,0.37403
0.11985,0.96291,-0.24171,0.02894,-0.06094,0.34618
0.11771,0.96422,-0.23752,0.07751,0.24368,0.47142
0.09644,0.96912,-0.22695,0.31229,0.17693,0.49867
0.06259,0.97785,-0.19969,-0.07135,-0.05595,0.29337
0.03295,0.98551,-0.16636,-0.16937,-0.08712,0.17808
0.01348,0.98982,-0.14167,-0.33816,-0.12199,0.01335
0.00688,0.99285,-0.11912,-0.3219,-0.26118,0.12408
0.00989,0.99584,-0.09059,-0.22803,-0.34372,0.20145
0.01249,0.99833,-0.05627,-0.06136,-0.39177,0.15738
0.00842,0.99964,-0.0253,-0.00767,-0.1874,-0.02398
-0.0022,0.99999,0.00104,0.07752,-0.06339,-0.03231
-0.01149,0.99957,0.02697,0.20856,0.01714,0.08086
-0.01996,0.99839,0.05296,0.02959,-0.34484,0.04398
-0.03499,0.99664,0.07405,0.09035,-0.27868,-0.05184
-0.05307,0.99406,0.095,0.22223,-0.144,-0.17733
-0.07107,0.9908,0.11513,0.26812,-0.07388,-0.17918
-0.0885,0.98743,0.13091,0.214,-0.03544,-0.23299
-0.10662,0.98371,0.14472,0.23431,0.01651,0.0279
-0.12358,0.98001,0.15587,0.21606,0.003,-0.0289
-0.14107,0.97636,0.16371,0.1706,-0.00067,-0.04795
-0.15835,0.97279,0.16912,0.37008,0.07687,-0.11124
-0.16766,0.97013,0.17532,0.3498,0.13376,-0.03889
-0.16944,0.96793,0.18546,0.4627,0.22145,0.10707
-0.16019,0.96708,0.19772,-0.16615,0.34185,0.40641
-0.13451,0.96995,0.20272,-0.11678,0.38258,0.45148
-0.1001,0.97756,0.18534,-0.08218,0.48507,0.27459
-0.0706,0.98751,0.1408,-0.54189,0.2685,0.099
-0.04174,0.99494,0.09137,-0.45602,0.64666,0.0399
-0.01304,0.99859,0.05135,-0.45756,0.78583,-0.0118
0.01347,0.99969,0.02089,-0.12429,0.40482,-0.02034
0.04131,0.99912,-0.00707,0.02791,0.19057,-0.00319
0.06932,0.99679,-0.04001,0.09842,0.10287,-0.04614
0.10031,0.99227,-0.07299,0.27376,-0.10174,-0.00973
0.1333,0.98548,-0.10513,0.19689,-0.15536,0.04516
0.15935,0.97766,-0.13701,0.13984,-0.24852,0.09083
0.17502,0.97014,-0.16788,-0.00789,-0.39017,0.2515
0.18249,0.9632,-0.1973,-0.20394,-0.38572,0.2755
0.1841,0.95703,-0.22405,-0.36263,-0.4568,0.29409
0.18164,0.9518,-0.24712,-0.45668,-0.50802,0.23815
0.17754,0.94769,-0.26524,-0.32021,-0.40956,0.24724
0.17041,0.94526,-0.27828,-0.24478,-0.42123,0.23354
0.16053,0.94483,-0.28553,-0.13793,-0.53848,0.15652
0.14596,0.94749,-0.28452,0.01563,-0.51355,0.07501
0.12802,0.95355,-0.27266,0.15755,-0.37701,-0.05194
0.11098,0.9607,-0.2544,0.22834,0.03467,-0.25625
0.09577,0.96591,-0.24051,0.26026,0.24291,-0.26598
0.08912,0.96755,-0.23644,0.40312,0.90678,-0.19955
0.09528,0.96601,-0.24028,0.1614,1.27628,-0.32422
0.10965,0.96115,-0.2533,-0.06326,-0.10175,-0.5838
0.11907,0.95558,-0.26961,-0.07268,-0.09617,-0.56749
0.12666,0.95387,-0.27217,-0.26711,1.11616,0.30564
0.13144,0.94953,-0.28479,-0.6199,1.07116,0.30804
0.13951,0.94952,-0.28098,-0.29463,0.26038,0.13292
0.14623,0.95113,-0.27196,-0.14682,-0.66286,0.26062
0.14,0.95536,-0.26016,-0.19767,-0.05304,0.24927
0.12355,0.96035,-0.24991,-0.11189,0.12983,0.43509
0.09333,0.96744,-0.23527,0.06353,0.04247,0.54873
0.05519,0.97575,-0.21181,0.02149,0.06725,0.34843
0.02848,0.98283,-0.18226,-0.10768,0.05708,0.22548
0.01696,0.98806,-0.15309,-0.27716,-0.1215,0.06905
0.01823,0.99132,-0.13018,-0.15006,-0.37261,0.09968
0.01773,0.99335,-0.11376,-0.11523,-0.42616,0.16358
0.01339,0.99579,-0.09067,-0.08545,-0.40002,0.16814
0.00553,0.99828,-0.05822,-0.09554,-0.1614,0.02576
-0.00507,0.99962,-0.02695,0.01648,-0.15521,0.03472
-0.01137,0.99993,0.00032,0.23754,-0.08358,0.09786
-0.01707,0.99955,0.02433,0.15516,-0.1284,0.061
-0.02641,0.99852,0.04744,0.03529,-0.23232,-0.0192
-0.03849,0.99676,0.07059,0.12757,-0.16673,-0.12221
-0.05028,0.99478,0.08871,0.22194,-0.125,-0.11036
-0.06132,0.99289,0.10195,0.2404,-0.11122,-0.07627
-0.073,0.99075,0.11435,0.14315,0.13471,-0.19895
-0.08511,0.98868,0.12352,0.0824,0.18928,-0.10448
-0.09873,0.98626,0.13239,0.1166,0.25213,-0.01064
-0.11614,0.9831,0.14148,0.31796,0.20199,0.0034
-0.13172,0.97999,0.14917,0.44105,0.20169,-0.00534
-0.14179,0.97791,0.15353,0.41163,0.08169,-0.21099
-0.14668,0.97591,0.16147,0.56239,0.12509,0.06565
-0.14268,0.97401,0.17591,0.04653,0.26159,0.08352
-0.12268,0.9744,0.18836,0.01703,0.20066,0.4591
-0.09237,0.97784,0.18786,-0.0635,0.26571,0.28245
-0.05944,0.98587,0.15657,-0.40898,0.37793,0.11095
-0.02821,0.99355,0.10976,-0.50623,0.37118,0.01554
0.0037,0.9973,0.07332,-0.50399,0.64926,0.05086
0.03177,0.9984,0.04668,-0.40834,0.68117,-0.0663
0.06292,0.99786,0.01771,-0.23065,0.54751,-0.07085
0.09245,0.99566,-0.00981,-0.03686,0.25839,-0.08695
0.11863,0.99225,-0.03685,0.11671,0.01488,-0.06365
0.14847,0.9865,-0.06895,0.1887,-0.08146,0.00757
0.17918,0.97829,-0.10408,0.21896,-0.21004,0.03869
0.20392,0.96948,-0.13607,0.15332,-0.28522,0.14061
0.22031,0.96113,-0.1664,-0.03717,-0.27831,0.23299
0.22936,0.95318,-0.19704,-0.22683,-0.4252,0.29838
0.23265,0.94614,-0.22512,-0.37943,-0.62942,0.22419
0.23219,0.94073,-0.24719,-0.36661,-0.62359,0.23187
0.22621,0.93752,-0.26435,-0.28007,-0.55315,0.2158
0.21298,0.93768,-0.27456,-0.18462,-0.47493,0.10186
0.19461,0.94107,-0.2766,-0.12688,-0.42644,0.0534
0.17555,0.9465,-0.27078,0.09416,-0.33154,-0.08254
0.15803,0.9527,-0.25959,0.29264,-0.16241,-0.21201
0.14163,0.95752,-0.25118,0.28618,-0.07384,-0.18602
0.1281,0.9608,-0.24587,0.23769,0.44579,-0.07067
0.12575,0.96111,-0.24584,0.17082,1.35912,-0.20893
0.13776,0.95539,-0.26123,0.15881,1.36485,-0.19354
0.15118,0.94705,-0.28324,-0.23921,-0.03318,-0.75746
0.16776,0.94211,-0.29029,0.23775,0.73785,0.20509
0.17232,0.93896,-0.29774,-0.13025,0.91141,0.16665
0.16663,0.93794,-0.30412,-0.2112,0.14503,0.1438
0.18074,0.9379,-0.29608,-0.13005,-0.35551,0.36127
0.18735,0.94285,-0.27553,-0.22945,-0.42732,0.29127
0.16579,0.95009,-0.26426,-0.47388,0.25923,0.34882
0.13288,0.95739,-0.25639,-0.32128,0.1305,0.47057
0.0952,0.9655,-0.24238,-0.13244,0.04287,0.40194
0.0697,0.97292,-0.22034,0.01375,0.02496,0.31237
0.05467,0.98009,-0.19084,-0.09948,-0.11527,0.0924
0.04424,0.98519,-0.16562,-0.11952,-0.17419,0.03622
0.03392,0.98869,-0.14604,-0.1875,-0.27644,0.20535
0.01826,0.99202,-0.1247,-0.05902,-0.36252,0.20972
0.00355,0.99544,-0.09525,0.01906,-0.30263,0.16974
-0.00119,0.99812,-0.0612,0.05414,-0.17294,0.02676
-0.00173,0.99953,-0.03033,0.0872,-0.18725,0.04071
-0.00239,0.99999,-0.00199,0.06601,-0.16384,0.06057
-0.00668,0.99963,0.02617,0.00796,-0.21009,0.07631
-0.01543,0.99848,0.05283,-0.01045,-0.22222,-0.04642
-0.0288,0.99662,0.07685,-0.02982,-0.20138,-0.13633
-0.04391,0.9941,0.09915,0.16897,-0.13803,-0.0959
-0.06067,0.99123,0.11731,0.20499,-0.10447,-0.079
-0.07775,0.98837,0.13065,0.23017,-0.00619,-0.13307
-0.09398,0.98543,0.14168,0.20041,0.05952,-0.09421
-0.10921,0.98249,0.15089,0.23673,0.0785,-0.0626
-0.12434,0.979,0.1615,0.21371,0.14095,-0.15085
-0.13843,0.97569,0.16985,0.26375,0.18178,-0.08829
-0.14965,0.97308,0.17526,0.28504,0.10984,-0.09809
-0.15596,0.97055,0.18356,0.22055,0.08765,-0.15416
-0.1595,0.9679,0.19418,0.37624,0.10113,0.03941
-0.15298,0.9666,0.20559,0.46858,0.19756,0.20669
-0.13869,0.96799,0.20914,0.07137,0.03593,0.41996
-0.11605,0.97293,0.1998,-0.10048,0.0926,0.20622
-0.0873,0.98122,0.17198,-0.47867,0.47711,0.17133
-0.05869,0.99015,0.12705,-0.60935,0.63775,0.03268
-0.02758,0.99607,0.08409,-0.36706,0.81234,0.05201
-0.00047,0.99859,0.05299,-0.11492,0.48286,-0.0659
0.02743,0.99937,0.02237,-0.10981,0.40539,0.00975
0.05535,0.99843,-0.00784,-0.05968,0.26924,0.01275
0.08054,0.99599,-0.0388,0.11805,-0.02603,-0.06601
0.1045,0.99195,-0.07141,0.14367,-0.08123,-0.02179
0.12942,0.98607,-0.10442,0.10581,-0.16577,0.05625
0.14975,0.97954,-0.13439,0.00524,-0.2016,0.14153
0.1644,0.97309,-0.16143,-0.04961,-0.20046,0.19128
0.17689,0.96635,-0.18671,-0.18011,-0.27186,0.25537
0.18549,0.95937,-0.21257,-0.26525,-0.57525,0.31574
0.18692,0.95321,-0.23755,-0.26584,-0.62588,0.31104
0.18415,0.94867,-0.2571,-0.17966,-0.58274,0.27149
0.17578,0.94676,-0.2697,-0.14267,-0.56573,0.27466
0.16208,0.94782,-0.27452,-0.07125,-0.52617,0.20439
0.14556,0.95167,-0.27041,0.09015,-0.33146,-0.01412
0.12818,0.95785,-0.25707,0.18092,-0.31294,-0.11285
0.1088,0.9644,-0.24103,0.21701,-0.24337,-0.22405
0.08869,0.96887,-0.23111,0.11498,0.07111,-0.17513
0.07511,0.97027,-0.23006,0.13505,0.68334,-0.02974
0.07623,0.96935,-0.23356,0.01374,1.02605,-0.13574
0.09343,0.9642,-0.24814,-0.09157,0.6787,-0.6095
0.10079,0.95972,-0.26224,0.10994,-0.65645,-0.58232
0.10696,0.96245,-0.24946,0.06589,-0.9174,-0.48098
0.10965,0.96131,-0.25268,0.65866,1.27047,0.12667
0.11586,0.95535,-0.27179,-0.33881,1.77191,0.66319
0.11221,0.95913,-0.25977,-0.61198,0.68162,0.46291
0.10918,0.96089,-0.25448,-0.28613,-0.73941,0.29043
0.09898,0.96166,-0.25573,-0.08508,-0.23632,0.45661
0.0727,0.96555,-0.24982,-0.10209,0.00481,0.63237
0.02735,0.97258,-0.23092,-0.09416,0.13048,0.55006
-0.02685,0.97851,-0.20442,-0.04331,0.20673,0.44302
-0.07084,0.98166,-0.17696,-0.08434,0.18751,0.34491
-0.0901,0.98356,-0.15645,-0.14871,0.0701,0.03407
-0.08908,0.98705,-0.13333,-0.31405,-0.35359,0.18799
-0.0901,0.98994,-0.10899,-0.31302,-0.35648,0.16365
-0.08655,0.99349,-0.07398,-0.123,-0.23026,0.1155
-0.0862,0.9956,-0.03646,-0.11288,-0.12872,0.03249
-0.0911,0.99584,0.00098,-0.07419,-0.02226,-0.02485
-0.09931,0.99455,0.03154,0.12456,0.09426,0.08989
-0.10522,0.99285,0.0562,0.15478,-0.18794,0.02344
-0.11602,0.98995,0.08083,0.14632,-0.37874,-0.09906
-0.13384,0.98547,0.10454,0.20201,-0.18624,-0.16852
-0.14989,0.98055,0.12661,0.30394,-0.18911,-0.15116
-0.16172,0.97717,0.13776,0.32537,-0.20429,-0.13912
-0.17399,0.97373,0.14683,0.28159,0.03301,-0.24564
-0.18759,0.96916,0.15977,0.24389,0.01506,-0.06364
-0.19792,0.96587,0.16707,0.35301,0.07576,-0.05755
-0.20872,0.96307,0.17007,0.48162,0.15662,-0.01564
-0.21722,0.9606,0.17334,0.41071,0.12203,-0.20347
-0.21952,0.95926,0.1778,0.24332,0.17906,-0.23379
-0.21618,0.95825,0.1871,0.14518,0.17475,0.19577
-0.2016,0.95905,0.19889,0.04183,0.30422,0.44964
-0.18,0.9623,0.20389,0.06387,0.19595,0.55035
-0.15007,0.96826,0.19984,-0.2036,0.13803,0.31461
-0.11486,0.97937,0.16618,-0.70823,0.5213,-0.01088
-0.08012,0.99058,0.11102,-0.64044,0.76013,0.03331
-0.04547,0.99664,0.06809,-0.21823,0.65406,-0.10253
-0.01445,0.99911,0.03941,-0.06479,0.57479,-0.10078
0.01828,0.99981,0.00539,0.00453,0.50278,-0.02261
0.05005,0.99832,-0.02905,0.1943,0.11145,-0.04648
0.08219,0.9946,-0.06329,0.31106,-0.13703,-0.08156
0.11529,0.98842,-0.09861,0.29795,-0.20841,-0.03463
0.14189,0.98109,-0.1316,0.12966,-0.25111,0.13743
0.15898,0.97363,-0.16357,0.00946,-0.16283,0.19928
0.17093,0.96545,-0.19667,-0.09357,-0.17408,0.24148
0.17828,0.95717,-0.22811,-0.30691,-0.46545,0.35011
0.17953,0.94956,-0.2571,-0.37774,-0.65306,0.30778
0.17645,0.94282,-0.28275,-0.33586,-0.62245,0.30973
0.16815,0.93867,-0.30103,-0.20408,-0.52665,0.22519
0.15437,0.93844,-0.30903,-0.11149,-0.51615,0.12536
0.13538,0.94253,-0.30545,-0.02347,-0.46778,0.06942
0.11581,0.94971,-0.29091,0.23364,-0.25281,-0.21411
0.0978,0.95607,-0.27633,0.20073,-0.09917,-0.16377
0.08244,0.95812,-0.27423,0.1362,-0.03385,-0.15366
0.07615,0.95808,-0.27618,0.18715,1.05805,-0.21534
0.08435,0.95509,-0.28404,0.08572,1.21793,-0.38504
0.09811,0.94913,-0.29919,0.03067,0.87774,-0.39048
0.10546,0.94466,-0.31062,-0.11389,-0.09803,-0.17499
0.1123,0.94599,-0.3041,0.45057,0.75574,0.26602
0.11028,0.94386,-0.31139,-0.11643,1.26356,0.35116
0.10858,0.94438,-0.31039,-0.28652,0.25313,0.34014
0.11767,0.94879,-0.29315,-0.12977,-0.63005,0.36627
0.11443,0.95411,-0.27672,-0.28847,-0.45373,0.33597
0.09466,0.95943,-0.26558,-0.27892,0.00156,0.44138
0.06123,0.965,-0.25498,-0.14418,0.1058,0.54541
0.01477,0.97237,-0.23295,0.08156,0.08248,0.44445
-0.03082,0.97791,-0.20674,-0.04237,0.22394,0.31759
-0.05859,0.98145,-0.18254,-0.14397,0.01382,0.07528
-0.06679,0.98462,-0.1614,-0.11453,-0.20511,0.07585
-0.06969,0.9874,-0.142,-0.13661,-0.35218,0.12906
-0.07748,0.98981,-0.11943,-0.0461,-0.48198,0.1657
-0.08483,0.9924,-0.08902,-0.05447,-0.36284,0.1106
-0.08863,0.99454,-0.05505,0.00477,0.00792,0.08544
-0.09287,0.99531,-0.02695,0.12133,-0.09087,0.06165
-0.09518,0.99545,-0.00233,0.14558,-0.16945,0.05704
-0.10265,0.99446,0.02243,0.03031,-0.27302,0.0175
-0.1161,0.9922,0.04531,0.08242,-0.1385,-0.11453
-0.13262,0.98896,0.06594,0.11944,-0.10487,-0.10506
-0.14943,0.98521,0.08376,0.13778,-0.09345,-0.09278
-0.16765,0.98108,0.09678,0.17644,0.03754,-0.10627
-0.18427,0.97692,0.10793,0.17326,0.06427,-0.01756
-0.19921,0.97305,0.11604,0.17489,0.18483,-0.00967
-0.21546,0.96857,0.12418,0.23647,0.18511,-0.02894
-0.22732,0.96529,0.12854,0.36622,0.20372,-0.00598
-0.23047,0.96445,0.12925,0.38931,0.16403,-0.13456
-0.2258,0.96541,0.13028,0.46557,0.12409,0.01264
-0.21468,0.96647,0.14078,0.0859,0.29689,0.30568
-0.19308,0.969,0.15405,-0.04324,0.4094,0.28829
-0.15947,0.97392,0.16134,-0.09879,0.41086,0.36028
-0.12486,0.98163,0.14423,-0.45874,0.32758,0.24798
-0.09587,0.99066,0.09686,-0.56504,0.49852,-0.18519
-0.06669,0.9965,0.05023,-0.60028,0.58681,-0.05872
-0.03835,0.99889,0.02715,-0.53353,0.60802,0.07846
-0.00676,0.99997,-0.00127,-0.17232,0.32265,-0.05265
0.02499,0.99908,-0.03458,0.0361,0.09812,-0.10064
0.0551,0.99669,-0.0596,0.0749,-0.00446,-0.06284
0.08654,0.99277,-0.08306,0.16564,-0.17945,0.06187
0.1189,0.98667,-0.11101,0.19528,-0.22404,0.10381
0.14527,0.97925,-0.14127,0.15524,-0.26662,0.10538
0.16298,0.9718,-0.17042,0.00975,-0.31405,0.15804
0.17346,0.96459,-0.19867,-0.18893,-0.42432,0.26463
0.17751,0.95773,-0.22634,-0.24981,-0.48143,0.27493
0.1771,0.95159,-0.25121,-0.30478,-0.54239,0.23557
0.17188,0.94695,-0.27154,-0.2262,-0.469,0.22745
0.15971,0.94542,-0.28401,-0.18272,-0.45474,0.20344
0.1413,0.94745,-0.287,-0.01795,-0.42288,0.01156
0.1189,0.95276,-0.27946,0.03747,-0.38977,-0.0253
0.09695,0.96023,-0.26181,0.10125,-0.34446,-0.08742
0.07816,0.96669,-0.24372,0.25112,-0.04504,-0.23058
0.06352,0.96978,-0.23556,0.15809,0.2093,-0.19927
0.05699,0.97001,-0.23625,0.16847,0.86719,-0.18904
0.063,0.96848,-0.24098,-0.06111,1.28908,-0.32919
0.07554,0.96481,-0.25183,0.03759,0.67468,-0.5232
0.08147,0.96213,-0.2601,-0.19656,-0.38486,-0.51018
0.08629,0.9623,-0.25793,-0.16571,1.08546,0.42178
0.07802,0.96008,-0.2686,-0.55311,0.71849,0.42253
0.0697,0.96311,-0.25992,-0.54348,0.22636,0.15432
0.06743,0.96612,-0.24911,-0.0609,-0.65032,0.24431
0.05622,0.97023,-0.23553,-0.36811,-0.18753,0.31422
0.0349,0.97238,-0.23076,-0.46799,-0.01196,0.29177
0.02083,0.97349,-0.22774,0.12671,0.04209,0.44227
-0.00699,0.97753,-0.21066,0.06052,-0.00637,0.39503
-0.0338,0.98266,-0.1823,-0.01024,0.07464,0.29899
-0.04777,0.98718,-0.15225,-0.19419,-0.10373,0.0377
-0.04942,0.99042,-0.12887,-0.22606,-0.27735,0.05549
-0.04857,0.99274,-0.10994,-0.21798,-0.37843,0.12675
-0.05017,0.99481,-0.08845,-0.09885,-0.45852,0.21631
-0.05183,0.99699,-0.05751,-0.11095,-0.30407,0.15716
-0.05827,0.99807,-0.02112,-0.04778,-0.02044,0.08774
-0.06776,0.99761,0.0127,0.11949,0.00608,0.08799
-0.07644,0.99614,0.04303,0.15241,-0.07139,0.06489
-0.09077,0.99346,0.06914,0.05612,-0.31475,0.01445
-0.11174,0.98925,0.09421,0.09633,-0.14181,-0.04763
-0.13242,0.98381,0.12069,0.25952,-0.01308,-0.04369
-0.1504,0.97879,0.13908,0.2312,-0.0073,-0.09647
-0.16639,0.97489,0.14797,0.11308,-0.09775,-0.08726
-0.18187,0.97108,0.15461,0.26921,0.0367,-0.04279
-0.19693,0.96684,0.16253,0.3006,0.11459,-0.06956
-0.20857,0.96351,0.16773,0.19509,0.13737,-0.04219
-0.21487,0.9614,0.17185,0.32208,0.23343,-0.05466
-0.2157,0.96058,0.17535,0.32889,0.21548,-0.08219
-0.21148,0.96083,0.17906,0.27328,0.15895,0.08916
-0.20771,0.9604,0.18566,0.31852,0.34545,0.0254
-0.19339,0.96133,0.19603,-0.06038,0.32294,0.18966
-0.16497,0.96612,0.19843,0.00191,0.29743,0.32963
-0.13166,0.97528,0.17741,-0.17551,0.38353,0.18309
-0.10326,0.9861,0.13015,-0.38851,0.31379,-0.14419
-0.07386,0.99402,0.08035,-0.39058,0.72276,0.00432
-0.04541,0.99771,0.04993,-0.31419,0.73044,0.05424
-0.0157,0.9996,0.02337,-0.18061,0.26954,0.07531
0.01428,0.99985,-0.00916,-0.06204,0.09305,-0.02787
0.04216,0.99834,-0.03914,0.05768,-0.02766,-0.00146
0.06884,0.99523,-0.06908,0.15431,-0.13422,0.04943
0.09681,0.99022,-0.10036,0.0839,-0.19991,0.09561
0.12213,0.98386,-0.13072,-0.00679,-0.24041,0.14314
0.14303,0.97672,-0.15984,-0.06262,-0.24326,0.18186
0.15918,0.96886,-0.18965,-0.16374,-0.24048,0.18451
0.17161,0.96072,-0.21809,-0.26638,-0.39594,0.2416
0.17855,0.95331,-0.24354,-0.28547,-0.45807,0.28096
0.17928,0.94698,-0.2666,-0.25772,-0.47726,0.26645
0.17375,0.94283,-0.2844,-0.21313,-0.50519,0.21808
0.16247,0.94178,-0.29435,-0.16433,-0.49339,0.18988
0.14655,0.94414,-0.29516,-0.04971,-0.40294,0.04955
0.12737,0.95008,-0.2848,0.14092,-0.24606,-0.18998
0.10744,0.95659,-0.2709,0.19153,-0.15846,-0.28495
0.08908,0.95996,-0.26556,0.30458,0.00865,-0.17919
0.07514,0.96077,-0.26697,0.29843,0.88739,-0.12808
0.07188,0.95943,-0.27261,0.25268,1.20162,-0.21972
0.08132,0.95438,-0.28729,0.02713,0.49566,-0.45093
0.09022,0.94844,-0.30382,-0.09868,-0.71918,-0.63076
0.09961,0.94712,-0.30499,-0.12853,-0.16961,-0.46409
0.09716,0.94705,-0.30603,-0.03307,0.96062,0.32995
0.0946,0.94603,-0.30996,-0.43219,0.57146,0.36408
0.09901,0.95222,-0.2889,-0.36086,-0.0175,0.33742
0.08929,0.9575,-0.27426,-0.40203,-0.34806,0.31311
0.06734,0.96141,-0.26675,-0.09093,-0.02771,0.44245
0.03486,0.96598,-0.25624,-0.03706,0.17829,0.46726
-0.00475,0.97135,-0.23758,0.05208,0.10317,0.36238
-0.04379,0.97606,-0.21303,-0.03883,0.11747,0.24013
-0.07277,0.97929,-0.18891,-0.16417,-0.14315,0.12186
-0.08586,0.98215,-0.1673,-0.18863,-0.27148,0.14591
-0.08521,0.98563,-0.14581,-0.19568,-0.30396,0.20171
-0.08082,0.98917,-0.12244,-0.17577,-0.35151,0.21283
-0.07482,0.99285,-0.09298,-0.04986,-0.31767,0.13076
-0.07293,0.99548,-0.06066,-0.08314,-0.17862,0.06524
-0.07811,0.99646,-0.03097,-0.03824,-0.06167,0.09025
-0.08286,0.99655,-0.0032,0.03856,-0.12024,0.09961
-0.08829,0.99582,0.0232,0.02024,-0.22334,0.02434
-0.10179,0.99369,0.04686,0.04487,-0.14227,-0.09236
-0.1191,0.99051,0.06841,0.21889,-0.06513,-0.08954
-0.13438,0.98736,0.08399,0.35691,-0.03512,-0.08522
-0.15127,0.98397,0.09441,0.23496,-0.01537,-0.16687
-0.16723,0.98065,0.1017,0.10721,-0.03856,-0.0941
-0.17888,0.97802,0.10701,0.26078,0.15448,-0.01578
-0.18807,0.97575,0.11192,0.25144,0.1822,-0.07873
-0.19696,0.97345,0.11652,0.3526,0.1197,-0.04909
-0.20228,0.97154,0.12321,0.368,0.17391,-0.15432
-0.20104,0.97011,0.13583,0.14783,0.11699,0.17329
-0.19187,0.96945,0.15274,0.30826,0.40985,0.11524
-0.17406,0.97114,0.16303,0.09308,0.01072,0.42921
-0.14413,0.97651,0.1601,0.10081,0.01282,0.283
-0.1097,0.98494,0.13356,-0.331,0.38261,0.196
-0.07663,0.99352,0.0838,-0.61517,0.69619,-0.01845
-0.04249,0.99824,0.04118,-0.67017,0.76812,-0.01298
-0.0125,0.99973,0.0191,-0.36695,0.67831,-0.01032
0.02016,0.99975,-0.00818,-0.04696,0.37152,-0.01313
0.05368,0.99785,-0.03742,-0.01103,0.28728,-0.00205
0.08353,0.9944,-0.06462,0.15284,0.04155,-0.09234
0.11479,0.98894,-0.09387,0.23462,-0.12398,0.04924
0.14429,0.98149,-0.12584,0.17459,-0.13284,0.13886
0.16481,0.97345,-0.15883,0.08036,-0.21237,0.20401
0.17653,0.96578,-0.18997,-0.18245,-0.29867,0.28429
0.18381,0.95818,-0.2193,-0.2547,-0.35973,0.29737
0.18524,0.95151,-0.24558,-0.35719,-0.58586,0.25084
0.18159,0.94658,-0.26645,-0.32981,-0.58605,0.24617
0.17505,0.94347,-0.28143,-0.21065,-0.51037,0.23129
0.16373,0.94226,-0.2921,-0.11725,-0.53209,0.166
0.14585,0.94386,-0.29638,0.00475,-0.44572,0.11496
0.12258,0.94943,-0.28905,0.1189,-0.39679,0.07005
0.10006,0.95657,-0.27379,0.21018,-0.17713,-0.14411
0.08047,0.96118,-0.26389,0.05324,0.08751,-0.05627
0.06937,0.96203,-0.26398,0.03326,0.36616,-0.08273
0.07266,0.96069,-0.26793,0.02691,1.29825,-0.31799
0.08789,0.95593,-0.28012,0.00494,0.64504,-0.40403
0.09565,0.94923,-0.29966,0.00127,0.09047,-0.54751
0.09941,0.9481,-0.30203,0.25667,0.18427,0.02084
0.09971,0.94891,-0.29936,0.55881,0.73974,0.183
0.098,0.9476,-0.30405,-0.08022,0.9621,0.10543
0.10572,0.95025,-0.29299,-0.17673,-0.06456,0.40545
0.11153,0.95525,-0.27395,-0.22662,-0.54825,0.31007
0.09867,0.96006,-0.26178,-0.22087,-0.45553,0.31534
0.07104,0.96445,-0.25453,-0.23543,-0.02716,0.61433
0.03221,0.97029,-0.23978,-0.08444,-0.04606,0.53008
-0.0093,0.97604,-0.21736,-0.01395,0.07692,0.43164
-0.04392,0.98029,-0.19256,-0.09405,0.12064,0.1607
-0.06338,0.98386,-0.16731,-0.12146,-0.14198,0.09181
-0.07004,0.9866,-0.14732,-0.25084,-0.28651,0.17913
-0.068,0.98938,-0.1284,-0.18984,-0.4014,0.2169
-0.06541,0.99254,-0.10286,-0.09038,-0.34965,0.17959
-0.06598,0.99529,-0.07086,-0.04086,-0.08335,0.12986
-0.07246,0.99659,-0.03935,-0.05024,-0.04998,0.07037
-0.07787,0.9969,-0.01053,0.03928,-0.07867,0.0969
-0.08297,0.99638,0.01821,0.1245,-0.11437,0.08563
-0.09324,0.99455,0.04635,0.11706,-0.10147,-0.00052
-0.10807,0.99169,0.06964,0.08596,-0.06557,-0.09715
-0.12353,0.98828,0.08963,0.08316,-0.11421,-0.09169
-0.13845,0.98497,0.1032,0.23233,-0.07986,-0.07839
-0.15364,0.98178,0.11172,0.2068,-0.12811,-0.07727
-0.16927,0.97814,0.12072,0.14857,-0.06339,-0.07322
-0.18325,0.97457,0.12891,0.1267,0.13098,-0.05191
-0.19607,0.97133,0.13434,0.19602,0.18659,-0.02846
-0.2065,0.96876,0.13729,0.28801,0.18653,-0.02482
-0.21422,0.96717,0.13665,0.47153,0.16956,-0.0859
-0.21606,0.96664,0.13753,0.4644,0.09039,0.0663
-0.21252,0.96686,0.14141,0.56093,0.18735,0.09139
-0.19979,0.96828,0.15002,0.0653,0.21014,0.22453
-0.17448,0.97255,0.15388,-0.00552,0.13601,0.2608
-0.14421,0.97894,0.14443,-0.11,0.19928,0.24689
-0.11279,0.98786,0.10671,-0.53595,0.50146,-0.00047
-0.08093,0.99515,0.05575,-0.58838,0.71563,0.0331
-0.05052,0.99848,0.02186,-0.48535,0.79182,-0.05124
-0.02042,0.99978,-0.00083,-0.11256,0.29607,-0.00146
0.01082,0.99946,-0.03085,-0.09239,0.23994,-0.00368
0.03953,0.99738,-0.06042,-0.02,0.15141,-0.05231
0.06555,0.99384,-0.08927,0.17032,-0.08056,-0.02894
0.09283,0.98855,-0.11894,0.14377,-0.2278,0.09988
0.11769,0.98193,-0.14819,0.09367,-0.27981,0.13812
0.13673,0.97469,-0.17682,0.0026,-0.3083,0.17361
0.1511,0.967,-0.20508,-0.0701,-0.30213,0.24501
0.16305,0.95822,-0.23499,-0.19584,-0.37547,0.25494
0.16947,0.94971,-0.26327,-0.23567,-0.49967,0.245
0.16726,0.94352,-0.28598,-0.22969,-0.50405,0.2536
0.15596,0.94074,-0.30112,-0.20103,-0.5078,0.2336
0.13625,0.94195,-0.30684,-0.11243,-0.45771,0.16766
0.11407,0.94623,-0.30269,0.03507,-0.34572,0.01543
0.09385,0.95279,-0.28876,0.10658,-0.30441,-0.08067
0.07692,0.95893,-0.27298,0.24374,-0.11531,-0.15976
0.06045,0.96231,-0.26514,0.19779,0.11298,-0.04993
0.04933,0.96399,-0.26131,0.1754,0.44037,-0.11309
0.05109,0.96257,-0.26615,0.04228,1.31697,-0.40594
0.06185,0.95788,-0.2804,0.0879,-0.26704,-0.62179
0.07242,0.95395,-0.29108,0.07733,-0.26311,-0.61111
0.08098,0.95441,-0.28727,0.31854,0.59016,0.27066
0.07675,0.9523,-0.29532,-0.29057,1.41234,0.53855
0.06524,0.95516,-0.28879,-0.68151,0.37692,0.46707
0.05906,0.96044,-0.27214,-0.25363,-0.53275,0.37565
0.05447,0.96434,-0.25898,-0.16111,-0.52634,0.373
0.04059,0.96793,-0.24791,0.01349,-0.10672,0.34858
0.00802,0.97127,-0.23783,-0.05712,0.07197,0.43644
-0.03481,0.97399,-0.22389,0.0506,-0.05387,0.40026
-0.0712,0.97743,-0.19885,0.03942,-0.03383,0.3419
-0.08875,0.98179,-0.1679,-0.26214,0.00739,0.06114
-0.0907,0.98585,-0.14093,-0.23657,-0.34053,0.14781
-0.08644,0.98935,-0.11707,-0.19415,-0.42625,0.20257
-0.07719,0.99274,-0.09216,-0.11673,-0.50776,0.19983
-0.07021,0.99567,-0.06079,-0.04677,-0.11278,0.07291
-0.0768,0.99665,-0.02773,-0.06251,0.0364,0.06952
-0.08291,0.99654,0.00369,0.04193,0.02151,0.06205
-0.084,0.99597,0.03116,0.11442,-0.16894,0.05878
-0.09349,0.99428,0.05147,0.13577,-0.14179,0.02456
-0.1089,0.99143,0.072,0.25928,-0.06889,-0.09314
-0.12345,0.98847,0.08756,0.21405,-0.02753,-0.15426
-0.13958,0.98561,0.09522,0.13689,-0.06523,-0.12578
-0.15702,0.98234,0.10166,0.2051,-0.04357,-0.08968
-0.17402,0.97859,0.10987,0.24495,-0.02686,-0.03589
-0.188,0.97509,0.11764,0.30745,0.1038,-0.0393
-0.19808,0.9723,0.12399,0.48221,0.11394,-0.05828
-0.20261,0.97047,0.13083,0.45699,0.0555,-0.16938
-0.19791,0.96953,0.14431,0.5233,0.17194,-0.06083
-0.18785,0.96925,0.15888,0.24423,0.2063,0.24284
-0.16942,0.97051,0.17143,-0.06166,0.19363,0.33801
-0.13619,0.97505,0.17525,-0.16569,0.325,0.35426
-0.09913,0.98316,0.15344,-0.57514,0.50214,0.28106
-0.06699,0.992,0.10688,-0.68196,0.56125,0.06727
-0.03772,0.99739,0.06151,-0.67055,0.63799,0.05586
-0.00768,0.99931,0.03599,-0.44128,0.67525,-0.00406
0.02555,0.9996,0.01098,-0.15067,0.49629,-0.01088
0.05599,0.99821,-0.02063,-0.07312,0.40725,-0.04263
0.0813,0.99545,-0.04944,0.17462,-0.0199,-0.07
0.10979,0.99074,-0.07978,0.22506,-0.14821,0.04284
0.14012,0.9838,-0.11172,0.20972,-0.20387,0.09214
0.1632,0.97631,-0.14199,0.06719,-0.28039,0.20609
0.17785,0.96872,-0.17302,-0.08352,-0.3125,0.22354
0.18607,0.96098,-0.20466,-0.15923,-0.34271,0.26693
0.1887,0.95337,-0.23551,-0.31687,-0.57857,0.25855
0.18542,0.9471,-0.26193,-0.27548,-0.5521,0.2278
0.17792,0.94348,-0.27962,-0.21509,-0.48658,0.20587
0.16617,0.94294,-0.2885,-0.17553,-0.46666,0.15683
0.14783,0.94566,-0.2896,-0.11298,-0.44955,0.08993
0.12602,0.95092,-0.28258,0.09076,-0.35153,-0.013
0.10497,0.95722,-0.26963,0.2665,-0.22857,-0.133
0.08621,0.96187,-0.25953,0.32104,-0.08834,-0.15772
0.07182,0.96381,-0.25671,0.19246,0.20106,-0.01609
0.06855,0.96379,-0.25768,-0.00727,1.14047,-0.30137
0.07905,0.95974,-0.26952,-0.12107,1.29498,-0.41628
0.08829,0.95448,-0.28488,-0.04107,0.17588,-0.5
0.09556,0.9518,-0.29144,0.16882,0.22716,0.19819
0.09634,0.95228,-0.2896,-0.20331,1.24102,0.4016
0.08869,0.95067,-0.29725,-0.46346,1.15668,0.36285
0.08523,0.95449,-0.28578,-0.41952,0.10648,0.30015
0.08739,0.95772,-0.27408,-0.01302,-0.68322,0.45431
0.07972,0.96117,-0.26418,-0.12652,-0.49805,0.34859
0.06127,0.96435,-0.25743,-0.22798,0.16035,0.50894
0.02611,0.97067,-0.23896,-0.03648,0.13167,0.40827
-0.01909,0.9768,-0.21329,-0.03946,0.11918,0.31149
-0.05245,0.98114,-0.18603,-0.08318,-0.01594,0.1766
-0.06473,0.98483,-0.16096,-0.14959,-0.08978,0.0838
-0.06387,0.98806,-0.14013,-0.22527,-0.16459,0.10241
-0.06198,0.9906,-0.1219,-0.07147,-0.41424,0.23305
-0.06493,0.99285,-0.10006,-0.00561,-0.4732,0.21508
-0.06746,0.99518,-0.07109,0.01644,-0.28958,0.09242
-0.07277,0.99653,-0.04021,0.11793,-0.05834,0.06566
-0.07801,0.99688,-0.01117,0.18699,-0.03002,0.075
-0.08292,0.99641,0.01669,0.16337,-0.20333,0.01502
-0.0928,0.99484,0.04079,0.14597,-0.20308,-0.12101
-0.10633,0.99232,0.06312,0.16855,-0.06237,-0.06389
-0.11672,0.98972,0.08253,0.27783,-0.0521,-0.08764
-0.12403,0.98756,0.09653,0.07952,-0.03387,-0.12674
-0.12899,0.98599,0.10566,0.0053,-0.02072,-0.11277
-0.13113,0.98493,0.11268,0.09245,0.11504,-0.00619
-0.13333,0.9837,0.12056,0.11859,0.25838,-0.05002
-0.13476,0.98283,0.12594,0.17505,0.27591,-0.04032
-0.13719,0.98224,0.12795,0.37576,0.15683,-0.06414
-0.1385,0.98152,0.13198,0.19345,0.15366,-0.04675
-0.13296,0.98113,0.14033,0.50129,0.27101,0.07689
-0.11949,0.98152,0.14943,0.15149,0.28307,0.25547
-0.10272,0.98315,0.15116,-0.00922,0.23038,0.22612
-0.0816,0.98673,0.14031,-0.19606,0.14559,0.05914
-0.05635,0.9923,0.11024,-0.47634,0.26898,0.05375
-0.02744,0.99756,0.06412,-0.44812,0.63983,-0.02856
0.0008,0.99968,0.02497,-0.32631,0.78317,-0.06059
0.02502,0.99968,-2e-05,-0.06889,0.51428,0.06959
0.05226,0.99817,-0.03031,0.00671,0.29604,0.06003
0.07956,0.99488,-0.06215,0.05166,0.19692,-0.03444
0.10464,0.99021,-0.09235,0.08734,-0.03105,-0.02497
0.12953,0.98334,-0.1275,0.05541,-0.17636,0.02346
0.15042,0.97535,-0.16142,0.00612,-0.25558,0.12051
0.16741,0.96707,-0.19169,-0.05286,-0.25939,0.23075
0.18024,0.95842,-0.22122,-0.15711,-0.29263,0.2897
0.18945,0.94961,-0.24966,-0.23715,-0.53422,0.26959
0.19315,0.94205,-0.27428,-0.23421,-0.59354,0.27532
0.19065,0.93642,-0.29454,-0.18668,-0.55962,0.25517
0.1816,0.9333,-0.30979,-0.16992,-0.5023,0.18616
0.16507,0.9337,-0.31773,-0.14169,-0.48783,0.15059
0.14241,0.93859,-0.31425,0.02742,-0.41799,0.05714
0.11907,0.94627,-0.30063,0.22146,-0.18274,-0.13449
0.09842,0.95255,-0.28801,0.23206,-0.1016,-0.20589
0.0812,0.95518,-0.28464,0.16153,0.17026,-0.06041
0.07437,0.95568,-0.28484,-0.02312,1.24873,-0.39753
0.08068,0.95233,-0.29417,-0.11683,1.29243,-0.44623
0.08897,0.94672,-0.30951,-0.16606,-0.41286,-0.46791
0.0952,0.94312,-0.31851,0.17001,0.29798,0.22991
0.09025,0.94327,-0.31951,0.46369,1.0405,0.55668
0.08168,0.94221,-0.32488,-0.2598,0.44636,0.30932
0.08028,0.94582,-0.31459,-0.11571,-0.08614,0.26524
0.0774,0.94907,-0.3054,-0.11405,-0.5347,0.30304
0.06309,0.95325,-0.29552,-0.2539,0.2451,0.61176
0.03809,0.95795,-0.28436,-0.12942,0.18501,0.60457
0.00422,0.96338,-0.26808,0.07987,0.03552,0.45314
-0.03057,0.96966,-0.2425,-0.02573,-0.07037,0.32122
-0.05458,0.97553,-0.21297,-0.11869,-0.21718,0.13573
-0.06297,0.98033,-0.18703,-0.17717,-0.19444,0.09908
-0.06067,0.98441,-0.16503,-0.19411,-0.27601,0.16331
-0.05734,0.98804,-0.14311,-0.124,-0.37207,0.2504
-0.05744,0.99148,-0.11688,-0.06386,-0.26147,0.15832
-0.06082,0.99422,-0.08835,-0.03534,-0.10279,0.07216
-0.06813,0.99575,-0.06189,0.08537,-0.05257,0.11984
-0.07188,0.99669,-0.03774,0.16931,-0.11484,0.07793
-0.07732,0.99686,-0.0166,0.06543,-0.2157,0.03136
-0.08882,0.99603,0.00354,0.11248,-0.17037,0.00807
-0.10331,0.99436,0.02345,0.05349,-0.10949,-0.10075
-0.11987,0.99209,0.0371,0.07455,-0.03567,-0.10958
-0.13676,0.98953,0.04596,0.08934,-0.0659,-0.08976
-0.1532,0.98673,0.05358,0.18365,0.13015,-0.08425
-0.16497,0.98447,0.05988,0.15197,0.13545,0.02125
-0.17323,0.98275,0.06456,0.20528,0.20835,-0.04091
-0.18133,0.981,0.06882,0.27967,0.19543,-0.0346
-0.18844,0.97938,0.07271,0.346,0.09557,-0.09469
-0.18744,0.97906,0.07935,0.47479,0.23173,0.13455
-0.17599,0.98056,0.0867,0.43792,0.39981,0.07613
-0.15757,0.98299,0.09424,0.05256,0.31588,0.40391
-0.1324,0.98725,0.08823,-0.02994,0.26826,0.03306
-0.10425,0.99172,0.07494,-0.27288,0.34267,0.05668
-0.07734,0.99595,0.04578,-0.48255,0.31077,0.03618
-0.05002,0.99868,0.01129,-0.34512,0.63896,-0.05203
-0.02685,0.99949,-0.01686,-0.24923,0.57449,-0.0367
-0.00302,0.99915,-0.04089,-0.04672,0.31713,0.04345
0.01947,0.99708,-0.07378,0.07672,0.06455,-0.10177
0.03852,0.99256,-0.11547,0.0767,0.02168,-0.09189
0.06052,0.98553,-0.15827,0.13931,0.03932,-0.01092
0.07334,0.97749,-0.19782,0.20211,-0.12441,0.14928
0.08086,0.9703,-0.22795,0.13041,-0.14102,0.14231
0.08784,0.96331,-0.25357,-0.01988,-0.13215,0.19721
0.09638,0.95674,-0.2745,-0.14292,-0.32251,0.3321
0.10465,0.95059,-0.29226,-0.15931,-0.40603,0.34671
0.11057,0.94493,-0.30802,-0.18327,-0.54597,0.31951
0.11073,0.94026,-0.32193,-0.15495,-0.65416,0.2303
0.10183,0.93776,-0.33199,-0.12026,-0.62943,0.21357
0.08565,0.93858,-0.33423,-0.0226,-0.40694,0.11387
0.06933,0.94264,-0.32651,0.10726,-0.31705,-0.05934
0.05474,0.94773,-0.31432,0.17773,-0.23826,-0.18261
0.04104,0.95077,-0.30715,0.33014,0.02714,-0.28039
0.03099,0.9502,-0.31006,0.37367,0.10683,-0.14464
0.0325,0.9487,-0.31448,0.33793,0.62503,-0.14047
0.04423,0.94573,-0.32192,0.00423,0.69012,-0.5247
0.05633,0.94185,-0.33127,-0.08633,0.27501,-0.51604
0.0642,0.94076,-0.33292,-0.19849,-0.2194,-0.55348
0.07041,0.94232,-0.3272,0.35188,1.041,0.36382
0.06934,0.93715,-0.34195,-0.35602,1.51315,0.44296
0.07021,0.93747,-0.3409,-0.50333,0.74558,0.47806
0.07021,0.94054,-0.33234,-0.30816,-0.70421,0.44911
0.06041,0.94222,-0.32948,-0.2553,-0.45499,0.42915
0.04451,0.94388,-0.32726,-0.18293,0.2025,0.67467
0.02012,0.95203,-0.30531,0.11865,0.327,0.60342
-0.02182,0.96013,-0.27867,0.06801,0.21594,0.33526
-0.05854,0.96567,-0.25306,0.00115,0.08071,0.24361
-0.08005,0.97098,-0.22536,-0.05607,-0.12742,0.13159
-0.08375,0.9763,-0.19954,-0.12352,-0.22251,0.20121
-0.08019,0.98139,-0.17443,-0.14843,-0.41682,0.27429
-0.08217,0.98611,-0.14433,-0.16357,-0.53269,0.26081
-0.08734,0.99051,-0.10604,-0.14058,-0.29654,0.1566
-0.09705,0.99306,-0.06626,-0.07758,-0.12232,0.18255
-0.1082,0.99357,-0.03301,0.07181,-0.01442,0.20246
-0.11348,0.99353,-0.00343,0.10817,-0.01193,-0.01514
-0.12113,0.99236,0.02315,-0.01545,-0.15432,-0.01723
-0.13556,0.9897,0.04575,0.03652,-0.17681,0.05617
-0.1498,0.9866,0.06456,0.26622,-0.02329,-0.1051
-0.16306,0.98343,0.07914,0.30374,-0.02095,-0.1437
-0.17819,0.97991,0.08947,0.26602,-0.05746,-0.10638
-0.1935,0.97599,0.09996,0.2186,0.04661,-0.08385
-0.20836,0.9717,0.11117,0.19626,0.09388,-0.04644
-0.22086,0.9681,0.11827,0.18363,0.14062,0.06435
-0.23141,0.96494,0.12382,0.41825,0.1208,-0.0138
-0.23512,0.96308,0.13105,0.64219,0.19773,-0.04692
-0.23107,0.9628,0.13998,0.50227,0.21383,-0.10704
-0.22909,0.96254,0.14498,0.41814,0.22827,0.09632
-0.22167,0.9636,0.14942,0.15363,0.16848,0.05493
-0.20094,0.96815,0.14929,-0.03957,-0.05655,0.4583
-0.16844,0.97674,0.13261,-0.12745,0.3337,0.20281
-0.1298,0.98739,0.09051,-0.35239,0.36806,0.11799
-0.09039,0.99488,0.04497,-0.64439,0.72344,0.09114
-0.05308,0.9984,0.01907,-0.65963,0.78547,0.03891
-0.01719,0.99983,-0.00494,-0.45659,0.61096,-0.02728
0.02209,0.99912,-0.0355,-0.23337,0.4044,0.04702
0.05657,0.99652,-0.06103,-0.11663,0.26248,0.00144
0.08698,0.99257,-0.085,0.21931,-0.07059,-0.05464
0.12076,0.98597,-0.11514,0.29757,-0.13469,0.02366
0.15345,0.97759,-0.1441,0.26862,-0.14025,0.08491
0.17686,0.96909,-0.17199,0.2295,-0.17676,0.15937
0.19166,0.96055,-0.20152,-0.13521,-0.26162,0.30221
0.19939,0.95211,-0.23179,-0.29982,-0.47011,0.3231
0.20142,0.94442,-0.2598,-0.35553,-0.55249,0.31337
0.19764,0.93837,-0.28352,-0.29953,-0.68212,0.30938
0.18427,0.93532,-0.30202,-0.22489,-0.69502,0.27364
0.16103,0.93626,-0.3122,-0.18191,-0.67998,0.23067
0.13501,0.94171,-0.30813,0.02491,-0.34781,-0.04189
0.11379,0.94973,-0.29162,0.13658,-0.24791,-0.12381
0.09836,0.95604,-0.27621,0.21408,-0.1475,-0.19101
0.08694,0.95799,-0.27328,0.19881,0.35554,-0.02312
0.08362,0.95736,-0.27652,0.31155,1.35954,-0.1971
0.09297,0.95396,-0.28515,0.28348,1.51905,-0.27603
0.10093,0.94931,-0.29767,-0.07582,0.21068,-0.61275
0.10568,0.94582,-0.307,-0.31458,-0.12029,-0.31449
0.1065,0.94637,-0.30499,0.1968,1.05784,0.47101
0.09155,0.94572,-0.31181,-0.54532,0.49785,0.22003
0.08768,0.94916,-0.30232,-0.5094,-0.07005,0.26361
0.09761,0.95224,-0.28931,-0.14643,-0.68683,0.40081
0.09293,0.95569,-0.27929,-0.19513,-0.15905,0.34097
0.06371,0.96022,-0.27186,-0.31974,0.14896,0.50801
0.0164,0.96602,-0.25793,-0.18782,0.08196,0.56811
-0.03783,0.97073,-0.23716,-0.10235,0.08909,0.46346
-0.07724,0.97402,-0.21287,-0.16036,-0.05066,0.11765
-0.0935,0.97854,-0.18361,-0.20216,-0.14118,0.03854
-0.09753,0.98259,-0.15811,-0.21915,-0.2819,0.11874
-0.0996,0.98534,-0.13848,-0.20891,-0.45174,0.24424
-0.09827,0.98873,-0.1129,-0.12806,-0.40259,0.19823
-0.09745,0.99185,-0.08195,-0.02831,-0.23783,0.11231
-0.09776,0.99379,-0.0531,0.22204,0.05475,0.13693
-0.0965,0.99504,-0.02383,0.27101,0.02986,0.11752
-0.09689,0.99528,0.00355,0.1888,-0.22206,0.01801
-0.10957,0.99363,0.02596,0.05795,-0.12994,-0.0376
-0.12725,0.99057,0.05055,0.0709,-0.07929,-0.03401
-0.14015,0.98741,0.07319,0.28801,-0.04103,-0.06327
-0.15264,0.98401,0.09174,0.21959,0.01564,-0.10893
-0.17058,0.97952,0.10691,0.14942,0.02207,-0.09405
-0.19006,0.97441,0.11998,0.18132,0.04419,-0.00838
-0.20886,0.96912,0.13102,0.26461,0.15135,-0.00847
-0.22402,0.96465,0.13873,0.38338,0.24995,-0.00717
-0.2339,0.96156,0.14382,0.37062,0.20931,-0.07865
-0.23892,0.95947,0.14942,0.42303,0.17331,-0.04764
-0.24032,0.95766,0.1585,0.48294,0.20606,0.08367
-0.23447,0.95748,0.16803,0.50217,0.30567,0.09466
-0.2184,0.95919,0.17959,-0.13016,0.19092,0.51286
-0.18985,0.96379,0.1872,-0.24649,0.2099,0.47302
-0.15568,0.97332,0.16853,-0.63113,0.33828,0.12656
-0.11944,0.9854,0.1213,-0.75377,0.34549,0.04781
-0.08295,0.99385,0.07329,-0.50157,0.41623,0.09818
-0.05326,0.99773,0.04108,-0.44473,0.45033,0.04751
-0.02549,0.99961,0.01069,-0.35467,0.45418,0.01467
0.00652,0.99966,-0.02514,-2e-05,0.31547,-0.01436
0.03733,0.9976,-0.05817,0.1329,0.10857,-0.04786
0.06612,0.99391,-0.08804,0.16829,-0.11423,-0.05962
0.09508,0.98834,-0.11886,0.19085,-0.14584,-0.02441
0.12229,0.98105,-0.15027,0.12954,-0.24228,0.12067
0.14314,0.97272,-0.18251,0.05174,-0.21361,0.18462
0.15789,0.96366,-0.21544,-0.03557,-0.23318,0.24808
0.1655,0.95472,-0.24722,-0.17488,-0.51268,0.32381
0.16595,0.94706,-0.27482,-0.20815,-0.60766,0.24972
0.16039,0.94196,-0.29492,-0.202,-0.59622,0.25333
0.149,0.9396,-0.30813,-0.15753,-0.56292,0.20516
0.13168,0.94023,-0.31404,-0.07082,-0.53931,0.16385
0.11174,0.94369,-0.31137,0.00444,-0.48813,0.07392
0.09476,0.94942,-0.29936,0.1847,-0.2674,-0.11267
0.08136,0.95482,-0.28581,0.16154,-0.11722,-0.11798
0.07021,0.95739,-0.2801,0.11308,-0.00405,-0.05779
0.06426,0.95836,-0.27821,0.10549,1.02597,-0.19448
0.06895,0.95552,-0.28672,0.03722,1.32626,-0.33671
0.07911,0.9504,-0.30079,-0.00987,1.07769,-0.3919
0.0852,0.94626,-0.31198,-0.19341,0.25766,-0.23517
0.09142,0.94687,-0.30835,-0.1527,0.75775,0.26115
0.08388,0.94609,-0.31284,-0.24492,1.01529,0.39449
0.08538,0.94675,-0.31044,0.10373,-0.55063,0.44502
0.09699,0.94863,-0.30113,0.06614,-0.71841,0.43347
0.09045,0.95419,-0.28519,-0.27769,-0.46376,0.40817
0.06567,0.95932,-0.27455,-0.48784,0.005,0.46756
0.0263,0.96526,-0.25993,-0.20129,-0.003,0.53121
-0.02334,0.97046,-0.24009,0.003,0.08645,0.52304
-0.06085,0.97531,-0.21228,0.0112,0.13709,0.2824
-0.07498,0.98027,-0.18288,-0.04403,-0.08366,0.07297
-0.07666,0.98421,-0.15949,-0.15563,-0.3098,0.10272
-0.08065,0.98679,-0.14048,-0.183,-0.5071,0.22721
-0.08244,0.98946,-0.11899,-0.21924,-0.32136,0.04709
-0.08022,0.99306,-0.08594,-0.06794,-0.22243,0.09286
-0.07765,0.99571,-0.05023,0.23768,-0.08043,0.13284
-0.07488,0.99691,-0.02336,0.28665,-0.02035,0.05968
-0.07327,0.9973,0.00247,0.23603,-0.07737,0.08136
-0.07946,0.99644,0.02809,0.01866,-0.17316,0.03867
-0.09211,0.99447,0.05026,0.00857,-0.13592,-0.12892
-0.10768,0.99186,0.06778,0.09128,-0.1701,-0.05179
-0.12219,0.98936,0.07885,0.22469,-0.14653,0.01139
-0.13864,0.98624,0.08992,0.13335,0.19123,-0.10365
-0.15705,0.98244,0.10069,0.14287,0.21132,-0.02147
-0.17533,0.9787,0.1067,0.17068,0.07098,-0.01722
-0.19286,0.975,0.11033,0.40978,0.121,0.04031
-0.2035,0.97232,0.11476,0.46,0.18889,0.04517
-0.20704,0.9715,0.11537,0.45739,0.1935,-0.09364
-0.21122,0.96983,0.12164,0.5104,0.25101,0.08415
-0.20593,0.96942,0.13343,0.36777,0.28071,0.1595
-0.18611,0.97223,0.14186,-0.2912,0.39774,0.32732
-0.15581,0.97786,0.13964,-0.38056,0.34253,0.26163
-0.11976,0.98605,0.11553,-0.47341,0.32175,0.3209
-0.08585,0.99399,0.06775,-0.48981,0.30873,0.00021
-0.05208,0.99834,0.0244,-0.47288,0.43298,-0.05612
-0.02286,0.99973,0.00017,-0.33461,0.44593,0.07202
0.00621,0.99965,-0.02525,-0.14337,0.36834,0.07093
0.0359,0.99767,-0.05792,-0.01277,0.22601,-0.03442
0.06412,0.99409,-0.08751,0.06077,0.01886,-0.05363
0.09384,0.98877,-0.11623,0.066,-0.10572,0.04526
0.12333,0.98125,-0.14804,0.10017,-0.21633,0.1074
0.14712,0.9726,-0.17998,0.06722,-0.2835,0.17432
0.1648,0.96339,-0.21143,-0.08632,-0.28184,0.26746
0.17642,0.95375,-0.24335,-0.14459,-0.31226,0.31519
0.18006,0.94452,-0.27469,-0.19862,-0.35022,0.308
0.17771,0.93764,-0.29874,-0.24703,-0.4633,0.25073
0.17001,0.93349,-0.31574,-0.16589,-0.5009,0.27601
0.15585,0.93182,-0.32772,-0.11872,-0.51277,0.26678
0.13644,0.93352,-0.33154,-0.05386,-0.49381,0.15306
0.11634,0.93848,-0.32514,-0.01854,-0.36687,0.03298
0.10018,0.94472,-0.31218,0.05319,-0.30654,-0.06009
0.0865,0.94904,-0.30304,0.17842,-0.10787,-0.15712
0.07543,0.95086,-0.30029,0.1571,0.45689,-0.0566
0.07114,0.95203,-0.29762,0.16139,0.45572,-0.05927
0.08099,0.94914,-0.30425,0.08776,1.33379,-0.31948
0.09166,0.94352,-0.31838,-0.00538,-0.06891,-0.62007
0.09529,0.93935,-0.32943,-0.24279,-0.54256,-0.65998
0.09606,0.94237,-0.32046,0.35773,0.81756,0.40221
0.08439,0.94414,-0.31854,-0.09034,0.99293,0.28138
0.07807,0.94611,-0.31428,-0.35027,0.66021,0.37935
0.08275,0.94965,-0.30215,-0.33411,-0.28983,0.33189
0.08346,0.95261,-0.29248,-0.27806,-0.58384,0.35662
0.0729,0.95599,-0.28416,-0.162,-0.31204,0.44043
0.05097,0.95963,-0.2766,-0.10227,-0.02106,0.51705
0.01539,0.96679,-0.2551,-0.02392,0.12568,0.49593
-0.02278,0.9736,-0.22711,-0.05651,0.20835,0.41456
-0.04433,0.9786,-0.20089,-0.15992,0.17243,0.15879
-0.04972,0.98279,-0.17789,-0.15619,-0.24071,0.17222
-0.04824,0.98634,-0.15749,-0.24476,-0.33047,0.15916
-0.0421,0.9903,-0.13237,-0.12193,-0.39342,0.20756
-0.04225,0.9941,-0.09984,-0.09558,-0.21254,0.16001
-0.04918,0.99651,-0.06727,-0.07192,-0.10958,0.11142
-0.05603,0.99775,-0.0365,0.0645,0.03417,0.12976
-0.05836,0.99826,-0.00793,0.22533,-0.16238,0.10758
-0.06464,0.99776,0.0167,0.14519,-0.27677,0.04533
-0.0766,0.99635,0.03752,0.12118,-0.18757,-0.111
-0.09152,0.99402,0.05936,0.15978,-0.09185,-0.07677
-0.10513,0.99099,0.08291,0.22315,-0.12247,0.05292
-0.11683,0.98792,0.10174,0.19952,0.01466,-0.11575
-0.13007,0.98531,0.11058,0.14627,0.01541,-0.09703
-0.14282,0.9827,0.11779,0.08695,0.00909,-0.0075
-0.15737,0.97953,0.12544,0.16676,0.303,-0.04109
-0.17177,0.97662,0.12918,0.3549,0.31253,0.02461
-0.17912,0.97511,0.1306,0.43344,0.26239,0.005
-0.18275,0.9743,0.13162,0.45576,0.1699,-0.17494
-0.18319,0.97341,0.13747,0.51896,0.23738,0.10469
-0.17675,0.97345,0.14537,0.60331,0.35606,0.15584
-0.16035,0.9758,0.14858,-0.16473,0.14537,0.34165
-0.13317,0.98182,0.1352,-0.07745,0.12307,0.39138
-0.10192,0.99003,0.09713,-0.17835,0.31655,0.24989
-0.07097,0.99632,0.04792,-0.48518,0.45171,0.01423
-0.03922,0.99915,0.01226,-0.44761,0.59236,0.03559
-0.01087,0.99989,-0.00983,-0.41695,0.56251,0.10236
0.0203,0.99907,-0.03784,-0.27832,0.45521,0.02612
0.05095,0.99651,-0.066,-0.15051,0.33471,0.00459
0.07562,0.99287,-0.09207,-0.07045,0.17295,-0.00921
0.10196,0.98731,-0.12169,0.1864,-0.22092,0.03547
0.12698,0.98014,-0.15231,0.17063,-0.25167,0.09615
0.14686,0.97256,-0.18042,0.14035,-0.2712,0.14169
0.16141,0.96449,-0.20904,0.01794,-0.2236,0.27958
0.17063,0.95589,-0.23906,-0.13024,-0.34265,0.37785
0.17286,0.94763,-0.26852,-0.27127,-0.51694,0.3331
0.16879,0.94088,-0.29367,-0.31215,-0.56951,0.31585
0.15865,0.93665,-0.31225,-0.2811,-0.59396,0.28892
0.14291,0.9356,-0.32282,-0.24054,-0.59806,0.24543
0.1242,0.93784,-0.32406,-0.14926,-0.48882,0.15515
0.10695,0.94311,-0.31479,-0.01198,-0.33607,0.05968
0.09434,0.94948,-0.29929,0.1478,-0.18456,-0.14721
0.08644,0.95411,-0.28669,0.20716,-0.02774,-0.30348
0.08128,0.95569,-0.28292,0.1567,0.54,0.10806
0.08121,0.95517,-0.28468,0.16024,1.02092,-0.02787
0.08837,0.95072,-0.29718,0.18194,1.32911,-0.36314
0.09359,0.94451,-0.31485,0.20545,-0.06905,-0.79003
0.09837,0.94339,-0.31675,0.23807,-0.61615,-0.62786
0.10748,0.94365,-0.31299,0.13732,0.63094,0.24985
0.12077,0.93684,-0.32822,-0.34884,1.31024,0.59263
0.12503,0.94175,-0.31219,-0.66788,0.87676,0.6618
0.11718,0.95155,-0.28426,-0.60787,-0.07356,0.21306
0.10128,0.95535,-0.27754,-0.07354,-0.26006,0.35263
0.07948,0.95992,-0.26874,-0.12076,-0.18076,0.37354
0.05278,0.96537,-0.25547,-0.16667,-0.10143,0.51277
0.01509,0.972,-0.23445,-0.17523,-0.10961,0.40561
-0.01986,0.9769,-0.21273,-0.12185,0.06822,0.303
-0.04514,0.98133,-0.18693,-0.06932,0.28604,0.15998
-0.05671,0.98533,-0.16092,0.02076,-0.10928,0.18545
-0.05878,0.98903,-0.13547,-0.04021,-0.27928,0.17035
-0.05894,0.99266,-0.1055,-0.08946,-0.51139,0.16703
-0.05426,0.99603,-0.07048,-0.09731,-0.44641,0.05667
-0.0543,0.99783,-0.0369,-0.1548,-0.30089,0.07744
-0.06333,0.99797,-0.00475,0.0862,0.17218,0.21437
-0.06711,0.99741,0.0255,0.18783,0.12878,0.14121
-0.07061,0.9959,0.05631,0.20998,-0.04058,0.04092
-0.08699,0.99295,0.08041,0.04369,-0.18886,-0.12887
-0.10455,0.98955,0.09921,0.09471,-0.13721,-0.1114
-0.11944,0.98612,0.11527,0.17048,-0.06803,-0.00668
-0.13448,0.98286,0.12598,0.25228,0.09607,-0.17978
-0.14887,0.97987,0.13296,0.15604,0.01986,-0.03873
-0.16407,0.97676,0.13787,0.21213,-0.01707,-0.0534
-0.17941,0.97347,0.14197,0.29952,0.15243,-0.05194
-0.18856,0.97147,0.14379,0.48104,0.15591,0.01234
-0.19136,0.97102,0.14313,0.41426,0.15722,-0.13632
-0.18738,0.97119,0.14715,0.44382,0.12123,0.12067
-0.1775,0.97145,0.15737,0.13969,0.30854,0.10603
-0.15399,0.97397,0.16629,-0.17785,0.28342,0.45801
-0.11939,0.97918,0.16411,-0.18757,0.33237,0.40587
-0.08614,0.98768,0.13055,-0.47002,0.4119,0.31917
-0.0584,0.99534,0.07659,-0.65821,0.44265,0.05058
-0.03036,0.99897,0.0333,-0.67629,0.68076,-0.074
-0.00343,0.99994,0.00923,-0.45221,0.65574,0.01319
0.02654,0.99942,-0.02083,-0.14783,0.40266,0.0055
0.05552,0.99694,-0.0549,0.04686,0.17634,-0.05765
0.08213,0.993,-0.08478,0.17806,-0.06157,-0.03661
0.11072,0.98722,-0.11457,0.21083,-0.1912,0.08665
0.13692,0.97976,-0.14595,0.17332,-0.28186,0.16893
0.15752,0.97137,-0.17778,0.01032,-0.31358,0.17993
0.17156,0.96269,-0.20925,-0.07734,-0.29275,0.21085
0.18041,0.95408,-0.23911,-0.22379,-0.38229,0.29492
0.18465,0.94598,-0.26648,-0.34414,-0.62072,0.27989
0.18438,0.93885,-0.29077,-0.31032,-0.60351,0.27019
0.17832,0.93457,-0.30784,-0.22209,-0.52951,0.22534
0.16511,0.93428,-0.31599,-0.10419,-0.44139,0.10095
0.14664,0.93748,-0.31563,-0.04244,-0.38061,0.05867
0.12714,0.94316,-0.30703,0.11579,-0.2737,-0.05364
0.11014,0.94972,-0.29307,0.30977,-0.10945,-0.15963
0.09308,0.95387,-0.28541,0.33555,-0.04165,-0.24083
0.07576,0.95556,-0.28488,0.22029,0.13195,-0.15741
0.06571,0.95498,-0.28929,-0.0491,1.07511,-0.17963
0.07027,0.95132,-0.30007,-0.0056,1.22488,-0.28402
0.07695,0.94512,-0.31751,0.00709,0.63848,-0.50005
0.08392,0.94362,-0.32019,-0.13377,-0.51226,-0.6022
0.0923,0.94448,-0.31533,-0.07246,0.19462,0.21994
0.09484,0.93937,-0.32951,0.40197,1.78797,0.53812
0.09626,0.94483,-0.31309,-0.73076,-0.31127,0.16522
0.10057,0.95084,-0.29288,-0.39711,-0.6785,0.2136
0.09247,0.95255,-0.28997,-0.06242,-0.22989,0.4548
0.07174,0.95527,-0.28688,-0.11868,-0.02666,0.55438
0.04065,0.96152,-0.27169,-0.17814,0.15511,0.54664
4e-05,0.96923,-0.24612,-0.01014,0.18348,0.37913
-0.03789,0.9749,-0.21938,-0.00517,0.21761,0.32666
-0.06112,0.97876,-0.19564,-0.09408,-0.01587,0.04448
-0.07053,0.98229,-0.17352,-0.16297,-0.16268,0.1354
-0.07703,0.98544,-0.15152,-0.21626,-0.43376,0.2161
-0.08589,0.98871,-0.12269,-0.07845,-0.5685,0.22863
-0.08624,0.9927,-0.08428,0.01871,-0.30927,0.11787
-0.08829,0.99495,-0.04762,-0.03968,-0.11392,0.0573
-0.09387,0.99543,-0.01699,0.03619,-0.00939,0.14878
-0.0977,0.99514,0.01113,0.05908,-0.18188,0.08823
-0.10903,0.9933,0.03796,-0.13648,-0.32872,-0.04135
-0.13075,0.98941,0.06291,-0.06288,-0.05549,-0.10141
-0.15401,0.98444,0.0845,0.15541,-0.07859,0.00158
-0.17325,0.97995,0.09828,0.21733,-0.06214,-0.07139
-0.18746,0.97658,0.10549,0.21331,-0.04859,-0.20671
-0.19935,0.9735,0.11193,0.2835,0.0967,-0.03354
-0.21329,0.96995,0.11695,0.25389,0.17952,-0.05741
-0.22447,0.96734,0.11768,0.28436,0.22518,-0.00783
-0.22638,0.96709,0.1161,0.4901,0.09213,-0.12057
-0.22183,0.96729,0.12298,0.36008,0.1696,0.16518
-0.21615,0.96696,0.13505,0.5091,0.34433,0.05841
-0.19956,0.96911,0.14482,-0.12498,0.13712,0.4574
-0.16512,0.97465,0.15088,0.04853,0.32799,0.39245
-0.12389,0.98297,0.13568,-0.13255,0.49418,0.41727
-0.08889,0.99192,0.0904,-0.63061,0.54903,0.10713
-0.05581,0.99738,0.04592,-0.74811,0.73576,-0.01197
-0.02641,0.99934,0.02476,-0.62798,0.66268,0.10416
0.00641,0.99997,-0.00254,-0.42006,0.54097,0.07411
0.04008,0.99856,-0.03548,-0.23849,0.38702,-0.04928
0.07131,0.99539,-0.06403,-0.14617,0.2515,-0.04811
0.10511,0.98991,-0.09498,0.13247,-0.18449,0.02831
0.13939,0.98162,-0.13027,0.19195,-0.26001,0.13298
0.164,0.97274,-0.16391,0.1546,-0.24111,0.17092
0.18045,0.96376,-0.19646,-0.02224,-0.2427,0.24269
0.19164,0.95458,-0.22813,-0.23157,-0.57471,0.26019
0.19702,0.94617,-0.25678,-0.27901,-0.64064,0.23895
0.19364,0.93953,-0.28245,-0.26441,-0.67853,0.2362
0.18123,0.93498,-0.30489,-0.14256,-0.50209,0.236
0.16135,0.93352,-0.32014,-0.10883,-0.46637,0.19726
0.13863,0.9353,-0.32555,-0.07809,-0.48072,0.175
0.11916,0.93788,-0.32585,0.12849,-0.35278,-0.02599
0.10169,0.94069,-0.32365,0.25444,-0.26407,-0.11188
0.08059,0.9439,-0.32024,0.1856,0.1396,-0.06854
0.06866,0.94508,-0.31952,0.14436,0.5466,0.05551
0.07541,0.94023,-0.33207,0.00569,1.32251,-0.21113
0.08989,0.9332,-0.34791,-0.28465,0.52696,-0.48968
0.0978,0.9279,-0.35977,-0.14817,-0.51126,-0.56769
0.09324,0.9295,-0.35683,-0.14398,-0.2505,-0.56213
0.0869,0.92794,-0.36244,0.1834,1.29693,0.51299
0.0895,0.93053,-0.35509,-0.67338,0.45542,0.59592
0.08747,0.93853,-0.33393,-0.66256,0.03334,0.33585
0.07295,0.94,-0.33327,-0.08489,-0.492,0.50299
0.04781,0.94348,-0.32795,-0.29567,0.13156,0.51966
0.02091,0.94949,-0.3131,-0.30158,0.34786,0.54384
-0.01065,0.95684,-0.29041,0.23977,0.03059,0.32631
-0.04854,0.96293,-0.26531,0.04552,-0.0222,0.34824
-0.07648,0.9679,-0.2394,-0.10634,-0.13144,0.29272
-0.08303,0.97357,-0.21276,-0.25365,-0.19462,0.12689
-0.08296,0.97895,-0.18646,-0.15674,-0.32763,0.1651
-0.08461,0.98375,-0.15829,-0.04428,-0.3967,0.17099
-0.08349,0.98812,-0.129,-0.0138,-0.37519,0.06611
-0.0846,0.99126,-0.10116,-0.03413,-0.37593,0.02059
-0.08501,0.99364,-0.07372,0.02434,-0.29673,0.01372
-0.084,0.99545,-0.04482,0.1929,0.03142,0.10046
-0.08583,0.99616,-0.01659,0.0797,-0.17954,-0.08307
-0.09461,0.99548,0.00761,0.0468,-0.18313,-0.17028
-0.10263,0.99427,0.02969,0.12927,-0.1775,-0.09257
-0.10957,0.99303,0.04321,0.17686,-0.18349,0.06058
-0.11635,0.99171,0.05439,0.1266,-0.14407,0.07299
-0.12443,0.99008,0.06518,-0.08222,0.04172,-0.02663
-0.13506,0.988,0.07487,-0.02676,0.27671,0.05587
-0.14972,0.98518,0.08362,0.13411,0.25635,-0.01683
-0.16011,0.98301,0.08959,0.4159,0.29192,0.01307
-0.16373,0.98263,0.0873,0.56141,0.33862,-0.08416
-0.16469,0.98252,0.08667,0.74505,0.28037,0.02795
-0.15935,0.98267,0.09461,0.27387,0.25859,0.26061
-0.14054,0.98506,0.09947,-0.03254,0.3893,0.27221
-0.11593,0.98807,0.10128,-0.24605,0.37875,0.23277
-0.08681,0.99271,0.08346,-0.4608,0.34516,0.18037
-0.05889,0.99734,0.04276,-0.51954,0.31632,0.06701
-0.03312,0.99944,0.00126,-0.47844,0.40269,-0.0357
-0.00886,0.99974,-0.02051,-0.31479,0.5654,0.01964
0.01703,0.99869,-0.04818,0.00824,0.31977,0.05468
0.04382,0.99577,-0.08069,0.04565,0.25698,0.04542
0.07018,0.99135,-0.11083,0.08848,-0.06841,0.02662
0.09505,0.985,-0.14397,0.05272,-0.10124,0.021
0.11686,0.9764,-0.1816,-0.01691,-0.22484,0.13686
0.13445,0.96658,-0.21825,-0.07785,-0.24911,0.22181
0.14642,0.95668,-0.25164,-0.12751,-0.26937,0.25183
0.1512,0.94757,-0.28149,-0.24684,-0.43446,0.37743
0.15216,0.93955,-0.30672,-0.25922,-0.53958,0.36205
0.15045,0.93276,-0.32757,-0.26871,-0.52494,0.35475
0.14501,0.9276,-0.34426,-0.22495,-0.4732,0.33112
0.13548,0.92474,-0.35567,-0.20969,-0.45205,0.28629
0.12384,0.92463,-0.36016,-0.17728,-0.40487,0.24185
0.11143,0.92744,-0.35696,-0.02697,-0.29495,0.11955
0.09696,0.93312,-0.34624,0.12449,-0.24562,-0.03962
0.07888,0.93945,-0.33346,0.15428,-0.02977,-0.24772
0.05976,0.94311,-0.32704,0.14692,0.18242,-0.22717
0.04835,0.94364,-0.32742,0.31705,0.55839,-0.10448
0.05098,0.94183,-0.33219,0.17504,0.86649,-0.34241
0.05953,0.9378,-0.34202,0.10718,0.67003,-0.48766
0.06284,0.93634,-0.34542,0.15068,-0.33365,-0.44618
0.06702,0.93915,-0.3369,0.04248,0.037,-0.2491
0.06998,0.93718,-0.34175,0.30598,0.58577,0.26269
0.07206,0.93819,-0.33852,-0.74206,1.06442,0.61995
0.07019,0.94634,-0.31543,-0.85016,-0.08373,0.35276
0.06435,0.95015,-0.30507,-0.4998,-0.38052,0.28264
0.04089,0.95088,-0.30682,-0.13981,-0.22689,0.31282
0.01392,0.95233,-0.30473,-0.10652,0.03889,0.54837
-0.01663,0.95655,-0.29108,-0.03027,0.06893,0.562
-0.04502,0.96193,-0.26954,-0.06491,0.08467,0.36552
-0.06463,0.96794,-0.24271,-0.24669,-0.01747,0.15288
-0.07712,0.97339,-0.21574,-0.21475,-0.07857,0.08939
-0.08233,0.97731,-0.19512,-0.16854,-0.17497,0.13648
-0.08746,0.98089,-0.17374,-0.04886,-0.42168,0.23429
-0.08908,0.98508,-0.14725,0.09799,-0.4845,0.26367
-0.08751,0.98965,-0.11367,-0.01149,-0.30198,0.11814
-0.09122,0.99264,-0.07957,-0.10769,-0.11131,0.14618
-0.09599,0.99401,-0.05207,0.06773,-0.1002,0.14001
-0.1014,0.99451,-0.02546,0.13407,-0.19175,0.0333
-0.11027,0.9939,0.0009,0.1532,-0.13695,-0.02619
-0.12202,0.9922,0.02504,0.10304,-0.08066,-0.04893
-0.13464,0.98989,0.04438,0.15872,-0.08017,-0.0564
-0.14939,0.98702,0.05878,0.15211,-0.09306,-0.05594
-0.16458,0.9839,0.06959,0.18977,-0.02937,-0.06814
-0.17806,0.98078,0.07971,0.15668,0.03471,-0.07384
-0.1886,0.97794,0.08972,0.15737,0.14187,-0.02385
-0.19914,0.97519,0.09663,0.15913,0.12093,-0.05832
-0.2087,0.97262,0.10216,0.32764,0.06136,-0.05406
-0.2134,0.97064,0.11097,0.29839,0.07957,-0.09564
-0.21304,0.96952,0.12095,0.29701,0.16184,-0.10977
-0.20904,0.9692,0.13012,0.61362,0.21961,0.08446
-0.19584,0.96964,0.14638,0.33421,0.22537,0.21623
-0.17319,0.97256,0.15528,-0.06399,0.20555,0.40396
-0.14303,0.97857,0.14812,-0.60009,0.49243,0.31125
-0.11237,0.98754,0.11009,-0.71347,0.45019,0.17247
-0.07902,0.99518,0.05795,-0.70291,0.50908,0.13724
-0.04773,0.99864,0.02068,-0.56621,0.66109,-0.04127
-0.01808,0.99981,-0.0069,-0.29279,0.50686,0.06657
0.01301,0.99905,-0.04141,-0.04906,0.275,0.01291
0.04301,0.99616,-0.07618,0.17847,0.06407,-0.03202
0.07292,0.9911,-0.11137,0.25864,-0.04935,-0.02688
0.10127,0.98365,-0.14886,0.20941,-0.13386,0.08029
0.1235,0.97476,-0.18595,0.0829,-0.18413,0.19012
0.13947,0.9649,-0.22249,-0.02491,-0.19996,0.30663
0.1489,0.95476,-0.25739,-0.14974,-0.26523,0.36803
0.15228,0.94539,-0.28816,-0.22563,-0.45792,0.39643
0.14873,0.93818,-0.31254,-0.23278,-0.62377,0.32429
0.13796,0.9344,-0.32842,-0.19239,-0.67047,0.29685
0.12111,0.93425,-0.33542,-0.13431,-0.62066,0.1837
0.09918,0.93825,-0.33142,-0.04217,-0.50771,0.09936
0.0746,0.94464,-0.31949,0.09778,-0.40076,-0.04382
0.05238,0.95,-0.30781,0.23777,-0.19728,-0.15413
0.03311,0.95093,-0.30763,0.14887,0.01465,0.09172
0.0206,0.95057,-0.30983,0.06231,0.42936,0.00817
0.02521,0.94799,-0.31729,-0.06,1.4046,-0.25807
0.03873,0.94139,-0.33508,-0.12954,0.50946,-0.43362
0.0456,0.93469,-0.35252,-0.40895,-0.01471,-0.50667
0.04821,0.93464,-0.35229,-0.07856,0.657,0.18289
0.03828,0.93059,-0.36404,-0.26047,1.10309,0.22654
0.03531,0.92609,-0.37565,0.00907,0.88507,0.08064
0.04553,0.92707,-0.37211,-0.02906,-0.70229,0.63422
0.04761,0.93099,-0.36191,-0.21973,-0.63854,0.60753
0.04029,0.93476,-0.35298,-0.43295,-0.16932,0.5927
0.01626,0.94354,-0.33085,-0.36805,0.26369,0.77854
-0.02212,0.95238,-0.30408,-0.09569,0.21053,0.4632
-0.05316,0.95922,-0.27762,0.0756,0.12468,0.36424
-0.06571,0.96561,-0.25155,0.10633,-0.01625,0.26984
-0.06703,0.97125,-0.22843,-0.20797,-0.22526,0.21113
-0.06461,0.97595,-0.20819,-0.2836,-0.28883,0.20977
-0.06414,0.98073,-0.18452,-0.16378,-0.37554,0.26387
-0.07264,0.98537,-0.15416,-0.10708,-0.24591,0.19653
-0.07804,0.98919,-0.12412,-0.05594,-0.07955,0.12319
-0.07842,0.99233,-0.09555,0.1646,-0.0424,0.18277
-0.07366,0.99492,-0.0685,0.15203,-0.14286,0.12281
-0.07184,0.9964,-0.04492,0.0456,-0.2471,0.03472
-0.07751,0.99675,-0.02191,0.02126,-0.18856,0.00764
-0.08726,0.99618,0.00092,0.02101,-0.15304,-0.03287
-0.09845,0.99491,0.02125,0.24621,-0.07664,0.05196
-0.11274,0.99295,0.03635,0.27712,-0.07199,-0.03121
-0.12939,0.99043,0.048,0.29377,-0.06947,-0.04286
-0.14583,0.98761,0.05794,0.17218,0.0549,-0.08859
-0.16279,0.9843,0.06816,0.15702,0.15276,0.01033
-0.17969,0.98068,0.0773,0.1933,0.21188,0.0196
-0.19395,0.97745,0.08342,0.29635,0.1309,0.03486
-0.20437,0.97515,0.0854,0.41216,0.11916,-0.06259
-0.21031,0.97341,0.09068,0.41436,0.13126,-0.13029
-0.21174,0.97229,0.099,0.6097,0.29864,0.0901
-0.20377,0.97298,0.10854,0.40481,0.29761,0.24588
-0.18646,0.97529,0.11845,0.03382,0.24894,0.30002
-0.1592,0.97952,0.12325,-0.15699,0.32656,0.38748
-0.12621,0.98618,0.10732,-0.38598,0.38678,0.43135
-0.09415,0.99363,0.06189,-0.49064,0.24243,0.21675
-0.06217,0.99794,0.01549,-0.49435,0.49234,0.0775
-0.0341,0.99932,-0.01382,-0.52601,0.5205,0.05311
-0.00477,0.99897,-0.04494,-0.3682,0.36612,0.16487
0.02281,0.99652,-0.08003,-0.18361,0.19671,-0.01132
0.04858,0.99291,-0.10842,0.18535,-0.08846,0.03338
0.07817,0.98767,-0.13558,0.20974,-0.11223,0.08579
0.10987,0.97994,-0.16624,0.21489,-0.08068,0.1112
0.13169,0.97145,-0.19732,0.20881,-0.07765,0.17802
0.14274,0.96342,-0.22678,0.01241,-0.13771,0.27813
0.15,0.95565,-0.25342,-0.12011,-0.19947,0.30432
0.15356,0.94848,-0.27712,-0.35469,-0.42219,0.38602
0.1561,0.93976,-0.30408,-0.32843,-0.40288,0.30773
0.15638,0.93102,-0.32976,-0.27879,-0.39929,0.35042
0.15283,0.92403,-0.35044,-0.17952,-0.35425,0.31223
0.13937,0.92085,-0.36415,-0.09565,-0.40619,0.25901
0.11806,0.92281,-0.36671,-0.03009,-0.41216,0.23623
0.09487,0.92964,-0.35602,0.12249,-0.35489,0.04812
0.06875,0.93886,-0.33735,0.17509,-0.05039,-0.1941
0.0469,0.94523,-0.32301,0.11793,0.087,-0.22378
0.03926,0.94643,-0.3205,0.11082,0.4785,-0.0671
0.04536,0.94385,-0.32722,0.04,1.05377,-0.2764
0.05421,0.93764,-0.34334,0.06235,0.84033,-0.36322
0.05827,0.93291,-0.35535,0.19625,-0.33025,-0.51172
0.06568,0.93405,-0.35105,0.00884,0.01394,-0.36942
0.06734,0.93147,-0.35751,0.63452,1.1816,0.41791
0.06692,0.93274,-0.35428,-0.48155,0.92809,0.40531
0.072,0.94008,-0.33324,-0.26559,-0.35376,0.3547
0.06617,0.94703,-0.31423,-0.31849,-0.41834,0.33279
0.04501,0.95006,-0.30879,-0.40884,-0.14589,0.3556
0.01442,0.9528,-0.30323,-0.1837,0.019,0.68038
-0.02935,0.95775,-0.2861,-0.05835,-0.08999,0.60287
-0.07575,0.96194,-0.26253,-0.06155,0.08991,0.43446
-0.10553,0.96519,-0.2393,-0.17008,-0.0209,0.1169
-0.11293,0.96852,-0.22181,-0.06378,-0.11958,0.16123
-0.11271,0.97232,-0.20465,-0.11102,-0.25038,0.26851
-0.11223,0.97679,-0.18243,-0.09824,-0.35057,0.26623
-0.10869,0.98236,-0.15215,-0.06521,-0.30525,0.2271
-0.10373,0.98721,-0.12098,-0.07628,-0.12805,0.11527
-0.10225,0.99032,-0.09384,-0.10634,-0.07014,0.1005
-0.10219,0.99241,-0.06837,0.03517,-0.07226,0.12373
-0.10398,0.99374,-0.04075,0.17722,-0.14953,0.05282
-0.1111,0.99371,-0.01327,0.18723,-0.14388,0.00647
-0.12085,0.99261,0.00996,0.19254,-0.11282,-0.04821
-0.13128,0.99092,0.02865,0.12068,-0.11869,-0.06439
-0.14269,0.98874,0.04487,0.17918,-0.05786,-0.06848
-0.15514,0.98616,0.05832,0.22037,-0.023,-0.08145
-0.1671,0.9835,0.06923,0.17419,-0.01791,0.02861
-0.17824,0.98074,0.07981,0.14656,0.06476,0.04317
-0.19084,0.97768,0.08781,0.15232,0.12864,0.00532
-0.20206,0.97485,0.09392,0.26863,0.16805,-0.00585
-0.20952,0.97229,0.10362,0.36183,0.14668,-0.06468
-0.21468,0.96991,0.11476,0.37873,0.17203,-0.06115
-0.21198,0.96911,0.126,0.62243,0.33077,0.1306
-0.20006,0.9702,0.13665,0.11566,0.14621,0.29389
-0.17775,0.97354,0.14358,-0.04811,0.24913,0.3204
-0.14721,0.97893,0.14143,-0.35409,0.32029,0.31264
-0.1174,0.9867,0.1124,-0.64101,0.23932,0.16338
-0.09082,0.99398,0.06115,-0.56898,0.09278,0.07612
-0.06492,0.99775,0.01616,-0.3815,0.26644,0.07862
-0.04108,0.9991,-0.01006,-0.24389,0.54446,0.05567
-0.01312,0.99915,-0.03887,-0.05865,0.44775,0.07865
0.01698,0.99731,-0.07122,0.02511,0.23705,0.07052
0.04421,0.9938,-0.10193,0.05036,0.13078,0.02685
0.0691,0.98836,-0.13551,0.05195,0.03116,0.01743
0.09186,0.98108,-0.17038,0.08322,-0.10588,0.08667
0.11227,0.9725,-0.20404,0.05769,-0.1656,0.1613
0.12865,0.96351,-0.2347,-0.06548,-0.19776,0.22521
0.13861,0.95441,-0.26436,-0.16942,-0.21385,0.3451
0.1422,0.94533,-0.29347,-0.23175,-0.28648,0.36807
0.14413,0.93743,-0.31692,-0.27518,-0.39564,0.30211
0.1445,0.93104,-0.33508,-0.2405,-0.51881,0.31027
0.13777,0.92642,-0.35036,-0.15205,-0.49546,0.24672
0.12446,0.92518,-0.35853,-0.12527,-0.45794,0.21554
0.11081,0.92761,-0.35673,-0.02015,-0.42248,0.13835
0.09768,0.93305,-0.34621,0.11616,-0.24149,0.00948
0.08207,0.93942,-0.33277,0.19081,-0.18135,-0.06707
0.06328,0.94409,-0.32354,0.18806,-0.08674,-0.21379
0.04694,0.94624,-0.32002,0.28027,0.37947,-0.08748
0.04241,0.94622,-0.32071,0.15501,0.98795,-0.12745
0.05395,0.94323,-0.32772,0.00881,0.95712,-0.27792
0.06288,0.93829,-0.34007,-0.01025,0.6843,-0.36026
0.06784,0.93755,-0.34116,-0.3257,-0.3053,-0.54958
0.06565,0.94134,-0.33099,0.52531,0.72228,0.36707
0.05684,0.9428,-0.32846,0.2253,0.91297,0.37017
0.05259,0.94642,-0.31862,-0.47562,0.36629,0.43307
0.05769,0.95057,-0.30509,-0.32129,-0.48893,0.4603
0.05614,0.9534,-0.29643,-0.25693,-0.47894,0.50833
0.04378,0.95506,-0.29315,-0.23888,-0.07858,0.46072
0.01804,0.95725,-0.28867,-0.01859,-0.02207,0.57552
-0.02318,0.96217,-0.27145,0.10983,-0.03579,0.55445
-0.0658,0.96734,-0.24477,-0.13062,0.21493,0.3817
-0.08942,0.97164,-0.21888,-0.15678,-0.03742,0.11788
-0.09982,0.97454,-0.20073,-0.17483,-0.14636,0.13547
-0.11174,0.97633,-0.18517,-0.22202,-0.25184,0.15759
-0.12366,0.97887,-0.16283,-0.18594,-0.48666,0.26876
-0.12181,0.98337,-0.13466,-0.11271,-0.23,0.18204
-0.11752,0.98747,-0.10529,-0.10097,-0.11068,0.12405
-0.11638,0.99038,-0.07478,0.12614,-0.02802,0.13329
-0.11661,0.99208,-0.04655,0.04001,-0.14537,0.1367
-0.12105,0.99246,-0.01903,0.03628,-0.19874,0.10006
-0.13232,0.99116,0.00934,0.09208,-0.1049,-0.0334
-0.14621,0.98869,0.03309,0.06343,-0.05243,-0.03338
-0.15811,0.9861,0.05104,0.12262,-0.02651,-0.04936
-0.16859,0.98353,0.06512,0.25802,-0.01667,-0.0828
-0.18051,0.98063,0.07595,0.19564,0.01684,-0.00891
-0.191,0.97789,0.08508,0.17643,0.02499,0.02587
-0.20091,0.97526,0.09214,0.13585,0.15641,0.00924
-0.20981,0.97311,0.09497,0.22696,0.15708,-0.01123
-0.21358,0.97216,0.09629,0.37758,0.10911,-0.0448
-0.21469,0.97125,0.10281,0.3479,0.11461,-0.11294
-0.21486,0.97011,0.11269,0.38314,0.15264,0.00021
-0.20687,0.97046,0.1241,0.44499,0.28723,0.15596
-0.18932,0.97337,0.12923,0.02228,0.05883,0.39392
-0.16156,0.9784,0.1289,-0.09983,0.09751,0.33333
-0.13141,0.98568,0.1056,-0.48065,0.26237,0.30001
-0.10087,0.9932,0.05808,-0.76773,0.39175,0.15143
-0.07044,0.99746,0.00955,-0.67263,0.51883,0.14309
-0.04291,0.99889,-0.0193,-0.53315,0.5775,0.07832
-0.01362,0.99884,-0.04597,-0.23112,0.4813,0.08705
0.01788,0.99672,-0.0788,-0.01814,0.28404,-0.00951
0.04736,0.99274,-0.11053,0.02378,0.22665,-0.01536
0.07336,0.98693,-0.14343,0.09571,0.0517,-0.01683
0.09855,0.97907,-0.17804,0.0618,-0.13264,0.14523
0.12255,0.96944,-0.21249,0.00659,-0.15577,0.18768
0.14262,0.95917,-0.24422,-0.10108,-0.20851,0.27813
0.15742,0.94825,-0.27576,-0.15633,-0.24886,0.37607
0.1642,0.93646,-0.30994,-0.18297,-0.35895,0.40139
0.16407,0.92694,-0.33743,-0.20639,-0.57815,0.28341
0.1567,0.92099,-0.35668,-0.18152,-0.57861,0.29658
0.1396,0.91921,-0.36817,-0.16561,-0.45676,0.24833
0.11916,0.92098,-0.37092,-0.07515,-0.46941,0.14395
0.09855,0.92554,-0.36559,-0.0354,-0.42345,0.08355
0.08042,0.9317,-0.3542,0.14185,-0.23387,-0.02968
0.06405,0.9361,-0.34584,0.19744,-0.15995,-0.1098
0.04909,0.93839,-0.34205,0.17595,-0.00756,0.00282
0.04374,0.94037,-0.33733,0.21603,0.86818,-0.21559
0.04969,0.93838,-0.342,-0.01574,1.18706,-0.42325
0.05843,0.93536,-0.34881,-0.13511,0.64288,-0.37683
0.06233,0.93292,-0.35463,-0.09507,0.06857,-0.42071
0.06236,0.93625,-0.34575,0.19153,0.37026,0.14206
0.05241,0.93792,-0.34286,0.41814,0.76859,0.46806
0.04231,0.94006,-0.33836,-0.51691,0.59136,0.35889
0.03811,0.9441,-0.32744,-0.37994,-0.1449,0.43991
0.0329,0.945,-0.32541,-0.28688,-0.35164,0.45384
0.02571,0.94537,-0.32497,-0.15392,0.01384,0.47406
0.00896,0.94825,-0.31739,0.12106,0.1199,0.6271
-0.02253,0.95397,-0.29903,0.17704,-0.08235,0.4525
-0.06599,0.9613,-0.26745,0.03959,-0.09865,0.4176
-0.09921,0.96613,-0.2382,-0.25266,-0.09865,0.23794
-0.11092,0.97034,-0.21475,-0.08314,-0.08045,0.14572
-0.10963,0.97492,-0.19364,-0.09016,-0.13549,0.18448
-0.10357,0.97965,-0.17192,-0.14765,-0.34683,0.18304
-0.0984,0.98409,-0.14788,-0.13972,-0.47549,0.16131
-0.09821,0.9873,-0.12478,-0.10033,-0.34465,0.1642
-0.1027,0.98983,-0.09837,0.04072,-0.00553,0.17401
-0.10536,0.99206,-0.06858,0.1302,0.06847,0.10507
-0.10785,0.9933,-0.04133,0.17319,-0.14647,0.00976
-0.1124,0.99346,-0.01956,0.16274,-0.20805,-0.04342
-0.11594,0.99325,0.00017,0.13281,-0.14021,-0.09877
-0.11767,0.99287,0.01844,0.23736,-0.04964,-0.04771
-0.12271,0.99188,0.03328,0.12137,-0.03889,-0.0598
-0.13037,0.99037,0.04639,-0.00608,0.02481,-0.01554
-0.14349,0.9878,0.06042,0.0198,0.09549,0.14872
-0.16128,0.98408,0.07456,0.02789,0.12627,0.10294
-0.1789,0.98,0.08702,0.24648,0.18771,0.1268
-0.19375,0.97614,0.09801,0.3378,0.25526,0.14423
-0.20456,0.97266,0.10987,0.44165,0.40324,-0.01576
-0.20444,0.97112,0.12296,0.48485,0.2745,0.21566
-0.18865,0.97223,0.13842,0.57581,0.39325,0.32772
-0.16355,0.97497,0.15055,-0.55426,0.56439,0.28786
-0.13442,0.98096,0.14011,-0.70115,0.60151,0.22061
-0.11038,0.98854,0.10289,-0.60137,0.19635,0.11836
-0.0901,0.99443,0.05453,-0.1739,-0.03831,0.00239
-0.07313,0.99722,0.01366,-0.09182,0.0577,0.03929
-0.05495,0.99824,-0.02197,0.06763,0.40337,0.13637
-0.03322,0.99764,-0.06004,-0.10844,0.12823,0.05338
-0.01033,0.99526,-0.09667,-0.11722,0.12727,0.0616
0.0126,0.99149,-0.1295,-0.08353,0.14619,0.07947
0.03729,0.98618,-0.16136,-0.00697,-0.12051,0.15781
0.0596,0.97941,-0.19287,-0.01895,-0.20379,0.18713
0.07956,0.97097,-0.22554,-0.03151,-0.33407,0.23357
0.09461,0.96175,-0.25704,-0.09594,-0.36808,0.31716
0.10392,0.95242,-0.28651,-0.12301,-0.34457,0.36588
0.11093,0.94357,-0.31203,-0.16571,-0.42471,0.31085
0.11543,0.93566,-0.33347,-0.20219,-0.43345,0.24939
0.1162,0.92936,-0.3504,-0.16164,-0.31679,0.20445
0.10912,0.92617,-0.36096,-0.12099,-0.30648,0.16313
0.09039,0.92774,-0.3621,0.06217,-0.37951,0.10395
0.06249,0.93447,-0.35049,0.16556,-0.38864,0.07345
0.03541,0.94339,-0.32978,0.25958,-0.23484,-0.11942
0.01336,0.95094,-0.30906,0.14399,-0.04372,-0.28225
-0.00106,0.95471,-0.29751,0.10863,0.32761,-0.17847
-0.00302,0.95478,-0.29729,-0.16016,1.10484,-0.20211
0.01058,0.95062,-0.31017,0.0245,1.04664,-0.29994
0.02119,0.94359,-0.33042,-0.21488,-0.27521,-0.59736
0.03028,0.94198,-0.33428,0.3999,0.68465,0.51882
0.02656,0.94032,-0.33924,-0.31513,1.16704,0.35976
0.02891,0.93909,-0.34245,-0.1621,0.0136,0.37309
0.04655,0.94235,-0.33135,0.08117,-0.7536,0.47265
0.04937,0.9453,-0.32243,-0.21632,-0.43282,0.25976
0.03422,0.94601,-0.32232,-0.2265,0.43363,0.69028
-0.00032,0.94927,-0.31445,-0.03508,0.20842,0.64552
-0.04631,0.95369,-0.2972,0.00362,0.10819,0.43633
-0.08169,0.95977,-0.26861,-0.12812,-0.05967,0.20458
-0.0992,0.96569,-0.24,-0.16937,-0.10575,0.11854
-0.10227,0.97123,-0.21502,-0.2057,-0.21667,0.18609
-0.10204,0.97634,-0.19064,-0.12902,-0.48418,0.36007
-0.10214,0.98193,-0.15927,-0.09876,-0.41439,0.31151
-0.10079,0.98761,-0.12021,-0.12727,-0.19617,0.11929
-0.10157,0.9916,-0.07995,0.02514,0.01239,0.23192
-0.10195,0.99365,-0.04738,0.02981,-0.0061,0.19545
-0.10565,0.99421,-0.01933,0.02828,-0.10226,0.05591
-0.11675,0.99313,0.00757,-0.00274,-0.12403,-0.02309
-0.12911,0.99115,0.03045,0.11421,-0.0719,-0.01472
-0.13962,0.98892,0.05021,0.28131,-0.05368,-0.00037
-0.15422,0.98608,0.06206,0.23666,-0.02429,-0.13168
-0.1692,0.98316,0.06894,0.23791,-0.03983,-0.10083
-0.18172,0.98039,0.07612,0.22237,-0.04086,-0.00631
-0.19545,0.97727,0.08208,0.30493,0.14011,-0.00653
-0.20803,0.97448,0.08424,0.33468,0.1273,5e-05
-0.21585,0.9726,0.08627,0.54708,0.08436,0.00591
-0.21807,0.9715,0.09278,0.36215,0.08839,0.00859
-0.21577,0.97128,0.10018,0.57992,0.22934,0.1444
-0.20576,0.97301,0.10438,0.02292,0.15577,0.43795
-0.18505,0.97675,0.10813,0.00377,0.12598,0.47282
-0.15216,0.98326,0.10019,-0.11128,0.22403,0.36279
-0.11858,0.99103,0.06141,-0.8283,0.61752,-0.00361
-0.08615,0.99624,0.00853,-0.84596,0.71291,0.05105
-0.0542,0.99828,-0.02202,-0.39264,0.65283,0.03647
-0.0221,0.99867,-0.04639,-0.11668,0.38893,0.01283
0.01221,0.99677,-0.07928,-0.02864,0.29586,0.08978
0.04355,0.99306,-0.1092,0.06682,0.12361,0.02471
0.06951,0.98801,-0.13784,0.16722,-0.0641,0.05066
0.09574,0.9807,-0.17046,0.12352,-0.1243,0.12499
0.11881,0.97175,-0.20391,0.0309,-0.15105,0.19048
0.13671,0.96242,-0.23463,-0.05228,-0.1532,0.26169
0.14884,0.953,-0.26388,-0.12348,-0.20477,0.32372
0.15529,0.9436,-0.29241,-0.20668,-0.39977,0.37372
0.1547,0.93493,-0.31932,-0.24859,-0.62599,0.32907
0.14573,0.92895,-0.34031,-0.23115,-0.61553,0.35136
0.13005,0.92616,-0.35399,-0.20007,-0.58653,0.3562
0.10824,0.92727,-0.3584,-0.10538,-0.57072,0.21094
0.08375,0.93264,-0.35093,0.00159,-0.48887,0.12382
0.06071,0.94068,-0.33381,0.17713,-0.34122,-0.02536
0.04104,0.94771,-0.31648,0.17171,-0.13524,-0.14829
0.02445,0.9505,-0.30975,0.11047,0.17066,-0.09148
0.01581,0.95141,-0.3075,-0.00084,1.24784,-0.11654
0.0254,0.9484,-0.31604,-0.0771,1.38725,-0.22264
0.04281,0.94174,-0.3336,0.0921,0.43902,-0.43515
0.05002,0.93471,-0.35186,-0.24893,-0.6897,-0.55688
0.05775,0.93601,-0.34719,0.34565,0.73149,0.4971
0.05265,0.93255,-0.35715,-0.53908,0.93855,0.29049
0.05084,0.9322,-0.35834,-0.43707,0.22191,0.35447
0.06217,0.9365,-0.34511,-0.07652,-0.75159,0.44725
0.06483,0.94073,-0.33289,-0.08266,-0.15365,0.43391
0.05451,0.94414,-0.32498,-0.11649,0.22529,0.61596
0.01943,0.94987,-0.31203,-0.01598,0.28342,0.64738
-0.02841,0.95564,-0.29316,0.01712,0.22276,0.44744
-0.06458,0.95986,-0.27294,-0.1519,0.07083,0.29679
-0.07389,0.96514,-0.25106,-0.29067,-0.11773,0.1367
-0.06401,0.97181,-0.22687,-0.1826,-0.2913,0.25061
-0.0555,0.97757,-0.20314,-0.10877,-0.3893,0.29727
-0.05964,0.98212,-0.17852,-0.01597,-0.43909,0.25333
-0.06788,0.98715,-0.14462,0.00652,-0.06338,0.1796
-0.0758,0.99085,-0.11165,-0.0111,-0.01631,0.15842
-0.081,0.99315,-0.08414,0.03711,-0.06381,0.19171
-0.08596,0.9946,-0.05803,-0.03644,-0.24492,0.0579
-0.09461,0.99489,-0.03498,0.00868,-0.13578,-0.02497
-0.10543,0.99435,-0.01207,0.03593,-0.07244,-0.01819
-0.11478,0.99333,0.01005,0.11133,-0.08516,0.00557
-0.12573,0.99169,0.02711,0.24968,-0.05431,-0.0846
-0.14059,0.98922,0.04078,0.25438,-0.00076,0.03138
-0.15543,0.9865,0.05144,0.16582,0.03398,0.06449
-0.17111,0.98341,0.06014,0.14793,0.07168,0.0421
-0.18814,0.97965,0.06976,0.48391,0.14214,0.07293
-0.20024,0.97687,0.07497,0.50574,0.09085,0.02584
-0.20476,0.97547,0.08071,0.48371,0.09646,-0.06221
-0.20681,0.97437,0.08844,0.52998,0.28451,0.02985
-0.20507,0.97381,0.09805,0.14383,0.15691,0.44394
-0.18778,0.97571,0.11269,0.04669,0.16187,0.47935
-0.15938,0.98026,0.11695,-0.29978,0.40547,0.33821
-0.12693,0.98707,0.09776,-0.60829,0.42261,0.24846
-0.09501,0.99406,0.05287,-0.69411,0.37509,0.18338
-0.06463,0.99787,0.00815,-0.44558,0.35984,0.03714
-0.03843,0.99905,-0.02026,-0.39658,0.55224,0.03805
-0.01123,0.99888,-0.04574,-0.3081,0.543,0.10241
0.01874,0.9968,-0.07761,-0.04612,0.30427,0.0044
0.04667,0.99311,-0.10741,0.03243,0.13312,-0.01481
0.07143,0.98819,-0.13552,0.03744,0.04566,0.00726
0.0979,0.98152,-0.16436,0.07512,-0.20899,0.11821
0.12294,0.9734,-0.19329,0.044,-0.28889,0.16711
0.14565,0.96442,-0.22059,-0.00585,-0.28582,0.1809
0.16108,0.95534,-0.24772,-0.10872,-0.30448,0.25352
0.16909,0.94628,-0.27558,-0.15522,-0.40419,0.31266
0.17023,0.93812,-0.30155,-0.21024,-0.52644,0.27772
0.16372,0.93222,-0.32272,-0.14776,-0.59201,0.29556
0.14868,0.92942,-0.33773,-0.08842,-0.56641,0.25648
0.12797,0.93026,-0.34384,-0.07384,-0.46168,0.18271
0.10648,0.93434,-0.34009,-0.08965,-0.35657,0.10152
0.08943,0.93949,-0.33069,0.04726,-0.26427,0.00783
0.07606,0.94334,-0.32298,0.10263,-0.18916,-0.04695
0.06229,0.94559,-0.31932,0.01419,-0.03684,-0.05378
0.05313,0.9468,-0.31738,0.05999,0.74118,-0.15535
0.05653,0.94449,-0.32362,0.08664,1.2462,-0.28705
0.0685,0.9408,-0.33194,0.05113,0.6685,-0.33717
0.07512,0.93705,-0.341,-0.3376,-0.31089,-0.4986
0.07322,0.93769,-0.33965,-0.07612,0.36091,-0.01587
0.06373,0.93818,-0.34022,-0.52629,1.44831,0.52247
0.04956,0.93974,-0.33827,-0.8235,0.0127,0.33523
0.04882,0.94296,-0.3293,-0.04599,-0.68981,0.44629
0.05793,0.94381,-0.32535,-0.08912,-0.78973,0.46962
0.05491,0.94586,-0.31989,0.06943,-0.08352,0.52687
0.03082,0.94918,-0.31321,-0.0649,0.37118,0.5789
-0.01331,0.95477,-0.29703,0.00634,0.23104,0.43067
-0.05889,0.96031,-0.27261,-0.00161,0.1374,0.34568
-0.08207,0.9663,-0.24396,-0.16902,0.04575,0.19391
-0.08534,0.97288,-0.21498,-0.27343,-0.22601,0.10344
-0.08236,0.97839,-0.18964,-0.25091,-0.35748,0.13827
-0.07992,0.98325,-0.1638,-0.08578,-0.4897,0.27824
-0.0734,0.98864,-0.1311,-0.09355,-0.33506,0.15525
-0.07051,0.99307,-0.09393,-0.01812,-0.15372,0.16253
-0.0726,0.99562,-0.05877,0.1476,0.15134,0.22279
-0.07531,0.99677,-0.02779,-0.01605,-0.17964,0.04168
-0.08431,0.99643,-0.00108,-0.0342,-0.25702,-0.00288
-0.09688,0.99505,0.0216,0.05893,-0.13643,-0.03514
-0.10695,0.99336,0.0423,0.21051,-0.05189,-0.01392
-0.11787,0.99122,0.05983,0.27502,0.04341,-0.07672
-0.13216,0.98863,0.07162,0.26103,0.06284,-0.10963
-0.14745,0.98585,0.07962,0.19872,-0.01704,0.04389
-0.16316,0.98247,0.09004,0.20228,0.05795,0.08246
-0.17716,0.97918,0.09904,0.23505,0.15276,0.01408
-0.1879,0.97649,0.10553,0.28703,0.27648,0.01434
-0.19478,0.97438,0.11235,0.29703,0.23431,-0.07802
-0.20217,0.97238,0.11655,0.29009,0.2104,-0.1005
-0.20592,0.97125,0.11936,0.46271,0.12491,0.26948
-0.19892,0.97266,0.11977,0.27564,0.10864,0.18965
-0.18033,0.977,0.1137,-0.1544,0.0558,0.33626
-0.14708,0.98374,0.10297,-0.27917,0.34013,0.33413
-0.10848,0.99156,0.07085,-0.62945,0.67412,0.21023
-0.07082,0.99724,0.02178,-0.57593,0.60136,0.09543
-0.03569,0.99928,-0.01239,-0.36947,0.56977,0.00836
-0.00329,0.99929,-0.03734,-0.3299,0.60931,0.05526
0.03016,0.99719,-0.06842,-0.23414,0.47388,0.0715
0.06189,0.9933,-0.09756,-0.11403,0.23812,0.04892
0.08976,0.98773,-0.12777,0.01006,-0.08424,0.02347
0.11786,0.97992,-0.16078,0.0661,-0.18915,0.05533
0.14528,0.97011,-0.19436,-0.01329,-0.16608,0.17345
0.16495,0.95968,-0.22758,-0.10684,-0.11598,0.23141
0.17903,0.94871,-0.26056,-0.21619,-0.23134,0.33934
0.18992,0.93706,-0.29297,-0.2671,-0.57447,0.37343
0.19286,0.92567,-0.32548,-0.1747,-0.70025,0.32717
0.18552,0.91722,-0.35252,-0.11362,-0.67984,0.30589
0.17136,0.91305,-0.3701,-0.12653,-0.47271,0.28317
0.15228,0.91211,-0.38061,-0.08523,-0.30194,0.21729
0.13117,0.91317,-0.38588,-0.00542,-0.30445,0.19182
0.11314,0.91543,-0.38625,0.06518,-0.26093,-0.01608
0.09549,0.91826,-0.38428,0.03524,-0.21067,-0.02741
0.07763,0.92003,-0.38406,0.00865,-0.13927,0.01471
0.06559,0.92055,-0.38507,0.07097,0.61169,-0.09291
0.06187,0.92013,-0.38668,0.05964,0.77022,-0.20674
0.06305,0.91873,-0.38982,0.08545,0.58349,-0.24145
0.06588,0.91918,-0.38828,-0.06268,0.03859,-0.26477
0.06236,0.92221,-0.38162,-0.06974,-0.19415,-0.28231
0.05451,0.92635,-0.3727,0.18153,0.86827,0.31893
0.04611,0.92597,-0.37476,-0.28151,1.56135,0.60195
0.03114,0.92843,-0.37019,-0.76832,0.21149,0.25348
0.02284,0.9323,-0.36094,-0.37465,-0.26697,0.27435
0.02584,0.93096,-0.36419,-0.15724,-0.61367,0.42987
0.03137,0.93179,-0.36164,-0.06455,-0.11449,0.45693
0.03393,0.93571,-0.35113,0.152,0.25812,0.57349
0.02163,0.94408,-0.32899,0.27791,0.21776,0.42584
-0.00217,0.95243,-0.30473,0.07284,0.16073,0.33568
-0.01884,0.95869,-0.28383,-0.03702,0.07579,0.17992
-0.02128,0.96431,-0.2639,-0.03559,-0.04002,0.09107
-0.01853,0.96974,-0.2434,-0.09772,-0.17099,0.15271
-0.01969,0.97551,-0.21904,-0.1037,-0.35768,0.21526
-0.0266,0.98126,-0.19082,-0.04882,-0.20901,0.25617
-0.03513,0.98652,-0.15978,-0.14456,-0.03324,0.24683
-0.04387,0.99075,-0.1284,-0.15547,-0.02454,0.23501
-0.05179,0.99363,-0.10006,-0.04663,0.01155,0.15823
-0.06089,0.99528,-0.07547,0.08313,-0.23939,0.13688
-0.07158,0.9958,-0.05694,0.0844,-0.2854,0.11952
-0.08022,0.99581,-0.04376,0.06334,-0.23337,0.01783
-0.08888,0.9957,-0.0257,0.09198,-0.19658,0.02922
-0.1013,0.99484,-0.00413,0.20907,-0.07017,-0.00382
-0.11435,0.99334,0.01352,0.28668,0.01063,-0.03648
-0.12783,0.99133,0.03002,0.26994,-0.00833,-0.04142
-0.14228,0.98879,0.04511,0.25634,-0.10422,0.06341
-0.15663,0.98595,0.05785,0.23719,-0.10853,0.12591
-0.17225,0.98259,0.06955,0.25791,-0.06753,0.07858
-0.18569,0.97936,0.07974,0.28712,-0.03849,0.03535
-0.19296,0.97758,0.08417,0.455,0.01645,-0.03688
-0.1946,0.97749,0.08145,0.52136,-0.1479,0.24597
-0.19136,0.97861,0.07542,0.4215,-0.06755,0.19779
-0.17524,0.98244,0.06393,-0.26809,0.18469,0.29383
-0.13871,0.98864,0.0577,-0.80129,0.82116,0.47477
-0.09914,0.99441,0.036,-0.81477,0.92104,0.35595
-0.05935,0.99822,0.00318,-0.40189,0.95752,0.20861
-0.01674,0.9996,-0.02251,-0.30959,0.73409,-0.06152
0.02207,0.99839,-0.05221,-0.44542,0.74452,-0.07616
0.05411,0.99555,-0.07702,0.03761,0.38634,-0.00672
0.08225,0.99167,-0.09908,0.0794,0.1639,-0.06904
0.10868,0.98586,-0.12753,0.03388,-0.02571,-0.06483
0.13375,0.97954,-0.15036,0.01677,-0.21481,0.32811
0.15887,0.97126,-0.1772,-0.02002,-0.23064,0.33661
0.17633,0.96194,-0.20874,-0.06832,-0.36321,0.33112
0.18566,0.95287,-0.23991,-0.14086,-0.53765,0.3433
0.19211,0.94399,-0.26826,-0.1866,-0.60381,0.33035
0.19582,0.93571,-0.29342,-0.21447,-0.79495,0.33986
0.19087,0.92942,-0.3158,-0.16994,-0.71952,0.31276
0.17577,0.92657,-0.3325,-0.21933,-0.45299,0.26985
0.15252,0.92815,-0.33951,-0.20249,-0.38123,0.23552
0.12336,0.93353,-0.33659,-0.05949,-0.35766,0.09181
0.09378,0.94106,-0.32495,0.04102,-0.35899,0.03399
0.06928,0.94784,-0.3111,0.21068,-0.11368,-0.16542
0.0533,0.95111,-0.30419,0.1473,0.34921,-0.05512
0.0524,0.94911,-0.31053,0.03448,1.46788,-0.16178
0.06722,0.94369,-0.32391,-0.01567,1.81762,-0.25024
0.07677,0.93727,-0.34004,-0.02434,0.38425,-0.70134
0.07616,0.93269,-0.35253,-0.14821,-0.0077,-0.96093
0.07678,0.9337,-0.3497,0.37274,1.07174,0.73588
0.07526,0.92953,-0.36097,-0.48974,0.7577,0.39593
0.08221,0.92917,-0.36038,-0.45707,-0.26612,0.32023
0.09756,0.93686,-0.3358,-0.29991,-0.73494,0.45256
0.09637,0.94369,-0.31647,-0.13163,-0.48345,0.46503
0.07895,0.94646,-0.31301,-0.2235,-0.17699,0.58849
0.04349,0.95162,-0.30417,-0.2877,0.17671,0.61007
-0.0047,0.9595,-0.28166,-0.21991,0.60544,0.48858
-0.02913,0.96625,-0.25592,-0.14075,0.37431,0.12948
-0.02645,0.97284,-0.22996,-0.05506,-0.20353,0.07447
-0.01612,0.97918,-0.20231,-0.06998,-0.35627,0.23394
-0.01317,0.98446,-0.17506,-0.19588,-0.51303,0.32872
-0.01791,0.98909,-0.14616,-0.13884,-0.40967,0.26249
-0.02224,0.9933,-0.11334,0.0162,-0.11972,0.14244
-0.02507,0.99658,-0.07866,0.10994,0.03783,0.18612
-0.02591,0.99845,-0.04907,0.09383,-0.00366,0.17468
-0.02697,0.99929,-0.02603,0.01702,-0.19141,0.08705
-0.03336,0.99943,-0.00468,-0.00286,-0.27826,-0.02576
-0.0467,0.99875,0.01764,0.02022,-0.19829,-0.0701
-0.06147,0.9973,0.03996,0.19184,-0.06005,-0.04845
-0.07461,0.99528,0.06195,0.31889,-0.08291,-0.04185
-0.09044,0.99277,0.07878,0.35085,-0.01937,-0.09185
-0.10494,0.99036,0.09035,0.15012,-0.12676,-0.00104
-0.11698,0.98794,0.10137,0.05082,-0.03619,0.13215
-0.13199,0.98443,0.11606,0.09229,0.09608,0.00468
-0.14443,0.98116,0.12825,0.19019,0.10958,0.01343
-0.15298,0.97873,0.13666,0.22528,0.20113,-0.04091
-0.15961,0.97678,0.14289,0.20679,0.19757,-0.09466
-0.16176,0.97557,0.14861,0.48818,0.19054,0.28888
-0.15622,0.97604,0.15144,0.31641,0.24624,0.24521
-0.14068,0.97908,0.14698,-0.20391,0.26177,0.41396
-0.11401,0.98552,0.12546,-0.32526,0.45372,0.26826
-0.087,0.9931,0.07858,-0.58124,0.30251,0.14979
-0.05759,0.99799,0.02634,-0.54257,0.36262,0.16998
-0.02599,0.99957,-0.01302,-0.24995,0.53171,-0.00964
0.00305,0.99902,-0.04403,-0.23108,0.47663,0.0276
0.03128,0.99683,-0.07312,-0.19231,0.42188,0.11125
0.05782,0.99299,-0.103,0.03055,0.2249,0.06646
0.08181,0.98751,-0.13459,0.05729,0.12923,0.09359
0.10545,0.97996,-0.16897,0.08713,-0.10171,0.07892
0.1291,0.97084,-0.20197,0.02499,-0.25671,0.1534
0.14683,0.96167,-0.23156,-0.00859,-0.25543,0.21052
0.15883,0.95242,-0.26009,-0.06148,-0.23216,0.30436
0.16746,0.94263,-0.28879,-0.15243,-0.41788,0.37913
0.17111,0.93299,-0.31661,-0.17656,-0.5172,0.39677
0.16863,0.9251,-0.34021,-0.23437,-0.60223,0.34305
0.16063,0.91959,-0.35853,-0.20325,-0.47077,0.3639
0.14553,0.91717,-0.37096,-0.18146,-0.42579,0.3586
0.12604,0.91837,-0.37511,-0.06425,-0.38129,0.22315
0.10631,0.92281,-0.37027,0.0548,-0.34077,0.09702
0.08921,0.92959,-0.35762,0.11144,-0.30361,0.04683
0.07497,0.93582,-0.3444,0.03698,-0.03888,-0.08603
0.06405,0.93889,-0.33819,0.11902,0.66678,-0.0896
0.05822,0.93918,-0.33844,0.16759,1.04022,-0.16101
0.0603,0.9366,-0.34516,0.14298,1.26637,-0.21667
0.06605,0.93279,-0.35429,0.1382,0.46684,-0.37888
0.06797,0.93052,-0.35987,-0.06031,-0.21346,-0.26838
0.06915,0.93362,-0.35151,0.36792,0.60414,0.47493
0.06955,0.93193,-0.35588,-0.04394,1.24699,0.81668
0.06406,0.9324,-0.3557,-0.88502,-0.20409,0.21744
0.06437,0.94226,-0.32862,-0.52076,-0.48911,0.34952
0.06332,0.94639,-0.31675,-0.22247,-0.67713,0.44114
0.05579,0.94642,-0.31807,-0.26572,-0.09901,0.47644
0.04324,0.94829,-0.31442,-0.05281,0.23631,0.69984
0.01748,0.95648,-0.29125,0.16843,0.21464,0.53279
-0.0139,0.96521,-0.26107,0.00734,0.28671,0.41196
-0.03286,0.97024,-0.2399,-0.2357,0.00822,0.18143
-0.03413,0.97376,-0.22498,-0.1803,-0.16854,0.1308
-0.02879,0.97855,-0.20395,-0.19178,-0.39152,0.24598
-0.02449,0.98367,-0.17825,-0.14542,-0.40795,0.25572
-0.02213,0.98891,-0.14683,0.01835,-0.26372,0.17874
-0.02796,0.99291,-0.1155,-0.09026,-0.01064,0.20612
-0.03242,0.99557,-0.08814,-0.0218,0.01082,0.20512
-0.0372,0.99711,-0.06606,-0.04201,-0.09752,0.15814
-0.04258,0.99809,-0.04457,-0.02161,-0.24066,0.06265
-0.04905,0.99851,-0.02363,-0.00338,-0.22065,-0.00659
-0.0555,0.99844,-0.00404,0.2067,-0.08211,-0.02013
-0.06353,0.99788,0.01372,0.24296,-0.13521,0.06947
-0.07622,0.99663,0.0301,0.31183,-0.06941,-0.03665
-0.09005,0.9949,0.04532,0.15549,0.0378,0.02658
-0.10353,0.99288,0.05879,0.10478,0.05061,0.06009
-0.12128,0.98984,0.07408,0.15913,0.17601,0.0593
-0.1396,0.98618,0.08915,0.23602,0.17106,0.05026
-0.1529,0.9831,0.10065,0.25745,0.19781,0.04119
-0.16273,0.98057,0.10951,0.2335,0.22257,-0.01765
-0.16938,0.97869,0.11603,0.71898,0.27767,0.0861
-0.16946,0.97808,0.1209,0.72742,0.2775,0.17289
-0.16303,0.97901,0.12223,0.29141,0.1152,0.25823
-0.1466,0.98225,0.11691,-0.37678,0.1783,0.34143
-0.12321,0.9882,0.09094,-0.58386,0.3325,0.11288
-0.09452,0.99453,0.04437,-0.64219,0.35032,0.05956
-0.06045,0.99816,-6e-05,-0.29347,0.46427,0.21072
-0.02802,0.99916,-0.02975,-0.16073,0.50869,0.02855
0.0034,0.9981,-0.06134,-0.20285,0.48099,-0.00891
0.03517,0.99531,-0.09002,-0.20912,0.45096,0.13206
0.06452,0.99119,-0.11559,-0.12322,0.25292,0.09686
0.08976,0.98563,-0.14306,-0.05402,0.007,0.07281
0.11366,0.97808,-0.17446,-0.00792,-0.12857,0.10777
0.13646,0.96868,-0.20742,0.01942,-0.21835,0.16212
0.15427,0.95909,-0.23735,0.01567,-0.24309,0.25155
0.16587,0.94922,-0.26732,-0.06335,-0.27005,0.31839
0.17214,0.93878,-0.29841,-0.15943,-0.4158,0.3922
0.17212,0.92893,-0.3278,-0.21285,-0.56959,0.39984
0.16525,0.92056,-0.3539,-0.20533,-0.58937,0.3891
0.15001,0.91522,-0.37399,-0.19037,-0.53526,0.37396
0.129,0.91423,-0.3841,-0.16752,-0.52324,0.29598
0.10622,0.9175,-0.38329,-0.11617,-0.50133,0.19391
0.08739,0.92422,-0.37171,0.08932,-0.27806,0.00546
0.07367,0.93152,-0.35615,0.13585,-0.19459,-0.06066
0.06158,0.93638,-0.34552,0.07247,0.00614,-0.11407
0.05034,0.93716,-0.34524,0.08981,0.44079,-0.01888
0.04691,0.93583,-0.34931,0.12811,1.22985,-0.11733
0.05214,0.93183,-0.35911,0.03021,1.062,-0.21596
0.05755,0.92652,-0.37181,0.10787,0.12763,-0.49303
0.054,0.92377,-0.37911,0.20035,-0.29888,-0.55771
0.05355,0.92887,-0.3665,-0.01218,-0.49786,-0.40398
0.0581,0.9307,-0.36112,0.08865,1.27189,0.71126
0.05895,0.92611,-0.37259,-0.44288,1.3459,0.67434
0.05178,0.93483,-0.35129,-1.03809,0.21654,0.30165
0.04762,0.94037,-0.33679,-0.04449,-0.73206,0.3662
0.04204,0.94035,-0.3376,-0.05936,-0.56901,0.47253
0.03642,0.94038,-0.33815,-0.22775,-0.04107,0.52828
0.02839,0.94574,-0.32367,0.16433,0.21747,0.55506
0.00592,0.95526,-0.29569,0.15335,0.29581,0.43151
-0.02075,0.96206,-0.27201,-0.18324,0.00624,0.21146
-0.0312,0.96781,-0.24971,-0.04435,-0.04643,0.23281
-0.0286,0.97357,-0.22656,-0.01436,-0.11703,0.26937
-0.02851,0.9781,-0.20615,-0.13293,-0.41767,0.20239
-0.03327,0.98327,-0.17904,-0.10313,-0.40361,0.22417
-0.03379,0.98904,-0.14367,-0.15591,-0.28218,0.16718
-0.03564,0.99356,-0.10747,-0.12136,-0.06671,0.30841
-0.03889,0.99614,-0.07855,0.06875,0.00784,0.24317
-0.04126,0.99758,-0.05583,0.14592,-0.03235,0.14615
-0.04771,0.99834,-0.03215,0.08365,-0.20573,0.00963
-0.05715,0.99831,-0.00942,0.0965,-0.11931,-0.00816
-0.06833,0.99759,0.01092,0.08196,-0.10511,-0.05897
-0.08094,0.99624,0.03064,0.25054,0.00327,-0.0577
-0.09569,0.99431,0.04655,0.29053,0.02189,-0.08813
-0.11035,0.99214,0.05881,0.23303,-0.0347,-0.06734
-0.12466,0.98968,0.0705,0.02377,-0.07794,0.09269
-0.14081,0.98656,0.08279,0.13655,0.06663,0.03709
-0.15582,0.98355,0.09124,0.29931,0.0703,0.0411
-0.16667,0.98113,0.09791,0.40987,0.10626,-0.00451
-0.17397,0.97917,0.10455,0.33007,0.10313,-0.02388
-0.17765,0.97796,0.10963,0.5165,0.16187,0.22769
-0.17393,0.97785,0.11633,0.01813,0.23943,0.24245
-0.15624,0.98018,0.12174,-0.08627,0.36693,0.52438
-0.12749,0.98526,0.114,-0.16861,0.31771,0.34875
-0.09841,0.99191,0.08009,-0.47949,0.38445,0.33621
-0.06918,0.99709,0.0318,-0.63284,0.55722,0.10487
-0.03638,0.99928,-0.00988,-0.65034,0.61685,0.05934
-0.00569,0.99914,-0.04088,-0.51575,0.56856,0.04935
0.02473,0.99726,-0.06964,-0.25722,0.39622,0.09192
0.0528,0.99377,-0.09802,-0.03768,0.18703,0.0945
0.08054,0.9885,-0.12796,0.13917,-0.01205,0.08443
0.11007,0.98094,-0.16006,0.23299,-0.17777,0.04965
0.13853,0.97184,-0.19061,0.20824,-0.17475,0.13722
0.15719,0.96286,-0.2195,0.08168,-0.17787,0.20814
0.1657,0.95393,-0.25009,-0.01549,-0.20141,0.30185
0.16969,0.94473,-0.28049,-0.17712,-0.3495,0.34254
0.1691,0.93592,-0.30896,-0.26221,-0.50601,0.39733
0.16298,0.92789,-0.33532,-0.30341,-0.5236,0.3614
0.15411,0.92139,-0.35676,-0.22815,-0.39214,0.35436
0.14295,0.91754,-0.37105,-0.18032,-0.31819,0.30431
0.12776,0.91707,-0.3777,-0.11172,-0.40382,0.26049
0.10799,0.92005,-0.3766,-0.00627,-0.4358,0.19136
0.08885,0.92661,-0.36535,0.05901,-0.3384,0.06364
0.07154,0.93379,-0.35059,0.14053,-0.15711,-0.05177
0.05613,0.93781,-0.34256,0.08365,0.0726,-0.15315
0.04581,0.93844,-0.34237,0.14566,0.86371,-0.09612
0.04495,0.9371,-0.34613,0.12761,1.13722,-0.10582
0.05347,0.93397,-0.35331,0.07324,0.95652,-0.19951
0.05843,0.92899,-0.36545,0.0097,-0.09867,-0.61264
0.05878,0.92781,-0.36838,0.01228,0.08138,-0.08189
0.06169,0.92955,-0.36349,0.11133,1.02544,0.69414
0.05835,0.92538,-0.3745,-0.58021,0.81394,0.41115
0.05979,0.92835,-0.36686,-0.47153,-0.27295,0.37437
0.06431,0.93456,-0.34994,-0.18603,-0.75821,0.43764
0.06026,0.93866,-0.33953,-0.21435,-0.02986,0.5423
0.04871,0.94047,-0.33637,-0.1283,0.21141,0.62224
0.02297,0.94701,-0.32036,0.00535,0.2875,0.65942
-0.01218,0.95647,-0.29156,0.01931,0.31654,0.43072
-0.03555,0.9634,-0.26569,-0.13226,0.10859,0.2166
-0.03759,0.96881,-0.24491,-0.13208,-0.07063,0.12968
-0.03035,0.97409,-0.22409,-0.12256,-0.3754,0.23012
-0.02701,0.97877,-0.20314,-0.17726,-0.48344,0.30087
-0.02707,0.98411,-0.17547,-0.12202,-0.44134,0.2221
-0.03454,0.98949,-0.14038,-0.02764,-0.1397,0.09959
-0.04368,0.99336,-0.10633,0.0709,0.02876,0.17452
-0.04671,0.99589,-0.07744,0.1327,0.04019,0.18522
-0.04854,0.99727,-0.0555,0.07238,-0.22362,0.06567
-0.05401,0.9979,-0.03542,0.09312,-0.19856,0.01656
-0.06187,0.99797,-0.01473,0.13241,-0.17868,0.00875
-0.07161,0.99742,0.00291,0.16551,-0.15947,-0.02006
-0.08346,0.9963,0.01988,0.23658,-0.07411,-0.01442
-0.09833,0.99451,0.03564,0.18262,-0.03891,-0.03256
-0.11251,0.99257,0.04611,-0.02027,0.04262,0.04619
-0.12982,0.98992,0.05647,0.01213,0.27745,0.08572
-0.14959,0.98638,0.06822,0.1864,0.19057,0.10899
-0.1663,0.98319,0.07533,0.42896,0.21851,0.03691
-0.17422,0.98121,0.08274,0.48533,0.16596,-0.06161
-0.17734,0.98001,0.0901,0.44484,0.19841,-0.09351
-0.1775,0.9795,0.09517,0.51714,0.15911,0.28665
-0.1717,0.98053,0.09521,0.11393,0.18588,0.18291
-0.15252,0.98474,0.08371,-0.18063,0.04651,0.4192
-0.11998,0.99095,0.06013,-0.13491,0.31126,0.33034
-0.08562,0.99619,0.01592,-0.41993,0.55369,0.25753
-0.0526,0.99818,-0.02939,-0.52413,0.64892,0.11134
-0.022,0.99805,-0.05833,-0.50269,0.66629,0.06203
0.00832,0.99626,-0.08593,-0.51604,0.5183,0.14572
0.04107,0.99246,-0.1154,-0.43897,0.42337,0.09312
0.06963,0.98775,-0.13959,-0.13973,0.16044,0.07222
0.09453,0.98154,-0.16625,0.10962,-0.13675,0.10221
0.12006,0.97282,-0.19798,0.19122,-0.24919,0.16383
0.14312,0.96296,-0.22849,0.18892,-0.30615,0.19446
0.16023,0.95311,-0.25671,0.06186,-0.26785,0.3038
0.17047,0.94319,-0.28518,-0.01437,-0.26548,0.33885
0.17489,0.93312,-0.31415,-0.15146,-0.3649,0.38152
0.17242,0.92388,-0.34162,-0.26108,-0.50892,0.35357
0.16263,0.91713,-0.36387,-0.28626,-0.58404,0.38786
0.14465,0.91394,-0.37918,-0.22601,-0.58261,0.38095
0.12076,0.91547,-0.38382,-0.14416,-0.5461,0.21904
0.09596,0.92189,-0.37537,-0.07648,-0.41731,0.07082
0.07591,0.9305,-0.35833,0.11384,-0.21155,-0.00662
0.06197,0.93705,-0.34365,0.14321,-0.10971,-0.03413
0.05326,0.93936,-0.33876,0.11944,0.54447,0.04295
0.05278,0.93929,-0.33902,0.03526,1.45159,-0.18132
0.06177,0.93525,-0.34855,-0.01984,1.55696,-0.17203
0.06971,0.92762,-0.36696,0.15841,0.11866,-0.56897
0.07834,0.92435,-0.37341,0.01059,-0.70769,-0.38931
0.09208,0.9258,-0.36662,0.2672,0.68344,0.5757
0.09837,0.91904,-0.38167,0.1444,1.24622,0.38298
0.09645,0.92394,-0.37018,-0.74725,0.21228,0.36676
0.09817,0.93404,-0.3434,-0.26013,-0.54172,0.32857
0.09272,0.93832,-0.33309,-0.12085,-0.53538,0.38871
0.0783,0.93914,-0.33448,-0.33334,0.07489,0.40959
0.06158,0.94275,-0.32775,-0.03508,-0.00598,0.63062
0.03671,0.95183,-0.3044,0.14412,-0.07101,0.55373
0.00769,0.96066,-0.2776,-0.10299,0.2769,0.36975
-0.00977,0.96853,-0.24867,-0.2879,0.15654,0.19632
-0.01299,0.97449,-0.22404,-0.22757,-0.02492,0.20586
-0.01214,0.97944,-0.20134,-0.0756,-0.41659,0.23935
-0.01302,0.98445,-0.17514,-0.01894,-0.45837,0.24462
-0.01269,0.98979,-0.14194,-0.01749,-0.37914,0.20941
-0.01771,0.99379,-0.10977,-0.17324,-0.09154,0.20277
-0.02757,0.99591,-0.08595,-0.0894,-0.09648,0.1691
-0.03433,0.99752,-0.06136,-0.02637,-0.14925,0.1498
-0.04247,0.99847,-0.03511,0.05113,-0.22104,0.04435
-0.05735,0.99827,-0.01252,0.06072,-0.08221,-0.06359
-0.0733,0.99726,0.00857,0.12904,-0.05114,0.02229
-0.08694,0.99588,0.02528,0.27258,0.02032,-0.03991
-0.101,0.99424,0.03563,0.18651,-0.05767,-0.09729
-0.11323,0.99275,0.03998,0.1353,-0.12264,-0.01103
-0.12802,0.99075,0.04487,0.28971,0.09072,0.00942
-0.1392,0.98899,0.05014,0.33936,0.09987,0.13835
-0.1445,0.98803,0.0538,0.37048,0.09357,0.0964
-0.1414,0.98816,0.05947,0.02892,-0.00253,-0.08181
-0.12185,0.99025,0.0674,0.16079,-0.01951,0.21783
-0.10256,0.99195,0.07415,0.4214,0.27584,0.12582
-0.08444,0.99373,0.07315,0.02775,0.2402,0.44692
-0.05919,0.99623,0.06325,-0.23757,0.39305,0.36523
-0.03157,0.99883,0.0363,-0.51317,0.45167,0.38085
-0.00421,0.99996,-0.00593,-0.76053,0.58196,0.15727
0.02507,0.99887,-0.04015,-0.69449,0.79295,-0.01594
0.05544,0.99647,-0.06291,-0.51281,0.72699,0.07366
0.08726,0.99194,-0.09178,-0.28913,0.41719,0.07611
0.11483,0.98653,-0.11641,-0.23003,0.23203,-0.02733
0.14075,0.98029,-0.13861,0.10517,-0.11469,0.07282
0.16767,0.97188,-0.16526,0.12044,-0.23922,0.14132
0.19098,0.96249,-0.1927,0.07627,-0.22967,0.19457
0.20752,0.95311,-0.22025,-0.0663,-0.24993,0.26136
0.21809,0.94346,-0.24963,-0.22198,-0.4229,0.25973
0.22521,0.9338,-0.27801,-0.26328,-0.50532,0.25564
0.22516,0.92505,-0.30589,-0.26529,-0.56582,0.25898
0.2163,0.91825,-0.33168,-0.16283,-0.45698,0.23097
0.20088,0.91417,-0.35204,-0.13236,-0.33107,0.23755
0.18228,0.91268,-0.36576,-0.11816,-0.29633,0.24396
0.16187,0.91336,-0.37357,-0.09265,-0.26625,0.12774
0.14174,0.91682,-0.37328,-0.04586,-0.25018,0.07199
0.12394,0.92132,-0.3685,0.04438,-0.19606,-0.03361
0.10697,0.92522,-0.36403,0.16189,0.02411,-0.05251
0.09415,0.92666,-0.36391,0.08675,0.34527,-0.05298
0.09317,0.92437,-0.36993,0.07416,0.72576,-0.14594
0.1017,0.91898,-0.38094,0.0706,1.08683,-0.45486
0.10773,0.91359,-0.39209,0.0406,0.11195,-0.38025
0.11007,0.91176,-0.39569,-0.02773,-0.41086,-0.45352
0.10337,0.912,-0.39694,0.35381,0.91744,0.46241
0.09027,0.91236,-0.3993,0.03023,1.14996,0.50704
0.07938,0.91892,-0.38636,-0.61724,0.63194,0.43703
0.06863,0.92415,-0.37579,-0.16148,-0.46479,0.44651
0.05814,0.92844,-0.36688,-0.22867,-0.33457,0.56749
0.0488,0.93316,-0.35612,-0.32071,0.06612,0.52317
0.03421,0.94066,-0.33761,-0.00985,0.00815,0.49438
0.0112,0.94934,-0.31405,-0.02506,0.06896,0.43712
-0.01254,0.95647,-0.29156,-0.01321,0.08153,0.35348
-0.02787,0.96254,-0.26967,-0.11678,-0.00663,0.20222
-0.0294,0.96808,-0.24889,-0.13824,-0.11907,0.20769
-0.02469,0.97297,-0.22957,-0.18541,-0.18522,0.21071
-0.02044,0.97816,-0.20681,-0.20499,-0.46313,0.24764
-0.02009,0.98341,-0.18021,-0.10552,-0.19864,0.19425
-0.02777,0.98772,-0.1537,-0.03757,-0.07799,0.17572
-0.03638,0.9912,-0.12719,0.11972,0.0136,0.19781
-0.0401,0.99401,-0.10159,0.18665,-0.17121,0.12328
-0.04475,0.99578,-0.07999,0.05522,-0.30436,0.01757
-0.05122,0.99684,-0.06055,0.11806,-0.19926,-0.02019
-0.05914,0.99737,-0.04175,0.1931,-0.08131,0.00053
-0.06772,0.9974,-0.02406,0.18708,-0.118,0.00531
-0.07693,0.99699,-0.00845,0.12585,-0.07116,-0.05738
-0.08525,0.99635,0.00338,0.1078,0.15202,0.05195
-0.09329,0.99552,0.01463,0.09259,0.19407,0.09762
-0.10572,0.99402,0.02716,0.15609,0.25054,0.0824
-0.12255,0.99169,0.039,0.31624,0.20236,0.08389
-0.1328,0.98986,0.0503,0.39674,0.16609,0.04128
-0.13481,0.98901,0.0606,0.21431,0.14495,0.04958
-0.12934,0.98931,0.06722,0.59994,0.33155,0.30445
-0.11817,0.99027,0.07342,0.2096,0.33635,0.31347
-0.09861,0.99283,0.06747,-0.13013,0.15057,0.22202
-0.07137,0.9963,0.04772,-0.14608,0.17698,0.19568
-0.04218,0.99907,0.00734,-0.3801,0.1847,0.30607
-0.01047,0.99916,-0.0394,-0.36518,0.64529,0.09323
0.02051,0.9972,-0.07175,-0.34292,0.65024,0.03995
0.05107,0.99397,-0.09699,-0.2759,0.56051,0.13381
0.08115,0.98846,-0.12785,-0.17993,0.36904,0.08578
0.10579,0.98189,-0.15709,-0.12974,0.27557,0.08399
0.12782,0.97419,-0.18603,0.03926,0.00253,0.0783
0.15162,0.964,-0.21839,0.08567,-0.25947,0.17964
0.16975,0.95315,-0.25038,0.01835,-0.25481,0.22938
0.18139,0.94262,-0.28026,-0.04902,-0.26371,0.28272
0.18855,0.93212,-0.30918,-0.17947,-0.35406,0.37578
0.19063,0.92108,-0.33949,-0.25868,-0.46997,0.42207
0.1881,0.91087,-0.3673,-0.29417,-0.54784,0.41134
0.18036,0.9025,-0.3911,-0.26919,-0.53914,0.38564
0.16751,0.89833,-0.40611,-0.2085,-0.48743,0.35661
0.15133,0.89856,-0.41193,-0.14663,-0.38243,0.27007
0.1362,0.90226,-0.4091,-0.0674,-0.28221,0.12576
