gravity.x,gravity.y,gravity.z,userAcceleration.x,userAcceleration.y,userAcceleration.z
-0.33692,0.92327,0.1845,-0.09965,-0.08848,-0.35563
-0.34169,0.92307,0.17655,-0.13948,0.11002,-0.18297
-0.34217,0.9252,0.16405,-0.04623,0.12755,-0.12144
-0.34572,0.92633,0.14959,0.19469,0.06825,-0.20695
-0.34815,0.92792,0.1332,0.4113,0.04223,-0.09914
-0.34754,0.9297,0.12192,0.41918,-0.02037,-0.02763
-0.35262,0.92886,0.11345,0.39838,-0.16329,0.01311
-0.36543,0.92489,0.10502,0.20263,-0.31101,-0.09296
-0.38102,0.9189,0.10219,0.11071,-0.26956,-0.14521
-0.39436,0.91326,0.10211,-0.16367,-0.26577,-0.23013
-0.40274,0.90946,0.10333,-0.19436,-0.23937,-0.23191
-0.40471,0.90813,0.10726,-0.25479,-0.17745,-0.11962
-0.40026,0.90908,0.11555,-0.15472,-0.37993,0.13435
-0.39155,0.91235,0.11955,-0.00098,-0.46837,0.15244
-0.38038,0.91799,0.11228,0.04793,-0.38381,0.12106
-0.36741,0.92457,0.10086,0.04212,-0.02264,-0.00442
-0.35482,0.93019,0.09399,-0.03931,0.06128,0.016
-0.34636,0.93367,0.09099,-0.09553,0.06558,0.0613
-0.34314,0.9351,0.08855,-0.16431,0.07386,0.186
-0.34331,0.93544,0.08422,-0.1637,0.04325,0.2201
-0.3442,0.93569,0.07748,-0.15029,0.04475,0.17347
-0.34504,0.93595,0.07027,-0.29932,0.32922,0.22479
-0.34831,0.93571,0.05583,-0.36269,0.36373,0.09207
-0.35709,0.93344,0.03426,-0.35401,0.41665,0.00594
-0.37215,0.92809,0.01263,-0.24901,0.52263,-0.28804
-0.39047,0.92058,-0.00816,0.00209,0.35063,-0.41205
-0.41123,0.91114,-0.02665,0.15953,0.25878,-0.44332
-0.43148,0.9013,-0.03847,0.31108,0.02521,-0.50337
-0.4464,0.89381,-0.04266,0.24227,0.05469,-0.43208
-0.45297,0.8908,-0.03596,0.30877,0.18719,-0.2325
-0.45816,0.88865,-0.01977,0.32215,0.31281,0.00717
-0.4626,0.88656,0.00149,0.13919,0.385,0.12841
-0.46482,0.885,0.02658,-0.01452,0.33869,0.08381
-0.46461,0.88408,0.05044,-0.03861,0.16239,-0.08477
-0.46115,0.88476,0.0673,-0.11153,-0.09295,-0.17077
-0.45698,0.88629,0.07521,-0.10804,-0.17514,-0.1667
-0.45436,0.88761,0.07545,-0.03014,-0.31568,-0.13338
-0.4529,0.88838,0.0752,0.10531,-0.38067,-0.07995
-0.45145,0.88872,0.07973,0.21029,-0.42757,0.02152
-0.4464,0.89025,0.09038,0.22197,-0.43745,0.13908
-0.43953,0.89244,0.10178,0.20789,-0.42569,0.19773
-0.43284,0.89484,0.10905,0.15632,-0.40754,0.18312
-0.42715,0.89732,0.11115,0.06185,-0.33572,0.14256
-0.42264,0.8995,0.11073,-0.02653,-0.23486,0.09779
-0.42104,0.90019,0.11123,-0.06775,-0.22125,0.00565
-0.42228,0.89957,0.11154,-0.01623,-0.23554,-0.07083
-0.42338,0.89899,0.11206,0.1005,-0.00679,-0.07007
-0.42232,0.89912,0.115,0.1011,0.11397,-0.00581
-0.41883,0.8997,0.12297,0.02159,0.30292,0.16782
-0.41292,0.90041,0.13695,-0.05778,0.30162,0.12037
-0.40384,0.90262,0.14894,-0.07424,0.30806,0.05044
-0.38974,0.90769,0.15553,-0.07352,0.75511,0.20348
-0.37467,0.91286,0.16213,-0.0232,0.84402,0.21389
-0.36188,0.91601,0.17307,0.02487,0.80294,0.17924
-0.35423,0.91661,0.18531,0.06605,0.49721,-0.05557
-0.34935,0.9163,0.19579,0.12399,0.26955,-0.25654
-0.34629,0.91738,0.19616,0.18873,0.07596,-0.42437
-0.34014,0.9206,0.19181,0.17668,-0.17158,-0.43593
-0.33339,0.92294,0.19243,0.12735,-0.19672,-0.34859
-0.32822,0.92189,0.20583,-0.00117,-0.18306,-0.31819
-0.32689,0.91887,0.22094,-0.31309,0.01666,-0.29684
-0.32719,0.91834,0.22269,-0.32947,0.04023,-0.27626
-0.3278,0.92081,0.21128,-0.26475,0.04127,-0.21637
-0.33164,0.92347,0.1929,0.06988,0.07549,-0.0746
-0.33575,0.92596,0.17277,0.1843,0.08452,-0.03056
-0.33963,0.92811,0.15248,0.36092,-0.06466,0.05103
-0.34574,0.92884,0.13311,0.44364,-0.26671,-0.01139
-0.35618,0.92656,0.12088,0.37977,-0.41815,-0.08295
-0.36862,0.92196,0.11872,0.14379,-0.39378,-0.10362
-0.38033,0.91679,0.12182,-0.03276,-0.32255,-0.13643
-0.38842,0.91299,0.12477,-0.15183,-0.27044,-0.15758
-0.39189,0.9113,0.12626,-0.18452,-0.1837,-0.12288
-0.39154,0.91121,0.12801,-0.12227,-0.18889,-0.02274
-0.38704,0.91261,0.13162,0.05906,-0.32187,0.0834
-0.37872,0.91623,0.1307,0.20713,-0.32019,0.10845
-0.36785,0.92157,0.12407,0.15464,-0.09872,0.09847
-0.3549,0.9275,0.11742,0.0364,-0.0221,0.05438
-0.34448,0.93215,0.11141,-0.12044,-0.01011,0.02456
-0.33868,0.93492,0.10592,-0.25199,0.04708,0.07327
-0.33594,0.93639,0.10152,-0.30562,0.18064,0.04687
-0.334,0.93735,0.09901,-0.3451,0.25256,0.05779
-0.33268,0.93817,0.09561,-0.39434,0.36731,0.18172
-0.33791,0.93771,0.08065,-0.49806,0.39615,0.01615
-0.35064,0.9348,0.05654,-0.43246,0.54923,-0.24329
-0.36886,0.9289,0.0327,-0.17097,0.53409,-0.4245
-0.3937,0.91918,0.0099,0.31671,0.15847,-0.50879
-0.42197,0.90658,-0.00701,0.39783,0.05601,-0.46781
-0.4463,0.89479,-0.01243,0.39642,0.01843,-0.40504
-0.46011,0.88784,-0.00564,0.29257,0.12798,-0.2125
-0.46919,0.88304,0.00925,0.32526,0.17055,-0.15274
-0.47775,0.87806,0.02768,0.26978,0.43142,-0.0227
-0.48747,0.87177,0.04883,-0.08812,0.43374,0.06519
-0.49455,0.86622,0.0713,-0.10685,0.34292,0.00412
-0.49704,0.863,0.09035,-0.1329,0.07594,-0.13996
-0.49338,0.86358,0.10387,-0.19514,-0.25351,-0.17741
-0.48775,0.86622,0.10839,-0.18505,-0.35281,-0.17985
-0.48248,0.86967,0.1043,-0.02746,-0.43897,-0.16569
-0.47722,0.87288,0.10168,0.15605,-0.40939,-0.10525
-0.47205,0.87498,0.10753,0.20321,-0.38168,0.07933
-0.46511,0.87695,0.12091,0.18485,-0.39218,0.19146
-0.45651,0.87937,0.13529,0.14767,-0.4162,0.23223
-0.44821,0.88213,0.14469,0.10887,-0.40098,0.21224
-0.44113,0.88525,0.14741,-0.01297,-0.30972,0.07849
-0.43752,0.88756,0.14421,-0.0297,-0.28306,-0.04498
-0.43701,0.88874,0.13837,-0.00171,-0.27275,-0.08905
-0.43565,0.89031,0.13248,0.20614,-0.0504,-0.10267
-0.43121,0.89243,0.1327,0.16491,0.28518,0.00183
-0.42444,0.89443,0.14083,0.07619,0.44291,0.06881
-0.41529,0.89631,0.15539,-0.20253,0.32904,0.16828
-0.40517,0.89887,0.1669,-0.18983,0.23347,-0.07546
-0.39647,0.90301,0.16547,-0.06389,0.28895,-0.06484
-0.38384,0.90781,0.16893,-0.20497,0.38308,0.23933
-0.37079,0.9108,0.18153,-0.12762,0.64107,0.28491
-0.36001,0.91236,0.19487,-0.06098,0.6057,0.21341
-0.35362,0.91269,0.20478,0.05231,0.48096,-0.0479
-0.35097,0.91275,0.20906,0.24522,0.23232,-0.4012
-0.34514,0.91699,0.19999,0.35637,0.14449,-0.51219
-0.33496,0.92322,0.18828,0.24861,0.04019,-0.32699
-0.3263,0.92581,0.19074,0.14159,-0.04087,-0.26763
-0.32497,0.92253,0.20811,0.01699,-0.09989,-0.37781
-0.33012,0.91879,0.2164,-0.22397,-0.08945,-0.40634
-0.33837,0.9176,0.20859,-0.22468,-0.01548,-0.24517
-0.34578,0.91884,0.19016,-0.01202,0.02457,-0.16187
-0.35213,0.92086,0.16735,0.1519,0.06275,-0.11132
-0.35351,0.9239,0.14636,0.39278,-0.03732,0.04077
-0.35239,0.92666,0.13081,0.48265,-0.11388,0.07746
-0.35544,0.9267,0.12194,0.56402,-0.31542,0.01148
-0.36566,0.92321,0.11818,0.36485,-0.39752,-0.06973
-0.37885,0.91788,0.11818,0.0365,-0.27769,-0.09676
-0.39055,0.91285,0.119,-0.14468,-0.25656,-0.14097
-0.40019,0.90863,0.11925,-0.31047,-0.19805,-0.18305
-0.40503,0.90643,0.1197,-0.37574,-0.14233,-0.15046
-0.40255,0.90733,0.12122,-0.27486,-0.29008,-0.04271
-0.39428,0.91126,0.11893,0.02874,-0.43454,0.12083
-0.38196,0.91782,0.10819,0.12143,-0.37905,0.13651
-0.36894,0.92482,0.09262,0.19917,-0.17111,0.12625
-0.35648,0.93076,0.08123,0.02941,0.02726,0.10172
-0.34778,0.93448,0.07612,-0.0291,0.0186,0.11463
-0.34356,0.93632,0.0725,-0.11375,0.0826,0.15747
-0.3415,0.93743,0.06783,-0.2454,0.13862,0.26354
-0.34048,0.9381,0.06358,-0.272,0.13881,0.20667
-0.34035,0.93851,0.05782,-0.44749,0.28735,0.10395
-0.34216,0.93853,0.04557,-0.47939,0.38038,0.07945
-0.34896,0.93689,0.02164,-0.31012,0.48674,-0.28049
-0.36218,0.93209,-0.00459,-0.1203,0.51482,-0.50864
-0.38194,0.92374,-0.02876,0.0092,0.40567,-0.54343
-0.40516,0.91301,-0.04749,0.38337,0.00055,-0.45528
-0.42736,0.90234,-0.05607,0.2599,0.03759,-0.37584
-0.44065,0.89604,-0.05412,0.283,0.17395,-0.22824
-0.45025,0.89163,-0.04753,0.30604,0.44238,-0.0381
-0.45797,0.88819,-0.03721,0.04566,0.53798,0.14251
-0.46301,0.88612,-0.02009,-0.00895,0.46031,0.11688
-0.46649,0.88451,0.00353,-0.0144,0.15621,-0.04549
-0.46495,0.88493,0.02647,-0.08157,-0.09575,-0.16112
-0.4579,0.88796,0.04297,-0.19117,-0.29503,-0.15461
-0.45026,0.89166,0.04681,-0.2215,-0.38716,-0.14168
-0.44436,0.89502,0.0385,0.00823,-0.50351,-0.13961
-0.43915,0.89791,0.03004,0.15819,-0.49636,-0.07561
-0.43605,0.89939,0.0308,0.1817,-0.49839,-0.01802
-0.4319,0.90096,0.04154,0.20401,-0.48989,0.2009
-0.42665,0.90266,0.05617,0.16481,-0.49541,0.28674
-0.42098,0.90441,0.06929,0.13074,-0.46961,0.28437
-0.41349,0.90723,0.07719,-0.00656,-0.29935,0.16975
-0.40578,0.9104,0.08068,-0.03074,-0.17541,0.01356
-0.40109,0.91239,0.08162,-0.00702,-0.11214,-0.07695
-0.39767,0.91351,0.08573,0.11137,0.206,-0.10131
-0.3938,0.91383,0.09917,0.08105,0.49537,0.11637
-0.39002,0.91311,0.11874,-0.05547,0.46811,0.19882
-0.3863,0.9119,0.13856,-0.12562,0.3421,0.07663
-0.38067,0.91293,0.14713,-0.21452,0.4753,0.02714
-0.37108,0.91619,0.15131,-0.18604,0.40255,0.09484
-0.35828,0.91908,0.16406,-0.06987,0.76329,0.24271
-0.34733,0.92124,0.17513,0.06525,0.6401,-0.02858
-0.34217,0.92232,0.17954,0.21882,0.34156,-0.3862
-0.33914,0.92507,0.17092,0.42923,0.08152,-0.68481
-0.33013,0.92996,0.16181,0.31484,0.1348,-0.49298
-0.31952,0.93235,0.16915,-0.03596,0.17804,-0.20847
-0.31684,0.92984,0.1871,-0.21264,-0.03061,-0.25206
-0.32093,0.92727,0.19277,-0.18128,-0.10807,-0.26945
-0.32987,0.92631,0.18201,-0.08098,-0.0295,-0.23337
-0.34022,0.92623,0.16231,0.05059,-0.00223,-0.14786
-0.34904,0.92689,0.13794,0.22384,-0.0536,-0.08539
-0.35362,0.92867,0.11184,0.39726,-0.12104,0.00368
-0.35518,0.93041,0.0904,0.52585,-0.19888,0.044
-0.35892,0.93017,0.07708,0.53309,-0.33415,-0.00707
-0.36945,0.92622,0.07488,0.3849,-0.41745,-0.04984
-0.38268,0.92034,0.08077,0.06958,-0.33582,-0.09603
-0.39321,0.91521,0.08817,-0.10203,-0.31107,-0.16753
-0.40029,0.91162,0.09331,-0.24049,-0.22839,-0.19149
-0.402,0.91065,0.09544,-0.29239,-0.25363,-0.15299
-0.39455,0.91401,0.09436,-0.08886,-0.35232,-0.00507
-0.38175,0.91977,0.09103,-0.05073,-0.28578,0.05704
-0.36636,0.92633,0.08763,0.04718,-0.10663,0.14169
-0.35115,0.93256,0.08376,0.04648,0.00833,0.22277
-0.33887,0.93737,0.08064,-0.05904,0.03448,0.26548
-0.33196,0.94012,0.0773,-0.29181,0.13894,0.22505
-0.32913,0.94138,0.07399,-0.32215,0.12256,0.2222
-0.32859,0.94194,0.06904,-0.41307,0.17172,0.05694
-0.33018,0.94205,0.05929,-0.43194,0.4261,0.12977
-0.33539,0.94116,0.0415,-0.41139,0.49188,0.07585
-0.34755,0.93752,0.01631,-0.10004,0.44024,-0.55769
-0.36725,0.93006,-0.01016,0.2078,0.3955,-0.68037
-0.39169,0.91961,-0.02964,0.35767,0.25778,-0.58211
-0.4142,0.90963,-0.0316,0.34935,0.1478,-0.43372
-0.43025,0.90245,-0.02164,0.1895,0.2443,-0.35077
-0.44356,0.89622,-0.0064,0.16623,0.39757,-0.23528
-0.45733,0.88923,0.01065,0.02526,0.69537,0.15227
-0.4703,0.88194,0.03145,-0.03119,0.61246,0.16867
-0.47879,0.87592,0.05926,0.03454,0.28364,0.03855
-0.48084,0.8723,0.08875,-0.01336,-0.14589,-0.11802
-0.47408,0.8731,0.11374,-0.11899,-0.42612,-0.18875
-0.46473,0.87672,0.12398,-0.16224,-0.56717,-0.21471
-0.45796,0.8813,0.11652,-0.04871,-0.59816,-0.23126
-0.45238,0.88572,0.10409,0.12601,-0.53323,-0.16097
-0.44801,0.88818,0.10207,0.19868,-0.45565,-0.00124
-0.44274,0.88944,0.11346,0.24226,-0.39975,0.1582
-0.43515,0.89072,0.13134,0.218,-0.39918,0.29063
-0.42807,0.89174,0.14678,0.14343,-0.33144,0.30619
-0.42249,0.89286,0.15589,0.0371,-0.25479,0.17199
-0.41848,0.89467,0.15632,-0.07179,-0.23659,-0.02804
-0.41388,0.89802,0.1492,0.06544,-0.13006,-0.19501
-0.40719,0.9021,0.14283,0.13531,-0.08191,-0.19503
-0.40036,0.90491,0.14438,0.15223,0.20227,-0.04979
-0.39266,0.90638,0.15585,-0.22704,0.39447,0.23962
-0.38341,0.90701,0.17415,-0.30073,0.36492,0.25903
-0.37549,0.90877,0.18203,-0.15345,0.33069,0.0144
-0.36385,0.9136,0.1815,-0.08108,0.32069,0.04308
-0.35055,0.91749,0.18793,-0.15034,0.57848,0.2836
-0.33862,0.91762,0.20808,-0.13106,0.73861,0.34616
-0.33336,0.91344,0.23344,-0.04342,0.38408,-0.16742
-0.33319,0.90978,0.24753,-0.0097,0.22768,-0.41635
-0.32758,0.91597,0.23167,0.27952,0.17558,-0.7494
-0.31256,0.92702,0.20719,0.21886,0.15124,-0.3395
-0.29895,0.93268,0.20178,0.17522,0.09353,-0.23683
-0.29856,0.9311,0.20952,0.06546,-0.0072,-0.24408
-0.30612,0.92942,0.20605,-0.13793,-0.07537,-0.27004
-0.31488,0.92944,0.19232,-0.08904,-0.02639,-0.19722
-0.32457,0.92918,0.17685,0.03081,0.00138,-0.14261
-0.33262,0.92952,0.1592,0.18218,-0.0259,-0.13686
-0.33484,0.93164,0.14117,0.24107,-0.05589,-0.09004
-0.33415,0.93414,0.12537,0.40666,-0.2546,-0.03384
-0.3366,0.9348,0.11334,0.45336,-0.33165,-0.03884
-0.34415,0.93276,0.10725,0.24227,-0.3737,-0.05598
-0.354,0.92907,0.10729,-0.07105,-0.31827,-0.11719
-0.36387,0.92505,0.10894,-0.14022,-0.31667,-0.14324
-0.3705,0.92246,0.10854,-0.17407,-0.30274,-0.16769
-0.37027,0.92295,0.10511,-0.20278,-0.23126,-0.11455
-0.36249,0.92624,0.10335,-0.13719,-0.19245,-0.00504
-0.35058,0.93089,0.10262,-0.09421,-0.15853,0.06628
-0.33896,0.93539,0.10076,0.06962,-0.06588,0.12992
-0.32864,0.93938,0.09774,0.05328,-0.0446,0.12666
-0.32171,0.94191,0.09646,-0.11676,-0.06903,0.19662
-0.31908,0.94297,0.09475,-0.24823,-0.03622,0.23419
-0.31862,0.94354,0.09053,-0.35407,-0.00604,0.23226
-0.31729,0.94466,0.0833,-0.42839,0.10817,0.11572
-0.31479,0.9463,0.07357,-0.41968,0.44838,0.17465
-0.31597,0.94704,0.05715,-0.40856,0.52794,-0.00311
-0.32634,0.94466,0.03318,-0.25414,0.55194,-0.33004
-0.34622,0.9381,0.00897,-0.07416,0.54769,-0.5594
-0.3719,0.92819,-0.01235,0.28108,0.32876,-0.61757
-0.39935,0.9165,-0.02323,0.38739,0.16208,-0.58088
-0.42106,0.90674,-0.02292,0.27935,0.14682,-0.46684
-0.43538,0.90017,-0.01144,0.25665,0.23272,-0.10839
-0.44875,0.89361,0.009,0.25722,0.32258,0.051
-0.45994,0.88741,0.03066,0.11572,0.44642,0.18701
-0.46747,0.88221,0.05621,-0.00332,0.21291,0.02318
-0.47086,0.87832,0.0827,-0.03021,0.0602,-0.08741
-0.46664,0.87827,0.10428,-0.09209,-0.16926,-0.1917
-0.45947,0.88071,0.11499,-0.18198,-0.36666,-0.22402
-0.45466,0.88361,0.11184,-0.16022,-0.47721,-0.22921
-0.45058,0.88686,0.10225,0.03417,-0.44347,-0.18706
-0.44674,0.88935,0.09736,0.18722,-0.40938,-0.0584
-0.44196,0.8912,0.10205,0.22347,-0.40547,0.08011
-0.43513,0.89318,0.11353,0.25659,-0.37947,0.21079
-0.42692,0.89554,0.12549,0.20952,-0.36639,0.26188
-0.41925,0.89804,0.13318,0.09935,-0.36425,0.21288
-0.41126,0.90149,0.13479,-0.03311,-0.31777,0.10891
-0.40545,0.9047,0.13084,-0.06135,-0.2641,-0.02651
-0.4012,0.90739,0.12522,0.04191,-0.16259,-0.12868
-0.39626,0.90981,0.12331,0.16295,0.0734,-0.1505
-0.39046,0.91184,0.12677,0.05024,0.39866,0.11223
-0.38258,0.91344,0.13876,-0.05524,0.46522,0.2079
-0.37696,0.91358,0.1525,-0.24616,0.40493,0.25583
-0.37274,0.91448,0.15743,-0.05507,0.38077,-0.01687
-0.36044,0.91883,0.16073,-0.12772,0.36108,0.12898
-0.34654,0.92205,0.17238,-0.08039,0.81053,0.31345
-0.33693,0.9215,0.19315,-0.0865,0.7557,0.21358
-0.3352,0.91831,0.21057,-0.04189,0.46933,-0.08893
-0.33618,0.9195,0.20371,0.35408,0.04773,-0.70622
-0.33067,0.92627,0.18074,0.38068,0.14265,-0.66387
-0.32276,0.93054,0.17295,0.1647,0.10443,-0.29444
-0.31983,0.9293,0.18468,-0.03868,-0.08382,-0.21628
-0.32458,0.92572,0.1941,-0.08188,-0.11232,-0.30943
-0.33176,0.92457,0.18735,-0.18094,-0.06205,-0.34129
-0.33934,0.92473,0.17237,0.01099,0.07703,-0.12802
-0.34699,0.92494,0.15519,0.09334,0.06675,-0.0926
-0.35066,0.92611,0.13906,0.187,0.05426,-0.05448
-0.34952,0.92813,0.12809,0.42223,-0.10093,0.04097
-0.35094,0.92879,0.11909,0.51883,-0.30355,0.00657
-0.35888,0.92673,0.11126,0.42486,-0.44282,-0.05007
-0.37155,0.92181,0.11052,0.09687,-0.35751,-0.08746
-0.38487,0.91594,0.11366,-0.10431,-0.31815,-0.14903
-0.39524,0.91112,0.11677,-0.23517,-0.27727,-0.18261
-0.40013,0.90868,0.11908,-0.29689,-0.26267,-0.16643
-0.39686,0.90995,0.12035,-0.23888,-0.32356,-0.07515
-0.38583,0.9146,0.12098,-0.07863,-0.41446,0.05563
-0.36918,0.92197,0.1169,0.06849,-0.23029,0.14593
-0.35136,0.93,0.1079,0.17859,-0.04103,0.13071
-0.33482,0.93714,0.0983,0.13679,0.03041,0.09257
-0.32235,0.94219,0.09147,-0.07307,0.00816,0.12143
-0.31663,0.94453,0.0872,-0.26674,0.11381,0.15127
-0.31566,0.94521,0.08324,-0.29751,0.12808,0.11387
-0.31687,0.94525,0.07794,-0.41601,0.22607,0.01786
-0.31933,0.94495,0.07132,-0.48188,0.35794,0.17786
-0.32692,0.94354,0.0533,-0.42599,0.40436,-0.02639
-0.34154,0.93944,0.02816,-0.27807,0.57701,-0.24937
-0.36461,0.93116,0.00062,0.14377,0.28221,-0.53527
-0.39309,0.91916,-0.02484,0.34751,0.18378,-0.57913
-0.42115,0.90608,-0.04044,0.44702,0.16897,-0.56283
-0.44109,0.89658,-0.03973,0.30935,0.32037,-0.33121
-0.45834,0.88849,-0.0224,0.30319,0.38637,-0.20555
-0.4731,0.88099,0.00539,0.18305,0.53759,0.0653
-0.48257,0.87515,0.03521,-0.08545,0.45737,0.09731
-0.48971,0.86946,0.06493,-0.10855,0.27541,-0.0171
-0.49242,0.86576,0.08926,-0.17153,-0.16969,-0.16036
-0.48653,0.86759,0.1028,-0.20983,-0.40018,-0.18318
-0.47818,0.87238,0.10144,-0.20999,-0.46436,-0.19129
-0.46977,0.87838,0.08806,-0.03015,-0.48788,-0.21285
-0.46149,0.88393,0.07541,0.27909,-0.38022,-0.08404
-0.45458,0.88768,0.07329,0.32796,-0.31953,0.07943
-0.44758,0.89047,0.08204,0.34265,-0.28968,0.22988
-0.43993,0.8929,0.09582,0.3213,-0.30921,0.25625
-0.43279,0.89507,0.10742,0.17499,-0.32711,0.20069
-0.42697,0.89685,0.11552,-0.09,-0.28905,0.10998
-0.42494,0.89721,0.12013,-0.13089,-0.27203,0.0429
-0.42772,0.89594,0.11975,-0.13721,-0.24187,-0.01894
-0.42906,0.89524,0.12021,0.07243,-0.03173,-0.12001
-0.42535,0.89673,0.12225,0.2189,0.1651,-0.07062
-0.41677,0.90058,0.12349,0.18774,0.2588,0.0285
-0.40629,0.90446,0.12988,-0.19231,0.31848,0.24464
-0.39835,0.9068,0.1379,-0.14642,0.19503,0.01507
-0.3911,0.90948,0.14096,-0.20158,0.12175,-0.02487
-0.37911,0.91401,0.14443,-0.10026,0.54913,0.14381
-0.36498,0.91772,0.15676,-0.08153,0.81742,0.34947
-0.35227,0.91864,0.17889,-0.0886,0.80855,0.3229
-0.34576,0.91691,0.19926,-0.07544,0.41576,-0.10077
-0.34623,0.91719,0.19717,0.26573,0.04111,-0.58647
-0.34311,0.92267,0.17595,0.36203,0.06803,-0.61185
-0.33493,0.92798,0.16329,0.18037,0.02258,-0.23673
-0.32805,0.92937,0.16927,0.05328,-0.04697,-0.19675
-0.32952,0.92723,0.1779,-0.01062,-0.07997,-0.29118
-0.33548,0.92585,0.1739,-0.1798,-0.0565,-0.35575
-0.3428,0.92526,0.16242,-0.04239,0.03911,-0.18224
-0.35087,0.92461,0.14823,0.09749,0.06938,-0.08562
-0.35583,0.92481,0.13457,0.24827,0.04741,-0.0545
-0.35651,0.92629,0.12196,0.46005,-0.15177,0.01067
-0.35663,0.9276,0.11119,0.51658,-0.25333,0.01317
-0.36331,0.92622,0.10052,0.49574,-0.42578,-0.00976
-0.37548,0.92212,0.09329,0.25721,-0.44286,-0.04016
-0.3877,0.91733,0.09046,0.00777,-0.33554,-0.0951
-0.39736,0.9134,0.08833,-0.10849,-0.29859,-0.14817
-0.40248,0.91133,0.08651,-0.20214,-0.23961,-0.17771
-0.40004,0.91235,0.08699,-0.23878,-0.24191,-0.10191
-0.38911,0.91675,0.09033,-0.16734,-0.35493,0.04933
-0.37239,0.92387,0.0882,-0.02986,-0.31472,0.19019
-0.35409,0.93189,0.07866,0.06879,-0.11529,0.18834
-0.33749,0.93898,0.06647,0.08874,-0.0079,0.11401
-0.32501,0.94401,0.05661,-0.13855,0.09592,0.10842
-0.31908,0.94641,0.04995,-0.20034,0.13314,0.14468
-0.31837,0.9468,0.04698,-0.27389,0.19485,0.23268
-0.31964,0.94646,0.04503,-0.3505,0.1838,0.14953
-0.32153,0.94608,0.03922,-0.44014,0.24261,0.11719
-0.32442,0.9456,0.02426,-0.43208,0.49463,-0.14392
-0.33286,0.94296,-0.0038,-0.25851,0.50795,-0.34887
-0.34983,0.93616,-0.03483,0.08614,0.59196,-0.55252
-0.37559,0.92512,-0.0554,0.34454,0.23164,-0.37232
-0.4004,0.91459,-0.05651,0.32154,0.10453,-0.42228
-0.41666,0.908,-0.04395,0.16294,0.19024,-0.40616
-0.42998,0.90229,-0.03122,0.0065,0.35299,-0.27331
-0.43989,0.89777,-0.02218,0.00367,0.49084,-0.13224
-0.44879,0.89359,-0.00886,0.00564,0.49317,0.1097
-0.45554,0.89002,0.01826,0.02468,0.11711,0.10172
-0.4559,0.88875,0.04766,-0.00983,-0.2214,0.02214
-0.44584,0.89252,0.06803,-0.03148,-0.3878,-0.066
-0.43263,0.89871,0.07173,0.01535,-0.55668,-0.18099
-0.42318,0.90407,0.05976,0.0665,-0.55939,-0.20876
-0.41792,0.90726,0.04707,0.13528,-0.5297,-0.19943
-0.41633,0.90801,0.04662,0.17143,-0.43874,-0.02346
-0.41556,0.90757,0.0601,0.15777,-0.41897,0.12598
-0.41245,0.90751,0.07939,0.17355,-0.42663,0.18265
-0.40834,0.90789,0.09473,0.18277,-0.36223,0.32411
-0.4049,0.90844,0.10382,0.09852,-0.25375,0.23426
-0.40029,0.91012,0.107,0.02869,-0.19123,0.16518
-0.3973,0.91146,0.10672,-0.03364,-0.03742,-0.07654
-0.39567,0.91204,0.10783,0.04592,0.02108,-0.12117
-0.39144,0.91269,0.11734,0.10688,0.14008,-0.0697
-0.38283,0.91396,0.13459,-0.04374,0.36523,0.21786
-0.37461,0.91541,0.14724,-0.38912,0.24937,0.07029
-0.37006,0.91728,0.14711,-0.18573,0.39322,-0.02628
-0.35979,0.92065,0.15144,-0.1639,0.47511,0.09097
-0.34608,0.92339,0.16606,0.02694,0.82414,0.18319
-0.33234,0.92468,0.18578,0.06373,0.80683,0.11866
-0.32177,0.92467,0.20357,0.02939,0.66081,0.01008
-0.31823,0.92469,0.20899,0.20828,0.26944,-0.39638
-0.31716,0.92777,0.19658,0.44788,0.05293,-0.63144
-0.31397,0.9298,0.19205,0.25683,0.10655,-0.39684
-0.31341,0.92651,0.20819,-0.01694,0.04604,-0.19145
-0.31773,0.9191,0.23302,-0.24961,-0.03815,-0.22493
-0.32709,0.91341,0.24225,-0.34126,-0.09871,-0.23113
-0.33946,0.91184,0.23089,-0.15001,-0.0237,-0.18013
-0.35261,0.91215,0.20889,-0.0517,-0.06512,-0.14952
-0.36157,0.91329,0.18748,0.20491,-0.13336,-0.11525
-0.36399,0.91583,0.16961,0.41683,-0.1974,-0.05893
-0.36282,0.91878,0.15558,0.61762,-0.28876,-0.00777
-0.36634,0.91875,0.14728,0.67414,-0.43361,-0.0179
-0.37724,0.91411,0.1486,0.43357,-0.44876,0.00284
-0.38902,0.90797,0.15569,0.08137,-0.21168,-0.00988
-0.40001,0.90225,0.161,-0.20853,-0.30336,-0.17395
-0.40678,0.89954,0.1592,-0.24215,-0.29154,-0.20153
-0.40587,0.901,0.15316,-0.26538,-0.29248,-0.20058
-0.396,0.90591,0.15,-0.18232,-0.39347,-0.00868
-0.38023,0.9133,0.14597,-0.14734,-0.28178,0.0717
-0.36218,0.92196,0.13713,0.01417,0.02324,0.12353
-0.34652,0.92981,0.12398,-0.01106,0.08322,0.13577
-0.3357,0.93541,0.11093,-0.10756,0.09912,0.18052
-0.33054,0.93829,0.10173,-0.16234,0.09485,0.2417
-0.32862,0.93959,0.09573,-0.20085,0.15484,0.21909
-0.32794,0.94093,0.0843,-0.33504,0.47115,-0.00462
-0.32927,0.94149,0.07191,-0.38171,0.5178,0.06605
-0.33711,0.93994,0.05356,-0.28557,0.33205,-0.35387
-0.35135,0.93582,0.02806,-0.05246,0.44602,-0.53406
-0.37072,0.92873,0.00429,0.18212,0.28817,-0.49208
-0.39387,0.91912,-0.00843,0.25349,0.08745,-0.40586
-0.41318,0.91061,-0.00795,0.14767,0.12369,-0.34945
-0.42563,0.90489,0.00244,0.15524,0.26387,-0.24712
-0.43529,0.90008,0.01907,0.13248,0.53423,-0.07024
-0.44341,0.89551,0.03782,0.04995,0.71272,0.11568
-0.45234,0.88987,0.05923,-0.04291,0.43427,0.12677
-0.45937,0.88409,0.08577,-0.078,-0.03767,-0.01031
-0.45866,0.88159,0.11146,-0.09497,-0.30751,-0.09663
-0.45222,0.88311,0.12492,-0.11893,-0.40624,-0.13239
-0.44442,0.8877,0.12025,-0.10857,-0.63465,-0.16352
-0.43633,0.89344,0.10663,0.14223,-0.59495,-0.1566
-0.42769,0.8986,0.09798,0.18915,-0.54509,-0.10513
-0.41945,0.90207,0.10163,0.17869,-0.45683,0.01446
-0.41012,0.90477,0.11479,0.13828,-0.40941,0.20205
-0.39963,0.90767,0.12815,0.11558,-0.41761,0.21882
-0.39068,0.91049,0.13553,0.08381,-0.41384,0.16228
-0.3828,0.9138,0.13574,0.0259,-0.33752,0.03174
-0.37567,0.91749,0.13069,0.01201,-0.14303,-0.08011
-0.36888,0.92069,0.12749,0.03526,0.08418,-0.04871
-0.36405,0.92176,0.13349,0.09151,0.29211,0.08906
-0.35841,0.92128,0.1509,0.04415,0.47631,0.28126
-0.34862,0.92102,0.1737,-0.22066,0.39079,0.38152
-0.34153,0.92153,0.18472,-0.35589,0.31009,0.01015
-0.3393,0.92214,0.18581,-0.25458,0.23733,0.00162
-0.33551,0.92196,0.19342,-0.11397,0.63303,0.03286
-0.32954,0.91888,0.21691,-0.16993,0.83151,0.12524
-0.32166,0.91603,0.23962,-0.12784,0.56966,-0.04816
-0.31367,0.92161,0.22857,0.18401,0.21562,-0.50441
-0.29963,0.93467,0.19132,0.49784,0.04946,-0.6312
-0.28838,0.94227,0.17018,0.44661,0.07937,-0.47975
-0.28824,0.94062,0.1793,0.03874,0.01499,-0.05996
-0.29979,0.93425,0.19311,-0.01771,-0.01269,-0.10009
-0.31598,0.92949,0.19023,-0.11345,0.00271,-0.14973
-0.33443,0.92592,0.17555,0.00106,-0.00549,-0.19327
-0.35069,0.9232,0.15716,0.03694,-0.0865,-0.17801
-0.36137,0.92255,0.13531,0.17254,-0.2237,-0.16968
-0.36565,0.92373,0.11405,0.42358,-0.45631,-0.12974
-0.36844,0.92438,0.09877,0.46048,-0.48319,-0.07538
-0.37485,0.92239,0.09313,0.28568,-0.40875,-0.01957
-0.38362,0.9186,0.09482,0.0455,-0.26754,-0.03326
-0.39222,0.91488,0.09563,-0.03353,-0.27099,-0.09508
-0.39753,0.9126,0.09547,-0.13718,-0.2228,-0.13673
-0.39712,0.91254,0.09774,-0.19292,-0.22577,-0.13656
-0.38936,0.91551,0.10112,-0.10061,-0.30872,-0.06789
-0.37648,0.92059,0.10377,-0.03542,-0.20281,0.09535
-0.36194,0.9264,0.1038,0.01085,-0.0693,0.25141
-0.34724,0.93262,0.09817,-0.06467,-0.04942,0.30199
-0.33564,0.93774,0.08936,-0.27583,0.09534,0.25555
-0.32945,0.94069,0.08095,-0.37578,0.19423,0.18755
-0.32754,0.94199,0.07326,-0.41968,0.22772,0.06854
-0.32832,0.94241,0.0637,-0.42646,0.47179,-0.02913
-0.33273,0.94165,0.05076,-0.39792,0.4926,-0.14525
-0.34442,0.93832,0.03022,-0.1214,0.46054,-0.58678
-0.36583,0.93065,0.00662,0.16778,0.4656,-0.54828
-0.39297,0.91946,-0.0123,0.39094,0.36195,-0.41239
-0.41944,0.90765,-0.01532,0.41227,0.21834,-0.25297
-0.43704,0.89944,-0.0018,0.40706,0.26869,-0.23316
-0.44649,0.89459,0.01874,0.35001,0.43702,-0.1329
-0.45165,0.8913,0.03985,0.08331,0.64956,0.08741
-0.46011,0.88558,0.06357,-0.00552,0.56814,0.07785
-0.47267,0.87655,0.09079,-0.11698,0.21356,-0.01863
-0.48116,0.86871,0.11752,-0.20414,-0.26959,-0.13676
-0.47941,0.86651,0.13894,-0.21575,-0.37756,-0.16255
-0.47256,0.86935,0.14461,-0.20389,-0.56226,-0.18613
-0.46537,0.87476,0.135,-0.01147,-0.62413,-0.24038
-0.45775,0.8807,0.12171,0.19802,-0.59004,-0.20883
-0.45013,0.88543,0.1157,0.30821,-0.55495,-0.05413
-0.4403,0.88957,0.12164,0.29293,-0.4472,0.23873
-0.4304,0.89226,0.13641,0.2792,-0.43809,0.28844
-0.42169,0.89387,0.1522,0.23082,-0.41488,0.31887
-0.41366,0.89598,0.16155,0.09677,-0.27337,0.08593
-0.40858,0.89873,0.15918,0.0623,-0.22832,-0.04727
-0.40959,0.89985,0.15001,-0.00528,-0.13129,-0.2261
-0.41235,0.89907,0.14711,-0.03367,0.25702,-0.00437
-0.41243,0.89691,0.15951,-0.0562,0.39883,0.07206
-0.40573,0.89635,0.17868,-0.32149,0.44909,0.28169
-0.3962,0.8987,0.18802,-0.28915,0.28978,0.16801
-0.38593,0.90351,0.18632,-0.20621,0.21459,0.01224
-0.37204,0.90948,0.18554,-0.08472,0.46006,0.24668
-0.35991,0.91329,0.19067,-0.06013,0.72131,0.27362
-0.34979,0.91583,0.19722,-0.08177,0.86223,0.21544
-0.34421,0.91765,0.19858,0.30648,0.32737,-0.49356
-0.3417,0.92098,0.18716,0.47746,0.2167,-0.67614
-0.33386,0.92707,0.17048,0.4693,0.1446,-0.64884
-0.32331,0.93087,0.17013,0.15232,0.04116,-0.24394
-0.3196,0.92827,0.19017,-0.11906,-0.06845,-0.25769
-0.32502,0.92335,0.20442,-0.2064,-0.1903,-0.33125
-0.33456,0.92124,0.19845,-0.25201,-0.19606,-0.25904
-0.34435,0.92116,0.18135,-0.0681,-0.05177,-0.12724
-0.35279,0.92165,0.1615,0.13319,-0.07133,-0.04532
-0.35519,0.92362,0.14404,0.32018,-0.06736,0.01476
-0.35283,0.9266,0.13008,0.45768,-0.13279,0.06204
-0.35228,0.92795,0.12163,0.53932,-0.30503,0.01457
-0.35818,0.92613,0.11825,0.24959,-0.44212,-0.01402
-0.36923,0.92147,0.1206,0.0654,-0.36366,-0.02543
-0.37983,0.91677,0.1235,-0.14499,-0.46845,-0.14506
-0.38718,0.91422,0.11948,-0.25717,-0.47354,-0.22306
-0.3878,0.91523,0.10935,-0.31725,-0.27296,-0.21702
-0.37788,0.92001,0.10384,-0.25316,-0.13935,-0.0553
-0.35942,0.9272,0.1054,-0.08533,0.05107,0.14947
-0.34019,0.93415,0.10784,0.06559,0.02085,0.21678
-0.3234,0.94042,0.10495,0.03893,-0.00834,0.19802
-0.31198,0.94513,0.09686,-0.14195,0.01907,0.17689
-0.30716,0.94764,0.08731,-0.25035,0.12475,0.19736
-0.3066,0.94854,0.07916,-0.33775,0.17192,0.13774
-0.30729,0.94893,0.07135,-0.44254,0.35643,0.04886
-0.30756,0.94945,0.0628,-0.48617,0.54088,0.03451
-0.3106,0.94934,0.04779,-0.3953,0.51209,-0.32209
-0.32068,0.94678,0.02782,-0.09969,0.51975,-0.53282
-0.33903,0.94076,0.00442,0.19166,0.31138,-0.46459
-0.36393,0.93126,-0.01756,0.41203,0.13684,-0.49416
-0.38937,0.92073,-0.02524,0.26943,0.1783,-0.36376
-0.4032,0.91493,-0.01779,0.3109,0.24532,-0.20139
-0.41245,0.91097,-0.00338,0.2671,0.32403,-0.12924
-0.41915,0.90777,0.01594,0.09075,0.49454,0.07952
-0.42726,0.90333,0.03799,-0.10039,0.23673,0.07578
-0.4357,0.89786,0.06335,-0.09838,0.05966,-0.01194
-0.43891,0.89424,0.08773,-0.11937,-0.19851,-0.13247
-0.43399,0.8946,0.10648,-0.13157,-0.46926,-0.18399
-0.4261,0.89756,0.11317,-0.08722,-0.53399,-0.19784
-0.41986,0.90097,0.10941,0.08746,-0.56808,-0.18972
-0.41389,0.90443,0.10341,0.30063,-0.50013,-0.05676
-0.40811,0.9071,0.10295,0.27426,-0.46182,0.02125
-0.40352,0.90791,0.1134,0.22217,-0.42894,0.18655
-0.39901,0.90765,0.13015,0.17494,-0.39171,0.28908
-0.39499,0.90693,0.14648,0.07186,-0.35866,0.27776
-0.39002,0.90763,0.1552,-0.02624,-0.28926,0.16116
-0.38428,0.91046,0.15287,-0.038,-0.24962,-0.08679
-0.38027,0.91375,0.14296,0.01811,-0.21563,-0.14995
-0.37596,0.9168,0.13459,0.0285,0.22771,-0.02302
-0.37089,0.9182,0.13904,-0.04858,0.3782,0.0852
-0.36358,0.91848,0.15554,-0.32588,0.46272,0.21676
-0.35692,0.91871,0.16901,-0.29943,0.5183,-0.02482
-0.35334,0.91963,0.17156,-0.27063,0.48615,-0.04505
-0.34558,0.92204,0.17439,-0.21529,0.64203,0.26201
-0.33767,0.92236,0.18769,-0.08012,0.66897,0.25065
-0.33297,0.92046,0.20464,-0.03911,0.42351,0.04704
-0.33089,0.91967,0.21143,0.30675,0.17711,-0.48061
-0.32952,0.924,0.19401,0.41279,0.13664,-0.64061
-0.32038,0.93177,0.17071,0.25994,0.18583,-0.38569
-0.30879,0.93703,0.16312,0.0536,0.07778,-0.23739
-0.30525,0.93671,0.17145,-0.0828,-0.064,-0.32729
-0.30952,0.93483,0.17403,-0.13199,-0.06868,-0.23976
-0.31707,0.93415,0.16379,-0.04611,0.03842,-0.08791
-0.32665,0.93363,0.14707,0.10869,-0.04276,-0.03785
-0.33508,0.93332,0.12891,0.27452,-0.12214,0.00587
-0.33811,0.93444,0.11182,0.40827,-0.198,0.05582
-0.33871,0.93573,0.09842,0.47109,-0.34984,0.02695
-0.34288,0.93521,0.08832,0.37757,-0.50227,-0.04522
-0.35405,0.9317,0.08113,0.12572,-0.46762,-0.07225
-0.36739,0.9267,0.07903,-0.10333,-0.30539,-0.11321
-0.37883,0.92207,0.07915,-0.2583,-0.25802,-0.1728
-0.38629,0.91903,0.07841,-0.25854,-0.2736,-0.16829
-0.38595,0.91931,0.07685,-0.22042,-0.32272,-0.09801
-0.37613,0.92332,0.07746,-0.07938,-0.34828,0.00285
-0.36074,0.92943,0.07757,0.05416,-0.1395,0.09345
-0.34545,0.93525,0.07723,0.12347,-0.05674,0.16746
-0.33154,0.94042,0.07538,0.05043,0.05687,0.21172
-0.32166,0.94407,0.07252,-0.17279,0.11205,0.32949
-0.31746,0.94585,0.06776,-0.23685,0.18161,0.3001
-0.31642,0.9467,0.06026,-0.24028,0.27364,0.05156
-0.31533,0.94764,0.0504,-0.38969,0.50372,-0.00313
-0.31546,0.94806,0.04062,-0.50235,0.59864,-0.11279
-0.32163,0.94655,0.02437,-0.34602,0.63156,-0.45015
-0.33717,0.94144,0.0026,-0.11864,0.58685,-0.51216
-0.36175,0.93207,-0.01946,0.2264,0.23747,-0.44474
-0.38917,0.92063,-0.03123,0.27339,0.08602,-0.41094
-0.40934,0.912,-0.02636,0.2358,0.11014,-0.32429
-0.41789,0.90841,-0.01224,0.26326,0.13631,-0.17513
-0.42345,0.90591,0.00268,0.20244,0.28601,0.05291
-0.42939,0.90294,0.01789,0.1083,0.31912,0.08905
-0.43706,0.89861,0.03838,-0.15375,0.03601,0.00506
-0.44387,0.8939,0.06263,-0.16447,-0.06594,-0.07326
-0.44635,0.89099,0.08301,-0.17082,-0.25212,-0.14843
-0.44362,0.89125,0.09413,-0.1302,-0.42356,-0.18092
-0.43971,0.89341,0.09201,-0.06324,-0.47483,-0.17708
-0.43564,0.89631,0.08269,0.13369,-0.48679,-0.15694
-0.43056,0.89915,0.07831,0.26431,-0.39777,0.02432
-0.42701,0.90032,0.08416,0.26093,-0.38187,0.08899
-0.42407,0.90047,0.09648,0.18557,-0.42528,0.2435
-0.42135,0.90033,0.1089,0.1089,-0.48018,0.24219
-0.41881,0.90044,0.11743,0.01527,-0.45786,0.15087
-0.41524,0.90163,0.12097,-0.07068,-0.39585,0.02288
-0.41167,0.90338,0.12009,-0.03377,-0.29767,-0.10224
-0.40962,0.90479,0.11642,0.12442,-0.0456,-0.09714
-0.40651,0.90643,0.11455,0.15561,0.28185,0.03928
-0.40168,0.90758,0.12227,-0.13378,0.61568,0.31527
-0.39392,0.90832,0.14065,-0.31565,0.55305,0.29873
-0.38653,0.90866,0.15786,-0.38166,0.51982,0.13796
-0.38122,0.91017,0.162,-0.26258,0.31113,-0.00317
-0.37072,0.91411,0.16421,-0.20086,0.53319,0.18677
-0.35665,0.91702,0.17851,-0.17101,0.69327,0.27391
-0.34449,0.91698,0.20113,-0.03644,0.62634,0.21574
-0.33607,0.91572,0.22025,0.30861,0.10549,-0.60991
-0.33421,0.9171,0.21732,0.39401,0.04746,-0.70646
-0.33005,0.9237,0.19453,0.24277,0.05766,-0.49653
-0.32188,0.92906,0.1823,0.03726,0.02144,-0.21046
-0.31523,0.92973,0.19033,-0.09652,-0.02985,-0.25092
-0.31579,0.9281,0.19721,-0.17116,-0.05164,-0.27221
-0.32138,0.92809,0.18804,0.02183,0.02121,-0.11406
-0.33068,0.92854,0.16866,0.1313,-0.00563,-0.08811
-0.34119,0.92865,0.14556,0.27814,-0.05362,-0.07514
-0.34724,0.92955,0.12393,0.418,-0.15254,-0.01329
-0.34987,0.93055,0.10795,0.45736,-0.22349,0.00977
-0.35389,0.93012,0.0981,0.43004,-0.42942,-0.03926
-0.36293,0.92709,0.09364,0.24264,-0.51524,-0.06991
-0.37477,0.92247,0.09269,-0.04817,-0.32997,-0.07304
-0.38476,0.91852,0.09096,-0.15117,-0.29062,-0.13053
-0.39211,0.9158,0.08689,-0.22244,-0.3264,-0.16753
-0.39401,0.91541,0.08232,-0.20615,-0.32742,-0.12389
-0.3881,0.91812,0.08011,-0.09464,-0.33716,-0.01546
-0.37536,0.92365,0.07722,0.07632,-0.049,0.13448
-0.36093,0.92965,0.07389,0.08601,-0.02044,0.17456
-0.34795,0.93482,0.07093,0.08292,0.0579,0.25766
-0.33797,0.93873,0.06746,-0.18123,0.17586,0.33972
-0.33307,0.94078,0.06305,-0.22808,0.19941,0.31283
-0.33124,0.94185,0.05646,-0.41735,0.38567,-0.04739
-0.32959,0.94293,0.04734,-0.48664,0.55386,-0.04024
-0.32725,0.94414,0.03862,-0.49454,0.58779,0.00343
-0.32865,0.94411,0.02508,-0.14471,0.48066,-0.42076
-0.3387,0.94087,0.00512,0.01017,0.50139,-0.46231
-0.3605,0.93261,-0.01647,0.28954,0.26551,-0.44258
-0.38798,0.92117,-0.03008,0.33184,0.09369,-0.32833
-0.40807,0.91251,-0.02814,0.24636,0.15893,-0.31843
-0.41864,0.908,-0.01629,0.20058,0.20124,-0.22806
-0.42475,0.9053,-0.00368,0.12978,0.42054,-0.06736
-0.43159,0.90203,0.00852,0.01871,0.48782,0.07406
-0.44317,0.89612,0.02374,-0.079,0.38442,0.07904
-0.45069,0.89162,0.0434,-0.1074,0.01604,-0.0337
-0.45292,0.88935,0.06257,-0.12888,-0.21198,-0.09347
-0.44841,0.89068,0.07486,-0.1122,-0.39801,-0.10066
-0.44128,0.8943,0.0741,0.00834,-0.47079,-0.10631
-0.4345,0.89844,0.06331,0.1549,-0.46191,-0.08923
-0.42814,0.90202,0.05529,0.1688,-0.41816,0.01156
-0.42259,0.90438,0.05918,0.14145,-0.35157,0.15149
-0.41867,0.90516,0.07342,0.12627,-0.3717,0.22216
-0.41581,0.90496,0.09021,0.09799,-0.48734,0.18493
-0.41284,0.90498,0.10276,0.04457,-0.57809,0.13747
-0.40624,0.90722,0.10911,-0.02223,-0.42712,0.0021
-0.39643,0.91135,0.11079,-0.05211,-0.34065,-0.04562
-0.39039,0.91403,0.11018,-0.03542,-0.16064,-0.14147
-0.38694,0.91537,0.11118,0.03393,0.45243,0.12501
-0.38331,0.91502,0.12567,0.04258,0.52619,0.22832
-0.37733,0.91275,0.15653,-0.2243,0.74964,0.28873
-0.37113,0.91111,0.17924,-0.25146,0.96374,0.05608
-0.36449,0.91346,0.18089,-0.20372,0.56711,0.06043
-0.35216,0.91696,0.1875,-0.22841,0.60271,0.2848
-0.34221,0.91675,0.20604,-0.07272,0.35277,0.22605
-0.33846,0.91527,0.2184,0.0084,0.21441,0.01905
-0.33552,0.91707,0.21537,0.30501,0.08447,-0.44241
-0.33245,0.92178,0.19946,0.30264,0.10091,-0.37967
-0.32404,0.92762,0.18576,0.27208,0.12881,-0.28776
-0.31241,0.93247,0.18134,0.05632,0.18143,-0.2165
-0.30629,0.93295,0.18917,-0.16957,0.04739,-0.33756
-0.30769,0.93102,0.19623,-0.16817,0.04931,-0.34462
-0.3145,0.92942,0.19299,-0.18481,-0.04502,-0.18344
-0.32238,0.92976,0.17776,0.07844,-0.17457,-0.08935
-0.32946,0.93141,0.15463,0.17582,-0.21323,-0.05892
-0.3326,0.93387,0.13131,0.33065,-0.24357,-0.02956
-0.33242,0.93619,0.11417,0.45983,-0.29426,-0.00805
-0.3338,0.93685,0.10429,0.3943,-0.33134,-0.02894
-0.34045,0.9348,0.10119,0.1477,-0.39288,-0.02217
-0.3513,0.93061,0.10267,0.04695,-0.38454,-0.02015
-0.36314,0.92588,0.10428,-0.0799,-0.3893,-0.05903
-0.37231,0.92261,0.10084,-0.1247,-0.49008,-0.13278
-0.37543,0.92234,0.09127,-0.17318,-0.38694,-0.12756
-0.37124,0.92465,0.08475,-0.19546,-0.31455,-0.07158
-0.35975,0.92939,0.08249,-0.05302,-0.07625,0.05719
-0.34593,0.93465,0.08213,0.04656,0.03373,0.2005
-0.33246,0.93934,0.08429,0.04181,0.0272,0.2606
-0.32088,0.9433,0.08486,-0.20081,0.20622,0.28405
-0.3141,0.94599,0.08026,-0.23857,0.25223,0.26643
-0.3108,0.9479,0.06982,-0.32143,0.22546,0.14428
-0.30784,0.94975,0.05661,-0.38285,0.45153,-0.11935
-0.30339,0.95178,0.04535,-0.4113,0.65512,0.02172
-0.30326,0.95227,0.03469,-0.33654,0.52771,-0.36055
-0.31258,0.9497,0.01899,-0.10675,0.29754,-0.49658
-0.33359,0.94271,-0.00213,0.2303,0.1276,-0.51335
-0.36225,0.93188,-0.01894,0.2883,0.02989,-0.38368
-0.38941,0.92075,-0.02362,0.16019,0.17634,-0.26648
-0.40592,0.91374,-0.01719,0.25667,0.2177,-0.19605
-0.41851,0.9082,-0.00285,0.22855,0.39593,-0.04108
-0.42988,0.90273,0.0166,0.0055,0.61441,0.1136
-0.43982,0.89718,0.04011,-0.18085,0.44495,0.13817
-0.44717,0.89208,0.06495,-0.09177,0.01694,-0.00893
-0.45045,0.88872,0.08522,-0.0714,-0.27409,-0.11691
-0.44671,0.88932,0.09769,-0.0708,-0.46432,-0.18262
-0.43998,0.89258,0.09857,-0.01862,-0.58955,-0.20756
-0.433,0.8968,0.09085,0.14687,-0.58729,-0.21938
-0.42552,0.901,0.08439,0.26048,-0.48924,-0.11831
-0.41999,0.90324,0.08807,0.23459,-0.45941,0.05159
-0.41643,0.90354,0.10097,0.18032,-0.45659,0.212
-0.41204,0.9038,0.11557,0.13581,-0.50567,0.28326
-0.40685,0.90498,0.12437,0.11158,-0.50378,0.23748
-0.39954,0.90812,0.12519,0.09107,-0.41186,0.08578
-0.39197,0.91253,0.11679,0.032,-0.05428,-0.13321
-0.38798,0.91562,0.10531,0.05,0.06054,-0.10174
-0.38487,0.91698,0.1049,0.06058,0.36277,0.01313
-0.38233,0.91617,0.12024,0.00645,0.56211,0.20131
-0.37717,0.91526,0.14152,-0.26907,0.55996,0.24373
-0.37404,0.91469,0.15303,-0.33827,0.45036,0.01712
-0.36624,0.91761,0.15445,-0.18085,0.62175,0.12845
-0.35483,0.92115,0.15987,-0.1231,0.85984,0.20219
-0.34576,0.92081,0.18043,-0.18793,0.90428,0.27981
-0.33775,0.91961,0.20058,0.23556,0.21767,-0.44742
-0.33526,0.92414,0.18321,0.46338,0.12506,-0.6904
-0.32737,0.93252,0.1524,0.3019,0.12287,-0.3876
-0.31813,0.93733,0.14212,0.20136,0.02747,-0.21703
-0.31456,0.93655,0.15464,-0.00245,-0.16757,-0.1625
-0.31942,0.93285,0.16655,-0.18966,-0.10708,-0.25247
-0.32844,0.9305,0.16212,-0.10402,0.03384,-0.18748
-0.33826,0.92996,0.14403,-0.04487,0.04572,-0.15281
-0.34678,0.93013,0.12079,0.19871,-0.02582,-0.08225
-0.34904,0.93177,0.09981,0.38011,-0.17052,-0.01126
-0.34624,0.93432,0.08458,0.46194,-0.255,0.02556
-0.34453,0.93567,0.07625,0.50715,-0.49461,-0.00634
-0.35109,0.93345,0.07343,0.20836,-0.52716,-0.00359
-0.3638,0.92843,0.07515,0.02338,-0.42358,-0.0188
-0.37583,0.92356,0.07599,-0.12888,-0.42815,-0.10708
-0.38473,0.92018,0.07238,-0.18069,-0.42876,-0.13134
-0.38507,0.92062,0.06457,-0.18954,-0.3159,-0.12111
-0.37505,0.92504,0.06026,-0.11505,-0.16823,0.01788
-0.35807,0.93173,0.06045,-0.02914,-0.02626,0.14196
-0.342,0.93764,0.06207,0.06418,-0.01438,0.20761
-0.32767,0.94285,0.0604,0.01019,0.05412,0.22533
-0.31781,0.9465,0.05588,-0.16183,0.13265,0.27121
-0.31357,0.94819,0.05095,-0.28069,0.16184,0.24337
-0.31213,0.94889,0.04658,-0.35361,0.16999,0.09749
-0.31066,0.94962,0.04117,-0.4736,0.60784,0.07892
-0.31025,0.95005,0.03373,-0.45666,0.67565,0.01194
-0.31593,0.94862,0.01738,-0.26297,0.60773,-0.37277
-0.33239,0.94312,-0.00511,0.18786,0.3606,-0.51023
-0.35728,0.93358,-0.02763,0.35792,0.24294,-0.53623
-0.38641,0.92147,-0.03951,0.38364,0.19376,-0.4827
-0.40896,0.9118,-0.03701,0.2264,0.26464,-0.27526
-0.42175,0.90635,-0.02555,0.20706,0.23249,-0.21594
-0.43183,0.90191,-0.00787,0.1269,0.25846,-0.03078
-0.44006,0.89787,0.01289,-0.09466,0.34973,0.08973
-0.44636,0.89415,0.03535,-0.08021,0.29022,0.0436
-0.44999,0.8913,0.05562,-0.0678,0.01784,-0.04825
-0.44799,0.8912,0.07108,-0.07395,-0.23392,-0.09793
-0.44144,0.89377,0.07937,-0.04957,-0.44635,-0.12322
-0.43501,0.89705,0.07785,0.08256,-0.57843,-0.1415
-0.42845,0.90077,0.07087,0.24102,-0.56932,-0.13311
-0.42221,0.904,0.06709,0.2907,-0.52198,-0.01238
-0.41748,0.90593,0.07071,0.24092,-0.47667,0.14357
-0.41393,0.90681,0.07966,0.14297,-0.42715,0.26968
-0.41164,0.90682,0.0906,0.09421,-0.43043,0.27166
-0.41012,0.90658,0.09957,-0.01684,-0.28591,0.092
-0.40669,0.90764,0.10383,0.011,-0.21948,0.01567
-0.40324,0.90926,0.10309,0.01501,-0.18946,-0.07178
-0.40049,0.911,0.09831,0.11163,0.15134,-0.06048
-0.39732,0.9122,0.10008,0.10467,0.32965,0.03497
-0.3934,0.91194,0.11657,-0.05188,0.53659,0.24901
-0.38873,0.91033,0.14204,-0.44229,0.431,0.05319
-0.38509,0.90962,0.15583,-0.36686,0.47711,-0.01282
-0.37597,0.91281,0.15939,-0.43811,0.46243,0.01478
-0.36266,0.91598,0.17161,-0.10303,0.79713,0.28538
-0.35172,0.9166,0.19005,-0.0867,0.78474,0.30951
-0.34214,0.91769,0.2019,-0.06344,0.53305,0.12276
-0.3387,0.92139,0.19053,0.47142,0.00462,-0.62574
-0.33239,0.92825,0.16692,0.44111,0.00205,-0.59696
-0.32129,0.93458,0.1527,0.17105,-0.05717,-0.20809
-0.31138,0.93738,0.15605,-0.07537,-0.05202,-0.24657
-0.30982,0.93586,0.16783,-0.16509,-0.11581,-0.35432
-0.31374,0.93464,0.16734,-0.13363,-0.07899,-0.27458
-0.32096,0.93458,0.15342,0.00812,0.02378,-0.15183
-0.32978,0.93485,0.13151,0.1735,-0.0268,-0.06932
-0.33519,0.9358,0.10914,0.34776,-0.10011,0.00475
-0.33452,0.93808,0.08992,0.47815,-0.20879,0.07277
-0.33252,0.93998,0.07652,0.50003,-0.35679,0.03968
-0.3358,0.93944,0.06838,0.40462,-0.46085,-0.00842
-0.34487,0.93626,0.06689,0.07401,-0.33711,-0.04855
-0.35553,0.9321,0.06911,-0.1778,-0.19548,-0.10351
-0.36437,0.92857,0.07055,-0.30781,-0.18707,-0.1949
-0.37063,0.92612,0.07022,-0.3466,-0.33277,-0.18898
-0.36961,0.92667,0.06825,-0.11301,-0.51328,-0.03882
-0.35968,0.93087,0.06409,-0.0626,-0.44407,0.0023
-0.34391,0.93736,0.05547,0.01809,-0.08271,0.07099
-0.32852,0.94339,0.04559,0.11313,0.11984,0.1659
-0.31625,0.94778,0.04122,0.05532,0.16653,0.18675
-0.30966,0.94988,0.04282,-0.10729,0.2124,0.25477
-0.30978,0.94961,0.0475,-0.3073,0.28894,0.20847
-0.31165,0.94888,0.0499,-0.37588,0.29201,0.09222
-0.31218,0.94894,0.04527,-0.57718,0.36356,0.03218
-0.31455,0.94862,0.03426,-0.521,0.57783,-0.09502
-0.32349,0.94606,0.01763,-0.42621,0.58746,-0.20783
-0.33858,0.94093,-0.00176,-0.10353,0.49289,-0.44456
-0.35733,0.93367,-0.02372,0.39105,0.06126,-0.54566
-0.37958,0.92417,-0.04255,0.42313,0.08305,-0.51273
-0.39928,0.9154,-0.05108,0.20922,0.16459,-0.30762
-0.40831,0.91173,-0.04504,0.23422,0.15125,-0.09454
-0.41361,0.90998,-0.02929,0.22811,0.21501,-0.01255
-0.41709,0.90879,-0.01177,0.07822,0.40265,0.06904
-0.42064,0.9072,0.00577,0.04512,0.38575,0.03111
-0.4249,0.90492,0.02366,0.01202,0.16879,-0.06137
-0.42749,0.90318,0.03882,-0.09539,-0.20417,-0.11318
-0.42671,0.90314,0.04747,-0.10575,-0.43378,-0.13916
-0.42309,0.90487,0.04677,-0.06354,-0.50416,-0.15541
-0.41707,0.90795,0.04084,0.14029,-0.51452,-0.13687
-0.40949,0.91147,0.03904,0.18915,-0.45389,-0.01957
-0.40308,0.91407,0.04462,0.1938,-0.43133,0.05695
-0.39886,0.91535,0.05505,0.1936,-0.39599,0.23638
-0.39628,0.91563,0.06755,0.1737,-0.407,0.26639
-0.39577,0.91488,0.07967,0.15187,-0.40608,0.25167
-0.39589,0.91399,0.08881,0.05361,-0.35428,0.16064
-0.39476,0.91398,0.0938,0.0121,-0.3084,0.02855
-0.39399,0.91406,0.0962,0.08468,-0.13818,-0.09984
-0.3929,0.91411,0.10009,0.05277,0.03215,-0.06771
-0.39055,0.91376,0.11178,-0.06072,0.39626,0.06023
-0.38767,0.91215,0.13293,-0.22558,0.40305,0.10295
-0.38376,0.91048,0.15408,-0.43352,0.27266,-0.00791
-0.38087,0.91135,0.15608,-0.18627,0.372,-0.00467
-0.37142,0.91584,0.15253,-0.12953,0.34833,0.14624
-0.35622,0.92051,0.16049,-0.10834,0.73273,0.40374
-0.34022,0.92396,0.17476,0.04128,0.78199,0.16856
-0.3294,0.9265,0.18188,0.00436,0.66716,-0.0642
-0.32628,0.92889,0.17519,0.3102,0.18583,-0.49234
-0.32202,0.93422,0.15338,0.51456,0.06746,-0.58805
-0.31528,0.93926,0.13555,0.33288,0.02442,-0.19039
-0.30789,0.94177,0.13512,0.12414,-0.00585,-0.05243
-0.30617,0.93966,0.15259,-0.15988,-0.09323,-0.29379
-0.3097,0.93601,0.1672,-0.22868,-0.11497,-0.29617
-0.31577,0.93439,0.16487,-0.14818,-0.05611,-0.20646
-0.3231,0.93462,0.1486,0.00153,0.00694,-0.16539
-0.33103,0.93517,0.12595,0.15715,-0.06615,-0.1459
-0.33469,0.93666,0.10315,0.33211,-0.10426,-0.05929
-0.33386,0.93878,0.08493,0.45433,-0.23038,0.02465
-0.33257,0.94022,0.07327,0.50112,-0.36487,0.01233
-0.33808,0.93851,0.06991,0.35485,-0.43119,-0.01708
-0.35025,0.93372,0.07406,-0.13122,-0.29376,-0.05031
-0.36206,0.92876,0.07942,-0.19589,-0.28915,-0.08494
-0.37164,0.92484,0.08089,-0.26551,-0.29894,-0.15889
-0.3777,0.92268,0.07743,-0.26733,-0.39089,-0.09131
-0.37535,0.924,0.07295,-0.22058,-0.41126,-0.00789
-0.36445,0.92855,0.07047,-0.04588,-0.4249,0.13763
-0.34834,0.9352,0.06367,0.18193,-0.0831,0.21259
-0.33309,0.94136,0.05377,0.19756,-0.03456,0.20233
-0.32121,0.94591,0.04539,0.01397,0.07111,0.18601
-0.31488,0.94826,0.0405,-0.17804,0.19241,0.17106
-0.31286,0.9491,0.03628,-0.25295,0.25074,0.19552
-0.31116,0.94985,0.03085,-0.37401,0.2194,0.21819
-0.30774,0.95114,0.02477,-0.36928,0.20985,0.10946
-0.30355,0.95263,0.01861,-0.41655,0.37351,0.13472
-0.30066,0.95369,0.00885,-0.3208,0.54943,-0.20847
-0.30619,0.95189,-0.01201,-0.07044,0.48046,-0.536
-0.32217,0.94583,-0.03998,0.09975,0.46092,-0.55568
-0.34767,0.93561,-0.06124,0.29103,0.06946,-0.24819
-0.37565,0.92448,-0.06498,0.14331,0.09287,-0.33078
-0.39554,0.91677,-0.05538,0.11843,0.16392,-0.3372
-0.40849,0.91168,-0.04443,0.15403,0.25672,-0.25548
-0.41918,0.90725,-0.03424,0.06071,0.44483,-0.00655
-0.42772,0.90369,-0.01979,-0.04033,0.49838,0.10416
-0.43515,0.90035,0.0029,-0.08368,0.33748,0.11239
-0.43914,0.89801,0.02676,-0.02288,-0.01041,-0.04898
-0.43726,0.89809,0.04714,-0.04748,-0.32036,-0.11751
-0.43172,0.90008,0.05879,-0.03827,-0.49641,-0.13706
-0.42866,0.90161,0.05771,0.03404,-0.52765,-0.14432
-0.42716,0.90281,0.04944,0.14703,-0.49364,-0.1026
-0.42449,0.90426,0.04585,0.23323,-0.46846,0.01064
-0.42145,0.90531,0.05271,0.25171,-0.4943,0.13337
-0.41762,0.90621,0.06605,0.25891,-0.55073,0.23583
-0.41375,0.90699,0.0785,0.21018,-0.5891,0.2584
-0.41072,0.90764,0.08655,0.13703,-0.55011,0.22041
-0.40805,0.90855,0.08956,0.06583,-0.45147,0.1333
-0.40654,0.90958,0.08591,0.0316,-0.32634,0.028
-0.40467,0.91111,0.07812,0.08235,0.00133,-0.01641
-0.40058,0.91337,0.0726,0.1074,0.15727,0.01831
-0.39535,0.91552,0.07423,-0.00162,0.50285,0.13726
-0.38879,0.91715,0.08758,-0.56727,0.63411,0.34647
-0.38478,0.91667,0.10794,-0.58365,0.49088,0.28416
-0.38356,0.91632,0.115,-0.15464,0.32504,-0.0499
-0.37452,0.92031,0.11294,-0.0669,0.90705,0.17519
-0.36068,0.92477,0.12126,-0.06923,1.28495,0.24579
-0.34614,0.92687,0.14523,-0.23338,0.91833,0.15461
-0.33452,0.92842,0.16158,0.50965,-0.03394,-0.71297
-0.32647,0.93521,0.13704,0.67016,-0.06092,-0.76447
-0.31257,0.94393,0.10627,0.41932,0.296,-0.53183
-0.30254,0.94725,0.10569,-0.10888,0.08606,0.01417
-0.30238,0.94396,0.13224,-0.17379,-0.00866,-0.01694
-0.30973,0.939,0.14942,-0.19979,-0.10706,-0.09873
-0.32268,0.93605,0.14024,-0.01968,-0.13935,-0.22405
-0.33753,0.93449,0.11315,0.11997,-0.23137,-0.20452
-0.34823,0.9336,0.08436,0.27667,-0.26288,-0.14221
-0.35266,0.93377,0.0608,0.30719,-0.30302,-0.08575
-0.35319,0.93456,0.04286,0.42053,-0.4175,-0.02484
-0.3569,0.93365,0.03011,0.46267,-0.64201,0.0425
-0.36693,0.92985,0.02704,0.03928,-0.32232,0.07994
-0.37572,0.92618,0.03191,-0.03435,-0.26025,0.06029
-0.38234,0.92341,0.03341,-0.08724,-0.34066,-0.0599
-0.38333,0.92318,0.02788,-0.12586,-0.19577,-0.13219
-0.37616,0.9263,0.02125,-0.12998,-0.17772,-0.11578
-0.36176,0.93207,0.0189,-0.07606,-0.0611,0.10139
-0.3484,0.93707,0.02231,-0.0387,0.09949,0.34504
-0.338,0.94079,0.02553,-0.04832,0.12874,0.41459
-0.33121,0.94326,0.02338,-0.25748,0.31011,0.34563
-0.32778,0.94457,0.01818,-0.35383,0.25242,0.12565
-0.32611,0.94524,0.01264,-0.38532,0.27595,-0.08699
-0.32538,0.94555,0.00712,-0.35597,0.79369,-0.05918
-0.3315,0.94344,-0.00335,-0.21188,0.64398,-0.35896
-0.34586,0.93805,-0.02068,-0.04915,0.58157,-0.46232
-0.36769,0.92913,-0.03883,0.43289,0.19155,-0.35497
-0.39405,0.91781,-0.04835,0.34009,0.23194,-0.35265
-0.41456,0.90882,-0.04667,0.2282,0.30184,-0.32916
-0.42488,0.90438,-0.0396,0.1703,0.20306,-0.21226
-0.43135,0.90172,-0.02859,0.10907,0.27638,0.0183
-0.43577,0.89994,-0.01443,0.07255,0.28025,0.03755
-0.44018,0.8979,0.00254,0.02525,0.16599,0.08058
-0.44348,0.89602,0.02134,0.01036,-0.05101,0.03296
-0.44242,0.89605,0.03675,-0.01873,-0.22359,-0.03459
-0.43762,0.89799,0.04581,-0.04723,-0.38084,-0.10865
-0.43298,0.9001,0.04826,0.08726,-0.52847,-0.14769
-0.43044,0.90136,0.04747,0.13316,-0.54296,-0.12306
-0.42787,0.90248,0.04947,0.17877,-0.51568,-0.01647
-0.42461,0.90352,0.05784,0.14645,-0.49649,0.15209
-0.42096,0.90433,0.07054,0.13487,-0.49926,0.28552
-0.41784,0.90476,0.08252,0.10704,-0.49739,0.32086
-0.41565,0.90498,0.0907,0.00931,-0.41946,0.16396
-0.41191,0.9063,0.09456,0.00905,-0.35132,0.03579
-0.40577,0.90918,0.09348,0.05649,-0.17909,-0.18897
-0.40248,0.91083,0.09159,0.0161,0.1756,-0.01998
-0.40002,0.91127,0.09776,-0.00485,0.38175,0.12334
-0.39522,0.91116,0.11655,-0.18509,0.55116,0.33006
-0.38936,0.91075,0.13757,-0.23506,0.73674,0.11406
-0.38464,0.91096,0.14895,-0.31597,0.68335,0.07662
-0.37325,0.91429,0.15731,-0.08848,0.90872,0.23204
-0.3595,0.91711,0.17219,-0.0666,0.87387,0.28789
-0.35172,0.91689,0.18864,0.11198,0.30154,-0.00653
-0.35091,0.91787,0.18539,0.41573,-0.00057,-0.50349
-0.34929,0.92268,0.16322,0.4549,0.02881,-0.53529
-0.34268,0.92839,0.14368,0.34323,0.01211,-0.32152
-0.33348,0.93218,0.14075,0.02984,0.06344,-0.19078
-0.32866,0.93152,0.15569,-0.0747,0.0608,-0.2752
-0.32939,0.92936,0.16667,-0.19681,-0.07873,-0.26075
-0.33428,0.92841,0.16215,-0.06077,-0.05904,-0.16552
-0.34121,0.92892,0.14378,0.09908,-0.07293,-0.11662
-0.34745,0.93013,0.11883,0.24716,-0.14353,-0.05906
-0.35002,0.93196,0.09447,0.34619,-0.23822,0.01097
-0.34942,0.93383,0.07656,0.43435,-0.33495,0.03256
-0.35076,0.9341,0.06649,0.38045,-0.42386,-0.00955
-0.35736,0.93183,0.06306,0.02897,-0.36168,0.01041
-0.36563,0.92854,0.06415,-0.06747,-0.32324,-0.00638
-0.37333,0.92543,0.06469,-0.12428,-0.32392,-0.03397
-0.37893,0.92337,0.06153,-0.09481,-0.51056,-0.13819
-0.38014,0.92339,0.05323,-0.09869,-0.34981,-0.08906
-0.37485,0.92586,0.04742,-0.07182,-0.28602,-0.05392
-0.36369,0.93044,0.04473,0.0258,-0.00458,0.08285
-0.35201,0.93485,0.04619,0.07133,0.07048,0.20155
-0.34044,0.93889,0.05082,0.0402,0.05741,0.2627
-0.33196,0.94175,0.0537,-0.21795,0.11182,0.31307
-0.32699,0.94356,0.05249,-0.28986,0.20381,0.27222
-0.32306,0.94519,0.04729,-0.35286,0.19444,0.11587
-0.31987,0.94665,0.03895,-0.42152,0.45079,0.05308
-0.31873,0.94742,0.02836,-0.3627,0.527,-0.19253
-0.32429,0.9459,0.00979,-0.2479,0.50417,-0.38772
-0.33812,0.94099,-0.01425,0.00653,0.5115,-0.56029
-0.35998,0.9322,-0.03743,0.36431,0.29473,-0.48938
-0.38682,0.92086,-0.04863,0.36183,0.21183,-0.40269
-0.40991,0.9111,-0.04318,0.23514,0.16408,-0.30585
-0.42321,0.9055,-0.03092,0.30706,0.22431,-0.19466
-0.43422,0.90065,-0.01671,0.24872,0.38545,0.00701
-0.44428,0.89588,-0.00126,0.03917,0.4992,0.13056
-0.45297,0.89134,0.01797,-0.07835,0.35738,0.09241
-0.45921,0.88738,0.04095,-0.05154,0.03283,-0.02808
-0.459,0.88622,0.06253,-0.05119,-0.24125,-0.11171
-0.45334,0.88808,0.076,-0.05525,-0.52524,-0.15225
-0.44729,0.89112,0.0763,-0.01761,-0.57803,-0.17381
-0.44297,0.89379,0.07007,0.11175,-0.58565,-0.17668
-0.43944,0.89559,0.06936,0.19995,-0.45819,0.02398
-0.43707,0.89589,0.07965,0.18997,-0.43588,0.09736
-0.43472,0.89526,0.09754,0.16843,-0.50486,0.31971
-0.43132,0.89483,0.11499,0.14058,-0.54174,0.29227
-0.42779,0.89499,0.1264,0.10615,-0.54475,0.25393
-0.42236,0.89699,0.13045,0.04539,-0.36544,-0.0079
-0.4184,0.89953,0.12558,0.04099,-0.31251,-0.08844
-0.41729,0.90129,0.11632,0.05717,0.10689,-0.05454
-0.41515,0.90229,0.11625,0.06976,0.55874,0.11246
-0.40955,0.90309,0.12916,-0.1855,0.68413,0.24245
-0.40117,0.90389,0.14845,-0.44005,0.41465,0.24126
-0.3971,0.90389,0.15898,-0.17408,0.30907,0.02687
-0.38934,0.90718,0.15946,-0.16391,0.29157,0.21561
-0.37478,0.91274,0.16261,-0.09345,0.71091,0.37992
-0.36043,0.91619,0.17513,-0.07167,0.76235,0.29004
-0.35009,0.91736,0.18942,-0.05275,0.61145,-0.04689
-0.34612,0.91861,0.19062,0.31132,0.28106,-0.6117
-0.34209,0.92467,0.16719,0.41894,0.24673,-0.65142
-0.33027,0.9327,0.14487,0.23522,0.1197,-0.27297
-0.31893,0.93688,0.1433,0.05155,-0.03616,-0.1378
-0.31566,0.93542,0.15913,-0.09867,-0.17372,-0.27205
-0.32059,0.93255,0.16602,-0.16937,-0.22091,-0.21944
-0.3281,0.93197,0.15414,-0.03051,-0.10266,-0.1071
-0.33696,0.93221,0.13201,0.1214,-0.0752,-0.08263
-0.34395,0.93268,0.10865,0.27078,-0.1096,-0.05434
-0.34442,0.93469,0.08786,0.41921,-0.17315,0.01948
-0.34136,0.93717,0.07188,0.51117,-0.28848,0.03373
-0.34247,0.93747,0.06196,0.28998,-0.45777,0.02636
-0.35101,0.93448,0.05935,0.09539,-0.39678,0.04004
-0.36162,0.93027,0.06179,-0.15115,-0.26973,0.00321
-0.3706,0.92668,0.06251,-0.21436,-0.28081,-0.11056
-0.37722,0.9242,0.05955,-0.22553,-0.40966,-0.18177
-0.37645,0.92482,0.05453,-0.17689,-0.45239,-0.10333
-0.36664,0.92898,0.05052,-0.09175,-0.38092,0.02394
-0.35168,0.935,0.04573,-0.00882,-0.07237,0.12052
-0.33704,0.94054,0.04226,0.11406,0.01886,0.19202
-0.32347,0.94537,0.04027,0.03163,0.13374,0.30451
-0.31519,0.94821,0.03908,-0.1938,0.20512,0.33792
-0.31199,0.94936,0.03696,-0.27537,0.29509,0.25369
-0.31003,0.95013,0.03343,-0.42235,0.43831,-0.05423
-0.30731,0.95121,0.0273,-0.43266,0.51489,0.06953
-0.30579,0.95194,0.01724,-0.42335,0.55304,-0.04775
-0.31224,0.95,0.00018,-0.0246,0.47569,-0.53788
-0.32941,0.94395,-0.02088,0.11801,0.45412,-0.51731
-0.35284,0.93486,-0.03916,0.35111,0.21756,-0.36603
-0.37896,0.92438,-0.04351,0.28776,0.15979,-0.34606
-0.39856,0.91645,-0.03548,0.23689,0.17829,-0.30987
-0.41166,0.91101,-0.0242,0.24003,0.14255,-0.19142
-0.42296,0.90607,-0.01172,0.08585,0.41415,0.06964
-0.43299,0.90138,0.0034,-0.03142,0.4306,0.10677
-0.44125,0.897,0.02601,-0.14167,0.27874,0.1066
-0.44493,0.89409,0.05117,-0.09483,-0.13607,-0.07656
-0.44168,0.89428,0.07193,-0.09238,-0.24468,-0.12612
-0.43447,0.89689,0.08255,-0.08659,-0.41984,-0.169
-0.4271,0.90066,0.07982,0.06571,-0.53325,-0.16274
-0.42086,0.90438,0.07041,0.14125,-0.51066,-0.13636
-0.4153,0.90724,0.06658,0.22716,-0.40559,0.04411
-0.41197,0.90822,0.0735,0.21179,-0.41011,0.12496
-0.4083,0.90867,0.08715,0.17138,-0.48696,0.2839
-0.40393,0.90915,0.1013,0.12194,-0.52724,0.25936
-0.40013,0.90959,0.1119,0.0385,-0.51724,0.10067
-0.39516,0.91119,0.11645,0.03799,-0.36513,-0.09241
-0.39132,0.91317,0.11386,0.07026,-0.16368,-0.14293
-0.38946,0.9142,0.11202,0.1291,0.15994,0.01327
-0.38757,0.91409,0.11923,0.01582,0.47887,0.22377
-0.38134,0.914,0.13843,-0.44955,0.52844,0.2899
-0.37269,0.91479,0.15573,-0.37168,0.51246,0.06781
-0.36809,0.91704,0.1534,-0.15977,0.4668,-0.06739
-0.3579,0.92157,0.15032,-0.12699,0.63438,0.18344
-0.346,0.9243,0.16102,-0.05842,0.88032,0.32834
-0.33646,0.92346,0.18438,-0.02449,0.75256,0.2782
-0.33147,0.92173,0.20132,0.11683,0.19262,-0.25988
-0.32934,0.92465,0.19115,0.47801,0.16126,-0.67995
-0.32004,0.93295,0.16483,0.4061,0.21029,-0.5947
-0.30758,0.93921,0.15249,0.1622,0.08757,-0.1714
-0.30141,0.93934,0.16367,-0.03445,-0.02971,-0.24106
-0.30594,0.93535,0.17748,-0.09131,-0.0969,-0.31559
-0.31574,0.9327,0.17422,-0.09596,-0.14048,-0.18567
-0.32681,0.93187,0.15747,0.03791,-0.062,-0.09629
-0.33688,0.93179,0.13517,0.11575,-0.06588,-0.06439
-0.34264,0.93287,0.11107,0.35841,-0.11921,-0.03711
-0.34364,0.93458,0.09189,0.47907,-0.22325,0.01172
-0.3443,0.93531,0.08145,0.48142,-0.30804,0.00264
-0.35025,0.93345,0.0773,0.33394,-0.43593,0.00731
-0.3614,0.92917,0.07754,0.01594,-0.33509,0.01383
-0.37323,0.92438,0.07879,-0.08635,-0.28021,-0.01462
-0.38363,0.92024,0.07729,-0.26786,-0.26146,-0.17075
-0.38875,0.91842,0.07316,-0.29585,-0.38746,-0.15057
-0.38398,0.92071,0.06958,-0.29692,-0.3749,-0.11319
-0.37091,0.92624,0.06706,-0.12219,-0.29335,0.0557
-0.35492,0.93272,0.0637,-0.00436,-0.05111,0.15055
-0.34001,0.93843,0.061,0.0556,0.00375,0.22005
-0.32779,0.94292,0.05859,-0.2491,0.14301,0.34296
-0.3223,0.94501,0.05525,-0.25459,0.14092,0.3463
-0.32173,0.94555,0.04918,-0.2666,0.19931,0.3187
-0.32262,0.9457,0.03949,-0.30652,0.29829,0.09146
-0.32345,0.94583,0.02758,-0.3118,0.47221,0.05706
-0.32676,0.94498,0.01483,-0.324,0.58585,-0.1319
-0.3383,0.94103,-0.00213,-0.03495,0.50579,-0.49904
-0.35659,0.93403,-0.02025,0.30803,0.32959,-0.45462
-0.37914,0.92477,-0.03218,0.34813,0.20916,-0.37691
-0.40167,0.91521,-0.03217,0.30213,0.15718,-0.36051
-0.41707,0.90856,-0.02334,0.26996,0.16903,-0.27246
-0.42938,0.90302,-0.01327,0.22868,0.23894,-0.10116
-0.43882,0.89855,-0.00502,0.15574,0.48701,0.07489
-0.44594,0.89502,0.0079,-0.06848,0.38699,0.11058
-0.45076,0.89209,0.03126,-0.07174,0.22317,0.04773
-0.45002,0.89109,0.05842,-0.03635,-0.07768,-0.09166
-0.44288,0.89301,0.07984,-0.05522,-0.41907,-0.12943
-0.43446,0.89655,0.08612,-0.05028,-0.50704,-0.13416
-0.42739,0.90069,0.07791,0.05081,-0.59971,-0.13546
-0.42035,0.90483,0.06757,0.19869,-0.54177,-0.02541
-0.41434,0.90768,0.06644,0.18659,-0.51413,0.05726
-0.40928,0.90927,0.07553,0.15225,-0.45814,0.20509
-0.40385,0.91056,0.0882,0.11483,-0.4966,0.30395
-0.39865,0.91191,0.09735,0.07577,-0.50551,0.2932
-0.39353,0.91371,0.10118,-0.00261,-0.45362,0.1823
-0.38963,0.91573,0.09803,0.02624,-0.1758,-0.13773
-0.39162,0.9155,0.09202,0.02716,0.10044,-0.0882
-0.39547,0.9134,0.09632,0.04637,0.39728,0.16688
-0.39582,0.91086,0.11676,0.07789,0.52838,0.25902
-0.39072,0.90939,0.14255,-0.26603,0.54797,0.29214
-0.38567,0.90991,0.15265,-0.3101,0.37662,0.00879
-0.376,0.91429,0.15057,-0.14768,0.37128,0.0915
-0.3657,0.91824,0.15192,-0.06467,0.75892,0.24287
-0.35563,0.92033,0.16279,-0.01341,0.76064,0.14813
-0.34658,0.92205,0.17228,0.02757,0.61246,-0.02994
-0.34223,0.92349,0.17327,0.14762,0.40259,-0.24884
-0.33777,0.92721,0.16178,0.42917,0.04557,-0.63949
-0.32726,0.93245,0.15304,0.20484,0.02017,-0.38908
-0.3177,0.9346,0.15992,0.07062,0.02076,-0.27153
-0.31725,0.93224,0.17395,-0.21028,-0.22657,-0.32832
-0.32402,0.92978,0.17467,-0.19136,-0.25178,-0.24501
-0.33258,0.92903,0.16208,-0.11032,-0.17114,-0.15512
-0.34149,0.92895,0.14291,0.15028,-0.0709,-0.02746
-0.34563,0.93034,0.12241,0.31001,-0.07735,0.00483
-0.34485,0.93298,0.103,0.38492,-0.10841,0.01673
-0.34261,0.93512,0.09023,0.5173,-0.29641,-0.01861
-0.34544,0.93448,0.08607,0.37361,-0.45819,-0.05
-0.35295,0.9314,0.08889,0.24488,-0.46637,-0.0327
-0.3618,0.92769,0.09207,-0.10465,-0.31224,-0.04022
-0.36961,0.92476,0.09044,-0.16961,-0.40566,-0.14721
-0.37276,0.92409,0.08419,-0.16646,-0.40499,-0.14097
-0.36722,0.92675,0.07913,-0.20305,-0.15824,-0.02052
-0.35341,0.93222,0.07775,-0.14514,-0.1142,0.03412
-0.33637,0.93842,0.07875,-0.10232,-0.03745,0.0836
-0.31966,0.94413,0.08012,0.03937,-0.01135,0.22809
-0.30651,0.94869,0.07756,-0.06987,-0.00573,0.25664
-0.29954,0.95136,0.07194,-0.23521,0.03286,0.25067
-0.29778,0.95233,0.06607,-0.30413,0.16143,0.16346
-0.2986,0.95256,0.05878,-0.37468,0.35923,0.05323
-0.30127,0.95237,0.04689,-0.4758,0.56337,0.06733
-0.3086,0.95072,0.0297,-0.43426,0.57342,-0.21353
-0.32177,0.9467,0.01414,-0.12597,0.54384,-0.47125
-0.34015,0.94036,0.00023,0.05501,0.4202,-0.44927
-0.36303,0.93168,-0.0125,0.39765,0.19246,-0.48711
-0.38648,0.92214,-0.01622,0.35762,0.13715,-0.39632
-0.40143,0.91581,-0.01088,0.20806,0.03876,-0.22058
-0.41147,0.91141,-0.00061,0.21105,0.05131,-0.06739
-0.41869,0.90802,0.01353,0.13967,0.23497,0.08016
-0.42487,0.90468,0.03182,-0.01295,0.39234,0.09377
-0.42816,0.90193,0.05644,-0.13602,0.22937,0.03656
-0.42634,0.90104,0.07967,-0.12511,-0.16385,-0.08983
-0.42028,0.90246,0.0944,-0.11782,-0.25473,-0.11613
-0.4138,0.90526,0.09624,-0.10585,-0.41275,-0.13119
-0.40834,0.90861,0.08756,0.13865,-0.48503,-0.16636
-0.40201,0.91219,0.07922,0.20145,-0.45191,-0.13478
-0.39754,0.91404,0.08042,0.23213,-0.40559,-0.00578
-0.39365,0.9148,0.09031,0.21497,-0.45458,0.21217
-0.38946,0.91537,0.10198,0.18792,-0.47521,0.22231
-0.38649,0.9156,0.11082,0.06604,-0.45733,0.20762
-0.38417,0.91604,0.11515,0.00173,-0.44486,0.16891
-0.3799,0.91813,0.11264,-0.01978,-0.34405,0.05745
-0.37468,0.92105,0.10611,0.11827,-0.04938,-0.09367
-0.36921,0.92354,0.10366,0.12881,0.23972,-0.00242
-0.36362,0.92472,0.11245,0.03367,0.45926,0.14464
-0.35675,0.92512,0.12986,-0.28427,0.43793,0.17811
-0.35364,0.92415,0.14443,-0.39383,0.51747,0.00787
-0.35189,0.9236,0.15204,-0.43224,0.55041,0.10233
-0.34392,0.92494,0.16183,-0.25221,0.80951,0.32718
-0.3364,0.92442,0.1796,-0.1956,0.72346,0.27362
-0.3329,0.92241,0.19577,-0.07312,0.40354,0.03464
-0.33222,0.92415,0.18854,0.32961,0.10409,-0.49033
-0.32671,0.93103,0.16253,0.45943,0.12603,-0.52876
-0.31614,0.93738,0.14614,0.38537,0.06917,-0.40774
-0.30592,0.93998,0.15112,0.11297,0.02032,-0.15083
-0.30439,0.93756,0.16828,-0.1208,-0.02954,-0.26474
-0.31028,0.93481,0.1727,-0.17219,-0.07988,-0.28221
-0.31907,0.93423,0.15931,-0.01386,0.00342,-0.13787
-0.32996,0.93426,0.13515,0.1373,-0.02038,-0.07125
-0.33819,0.93472,0.10916,0.20266,-0.05139,-0.03292
-0.34042,0.93598,0.08962,0.40491,-0.11399,0.02781
-0.34155,0.93639,0.08062,0.47937,-0.22444,0.03075
-0.34745,0.93446,0.07771,0.49161,-0.29253,0.01195
-0.3589,0.93022,0.07657,0.20116,-0.45668,-0.05851
-0.3724,0.92489,0.07671,-0.15708,-0.29119,-0.09652
-0.3841,0.92006,0.07706,-0.22769,-0.25938,-0.11632
-0.39184,0.9168,0.07698,-0.31397,-0.248,-0.12715
-0.39093,0.9173,0.07556,-0.23797,-0.43982,-0.04766
-0.38097,0.9217,0.07289,-0.09391,-0.52601,0.01868
-0.36458,0.9287,0.06772,0.04961,-0.36533,0.10143
-0.34572,0.93622,0.06289,0.11499,-0.04768,0.17144
-0.32798,0.94278,0.05979,0.08772,0.03067,0.1876
-0.31569,0.94715,0.05673,-0.17372,0.05065,0.20136
-0.31102,0.94902,0.05111,-0.33202,0.12285,0.24653
-0.31103,0.94936,0.04417,-0.3295,0.26788,0.17751
-0.31171,0.9495,0.03546,-0.35991,0.40459,-0.06848
-0.31282,0.94943,0.02649,-0.4468,0.47531,0.12538
-0.32132,0.9469,0.0111,-0.32283,0.56928,-0.12182
-0.33908,0.94073,-0.00626,-0.11786,0.65818,-0.28246
-0.36054,0.93244,-0.02338,0.37673,0.33486,-0.37553
-0.38149,0.9237,-0.03495,0.53707,0.18879,-0.34921
-0.40143,0.91515,-0.0366,0.49394,0.05966,-0.42869
-0.41622,0.90867,-0.03262,0.17892,0.18659,-0.22849
-0.42866,0.90309,-0.02561,0.21612,0.19717,-0.22162
-0.44161,0.89708,-0.0141,0.10096,0.4365,0.03453
-0.45438,0.89079,0.00185,-0.01463,0.45161,0.09055
-0.46308,0.88609,0.01974,-0.14583,0.2241,0.02843
-0.46387,0.88515,0.03628,-0.16566,-0.11708,-0.04687
-0.45788,0.88767,0.04876,-0.17166,-0.1196,-0.05935
-0.45019,0.89144,0.05151,-0.0854,-0.47354,-0.12299
-0.4427,0.89556,0.04449,0.08106,-0.55068,-0.13033
-0.43505,0.89955,0.03892,0.19754,-0.50875,-0.03485
-0.42893,0.90233,0.04231,0.20728,-0.46488,0.09679
-0.42355,0.90431,0.05298,0.19308,-0.45833,0.24213
-0.41759,0.90629,0.0651,0.18738,-0.4775,0.28155
-0.41286,0.90769,0.075,0.11579,-0.46782,0.25175
-0.40813,0.9093,0.08106,0.03217,-0.38919,0.18789
-0.4045,0.91088,0.08157,-0.01044,-0.27993,0.05198
-0.40288,0.91191,0.07799,0.0293,-0.20425,-0.06056
-0.40037,0.91314,0.07651,0.14368,-0.02328,-0.01633
-0.39637,0.91399,0.08653,0.10337,0.34587,0.13271
-0.39065,0.91399,0.10948,-0.20809,0.46107,0.29235
-0.38215,0.91454,0.13252,-0.46623,0.45649,0.08188
-0.37385,0.91721,0.1376,-0.3326,0.44773,0.00121
-0.35998,0.92265,0.13821,-0.22518,0.40552,0.03787
-0.34557,0.92636,0.14975,-0.13113,0.79453,0.37432
-0.33718,0.92597,0.16988,-0.04277,0.65178,0.1512
-0.33453,0.92429,0.18372,-0.00492,0.49546,-0.11854
-0.3327,0.92759,0.16991,0.44665,0.17358,-0.73688
-0.32335,0.9347,0.14752,0.33963,0.09626,-0.38018
-0.31197,0.93935,0.14239,0.20983,0.05477,-0.17512
-0.30748,0.93816,0.15904,-0.08835,-0.03839,-0.09308
-0.31133,0.93467,0.17158,-0.20993,-0.18701,-0.23139
-0.31669,0.9346,0.16192,-0.13552,-0.21902,-0.16959
-0.32263,0.93637,0.13825,0.07212,-0.11875,-0.11774
-0.32814,0.93814,0.11045,0.2401,-0.09423,-0.10789
-0.33163,0.93969,0.08353,0.37559,-0.10586,-0.05629
-0.33212,0.94108,0.06364,0.4649,-0.10734,-0.00132
-0.33439,0.94093,0.05304,0.43922,-0.29313,-0.04567
-0.3451,0.93735,0.04747,0.27904,-0.48351,-0.06405
-0.35982,0.93186,0.04626,-0.01333,-0.36527,-0.0652
-0.37044,0.92764,0.04725,-0.16393,-0.24516,-0.13003
-0.37782,0.92462,0.04803,-0.19455,-0.23622,-0.12509
-0.37985,0.92389,0.04613,-0.15392,-0.34916,-0.03551
-0.37181,0.92733,0.04245,-0.07496,-0.36809,0.07612
-0.35631,0.93357,0.03832,0.0045,-0.21145,0.15676
-0.33855,0.94037,0.03276,0.04963,-0.08072,0.22676
-0.32183,0.94644,0.02551,-0.03496,0.06615,0.20702
-0.30825,0.95112,0.01812,-0.21767,0.19295,0.22141
-0.30022,0.95377,0.01316,-0.3327,0.26935,0.23694
-0.29702,0.95479,0.01161,-0.42312,0.31387,0.05916
-0.2968,0.95488,0.00971,-0.49072,0.38507,-0.00538
-0.29822,0.95447,0.00515,-0.48952,0.51777,0.05075
-0.30383,0.95269,-0.0075,-0.07149,0.48875,-0.3905
-0.31914,0.94735,-0.02561,0.05107,0.43668,-0.40388
-0.34187,0.93873,-0.04346,0.33691,0.29124,-0.40469
-0.36786,0.92837,-0.05286,0.32017,0.12385,-0.36979
-0.39061,0.91906,-0.05235,0.25709,0.18412,-0.33371
-0.40428,0.91348,-0.04567,0.2157,0.20329,-0.21544
-0.41479,0.9092,-0.03575,0.19772,0.26682,-0.08916
-0.42158,0.90648,-0.02331,0.09361,0.40546,0.10556
-0.4271,0.90418,-0.00435,-0.00205,0.23292,0.08165
-0.43035,0.90243,0.0198,-0.01883,0.06691,-0.00219
-0.42793,0.90275,0.04356,-0.05849,-0.15508,-0.0935
-0.42071,0.9053,0.05842,-0.10796,-0.39539,-0.09147
-0.41418,0.90841,0.05679,-0.00036,-0.49241,-0.11665
-0.40867,0.91162,0.04374,0.07716,-0.47047,-0.1183
-0.40334,0.9144,0.03419,0.18022,-0.48847,0.0782
-0.40005,0.91579,0.03561,0.15703,-0.47994,0.15238
-0.39663,0.91685,0.04521,0.14033,-0.5282,0.21434
-0.39245,0.91812,0.05487,0.1395,-0.50806,0.23814
-0.3885,0.9195,0.05963,0.08632,-0.40324,0.19667
-0.38443,0.92122,0.05957,0.06046,-0.33838,0.14806
-0.38064,0.92305,0.05539,0.08601,-0.08025,0.00165
-0.37736,0.92445,0.0545,0.19544,0.17588,0.01721
-0.37386,0.92538,0.06235,0.12165,0.28117,0.04831
-0.36949,0.92555,0.08257,-0.14095,0.42663,0.28547
-0.36457,0.92501,0.10686,-0.35571,0.57403,0.00348
-0.36188,0.92444,0.12014,-0.40065,0.62221,-0.04998
-0.35324,0.92683,0.12718,-0.28555,0.81536,0.13499
-0.34003,0.92979,0.14088,-0.15991,0.7119,0.35314
-0.33292,0.92997,0.15587,-0.06483,0.37708,0.24509
-0.33155,0.93012,0.15787,0.23641,0.05051,-0.2018
-0.33049,0.93264,0.14469,0.38123,0.14768,-0.416
-0.3246,0.9365,0.13258,0.28894,0.08263,-0.29308
-0.31587,0.93997,0.12907,0.14684,0.06701,-0.19681
-0.31055,0.94025,0.13953,-0.15063,-0.04018,-0.37433
-0.31275,0.9377,0.15128,-0.21034,-0.0744,-0.35722
-0.31896,0.93567,0.15088,-0.1955,-0.04194,-0.21706
-0.32633,0.93518,0.13757,-0.05939,0.02706,-0.10224
-0.33409,0.93532,0.11631,0.13312,-0.06339,-0.04615
-0.33733,0.93652,0.09544,0.31872,-0.14864,0.00242
-0.33623,0.93846,0.0789,0.46375,-0.24507,0.05229
-0.33623,0.93942,0.0665,0.51338,-0.39988,0.02824
-0.34271,0.93771,0.05686,0.37744,-0.54344,-0.00439
-0.35432,0.93369,0.05154,-0.01037,-0.3617,-0.03103
-0.36608,0.92916,0.0513,-0.08796,-0.32201,-0.06337
-0.37536,0.9254,0.05211,-0.15886,-0.3662,-0.12732
-0.37847,0.92428,0.04952,-0.13145,-0.33861,-0.11799
-0.37232,0.92697,0.04571,-0.10654,-0.31125,-0.07824
-0.35779,0.93275,0.04415,-0.02803,-0.1487,0.07314
-0.34098,0.93895,0.04567,0.07948,-0.01053,0.20978
-0.3262,0.94409,0.04766,-0.02109,-0.01965,0.25714
-0.31509,0.94796,0.04553,-0.26015,0.03523,0.27784
-0.30971,0.95004,0.03846,-0.31201,0.12261,0.2863
-0.30746,0.95105,0.03097,-0.31814,0.26789,0.22777
-0.30525,0.95195,0.0244,-0.4211,0.51552,0.05042
-0.30278,0.95287,0.01859,-0.4434,0.52881,0.08218
-0.3053,0.95222,0.00777,-0.37373,0.56968,-0.0719
-0.31754,0.94818,-0.00963,-0.06721,0.5178,-0.43248
-0.33637,0.9412,-0.03141,0.25147,0.24739,-0.48439
-0.35923,0.93176,-0.05255,0.44134,0.16469,-0.55083
-0.38348,0.92136,-0.0634,0.24575,0.17909,-0.4488
-0.39931,0.915,-0.05744,0.24335,0.14168,-0.29953
-0.4103,0.91102,-0.04087,0.19067,0.31447,-0.04
-0.41862,0.90794,-0.0197,-0.04583,0.3919,0.2037
-0.42775,0.90388,0.00224,-0.09182,0.30799,0.1704
-0.43389,0.90057,0.02623,-0.10926,0.18276,0.09204
-0.43455,0.89929,0.04923,-0.13454,-0.21448,-0.0457
-0.4293,0.90073,0.06609,-0.11434,-0.39293,-0.10999
-0.42268,0.90368,0.06837,-0.09482,-0.46615,-0.14255
-0.41715,0.90709,0.05618,0.16843,-0.51733,-0.17705
-0.41173,0.91036,0.04118,0.28083,-0.47051,-0.07485
-0.4075,0.91252,0.03497,0.29353,-0.47068,0.0127
-0.40306,0.91428,0.04024,0.30189,-0.43378,0.27882
-0.39843,0.9157,0.0522,0.2333,-0.44448,0.36533
-0.39428,0.9168,0.06323,0.17102,-0.43793,0.35742
-0.38994,0.9182,0.06949,-0.01014,-0.32375,0.20889
-0.38618,0.9198,0.06936,-0.06629,-0.23226,-0.0114
-0.38276,0.92168,0.06305,-0.03278,-0.10344,-0.16081
-0.37959,0.92328,0.05875,0.03735,0.10733,-0.15328
-0.37719,0.92381,0.06535,0.00556,0.39616,0.08631
-0.3754,0.92313,0.08302,-0.22255,0.47046,0.30702
-0.37366,0.92211,0.10034,-0.38593,0.29377,0.17119
-0.37073,0.92281,0.10466,-0.22119,0.37405,0.1358
-0.36089,0.92615,0.10942,-0.26493,0.49062,0.23497
-0.34521,0.9299,0.12685,-0.2022,0.88328,0.43339
-0.33123,0.93134,0.15125,-0.06903,0.66401,0.19943
-0.32926,0.93022,0.16205,0.01852,0.37999,-0.20963
-0.33079,0.93272,0.1435,0.45747,0.08947,-0.66602
-0.32341,0.93926,0.11482,0.44957,0.12713,-0.44635
-0.31351,0.9441,0.10184,0.25389,0.05801,-0.1312
-0.30975,0.94396,0.11388,0.04101,-0.04539,-0.14008
-0.3133,0.94018,0.1337,-0.23663,-0.07739,-0.22321
-0.31864,0.93806,0.13599,-0.22663,0.01225,-0.16323
-0.326,0.93748,0.12178,-0.05179,0.06974,-0.10396
-0.33345,0.93757,0.09875,0.18307,-0.03372,-0.07222
-0.33612,0.93887,0.07439,0.2808,-0.0731,-0.0332
-0.33338,0.94109,0.05638,0.46253,-0.25492,0.03328
-0.33133,0.94237,0.04636,0.47915,-0.35058,0.02601
-0.33555,0.94115,0.04024,0.40666,-0.49624,0.02233
-0.34697,0.93712,0.03748,0.0325,-0.43013,-0.00393
-0.36006,0.93219,0.03698,-0.06412,-0.36895,-0.03701
-0.37012,0.92832,0.03489,-0.14364,-0.36969,-0.11152
-0.37296,0.92745,0.02696,-0.1167,-0.35791,-0.11922
-0.36723,0.92995,0.01783,-0.10682,-0.23296,-0.01658
-0.35521,0.93466,0.01459,-0.06992,-0.1693,0.03229
-0.34204,0.93954,0.01563,0.08385,0.04938,0.18485
-0.3317,0.94318,0.01902,0.08271,0.07302,0.22999
-0.32301,0.94614,0.02163,-0.0324,0.0735,0.28287
-0.31784,0.94789,0.02137,-0.33989,0.19257,0.11557
-0.31532,0.94881,0.01773,-0.36643,0.32959,0.01243
-0.31152,0.95017,0.0105,-0.40424,0.51324,-0.01385
-0.31044,0.95057,-0.00421,-0.34523,0.84151,-0.05265
-0.31897,0.94744,-0.02431,-0.30371,0.80654,-0.13243
-0.33493,0.94143,-0.03887,-0.16832,0.66427,-0.18432
-0.35011,0.9353,-0.05126,0.59089,0.19544,-0.53515
-0.36865,0.92744,-0.06272,0.46568,0.13736,-0.42477
-0.38647,0.91995,-0.06573,0.27719,0.10608,-0.30706
-0.39867,0.91526,-0.05777,0.13839,0.00638,-0.05066
-0.40862,0.91171,-0.04238,0.11567,0.07021,0.03759
-0.41706,0.90855,-0.02416,0.03775,0.26646,0.08674
-0.4227,0.90625,-0.00534,-0.02001,0.30407,0.0567
-0.42565,0.90483,0.0092,-0.12831,0.12846,-0.05436
-0.42513,0.90491,0.01952,-0.14682,-0.05822,-0.08805
-0.42236,0.90601,0.02717,-0.08624,-0.30422,-0.0906
-0.41917,0.90743,0.02913,0.0753,-0.50445,-0.08614
-0.41577,0.90904,0.02771,0.20384,-0.55526,-0.01963
-0.41238,0.91053,0.02952,0.20618,-0.54561,0.09379
-0.40995,0.91134,0.0372,0.16764,-0.50506,0.21939
-0.40738,0.91189,0.0497,0.16599,-0.49141,0.28794
-0.40437,0.9125,0.06174,0.12715,-0.48635,0.2546
-0.40009,0.91383,0.06952,0.0546,-0.38129,0.20581
-0.39442,0.9158,0.07566,-0.00333,-0.27847,0.09332
-0.39008,0.91726,0.08036,0.03323,-0.2459,-0.05426
-0.38819,0.91758,0.08563,0.19555,0.05565,0.06163
-0.38439,0.91798,0.0977,0.25041,0.29891,0.18259
-0.37951,0.91756,0.11845,0.06082,0.42564,0.35971
-0.37591,0.91655,0.13643,-0.14078,0.66286,-0.00193
-0.3707,0.9181,0.14018,-0.18514,0.7934,-0.00331
-0.35702,0.92276,0.14505,-0.25561,0.92969,0.26101
-0.34287,0.92491,0.16422,-0.14552,0.76964,0.2933
-0.3331,0.92532,0.18111,0.07252,0.35175,0.11084
-0.32837,0.92713,0.18048,0.3761,0.10093,-0.39076
-0.32682,0.93019,0.16706,0.33896,0.12018,-0.39604
-0.32237,0.93341,0.15746,0.16661,0.11006,-0.32582
-0.31441,0.93649,0.15527,-0.05394,0.0359,-0.34931
-0.30604,0.93851,0.15972,-0.13615,0.00221,-0.41821
-0.30403,0.93886,0.16153,-0.32478,-0.13266,-0.37493
-0.30807,0.93873,0.15446,-0.17945,-0.1193,-0.19085
-0.31476,0.93903,0.13829,-0.03646,-0.10497,-0.10337
-0.32214,0.93946,0.11667,0.16641,-0.09356,0.00364
-0.32566,0.94082,0.09373,0.41013,-0.10163,0.10387
-0.32559,0.94253,0.0749,0.48214,-0.20016,0.12522
-0.32659,0.94309,0.06238,0.51437,-0.27483,0.07849
-0.3314,0.94182,0.05595,0.14784,-0.43942,-0.02923
-0.33955,0.93903,0.05392,0.01921,-0.37996,-0.03389
-0.34881,0.93553,0.0557,-0.16503,-0.31123,-0.09393
-0.356,0.93275,0.05672,-0.2227,-0.36839,-0.16025
-0.35963,0.93152,0.05398,-0.15253,-0.56775,-0.13241
-0.35553,0.93341,0.04829,-0.1044,-0.39138,-0.05645
-0.34384,0.938,0.04366,0.00196,-0.12302,0.07095
-0.32887,0.94346,0.04131,0.08769,0.07706,0.1482
-0.31457,0.94815,0.04515,0.02513,0.06514,0.22473
-0.30152,0.95208,0.05106,-0.1752,0.07488,0.27993
-0.29426,0.9543,0.05207,-0.31359,0.18744,0.25712
-0.29224,0.95517,0.04704,-0.38845,0.23109,0.15941
-0.29024,0.95615,0.03889,-0.45321,0.31654,-0.00772
-0.28813,0.95708,0.03095,-0.57361,0.51065,0.08724
-0.29136,0.95641,0.01911,-0.53824,0.57688,-0.13782
-0.30095,0.95363,0.00131,-0.18137,0.58272,-0.35808
-0.31661,0.94833,-0.02021,0.17727,0.40348,-0.47829
-0.33827,0.94014,-0.04121,0.46722,0.22236,-0.47248
-0.36521,0.92945,-0.05216,0.3242,0.05082,-0.42898
-0.38573,0.92119,-0.05094,0.21482,0.09898,-0.16834
-0.39903,0.91612,-0.03843,0.20676,0.14661,-0.08018
-0.40966,0.91201,-0.01989,0.11709,0.35975,0.10255
-0.41673,0.90902,0.00011,-0.12952,0.31942,0.14887
-0.42172,0.90644,0.02212,-0.13072,0.17035,0.06872
-0.42393,0.90475,0.04113,-0.1332,-0.13447,-0.10592
-0.41985,0.90589,0.05539,-0.13609,-0.35233,-0.1402
-0.41253,0.90898,0.05969,-0.1146,-0.42085,-0.13392
-0.40525,0.91283,0.04991,0.04525,-0.52307,-0.15613
-0.39858,0.91634,0.03778,0.25011,-0.47918,-0.12292
-0.39435,0.91821,0.0368,0.24359,-0.47254,-0.02634
-0.39244,0.91855,0.04723,0.23172,-0.40841,0.2196
-0.38955,0.91881,0.06344,0.20843,-0.39383,0.26213
-0.38739,0.91852,0.07893,0.14525,-0.38969,0.26933
-0.38763,0.9174,0.08997,0.07079,-0.36189,0.17314
-0.38721,0.91702,0.09549,0.07861,-0.32259,0.06625
-0.38599,0.91744,0.09641,0.11879,-0.09224,-0.07433
-0.38142,0.91897,0.09998,0.026,0.13848,-0.02791
-0.37693,0.91939,0.11237,-0.06085,0.29004,0.0041
-0.37216,0.91884,0.13115,-0.37746,0.46093,0.13322
-0.37033,0.91774,0.1435,-0.57881,0.25326,-0.00771
-0.36934,0.91816,0.14332,-0.2331,0.49946,0.05941
-0.36018,0.92168,0.14409,-0.18097,0.59558,0.19049
-0.34646,0.92448,0.15899,-0.04614,0.78712,0.39602
-0.33725,0.92335,0.18347,0.04938,0.51774,0.11671
-0.33837,0.92023,0.19662,0.20835,0.11322,-0.31551
-0.33869,0.92314,0.1819,0.49067,0.20615,-0.58035
-0.33026,0.93125,0.15388,0.39898,0.13729,-0.34771
-0.3157,0.93867,0.1386,0.24319,0.07589,-0.1296
-0.30527,0.94106,0.14556,0.02849,0.0473,-0.1803
-0.30598,0.9384,0.16047,-0.1145,0.01987,-0.23644
-0.31346,0.93612,0.15938,-0.06901,-0.03821,-0.19339
-0.32302,0.93538,0.1439,0.0246,-0.08581,-0.1406
-0.33127,0.93542,0.12338,0.13248,-0.14697,-0.09186
-0.33505,0.93677,0.10087,0.28569,-0.22506,-0.05076
-0.33304,0.93941,0.08102,0.35796,-0.32454,-0.01284
-0.33118,0.94103,0.06892,0.40395,-0.44344,-0.06098
-0.33587,0.93976,0.06337,0.28897,-0.43686,-0.05115
-0.34646,0.936,0.06197,0.02079,-0.28032,-0.0268
-0.35683,0.93217,0.06082,-0.13444,-0.19182,-0.05611
-0.36581,0.9288,0.05906,-0.22233,-0.18407,-0.09417
-0.3718,0.92652,0.05749,-0.21323,-0.26187,-0.0807
-0.37074,0.92702,0.05619,-0.01021,-0.47455,0.0127
-0.36127,0.93098,0.05228,0.04395,-0.43318,0.03759
-0.34698,0.9367,0.04659,0.04591,-0.11927,0.13688
-0.33201,0.94222,0.04432,-0.02165,0.00842,0.264
-0.32021,0.94633,0.04371,-0.11552,0.02334,0.27914
-0.31527,0.94812,0.04063,-0.27973,0.08324,0.27167
-0.31498,0.94851,0.0331,-0.35237,0.29809,0.20434
-0.31406,0.94912,0.02277,-0.3466,0.33491,0.09727
-0.31088,0.95037,0.01111,-0.42431,0.49804,0.02389
-0.31002,0.95072,7e-05,-0.38813,0.5681,0.02788
-0.3152,0.94886,-0.01692,-0.18967,0.68001,-0.16873
-0.32846,0.94373,-0.0382,0.03874,0.52773,-0.37596
-0.347,0.93587,-0.06093,0.43062,0.23813,-0.39157
-0.36943,0.92614,-0.07592,0.55494,0.04998,-0.48005
-0.39135,0.9169,-0.07826,0.30303,0.14286,-0.38497
-0.40701,0.9106,-0.07154,0.25436,0.11863,-0.21935
-0.42036,0.90553,-0.05725,0.28217,0.16241,-0.02034
-0.43174,0.90105,-0.04101,0.17656,0.3125,0.16599
-0.43922,0.89803,-0.02471,-0.02677,0.22154,0.14168
-0.44083,0.89754,-0.00758,-0.01406,0.11988,0.05445
-0.43633,0.89975,0.00711,-0.03614,-0.08174,-0.03825
-0.42736,0.90394,0.0155,-0.08278,-0.32389,-0.0908
-0.41888,0.90791,0.01482,-0.0637,-0.38538,-0.11164
-0.41439,0.91004,0.00916,0.08265,-0.43352,-0.11981
-0.41212,0.91108,0.00803,0.09013,-0.41928,-0.0596
-0.41065,0.91164,0.01597,0.09602,-0.40563,0.10232
-0.4092,0.91195,0.02962,0.10474,-0.49645,0.31979
-0.40615,0.9128,0.04266,0.10169,-0.4973,0.30675
-0.4033,0.9136,0.05158,0.09672,-0.53176,0.27652
-0.39986,0.91481,0.05657,0.02624,-0.4659,0.13264
-0.39521,0.9168,0.0571,0.08818,-0.27793,-0.03867
-0.39369,0.91762,0.05432,0.08274,-0.20017,-0.10928
-0.39323,0.91751,0.05929,0.09469,0.40614,0.09479
-0.39069,0.91697,0.08055,-0.12981,0.69469,0.29265
-0.3853,0.91667,0.10602,-0.42014,0.80698,0.29757
-0.38278,0.91657,0.1155,-0.21651,0.60374,0.05712
-0.37325,0.92026,0.11734,-0.20332,0.26525,0.23252
-0.36033,0.92433,0.12552,-0.01269,0.58823,0.32599
-0.35095,0.92603,0.13885,0.04135,0.5643,0.1256
-0.34748,0.92592,0.148,0.04237,0.51805,-0.02241
-0.34859,0.92569,0.14677,0.0818,0.37933,-0.196
-0.34542,0.92938,0.13006,0.40234,0.08033,-0.48199
-0.33478,0.93598,0.10876,0.31243,0.02787,-0.28953
-0.32356,0.9409,0.09997,0.1925,0.03022,-0.22709
-0.32246,0.93994,0.11186,-0.05544,-0.10711,-0.28416
-0.32827,0.93675,0.12127,-0.07746,-0.02524,-0.19797
-0.33652,0.93446,0.11621,-0.03354,0.01251,-0.15332
-0.34483,0.93315,0.1015,0.1332,-0.09147,-0.06548
-0.34977,0.93312,0.08318,0.34371,-0.19885,0.01653
-0.34842,0.93504,0.06537,0.41793,-0.25137,0.05229
-0.34459,0.93736,0.05095,0.52542,-0.34554,0.06234
-0.34577,0.93744,0.04035,0.39852,-0.42636,0.01194
-0.35498,0.93423,0.03437,0.10411,-0.32917,0.00097
-0.3665,0.92985,0.03224,-0.09729,-0.25554,-0.04222
-0.37628,0.92598,0.03083,-0.17822,-0.26523,-0.1446
-0.38264,0.92338,0.03037,-0.21263,-0.28714,-0.14411
-0.38225,0.92351,0.03126,-0.14167,-0.39786,-0.01909
-0.37398,0.92686,0.03226,-0.02723,-0.42024,0.09271
-0.35969,0.93261,0.02892,0.04979,-0.1591,0.17225
-0.34522,0.93822,0.02334,0.09562,0.00143,0.19082
-0.33287,0.94276,0.01944,-0.0874,0.10679,0.20412
-0.32596,0.94522,0.01695,-0.18413,0.15898,0.22016
-0.3246,0.94571,0.01524,-0.29709,0.28742,0.24844
-0.32411,0.9459,0.01386,-0.36011,0.30259,0.2398
-0.32127,0.9469,0.01201,-0.38696,0.3156,0.03965
-0.31828,0.94792,0.01119,-0.46396,0.40003,0.15797
-0.31954,0.94756,0.00116,-0.26977,0.40858,-0.28384
-0.32803,0.94442,-0.02106,-0.10625,0.38221,-0.40112
-0.34457,0.93747,-0.04902,0.28043,0.18421,-0.4595
-0.37051,0.92616,-0.07022,0.28083,0.1539,-0.35289
-0.39583,0.91539,-0.07313,0.18905,0.15649,-0.26744
-0.41,0.90972,-0.06544,0.16776,0.23931,-0.18932
-0.41991,0.90589,-0.05487,0.14062,0.31372,-0.12536
-0.42674,0.90342,-0.04124,0.03853,0.447,0.09706
-0.43362,0.90077,-0.02388,-0.01893,0.36168,0.14849
-0.43984,0.89805,-0.00352,0.08661,0.09638,0.08749
-0.44123,0.89727,0.01407,0.09359,-0.16547,-0.00575
-0.43552,0.89987,0.02275,0.08326,-0.36151,-0.07437
-0.42851,0.90324,0.02265,0.1018,-0.49278,-0.12853
-0.42535,0.90482,0.01884,0.14685,-0.54184,-0.11788
-0.42395,0.90545,0.02019,0.14968,-0.51381,-0.01462
-0.42154,0.90622,0.03219,0.134,-0.47559,0.12088
-0.41787,0.90707,0.05087,0.12832,-0.52653,0.22008
-0.4121,0.90865,0.0671,0.08619,-0.46418,0.23149
-0.40672,0.91026,0.07736,0.05636,-0.45614,0.21717
-0.40144,0.91209,0.08311,0.027,-0.38234,0.16906
-0.3962,0.91415,0.08566,-0.05662,-0.11054,0.00339
-0.39236,0.91576,0.08604,0.0081,0.055,-0.01596
-0.38741,0.91753,0.08958,-0.00239,0.10154,-0.04834
-0.38051,0.91928,0.10052,-0.05232,0.45416,0.16991
-0.37369,0.92049,0.11409,-0.20932,0.45243,0.11093
-0.36952,0.92098,0.12337,-0.18803,0.5464,0.12485
-0.36122,0.92353,0.12876,-0.3068,0.62647,0.23368
-0.34677,0.92717,0.1417,-0.22017,0.97209,0.38533
-0.33547,0.92733,0.16578,-0.22957,0.71561,0.24358
-0.33577,0.92424,0.1817,0.07299,0.20818,-0.17058
-0.34105,0.92463,0.16943,0.27263,0.00037,-0.48326
-0.34026,0.92918,0.14428,0.37339,0.02164,-0.3921
-0.33246,0.93491,0.12401,0.32245,-0.04057,-0.11519
-0.32211,0.93873,0.12254,0.1249,0.09658,-0.11727
-0.31905,0.93767,0.13765,-0.02583,0.08317,-0.25824
-0.32165,0.93591,0.14348,-0.16226,0.03899,-0.27868
-0.32886,0.93501,0.13256,-0.08746,0.02151,-0.21158
-0.33728,0.93474,0.11168,0.03345,-0.00808,-0.12772
-0.34378,0.93489,0.08814,0.17723,-0.11136,-0.0781
-0.34497,0.93623,0.06664,0.43637,-0.28085,0.04644
-0.34184,0.93834,0.05133,0.46937,-0.32512,0.0485
-0.34175,0.93886,0.04148,0.44281,-0.41161,0.02427
-0.34893,0.93637,0.03772,0.16252,-0.4312,0.01939
-0.36069,0.93192,0.03737,0.04179,-0.40333,0.00129
-0.37093,0.92794,0.03628,-0.15559,-0.35003,-0.089
-0.37717,0.92551,0.03376,-0.1548,-0.38949,-0.095
-0.37579,0.92625,0.02846,-0.07655,-0.38701,-0.02375
-0.36627,0.93023,0.02228,0.02563,-0.2492,0.06075
-0.35044,0.93642,0.01662,0.03016,-0.05741,0.1045
-0.33426,0.94232,0.01649,0.08477,0.04922,0.22818
-0.31884,0.94761,0.01866,-0.1432,0.07288,0.32112
-0.30917,0.9508,0.01922,-0.26997,0.09331,0.33031
-0.306,0.95192,0.01353,-0.43915,0.24601,0.26374
-0.30458,0.95247,0.00417,-0.48227,0.30059,-0.01584
-0.30265,0.95308,-0.00478,-0.55425,0.41336,-0.05258
-0.30166,0.95331,-0.01301,-0.45917,0.51502,-0.00143
-0.30645,0.95136,-0.03115,-0.10525,0.47051,-0.39649
-0.31945,0.9459,-0.0565,0.05181,0.46065,-0.4532
-0.34118,0.93647,-0.08122,0.43406,0.25475,-0.34738
-0.36494,0.92641,-0.09254,0.30061,0.22627,-0.24763
-0.38501,0.91875,-0.08745,0.17868,0.0829,-0.26348
-0.39838,0.91374,-0.07962,0.21597,0.1571,-0.22607
-0.40935,0.90955,-0.07164,0.06746,0.43374,0.07601
-0.41965,0.90565,-0.06058,-0.00954,0.42325,0.14799
-0.42935,0.9021,-0.04312,-0.05887,0.39368,0.15457
-0.4349,0.9002,-0.0218,-0.05628,0.07317,0.02699
-0.43266,0.90154,-0.00112,-0.05601,-0.16219,-0.0481
-0.42635,0.90446,0.0125,-0.06082,-0.29087,-0.07203
-0.42056,0.90717,0.01186,0.01366,-0.55677,-0.10866
-0.4168,0.90898,0.00237,0.12687,-0.59053,-0.06905
-0.41333,0.91056,-0.0035,0.18039,-0.53602,-0.02272
-0.41047,0.91186,0.00083,0.19645,-0.49706,0.1668
-0.40843,0.91268,0.01288,0.1863,-0.50559,0.26593
-0.40644,0.91324,0.02787,0.15034,-0.55797,0.29084
-0.40404,0.91373,0.04269,0.10101,-0.55358,0.24152
-0.39954,0.91512,0.05378,0.05904,-0.43058,0.06228
-0.39524,0.91677,0.05741,0.0457,-0.33109,-0.05125
-0.39219,0.91799,0.05879,0.09354,0.08172,-0.0893
-0.39196,0.91742,0.06843,-0.13972,0.61795,0.26681
-0.38903,0.91658,0.09222,-0.29437,0.71714,0.35195
-0.3849,0.91639,0.10983,-0.42278,0.77233,0.09502
-0.38069,0.9183,0.10852,-0.13816,0.75536,0.09065
-0.36914,0.92293,0.10912,-0.12619,0.69452,0.29005
-0.3591,0.9253,0.12185,0.02155,0.82945,0.34591
-0.35608,0.92452,0.13582,0.06964,0.47896,0.12187
-0.35656,0.92489,0.13194,0.24824,0.12654,-0.34283
-0.35332,0.92925,0.10788,0.52084,0.11453,-0.62987
-0.34379,0.93494,0.08757,0.35676,0.10328,-0.23382
-0.33333,0.93897,0.08485,0.22491,0.12414,-0.132
-0.33162,0.93771,0.10345,-0.03442,0.07139,-0.19098
-0.33773,0.93352,0.12023,-0.16669,-0.09015,-0.18558
-0.3472,0.93,0.12052,-0.12431,-0.06141,-0.16341
-0.35634,0.92826,0.10642,0.00504,-0.06542,-0.12257
-0.36234,0.92818,0.08468,0.23001,-0.18596,-0.08337
-0.36359,0.92955,0.06096,0.32692,-0.20253,-0.00319
-0.36065,0.93165,0.04395,0.37576,-0.29628,0.04755
-0.3592,0.93262,0.03418,0.42995,-0.43036,0.0158
-0.36435,0.93076,0.03003,0.36754,-0.45713,0.00613
-0.37529,0.92638,0.03076,-0.01693,-0.37386,-0.01483
-0.3854,0.92219,0.03167,-0.08013,-0.34157,-0.04719
-0.39206,0.91942,0.0307,-0.16195,-0.39793,-0.06812
-0.39119,0.91991,0.02669,-0.11011,-0.40242,-0.00445
-0.38022,0.92466,0.02054,-0.07672,-0.35982,0.01641
-0.3646,0.93101,0.01636,0.04383,0.01108,0.13897
-0.34965,0.93671,0.01734,0.06303,0.03755,0.28152
-0.33522,0.94197,0.01715,0.00459,0.0637,0.34035
-0.32453,0.94576,0.01393,-0.32991,0.14347,0.33797
-0.31838,0.94791,0.00825,-0.38928,0.19765,0.24554
-0.3131,0.9497,0.00223,-0.3764,0.21887,0.2373
-0.30905,0.95102,-0.00499,-0.38504,0.47079,0.03128
-0.30855,0.95107,-0.01517,-0.3408,0.55729,0.12339
-0.31555,0.94826,-0.03477,-0.23494,0.4749,-0.14392
-0.33211,0.94125,-0.06111,0.19343,0.39843,-0.52266
-0.35311,0.9319,-0.08277,0.35227,0.30574,-0.43682
-0.37534,0.92282,-0.08661,0.26256,0.19583,-0.23415
-0.39283,0.91652,-0.07514,0.12002,0.15762,-0.26345
-0.40544,0.91181,-0.06473,0.05939,0.31179,-0.29932
-0.41644,0.90737,-0.05681,0.0614,0.39986,-0.16506
-0.42439,0.90447,-0.04238,0.08603,0.47688,-0.01638
-0.4299,0.90265,-0.01978,0.04437,0.38156,0.167
-0.43014,0.90272,0.00712,0.07921,0.0475,0.08195
-0.42169,0.90615,0.0323,0.04673,-0.11227,0.02973
-0.40948,0.91104,0.04806,0.01674,-0.49028,-0.03982
-0.40129,0.91461,0.04928,0.02822,-0.60347,-0.14488
-0.399,0.91599,0.04157,0.05647,-0.5904,-0.13932
-0.39831,0.91645,0.0379,0.09615,-0.50139,-0.04985
-0.39915,0.91576,0.0452,0.09817,-0.4783,0.18118
-0.39962,0.91472,0.05967,0.11217,-0.48867,0.24064
-0.39734,0.91467,0.07393,0.1291,-0.52146,0.3071
-0.39436,0.9151,0.08394,0.11469,-0.51056,0.28753
-0.38936,0.91689,0.08763,0.08586,-0.42155,0.1125
-0.3842,0.91936,0.08447,0.08839,-0.27729,-0.12928
-0.37939,0.92167,0.08102,0.19945,-0.01542,-0.09087
-0.37721,0.9219,0.08822,0.12141,0.31408,0.0663
-0.3742,0.92077,0.11013,-0.19146,0.64293,0.2981
-0.36995,0.91976,0.13096,-0.53679,0.66471,0.3139
-0.36586,0.92109,0.13306,-0.23688,0.57151,0.048
-0.35258,0.92611,0.13406,-0.22892,0.46352,0.24907
-0.33861,0.92934,0.1471,-0.04789,0.7827,0.43156
-0.32995,0.93002,0.16178,-0.01287,0.67234,0.26947
-0.32813,0.93019,0.16448,0.06774,0.46369,-0.12009
-0.32678,0.93321,0.14932,0.34193,0.12474,-0.57306
-0.31838,0.93971,0.12467,0.39353,0.19736,-0.48017
-0.30656,0.9451,0.11304,0.20196,0.14755,-0.22717
-0.30201,0.94515,0.12433,-0.04104,0.05787,-0.19829
-0.30748,0.9414,0.13853,-0.2023,-0.09544,-0.30012
-0.31772,0.93856,0.13464,-0.23048,-0.14257,-0.2157
-0.32733,0.93741,0.1187,-0.00816,-0.149,-0.1287
-0.33506,0.93715,0.09731,0.0835,-0.19236,-0.10338
-0.33718,0.93856,0.07338,0.30132,-0.26176,-0.05061
-0.33438,0.941,0.0518,0.48418,-0.36735,0.03701
-0.33199,0.94263,0.03484,0.53272,-0.39337,0.05082
-0.336,0.94153,0.02445,0.31933,-0.47006,0.05543
-0.34528,0.93823,0.02184,0.16692,-0.4026,0.0657
-0.35402,0.93491,0.02415,-0.08168,-0.35509,-0.02668
-0.36009,0.93253,0.02662,-0.07044,-0.44362,-0.12022
-0.36005,0.93259,0.02465,-0.09214,-0.44202,-0.1099
-0.35263,0.93557,0.01852,-0.12657,-0.15822,-0.02075
-0.33998,0.94033,0.01288,-0.08854,0.0583,0.07039
-0.32811,0.94453,0.01324,-0.03799,0.10155,0.19672
-0.31727,0.94819,0.01564,-0.12835,0.13303,0.33399
-0.31009,0.9506,0.01342,-0.27981,0.20635,0.32014
-0.30478,0.95238,0.00747,-0.30519,0.30005,0.238
-0.29854,0.95438,0.00264,-0.29278,0.26832,0.15635
-0.29158,0.95653,-0.00118,-0.3661,0.40363,0.05469
-0.28855,0.95741,-0.00897,-0.37587,0.51053,0.13238
-0.29394,0.95548,-0.02528,-0.22487,0.44769,-0.28793
-0.30838,0.95015,-0.04583,0.05481,0.36939,-0.45046
-0.33127,0.94123,-0.06571,0.20997,0.23196,-0.46881
-0.3565,0.93128,-0.07489,0.23097,0.16192,-0.30068
-0.37802,0.9229,-0.07303,0.16423,0.09094,-0.30899
-0.39241,0.91717,-0.06916,0.1926,0.11507,-0.29014
-0.40542,0.91197,-0.06257,0.17609,0.19748,-0.25673
-0.41468,0.90848,-0.05183,0.04595,0.54379,0.08887
-0.41989,0.9068,-0.03709,-0.02454,0.33966,0.15239
-0.42061,0.90704,-0.01867,0.04897,0.17811,0.08124
-0.41519,0.90972,0.00051,0.11097,-0.12722,-0.03919
-0.4054,0.91401,0.01426,0.0816,-0.48866,-0.06048
-0.39596,0.91807,0.01815,0.07583,-0.56403,-0.07156
-0.39008,0.92065,0.0147,0.12365,-0.62384,-0.05739
-0.386,0.9224,0.01259,0.1699,-0.57424,-0.02455
-0.38299,0.92354,0.01931,0.1466,-0.52603,0.07272
-0.38089,0.92399,0.03372,0.09976,-0.54768,0.17306
-0.37787,0.92456,0.0488,0.10341,-0.46968,0.25539
-0.37646,0.92444,0.06051,0.11085,-0.40046,0.25852
-0.37531,0.92433,0.06874,0.03519,-0.31998,0.18253
-0.37334,0.92456,0.07606,0.03196,-0.15667,0.00298
-0.37215,0.92427,0.08482,0.05755,-0.00991,-0.0674
-0.37021,0.92357,0.09972,-0.02791,0.33948,0.12688
-0.36682,0.92202,0.12363,-0.39264,0.47623,0.37656
-0.36449,0.92079,0.13883,-0.45149,0.43664,0.39106
-0.36287,0.92213,0.13409,-0.26541,0.15691,-0.02912
-0.35359,0.92578,0.1337,-0.30923,0.43443,0.29099
-0.34338,0.92765,0.14674,-0.16829,0.69189,0.30485
-0.3349,0.92821,0.162,0.02547,0.83859,0.20261
-0.33014,0.92911,0.16655,0.10944,0.52269,-0.2692
-0.32844,0.93233,0.15119,0.28079,0.27404,-0.44731
-0.32077,0.93911,0.12311,0.38129,0.06448,-0.20447
-0.31077,0.94461,0.1054,0.37129,0.05898,-0.18676
-0.30742,0.94489,0.11245,0.13008,0.01986,-0.10178
-0.31438,0.93991,0.13304,-0.19752,-0.22101,-0.24236
-0.32431,0.9356,0.13948,-0.2626,-0.23311,-0.21064
-0.33406,0.93391,0.12725,-0.20767,-0.1345,-0.16887
-0.34136,0.93418,0.10369,0.12945,-0.18934,-0.17889
-0.3429,0.9364,0.07458,0.25737,-0.18392,-0.09573
-0.33809,0.9399,0.04748,0.4249,-0.21331,0.03091
-0.33141,0.94304,0.02869,0.52553,-0.29753,0.07674
-0.32994,0.94378,0.02001,0.48387,-0.38019,0.09855
-0.3372,0.94122,0.01921,0.2182,-0.33447,0.07541
-0.34714,0.93755,0.02146,0.00448,-0.27485,0.02024
-0.35563,0.93435,0.02229,-0.10595,-0.31805,-0.08218
-0.35949,0.93294,0.0193,-0.13017,-0.4859,-0.07234
-0.3536,0.93533,0.0101,-0.1369,-0.28241,-0.02877
-0.34107,0.94003,0.00046,-0.0861,-0.05955,0.0475
-0.32911,0.94428,-0.00275,0.00997,0.03741,0.17604
-0.31899,0.94774,-0.00126,0.01621,0.0715,0.29762
-0.31138,0.95027,-0.00101,-0.1641,0.17396,0.30376
-0.30599,0.95202,-0.00224,-0.33884,0.28773,0.28783
-0.30029,0.95383,-0.00475,-0.41321,0.30228,-0.04177
-0.29406,0.95573,-0.00965,-0.49093,0.43023,0.09519
-0.29072,0.95665,-0.01706,-0.51259,0.48041,0.06174
-0.29671,0.95435,-0.03412,-0.37329,0.49771,-0.28571
-0.31166,0.94847,-0.05704,0.00859,0.29179,-0.41599
-0.33348,0.93948,-0.07841,0.14522,0.16544,-0.36975
-0.35747,0.92978,-0.08777,0.27286,0.12915,-0.32265
-0.37798,0.92162,-0.0879,0.14953,0.17717,-0.32608
-0.39172,0.91612,-0.08521,0.13273,0.14507,-0.29185
-0.40166,0.91246,-0.07784,0.07291,0.23745,-0.13148
-0.40734,0.91085,-0.06633,0.0472,0.32731,0.02968
-0.40997,0.91057,-0.05265,0.05233,0.37733,0.0681
-0.41173,0.91047,-0.0387,0.036,0.26212,0.01461
-0.41124,0.91115,-0.02567,-0.01786,0.03297,-0.06038
-0.40858,0.91254,-0.01772,-0.04312,-0.14946,-0.07588
-0.40648,0.91345,-0.019,0.02198,-0.30252,-0.09847
-0.40527,0.91385,-0.02498,0.12821,-0.41177,-0.07767
-0.40326,0.9147,-0.02607,0.20944,-0.41005,0.00405
-0.40104,0.91589,-0.01737,0.25022,-0.38584,0.11445
-0.39935,0.91679,-0.00156,0.21787,-0.47303,0.22112
-0.39725,0.91755,0.01656,0.18032,-0.50498,0.21538
-0.39597,0.9176,0.03476,-0.01366,-0.57877,0.15382
-0.39384,0.91775,0.05101,-0.02813,-0.55374,0.0995
-0.38958,0.9188,0.06331,0.01474,-0.43524,-0.03162
-0.38677,0.9193,0.07257,0.07532,-0.2949,-0.07536
-0.38135,0.92075,0.08224,0.13148,-0.12322,-0.0346
-0.37411,0.92181,0.10139,0.02615,0.47176,0.35024
-0.36548,0.92239,0.12487,-0.4196,0.62953,0.354
-0.36145,0.9236,0.12763,-0.53749,0.56514,0.30901
-0.35813,0.92704,0.11098,-0.11538,0.34953,-0.06572
-0.35184,0.92991,0.10698,-0.23362,0.31427,0.21773
-0.34282,0.93216,0.11633,-0.04826,1.03198,0.24576
-0.33269,0.93348,0.1338,-0.04585,0.92351,0.13436
-0.32984,0.93322,0.14243,0.23143,0.38372,-0.38233
-0.32711,0.93761,0.11777,0.59963,0.2099,-0.70521
-0.31779,0.94419,0.08653,0.44158,0.15264,-0.27409
-0.31132,0.94702,0.07883,0.17222,-0.00943,0.00244
-0.31244,0.945,0.09667,-0.00872,-0.11743,-0.14097
-0.31821,0.94098,0.11525,-0.14095,-0.20991,-0.23595
-0.32586,0.93842,0.11472,-0.16379,-0.16036,-0.11595
-0.33302,0.93755,0.10031,-0.01752,-0.06854,-0.07398
-0.33827,0.93777,0.07832,0.1762,-0.08934,-0.08084
-0.34008,0.93889,0.05307,0.37856,-0.22204,-0.04929
-0.33681,0.941,0.03239,0.45236,-0.24423,0.02877
-0.33273,0.94274,0.02243,0.48616,-0.2871,0.06462
-0.336,0.94161,0.02114,0.37097,-0.43665,0.07092
-0.34767,0.93725,0.02589,-0.05908,-0.28013,0.02126
-0.36042,0.93228,0.03027,-0.10855,-0.2806,-0.01349
-0.37114,0.92814,0.02808,-0.13138,-0.4667,-0.09912
-0.37401,0.92724,0.01823,-0.16434,-0.39048,-0.0462
-0.36646,0.93036,0.01053,-0.14975,-0.31978,-0.00472
-0.35243,0.93579,0.00761,-0.08656,-0.16787,0.09966
-0.33854,0.94088,0.0106,0.06004,0.02839,0.31383
-0.32583,0.94531,0.01432,0.06239,0.07289,0.36602
-0.31651,0.94848,0.01384,-0.05527,0.16322,0.39154
-0.31088,0.9504,0.00861,-0.23017,0.24636,0.29989
-0.30544,0.9522,0.00242,-0.31524,0.17952,0.26403
-0.30009,0.95389,-0.00388,-0.40051,0.38031,0.01356
-0.29848,0.9543,-0.01433,-0.43306,0.57402,-0.07358
-0.30484,0.95171,-0.03593,-0.34738,0.5223,-0.35285
-0.31966,0.94553,-0.06141,-0.06631,0.50547,-0.53919
-0.34128,0.93647,-0.08079,0.30731,0.33736,-0.36311
-0.36396,0.92761,-0.08396,0.28513,0.26187,-0.37785
-0.38158,0.92109,-0.07727,0.18898,0.12672,-0.3306
-0.39574,0.91566,-0.07028,0.08281,0.29033,-0.19608
-0.41022,0.90985,-0.06216,0.06275,0.39158,-0.06373
-0.42241,0.90502,-0.04992,0.01302,0.49244,0.13203
-0.43075,0.90196,-0.03004,0.00251,0.24653,0.11917
-0.43317,0.90128,-0.00616,0.00904,0.05151,0.05404
-0.42743,0.90394,0.01323,-0.00018,-0.36216,-0.03245
-0.41849,0.90795,0.02156,-0.01339,-0.46862,-0.0605
-0.41313,0.9105,0.01696,0.06288,-0.6061,-0.1413
-0.41217,0.91105,0.00884,0.13207,-0.54426,-0.10283
-0.41208,0.91109,0.00947,0.15714,-0.49882,0.01319
-0.41257,0.91066,0.02138,0.12012,-0.51734,0.13046
-0.41185,0.91048,0.03718,0.16162,-0.51584,0.24286
-0.40968,0.91087,0.04956,0.1355,-0.56834,0.30816
-0.4071,0.91167,0.05568,0.13399,-0.48664,0.27145
-0.4017,0.91407,0.05552,0.13504,-0.17056,0.13495
-0.39523,0.91708,0.05225,0.09847,-0.07556,0.04984
-0.3898,0.91939,0.05245,0.11267,0.02714,-0.00877
-0.3855,0.92029,0.06659,0.06024,0.44159,0.10429
-0.37985,0.92035,0.09295,-0.29472,0.62396,0.16832
-0.3764,0.91979,0.11083,-0.43077,0.72369,0.02808
-0.37006,0.92218,0.11236,-0.39038,0.74439,0.12283
-0.35635,0.92643,0.12134,-0.30837,0.84439,0.378
-0.34607,0.92773,0.13974,-0.24472,0.79502,0.40473
-0.34419,0.92725,0.14738,0.01793,0.32323,0.02363
-0.3437,0.92977,0.13181,0.28468,-0.01307,-0.41233
-0.33836,0.93505,0.10572,0.40523,-0.03112,-0.4695
-0.32719,0.94093,0.08708,0.29873,0.08965,-0.22292
-0.31499,0.94512,0.0866,0.10564,0.17115,-0.20564
-0.31157,0.94482,0.10102,0.00229,0.18462,-0.26792
-0.31771,0.94205,0.10756,-0.20435,0.07186,-0.27312
-0.32954,0.9389,0.09921,-0.12178,-0.06401,-0.20121
-0.34035,0.93677,0.08128,0.00591,-0.21983,-0.09114
-0.34581,0.93645,0.05872,0.17698,-0.32395,-0.01072
-0.34507,0.93787,0.03608,0.36125,-0.3893,0.06682
-0.34178,0.93955,0.02025,0.47565,-0.42135,0.09224
-0.34258,0.93939,0.01265,0.45311,-0.48142,0.03672
-0.35007,0.93664,0.0118,0.22606,-0.46574,0.03541
-0.36019,0.93277,0.01387,-0.03026,-0.31012,0.04282
-0.36925,0.9292,0.0147,-0.14032,-0.27039,-0.0235
-0.37491,0.92698,0.01179,-0.1275,-0.41413,-0.097
-0.37224,0.92811,0.00457,-0.09946,-0.41502,-0.07104
-0.35989,0.93298,-0.00216,0.00306,-0.29001,0.00575
-0.34192,0.93971,-0.00359,0.15831,0.08963,0.21755
-0.32469,0.9458,0.00294,0.165,0.07136,0.27173
-0.31045,0.95052,0.01073,0.04203,0.05789,0.35431
-0.30328,0.95279,0.01367,-0.36341,0.11818,0.33727
-0.30072,0.95365,0.00947,-0.43392,0.19066,0.31048
-0.29906,0.95422,-0.00104,-0.47715,0.32631,0.04305
-0.2971,0.95477,-0.01113,-0.52169,0.71501,0.02855
-0.29919,0.95394,-0.0216,-0.43796,0.63148,-0.28439
-0.31022,0.94983,-0.03944,-0.05786,0.45539,-0.46181
-0.32943,0.94216,-0.06153,0.11011,0.34347,-0.47566
-0.35329,0.93232,-0.07708,0.35262,0.12801,-0.28819
-0.37664,0.92314,-0.07702,0.1677,0.10088,-0.2983
-0.39215,0.91731,-0.06885,0.22052,0.12785,-0.26633
-0.40304,0.91323,-0.05955,0.22079,0.18531,-0.24656
-0.4111,0.91042,-0.04592,0.05328,0.49491,0.10706
-0.41775,0.90814,-0.02743,-0.08016,0.46518,0.16856
-0.42156,0.90677,-0.00538,-0.0593,0.35931,0.12319
-0.41964,0.90755,0.01556,0.01114,-0.14264,-0.07388
-0.41113,0.91103,0.03124,-0.03748,-0.42302,-0.10822
-0.40182,0.91505,0.03463,-0.04442,-0.52233,-0.11062
-0.39647,0.91765,0.02653,0.13522,-0.63688,-0.09558
-0.39372,0.91903,0.01855,0.20493,-0.57786,-0.03155
-0.39126,0.92005,0.02018,0.19625,-0.52289,0.02369
-0.39025,0.92017,0.03119,0.14827,-0.49654,0.2229
-0.38764,0.92061,0.04682,0.118,-0.50055,0.2653
-0.38477,0.92096,0.06131,0.09905,-0.48683,0.24714
-0.38207,0.92143,0.07051,0.01547,-0.32133,0.09882
-0.37781,0.92304,0.07243,0.00416,-0.07974,0.00924
-0.37548,0.92389,0.07362,-0.00073,0.02504,-0.02951
-0.37524,0.92311,0.08393,0.01221,0.21036,0.05393
-0.37394,0.92138,0.1059,-0.16134,0.39206,0.19133
-0.37087,0.92051,0.12285,-0.45016,0.30808,0.20211
-0.36966,0.92075,0.1247,-0.26244,0.37712,0.00066
-0.36391,0.92267,0.12738,-0.253,0.62446,0.17242
-0.35274,0.92437,0.14522,-0.22497,0.99769,0.44792
-0.342,0.92505,0.16523,-0.00851,0.79822,0.231
-0.33831,0.92652,0.1646,0.16242,0.38876,-0.09889
-0.33528,0.93204,0.13737,0.47799,0.08662,-0.50681
-0.32643,0.93916,0.10677,0.49815,0.1408,-0.36775
-0.31551,0.94439,0.09258,0.32611,0.04135,-0.14643
-0.30998,0.94517,0.10273,0.0532,0.00242,-0.1644
-0.31201,0.94251,0.11958,-0.11565,-0.06791,-0.27006
-0.31895,0.93968,0.12346,-0.1744,-0.07035,-0.21254
-0.32813,0.93797,0.11192,-0.1262,-0.04095,-0.17267
-0.33584,0.93757,0.09026,0.00815,-0.09898,-0.10958
-0.33912,0.93854,0.06424,0.25806,-0.32013,-0.00547
-0.33752,0.94042,0.04077,0.3952,-0.34432,0.08241
-0.33467,0.94197,0.02587,0.51912,-0.40079,0.10282
-0.3397,0.94037,0.0167,0.43885,-0.47571,0.05204
-0.34975,0.93672,0.01429,0.32373,-0.48291,0.03014
-0.35741,0.93378,0.01721,-0.01076,-0.31326,-0.02316
-0.36234,0.93176,0.02255,-0.10618,-0.2719,-0.05507
-0.36385,0.93109,0.02587,-0.15371,-0.46989,-0.00016
-0.3577,0.93353,0.02328,-0.08599,-0.33308,0.03551
-0.34537,0.9383,0.01701,-0.07442,-0.19334,0.09181
-0.33149,0.94339,0.01069,0.00167,0.06067,0.17179
-0.31817,0.948,0.00617,-0.06095,0.06805,0.14599
-0.30811,0.95133,0.00479,-0.26539,0.10991,0.21554
-0.30487,0.95238,0.00348,-0.40007,0.23262,0.23378
-0.30409,0.95263,0.00069,-0.38318,0.33251,0.0759
-0.30262,0.95308,-0.0057,-0.41983,0.54529,0.12932
-0.30402,0.95251,-0.01665,-0.40115,0.58101,0.09122
-0.31353,0.94893,-0.03472,-0.09935,0.61885,-0.28236
-0.3314,0.94166,-0.05858,0.09265,0.52332,-0.36958
-0.35198,0.93199,-0.0865,0.37588,0.29886,-0.43105
-0.37281,0.92182,-0.106,0.42573,0.15691,-0.43934
-0.39248,0.91293,-0.11183,0.17846,0.07455,-0.25162
-0.40454,0.90835,-0.10593,0.15623,0.09471,-0.18596
-0.41287,0.90597,-0.09342,0.28992,0.24767,0.01732
-0.41885,0.90485,-0.07609,0.16638,0.4159,0.12298
-0.4233,0.90436,-0.05409,0.09421,0.41767,0.14413
-0.42542,0.90445,-0.0311,-0.02192,-0.01983,0.02477
-0.42135,0.90679,-0.01357,-0.01443,-0.22112,0.02244
-0.41359,0.91043,-0.00684,-0.03584,-0.29132,0.005
-0.40716,0.91327,-0.01154,-0.00843,-0.53287,-0.07734
-0.40255,0.91519,-0.01914,0.11664,-0.54207,-0.07891
-0.39843,0.91697,-0.01975,0.14721,-0.50309,-0.04817
-0.39515,0.91854,-0.0106,0.11363,-0.47505,0.12393
-0.39206,0.91992,0.0037,0.12554,-0.40896,0.24384
-0.3898,0.92075,0.01595,0.09232,-0.42176,0.25145
-0.38725,0.9217,0.0219,0.03953,-0.39757,0.26848
-0.38468,0.92269,0.02543,-0.01777,-0.35115,0.19812
-0.38054,0.92424,0.03077,-0.00804,-0.26984,0.12749
-0.37989,0.92422,0.03861,0.01009,-0.08246,-0.07499
-0.38004,0.92349,0.05222,0.08182,0.13894,0.0549
-0.37686,0.92334,0.07345,0.04666,0.45279,0.28369
-0.37433,0.92285,0.09059,-0.21577,0.54459,0.46738
-0.37382,0.92266,0.09455,-0.18012,0.62194,0.11297
-0.36147,0.92775,0.09276,-0.05463,0.52142,0.1483
-0.3453,0.93293,0.10189,0.00196,0.86383,0.24887
-0.33168,0.93594,0.11824,0.06807,0.80579,0.23589
-0.32387,0.93704,0.13057,0.04434,0.63283,0.04309
-0.32192,0.93821,0.12691,0.15311,0.13621,-0.33567
-0.31898,0.94159,0.10787,0.43136,-0.14465,-0.58377
-0.31164,0.94533,0.09599,0.27717,-0.03014,-0.28323
-0.30558,0.94643,0.10424,0.02833,0.05001,-0.14173
-0.30577,0.94419,0.12242,-0.15781,-0.04171,-0.20217
-0.30942,0.94193,0.13042,-0.25342,-0.08431,-0.23946
-0.31738,0.94005,0.12472,-0.17282,0.07959,-0.15821
-0.32777,0.93846,0.10883,0.10453,-0.00308,-0.07286
-0.33544,0.93803,0.08699,0.2017,-0.05508,-0.01733
-0.33834,0.93892,0.06274,0.40544,-0.20267,0.07344
-0.33718,0.94044,0.0432,0.55414,-0.38719,0.11203
-0.33914,0.94025,0.02985,0.53793,-0.47336,0.07457
-0.34836,0.93703,0.02461,0.36518,-0.54361,-0.01382
-0.35903,0.933,0.02436,-0.06936,-0.36775,-0.10121
-0.36555,0.93047,0.02396,-0.12811,-0.33167,-0.12101
-0.36804,0.92956,0.02133,-0.15986,-0.4314,-0.1153
-0.36336,0.93149,0.0168,-0.05809,-0.39578,-0.00619
-0.35142,0.9361,0.01405,-0.00351,-0.37104,0.05597
-0.33612,0.94174,0.01147,0.08078,0.01212,0.23908
-0.32274,0.94643,0.00967,0.07574,0.03929,0.26435
-0.31073,0.95047,0.00642,0.01811,0.0607,0.27776
-0.30246,0.95315,0.00109,-0.32538,0.14008,0.25059
-0.2981,0.95451,-0.00519,-0.42944,0.2766,0.23431
-0.29415,0.9557,-0.00968,-0.4289,0.29831,0.21295
-0.29071,0.95668,-0.01524,-0.48807,0.54893,0.07325
-0.29245,0.95588,-0.02745,-0.4758,0.55618,0.11014
-0.30249,0.95189,-0.04881,-0.34435,0.52357,-0.13223
-0.32277,0.94358,-0.07393,0.1631,0.29844,-0.457
-0.34673,0.93323,-0.09402,0.32799,0.22554,-0.36863
-0.3693,0.92391,-0.09991,0.3189,0.21084,-0.38096
-0.3879,0.91686,-0.09425,0.11876,0.13038,-0.26187
-0.39958,0.91284,-0.08388,0.1296,0.16847,-0.18181
-0.40711,0.91077,-0.06885,0.14109,0.36174,0.03068
-0.41139,0.9099,-0.05311,0.09892,0.48141,0.07281
-0.41432,0.90952,-0.03324,0.09731,0.3092,0.05857
-0.41546,0.90955,-0.00957,0.03137,-0.07457,0.02576
-0.41159,0.91131,0.00933,-0.03445,-0.27332,0.01326
-0.40717,0.91321,0.01545,-0.02154,-0.46681,-0.08305
-0.40477,0.91434,0.01142,0.00239,-0.50769,-0.10754
-0.4033,0.91502,0.00762,0.0984,-0.50113,-0.10627
-0.40061,0.91614,0.01367,0.14129,-0.47552,0.06853
-0.39789,0.91697,0.02902,0.13486,-0.48969,0.13983
-0.39403,0.91795,0.04568,0.11362,-0.53522,0.26307
-0.39055,0.91876,0.05773,0.09613,-0.55476,0.29046
-0.38791,0.91938,0.06522,0.04419,-0.542,0.24185
-0.38586,0.91997,0.0689,-0.01134,-0.49786,0.08863
-0.38238,0.92144,0.06874,0.10017,-0.26947,-0.00505
-0.37843,0.923,0.06967,0.12191,-0.11812,0.00649
-0.37429,0.92398,0.07844,0.17208,0.26399,0.10409
-0.36945,0.92411,0.09749,-0.27733,0.48597,0.34674
-0.36474,0.92425,0.11274,-0.34229,0.56696,0.26266
-0.35916,0.92636,0.11336,-0.30106,0.83037,0.02986
-0.34504,0.93135,0.11625,-0.18237,1.04472,0.261
-0.32934,0.93468,0.13377,-0.08033,1.07941,0.3712
-0.32246,0.9345,0.1507,-0.08528,0.77322,0.29311
-0.31968,0.93665,0.14309,0.31661,0.05155,-0.49364
-0.31577,0.94167,0.11629,0.43398,0.0147,-0.57744
-0.30738,0.94639,0.09922,0.24114,0.06841,-0.15335
-0.29697,0.94989,0.09748,0.15432,0.04738,-0.08782
-0.2918,0.95012,0.10998,-0.10827,-0.06814,-0.26187
-0.29214,0.94897,0.11868,-0.17321,-0.08574,-0.28303
-0.29744,0.9479,0.11401,-0.13826,-0.01827,-0.21363
-0.30577,0.9471,0.0974,-0.01963,-0.0566,-0.11634
-0.31255,0.947,0.07408,0.20722,-0.2049,0.02428
-0.31516,0.94773,0.04956,0.29554,-0.24896,0.08277
-0.31458,0.94874,0.03015,0.3498,-0.28111,0.11823
-0.31512,0.94889,0.01688,0.46174,-0.43734,0.06813
-0.31924,0.94759,0.01185,0.3106,-0.46474,0.05212
-0.32724,0.94484,0.01338,0.18785,-0.42578,0.04072
-0.33563,0.94185,0.01575,-0.1189,-0.34764,-0.02184
-0.34201,0.93956,0.01523,-0.20502,-0.35477,-0.0728
-0.34594,0.93818,0.01103,-0.21937,-0.38981,-0.0768
-0.34039,0.94027,0.00109,-0.08708,-0.49752,-0.05186
-0.3269,0.94498,-0.01119,-0.01842,-0.17988,0.01543
-0.3118,0.94995,-0.01892,0.02657,-0.01823,0.09529
-0.2973,0.95458,-0.01901,0.06267,0.2324,0.32229
-0.2872,0.95773,-0.01552,-0.1672,0.27067,0.38382
-0.28354,0.95885,-0.01398,-0.29955,0.27066,0.35584
-0.2836,0.95877,-0.01782,-0.46709,0.35802,0.17973
-0.28326,0.95867,-0.02623,-0.51639,0.40484,-0.06268
-0.28412,0.95813,-0.03526,-0.56833,0.57587,0.114
-0.2917,0.95521,-0.0496,-0.40071,0.54373,-0.36335
-0.30345,0.95045,-0.06746,-0.01051,0.45872,-0.449
-0.32049,0.9434,-0.08527,0.35843,0.21436,-0.45703
-0.34259,0.93515,-0.09001,0.45771,0.16505,-0.32022
-0.36409,0.9278,-0.08129,0.26013,0.14064,-0.22779
-0.38132,0.92165,-0.07171,0.30213,0.16261,-0.13458
-0.39749,0.91546,-0.06248,0.23148,0.32132,-0.04952
-0.411,0.91022,-0.05064,0.10348,0.48132,0.0745
-0.42132,0.90624,-0.0347,-0.09449,0.42003,0.1422
-0.42685,0.90416,-0.01691,-0.12874,0.11303,0.0527
-0.42462,0.90536,-0.00016,-0.07003,-0.22233,-0.04496
-0.41756,0.90859,0.00962,-0.05613,-0.32826,-0.08321
-0.41069,0.9117,0.01056,-0.00705,-0.4742,-0.13576
-0.40745,0.91319,0.00732,0.13364,-0.52269,-0.08639
-0.40508,0.91425,0.00605,0.16028,-0.52158,-0.03034
-0.40208,0.91551,0.01236,0.18644,-0.48039,0.12123
-0.39937,0.91642,0.02546,0.16965,-0.54565,0.2835
-0.39717,0.91681,0.04105,0.15308,-0.57326,0.27966
-0.396,0.91651,0.05638,0.09078,-0.61064,0.22743
-0.39453,0.91646,0.06651,0.01388,-0.61382,0.09117
-0.39326,0.91692,0.0677,0.06312,-0.39312,-0.08746
-0.39443,0.91642,0.06774,0.16667,0.06262,0.01114
-0.39516,0.91535,0.07728,0.13989,0.21309,0.11584
-0.39124,0.91493,0.09905,-0.19231,0.74254,0.44146
-0.38619,0.91502,0.11648,-0.49427,0.55324,0.29739
-0.38452,0.91627,0.11213,-0.35636,0.35233,0.05876
-0.37374,0.92119,0.10818,-0.04364,0.36276,0.0289
-0.35988,0.92561,0.11709,0.04367,0.88986,0.2855
-0.34732,0.92792,0.13529,0.04785,0.84168,0.21811
-0.33974,0.92807,0.15246,0.02667,0.77901,0.14466
-0.33756,0.92977,0.14685,0.3308,0.28175,-0.4781
-0.32997,0.93676,0.11658,0.48838,0.17465,-0.57234
-0.31664,0.94385,0.0941,0.40304,0.10607,-0.43215
-0.30861,0.94617,0.09745,-0.00255,-0.12221,-0.2058
-0.31204,0.94264,0.11848,-0.07445,-0.19916,-0.26307
-0.32008,0.93868,0.1281,-0.14005,-0.24871,-0.23674
-0.32893,0.93664,0.1204,-0.06252,-0.03574,-0.04488
-0.3373,0.9361,0.09968,0.058,-0.01344,-0.02696
-0.34094,0.93741,0.07079,0.259,-0.07663,-0.0344
-0.33629,0.94081,0.04193,0.4158,-0.16469,-0.00388
-0.3278,0.94441,0.02477,0.50471,-0.27312,0.06157
-0.32522,0.94539,0.02153,0.46952,-0.44909,0.02355
-0.33598,0.94148,0.02671,0.14158,-0.55053,0.03033
-0.35001,0.93615,0.03312,-0.21153,-0.3504,0.00956
-0.36145,0.93178,0.03344,-0.26552,-0.43288,-0.09206
-0.36672,0.93007,0.02173,-0.18787,-0.62524,-0.16062
-0.36032,0.9328,0.00503,-0.04152,-0.40331,0.01463
-0.34471,0.9387,-0.00294,-0.02833,-0.27971,0.15722
-0.32719,0.94495,-0.00272,0.05775,0.01245,0.33619
-0.31349,0.94958,-0.0033,0.08438,0.05067,0.29244
-0.30424,0.95257,-0.00574,-0.01647,0.09692,0.30212
-0.30107,0.95354,-0.00981,-0.22525,0.23539,0.28824
-0.29978,0.95391,-0.01331,-0.43542,0.24305,0.2921
-0.29678,0.95482,-0.01514,-0.48014,0.23641,0.32966
-0.29404,0.95551,-0.02282,-0.53715,0.41485,-0.09245
-0.29284,0.95541,-0.03759,-0.3575,0.69292,-0.1695
-0.29934,0.95218,-0.06113,-0.20654,0.65491,-0.47256
-0.31533,0.94547,-0.08144,0.09326,0.46161,-0.52686
-0.33817,0.93677,-0.08994,0.37647,0.12901,-0.32275
-0.35934,0.92958,-0.08213,0.3108,0.154,-0.32194
-0.37374,0.92478,-0.07132,0.17796,0.1513,-0.23375
-0.38532,0.92031,-0.0674,0.12993,0.15993,-0.11022
-0.39439,0.91674,-0.06341,0.15013,0.28362,0.00861
-0.40102,0.91473,-0.04947,0.10176,0.44511,0.14653
-0.40246,0.91514,-0.02291,-0.01977,0.17043,0.12676
-0.39807,0.91733,0.00493,-0.04381,-0.14509,0.00259
-0.38949,0.92073,0.02329,-0.12786,-0.35251,-0.09841
-0.38447,0.9228,0.0246,-0.13599,-0.42307,-0.14167
-0.38543,0.92265,0.01226,-0.05318,-0.52822,-0.15
-0.3868,0.92215,-0.00134,0.05945,-0.50632,-0.06537
-0.38672,0.92218,-0.0046,0.14104,-0.47029,0.09675
-0.3847,0.92303,0.00339,0.17609,-0.48846,0.18042
-0.38019,0.92477,0.01565,0.21513,-0.58027,0.36376
-0.3763,0.92608,0.0274,0.15981,-0.61754,0.32172
-0.37273,0.92723,0.036,0.06605,-0.5547,0.20008
-0.37078,0.92787,0.03952,0.0618,-0.37277,-0.0302
-0.36828,0.92887,0.03945,0.20961,0.01745,-0.12078
-0.3668,0.92934,0.04217,0.19346,0.31792,0.03693
-0.36639,0.92886,0.05444,0.00342,0.61889,0.32691
-0.36363,0.92812,0.07973,-0.4296,0.65516,0.44731
-0.36314,0.92697,0.09396,-0.4005,0.46977,-0.06017
-0.35808,0.9289,0.09435,-0.33096,0.36034,0.09156
-0.35013,0.93093,0.1037,-0.18269,0.80922,0.27114
-0.34136,0.93127,0.12728,-0.1042,1.01415,0.31854
-0.33296,0.93088,0.15029,-0.17313,0.59718,0.12931
-0.32646,0.9349,0.13913,0.36095,0.01877,-0.54836
-0.31313,0.94387,0.10504,0.5324,0.16819,-0.7124
-0.29515,0.95166,0.0849,0.3267,0.19938,-0.40483
-0.2829,0.95493,0.08979,0.09239,0.11341,-0.14967
-0.28524,0.95191,0.11175,-0.07455,0.03228,-0.23187
-0.29526,0.9474,0.12341,-0.16042,-0.04233,-0.16712
-0.30779,0.94404,0.11848,-0.07807,-0.09124,-0.04812
-0.31907,0.94209,0.10315,-0.00144,-0.13907,-0.01528
-0.32514,0.94216,0.08124,0.14413,-0.2602,0.01851
-0.32358,0.94443,0.05776,0.32991,-0.32933,0.04589
-0.31878,0.94697,0.04006,0.36957,-0.37567,0.03108
-0.31801,0.94758,0.0307,0.37679,-0.44218,-0.02113
-0.32557,0.94505,0.0294,0.24016,-0.50302,0.00571
-0.33571,0.94141,0.03216,0.01055,-0.42652,0.0624
-0.34438,0.9382,0.03417,-0.07646,-0.34953,0.03265
-0.34956,0.93632,0.03325,-0.09291,-0.42838,0.01266
-0.34626,0.93778,0.02582,-0.05195,-0.50797,0.03707
-0.33648,0.94152,0.01733,-0.0566,-0.21333,0.07052
-0.32376,0.94605,0.01269,0.02865,0.06752,0.15711
-0.31069,0.9504,0.01428,0.03885,0.05664,0.1729
-0.29891,0.95415,0.01572,-0.08068,0.0535,0.23867
-0.29294,0.95602,0.01394,-0.34936,0.11504,0.22781
-0.2908,0.95672,0.01025,-0.42063,0.20476,0.21575
-0.28889,0.95733,0.00655,-0.38776,0.22806,0.14254
-0.28766,0.95773,0.00029,-0.41725,0.48824,0.2182
-0.29049,0.95676,-0.01433,-0.43911,0.64474,0.16951
-0.30033,0.95314,-0.03621,0.04574,0.47855,-0.43858
-0.31695,0.94654,-0.05987,0.21673,0.4515,-0.46578
-0.33767,0.93793,-0.07904,0.38479,0.37548,-0.43519
-0.3629,0.92818,-0.08233,0.31882,0.13135,-0.39093
-0.38433,0.92017,-0.07462,0.22348,0.1183,-0.33464
-0.40183,0.91343,-0.06449,0.18449,0.19024,-0.25593
-0.41591,0.90792,-0.05182,0.10741,0.45237,0.06381
-0.42369,0.90512,-0.03509,0.08557,0.55773,0.14791
-0.42826,0.90357,-0.01165,-0.0113,0.4712,0.1794
-0.42828,0.90352,0.01459,-0.03986,-0.11714,-0.00045
-0.42037,0.90659,0.03696,-0.08939,-0.36651,-0.05526
-0.41129,0.91031,0.04653,-0.11588,-0.46817,-0.08461
-0.40584,0.91305,0.04035,0.00308,-0.6045,-0.15885
-0.4024,0.91501,0.02861,0.07541,-0.56319,-0.13196
-0.39973,0.91626,0.02575,0.18607,-0.47802,-0.01629
-0.39781,0.9168,0.03486,0.21285,-0.45369,0.1719
-0.39433,0.91764,0.04936,0.22474,-0.4382,0.33535
-0.39092,0.91821,0.06371,0.17104,-0.46762,0.40225
-0.38852,0.91844,0.07423,0.09737,-0.4542,0.29336
-0.38655,0.91913,0.07599,0.02861,-0.40852,0.03447
-0.38529,0.92013,0.06993,0.05265,-0.27729,-0.19713
-0.3839,0.921,0.06604,0.10621,-0.07093,-0.15619
-0.38282,0.92109,0.07089,0.13351,0.33767,0.1177
-0.37919,0.92112,0.08801,-0.20478,0.61592,0.39202
-0.37424,0.92137,0.10487,-0.48426,0.62627,0.39648
-0.36761,0.92368,0.10797,-0.18093,0.41694,0.03298
-0.35268,0.92929,0.10959,-0.20525,0.3103,0.20001
-0.33689,0.93392,0.11953,-0.01134,0.76303,0.33312
-0.32459,0.93602,0.13593,-0.04957,0.72776,0.26327
-0.31707,0.9373,0.14461,-0.04142,0.57144,-0.02207
-0.30958,0.9427,0.12432,0.42876,0.26659,-0.57756
-0.29135,0.95193,0.09444,0.39032,0.29202,-0.44608
-0.27258,0.95874,0.08059,0.24907,0.26535,-0.26855
-0.26778,0.95906,0.09211,0.00416,0.04421,-0.22995
-0.27604,0.95524,0.10635,-0.23179,-0.28718,-0.30972
-0.28892,0.9515,0.10557,-0.23984,-0.27781,-0.21311
-0.30132,0.94904,0.09226,-0.15516,-0.15242,-0.0434
-0.31119,0.94763,0.07164,0.05558,-0.19501,0.02184
-0.31342,0.94836,0.04865,0.15807,-0.2143,0.03575
-0.30748,0.9511,0.02922,0.34279,-0.22394,0.08635
-0.30039,0.95367,0.0161,0.43127,-0.38517,0.061
-0.29896,0.9542,0.01077,0.4218,-0.41249,0.0802
-0.3058,0.95202,0.0112,0.20999,-0.46549,0.07985
-0.31572,0.94872,0.01526,-0.11217,-0.35537,-0.00713
-0.32438,0.94576,0.01743,-0.16725,-0.39084,-0.10112
-0.32771,0.94465,0.01507,-0.20625,-0.41997,-0.06607
-0.3221,0.94663,0.0112,-0.22771,-0.31835,-0.03886
-0.31026,0.95061,0.00815,-0.10646,-0.09133,0.1072
-0.29683,0.95488,0.00887,0.03484,0.05928,0.22996
-0.28318,0.95897,0.01285,0.06939,0.04193,0.30396
-0.27137,0.96234,0.01586,-0.0283,0.02363,0.31473
-0.26476,0.96416,0.0166,-0.3504,0.04949,0.24355
-0.26043,0.96536,0.01541,-0.47953,0.15795,0.15819
-0.25645,0.96648,0.0116,-0.46206,0.22531,0.04146
-0.25487,0.96696,0.00195,-0.57036,0.49655,0.10694
-0.26015,0.96543,-0.01566,-0.51601,0.5104,-0.23965
-0.27136,0.96177,-0.0367,-0.34525,0.52926,-0.3762
-0.29004,0.95513,-0.05984,0.18659,0.42643,-0.47482
-0.31513,0.94579,-0.0785,0.50051,0.28126,-0.46739
-0.34437,0.935,-0.08463,0.52211,0.22689,-0.45126
-0.36637,0.92707,-0.07934,0.35783,0.19402,-0.19894
-0.38524,0.92043,-0.06616,0.31149,0.31899,0.01032
-0.40173,0.91432,-0.05117,0.25524,0.44277,0.16062
-0.41372,0.90973,-0.03483,-0.1188,0.45442,0.20598
-0.421,0.90695,-0.01334,-0.18583,0.13753,0.01299
-0.42178,0.90666,0.00793,-0.16245,-0.17207,-0.10782
-0.41559,0.90922,0.02411,-0.15652,-0.38785,-0.12157
-0.40797,0.91257,0.02746,-0.14353,-0.56405,-0.12047
-0.40221,0.91535,0.01828,0.0321,-0.64369,-0.13917
-0.39598,0.91822,0.00706,0.20166,-0.61524,-0.06186
-0.39126,0.92026,0.00491,0.25583,-0.49178,0.15474
-0.38964,0.92086,0.01346,0.21536,-0.52915,0.22472
-0.38881,0.92089,0.02792,0.17275,-0.51215,0.31922
-0.38969,0.91996,0.04234,0.09189,-0.45442,0.29543
-0.39033,0.91927,0.0506,0.05638,-0.40023,0.22419
-0.38988,0.91951,0.04985,0.06543,-0.22455,0.0557
-0.38863,0.92032,0.04422,0.13126,-0.07474,-0.07039
-0.38809,0.92063,0.04253,0.13449,0.12968,-0.03768
-0.38767,0.92015,0.05499,-0.04763,0.43706,0.15713
-0.38624,0.91943,0.07381,-0.36625,0.55196,0.21216
-0.38427,0.9194,0.08376,-0.4455,0.74466,0.01923
-0.37236,0.92411,0.08571,-0.15058,0.98765,0.01497
-0.35545,0.92952,0.09817,-0.06922,1.14389,0.09611
-0.34098,0.9325,0.11896,-0.1899,1.08492,0.42228
-0.33403,0.93598,0.11116,0.10811,0.27783,0.22838
-0.32485,0.94286,0.07387,0.57261,-0.24677,-0.44099
-0.31525,0.94774,0.04893,0.53556,-0.02029,-0.44454
-0.30686,0.95051,0.04849,0.36851,-0.00294,-0.24409
-0.30375,0.95001,0.07208,0.02639,0.0531,-0.18759
-0.30501,0.94695,0.1012,-0.08564,0.05517,-0.22591
-0.31095,0.94358,0.11375,-0.29494,0.12223,-0.18818
-0.31937,0.94215,0.1017,-0.19499,0.04093,-0.14786
-0.32607,0.94247,0.07352,-0.08746,-0.03606,-0.12328
-0.32852,0.94349,0.04333,0.20886,-0.19365,0.0012
-0.32632,0.94506,0.01896,0.25721,-0.29652,0.04374
-0.3231,0.94635,0.00299,0.39431,-0.41384,0.11402
-0.32659,0.94515,-0.00469,0.4122,-0.52062,0.05292
-0.3371,0.94145,-0.00372,0.14136,-0.4704,0.04646
-0.34873,0.93721,0.00099,0.03145,-0.39963,0.05349
-0.35749,0.93388,0.00671,-0.15913,-0.26598,0.0234
-0.36254,0.93189,0.0112,-0.19847,-0.24824,0.02161
-0.36358,0.93146,0.01275,-0.20317,-0.29069,0.02034
-0.3582,0.9336,0.00783,0.00078,-0.52833,0.00644
-0.34669,0.93797,-0.00241,0.01062,-0.22468,0.04011
-0.33331,0.94277,-0.0082,-0.00484,-0.05187,0.09862
-0.32054,0.9472,-0.00707,-0.05373,0.02303,0.19097
-0.31143,0.95025,-0.00504,-0.22664,0.0772,0.22484
-0.30711,0.95164,-0.00701,-0.32691,0.19718,0.2654
-0.30316,0.95284,-0.01296,-0.35335,0.21963,0.32748
-0.29828,0.9542,-0.02294,-0.33698,0.21455,0.08568
-0.29455,0.95498,-0.03528,-0.50812,0.42389,0.08095
-0.2943,0.95421,-0.05343,-0.46156,0.53348,-0.01376
-0.30118,0.95042,-0.07727,0.00202,0.5475,-0.36281
-0.31622,0.94343,-0.09965,0.14204,0.4749,-0.36002
-0.33554,0.93478,-0.11659,0.51294,0.26052,-0.2861
-0.35874,0.9259,-0.1183,0.36877,0.17205,-0.31598
-0.37899,0.91858,-0.11209,0.32177,0.17394,-0.24922
-0.39631,0.91196,-0.10611,0.27394,0.20614,-0.1435
-0.41318,0.90521,-0.09928,0.25269,0.39572,0.07095
-0.42821,0.89915,-0.09027,0.0409,0.47068,0.21956
-0.43644,0.89671,-0.07358,-0.10822,0.34688,0.20212
-0.43712,0.89794,-0.05111,-0.06556,0.02914,0.01291
-0.43063,0.90207,-0.02844,-0.07097,-0.22505,-0.04896
-0.4217,0.9066,-0.01534,-0.07404,-0.42513,-0.06241
-0.41463,0.90983,-0.01651,-0.05206,-0.56651,-0.12196
-0.41161,0.91105,-0.02326,0.09862,-0.60054,-0.07624
-0.41035,0.91161,-0.02384,0.18945,-0.55232,0.06112
-0.41085,0.91158,-0.01406,0.16566,-0.50479,0.28164
-0.41001,0.91207,0.00133,0.17015,-0.50555,0.31533
-0.4081,0.9128,0.01553,0.15944,-0.54073,0.33955
-0.40621,0.9134,0.02624,0.0016,-0.54474,0.23252
-0.40298,0.91464,0.03187,-0.02704,-0.48586,0.16567
-0.40039,0.91587,0.02933,-0.02981,-0.3483,-0.00747
-0.3993,0.91651,0.02344,0.03781,-0.05781,-0.07194
-0.39742,0.91713,0.03036,0.03611,0.30486,0.13286
-0.39293,0.9181,0.05172,-0.14793,0.77799,0.38168
-0.38779,0.91892,0.07201,-0.46077,0.64173,0.44634
-0.38513,0.91949,0.07867,-0.39937,0.42125,0.25628
-0.37701,0.92292,0.0779,0.02419,0.31719,0.22389
-0.36739,0.92657,0.08045,0.02097,0.4209,0.28269
-0.35412,0.93052,0.09337,0.05602,0.93925,0.13302
-0.34335,0.93352,0.10316,0.07025,0.57095,-0.25605
-0.33431,0.93822,0.0892,0.553,0.12666,-0.72109
-0.31639,0.94678,0.05905,0.54318,0.23431,-0.58297
-0.30093,0.95225,0.05142,0.1208,0.32598,-0.17707
-0.30253,0.9502,0.07467,-0.00043,0.18803,-0.09027
-0.31505,0.94401,0.09785,-0.16522,-0.29485,-0.1292
-0.33043,0.93862,0.09896,-0.08136,-0.13227,-0.1332
-0.34431,0.93525,0.08204,-0.00705,-0.13879,-0.11797
-0.35401,0.93344,0.0578,0.243,-0.20208,-0.06237
-0.35644,0.93373,0.03296,0.37002,-0.19911,-0.01497
-0.35143,0.93609,0.01494,0.50802,-0.24727,0.02894
-0.3484,0.9373,0.00871,0.50082,-0.44221,0.08328
-0.35682,0.93409,0.01159,0.22953,-0.45416,0.11094
-0.36997,0.92889,0.01667,-0.03916,-0.354,0.0738
-0.37931,0.92514,0.01486,-0.10712,-0.51939,-0.02558
-0.38228,0.92402,0.00505,-0.18961,-0.44146,-0.01839
-0.37522,0.9269,-0.00709,-0.12704,-0.39879,0.08804
-0.35889,0.93322,-0.01659,-0.00664,-0.22786,0.14759
-0.33969,0.94022,-0.02416,0.02399,-0.02069,0.23324
-0.32199,0.94629,-0.02885,-0.00466,0.04986,0.30238
-0.3061,0.95138,-0.03411,-0.14568,0.19575,0.32015
-0.29673,0.9541,-0.04023,-0.32418,0.26266,0.26249
-0.29179,0.95541,-0.04514,-0.35386,0.35486,0.22652
-0.28709,0.95666,-0.04865,-0.37813,0.33658,0.12504
-0.28345,0.95749,-0.05336,-0.43069,0.48281,0.34026
-0.2827,0.95698,-0.06525,-0.16266,0.45797,-0.48672
-0.29106,0.9526,-0.08845,-0.01911,0.47341,-0.56648
-0.30934,0.94431,-0.11215,0.20138,0.4369,-0.511
-0.33504,0.9339,-0.12475,0.27496,0.29887,-0.40474
-0.36149,0.92422,-0.12296,0.17448,0.26018,-0.3639
-0.38231,0.91685,-0.11494,0.1834,0.26305,-0.28987
-0.40122,0.90973,-0.10679,0.1597,0.47264,-0.00458
-0.41514,0.90438,-0.0987,0.10921,0.51226,0.24576
-0.42305,0.90199,-0.08618,0.05197,0.36485,0.21539
-0.42386,0.90345,-0.06404,0.03253,0.00147,0.07015
-0.41649,0.9083,-0.03894,-0.01445,-0.27994,-0.01628
-0.40433,0.91441,-0.0191,-0.04817,-0.47576,-0.04516
-0.39452,0.91877,-0.01425,-0.05303,-0.59259,-0.07103
-0.38983,0.9206,-0.02278,0.00994,-0.6354,-0.10188
-0.38723,0.92141,-0.03221,0.09411,-0.59252,-0.0494
-0.38479,0.92246,-0.03148,0.1197,-0.56272,0.15413
-0.3823,0.92381,-0.01995,0.13357,-0.53356,0.21288
-0.37885,0.92544,-0.0033,0.15751,-0.52288,0.33304
-0.37577,0.92658,0.01497,0.10305,-0.4748,0.33832
-0.37292,0.92733,0.0312,0.11143,-0.39588,0.2517
-0.36656,0.92948,0.04103,0.14021,0.04813,-0.05427
-0.36076,0.9315,0.04625,0.14119,0.13262,0.05807
-0.35781,0.93217,0.05484,0.13785,0.35097,0.16935
-0.35617,0.93126,0.0767,-0.29692,0.79352,0.41934
-0.35326,0.92947,0.10615,-0.41618,1.05104,0.20952
-0.34604,0.93156,0.11145,-0.39504,0.58568,0.00784
-0.3326,0.93667,0.10953,-0.16805,0.93761,0.33102
-0.32317,0.93787,0.12622,-0.18957,0.8597,0.37714
-0.32082,0.93596,0.14505,-0.06402,0.32961,0.11051
-0.31793,0.93782,0.13926,0.36421,0.09815,-0.55468
-0.3121,0.9431,0.11464,0.38757,0.10115,-0.47876
-0.30071,0.94862,0.09835,0.21223,0.10882,-0.24067
-0.29182,0.95114,0.10079,-0.07431,0.02446,-0.19781
-0.29404,0.9483,0.11939,-0.24231,-0.11791,-0.27074
-0.30334,0.94401,0.12962,-0.25738,-0.14952,-0.17783
-0.31427,0.94137,0.12262,-0.10318,-0.11941,-0.07808
-0.32414,0.94021,0.10451,0.07991,-0.16883,-0.01621
-0.33056,0.94032,0.08063,0.26385,-0.26267,0.02785
-0.33065,0.94203,0.0569,0.39849,-0.30474,0.08524
-0.32751,0.94404,0.03883,0.45818,-0.3718,0.03823
-0.32765,0.9444,0.02709,0.38699,-0.40296,0.00336
-0.33486,0.94197,0.02348,-0.07272,-0.30519,0.02641
-0.34486,0.93826,0.02677,-0.06272,-0.30148,0.02313
-0.35425,0.93459,0.03212,-0.13542,-0.28635,-0.00409
-0.36091,0.93189,0.03611,-0.17871,-0.43979,-0.04014
-0.35954,0.93255,0.03262,-0.02894,-0.50004,-0.06623
-0.34899,0.93688,0.02115,0.07609,-0.23532,-0.06045
-0.33514,0.94208,0.01237,0.08546,0.04562,0.1464
-0.32068,0.94707,0.01413,0.0134,0.10661,0.41169
-0.30713,0.95146,0.01938,-0.14107,0.11142,0.43767
-0.29989,0.95373,0.02089,-0.32187,0.17384,0.37861
-0.29719,0.95473,0.01248,-0.42741,0.28786,0.09109
-0.29559,0.9553,-0.00109,-0.5366,0.44341,0.02698
-0.29567,0.95521,-0.0117,-0.65313,0.63041,0.02263
-0.30249,0.95281,-0.02525,-0.54318,0.66205,-0.20577
-0.31524,0.9479,-0.04579,-0.15978,0.49975,-0.46352
-0.33302,0.94025,-0.07075,0.34028,0.26649,-0.45218
-0.35546,0.93068,-0.08638,0.46215,0.15796,-0.39164
-0.37921,0.92135,-0.08548,0.28561,0.16162,-0.34235
-0.39296,0.91659,-0.07365,0.20868,0.1847,-0.10848
-0.4025,0.9136,-0.05758,0.13095,0.36904,0.07217
-0.4101,0.91096,-0.04419,0.0836,0.39697,0.08598
-0.41879,0.90754,-0.03112,0.03935,0.30126,0.10614
-0.42576,0.90471,-0.01449,-0.03411,-0.06834,0.00571
-0.42608,0.90467,0.00147,-0.04643,-0.23623,-0.04928
-0.42023,0.90731,0.01317,-0.02531,-0.43471,-0.06697
-0.41285,0.91063,0.01688,-0.0129,-0.51486,-0.07414
-0.40795,0.9129,0.0131,0.09696,-0.59054,-0.05679
-0.40507,0.9142,0.01116,0.16975,-0.55124,0.04317
-0.40235,0.91533,0.01646,0.16273,-0.50386,0.16106
-0.3996,0.9163,0.02643,0.1446,-0.52086,0.21686
-0.39616,0.91741,0.03737,0.10139,-0.48653,0.29068
-0.39431,0.91771,0.04796,0.04234,-0.50151,0.21684
-0.39202,0.9182,0.05666,0.04052,-0.45144,0.12501
-0.38819,0.91961,0.05996,0.09064,-0.19383,-0.09053
-0.38473,0.92099,0.06109,0.15325,0.06358,-0.017
-0.38247,0.92157,0.06631,0.1392,0.2182,0.07439
-0.38087,0.92104,0.08122,-0.31661,0.59237,0.36149
-0.37689,0.92084,0.09989,-0.51053,0.60498,0.05857
-0.37252,0.92244,0.1015,-0.35475,0.57808,-0.06675
-0.36029,0.92779,0.09679,-0.2545,0.55778,0.38829
-0.34485,0.9324,0.10813,-0.18541,0.81861,0.51854
