gravity.x,gravity.y,gravity.z,userAcceleration.x,userAcceleration.y,userAcceleration.z
-0.38499,0.83742,0.38795,-1.42584,1.68182,0.54473
-0.41794,0.83131,0.36641,0.11468,-0.12315,-0.17745
-0.44365,0.82368,0.35317,0.39819,-0.21933,-0.2797
-0.44126,0.83049,0.33995,0.69868,0.37799,-0.31871
-0.41928,0.85266,0.31172,-0.06078,1.4857,-1.5211
-0.41849,0.86135,0.288,-0.46726,1.54315,-1.69003
-0.44831,0.85181,0.271,-0.41024,-0.17458,-0.55788
-0.46809,0.84185,0.26867,0.92164,-0.69486,0.39514
-0.45036,0.84879,0.277,1.55272,-0.47533,-0.08293
-0.42536,0.87311,0.23821,1.36807,-0.44399,-0.60018
-0.3918,0.90295,0.17657,1.01609,-0.51875,-0.69207
-0.36521,0.92197,0.12877,0.48928,0.34048,-0.67832
-0.36428,0.92709,0.08837,-0.46767,1.23744,-0.33416
-0.36578,0.92953,0.04667,-0.87446,-0.37683,-0.06237
-0.34447,0.93862,0.01815,-0.27702,-0.45965,-0.31542
-0.32131,0.94692,-0.00964,0.29492,-0.55364,-0.40766
-0.29854,0.95375,-0.03515,0.31557,-0.50833,-0.32044
-0.27871,0.95873,-0.05614,0.28417,-0.11814,0.03089
-0.25718,0.96329,-0.07706,0.12237,0.21166,0.1624
-0.2357,0.96657,-0.10091,-0.0992,0.12512,0.06051
-0.21368,0.96876,-0.12584,-0.1917,-0.02759,0.08717
-0.19018,0.97059,-0.14762,-0.10371,-0.05161,0.29883
-0.16545,0.97269,-0.16279,0.03618,0.17956,0.45467
-0.14088,0.97537,-0.16973,0.03456,0.33411,0.45336
-0.11875,0.97878,-0.16702,-0.25865,0.25569,0.14883
-0.10298,0.98251,-0.15515,-0.60237,0.09424,0.04729
-0.09332,0.9852,-0.14377,-0.76863,0.05414,0.04453
-0.08962,0.98693,-0.13392,-0.90723,0.05291,0.14315
-0.09381,0.98886,-0.11557,-0.62885,0.37165,0.16766
-0.10797,0.99035,-0.08687,-0.6183,0.42258,0.175
-0.13268,0.99029,-0.04157,-0.3678,0.24178,0.3218
-0.1636,0.98633,0.01959,0.12373,0.2901,0.21619
-0.20543,0.97686,0.05944,0.4328,0.54477,-0.1665
-0.25809,0.96224,0.08656,1.02267,1.14729,-0.82403
-0.30452,0.94356,0.1302,0.37453,0.54114,-0.44981
-0.35644,0.9168,0.18009,0.00211,0.43504,-0.15108
-0.41108,0.88512,0.21814,-0.207,0.60944,-0.15227
-0.45731,0.85372,0.24906,0.15604,0.62361,-0.30933
-0.49396,0.8235,0.27902,0.53846,0.31609,-0.28806
-0.51795,0.79602,0.31317,0.61216,0.14959,-0.4286
-0.53044,0.77112,0.35213,0.49718,-0.14317,-0.48806
-0.534,0.74936,0.39153,0.53433,-0.3209,-0.57488
-0.52986,0.7323,0.42776,0.58717,-0.41101,-0.66031
-0.51814,0.72137,0.45952,0.61494,-0.59002,-0.66605
-0.50091,0.71742,0.48414,0.62759,-0.6108,-0.66758
-0.48136,0.72154,0.49767,0.71133,-0.61053,-0.64931
-0.46564,0.73219,0.49708,0.79641,-0.60484,-0.61936
-0.45583,0.74818,0.48212,0.78026,-0.44871,-0.49436
-0.44911,0.77128,0.45102,0.65451,-0.29919,-0.31516
-0.44004,0.79874,0.41033,0.3478,0.07424,-0.02914
-0.41529,0.82486,0.38359,0.08134,0.68442,0.72658
-0.38424,0.82832,0.40772,-1.55585,2.09083,1.74013
-0.40335,0.81971,0.40668,-0.48418,0.49853,0.34259
-0.43878,0.81513,0.3782,-0.09049,0.02065,0.14875
-0.46159,0.80881,0.36436,0.37788,-0.48499,-0.20059
-0.46256,0.81295,0.35377,0.62267,-0.27173,-0.52368
-0.44651,0.83944,0.3098,0.56323,0.01306,-0.96757
-0.42136,0.87104,0.25249,0.18099,0.78737,-1.75424
-0.4199,0.87702,0.2335,-0.74403,2.15998,-0.81849
-0.4404,0.86358,0.24549,-0.41766,0.22835,0.08539
-0.44684,0.86204,0.23919,1.0068,-0.13218,-0.09791
-0.42714,0.87806,0.21579,1.60817,-0.71622,-0.47805
-0.38578,0.90818,0.16245,1.63167,-0.87783,-0.27286
-0.34854,0.93063,0.11159,0.14749,0.51188,-0.55749
-0.33611,0.93886,0.07455,-0.20887,0.68049,-0.35504
-0.32714,0.94451,0.02983,-0.51751,0.80124,-0.12741
-0.31654,0.9484,-0.0187,-0.28309,-0.29481,-0.57334
-0.29195,0.95492,-0.05372,0.20501,-0.46045,-0.77776
-0.2688,0.95988,-0.07986,0.42285,-0.55774,-0.48881
-0.25149,0.96327,-0.09415,0.04185,-0.37343,0.1321
-0.23557,0.96527,-0.11292,0.01786,-0.05741,0.06974
-0.22586,0.9644,-0.13755,-0.0741,0.34111,-0.03848
-0.21169,0.96432,-0.15897,-0.18982,0.01665,0.29208
-0.19012,0.96588,-0.17587,0.00916,0.01987,0.39578
-0.16622,0.96809,-0.18752,0.16654,0.03374,0.44986
-0.14455,0.97001,-0.19543,-0.03765,0.1306,0.32754
-0.12581,0.97249,-0.19603,-0.29431,0.14689,0.10948
-0.11148,0.97589,-0.18765,-0.58768,0.17792,0.10022
-0.10313,0.9786,-0.17809,-0.86981,0.09865,0.17759
-0.09838,0.9805,-0.17014,-0.84785,0.08588,0.22717
-0.09863,0.98224,-0.15961,-0.65253,0.19807,0.24221
-0.10881,0.98457,-0.13708,-0.6499,0.56742,0.23483
-0.12957,0.9866,-0.09917,-0.48662,0.51418,0.38605
-0.15757,0.98641,-0.04652,-0.04733,0.14709,0.26529
-0.19478,0.98081,0.00899,0.47149,0.34976,-0.06034
-0.24186,0.96906,0.04927,1.09675,1.1202,-0.67425
-0.28394,0.95477,0.08827,0.94292,0.89829,-0.48738
-0.32974,0.93376,0.13912,0.03701,0.43564,-0.11627
-0.38495,0.9041,0.18554,-0.38991,0.48975,0.03847
-0.43704,0.873,0.21649,-0.10743,0.54102,-0.18573
-0.4817,0.84228,0.24193,0.3134,0.33035,-0.31536
-0.51248,0.81506,0.27027,0.50017,0.08573,-0.2741
-0.53183,0.79216,0.29939,0.42644,-0.19774,-0.38489
-0.54267,0.77169,0.33168,0.42397,-0.35393,-0.4382
-0.54624,0.75333,0.36621,0.47358,-0.40105,-0.51808
-0.54132,0.7397,0.39977,0.45636,-0.41826,-0.54227
-0.52921,0.73265,0.42797,0.48931,-0.50366,-0.57306
-0.51162,0.73356,0.44737,0.6485,-0.50938,-0.5946
-0.49385,0.74113,0.45478,0.73357,-0.51035,-0.62574
-0.48003,0.75253,0.45085,0.84841,-0.47342,-0.5763
-0.47082,0.7691,0.43222,0.83361,-0.3564,-0.40635
-0.46471,0.79217,0.39562,0.76306,-0.33796,-0.26752
-0.45074,0.81899,0.3551,0.32319,0.09784,0.26105
-0.41184,0.84524,0.34052,-0.19653,1.20161,1.38139
-0.40644,0.83875,0.36237,-2.00231,2.22308,1.33766
-0.43354,0.82819,0.35518,-0.29524,-0.00636,0.0925
-0.45862,0.81852,0.34598,0.45544,-0.35804,-0.24768
-0.46836,0.81441,0.34261,0.67357,-0.18492,-0.31119
-0.46319,0.83178,0.30593,0.57924,0.63361,-1.37378
-0.44639,0.85695,0.25762,0.40585,1.12141,-1.11153
-0.4435,0.86193,0.24574,-0.00862,1.41102,-0.42898
-0.4455,0.85426,0.26789,0.5823,0.02333,0.3617
-0.43784,0.85688,0.27212,0.84707,-0.12371,-0.40549
-0.42598,0.87285,0.23805,0.70143,-0.61753,-0.76537
-0.40626,0.8957,0.18076,0.72612,-0.44274,-0.52797
-0.38028,0.91431,0.13937,0.4469,0.05755,-0.24026
-0.36329,0.92513,0.11023,-0.18401,0.54316,-0.05372
-0.35419,0.93205,0.07633,-0.43123,0.41452,0.01487
-0.34336,0.93826,0.04211,-0.12397,-0.16473,-0.05863
-0.32188,0.94667,0.01465,0.20041,-0.3263,-0.37796
-0.29236,0.95629,-0.0062,0.26862,-0.37835,-0.35751
-0.26457,0.96393,-0.02902,0.10724,-0.27577,-0.26916
-0.24039,0.96894,-0.05811,0.05325,-0.08045,-0.09425
-0.22016,0.97132,-0.08984,0.17053,0.05954,0.05678
-0.19941,0.97322,-0.11436,0.17443,0.02658,0.17527
-0.1761,0.97538,-0.13275,0.09309,-0.02789,0.38372
-0.15455,0.977,-0.14691,-0.11353,0.0288,0.4538
-0.13333,0.97845,-0.15766,-0.18042,0.21891,0.31233
-0.10996,0.98044,-0.16322,-0.08717,0.23672,0.1913
-0.08812,0.98342,-0.15849,-0.35786,0.26608,0.1841
-0.07275,0.98656,-0.14633,-0.97782,0.20444,0.16922
-0.06619,0.98914,-0.13125,-1.11056,0.17048,0.15565
-0.06791,0.99122,-0.11344,-1.1481,0.18233,0.04458
-0.08027,0.99304,-0.08623,-0.90971,0.35776,0.04497
-0.10555,0.99327,-0.04762,-0.67747,0.33224,0.13907
-0.13823,0.99037,0.00749,-0.07273,0.23978,0.22198
-0.1782,0.98263,0.05174,0.79961,0.92691,-0.64186
-0.23085,0.96968,0.08021,0.9261,1.11924,-0.78306
-0.27997,0.95245,0.12022,0.51369,0.85996,-0.55424
-0.33419,0.92773,0.16622,-0.43804,0.52814,-0.04167
-0.3908,0.89677,0.20754,-0.37058,0.59331,-0.11568
-0.4388,0.86558,0.2413,0.12493,0.67507,-0.33956
-0.47802,0.83493,0.27274,0.5424,0.39149,-0.37157
-0.50435,0.80588,0.31015,0.60186,0.15949,-0.44676
-0.51718,0.7801,0.35209,0.48293,-0.12692,-0.4768
-0.52004,0.75763,0.3944,0.55207,-0.39519,-0.53821
-0.51663,0.7389,0.43258,0.5706,-0.43661,-0.55415
-0.50686,0.72646,0.46405,0.63032,-0.45136,-0.58095
-0.49033,0.72181,0.48843,0.70036,-0.52047,-0.62832
-0.47135,0.72606,0.50066,0.68357,-0.51479,-0.63421
-0.45717,0.7367,0.49827,0.68591,-0.4863,-0.6224
-0.45209,0.75097,0.48131,0.78693,-0.35665,-0.43266
-0.45204,0.77053,0.44938,0.76817,-0.30678,-0.35438
-0.44892,0.7951,0.40777,0.28423,0.00803,-0.11529
-0.43009,0.81991,0.37784,0.09679,0.16432,0.09379
-0.3842,0.83464,0.39467,-0.39018,1.1873,1.43906
-0.38202,0.82722,0.41203,-1.43321,1.36698,0.68349
-0.41421,0.82215,0.39052,-0.72112,0.51673,0.37657
-0.44347,0.81592,0.37096,0.12661,-0.29994,-0.15722
-0.45364,0.81724,0.35544,0.6262,-0.14413,-0.48294
-0.44516,0.83967,0.31112,0.60855,0.35484,-1.29519
-0.42204,0.86672,0.26586,0.4219,0.67965,-1.52512
-0.41862,0.86775,0.26791,-0.65886,1.24236,-0.40006
-0.43316,0.8544,0.28702,-0.41724,0.31235,0.2365
-0.43406,0.85446,0.28547,1.02938,-0.38553,0.14633
-0.41581,0.8731,0.25458,1.2792,-0.79305,-0.68233
-0.38178,0.90365,0.19404,1.1999,-0.63391,-0.63617
-0.28308,0.95382,0.10049,0.53738,0.12687,-0.65476
-0.26838,0.96055,0.07291,-0.28875,0.76079,-0.28293
-0.26409,0.96366,0.04021,-0.90174,0.61794,0.15093
-0.25294,0.96747,0.0055,-0.46198,-0.27875,0.02998
-0.23091,0.97276,-0.02059,0.17161,-0.38276,-0.38594
-0.20232,0.97832,-0.04421,0.18948,-0.46201,-0.39603
-0.17545,0.98211,-0.06841,0.14743,-0.33591,-0.29475
-0.1514,0.98412,-0.09268,0.11453,-0.14495,-0.06079
-0.12661,0.98553,-0.11274,-0.00374,0.28214,0.24894
-0.10162,0.98636,-0.12946,-0.09463,0.1426,0.25292
-0.07765,0.98576,-0.14915,-0.26891,-0.14831,0.1998
-0.05747,0.9846,-0.16511,-0.38819,-0.11534,0.12804
-0.03678,0.98378,-0.17555,-0.34126,0.13023,0.22872
-0.01541,0.98411,-0.1769,-0.19018,0.31986,0.40458
0.00246,0.98563,-0.1689,-0.31371,0.26626,0.36301
0.01476,0.98773,-0.15546,-0.68972,0.18019,0.11517
0.02001,0.98965,-0.1421,-0.97478,0.19445,-0.00143
0.02204,0.99095,-0.13237,-1.06265,0.17274,0.18354
0.0169,0.99306,-0.11636,-0.86699,0.35089,0.17032
-0.00174,0.99602,-0.08914,-0.71701,0.35298,0.2292
-0.02863,0.99848,-0.0471,-0.35313,0.06373,0.25103
-0.06568,0.99782,0.0067,-0.10847,0.15216,0.13542
-0.11747,0.99193,0.04766,0.40819,0.80287,-0.59728
-0.16924,0.98242,0.0788,0.7472,1.19499,-0.53984
-0.21629,0.96842,0.12405,0.41232,0.76431,-0.4408
-0.26962,0.94719,0.1736,-0.25211,0.49309,0.13337
-0.32327,0.92225,0.21202,0.09861,0.58788,-0.24102
-0.37145,0.89578,0.24414,0.28069,0.50051,-0.29999
-0.4111,0.86901,0.27534,0.43878,0.12378,-0.24414
-0.4395,0.84473,0.30539,0.30173,-0.21462,-0.46684
-0.45811,0.82229,0.33759,0.36099,-0.36511,-0.56929
-0.46759,0.80153,0.37271,0.46053,-0.42439,-0.6185
-0.4692,0.78337,0.40766,0.48554,-0.40237,-0.64192
-0.4639,0.77023,0.43766,0.5336,-0.56263,-0.60984
-0.45234,0.7653,0.45794,0.62635,-0.58701,-0.62775
-0.4392,0.76816,0.46586,0.76393,-0.63659,-0.66453
-0.4291,0.77662,0.46122,0.83119,-0.61692,-0.61947
-0.42174,0.79148,0.44238,0.66952,-0.40864,-0.33848
-0.41625,0.81389,0.40537,0.25319,-0.16745,-0.05504
-0.40249,0.84144,0.36052,0.09832,-0.03473,0.09326
-0.36226,0.86375,0.3503,-0.92782,1.32125,1.37308
-0.34564,0.86495,0.36387,-1.23871,1.55134,1.16492
-0.36293,0.86594,0.34414,-0.7868,0.86232,0.72809
-0.38719,0.86661,0.31476,0.4008,0.16105,-0.17911
-0.39387,0.87039,0.29544,0.53262,0.35779,-0.19593
-0.38118,0.8827,0.27485,0.60295,0.55833,-0.25067
-0.37089,0.89295,0.25511,-0.19145,0.7918,-1.326
-0.38767,0.89245,0.23076,-0.52038,0.02288,-1.27487
-0.41418,0.88537,0.21113,-0.33188,-0.35227,-0.63565
-0.42275,0.88005,0.21631,1.11186,-0.39289,0.67976
-0.40096,0.89101,0.21293,1.07462,0.02185,-0.51643
-0.36991,0.91318,0.17108,0.90197,-0.10198,-0.787
-0.33763,0.93399,0.11695,0.70395,-0.24252,-0.48525
-0.31434,0.94665,0.07099,0.08102,0.46178,-0.60785
-0.30302,0.95236,0.03448,-0.62268,0.70043,-0.22731
-0.28662,0.95802,0.00745,-0.74018,-0.09226,0.19614
-0.26326,0.96458,-0.0166,0.10481,-0.43951,-0.27418
-0.23938,0.9702,-0.03765,0.19948,-0.44294,-0.30654
-0.21714,0.97439,-0.05848,0.21509,-0.39304,-0.28429
-0.19831,0.97675,-0.08138,0.1599,-0.24035,-0.24727
-0.17888,0.97826,-0.1049,0.10323,-0.05047,0.03489
-0.15771,0.98,-0.12138,-0.01722,0.2108,0.28543
-0.13463,0.98085,-0.14077,-0.13284,0.09765,0.15548
-0.11192,0.98039,-0.16222,-0.20835,-0.07383,0.06702
-0.08582,0.98033,-0.17772,-0.2331,-0.08058,0.28615
-0.05534,0.98145,-0.18353,-0.20384,0.04966,0.37845
-0.02652,0.98322,-0.18047,-0.19886,0.31265,0.29313
-0.00621,0.98528,-0.17086,-0.47434,0.33522,0.14078
0.00533,0.98695,-0.16095,-0.8213,0.1397,0.00885
0.01032,0.98808,-0.15357,-1.10198,0.10532,0.14373
0.01315,0.98937,-0.14485,-0.95731,0.20035,0.26172
0.0077,0.99207,-0.12543,-0.62389,0.47547,0.26222
-0.00896,0.99547,-0.09469,-0.55598,0.4232,0.26463
-0.03502,0.99813,-0.05005,-0.343,0.1162,0.14982
-0.07132,0.99745,0.00285,0.10398,0.30953,-0.01948
-0.12298,0.99149,0.04261,0.61321,1.0592,-0.56183
-0.17359,0.98207,0.07353,0.71068,1.0512,-0.55668
-0.22162,0.96858,0.11288,0.38,0.65447,-0.49365
-0.27487,0.94881,0.15555,-0.27611,0.43357,0.02598
-0.32737,0.92539,0.191,0.0092,0.49183,-0.18993
-0.37577,0.9002,0.22008,0.23226,0.48276,-0.26657
-0.4168,0.87388,0.25023,0.38599,0.04983,-0.16489
-0.44608,0.85007,0.27997,0.39181,-0.15241,-0.33939
-0.4652,0.82915,0.30998,0.39971,-0.35671,-0.44753
-0.47677,0.81002,0.3414,0.43876,-0.39029,-0.5417
-0.4792,0.79505,0.37183,0.47601,-0.42742,-0.55187
-0.47435,0.78474,0.39896,0.52982,-0.47079,-0.55771
-0.46339,0.78086,0.41896,0.56702,-0.52973,-0.54881
-0.44791,0.78517,0.42765,0.7323,-0.65578,-0.59058
-0.43374,0.79431,0.42537,0.82969,-0.67009,-0.5092
-0.42282,0.80876,0.40882,0.77542,-0.56128,-0.3614
-0.41238,0.83004,0.37548,0.62033,-0.40061,-0.17228
-0.39702,0.85475,0.33432,0.60496,-0.42533,-0.13112
-0.36537,0.88133,0.29961,-0.25929,0.77417,1.08761
-0.32873,0.8963,0.29763,-1.64845,1.89903,1.17264
-0.3376,0.89429,0.29371,-1.15689,0.99014,0.3724
-0.3647,0.88834,0.27903,-0.66883,0.34903,0.19946
-0.38204,0.88276,0.27348,0.28244,-0.24914,-0.09107
-0.37671,0.88948,0.25867,0.35368,0.65902,-0.65561
-0.3585,0.90669,0.22223,0.09446,0.94319,-1.26459
-0.35472,0.91576,0.18856,-0.2852,1.34691,-1.38073
-0.38198,0.90705,0.1771,-0.19452,-0.22949,-0.09543
-0.39849,0.89775,0.18775,1.0613,-0.59517,0.91019
-0.38328,0.90501,0.18455,1.29949,-0.25569,-0.52382
-0.3473,0.92668,0.14367,0.93352,-0.54685,-0.82641
-0.29731,0.95073,0.08792,0.93657,-0.45079,-0.49377
-0.25489,0.96571,0.04928,0.31835,0.42439,-0.48919
-0.24224,0.97003,0.0189,-0.95084,0.67241,0.0922
-0.23302,0.97238,-0.01333,-0.96156,0.0501,0.14031
-0.21273,0.97632,-0.03928,-0.17097,-0.40241,-0.17902
-0.18999,0.97986,-0.06146,0.20644,-0.50427,-0.38556
-0.1664,0.98238,-0.08503,0.26377,-0.49552,-0.37063
-0.14608,0.9837,-0.1049,0.21931,-0.3102,-0.1088
-0.12074,0.98537,-0.12028,0.09423,0.20353,0.20897
-0.09479,0.98596,-0.13749,-0.01443,0.3276,0.19016
-0.07128,0.9845,-0.16025,-0.2864,-0.01766,0.17232
-0.04891,0.98239,-0.18035,-0.50023,-0.05604,0.22981
-0.02492,0.98103,-0.19226,-0.45044,0.07859,0.317
-0.00065,0.9806,-0.196,-0.33493,0.22394,0.46681
0.02071,0.98128,-0.19148,-0.46172,0.30269,0.43178
0.03921,0.98314,-0.1786,-0.61847,0.19577,0.14997
0.05162,0.98546,-0.16186,-0.83685,0.16639,0.03687
0.0538,0.98775,-0.14651,-0.96424,0.15854,0.0962
0.04191,0.99125,-0.12516,-1.03164,0.3679,0.0962
0.01658,0.99522,-0.0962,-0.78735,0.33473,0.10213
-0.02067,0.99849,-0.0509,-0.28963,0.26285,0.14163
-0.0654,0.99786,-0.00048,0.01619,0.35082,0.0494
-0.11814,0.99256,0.02945,1.0124,1.27236,-0.62116
-0.16568,0.98413,0.06351,1.00772,1.13055,-0.59671
-0.21682,0.9702,0.10822,0.2825,0.45945,-0.25436
-0.27273,0.95058,0.1484,-0.31589,0.52706,0.02233
-0.32543,0.9285,0.17885,-0.00634,0.60248,-0.20957
-0.37333,0.90513,0.20336,0.22845,0.50202,-0.29478
-0.41362,0.88109,0.22936,0.37866,0.06299,-0.31669
-0.44177,0.85851,0.26037,0.37564,-0.00562,-0.37559
-0.46006,0.83783,0.29393,0.39861,-0.26965,-0.44149
-0.47032,0.81915,0.32831,0.44844,-0.35725,-0.52297
-0.47221,0.80422,0.36089,0.48474,-0.46789,-0.55074
-0.46716,0.79427,0.38846,0.5723,-0.5818,-0.55203
-0.45696,0.79058,0.40765,0.66401,-0.62856,-0.5357
-0.44368,0.79289,0.41771,0.7446,-0.66781,-0.53535
-0.43108,0.79967,0.41797,0.74077,-0.62035,-0.42525
-0.42119,0.81244,0.40317,0.61215,-0.47909,-0.26929
-0.41088,0.83344,0.36954,0.38888,-0.2625,0.04904
-0.3902,0.85816,0.33363,-0.01878,0.20584,0.30079
-0.34986,0.87723,0.32875,-0.60945,1.1462,1.13329
-0.3435,0.87523,0.34055,-1.51526,2.0494,1.26434
-0.37365,0.86728,0.32895,-0.69261,0.53793,0.33236
-0.40336,0.85888,0.31564,0.09847,-0.22948,-0.08145
-0.4143,0.85709,0.30619,0.48172,-0.19373,-0.29995
-0.40418,0.87106,0.27908,0.48483,-0.0213,-0.67401
-0.38777,0.89302,0.22834,0.26949,0.44867,-1.8675
-0.38438,0.90169,0.19803,-0.56751,0.94132,-0.19748
-0.4034,0.89125,0.20724,-0.34617,0.40547,0.51266
-0.40998,0.88737,0.21093,0.89484,-0.1662,0.53532
-0.39405,0.89936,0.18942,1.10218,-0.45926,-0.66119
-0.35803,0.9236,0.13706,1.06907,-0.81921,-0.59777
-0.31925,0.94399,0.08341,0.81829,-0.3633,-0.52977
-0.29651,0.95385,0.04737,-0.37297,0.75382,-0.41387
-0.28656,0.95787,0.0191,-0.72813,0.83202,-0.08221
-0.27211,0.96221,-0.01022,-0.94923,0.01743,0.29634
-0.24659,0.96857,-0.03255,0.14553,-0.46154,-0.42101
-0.21467,0.97518,-0.05417,0.15771,-0.51574,-0.4422
-0.18516,0.97961,-0.07802,0.13551,-0.48254,-0.30797
-0.16193,0.9816,-0.10116,0.20705,-0.12517,0.08707
-0.13728,0.98247,-0.1261,0.24211,0.11854,0.1956
-0.11362,0.98178,-0.1523,0.00996,0.20886,0.26253
-0.08885,0.98025,-0.17668,-0.16292,0.0866,0.41451
-0.06088,0.9793,-0.19304,-0.13548,0.09202,0.44527
-0.0322,0.97958,-0.19847,-0.05575,0.25866,0.33214
-0.00501,0.98085,-0.19471,-0.47273,0.37361,0.1965
0.01641,0.98293,-0.18326,-0.69021,0.40715,0.13249
0.03028,0.98529,-0.16821,-1.06457,0.21346,-0.036
0.03825,0.98661,-0.15854,-1.10668,-0.00352,0.05215
0.04068,0.98765,-0.15128,-1.05434,-0.1006,0.11545
0.0334,0.99053,-0.13317,-0.84281,0.51663,0.22117
0.01401,0.9945,-0.10378,-0.42627,0.39647,0.15673
-0.01394,0.99805,-0.06081,-0.20737,0.21443,0.01043
-0.05556,0.99835,-0.0142,0.10568,0.46283,0.06643
-0.10972,0.99377,0.01932,0.60004,0.97484,-0.30478
-0.16092,0.98578,0.04841,0.80675,0.80663,-0.43037
-0.21278,0.9731,0.0883,0.27873,0.27902,-0.28661
-0.26645,0.95458,0.13335,-0.09861,0.36317,-0.08205
-0.32281,0.93099,0.17045,-0.13622,0.46562,-0.15863
-0.37758,0.90409,0.20013,0.1883,0.42466,-0.11973
-0.42117,0.87661,0.23276,0.36495,0.14733,-0.17766
-0.4505,0.85267,0.26458,0.43683,-0.08462,-0.33422
-0.47073,0.83161,0.2947,0.43368,-0.28251,-0.42383
-0.48351,0.81295,0.32456,0.45486,-0.37832,-0.50713
-0.48812,0.79795,0.35358,0.46618,-0.35918,-0.51229
-0.48648,0.78697,0.3795,0.48955,-0.42265,-0.51077
-0.47972,0.78063,0.40061,0.58625,-0.57648,-0.5097
-0.46938,0.77938,0.41503,0.62001,-0.63097,-0.55517
-0.45948,0.78258,0.42005,0.66371,-0.65931,-0.5284
-0.45124,0.79353,0.40828,0.63056,-0.58734,-0.39165
-0.44419,0.81308,0.37629,0.53167,-0.44361,-0.24096
-0.43339,0.83701,0.33406,0.20072,-0.19658,0.0086
-0.40399,0.86288,0.30369,-0.16014,0.23706,0.47888
-0.35778,0.8815,0.30814,-1.1318,1.3512,1.4432
-0.36096,0.87916,0.31111,-1.00005,1.07998,0.46555
-0.39158,0.87182,0.29426,0.03708,-0.07434,0.12916
-0.41794,0.86174,0.28765,0.36646,-0.37921,0.01745
-0.42847,0.85776,0.284,0.65158,-0.78336,-0.22965
-0.42675,0.87493,0.22885,0.8428,-0.65231,-1.1022
-0.39538,0.90475,0.15843,1.10398,0.10852,-1.49215
-0.34788,0.92599,0.14671,0.75283,2.13904,0.06288
-0.35539,0.9198,0.16631,-0.96792,0.61332,0.30004
-0.37784,0.9126,0.15622,-0.07849,-0.19408,-0.2893
-0.37666,0.91784,0.12533,1.09126,-0.65514,-0.60738
-0.34761,0.93432,0.07885,1.62076,-1.06341,-0.32661
-0.30355,0.95221,0.03381,1.28747,-0.81727,-0.38268
-0.28098,0.95966,0.0103,-0.7106,0.63763,0.01615
-0.26974,0.96278,-0.01732,-1.01225,0.99419,0.21068
-0.25818,0.96437,-0.05782,-1.12778,0.70946,0.21956
-0.23398,0.96886,-0.08095,0.32729,-0.49009,-0.50317
-0.20324,0.97397,-0.1004,0.41793,-0.5974,-0.51381
-0.17663,0.9769,-0.12027,0.32136,-0.47736,-0.2384
-0.1554,0.97793,-0.13963,-0.0236,-0.0461,0.09055
-0.13306,0.97815,-0.15973,-0.04594,-0.04631,0.11066
-0.11454,0.97689,-0.18048,-0.24255,0.07743,0.1733
-0.09423,0.9754,-0.19928,-0.29815,-0.03972,0.30476
-0.07115,0.97475,-0.21167,-0.13087,0.08734,0.42738
-0.04781,0.97511,-0.21648,-0.04716,0.19194,0.32447
-0.02545,0.97671,-0.21303,-0.24045,0.2784,0.30078
-0.00482,0.97968,-0.2005,-0.47299,0.19474,0.21846
0.01056,0.98257,-0.18557,-0.71699,0.09082,0.0935
0.01991,0.98432,-0.17526,-0.92764,0.03077,0.01262
0.02439,0.98554,-0.16767,-0.93635,0.08274,0.16195
0.0243,0.98777,-0.15403,-0.73643,0.19687,0.34051
0.01547,0.99237,-0.12229,-0.81521,0.32148,0.5588
-0.00229,0.99711,-0.07589,-0.47764,0.32549,0.35737
-0.02349,0.99953,-0.01988,0.00574,0.16893,-0.20487
-0.06065,0.99795,0.02065,0.26762,0.71308,-0.49956
-0.11694,0.99173,0.05283,0.63779,1.24295,-0.40111
-0.17538,0.98078,0.08552,0.27879,0.81872,-0.42269
-0.23808,0.96423,0.11649,-0.5282,0.55827,0.08427
-0.3053,0.94006,0.15191,-0.14285,0.62113,-0.04508
-0.35939,0.91496,0.18354,0.1669,0.68702,-0.19299
-0.39955,0.89148,0.2136,0.44531,0.22475,-0.22822
-0.43039,0.87,0.24057,0.52227,-0.23557,-0.24297
-0.45601,0.84983,0.26427,0.52811,-0.31631,-0.33158
-0.47464,0.83089,0.29042,0.53759,-0.42665,-0.50159
-0.48392,0.81514,0.3184,0.52646,-0.51209,-0.49909
-0.48235,0.80486,0.34574,0.53889,-0.55645,-0.50495
-0.47222,0.80076,0.3685,0.57278,-0.66094,-0.49074
-0.45628,0.80342,0.38253,0.70986,-0.61955,-0.59
-0.44065,0.81037,0.38617,0.78724,-0.60633,-0.62725
-0.42809,0.82133,0.37703,0.83155,-0.52742,-0.51104
-0.41542,0.83978,0.34958,0.59605,-0.3355,-0.20526
-0.39863,0.86372,0.30835,0.34667,-0.19494,-0.04709
-0.36268,0.89279,0.26719,0.01605,0.26309,0.50855
-0.31475,0.90687,0.2802,-1.57462,2.19147,2.22128
-0.34631,0.89614,0.27749,-2.19228,2.51652,1.48768
-0.38454,0.88649,0.25741,-0.03899,-0.33441,-0.07888
-0.41463,0.8762,0.24568,0.5844,-0.07708,-0.21173
-0.41399,0.88265,0.22256,0.89619,0.40915,-0.34484
-0.39714,0.89781,0.19033,0.26188,0.9002,-1.71271
-0.40363,0.89951,0.16724,-0.28874,0.32057,-0.88088
-0.42,0.89387,0.15682,-0.26727,0.00424,-0.12624
-0.41738,0.8923,0.17204,1.32662,-0.07769,-0.65994
-0.38929,0.90897,0.14908,1.14855,-0.37493,-0.87279
-0.35111,0.9319,0.09106,0.99663,-0.66569,-0.75306
-0.30168,0.95257,0.04,0.47945,0.14271,-0.54435
-0.27398,0.96169,0.00966,-0.4157,0.78235,-0.29444
-0.26414,0.96417,-0.02447,-0.81331,0.67296,0.03768
-0.24786,0.96715,-0.05649,-0.4668,-0.36049,0.11532
-0.22373,0.97126,-0.08121,0.18949,-0.44499,-0.43558
-0.19503,0.97561,-0.10078,0.28544,-0.46294,-0.46102
-0.17097,0.9778,-0.12116,0.21612,-0.34723,0.00902
-0.14902,0.9788,-0.1405,0.11992,-0.14778,0.16146
-0.12405,0.98003,-0.15539,0.01013,0.21047,0.11106
-0.10133,0.98046,-0.16859,-0.26341,-0.02084,0.08621
-0.07977,0.97993,-0.18269,-0.47651,-0.11207,0.22757
-0.05486,0.97862,-0.19824,-0.34597,-0.05667,0.2806
-0.02751,0.97775,-0.20797,-0.1963,0.14083,0.24349
-0.00086,0.97798,-0.20869,-0.23956,0.33235,0.37962
0.02035,0.9789,-0.2033,-0.46022,0.37411,0.28682
0.03309,0.98047,-0.19388,-0.72188,0.19042,0.12377
0.03977,0.98252,-0.18186,-0.9033,0.27279,0.15462
0.04131,0.98557,-0.16414,-0.87032,0.40286,0.11934
0.03066,0.98986,-0.13873,-0.80551,0.71411,-0.04191
0.0063,0.99402,-0.10905,-0.65502,0.35245,0.12031
-0.02494,0.99767,-0.06357,-0.24958,0.13309,0.38906
-0.06809,0.99757,-0.01471,0.27001,0.40584,0.20346
-0.11807,0.99286,0.01697,0.74512,0.80409,-0.56501
-0.16346,0.98533,0.04909,0.67585,0.71331,-0.49985
-0.21085,0.97366,0.08675,0.1895,0.37007,-0.2189
-0.26187,0.9565,0.12862,-0.3224,0.41052,0.03944
-0.31225,0.9361,0.16191,-0.25307,0.41763,-0.08641
-0.36155,0.913,0.18897,0.11096,0.2759,-0.29392
-0.40175,0.88927,0.21862,0.42136,0.02784,-0.26249
-0.42849,0.86867,0.24862,0.46575,-0.06267,-0.33426
-0.44547,0.85029,0.28029,0.41054,-0.3099,-0.42566
-0.45552,0.8328,0.31455,0.41202,-0.41129,-0.50402
-0.45902,0.81769,0.34741,0.42487,-0.39711,-0.54016
-0.45911,0.80543,0.37484,0.5031,-0.46299,-0.54749
-0.45535,0.79884,0.39309,0.61003,-0.49337,-0.5214
-0.44831,0.79832,0.40213,0.64153,-0.51089,-0.53723
-0.43954,0.80347,0.40155,0.67942,-0.50191,-0.43081
-0.43094,0.81512,0.38713,0.66849,-0.46436,-0.34268
-0.41996,0.83438,0.357,0.55646,-0.37494,-0.15074
-0.40081,0.85774,0.32192,0.06547,0.01897,0.47156
-0.35758,0.88545,0.29686,-0.66632,1.1123,1.35077
-0.3222,0.89442,0.31016,-1.73255,1.72042,1.34069
-0.34285,0.88858,0.30476,-0.71025,0.53734,0.36786
-0.37182,0.88227,0.2887,0.11618,-0.28826,-0.01775
-0.38996,0.87637,0.28268,0.39253,-0.43013,-0.12217
-0.38889,0.88429,0.25845,0.77784,0.0198,-0.75241
-0.36627,0.90761,0.20517,0.73062,0.30495,-1.31161
-0.33582,0.92485,0.17856,0.12407,1.98951,-0.35118
-0.34402,0.91678,0.20291,-0.15098,-0.13574,0.48528
-0.35583,0.91158,0.20594,0.37764,-0.38051,-0.13395
-0.3529,0.91684,0.18674,0.67815,-0.58394,-0.75098
-0.32949,0.93353,0.14124,1.27995,-0.99156,-0.75613
-0.28637,0.95409,0.0878,0.95651,-0.53104,-0.61016
-0.25449,0.96482,0.06596,0.4883,-0.0523,-0.5252
-0.24065,0.96951,0.04629,-0.65243,1.04034,0.19989
-0.23208,0.97249,0.01991,-0.67635,0.40939,0.28453
-0.21762,0.97603,-0.00336,-0.32,-0.10823,0.30046
-0.19543,0.98047,-0.02224,0.21828,-0.42106,-0.18537
-0.17061,0.98463,-0.03725,0.21856,-0.51514,-0.30777
-0.14631,0.98764,-0.05631,0.10432,-0.45104,-0.38822
-0.12182,0.98957,-0.07689,0.02955,-0.09879,-0.29351
-0.09563,0.99096,-0.09409,-0.1523,0.10387,0.03258
-0.06703,0.99171,-0.1096,-0.38777,0.19635,0.23672
-0.03845,0.99063,-0.13108,-0.35024,-0.13088,0.17108
-0.01481,0.98872,-0.14904,-0.39291,-0.19314,0.15913
0.00775,0.9874,-0.15808,-0.412,0.13197,0.32059
0.02896,0.98645,-0.16151,-0.32256,0.51007,0.45722
0.04541,0.98625,-0.15887,-0.4563,0.37484,0.32888
0.05622,0.98728,-0.14874,-0.72478,0.27646,0.26207
0.06198,0.98923,-0.13259,-0.84752,0.24723,0.22098
0.06265,0.99154,-0.11365,-0.84846,0.33196,0.16347
0.05092,0.99507,-0.08509,-0.78905,0.6767,0.17009
0.02757,0.9987,-0.04296,-0.53396,0.28368,0.19274
-0.00782,0.9998,0.01815,-0.10742,0.04188,0.11923
-0.05848,0.99602,0.06727,0.30089,0.38609,-0.3379
-0.10884,0.98977,0.0923,0.7012,1.02308,-0.78991
-0.15161,0.98082,0.1225,-0.01522,0.34137,-0.35455
-0.20423,0.96633,0.15653,-0.3624,0.25137,-0.1899
-0.26419,0.9462,0.18685,-0.66878,0.2836,-0.13392
-0.31429,0.92483,0.21427,-0.16442,0.34995,-0.36301
-0.35393,0.90416,0.23922,0.13461,0.31657,-0.40966
-0.38383,0.88454,0.26508,0.59449,-0.08043,-0.4216
-0.40247,0.86573,0.29754,0.53965,-0.21389,-0.38286
-0.41203,0.84826,0.33269,0.48421,-0.28595,-0.3844
-0.41774,0.83256,0.36379,0.3811,-0.36851,-0.4266
-0.42125,0.81993,0.38764,0.43748,-0.43612,-0.48298
-0.42276,0.81074,0.40493,0.47994,-0.46376,-0.50018
-0.42194,0.80722,0.41275,0.6127,-0.52692,-0.50111
-0.42079,0.80902,0.41039,0.66691,-0.53563,-0.51994
-0.42173,0.81479,0.39781,0.72099,-0.52811,-0.48616
-0.42177,0.82622,0.37346,0.72539,-0.39334,-0.30487
-0.41721,0.84324,0.33894,0.55053,-0.3195,-0.23675
-0.40236,0.86473,0.30059,0.08443,-0.10017,0.02488
-0.35964,0.89059,0.27841,-0.70602,1.12119,1.19502
-0.32749,0.89833,0.29286,-1.58895,1.58362,1.36767
-0.34701,0.89651,0.27543,-1.58105,1.11056,0.31429
-0.37326,0.89172,0.25596,0.12911,-0.09925,-0.2396
-0.38753,0.89091,0.23684,0.60746,0.21744,-0.41015
-0.37878,0.90437,0.19657,0.6913,0.44109,-0.60184
-0.36735,0.91383,0.17313,0.29933,1.02881,-0.56984
-0.37772,0.90975,0.17229,-0.24757,0.04798,-0.15393
-0.39173,0.90358,0.17347,-0.16917,-0.272,0.25739
-0.38638,0.90671,0.16906,1.16763,-0.28941,-0.47985
-0.35472,0.92516,0.13512,1.07506,-0.59485,-0.85618
-0.30743,0.94822,0.07981,1.01776,-0.49372,-0.61645
-0.26851,0.96212,0.04726,0.38472,0.15989,-0.60706
-0.24966,0.96791,0.02864,-1.05116,0.95305,0.20087
-0.23812,0.97124,-0.00103,-1.13641,0.4256,0.19834
-0.21841,0.97554,-0.02475,-0.29568,-0.38101,-0.23274
-0.1926,0.98031,-0.0436,0.26988,-0.62055,-0.43539
-0.16276,0.98456,-0.0644,0.29738,-0.59766,-0.37244
-0.13743,0.98685,-0.08509,0.25804,-0.37181,-0.01618
-0.10829,0.98864,-0.10424,0.09124,0.0026,0.22289
-0.07865,0.98947,-0.1215,-0.11379,0.42281,0.13474
-0.05146,0.98899,-0.13873,-0.32752,-0.00718,0.22746
-0.02466,0.9877,-0.1544,-0.33415,-0.03934,0.17871
0.00169,0.98649,-0.16384,-0.29527,0.09753,0.21811
0.02754,0.98602,-0.16435,-0.28653,0.29818,0.37892
0.0493,0.98644,-0.15653,-0.60776,0.25533,0.21859
0.06355,0.98757,-0.14373,-0.72571,0.24173,0.11023
0.07253,0.98886,-0.12995,-0.87595,0.11593,-0.00448
0.07867,0.99011,-0.11612,-0.7921,0.15396,0.17034
0.07766,0.99223,-0.09723,-0.73785,0.29281,0.07539
0.06516,0.99503,-0.07524,-0.76307,0.55389,-0.04135
0.03842,0.99827,-0.04442,-0.58133,0.38909,0.038
-0.00014,1.0,0.00311,-0.14782,0.18993,0.14783
-0.05049,0.99778,0.04334,0.54736,0.70156,-0.23764
-0.10226,0.99244,0.06785,0.7311,0.90886,-0.39564
-0.15136,0.98392,0.0948,0.67786,0.79632,-0.42046
-0.20453,0.97068,0.12627,-0.07941,0.33112,-0.04827
-0.26016,0.95257,0.15791,-0.16713,0.35571,-0.02052
-0.31496,0.93087,0.18513,-0.17936,0.37005,-0.08891
-0.36677,0.90698,0.20703,0.27287,0.03406,-0.1779
-0.4091,0.88349,0.2282,0.42392,0.00882,-0.22253
-0.44145,0.86173,0.25009,0.48755,-0.06105,-0.34587
-0.46311,0.84197,0.2768,0.42473,-0.30393,-0.45284
-0.47626,0.82413,0.30658,0.3767,-0.35828,-0.51461
-0.48058,0.80954,0.33717,0.40887,-0.38477,-0.5447
-0.47779,0.79958,0.36386,0.49275,-0.46866,-0.54501
-0.47005,0.79559,0.3822,0.63703,-0.56552,-0.52251
-0.45985,0.79798,0.38956,0.76826,-0.64617,-0.53489
-0.45201,0.8055,0.38321,0.82975,-0.59661,-0.44788
-0.44631,0.81909,0.36043,0.79035,-0.44619,-0.30452
-0.43857,0.83952,0.32071,0.53172,-0.24034,-0.11889
-0.42156,0.86405,0.27513,0.16021,0.08376,0.34261
-0.37935,0.89182,0.24649,-0.53711,1.16765,1.52213
-0.35559,0.89824,0.25829,-1.7084,1.85518,1.70768
-0.37788,0.89218,0.24743,-1.06482,0.74022,0.21798
-0.40684,0.88147,0.23976,-0.09294,-0.23299,-0.11804
-0.42705,0.87258,0.23712,0.27634,-0.33807,-0.22635
-0.42773,0.88015,0.2059,0.82928,0.07464,-0.94952
-0.40653,0.90104,0.15119,0.76437,0.3285,-1.21708
-0.37687,0.91799,0.12354,0.34025,1.15736,-0.56895
-0.37985,0.9147,0.13795,-0.43457,0.95686,0.29727
-0.39302,0.90895,0.13908,0.91229,-0.4198,-0.04959
-0.38875,0.91314,0.12271,1.1277,-0.50759,-0.52563
-0.36055,0.92997,0.07187,1.26759,-0.75742,-0.72171
-0.3001,0.9539,0.00406,0.65761,-0.09899,-0.64198
-0.26525,0.96387,-0.02445,0.18691,0.26956,-0.64544
-0.24421,0.9685,-0.04864,-0.65557,0.79793,-0.07755
-0.22718,0.97085,-0.07637,-0.61757,-0.17518,0.21814
-0.19797,0.97503,-0.10062,-0.16003,-0.34615,-0.07776
-0.16636,0.97885,-0.11912,0.28701,-0.51383,-0.4775
-0.14114,0.98057,-0.13624,0.29768,-0.5127,-0.12984
-0.11825,0.98153,-0.15041,0.16085,-0.38424,0.0125
-0.09161,0.9825,-0.16217,-0.05091,0.01869,0.11398
-0.06845,0.98192,-0.17647,-0.43021,0.24006,0.11174
-0.04553,0.98013,-0.19306,-0.51779,0.06018,0.14602
-0.01892,0.9783,-0.20631,-0.39215,-0.12099,0.23787
0.00875,0.97752,-0.21068,-0.20133,0.05907,0.31033
0.03474,0.97742,-0.20842,-0.26257,0.13528,0.32007
0.05657,0.97824,-0.19964,-0.66103,0.2645,0.12257
0.07089,0.9798,-0.18698,-0.76929,0.23785,0.07897
0.07958,0.98113,-0.17619,-0.88645,0.2019,0.0828
0.08655,0.98214,-0.16707,-0.73111,0.31844,0.22357
0.08847,0.98415,-0.15372,-0.6532,0.46776,0.23088
0.08114,0.98785,-0.13256,-0.70054,0.50797,0.30944
0.06467,0.99285,-0.10028,-0.66393,0.11692,0.24268
0.03809,0.99786,-0.05321,-0.5366,-0.00974,0.12288
-0.00303,1.0,-0.00085,-0.17093,0.08027,-0.0033
-0.0591,0.99772,0.03254,0.77829,1.1951,-0.54527
-0.10977,0.99209,0.06095,0.62864,0.89552,-0.48097
-0.16158,0.98221,0.09572,0.24554,0.49483,-0.3897
-0.2223,0.96621,0.13046,-0.39902,0.31617,0.02462
-0.28361,0.94576,0.15846,-0.06495,0.44607,-0.21094
-0.33704,0.92352,0.18306,0.1126,0.45941,-0.3159
-0.37874,0.90177,0.20825,0.32205,0.03681,-0.25108
-0.41037,0.8814,0.23396,0.33951,-0.21387,-0.35997
-0.43301,0.86226,0.26269,0.35533,-0.27814,-0.38978
-0.44826,0.84377,0.29516,0.44817,-0.33104,-0.52718
-0.45567,0.827,0.32929,0.47493,-0.34726,-0.55096
-0.45507,0.81462,0.35959,0.52302,-0.4559,-0.51976
-0.44673,0.80949,0.381,0.59921,-0.49505,-0.50373
-0.43494,0.81131,0.39066,0.75154,-0.59616,-0.53496
-0.42664,0.8179,0.38604,0.8835,-0.57185,-0.48429
-0.42323,0.8297,0.36397,0.86578,-0.47146,-0.34599
-0.41871,0.84822,0.32435,0.28331,-0.17775,-0.01455
-0.4053,0.87113,0.27726,0.11192,-0.05687,0.18551
-0.36141,0.89779,0.2517,-0.31008,0.98882,1.48577
-0.33159,0.90333,0.27211,-2.17987,1.99497,1.33012
-0.35446,0.90108,0.24982,-1.09747,0.75659,0.25316
-0.38294,0.89559,0.22644,0.17446,-0.40754,-0.16566
-0.40244,0.88938,0.21689,0.54032,-0.24571,-0.24385
-0.3981,0.89746,0.18998,0.63238,-0.13188,-0.50229
-0.37491,0.91574,0.14445,0.49855,0.32167,-1.71749
-0.35216,0.92843,0.11834,-0.48072,1.24648,-0.05558
-0.36927,0.91996,0.13157,-0.69132,0.77846,0.86035
-0.38203,0.91256,0.14589,0.76143,0.0217,0.88843
-0.3721,0.91935,0.12782,1.207,-0.67416,-0.98135
-0.34095,0.93669,0.07979,1.25427,-0.83795,-0.76604
-0.29334,0.95568,0.0252,1.0679,-0.54714,-0.58286
-0.26187,0.9651,-0.00272,0.15417,0.32793,-0.67985
-0.24996,0.96799,-0.02268,-0.74148,0.96814,0.09281
-0.23841,0.97003,-0.04696,-1.16193,0.18615,0.3016
-0.21385,0.97456,-0.06708,0.24826,-0.47837,-0.34761
-0.18674,0.97876,-0.08457,0.37594,-0.53556,-0.37925
-0.16029,0.98158,-0.10397,0.33656,-0.53459,-0.17869
-0.13105,0.98339,-0.12558,0.04331,-0.20589,-0.01723
-0.09975,0.98431,-0.14552,-0.11797,-0.01355,0.09808
-0.07055,0.9843,-0.16179,-0.33162,0.1989,0.1007
-0.04149,0.98353,-0.1759,-0.35757,0.21828,0.18011
-0.01135,0.98194,-0.18887,-0.19401,0.01667,0.23785
0.01629,0.98053,-0.19569,-0.26772,0.062,0.30107
0.04285,0.9804,-0.19228,-0.44751,0.23984,0.34249
0.06565,0.98107,-0.18218,-0.6979,0.24539,0.22129
0.08056,0.98209,-0.17034,-0.96886,0.17441,0.08856
0.089,0.98342,-0.15802,-1.05693,0.19105,0.16999
0.09569,0.98482,-0.1448,-1.0655,0.21226,0.25792
0.09406,0.98765,-0.12526,-0.81753,0.6172,0.17848
0.07451,0.99271,-0.0947,-0.55977,0.40878,0.05835
0.04144,0.99772,-0.05329,-0.40521,0.20183,0.05364
-0.00233,0.99999,-0.00428,-0.12459,0.28434,0.20401
-0.0583,0.99793,0.02729,0.55878,0.93188,-0.39441
-0.11075,0.99244,0.05293,0.90865,1.18507,-0.60812
-0.16353,0.98266,0.08738,-0.12245,0.3456,0.09635
-0.22152,0.96719,0.12442,-0.28569,0.37199,0.14625
-0.27902,0.94794,0.15349,-0.29386,0.39689,0.06339
-0.33139,0.92634,0.17908,0.12863,0.31586,-0.27503
-0.37674,0.90377,0.20312,0.35131,0.04781,-0.19408
-0.4131,0.88245,0.22501,0.46079,0.02212,-0.23774
-0.43946,0.86249,0.25097,0.38787,-0.28491,-0.41819
-0.45741,0.84346,0.28169,0.39537,-0.43419,-0.48289
-0.46586,0.82739,0.31368,0.4308,-0.42056,-0.50892
-0.46623,0.81547,0.34299,0.45666,-0.52278,-0.51207
-0.45938,0.80976,0.36506,0.56804,-0.55782,-0.52325
-0.44827,0.81094,0.37608,0.71573,-0.60964,-0.55526
-0.43699,0.8179,0.37427,0.83186,-0.6158,-0.52944
-0.42795,0.83078,0.3559,0.76609,-0.49901,-0.32265
-0.41838,0.85182,0.31522,0.53113,-0.4223,-0.04754
-0.40129,0.8764,0.26623,0.1511,-0.14441,0.26209
-0.35473,0.90138,0.24835,-0.27834,0.77206,1.33613
-0.33335,0.90412,0.26728,-2.36043,2.38473,1.29547
-0.36367,0.89531,0.2572,-1.11626,0.89683,0.38306
-0.39632,0.88445,0.24635,0.34836,-0.4568,-0.12242
-0.41419,0.87705,0.24336,0.56397,-0.39051,-0.15027
-0.40435,0.88873,0.21602,0.829,0.42394,-1.2697
-0.37593,0.90992,0.1753,0.49876,0.91639,-1.3147
-0.36462,0.9162,0.16626,0.0344,1.01001,-0.51678
-0.38983,0.90339,0.17867,-0.63346,0.33446,0.77046
-0.39643,0.90167,0.17272,0.82177,-0.25422,-0.96777
-0.37931,0.91443,0.1412,0.92098,-0.50095,-1.06225
-0.33587,0.93804,0.08527,1.20754,-0.81825,-0.72419
-0.25612,0.96625,0.02764,0.59228,0.00988,-0.36463
-0.22306,0.97472,0.01294,-0.40738,1.07255,0.05846
-0.20887,0.97784,-0.01425,-1.01246,0.52991,0.14053
-0.19165,0.98051,-0.04328,-0.84485,-0.10426,0.12344
-0.16444,0.98411,-0.06696,0.1144,-0.58253,-0.25785
-0.1339,0.98705,-0.08833,0.32359,-0.57314,-0.42911
-0.10785,0.98775,-0.11282,0.1317,-0.48222,-0.13436
-0.08527,0.98705,-0.1359,0.04723,-0.21498,0.24309
-0.05761,0.98737,-0.14761,-0.01632,0.38379,0.30959
-0.02971,0.98697,-0.15815,-0.25833,0.33289,0.08817
-0.00777,0.98447,-0.17537,-0.48979,-0.09531,-0.00941
0.01009,0.98171,-0.19014,-0.62217,-0.08928,0.1277
0.03347,0.98037,-0.19432,-0.43644,0.05706,0.45434
0.05663,0.98033,-0.18908,-0.20047,0.24216,0.53882
0.0748,0.98059,-0.18122,-0.5847,0.23597,0.09974
0.08691,0.98131,-0.17167,-0.72052,0.19569,-0.01854
0.09292,0.98271,-0.16014,-0.8483,0.19585,-0.02211
0.0981,0.98459,-0.14476,-1.02679,0.24368,0.35634
0.09544,0.98811,-0.12055,-0.82032,0.52859,0.18281
0.07736,0.99297,-0.0896,-0.70854,0.37962,0.17102
0.04752,0.99779,-0.04638,-0.47155,0.06457,0.10815
0.00829,0.99994,0.00782,-0.04079,0.21335,0.08451
-0.04419,0.99807,0.04365,0.66598,0.92492,-0.45889
-0.09647,0.993,0.06814,0.84836,1.06352,-0.48316
-0.14954,0.98349,0.10196,-0.0162,0.38292,-0.12065
-0.21079,0.96803,0.13599,-0.45407,0.38898,0.11327
-0.27124,0.94888,0.1614,-0.20672,0.50453,-0.184
-0.32234,0.92818,0.18595,0.16556,0.2175,-0.27322
-0.36468,0.90679,0.21152,0.25796,0.09332,-0.19735
-0.39975,0.88614,0.23444,0.41655,-0.01646,-0.33852
-0.42588,0.86634,0.26091,0.42683,-0.25013,-0.37152
-0.44354,0.84852,0.28859,0.44958,-0.36862,-0.36361
-0.45245,0.83446,0.31458,0.55774,-0.48218,-0.42247
-0.45225,0.82539,0.33794,0.56013,-0.72488,-0.51979
-0.44393,0.82347,0.35332,0.52437,-0.79009,-0.51152
-0.43311,0.82873,0.35443,0.48806,-0.85348,-0.49286
-0.42433,0.83864,0.34151,0.59961,-0.60278,-0.41216
-0.41587,0.85295,0.31547,0.62497,-0.49738,-0.32338
-0.40304,0.87188,0.27817,0.51809,-0.29464,-0.13874
-0.38162,0.89073,0.24692,0.08848,0.30174,0.50387
-0.33382,0.90933,0.24836,-0.26056,0.9547,1.20736
-0.31348,0.91106,0.26777,-1.86828,1.79465,0.85695
-0.3465,0.90325,0.25315,-1.04249,0.69839,0.60698
-0.383,0.89391,0.23287,-0.05386,-0.33187,0.06695
-0.40145,0.88818,0.22356,0.51455,-0.47126,-0.10942
-0.3886,0.89991,0.19786,0.75732,0.27077,-0.94766
-0.3555,0.9219,0.15402,0.5034,0.46827,-1.63457
-0.33179,0.9345,0.12897,-0.56549,1.28564,-0.31766
-0.35366,0.92579,0.13359,-0.8758,0.64119,0.35681
-0.36948,0.92035,0.12819,0.79143,-0.34142,0.38764
-0.35551,0.92868,0.10564,1.09659,-0.5336,-0.7779
-0.30599,0.9493,0.07219,1.16001,-0.74832,-0.6794
-0.18409,0.98291,-0.00017,0.71247,-0.25124,-0.52019
-0.14728,0.98893,-0.01782,-0.23549,0.59465,-0.39911
-0.13572,0.9901,-0.03564,-0.95586,0.6244,0.04826
-0.12227,0.99074,-0.05906,-1.0224,0.16785,0.13294
-0.09891,0.99175,-0.08153,-0.06279,-0.52486,-0.1963
-0.07215,0.9916,-0.10738,0.19606,-0.53899,-0.41504
-0.04927,0.9894,-0.13657,0.14229,-0.49841,-0.36901
-0.03013,0.98655,-0.16063,-0.03809,-0.13185,0.0948
-0.00763,0.98444,-0.17554,-0.0108,0.39442,0.30873
0.0169,0.98225,-0.18679,-0.0517,0.43852,0.40331
0.04517,0.97935,-0.19708,-0.09497,-0.10985,0.2749
0.07386,0.97673,-0.20134,-0.17573,-0.16873,0.07275
0.10358,0.97404,-0.2013,-0.30067,0.05068,0.02955
0.13328,0.97086,-0.19917,-0.52289,0.3582,0.23755
0.15667,0.9682,-0.19505,-0.68961,0.35031,0.29788
0.1708,0.96777,-0.18508,-0.95396,0.22227,0.13552
0.17993,0.96854,-0.1719,-1.18202,0.11431,0.10914
0.18739,0.96956,-0.15759,-1.17966,0.14317,0.11006
0.1904,0.97139,-0.14198,-1.05336,0.37388,0.10858
0.1771,0.97628,-0.12455,-0.92686,0.54052,0.05743
0.1471,0.98374,-0.103,-0.59335,0.11156,0.32888
0.10471,0.99267,-0.06034,-0.35363,0.05951,0.40526
0.05097,0.99857,-0.01585,0.27589,0.36368,0.0312
-0.0097,0.99992,0.0079,0.76399,1.04595,-0.5676
-0.06251,0.99752,0.03247,0.64307,0.96377,-0.38911
-0.11721,0.99085,0.06694,-0.01769,0.45349,0.00957
-0.17885,0.97909,0.09695,-0.33755,0.43066,0.15445
-0.24042,0.96333,0.11913,-0.28457,0.37349,-0.03393
-0.29535,0.94524,0.13886,-0.0152,0.13206,-0.12838
-0.33629,0.92832,0.15853,0.25013,-0.12605,-0.24955
-0.36624,0.91309,0.17924,0.30049,-0.26076,-0.30967
-0.38758,0.89917,0.20317,0.35259,-0.41319,-0.31987
-0.40129,0.88678,0.22933,0.35678,-0.49522,-0.43002
-0.40627,0.87745,0.255,0.36865,-0.50112,-0.48048
-0.40361,0.87206,0.27678,0.4445,-0.58062,-0.51222
-0.39526,0.87125,0.29102,0.57221,-0.68851,-0.4671
-0.38329,0.8749,0.29603,0.60078,-0.72558,-0.46425
-0.37169,0.88249,0.28819,0.66965,-0.63916,-0.36492
-0.3601,0.89522,0.26249,0.56326,-0.41279,-0.10259
-0.34693,0.9108,0.22378,0.36776,-0.27299,0.04688
-0.32219,0.92727,0.19069,-0.31139,0.81113,1.07862
-0.28411,0.93904,0.1936,-2.07441,1.93608,1.41367
-0.30291,0.93311,0.19377,-1.91633,1.61117,0.90147
-0.33588,0.92456,0.17992,-0.30553,-0.3149,0.13421
-0.35954,0.91593,0.17833,0.31294,-0.64831,-0.07536
-0.36008,0.91861,0.16279,0.3703,-0.57411,-0.38495
-0.33469,0.93579,0.11082,0.34839,0.73125,-1.4446
-0.29929,0.95209,0.0629,-0.13793,1.46288,-0.73871
-0.30209,0.9518,0.05308,-0.87168,1.72444,-0.07026
-0.31862,0.94538,0.06883,1.28014,-0.38866,0.06202
-0.31099,0.94823,0.06438,1.39199,-0.47969,-0.43138
-0.27399,0.961,0.03751,1.41138,-0.59126,-0.52182
-0.21474,0.97666,-0.0042,0.884,-0.30232,-0.40656
-0.17616,0.98392,-0.02944,0.21136,0.36471,-0.58468
-0.15585,0.98611,-0.0574,-0.16839,0.48618,-0.49062
-0.14183,0.98609,-0.08666,-1.14046,0.06249,0.13295
-0.11755,0.98708,-0.10886,-0.52954,-0.35041,-0.36305
-0.08842,0.98842,-0.12333,-0.15787,-0.39203,-0.49046
-0.06101,0.9888,-0.1362,-0.00626,-0.44962,-0.14201
-0.03499,0.98763,-0.15284,-0.01788,-0.35625,0.02248
-0.00788,0.98502,-0.17225,-0.04264,-0.01034,0.09483
0.017,0.98205,-0.18787,-0.25926,0.11706,0.24305
0.04239,0.97825,-0.20306,-0.40481,0.08497,0.22439
0.06942,0.97293,-0.22042,-0.2552,-0.04138,0.27692
0.09571,0.96798,-0.23207,-0.2647,0.12014,0.35481
0.12313,0.96495,-0.23174,-0.3089,0.34124,0.40479
0.15077,0.96399,-0.21909,-0.44925,0.35402,0.31717
0.17386,0.96418,-0.20034,-0.74801,0.27285,0.16802
0.18915,0.96511,-0.18109,-0.98589,0.20059,0.00072
0.19611,0.96674,-0.1642,-1.22171,0.11572,0.12114
0.19554,0.96952,-0.14761,-1.08665,0.22616,0.24682
0.18321,0.97527,-0.1236,-1.0051,0.4763,0.21911
0.16108,0.98286,-0.08962,-0.77367,0.28737,0.30376
0.13263,0.99045,-0.03764,-0.39108,0.03679,0.18971
0.09164,0.99572,0.01238,-0.04348,0.33647,-0.07582
0.03399,0.99884,0.03411,0.57589,1.10024,-0.64974
-0.02096,0.99824,0.05545,0.58238,0.90215,-0.46841
-0.08184,0.99318,0.08306,-0.52121,0.32036,0.07919
-0.14771,0.98291,0.10988,-0.51154,0.35187,0.03743
-0.20602,0.96944,0.13321,-0.18337,0.45154,-0.14299
-0.25659,0.95374,0.15667,0.15282,0.14517,-0.18706
-0.30019,0.93659,0.1808,0.21954,0.01442,-0.14316
-0.33567,0.91971,0.20363,0.2864,-0.34403,-0.26701
-0.3633,0.90366,0.22674,0.34895,-0.37586,-0.35434
-0.38454,0.8885,0.25039,0.40923,-0.40005,-0.44022
-0.39635,0.87579,0.27548,0.39937,-0.49669,-0.48606
-0.39938,0.86667,0.29898,0.44494,-0.53132,-0.49019
-0.3947,0.86233,0.31716,0.48775,-0.57121,-0.49291
-0.3854,0.86337,0.32567,0.67921,-0.70643,-0.46011
-0.37729,0.86856,0.32133,0.70736,-0.72185,-0.44093
-0.37113,0.8785,0.30085,0.68132,-0.61301,-0.27805
-0.3617,0.89459,0.26244,0.20977,-0.19295,0.1738
-0.34497,0.91324,0.21676,0.08432,-0.01155,0.43752
-0.30174,0.93427,0.18997,-0.05397,0.35316,0.92262
-0.26543,0.94209,0.20498,-1.82077,1.84275,1.78181
-0.28351,0.93838,0.19763,-1.76364,1.50356,0.5947
-0.31349,0.9316,0.18399,-0.09351,-0.29766,0.02283
-0.33445,0.92562,0.17714,0.44137,-0.19084,-0.07865
-0.32839,0.93188,0.15414,0.65529,0.14524,-0.45396
-0.30487,0.94535,0.11563,0.4853,0.29458,-1.06161
-0.29026,0.95288,0.08815,-0.20837,0.65856,-0.70337
-0.30202,0.94975,0.08224,-0.51117,0.19266,0.52483
-0.31382,0.94533,0.08867,0.06606,-0.05498,0.98586
-0.30002,0.95113,0.07304,0.907,-0.26243,-0.90225
-0.26062,0.96484,0.03395,1.03389,-0.72179,-0.63378
-0.20617,0.97843,-0.01275,0.87263,-0.50373,-0.37659
-0.16104,0.98594,-0.0446,0.06638,0.30193,-0.38637
-0.14327,0.98743,-0.0667,-0.74598,0.71386,0.13435
-0.1266,0.98786,-0.09007,-0.9511,0.0549,0.25094
-0.10253,0.98869,-0.10943,-0.21705,-0.36453,-0.04294
-0.07419,0.98938,-0.125,0.10608,-0.40392,-0.34276
-0.04556,0.98905,-0.14038,0.01928,-0.38431,-0.23089
-0.0214,0.98748,-0.15629,-0.05587,-0.3165,-0.05884
0.00169,0.9858,-0.16793,-0.09113,0.10247,0.24552
0.0263,0.98407,-0.17585,-0.16686,0.1395,0.2299
0.05063,0.97974,-0.19378,-0.34542,-0.02242,0.09599
0.07326,0.97439,-0.21258,-0.46551,-0.10733,0.14801
0.10003,0.96992,-0.22193,-0.42882,-0.01393,0.31169
0.1299,0.96655,-0.22114,-0.34881,0.18204,0.35969
0.15648,0.96455,-0.21251,-0.37842,0.45551,0.30271
0.17532,0.96467,-0.19668,-0.66119,0.30894,0.08938
0.1854,0.96567,-0.18197,-1.03118,0.173,0.03565
0.1888,0.96676,-0.17241,-1.38243,0.13288,0.16336
0.19058,0.96813,-0.1625,-1.17679,0.26246,0.14743
0.18107,0.97288,-0.14392,-0.8299,0.54955,0.14014
0.15678,0.98076,-0.11628,-0.66229,0.29191,0.33285
0.12523,0.98917,-0.07655,-0.49129,0.13586,0.34238
0.0806,0.99643,-0.02507,-0.13452,0.16449,0.27461
0.02207,0.99969,0.01147,0.66905,1.09133,-0.53737
-0.0294,0.99896,0.03492,0.7752,1.12763,-0.50146
-0.07978,0.99465,0.0657,-0.26139,0.30086,-0.02069
-0.14,0.98539,0.09697,-0.50306,0.29716,0.12923
-0.20186,0.97187,0.12133,-0.48087,0.35006,-0.05166
-0.25769,0.95518,0.14571,0.06911,0.13517,-0.21993
-0.30225,0.93801,0.16963,0.32877,-0.04159,-0.22861
-0.33537,0.92217,0.19267,0.34509,-0.15353,-0.31851
-0.35944,0.90756,0.2171,0.30062,-0.41829,-0.37466
-0.37699,0.89337,0.24449,0.32656,-0.45115,-0.43399
-0.38677,0.88106,0.27228,0.33817,-0.4466,-0.46837
-0.39013,0.87234,0.29466,0.49008,-0.63505,-0.48428
-0.38826,0.86845,0.30831,0.56279,-0.68049,-0.49699
-0.38257,0.86977,0.31169,0.62884,-0.71313,-0.49559
-0.376,0.8757,0.30293,0.72198,-0.63841,-0.39052
-0.36764,0.8869,0.27974,0.60858,-0.50566,-0.20097
-0.35331,0.90404,0.24059,0.47597,-0.4475,-0.05594
-0.32614,0.92407,0.1993,0.0202,0.16986,0.69454
-0.2711,0.94289,0.19353,-1.47548,1.84032,1.93769
-0.26654,0.94003,0.21282,-2.37283,2.10496,1.47165
-0.29661,0.93346,0.2017,-0.16981,-0.2921,0.00672
-0.32582,0.92548,0.19319,-0.1406,-0.28413,0.01523
-0.33742,0.92328,0.18359,0.57612,-0.36867,-0.18716
-0.32172,0.93555,0.14574,0.68535,-0.06698,-0.83469
-0.28657,0.95309,0.09744,0.15229,0.86339,-1.03398
-0.26231,0.96204,0.07539,-0.55076,1.55188,-0.2564
-0.283,0.95584,0.07923,-0.78812,0.45955,0.63856
-0.29737,0.95185,0.07455,1.0084,-0.42151,-0.3032
-0.28444,0.95686,0.05917,1.13134,-0.56363,-0.69041
-0.23605,0.97155,0.01952,1.19915,-0.89257,-0.47254
-0.17192,0.98489,-0.02109,0.76371,-0.43494,-0.43838
-0.13805,0.98972,-0.03744,-0.09703,0.45621,-0.41813
-0.12722,0.99029,-0.05614,-0.82252,0.89826,0.05593
-0.11774,0.99023,-0.07471,-0.87968,-0.07249,0.23167
-0.09686,0.9912,-0.09026,-0.13142,-0.44194,-0.1102
-0.07145,0.99198,-0.10431,0.1314,-0.5105,-0.3711
-0.04521,0.99172,-0.12017,-0.12537,-0.41488,-0.19411
-0.02226,0.99018,-0.13797,-0.18404,-0.32397,-0.08271
0.0016,0.98811,-0.15371,-0.18815,0.02322,0.15458
0.02761,0.98599,-0.16452,-0.31049,0.04355,0.22809
0.05551,0.98251,-0.17774,-0.34958,-0.09178,0.18052
0.08162,0.97805,-0.19174,-0.37753,-0.14638,0.11294
0.10672,0.97353,-0.20209,-0.36009,0.17852,0.22746
0.13257,0.96967,-0.20536,-0.33679,0.18834,0.31941
0.15659,0.96729,-0.19956,-0.29301,0.23942,0.36947
0.17413,0.96668,-0.18765,-0.58347,0.40871,0.28955
0.18462,0.96737,-0.17349,-0.89953,0.30374,0.09964
0.19075,0.96868,-0.15897,-1.26152,0.25628,0.18259
0.19477,0.9707,-0.14076,-1.12644,0.467,0.13185
0.18809,0.97512,-0.11733,-1.04719,0.51692,0.05358
0.16846,0.98153,-0.09065,-0.84894,0.23025,0.17576
0.13615,0.98921,-0.054,-0.6754,0.14062,0.1479
0.08768,0.99609,-0.01046,0.07853,0.40941,0.05017
0.02585,0.99942,0.02205,0.61489,0.99751,-0.36147
-0.0271,0.99878,0.0413,0.64672,0.79585,-0.35267
-0.07712,0.99486,0.06562,0.37067,0.40208,-0.34719
-0.13446,0.98621,0.09649,-0.44957,0.27671,0.07239
-0.19392,0.97319,0.12368,-0.40706,0.39401,-0.09336
-0.25072,0.95675,0.1475,-0.23624,0.37132,-0.20839
-0.29717,0.9394,0.17095,0.20853,0.01731,-0.23754
-0.33131,0.92345,0.19357,0.30566,-0.20592,-0.29593
-0.35533,0.9091,0.21746,0.32391,-0.32996,-0.31096
-0.37171,0.89593,0.24321,0.32672,-0.50204,-0.37375
-0.38011,0.88522,0.26816,0.35872,-0.50987,-0.39757
-0.38195,0.87761,0.28969,0.39918,-0.55363,-0.42502
-0.37845,0.87401,0.30476,0.51839,-0.68274,-0.44409
-0.37109,0.87484,0.31136,0.61123,-0.70636,-0.43824
-0.36331,0.87938,0.30771,0.63733,-0.69398,-0.4289
-0.35655,0.88787,0.29079,0.6039,-0.50239,-0.26804
-0.3469,0.90186,0.2575,0.25649,-0.22126,0.07843
-0.33034,0.91853,0.21718,0.06971,-0.06673,0.32277
-0.29214,0.93685,0.19224,-0.40758,0.74996,1.16535
-0.25757,0.94512,0.20103,-2.09277,1.90155,1.33428
-0.27423,0.94194,0.19377,-1.3411,0.84961,0.5665
-0.30072,0.93711,0.17718,-0.01528,-0.40122,-0.01269
-0.31983,0.93245,0.16808,0.24192,-0.35844,-0.06598
-0.31343,0.93803,0.14782,0.56943,0.00522,-0.06924
-0.28899,0.95101,0.10987,0.16837,0.5496,-1.62249
-0.27057,0.95952,0.07813,-0.03416,0.85903,-1.28236
-0.28077,0.95683,0.07513,-0.63871,0.46036,0.04276
-0.3008,0.95,0.08375,0.28812,-0.29021,0.8835
-0.30297,0.95036,0.07091,0.91459,-0.40477,-0.05959
-0.27313,0.96123,0.03783,1.14108,-0.60721,-0.70622
-0.21872,0.97569,-0.01356,1.10151,-0.6803,-0.54829
-0.16305,0.98512,-0.05439,0.02752,0.50315,-0.63844
-0.13589,0.98793,-0.07431,-0.42738,0.88263,-0.26869
-0.12045,0.988,-0.09667,-1.22436,0.58581,0.42157
-0.09239,0.98884,-0.11684,-0.1849,-0.37196,-0.11051
-0.06255,0.98908,-0.13346,0.04974,-0.40471,-0.39619
-0.0374,0.98812,-0.14909,0.14179,-0.45748,-0.33457
-0.01444,0.98556,-0.16869,0.00069,-0.41209,0.01552
0.01508,0.98257,-0.18527,-0.05166,-0.04347,0.26779
0.0453,0.97999,-0.19381,-0.30417,0.16933,0.21829
0.07262,0.9761,-0.20484,-0.39498,0.04754,0.17391
0.09705,0.9707,-0.21982,-0.46171,-0.03552,0.15218
0.1237,0.96529,-0.23002,-0.40198,0.06257,0.30463
0.15177,0.96215,-0.22637,-0.44636,0.30887,0.37532
0.17707,0.96094,-0.21271,-0.5436,0.40314,0.36312
0.19603,0.96102,-0.19497,-0.88536,0.25256,0.0985
0.20694,0.96173,-0.17959,-1.01821,0.21173,0.02494
0.21223,0.96255,-0.16871,-1.32565,0.12002,0.09399
0.21219,0.96457,-0.15677,-1.03459,0.61747,0.01159
0.19642,0.97046,-0.1401,-0.91836,0.56506,0.01177
0.1643,0.9795,-0.11652,-0.78558,0.41601,0.08912
0.12386,0.9893,-0.07713,-0.35133,0.1385,0.40202
0.07135,0.99677,-0.03681,-0.01627,0.31565,0.16982
0.01333,0.99984,-0.01181,0.61599,0.96738,-0.3867
-0.03641,0.99921,0.01599,0.53337,0.61787,-0.16805
-0.09184,0.99436,0.053,0.20218,0.344,-0.09248
-0.15226,0.98457,0.08629,-0.1984,0.33132,0.15299
-0.21329,0.97033,0.11385,-0.03332,0.20826,-0.19602
-0.2707,0.95261,0.13879,0.11453,0.06874,-0.23526
-0.31615,0.93464,0.16276,0.25054,0.00426,-0.23045
-0.34938,0.9182,0.18669,0.23207,-0.27778,-0.30627
-0.37356,0.90296,0.2124,0.26916,-0.43654,-0.35191
-0.38967,0.88896,0.24066,0.30109,-0.46759,-0.38003
-0.3973,0.87802,0.2669,0.35563,-0.51178,-0.39333
-0.39871,0.87116,0.28656,0.47158,-0.64568,-0.42836
-0.39387,0.86983,0.29709,0.62648,-0.75071,-0.44374
-0.38467,0.87398,0.29695,0.70517,-0.81632,-0.43467
-0.37266,0.88379,0.28291,0.59019,-0.65546,-0.34853
-0.35492,0.90057,0.25101,0.36231,-0.50266,-0.1418
-0.32699,0.9215,0.20956,0.05279,-0.20584,0.24504
-0.28162,0.94101,0.1876,-0.49651,0.52245,0.81254
-0.24194,0.95087,0.19318,-1.9225,1.64128,1.25172
-0.25638,0.94641,0.19642,-1.38805,1.49004,0.92687
-0.29175,0.93868,0.18375,0.2255,-0.23129,0.19056
-0.31779,0.93301,0.16884,0.48834,-0.26916,0.06728
-0.3157,0.93649,0.15271,0.83228,0.05231,0.12381
-0.28672,0.94983,0.12498,0.82755,0.35123,-0.70082
-0.261,0.96102,0.09121,0.45211,0.36982,-1.8567
-0.26278,0.96206,0.07341,-0.24967,0.36137,-0.1391
-0.27827,0.95777,0.07247,-0.49196,-0.20157,0.46266
-0.2757,0.95951,0.05765,0.2664,-0.15915,0.12666
-0.24734,0.96859,0.02573,0.61863,-0.27291,-0.7373
-0.19442,0.98084,-0.01222,0.77023,-0.63264,-0.61343
-0.14616,0.98832,-0.04322,0.40501,-0.06594,-0.41276
-0.12451,0.99003,-0.06593,-0.45938,0.64335,-0.06145
-0.10672,0.99029,-0.08906,-0.8798,0.25684,0.18848
-0.08099,0.99089,-0.10763,-0.37771,-0.29295,0.11265
-0.05053,0.99114,-0.12282,0.05335,-0.42835,-0.11377
-0.01886,0.99018,-0.13853,0.1535,-0.36153,-0.18952
0.01259,0.98805,-0.15363,-0.03145,-0.32637,-0.02178
0.04092,0.98559,-0.1641,-0.11023,-0.23398,0.11381
0.06899,0.98316,-0.16924,-0.35601,0.0668,0.1044
0.09361,0.97904,-0.18088,-0.46394,0.08575,0.06855
0.11352,0.97378,-0.19713,-0.60725,0.03827,0.08199
0.136,0.96894,-0.20655,-0.55187,0.00817,0.2573
0.16062,0.96556,-0.20469,-0.40342,0.09062,0.38973
0.18396,0.96319,-0.196,-0.42462,0.31868,0.35956
0.203,0.96232,-0.18089,-0.95416,0.27048,0.08639
0.21451,0.96252,-0.16595,-1.11315,0.24292,0.08399
0.2202,0.96328,-0.15363,-1.27826,0.17635,0.21404
0.22052,0.9653,-0.13988,-1.10328,0.35134,0.17405
0.20658,0.97107,-0.11975,-0.89124,0.38708,0.28767
0.18131,0.97934,-0.08952,-0.75101,0.16806,0.28671
0.15126,0.98769,-0.03979,-0.23391,0.047,0.13327
0.10898,0.99397,0.01217,0.27127,0.79194,-0.49824
0.05342,0.99793,0.03572,0.6203,1.31667,-0.58717
0.00387,0.99849,0.0548,-0.09095,0.52211,-0.25056
-0.05355,0.99494,0.08503,-0.6903,0.34809,0.14471
-0.11796,0.98665,0.1123,-0.36336,0.44803,-0.12892
-0.17617,0.97519,0.13403,-0.08056,0.511,-0.28573
-0.22678,0.96126,0.1567,0.27737,0.08823,-0.20151
-0.26931,0.94623,0.17925,0.25191,-0.11789,-0.26682
-0.30205,0.93172,0.20164,0.24219,-0.24863,-0.29701
-0.32811,0.91763,0.22427,0.32097,-0.50739,-0.39552
-0.34665,0.90485,0.24713,0.34618,-0.54214,-0.43726
-0.356,0.89511,0.2684,0.35966,-0.55333,-0.46026
-0.3575,0.8893,0.28521,0.46449,-0.66351,-0.48841
-0.35219,0.8884,0.29445,0.63591,-0.66828,-0.52048
-0.34334,0.89188,0.29439,0.79964,-0.62322,-0.50765
-0.33516,0.89804,0.28493,0.78497,-0.50992,-0.33826
-0.32632,0.90764,0.26401,0.47067,-0.27414,0.03387
-0.3126,0.92176,0.22942,0.22602,-0.10783,0.38354
-0.28727,0.93747,0.19653,0.00179,0.10991,0.84398
-0.23661,0.94648,0.21952,-2.65487,2.10734,1.6746
-0.24015,0.94167,0.23577,-0.87541,0.04994,-0.03131
-0.26683,0.94058,0.21004,-0.84872,0.05103,-0.00559
-0.29557,0.93603,0.19101,0.22983,-0.56195,-0.02052
-0.30514,0.93579,0.17663,0.54078,-0.25425,-0.15562
-0.28384,0.94852,0.14048,0.32922,0.40093,-1.38853
-0.24957,0.96287,0.10297,-0.27503,1.41284,-1.34604
-0.25078,0.96387,0.08979,-1.1529,1.18974,0.0005
-0.28137,0.95403,0.10319,0.69135,-0.36491,1.13082
-0.2874,0.95242,0.10145,1.53684,-0.69868,-0.42575
-0.25782,0.96327,0.0751,1.51205,-1.04698,-0.67515
-0.19894,0.97972,0.02388,1.04468,-0.81694,-0.55587
-0.12538,0.99198,-0.01599,0.1964,0.18403,-0.63158
-0.0873,0.99548,-0.03736,-0.67817,1.31854,-0.23017
-0.08022,0.99479,-0.06291,-1.43594,0.49511,0.279
-0.06398,0.99446,-0.08342,-0.62056,-0.59097,0.25029
-0.0349,0.99402,-0.10343,0.00055,-0.51851,-0.20739
-0.0043,0.99246,-0.12251,0.02447,-0.51973,-0.26664
0.02735,0.98959,-0.14127,-0.16321,-0.39265,-0.17344
0.05464,0.98556,-0.16029,-0.22479,-0.13386,-0.08092
0.07924,0.98054,-0.17961,-0.27229,0.24846,0.16217
0.10238,0.97526,-0.1959,-0.38501,0.27431,0.44535
0.12732,0.96828,-0.21498,-0.39646,-0.08332,0.46743
0.152,0.96217,-0.22613,-0.40035,-0.15038,0.34464
0.17746,0.95835,-0.22375,-0.39046,0.14539,0.25065
0.2026,0.95703,-0.20747,-0.37934,0.48271,0.22062
0.22219,0.95682,-0.18742,-0.91595,0.28584,0.24014
0.23234,0.95798,-0.16817,-1.30569,0.14419,0.1791
0.23603,0.95996,-0.15085,-1.41798,0.13731,0.10258
0.23599,0.96214,-0.13635,-1.17841,0.29645,0.1081
0.22967,0.96607,-0.11817,-0.99871,0.32626,0.30815
0.20912,0.97407,-0.08631,-0.91377,0.25757,0.39753
0.17641,0.98357,-0.03846,-0.14201,0.22498,-0.06539
0.13778,0.99046,0.001,0.16103,0.43739,-0.52551
0.08603,0.99616,0.0162,0.44129,0.93426,-0.352
0.02921,0.99901,0.03364,0.35126,0.9825,-0.22491
-0.03297,0.9981,0.05199,-0.47214,0.59398,0.04121
-0.09515,0.99287,0.07181,-0.55724,0.48536,-0.00661
-0.15856,0.98277,0.09498,-0.29767,0.49019,-0.14407
-0.21346,0.96966,0.11917,0.36304,0.22581,-0.22962
-0.25944,0.95544,0.14079,0.39047,-0.07919,-0.02856
-0.29987,0.94084,0.15779,0.37376,-0.13388,-0.09406
-0.3346,0.92593,0.17519,0.29305,-0.4151,-0.31995
-0.3609,0.91171,0.19628,0.35802,-0.45471,-0.38237
-0.3768,0.90022,0.21823,0.38257,-0.51886,-0.40556
-0.38221,0.89271,0.23869,0.44528,-0.76974,-0.43837
-0.37757,0.89036,0.25436,0.5687,-0.86754,-0.44834
-0.36802,0.8924,0.2611,0.6336,-0.89878,-0.45811
-0.35653,0.89864,0.25559,0.6948,-0.60772,-0.32153
-0.34337,0.90918,0.23558,0.66661,-0.53312,-0.19276
-0.3253,0.92365,0.2026,0.17923,-0.07172,0.40778
-0.29333,0.94019,0.17322,-0.5042,0.8791,1.12867
-0.25652,0.95034,0.17621,-2.08174,2.04285,1.56392
-0.27513,0.94569,0.17313,-1.14575,0.61121,0.54743
-0.30555,0.93907,0.15745,0.08448,-0.58632,0.1618
-0.32679,0.93265,0.15288,0.26728,-0.76624,0.06973
-0.33203,0.93315,0.13782,0.4034,-0.76789,-0.93883
-0.30994,0.94733,0.08069,0.78828,0.10983,-1.4764
-0.25867,0.96558,0.02724,0.53401,1.63693,-0.77572
-0.24475,0.9688,0.03896,-1.27656,2.12116,0.54736
-0.27945,0.95906,0.04597,0.05139,-0.34819,0.27286
-0.29069,0.95615,0.03585,1.55201,-0.77435,-0.54714
-0.27177,0.96232,0.00907,1.63559,-0.94685,-0.40973
-0.21605,0.97553,-0.04086,1.15935,-0.80826,-0.5259
-0.12269,0.98721,-0.10184,-0.44796,0.52981,-0.37738
-0.08902,0.98934,-0.11522,-0.94319,0.88972,0.0923
-0.07305,0.9872,-0.14179,-1.49798,0.69925,0.36697
-0.04879,0.98559,-0.16195,-0.53417,-0.51028,-0.12445
-0.01521,0.9847,-0.17362,0.19461,-0.59422,-0.46911
0.02089,0.98129,-0.19139,0.07743,-0.43169,-0.13081
0.04806,0.97591,-0.21283,-0.04692,-0.39166,0.0152
0.07535,0.96944,-0.23349,-0.11375,0.06862,0.25136
0.10448,0.96317,-0.24777,-0.26021,0.2993,0.35356
0.13291,0.95665,-0.25916,-0.35404,0.28769,0.37003
0.16193,0.95009,-0.26665,-0.52155,0.16371,0.36081
0.19162,0.94505,-0.26489,-0.56016,0.19449,0.30578
0.22221,0.94174,-0.25249,-0.76075,0.1969,0.35602
0.24943,0.93975,-0.23378,-0.93349,0.23813,0.36598
0.27019,0.93925,-0.21168,-1.22071,0.24087,0.05062
0.27971,0.93981,-0.19626,-1.40593,0.17553,0.10037
0.28081,0.94125,-0.18762,-1.43618,0.1961,0.22266
0.27454,0.94553,-0.17492,-1.15685,0.56405,0.33135
0.25518,0.95452,-0.15422,-0.84594,0.23971,0.26466
0.22893,0.96588,-0.1211,-0.66665,0.07837,0.17692
0.19567,0.97825,-0.06887,-0.30058,0.40798,0.04939
0.14514,0.98903,-0.02757,0.30534,1.20108,-0.54604
0.08791,0.99605,-0.0126,0.56173,1.26814,-0.56913
0.03,0.99949,0.01057,-0.33864,0.4048,-0.00311
-0.03674,0.99844,0.04213,-0.60277,0.40742,0.09032
-0.104,0.99217,0.06912,-0.36904,0.48808,-0.07514
-0.16284,0.98173,0.09841,0.25277,0.32546,-0.16254
-0.21279,0.96858,0.12873,0.3193,-0.04184,-0.11882
-0.2524,0.95496,0.15605,0.13478,-0.3215,-0.22582
-0.28516,0.94155,0.17938,0.16013,-0.50685,-0.2628
-0.31309,0.92831,0.20053,0.28254,-0.57005,-0.40773
-0.3338,0.91589,0.22298,0.33403,-0.60225,-0.43151
-0.34502,0.90637,0.24385,0.40288,-0.64425,-0.43514
-0.34874,0.90068,0.25914,0.54544,-0.68205,-0.41889
-0.34487,0.90053,0.26479,0.60589,-0.71109,-0.4433
-0.33657,0.90522,0.25942,0.75345,-0.62914,-0.39257
-0.32518,0.9139,0.24301,0.64964,-0.45477,-0.29173
-0.30823,0.92672,0.21492,0.21922,-0.34949,-0.09682
-0.28339,0.94061,0.18693,-0.0662,-0.10041,0.54339
-0.23283,0.95564,0.1804,-1.16153,1.26583,1.97342
-0.2039,0.96027,0.19054,-1.93353,1.82222,1.27912
-0.22648,0.95957,0.16715,-0.88837,0.31648,0.51222
-0.25613,0.95662,0.13883,0.18211,-0.09227,-0.03072
-0.26959,0.95491,0.12433,0.45846,0.24008,-0.05753
-0.25506,0.96138,0.10339,0.44652,0.69066,-0.78306
-0.23743,0.96816,0.07935,-0.21743,0.22606,-1.15874
-0.24324,0.96825,0.05765,-0.30805,-0.17812,-0.54699
-0.26069,0.9641,0.05047,0.22393,-0.62145,1.11605
-0.26237,0.96369,0.04957,1.03454,-0.31324,0.47867
-0.2353,0.97164,0.02335,0.9456,-0.17504,-0.74698
-0.18335,0.98284,-0.02017,0.67606,-0.39915,-0.4782
-0.12787,0.99015,-0.05712,-0.09714,0.53476,-0.52212
-0.09698,0.9918,-0.08326,-0.56681,0.775,-0.39301
-0.08434,0.99062,-0.10751,-1.00802,-0.20766,0.27798
-0.05787,0.99037,-0.12574,-0.69428,-0.37283,0.26461
-0.02633,0.98925,-0.14385,-0.20556,-0.51556,-0.13385
0.00789,0.98699,-0.16059,-0.10954,-0.41067,-0.13107
0.03964,0.98333,-0.17743,-0.146,-0.34222,-0.08182
0.06632,0.97777,-0.19892,-0.10552,-0.15437,-0.07943
0.09111,0.97112,-0.22053,-0.06937,0.17171,0.31603
0.11663,0.96562,-0.23232,-0.13922,0.19013,0.4381
0.14526,0.95924,-0.24239,-0.33942,-0.04449,0.32684
0.17354,0.9521,-0.25179,-0.40982,0.0039,0.18891
0.20375,0.9458,-0.25288,-0.48873,0.22048,0.17284
0.23517,0.9413,-0.24216,-0.58432,0.38436,0.23069
0.26141,0.93826,-0.22656,-1.1271,0.31574,0.26727
0.27798,0.93705,-0.21134,-1.237,0.29672,0.21492
0.28697,0.93771,-0.19581,-1.29869,0.30586,0.20613
0.29118,0.93989,-0.17841,-1.05728,0.42582,0.33487
0.28898,0.94468,-0.15517,-1.08614,0.50826,0.44685
0.27711,0.95286,-0.12354,-1.02714,0.45498,0.38453
0.25562,0.96353,-0.07921,-0.57865,0.07161,0.16263
0.22042,0.9752,-0.01985,-0.29481,0.32494,-0.26915
0.16868,0.98557,0.01424,-0.01562,0.65007,-0.5333
0.11646,0.99287,0.02552,0.16681,0.9648,-0.4535
0.06138,0.9972,0.04281,-0.66246,0.44165,0.01206
-0.00556,0.998,0.06292,-0.64467,0.29277,0.02168
-0.0693,0.99411,0.08334,-0.07901,0.39752,-0.24112
-0.12267,0.98635,0.10988,0.28009,0.25387,-0.2387
-0.1698,0.97615,0.13524,0.33516,-0.08425,-0.17632
-0.20836,0.96553,0.15598,0.17771,-0.33194,-0.29253
-0.23989,0.9546,0.17663,0.15599,-0.51704,-0.29929
-0.26748,0.94325,0.1968,0.23015,-0.53073,-0.39933
-0.28757,0.93296,0.21654,0.31305,-0.53237,-0.41569
-0.29922,0.92511,0.23373,0.38229,-0.59435,-0.42865
-0.30282,0.92071,0.24614,0.46759,-0.65498,-0.4307
-0.29982,0.92049,0.25062,0.59757,-0.73294,-0.45045
-0.29461,0.92393,0.24405,0.67059,-0.71542,-0.37166
-0.28659,0.93161,0.22353,0.57926,-0.62494,-0.19027
-0.27361,0.94373,0.18579,0.20242,-0.42041,0.04233
-0.25155,0.95769,0.13986,-0.10809,0.00638,0.47294
-0.19899,0.97225,0.12303,-1.2101,1.8726,2.21164
-0.19007,0.97155,0.14129,-2.02842,1.78135,1.06452
-0.21917,0.96821,0.12053,-0.36308,-0.39906,-0.0361
-0.2508,0.96274,0.10117,-0.00898,-0.63643,-0.13965
-0.2673,0.95927,0.09141,0.45659,0.03219,-0.66804
-0.25033,0.9665,0.05675,0.4108,0.79685,-1.233
-0.22093,0.97496,0.02527,0.14711,1.03778,-1.1371
-0.22338,0.97445,0.02353,-0.52987,0.04968,1.083
-0.24232,0.9697,0.03113,0.30456,-0.29625,1.21536
-0.2425,0.96989,0.02234,1.00935,-0.44424,-1.02435
-0.209,0.97782,-0.01354,0.99875,-0.55604,-0.47367
-0.15181,0.9865,-0.06135,0.97986,-0.46949,-0.26447
-0.08927,0.99196,-0.08967,-0.06214,0.35006,-0.14821
-0.06302,0.99192,-0.11008,-0.91583,0.65931,0.34042
-0.04536,0.99052,-0.12965,-1.08181,0.38983,0.33047
-0.02224,0.98933,-0.14398,-0.25816,-0.38098,-0.15308
0.00531,0.98781,-0.15556,-0.05191,-0.4496,-0.13806
0.0367,0.98555,-0.16534,-0.14241,-0.44365,-0.09933
0.07,0.98207,-0.17503,-0.27947,-0.30232,-0.19045
0.10264,0.97691,-0.18739,-0.29703,-0.00907,-0.11336
0.12946,0.97087,-0.20163,-0.2894,0.23632,0.27623
0.1561,0.96507,-0.21039,-0.34854,0.11069,0.30164
0.18687,0.95631,-0.22484,-0.57208,-0.25358,0.2327
0.2168,0.946,-0.24102,-0.73111,-0.20755,0.29749
0.24701,0.93731,-0.24584,-0.82535,-0.05978,0.34233
0.27699,0.93047,-0.23981,-0.76854,0.40303,0.35885
0.29969,0.92601,-0.22956,-0.93331,0.43918,0.29388
0.31366,0.92456,-0.21636,-1.0628,0.37648,0.2656
0.32112,0.92617,-0.19772,-1.28766,0.34877,0.33463
0.32022,0.931,-0.17521,-1.28994,0.44443,0.24589
0.30264,0.9406,-0.15388,-1.1663,0.60354,-0.05741
0.26779,0.95495,-0.12793,-0.85748,0.30522,0.17644
0.22313,0.97157,-0.07908,-0.2994,0.34036,0.48141
0.16923,0.98486,-0.03759,0.50731,1.07953,-0.36923
0.11182,0.99341,-0.0251,0.79323,1.23747,-0.5424
0.05716,0.99835,-0.00468,0.07085,0.50534,-0.08897
-0.00748,0.99964,0.02584,-0.55886,0.3702,0.27502
-0.07542,0.99582,0.0516,-0.40681,0.42931,0.02999
-0.1362,0.98756,0.07856,0.02511,0.33925,-0.18369
-0.19037,0.97634,0.1026,0.22949,0.06346,-0.13613
-0.23363,0.96445,0.12347,0.19853,-0.20956,-0.23777
-0.26778,0.95278,0.14323,0.19012,-0.55342,-0.24568
-0.29523,0.94152,0.16241,0.27922,-0.64565,-0.29752
-0.31393,0.93183,0.18203,0.38424,-0.66464,-0.35142
-0.32192,0.92536,0.20019,0.4131,-0.74865,-0.39686
-0.32042,0.92276,0.21412,0.50306,-0.84715,-0.40407
-0.31153,0.9242,0.22092,0.68088,-0.91413,-0.39377
-0.29921,0.92893,0.2181,0.76373,-0.8523,-0.31843
-0.2841,0.93765,0.20025,0.64549,-0.64576,-0.18072
-0.26366,0.95052,0.16431,0.29096,-0.46379,0.01502
-0.23337,0.96462,0.12267,-0.12313,0.06382,0.44131
-0.17237,0.97847,0.11352,-1.35604,2.31688,2.11859
-0.174,0.97493,0.1387,-1.48489,0.67778,0.62527
-0.2157,0.96853,0.1242,-0.83064,-0.00289,0.33398
-0.25435,0.96069,0.11128,-0.00386,-0.64608,0.17078
-0.28087,0.95406,0.10431,0.44692,-1.15659,-1.05222
-0.27799,0.95887,0.0574,0.61345,-0.95908,-1.12683
-0.22761,0.97371,-0.00889,0.84389,-0.1669,-1.3798
-0.14959,0.98865,-0.01355,-0.92399,3.90672,0.9617
-0.14563,0.98931,0.0069,-1.42299,2.33245,1.28556
-0.18044,0.98359,-0.0019,0.65868,-1.11223,-0.33584
-0.17395,0.98451,-0.02174,1.55447,-1.19386,-0.30605
-0.12719,0.98984,-0.06354,1.5343,-1.17711,-0.31688
-0.06005,0.9928,-0.10361,1.02741,-0.70722,-0.51063
-0.02376,0.99233,-0.12128,-0.5499,0.49444,-0.21243
-0.00834,0.99008,-0.14025,-1.22416,1.20244,0.47337
0.00946,0.98604,-0.16623,-1.41853,0.77569,0.4029
0.04442,0.98248,-0.18097,-0.05553,-0.46951,-0.2001
0.08235,0.97774,-0.19301,0.19045,-0.6196,-0.42186
0.1132,0.97124,-0.20945,0.10997,-0.53411,-0.17029
0.13738,0.9641,-0.22723,-0.09481,-0.27012,0.25343
0.16846,0.95668,-0.23744,-0.26358,0.30877,0.38913
0.19822,0.9481,-0.24861,-0.42321,0.56152,0.31021
0.22249,0.93725,-0.26844,-0.75481,0.00333,0.27896
0.24726,0.9277,-0.2797,-0.77958,0.01288,0.29022
0.27595,0.92176,-0.27242,-0.69654,0.23476,0.52104
0.29854,0.91883,-0.25814,-0.83732,0.48527,0.51099
0.3168,0.91896,-0.23485,-1.07011,0.3868,0.26186
0.32726,0.92215,-0.20628,-1.19956,0.33614,0.07502
0.32658,0.9266,-0.18642,-1.46864,0.2263,0.30405
0.31372,0.93452,-0.1681,-1.45348,0.44337,0.18685
0.28759,0.94639,-0.14709,-0.87823,0.29799,0.16503
0.25056,0.96222,-0.10657,-0.51167,0.2031,0.26584
0.20146,0.97788,-0.05627,-0.05149,0.75064,-0.23389
0.14016,0.9892,-0.04285,0.5965,1.29942,-0.76024
0.08271,0.99613,-0.02959,0.31324,0.79476,-0.35761
0.0174,0.99985,-0.00079,-0.48662,0.47185,0.13876
-0.05419,0.99822,0.02498,-0.51441,0.48704,0.02683
-0.11814,0.99176,0.0495,-0.05006,0.51965,-0.12586
-0.17348,0.98175,0.07792,0.38019,0.03781,-0.0863
-0.21999,0.96997,0.10378,0.37354,-0.09121,-0.20207
-0.25643,0.95814,0.12735,0.23922,-0.56371,-0.18752
-0.28684,0.94642,0.14837,0.28834,-0.67785,-0.2537
-0.30972,0.93605,0.16698,0.29347,-0.71436,-0.31197
-0.3221,0.92858,0.18435,0.30824,-0.74232,-0.32188
-0.32526,0.92466,0.19801,0.41245,-0.7886,-0.39404
-0.32142,0.92395,0.20737,0.49006,-0.78517,-0.42128
-0.31402,0.92577,0.21057,0.69359,-0.7266,-0.3896
-0.30466,0.93046,0.20353,0.66109,-0.63882,-0.30612
-0.28992,0.93988,0.18046,0.49122,-0.49126,-0.08759
-0.26756,0.95261,0.1447,-0.18665,0.04421,0.38062
-0.22633,0.96721,0.11526,-0.47069,0.46941,0.81963
-0.18162,0.97521,0.12639,-2.14747,2.11736,1.95727
-0.20871,0.97014,0.12357,-0.86166,0.22386,0.47115
-0.24958,0.96279,0.10366,-0.36292,-0.2374,0.31862
-0.28133,0.95489,0.09504,0.3467,-0.62846,0.06215
-0.28505,0.95504,0.08146,0.53714,-0.30861,-0.70118
-0.25267,0.96695,0.03423,0.51485,0.35611,-1.77918
-0.20442,0.97887,-0.00518,0.3726,0.7624,-1.43971
-0.19435,0.98092,-0.00501,-0.87537,0.89075,0.92519
-0.22311,0.97479,0.0024,0.50671,-0.3284,0.57834
-0.22984,0.97318,-0.01018,0.90702,-0.53789,-0.03145
-0.20286,0.9785,-0.03716,1.0874,-0.93431,-0.45584
-0.12444,0.98785,-0.09312,0.81917,-0.54115,-0.41108
-0.06203,0.99078,-0.12047,0.39637,-0.09295,-0.49281
-0.02621,0.99006,-0.13815,-0.83777,0.75865,0.19318
-0.00558,0.98696,-0.16089,-1.17537,0.1732,0.42613
0.02416,0.98359,-0.17881,-0.42925,-0.37504,-0.08674
0.05941,0.97984,-0.19077,0.03719,-0.49423,-0.38398
0.09143,0.97445,-0.20514,0.00367,-0.51698,-0.23532
0.11956,0.96772,-0.22186,-0.07877,-0.3923,0.03583
0.14949,0.96068,-0.23397,-0.19853,0.01005,0.27254
0.17946,0.95309,-0.24376,-0.46959,0.34743,0.21023
0.20256,0.94251,-0.26579,-0.67324,0.22259,0.16029
0.22674,0.93047,-0.28777,-0.59562,0.0603,0.26942
0.25748,0.92098,-0.29239,-0.4283,0.30535,0.49254
0.28866,0.91521,-0.28119,-0.51002,0.40332,0.52992
0.3125,0.91228,-0.26473,-0.98977,0.43339,0.40874
0.32887,0.9127,-0.24253,-1.21209,0.34334,0.15276
0.33692,0.91581,-0.21858,-1.28884,0.26785,0.11685
0.34089,0.9194,-0.19622,-1.28341,0.22306,0.40827
0.33333,0.92676,-0.17323,-1.13221,0.46397,0.3049
0.31116,0.93912,-0.1457,-1.03192,0.43806,0.26027
0.28076,0.95447,-0.10085,-0.52792,0.0652,0.20681
0.23919,0.9701,-0.04109,-0.29261,0.433,-0.15196
0.18271,0.98304,-0.01579,0.26422,1.34271,-0.61296
0.12654,0.99193,-0.00822,0.36998,0.97247,-0.4069
0.06348,0.99791,0.01176,-0.52186,0.4064,0.00774
-0.0078,0.99934,0.03551,-0.63943,0.41474,0.14486
-0.07331,0.99576,0.05556,-0.1324,0.54631,-0.15183
-0.12812,0.98847,0.08073,0.25767,0.31433,-0.18318
-0.17661,0.97846,0.1069,0.35496,-0.0607,-0.07603
-0.21903,0.96723,0.12841,0.23957,-0.29563,-0.23379
-0.256,0.95511,0.1491,0.24301,-0.45706,-0.28273
-0.28652,0.94354,0.16627,0.30698,-0.48156,-0.3076
-0.30863,0.93365,0.18177,0.36593,-0.61616,-0.36414
-0.32298,0.92624,0.19434,0.32589,-0.68143,-0.37714
-0.32563,0.92371,0.2018,0.41363,-0.67,-0.41314
-0.32376,0.92389,0.20397,0.62251,-0.80687,-0.48485
-0.31736,0.92734,0.1983,0.71474,-0.65265,-0.26513
-0.30442,0.93576,0.17801,0.64549,-0.59207,-0.19974
-0.2839,0.94781,0.14511,0.23175,-0.37756,0.04805
-0.24913,0.96209,0.111,-0.38427,0.5883,1.3451
-0.18824,0.976,0.10952,-2.34382,1.95694,1.87328
-0.18508,0.97593,0.11535,-1.19613,0.80457,0.70389
-0.21387,0.97305,0.08625,-0.34891,-0.2366,0.18624
-0.24595,0.96701,0.0663,-0.00271,-0.46536,0.02121
-0.25975,0.96403,0.05641,0.37611,-0.36326,-0.01321
-0.24316,0.96969,0.0242,0.42651,0.25631,-1.33392
-0.20593,0.97846,-0.01437,0.26882,0.52866,-1.47448
-0.18672,0.98207,-0.02604,-0.63191,1.32155,-0.08556
-0.21309,0.97692,-0.01455,-0.68577,0.38509,1.0525
-0.22497,0.97415,-0.02054,0.22261,-0.06659,1.15874
-0.2059,0.97776,-0.03974,0.99201,-0.82004,-0.70916
-0.15309,0.98477,-0.08238,0.97445,-0.86688,-0.46381
-0.08419,0.98899,-0.12174,0.17629,0.0116,-0.463
-0.04438,0.98909,-0.14049,-0.69431,0.75544,0.10684
-0.02414,0.98607,-0.16456,-1.10733,0.91667,0.39484
-0.00106,0.98252,-0.18615,-0.62507,-0.36518,0.18782
0.03055,0.97908,-0.20115,0.0372,-0.45814,-0.23986
0.06028,0.9747,-0.21523,0.18087,-0.49573,-0.2022
0.08525,0.96877,-0.23286,0.06309,-0.46175,-0.03426
0.11124,0.96144,-0.25153,-0.07838,-0.1701,0.14492
0.14154,0.95392,-0.26459,-0.20331,0.2459,0.39478
0.17305,0.94582,-0.27474,-0.4548,0.30635,0.22502
0.19976,0.93575,-0.29063,-0.57026,-0.06261,0.19883
0.22683,0.92639,-0.30057,-0.5797,0.01213,0.30407
0.2574,0.92049,-0.29402,-0.56125,0.32201,0.52846
0.28496,0.91741,-0.27778,-0.70399,0.41973,0.44395
0.30578,0.91645,-0.2581,-0.944,0.2963,0.22661
0.31888,0.9178,-0.23657,-1.02933,0.21642,0.11174
0.3249,0.92015,-0.21855,-1.33527,0.14812,0.2151
0.32564,0.92391,-0.20088,-1.35605,0.22197,0.27493
0.31344,0.93221,-0.18093,-1.18289,0.61773,0.09591
0.28558,0.94505,-0.15914,-0.99444,0.37729,0.17952
0.24878,0.96141,-0.1175,-0.51817,0.22565,0.3074
0.20147,0.97729,-0.06572,0.03299,0.64797,0.04689
0.14439,0.98846,-0.04584,0.62956,1.18059,-0.59643
0.09059,0.99537,-0.03204,-0.13525,0.41391,0.00996
0.02717,0.99962,-0.00513,-0.47805,0.35098,0.2314
-0.04288,0.9989,0.0191,-0.53085,0.43747,0.14918
-0.10607,0.99348,0.04172,-0.14314,0.47756,-0.14191
-0.16049,0.98477,0.06691,0.16605,0.14638,-0.13507
-0.20766,0.97398,0.09082,0.27704,-0.02468,-0.14189
-0.24567,0.96271,0.11332,0.1877,-0.31184,-0.19781
-0.27613,0.95155,0.13529,0.19635,-0.46391,-0.24844
-0.29879,0.94087,0.15964,0.24871,-0.52443,-0.32584
-0.31201,0.93238,0.18252,0.2786,-0.59686,-0.32056
-0.31667,0.92743,0.19897,0.36209,-0.69283,-0.34904
-0.31396,0.92627,0.20843,0.50082,-0.75182,-0.38311
-0.30669,0.92805,0.21136,0.62689,-0.79047,-0.38807
-0.29696,0.93325,0.20213,0.61637,-0.78945,-0.31501
-0.28217,0.94278,0.17758,0.51261,-0.57035,-0.11601
-0.26072,0.95551,0.13791,0.18455,-0.34632,0.13332
-0.22615,0.96876,0.10178,-0.0915,0.16436,0.74969
-0.17365,0.97856,0.11072,-2.53588,2.07974,1.54879
-0.18731,0.9749,0.12037,-1.26816,0.66153,0.63645
-0.22167,0.96974,0.10228,-0.6264,0.06265,0.36721
-0.25322,0.9631,0.09126,0.24473,-0.1084,0.12509
-0.25049,0.96561,0.06964,0.38271,0.18914,0.16243
-0.2277,0.97266,0.04568,0.23907,0.39421,-0.71786
-0.21448,0.97646,0.02295,-0.27867,0.30165,-0.89918
-0.21889,0.97572,0.00805,-0.06526,-0.19895,0.41629
-0.23013,0.97309,0.01164,0.79962,-0.42217,0.98271
-0.21883,0.97576,3e-05,0.75979,-0.31619,-0.70768
-0.17364,0.98419,-0.03493,0.57242,-0.43707,-0.56677
-0.11283,0.99074,-0.0755,0.4222,-0.11617,-0.30034
-0.06678,0.99267,-0.1007,-0.53833,0.65303,-0.12203
-0.04754,0.99127,-0.12298,-0.82845,0.4186,0.15213
-0.02696,0.98964,-0.14103,-0.9692,0.05127,0.25983
0.00453,0.98741,-0.15812,-0.37002,-0.49036,0.03717
0.04038,0.98366,-0.17543,-0.08102,-0.4829,-0.13748
0.07216,0.97914,-0.18994,-0.07316,-0.42673,-0.11373
0.09877,0.97371,-0.20524,-0.20773,-0.19526,-0.03087
0.12614,0.96662,-0.22302,-0.24937,0.0126,-0.02251
0.1528,0.95883,-0.23937,-0.2901,0.09923,0.10523
0.18042,0.9511,-0.25072,-0.40602,0.05109,0.40105
0.21042,0.94203,-0.26134,-0.41575,0.01898,0.33365
0.23948,0.93351,-0.26684,-0.32311,0.11898,0.30504
0.2709,0.92626,-0.26201,-0.43284,0.17373,0.23716
0.29781,0.92132,-0.24996,-0.77842,0.29366,0.26117
0.3159,0.91936,-0.23447,-1.06848,0.36804,0.2517
0.32544,0.92012,-0.21788,-1.36238,0.25549,0.17027
0.32943,0.92197,-0.20359,-1.40674,0.25026,0.2522
0.33208,0.92432,-0.18802,-1.17572,0.34686,0.36408
0.32675,0.93065,-0.16472,-1.09459,0.48529,0.25029
0.3099,0.94112,-0.13512,-0.92277,0.3719,0.39414
0.28363,0.95483,-0.08861,-0.62928,0.07074,0.22826
0.24761,0.96842,-0.02931,-0.27895,0.07309,-0.01151
0.19836,0.98013,0.00221,0.18981,0.66121,-0.58728
0.14303,0.98966,0.01102,0.49268,1.27998,-0.48677
0.08406,0.99613,0.02571,-0.26784,0.59549,-0.10997
0.01528,0.99892,0.0439,-0.74093,0.37765,0.24593
-0.05019,0.99677,0.06261,-0.51538,0.39217,0.10252
-0.10678,0.99079,0.08325,0.15387,0.50823,-0.19195
-0.15858,0.9822,0.10068,0.31949,0.10459,-0.15412
-0.20314,0.97216,0.11679,0.20192,-0.13227,-0.23274
-0.24172,0.96094,0.13479,0.12061,-0.33489,-0.1965
-0.27352,0.94956,0.15336,0.17985,-0.4206,-0.25198
-0.29546,0.9395,0.17334,0.23581,-0.524,-0.29085
-0.3062,0.93237,0.19218,0.34098,-0.74684,-0.30605
-0.30687,0.92945,0.20481,0.38752,-0.80245,-0.31928
-0.29991,0.93069,0.20946,0.60377,-0.86102,-0.38633
-0.28978,0.93472,0.20572,0.66502,-0.86835,-0.36667
-0.27665,0.94222,0.18889,0.6585,-0.77227,-0.20398
-0.2581,0.95397,0.15272,0.55934,-0.57895,-0.00873
-0.23259,0.96693,0.10465,0.10525,-0.26048,0.32577
-0.1788,0.98096,0.07585,-1.21179,1.91931,2.1568
-0.14959,0.98291,0.10724,-2.64138,2.48091,1.85002
-0.18613,0.97789,0.09532,-1.58265,0.88588,0.56176
-0.22578,0.9711,0.07736,-0.29282,-0.46721,0.12108
-0.25396,0.96448,0.07261,0.14282,-0.91282,0.14655
-0.25199,0.9671,0.0349,0.4345,-0.55434,-1.03439
-0.20754,0.97796,-0.02282,0.56946,-0.17361,-1.32234
-0.14582,0.98881,-0.03159,-0.2044,2.91407,0.48846
-0.15455,0.98799,-0.00056,-0.85623,1.12433,1.42546
-0.1834,0.98304,0.00186,0.55396,-0.74578,-0.66075
-0.17528,0.98437,-0.01691,0.88572,-0.9751,-0.94065
-0.12857,0.98895,-0.07384,1.26248,-0.97766,-0.36856
-0.05419,0.99137,-0.11935,0.59857,-0.22793,-0.42485
-0.01377,0.99109,-0.13245,-0.40892,0.58819,-0.10612
0.00216,0.98851,-0.1511,-1.38468,0.50367,0.36013
0.01532,0.98465,-0.17388,-1.39785,0.50754,0.38291
0.04173,0.98158,-0.18644,-0.52383,-0.39866,0.12336
0.06871,0.97727,-0.20056,0.16394,-0.52288,-0.21085
0.09119,0.97112,-0.22049,0.17875,-0.47992,-0.15423
0.11287,0.9638,-0.24155,-0.08096,-0.40939,0.05043
0.14421,0.95583,-0.25609,-0.21407,0.27914,0.31606
0.17681,0.94729,-0.26718,-0.27045,0.47039,0.33764
0.20919,0.93626,-0.28223,-0.37461,0.11962,0.31191
0.23824,0.92632,-0.29185,-0.55832,0.07601,0.31098
0.26858,0.91989,-0.28577,-0.64132,0.21272,0.38235
0.29784,0.91594,-0.26896,-0.73376,0.24607,0.38456
0.32181,0.91292,-0.25103,-0.97704,0.26194,0.1881
0.33931,0.91135,-0.23304,-1.07588,0.22874,0.08314
0.34905,0.91141,-0.21794,-1.27741,0.15287,0.17035
0.35178,0.9143,-0.20078,-1.2974,0.36786,0.37565
0.34283,0.92217,-0.1791,-1.25036,0.4704,0.35157
0.31897,0.93599,-0.14894,-0.93039,0.39009,0.28204
0.28905,0.95228,-0.09806,-0.35302,0.17391,0.18699
0.25154,0.96691,-0.04256,0.08838,0.89025,-0.24448
0.19516,0.98054,-0.02135,0.49735,1.30611,-0.4749
0.1343,0.99088,-0.01073,-0.02736,0.49395,-0.17721
0.06343,0.99796,0.00767,-0.44768,0.31167,0.07625
-0.01248,0.99948,0.0298,-0.63521,0.41742,0.2008
-0.07729,0.99577,0.04973,-0.10983,0.52765,-0.16493
-0.12884,0.98904,0.07209,0.04589,-0.00549,-0.0545
-0.17283,0.98045,0.09408,0.10871,-0.20634,-0.07101
-0.21206,0.9707,0.11298,0.17498,-0.36073,-0.20381
-0.24616,0.96005,0.1331,0.27282,-0.47682,-0.24583
-0.27243,0.94973,0.15423,0.33449,-0.59393,-0.30005
-0.28736,0.94171,0.17495,0.34295,-0.69206,-0.32853
-0.29191,0.937,0.19187,0.36236,-0.79919,-0.35539
-0.28743,0.93604,0.20302,0.46352,-0.79721,-0.43323
-0.27731,0.93815,0.20729,0.68887,-0.80176,-0.41699
-0.26689,0.94292,0.19918,0.71721,-0.68396,-0.28681
-0.25439,0.95155,0.17276,0.56088,-0.52856,-0.05922
-0.23527,0.96363,0.12673,0.1251,-0.18574,0.2812
-0.2006,0.97658,0.07773,-0.98748,1.92759,2.2946
-0.14161,0.98655,0.08166,-2.79802,2.55058,2.23093
-0.16205,0.98256,0.09115,-1.74648,0.8195,0.57747
-0.1988,0.97737,0.07233,-0.45633,-0.45759,0.17228
-0.23191,0.97073,0.0624,0.10413,-0.69426,0.02467
-0.23558,0.97086,0.0439,0.68095,0.08164,-0.47678
-0.1953,0.98072,0.00607,0.37267,1.08123,-1.28515
-0.14726,0.98888,-0.02066,-0.00713,1.58482,-0.65189
-0.15761,0.98719,-0.02485,-0.50267,0.09049,0.44802
-0.17663,0.98405,-0.02113,0.51235,-0.80378,0.70747
-0.16938,0.98489,-0.0362,0.83282,-0.6226,-0.61618
-0.12733,0.98924,-0.07202,0.83433,-0.63214,-0.68576
-0.05714,0.99191,-0.11335,0.70198,-0.291,-0.50476
0.00231,0.99133,-0.13137,-0.03157,0.43059,-0.2304
0.03067,0.9878,-0.15265,-1.00112,0.52407,0.34677
0.05063,0.98224,-0.18067,-0.9086,0.01881,0.29958
0.08232,0.97654,-0.199,-0.3103,-0.43099,-0.14469
0.11384,0.96998,-0.21492,0.12003,-0.43808,-0.32728
0.13853,0.9625,-0.23323,0.05195,-0.41618,-0.04719
0.16418,0.95592,-0.24342,-0.17253,-0.31652,0.44836
0.19512,0.94878,-0.24847,-0.42864,0.47582,0.1755
0.21465,0.94042,-0.26371,-0.59707,0.34041,0.10333
0.23256,0.93103,-0.28125,-0.861,-0.06039,0.1563
0.25733,0.9228,-0.28674,-0.52389,0.09531,0.37988
0.2834,0.91716,-0.2802,-0.42946,0.18618,0.52208
0.30552,0.91281,-0.27098,-0.50482,0.24036,0.50208
0.32562,0.91052,-0.25481,-0.8128,0.32112,0.22724
0.34065,0.91075,-0.23343,-1.13801,0.28296,0.08701
0.34816,0.91161,-0.21853,-1.38176,0.15257,0.20417
0.35171,0.9127,-0.20802,-1.2225,0.22949,0.33047
0.3493,0.91655,-0.19472,-1.04054,0.28686,0.36149
0.33719,0.92487,-0.17586,-0.98592,0.38516,0.53552
0.31763,0.93714,-0.14454,-0.69751,0.09645,0.34304
0.29283,0.9522,-0.08698,-0.31743,0.11531,-0.03719
0.25628,0.96615,-0.02965,-0.05435,0.85023,-0.54654
0.2017,0.97938,-0.01157,0.40762,1.49094,-0.44613
0.14438,0.98951,0.0039,0.25662,1.07968,-0.37691
0.07479,0.99689,0.02503,-0.67715,0.47731,-0.00545
-0.00105,0.99901,0.04446,-0.5627,0.48742,-0.06419
-0.06809,0.99555,0.06511,0.01209,0.58088,-0.25929
-0.12279,0.98852,0.08803,0.27237,0.07567,-0.12613
-0.16894,0.97973,0.10766,0.17265,-0.19494,-0.19364
-0.20692,0.97011,0.12673,0.11514,-0.43717,-0.24972
-0.24056,0.95953,0.14638,0.24271,-0.53935,-0.34158
-0.26668,0.94958,0.16486,0.32759,-0.60632,-0.36228
-0.28256,0.94206,0.18079,0.41873,-0.72166,-0.37961
-0.28839,0.93795,0.19256,0.44449,-0.81803,-0.38771
-0.28545,0.93802,0.19656,0.55298,-0.92478,-0.41679
-0.27777,0.94182,0.18928,0.75699,-0.67325,-0.27647
-0.26633,0.94895,0.16902,0.69979,-0.60811,-0.17688
-0.24811,0.95962,0.13258,0.36634,-0.42628,-0.00541
-0.22139,0.97128,0.08723,-0.03119,0.05155,0.37248
-0.16867,0.98286,0.07443,-0.91365,1.6189,2.03072
-0.15091,0.9822,0.11186,-2.35954,2.41044,1.5639
-0.18349,0.97797,0.09952,-0.35292,-0.3642,0.1297
-0.21606,0.97344,0.07579,-0.01406,-0.63535,-0.0068
-0.23762,0.96935,0.06244,0.52204,-0.40693,-0.21399
-0.23053,0.97234,0.03766,0.68414,-0.05518,-0.73761
-0.18446,0.98281,-0.00783,0.59483,0.57122,-1.55195
-0.14612,0.98888,-0.02779,-0.96769,1.37344,0.43956
-0.16342,0.9865,-0.01087,-0.90488,0.39978,0.9049
-0.16915,0.98553,-0.01063,0.34382,-0.42569,-0.11602
-0.15373,0.98777,-0.02614,0.81114,-0.72312,-0.55534
-0.10915,0.99199,-0.06355,0.84768,-0.7325,-0.3831
-0.04978,0.99432,-0.09406,0.5513,-0.32501,-0.2582
-0.016,0.99377,-0.11027,-0.7023,0.40827,0.16717
0.00435,0.99169,-0.1286,-0.95572,0.49263,0.28445
0.0283,0.98853,-0.14834,-0.68235,-0.24058,0.091
0.0623,0.98453,-0.16375,-0.18253,-0.48627,-0.32985
0.10237,0.97879,-0.17746,-0.12113,-0.52244,-0.28171
0.13717,0.97158,-0.1929,-0.29805,-0.47766,-0.0311
0.16386,0.9638,-0.21034,-0.34939,-0.09255,0.16891
0.18901,0.95498,-0.22866,-0.40717,0.24367,0.28228
0.21179,0.94511,-0.24882,-0.42977,0.25549,0.28191
0.2371,0.93246,-0.27257,-0.33119,0.16688,0.33084
0.26464,0.92063,-0.28705,-0.33459,0.17447,0.56882
0.29676,0.91194,-0.28337,-0.50804,0.27402,0.52482
0.32913,0.90621,-0.26545,-0.82902,0.54406,0.37324
0.35361,0.90398,-0.24037,-1.18287,0.59806,0.19594
0.36783,0.90472,-0.21492,-1.42801,0.20287,0.19678
0.37759,0.90645,-0.18916,-1.46005,0.14778,0.35703
0.37867,0.91148,-0.16065,-1.2001,0.60292,-0.05926
0.36632,0.91957,-0.14213,-0.95982,0.57668,-0.1642
0.34196,0.93174,-0.12214,-0.69691,0.10245,0.11887
0.30841,0.94823,-0.07577,0.03915,0.57801,-0.14308
0.26282,0.96385,-0.04391,0.35438,0.80889,-0.64451
0.21238,0.97619,-0.04403,0.38897,0.745,-0.27378
0.15831,0.98694,-0.02979,-0.29073,0.40745,0.08001
0.09719,0.99512,-0.01687,-0.53454,0.48254,0.04195
0.03841,0.99923,-0.00738,-0.32003,0.45783,-0.10372
-0.01508,0.99981,0.01221,-0.00365,0.25229,-0.14542
-0.06515,0.99721,0.03633,0.20414,0.13021,-0.08945
-0.11054,0.99234,0.05507,0.24908,-0.21444,-0.08988
-0.14792,0.98649,0.07039,0.14124,-0.5702,-0.10002
-0.18106,0.97995,0.08311,0.15579,-0.60448,-0.19162
-0.20768,0.97364,0.09428,0.18108,-0.62686,-0.23724
-0.22603,0.96848,0.10466,0.297,-0.66685,-0.31312
-0.23552,0.96511,0.1144,0.34076,-0.69924,-0.31355
-0.23729,0.96368,0.1225,0.34637,-0.74713,-0.29549
-0.23414,0.96385,0.12719,0.35732,-0.69499,-0.25806
-0.22789,0.96543,0.12654,0.41588,-0.61417,-0.14497
-0.21754,0.96886,0.11824,0.40718,-0.5339,0.05615
-0.20218,0.97383,0.10383,0.12961,-0.29553,0.36466
-0.18135,0.97903,0.09279,-0.25785,0.10991,0.9769
-0.14994,0.98358,0.10047,-1.80433,1.11307,1.6424
-0.15527,0.98232,0.10458,-1.28817,0.97475,1.10526
-0.18276,0.97976,0.08167,-0.30476,0.02073,0.53008
-0.21219,0.97493,0.06701,0.34882,-0.6094,0.22059
-0.2274,0.97162,0.06519,0.31165,-0.57324,-0.36797
-0.21454,0.97624,0.03039,0.47556,0.09593,-1.3466
-0.16841,0.98565,-0.01194,-0.5712,3.5543,0.58905
-0.15565,0.98781,-0.00044,-1.47474,2.50866,-0.3755
-0.17481,0.98459,0.00441,0.0761,-0.14536,0.26864
-0.17523,0.9845,-0.00668,1.00021,-0.98502,-0.85758
-0.14357,0.9884,-0.04949,1.17702,-1.04358,-0.60273
-0.07415,0.99266,-0.09553,1.1477,-0.70865,-0.38541
-0.01175,0.99352,-0.11304,-0.46921,0.80468,-0.12513
0.02411,0.99053,-0.13515,-1.03112,0.98559,0.24218
0.04797,0.98455,-0.1684,-0.84916,-0.24093,0.29329
0.08168,0.97931,-0.18517,-0.03002,-0.51307,-0.13663
0.11869,0.97337,-0.19612,0.20417,-0.5459,-0.50911
0.14682,0.96556,-0.21481,-0.0302,-0.52983,-0.09152
0.17264,0.95739,-0.23151,-0.41255,-0.39478,0.39345
0.20334,0.95194,-0.22906,-0.59976,0.2164,0.49263
0.23203,0.94574,-0.22747,-0.63495,0.34618,0.0557
0.25156,0.93436,-0.25237,-0.74492,-0.12694,-0.18336
0.267,0.92217,-0.27982,-0.78081,0.08962,0.09559
0.29282,0.91489,-0.27791,-0.61494,0.32532,0.90766
0.32069,0.91109,-0.259,-0.44003,0.33661,0.75776
0.34455,0.90702,-0.24205,-0.76676,0.25333,0.23734
0.36747,0.90412,-0.21803,-1.04736,0.34742,-0.04586
0.38148,0.90351,-0.19531,-1.42362,0.40007,0.21245
0.38566,0.90609,-0.174,-1.55484,0.34204,0.37385
0.37551,0.91419,-0.15251,-1.22367,0.43846,0.21647
0.35258,0.92732,-0.12554,-0.93728,0.2617,0.16653
0.32531,0.9427,-0.07408,-0.46929,0.21237,0.10478
0.28662,0.95777,-0.02295,-0.08885,1.02095,-0.43841
0.22996,0.97314,-0.01084,0.57021,1.37931,-0.51191
0.17038,0.98538,-0.00069,0.04888,0.64673,-0.27865
0.10195,0.99472,0.01145,-0.68473,0.36911,-0.01297
0.02799,0.99924,0.02715,-0.73235,0.46061,0.04414
-0.03888,0.99814,0.04697,0.02847,0.38719,-0.16993
-0.09062,0.99342,0.06999,0.30098,0.23631,-0.1881
-0.13599,0.98634,0.093,0.44779,-0.04748,-0.11841
-0.17586,0.97784,0.11363,0.25546,-0.40565,-0.27419
-0.21092,0.9682,0.13452,0.23146,-0.5017,-0.30242
-0.24086,0.95854,0.15226,0.23611,-0.59683,-0.33202
-0.26211,0.95053,0.1667,0.33117,-0.66582,-0.34203
-0.27467,0.94489,0.17814,0.38573,-0.73936,-0.36811
-0.27796,0.94234,0.18637,0.44603,-0.81531,-0.39073
-0.27511,0.94278,0.18837,0.55288,-0.89552,-0.41913
-0.26875,0.94637,0.17934,0.60913,-0.78136,-0.29737
-0.25694,0.9538,0.15571,0.16066,-0.31015,0.11388
-0.23757,0.96392,0.12009,0.14129,-0.32027,0.1495
-0.20441,0.97498,0.08737,-0.26829,0.20511,0.84851
-0.14856,0.98354,0.10289,-2.07916,2.07248,2.38918
-0.16296,0.98003,0.11395,-1.7782,1.39239,0.91657
-0.20072,0.97579,0.08689,-0.53831,-0.1482,0.22044
-0.23601,0.96946,0.06667,0.11241,-0.56277,0.05565
-0.23678,0.97055,0.04431,0.38278,0.27994,-0.06332
-0.20642,0.97837,0.01379,-0.26655,1.03975,-1.96321
-0.19585,0.98052,-0.01467,-0.59253,0.35398,-0.79241
-0.22184,0.97458,-0.03142,-0.50857,-0.19549,0.35488
-0.23853,0.97101,-0.01585,1.43031,-0.50436,0.77803
-0.21334,0.97655,-0.02894,1.13018,-0.24407,-0.80063
-0.15352,0.98611,-0.06338,0.8111,-0.44177,-0.72209
-0.07051,0.99258,-0.0991,0.44994,0.1426,-0.20902
-0.01084,0.99256,-0.12127,-0.34434,0.8721,-0.51674
0.00958,0.98888,-0.14838,-0.74382,0.80395,-0.2697
0.02502,0.98578,-0.16619,-1.19028,-0.48074,0.14867
0.05729,0.98254,-0.177,-0.35697,-0.60348,-0.25467
0.08897,0.97784,-0.18953,-0.18169,-0.64805,-0.3915
0.11839,0.97146,-0.20553,-0.12295,-0.51265,-0.1354
0.14446,0.96359,-0.22501,-0.11954,-0.15826,0.07917
0.17227,0.95352,-0.24724,-0.08135,0.31218,0.22997
0.19986,0.94229,-0.26859,-0.26401,0.42726,0.32126
0.22847,0.92881,-0.29173,-0.41566,0.05663,0.30573
0.26139,0.91463,-0.30844,-0.50068,0.16188,0.44246
0.29746,0.90242,-0.3117,-0.56199,0.32453,0.53301
0.33031,0.89479,-0.30041,-0.7065,0.36782,0.43487
0.3557,0.89221,-0.27826,-1.05521,0.44624,0.35654
0.37466,0.89296,-0.24951,-1.17842,0.39088,0.19798
0.38632,0.89477,-0.22391,-1.38809,0.23213,0.18616
0.38992,0.8989,-0.19986,-1.42192,0.28395,0.26152
0.38022,0.90838,-0.17401,-1.25866,0.60839,0.07596
0.35658,0.92266,-0.1468,-0.91874,0.27677,0.20645
0.32466,0.9405,-0.10029,-0.34087,0.28676,0.31639
0.28272,0.95798,-0.0484,0.00782,0.5357,-0.10196
0.22791,0.97318,-0.03141,0.5489,1.06239,-0.55358
0.1727,0.98482,-0.01744,0.07105,0.83882,-0.22174
0.1098,0.99395,0.00422,-0.63787,0.55899,0.1672
0.04151,0.99891,0.02116,-0.64507,0.52729,0.11437
-0.02422,0.99903,0.03682,-0.15634,0.43827,-0.22025
-0.08442,0.99468,0.05897,0.15955,0.21699,-0.1308
-0.13739,0.98724,0.08052,0.2324,0.08864,-0.05775
-0.18058,0.97848,0.09985,0.15922,-0.31712,-0.1557
-0.21712,0.96894,0.11841,0.17714,-0.53337,-0.22175
-0.24767,0.95913,0.13689,0.23545,-0.6231,-0.33127
-0.26894,0.95064,0.15481,0.26735,-0.64062,-0.35626
-0.28,0.94484,0.16993,0.34283,-0.68799,-0.4014
-0.28215,0.94202,0.18161,0.43582,-0.74609,-0.40515
-0.27815,0.94199,0.18784,0.58512,-0.78056,-0.40558
-0.27199,0.94435,0.18499,0.6986,-0.75781,-0.32091
-0.26361,0.94991,0.16789,0.65436,-0.62575,-0.12688
-0.24876,0.95951,0.13214,0.07841,-0.17794,0.26842
-0.22296,0.97085,0.08801,-0.14427,0.07113,0.5593
-0.16762,0.9837,0.0651,-2.20543,2.00212,2.0044
-0.15788,0.98433,0.07857,-2.51796,1.93717,1.17965
-0.19015,0.97973,0.06304,-0.58387,-0.21769,0.15323
-0.22126,0.97394,0.04977,0.05491,-0.42322,-0.05534
-0.23434,0.97144,0.03742,0.27558,-0.09898,0.03032
-0.21053,0.97753,0.01082,0.42592,0.72142,-1.23531
-0.17906,0.98381,-0.00785,-0.20338,0.859,-1.14987
-0.18147,0.98322,-0.01875,-0.48126,0.4924,-0.49448
-0.20775,0.97806,-0.01567,0.73085,-0.519,1.29538
-0.21067,0.97738,-0.01861,1.01725,-0.41492,-0.61281
-0.1776,0.9829,-0.04854,0.79133,-0.70593,-0.68964
-0.11454,0.98892,-0.09442,0.75509,-0.70378,-0.44798
-0.04569,0.99122,-0.12409,-0.07275,0.41341,-0.27704
-0.00718,0.98982,-0.14214,-0.46001,0.89,-0.08132
0.00767,0.98681,-0.16172,-1.07615,0.06593,0.33034
0.0341,0.98428,-0.17327,-0.45122,-0.44022,0.17454
0.06627,0.98073,-0.1838,-0.07233,-0.59796,-0.30553
0.09652,0.97591,-0.19565,-0.05996,-0.60746,-0.36621
0.12415,0.96938,-0.21186,-0.27646,-0.37156,-0.15411
0.14916,0.96106,-0.23262,-0.29987,-0.03772,0.01123
0.17314,0.95186,-0.25297,-0.34306,0.15154,0.16642
0.1958,0.94215,-0.27204,-0.41283,0.27515,0.44139
0.22158,0.9312,-0.28942,-0.40585,0.04429,0.47593
0.24969,0.92216,-0.29542,-0.31712,0.00037,0.38859
0.28134,0.91522,-0.28847,-0.48181,0.29916,0.29455
0.31351,0.91,-0.27132,-0.75116,0.46384,0.27724
0.33813,0.90675,-0.25194,-1.07001,0.34418,0.25846
0.35378,0.90533,-0.235,-1.28806,0.16318,0.18747
0.36286,0.90505,-0.22185,-1.37784,0.22645,0.21887
0.36821,0.90611,-0.2083,-1.11268,0.42113,0.29195
0.36459,0.91235,-0.18628,-1.06748,0.70095,0.34647
0.34917,0.92388,-0.15659,-0.77744,0.30271,0.34018
0.32518,0.93924,-0.10991,-0.57453,0.08526,0.21479
0.28835,0.95615,-0.05125,-0.3211,0.35487,-0.07767
0.23547,0.97159,-0.02371,0.20537,0.99511,-0.52522
0.18092,0.98342,-0.01209,0.21319,0.8665,-0.32049
0.11887,0.9929,0.00479,-0.63112,0.40766,0.08351
0.05008,0.99845,0.02421,-0.68368,0.37498,0.10263
-0.01135,0.99896,0.04419,-0.42383,0.42717,-0.03126
-0.06155,0.99566,0.06979,0.14943,0.1757,-0.12608
-0.10612,0.98997,0.0933,0.23156,-0.13805,-0.09845
-0.14377,0.98316,0.11279,0.16429,-0.30505,-0.2158
-0.17701,0.97551,0.13057,0.12802,-0.49342,-0.24094
-0.20626,0.96721,0.14819,0.1707,-0.53868,-0.32032
-0.22811,0.9596,0.16475,0.19326,-0.51993,-0.33472
-0.24331,0.95333,0.17878,0.24033,-0.58405,-0.35537
-0.25161,0.94933,0.18834,0.3543,-0.63472,-0.40913
-0.25336,0.94825,0.19137,0.58396,-0.72308,-0.42026
-0.25207,0.95007,0.18391,0.58242,-0.69258,-0.2687
-0.24566,0.9557,0.16215,0.52906,-0.651,-0.13291
-0.23093,0.96537,0.12133,-0.0522,-0.30885,0.32549
-0.20055,0.97715,0.07042,-0.32623,0.22594,1.1485
-0.13875,0.98875,0.05581,-1.05956,1.25917,2.19364
-0.1403,0.98813,0.06248,-2.37329,1.9428,1.08522
-0.17138,0.98436,0.04073,-0.44951,-0.1622,0.23921
-0.20453,0.97823,0.03506,-0.05259,-0.50988,0.21485
-0.22045,0.97492,0.0305,0.33361,-0.4779,-0.92654
-0.20052,0.97962,-0.012,0.71678,0.07083,-1.48691
-0.14852,0.98727,-0.05689,0.63966,0.35727,-1.40071
-0.11878,0.99152,-0.05271,0.03598,1.74485,0.61448
-0.13938,0.98898,-0.04993,-0.21055,0.02333,0.52849
-0.14067,0.98801,-0.06362,0.30678,-0.28562,-0.3039
-0.11399,0.98909,-0.09334,0.98922,-0.68767,-0.48013
-0.05779,0.98908,-0.13557,0.87782,-0.58489,-0.16875
0.00235,0.98716,-0.15971,-0.04639,0.10299,-0.24129
0.03223,0.98377,-0.17655,-0.45167,0.23677,0.02684
0.05606,0.97827,-0.19959,-0.92009,0.25133,0.28729
0.08139,0.9729,-0.21643,-0.03151,-0.38483,-0.37201
0.1079,0.9685,-0.2244,0.10619,-0.44528,-0.39829
0.13041,0.96224,-0.23894,0.06066,-0.37587,0.00237
0.15222,0.95597,-0.2509,-0.18426,-0.07773,0.28624
0.18157,0.94991,-0.25435,-0.25114,0.07331,0.17429
0.20805,0.94223,-0.26253,-0.44356,0.12003,0.07618
0.23069,0.93275,-0.27705,-0.68112,-0.03141,0.15518
0.25666,0.92306,-0.28651,-0.76178,0.00793,0.38532
0.28823,0.915,-0.28232,-0.48447,0.22645,0.48234
0.31642,0.90938,-0.27001,-0.69861,0.36808,0.34171
0.33957,0.90563,-0.25401,-0.86647,0.37072,0.29463
0.3579,0.9041,-0.2335,-0.99916,0.35144,0.16412
0.36979,0.90382,-0.21531,-1.35853,0.26013,0.20297
0.377,0.90489,-0.1976,-1.4518,0.25923,0.29178
0.37517,0.90898,-0.18164,-1.29056,0.52021,0.20678
0.35771,0.91942,-0.16343,-1.17766,0.58858,0.20731
0.33101,0.93447,-0.13111,-0.73594,0.19527,0.23137
0.2947,0.95251,-0.07663,-0.33356,0.24442,0.19143
0.23994,0.97002,-0.03856,0.32182,0.96568,-0.26974
0.18262,0.98278,-0.02832,0.64181,1.32081,-0.5011
0.12675,0.9919,-0.00825,-0.14163,0.43493,-0.03791
0.0597,0.99809,0.01612,-0.7609,0.27396,0.21454
-0.00688,0.99932,0.03634,-0.55229,0.35095,-0.03977
-0.06446,0.99617,0.05908,-0.14662,0.25238,-0.17944
-0.11432,0.99025,0.07956,0.09371,-0.04261,-0.15813
-0.15682,0.98292,0.09636,0.1091,-0.19468,-0.19915
-0.19349,0.97474,0.11159,0.11677,-0.35631,-0.22707
-0.2243,0.96594,0.12905,0.1861,-0.43113,-0.34028
-0.24753,0.95717,0.15021,0.21222,-0.52969,-0.36097
-0.26295,0.94969,0.17011,0.22699,-0.56858,-0.36314
-0.27071,0.94487,0.18421,0.36142,-0.69315,-0.39401
-0.27238,0.9432,0.19024,0.57684,-0.72615,-0.42524
-0.27139,0.9444,0.18559,0.62937,-0.73504,-0.39773
-0.26352,0.95026,0.16599,0.52472,-0.6099,-0.19618
-0.24932,0.95984,0.12861,0.18888,-0.37566,0.16765
-0.22674,0.97052,0.08179,-0.02627,0.00434,0.82254
-0.17284,0.98326,0.05761,-1.59283,1.61085,2.4249
-0.14883,0.98542,0.0825,-2.50838,1.89865,1.74947
-0.17364,0.98259,0.06603,-0.66893,0.22522,0.25767
-0.20451,0.97761,0.04962,0.20262,-0.58669,0.07454
-0.22552,0.97301,0.04893,0.38141,-0.73152,0.15386
-0.21788,0.97586,0.01463,0.57014,-0.55152,-1.03344
-0.17139,0.98407,-0.04731,0.61135,-0.1622,-1.37371
-0.1125,0.99124,-0.06914,0.50809,1.04526,-0.70396
-0.12342,0.9911,-0.04982,-1.25802,0.94136,0.94609
-0.15121,0.98668,-0.05994,-0.4692,-0.27686,0.18652
-0.14935,0.98563,-0.07894,0.76864,-0.86305,-0.55265
-0.11189,0.98644,-0.12006,1.53408,-1.05636,-0.24238
-0.04592,0.98737,-0.15164,0.57565,-0.21269,-0.37574
-0.00775,0.98689,-0.16119,0.01046,0.24098,-0.41779
0.01171,0.98367,-0.17961,-0.95542,0.87819,0.49516
0.03414,0.97827,-0.20449,-1.02861,0.60394,0.39645
0.06804,0.97393,-0.21641,-0.0302,-0.50925,-0.39526
0.10339,0.96846,-0.22671,0.19998,-0.5726,-0.53348
0.13459,0.96105,-0.24139,-0.12585,-0.39109,-0.17656
0.16403,0.95229,-0.25736,-0.31886,-0.16451,0.12875
0.19752,0.94223,-0.27054,-0.38217,0.19145,0.34248
0.22734,0.93187,-0.28272,-0.45933,0.40838,0.39769
0.25669,0.92013,-0.29576,-0.4914,0.05633,0.26231
0.28708,0.91015,-0.2987,-0.64133,0.17387,0.29565
0.31847,0.90165,-0.29257,-0.88256,0.28894,0.41575
0.34545,0.89542,-0.28085,-1.02685,0.2315,0.43404
0.36637,0.89316,-0.26086,-1.20731,0.33142,0.47555
0.38046,0.89403,-0.23656,-1.23964,0.33524,0.18503
0.38721,0.89665,-0.2147,-1.20471,0.30985,0.25532
0.38714,0.90149,-0.19346,-1.13789,0.40931,0.4601
0.37426,0.91185,-0.1687,-1.11709,0.5751,0.34344
0.35181,0.92626,-0.1352,-0.81681,0.25191,0.19277
0.32182,0.9434,-0.08021,-0.54457,0.1128,0.04768
0.27756,0.96039,-0.02476,-0.20965,0.54306,-0.14772
0.22101,0.97527,-0.00252,0.49379,1.2263,-0.47441
0.16315,0.98654,0.01112,0.25209,0.76326,-0.31529
0.09657,0.9949,0.02897,-0.59308,0.36571,0.10924
0.02451,0.99854,0.04823,-0.69672,0.35905,0.13904
-0.04104,0.99669,0.07012,-0.22314,0.51878,-0.16448
-0.09722,0.99082,0.09391,0.10577,0.01046,-0.02406
-0.14569,0.983,0.11172,0.15257,-0.08808,-0.09202
-0.1877,0.97398,0.127,0.18102,-0.14625,-0.19907
-0.22303,0.96416,0.14374,0.16451,-0.39583,-0.32614
-0.2506,0.9545,0.16164,0.18215,-0.48427,-0.35872
-0.26678,0.9471,0.17841,0.22577,-0.564,-0.33366
-0.27364,0.94257,0.19152,0.30625,-0.71079,-0.38977
-0.27339,0.94105,0.19919,0.43201,-0.82197,-0.43057
-0.27,0.94196,0.19955,0.65058,-0.94029,-0.43194
-0.26239,0.94644,0.18815,0.54982,-0.83543,-0.32984
-0.24788,0.95559,0.15941,0.4608,-0.65468,-0.12729
-0.22676,0.96704,0.1158,-0.02458,-0.27966,0.31015
-0.192,0.9783,0.07785,-0.17257,-0.08763,0.61521
-0.13853,0.98657,0.08659,-1.04258,1.62188,2.33775
-0.15534,0.98398,0.08752,-1.35398,1.13263,0.60967
-0.19166,0.97909,0.06823,-0.68457,0.16546,0.40946
-0.2233,0.97225,0.06979,0.1319,-0.82006,0.25635
-0.23291,0.97081,0.05735,0.2899,-0.90795,-0.93041
-0.20575,0.9786,-0.00126,0.80386,-0.21374,-1.4912
-0.14843,0.98752,-0.05256,0.80078,0.21233,-1.44736
-0.12176,0.99192,-0.03552,-1.28105,2.76665,0.73711
-0.15541,0.98731,-0.03267,-1.3177,1.2882,0.98703
-0.16322,0.98579,-0.03986,0.30467,-0.59469,-0.17286
-0.13722,0.98821,-0.06784,1.30992,-0.9392,-0.41533
-0.07382,0.99129,-0.10905,1.02548,-0.88559,-0.30711
-0.00228,0.9904,-0.13818,0.00852,0.03935,-0.51543
0.03197,0.98739,-0.15506,-0.86594,0.57838,0.0679
0.05179,0.9822,-0.18057,-1.4078,0.73368,0.32291
0.07801,0.97625,-0.20213,-0.74862,-0.33196,0.1262
0.11244,0.97013,-0.21496,0.02365,-0.52738,-0.34337
0.14137,0.96231,-0.23231,0.15865,-0.49204,-0.25855
0.16193,0.95413,-0.25182,-0.03066,-0.40558,0.20662
0.18869,0.94614,-0.26308,-0.18326,-0.05337,0.4926
0.21876,0.93766,-0.27008,-0.30341,0.47151,0.42084
0.24166,0.9274,-0.28552,-0.45585,0.42953,0.31199
0.26305,0.9175,-0.29833,-0.78505,-0.01073,0.21269
0.29161,0.90985,-0.29519,-0.5281,0.25783,0.47509
0.32177,0.9053,-0.27729,-0.51043,0.27277,0.54035
0.34673,0.90269,-0.25483,-0.61794,0.31303,0.51327
0.36588,0.90195,-0.22937,-1.05112,0.32668,0.1046
0.3756,0.90255,-0.21056,-1.26381,0.20153,-0.02972
0.3771,0.90502,-0.19682,-1.51196,0.14966,0.24463
0.37256,0.9106,-0.17892,-1.25957,0.65979,0.29878
0.35475,0.92179,-0.15642,-1.07939,0.57666,0.29792
0.32766,0.93705,-0.12074,-0.85816,0.31116,0.26831
0.29095,0.95461,-0.06386,-0.36139,0.19658,0.15819
0.23932,0.97061,-0.02545,0.12596,0.87928,-0.3603
0.18562,0.98255,-0.01173,0.5775,1.32844,-0.52636
0.12852,0.99167,0.00907,-0.03128,0.57525,-0.23615
0.05846,0.99776,0.03244,-0.76526,0.40435,0.09961
-0.01288,0.99863,0.05072,-0.29187,0.47854,-0.17887
-0.07491,0.99457,0.07227,-0.05865,0.41548,-0.20768
-0.12672,0.98751,0.09366,0.18365,-0.12108,-0.16466
-0.17002,0.97894,0.11299,0.11499,-0.40533,-0.19778
-0.20623,0.96981,0.13013,0.1315,-0.58889,-0.23772
-0.23569,0.96081,0.14591,0.19443,-0.60485,-0.29855
-0.2564,0.95316,0.16045,0.23474,-0.61173,-0.29456
-0.26665,0.94857,0.17064,0.25287,-0.63149,-0.30031
-0.26878,0.94708,0.1755,0.32939,-0.67906,-0.35677
-0.26436,0.94838,0.17519,0.49478,-0.69968,-0.42465
-0.25715,0.95135,0.16971,0.70016,-0.72122,-0.43613
-0.248,0.95651,0.15357,0.67545,-0.6297,-0.21651
-0.23311,0.96498,0.1203,0.29681,-0.42522,0.10285
-0.20924,0.97481,0.0772,-0.0687,0.04856,0.48307
-0.16076,0.9853,0.05783,-0.10967,0.47724,1.14765
-0.13914,0.98707,0.07956,-2.36542,2.12703,1.33397
-0.16798,0.98393,0.06057,-0.77085,0.11853,0.34847
-0.20063,0.97868,0.04402,-0.17812,-0.44166,0.0535
-0.20371,0.97863,0.02802,0.21442,0.11523,0.17594
-0.18104,0.98347,0.00462,0.35341,0.35131,0.04338
-0.15159,0.98837,-0.01228,-0.33286,0.54513,-1.40328
-0.14952,0.98821,-0.03296,-0.63623,0.29974,-0.76364
-0.16852,0.98442,-0.05025,-0.09689,-0.5039,0.31687
-0.17858,0.9826,-0.05095,0.8664,-0.67595,0.66719
-0.16007,0.98441,-0.07284,0.93816,-0.5803,-0.29455
-0.10435,0.98778,-0.11579,0.83592,-0.55418,-0.43633
0.34565,0.87778,-0.3317,0.07786,0.11861,-0.04342
0.39959,0.85918,-0.31958,-0.66047,1.00573,0.05138
0.42417,0.84791,-0.318,-1.42675,0.74721,0.3948
0.4497,0.83519,-0.31658,-1.57608,0.22711,0.43039
0.48307,0.81955,-0.30819,-0.79403,-0.21969,-0.00829
0.5104,0.80271,-0.30847,-0.54371,-0.25492,-0.23082
0.53427,0.78664,-0.30945,-0.62011,-0.27799,-0.04532
0.55754,0.7714,-0.30674,-0.59974,-0.18264,0.15404
0.58117,0.75232,-0.31023,-0.50969,0.19496,0.22898
0.60214,0.72957,-0.32427,-0.60637,0.44166,0.18082
0.62041,0.70857,-0.33618,-0.93288,0.46018,0.39593
0.64653,0.68914,-0.32724,-0.9559,0.35308,0.6696
0.67727,0.67106,-0.30162,-0.84118,0.42581,0.56146
0.7046,0.65772,-0.26636,-0.97694,0.60785,0.25838
0.72552,0.65013,-0.22574,-1.4972,0.65622,0.20127
0.73758,0.64765,-0.19113,-1.62022,0.5798,0.16708
0.74254,0.64897,-0.16574,-1.73595,0.4901,0.14505
0.74199,0.65435,-0.14585,-1.73339,0.57847,0.20188
0.73269,0.66804,-0.12994,-1.61342,0.91811,0.15618
0.71582,0.68901,-0.11346,-1.29742,0.59894,0.19627
0.69335,0.71676,-0.07437,-0.89667,0.34936,0.19861
0.66002,0.75098,-0.02017,-0.62703,0.58103,0.1267
0.61634,0.78742,-0.00971,-0.31818,0.8651,-0.26195
0.57053,0.82093,-0.02376,-0.03429,1.05335,-0.33862
0.51273,0.85783,-0.03514,-0.88097,0.48546,0.08013
0.44706,0.89347,-0.04299,-1.18568,0.44451,0.27728
0.38678,0.92089,-0.0487,-0.81731,0.50525,0.06075
0.33259,0.94196,-0.0458,-0.42785,0.33767,-0.01504
0.28158,0.95843,-0.04619,-0.16613,0.00059,0.11293
0.23451,0.97096,-0.04731,-0.10837,-0.11636,0.02098
0.19006,0.9805,-0.04998,-0.15106,-0.35515,-0.05715
0.14931,0.98739,-0.05267,-0.17787,-0.54418,-0.08065
0.11793,0.99149,-0.05509,-0.14149,-0.6637,-0.07755
0.09791,0.99351,-0.05797,-0.10262,-0.73145,-0.09294
0.0876,0.9942,-0.06241,0.13391,-0.8307,-0.13754
0.08476,0.99404,-0.06855,0.18745,-0.8386,-0.11539
0.08969,0.99272,-0.08042,0.18419,-0.8345,-0.01855
0.10183,0.98989,-0.09877,0.23569,-0.72299,0.10556
0.12464,0.98395,-0.12767,0.11981,-0.53959,0.38274
0.15125,0.97391,-0.16919,-0.33144,-0.17093,0.73735
0.19397,0.95931,-0.2052,-1.54596,1.67247,2.18168
0.21037,0.95666,-0.20134,-2.68619,1.96028,1.73235
0.18772,0.96129,-0.20168,-2.07941,0.90415,0.60613
0.16141,0.96547,-0.20447,-0.56544,-0.54532,0.45781
0.15309,0.96315,-0.22116,-0.28073,-0.39109,0.3945
0.18363,0.95293,-0.24126,0.06997,0.42058,-0.82955
0.22138,0.93888,-0.26361,-0.39988,0.7683,-1.10023
0.22348,0.93354,-0.2803,-0.94703,0.84602,0.45762
0.19413,0.942,-0.27378,-0.01473,-0.23464,1.38306
0.1874,0.94084,-0.28231,0.6761,-0.3082,0.20921
0.22224,0.92631,-0.30422,0.63422,-0.66406,-0.49281
0.29353,0.89831,-0.32691,0.56131,-0.69768,-0.1536
0.37025,0.86931,-0.32742,-0.14119,0.12087,-0.24243
0.41198,0.8506,-0.32672,-0.99478,1.15697,0.08648
0.43222,0.83935,-0.32966,-1.70279,0.73418,0.56514
0.46517,0.82469,-0.32171,-1.16514,-0.23355,0.38687
0.49992,0.80739,-0.31337,-0.56779,-0.31316,-0.09565
0.5267,0.78983,-0.31424,-0.46929,-0.36536,-0.14965
0.55027,0.77303,-0.31565,-0.62806,-0.30927,0.03466
0.57473,0.7566,-0.31183,-0.70175,0.03016,0.21085
0.59956,0.73995,-0.30496,-0.73887,0.494,0.3763
0.61819,0.71932,-0.31688,-0.92856,0.51823,0.19143
0.63301,0.69651,-0.33791,-1.02458,0.25662,0.19615
0.65425,0.67611,-0.33886,-0.99587,0.2663,0.44126
0.67944,0.6607,-0.31913,-0.87049,0.41553,0.67152
0.70255,0.64863,-0.29276,-0.85552,0.66669,0.50289
0.71949,0.64269,-0.26322,-1.04319,0.73934,0.32755
0.7289,0.64245,-0.23654,-1.5234,0.61499,0.12743
0.73403,0.64498,-0.21261,-1.85364,0.52471,0.38513
0.73555,0.65036,-0.18973,-1.76544,0.60579,0.34848
0.72431,0.66704,-0.17444,-1.63036,0.73695,0.29397
0.70274,0.69395,-0.15682,-1.35827,0.5604,0.27467
0.6776,0.72736,-0.10863,-1.00188,0.23109,0.30248
0.64145,0.76463,-0.06233,-0.29605,0.85891,-0.35294
0.5917,0.80287,-0.07277,0.04908,1.57874,-0.44309
0.54076,0.8361,-0.09235,-0.10411,1.29142,-0.19746
0.47645,0.87327,-0.10195,-1.20081,0.52352,0.3781
0.409,0.90662,-0.10371,-1.03509,0.46196,0.24829
0.35119,0.93144,-0.09534,-0.38726,0.41735,-0.08116
0.29856,0.9508,-0.08275,-0.20069,0.07615,0.07165
0.25081,0.96511,-0.07515,-0.16043,-0.04943,0.05922
0.20823,0.97547,-0.07142,-0.20042,-0.31327,-0.04212
0.16889,0.98317,-0.06973,-0.16744,-0.58355,-0.04497
0.134,0.98856,-0.06925,-0.11041,-0.62165,-0.06691
0.10667,0.99179,-0.07053,-0.07017,-0.74367,-0.04682
0.08669,0.99338,-0.07539,0.01535,-0.84296,-0.07931
0.07429,0.99352,-0.08607,0.07356,-0.85895,-0.07799
0.06995,0.99238,-0.10146,0.28102,-0.84266,-0.07558
0.07403,0.98981,-0.12167,0.25624,-0.69156,0.10098
0.09158,0.98426,-0.15114,0.08734,-0.5711,0.33301
0.1197,0.97419,-0.19137,-0.27849,-0.15538,0.72509
0.16481,0.95895,-0.23077,-0.70889,1.13634,1.90066
0.1904,0.95678,-0.21981,-2.91642,2.21299,1.94334
0.18008,0.95904,-0.21865,-1.56488,0.52565,0.74874
0.1636,0.95945,-0.22955,-0.64564,-0.38691,0.29365
0.1493,0.9596,-0.23849,-0.08066,-0.08132,0.25299
0.17342,0.95255,-0.25013,0.10824,0.96964,-0.14895
0.20121,0.94633,-0.25294,-0.48418,0.93392,-1.18379
0.1905,0.94467,-0.26705,-0.72283,-0.40725,0.58206
0.17354,0.94732,-0.2692,-0.15242,-0.55335,1.11773
0.17511,0.94542,-0.2748,0.72665,-0.34252,0.45905
0.21222,0.93051,-0.29851,0.52204,-0.40405,-0.48926
0.27889,0.90359,-0.32518,0.28494,-0.5388,-0.26805
0.34738,0.87927,-0.3259,0.12598,-0.25273,-0.12074
0.38492,0.86708,-0.31624,-0.96301,1.09485,0.06746
0.40569,0.85859,-0.31344,-1.63669,0.56149,0.43932
0.43624,0.84543,-0.30811,-1.55592,0.00939,0.41146
0.47038,0.82944,-0.30128,-0.46499,-0.33173,-0.04912
0.50125,0.81094,-0.30187,-0.44092,-0.27597,-0.03862
0.52816,0.79394,-0.30116,-0.49012,-0.22053,-0.01453
0.55534,0.77616,-0.29861,-0.62716,0.00699,0.01188
0.58076,0.7576,-0.29793,-0.61768,0.30767,0.15398
0.60609,0.73851,-0.29538,-0.69167,0.3815,0.44244
0.63585,0.71657,-0.28674,-0.81899,0.20512,0.45215
0.6654,0.69509,-0.27218,-0.90323,0.11545,0.29243
0.6929,0.67606,-0.25065,-0.96153,0.19878,0.18725
0.71846,0.65977,-0.22025,-1.16507,0.58502,0.12598
0.73873,0.64755,-0.18699,-1.28768,0.52269,0.20167
0.75121,0.64052,-0.15942,-1.40836,0.50674,0.21382
0.75598,0.63866,-0.14353,-1.87058,0.59893,0.02137
0.75788,0.63782,-0.13711,-1.94939,0.66271,-0.00399
0.75622,0.64136,-0.12956,-1.56991,1.03873,0.17511
0.74386,0.65713,-0.12185,-1.34713,0.89589,0.24944
0.72025,0.68418,-0.1146,-1.13818,0.62333,0.31639
0.68747,0.72094,-0.08732,-0.6587,0.40824,0.33425
0.64257,0.76342,-0.06553,-0.36328,0.59461,-0.05118
0.59379,0.80084,-0.07791,0.01606,1.19105,-0.50571
0.54797,0.83247,-0.08199,-0.56126,0.74188,0.06185
0.48782,0.86924,-0.08035,-0.86876,0.55409,0.27175
0.4223,0.90306,-0.07839,-0.77355,0.47108,0.03115
0.3604,0.93031,-0.06803,-0.37935,0.37837,-0.10912
0.30339,0.95134,-0.05384,-0.20071,0.02987,0.00898
0.2555,0.96567,-0.04686,-0.25646,-0.2849,-0.06484
0.21389,0.97593,-0.0425,-0.29973,-0.5144,-0.07139
0.17408,0.98399,-0.03828,-0.26975,-0.57642,-0.07811
0.13999,0.98947,-0.03662,-0.22229,-0.60711,-0.12976
0.11421,0.99276,-0.03718,-0.12959,-0.62953,-0.17673
0.09491,0.9946,-0.04194,-0.03833,-0.69252,-0.15138
0.07958,0.99551,-0.0513,0.09584,-0.74168,-0.02554
0.08059,0.99442,-0.06812,0.1957,-0.76141,0.05041
0.09315,0.99149,-0.0909,0.24851,-0.78333,0.14823
0.12147,0.98508,-0.12188,-0.10076,-0.62783,0.41546
0.158,0.974,-0.16235,-0.4756,-0.20801,0.84649
0.21043,0.95923,-0.18867,-2.82824,2.30249,2.32373
0.22189,0.95993,-0.17118,-2.8397,2.30179,2.30623
0.20286,0.96352,-0.17456,-1.18102,0.32063,0.54281
0.17129,0.96903,-0.1779,-0.18063,-0.47272,0.27679
0.16443,0.96755,-0.19186,0.0549,-0.20132,-5e-05
0.19848,0.95786,-0.20761,0.07621,0.41804,-0.8331
0.23852,0.94676,-0.21622,-0.77245,0.893,-0.1481
0.2298,0.94808,-0.21985,-1.1989,0.68637,0.37317
0.20539,0.95353,-0.22044,-1.02728,0.17097,0.74856
0.20353,0.95061,-0.23435,0.50621,-0.61717,-0.55578
0.23467,0.93544,-0.26433,0.44575,-0.76284,-0.47836
0.30424,0.90487,-0.29773,0.38602,-0.81555,-0.33947
0.37145,0.87668,-0.30571,-0.21035,0.02545,-0.14038
0.4089,0.8589,-0.30837,-0.96374,1.32288,0.33473
0.42691,0.84634,-0.31852,-1.32704,1.47164,0.49686
0.45239,0.83348,-0.31726,-0.92246,-0.24459,0.47131
0.48086,0.81821,-0.31513,-0.48587,-0.29143,0.15689
0.50558,0.80095,-0.32074,-0.40541,-0.30136,0.02044
0.52889,0.78449,-0.32381,-0.49302,-0.2544,-0.09085
0.5555,0.76804,-0.31864,-0.61775,-0.13813,0.1366
0.58697,0.75165,-0.30081,-0.58671,0.38464,0.39263
0.619,0.73134,-0.28633,-0.64155,0.62566,0.33359
0.64351,0.70627,-0.29507,-0.92339,0.17053,0.18408
0.66184,0.68487,-0.30485,-1.23779,0.31384,0.2501
0.68567,0.66894,-0.28702,-1.26323,0.47291,0.26988
0.71009,0.65726,-0.25255,-1.08283,0.63865,0.44701
0.72799,0.64701,-0.22673,-1.31204,0.6101,0.28852
0.74014,0.64077,-0.204,-1.43443,0.57844,0.15908
0.74614,0.63987,-0.18397,-1.66234,0.65989,0.06007
0.74701,0.64377,-0.16596,-1.78415,0.8943,0.03827
0.73757,0.65795,-0.15196,-1.64043,0.91484,0.13774
0.7171,0.68354,-0.13616,-1.42435,0.6992,0.2835
0.68731,0.71837,-0.10746,-0.8687,0.33026,0.55014
0.64573,0.75988,-0.07491,-0.56715,0.43633,0.25582
0.59615,0.7988,-0.08077,-0.03207,1.04215,-0.40439
0.55256,0.82832,-0.09253,-0.36336,0.84259,-0.1269
0.4991,0.8613,-0.0952,-1.12471,0.4097,0.28445
0.43608,0.89503,-0.09359,-1.08807,0.4249,0.21917
0.3766,0.92228,-0.08702,-0.55325,0.45267,-0.08535
0.32251,0.94348,-0.07636,-0.35793,0.3235,-0.16163
0.27413,0.95906,-0.07116,-0.20632,-0.1936,-0.01442
0.2321,0.97024,-0.06909,-0.31253,-0.44466,-0.00216
0.19553,0.97846,-0.06625,-0.3021,-0.59232,-0.04598
0.16251,0.98469,-0.06304,-0.23552,-0.624,-0.08848
0.13478,0.98888,-0.06281,-0.16199,-0.62784,-0.12424
0.11218,0.99144,-0.06685,-0.06766,-0.7043,-0.10379
0.09542,0.99246,-0.07689,0.06991,-0.76701,-0.07717
0.08621,0.99204,-0.09177,0.20217,-0.76028,-0.05069
0.08484,0.99022,-0.11073,0.24751,-0.72655,-0.01239
0.09398,0.98603,-0.13754,0.16762,-0.61931,0.24471
0.11435,0.9778,-0.17561,-0.27903,-0.3856,0.5897
0.14717,0.96472,-0.21832,-0.47117,0.13598,1.21686
0.18893,0.95484,-0.2293,-0.91623,0.98926,1.78512
0.18647,0.95725,-0.22113,-2.07227,1.35822,1.23622
0.17386,0.95757,-0.22986,-0.94241,0.15377,0.64693
0.16079,0.95864,-0.23487,-0.16529,0.19931,0.22762
0.17967,0.95267,-0.24524,0.00767,1.02144,0.10654
0.20487,0.94566,-0.25249,-0.39898,0.61536,-1.24091
0.20164,0.94176,-0.26912,-0.60445,-0.15334,-0.50653
0.19119,0.943,-0.27239,-0.27856,-0.59818,0.7399
0.19096,0.94248,-0.27434,0.46486,-0.51728,1.15277
0.22635,0.92853,-0.29428,0.49402,-0.33179,-0.40008
0.28841,0.90221,-0.32067,0.31069,-0.54391,-0.32782
0.35914,0.87232,-0.33177,0.02335,-0.03048,-0.14437
0.40129,0.8544,-0.33011,-0.35296,0.56564,-0.15689
0.42193,0.84354,-0.33228,-1.44322,0.8634,0.48601
0.45399,0.8278,-0.32962,-0.91626,-0.24039,0.31364
0.48954,0.81022,-0.32232,-0.73831,-0.31085,0.1469
0.52281,0.79086,-0.31814,-0.62262,-0.32478,0.00867
0.54928,0.77263,-0.31832,-0.48901,-0.23569,-0.165
0.57234,0.75489,-0.32027,-0.58546,-0.09423,0.08886
0.59867,0.73537,-0.31752,-0.61633,0.08404,0.25935
0.62377,0.71283,-0.3206,-0.7672,0.61296,0.25322
0.64301,0.68947,-0.33343,-1.04254,0.23657,0.24287
0.66448,0.66899,-0.33305,-1.1156,0.31091,0.39367
0.69308,0.64958,-0.31256,-1.02416,0.48374,0.41484
0.71841,0.63343,-0.28748,-0.90819,0.63851,0.44048
0.73646,0.6231,-0.26339,-1.30006,0.62777,0.31266
0.74794,0.6196,-0.2381,-1.46275,0.59265,0.18266
0.754,0.61962,-0.21807,-1.69268,0.51257,0.07965
0.75955,0.62006,-0.19651,-1.58435,0.6252,0.27041
0.75906,0.62617,-0.17814,-1.4418,0.77082,0.18768
0.74654,0.64311,-0.17052,-1.48353,0.97198,0.15687
0.72542,0.6698,-0.1585,-1.31412,0.60891,0.21297
0.69675,0.70752,-0.11817,-1.03142,0.34451,0.35428
0.65308,0.752,-0.08937,-0.53029,0.57974,0.15376
0.60155,0.79216,-0.10306,0.15153,1.32713,-0.32164
0.55127,0.82661,-0.1132,-0.01296,1.09197,-0.16944
0.49044,0.86375,-0.11577,-1.01115,0.55257,0.35718
0.42603,0.89788,-0.11097,-0.8501,0.49109,-0.07691
0.36594,0.92563,-0.09639,-0.49255,0.25335,0.00848
0.31199,0.94659,-0.08148,-0.32391,0.10932,0.04203
0.2634,0.96151,-0.07817,-0.30677,-0.339,-0.05845
0.21885,0.97247,-0.08005,-0.27405,-0.47326,-0.05204
0.17724,0.98056,-0.08417,-0.18412,-0.60051,-0.13655
0.14118,0.98598,-0.08893,-0.13476,-0.69011,-0.15155
0.11256,0.98909,-0.09503,-0.02281,-0.78537,-0.16576
0.09114,0.99024,-0.10543,0.112,-0.89429,-0.15267
0.07704,0.98946,-0.1226,0.26732,-0.9189,-0.11883
0.07158,0.98686,-0.14483,0.3153,-0.70134,0.02398
0.07693,0.9822,-0.17134,0.2573,-0.65516,0.15586
0.09459,0.97413,-0.20524,-0.18432,-0.20989,0.59208
0.12252,0.96222,-0.24316,-0.52077,0.86075,1.63645
0.14967,0.9562,-0.25155,-1.70359,1.74695,2.49812
0.1464,0.96011,-0.23825,-1.57108,0.60023,1.14493
0.13947,0.95869,-0.24793,-1.1796,0.0373,0.75953
0.12741,0.95777,-0.25775,-0.35605,-0.59416,0.28204
0.12035,0.95743,-0.26237,-0.22797,-0.54479,-0.41671
0.14286,0.94682,-0.2883,-0.12247,-0.38335,-0.84788
0.1901,0.92627,-0.32541,-0.10124,0.91365,-0.59808
0.21804,0.91692,-0.33424,-1.33749,2.1092,0.29894
0.18976,0.9208,-0.34076,-0.32114,0.16048,1.28102
0.16553,0.92032,-0.35442,0.74904,-0.55673,-0.05575
0.18338,0.90861,-0.37523,0.98301,-0.64784,-0.21498
0.24903,0.88427,-0.39503,0.49564,-0.13006,0.05174
0.32412,0.86372,-0.38593,-0.0338,0.27088,-0.09802
0.37452,0.8474,-0.37636,-0.90821,0.8302,0.20049
0.40967,0.83355,-0.37064,-1.56731,0.65081,0.45379
0.44575,0.82294,-0.35225,-1.34938,-0.19485,0.18799
0.48546,0.80961,-0.32994,-0.55784,-0.40269,-0.34056
0.51535,0.79491,-0.3202,-0.43502,-0.45191,-0.26969
0.5377,0.78095,-0.31781,-0.66262,-0.29198,0.03857
0.56237,0.76499,-0.3139,-0.75753,0.14355,0.21938
0.58659,0.74809,-0.31028,-0.9082,0.50858,0.32426
0.60623,0.72812,-0.31989,-1.01193,0.21808,0.28827
0.62419,0.70714,-0.33218,-0.9253,0.09454,0.31633
0.64702,0.68932,-0.32589,-0.85962,0.27596,0.49273
0.67143,0.67641,-0.30275,-0.77941,0.43013,0.42854
0.69414,0.66577,-0.27372,-0.9888,0.62468,0.33487
0.71252,0.65921,-0.24031,-1.33389,0.65819,0.16197
0.72528,0.65552,-0.2104,-1.55403,0.47591,0.15136
0.73341,0.65376,-0.18628,-1.688,0.58788,0.29797
0.73706,0.65514,-0.16593,-1.6342,0.71841,0.21898
0.73247,0.66432,-0.14888,-1.56667,0.69159,0.34662
0.71965,0.68313,-0.12421,-1.27561,0.4612,0.37962
0.70011,0.71045,-0.07145,-1.07484,0.42658,0.3256
0.67097,0.74119,-0.02087,-0.22882,1.05968,-0.66567
0.62873,0.77702,-0.03057,-0.03658,1.2552,-0.40693
0.58258,0.81137,-0.04784,-0.38206,0.98344,-0.28156
0.52326,0.85026,-0.05704,-1.15731,0.62169,0.23198
0.45663,0.88738,-0.06361,-0.86569,0.65152,0.0014
0.39663,0.9158,-0.06319,-0.60478,0.64307,-0.10513
0.34292,0.93803,-0.05013,-0.34386,0.29363,0.01217
0.29105,0.95559,-0.04631,-0.33522,-0.09314,0.00547
0.24433,0.96851,-0.04786,-0.31955,-0.26163,0.02967
0.20156,0.97808,-0.05236,-0.24967,-0.50634,-0.06812
0.16478,0.98472,-0.05634,-0.18816,-0.59835,-0.16586
0.13686,0.98876,-0.06017,-0.1426,-0.65749,-0.14284
0.11767,0.99082,-0.06658,-0.04577,-0.75306,-0.14652
0.10606,0.99138,-0.07695,0.17328,-0.88387,-0.12476
0.09982,0.99087,-0.09064,0.27703,-0.91618,-0.09627
0.09914,0.98918,-0.10814,0.25503,-0.74603,0.03704
0.10918,0.98521,-0.13204,0.1196,-0.59225,0.2358
0.13174,0.97727,-0.16612,-0.34933,-0.17961,0.52859
0.16509,0.96428,-0.20715,-0.58361,0.61095,1.39373
0.21206,0.95201,-0.22068,-2.71128,2.17652,2.46824
0.20028,0.95755,-0.20731,-2.84234,1.81158,1.56907
0.17875,0.95883,-0.22065,-0.83456,-0.26485,0.36858
0.15361,0.961,-0.22999,-0.26622,-0.56385,0.24834
0.14398,0.95947,-0.24227,0.04024,-0.17012,0.21179
0.17836,0.94861,-0.2614,0.07862,0.39816,-0.77894
0.22389,0.93506,-0.27482,-0.27087,0.87008,-0.64647
0.23511,0.92979,-0.28322,-1.09818,0.72892,0.28865
0.20804,0.93444,-0.28903,-0.2652,0.00085,1.60796
0.21102,0.93039,-0.29973,0.44941,0.01956,-0.52538
0.25149,0.91203,-0.32395,0.56752,-0.61769,-0.44006
0.32053,0.8823,-0.3447,0.51303,-0.51023,0.05564
0.38316,0.85945,-0.33842,-0.33781,0.26901,0.02874
0.41466,0.84613,-0.33484,-1.2039,0.71636,0.33477
0.43935,0.83592,-0.32895,-1.58426,0.43144,0.31049
0.46974,0.82518,-0.31372,-1.0602,-0.14295,0.34834
0.5018,0.81249,-0.29673,-0.45525,-0.3146,-0.21155
0.52633,0.7974,-0.29518,-0.4367,-0.3217,-0.25956
0.54719,0.78096,-0.30114,-0.48553,-0.31874,-0.20309
0.57126,0.76373,-0.30062,-0.60301,-0.01358,0.19482
0.59813,0.74544,-0.2942,-0.66684,0.43661,0.40376
0.62009,0.72411,-0.30192,-0.78969,0.50473,0.38713
0.63803,0.7005,-0.31972,-1.05747,0.20367,0.26512
0.66015,0.679,-0.3212,-0.95594,0.37809,0.42487
0.68756,0.66087,-0.30085,-0.81615,0.54755,0.47285
0.71145,0.64707,-0.27412,-1.0241,0.61944,0.38881
0.72973,0.6382,-0.24537,-1.37395,0.68312,0.24973
0.74107,0.63569,-0.21614,-1.71589,0.53173,0.13818
0.74682,0.63684,-0.19155,-1.79579,0.47214,0.24645
0.74909,0.64102,-0.16721,-1.58445,0.71329,0.299
0.74186,0.65406,-0.14779,-1.49087,0.82545,0.36744
0.72536,0.67666,-0.12637,-1.12411,0.44119,0.26887
0.70351,0.70638,-0.0781,-0.75283,0.35324,0.12744
0.67232,0.73991,-0.02298,-0.28058,0.99378,-0.35057
0.62931,0.77696,-0.01742,-0.00709,1.62239,-0.42235
0.58315,0.81165,-0.03405,-0.27321,1.2805,-0.25886
0.52436,0.85007,-0.04918,-1.29365,0.51434,0.29796
0.45918,0.88676,-0.05298,-0.85492,0.55205,0.01433
0.40252,0.91437,-0.04374,-0.45544,0.44844,-0.05656
0.3535,0.93502,-0.0278,-0.29989,0.03855,0.13361
0.30891,0.95086,-0.02107,-0.26646,-0.11022,0.0602
0.26904,0.96292,-0.02016,-0.33654,-0.44732,-0.10604
0.23137,0.97262,-0.02171,-0.25328,-0.56857,-0.17856
0.19739,0.97997,-0.02629,-0.20308,-0.60403,-0.20255
0.17043,0.98482,-0.03295,-0.14355,-0.7003,-0.15436
0.15029,0.98776,-0.04172,-0.02236,-0.80745,-0.20217
0.13665,0.98905,-0.05572,0.13228,-0.87186,-0.21297
0.13053,0.98857,-0.07539,0.29738,-0.89836,-0.14767
0.13277,0.98606,-0.10029,0.25032,-0.72124,0.03549
0.14743,0.98005,-0.13325,-0.30786,-0.39897,0.46755
0.17232,0.96913,-0.17635,-0.43438,-0.15417,0.72805
0.21479,0.95179,-0.21901,-0.9826,1.62057,2.16797
0.23187,0.94932,-0.2122,-2.857,2.34598,1.90571
0.20718,0.95523,-0.21123,-1.35914,0.1962,0.84937
0.18778,0.95512,-0.2291,-0.55271,-0.28227,0.33052
0.18551,0.95295,-0.23976,0.02265,0.98042,0.17015
0.21913,0.94369,-0.24786,-0.19912,1.38051,-0.73991
0.22727,0.94178,-0.24778,-0.35584,-0.05314,-1.17065
0.2101,0.93984,-0.26935,-0.20868,-0.95501,0.00907
0.19226,0.94421,-0.26739,0.59457,-1.08555,2.20048
0.21634,0.93664,-0.2755,0.40124,-0.05255,-0.37732
0.27783,0.91462,-0.29374,0.15797,0.07899,-0.57951
0.35173,0.88611,-0.30183,0.0412,0.29482,-0.21411
0.40555,0.86438,-0.29727,-0.61503,0.93915,-0.35312
0.42628,0.85413,-0.2979,-1.27426,0.37666,0.26755
0.45386,0.84162,-0.29272,-1.40267,-0.12818,0.40031
0.48496,0.82623,-0.28664,-0.86431,-0.27934,0.15601
0.51634,0.80879,-0.28151,-0.5778,-0.31351,-0.05235
0.54582,0.78869,-0.28291,-0.4908,-0.24719,-0.07681
0.57128,0.76845,-0.28832,-0.54627,0.11003,0.09518
0.59641,0.74648,-0.29507,-0.60784,0.30014,0.2189
0.62047,0.72518,-0.29853,-0.9033,0.31998,0.46806
0.64306,0.70337,-0.30289,-1.07841,-0.01105,0.38625
0.66317,0.68264,-0.30693,-1.12983,0.05001,0.32237
0.68165,0.66695,-0.30089,-1.01443,0.43198,0.37336
0.701,0.65539,-0.28118,-0.86092,0.43244,0.39005
0.71762,0.64789,-0.25547,-1.04339,0.52956,0.40383
0.73237,0.64297,-0.22411,-1.30819,0.68415,0.18627
0.74318,0.64066,-0.19298,-1.59146,0.6142,0.01141
0.74836,0.64067,-0.17175,-1.78326,0.62984,0.10634
0.7492,0.64467,-0.15198,-1.77137,0.84388,-0.04228
0.74026,0.65695,-0.14297,-1.74258,0.9775,-0.04399
0.71872,0.68035,-0.14343,-1.43008,0.62518,0.28323
0.68792,0.71459,-0.12696,-0.72259,0.43896,0.49017
0.64594,0.75596,-0.1062,0.01353,0.86017,-0.03967
0.59643,0.79417,-0.11647,0.29471,1.48637,-0.33319
0.55077,0.82464,-0.12896,0.18175,1.23094,-0.16082
0.50062,0.8567,-0.12432,-0.79098,0.46704,0.33385
0.44016,0.89027,-0.11696,-0.88352,0.45839,0.3998
0.3775,0.92039,-0.10189,-0.67134,0.40118,0.03777
0.32053,0.94362,-0.08273,-0.47703,0.11411,-0.02564
0.27127,0.95956,-0.07519,-0.35547,-0.20144,-0.01169
0.23133,0.97005,-0.07415,-0.33442,-0.53372,-0.06745
0.1962,0.97761,-0.0761,-0.27219,-0.67937,-0.0888
0.16543,0.98319,-0.07722,-0.19582,-0.70948,-0.04998
0.14158,0.9867,-0.07979,-0.01655,-0.71586,-0.05969
0.12257,0.98871,-0.0862,0.16518,-0.82263,-0.14091
0.10926,0.98926,-0.09711,0.01407,-0.65584,0.00232
0.10725,0.98766,-0.11415,0.12646,-0.69388,0.03563
0.11197,0.98499,-0.13136,0.14397,-0.67429,0.19942
0.12778,0.97993,-0.15301,-0.23156,-0.37683,0.65604
0.15103,0.97128,-0.18386,-0.41482,-0.15118,0.90185
0.18416,0.95902,-0.21531,-1.10492,1.03718,1.67849
0.2118,0.95332,-0.21523,-2.64348,1.81247,1.42531
0.20453,0.95585,-0.21102,-1.70953,0.57769,0.88934
0.18763,0.95826,-0.21569,-0.74729,-0.34756,0.59896
0.16523,0.96152,-0.2195,-0.30367,-0.92259,0.28217
0.16701,0.95661,-0.23877,-0.15035,-0.92725,-0.76406
0.21376,0.93437,-0.28505,0.22694,-0.03185,-1.09732
0.28698,0.90372,-0.31769,0.32659,1.80483,-0.18432
0.29617,0.90194,-0.31431,-1.26483,2.8992,1.63124
0.26077,0.91175,-0.31734,-0.67007,-0.46014,0.7132
0.25457,0.91072,-0.32525,0.68662,-1.10275,0.09174
0.28713,0.89243,-0.34802,1.35557,-0.96473,-0.27065
0.37406,0.85603,-0.35677,0.29982,-0.15533,-0.75401
0.43385,0.83106,-0.34801,-0.4108,0.38006,-0.81221
0.45399,0.81672,-0.35616,-1.56671,1.19777,0.48534
0.47635,0.80654,-0.35014,-1.80558,-0.08995,0.42052
0.51668,0.79327,-0.32211,-0.99485,-0.25436,0.1106
0.55044,0.77641,-0.30691,-0.07898,-0.50554,-0.33763
0.57427,0.75598,-0.31418,-0.28764,-0.36278,0.27121
0.59423,0.73618,-0.32393,-0.51896,-0.20411,0.50778
0.62053,0.71532,-0.32134,-0.8566,0.42451,0.22933
0.63882,0.69613,-0.32758,-1.15591,0.58584,0.18106
0.65379,0.67841,-0.33515,-1.22532,0.37634,0.24171
0.67834,0.66052,-0.32181,-0.8519,0.41977,0.46413
0.70651,0.64593,-0.28916,-0.69961,0.65336,0.70997
0.72935,0.63501,-0.25457,-1.01962,0.62776,0.45186
0.74656,0.62824,-0.21901,-1.45908,0.49963,0.10167
0.7568,0.62652,-0.18632,-1.72652,0.44097,-0.05562
0.76056,0.62859,-0.16256,-1.84998,0.32744,-7e-05
0.76108,0.63329,-0.14035,-1.70166,0.51929,0.41754
0.75478,0.64384,-0.12561,-1.57361,0.8082,0.3704
0.73915,0.66289,-0.11932,-1.33186,0.65694,0.24468
0.71803,0.6896,-0.09427,-0.91924,0.43859,0.03266
0.68877,0.72349,-0.04641,-0.52939,1.06339,-0.26301
0.64631,0.76253,-0.02896,0.10268,1.89371,-0.61202
0.60432,0.796,-0.0345,0.11126,1.45644,-0.45815
0.54885,0.8347,-0.04517,-1.21386,0.59762,0.57335
0.48311,0.87398,-0.05263,-1.24338,0.55171,0.5769
0.42337,0.90367,-0.06434,-0.52595,0.61609,-0.23432
0.3705,0.92645,-0.06648,-0.32598,0.22615,-0.24637
0.32016,0.94521,-0.06386,-0.30592,-0.01529,-0.09385
0.2739,0.95961,-0.06426,-0.2807,-0.35907,0.01196
0.23,0.97059,-0.07115,-0.21796,-0.5281,-0.11332
0.18933,0.97849,-0.08197,-0.20359,-0.59746,-0.09767
0.15668,0.98335,-0.09203,-0.12205,-0.65724,-0.10058
0.13409,0.98595,-0.09963,0.00849,-0.75116,-0.16961
0.11909,0.98713,-0.10672,0.12773,-0.77043,-0.13776
0.11461,0.98634,-0.11832,0.32982,-0.78491,-0.10622
0.11615,0.9844,-0.13217,0.45226,-0.7972,0.02963
0.12709,0.98041,-0.15048,0.25462,-0.67241,0.26173
0.15042,0.97196,-0.18073,-0.19818,-0.38146,0.59256
0.18079,0.95817,-0.22184,-0.37743,0.27524,1.28988
0.22131,0.94788,-0.22925,-2.53498,2.54207,2.79407
0.20832,0.95624,-0.20545,-2.15429,1.16466,1.19585
0.18837,0.95931,-0.21032,-0.9794,-0.29602,0.43033
0.16457,0.96275,-0.21454,-0.42099,-0.89225,0.2246
0.16134,0.9611,-0.22418,-0.1294,-0.57904,-0.06099
0.20662,0.94529,-0.25248,0.06485,0.38328,-1.02469
0.25711,0.92651,-0.27471,-1.05447,2.32251,0.16544
0.25197,0.92989,-0.26799,-1.47981,1.39695,0.38359
0.21665,0.93767,-0.27172,-0.26079,-0.38421,1.04422
0.2091,0.93167,-0.29711,0.57641,-0.78987,-0.41682
0.24934,0.9073,-0.33858,0.93625,-0.96245,-0.41794
0.33437,0.87019,-0.36189,0.90783,-0.779,-0.35393
0.38615,0.85049,-0.35715,-0.31494,0.58619,0.02382
