gravity.x,gravity.y,gravity.z,userAcceleration.x,userAcceleration.y,userAcceleration.z
0.19822,0.97924,-0.04237,-0.16889,0.21406,0.00911
0.2315,0.96705,-0.10595,-0.30323,0.62322,0.11796
0.25978,0.95112,-0.16696,-0.21655,1.20261,0.21054
0.28284,0.93405,-0.21805,-0.16576,0.8253,0.19054
0.30724,0.91641,-0.25649,0.04504,0.16583,0.13942
0.33253,0.89804,-0.28801,0.32365,0.13803,0.03093
0.35152,0.87965,-0.32038,0.33808,0.1264,0.03358
0.36386,0.85944,-0.35912,-0.02325,-0.1486,0.21861
0.37315,0.83742,-0.39935,-0.1934,-0.14888,0.49888
0.38016,0.81815,-0.43141,-0.2756,-0.17818,0.59538
0.37813,0.80575,-0.45584,-0.49498,-0.29919,0.59796
0.36797,0.79879,-0.47595,-0.61224,-0.34301,0.47058
0.35403,0.79488,-0.49278,-0.61746,-0.32512,0.4592
0.33969,0.79353,-0.50489,-0.53833,-0.21387,0.44073
0.32947,0.79349,-0.51168,-0.30785,-0.22205,0.45769
0.32817,0.79687,-0.50725,-0.28331,-0.2221,0.38538
0.33543,0.80495,-0.48943,-0.3287,-0.24953,0.2881
0.34685,0.81679,-0.46103,-0.35138,-0.30262,0.20885
0.35679,0.83329,-0.42229,-0.36508,-0.33895,0.15002
0.3585,0.85428,-0.37641,-0.01108,-0.1251,-0.15626
0.34922,0.87587,-0.33301,0.53107,0.37772,-0.75013
0.32619,0.88937,-0.32035,0.84189,0.88708,-1.16293
0.31756,0.88428,-0.34236,0.95261,0.72981,-0.56964
0.32709,0.87584,-0.35485,0.13048,-0.43031,-0.73305
0.33217,0.86932,-0.36598,0.07314,-0.54139,-0.55957
0.33832,0.86403,-0.3728,-0.07212,0.32276,0.56401
0.36241,0.87303,-0.3263,0.05724,1.71576,1.26423
0.38884,0.88661,-0.25044,-0.56244,0.45036,0.14238
0.40444,0.88963,-0.21207,-0.17042,-0.23851,-0.1178
0.40438,0.89856,-0.17048,-0.00882,-0.50072,0.6783
0.39176,0.90862,-0.1447,-0.41167,-0.52141,0.58324
0.36031,0.92228,-0.13988,-0.6538,-0.23326,0.36913
0.31553,0.93833,-0.14133,-0.47489,0.20924,0.10605
0.28509,0.95005,-0.12695,-0.2587,0.44823,0.27551
0.28059,0.9561,-0.08453,0.1619,0.19991,0.61564
0.28382,0.95786,-0.04404,0.15276,0.01008,0.06943
0.28966,0.95685,-0.02296,0.06694,0.01644,-0.14514
0.29222,0.95623,-0.01485,0.14081,-0.22563,-0.21348
0.29164,0.9565,-0.00667,0.11257,-0.2146,0.01976
0.28747,0.95778,0.00182,0.01952,-0.1744,0.09329
0.27977,0.95997,0.01364,0.11993,-0.09106,0.04448
0.26977,0.96251,0.02813,0.18443,-0.12322,0.0131
0.25881,0.96479,0.04681,0.17297,-0.15452,0.06721
0.24785,0.96631,0.06941,0.0687,-0.18768,0.12155
0.23568,0.96743,0.09239,-0.00845,-0.02112,-0.13296
0.21875,0.96915,0.11355,-0.05963,0.04217,-0.24999
0.19758,0.97127,0.13263,0.09559,0.02308,-0.25386
0.17413,0.97345,0.14855,0.19686,0.03412,-0.1799
0.15366,0.97531,0.15858,0.31121,0.01874,-0.14825
0.139,0.97689,0.16233,0.37014,-0.01644,-0.04742
0.13092,0.97849,0.15941,0.30919,0.03401,-0.05434
0.1285,0.97963,0.1543,0.18068,0.21931,-0.12827
0.12883,0.9811,0.14436,0.05493,0.47231,-0.16923
0.12791,0.98447,0.1202,0.36265,0.21227,-0.00722
0.134,0.9879,0.07803,0.3545,0.18115,0.1176
0.15217,0.98814,0.02073,0.1412,0.18722,0.03263
0.18078,0.98264,-0.0417,-0.04677,0.36833,0.02025
0.21196,0.972,-0.10147,-0.26303,0.60019,0.09647
0.24046,0.95775,-0.15777,-0.22578,0.65022,0.10139
0.26717,0.94145,-0.20562,-0.13947,0.35789,0.12764
0.29544,0.92422,-0.24192,-0.01506,0.16063,0.11605
0.32406,0.90618,-0.27169,0.30946,0.08698,0.03019
0.34723,0.88768,-0.3024,0.18928,-0.03054,0.05834
0.36704,0.86642,-0.33851,0.04767,-0.07301,0.24894
0.3833,0.8447,-0.37359,-0.15974,-0.08307,0.49607
0.39215,0.82663,-0.40361,-0.409,-0.1797,0.57437
0.38955,0.81386,-0.43114,-0.63042,-0.28316,0.55691
0.38054,0.80268,-0.45922,-0.85855,-0.39582,0.38426
0.36558,0.79306,-0.48723,-0.37151,-0.23302,0.46718
0.35406,0.7873,-0.50478,-0.20483,-0.17682,0.40623
0.35014,0.78535,-0.51051,-0.21312,-0.11793,0.37063
0.35211,0.78776,-0.50542,-0.30047,-0.20558,0.37116
0.35436,0.79559,-0.49139,-0.3131,-0.26293,0.40396
0.35814,0.80912,-0.4659,-0.32855,-0.34489,0.27613
0.3595,0.82977,-0.42689,-0.33238,-0.37453,0.11717
0.35345,0.8552,-0.37908,-0.0429,-0.21463,-0.20222
0.33903,0.87874,-0.33596,0.57365,0.36252,-0.76406
0.3172,0.88928,-0.32949,1.20766,1.31764,-0.98906
0.32048,0.88106,-0.34788,0.85874,0.76605,-0.50696
0.3302,0.87323,-0.35837,0.00607,-0.56882,-0.76382
0.33006,0.86468,-0.37867,0.17597,-0.58247,-0.21662
0.33427,0.86057,-0.38428,0.03326,-0.26513,0.53721
0.35451,0.8712,-0.33961,-0.14348,0.7966,1.01954
0.36764,0.89555,-0.25064,-0.43247,1.42874,-0.12242
0.37214,0.90497,-0.20623,-0.33517,0.01972,-0.74708
0.38281,0.90561,-0.18255,-0.08735,-0.4589,0.01948
0.38297,0.91126,-0.15143,-0.18632,-0.70643,0.89303
0.36268,0.91994,-0.14888,-0.7268,-0.41346,0.77988
0.31849,0.93589,-0.15058,-0.74203,-0.24219,0.33521
0.28295,0.94675,-0.15361,-0.41724,0.28579,0.06528
0.27634,0.95244,-0.1284,0.18434,0.37606,0.17133
0.28246,0.9561,-0.07795,0.50459,-0.10201,0.54183
0.28841,0.95673,-0.03846,0.01211,-0.17446,0.0922
0.2927,0.95607,-0.01591,-0.10387,-0.0807,-0.1172
0.29121,0.95666,-0.00065,0.02611,-0.04475,-0.13746
0.28831,0.9574,0.01578,-0.05894,-0.1254,-0.00423
0.28249,0.95868,0.03373,-0.01657,-0.09138,-0.01517
0.27249,0.96086,0.04992,0.17078,-0.09511,-0.02532
0.25935,0.96354,0.06583,0.16892,-0.09787,-0.025
0.24429,0.96602,0.08439,0.07175,-0.07527,0.03367
0.22881,0.96773,0.10553,0.07949,-0.11861,-0.04407
0.21056,0.96929,0.12705,0.09141,-0.06241,-0.16492
0.18921,0.97088,0.14689,0.19478,-0.00091,-0.28419
0.16679,0.97241,0.1631,0.1468,0.05346,-0.26009
0.14842,0.97349,0.17405,0.22375,0.01751,-0.12131
0.13673,0.97436,0.17868,0.26948,0.08369,-0.05861
0.13072,0.97581,0.17519,0.07297,0.27263,-0.23417
0.12841,0.9773,0.16847,-0.06085,0.37433,-0.32801
0.12796,0.97989,0.15306,-0.07355,0.46772,-0.28165
0.12703,0.9848,0.11841,0.4698,0.13138,0.0733
0.13481,0.98903,0.0603,0.49705,-0.01755,0.21509
0.15881,0.98725,-0.01037,0.44928,0.00242,0.16317
0.19592,0.97741,-0.0792,-0.07208,0.49382,0.02706
0.23483,0.96184,-0.14041,-0.19075,1.16566,0.24092
0.26988,0.94312,-0.1941,-0.24368,1.22725,0.27401
0.29837,0.92421,-0.23833,-0.10902,0.20825,0.11096
0.32668,0.90533,-0.2714,0.29338,0.12029,0.03467
0.35419,0.88458,-0.30342,0.34462,0.1711,0.06673
0.38033,0.86125,-0.33704,0.0884,0.11153,0.13092
0.40305,0.83626,-0.37177,-0.22978,0.02114,0.35054
0.41443,0.8144,-0.4062,-0.34639,-0.09359,0.55334
0.41502,0.79646,-0.43978,-0.63638,-0.26879,0.53014
0.40065,0.78307,-0.47569,-0.48319,-0.38588,0.4973
0.38051,0.77429,-0.50564,-0.37165,-0.32044,0.46294
0.36729,0.77034,-0.52122,-0.37188,-0.32508,0.41192
0.36156,0.77007,-0.52562,-0.34942,-0.25305,0.43013
0.36134,0.77335,-0.52092,-0.29685,-0.21055,0.43127
0.36338,0.78112,-0.50775,-0.35123,-0.25819,0.41764
0.3669,0.79395,-0.48479,-0.36774,-0.28192,0.33855
0.36835,0.81353,-0.44998,-0.37761,-0.34039,0.19209
0.36133,0.83815,-0.40858,-0.14108,-0.19194,-0.0724
0.34638,0.86209,-0.36989,0.63565,0.50377,-0.80246
0.32345,0.87766,-0.35368,0.94838,0.97094,-1.01844
0.31307,0.87493,-0.36943,1.02014,0.83033,-0.51883
0.32077,0.86642,-0.38266,0.05657,-0.3099,-0.37404
0.32726,0.86019,-0.3911,0.02203,0.14327,0.25489
0.33437,0.85869,-0.38838,0.01492,0.14477,0.25217
0.35673,0.86926,-0.34225,-0.05897,1.79827,1.09094
0.37666,0.88712,-0.26671,-0.33233,1.77262,0.62186
0.39385,0.88913,-0.23308,-0.30545,-0.17999,-0.33006
0.40322,0.8914,-0.20691,-0.2048,-0.60109,0.48821
0.39886,0.89851,-0.18326,-0.36314,-0.61465,0.54381
0.37588,0.9089,-0.1806,-0.60047,-0.41093,0.5177
0.33604,0.92344,-0.18527,-0.55708,-0.20745,0.25696
0.30088,0.93416,-0.19188,-0.03892,0.51785,0.15652
0.28886,0.94201,-0.1708,0.34269,0.13659,0.50086
0.28941,0.94988,-0.11816,0.30013,-0.24544,0.71529
0.28921,0.95494,-0.06668,0.10539,-0.23495,0.40269
0.28461,0.95805,-0.03357,-0.22263,-0.07753,-0.08842
0.27591,0.96114,-0.00887,-0.27342,-0.03891,-0.21914
0.26948,0.96293,0.0118,0.10875,-0.02726,-0.08105
0.26376,0.9641,0.03053,0.07301,-0.06922,0.01123
0.25816,0.96503,0.04545,0.15631,-0.10591,-0.02935
0.24934,0.96668,0.05795,0.19601,-0.1118,-0.04944
0.23587,0.96915,0.07143,0.15349,-0.07126,-0.03491
0.21916,0.97167,0.0884,0.04204,-0.0362,-0.09154
0.20078,0.97357,0.10881,0.10618,-0.05513,-0.11473
0.18002,0.97498,0.13042,0.25568,-0.09291,-0.16064
0.15956,0.97612,0.14741,0.36053,0.02773,-0.22236
0.14372,0.97706,0.15711,0.32717,0.07527,-0.17764
0.13499,0.9777,0.16083,0.34506,0.04285,0.06685
0.13146,0.97802,0.16184,0.1482,0.32588,-0.17553
0.12911,0.97864,0.15994,0.03721,0.44845,-0.30746
0.12494,0.98119,0.14717,0.27254,0.29311,-0.13511
0.12223,0.98545,0.11804,0.49711,0.10583,0.00493
0.12938,0.98911,0.07008,0.41184,0.08151,0.06723
0.14995,0.98865,0.00932,0.20743,-0.14409,-0.0159
0.18157,0.98182,-0.05529,-0.07075,0.56414,0.06515
0.21474,0.96943,-0.11868,-0.15755,0.95507,0.21548
0.23932,0.95396,-0.18076,-0.32468,1.22109,0.38396
0.25676,0.93748,-0.23494,-0.33173,0.4982,0.26947
0.28224,0.91922,-0.27453,0.12804,0.1875,0.03977
0.31504,0.89845,-0.30584,0.26593,0.20458,-0.03494
0.34269,0.87688,-0.33711,0.15194,0.13066,0.02687
0.36213,0.85305,-0.37572,-0.08082,-0.00927,0.22602
0.37279,0.83055,-0.41376,-0.18252,-0.12566,0.55057
0.37788,0.81244,-0.44402,-0.34855,-0.26626,0.54501
0.37255,0.79886,-0.47226,-0.60869,-0.41252,0.55441
0.35461,0.79006,-0.50005,-0.51528,-0.36858,0.52319
0.33459,0.78546,-0.52066,-0.34904,-0.28848,0.50646
0.32207,0.78443,-0.53004,-0.3573,-0.26103,0.47067
0.31823,0.7858,-0.53033,-0.33277,-0.24197,0.41847
0.32173,0.79067,-0.52089,-0.32211,-0.34408,0.37316
0.32814,0.80061,-0.50135,-0.33782,-0.30062,0.34609
0.33547,0.81603,-0.47069,-0.34617,-0.38808,0.21723
0.33776,0.83713,-0.43026,-0.31331,-0.36993,0.03776
0.33032,0.86187,-0.38478,0.10112,-0.132,-0.25624
0.31125,0.88345,-0.35019,0.61431,0.52021,-0.85418
0.28978,0.88894,-0.3547,1.15124,1.23847,-0.58829
0.2981,0.87947,-0.37102,0.22839,0.17463,-0.5667
0.30857,0.87218,-0.37959,-0.03221,-0.28698,-0.47582
0.31487,0.86611,-0.3882,-0.04507,-0.12432,-0.13275
0.33781,0.867,-0.36631,0.04915,1.07503,1.27947
0.37519,0.88114,-0.28777,-0.38275,1.11968,0.72948
0.39501,0.89056,-0.22553,-0.46253,0.14188,-0.19167
0.3996,0.89635,-0.19199,-0.22553,-0.43948,0.26075
0.39053,0.9053,-0.16707,-0.35435,-0.56826,0.34404
0.36796,0.91517,-0.16448,-0.55709,-0.38182,0.34023
0.32793,0.92905,-0.17126,-0.5123,-0.23628,0.27748
0.28688,0.94228,-0.1726,-0.3635,0.32116,0.37088
0.26824,0.95199,-0.14753,0.02363,0.41851,0.52785
0.26555,0.95877,-0.10116,0.47673,-0.20128,0.51635
0.26852,0.96165,-0.05585,0.36802,-0.22009,0.26452
0.27151,0.96209,-0.02558,0.03327,-0.12176,-0.17263
0.2699,0.96287,-0.00473,0.02438,-0.07699,-0.22023
0.26623,0.96385,0.01044,0.02077,-0.10931,0.02589
0.26159,0.96483,0.02576,0.06241,-0.13013,0.04977
0.25457,0.9661,0.0429,0.10778,-0.13416,0.05069
0.244,0.96794,0.05958,0.16232,-0.06054,-0.06746
0.22997,0.97021,0.07619,0.08442,-0.08227,-0.03019
0.21366,0.97224,0.09538,0.07208,-0.09756,-0.0194
0.19463,0.9738,0.11757,0.15695,-0.0798,-0.13907
0.17195,0.97526,0.13886,0.31177,-0.06268,-0.29023
0.15015,0.97667,0.15346,0.36245,0.0148,-0.23815
0.13556,0.97778,0.15985,0.34151,0.06711,0.03288
0.12915,0.97846,0.16102,0.18026,0.17105,-0.09472
0.1275,0.9786,0.16148,0.0363,0.35952,-0.26174
0.12562,0.98003,0.15411,-0.01516,0.4492,-0.2993
0.12199,0.98377,0.13151,0.34254,0.18746,-0.1336
0.12418,0.9883,0.08848,0.39401,0.10528,0.09217
0.13748,0.99013,0.02703,0.32878,-0.19831,0.17811
0.1664,0.98511,-0.04301,0.09597,0.24525,0.03962
0.20389,0.97282,-0.10974,-0.32697,0.69298,0.11378
0.23608,0.9561,-0.17356,-0.41767,1.24932,0.27214
0.25989,0.93786,-0.22992,-0.36158,0.89641,0.23277
0.28423,0.91888,-0.27362,0.02011,0.34125,0.16925
0.31378,0.89771,-0.30926,0.3522,0.29922,-0.00827
0.33609,0.87714,-0.34303,0.3013,0.13811,-0.02516
0.35085,0.85507,-0.38178,0.12593,-0.05126,0.167
0.36305,0.83024,-0.42296,-0.09657,-0.11105,0.44716
0.36936,0.80708,-0.46063,-0.22327,-0.1516,0.64218
0.36641,0.7901,-0.4914,-0.45522,-0.27281,0.68096
0.35205,0.77819,-0.52007,-0.74737,-0.39696,0.59562
0.32999,0.76938,-0.54695,-0.58727,-0.35678,0.61902
0.31187,0.76393,-0.56493,-0.34703,-0.26985,0.54189
0.3051,0.76303,-0.56982,-0.30824,-0.15005,0.4371
0.30734,0.76681,-0.5635,-0.31746,-0.16646,0.39699
0.3165,0.77704,-0.54409,-0.35579,-0.24541,0.33837
0.33093,0.79376,-0.51031,-0.3335,-0.29305,0.18002
0.34533,0.81681,-0.46213,-0.21407,-0.27108,-0.00064
0.34855,0.84401,-0.40761,0.16547,-0.05249,-0.25325
0.33497,0.8689,-0.36442,0.70289,0.69337,-0.78269
0.30696,0.88027,-0.36181,1.2022,1.41013,-0.89735
0.30167,0.87196,-0.38558,0.48194,0.39903,-0.49838
0.30632,0.86429,-0.39894,-0.0161,-0.81515,-0.61026
0.30311,0.85683,-0.41709,0.23379,-0.50351,-0.03137
0.3055,0.8551,-0.41887,-0.02461,-0.01424,0.7098
0.32771,0.86862,-0.37162,-0.32356,0.55315,1.40093
0.35102,0.89713,-0.26819,-0.59591,2.65952,0.97101
0.34827,0.9152,-0.20275,-0.48309,0.28419,-1.2015
0.34347,0.91567,-0.20873,0.17541,-0.59011,-0.39555
0.33754,0.92089,-0.19497,0.33323,-0.76321,0.75648
0.33326,0.92468,-0.18412,-0.02479,-0.84521,0.96805
0.30737,0.93495,-0.17717,-0.79109,-0.01208,0.4254
0.27527,0.94608,-0.17074,-0.46014,0.55807,0.0062
0.2559,0.95244,-0.16541,-0.44077,0.55171,0.00087
0.26043,0.95604,-0.13473,0.65544,0.01411,0.20476
0.26619,0.95918,-0.09541,0.57442,-0.17976,0.23961
0.26976,0.9607,-0.06538,0.01495,-0.29648,0.13754
0.2662,0.96288,-0.04468,-0.12757,-0.19867,-0.0097
0.25981,0.96534,-0.02461,0.01088,-0.16396,-0.01784
0.25446,0.96707,0.00309,0.17023,-0.1328,0.02472
0.24645,0.96852,0.03479,0.1771,-0.02774,-0.00239
0.23508,0.96994,0.06275,0.19508,0.01196,-0.04732
0.21964,0.97179,0.08585,0.07734,0.01141,-0.12801
0.20007,0.9738,0.10803,-0.03964,-0.02026,-0.20166
0.1785,0.9753,0.13006,0.09452,-0.08998,-0.18818
0.157,0.97669,0.14634,0.19868,0.02072,-0.22625
0.13912,0.97831,0.15346,0.44348,0.05831,-0.18446
0.12669,0.97973,0.15513,0.36444,-0.04411,-0.01896
0.11974,0.98052,0.15568,0.27191,0.06563,-0.03359
0.11486,0.98109,0.15573,0.04647,0.43486,-0.23408
0.11093,0.98301,0.1462,0.11845,0.46279,-0.14809
0.10959,0.98659,0.12093,0.42138,0.2065,0.04377
0.11718,0.9899,0.0797,0.35375,0.08182,0.04237
0.13858,0.99004,0.02452,0.18475,-0.06919,0.0444
0.17105,0.98447,-0.03944,0.0653,0.11769,0.03632
0.20674,0.97298,-0.10277,-0.1879,0.63718,0.11457
0.23458,0.95755,-0.16753,-0.48272,1.22249,0.29077
0.25227,0.94118,-0.22479,-0.48278,0.85944,0.27243
0.27481,0.92381,-0.26656,0.1996,0.23241,0.03311
0.30747,0.90331,-0.29915,0.29394,0.21861,-0.00616
0.33648,0.88184,-0.33034,0.19688,0.07229,0.00936
0.35598,0.85876,-0.36852,0.04966,-0.07499,0.26914
0.36954,0.83491,-0.40787,-0.05942,-0.1007,0.42749
0.37482,0.81497,-0.44196,-0.30519,-0.19769,0.59953
0.36931,0.80046,-0.47209,-0.48227,-0.26343,0.60236
0.35434,0.7911,-0.49859,-0.51198,-0.31895,0.58602
0.33519,0.78524,-0.52062,-0.58567,-0.30105,0.47061
0.3184,0.78231,-0.53536,-0.55363,-0.33402,0.45338
0.30728,0.78201,-0.54225,-0.47236,-0.3337,0.47733
0.30416,0.7847,-0.54012,-0.27439,-0.30573,0.40581
0.30905,0.79236,-0.52598,-0.27549,-0.30186,0.33395
0.31862,0.80532,-0.49993,-0.29046,-0.3162,0.27811
0.32775,0.82398,-0.46221,-0.28406,-0.38963,0.07107
0.32811,0.84795,-0.4163,0.2218,0.00437,-0.35317
0.31652,0.87311,-0.37079,0.52836,0.38374,-0.68614
0.29264,0.88728,-0.3565,0.81815,0.9696,-1.09355
0.28826,0.87977,-0.37802,0.99582,1.12954,-0.55174
0.30301,0.87125,-0.38612,0.04486,-0.23394,-0.68281
0.31142,0.86472,-0.39405,-0.09105,-0.43816,-0.51543
0.322,0.86219,-0.39106,-0.21526,0.01812,0.7568
0.34582,0.87508,-0.33858,-0.44288,2.14908,1.14461
0.35316,0.89942,-0.25753,-0.71987,2.06146,0.08863
0.34759,0.90599,-0.24155,-0.38067,-0.47099,-0.88441
0.33536,0.91247,-0.23435,0.33169,-0.78511,0.89739
0.32317,0.9229,-0.20931,0.06439,-0.92812,1.019
0.30666,0.9335,-0.18582,-0.60544,-0.57388,0.77725
0.27413,0.9473,-0.16575,-0.63471,-0.09585,0.41697
0.2468,0.95715,-0.15145,-0.34435,0.41826,-0.02631
0.24537,0.96194,-0.12022,0.27541,0.34049,0.12678
0.25313,0.96449,-0.07534,0.48757,-0.06854,0.33386
0.26048,0.96447,-0.04396,0.13063,-0.18206,0.09569
0.2652,0.96384,-0.02574,-0.01435,-0.1362,-0.13164
0.26555,0.96399,-0.01392,0.01857,-0.14656,-0.11922
0.26359,0.96463,-0.00066,0.1204,-0.17857,0.05402
0.25822,0.96594,0.01612,0.13082,-0.19177,0.09096
0.24918,0.96781,0.03509,0.12668,-0.03961,0.09324
0.23436,0.97054,0.05586,0.02381,0.01957,0.0026
0.21654,0.97306,0.0791,0.03085,-0.0971,-0.01274
0.19706,0.97477,0.10473,0.16292,-0.10023,-0.13397
0.17441,0.97616,0.12917,0.17911,0.00025,-0.25651
0.15158,0.97769,0.14538,0.15902,0.05994,-0.31417
0.13238,0.97919,0.15375,0.29282,0.12954,-0.18836
0.11991,0.98015,0.15784,0.28487,0.06914,-0.00922
0.11387,0.9812,0.15575,0.35252,0.119,0.02929
0.11357,0.98255,0.14724,0.22145,0.44979,-0.15188
0.11788,0.98454,0.12952,0.28202,0.44587,-0.01452
0.12564,0.98721,0.09803,0.301,0.25322,0.06266
0.14318,0.98844,0.04973,0.24622,0.17056,0.1244
0.17197,0.98505,-0.00985,0.01353,0.14784,-0.03477
0.20456,0.97622,-0.07172,-0.25345,0.43643,0.0346
0.23272,0.96297,-0.13608,-0.37516,1.04414,0.25435
0.2498,0.94776,-0.19833,-0.46481,1.08404,0.40256
0.2624,0.93173,-0.25103,0.01738,0.20413,0.1596
0.28481,0.91295,-0.29222,0.38397,0.13238,0.01422
0.31498,0.8911,-0.32669,0.37373,0.16103,0.04311
0.33904,0.86801,-0.36276,0.10549,0.03906,0.21717
0.35258,0.84451,-0.40309,0.01931,-0.04083,0.40715
0.35904,0.82369,-0.43889,-0.26462,-0.26039,0.62718
0.3583,0.80715,-0.46918,-0.43637,-0.44365,0.60257
0.35173,0.79499,-0.49424,-0.60813,-0.54407,0.42952
0.34321,0.78624,-0.51384,-0.69193,-0.52524,0.43671
0.3313,0.7806,-0.52999,-0.6155,-0.36054,0.51597
0.3172,0.77713,-0.54355,-0.34955,-0.24884,0.52927
0.3135,0.77832,-0.54399,-0.31465,-0.20449,0.48619
0.32301,0.78568,-0.5276,-0.34005,-0.1549,0.28468
0.33524,0.80054,-0.49674,-0.35363,-0.16771,0.23555
0.34434,0.82153,-0.45443,-0.24825,-0.26926,0.03671
0.34258,0.8461,-0.40835,0.00039,-0.16519,-0.33556
0.32776,0.86887,-0.37098,0.5461,0.34815,-0.85934
0.30381,0.88057,-0.36372,1.28341,1.13138,-0.81388
0.30639,0.872,-0.38176,0.83747,0.55885,-0.46292
0.32508,0.85928,-0.39491,0.24843,0.04883,-0.5931
0.33474,0.85408,-0.3981,0.047,0.08558,0.03857
0.34477,0.85744,-0.382,-0.06622,0.59057,0.63616
0.36257,0.86218,-0.35381,-0.0499,1.46964,0.76038
0.38392,0.85681,-0.34419,-0.46997,-0.29044,-0.07904
0.39024,0.85729,-0.33579,-0.82316,-0.63689,0.03934
0.37006,0.86908,-0.32826,-0.5901,-0.57736,0.74143
0.34321,0.88975,-0.30091,-0.04822,-0.21358,1.24713
0.32276,0.91095,-0.25689,0.30662,0.74631,0.73209
0.30898,0.92609,-0.21651,0.26148,0.41949,-0.12832
0.30218,0.93674,-0.17661,-0.22002,-0.20731,0.0728
0.29468,0.9445,-0.14517,-0.43909,-0.15125,0.33263
0.28138,0.95255,-0.11598,-0.3578,-0.13507,0.33542
0.26886,0.95936,-0.08562,-0.19846,-0.13348,0.33594
0.25997,0.96409,-0.05412,0.06358,-0.07583,0.25616
0.25309,0.9671,-0.02531,0.20137,-0.12102,-0.02225
0.24684,0.96905,-0.00141,0.27377,-0.12038,-0.0308
0.24113,0.97031,0.01854,0.24213,-0.10704,-0.04637
0.2323,0.972,0.03527,0.17927,-0.1286,-0.07308
0.21813,0.97449,0.05275,0.10325,-0.07474,-0.03014
0.201,0.97671,0.07499,0.16105,-0.06538,-0.02374
0.1832,0.97781,0.1015,0.17892,-0.09183,-0.08835
0.16408,0.9783,0.12643,0.04822,-0.03278,-0.33498
0.14374,0.9792,0.14314,0.16293,0.10158,-0.2908
0.12827,0.97998,0.15221,0.24632,0.20288,-0.19524
0.11864,0.98047,0.15679,0.25428,0.14715,0.05853
0.11495,0.98057,0.1589,0.14674,0.41033,-0.12023
0.11276,0.98147,0.15485,0.23101,0.56364,-0.20971
0.11268,0.9837,0.1401,0.39252,0.46664,-0.14886
0.11759,0.98683,0.11098,0.36646,0.19709,0.01874
0.13474,0.989,0.06086,0.34002,-0.03255,0.06091
0.16622,0.98608,-0.00192,0.21271,-0.03351,-0.05655
0.20591,0.97636,-0.06565,-0.24049,0.86177,0.02909
0.2417,0.96113,-0.1334,-0.40479,1.30932,0.2216
0.26311,0.94393,-0.1994,-0.55642,1.43626,0.454
0.27511,0.92635,-0.25725,-0.23965,0.28603,0.24479
0.29601,0.9066,-0.30074,0.37212,0.15308,0.09293
0.32535,0.88315,-0.33791,0.3838,0.1616,0.07597
0.35049,0.85739,-0.37688,0.12445,0.01058,0.21249
0.36465,0.8297,-0.42264,0.02231,-0.0359,0.3514
0.37238,0.80444,-0.46281,-0.21151,-0.18684,0.54348
0.37046,0.78532,-0.49602,-0.43201,-0.37112,0.56473
0.35769,0.77039,-0.52777,-0.51502,-0.52511,0.55625
0.33126,0.75955,-0.55978,-0.3717,-0.4555,0.58669
0.30632,0.75478,-0.58006,-0.26042,-0.37578,0.5103
0.29225,0.75405,-0.58821,-0.23205,-0.21685,0.45402
0.29062,0.75743,-0.58467,-0.28219,-0.20204,0.48175
0.29914,0.76535,-0.56987,-0.36375,-0.26666,0.47137
0.31238,0.77823,-0.54477,-0.33774,-0.20126,0.1976
0.32358,0.7974,-0.50936,-0.28467,-0.2116,-0.00577
0.32183,0.82287,-0.4683,-0.08613,-0.18969,-0.40084
0.30485,0.84824,-0.43307,0.46978,0.21721,-0.6863
0.28471,0.86078,-0.4219,0.95737,0.91872,-0.79528
0.28362,0.85291,-0.43829,0.90988,0.6002,-0.39041
0.29689,0.83939,-0.45527,0.29387,0.00959,-0.57908
0.3059,0.83139,-0.46391,-0.01666,0.0847,-0.19245
0.31666,0.83263,-0.45437,0.02124,0.22966,0.51032
0.33546,0.84175,-0.42299,-0.20331,0.19052,0.78804
0.35389,0.85149,-0.38694,-0.52521,0.52096,-0.10986
0.33813,0.85803,-0.38658,-0.83761,1.06955,-0.28521
0.32366,0.86099,-0.39235,0.02634,-0.49441,1.0148
0.33096,0.87184,-0.36105,0.06985,-0.54807,1.16252
0.33446,0.8903,-0.30901,-0.0544,-0.17137,0.94999
0.32628,0.90825,-0.26196,0.04938,0.32792,0.23131
0.31631,0.92098,-0.22747,0.04125,0.26372,0.11469
0.30497,0.931,-0.20057,-0.32022,-0.02606,0.06615
0.29414,0.93938,-0.17618,-0.32637,-0.10289,0.11011
0.28399,0.94714,-0.14918,-0.27733,-0.23584,0.28771
0.27555,0.95391,-0.1188,-0.09251,-0.22152,0.27285
0.26625,0.95987,-0.08805,0.05368,-0.14419,0.23438
0.25537,0.96508,-0.05832,0.14995,-0.20321,0.15447
0.24449,0.96919,-0.02961,0.24422,-0.02298,0.04578
0.23434,0.97214,-0.00461,0.17349,-6e-05,-0.07161
0.22378,0.9745,0.016,0.01727,-0.0088,-0.17643
0.2107,0.97691,0.0353,0.05009,-0.0111,-0.08668
0.19565,0.97904,0.05651,0.11962,-0.0015,-0.04217
0.17817,0.98062,0.08146,0.21818,0.09832,-0.04908
0.15592,0.9818,0.10839,0.10713,0.11128,-0.29209
0.13202,0.98266,0.13012,0.16426,0.23275,-0.40065
0.10966,0.98392,0.14092,0.36922,0.16645,-0.14147
0.09291,0.98567,0.14078,0.47687,0.01729,0.1518
0.08417,0.98728,0.13484,0.43439,0.11822,0.10898
0.08628,0.98809,0.12738,0.23862,0.46252,-0.08355
0.0942,0.98886,0.11517,0.22243,0.34996,0.01017
0.10482,0.99053,0.08865,0.31015,0.24394,0.07172
0.12185,0.99155,0.04429,0.19125,0.18166,0.07624
0.14982,0.98865,-0.01035,-0.11322,-0.00667,-0.08144
0.18546,0.98035,-0.0671,-0.43378,0.39965,-0.05098
0.21626,0.96814,-0.12622,-0.4755,0.76676,0.05727
0.23261,0.95419,-0.18819,-0.45383,0.86614,0.42459
0.23841,0.94004,-0.2439,0.31702,0.10194,0.23728
0.25161,0.92337,-0.28996,0.5176,0.08811,0.18962
0.2784,0.90218,-0.32949,0.38033,0.15791,0.06072
0.30674,0.87958,-0.36365,-0.03643,0.06196,0.17179
0.32882,0.85686,-0.39706,-0.11369,0.04043,0.29018
0.34488,0.83738,-0.42408,-0.17787,-0.03001,0.3773
0.35418,0.82205,-0.44585,-0.31454,-0.30255,0.42484
0.35378,0.8113,-0.46544,-0.51308,-0.42749,0.42538
0.34985,0.79573,-0.49439,-0.49954,-0.30296,0.3553
0.3358,0.78592,-0.51919,-0.16191,-0.31362,0.54342
0.32485,0.78446,-0.52829,-0.18146,-0.29969,0.50721
0.32046,0.78878,-0.52452,-0.26787,-0.28396,0.37922
0.32291,0.79739,-0.50979,-0.30311,-0.36346,0.31839
0.32917,0.81075,-0.48408,-0.29938,-0.30101,0.19404
0.33543,0.82995,-0.44571,-0.29997,-0.27552,0.00207
0.33317,0.85365,-0.40035,-0.15477,-0.17051,-0.31421
0.32136,0.87425,-0.36388,0.32539,0.3081,-0.66818
0.30142,0.88107,-0.3645,0.89261,0.94424,-0.76851
0.29826,0.86833,-0.39627,0.75318,0.54745,-0.50497
0.30523,0.85223,-0.4249,0.24863,0.10328,-0.52717
0.31014,0.84112,-0.44309,0.16706,0.52059,0.27003
0.32265,0.83845,-0.4392,0.28651,1.31887,0.6937
0.36015,0.82687,-0.43193,-0.13429,0.30753,0.57672
0.40559,0.81743,-0.40902,-0.77168,-0.412,0.15947
0.41335,0.82682,-0.38144,-0.99967,-0.29403,-0.37039
0.39129,0.84427,-0.36619,-0.54746,-0.46347,1.02473
0.36784,0.87107,-0.32545,0.07259,0.46441,0.86018
0.34097,0.89725,-0.28047,0.2884,0.81321,0.64731
0.32769,0.91465,-0.23668,0.29153,0.01309,-0.04608
0.32515,0.92539,-0.19475,-0.23936,-0.22152,0.01437
0.31534,0.93548,-0.15947,-0.45356,-0.1552,0.25398
0.29713,0.94676,-0.12385,-0.373,-0.19368,0.32636
0.2797,0.95565,-0.09214,-0.19684,-0.18613,0.33593
0.2651,0.96221,-0.06206,-0.05644,-0.13101,0.32738
0.25256,0.96711,-0.0299,0.01278,-0.17684,0.22204
0.24169,0.97035,0.00018,0.09951,-0.10366,-0.13278
0.23319,0.97212,0.02451,0.26713,-0.05019,-0.21909
0.2245,0.97346,0.04432,0.28214,-0.0303,-0.26736
0.21145,0.97545,0.06135,0.27715,-0.12707,-0.06762
0.19486,0.97755,0.08012,0.33025,-0.14277,0.0469
0.17667,0.97871,0.1044,0.21248,-0.05235,-0.01458
0.15683,0.97871,0.13232,0.01692,0.01575,-0.32228
0.1357,0.97839,0.15594,0.11098,0.17383,-0.35691
0.11606,0.97886,0.16836,0.27435,0.19076,-0.19687
0.0999,0.98025,0.17065,0.37665,0.0854,0.10566
0.08909,0.98181,0.16763,0.39417,-0.02977,0.07445
0.08823,0.98267,0.16297,0.18473,0.4398,-0.24053
0.09292,0.98412,0.1512,0.10027,0.47947,-0.16322
0.09933,0.98765,0.12106,0.39556,0.11185,0.21432
0.11583,0.99091,0.06824,0.40742,0.09479,0.31014
0.14533,0.98937,0.00266,0.14538,0.2252,0.10594
0.18592,0.98069,-0.0606,-0.3848,0.55811,0.02921
0.21959,0.96784,-0.12269,-0.73949,1.10084,0.20024
0.23528,0.95463,-0.18252,-0.74573,0.95766,0.28173
0.24674,0.94102,-0.23149,-0.10662,0.26918,0.06517
0.27089,0.92386,-0.27036,0.41469,0.22586,-0.00693
0.30225,0.90163,-0.30935,0.40083,0.2902,-0.0846
0.32119,0.87777,-0.35544,0.17037,0.12523,0.1311
0.33473,0.8542,-0.39787,-0.00395,0.04037,0.30929
0.34631,0.83442,-0.42871,-0.36568,-0.12698,0.60485
0.35179,0.8184,-0.45438,-0.43727,-0.25825,0.57606
0.35114,0.80579,-0.47686,-0.44169,-0.33425,0.54307
0.34713,0.79715,-0.494,-0.46981,-0.43157,0.44914
0.34085,0.79163,-0.50709,-0.46745,-0.44295,0.4284
0.3354,0.79001,-0.51321,-0.45417,-0.47176,0.43979
0.33239,0.79341,-0.50991,-0.35952,-0.49846,0.39606
0.33044,0.80241,-0.49693,-0.33446,-0.50218,0.35423
0.32811,0.81791,-0.47261,-0.32182,-0.41201,0.15924
0.32323,0.84047,-0.43488,-0.24058,-0.18678,-0.10601
0.30987,0.86761,-0.38888,-0.08488,-0.04498,-0.36552
0.28818,0.88805,-0.35822,0.95075,1.63068,-1.12974
0.28002,0.88013,-0.38335,0.64167,0.69676,-0.73447
0.29641,0.85365,-0.42826,0.62528,0.72324,-0.68957
0.31085,0.8361,-0.45199,-0.19082,-0.83826,-0.62551
0.30312,0.83225,-0.46418,-0.14224,-0.02653,0.62931
0.29854,0.83683,-0.45888,-0.12888,0.37171,0.74128
0.31279,0.84234,-0.43889,-0.20926,1.12031,0.67043
0.32622,0.84132,-0.43099,-0.20924,0.08948,0.32181
0.34055,0.84089,-0.42062,-0.45809,-0.38047,0.46189
0.34415,0.8505,-0.39774,-0.51253,-0.35813,0.6292
0.33596,0.87027,-0.3602,-0.24639,-0.14592,0.91068
0.31914,0.89319,-0.31678,0.00488,0.45855,0.53954
0.29843,0.91231,-0.28039,0.16497,0.53679,0.33891
0.28794,0.92527,-0.24689,0.08933,0.11025,0.05993
0.28491,0.93466,-0.21265,-0.05729,-0.0446,0.10781
0.27745,0.9444,-0.17642,-0.32906,-0.18611,0.25581
0.26703,0.95295,-0.14342,-0.23906,-0.21021,0.20258
0.25709,0.95959,-0.11439,-0.0149,-0.1645,0.23141
0.2518,0.9641,-0.08422,0.12221,-0.1944,0.23189
0.24536,0.96782,-0.0557,0.07785,-0.19484,0.14302
0.23799,0.97078,-0.03054,0.13211,-0.08672,-0.01123
0.22958,0.97326,-0.00675,0.10062,-0.06225,-0.11865
0.21844,0.97572,0.01568,0.05256,-0.05689,-0.10775
0.20522,0.978,0.03728,0.11387,-0.09833,-0.01738
0.19181,0.97954,0.06081,0.18638,-0.07344,0.06263
0.17832,0.98006,0.08761,0.09939,-0.00287,-0.00593
0.16303,0.98009,0.11326,0.04664,0.0486,-0.15772
0.14547,0.98039,0.13289,0.04939,0.13655,-0.32715
0.12803,0.98112,0.14489,0.21258,0.20287,-0.30807
0.11278,0.98208,0.15092,0.33342,0.07001,-0.04744
0.10356,0.98305,0.1512,0.44104,0.06893,0.07883
0.09931,0.98398,0.14801,0.30073,0.26019,-0.15067
0.09695,0.98539,0.13997,0.27411,0.4015,-0.25919
0.09474,0.98832,0.11931,0.43297,0.29015,-0.12648
0.09838,0.99187,0.08065,0.39085,0.11464,0.04266
0.11419,0.99317,0.0235,0.29751,-0.09597,0.21271
0.14298,0.98887,-0.04085,-0.03234,0.27203,0.14003
0.17963,0.97836,-0.1026,-0.32166,0.91016,0.15042
0.21101,0.96376,-0.16319,-0.47219,1.23178,0.26517
0.22999,0.94812,-0.21947,-0.42757,0.49069,0.17215
0.24493,0.93222,-0.26641,0.06907,0.17493,0.11089
0.26871,0.91359,-0.30518,0.24413,0.23559,0.10155
0.29646,0.89215,-0.34085,0.30706,0.26677,0.04115
0.31664,0.86964,-0.37876,0.05125,0.05674,0.18852
0.32867,0.84629,-0.41923,-0.05359,-0.0046,0.32675
0.33551,0.8251,-0.45456,-0.20883,-0.13248,0.54508
0.33353,0.80655,-0.48809,-0.39984,-0.28957,0.61576
0.31977,0.79317,-0.51829,-0.38027,-0.31869,0.63186
0.3012,0.78532,-0.54088,-0.36655,-0.27944,0.58983
0.28512,0.78192,-0.55434,-0.40864,-0.37659,0.47466
0.27467,0.78196,-0.55954,-0.40522,-0.32582,0.42839
0.27298,0.78547,-0.55544,-0.41769,-0.36751,0.39033
0.2744,0.79269,-0.54437,-0.37051,-0.37228,0.38542
0.27799,0.80466,-0.52464,-0.33585,-0.36708,0.36334
0.28205,0.8224,-0.49406,-0.31251,-0.31987,0.18957
0.281,0.84576,-0.45356,-0.12583,-0.12654,-0.09806
0.27145,0.8707,-0.41009,0.36166,0.26906,-0.5148
0.25201,0.88686,-0.38725,0.78839,1.11427,-0.93146
0.24144,0.87975,-0.40956,0.95042,0.9839,-0.63169
0.25742,0.86027,-0.44007,0.35669,0.00029,-0.57647
0.27449,0.84694,-0.45535,0.03989,-0.55537,-0.44151
0.2792,0.84335,-0.45912,-0.07477,-0.27894,0.49269
0.2887,0.84838,-0.44372,-0.27335,0.37346,0.86383
0.30458,0.85881,-0.41189,-0.401,1.33932,0.29869
0.30765,0.86061,-0.40583,-0.20317,1.24057,-0.15715
0.31771,0.85132,-0.4175,-0.217,-0.59572,0.43547
0.32799,0.85397,-0.40391,-0.57591,-0.3658,0.61505
0.3205,0.86872,-0.37763,-0.31256,-0.31859,1.03455
0.30324,0.8907,-0.33868,-0.07443,0.28589,0.69758
0.28493,0.90938,-0.30303,0.2708,0.6976,0.24194
0.2808,0.92259,-0.2645,0.24781,0.09584,0.11377
0.28463,0.93311,-0.21974,-0.07497,-0.11589,0.24616
0.28231,0.94287,-0.17687,-0.28635,-0.09462,0.28061
0.27265,0.95155,-0.14213,-0.27817,-0.14564,0.19547
0.26027,0.95899,-0.11223,-0.11979,-0.19492,0.15762
0.24886,0.96508,-0.08171,-0.02413,-0.19769,0.18439
0.23756,0.96996,-0.05218,-0.01022,-0.20889,0.1788
0.22505,0.97399,-0.02602,0.08029,-0.16035,0.12377
0.21249,0.97715,-0.00389,0.18673,-0.15569,-0.03722
0.19994,0.97967,0.01593,0.17997,-0.1579,-0.18488
0.18567,0.98198,0.03503,0.21125,-0.0813,-0.17342
0.17086,0.98362,0.05737,0.23794,-0.01537,0.00095
0.15591,0.9843,0.08272,0.18657,-0.00146,-0.05119
0.13958,0.98438,0.10728,0.11052,0.00449,-0.19943
0.11992,0.98465,0.12673,0.09488,0.14037,-0.32881
0.09936,0.98534,0.13862,0.24181,0.17678,-0.20751
0.08074,0.98639,0.14317,0.38682,0.08891,-0.08201
0.06792,0.98742,0.14277,0.43274,0.02862,0.08714
0.06278,0.98835,0.13862,0.14245,0.34028,-0.1808
0.06159,0.98924,0.13263,0.05545,0.42429,-0.25151
0.05915,0.99156,0.1153,0.43673,0.30364,-0.132
0.05989,0.99513,0.07822,0.43271,0.06977,0.14288
0.07073,0.99727,0.02107,0.39205,-0.13837,0.15558
0.09524,0.9945,-0.04353,0.20474,0.20988,0.0937
0.1277,0.98577,-0.10928,-0.27344,1.01623,0.26051
0.14965,0.97408,-0.16958,-0.66231,1.33857,0.58436
0.16234,0.96166,-0.22099,-0.57788,0.97301,0.39521
0.18286,0.94777,-0.26133,0.24546,0.24609,-0.10943
0.214,0.93019,-0.29822,0.34114,0.31415,-0.07956
0.24142,0.90779,-0.34298,0.27425,0.30318,-0.02012
0.25976,0.88364,-0.38948,0.03474,0.059,0.41881
0.27879,0.86092,-0.42553,-0.14747,-0.00372,0.55265
0.29556,0.84121,-0.45277,-0.64424,-0.24722,0.65475
0.30257,0.8243,-0.47852,-0.3913,-0.34404,0.5291
0.30172,0.8107,-0.50173,-0.39444,-0.32168,0.49481
0.29367,0.80085,-0.52191,-0.33146,-0.30377,0.48684
0.28458,0.797,-0.53272,-0.36305,-0.37295,0.53058
0.27851,0.79823,-0.53409,-0.37151,-0.42854,0.50954
0.27695,0.8045,-0.52542,-0.39958,-0.48405,0.41013
0.2771,0.81674,-0.50611,-0.38301,-0.42994,0.33445
0.27891,0.83443,-0.47532,-0.35512,-0.38263,0.17581
0.27793,0.85692,-0.43409,-0.24218,-0.20638,-0.11913
0.26887,0.88072,-0.38992,0.28478,0.25157,-0.59238
0.24974,0.89513,-0.36928,0.90831,1.32768,-1.05183
0.24357,0.88177,-0.40392,1.07852,1.19193,-0.85995
0.26031,0.85751,-0.44375,0.3785,-0.03756,-0.54144
0.26926,0.84262,-0.46634,-0.03035,-0.50579,-0.34364
0.26623,0.83907,-0.47442,-0.06167,0.16282,0.55532
0.28033,0.84342,-0.45831,-0.04399,0.6155,1.06397
0.31282,0.84498,-0.43376,-0.37136,0.89808,0.46392
0.32571,0.84664,-0.42084,-0.67036,0.94176,0.22285
0.32101,0.84779,-0.42214,-0.72813,-0.20913,0.17721
0.3153,0.85716,-0.40726,-0.43465,-0.2809,0.85588
0.31109,0.87591,-0.36878,-0.07058,-0.08811,1.03901
0.29552,0.89842,-0.32482,0.08812,0.3844,0.54039
0.2823,0.91546,-0.28676,0.29739,0.51283,0.20905
0.28347,0.92587,-0.24978,0.3458,0.29199,0.07919
0.28238,0.93654,-0.2077,-0.17915,-0.14927,0.26753
0.27296,0.94743,-0.16692,-0.20769,-0.18621,0.24214
0.26042,0.95633,-0.13267,-0.13774,-0.21428,0.2476
0.24873,0.9631,-0.10277,-0.02328,-0.18864,0.27743
0.239,0.96833,-0.07219,0.04796,-0.22382,0.23829
0.22905,0.97251,-0.04191,0.07457,-0.14141,0.07853
0.21838,0.97577,-0.01342,0.21224,3e-05,-0.12641
0.20739,0.97815,0.01374,0.16325,0.03675,-0.21829
0.19545,0.98,0.03722,0.16722,0.02287,-0.19088
0.18107,0.98163,0.05999,0.18791,-0.0201,-0.03626
0.1653,0.98273,0.08311,0.20423,-0.08684,-0.02821
0.14834,0.9833,0.1054,0.23432,-0.11422,-0.18835
0.1278,0.98399,0.12413,0.27503,0.04031,-0.34597
0.10795,0.98479,0.1361,0.36153,0.14604,-0.22145
0.09532,0.98542,0.14084,0.38033,0.11447,-0.05828
0.09037,0.98574,0.1419,0.26572,0.18885,0.03368
0.09002,0.98579,0.14177,0.11754,0.37661,-0.11065
0.08844,0.98733,0.13167,0.20648,0.40059,-0.18008
0.08824,0.99061,0.10438,0.45794,0.18623,0.05829
0.09826,0.99351,0.0571,0.40653,0.13838,0.1447
0.12124,0.99261,-0.00262,0.10694,-0.01086,0.17596
0.15418,0.98585,-0.06562,-0.21797,0.35411,0.10928
0.18575,0.97451,-0.12578,-0.42704,0.98884,0.16739
0.20268,0.96114,-0.18741,-0.51452,1.02513,0.28657
0.20834,0.94699,-0.24453,-0.36429,0.36899,0.23859
0.2231,0.93106,-0.28867,0.14654,0.29423,0.15037
0.25025,0.91223,-0.32435,0.27946,0.20679,0.04635
0.27554,0.8911,-0.36057,0.22,0.16046,0.0317
0.29067,0.86868,-0.40112,0.07842,-0.02379,0.2339
0.30103,0.84711,-0.43793,-0.09853,-0.12001,0.49576
0.30793,0.82835,-0.46798,-0.27572,-0.20636,0.62035
0.30474,0.81291,-0.49629,-0.37795,-0.28737,0.65623
0.29513,0.80121,-0.52053,-0.50714,-0.36405,0.5901
0.2829,0.79397,-0.53811,-0.54049,-0.40169,0.51724
0.27235,0.79187,-0.54658,-0.51932,-0.44317,0.48042
0.26571,0.79358,-0.54738,-0.39233,-0.38398,0.46581
0.26368,0.79918,-0.54017,-0.30517,-0.28774,0.35175
0.26846,0.80831,-0.52399,-0.24828,-0.24895,0.24512
0.27791,0.82129,-0.49824,-0.23392,-0.26385,0.21087
0.28612,0.83883,-0.46313,-0.22933,-0.22567,0.0173
0.28674,0.85975,-0.42261,-0.04365,-0.0772,-0.33523
0.27532,0.87767,-0.39229,0.50818,0.50761,-0.69608
0.26108,0.87812,-0.40092,1.00061,1.11062,-0.61717
0.26917,0.8594,-0.4347,0.71142,0.57147,-0.49313
0.28578,0.84385,-0.45413,0.06612,-0.28821,-0.59153
0.29055,0.838,-0.46188,-0.1616,-0.28647,-0.03451
0.29104,0.84055,-0.4569,-0.09984,0.35642,0.61956
0.30539,0.8476,-0.43394,-0.0874,0.5924,0.83519
0.33541,0.84602,-0.41442,-0.40218,1.02486,0.09798
0.35126,0.84441,-0.40446,-0.52504,0.18668,0.30856
0.35325,0.84725,-0.39671,-0.64413,-0.31173,0.54559
0.34477,0.85979,-0.37667,-0.30666,-0.40873,1.04456
0.33474,0.88089,-0.33461,-0.11806,-0.17456,1.00535
0.31774,0.90132,-0.29436,0.36944,0.57527,0.30442
0.30625,0.91528,-0.26166,0.30182,0.14518,0.03325
0.3042,0.92468,-0.22894,0.07882,-0.06981,0.00232
0.29754,0.93422,-0.19672,-0.27293,-0.17488,0.19468
0.28551,0.94377,-0.16665,-0.26927,-0.19762,0.20253
0.27398,0.95196,-0.13673,-0.14951,-0.16525,0.24134
0.26326,0.95863,-0.10818,0.0094,-0.18495,0.22821
0.25249,0.96433,-0.07937,0.08844,-0.18342,0.18431
0.24152,0.96898,-0.05222,0.11463,-0.09987,0.12067
0.23063,0.97268,-0.02631,0.13541,-0.12855,-0.0112
0.21802,0.97594,-0.00069,0.07891,-0.14139,-0.07202
0.20323,0.97886,0.02253,0.1001,0.00607,-0.02526
0.18745,0.9811,0.04786,0.16991,0.04487,-0.00668
0.1706,0.98241,0.07585,0.20454,0.06613,0.00817
0.1529,0.98283,0.10324,0.119,0.08694,-0.2454
0.13314,0.98329,0.12409,0.15316,0.13579,-0.36393
0.11332,0.98419,0.13607,0.31064,0.15821,-0.23043
0.09722,0.98558,0.13845,0.54452,-0.08449,0.20716
0.08762,0.98678,0.13631,0.4792,0.01985,0.14788
0.0861,0.98676,0.13738,0.29697,0.24607,-0.0288
0.08536,0.98704,0.13583,0.04116,0.44672,-0.22567
0.08199,0.98919,0.12152,0.38547,0.25794,-0.10701
0.08274,0.99246,0.09034,0.46334,0.24376,-0.03544
0.09423,0.99466,0.04188,0.26841,-0.06705,0.14988
0.11714,0.99298,-0.0159,0.07454,-0.14212,0.04979
0.14886,0.98592,-0.07615,-0.04263,0.02457,0.10152
0.17915,0.97386,-0.13963,-0.38634,1.0951,0.23445
0.19612,0.95996,-0.20001,-0.57642,1.10443,0.35963
0.20647,0.94571,-0.25099,-0.32384,0.3474,0.28366
0.22885,0.92916,-0.29031,0.14554,0.2579,0.12443
0.26166,0.90866,-0.32536,0.21812,0.20374,0.01158
0.28942,0.88603,-0.36219,0.1435,0.0741,0.02118
0.30786,0.86218,-0.40231,0.05932,-0.06225,0.27614
0.32322,0.8382,-0.43926,-0.08691,-0.10245,0.53654
0.33188,0.81776,-0.47024,-0.41906,-0.23911,0.58896
0.33353,0.80132,-0.49661,-0.51058,-0.31936,0.53461
0.32804,0.79123,-0.51608,-0.56643,-0.37837,0.4417
0.31778,0.78589,-0.53046,-0.41075,-0.31327,0.45126
0.3075,0.78379,-0.53954,-0.35633,-0.31597,0.45693
0.30239,0.78486,-0.54088,-0.2506,-0.29481,0.46617
0.30439,0.79006,-0.53212,-0.29507,-0.38449,0.36116
0.30953,0.8007,-0.5129,-0.32175,-0.39286,0.3183
0.31387,0.81861,-0.48099,-0.3441,-0.38911,0.20685
0.31115,0.84413,-0.43661,-0.31652,-0.30702,-0.0027
0.29718,0.87188,-0.38923,0.01567,-0.00808,-0.32577
0.27417,0.88987,-0.36463,0.96683,1.34346,-1.02419
0.2652,0.88219,-0.38911,1.0793,1.01851,-0.6732
0.28265,0.86118,-0.42247,0.55691,0.4444,-0.62172
0.29178,0.847,-0.44436,-0.12539,-0.03779,0.06766
0.29185,0.84217,-0.45339,-0.05863,0.43011,0.77639
0.31177,0.84187,-0.4405,-0.01625,0.76137,0.98681
0.34945,0.83672,-0.42164,-0.53321,0.28871,0.42678
0.37177,0.83799,-0.39943,-0.93456,-0.3401,-0.28439
0.36486,0.84516,-0.39059,-0.57325,-0.24028,0.63908
0.34808,0.86192,-0.36867,-0.22563,-0.1433,0.9686
0.32593,0.88646,-0.32856,0.05499,0.48976,0.6496
0.30118,0.9076,-0.29246,0.30489,0.59621,0.32158
0.29307,0.9207,-0.25768,0.14661,0.00421,0.00608
0.28905,0.93143,-0.22109,-0.16118,-0.11827,0.16114
0.27748,0.94281,-0.18467,-0.22526,-0.1498,0.26527
0.2612,0.95339,-0.15102,-0.19772,-0.19913,0.23844
0.24635,0.9616,-0.12093,-0.05636,-0.22619,0.25779
0.23414,0.96793,-0.09103,0.1269,-0.21808,0.23856
0.22197,0.97298,-0.06338,0.13289,-0.22157,0.15713
0.20925,0.97708,-0.03886,0.1215,-0.17305,0.0409
0.19794,0.9801,-0.01415,0.10482,-0.04346,-0.14602
0.18471,0.98273,0.01035,0.16339,0.02497,-0.11287
0.16994,0.9849,0.03275,0.19302,0.0261,-0.06986
0.15481,0.98632,0.05645,0.23107,-0.08933,0.06613
0.1395,0.98681,0.08208,0.13927,-0.06899,-0.06389
0.12235,0.98679,0.10607,0.08755,-0.04682,-0.18422
0.10332,0.98701,0.123,0.12882,0.17182,-0.40577
0.08758,0.98772,0.12928,0.32231,0.22547,-0.11502
0.07729,0.98873,0.12813,0.52319,0.01316,0.15461
0.07389,0.98935,0.12536,0.39819,0.20056,-0.00327
0.07776,0.98981,0.1192,0.18658,0.57988,-0.16609
0.08458,0.99144,0.09943,0.19951,0.55368,-0.07576
0.09656,0.99329,0.06356,0.36046,0.26602,0.05596
0.11805,0.99289,0.01481,0.05034,-0.08635,0.02001
0.14544,0.98846,-0.04228,-0.14916,0.14347,-0.0003
0.173,0.97947,-0.10341,-0.27153,0.82662,0.09792
0.19059,0.96694,-0.16937,-0.43293,1.0741,0.23665
0.1975,0.95318,-0.22898,-0.37844,0.48458,0.32073
0.21195,0.93753,-0.27587,-0.10313,0.38437,0.22173
0.24068,0.91832,-0.31425,0.22099,0.26636,0.05525
0.27106,0.8962,-0.35121,0.14483,0.1097,0.06612
0.28984,0.87268,-0.39295,0.0836,0.05827,0.23473
0.30249,0.8482,-0.43479,-0.05643,-0.08213,0.49464
0.30936,0.82683,-0.46972,-0.28515,-0.28026,0.60832
0.31126,0.80925,-0.49823,-0.43063,-0.3965,0.60974
0.30966,0.79584,-0.52033,-0.48796,-0.42376,0.56946
0.30575,0.78753,-0.53508,-0.50307,-0.43099,0.47776
0.30199,0.78445,-0.5417,-0.49932,-0.42791,0.48437
0.29971,0.78617,-0.54046,-0.40701,-0.37632,0.46598
0.29963,0.79327,-0.53004,-0.22464,-0.42214,0.30163
0.30227,0.8066,-0.50796,-0.19406,-0.39481,0.21644
0.30641,0.8263,-0.47259,-0.22924,-0.30681,0.09745
0.30438,0.85221,-0.42554,-0.13852,-0.13784,-0.15375
0.29255,0.87861,-0.37742,0.29153,0.36063,-0.66894
0.26993,0.89403,-0.35755,0.89755,1.38009,-1.09016
0.26148,0.88167,-0.39277,1.24263,1.27476,-0.41783
0.28026,0.86018,-0.42607,0.1425,-0.32707,-0.72775
0.29065,0.84907,-0.44112,-0.07967,-0.54799,-0.17027
0.28359,0.85089,-0.44221,-0.21316,0.17696,0.94914
0.27996,0.85674,-0.43314,-0.27198,0.76283,0.95589
0.28542,0.85744,-0.42817,-0.41054,1.46825,-0.46767
0.28495,0.85597,-0.4314,-0.02729,-0.19743,0.33589
0.29289,0.85865,-0.42063,-0.4672,-0.41923,0.72489
0.29306,0.87348,-0.38876,-0.26549,-0.4882,1.03034
0.28293,0.89752,-0.33824,-0.03883,0.07776,0.8616
0.26713,0.91823,-0.29238,0.09122,0.60262,0.43931
0.25515,0.93332,-0.25261,0.14787,0.30956,0.16727
0.25195,0.94376,-0.21405,-0.24796,-0.07381,0.1123
0.24739,0.95275,-0.17624,-0.50298,-0.22328,0.25806
0.23828,0.96063,-0.1428,-0.44068,-0.23499,0.23426
0.2286,0.96676,-0.11447,-0.31383,-0.19886,0.20499
0.22044,0.97137,-0.08845,0.11286,-0.2599,0.13435
0.21347,0.97485,-0.06384,0.1858,-0.19568,0.09986
0.20722,0.97749,-0.03938,0.21329,-0.10204,0.00114
0.1981,0.98009,-0.01316,0.19323,-0.07875,-0.05966
0.18488,0.98266,0.01375,0.21001,-0.04972,-0.08243
0.16889,0.98482,0.0398,0.28244,-0.09235,-0.06767
0.15249,0.98602,0.06705,0.28049,-0.06624,-0.10725
0.13665,0.98601,0.09535,0.15556,0.09184,-0.20959
0.12021,0.98585,0.11674,0.18302,0.33229,-0.25925
0.10637,0.9864,0.12523,0.25212,0.31864,-0.1711
0.097,0.98734,0.12544,0.41008,0.11029,0.0907
0.09198,0.98818,0.12258,0.20063,0.3881,-0.11971
0.09018,0.98888,0.11818,0.08286,0.47563,-0.20559
0.08771,0.99049,0.10597,0.18754,0.36312,-0.08719
0.08902,0.99277,0.08043,0.45654,0.18703,0.00991
0.098,0.99451,0.03652,0.37566,0.07788,0.13528
0.11609,0.993,-0.0216,0.27993,-0.2182,0.14672
0.14494,0.98582,-0.08445,-0.19261,0.29884,0.08303
0.17558,0.973,-0.14979,-0.41679,0.6362,0.20132
0.19246,0.95731,-0.21564,-0.74704,1.18011,0.53502
0.20354,0.94048,-0.27213,-0.37635,0.40362,0.25646
0.22756,0.92223,-0.31256,0.0973,0.23705,0.01562
0.26307,0.90132,-0.3441,0.23537,0.22937,-0.08763
0.28923,0.87969,-0.37747,0.25851,0.07557,0.06645
0.3037,0.85535,-0.41969,0.15736,-0.13673,0.30546
0.31331,0.83179,-0.45821,-0.00618,-0.24109,0.54654
0.31789,0.81324,-0.48742,-0.27637,-0.33216,0.62261
0.31144,0.80064,-0.51183,-0.45546,-0.42551,0.63437
0.29546,0.79356,-0.53194,-0.54411,-0.3969,0.60029
0.2758,0.78999,-0.54758,-0.5395,-0.41554,0.53101
0.25772,0.79017,-0.55606,-0.49315,-0.38673,0.52117
0.24545,0.79338,-0.55704,-0.32298,-0.31642,0.47091
0.2427,0.80092,-0.54737,-0.26111,-0.28176,0.32395
0.25092,0.81356,-0.52454,-0.26378,-0.32711,0.21165
0.26281,0.83131,-0.48973,-0.27293,-0.30676,0.07523
0.26884,0.85451,-0.44444,-0.18771,-0.18967,-0.11835
0.26166,0.88001,-0.39637,0.26138,0.18197,-0.46084
0.24372,0.89616,-0.37079,0.58234,0.63866,-0.70425
0.24159,0.88426,-0.39964,1.18213,1.43374,-0.87759
0.26566,0.85934,-0.43697,0.27108,-0.02855,-0.73646
0.28052,0.84515,-0.45499,-0.17573,-0.40775,-0.25384
0.27956,0.8421,-0.46121,-0.3284,0.00266,0.75778
0.28836,0.84821,-0.44428,-0.24672,0.44331,1.06609
0.31204,0.85192,-0.42053,-0.33345,1.0682,0.18164
0.32408,0.85043,-0.41442,-0.54222,1.13496,-0.10516
0.33204,0.85163,-0.40554,-0.41053,-0.33436,0.26121
0.32923,0.86223,-0.38492,-0.35322,-0.29722,0.83751
0.31834,0.88135,-0.3491,-0.19593,-0.16368,0.91399
0.30073,0.90277,-0.30751,0.05219,0.42504,0.51954
0.2889,0.91902,-0.2682,0.31467,0.49303,0.25169
0.28708,0.93042,-0.22782,0.0793,0.02729,0.04778
0.28057,0.94154,-0.18648,-0.25952,-0.16538,0.15638
0.26798,0.9516,-0.15041,-0.25383,-0.17472,0.22344
0.25322,0.95975,-0.12148,-0.10313,-0.2243,0.22709
0.24062,0.96621,-0.09239,-0.01868,-0.24776,0.22459
0.22962,0.9713,-0.06199,0.13167,-0.23634,0.20261
0.21961,0.97502,-0.03298,0.18131,-0.11375,-0.02095
0.20956,0.97777,-0.00612,0.22101,-0.09398,-0.11229
0.19857,0.9799,0.01845,0.14399,-0.02669,-0.24237
0.18559,0.98181,0.03983,0.12263,-0.02065,-0.13884
0.17025,0.98344,0.06206,0.15937,-0.05688,-0.04784
0.15375,0.9843,0.08652,0.20291,-0.08365,-0.07381
0.13466,0.98479,0.10971,0.22095,-0.00598,-0.21121
0.11333,0.98547,0.12644,0.25555,0.09769,-0.25068
0.09654,0.98614,0.13489,0.24094,0.19459,-0.08879
0.08751,0.98679,0.1363,0.26863,0.13249,0.09229
0.0845,0.98731,0.1344,0.22234,0.21482,0.05962
0.08503,0.98821,0.12727,0.05924,0.48782,-0.21457
0.08611,0.99054,0.10681,0.34396,0.25127,-0.11745
0.09258,0.99342,0.06735,0.45404,0.1247,0.06315
0.11032,0.99384,0.00976,0.3807,-0.0584,0.14425
0.13942,0.98868,-0.05531,-0.01503,0.22027,0.10287
0.1739,0.97772,-0.11747,-0.42484,0.87962,0.24114
0.19379,0.96438,-0.18,-0.69513,1.25972,0.48806
0.20116,0.95048,-0.23686,-0.48847,0.4686,0.22542
0.21832,0.93478,-0.2802,0.29725,0.25377,0.02034
0.24859,0.91543,-0.3165,0.33109,0.26393,0.00801
0.27661,0.89218,-0.35707,0.15242,0.17303,0.02017
0.29208,0.86771,-0.4022,0.02298,-0.09645,0.4295
0.30532,0.8447,-0.43961,-0.07448,-0.14443,0.53829
0.31526,0.82567,-0.46783,-0.27609,-0.23906,0.62735
0.31809,0.80947,-0.49353,-0.49333,-0.42805,0.56714
0.31117,0.79814,-0.51589,-0.4985,-0.41742,0.54581
0.29956,0.79123,-0.53311,-0.52797,-0.42056,0.52316
0.28689,0.78748,-0.54549,-0.48306,-0.41587,0.52034
0.27558,0.78734,-0.55149,-0.36532,-0.37824,0.54762
0.26963,0.79097,-0.54924,-0.26936,-0.35025,0.45166
0.2716,0.8004,-0.53441,-0.24729,-0.40216,0.25336
0.27838,0.81683,-0.50526,-0.2762,-0.40908,0.14975
0.28266,0.84022,-0.46274,-0.27857,-0.35831,0.01847
0.27627,0.86721,-0.41426,0.06693,0.08674,-0.41338
0.25857,0.88717,-0.38219,0.62452,0.96223,-0.80634
0.2496,0.88271,-0.39814,0.92897,1.58828,-1.02325
0.26672,0.86024,-0.43456,0.50659,0.25205,-0.68133
0.28319,0.84321,-0.45693,0.00405,-0.33887,-0.43673
0.28239,0.83794,-0.46702,-0.20669,0.1006,0.59074
0.28768,0.84129,-0.45767,-0.21115,0.50521,0.97705
0.31104,0.84209,-0.4406,-0.29099,1.15725,0.49591
0.32789,0.84068,-0.43096,-0.50104,-0.4222,0.0965
0.33677,0.84381,-0.4178,-0.60305,-0.35869,0.10905
0.32822,0.85615,-0.39909,-0.36614,-0.25867,0.99439
0.30987,0.87867,-0.36319,-0.07943,0.27042,0.72567
0.28328,0.9027,-0.32384,0.25618,0.62948,0.41715
0.2677,0.91974,-0.28706,0.29132,0.12523,0.1269
0.26914,0.9308,-0.2473,-0.03016,-0.13733,0.20494
0.27135,0.94033,-0.20526,-0.28403,-0.20538,0.29276
0.26624,0.94936,-0.16677,-0.21337,-0.12624,0.28176
0.25834,0.95653,-0.13525,-0.04623,-0.16768,0.28144
0.25154,0.96228,-0.10362,-0.00566,-0.26747,0.26362
0.24516,0.96684,-0.07141,-0.04461,-0.1748,0.12907
0.23637,0.97071,-0.04276,0.04802,-0.07155,-0.04278
0.22592,0.974,-0.01617,0.11318,-0.05334,-0.12188
0.21145,0.97735,0.00857,0.145,-0.06934,-0.12984
0.19369,0.98058,0.03048,0.23845,-0.09574,-0.0035
0.17418,0.98321,0.0542,0.22386,-0.11471,-0.00425
0.15443,0.98462,0.08161,0.21074,-0.09351,-0.09192
0.13484,0.98497,0.10787,0.15332,0.01157,-0.26502
0.11609,0.98531,0.12521,0.21353,0.22964,-0.253
0.10141,0.98601,0.1322,0.27071,0.15305,-0.00798
0.09287,0.98647,0.13507,0.28349,0.11357,0.05638
0.0899,0.98654,0.13656,0.06815,0.46296,-0.1729
0.08662,0.98764,0.13058,0.13634,0.45697,-0.22853
0.08319,0.99029,0.11134,0.41897,0.34133,-0.06867
0.08499,0.99357,0.07467,0.42537,0.10866,0.03809
0.09979,0.99477,0.02152,0.3232,-0.13854,0.18755
0.12789,0.99093,-0.04105,0.23542,-0.2034,0.12412
0.16422,0.98112,-0.10209,-0.14742,0.69687,0.16276
0.19207,0.96745,-0.16474,-0.47863,1.39919,0.41139
0.20293,0.95316,-0.22426,-0.58529,1.25801,0.50191
0.21878,0.93755,-0.27041,-0.2162,0.34197,0.09379
0.24968,0.91933,-0.30411,0.00172,0.33528,0.04456
0.28226,0.89765,-0.33846,0.09979,0.1931,-0.02418
0.30185,0.87364,-0.38163,0.05065,0.01197,0.18458
0.31555,0.84873,-0.42436,-0.07814,-0.13997,0.46111
0.32671,0.82676,-0.45795,-0.25382,-0.20231,0.61977
0.32987,0.80866,-0.48709,-0.4529,-0.33542,0.63822
0.32169,0.79467,-0.5148,-0.54851,-0.4043,0.55873
0.30656,0.78626,-0.53648,-0.47324,-0.38195,0.48022
0.28895,0.78365,-0.54991,-0.45338,-0.39883,0.52177
0.27431,0.78431,-0.55643,-0.3521,-0.35565,0.5609
0.26757,0.78919,-0.55279,-0.30199,-0.36791,0.47259
0.269,0.79977,-0.53666,-0.30323,-0.34434,0.33884
0.27548,0.81615,-0.50794,-0.33808,-0.37328,0.25438
0.28073,0.8388,-0.46648,-0.26883,-0.19358,-0.02119
0.27754,0.8653,-0.41741,-0.12345,-0.06042,-0.24234
0.26331,0.88821,-0.37649,0.49031,0.55927,-0.63914
0.24775,0.89271,-0.3764,1.20029,1.49518,-0.96594
0.26185,0.87169,-0.41422,0.82148,0.85545,-0.79193
0.28288,0.85281,-0.43897,-0.00105,-0.36332,-0.42822
0.28309,0.84648,-0.45092,-0.24072,0.10518,0.72218
0.28376,0.84848,-0.44672,-0.21386,0.45894,0.96022
0.30224,0.84997,-0.4315,-0.15049,0.83724,0.42663
0.32727,0.84521,-0.4225,-0.49165,-0.10987,0.2787
0.33445,0.84624,-0.41475,-0.60685,-0.36533,0.1534
0.32567,0.85361,-0.40656,-0.40707,-0.29864,0.86835
0.31418,0.87041,-0.37904,-0.04781,-0.06284,1.02602
0.30352,0.89323,-0.33167,0.24218,0.67295,0.63442
0.29654,0.91125,-0.28578,0.36544,0.4657,0.19131
0.29723,0.92294,-0.24461,-0.07163,-0.05705,0.05763
0.28989,0.9342,-0.20791,-0.30605,-0.10566,0.2476
0.27328,0.94548,-0.17714,-0.33886,-0.18944,0.27199
0.25638,0.95528,-0.1473,-0.26188,-0.25249,0.25451
0.24339,0.96286,-0.11686,-0.04591,-0.17041,0.34102
0.23434,0.96829,-0.08654,0.06493,-0.14699,0.30129
0.22497,0.97258,-0.05886,0.10639,-0.04567,0.05337
0.21556,0.97596,-0.03188,0.16435,-0.05842,-0.14836
0.20359,0.97903,-0.00551,0.13632,-0.08444,-0.19745
0.18802,0.98201,0.01682,0.15533,-0.09603,-0.10901
0.17014,0.98473,0.03672,0.19799,-0.0858,0.03055
0.15139,0.98671,0.05895,0.15876,-0.08591,-0.00028
0.13211,0.98773,0.08326,0.05228,-0.04394,-0.13143
0.11181,0.98839,0.10281,0.20857,0.22006,-0.30327
0.09439,0.989,0.11378,0.31238,0.24279,-0.19276
0.08194,0.98983,0.11625,0.39784,0.15208,-0.05053
0.07443,0.9907,0.11387,0.20011,0.31527,-0.12929
0.07255,0.99151,0.10781,0.1137,0.49361,-0.21793
0.07257,0.99317,0.09126,0.10658,0.49841,-0.18992
0.07918,0.9952,0.05734,0.25787,0.17971,0.11193
0.09674,0.99528,0.00735,0.22577,0.15873,0.22479
0.12165,0.99112,-0.05351,0.13282,0.04916,0.19914
0.15148,0.98158,-0.1164,-0.23379,0.43796,0.17164
0.1794,0.96733,-0.17911,-0.42705,1.16799,0.25757
0.19991,0.95053,-0.23772,-0.60642,1.00586,0.29418
0.22176,0.93283,-0.28397,-0.40073,0.46841,0.21749
0.25054,0.91412,-0.31876,0.12587,0.4011,0.19283
0.27857,0.89281,-0.35394,0.26693,0.24871,0.052
0.29714,0.87056,-0.39219,0.22219,0.03404,0.06296
0.30862,0.84853,-0.42982,0.12729,-0.0735,0.30096
0.31477,0.82817,-0.46372,-0.1845,-0.22136,0.58461
0.31598,0.81068,-0.49289,-0.30701,-0.24923,0.6485
0.30811,0.7976,-0.51855,-0.45936,-0.40055,0.64193
0.29412,0.78921,-0.53911,-0.57105,-0.41058,0.53644
0.2794,0.78595,-0.55156,-0.49426,-0.40042,0.51686
0.26529,0.78644,-0.55779,-0.41172,-0.44383,0.53047
0.25577,0.78857,-0.55923,-0.32728,-0.38676,0.42989
0.25617,0.79409,-0.55117,-0.33589,-0.37844,0.37403
0.26481,0.80551,-0.53012,-0.31873,-0.34727,0.30202
0.27468,0.8229,-0.49738,-0.16265,-0.18396,0.10677
0.27606,0.84551,-0.45706,-0.09481,-0.08881,-0.03232
0.26573,0.86839,-0.41867,0.37241,0.67704,-0.55233
0.25171,0.88054,-0.40161,0.82733,1.29645,-0.8911
0.25437,0.86892,-0.42458,0.95239,0.97285,-0.84982
0.27441,0.84491,-0.45916,0.25604,-0.21197,-0.58171
0.28449,0.8303,-0.47924,-0.15867,-0.50034,0.00132
0.28307,0.82792,-0.48417,-0.20395,-0.30721,0.341
0.29562,0.83462,-0.46477,-0.11707,0.18482,0.80344
0.32577,0.84595,-0.42219,-0.36541,0.55556,0.40103
0.34384,0.85529,-0.38762,-0.48129,1.4313,-0.20427
0.34146,0.85178,-0.39733,-0.2182,0.17275,0.30723
0.34521,0.85373,-0.38984,-0.43253,-0.37115,0.51578
0.34596,0.86641,-0.36006,-0.25207,-0.41832,0.96185
0.33754,0.88682,-0.31561,0.01526,0.01182,0.82844
0.32894,0.90285,-0.27685,0.27772,0.54675,0.27205
0.32319,0.91521,-0.24068,0.1108,0.20927,0.09293
0.32057,0.92475,-0.20508,-0.05594,0.04731,0.11847
0.31369,0.93321,-0.17522,-0.36827,-0.1217,0.20494
0.30206,0.94201,-0.14619,-0.35794,-0.06797,0.24717
0.28882,0.94982,-0.12007,-0.25025,-0.07117,0.2497
0.27465,0.95678,-0.09556,-0.07539,-0.25147,0.197
0.26285,0.96238,-0.06877,0.03584,-0.19208,0.17465
0.25266,0.96668,-0.04102,0.21354,-0.08048,0.08355
0.24208,0.97015,-0.01368,0.12486,-0.12302,-0.08062
0.22827,0.97353,0.01071,0.12651,-0.08657,-0.10353
0.21092,0.97684,0.03591,0.20566,-0.03757,-0.03343
0.19169,0.9794,0.06347,0.32717,-0.00961,-0.09277
0.17203,0.98089,0.09078,0.22117,0.02977,-0.23447
0.15278,0.98196,0.11133,0.18057,0.0647,-0.30511
0.13542,0.98315,0.12273,0.24696,0.12694,-0.07446
0.12166,0.98445,0.12666,0.33317,0.03699,0.07201
0.11398,0.98523,0.12773,0.18255,0.22272,-0.08319
0.11336,0.98529,0.12782,-0.04921,0.53561,-0.15473
0.11322,0.9862,0.12073,0.22536,0.36596,-0.02671
0.11221,0.98855,0.10086,0.3187,0.27781,0.03886
0.11688,0.99114,0.06293,0.3005,0.19723,0.12021
0.13227,0.99118,0.0066,-0.07896,0.05209,-0.0265
0.15863,0.9857,-0.05683,-0.10532,0.05758,0.03694
0.18838,0.97473,-0.12003,-0.41005,0.82004,0.11897
0.20795,0.96003,-0.18732,-0.46587,0.89887,0.35689
0.21708,0.94482,-0.24533,-0.32747,0.43638,0.28903
0.23244,0.92833,-0.29012,-0.08119,0.16367,0.15959
0.25914,0.90885,-0.32685,0.33942,0.1058,-0.02308
0.2865,0.88616,-0.36419,0.24617,0.08851,0.04418
0.30533,0.86141,-0.40587,0.1126,-0.03669,0.26919
0.32014,0.83756,-0.44271,-0.14212,-0.09705,0.52302
0.33065,0.81847,-0.46986,-0.43816,-0.18964,0.59976
0.32843,0.80409,-0.49555,-0.47345,-0.33607,0.59501
0.31705,0.79309,-0.52009,-0.54622,-0.39981,0.45426
0.3021,0.78733,-0.53745,-0.49973,-0.37195,0.47222
0.28335,0.78568,-0.54992,-0.41146,-0.38747,0.54152
0.26809,0.78756,-0.55486,-0.29281,-0.35113,0.4765
0.26286,0.79412,-0.54796,-0.29208,-0.35382,0.40987
0.267,0.8054,-0.52918,-0.30846,-0.29996,0.24497
0.27563,0.82159,-0.49901,-0.27541,-0.21223,0.05521
0.28075,0.84383,-0.4573,-0.20151,-0.10038,-0.14979
0.27654,0.86818,-0.41204,0.61832,0.68614,-0.58334
0.26829,0.88199,-0.38743,0.8411,1.12732,-0.73041
0.27205,0.8719,-0.40716,1.10045,1.01804,-0.79585
0.29276,0.84872,-0.4404,0.0104,-0.24101,-0.72731
0.29698,0.83032,-0.47155,-0.19641,-0.22438,0.35087
0.27984,0.8208,-0.49797,-0.00054,0.16427,0.52209
0.27851,0.81976,-0.50042,0.1154,0.58025,0.67317
0.30893,0.82065,-0.48072,-0.08052,0.89012,0.25624
0.33746,0.82076,-0.46095,-0.52847,0.04616,0.58425
0.34461,0.82607,-0.44593,-0.64711,0.01439,0.55721
0.33019,0.83804,-0.43435,-0.32767,-0.18215,0.8845
0.3149,0.8581,-0.40558,-0.03179,0.20892,0.89235
0.29897,0.88127,-0.36602,0.12813,0.49939,0.38686
0.28246,0.90057,-0.33043,0.22328,0.47004,0.24509
0.27787,0.91417,-0.29509,0.04302,0.05406,0.1927
0.27672,0.92656,-0.25477,-0.21911,-0.07867,0.29816
0.26796,0.9393,-0.21426,-0.25526,-0.16777,0.21676
0.25651,0.94975,-0.17936,-0.14829,-0.20471,0.25927
0.24561,0.95802,-0.14788,0.00662,-0.17381,0.28597
0.2354,0.96479,-0.11725,0.03782,-0.20463,0.25338
0.22373,0.97081,-0.0864,0.06035,-0.12591,0.15984
0.21066,0.97592,-0.05653,0.09469,-0.1024,-0.0399
0.19553,0.98035,-0.02596,0.08682,-0.13144,-0.09754
0.17828,0.98397,0.00406,0.10766,-0.12604,-0.09136
0.16158,0.9864,0.03007,0.16172,-0.11527,-0.08848
0.14658,0.98774,0.05369,0.23833,-0.02762,-0.11574
0.13142,0.98813,0.07951,0.24522,0.01172,-0.12584
0.11418,0.98808,0.10316,0.18099,0.17336,-0.24628
0.09626,0.98852,0.11636,0.26137,0.28905,-0.26504
0.08344,0.98927,0.11988,0.40088,0.1081,-0.04688
0.07708,0.99017,0.11666,0.37371,0.21318,-0.03655
0.07595,0.99113,0.10899,0.20209,0.44904,-0.15316
0.07717,0.99291,0.09033,0.19872,0.38217,-0.15416
0.08296,0.99505,0.0545,0.37126,0.19028,0.16605
0.09658,0.99532,-0.0006,0.31156,-0.0272,0.19348
0.12208,0.99035,-0.06554,0.17434,0.10751,0.18032
0.15381,0.97943,-0.1306,-0.28516,0.8861,0.22544
0.1751,0.9651,-0.19471,-0.64774,1.19966,0.53794
0.18779,0.94884,-0.25384,-0.42032,0.55756,0.25337
0.20817,0.93078,-0.30052,0.1036,0.27264,0.00607
0.24373,0.91003,-0.33531,0.30983,0.33512,-0.05955
0.27994,0.88693,-0.3674,0.17433,0.20952,0.02126
0.30265,0.86172,-0.40723,0.0461,0.00446,0.28368
0.32088,0.83723,-0.4428,-0.1272,-0.14381,0.55723
0.33323,0.81655,-0.47138,-0.3623,-0.24315,0.64075
0.33321,0.80015,-0.49872,-0.39589,-0.34881,0.62726
0.32483,0.78786,-0.52323,-0.49469,-0.43153,0.50536
0.31216,0.77965,-0.54286,-0.48707,-0.43546,0.49881
0.29865,0.77544,-0.55632,-0.48271,-0.44396,0.48376
0.28651,0.77493,-0.56338,-0.35928,-0.34884,0.48608
0.27932,0.77858,-0.56195,-0.29541,-0.34383,0.43402
0.2801,0.78829,-0.54786,-0.29775,-0.39514,0.25972
0.28557,0.80524,-0.51965,-0.31218,-0.39505,0.14589
0.28678,0.82921,-0.47974,-0.14019,-0.113,-0.18776
0.27627,0.85635,-0.43628,0.44057,0.54441,-0.61925
0.25478,0.87586,-0.40981,1.13047,1.68064,-1.07263
0.24046,0.87059,-0.42923,0.73279,0.76326,-0.54265
0.25323,0.85029,-0.46139,0.06928,-0.22169,-0.48184
0.26746,0.83822,-0.47524,-0.17368,0.0989,0.08376
0.26878,0.83673,-0.47711,-0.07136,0.72377,0.81612
0.28629,0.83828,-0.46403,-0.11139,0.80152,0.7116
0.32794,0.83471,-0.44239,-0.62197,0.32011,0.2967
0.34787,0.83601,-0.42435,-0.79535,-0.28739,-0.04074
0.34113,0.84179,-0.41834,-0.44259,-0.32549,0.83334
0.32811,0.85693,-0.39749,-0.19678,-0.19171,1.02024
0.30931,0.88149,-0.35679,-0.05549,0.12513,0.83291
0.28285,0.90471,-0.31858,0.32592,0.52411,0.27489
0.26755,0.92046,-0.28488,0.34748,0.33968,0.15438
0.26335,0.93184,-0.24964,0.03517,-0.05649,0.1546
0.2551,0.94337,-0.21207,-0.2657,-0.21249,0.2896
0.24418,0.95321,-0.17822,-0.21844,-0.26407,0.24513
0.23386,0.96092,-0.14811,-0.02825,-0.20617,0.2924
0.22535,0.96695,-0.11923,0.09705,-0.17146,0.27066
0.21726,0.97172,-0.09247,0.06579,-0.13834,0.10784
0.20968,0.97552,-0.06619,0.06263,-0.07936,-0.02256
0.20017,0.979,-0.03855,0.03463,-0.03081,-0.12214
0.1864,0.98238,-0.01342,0.04653,-0.02296,-0.0801
0.16868,0.98563,0.00856,0.17081,-0.08704,0.07895
0.14994,0.98818,0.03183,0.14819,-0.13854,0.13043
0.1309,0.98981,0.05598,0.07883,-0.07561,-0.02146
0.11143,0.9907,0.07801,0.11369,0.10191,-0.26452
0.09349,0.99116,0.0941,0.24968,0.26014,-0.18639
0.08063,0.9916,0.10109,0.39999,0.07998,0.10847
0.07362,0.99207,0.1018,0.38609,0.11915,0.05743
0.07129,0.99251,0.09913,0.23103,0.38775,-0.14631
0.07147,0.9934,0.08962,0.26481,0.3744,-0.19997
0.07428,0.99491,0.06798,0.37381,0.18313,-0.11141
0.08444,0.99603,0.0281,0.40496,0.05424,0.09895
0.10555,0.99406,-0.02625,0.32113,-0.05792,0.14139
0.13719,0.98663,-0.08792,-0.02672,0.2995,0.20224
0.16882,0.97366,-0.15321,-0.45549,1.03894,0.29927
0.18344,0.95868,-0.21743,-0.73837,1.13309,0.50286
0.19307,0.94233,-0.27337,-0.45281,0.47996,0.18315
0.21815,0.92346,-0.31563,0.14891,0.3955,0.01458
0.25621,0.90063,-0.35103,0.24375,0.2705,-0.00065
0.28581,0.87572,-0.38912,0.16681,0.16546,0.14517
0.30288,0.85093,-0.42916,0.11758,0.09525,0.29871
0.31643,0.82865,-0.46174,-0.10494,-0.19444,0.57142
0.32387,0.81013,-0.48866,-0.18448,-0.24017,0.59915
0.31897,0.79633,-0.51392,-0.31193,-0.29912,0.61237
0.3019,0.78822,-0.53624,-0.47852,-0.48562,0.59736
0.2794,0.78492,-0.55302,-0.46656,-0.51408,0.60821
0.26084,0.78466,-0.56237,-0.45037,-0.5148,0.59138
0.25223,0.78791,-0.56176,-0.39479,-0.45504,0.4123
0.25191,0.79602,-0.55036,-0.37482,-0.42056,0.42104
0.25617,0.80946,-0.52834,-0.33228,-0.33626,0.30164
0.26196,0.82826,-0.49534,-0.30969,-0.23496,0.09348
0.26159,0.85161,-0.45424,-0.08148,0.04848,-0.27927
0.24988,0.87267,-0.41953,0.7485,1.27833,-0.82419
0.239,0.8737,-0.4237,0.99563,1.26903,-0.63355
0.25247,0.85348,-0.45588,0.62813,0.61179,-0.55187
0.26879,0.83694,-0.47674,-0.21058,-0.60733,-0.24597
0.2669,0.83279,-0.485,-0.17418,-0.36719,0.03111
0.26627,0.83731,-0.47751,0.08783,0.14363,0.51251
0.28618,0.84542,-0.45096,-0.07962,0.89311,0.55905
0.31479,0.85064,-0.42108,-0.28508,1.26609,0.3846
0.32869,0.84921,-0.41328,-0.42013,0.40711,0.28567
0.33512,0.851,-0.40433,-0.64577,-0.40145,0.45737
0.32816,0.86306,-0.38396,-0.45454,-0.44938,1.02473
0.31432,0.88467,-0.34432,-0.22311,0.21849,0.78753
0.29477,0.90506,-0.30654,0.24648,0.61995,0.3529
0.27641,0.92054,-0.27604,0.34888,0.29556,0.08187
0.26644,0.93292,-0.24219,-0.1017,-0.08688,0.20726
0.25724,0.9436,-0.20843,-0.36924,-0.16492,0.32992
0.24473,0.95317,-0.17767,-0.37356,-0.21823,0.30758
0.23103,0.96148,-0.14886,-0.17975,-0.20976,0.31123
0.22024,0.96813,-0.11919,0.06725,-0.20631,0.31862
0.21238,0.97307,-0.0895,0.1405,-0.08918,0.19907
0.20519,0.97663,-0.06381,0.15816,-0.02948,0.01331
0.19767,0.97935,-0.04227,0.1478,-0.11527,-0.14279
0.18738,0.98201,-0.02282,0.06379,-0.09015,-0.15711
0.17334,0.98485,-0.00394,0.18649,-0.06659,0.05962
0.15784,0.98731,0.01715,0.27443,-0.06632,0.15658
0.14192,0.98898,0.04199,0.20257,-0.03058,0.02852
0.12467,0.98987,0.06785,0.17884,-0.0462,-0.09971
0.10554,0.9904,0.08918,0.23597,0.06865,-0.29632
0.0893,0.99086,0.10099,0.3353,0.18086,-0.0458
0.07931,0.99135,0.10452,0.50137,0.07544,0.21331
0.07576,0.99122,0.10833,0.19925,0.41699,-0.04964
0.07617,0.99098,0.11018,0.02461,0.48683,-0.25796
0.07397,0.99233,0.09896,0.21833,0.36124,-0.21803
0.07315,0.99477,0.07113,0.44258,0.21333,-0.09529
0.08198,0.99634,0.02384,0.39616,0.03175,0.17515
0.10259,0.99403,-0.03686,0.22305,-0.08614,0.12051
0.13448,0.98579,-0.10064,0.01089,0.05839,0.14499
0.16524,0.97252,-0.164,-0.65583,1.20957,0.36766
0.17782,0.9573,-0.2279,-0.69749,1.14272,0.504
0.18459,0.94083,-0.28417,-0.34502,0.34701,0.28182
0.20622,0.92235,-0.3267,0.18166,0.24685,0.06509
0.24226,0.90005,-0.36223,0.26084,0.25728,0.00232
0.2712,0.8752,-0.40058,0.08441,0.05685,0.22721
0.2897,0.84946,-0.44101,0.03711,-0.00035,0.36691
0.30604,0.82618,-0.47303,-0.06448,-0.11151,0.53095
0.31676,0.80669,-0.49891,-0.36568,-0.27372,0.57834
0.31582,0.79121,-0.52368,-0.34968,-0.29059,0.57885
0.306,0.78023,-0.54552,-0.44383,-0.32108,0.55161
0.29398,0.77318,-0.56192,-0.50606,-0.39379,0.51665
0.2804,0.7704,-0.57259,-0.48049,-0.40846,0.53015
0.26982,0.77172,-0.57588,-0.4006,-0.45243,0.49642
0.26506,0.77799,-0.56962,-0.28981,-0.37896,0.38642
0.26697,0.7902,-0.55164,-0.28731,-0.40318,0.33902
0.27093,0.8093,-0.52118,-0.20917,-0.29241,0.16156
0.27016,0.83485,-0.47962,-0.0162,-0.11173,-0.20762
0.25869,0.86207,-0.43578,0.53298,0.56203,-0.68614
0.23724,0.87667,-0.41852,1.02822,1.65351,-0.8634
0.23715,0.86147,-0.44902,0.9788,0.9996,-0.67506
0.2579,0.84049,-0.47651,0.0361,-0.54822,-0.75287
0.26308,0.82474,-0.50059,-0.21453,-0.52324,0.19407
0.25833,0.82111,-0.50895,-0.12788,0.13898,0.91586
0.27239,0.83375,-0.48027,-0.30507,0.64397,1.14348
0.2996,0.8455,-0.44201,-0.32341,1.6133,-0.26367
0.30396,0.84149,-0.44664,-0.26859,0.35554,0.10509
0.30875,0.83558,-0.4544,-0.5228,-0.67992,0.24021
0.30562,0.84253,-0.44354,-0.51169,-0.44999,0.82349
0.29712,0.85989,-0.41509,-0.21359,-0.37294,1.08132
0.28848,0.88302,-0.37018,0.13063,0.55866,0.5461
0.27775,0.9018,-0.33106,0.34852,0.81754,0.39226
0.28274,0.91329,-0.29319,0.29079,0.04603,0.11756
0.28592,0.92522,-0.24944,-0.31306,-0.19755,0.33103
0.27841,0.93734,-0.20944,-0.35679,-0.1943,0.31622
0.26524,0.94785,-0.17668,-0.36572,-0.17249,0.27584
0.25126,0.95675,-0.14661,-0.17512,-0.17418,0.30771
0.23896,0.96418,-0.11509,-0.07202,-0.16527,0.27771
0.22691,0.97025,-0.08437,-0.01813,-0.18398,0.23052
0.2136,0.97537,-0.05484,0.0674,-0.15318,-0.08351
0.19833,0.97978,-0.02634,0.16599,-0.06805,-0.10493
0.18144,0.98339,-0.00267,0.14763,-0.05668,-0.12526
0.16449,0.98617,0.01974,0.30078,-0.07669,0.0293
0.14825,0.98796,0.04394,0.26948,0.03396,0.01615
0.13271,0.9888,0.06823,0.22429,0.02622,-0.02827
0.11592,0.98937,0.0877,0.1684,0.23925,-0.29633
0.09974,0.99008,0.09887,0.22278,0.26971,-0.17375
0.088,0.99088,0.10199,0.28584,0.1849,-0.00607
0.08223,0.99135,0.10218,0.09854,0.42945,-0.07344
0.08142,0.99164,0.10009,0.00552,0.53789,-0.2137
0.07995,0.99287,0.08838,0.42011,0.28497,-0.12311
0.07961,0.99496,0.06086,0.50814,0.21111,-0.02706
0.08837,0.99599,0.01378,0.41307,0.02268,0.09755
0.10997,0.9929,-0.04511,0.15288,-0.13312,0.08442
0.14038,0.9843,-0.10695,0.00392,0.03,0.14293
0.16959,0.97072,-0.17007,-0.24094,0.8695,0.28912
0.18259,0.95527,-0.23261,-0.63483,0.9145,0.49648
0.19141,0.93872,-0.28664,-0.47918,0.45517,0.29561
0.21638,0.92018,-0.32625,0.10437,0.28371,0.0473
0.25535,0.8981,-0.35806,0.23113,0.28308,-0.03764
0.28669,0.87442,-0.39139,0.11706,0.09091,0.17475
0.30546,0.84992,-0.42933,0.08825,-0.02512,0.34524
0.31914,0.82802,-0.461,-0.09713,-0.24678,0.60051
0.32343,0.80986,-0.48941,-0.33735,-0.3215,0.65054
0.31664,0.79551,-0.51662,-0.4179,-0.33718,0.62183
0.30569,0.78522,-0.5385,-0.53897,-0.39301,0.48486
0.29186,0.77957,-0.55416,-0.52664,-0.39204,0.55634
0.2765,0.7764,-0.56634,-0.36895,-0.34366,0.57029
0.26747,0.77658,-0.57042,-0.29195,-0.30663,0.45974
0.26783,0.78264,-0.56191,-0.31867,-0.36033,0.3698
0.2734,0.79513,-0.54131,-0.31387,-0.31672,0.28639
0.27828,0.81439,-0.50923,-0.24352,-0.22137,0.11113
0.27655,0.83914,-0.46836,-0.06906,-0.07405,-0.25178
0.26476,0.8636,-0.42905,0.5161,0.56905,-0.78683
0.24389,0.87501,-0.41818,1.19526,1.48444,-0.86039
0.24803,0.86001,-0.44594,0.82229,0.63952,-0.48933
0.26823,0.83931,-0.47288,0.36509,0.02053,-0.55085
0.27024,0.82712,-0.49279,-0.06371,-0.13919,0.23874
0.27026,0.82752,-0.4921,0.09322,0.30932,0.77289
0.29376,0.83416,-0.46676,0.07379,0.50963,1.00894
0.33561,0.83316,-0.43954,-0.29524,0.98722,0.02508
0.35125,0.83259,-0.42826,-0.96848,-0.15412,-0.17738
0.34157,0.83582,-0.4298,-0.81108,-0.36177,0.32963
0.32599,0.84875,-0.41635,-0.41778,-0.40539,1.00642
0.31456,0.87209,-0.37483,0.14415,0.48655,0.75746
0.29598,0.8953,-0.33292,0.34778,0.72691,0.51021
0.28916,0.90975,-0.29788,0.55299,0.75936,0.2864
0.28824,0.9213,-0.26097,-0.14298,-0.1495,0.22378
0.27779,0.93426,-0.22355,-0.21494,-0.20897,0.28338
0.26122,0.9463,-0.19045,-0.26966,-0.22573,0.26374
0.24549,0.95594,-0.16095,-0.13904,-0.17975,0.32031
0.23221,0.96376,-0.1313,-0.045,-0.18898,0.30421
0.22105,0.97006,-0.10056,0.02629,-0.18475,0.23676
0.20937,0.97518,-0.07194,0.09439,-0.09737,-0.0382
0.19721,0.97939,-0.04355,0.12363,-0.10368,-0.09952
0.18157,0.98324,-0.01572,0.06852,-0.08025,-0.102
0.16163,0.98681,0.00812,0.1565,-0.07775,0.00929
0.1405,0.98956,0.03186,0.23192,-0.06788,0.00359
0.12,0.99113,0.0569,0.19923,-0.06782,-0.10753
0.1,0.99184,0.07902,0.23097,0.08412,-0.26635
0.08153,0.99219,0.09431,0.25981,0.29402,-0.14623
0.068,0.99247,0.1018,0.33721,0.17113,0.10689
0.05981,0.99289,0.10287,0.30563,0.16634,0.10458
0.05584,0.99331,0.101,0.10541,0.36368,-0.14281
0.05395,0.99457,0.08889,0.21436,0.31379,-0.08633
0.05563,0.99673,0.05843,0.38686,0.18819,0.03939
0.06812,0.99763,0.00846,0.36007,0.07835,0.1253
0.09302,0.99428,-0.05241,0.22459,0.002,0.07189
0.12695,0.98519,-0.11518,-0.01442,0.54929,0.22593
0.15854,0.97144,-0.17653,-0.22017,0.90513,0.33545
0.17315,0.95575,-0.23782,-0.69002,0.87279,0.42783
0.18537,0.93862,-0.29091,-0.1939,0.37217,0.08592
0.21266,0.91963,-0.33024,0.30707,0.31983,-0.0151
0.25084,0.89687,-0.36426,0.28752,0.27036,-0.00306
0.27934,0.87147,-0.40311,0.1444,0.0506,0.22211
0.29849,0.84554,-0.44266,0.02928,-0.10529,0.49489
0.31475,0.82304,-0.47279,-0.12489,-0.20394,0.63606
0.32343,0.80428,-0.49852,-0.40745,-0.31935,0.63535
0.31839,0.78965,-0.52447,-0.57177,-0.406,0.61839
0.30691,0.779,-0.54677,-0.55892,-0.4118,0.49567
0.29314,0.77257,-0.5632,-0.58495,-0.37821,0.57555
0.27688,0.76817,-0.57727,-0.35973,-0.37323,0.603
0.26916,0.76963,-0.57897,-0.29196,-0.38214,0.5039
0.27219,0.77899,-0.56487,-0.36454,-0.41374,0.4014
0.28019,0.79563,-0.53708,-0.35789,-0.42144,0.34826
0.28515,0.81865,-0.49849,-0.30664,-0.20772,0.10292
0.28074,0.84523,-0.45472,0.00345,0.14606,-0.30013
0.26414,0.86736,-0.42179,0.63462,1.03418,-0.97712
0.24284,0.86834,-0.43244,1.40339,1.54485,-0.94497
0.2517,0.84437,-0.47295,0.57029,0.11811,-0.63374
0.26173,0.82205,-0.50569,0.26722,-0.46663,-0.59833
0.2552,0.81231,-0.52443,0.10212,-0.24131,0.60779
0.2667,0.81849,-0.50886,0.07455,0.22678,1.00366
0.29978,0.83247,-0.46596,-0.13091,0.54997,0.96272
0.32322,0.83879,-0.43813,-0.45848,1.89797,-0.44395
0.32408,0.8333,-0.44785,-0.61078,-0.3442,0.07003
0.32623,0.83545,-0.44225,-0.6722,-0.5379,0.49955
0.32215,0.85104,-0.41467,-0.35782,-0.50526,1.15002
0.3112,0.87652,-0.36724,-0.0538,0.16319,0.91914
0.2909,0.89895,-0.32749,0.112,0.63285,0.61798
0.28394,0.913,-0.29293,0.38784,0.35264,0.04544
0.28127,0.92595,-0.25197,-0.0907,-0.16899,0.14461
0.27192,0.9386,-0.21234,-0.22941,-0.19351,0.22322
0.25755,0.94969,-0.1782,-0.41748,-0.20745,0.2767
0.24232,0.95876,-0.14846,-0.15599,-0.18499,0.3455
0.2305,0.96583,-0.11845,-0.00914,-0.17195,0.30601
0.22059,0.9713,-0.0889,0.09037,-0.18035,0.24166
0.21034,0.97574,-0.06067,0.14491,-0.15771,-0.08093
0.19814,0.97961,-0.03294,0.17127,-0.14206,-0.13182
0.18196,0.98327,-0.00742,0.1846,-0.12158,-0.17071
0.16292,0.98653,0.01441,0.26953,-0.06801,-0.04613
0.14339,0.98898,0.03675,0.36462,-0.13691,-0.01247
0.12573,0.9902,0.06064,0.33987,-0.10806,-0.05954
0.10925,0.99069,0.08109,0.21585,0.12709,-0.24258
0.09465,0.99109,0.09366,0.21784,0.24205,-0.19323
0.08387,0.99164,0.09797,0.24227,0.24472,-0.08358
0.07709,0.99214,0.09849,0.171,0.29076,-0.06664
0.07487,0.9924,0.09753,0.02605,0.45831,-0.1952
0.07148,0.9937,0.0862,0.23667,0.33064,-0.07512
0.07128,0.99581,0.05723,0.41928,0.24244,0.04375
0.08173,0.99661,0.00864,0.35235,-0.03583,0.23393
0.10607,0.99289,-0.05382,0.14605,-0.14664,0.08119
0.14167,0.9831,-0.1159,-0.18461,0.44871,0.13548
0.17675,0.96809,-0.17765,-0.34775,0.89089,0.26519
0.19324,0.95139,-0.23979,-0.58628,1.17852,0.51401
0.20501,0.93389,-0.29293,-0.53439,0.66154,0.39919
0.23323,0.91407,-0.33176,0.02163,0.37305,0.13992
0.26888,0.891,-0.36582,0.24476,0.27601,0.01924
0.29283,0.86523,-0.40698,0.12526,0.04928,0.148
0.30874,0.83758,-0.4507,0.08326,-0.01644,0.30641
0.32359,0.81226,-0.4853,-0.14152,-0.1318,0.64637
0.3341,0.79129,-0.51208,-0.40032,-0.23673,0.67796
0.33434,0.77456,-0.5369,-0.73438,-0.3822,0.60322
0.32235,0.76436,-0.55842,-0.62928,-0.39914,0.56263
0.30721,0.75683,-0.57691,-0.93894,-0.53196,0.49439
0.28813,0.75074,-0.59445,-0.10131,-0.3117,0.61827
0.27377,0.75494,-0.59591,-0.19358,-0.39498,0.47446
0.27217,0.76609,-0.58225,-0.23512,-0.37823,0.35716
0.27722,0.78257,-0.55742,-0.25141,-0.37057,0.27234
0.28307,0.80503,-0.52134,-0.25972,-0.29554,0.09594
0.28207,0.83285,-0.47622,-0.11131,-0.06135,-0.20704
0.26984,0.85856,-0.43595,0.49019,0.63155,-0.63747
0.24814,0.86583,-0.43446,1.11482,1.63939,-0.89502
0.25279,0.84488,-0.47146,0.79632,0.66378,-0.64797
0.26232,0.82002,-0.50868,0.11979,-0.5464,-0.60419
0.25382,0.80668,-0.5337,0.00378,-0.36219,0.28344
0.25893,0.81,-0.52617,0.04322,0.15256,0.82235
0.28563,0.82723,-0.48384,-0.07686,0.23706,0.87125
0.31481,0.84086,-0.44028,-0.29587,1.3912,-0.06127
0.31818,0.83824,-0.44284,-0.35827,0.59461,0.04899
0.33041,0.83747,-0.43527,-0.5387,-0.56637,0.22756
0.32821,0.84993,-0.41219,-0.58873,-0.38714,0.778
0.31409,0.87182,-0.37586,-0.34784,-0.37064,1.03787
0.29393,0.89479,-0.33609,0.01569,0.45646,0.6102
0.27469,0.91166,-0.30562,0.45565,0.76499,0.18346
0.26893,0.9238,-0.2725,0.24948,0.08535,0.07462
0.26438,0.93558,-0.23404,-0.17492,-0.18592,0.21169
0.25367,0.94613,-0.20121,-0.31182,-0.22965,0.27871
0.24146,0.95466,-0.17411,-0.19231,-0.23646,0.35664
0.23276,0.96143,-0.14652,-0.07165,-0.18671,0.35732
0.22741,0.96658,-0.11828,0.03944,-0.12241,0.32208
0.22144,0.97087,-0.09141,0.073,-0.10109,-0.05566
0.21397,0.97474,-0.06398,0.08917,-0.13524,-0.12209
0.20296,0.97845,-0.0378,0.09734,-0.11671,-0.16517
0.18857,0.98194,-0.01495,0.23674,-0.05353,0.06759
0.17321,0.98486,0.00604,0.24535,-0.10544,0.11105
0.15696,0.98721,0.02758,0.15174,-0.09671,0.01047
0.13886,0.989,0.05093,0.13322,-0.04785,-0.13836
0.11848,0.99025,0.07317,0.16699,0.08235,-0.30077
0.09991,0.99104,0.08861,0.2485,0.21041,-0.17536
0.08734,0.99159,0.09549,0.37036,0.11462,0.13925
0.07975,0.99215,0.09627,0.28466,0.17757,0.07933
0.07906,0.99244,0.09377,0.07897,0.52115,-0.17383
0.08095,0.99353,0.07959,0.20506,0.38777,-0.09581
0.08635,0.99514,0.04729,0.39398,0.19184,0.08178
0.10256,0.99472,-0.00371,0.35859,0.17441,0.26122
0.12909,0.98943,-0.06593,0.09925,0.20069,0.14979
0.16348,0.97834,-0.12699,-0.29733,0.43277,0.18714
0.19101,0.96328,-0.18869,-0.6407,1.03802,0.26973
0.19991,0.94732,-0.25024,-0.66263,0.85386,0.37509
0.20956,0.92995,-0.30211,-0.11372,0.27063,0.16811
0.23297,0.90936,-0.34464,0.3315,0.23881,0.10674
0.26574,0.88436,-0.38378,0.26303,0.27979,0.02869
0.28868,0.85846,-0.42391,0.08933,0.12942,0.24973
0.3033,0.83324,-0.46229,-0.02766,-0.04674,0.48102
0.31391,0.81194,-0.49214,-0.16513,-0.1653,0.60216
0.31784,0.79434,-0.51768,-0.28118,-0.27951,0.60054
0.31291,0.78079,-0.54079,-0.32315,-0.32194,0.60229
0.30051,0.77173,-0.56046,-0.44336,-0.37356,0.56187
0.28603,0.76619,-0.57545,-0.58976,-0.40934,0.56535
0.27394,0.76445,-0.58358,-0.56261,-0.41783,0.60109
0.26772,0.76739,-0.58261,-0.40187,-0.40126,0.52641
0.26764,0.77499,-0.5725,-0.30919,-0.37217,0.41176
0.27511,0.78865,-0.54985,-0.29513,-0.37282,0.24931
0.2836,0.80938,-0.51427,-0.27479,-0.25118,0.10663
0.28428,0.83577,-0.46975,-0.07321,0.0134,-0.14998
0.27294,0.85964,-0.43188,0.4351,0.58767,-0.61458
0.25805,0.86431,-0.4317,1.01236,1.59057,-0.93413
0.27106,0.84241,-0.46569,0.88418,0.73464,-0.59741
0.28856,0.82067,-0.49319,0.19774,-0.36014,-0.65228
0.28454,0.81048,-0.51201,-0.15845,-0.4257,0.20616
0.28431,0.81328,-0.50768,-0.08309,0.15916,0.76274
0.3038,0.82702,-0.47302,-0.11871,0.59204,0.90414
0.33596,0.83254,-0.44045,-0.09043,1.37766,0.05321
0.34962,0.82746,-0.43939,-0.37022,0.34757,0.32323
0.35608,0.82792,-0.4333,-0.73699,-0.47179,0.01124
0.34734,0.84003,-0.41678,-0.68289,-0.44963,0.79913
0.33607,0.86351,-0.37604,-0.39998,-0.27734,1.05847
0.31837,0.88632,-0.33627,0.25672,0.75977,0.44064
0.30537,0.90173,-0.30599,0.3798,0.32332,0.08094
0.30487,0.91292,-0.27134,-0.06162,-0.14466,0.09981
0.30064,0.92437,-0.23484,-0.31212,-0.21068,0.25828
0.28952,0.93547,-0.20266,-0.30311,-0.19685,0.29165
0.2773,0.94492,-0.17387,-0.16701,-0.12616,0.2854
0.26686,0.95257,-0.14622,-0.06244,-0.12605,0.26104
0.25835,0.95894,-0.11697,0.10187,-0.18662,0.22412
0.24955,0.96431,-0.08843,0.09307,-0.13716,0.09028
0.24116,0.9686,-0.06038,0.13579,-0.09877,-0.04485
0.22985,0.97268,-0.03249,0.10255,-0.10267,-0.09329
0.21379,0.97684,-0.00857,0.12908,-0.08464,-0.06275
0.19563,0.98057,0.01436,0.21797,-0.1001,0.04811
0.17813,0.98324,0.03879,0.2943,-0.02631,0.01959
0.16183,0.98471,0.06447,0.25929,0.0452,-0.08662
0.14472,0.98573,0.08588,0.21052,0.13069,-0.31386
0.12903,0.98662,0.0996,0.21481,0.2556,-0.18986
0.11723,0.98764,0.10405,0.24934,0.1363,0.12944
0.11015,0.98856,0.103,0.1725,0.21719,0.0812
0.10874,0.9889,0.10125,-0.11345,0.57736,-0.14973
0.1061,0.99015,0.09134,0.06466,0.41737,-0.1988
0.10487,0.99225,0.06661,0.4847,0.14894,-0.02263
0.11302,0.99333,0.02252,0.41969,-0.01283,0.1633
0.13356,0.9904,-0.03557,0.26068,-0.11761,0.11664
0.16462,0.98158,-0.0969,-0.04264,0.16992,0.15802
0.19509,0.96782,-0.15892,-0.57136,1.13499,0.33638
0.20864,0.9524,-0.22225,-0.6852,1.27888,0.51871
0.21495,0.93658,-0.2768,-0.65019,0.96755,0.50312
0.23362,0.91854,-0.31889,0.2157,0.24393,-0.00525
0.26822,0.89576,-0.35448,0.1811,0.26671,0.03034
0.29805,0.87077,-0.39104,0.05186,0.24838,0.04828
0.31337,0.8457,-0.43196,0.01396,-0.08329,0.43101
0.3243,0.82327,-0.46588,-0.05144,-0.13722,0.5549
0.329,0.80473,-0.49413,-0.10516,-0.17837,0.62157
0.32355,0.78865,-0.52282,-0.44829,-0.37572,0.64079
0.30868,0.7768,-0.54891,-0.45736,-0.33655,0.61975
0.29342,0.76837,-0.56878,-0.56715,-0.33844,0.59161
0.27955,0.76515,-0.58,-0.51804,-0.39332,0.52189
0.26869,0.7662,-0.58372,-0.44691,-0.39212,0.55133
0.26528,0.7716,-0.57815,-0.25244,-0.29333,0.46121
0.27115,0.78291,-0.55994,-0.30003,-0.34729,0.30304
0.27972,0.80075,-0.52967,-0.30046,-0.31151,0.19314
0.28401,0.82444,-0.48952,-0.2671,-0.21106,0.0088
0.27758,0.85073,-0.44632,0.07586,0.05257,-0.35988
0.25863,0.86892,-0.42199,0.62728,0.96471,-0.87606
0.2507,0.85764,-0.44899,1.00693,1.00117,-0.63678
0.26662,0.83286,-0.48502,0.21717,-0.37994,-0.66816
0.27254,0.81583,-0.51004,-0.00081,-0.60474,-0.4331
0.26474,0.81141,-0.52108,-0.0739,0.08002,0.77564
0.27519,0.8204,-0.5012,-0.1084,0.2977,0.8718
0.30486,0.82998,-0.4671,-0.35105,0.99259,0.73149
0.31793,0.82796,-0.46194,-0.37278,0.28208,0.2158
0.33272,0.8231,-0.46022,-0.37169,-0.56623,0.27916
0.33745,0.83049,-0.44318,-0.64562,-0.43573,0.54567
0.33232,0.84935,-0.41007,-0.27722,-0.2592,1.12479
0.3212,0.87445,-0.36355,0.04625,0.62892,0.63059
0.3038,0.89446,-0.32808,0.40541,0.77226,0.18243
0.29916,0.90674,-0.29718,0.15132,0.0016,0.0261
0.29779,0.91839,-0.26053,-0.25208,-0.12804,0.25703
0.28852,0.9304,-0.22608,-0.358,-0.1635,0.32372
0.27466,0.94113,-0.19706,-0.29857,-0.21309,0.29784
0.26273,0.95014,-0.16791,-0.09835,-0.24308,0.37377
0.25427,0.95741,-0.13675,0.05607,-0.16457,0.33645
0.24618,0.96334,-0.10661,0.04674,-0.07016,0.1936
0.2363,0.96852,-0.07831,0.03689,-0.1132,-0.03542
0.22412,0.97326,-0.05024,0.05198,-0.08857,-0.1378
0.20883,0.9776,-0.02602,0.10652,-0.05278,-0.07584
0.19323,0.98114,-0.00519,0.25439,-0.07324,0.05524
0.17788,0.98392,0.0161,0.20035,-0.05282,0.04032
0.1626,0.98591,0.03909,0.15923,0.01247,-0.05485
0.14462,0.98762,0.06065,0.14275,0.03203,-0.22014
0.1254,0.98915,0.07641,0.18315,0.08486,-0.30633
0.11032,0.99022,0.08535,0.27951,0.14326,-0.04266
0.10075,0.991,0.08814,0.31263,0.10542,0.1528
0.09695,0.99138,0.08805,0.22611,0.31582,0.01398
0.09782,0.99173,0.08309,0.11838,0.54839,-0.12812
0.09955,0.993,0.06352,0.45548,0.25741,0.04895
0.10734,0.9939,0.0254,0.41926,0.16741,0.09092
0.12672,0.99153,-0.02827,0.37043,0.11745,0.15701
0.15364,0.98405,-0.08965,-0.05626,0.12307,0.15351
0.18409,0.97123,-0.15106,-0.19835,0.35784,0.22072
0.20505,0.95492,-0.21464,-0.34126,0.71866,0.30282
0.21251,0.93766,-0.27499,-0.47686,0.41605,0.33794
0.22745,0.91866,-0.323,-0.19972,0.23158,0.24416
0.25895,0.89557,-0.36179,0.05213,0.20947,0.19315
0.29635,0.87003,-0.39399,0.11251,0.26295,0.07456
0.31914,0.84542,-0.42826,0.09095,0.19384,0.21741
0.33288,0.82093,-0.46396,0.06317,0.08179,0.34327
0.34074,0.79941,-0.49481,-0.17375,-0.25966,0.61749
0.33897,0.78169,-0.5235,-0.29522,-0.29707,0.62824
0.32363,0.76968,-0.55032,-0.4849,-0.37699,0.59906
0.30414,0.76149,-0.57239,-0.53137,-0.36215,0.55322
0.28416,0.7579,-0.58723,-0.55481,-0.35394,0.54156
0.26815,0.75808,-0.59448,-0.44168,-0.32164,0.53095
0.25911,0.76163,-0.59395,-0.27542,-0.25499,0.47945
0.26174,0.7704,-0.58136,-0.27701,-0.24495,0.42917
0.271,0.78503,-0.55703,-0.31122,-0.24232,0.30953
0.27819,0.80595,-0.52255,-0.29893,-0.20028,0.08407
0.27537,0.83178,-0.48198,-0.21116,-0.16598,-0.10199
0.2602,0.85681,-0.44516,0.54544,0.56174,-0.68161
0.23897,0.86366,-0.44383,1.03048,1.62851,-0.75834
0.24311,0.84191,-0.48175,1.13762,1.53221,-0.62088
0.26089,0.82231,-0.50571,-0.02395,-0.52527,-0.53746
0.26603,0.81267,-0.51845,-0.23661,-0.55176,0.15509
0.26185,0.81567,-0.51586,-0.09965,0.15694,0.68695
0.2718,0.83133,-0.48478,-0.23564,0.43684,0.89548
0.29235,0.843,-0.45153,-0.19138,1.3077,0.11433
0.30351,0.83941,-0.45086,-0.11736,1.17774,-0.00974
0.32118,0.83423,-0.44821,-0.38167,-0.62743,0.37955
0.3332,0.84292,-0.42244,-0.63571,-0.54971,0.60652
0.32734,0.86121,-0.38879,-0.45119,-0.59136,0.94447
0.31439,0.88399,-0.346,0.00111,0.25366,0.71041
0.29734,0.90285,-0.31054,0.34418,0.76952,0.35997
0.28948,0.91609,-0.27744,0.31831,0.32056,0.08373
0.28659,0.92716,-0.24132,-0.14732,-0.12929,0.09696
0.2779,0.93792,-0.20755,-0.32315,-0.23042,0.24173
0.26528,0.94755,-0.17823,-0.35731,-0.22018,0.25776
0.2521,0.95567,-0.15209,-0.22844,-0.19663,0.26761
0.24219,0.96209,-0.12543,0.07485,-0.25689,0.28663
0.2349,0.96725,-0.09615,0.15556,-0.18353,0.1949
0.22748,0.97153,-0.06624,0.17473,-0.03999,0.01245
0.21703,0.97547,-0.03681,0.09054,-0.08745,-0.10182
0.20355,0.97902,-0.00953,0.0582,-0.07725,-0.06061
0.18906,0.98185,0.0152,0.16898,-0.02457,0.02099
0.17479,0.98381,0.03959,0.21877,0.06484,0.01875
0.1599,0.98503,0.06443,0.17578,0.07245,-0.0539
0.14195,0.98615,0.08582,0.13001,0.06248,-0.14136
0.12361,0.98727,0.10003,0.24893,0.21387,-0.22306
0.10966,0.98834,0.1056,0.36391,0.18076,-0.01164
0.10101,0.98944,0.10394,0.47293,0.13222,0.18536
0.09998,0.98982,0.10131,-0.03583,0.51569,-0.30349
0.09988,0.99076,0.09176,0.01768,0.46617,-0.3092
0.09967,0.99293,0.06445,0.25146,0.28603,-0.19084
0.10819,0.994,0.01582,0.39672,-0.05881,0.21262
0.12785,0.99069,-0.0467,0.30667,-0.2363,0.18754
0.15832,0.98109,-0.11129,-0.00491,0.51561,0.16209
0.19014,0.96616,-0.17427,-0.51741,1.33581,0.41963
0.20285,0.95021,-0.23654,-0.8188,1.03951,0.57748
0.20889,0.93329,-0.29211,-0.26133,0.31544,0.13932
0.23063,0.91406,-0.33362,0.212,0.3042,0.00301
0.26959,0.88981,-0.36817,0.18653,0.34522,-0.04399
0.30298,0.86204,-0.40632,0.03589,0.18948,0.10773
0.3216,0.83433,-0.44772,-0.0127,-0.00421,0.46753
0.33823,0.81021,-0.4787,-0.07787,-0.06302,0.57427
0.34712,0.79032,-0.50488,-0.36352,-0.21487,0.6204
0.3402,0.7742,-0.53374,-0.39313,-0.27837,0.65367
0.32428,0.76268,-0.55961,-0.42906,-0.29892,0.65496
0.30588,0.7552,-0.57975,-0.53005,-0.41981,0.55146
0.2888,0.75233,-0.59211,-0.50908,-0.41723,0.58014
0.27891,0.75386,-0.5949,-0.45576,-0.43355,0.56763
0.27587,0.76169,-0.58627,-0.32915,-0.41652,0.465
0.2789,0.77641,-0.56515,-0.34693,-0.39163,0.33275
0.28319,0.79797,-0.53202,-0.37433,-0.33002,0.154
0.28109,0.82609,-0.48843,-0.21027,-0.11465,-0.12079
0.26816,0.85498,-0.44395,0.40359,0.48752,-0.54591
0.24752,0.86781,-0.43085,1.02445,1.81287,-1.1691
0.25016,0.84675,-0.46951,1.03319,1.14749,-0.62069
0.26948,0.82253,-0.50083,0.08783,-0.44198,-0.68008
0.27074,0.80971,-0.52064,-0.17293,-0.28783,0.18776
0.26438,0.80972,-0.52388,-0.16303,0.30769,0.99387
0.28299,0.81745,-0.50168,-0.1439,1.10245,0.29755
0.31474,0.81558,-0.48556,-0.34889,1.30476,-0.21635
0.33032,0.81356,-0.47855,-0.34025,0.26725,0.33558
0.33379,0.81821,-0.46809,-0.51691,-0.32474,0.83151
0.32815,0.83462,-0.44241,-0.41639,-0.38151,0.96414
0.31972,0.85961,-0.39856,-0.26395,-0.24201,0.99662
0.30191,0.88385,-0.35729,0.40419,0.72343,0.34501
0.29382,0.89971,-0.3228,0.40294,0.44668,0.15659
0.29288,0.91207,-0.28695,0.21725,0.09807,0.06591
0.28446,0.92617,-0.24755,-0.32784,-0.20472,0.34354
0.2701,0.9389,-0.21334,-0.3297,-0.19885,0.27574
0.25594,0.94892,-0.18452,-0.29194,-0.18338,0.25846
0.24604,0.95671,-0.15547,0.04074,-0.18921,0.30429
0.23808,0.96307,-0.12577,0.05965,-0.14802,0.2322
0.23011,0.9682,-0.09821,0.07592,-0.15031,0.1596
0.22103,0.97272,-0.07044,0.13665,-0.11107,-0.06749
0.20797,0.97718,-0.04308,0.1176,-0.10029,-0.06503
0.19087,0.98144,-0.0182,0.11432,-0.10217,-0.06162
0.17317,0.98487,0.0068,0.17357,0.0085,0.05427
0.15615,0.98715,0.03385,0.16935,0.02063,-0.00945
0.13859,0.98857,0.05935,0.11333,-0.01529,-0.13401
0.11978,0.98989,0.07597,0.23276,0.21789,-0.2918
0.10425,0.991,0.08392,0.26568,0.2608,-0.18814
0.0944,0.99189,0.08513,0.34328,0.1755,0.13733
0.08966,0.99251,0.08292,0.15923,0.41819,-0.06675
0.08883,0.99324,0.07465,0.08814,0.51844,-0.17397
0.08934,0.99464,0.052,0.38208,0.19645,0.02185
0.09811,0.99513,0.00875,0.36965,0.09109,0.14302
0.11853,0.9917,-0.04969,0.3288,0.05902,0.22736
0.14928,0.9822,-0.11405,-0.0965,0.14027,0.14295
0.18333,0.96723,-0.17566,-0.36207,0.88391,0.23528
0.20319,0.94966,-0.23845,-0.63712,1.25499,0.48348
0.21288,0.93152,-0.29487,-0.49372,0.42323,0.32252
0.23366,0.9118,-0.33767,0.10725,0.30295,0.11185
0.26853,0.88831,-0.37256,0.3362,0.32826,0.03399
0.30289,0.86232,-0.40578,0.18404,0.2243,0.04917
0.32321,0.83618,-0.4431,0.06795,0.04665,0.30864
0.33832,0.81157,-0.47634,-0.04697,-0.0832,0.53685
0.34775,0.79075,-0.50377,-0.27077,-0.16374,0.60653
0.3439,0.77398,-0.53169,-0.37193,-0.22686,0.65603
0.33201,0.7612,-0.55709,-0.5133,-0.32098,0.61043
0.31695,0.75327,-0.5763,-0.53277,-0.36654,0.55936
0.3019,0.75049,-0.58789,-0.5217,-0.41963,0.56833
0.28955,0.7517,-0.59254,-0.39604,-0.38219,0.57703
0.28415,0.75687,-0.58856,-0.32346,-0.34296,0.49721
0.28492,0.76687,-0.57509,-0.31432,-0.33197,0.32883
0.28835,0.78298,-0.55118,-0.30818,-0.31293,0.23854
0.28878,0.80589,-0.51686,-0.29555,-0.29268,0.10753
0.27852,0.83286,-0.47829,0.36886,0.44224,-0.5013
0.2554,0.85378,-0.45369,0.39198,0.42133,-0.52591
0.24054,0.84834,-0.47165,1.19236,1.54729,-0.82271
0.25417,0.82457,-0.50545,0.28925,-0.20089,-0.53179
0.26753,0.80649,-0.52726,0.27588,-0.1828,-0.50997
0.26269,0.80069,-0.53841,-0.18129,-0.17352,0.44687
0.26603,0.80805,-0.52564,-0.14043,0.39925,1.09073
0.29112,0.82116,-0.49086,-0.22569,0.70838,0.90451
0.31087,0.82594,-0.4703,-0.2652,1.02146,0.30368
0.30856,0.82191,-0.47881,-0.50957,-0.20886,0.22552
0.30602,0.82554,-0.47416,-0.56188,-0.35554,0.49206
0.29991,0.84036,-0.4515,-0.35185,-0.4517,0.96508
0.29459,0.86318,-0.41004,-0.04482,-0.13865,0.99507
0.28596,0.8853,-0.36671,0.24584,0.52938,0.50411
0.28468,0.9007,-0.32816,0.39612,0.47801,0.17458
0.28808,0.91314,-0.28841,0.05754,-0.05493,0.19965
0.28404,0.92531,-0.25125,-0.2809,-0.17824,0.21454
0.2743,0.93599,-0.22062,-0.34857,-0.16254,0.23626
0.26303,0.94518,-0.19352,-0.24519,-0.16086,0.27069
0.25252,0.95332,-0.16555,-0.12678,-0.13281,0.24911
0.24329,0.9601,-0.13793,0.06537,-0.1723,0.21597
0.2349,0.96564,-0.11116,0.11557,-0.13631,0.16658
0.22627,0.9705,-0.08321,0.18428,-0.09475,0.06251
0.2129,0.9755,-0.05542,0.04224,-0.10843,-0.03992
0.19518,0.98036,-0.02824,0.01815,-0.07205,-0.0087
0.1762,0.98435,0.00089,0.13728,-0.00159,0.10504
0.15806,0.98695,0.03068,0.18854,0.10001,-0.11699
0.13992,0.98856,0.05633,0.13328,0.13835,-0.34379
0.12155,0.99005,0.07086,0.24221,0.256,-0.20563
0.10716,0.99138,0.07537,0.40054,0.15134,0.14278
0.09752,0.99248,0.07391,0.44356,0.08746,0.18439
0.09486,0.99283,0.07267,0.1389,0.46821,-0.12879
0.09576,0.99317,0.06661,0.06986,0.51237,-0.14945
0.09617,0.9942,0.04804,0.35712,0.27946,0.03167
0.10165,0.99475,0.01186,0.33431,0.1157,0.12978
0.11697,0.99232,-0.0402,0.22111,-0.11964,0.16155
0.14082,0.98498,-0.0999,-0.00363,-0.10864,0.09914
0.16922,0.97241,-0.16057,-0.20448,0.40009,0.19919
0.19041,0.9558,-0.22404,-0.45816,1.14772,0.38046
0.19854,0.93847,-0.28257,-0.58666,0.80054,0.48905
0.21138,0.9204,-0.32892,-0.11376,0.29968,0.19707
0.24102,0.89964,-0.36408,0.25438,0.27994,0.05199
0.27689,0.87592,-0.39509,0.19566,0.24126,0.03645
0.29974,0.85154,-0.43016,0.1142,0.17605,0.13345
0.31332,0.82783,-0.46532,-0.00199,-0.09869,0.47309
0.32172,0.80766,-0.49414,-0.21671,-0.26209,0.64896
0.32211,0.79079,-0.52047,-0.35142,-0.31792,0.64733
0.311,0.77841,-0.5453,-0.40336,-0.38141,0.68493
0.29603,0.77072,-0.56422,-0.54224,-0.41141,0.51307
0.28208,0.76795,-0.57505,-0.52044,-0.41692,0.49879
0.27157,0.76924,-0.57837,-0.49713,-0.4026,0.50261
0.26669,0.77325,-0.57529,-0.31226,-0.35611,0.38919
0.26968,0.7822,-0.56163,-0.29893,-0.33033,0.34989
0.27919,0.79746,-0.53489,-0.31328,-0.32505,0.29258
0.28533,0.81921,-0.49747,-0.25229,-0.14722,-0.00276
0.28028,0.84492,-0.45557,-0.07735,-0.02599,-0.18904
0.26234,0.86613,-0.42544,0.20597,0.19222,-0.39591
0.24297,0.86543,-0.43817,1.22849,1.30371,-0.7047
0.25545,0.84311,-0.47319,0.82919,0.67091,-0.61947
0.27246,0.82432,-0.49624,0.41463,-0.01166,-0.64973
0.27283,0.81791,-0.50654,-0.13948,0.32019,0.76833
0.27668,0.82297,-0.49615,-0.09065,0.62669,0.92336
0.30627,0.82341,-0.4777,-0.00093,1.45139,0.14239
0.33994,0.81442,-0.47027,-0.49727,-0.42803,0.55692
0.3497,0.8156,-0.46098,-0.95886,-0.53334,-0.28493
0.32991,0.82449,-0.45976,-0.55836,-0.51754,1.04823
0.31517,0.84791,-0.42628,-0.11192,-0.00843,1.14439
0.29942,0.87628,-0.37746,0.06143,0.52001,0.76535
0.28989,0.89553,-0.33762,0.68126,0.64713,0.19606
0.29726,0.90696,-0.29841,0.07243,-0.10115,0.0333
0.29562,0.91998,-0.25737,-0.18518,-0.11885,0.1345
0.28014,0.9338,-0.22257,-0.35258,-0.20334,0.29887
0.26171,0.94584,-0.19208,-0.27187,-0.20289,0.31642
0.24631,0.95542,-0.16282,-0.09528,-0.17075,0.39245
0.23548,0.96288,-0.13196,-0.01355,-0.09099,0.21832
0.22503,0.96899,-0.10203,0.07525,-0.06369,-0.01576
0.21388,0.97417,-0.07245,0.1017,-0.07767,-0.10075
0.19987,0.97883,-0.04396,0.11033,-0.13342,-0.08771
0.18283,0.98294,-0.02007,0.18581,-0.16719,-0.03348
0.1644,0.98639,0.00259,0.23875,-0.12227,0.04059
0.14631,0.98885,0.02775,0.09531,-0.07572,-0.08759
0.1281,0.99035,0.05282,0.08113,-0.06179,-0.19339
0.1089,0.99152,0.0709,0.32489,0.24298,-0.14322
0.0918,0.99263,0.07914,0.41606,0.11777,0.13291
0.07981,0.99358,0.08017,0.31959,0.06942,0.11661
0.07426,0.99402,0.08002,0.04344,0.43765,-0.13876
0.07354,0.99445,0.07515,0.09098,0.44674,-0.08513
0.07373,0.99569,0.05619,0.34561,0.24054,0.03947
0.08009,0.99665,0.01675,0.35022,0.06732,0.22622
0.0986,0.99427,-0.04127,0.1907,0.06072,0.14013
0.13103,0.9856,-0.10685,-0.23579,0.38285,0.15295
0.16978,0.9707,-0.17003,-0.59895,1.08718,0.25777
0.19395,0.95284,-0.2334,-0.69965,1.19584,0.46451
0.20651,0.9347,-0.28928,-0.28584,0.46145,0.18784
0.22965,0.91544,-0.33051,0.31356,0.31017,0.05718
0.2646,0.89247,-0.36535,0.3667,0.30016,0.00506
0.29453,0.86659,-0.40283,0.14973,0.14577,0.13536
0.31023,0.83883,-0.44734,0.04121,0.0826,0.28982
0.32266,0.81293,-0.4848,-0.21447,-0.1272,0.64192
0.33299,0.79186,-0.51193,-0.39058,-0.25892,0.6688
0.33438,0.77482,-0.5365,-0.52751,-0.3477,0.65569
0.32533,0.76351,-0.55786,-0.56784,-0.46937,0.54211
0.31343,0.75723,-0.57302,-0.55485,-0.43509,0.4887
0.30012,0.75536,-0.58254,-0.46177,-0.37963,0.57276
0.29022,0.75662,-0.58591,-0.32989,-0.37215,0.53902
0.28832,0.76246,-0.57924,-0.3141,-0.41595,0.42493
0.29258,0.77585,-0.55898,-0.32633,-0.40793,0.30368
0.29746,0.79734,-0.52513,-0.33552,-0.33018,0.13709
0.29509,0.82491,-0.48212,-0.11393,-0.06802,-0.07373
0.28081,0.85237,-0.44114,0.43554,0.5883,-0.55402
0.25538,0.86843,-0.42499,1.13825,1.6343,-1.02826
0.25339,0.85396,-0.45446,0.8851,0.77882,-0.62606
0.27877,0.83086,-0.48162,0.21006,-0.39812,-0.57988
0.29227,0.81777,-0.49581,-0.08669,-0.35816,0.20529
0.29334,0.81774,-0.49523,-0.10234,0.28922,0.96425
0.30836,0.82787,-0.46855,-0.26022,0.99999,0.9241
0.32757,0.83328,-0.44536,-0.57494,0.56803,0.12608
0.33059,0.82801,-0.4529,-0.42452,-0.50667,0.29971
0.34026,0.8293,-0.44327,-0.74811,-0.5003,0.59344
0.33628,0.84257,-0.4207,-0.4263,-0.24968,1.19134
0.31836,0.86791,-0.38128,-0.09156,0.59116,0.67373
0.29198,0.89156,-0.34622,0.32687,0.76419,0.30139
0.27784,0.9076,-0.31473,0.16696,0.04123,0.11613
0.28076,0.91919,-0.27615,-0.17921,-0.15231,0.25751
0.28203,0.92962,-0.23719,-0.29255,-0.20683,0.29954
0.27422,0.93949,-0.20532,-0.14713,-0.20205,0.32864
0.2641,0.94799,-0.17766,0.02473,-0.21877,0.41103
0.25741,0.95472,-0.14913,0.0445,-0.24205,0.2907
0.25187,0.96039,-0.11923,0.00169,-0.10486,0.05717
0.24512,0.96533,-0.08975,0.08398,-0.06727,-0.10683
0.23489,0.97013,-0.06059,0.09008,-0.06043,-0.1295
0.22195,0.97443,-0.03502,0.24474,-0.06636,0.01464
0.2083,0.97798,-0.01271,0.22867,-0.05847,0.12607
0.19483,0.98079,0.00953,0.10872,0.00272,0.09636
0.18104,0.9829,0.03355,0.0534,0.03498,-0.08302
0.16358,0.98489,0.0568,0.06359,0.08077,-0.31661
0.14316,0.9869,0.07431,0.18552,0.14515,-0.3295
0.12296,0.98881,0.08442,0.34362,0.14559,-0.052
0.10643,0.99042,0.088,0.39476,0.0126,0.25099
0.09623,0.99157,0.08674,0.24507,0.05488,0.0941
0.09445,0.99189,0.08499,0.1117,0.26812,-0.0877
0.09592,0.99229,0.07848,0.10603,0.39644,-0.16582
0.09719,0.99359,0.05767,0.35442,0.15765,0.04255
0.10438,0.99438,0.0176,0.32856,0.04809,0.14434
0.12188,0.99184,-0.03723,0.12847,-0.14838,0.14647
0.14808,0.984,-0.09901,-0.00497,-0.00631,0.18406
0.17731,0.97095,-0.16066,-0.41858,1.04432,0.25186
0.19257,0.95557,-0.22314,-0.5102,0.73939,0.36196
0.20131,0.9396,-0.27681,-0.29977,0.44245,0.23168
0.22413,0.92141,-0.31743,0.11877,0.31731,0.02167
0.26055,0.89941,-0.35096,0.2259,0.37653,-0.04925
0.29321,0.87461,-0.38611,0.11925,0.20522,0.07716
0.31217,0.84922,-0.42588,0.05533,-0.01754,0.40432
0.3283,0.82543,-0.45921,-0.13051,-0.15261,0.59412
0.33955,0.80624,-0.48445,-0.31779,-0.2468,0.6487
0.34212,0.79008,-0.50865,-0.4984,-0.33433,0.59598
0.33254,0.77905,-0.5315,-0.48615,-0.36545,0.59162
0.31762,0.77244,-0.54996,-0.50821,-0.39182,0.52002
0.30199,0.76975,-0.5624,-0.47261,-0.42601,0.51021
0.29114,0.77094,-0.56647,-0.37206,-0.40787,0.49747
0.28751,0.77572,-0.56178,-0.33981,-0.39851,0.45352
0.2895,0.78479,-0.54799,-0.34292,-0.39623,0.30235
0.29374,0.80069,-0.52212,-0.32951,-0.3128,0.11311
0.29273,0.82448,-0.48429,-0.28496,-0.22827,-0.03649
0.27869,0.85288,-0.4415,0.44042,0.47463,-0.59593
0.25179,0.87429,-0.41498,1.18456,1.75924,-1.15397
0.23302,0.86734,-0.4398,1.35885,1.66307,-0.88569
0.25089,0.84186,-0.47784,0.10659,-0.58162,-0.63809
0.27335,0.8292,-0.48754,-0.16108,-0.3116,0.16244
0.27864,0.82643,-0.48925,-0.27336,0.61445,1.02787
0.28023,0.8269,-0.48755,-0.52787,1.31968,0.6879
0.28886,0.82505,-0.48564,-0.47502,0.82183,0.14692
0.29183,0.81875,-0.49446,-0.12484,-0.64409,0.46826
0.30442,0.82006,-0.48459,-0.43917,-0.30188,1.00197
0.30884,0.83368,-0.4578,-0.18801,-0.16485,1.23011
0.29993,0.85996,-0.41293,-0.03963,0.6773,0.67123
0.27892,0.88587,-0.37071,0.29472,0.80863,0.26428
0.26846,0.9044,-0.33164,0.10978,0.07212,0.21128
0.27186,0.91788,-0.28913,-0.32006,-0.10503,0.33325
0.27182,0.93009,-0.24706,-0.42096,-0.12002,0.31439
0.26296,0.94087,-0.21358,-0.27868,-0.17205,0.26546
0.25188,0.95003,-0.18439,0.0126,-0.15512,0.3234
0.24402,0.95705,-0.15653,0.04203,-0.31087,0.27643
0.23625,0.96309,-0.12899,-0.00125,-0.25594,0.14776
0.22652,0.96867,-0.10184,0.11299,-0.12499,0.02321
0.21321,0.97424,-0.0735,0.17031,-0.10378,-0.01984
0.19615,0.97958,-0.04421,0.22787,-0.12823,-0.00565
0.17764,0.98393,-0.01813,0.24637,-0.13258,-0.03173
0.15971,0.98713,0.00724,0.13431,-0.08651,-0.0602
0.14202,0.9893,0.03327,0.06402,-0.01762,-0.14114
0.12303,0.99083,0.05588,0.10235,0.0617,-0.20277
0.10387,0.99206,0.07093,0.27151,0.29861,-0.21038
0.08908,0.993,0.07758,0.42502,0.13625,0.11647
0.08045,0.99384,0.07621,0.41796,0.19281,0.0569
0.07826,0.99444,0.07044,0.13505,0.46107,-0.17348
0.07785,0.9954,0.05583,0.2311,0.36425,-0.11119
0.07946,0.99654,0.02449,0.34207,0.29936,-0.0639
0.09031,0.99555,-0.02691,0.34864,-0.07903,0.24642
0.11294,0.9893,-0.09235,0.26116,0.09835,0.20249
0.14574,0.97637,-0.15955,0.0666,0.38809,0.27427
0.17487,0.95822,-0.22634,-0.62749,1.29005,0.46773
0.18715,0.93907,-0.28829,-0.66913,0.90951,0.4917
0.20074,0.91901,-0.33928,-0.07343,0.50283,0.13469
0.23215,0.89643,-0.37751,0.40417,0.40708,0.03692
0.27221,0.87087,-0.40924,0.32147,0.28817,0.02733
0.29967,0.84324,-0.44626,0.135,0.13407,0.23615
0.31751,0.81506,-0.48462,-0.00735,-0.00406,0.52446
0.33166,0.7908,-0.51443,-0.16221,-0.07405,0.68895
0.33728,0.77106,-0.54011,-0.36476,-0.1925,0.74334
0.32747,0.75695,-0.5655,-0.53709,-0.40943,0.68048
0.30919,0.74794,-0.58735,-0.57323,-0.47507,0.63126
0.28977,0.74408,-0.60198,-0.5333,-0.4633,0.60825
0.27201,0.74518,-0.60886,-0.44056,-0.43322,0.58208
0.26059,0.74992,-0.60804,-0.36258,-0.44416,0.48589
0.25732,0.76082,-0.59577,-0.40834,-0.42801,0.37212
0.26007,0.77937,-0.57003,-0.42262,-0.32614,0.25634
0.26229,0.80429,-0.53321,-0.28319,-0.08162,0.04512
0.2568,0.83174,-0.49221,0.27178,0.44779,-0.45167
0.23774,0.85478,-0.46133,0.96948,1.60565,-1.1326
0.21001,0.85464,-0.47485,1.15283,1.19094,-0.4144
0.21657,0.83014,-0.51377,0.34137,-0.32239,-0.49722
0.23324,0.81161,-0.53561,0.14597,-0.70521,-0.18407
0.23354,0.80429,-0.54643,0.10874,-0.18539,0.75276
0.23739,0.80917,-0.53749,-0.04388,0.41453,1.05255
0.25927,0.82592,-0.50064,-0.28749,1.2207,0.50064
0.27943,0.8351,-0.47383,-0.48939,1.45393,-0.49745
0.27518,0.82772,-0.48904,-0.37523,-0.39737,0.22781
0.28114,0.82467,-0.49079,-0.63719,-0.41663,0.68507
0.2803,0.8351,-0.47331,-0.25949,-0.45096,1.25112
0.27285,0.85703,-0.43709,-0.00298,0.28042,0.8139
0.25277,0.88062,-0.40076,0.28651,0.95183,0.31917
0.23657,0.89852,-0.36972,0.14301,-0.00117,0.28251
0.23631,0.9137,-0.33063,-0.02216,-0.11825,0.39055
0.23578,0.92941,-0.28391,-0.1932,-0.15505,0.4265
0.22691,0.94276,-0.24435,-0.35258,-0.13951,0.33477
0.21407,0.95342,-0.21251,-0.27829,-0.16936,0.25857
0.20258,0.96221,-0.18197,-0.01433,-0.23772,0.33938
0.19432,0.96952,-0.14923,0.01757,-0.19079,0.25128
0.18538,0.97565,-0.11721,0.06265,-0.12935,0.13593
0.17427,0.98074,-0.08813,0.15365,-0.15326,0.01756
0.16106,0.98504,-0.06122,0.17103,-0.0501,-0.10176
0.14503,0.98871,-0.03751,0.19027,-0.04889,-0.05008
0.12752,0.99173,-0.01428,0.24122,-0.05135,0.00903
0.11088,0.99377,0.01086,0.13117,0.00196,0.00727
0.09491,0.99486,0.03506,0.1103,0.00256,-0.11363
0.07778,0.99558,0.05261,0.12318,0.06379,-0.26496
0.06381,0.99592,0.06379,0.5424,0.10265,0.17516
0.05515,0.99615,0.06816,0.5937,0.09531,0.24103
0.05266,0.99614,0.07022,0.24482,0.42333,-0.05108
0.05349,0.99632,0.06695,0.08712,0.57431,-0.16454
0.05491,0.99728,0.04918,0.40645,0.25968,0.0649
0.06517,0.99779,0.01267,0.46129,0.24518,0.16187
0.08752,0.99532,-0.04079,0.3462,0.13364,0.34379
0.11895,0.98767,-0.1017,-0.06185,0.09831,0.21811
0.15343,0.975,-0.16074,-0.4163,1.00126,0.18886
0.17745,0.95888,-0.22149,-0.53727,1.05954,0.39187
0.18473,0.94075,-0.28434,-0.56467,0.67198,0.41909
0.19825,0.91981,-0.33859,0.12077,0.32663,0.246
0.22903,0.89715,-0.37771,0.19478,0.26333,0.1987
0.26529,0.87144,-0.41256,0.13981,0.18041,0.10684
0.29369,0.84491,-0.44707,-0.01507,0.01087,0.28658
0.31667,0.81851,-0.47933,-0.06653,-0.01322,0.39014
0.33395,0.79527,-0.50598,-0.15022,-0.13382,0.53364
0.34137,0.77585,-0.53059,-0.37239,-0.33394,0.69049
0.33177,0.76138,-0.55698,-0.38527,-0.32293,0.67467
0.31361,0.7511,-0.58094,-0.47964,-0.36594,0.58577
0.29498,0.74565,-0.59748,-0.46395,-0.41301,0.53355
0.281,0.74502,-0.60496,-0.406,-0.42831,0.50944
0.2749,0.74862,-0.60332,-0.34916,-0.39535,0.46136
0.27843,0.75594,-0.59248,-0.30895,-0.42179,0.39384
0.28673,0.76823,-0.57237,-0.30087,-0.37683,0.26798
0.29244,0.78797,-0.54183,-0.25876,-0.20003,0.07648
0.28835,0.81524,-0.50223,0.14456,0.11667,-0.35466
0.27019,0.84336,-0.46448,0.72991,1.00833,-0.8895
0.24277,0.85361,-0.46088,1.47395,1.79736,-0.47937
0.25029,0.83598,-0.48836,0.51146,0.24636,-0.55107
0.27178,0.81881,-0.50564,-0.04142,-0.55812,-0.58533
0.2757,0.80803,-0.52064,-0.11588,-0.42684,0.08377
0.27668,0.81053,-0.51623,-0.12974,0.30423,1.32007
0.29753,0.82729,-0.47651,-0.31836,1.32514,0.69178
0.31903,0.83538,-0.44761,-0.43069,2.25289,-0.62166
0.32087,0.82548,-0.46436,-0.41687,-0.82355,0.28073
0.32681,0.82912,-0.4536,-0.63589,-0.52492,1.08656
0.32268,0.84412,-0.42817,-0.5617,-0.55503,1.24735
0.30873,0.86971,-0.38509,-0.16531,0.40587,0.74268
0.28584,0.89222,-0.34962,0.50806,0.7768,0.19665
0.27186,0.90707,-0.32142,0.37786,0.24156,0.06139
0.27016,0.91877,-0.28788,0.14244,-0.09517,0.08657
0.26582,0.92997,-0.25393,-0.35388,-0.27963,0.3477
0.25463,0.94054,-0.22482,-0.31396,-0.26131,0.36836
0.24225,0.94956,-0.19909,-0.24411,-0.23638,0.40062
0.23308,0.95717,-0.17175,0.05482,-0.13211,0.27347
0.22722,0.96349,-0.14163,0.04439,-0.06029,0.12555
0.22097,0.96886,-0.11166,0.08674,-0.02125,0.00084
0.21139,0.97385,-0.08319,0.09179,-0.09215,-0.0281
0.19822,0.97838,-0.05898,0.16481,-0.12,0.02697
0.1823,0.98256,-0.03664,0.19394,-0.10543,0.07801
0.16619,0.98601,-0.0126,0.17447,-0.03258,0.04889
0.14991,0.9886,0.01378,0.16874,0.01692,-0.03508
0.13232,0.99042,0.03936,0.12046,0.11987,-0.29536
0.11329,0.99188,0.05778,0.26309,0.14739,-0.15295
0.09569,0.99318,0.06655,0.34429,0.12038,0.01775
0.08298,0.99418,0.06859,0.33419,0.09706,0.19835
0.07737,0.99461,0.06893,0.03343,0.45647,-0.07942
0.07923,0.99457,0.06744,-0.05404,0.60228,-0.14568
0.08177,0.99516,0.05437,0.31933,0.26073,0.06892
0.08685,0.99597,0.02212,0.32851,0.09514,0.20523
0.1041,0.99413,-0.02924,0.28172,0.14318,0.28884
0.13246,0.98703,-0.09064,-0.13182,0.24365,0.08245
0.1674,0.97424,-0.15109,-0.41371,0.69373,0.16809
0.19475,0.95765,-0.21209,-0.61662,1.15672,0.34103
0.20627,0.94001,-0.27173,-0.4634,0.49482,0.32631
0.21802,0.92125,-0.32213,0.12527,0.22223,0.13755
0.24276,0.89975,-0.36265,0.32079,0.24332,0.07275
0.27566,0.87392,-0.40033,0.1649,0.22752,0.08525
0.29782,0.84695,-0.44042,-0.02577,0.05335,0.35253
0.31088,0.81985,-0.48083,-0.1661,-0.11189,0.57816
0.31988,0.79639,-0.51325,-0.29142,-0.19483,0.61971
0.32104,0.77665,-0.54198,-0.40903,-0.33103,0.62662
0.31411,0.76097,-0.56768,-0.48244,-0.35234,0.55237
0.30303,0.75016,-0.58773,-0.50279,-0.35547,0.52274
0.29079,0.74462,-0.60081,-0.50726,-0.37539,0.5211
0.27905,0.74366,-0.60753,-0.47368,-0.39955,0.55089
0.2707,0.7472,-0.60697,-0.21046,-0.33646,0.52611
0.27116,0.7559,-0.59589,-0.23697,-0.37479,0.40325
0.27713,0.77077,-0.57368,-0.26626,-0.39624,0.33122
0.28334,0.79291,-0.53945,-0.28199,-0.27351,0.04711
0.28098,0.82221,-0.49499,-0.03343,0.01806,-0.23057
0.26322,0.85195,-0.45264,0.26131,0.29706,-0.47126
0.23652,0.86428,-0.44393,1.20646,1.96844,-0.98429
0.24153,0.8432,-0.48029,0.60983,0.60883,-0.66019
0.26346,0.82106,-0.50641,0.06148,-0.47101,-0.63844
0.26676,0.8108,-0.521,-0.19814,-0.20914,0.59064
0.26259,0.80918,-0.52562,-0.31604,0.58296,1.1241
0.27424,0.81659,-0.50791,-0.3478,0.80412,0.77694
0.29611,0.81901,-0.49146,-0.49159,1.12232,0.0682
0.30549,0.81698,-0.4891,-0.36464,-0.26459,0.59887
0.31353,0.82139,-0.47646,-0.40845,-0.1844,0.82275
0.31095,0.83557,-0.45291,-0.36475,-0.18349,0.93382
0.30102,0.85734,-0.41756,0.04656,0.53706,0.55499
0.28629,0.87965,-0.37981,0.18136,0.59376,0.42202
0.28217,0.8965,-0.34156,0.2365,0.42081,0.28631
0.28519,0.91003,-0.30084,-0.27951,-0.15289,0.35622
0.28301,0.92327,-0.25978,-0.3266,-0.18527,0.35774
0.27485,0.93508,-0.22379,-0.25193,-0.18381,0.31878
0.26576,0.94479,-0.19167,-0.0935,-0.15996,0.32541
0.25926,0.95255,-0.15945,-0.00564,-0.19868,0.30764
0.25335,0.95899,-0.12706,0.05066,-0.20907,0.18437
0.24642,0.96432,-0.09669,0.16115,-0.11038,-0.0225
0.23783,0.96892,-0.06805,0.18467,-0.02049,-0.17456
0.22623,0.97305,-0.04458,0.1405,-0.04008,-0.12408
0.21274,0.97676,-0.02608,0.22676,-0.09596,0.10985
0.19897,0.97998,-0.00707,0.239,-0.08242,0.1569
0.18584,0.98244,0.01664,0.08476,0.07591,0.00191
0.16933,0.98467,0.04184,0.05729,0.18115,-0.29164
0.14975,0.98679,0.06179,0.19437,0.25784,-0.25644
0.132,0.98861,0.07223,0.39365,0.11036,0.12266
0.11888,0.9901,0.07465,0.4155,0.08698,0.25822
0.11129,0.99109,0.07313,0.11791,0.39784,-0.09117
0.10963,0.99141,0.07126,-0.02973,0.52792,-0.2508
0.10731,0.99227,0.06233,0.237,0.2893,-0.14636
0.10649,0.99353,0.03934,0.37346,0.0292,-0.01677
0.11363,0.99352,-0.00301,0.37531,-0.1665,0.19745
0.12966,0.98966,-0.06131,0.25717,-0.40117,0.14913
0.15599,0.9798,-0.12509,0.05446,0.3269,0.17648
0.18842,0.96332,-0.19106,-0.29857,1.44815,0.42242
0.2066,0.94379,-0.25803,-0.24905,0.59527,0.60529
0.21214,0.92482,-0.31575,-0.0363,0.30938,0.38073
0.23346,0.90398,-0.35821,0.17532,0.25489,0.03019
0.27049,0.87725,-0.39657,0.00992,0.37574,-0.00586
0.30422,0.84469,-0.4404,-0.11611,0.3959,0.11738
0.3282,0.80951,-0.48679,-0.42707,0.11865,0.4547
0.35351,0.77929,-0.51743,-0.67839,0.04099,0.44821
0.37733,0.75702,-0.53342,-0.77561,0.02853,0.42902
0.39941,0.73753,-0.54454,-0.58908,-0.2929,0.31851
0.4011,0.72539,-0.55941,-0.22406,-0.25917,0.42452
0.38043,0.71668,-0.58451,-0.09446,-0.30403,0.61989
0.34226,0.71186,-0.61328,-0.184,-0.42392,0.57678
0.30642,0.71345,-0.63015,-0.28164,-0.47149,0.53587
0.28248,0.72347,-0.62992,-0.25994,-0.49807,0.50081
0.27316,0.74367,-0.61019,-0.30191,-0.55242,0.36756
0.27304,0.7718,-0.57426,-0.33886,-0.50916,0.12997
0.2744,0.80161,-0.53116,-0.15279,-0.24691,-0.18205
0.26806,0.82811,-0.49232,0.35401,0.51512,-0.51884
0.24285,0.84331,-0.47942,0.92919,1.60315,-0.84885
0.23083,0.83308,-0.50269,0.97285,1.23889,-0.21242
0.24987,0.81812,-0.51792,0.09255,-0.15423,-0.46385
0.27293,0.81071,-0.51793,-0.16052,0.09993,0.29415
0.28859,0.81147,-0.50817,-0.36625,0.33413,0.44828
0.29465,0.81529,-0.49849,-0.38382,1.07946,0.41841
0.30783,0.80924,-0.50036,-0.342,8e-05,0.57699
0.31666,0.80353,-0.50404,-0.3519,-0.37037,0.35232
0.32071,0.80794,-0.49434,-0.24911,-0.37581,1.1295
0.32207,0.82276,-0.46833,-0.11176,0.13979,1.16476
0.31732,0.84788,-0.42475,-0.08186,0.53436,0.84296
0.3017,0.87104,-0.38763,0.18858,0.43602,0.19698
0.29156,0.8882,-0.35508,0.00335,-0.04824,0.34991
0.28717,0.90273,-0.32034,-0.39583,-0.12306,0.35441
0.28084,0.91638,-0.28524,-0.4278,-0.14755,0.36984
0.27028,0.92914,-0.25229,-0.27621,-0.17251,0.32407
0.26111,0.93951,-0.22169,-0.02119,-0.18948,0.30431
0.25438,0.94793,-0.19161,0.10037,-0.17619,0.30417
0.24948,0.95496,-0.16061,0.11937,-0.16648,0.29459
0.24278,0.96113,-0.13145,0.25267,-0.04361,0.17729
0.23564,0.96646,-0.10213,0.17625,-0.08451,-0.02514
0.22591,0.97142,-0.07286,0.04976,-0.06705,-0.14365
0.21282,0.97586,-0.04893,0.04858,-0.03008,-0.02063
0.19846,0.97971,-0.02792,0.18457,-0.10372,0.11929
0.18549,0.98263,-0.00557,0.17867,-0.00797,0.1359
0.17262,0.98479,0.01969,0.03926,0.14795,-0.05591
0.15577,0.98685,0.04307,0.03736,0.28005,-0.24809
0.13706,0.9888,0.05907,0.16125,0.23627,-0.12661
0.1205,0.99056,0.06535,0.29875,0.14279,0.06777
0.10889,0.99207,0.06281,0.38128,0.11774,0.15019
0.10559,0.99262,0.05965,0.01068,0.56665,-0.26263
0.10563,0.99286,0.05529,-0.06045,0.548,-0.30943
0.1032,0.99385,0.04004,0.44227,0.19363,-0.11099
0.10372,0.99456,0.00889,0.40684,0.03607,0.0452
0.11205,0.99282,-0.04177,0.39469,-0.05055,0.24376
0.12839,0.98605,-0.1059,0.17549,-0.1741,0.22974
0.15552,0.97281,-0.1716,-0.15079,0.52704,0.25233
0.18315,0.95391,-0.23769,-0.6754,1.21878,0.41968
0.19678,0.93415,-0.29772,-0.72404,0.97021,0.47947
0.21029,0.91452,-0.34558,0.05565,0.27692,0.05636
0.24064,0.89287,-0.38063,0.2017,0.29804,-0.00444
0.28012,0.86775,-0.41053,0.23299,0.34849,-0.01223
0.30657,0.84093,-0.44592,0.18548,0.01802,0.29941
0.32151,0.81324,-0.48505,0.11826,-0.04044,0.46441
0.33365,0.78888,-0.51609,0.01135,-0.06228,0.62373
0.33869,0.76934,-0.54166,-0.37371,-0.23184,0.67344
0.33446,0.75468,-0.56444,-0.43201,-0.25706,0.67043
0.31963,0.74618,-0.58399,-0.54618,-0.29974,0.66059
0.29925,0.74243,-0.59937,-0.54957,-0.34355,0.5904
0.28198,0.74249,-0.60762,-0.53019,-0.37143,0.5776
0.27186,0.74641,-0.60742,-0.40203,-0.34988,0.49689
0.26881,0.75531,-0.5977,-0.38786,-0.33653,0.38771
0.2711,0.77063,-0.57675,-0.39135,-0.33984,0.30957
0.27328,0.79294,-0.54457,-0.31788,-0.13915,0.04036
0.26811,0.82026,-0.50527,0.09497,0.21365,-0.29824
0.2501,0.84603,-0.47082,0.44543,0.57083,-0.51438
0.22315,0.8553,-0.46762,1.15853,1.65366,-0.87474
0.22079,0.83336,-0.50671,0.39126,0.1464,-0.49814
0.24314,0.81064,-0.53268,0.15625,-0.42012,-0.4965
0.25211,0.80039,-0.54389,-0.1298,-0.45768,0.55307
0.24825,0.80071,-0.54519,-0.12438,0.10569,0.83861
0.25434,0.81343,-0.52311,-0.32022,0.7779,0.84695
0.27209,0.82809,-0.49013,-0.546,1.97888,-0.4237
0.27161,0.82877,-0.48924,-0.01461,0.05709,0.48686
0.28376,0.82156,-0.49449,-0.18438,-0.53045,0.57647
0.29909,0.82859,-0.47326,-0.48644,-0.47169,1.00257
0.29869,0.84665,-0.44042,-0.22294,-0.08234,0.99025
0.28786,0.87014,-0.39999,0.10559,0.61509,0.49177
0.27304,0.88933,-0.3668,0.31463,0.57956,0.23033
0.26741,0.90434,-0.33266,0.02414,-0.02507,0.23717
0.26857,0.9169,-0.29522,-0.28346,-0.15279,0.37612
0.26556,0.92832,-0.26018,-0.33707,-0.17867,0.39284
0.25848,0.93843,-0.22921,-0.21547,-0.18008,0.32885
0.25031,0.94752,-0.19885,-0.12554,-0.18858,0.3006
0.24357,0.95534,-0.16733,0.06527,-0.1564,0.28791
0.23695,0.96175,-0.1374,0.11569,-0.10232,0.12248
0.2297,0.96716,-0.10878,0.12377,-0.07324,0.00861
0.22037,0.97205,-0.081,0.08589,-0.043,-0.1029
0.20848,0.97635,-0.05716,0.17885,-0.04703,0.05878
0.19561,0.98002,-0.03601,0.25361,-0.00375,0.1123
0.18255,0.9831,-0.01351,0.22968,0.0559,0.11547
0.16853,0.98564,0.0108,0.00809,0.12429,-0.18605
0.15067,0.98806,0.03197,0.01165,0.16706,-0.29375
0.13051,0.99039,0.04579,0.08918,0.19528,-0.29344
0.11183,0.99244,0.05054,0.43427,-0.01643,0.27849
0.09891,0.99394,0.04787,0.4573,-0.01852,0.23755
0.09503,0.99439,0.04631,0.33069,0.18577,0.07207
0.09607,0.99437,0.04456,0.13928,0.41006,-0.06943
0.09528,0.99496,0.03125,0.29776,0.32642,0.05052
0.09618,0.99536,-0.00113,0.38691,0.22925,0.1567
0.10697,0.99287,-0.05247,0.11832,-0.10438,0.15631
0.12917,0.9849,-0.11526,-0.02916,-0.04406,0.13977
0.15989,0.97086,-0.17848,-0.20317,0.13059,0.17213
0.19074,0.9518,-0.24019,-0.53306,1.20828,0.24447
0.21122,0.93014,-0.30037,-0.49068,1.02359,0.31506
0.22443,0.90876,-0.35183,0.08802,0.25204,0.29917
0.24533,0.88696,-0.3913,0.35118,0.27246,0.19554
0.27288,0.8632,-0.42476,0.35023,0.22045,0.14731
0.2948,0.83969,-0.45608,0.15388,-0.00204,0.25566
0.31058,0.81484,-0.48947,-0.0509,-0.07187,0.47241
0.32225,0.79052,-0.5208,-0.14671,-0.09606,0.58606
0.32816,0.77064,-0.54628,-0.41949,-0.26811,0.64868
0.32236,0.75661,-0.56888,-0.50674,-0.37951,0.64198
0.30533,0.74811,-0.58915,-0.52231,-0.3765,0.63038
0.28571,0.744,-0.60401,-0.50752,-0.2809,0.55581
0.27015,0.7438,-0.61137,-0.43184,-0.24388,0.55305
0.26192,0.74674,-0.61138,-0.30926,-0.20365,0.49632
0.26261,0.75256,-0.60389,-0.30938,-0.21326,0.39653
0.26943,0.76232,-0.58846,-0.32401,-0.23989,0.37024
0.27822,0.77723,-0.56437,-0.32985,-0.24512,0.29682
0.28231,0.79912,-0.53076,-0.2132,-0.08683,-0.06905
0.27492,0.82671,-0.49089,-0.04576,0.02884,-0.30722
0.25144,0.85156,-0.46001,0.88031,1.28389,-0.95989
0.22591,0.85349,-0.4696,1.26629,1.42998,-0.57644
0.23706,0.83143,-0.50253,0.76583,0.63531,-0.52209
0.25418,0.81254,-0.52457,-0.01707,-0.66218,-0.21389
0.25452,0.80499,-0.53592,-0.09841,-0.29467,0.72504
0.25575,0.81132,-0.5257,-0.05461,0.17283,1.138
0.27717,0.82988,-0.48422,-0.21271,0.8242,0.87855
0.30488,0.84194,-0.44517,-0.57229,2.01371,-0.7735
0.29487,0.83747,-0.4601,-0.34382,-0.06271,0.22521
0.29365,0.83307,-0.46879,-0.58948,-0.62102,0.6266
0.29257,0.84486,-0.4479,-0.4823,-0.66657,1.12378
0.28316,0.86779,-0.40837,-0.04367,-0.10509,1.09436
0.27286,0.88969,-0.36607,0.30801,0.76926,0.52296
0.26428,0.90509,-0.33312,0.40774,0.56595,0.02123
0.26086,0.91824,-0.29796,-0.04545,-0.04037,0.18262
0.25847,0.92957,-0.26285,-0.34101,-0.16178,0.37543
0.25122,0.93975,-0.23187,-0.4043,-0.16304,0.40993
0.24109,0.94905,-0.20292,-0.25207,-0.19418,0.41775
0.23174,0.95731,-0.1728,-0.12006,-0.20896,0.42373
0.22454,0.9642,-0.14108,0.01059,-0.1087,0.26203
0.21701,0.97004,-0.10927,0.0431,-0.10752,-0.03311
0.20684,0.97516,-0.07917,0.04826,-0.10198,-0.09785
0.19319,0.97967,-0.05403,0.11974,-0.13694,-0.07299
0.17785,0.9835,-0.03309,0.25938,-0.0321,0.0821
0.16326,0.98651,-0.01159,0.22008,0.01892,0.05625
0.14902,0.98876,0.01205,0.18275,0.05381,-0.01581
0.13325,0.99047,0.0348,0.13512,0.05177,-0.29591
0.11589,0.99194,0.05116,0.2412,0.07167,-0.27236
0.10053,0.99315,0.05956,0.32885,0.12041,-0.15743
0.09035,0.994,0.06156,0.29181,0.13986,0.12932
0.08691,0.99438,0.0604,0.18181,0.26622,0.00918
0.08919,0.99454,0.05415,0.06299,0.41291,-0.09303
0.0928,0.99506,0.03525,0.28501,0.22039,0.10278
0.10176,0.9948,-0.00383,0.29602,0.20231,0.22899
0.1226,0.9905,-0.06228,0.27526,0.13429,0.372
0.15663,0.97947,-0.12686,-0.35504,0.40923,0.13284
0.19504,0.96293,-0.18635,-0.54792,0.65675,0.20789
0.21947,0.94358,-0.24796,-0.66661,1.07941,0.35386
0.22925,0.92433,-0.30506,-0.2125,0.38358,0.23653
0.24454,0.90419,-0.35019,0.12411,0.33139,0.21639
0.27147,0.88037,-0.38891,0.35491,0.31427,0.05163
0.29881,0.85313,-0.42765,0.11095,0.16235,0.16763
0.31431,0.82498,-0.4697,-0.01811,0.08664,0.30964
0.326,0.79762,-0.50746,-0.30792,-0.10054,0.63291
0.33426,0.77443,-0.53715,-0.40012,-0.23887,0.65071
0.33257,0.75595,-0.56386,-0.51645,-0.31988,0.68288
0.32171,0.74334,-0.58647,-0.48353,-0.46343,0.57281
0.30753,0.73624,-0.60281,-0.51465,-0.47118,0.54544
0.29211,0.73433,-0.61273,-0.45299,-0.41583,0.60136
0.27784,0.73639,-0.61687,-0.3748,-0.35922,0.59972
0.2703,0.74241,-0.61299,-0.26603,-0.3439,0.51672
0.27033,0.7548,-0.59766,-0.27042,-0.36538,0.36105
0.27707,0.77523,-0.56767,-0.30144,-0.29332,0.13768
0.28341,0.80354,-0.52344,-0.22198,-0.03063,-0.12748
0.279,0.83525,-0.47382,0.29589,0.59146,-0.49117
0.26033,0.85676,-0.44518,0.97506,1.86483,-1.04526
0.25053,0.84711,-0.46865,1.02491,1.10285,-0.74292
0.27016,0.81986,-0.50482,0.21581,-0.4555,-0.67746
0.28305,0.803,-0.52448,-0.0585,-0.77804,-0.01819
0.27577,0.79789,-0.53602,-0.08003,-0.30589,1.07064
0.28579,0.80587,-0.51855,-0.38941,0.24967,1.40435
0.31187,0.82643,-0.46878,-0.88247,1.43561,0.19412
0.30533,0.83885,-0.45067,-0.30235,2.15177,-0.5948
0.30555,0.82408,-0.477,0.28935,0.17386,0.46869
0.32556,0.82503,-0.46189,-0.52441,-0.51512,0.69605
0.32753,0.83773,-0.43696,-0.4846,-0.44208,1.01325
0.31654,0.85895,-0.40251,-0.13615,0.31341,0.76682
0.30525,0.87898,-0.36635,0.25719,0.94096,0.32204
0.30244,0.89505,-0.32775,0.2504,0.25531,0.18831
0.30696,0.90925,-0.28112,-0.13791,-0.13885,0.40524
0.30762,0.92129,-0.2379,-0.34701,-0.14637,0.39694
0.3004,0.93161,-0.20461,-0.31444,-0.19348,0.32696
0.28908,0.94115,-0.17513,-0.20831,-0.23755,0.34783
0.2788,0.94951,-0.14391,-0.15306,-0.2252,0.33321
0.26919,0.95636,-0.11359,0.05941,-0.05582,0.06399
0.26027,0.96163,-0.08676,0.13344,-0.03376,-0.03241
0.25102,0.96589,-0.06359,0.14942,-0.03442,-0.12065
0.24003,0.96979,-0.04343,0.25046,-0.07085,0.07441
0.22564,0.97395,-0.02262,0.24801,-0.07704,0.10381
0.20985,0.97773,0.00056,0.17543,-0.07128,0.02529
0.19228,0.98106,0.02355,0.0837,-0.01396,-0.23456
0.17243,0.98414,0.04159,0.16938,0.05703,-0.24927
0.15373,0.98674,0.05209,0.20251,0.15843,0.09801
0.14125,0.98836,0.05642,0.19071,0.09525,0.16764
0.13515,0.98904,0.05945,0.04775,0.39536,-0.10498
0.13291,0.98922,0.0615,-0.09041,0.51612,-0.26035
0.1272,0.99031,0.05575,0.2223,0.24636,-0.09884
0.11948,0.99225,0.03417,0.43998,0.13712,0.01914
0.11948,0.9928,-0.00789,0.29403,-0.15432,0.16728
0.13336,0.98886,-0.06605,0.23358,-0.29115,0.18502
0.15926,0.97843,-0.13157,0.1282,0.19178,0.21202
0.19426,0.96126,-0.19554,-0.17922,1.2259,0.2859
0.22702,0.93929,-0.25729,-0.64978,1.40225,0.39671
0.24672,0.91756,-0.31178,-0.63662,0.54452,0.31378
0.26848,0.89676,-0.35175,-0.16942,0.29664,0.13723
0.30421,0.87378,-0.37944,0.12867,0.28298,0.02031
0.33996,0.84836,-0.40585,0.12626,0.27545,-0.00838
0.36149,0.82245,-0.4392,0.12192,-0.03426,0.26427
0.37517,0.79456,-0.47741,-0.02774,-0.08793,0.54798
0.38489,0.76806,-0.51181,-0.37598,-0.13511,0.66191
0.38275,0.74616,-0.54474,-0.49606,-0.18963,0.72125
0.36946,0.73025,-0.57466,-0.63229,-0.32202,0.60359
0.34946,0.72126,-0.59805,-0.53183,-0.32012,0.55232
0.32997,0.71835,-0.61245,-0.46982,-0.23098,0.55059
0.31485,0.71837,-0.62033,-0.37482,-0.21404,0.56563
0.30732,0.72259,-0.6192,-0.34316,-0.21832,0.51288
0.30837,0.7328,-0.60656,-0.37199,-0.27386,0.44079
0.31403,0.74891,-0.58355,-0.3983,-0.29407,0.31955
0.31905,0.77189,-0.5499,-0.40166,-0.29359,0.22177
0.31692,0.8022,-0.506,-0.16001,-0.04251,-0.18769
0.30195,0.83383,-0.46212,0.49491,0.63935,-0.65909
0.27611,0.85059,-0.44751,0.76999,1.19023,-0.96007
0.27601,0.83254,-0.48032,0.87371,0.95051,-0.65393
0.29626,0.8071,-0.51071,0.17536,-0.36064,-0.70166
0.3015,0.79245,-0.53021,-0.09824,-0.19863,0.47978
0.29876,0.79009,-0.53525,-0.18179,0.32085,1.13797
0.31511,0.79598,-0.51683,-0.25098,0.75852,0.74947
0.34423,0.79406,-0.50097,-0.40612,0.8996,-0.07005
0.3553,0.7933,-0.4944,-0.52938,-0.27081,0.07541
0.35413,0.79826,-0.48722,-0.58929,-0.15495,0.75499
0.34438,0.8142,-0.46742,-0.30472,-0.23067,1.08345
0.33333,0.83992,-0.42828,-0.03928,0.42651,0.80052
0.32067,0.86302,-0.39034,0.24076,0.75626,0.42395
0.31668,0.87927,-0.35579,0.10507,0.12265,0.1097
0.31353,0.89343,-0.32167,-0.23646,-0.03517,0.27463
0.30443,0.90752,-0.28936,-0.36132,-0.07912,0.39238
0.29217,0.92073,-0.25864,-0.32455,-0.10518,0.34913
0.28048,0.93195,-0.22979,-0.08218,-0.18727,0.34092
0.27052,0.94163,-0.20039,0.02597,-0.2156,0.31856
0.26346,0.94956,-0.17007,0.05156,-0.14043,0.24826
0.25641,0.95627,-0.14068,0.10457,-0.08388,0.07025
0.24715,0.96253,-0.11159,0.08662,-0.11172,-0.03933
0.23353,0.96865,-0.08467,0.04727,-0.06631,-0.03543
0.21631,0.97443,-0.06073,0.12127,-0.04658,0.06835
0.19888,0.97934,-0.03661,0.14707,-0.04039,0.0777
0.18289,0.98307,-0.01141,0.09372,0.0029,-0.01996
0.16679,0.9859,0.01316,0.06475,0.10478,-0.1472
0.14836,0.98843,0.03143,0.09759,0.25755,-0.16607
0.13165,0.99047,0.04043,0.23372,0.12881,0.09622
0.12031,0.99183,0.04235,0.37767,0.05895,0.19518
0.11499,0.99246,0.04243,0.0815,0.41092,-0.07603
0.11369,0.99269,0.04051,0.06194,0.47899,-0.11161
0.11133,0.99337,0.02875,0.3728,0.35968,0.07166
0.11261,0.99364,0.00056,0.33835,0.13684,0.17454
0.12441,0.99122,-0.04476,0.21031,-0.03413,0.26401
0.14758,0.98373,-0.10246,0.00863,-0.06742,0.13157
0.17806,0.97027,-0.1639,-0.23014,0.36773,0.17243
0.20919,0.95157,-0.22529,-0.46362,1.07988,0.24705
0.22906,0.93001,-0.28742,-0.65379,1.06877,0.38374
0.24012,0.909,-0.34068,-0.36347,0.33824,0.30231
0.26042,0.88837,-0.37814,0.23017,0.26669,0.14793
0.2904,0.86515,-0.40888,0.32313,0.25829,0.13075
0.31692,0.8401,-0.44022,0.16311,0.00982,0.25049
0.33156,0.81344,-0.4779,0.14847,0.03648,0.28817
0.34062,0.78768,-0.51336,-0.15875,-0.08523,0.62604
0.3441,0.76671,-0.54198,-0.47159,-0.23664,0.66523
0.34043,0.75067,-0.56622,-0.59023,-0.29638,0.65902
0.32639,0.74008,-0.58801,-0.56246,-0.32467,0.59333
0.30955,0.73403,-0.60447,-0.59574,-0.32527,0.52488
0.29385,0.73268,-0.61386,-0.47171,-0.29324,0.52739
0.28308,0.73489,-0.61629,-0.32579,-0.24491,0.53552
0.28071,0.74016,-0.61103,-0.28358,-0.25985,0.41233
0.2864,0.75099,-0.59497,-0.30178,-0.27407,0.37116
0.29548,0.76883,-0.56709,-0.32438,-0.28742,0.30273
0.30028,0.79419,-0.5283,-0.12022,0.00193,-0.13957
0.29261,0.82343,-0.48616,0.16255,0.23578,-0.37663
0.27032,0.84465,-0.46206,0.46264,0.63874,-0.585
0.25551,0.83665,-0.48449,0.80364,0.75507,-0.6395
0.27192,0.81073,-0.51843,0.36784,0.07525,-0.65948
0.28608,0.7914,-0.54022,0.0502,-0.32851,-0.57602
0.28237,0.78528,-0.551,-0.08772,0.13253,0.90375
0.28964,0.79218,-0.53717,-0.12236,0.28017,1.08179
0.31925,0.80313,-0.50305,-0.38306,1.36411,-0.0546
0.33772,0.80673,-0.48491,-0.38645,0.14505,0.22041
0.34238,0.80444,-0.48544,-0.49666,-0.22781,0.20418
0.34487,0.8115,-0.47173,-0.52663,-0.38143,0.93098
0.33789,0.83171,-0.44054,-0.2361,-0.03896,1.01337
0.32203,0.8576,-0.40101,0.05024,0.56278,0.5699
0.302,0.87867,-0.36977,0.31856,0.54923,0.24938
0.29344,0.89397,-0.3387,0.05292,0.01273,0.15739
0.29182,0.90723,-0.30295,-0.12814,-0.08443,0.218
0.28611,0.92025,-0.267,-0.32975,-0.19278,0.33826
0.27661,0.93185,-0.23481,-0.21855,-0.16974,0.34622
0.26737,0.94145,-0.2054,-0.12601,-0.15571,0.33228
0.26088,0.94967,-0.17341,0.05353,-0.16428,0.33193
0.25544,0.9565,-0.14089,0.06267,-0.10883,0.20266
0.24992,0.96198,-0.11011,0.07039,-0.07331,0.02721
0.24176,0.96697,-0.08074,0.01121,-0.05415,-0.10504
0.22945,0.97163,-0.05732,0.01804,-0.01109,-0.0636
0.21423,0.97608,-0.03695,0.23376,-0.00959,0.08149
0.19901,0.97989,-0.01471,0.23698,0.00188,0.11157
0.18366,0.98294,0.01025,0.10375,0.00776,-0.07498
0.16626,0.98557,0.03184,0.0809,0.12977,-0.34675
0.14788,0.98797,0.04518,0.23048,0.28603,-0.14412
0.13318,0.9899,0.04867,0.3659,0.07521,0.27135
0.1247,0.99114,0.0457,0.23881,0.11622,0.15868
0.12361,0.99143,0.04231,0.01396,0.50613,-0.13178
0.12616,0.99146,0.0331,0.09888,0.46052,-0.09368
0.13013,0.99145,0.00911,0.2189,0.36064,0.00713
0.1407,0.98945,-0.03438,0.21031,0.04585,0.16762
0.16208,0.98234,-0.09349,0.14045,-0.10789,0.10122
0.19032,0.96877,-0.15893,-0.01572,-0.08047,0.21156
0.21629,0.94929,-0.2282,-0.43409,0.93272,0.29836
0.22628,0.928,-0.29599,-0.72587,1.29017,0.63521
0.23457,0.90644,-0.3512,-0.35058,0.45239,0.2334
0.26026,0.88277,-0.39112,0.18112,0.37777,0.02873
0.29975,0.85486,-0.42351,0.2419,0.34109,0.06546
0.32736,0.82592,-0.45902,0.21611,0.2165,0.20833
0.34122,0.79646,-0.49922,0.17079,0.10138,0.36744
0.34974,0.77022,-0.53333,-0.23118,-0.16004,0.68924
0.35187,0.74787,-0.56292,-0.33963,-0.1918,0.70581
0.34418,0.72984,-0.59066,-0.47504,-0.24451,0.71225
0.3321,0.71693,-0.61297,-0.60923,-0.34319,0.54511
0.31933,0.70975,-0.62791,-0.57968,-0.3751,0.52373
0.30914,0.70837,-0.63455,-0.55615,-0.3783,0.53172
0.30306,0.71061,-0.63497,-0.35671,-0.36336,0.50759
0.30191,0.7169,-0.62841,-0.34616,-0.37605,0.46322
0.30625,0.73063,-0.61024,-0.30118,-0.38308,0.29899
0.31245,0.75265,-0.57957,-0.24653,-0.25903,0.11095
0.31133,0.78208,-0.53983,-0.13275,-0.1421,-0.03406
0.29616,0.81254,-0.50207,0.59413,1.0276,-0.65819
0.26943,0.82671,-0.49392,1.21639,1.72588,-0.68545
0.26269,0.81058,-0.5234,0.95298,1.08398,-0.49116
0.27794,0.78934,-0.54743,-0.05659,-0.38674,-0.45992
0.28711,0.77618,-0.56134,-0.20658,0.03488,0.45827
0.28821,0.77569,-0.56146,-0.16594,0.32734,0.72463
0.30236,0.78653,-0.53847,-0.17563,0.9882,0.69507
0.33106,0.79084,-0.51475,-0.34876,1.27971,-0.15505
0.34551,0.78468,-0.51468,-0.27166,0.2056,0.55599
0.35673,0.78406,-0.50793,-0.73318,-0.30965,0.54437
0.35557,0.79424,-0.49269,-0.42477,-0.37646,1.06249
0.35173,0.81681,-0.45728,-0.24207,-0.17205,1.10946
0.33963,0.84272,-0.41769,0.18964,0.75293,0.39127
0.32566,0.86251,-0.38733,0.30279,0.31918,0.15543
0.32555,0.87693,-0.35357,-0.04447,-0.12347,0.20714
0.32418,0.89241,-0.31385,-0.26941,-0.1879,0.3164
0.31445,0.90782,-0.27747,-0.28709,-0.19589,0.28854
0.30236,0.92131,-0.24447,-0.21671,-0.13675,0.26012
0.29117,0.93244,-0.21398,-0.0668,-0.11949,0.20019
0.28055,0.9418,-0.18519,-0.0281,-0.1591,0.14288
0.27005,0.95003,-0.15657,0.03994,-0.19507,0.14015
0.26,0.95691,-0.12929,0.19751,-0.09894,0.17094
0.25177,0.96238,-0.10216,0.26017,-0.07626,0.10107
0.2417,0.96749,-0.07453,0.17821,-0.1236,0.01799
0.22372,0.97344,-0.04863,-0.09777,-0.10975,-0.03146
0.20055,0.9795,-0.01887,0.03357,-0.05784,0.1491
0.17802,0.98396,0.01147,0.13826,-0.01336,0.1051
0.15934,0.98655,0.03652,0.13914,0.20489,-0.1946
0.14241,0.98843,0.05218,0.15976,0.27909,-0.13572
0.12704,0.99022,0.05767,0.30917,0.22539,0.12356
0.11556,0.99173,0.05578,0.33704,0.19552,0.09395
0.11078,0.99249,0.05181,0.00052,0.50259,-0.10431
0.10887,0.9932,0.04124,0.1109,0.41978,-0.00906
0.1093,0.99389,0.01534,0.29602,0.36173,0.09246
0.11937,0.9924,-0.02978,0.21486,0.00824,0.26153
0.1421,0.98578,-0.0897,0.02816,-0.00172,0.1526
0.17349,0.97279,-0.15357,-0.18748,0.14852,0.15283
0.20074,0.95508,-0.21799,-0.64076,1.21673,0.462
0.21173,0.93545,-0.28302,-0.66381,1.18038,0.56767
0.22358,0.91502,-0.3358,-0.32108,0.52706,0.27577
0.25157,0.89274,-0.3738,0.23084,0.37984,0.09194
0.28878,0.8657,-0.40885,0.28472,0.3342,0.02505
0.3158,0.83575,-0.44922,0.17385,0.15453,0.21111
0.33237,0.80585,-0.49004,-0.0077,-0.01553,0.49189
