gravity.x,gravity.y,gravity.z,userAcceleration.x,userAcceleration.y,userAcceleration.z
-0.17503,0.96014,-0.21792,-0.09062,0.34886,0.23913
-0.19753,0.94866,-0.24703,-0.16793,0.22828,0.48795
-0.20292,0.93625,-0.28682,-0.25837,0.04383,0.35833
-0.20099,0.92619,-0.31901,-0.23312,-0.03572,0.30958
-0.19666,0.91797,-0.34447,-0.00486,-0.13937,0.37778
-0.18665,0.91136,-0.36685,0.14888,-0.31952,0.43948
-0.17601,0.90535,-0.38647,0.16897,-0.42894,0.48086
-0.16976,0.89698,-0.40817,0.19531,-0.62512,0.40092
-0.17083,0.88974,-0.4233,0.03839,-0.66978,0.24561
-0.17271,0.88861,-0.42489,0.02801,-0.68506,0.26082
-0.17507,0.89273,-0.41518,-0.04095,-0.67461,0.26433
-0.1765,0.90129,-0.39563,-0.02343,-0.53795,0.12278
-0.1762,0.91401,-0.36544,-0.00431,-0.49444,0.02422
-0.1771,0.92875,-0.32567,0.15135,-0.12917,-0.41362
-0.18065,0.94127,-0.28528,0.25412,0.137,-0.72177
-0.17765,0.94458,-0.27608,0.2542,1.77862,-1.06859
-0.16869,0.93362,-0.31606,-0.13517,0.46596,-1.24617
-0.1797,0.9075,-0.37967,0.22218,-0.92204,-0.72823
-0.19716,0.89199,-0.4068,0.05621,-0.91672,0.52392
-0.20234,0.89644,-0.39428,-0.19886,1.33535,1.50334
-0.20471,0.90055,-0.38354,-0.20374,1.88946,0.50961
-0.19703,0.89898,-0.39118,0.0712,0.59265,-0.19599
-0.18495,0.9026,-0.38872,-0.44338,-0.83464,0.4643
-0.19893,0.90806,-0.36857,-0.48624,-0.36864,-0.38698
-0.20974,0.91548,-0.34337,0.49963,0.56253,0.52854
-0.19612,0.9362,-0.29167,0.62136,0.58631,1.3376
-0.18065,0.95344,-0.24148,0.44864,0.23009,0.28744
-0.18765,0.95917,-0.21161,-0.0793,0.16238,-0.13779
-0.20941,0.96159,-0.17749,-0.18709,0.09542,0.04638
-0.22729,0.96471,-0.13293,-0.13242,-0.06649,-0.13383
-0.23859,0.9676,-0.08261,0.00243,-0.13787,-0.02888
-0.24304,0.96959,-0.02878,0.04896,-0.27338,0.11373
-0.24287,0.96992,0.01635,0.07287,-0.45466,0.05375
-0.24579,0.96794,0.05172,0.0987,-0.4566,0.03403
-0.25307,0.96383,0.08359,0.21486,-0.31432,0.14041
-0.26115,0.95849,0.11448,0.19874,-0.19486,-0.0683
-0.2683,0.95214,0.14643,0.22842,-0.05404,-0.18513
-0.27744,0.94438,0.17654,0.31768,0.04031,-0.33024
-0.2848,0.93637,0.20516,0.3932,0.29274,-0.38877
-0.29278,0.92803,0.23031,0.35744,0.34442,-0.35092
-0.30149,0.92212,0.24248,0.2907,0.40181,-0.37401
-0.30951,0.91893,0.24446,0.36284,0.33676,-0.41438
-0.31623,0.91768,0.24055,0.22435,0.39081,-0.3713
-0.3222,0.91847,0.22934,0.18011,0.36842,-0.42809
-0.33037,0.92096,0.20661,0.3633,0.37494,-0.11608
-0.33921,0.92543,0.16888,0.35826,0.38865,0.01192
-0.33719,0.93366,0.12079,0.05032,0.51446,0.19846
-0.32341,0.94411,0.0637,-0.37525,0.57093,-0.14161
-0.30953,0.95088,0.00432,-0.42256,0.44733,0.33071
-0.29774,0.95268,-0.06129,-0.29808,0.5116,0.54945
-0.28499,0.95069,-0.12232,-0.32694,0.43413,0.08029
-0.27378,0.94538,-0.17692,-0.05302,0.45294,-0.15061
-0.26913,0.93479,-0.23183,-0.0507,0.311,-0.08803
-0.26463,0.92339,-0.27807,0.13129,0.16678,0.15734
-0.25126,0.91419,-0.31799,0.10045,0.10502,0.25274
-0.2332,0.90654,-0.35185,0.04869,-0.00747,0.41709
-0.21667,0.89914,-0.38027,-0.0185,-0.19928,0.54906
-0.20324,0.8907,-0.40663,0.02669,-0.35194,0.55765
-0.19563,0.88096,-0.43086,0.0314,-0.62037,0.4436
-0.1912,0.87187,-0.45087,0.0554,-0.60417,0.41979
-0.18826,0.86526,-0.46464,0.10055,-0.63679,0.39499
-0.18748,0.86197,-0.47102,0.05072,-0.66756,0.2942
-0.18805,0.8638,-0.46742,0.0456,-0.67041,0.27248
-0.18958,0.87108,-0.45309,0.05113,-0.6624,0.21365
-0.19194,0.88346,-0.42738,0.08091,-0.46606,-0.00644
-0.19713,0.9,-0.38877,0.11477,-0.24274,-0.25121
-0.20488,0.91596,-0.34503,0.20401,0.43692,-0.66668
-0.20671,0.92075,-0.33089,0.15084,1.54035,-0.8869
-0.19116,0.91222,-0.36237,-0.13049,0.87034,-1.60595
-0.18031,0.89482,-0.40839,0.21433,-0.02121,-1.37051
-0.1783,0.88607,-0.42789,0.0524,-0.17007,-0.223
-0.19032,0.88572,-0.42341,-0.01433,0.79303,0.56954
-0.21609,0.88692,-0.40826,-0.10511,1.29498,1.40058
-0.20881,0.88492,-0.41632,-0.07582,-0.1878,0.5929
-0.19621,0.89353,-0.40386,0.1311,-0.86036,0.8946
-0.20948,0.8981,-0.3867,-0.33728,-0.23329,-0.18008
-0.24473,0.89239,-0.37913,0.45064,0.74286,0.15481
-0.24132,0.9053,-0.34958,0.32856,0.47674,0.93569
-0.22634,0.92642,-0.30085,-0.07067,0.11955,0.39227
-0.22842,0.94038,-0.25202,-0.01368,0.11329,0.12033
-0.23735,0.94912,-0.20697,0.20781,0.10603,0.14279
-0.2401,0.95674,-0.16431,0.15055,-0.09839,0.04767
-0.24251,0.96263,-0.12057,-0.02182,-0.3477,-0.01623
-0.25078,0.96528,-0.07313,-0.00252,-0.35795,0.03373
-0.26052,0.965,-0.03006,0.11234,-0.30826,0.01526
-0.27136,0.96243,0.00912,0.20816,-0.338,0.07767
-0.28382,0.95775,0.04643,0.21653,-0.27266,0.11893
-0.2958,0.95133,0.08642,0.2284,-0.17936,0.05016
-0.30818,0.94344,0.12223,0.2099,-0.02839,-0.18887
-0.32013,0.93415,0.15776,0.27158,0.0972,-0.43589
-0.33071,0.92408,0.19157,0.33982,0.17275,-0.41806
-0.34217,0.91523,0.21279,0.32114,0.36752,-0.2183
-0.35232,0.90952,0.22056,0.3782,0.44011,-0.41316
-0.3615,0.90693,0.21634,0.46044,0.32338,-0.31839
-0.37056,0.90587,0.20516,0.4088,0.46523,-0.19249
-0.37493,0.90596,0.19661,0.28699,0.48319,-0.30391
-0.37933,0.90838,0.17595,0.25363,0.49179,-0.15353
-0.38202,0.91341,0.14052,0.23395,0.32083,0.18041
-0.37993,0.92096,0.08649,-0.16978,0.28733,-0.04549
-0.37236,0.92776,0.0248,-0.26198,0.29307,-0.21892
-0.36356,0.93076,-0.03881,-0.33353,0.44218,0.20526
-0.35111,0.93128,-0.09721,-0.19966,0.52121,0.51417
-0.3331,0.92962,-0.15766,-0.12096,0.44862,0.32853
-0.31691,0.92347,-0.21629,-0.07401,0.37141,-0.08401
-0.30817,0.91259,-0.26874,-0.00616,0.30153,-0.05066
-0.30193,0.90396,-0.3028,0.14113,0.27388,0.17483
-0.28765,0.89572,-0.33904,0.18002,0.10982,0.27571
-0.26846,0.8886,-0.37191,0.09477,-0.13065,0.45196
-0.25213,0.88119,-0.39992,0.08257,-0.18027,0.51569
-0.23967,0.87318,-0.4244,0.02619,-0.43615,0.51917
-0.23078,0.86543,-0.44472,0.02929,-0.56846,0.49651
-0.2269,0.85949,-0.45804,0.04654,-0.67086,0.46031
-0.22691,0.85697,-0.46273,0.1094,-0.6146,0.33621
-0.22825,0.85783,-0.46046,0.06759,-0.62407,0.29473
-0.22795,0.8634,-0.45009,0.02525,-0.62837,0.24699
-0.22729,0.87348,-0.43055,0.02247,-0.64243,0.14988
-0.22786,0.88761,-0.40029,0.04901,-0.65952,-0.02627
-0.23138,0.90532,-0.35617,0.03084,-0.3107,-0.27867
-0.23883,0.9215,-0.30628,0.17505,0.62976,-0.58485
-0.24344,0.92548,-0.29019,-0.00648,1.96709,-0.68866
-0.2354,0.9155,-0.32628,-0.43084,0.76047,-1.53871
-0.22708,0.89897,-0.37454,0.3632,-0.70989,-1.11389
-0.22781,0.89345,-0.3871,-0.01314,0.57381,0.18201
-0.24717,0.88891,-0.38568,0.0407,1.2783,0.824
-0.27329,0.88232,-0.38318,0.01015,1.20449,1.2614
-0.2621,0.88133,-0.39315,0.24023,-0.82141,0.83905
-0.24582,0.88983,-0.38442,-0.17385,-0.60426,0.41839
-0.26905,0.88935,-0.3697,-0.15409,0.07924,-0.04146
-0.29184,0.8882,-0.35486,0.52609,0.98379,0.22725
-0.28147,0.90513,-0.31862,0.22141,0.37777,0.87117
-0.26493,0.92669,-0.26657,-0.07061,0.12743,0.39216
-0.26606,0.93702,-0.22629,-0.02634,0.19892,0.23608
-0.27236,0.94299,-0.19127,0.01472,0.10991,0.16757
-0.27322,0.9493,-0.15548,0.01605,-0.10285,-0.03595
-0.27403,0.95424,-0.11971,0.01073,-0.30988,-0.03299
-0.27722,0.95746,-0.08012,0.08942,-0.29265,-0.03291
-0.28236,0.95826,-0.0447,0.1653,-0.3647,-0.05248
-0.2883,0.95744,-0.01338,0.25354,-0.33627,-0.01179
-0.29522,0.95526,0.01798,0.28027,-0.32823,0.01363
-0.3035,0.95142,0.05181,0.28913,-0.13683,0.09505
-0.3136,0.94565,0.08605,0.31055,-0.0143,-0.03682
-0.3229,0.93836,0.1233,0.27855,-0.02824,-0.2308
-0.3323,0.92902,0.16277,0.20682,0.00456,-0.48389
-0.34049,0.9191,0.1983,0.28038,0.24405,-0.22022
-0.34986,0.90989,0.22293,0.32676,0.29812,-0.14771
-0.3607,0.90426,0.22847,0.32125,0.325,-0.39607
-0.37155,0.90099,0.22398,0.22273,0.32245,-0.3439
-0.38179,0.89918,0.21381,0.16788,0.45776,-0.36739
-0.38838,0.89984,0.19864,0.3336,0.45368,-0.12973
-0.39537,0.90378,0.16389,0.35741,0.40051,0.03584
-0.39781,0.91075,0.11079,0.10896,0.42561,0.15876
-0.39418,0.91797,0.04418,-0.24745,0.4483,-0.16822
-0.38357,0.92332,-0.01892,-0.21597,0.62555,0.3111
-0.36785,0.92619,-0.08285,-0.17488,0.57514,0.60972
-0.3459,0.92714,-0.14411,-0.0752,0.53412,0.31398
-0.32406,0.92508,-0.19803,-0.01222,0.56435,0.20582
-0.3095,0.91892,-0.24451,0.12336,0.4407,-0.1287
-0.3014,0.91323,-0.27418,0.13709,0.33262,0.18678
-0.28594,0.90775,-0.30698,0.01602,0.15689,0.23239
-0.2657,0.90286,-0.33801,-0.09412,-0.09942,0.45022
-0.24408,0.89826,-0.36546,-0.04937,-0.29702,0.55066
-0.2282,0.89131,-0.39178,0.02826,-0.49951,0.5032
-0.21881,0.88287,-0.41552,0.14957,-0.66246,0.33107
-0.21395,0.87726,-0.42969,0.19746,-0.67377,0.40147
-0.21052,0.87328,-0.4394,0.11448,-0.49866,0.28402
-0.20789,0.87159,-0.44398,0.06963,-0.49597,0.25665
-0.20702,0.8731,-0.44141,-0.02537,-0.57842,0.28777
-0.20908,0.87843,-0.42971,-0.06357,-0.58347,0.27826
-0.21268,0.88693,-0.41003,-0.03328,-0.57008,0.21498
-0.21515,0.89834,-0.38301,-0.01676,-0.49882,0.007
-0.21727,0.91248,-0.34664,0.08788,0.0472,-0.54447
-0.22103,0.927,-0.30301,0.22231,0.54312,-0.76696
-0.22364,0.93395,-0.27881,0.15891,1.26163,-1.10028
-0.21924,0.9289,-0.29846,0.35771,0.56768,-1.24762
-0.20231,0.92138,-0.33187,0.68923,-0.17615,-1.18683
-0.18334,0.91759,-0.35272,0.66204,-0.3593,-0.41748
-0.18377,0.92407,-0.33515,0.04485,0.65552,0.55873
-0.19647,0.93471,-0.29616,-0.53306,1.73133,2.04427
-0.16846,0.93605,-0.30891,0.1672,-0.11664,0.73997
-0.1431,0.94494,-0.29431,-0.54256,-0.97516,0.28906
-0.14654,0.9495,-0.27744,-0.77953,-0.68418,-0.22158
-0.18606,0.94288,-0.27632,0.0323,0.4998,-0.05795
-0.19651,0.94871,-0.24765,0.31437,0.6946,0.45514
-0.18513,0.96436,-0.18902,-0.01881,0.04115,0.93997
-0.18321,0.97424,-0.13147,-0.1243,0.03209,0.17616
-0.19291,0.97617,-0.0994,0.13941,0.14213,0.32106
-0.19808,0.97752,-0.07218,0.19892,0.00542,0.16981
-0.20396,0.97809,-0.04177,0.08384,-0.20541,-0.06919
-0.21248,0.97716,-0.00265,-0.02716,-0.2414,0.01775
-0.2205,0.97456,0.04006,0.01325,-0.25902,-0.00805
-0.23042,0.96959,0.08249,0.0924,-0.31061,0.06804
-0.24368,0.96222,0.12148,0.14607,-0.26143,0.06558
-0.25834,0.95378,0.15349,0.1853,-0.16841,-0.14569
-0.27109,0.94531,0.18136,0.34364,0.08603,-0.29463
-0.28102,0.9369,0.20792,0.39362,0.15277,-0.38996
-0.28905,0.92699,0.23904,0.46678,0.27171,-0.4104
-0.29727,0.91715,0.26543,0.30539,0.31093,-0.48841
-0.30494,0.91135,0.2765,0.38435,0.33383,-0.27699
-0.31569,0.90796,0.27559,0.47994,0.32115,-0.11954
-0.32499,0.90669,0.26888,0.28044,0.38727,-0.30515
-0.3251,0.90819,0.26363,-0.12088,0.4137,-0.41654
-0.32392,0.91195,0.25182,-0.06162,0.3243,-0.12627
-0.3307,0.91687,0.22357,0.01138,0.24221,-0.03845
-0.33623,0.92426,0.18081,0.01737,0.20706,0.0915
-0.33761,0.9345,0.11281,-0.24419,0.37414,-0.01877
-0.33201,0.94227,0.04343,-0.43027,0.4379,0.21662
-0.3254,0.94531,-0.02257,-0.45886,0.50889,0.54699
-0.31501,0.94516,-0.08626,-0.32665,0.43575,0.13857
-0.30349,0.9412,-0.14841,-0.12762,0.35692,-0.07419
-0.29741,0.933,-0.20262,-0.03212,0.38521,-0.05913
-0.29763,0.92237,-0.24627,0.12226,0.35404,0.0823
-0.2849,0.91401,-0.28883,0.21971,0.3038,0.13905
-0.26346,0.90747,-0.32723,0.11281,0.04893,0.35942
-0.24208,0.90143,-0.35891,0.04651,-0.21163,0.5481
-0.22595,0.8939,-0.38716,0.11911,-0.42391,0.5507
-0.21908,0.88325,-0.41458,0.17703,-0.52195,0.41675
-0.21498,0.87328,-0.43722,0.10956,-0.74703,0.29517
-0.21006,0.86849,-0.449,0.04157,-0.66474,0.25677
-0.20452,0.86856,-0.45141,-0.01528,-0.61244,0.23295
-0.1987,0.87342,-0.44459,-0.01371,-0.65825,0.19882
-0.19362,0.88195,-0.42974,-0.00703,-0.70769,0.14548
-0.19067,0.89454,-0.40428,0.01046,-0.6929,0.06507
-0.18985,0.91099,-0.36614,0.19701,-0.62818,-0.16664
-0.19648,0.92844,-0.31526,0.20082,-0.1932,-0.32987
-0.20592,0.9402,-0.27132,0.14058,1.991,-0.5879
-0.20535,0.93962,-0.27375,0.14001,1.99157,-0.58548
-0.19401,0.92559,-0.32502,0.02977,0.38235,-1.71785
-0.17908,0.91286,-0.36689,-0.06199,0.07735,-0.11295
-0.19622,0.90766,-0.37103,-0.26069,1.30368,0.76801
-0.23221,0.90152,-0.36515,-0.27458,0.96319,2.2541
-0.215,0.89867,-0.38231,0.12818,-1.23061,0.46402
-0.20234,0.9077,-0.36762,0.01475,-0.86842,0.59923
-0.23071,0.90536,-0.35651,-0.127,0.15786,-0.14156
-0.24658,0.90179,-0.35492,0.40868,1.33765,0.06586
-0.23471,0.91997,-0.31396,0.12937,0.27217,0.82793
-0.21698,0.94145,-0.25804,-0.07964,-0.01964,0.16072
-0.21337,0.95351,-0.21282,0.13775,0.10339,0.17732
-0.21052,0.96272,-0.16983,0.04396,-0.11363,0.14266
-0.21255,0.96807,-0.13287,-0.15148,-0.43823,-0.0253
-0.22565,0.96985,-0.0921,-0.05945,-0.32582,0.02713
-0.2386,0.96984,-0.04985,0.12878,-0.19716,-0.02793
-0.25013,0.96816,-0.00995,0.23318,-0.19803,-0.0544
-0.26401,0.96421,0.02455,0.27863,-0.22042,0.01645
-0.27925,0.9583,0.06077,0.36076,-0.12831,0.12496
-0.29432,0.95098,0.09491,0.38865,0.04436,0.14018
-0.30311,0.94453,0.12646,0.2967,0.03382,-0.15681
-0.31025,0.93718,0.15948,0.12516,0.04486,-0.39505
-0.31688,0.92787,0.19657,0.25931,0.17323,-0.39964
-0.32356,0.91876,0.22626,0.29313,0.25884,-0.3424
-0.33261,0.91296,0.23638,0.23758,0.39025,-0.35035
-0.34277,0.91015,0.23266,0.23866,0.30658,-0.16285
-0.35477,0.90855,0.2206,0.14211,0.40219,-0.23513
-0.36112,0.9079,0.21284,0.05969,0.54092,-0.32077
-0.36906,0.90856,0.19574,0.24305,0.44657,-0.16394
-0.37638,0.91233,0.16124,0.2571,0.45469,0.0531
-0.3747,0.92083,0.10803,-0.11436,0.32613,0.01953
-0.36855,0.92847,0.04606,-0.12038,0.18214,-0.04371
-0.36112,0.93238,-0.01629,-0.17871,0.22476,0.16723
-0.35011,0.93311,-0.08203,-0.14488,0.38499,0.46257
-0.3335,0.93185,-0.14292,-0.1481,0.28659,0.13201
-0.3224,0.9272,-0.19068,-0.00455,0.34003,-0.06077
-0.31917,0.91772,-0.23649,0.03537,0.31618,-0.07514
-0.31485,0.90956,-0.27125,0.1258,0.30968,0.15676
-0.29838,0.90325,-0.3084,0.16108,0.13783,0.29749
-0.27561,0.89831,-0.34216,0.12852,-0.10151,0.4233
-0.25503,0.89299,-0.37084,0.0696,-0.27381,0.57194
-0.24025,0.8849,-0.39903,0.06917,-0.30608,0.58209
-0.22835,0.87715,-0.42245,0.05928,-0.60193,0.37962
-0.21875,0.87241,-0.43709,0.01526,-0.60179,0.32512
-0.21233,0.87141,-0.44222,0.05003,-0.54834,0.25931
-0.20841,0.8745,-0.43796,0.09422,-0.53025,0.18308
-0.20753,0.88055,-0.42611,0.06422,-0.58393,0.15787
-0.2065,0.89013,-0.40624,-0.04174,-0.57416,0.08826
-0.20511,0.90317,-0.37712,-0.01071,-0.61911,-0.00164
-0.20373,0.91989,-0.33511,0.07035,-0.48387,-0.20131
-0.2044,0.93714,-0.28282,0.24904,0.82218,-0.49788
-0.20288,0.94546,-0.25485,0.14833,1.96252,-0.43401
-0.19171,0.94131,-0.27783,-0.30603,1.75987,-1.42786
-0.17385,0.9266,-0.33346,0.18376,-0.36385,-1.61337
-0.16562,0.91981,-0.35571,0.291,-0.92078,-0.22881
-0.17542,0.92238,-0.34415,0.07279,0.23996,0.53179
-0.20001,0.93381,-0.29662,-0.38272,1.73153,2.00628
-0.19108,0.93372,-0.30275,0.22647,0.19958,0.71771
-0.17783,0.9357,-0.30468,0.29868,-0.8263,-0.15711
-0.17153,0.94452,-0.2801,-0.35972,-0.56592,0.09986
-0.19437,0.94551,-0.2612,-0.43723,-0.13234,-0.55794
-0.21709,0.94831,-0.23147,0.2961,0.68662,0.2472
-0.20463,0.96321,-0.17423,0.19349,0.39269,0.5931
-0.19089,0.97503,-0.11344,0.00484,-0.08612,0.63776
-0.19566,0.97795,-0.07294,-0.24413,-0.22708,0.13655
-0.20853,0.97705,-0.04347,-0.01441,-0.16611,0.21263
-0.21517,0.97647,-0.01406,0.23153,-0.08724,-0.03683
-0.2239,0.97435,0.02242,0.18531,-0.13778,0.01548
-0.23516,0.96998,0.06198,0.20077,-0.12539,0.0434
-0.24994,0.96337,0.09721,0.20167,-0.11785,0.03296
-0.26105,0.95709,0.12579,0.22779,-0.08245,-0.1329
-0.2678,0.95184,0.14927,0.22511,-0.11228,-0.19168
-0.27548,0.94564,0.17284,0.23795,-0.03146,-0.33533
-0.28556,0.93744,0.19917,0.32749,0.10248,-0.37588
-0.29725,0.92756,0.22646,0.36466,0.15266,-0.39664
-0.3075,0.91836,0.24913,0.28622,0.13177,-0.39674
-0.31495,0.91221,0.26207,0.29874,0.2781,-0.43241
-0.32319,0.90913,0.26275,0.40302,0.20374,-0.28141
-0.33198,0.90829,0.25456,0.31811,0.39438,-0.09228
-0.33236,0.90973,0.24884,0.02569,0.53794,-0.26843
-0.32977,0.91429,0.23523,0.21243,0.50635,0.0682
-0.33277,0.92289,0.19375,0.21859,0.7151,0.31765
-0.3221,0.93597,0.14218,-0.42801,0.34908,-0.16082
-0.31182,0.94639,0.08431,-0.63375,0.10743,-0.08485
-0.31011,0.95051,0.01909,-0.37626,0.09777,0.25544
-0.30345,0.95172,-0.04637,-0.18392,0.40802,0.39934
-0.28989,0.95007,-0.11542,-0.14453,0.57519,0.14617
-0.27431,0.94522,-0.17694,-0.19244,0.54016,0.01555
-0.26949,0.93877,-0.21466,-0.06807,0.38789,0.22948
-0.26706,0.9295,-0.25437,0.13078,0.37985,0.25665
-0.25402,0.91796,-0.30467,0.19315,0.15808,0.20488
-0.24077,0.90719,-0.34502,0.19368,-0.11974,0.39713
-0.22889,0.89638,-0.37961,0.17016,-0.33362,0.47263
-0.22496,0.88394,-0.40993,0.09438,-0.46588,0.46472
-0.22369,0.87302,-0.43335,0.03882,-0.59298,0.42442
-0.2232,0.86501,-0.44938,0.04849,-0.6398,0.37165
-0.22412,0.86023,-0.45801,0.07566,-0.65423,0.36733
-0.22352,0.8602,-0.45836,0.05749,-0.57198,0.29268
-0.22052,0.86537,-0.45001,0.0457,-0.59329,0.24157
-0.2158,0.87676,-0.42979,0.06871,-0.64768,0.15466
-0.20982,0.89339,-0.39727,0.11643,-0.72637,-0.01674
-0.20317,0.9133,-0.35298,0.12591,-0.62673,-0.19217
-0.20085,0.93222,-0.30103,0.13979,-0.04914,-0.32873
-0.20222,0.93898,-0.27824,0.04045,1.69607,-0.47039
-0.19534,0.93207,-0.30509,-0.36371,2.2079,-1.0625
-0.17957,0.91235,-0.36793,-0.26727,-0.30226,-1.80442
-0.17289,0.90756,-0.38267,0.09652,-1.08176,-0.45966
-0.18838,0.90891,-0.372,-0.0907,-0.18894,0.1365
-0.21936,0.90955,-0.35297,0.01974,1.42319,1.60383
-0.24035,0.90254,-0.3573,0.11926,0.11797,0.66166
-0.23262,0.90033,-0.36782,0.21125,-0.35374,0.36924
-0.22409,0.90514,-0.36124,0.22393,-0.6562,0.61086
-0.23624,0.9105,-0.33939,-0.04045,0.2037,-0.14638
-0.25221,0.91568,-0.31293,0.15154,0.82152,-0.06502
-0.23101,0.93207,-0.27905,0.39926,0.61412,0.4821
-0.1951,0.95528,-0.22221,-0.09175,-0.07199,0.16848
-0.17867,0.96749,-0.17901,-0.15284,-0.06037,0.06656
-0.17479,0.97442,-0.14122,-0.06399,-0.09713,0.29118
-0.17501,0.97909,-0.10368,0.05482,-0.30815,0.04739
-0.18166,0.98123,-0.0647,0.12569,-0.30664,-0.04664
-0.19024,0.98155,-0.0191,0.21884,-0.24984,0.03875
-0.19644,0.98023,0.02347,0.27029,-0.18165,0.18177
-0.20922,0.9758,0.06355,0.29005,-0.21202,0.15723
-0.22377,0.96935,0.10147,0.15251,-0.14374,0.1569
-0.23411,0.9632,0.13205,0.09646,-0.11838,-0.16044
-0.24207,0.95689,0.16052,0.18852,0.0787,-0.37256
-0.24881,0.94971,0.19013,0.24341,0.20195,-0.53142
-0.25639,0.94097,0.22099,0.35637,0.20438,-0.27269
-0.26839,0.93282,0.24045,0.30508,0.34051,-0.36395
-0.27732,0.92881,0.24577,0.36247,0.41747,-0.28497
-0.28326,0.92689,0.24624,0.36348,0.26441,-0.08453
-0.28994,0.92559,0.24336,0.03287,0.36143,-0.20624
-0.29358,0.92564,0.23873,-0.04547,0.39976,-0.31879
-0.29975,0.92692,0.22577,0.01102,0.44176,-0.15477
-0.3076,0.93009,0.2008,0.21848,0.3069,-0.00145
-0.31303,0.93716,0.15411,-0.00894,0.26984,0.04459
-0.31343,0.94508,0.09263,-0.20073,0.14833,-0.09205
-0.30828,0.95099,0.02406,-0.27548,0.10551,0.2244
-0.29954,0.9532,-0.04099,-0.25124,0.4301,0.50905
-0.28531,0.95289,-0.10296,-0.12288,0.58926,0.2988
-0.26431,0.95047,-0.16356,-0.03974,0.53418,-0.0665
-0.25076,0.94513,-0.20939,-0.08124,0.43091,0.15879
-0.25202,0.93567,-0.24702,0.04476,0.27535,0.47494
-0.2554,0.91683,-0.3069,0.22086,0.12949,0.09218
-0.25489,0.90036,-0.35268,0.15574,-0.00096,0.28084
-0.24583,0.88882,-0.38672,0.12535,-0.07526,0.41001
-0.23539,0.87882,-0.41506,0.12992,-0.32477,0.48735
-0.22841,0.86812,-0.44068,0.09733,-0.48636,0.5275
-0.22466,0.85721,-0.46338,0.09331,-0.55412,0.52162
-0.22245,0.84875,-0.47973,0.03665,-0.61045,0.30929
-0.22048,0.84586,-0.4857,0.04029,-0.54868,0.28116
-0.21848,0.84904,-0.48104,0.04596,-0.56799,0.26483
-0.21785,0.85767,-0.46578,0.05265,-0.60069,0.24744
-0.21684,0.87131,-0.44023,0.03167,-0.59864,0.10382
-0.21251,0.89007,-0.40326,0.02574,-0.62971,-0.0313
-0.20715,0.91243,-0.35294,0.00146,-0.34524,-0.43814
-0.2063,0.92973,-0.30504,0.31186,1.65577,-0.55071
-0.2065,0.92947,-0.30569,-0.32348,1.7902,-0.88415
-0.19485,0.91527,-0.35259,-0.2712,0.8622,-1.27136
-0.17903,0.90212,-0.39258,0.46335,-0.87592,-0.66119
-0.18741,0.89889,-0.39609,0.19823,-0.58277,0.13176
-0.20742,0.90176,-0.37921,0.10964,-0.08893,0.35491
-0.22096,0.90902,-0.35335,-0.02037,1.17754,1.48003
-0.20381,0.90854,-0.36472,0.09675,-0.04964,0.35193
-0.19316,0.91612,-0.35131,0.32347,-0.56549,0.87682
-0.19372,0.92379,-0.33027,-0.12242,-0.45416,0.51259
-0.22994,0.92079,-0.31509,0.06872,0.55605,-0.05561
-0.24672,0.92607,-0.28552,0.22577,0.87218,0.0095
-0.21999,0.9495,-0.2237,0.24676,0.23734,0.7241
-0.19512,0.96729,-0.16209,-0.02543,-0.02218,0.22174
-0.19135,0.97374,-0.12332,-0.03041,-0.12868,0.38978
-0.19845,0.97668,-0.08199,-0.04856,-0.11881,0.29757
-0.20568,0.97745,-0.04779,0.11622,-0.17583,-0.04479
-0.21301,0.97699,-0.01053,0.12355,-0.17537,-0.08204
-0.21787,0.97548,0.03123,0.1872,-0.20917,0.04612
-0.22548,0.97167,0.07074,0.19942,-0.16526,0.06676
-0.23581,0.96633,0.10297,0.19954,-0.07613,-0.01885
-0.24377,0.96152,0.12673,0.18322,-0.08295,-0.21163
-0.24913,0.95632,0.15293,0.21325,-0.02982,-0.20318
-0.25564,0.94911,0.18392,0.28956,0.04588,-0.28437
-0.26341,0.9401,0.21638,0.24257,0.11431,-0.38403
-0.27016,0.93139,0.244,0.11357,0.20051,-0.35585
-0.27622,0.92498,0.26099,0.20928,0.33942,-0.44434
-0.28434,0.92131,0.26521,0.39289,0.27042,-0.12052
-0.29527,0.91953,0.25938,0.2504,0.33061,-0.15894
-0.29813,0.91972,0.25538,-0.03039,0.40219,-0.40577
-0.29907,0.92151,0.24773,-0.02846,0.29478,-0.34099
-0.30891,0.92457,0.22304,0.07398,0.27558,-0.1489
-0.31726,0.9307,0.18203,0.14119,0.20998,0.12158
-0.31774,0.94089,0.11736,0.08965,0.43826,0.13078
-0.3078,0.9502,0.04875,-0.08742,0.44305,0.09128
-0.29073,0.95668,-0.01567,-0.29963,0.53562,0.52476
-0.27636,0.95827,-0.07306,-0.34617,0.52534,0.49251
-0.26097,0.95589,-0.13482,-0.29244,0.42198,0.01596
-0.24549,0.94883,-0.19862,-0.26125,0.34818,-0.02759
-0.24656,0.94066,-0.23315,-0.11848,0.35734,0.16264
-0.24859,0.92343,-0.29237,0.26526,0.21729,0.10386
-0.24246,0.90673,-0.34503,0.23781,0.07335,0.15623
-0.23221,0.8958,-0.37897,0.17466,-0.04451,0.31789
-0.22315,0.88582,-0.40686,0.06307,-0.27583,0.68132
-0.21828,0.87222,-0.4377,0.1287,-0.56656,0.69893
-0.21831,0.85658,-0.46756,0.07671,-0.75071,0.3685
-0.22046,0.84405,-0.48885,0.02576,-0.60044,0.25393
-0.22029,0.83926,-0.4971,0.06436,-0.51169,0.22065
-0.22084,0.8409,-0.49407,0.04155,-0.57453,0.23756
-0.22195,0.84875,-0.47996,-0.0065,-0.60885,0.21116
-0.22078,0.86318,-0.45406,0.00429,-0.63844,0.06386
-0.21641,0.8833,-0.41586,0.06951,-0.57657,-0.10269
-0.21303,0.90659,-0.36429,0.05529,-0.13738,-0.28668
-0.21508,0.92443,-0.31492,0.11459,0.26413,-0.57145
-0.21703,0.92388,-0.31518,-0.28995,2.55246,-1.0437
-0.2127,0.90829,-0.36023,-0.31869,0.52314,-1.60202
-0.19915,0.89585,-0.39724,-0.10283,-0.20603,-1.27723
-0.20422,0.89488,-0.39683,0.01231,0.25549,0.35566
-0.23116,0.89292,-0.38635,0.20047,1.17714,1.59699
-0.23853,0.89116,-0.38591,0.28517,0.44866,1.47308
-0.21647,0.89816,-0.38269,0.17629,-0.79345,0.4321
-0.20575,0.90966,-0.3608,0.00245,-0.21647,0.34109
-0.2177,0.91333,-0.34413,0.01439,-0.22014,0.32442
-0.24156,0.91226,-0.33079,0.20425,0.66612,0.07986
-0.24471,0.92434,-0.29278,0.11855,0.24566,0.24929
-0.23273,0.94427,-0.23278,0.15714,-0.06997,0.30794
-0.22394,0.95702,-0.1843,0.15123,-0.02982,0.21216
-0.22102,0.96319,-0.15304,0.13087,-0.07433,0.19309
-0.22028,0.96775,-0.12223,-0.04198,-0.25812,0.109
-0.22314,0.97127,-0.08268,-0.04566,-0.2331,0.03643
-0.2292,0.97251,-0.04109,0.10629,-0.1899,-0.04846
-0.23691,0.97152,-0.00512,0.29941,-0.1272,0.02445
-0.24657,0.96868,0.02945,0.34487,-0.0743,0.07843
-0.25838,0.9639,0.06425,0.37094,0.03073,0.15501
-0.26608,0.95916,0.09599,0.25622,-0.06283,0.0671
-0.27064,0.95447,0.12547,0.08171,-0.07095,-0.12087
-0.27612,0.94858,0.15477,0.11201,0.024,-0.40413
-0.28039,0.9414,0.18747,0.25979,0.10544,-0.44844
-0.28721,0.93295,0.21703,0.28425,0.18764,-0.25275
-0.29709,0.92566,0.23426,0.1248,0.28332,-0.37562
-0.30484,0.92153,0.2405,0.2621,0.33089,-0.3326
-0.31514,0.91923,0.23601,0.38564,0.25768,-0.18592
-0.32468,0.91832,0.2264,0.16109,0.34913,-0.13544
-0.32764,0.91946,0.21736,-0.00206,0.53352,-0.27536
-0.33358,0.92337,0.18999,0.27952,0.46279,-0.19403
-0.33874,0.9312,0.13456,0.24966,0.45966,0.14517
-0.33336,0.94048,0.06596,-0.1002,0.30013,0.04457
-0.32198,0.94674,-0.00246,-0.21082,0.31046,0.11599
-0.31098,0.94775,-0.07104,-0.17066,0.5011,0.58522
-0.29428,0.94526,-0.14098,-0.19504,0.46477,0.35034
-0.28019,0.93801,-0.204,-0.19056,0.37983,0.08579
-0.28685,0.92754,-0.23954,0.03554,0.54628,0.2368
-0.29728,0.91129,-0.28489,0.22769,0.59966,0.26597
-0.29481,0.89339,-0.33902,0.1377,0.02759,0.17827
-0.28672,0.87964,-0.37951,0.12017,-0.08267,0.46761
-0.27554,0.86822,-0.41263,0.13984,-0.09923,0.56589
-0.26669,0.85532,-0.44418,0.12009,-0.37945,0.56719
-0.26071,0.84186,-0.47254,0.10965,-0.57474,0.49599
-0.25868,0.82981,-0.49447,0.08766,-0.6308,0.43342
-0.25929,0.82125,-0.50825,0.05986,-0.58899,0.36802
-0.25983,0.81836,-0.51261,0.07596,-0.54326,0.3352
-0.25962,0.82142,-0.50781,0.04827,-0.57613,0.32283
-0.25786,0.83088,-0.49309,0.04729,-0.62043,0.24614
-0.25253,0.84707,-0.46766,0.0437,-0.6592,0.09597
-0.24334,0.86929,-0.43025,0.04512,-0.66799,-0.02131
-0.23619,0.89435,-0.37994,0.11926,-0.09625,-0.36263
-0.23596,0.91077,-0.33884,0.30795,1.64118,-0.65629
-0.23762,0.9052,-0.35234,0.13779,2.64422,-0.71064
-0.23417,0.8875,-0.39687,0.00689,0.05484,-1.54237
-0.2213,0.87759,-0.42527,0.3757,-0.51633,-0.72776
-0.2231,0.87645,-0.42669,0.23859,-0.45711,-0.09893
-0.24252,0.87625,-0.41636,-0.01018,0.60809,0.67868
-0.25439,0.88273,-0.39506,-0.13184,0.85458,1.14048
-0.25156,0.88337,-0.39544,0.31664,-0.19976,0.43543
-0.23531,0.88691,-0.39752,0.20627,-0.82619,0.26921
-0.22662,0.89592,-0.38206,-0.09242,-0.64047,0.4402
-0.24479,0.8992,-0.36264,0.04239,0.7986,-0.04849
-0.27318,0.89719,-0.34701,0.2614,0.8784,-0.01357
-0.26535,0.9125,-0.31135,0.35992,0.74122,0.03396
-0.24826,0.93394,-0.25712,0.13816,-0.10982,0.27563
-0.24377,0.94503,-0.21792,0.06088,0.03614,0.02856
-0.2478,0.95111,-0.18431,0.10443,0.10452,0.04022
-0.2432,0.95877,-0.14697,0.13042,-0.12706,0.03106
-0.23766,0.96591,-0.1026,0.1274,-0.24377,0.05647
-0.24002,0.96934,-0.05263,0.14476,-0.24187,0.10363
-0.24688,0.96901,-0.00801,0.18866,-0.17366,0.1032
-0.25549,0.96637,0.02896,0.26256,-0.15863,0.05596
-0.26464,0.9623,0.06275,0.33352,-0.07175,0.04247
-0.27437,0.95674,0.09673,0.28362,-0.01662,0.09067
-0.28113,0.95049,0.1324,0.19601,-0.00171,0.05217
-0.2868,0.94318,0.16775,0.00322,-0.03922,-0.11465
-0.2925,0.9349,0.20097,0.11042,0.05274,-0.40458
-0.2944,0.92636,0.23488,0.36812,0.26249,-0.58356
-0.30047,0.91773,0.25975,0.22421,0.34659,-0.33754
-0.30991,0.91208,0.26843,0.15852,0.30028,-0.4029
-0.3178,0.91026,0.26538,0.33519,0.2775,-0.09035
-0.32443,0.91081,0.25526,0.15112,0.53397,-0.17996
-0.32542,0.91429,0.24117,0.04766,0.6414,-0.21141
-0.32551,0.92231,0.20826,0.18783,0.57703,0.03961
-0.32406,0.93302,0.15638,-0.20439,0.39817,-0.08846
-0.31857,0.94286,0.09756,-0.31148,0.14395,-0.2299
-0.31904,0.94719,0.0322,-0.19535,-0.09621,0.16099
-0.32238,0.94599,-0.03421,0.02377,0.29609,0.49526
-0.32097,0.94174,-0.10045,-0.01834,0.39561,0.47511
-0.32122,0.93353,-0.15918,-0.21078,0.46151,0.04463
-0.33054,0.92274,-0.19822,-0.09623,0.44712,0.19059
-0.34319,0.90874,-0.23749,0.0326,0.35706,0.27188
-0.34662,0.89241,-0.28887,0.08313,0.05484,0.1255
-0.34129,0.87959,-0.33143,0.19981,-0.08055,0.20637
-0.33027,0.87055,-0.36476,0.25927,-0.15011,0.36051
-0.32278,0.86148,-0.392,0.257,-0.36549,0.43245
-0.31984,0.85138,-0.41574,0.20365,-0.56559,0.35416
-0.31782,0.84454,-0.43097,0.20649,-0.64482,0.29863
-0.31537,0.84248,-0.43677,0.19212,-0.64535,0.28628
-0.31134,0.84535,-0.43411,0.16968,-0.53166,0.21322
-0.30587,0.85327,-0.42234,0.1299,-0.52223,0.10297
-0.2986,0.8665,-0.40001,0.15537,-0.59709,-0.0329
-0.28927,0.88421,-0.36672,0.14906,-0.63334,-0.18159
-0.2812,0.90248,-0.32627,0.11746,-0.03654,-0.53285
-0.27816,0.91429,-0.29444,0.08376,0.47493,-0.63266
-0.27527,0.91324,-0.30034,-0.24,1.81397,-0.81747
-0.28118,0.89955,-0.3343,-0.24925,0.42762,-0.9467
-0.28139,0.88725,-0.36552,0.07625,-0.41734,-0.7948
-0.29878,0.88236,-0.36353,-0.07079,-0.28672,0.01022
-0.3205,0.87786,-0.35585,-0.30795,1.11287,0.90397
-0.33803,0.86952,-0.36009,-0.22046,1.42909,0.9763
-0.35017,0.86355,-0.36284,0.39547,-0.29173,-0.06087
-0.36963,0.86031,-0.35105,0.61496,-0.5494,0.57317
-0.3959,0.86567,-0.30639,0.54632,-0.39318,0.5603
-0.41307,0.87452,-0.25414,0.58856,0.13642,0.4528
-0.40513,0.88858,-0.21516,0.36349,0.71631,0.26515
-0.37072,0.91176,-0.17679,0.15514,0.2847,0.21328
-0.33345,0.93332,-0.13308,0.0903,0.17366,0.03645
-0.30057,0.94978,-0.08695,0.14393,0.02927,0.03781
-0.27538,0.96033,-0.04379,0.09757,-0.28402,0.02915
-0.26067,0.96542,0.00417,-0.01561,-0.34992,-0.02591
-0.25408,0.96561,0.05504,0.113,-0.23261,-0.07211
-0.25083,0.96327,0.09582,0.38099,-0.14894,0.06291
-0.24418,0.96131,0.1275,0.32568,-0.24054,0.45869
-0.2402,0.9575,0.15966,0.12472,-0.229,0.47102
-0.23721,0.95354,0.18569,-0.19378,-0.09175,0.03129
-0.23586,0.9506,0.20181,-0.17926,-0.02625,-0.47228
-0.22992,0.94735,0.22284,-0.12412,0.057,-0.57373
-0.22229,0.94274,0.24862,-0.01611,0.09838,-0.59479
-0.22314,0.93725,0.26789,-0.06852,0.25649,-0.27581
-0.23633,0.92984,0.28203,-0.12407,0.28276,-0.15041
-0.24521,0.92489,0.29058,-0.00907,0.26253,-0.06822
-0.24909,0.92605,0.28351,0.0485,0.36846,-0.39986
-0.25144,0.93019,0.26742,0.03107,0.46554,-0.53428
-0.25852,0.93603,0.23875,-0.06381,0.65727,-0.37402
-0.27168,0.94365,0.18895,0.07308,0.42822,-0.14851
-0.28434,0.95195,0.11376,0.11799,0.39115,-0.02683
-0.29419,0.95524,0.03092,0.12342,0.4054,0.44062
-0.30727,0.95098,-0.03484,0.05878,0.42997,0.45154
-0.31867,0.94468,-0.07766,0.13671,0.45958,0.2174
-0.32648,0.93715,-0.12312,0.29484,0.43965,0.45803
-0.33305,0.92334,-0.19107,0.20261,0.3946,0.10225
-0.34795,0.90223,-0.25478,0.05339,0.05636,-0.01145
-0.36583,0.88094,-0.30018,0.04051,-0.09334,0.13638
-0.3725,0.86544,-0.33504,0.15584,-0.21012,0.28785
-0.37331,0.85503,-0.35994,0.24415,-0.43352,0.47659
-0.37832,0.84437,-0.37935,0.39014,-0.5283,0.41077
-0.38468,0.8345,-0.39451,0.44895,-0.45184,0.30741
-0.38603,0.82969,-0.40324,0.365,-0.3767,0.32609
-0.38409,0.82897,-0.40655,0.30257,-0.46798,0.35973
-0.37838,0.83274,-0.40419,0.19261,-0.53637,0.28622
-0.36719,0.84291,-0.39327,0.08851,-0.58037,0.10523
-0.34861,0.86138,-0.36944,-0.0244,-0.65,-0.02955
-0.32377,0.88696,-0.32937,-0.14765,-0.53472,-0.35478
-0.29894,0.91201,-0.28084,-0.17774,0.65885,-0.86561
-0.28395,0.92289,-0.26008,-0.10609,1.61558,-0.8158
-0.27866,0.91621,-0.28795,-0.36697,1.96914,-0.7313
-0.27568,0.89951,-0.33895,-0.19533,-0.025,-1.08122
-0.27895,0.8895,-0.36191,-0.09686,-0.78226,-0.7756
-0.29074,0.88827,-0.35558,-0.28247,-0.08891,0.21876
-0.29714,0.89273,-0.33872,0.14207,0.71017,1.12549
-0.29378,0.89557,-0.33413,0.17142,0.22844,0.98449
-0.27953,0.8963,-0.34424,0.15722,-0.42294,0.33266
-0.27309,0.90143,-0.33591,0.18627,-0.33648,0.37572
-0.27498,0.9098,-0.31088,0.08482,-0.1223,0.42311
-0.2804,0.91967,-0.27492,0.04938,0.23278,0.13942
-0.26839,0.93294,-0.23996,0.32961,0.54937,0.15134
-0.2393,0.9513,-0.19432,0.27432,-0.04586,0.34399
-0.21636,0.96502,-0.14804,0.0979,-0.08728,-0.00267
-0.20681,0.97235,-0.10842,0.13812,-0.0892,0.00506
-0.19725,0.97778,-0.07092,0.17538,-0.17027,0.07601
-0.18787,0.98185,-0.02608,0.13904,-0.34319,0.03901
-0.18282,0.98299,0.01734,0.14498,-0.35306,0.01599
-0.18169,0.98155,0.0595,0.21537,-0.30565,0.02628
-0.18703,0.97676,0.10464,0.1889,-0.13866,0.1706
-0.19471,0.97075,0.14048,0.16682,-0.15254,0.07629
-0.20038,0.96523,0.16783,0.04863,-0.05877,-0.06497
-0.20339,0.9596,0.19442,0.20878,0.194,-0.64421
-0.20279,0.95373,0.22198,0.32051,0.26394,-0.63817
-0.20731,0.94642,0.24759,0.26228,0.24408,-0.35393
-0.21931,0.94133,0.25652,0.11683,0.39946,-0.39412
-0.22509,0.94013,0.25591,0.34765,0.38519,-0.20505
-0.23018,0.94039,0.25035,0.41742,0.39331,-0.11727
-0.23809,0.9413,0.23927,-0.15869,0.47503,-0.33687
-0.24751,0.94347,0.22043,-0.10303,0.43429,-0.43162
-0.26089,0.94627,0.19107,0.16567,0.55201,-0.24079
-0.27335,0.95082,0.14564,0.2112,0.24699,-0.05558
-0.28396,0.95585,0.07561,0.02652,0.12037,0.11
-0.28706,0.9579,-0.00313,-0.13193,0.13958,0.37311
-0.28648,0.95529,-0.0731,-0.19093,0.48774,0.53097
-0.27911,0.94975,-0.14165,-0.11975,0.53032,0.30762
-0.27067,0.94053,-0.20529,-0.01334,0.52145,0.01955
-0.28032,0.92733,-0.24795,0.01724,0.45811,0.32411
-0.30603,0.90591,-0.2927,0.23343,0.48745,0.07015
-0.31507,0.88431,-0.34455,0.26,0.16181,-0.03992
-0.30249,0.87252,-0.38367,0.142,-0.06384,0.30611
-0.29044,0.86271,-0.41396,0.1151,-0.30594,0.63479
-0.28573,0.85058,-0.44144,0.16016,-0.4432,0.68847
-0.28547,0.8369,-0.46702,0.27317,-0.66168,0.52354
-0.28457,0.82515,-0.48799,0.26628,-0.65033,0.3994
-0.28342,0.81818,-0.50025,0.22887,-0.51073,0.38068
-0.28557,0.81585,-0.50284,0.17149,-0.53978,0.32522
-0.2907,0.81935,-0.49412,0.08974,-0.54892,0.22533
-0.29415,0.82975,-0.47432,0.00632,-0.48373,0.05132
-0.29275,0.84675,-0.4442,-0.01989,-0.36165,-0.20848
-0.28627,0.86717,-0.40751,0.0706,0.14739,-0.85602
-0.28282,0.8792,-0.38343,0.05576,0.58067,-0.97296
-0.2815,0.87969,-0.38326,0.0314,1.05813,-0.7932
-0.28364,0.87126,-0.40057,-0.40984,0.49932,-0.82351
-0.28527,0.86634,-0.40997,-0.19699,-0.10015,-0.55269
-0.29751,0.86478,-0.40452,-0.12475,-0.22507,-0.40949
-0.31142,0.86406,-0.39549,-0.07908,-0.1483,0.27143
-0.32712,0.861,-0.38946,0.0343,0.29112,0.49267
-0.33794,0.85723,-0.38853,0.1716,0.31044,0.14855
-0.35012,0.85822,-0.37533,0.53287,-0.16398,0.50399
-0.36641,0.86027,-0.35451,0.53583,-0.34751,0.58849
-0.37874,0.872,-0.3101,0.43049,0.15435,0.3763
-0.384,0.8849,-0.26363,0.32014,0.62731,0.13884
-0.3691,0.90151,-0.22592,0.34452,0.44317,0.17393
-0.33905,0.92208,-0.18656,0.29608,0.16553,0.14965
-0.30573,0.94135,-0.14274,0.25446,0.05483,0.08906
-0.2766,0.95647,-0.09303,0.17229,-0.16664,0.05527
-0.25793,0.9652,-0.0431,0.05444,-0.32808,0.03844
-0.2492,0.96843,0.00577,0.01439,-0.2374,0.03455
-0.24644,0.96789,0.04945,0.11136,-0.07031,0.01907
-0.2431,0.96636,0.08393,0.3039,-0.07151,-0.04034
-0.23735,0.96436,0.1169,0.33925,-0.20991,0.16624
-0.23016,0.96136,0.15098,0.23675,-0.22665,0.24697
-0.22376,0.95789,0.1799,-0.02345,-0.17697,0.12587
-0.21829,0.95441,0.20357,-0.19726,-0.01304,-0.18724
-0.21061,0.95023,0.22956,-0.03356,0.14697,-0.56945
-0.2057,0.94472,0.25531,0.00491,0.11059,-0.22534
-0.21394,0.93911,0.26887,0.00232,0.23374,-0.10444
-0.22391,0.93518,0.27438,0.22767,0.38652,-0.10224
-0.2294,0.93531,0.26936,0.47409,0.50193,-0.18646
-0.23466,0.93761,0.25653,0.28026,0.73849,-0.11556
-0.23875,0.94224,0.23488,0.08596,0.92996,-0.11406
-0.23726,0.95008,0.20262,0.04172,0.58563,-0.00866
-0.23766,0.95937,0.15204,-0.20026,0.2123,-0.26477
-0.24379,0.96617,0.08408,-0.37749,-0.2701,-0.35346
-0.25664,0.96647,0.0075,-0.43291,-0.09465,0.16338
-0.27326,0.95932,-0.0709,-0.07534,0.35207,0.49792
-0.2842,0.94782,-0.14447,-0.00155,0.54108,0.3829
-0.294,0.93898,-0.17855,-0.03919,0.47655,0.24814
-0.31206,0.92643,-0.21058,0.05125,0.3094,0.28471
-0.33112,0.90765,-0.25792,0.11119,0.0905,0.29383
-0.34408,0.88877,-0.30279,0.08801,-0.16085,0.32772
-0.35764,0.86993,-0.33957,0.34746,-0.39798,0.33613
-0.36469,0.85431,-0.37034,0.30842,-0.3894,0.18736
-0.36823,0.84357,-0.39088,0.26229,-0.47454,0.31842
-0.36872,0.8373,-0.40371,0.30428,-0.49852,0.33103
-0.36211,0.83747,-0.40928,0.31566,-0.50067,0.33109
-0.34938,0.84247,-0.41008,0.36899,-0.52256,0.30262
-0.33516,0.85077,-0.40479,0.24992,-0.53015,0.12876
-0.31705,0.86515,-0.38858,0.1735,-0.61042,-0.09494
-0.29192,0.88679,-0.3583,0.07418,-0.56439,-0.33543
-0.26442,0.90997,-0.31944,-0.21825,0.0152,-0.81583
-0.24149,0.92192,-0.3029,-0.21654,1.38025,-0.82549
-0.22311,0.92005,-0.32205,-0.39194,1.25196,-1.1796
-0.21585,0.91016,-0.35358,-0.02532,-0.13631,-0.96252
-0.21806,0.90201,-0.3726,-0.43052,-0.44667,-0.12919
-0.23533,0.89948,-0.36818,-0.42775,0.14341,0.42494
-0.2526,0.89957,-0.35631,-0.12679,1.00009,0.95772
-0.26866,0.89978,-0.34382,-0.01354,0.44104,0.53427
-0.26869,0.89738,-0.35001,0.28331,-0.48289,0.06243
-0.26709,0.89944,-0.34594,0.13849,-0.45142,0.45307
-0.27788,0.90719,-0.3159,0.16615,-0.12003,0.56381
-0.28216,0.9182,-0.278,0.46529,0.6905,0.22711
-0.26819,0.93117,-0.24697,0.51379,0.47441,0.27295
-0.23532,0.95105,-0.2003,0.31337,-0.0575,0.36342
-0.20677,0.96653,-0.15185,0.06803,-0.14256,0.06826
-0.19517,0.97454,-0.11033,-0.03684,-0.1795,0.03965
-0.18973,0.97932,-0.0702,-0.02235,-0.25784,0.16944
-0.18324,0.98281,-0.02243,0.0958,-0.26952,0.13536
-0.1797,0.98342,0.02432,0.25336,-0.12252,0.14035
-0.18077,0.9815,0.0631,0.31102,-0.01545,0.11996
-0.18435,0.97819,0.09566,0.28552,-0.04115,0.0683
-0.18323,0.97499,0.12577,0.10756,-0.11595,-0.09443
-0.18079,0.97203,0.1499,0.10433,-0.07173,-0.17935
-0.17867,0.96852,0.1733,0.09502,0.04789,-0.33835
-0.17693,0.96379,0.19947,0.12049,0.09062,-0.46016
-0.18047,0.95725,0.22603,0.11142,0.14522,-0.27547
-0.19031,0.95068,0.24491,-0.02191,0.14911,-0.19378
-0.20088,0.94611,0.254,0.1635,0.25138,-0.38842
-0.20915,0.94352,0.25693,0.27607,0.21557,-0.20212
-0.22118,0.9425,0.25053,0.32497,0.21631,-0.07028
-0.23201,0.94343,0.23688,0.0336,0.32351,-0.28768
-0.24049,0.94505,0.22143,-0.10981,0.28696,-0.38348
-0.25344,0.9473,0.1959,-0.0713,-0.04906,-0.47213
-0.27555,0.94921,0.15185,0.07303,-0.1827,-0.17451
-0.29966,0.95011,0.08649,0.02617,-0.11999,-0.09166
-0.31316,0.94968,0.00592,0.12587,0.46099,0.37184
-0.30321,0.95032,-0.07039,0.29637,1.1853,0.68124
-0.2835,0.95072,-0.12552,-0.24685,1.06417,0.6996
-0.27405,0.94709,-0.16706,-0.37597,0.47491,0.0951
-0.26872,0.94096,-0.20587,-0.17154,0.44335,0.09302
-0.27515,0.92702,-0.25481,0.23844,0.39686,0.24885
-0.28391,0.90583,-0.31442,0.26456,0.15531,0.04245
-0.28681,0.88771,-0.36015,0.22491,0.07761,-0.06012
-0.27371,0.88128,-0.38526,0.18086,0.06123,0.16826
-0.25236,0.87913,-0.40427,-0.00583,-0.25814,0.60699
-0.23309,0.87612,-0.42199,-0.00682,-0.44892,0.70817
-0.22796,0.86623,-0.4446,0.17581,-0.75124,0.72593
-0.23236,0.85367,-0.46611,0.20784,-0.70874,0.39191
-0.23747,0.84776,-0.47425,0.1415,-0.6594,0.26124
-0.24129,0.84919,-0.46974,0.01866,-0.72819,0.21056
-0.24281,0.85894,-0.45085,-0.07712,-0.76142,0.1797
-0.23777,0.87594,-0.41974,-0.07074,-0.72732,0.08045
-0.22429,0.8983,-0.37782,0.03461,-0.47064,-0.08585
-0.2081,0.92255,-0.32494,0.14651,0.14396,-0.44391
-0.19768,0.93776,-0.28551,0.18365,1.9047,-0.89538
-0.18931,0.93276,-0.30678,-0.12921,2.48226,-1.07777
-0.17485,0.91891,-0.35359,0.1331,-0.38496,-1.31395
-0.17752,0.90748,-0.38073,0.33085,-0.88583,-0.87634
-0.19939,0.90466,-0.37659,0.12529,-0.17,0.5317
-0.21874,0.91057,-0.35073,0.06555,1.89723,1.10859
-0.22551,0.90842,-0.35201,0.1854,2.46623,1.24529
-0.21133,0.91213,-0.35123,0.56805,-0.59216,0.73625
-0.19303,0.91676,-0.34968,-0.10678,-0.80582,0.88277
-0.20375,0.92363,-0.32465,-0.59263,-0.39382,-0.42713
-0.25493,0.92392,-0.28526,-0.02659,0.66598,0.04881
-0.26473,0.9322,-0.24681,0.59254,0.87348,0.45998
-0.21709,0.9592,-0.18111,0.28184,0.2344,0.56302
-0.16836,0.97922,-0.113,-0.00512,-0.10909,0.40298
-0.13875,0.98785,-0.06997,-0.28488,-0.42794,0.09553
-0.13741,0.98971,-0.03977,-0.14839,-0.32141,0.14977
-0.14654,0.98913,-0.01161,0.04979,-0.1613,0.00632
-0.15095,0.9882,0.02585,0.3179,-0.1705,-0.09391
-0.15701,0.98548,0.06458,0.30621,-0.16025,0.11771
-0.16666,0.9814,0.09525,0.25356,-0.18572,0.04627
-0.17342,0.97784,0.11723,0.2075,-0.1544,-0.05461
-0.17664,0.97452,0.13821,0.17698,-0.02219,-0.24463
-0.17962,0.97008,0.16332,0.17995,-0.01775,-0.26974
-0.18382,0.96415,0.19133,0.19421,0.08994,-0.38498
-0.18917,0.95779,0.21644,0.08839,0.1793,-0.4003
-0.19623,0.9527,0.23208,0.08267,0.41042,-0.39972
-0.20361,0.95063,0.23417,0.29335,0.3366,-0.22494
-0.2134,0.95013,0.22739,0.34358,0.3942,-0.00414
-0.2239,0.95003,0.2175,0.04945,0.45477,-0.20661
-0.22759,0.95152,0.20688,-0.21897,0.40643,-0.38704
-0.23852,0.95386,0.18236,0.05243,0.42661,-0.23568
-0.25191,0.95698,0.14395,0.19922,0.2427,-0.04514
-0.26217,0.96124,0.08536,-0.00375,0.22169,0.21081
-0.26765,0.96337,0.01643,-0.1588,0.14384,0.19895
-0.27056,0.96134,-0.05126,-0.4228,0.25743,0.47419
-0.27022,0.95523,-0.12047,-0.32654,0.36136,0.53288
-0.26541,0.94611,-0.18555,-0.21576,0.33485,0.30982
-0.26358,0.9355,-0.23528,-0.13253,0.40254,0.10627
-0.27572,0.92263,-0.26967,0.09694,0.4588,0.24889
-0.28781,0.90318,-0.31847,0.23729,0.45653,0.17937
-0.283,0.88729,-0.36417,0.34888,0.14576,0.02714
-0.26699,0.87762,-0.39811,0.24901,-0.23785,0.45123
-0.25332,0.8695,-0.42401,0.23936,-0.33861,0.55509
-0.2507,0.85852,-0.44732,0.23941,-0.47929,0.52122
-0.24809,0.84792,-0.46849,0.03629,-0.54375,0.25683
-0.23797,0.84498,-0.47894,-0.04011,-0.43282,0.21605
-0.22378,0.84857,-0.47942,-0.00536,-0.46822,0.18494
-0.21119,0.85557,-0.47265,0.03514,-0.57331,0.19338
-0.20008,0.86501,-0.46013,0.02645,-0.59278,0.19459
-0.18973,0.87732,-0.4408,0.06311,-0.68144,0.07616
-0.17807,0.89525,-0.40843,0.04431,-0.53133,-0.09005
-0.16781,0.91772,-0.36004,0.01536,-0.01812,-0.45911
-0.15871,0.93463,-0.31823,0.30466,1.24664,-0.86334
-0.14838,0.93504,-0.32198,0.00877,1.77931,-0.99178
-0.13955,0.92279,-0.35913,0.25371,-0.07459,-0.88858
-0.14622,0.9081,-0.39239,0.29226,-0.77196,-0.30352
-0.15734,0.90651,-0.39176,0.08779,0.03993,0.38722
-0.16234,0.91869,-0.36008,-0.03517,1.29578,1.38534
-0.14841,0.92003,-0.36264,0.22637,0.55009,0.52146
-0.13539,0.92134,-0.36441,0.20912,-0.72809,0.26786
-0.1301,0.9276,-0.35018,-0.28166,-0.64603,1.00977
-0.14636,0.93573,-0.32093,-0.59053,-0.52716,0.69651
-0.18773,0.93541,-0.29959,0.16408,0.66501,0.17858
-0.18786,0.94744,-0.25896,0.59229,0.52415,0.36545
-0.15938,0.96809,-0.1934,0.36222,0.0178,0.4279
-0.14474,0.97828,-0.1484,0.10415,-0.07477,-0.00405
-0.14543,0.98268,-0.11483,0.04881,-0.19238,0.22459
-0.15567,0.98433,-0.08275,0.076,-0.26563,0.19869
-0.16565,0.98504,-0.04744,-0.00374,-0.18277,-0.03917
-0.17194,0.98508,-0.0063,0.15071,-0.15896,-0.04531
-0.17893,0.98324,0.03479,0.18872,-0.1089,-0.01471
-0.18793,0.97967,0.07021,0.20156,-0.09064,0.0479
-0.19688,0.97542,0.09893,0.13751,-0.06356,0.00239
-0.20508,0.97064,0.12572,0.13223,-0.06458,-0.0933
-0.21123,0.96438,0.1592,0.14038,-0.02709,-0.16933
-0.21384,0.95708,0.19561,0.22053,0.18548,-0.44648
-0.21811,0.94997,0.22355,0.15826,0.24996,-0.35642
-0.22566,0.94489,0.2372,0.0997,0.31667,-0.34944
-0.23427,0.94291,0.2367,0.37887,0.24578,-0.08742
-0.24572,0.94191,0.22897,0.35756,0.28667,0.0091
-0.25406,0.94219,0.21845,0.13431,0.48637,-0.15777
-0.25791,0.94457,0.20314,-0.0465,0.51484,-0.28246
-0.26541,0.94949,0.16738,0.19798,0.3356,-0.04069
-0.27311,0.95578,0.10909,-0.06184,0.37946,0.07418
-0.27474,0.96065,0.04088,-0.17496,0.22446,0.09277
-0.2759,0.96073,-0.02955,-0.33849,0.12896,0.27793
-0.27599,0.95578,-0.10155,-0.16128,0.36978,0.46091
-0.27003,0.94695,-0.17425,-0.21776,0.36209,0.27047
-0.26888,0.93543,-0.22949,-0.20666,0.42289,0.12515
-0.28437,0.92241,-0.26132,0.10623,0.50102,0.22751
-0.29899,0.90442,-0.30434,0.34005,0.44311,0.0467
-0.2943,0.88911,-0.35051,0.29425,0.25509,0.05881
-0.27451,0.88039,-0.38672,0.14501,-0.24471,0.39314
-0.25959,0.87396,-0.41085,0.17509,-0.32544,0.5467
-0.25489,0.86517,-0.43187,0.24754,-0.45306,0.58804
-0.25365,0.85607,-0.45034,0.14761,-0.61501,0.39069
-0.24869,0.85134,-0.46193,0.03142,-0.60259,0.37836
-0.24081,0.85086,-0.46694,0.03256,-0.53421,0.32199
-0.23383,0.85491,-0.46309,0.07732,-0.55422,0.27698
-0.22726,0.86367,-0.44992,0.02332,-0.58159,0.22259
-0.21865,0.87729,-0.42726,-0.03875,-0.65866,0.09314
-0.20615,0.89538,-0.39471,-0.0323,-0.58416,-0.01449
-0.1916,0.91715,-0.34946,0.02985,-0.13903,-0.18643
-0.18143,0.93514,-0.30429,0.25073,0.92681,-0.62721
-0.17614,0.93561,-0.30593,-0.06792,2.31428,-0.76394
-0.16167,0.92124,-0.35381,-0.24374,0.6026,-1.4613
-0.1601,0.90319,-0.39825,0.23204,-0.74189,-0.79645
-0.17931,0.8955,-0.40734,0.19159,-0.86971,-0.02348
-0.19211,0.9017,-0.38734,0.17914,0.0786,0.73134
-0.18617,0.92169,-0.34034,0.16391,0.63544,1.19714
-0.16503,0.92666,-0.33774,0.06727,0.90775,0.50679
-0.16026,0.92377,-0.34781,0.27821,-0.73491,0.42697
-0.15986,0.92543,-0.34353,-0.01005,-0.84893,0.77951
-0.16862,0.93499,-0.31201,-0.52949,-0.47386,0.14052
-0.20952,0.93763,-0.27738,0.37587,0.77049,0.38495
-0.21294,0.94705,-0.2403,0.5699,0.70407,0.36278
-0.17513,0.96885,-0.1751,0.51241,0.43661,0.52492
-0.14452,0.98255,-0.11706,-0.01019,-0.13947,0.07197
-0.13271,0.98817,-0.07679,-0.01999,-0.23196,0.14031
-0.13557,0.98994,-0.04054,0.02067,-0.22948,0.22916
-0.14316,0.98963,-0.01139,0.18753,-0.18398,0.10313
-0.15076,0.98837,0.01986,0.26404,-0.17698,-0.10169
-0.15743,0.98577,0.05888,0.26913,-0.12743,-0.11816
-0.16634,0.98146,0.09517,0.05587,-0.16048,-0.00434
-0.17283,0.97761,0.12001,-0.0157,-0.16705,-0.13948
-0.17996,0.97319,0.14324,-0.0511,-0.15406,-0.23336
-0.18699,0.96705,0.17278,0.23611,0.11097,-0.33075
-0.1954,0.95911,0.20473,0.26344,0.17107,-0.37776
-0.20376,0.95198,0.22851,0.15873,0.2659,-0.38335
-0.21092,0.94795,0.23853,0.15726,0.3246,-0.35204
-0.21891,0.9465,0.23709,0.33634,0.28784,-0.19482
-0.22893,0.94596,0.22968,0.16969,0.37883,-0.14379
-0.23346,0.94717,0.2199,0.03398,0.38265,-0.23194
-0.23874,0.95024,0.20012,-0.09549,0.40708,-0.27547
-0.25012,0.95468,0.16132,0.29695,0.26659,0.11101
-0.25853,0.96069,0.10111,0.19539,0.39973,0.22209
-0.25968,0.9651,0.03383,-0.23315,0.41149,0.08141
-0.26124,0.96472,-0.03264,-0.44759,0.24127,0.45611
-0.26027,0.96037,-0.09975,-0.17096,0.50625,0.4818
-0.25462,0.95133,-0.17359,-0.11162,0.46833,0.45036
-0.2493,0.93862,-0.23841,-0.01933,0.55816,0.0134
-0.26193,0.92815,-0.26443,0.1361,0.49765,0.24811
-0.27583,0.9113,-0.30569,0.36639,0.31093,0.1555
-0.27142,0.89645,-0.35029,0.2671,0.03156,0.21298
-0.25816,0.88602,-0.38513,0.15625,-0.22278,0.48959
-0.24562,0.87691,-0.41314,0.07271,-0.42344,0.62957
-0.23592,0.86815,-0.43664,0.11906,-0.51161,0.58779
-0.22925,0.85944,-0.45694,0.17301,-0.56756,0.44893
-0.22658,0.85264,-0.47082,0.17033,-0.58973,0.37457
-0.22637,0.84924,-0.47702,0.10662,-0.55597,0.31068
-0.22631,0.85029,-0.47517,0.06494,-0.59271,0.2754
-0.22384,0.85735,-0.46351,-0.00652,-0.67693,0.22864
-0.2159,0.87085,-0.4416,-0.10649,-0.68258,0.15858
-0.20259,0.88985,-0.40881,-0.07794,-0.55002,0.06608
-0.18586,0.91309,-0.36293,-0.07907,-0.17365,-0.06801
-0.16983,0.93275,-0.31802,0.09684,0.58683,-0.53745
-0.16192,0.93502,-0.31547,-0.01555,2.22265,-1.04975
-0.15765,0.92252,-0.35228,-0.31829,0.96814,-1.17273
-0.1618,0.90846,-0.38539,0.05871,-0.53343,-0.93688
-0.18277,0.90199,-0.39116,0.07386,-0.61953,-0.18369
-0.20186,0.90346,-0.37816,0.17418,0.22358,0.3474
-0.20962,0.91384,-0.34779,0.24675,1.19198,1.15722
-0.20356,0.916,-0.34568,0.36588,0.01719,0.55777
-0.18578,0.91835,-0.34944,0.33498,-0.53159,0.53303
-0.16165,0.92455,-0.34506,0.25746,-0.8005,0.91551
-0.16381,0.93662,-0.30968,-0.57536,0.13073,-0.45507
-0.20378,0.93899,-0.27708,-0.29269,0.61527,-0.07179
-0.21484,0.9451,-0.24622,0.01962,0.71062,0.36791
-0.1854,0.96429,-0.1891,0.44715,0.12978,0.54183
-0.15685,0.97757,-0.14053,0.30806,0.01611,0.33975
-0.13902,0.98417,-0.10987,0.13827,0.01285,0.18916
-0.13622,0.98735,-0.08111,0.05248,-0.21118,0.24829
-0.13816,0.98888,-0.05494,0.14372,-0.21692,-0.00883
-0.13969,0.98978,-0.02858,0.18718,-0.23514,-0.0952
-0.14115,0.98998,0.0008,0.16239,-0.2743,-0.03861
-0.14497,0.98899,0.02981,0.16213,-0.24454,-0.03532
-0.15125,0.98692,0.05577,0.12389,-0.13754,-0.06526
-0.16007,0.98365,0.08249,0.13127,-0.00407,0.03219
-0.16922,0.97902,0.11349,0.15425,0.06221,-0.03949
-0.17749,0.97384,0.1419,0.16475,0.1616,-0.23161
-0.1833,0.96902,0.1655,0.13464,0.29596,-0.44942
-0.18772,0.96461,0.18517,0.06365,0.33865,-0.46966
-0.19524,0.96125,0.19458,0.31592,0.23758,-0.16275
-0.20639,0.95923,0.19307,0.41162,0.31987,0.04205
-0.22139,0.95755,0.18458,0.32714,0.35769,0.02616
-0.23649,0.95647,0.17098,0.04104,0.38723,-0.33027
-0.24876,0.95648,0.15251,0.16669,0.35724,-0.18809
-0.26171,0.95782,0.11868,0.32247,0.33893,0.10786
-0.26841,0.9607,0.07078,0.03686,0.10331,0.17055
-0.26932,0.96281,0.02122,-0.49922,-0.02541,0.06353
-0.2742,0.96102,-0.0354,-0.39528,0.12634,0.1202
-0.27885,0.95531,-0.09805,-0.19063,0.25132,0.13969
-0.2737,0.94822,-0.1611,0.0795,0.4957,0.32959
-0.25834,0.94217,-0.21349,0.02754,0.41629,0.29155
-0.24128,0.9387,-0.24623,-0.03525,0.318,0.19533
-0.23917,0.93503,-0.26176,0.07265,0.14633,0.48455
-0.2455,0.92287,-0.2967,0.14681,0.0846,0.39042
-0.24886,0.90659,-0.34083,0.09281,-0.07944,0.26566
-0.24442,0.8926,-0.37884,0.02245,-0.09677,0.22965
-0.23154,0.88413,-0.40584,-0.04307,-0.25968,0.337
-0.21488,0.87829,-0.42713,-0.05059,-0.33933,0.34226
-0.20185,0.87366,-0.44268,0.02893,-0.41457,0.23202
-0.19298,0.87167,-0.4505,0.10184,-0.46354,0.15622
-0.18395,0.87274,-0.45219,0.10894,-0.44077,0.10737
-0.17589,0.87617,-0.44876,0.03049,-0.48391,0.15648
-0.17267,0.88046,-0.44155,0.03032,-0.5184,0.23803
-0.17278,0.88712,-0.42797,0.02632,-0.58555,0.21796
-0.16927,0.89797,-0.40619,-0.005,-0.48006,0.11211
-0.16336,0.91287,-0.37414,-0.05112,-0.36943,-0.06352
-0.15741,0.92813,-0.33732,-0.1006,-0.05525,-0.437
-0.15102,0.93716,-0.31451,0.14829,0.90887,-0.94059
-0.14842,0.93555,-0.32051,0.069,1.32161,-0.7943
-0.14636,0.92723,-0.34469,0.05481,0.17611,-0.70905
-0.15481,0.91741,-0.3666,-0.10855,-0.44702,-0.40925
-0.15618,0.91801,-0.36451,0.21523,0.04764,0.13616
-0.1438,0.93262,-0.33096,-0.02292,1.27363,1.54721
-0.13092,0.94161,-0.31021,-0.02576,0.27545,0.53887
-0.1269,0.93926,-0.31889,0.33327,-0.65329,-0.01503
-0.13292,0.9422,-0.30756,-0.23622,-0.63984,0.37992
-0.14101,0.95185,-0.2722,-0.44467,-0.31765,0.58795
-0.15598,0.96295,-0.21997,-0.11834,0.49962,0.20558
-0.1705,0.96936,-0.17682,0.42815,0.56674,0.33474
-0.15958,0.97792,-0.1349,0.45923,0.1192,0.55932
-0.13538,0.98696,-0.087,0.08655,-0.34233,0.51996
-0.12417,0.99141,-0.04094,-0.31015,-0.24796,0.3282
-0.12962,0.99155,-0.00451,-0.02207,-0.0434,0.17439
-0.13703,0.99025,0.02475,0.23496,-0.03098,-0.08465
-0.1406,0.98894,0.0471,0.13288,-0.14403,-0.35713
-0.14233,0.98746,0.06828,0.1011,-0.2081,-0.16577
-0.14576,0.98545,0.08744,0.09518,-0.20119,-0.08675
-0.15453,0.98244,0.10458,0.18917,-0.03872,-0.06575
-0.16617,0.97819,0.12463,0.31094,0.15388,-0.18297
-0.17879,0.97225,0.15084,0.29212,0.14467,-0.24573
-0.18926,0.96642,0.1738,0.32961,0.24342,-0.41641
-0.19915,0.96278,0.18273,0.42458,0.2968,-0.16457
-0.20756,0.96108,0.18233,0.45602,0.2744,-0.0942
-0.21511,0.96007,0.17883,0.20123,0.42248,-0.27619
-0.21896,0.95925,0.17861,0.0523,0.3078,-0.50808
-0.22423,0.95932,0.17154,0.28524,0.24688,-0.2275
-0.23286,0.96111,0.14848,0.20432,0.2092,-0.13494
-0.23935,0.96419,0.11422,0.01083,0.18881,0.12707
-0.24478,0.96767,0.06083,-0.11557,0.33624,0.12954
-0.24505,0.9695,0.00314,-0.3263,0.42153,0.274
-0.24356,0.96834,-0.05468,-0.29347,0.45488,0.50033
-0.23874,0.96475,-0.11073,-0.25762,0.29563,0.32297
-0.22867,0.95951,-0.16444,-0.29518,0.4273,0.21526
-0.22428,0.94983,-0.21799,-0.28139,0.29025,0.30377
-0.24583,0.93471,-0.25668,0.05077,0.37446,0.27397
-0.27339,0.91162,-0.30693,0.22991,0.3551,0.12863
-0.27888,0.8925,-0.3545,0.24434,0.09847,0.16149
-0.26126,0.88468,-0.38612,0.11696,-0.01516,0.38319
-0.24193,0.88048,-0.40771,0.14326,-0.43242,0.61367
-0.22952,0.87453,-0.42721,0.19365,-0.57531,0.49022
-0.22059,0.86828,-0.44432,0.1821,-0.60101,0.43541
-0.21334,0.86459,-0.45494,0.115,-0.63154,0.41089
-0.21015,0.8636,-0.45829,0.07905,-0.65308,0.3622
-0.20983,0.8666,-0.45274,0.02765,-0.66778,0.30856
-0.20768,0.87526,-0.4368,-0.02984,-0.74772,0.23349
-0.20122,0.88889,-0.41156,-0.10609,-0.62591,0.06436
-0.18812,0.90803,-0.37429,-0.04108,-0.19106,-0.13247
-0.17134,0.92816,-0.3304,0.07817,0.74222,-0.63415
-0.16012,0.93423,-0.31872,-0.09739,2.20806,-1.01032
-0.1517,0.92124,-0.35819,-0.42458,0.89011,-1.14363
-0.15314,0.90316,-0.40106,-0.16178,-0.73167,-0.63917
-0.17301,0.89512,-0.41088,-0.0489,-0.55679,-0.0615
-0.19269,0.89587,-0.40036,0.34481,0.43333,0.38272
-0.20608,0.89963,-0.38497,0.44624,1.09262,0.91415
-0.20647,0.89832,-0.38781,0.24052,-0.35962,0.62809
-0.19178,0.9027,-0.38517,0.21523,-0.59179,0.68467
-0.1718,0.9076,-0.38307,-0.2374,-0.33113,0.20257
-0.17256,0.91654,-0.36079,0.02502,0.77883,-0.01802
-0.20412,0.91933,-0.33641,0.25301,0.75372,0.22435
-0.21476,0.92788,-0.30482,0.36936,0.0517,0.5683
-0.17668,0.95169,-0.25113,0.34809,0.02833,0.43988
-0.13652,0.96983,-0.20196,0.21493,0.02391,0.28201
-0.1148,0.97876,-0.16984,-0.23187,-0.11424,0.19327
-0.1058,0.98475,-0.13809,-0.20755,-0.21731,0.23316
-0.10654,0.98924,-0.10023,-0.12116,-0.24089,0.18321
-0.10754,0.99236,-0.06051,0.15432,-0.26869,-0.03432
-0.10391,0.99429,-0.02436,0.19425,-0.31797,0.00929
-0.10159,0.99474,0.01296,0.18446,-0.28634,0.01307
-0.10344,0.99326,0.05226,0.09904,-0.18328,-0.00881
-0.10937,0.99028,0.08597,0.12387,-0.09509,-0.11665
-0.11636,0.98629,0.11703,0.1796,-0.00892,-0.16599
-0.12257,0.98088,0.1512,0.26745,0.21282,-0.43498
-0.12761,0.97384,0.18804,0.09098,0.23826,-0.39924
-0.13367,0.96775,0.21352,0.16922,0.312,-0.40213
-0.14271,0.96523,0.21899,0.30049,0.39986,-0.18627
-0.15323,0.96454,0.21491,0.11002,0.44127,-0.20542
-0.16085,0.96554,0.20457,-0.06521,0.39989,-0.31389
-0.16895,0.96808,0.18513,0.05106,0.47447,-0.19125
-0.18077,0.97247,0.14702,0.09799,0.31067,0.07082
-0.19015,0.97776,0.08845,-0.13373,0.37438,0.12793
-0.19302,0.98106,0.01631,-0.34414,0.32323,0.20479
-0.19298,0.97968,-0.05471,-0.40096,0.44038,0.44429
-0.19097,0.97393,-0.12242,-0.37566,0.46509,0.5405
-0.18335,0.96491,-0.18796,-0.12281,0.4873,0.23701
-0.18496,0.95226,-0.24289,-0.02063,0.5296,0.24306
-0.21264,0.93555,-0.28201,0.07037,0.61903,0.27148
-0.24207,0.91015,-0.33621,0.19747,0.18957,0.00479
-0.24531,0.88948,-0.38556,0.03973,-0.0411,0.31623
-0.23152,0.87799,-0.41896,0.09355,-0.26918,0.60826
-0.21864,0.86837,-0.44512,0.18251,-0.4752,0.62053
-0.21297,0.85727,-0.46875,0.21871,-0.61759,0.41951
-0.21165,0.84817,-0.4856,0.20017,-0.58479,0.41516
-0.20731,0.84292,-0.4965,0.1599,-0.56322,0.4242
-0.20189,0.84131,-0.50143,0.12218,-0.6099,0.32118
-0.19667,0.84493,-0.49742,0.15826,-0.67883,0.32777
-0.19384,0.85319,-0.48424,0.09978,-0.69246,0.21576
-0.18875,0.86718,-0.46083,0.05141,-0.72831,0.00957
-0.1781,0.88702,-0.426,0.06274,-0.55346,-0.08632
-0.16372,0.91002,-0.38087,0.02799,-0.2529,-0.15259
-0.15582,0.92194,-0.35461,0.04909,1.93854,-0.66632
-0.14532,0.91185,-0.38394,-0.46435,1.61952,-1.28278
-0.13164,0.89366,-0.429,-0.39111,-0.26431,-0.95431
-0.14042,0.88307,-0.44775,-0.13921,-1.07243,0.00251
-0.15954,0.88412,-0.43917,-0.19247,0.00136,0.25854
-0.17722,0.89077,-0.41848,0.25423,0.97828,1.00052
-0.18363,0.89494,-0.40664,0.28538,1.27435,0.9503
-0.17379,0.89239,-0.41646,0.20069,-0.17214,0.45721
-0.15976,0.8945,-0.41754,0.13165,-0.67295,0.95427
-0.1524,0.90252,-0.40277,-0.37696,-0.32683,0.09753
-0.18492,0.90601,-0.38072,0.0753,0.87588,-0.22281
-0.20881,0.91062,-0.35662,0.58643,0.16694,0.60392
-0.16369,0.94046,-0.29788,0.41393,-0.0033,0.58879
-0.11348,0.96691,-0.2285,0.31471,-0.06347,0.26181
-0.088,0.98026,-0.17707,0.05806,-0.06226,0.31899
-0.0773,0.98811,-0.13288,-0.09737,-0.2583,0.24525
-0.07401,0.99349,-0.08659,-0.10943,-0.18845,0.16656
-0.07483,0.99627,-0.04291,0.09766,-0.18277,-0.09422
-0.07731,0.99699,-0.00579,0.23075,-0.23465,-0.04167
-0.08083,0.99627,0.0303,0.19144,-0.29319,0.06693
-0.08721,0.99407,0.0649,0.10404,-0.2559,-0.01367
-0.09577,0.99135,0.08969,0.07434,-0.09662,-0.06586
-0.10373,0.98819,0.11274,0.18921,0.01561,-0.23216
-0.10862,0.98434,0.13884,0.30332,0.13625,-0.46976
-0.11092,0.97941,0.16865,0.1535,0.13875,-0.32359
-0.11309,0.97401,0.19627,0.11216,0.32589,-0.39036
-0.11879,0.97027,0.21085,0.19515,0.33657,-0.34589
-0.12442,0.96907,0.21313,0.27155,0.39151,-0.01234
-0.13396,0.96945,0.20545,0.00759,0.51661,-0.17762
-0.14,0.97167,0.19043,-0.10511,0.57497,-0.26644
-0.14473,0.97618,0.1616,0.08243,0.54388,-0.19818
-0.152,0.98221,0.11029,0.06222,0.36182,-0.04306
-0.15833,0.9867,0.03667,-0.09152,0.19254,0.09011
-0.16238,0.98609,-0.03549,-0.17519,0.21356,0.35359
-0.1655,0.9809,-0.10217,-0.20788,0.512,0.52171
-0.1625,0.97336,-0.16176,-0.21714,0.55449,0.47945
-0.15982,0.96531,-0.20647,-0.12089,0.52178,0.44007
-0.17769,0.94766,-0.26527,-0.02988,0.53049,0.51013
-0.21535,0.918,-0.33302,0.06816,0.48225,0.35229
-0.23797,0.88644,-0.39699,0.19225,-0.12341,0.08197
-0.23094,0.86933,-0.43697,0.18522,-0.1063,0.12195
-0.2183,0.86023,-0.46081,0.21497,-0.43131,0.66615
-0.21849,0.85,-0.47934,0.29847,-0.71149,0.56037
-0.22576,0.83759,-0.49747,0.28292,-0.70789,0.52582
-0.23105,0.82715,-0.51228,0.19944,-0.67716,0.50638
-0.2323,0.82114,-0.52131,0.11537,-0.70044,0.45376
-0.23165,0.82028,-0.52295,0.11472,-0.69959,0.4554
-0.22838,0.82685,-0.51397,0.06037,-0.71106,0.31707
-0.21947,0.84215,-0.49255,-0.11775,-0.78121,0.00801
-0.202,0.86604,-0.45735,-0.10645,-0.62991,-0.08429
-0.1813,0.89364,-0.41053,0.0601,0.08664,-0.2801
-0.17325,0.90844,-0.38042,0.18082,1.87647,-0.72157
-0.16976,0.89592,-0.41049,-0.52512,2.20076,-1.06936
-0.15648,0.876,-0.45623,-0.40668,-0.09641,-1.35649
-0.15879,0.86485,-0.47626,-0.07217,-1.16021,-0.19766
-0.18148,0.86623,-0.46552,-0.03358,-0.58773,0.48903
-0.20239,0.87358,-0.44261,0.00048,0.49434,0.98414
-0.20532,0.88356,-0.42091,0.1547,1.06279,0.83235
-0.20005,0.88914,-0.41159,0.10407,1.27416,0.30344
-0.20442,0.88718,-0.41367,0.57903,-0.50318,1.03014
-0.19403,0.89104,-0.41036,0.24131,-0.8317,0.79781
-0.18691,0.91082,-0.36806,-0.16565,-0.2165,0.03198
-0.20725,0.92539,-0.31733,0.26649,0.55967,0.59249
-0.20019,0.94063,-0.27412,0.47802,0.37428,0.56684
-0.14438,0.96547,-0.21684,0.38124,0.14479,0.33163
-0.09891,0.98363,-0.15062,0.07002,-0.14187,0.25139
-0.07525,0.99265,-0.0948,0.00078,-0.16645,0.27125
-0.06831,0.99609,-0.05608,-0.09693,-0.27729,0.17432
-0.06886,0.99718,-0.02977,0.12151,-0.38883,-0.02906
-0.07125,0.99741,-0.0099,0.23929,-0.38727,-0.05036
-0.07345,0.99714,0.01759,0.23134,-0.41191,0.06008
-0.07796,0.99554,0.05305,0.13637,-0.40698,0.08896
-0.0824,0.99268,0.08829,0.06892,-0.20456,0.10742
-0.08659,0.98857,0.12344,0.05993,-0.0332,-0.10749
-0.09073,0.98373,0.15507,0.09068,0.16427,-0.46756
-0.09258,0.97767,0.18862,0.01221,0.40291,-0.42611
-0.09702,0.97216,0.21327,0.09284,0.57044,-0.52037
-0.10396,0.96895,0.22433,0.40955,0.5348,-0.22994
-0.11455,0.96778,0.22423,0.46976,0.52783,-0.24449
-0.12533,0.96767,0.21885,0.30424,0.52061,-0.29897
-0.1288,0.96885,0.21149,-0.11414,0.51105,-0.25391
-0.13466,0.97226,0.19122,-0.10354,0.42633,-0.11173
-0.14184,0.97802,0.15283,-0.0047,0.11531,0.21101
-0.14885,0.98463,0.09131,-0.18744,0.18979,0.18902
-0.15221,0.98818,0.01844,-0.24719,0.33925,0.43099
-0.14964,0.9875,-0.04948,-0.28663,0.47754,0.50787
-0.14409,0.98331,-0.11108,-0.36238,0.59535,0.59866
-0.13337,0.97671,-0.16804,-0.05692,0.60341,0.12192
-0.12708,0.97152,-0.2,0.02594,0.58266,0.25844
-0.1423,0.96165,-0.23449,0.09869,0.54264,0.40881
-0.16515,0.94263,-0.29012,0.35185,-0.04154,0.40006
-0.17136,0.91884,-0.35548,0.35575,-0.12381,0.42015
-0.17054,0.89621,-0.40953,0.2862,-0.18727,0.50525
-0.172,0.8756,-0.45138,0.02384,-0.68518,0.55143
-0.17792,0.85688,-0.48385,0.03006,-0.69562,0.49677
-0.18236,0.84333,-0.50551,0.07504,-0.63726,0.46808
-0.18734,0.83421,-0.51865,0.15211,-0.41078,0.41859
-0.19404,0.8285,-0.52529,0.15311,-0.44925,0.38741
-0.19999,0.82739,-0.52481,0.11418,-0.51657,0.34024
-0.20119,0.83379,-0.51411,-0.09664,-0.6563,0.26202
-0.1961,0.84768,-0.49294,-0.09734,-0.64541,0.16979
-0.18454,0.86764,-0.46167,-0.00292,-0.10098,-0.15765
-0.1684,0.8913,-0.42098,-0.05379,0.98808,-0.60505
-0.15456,0.90301,-0.40085,-0.10432,1.69228,-0.8896
-0.14095,0.89385,-0.42564,-0.55454,0.63406,-1.15586
-0.14615,0.87676,-0.45818,-0.30289,-0.18639,-0.68188
-0.1647,0.86562,-0.47284,-0.01726,-0.80403,-0.1069
-0.18504,0.86524,-0.46596,0.20233,0.18444,0.68895
-0.19904,0.87199,-0.44723,0.35744,1.11618,0.66613
-0.19561,0.87296,-0.44684,0.30123,1.32334,0.63844
-0.18941,0.87579,-0.44397,0.68587,-0.35527,1.21895
-0.17301,0.88159,-0.43916,-0.0438,-0.54004,0.64824
-0.17264,0.89709,-0.40671,-0.18486,-0.18457,0.18613
-0.20271,0.90787,-0.36699,0.44967,0.59503,0.47994
-0.2055,0.9238,-0.32306,0.52803,0.26424,0.43696
-0.16569,0.94879,-0.26897,0.30055,-0.00106,0.29461
-0.12796,0.96801,-0.21581,-0.05935,-0.1416,0.29732
-0.10219,0.98105,-0.16463,-0.34085,-0.30423,0.31266
-0.09276,0.98792,-0.12414,-0.18835,-0.40155,0.12472
-0.09334,0.99112,-0.09471,0.15091,-0.31715,0.02215
-0.09685,0.99305,-0.06686,0.34314,-0.17812,0.16675
-0.10081,0.99427,-0.03552,0.29688,-0.11147,0.33272
-0.10668,0.99429,0.00047,0.1503,-0.23048,0.00358
-0.11016,0.99341,0.0316,0.0965,-0.09865,-0.09199
-0.11655,0.99108,0.06463,0.07341,0.00172,-0.057
-0.12346,0.98758,0.09711,0.33838,0.30506,-0.53405
-0.12873,0.9839,0.12394,0.41225,0.32648,-0.34115
-0.13393,0.98096,0.14064,0.29328,0.35754,-0.36078
-0.14127,0.97901,0.14691,0.22179,0.41441,-0.16594
-0.14988,0.97739,0.14914,0.35373,0.28923,-0.05654
-0.15848,0.97565,0.15162,0.2054,0.37732,-0.12058
-0.16682,0.97446,0.15033,-0.02719,0.40811,-0.18566
-0.17816,0.97342,0.1439,0.0885,0.45407,-0.14806
-0.19598,0.97258,0.1252,0.12862,0.35501,-0.13963
-0.21097,0.97315,0.09196,0.23672,0.14289,-0.07629
-0.2253,0.97353,0.03834,0.15073,0.01376,0.20195
-0.23218,0.97235,-0.02476,0.2311,0.054,0.35001
-0.22766,0.9705,-0.07929,0.2792,0.23598,0.46982
-0.21674,0.96748,-0.1304,-0.10652,0.54062,0.46118
-0.19551,0.96385,-0.18098,-0.15336,0.5845,0.106
-0.17865,0.95977,-0.21663,-0.17625,0.56129,0.0072
-0.18162,0.95698,-0.22628,0.25303,0.29299,0.44143
-0.1956,0.9481,-0.25069,0.30343,0.09699,0.48726
-0.20161,0.93291,-0.29838,0.3752,-0.02246,0.4842
-0.20094,0.91432,-0.35163,0.42125,-0.3791,0.40589
-0.20926,0.89249,-0.3996,0.19575,-0.47853,0.29942
-0.21619,0.87304,-0.4371,-0.0592,-0.52104,0.29898
-0.21394,0.86431,-0.45519,0.12613,-0.45327,0.48609
-0.21175,0.86072,-0.46295,0.26529,-0.39489,0.51538
-0.22051,0.85635,-0.46695,0.13889,-0.37797,0.40654
-0.22848,0.85482,-0.46591,-0.00417,-0.39913,0.41439
-0.23201,0.85863,-0.45709,-0.04764,-0.40114,0.38885
-0.22903,0.86723,-0.4421,-0.32908,-0.36511,0.28437
-0.21416,0.88013,-0.42367,-0.21661,-0.17348,0.0747
-0.19344,0.89753,-0.39626,-0.19648,-0.07747,-0.09613
-0.1716,0.91297,-0.37017,0.09317,0.9743,-0.90474
-0.16009,0.91784,-0.36323,0.29078,1.40333,-1.16184
-0.16897,0.91095,-0.37633,0.19636,0.31256,-0.7477
-0.18551,0.89844,-0.39798,0.31576,-0.28305,-0.68273
-0.20139,0.88848,-0.41235,0.18015,-0.18676,-0.03075
-0.21348,0.88596,-0.41171,0.36353,0.67203,0.8231
-0.20714,0.8966,-0.39141,0.43585,1.12489,0.8322
-0.18528,0.89715,-0.40097,0.40498,-0.29279,0.77132
-0.15618,0.90438,-0.39711,0.11369,-0.80245,0.96462
-0.14292,0.91402,-0.37965,-0.54708,-0.59894,0.42956
-0.17519,0.92356,-0.34109,0.06148,0.59472,0.45402
-0.23715,0.92026,-0.31124,0.38239,0.59252,0.58651
-0.23328,0.93327,-0.27311,0.5518,0.31484,0.42579
-0.19197,0.95883,-0.20925,0.38408,0.10429,0.22896
-0.16313,0.97487,-0.15168,0.29987,0.05792,0.08879
-0.14465,0.98297,-0.1133,0.13379,-0.19842,0.29049
-0.13561,0.98773,-0.07738,0.06522,-0.28609,0.24472
-0.13627,0.98988,-0.03961,0.0856,-0.1862,0.17
-0.13743,0.9905,-0.00491,0.24445,-0.16591,-0.1227
-0.13827,0.99001,0.02757,0.23045,-0.27709,-0.10852
-0.1421,0.98799,0.06072,0.21426,-0.39358,0.00394
-0.14885,0.98466,0.09102,0.17831,-0.2355,0.08522
-0.15775,0.98022,0.11949,0.09209,0.04899,0.15277
-0.1629,0.97503,0.15094,0.08886,0.11819,0.02098
-0.16224,0.96937,0.18437,0.23655,0.2721,-0.74221
-0.1603,0.96321,0.2157,0.28438,0.33006,-0.36207
-0.16821,0.95857,0.22987,0.22574,0.41348,-0.28216
-0.17862,0.95561,0.2343,0.30853,0.37105,-0.19712
-0.18785,0.95395,0.23384,0.26299,0.37782,-0.15085
-0.19276,0.9527,0.23497,0.15057,0.44483,-0.13133
-0.1993,0.95284,0.22885,-0.05931,0.32182,-0.46956
-0.20894,0.95546,0.20842,0.15652,0.17415,-0.09827
-0.21805,0.96125,0.16866,0.18947,0.18728,-0.05155
-0.22311,0.96847,0.11081,0.15754,0.32039,0.12837
-0.22206,0.97404,0.04393,0.16665,0.35744,0.41963
-0.21223,0.97709,-0.01562,0.07206,0.36803,0.60047
-0.19733,0.97782,-0.07024,-0.37477,0.45256,0.55431
-0.17669,0.97546,-0.13134,-0.33122,0.79006,-0.07212
-0.1635,0.96992,-0.18032,-0.18968,0.81528,-0.02366
-0.17574,0.96427,-0.19823,0.01372,0.73295,0.17914
-0.2025,0.95019,-0.23694,0.41731,-0.13875,0.6921
-0.21293,0.92572,-0.31257,0.54914,-0.20165,0.64332
-0.20368,0.89598,-0.39463,0.57641,-0.21826,0.62111
-0.20432,0.86997,-0.44878,0.0116,-0.71268,0.27218
-0.2061,0.85623,-0.47369,0.10835,-0.57967,0.38019
-0.20761,0.84667,-0.48994,0.15256,-0.45503,0.43351
-0.20575,0.83983,-0.50235,0.17952,-0.57226,0.50425
-0.2082,0.83249,-0.51344,0.11549,-0.58491,0.46118
-0.21334,0.82853,-0.51771,-0.00903,-0.59423,0.34616
-0.21687,0.8321,-0.51048,-0.08603,-0.57842,0.24917
-0.21556,0.84366,-0.49171,-0.09709,-0.53689,0.11019
-0.20506,0.86221,-0.46319,-0.02108,-0.40059,-0.14543
-0.18931,0.88446,-0.42649,0.02496,0.14375,-0.58809
-0.17845,0.89507,-0.40865,0.18289,1.40519,-1.0714
-0.17426,0.88684,-0.42795,-0.17859,0.75697,-1.04527
-0.17682,0.87344,-0.45369,0.08467,-0.32805,-0.76169
-0.18723,0.86554,-0.46453,0.10557,-0.65504,-0.0245
-0.20188,0.865,-0.45936,-0.07065,-0.03406,0.5539
-0.21676,0.86757,-0.44759,0.25141,0.61804,0.55733
-0.2227,0.86604,-0.44763,0.23117,1.31638,0.834
-0.207,0.87105,-0.44543,0.46533,-0.11683,0.78772
-0.18644,0.8793,-0.43825,0.27028,-0.3877,0.85545
-0.18564,0.88951,-0.41751,-0.19387,-0.28462,0.19761
-0.21041,0.8978,-0.38688,0.1636,0.59306,0.00668
-0.23432,0.90585,-0.35287,0.51529,0.40712,0.50778
-0.21194,0.92852,-0.30485,0.32986,0.04814,0.34613
-0.17975,0.95106,-0.25135,0.21977,-0.06072,0.12723
-0.15258,0.96621,-0.20771,0.15055,-0.10402,0.12695
-0.12497,0.97918,-0.15994,0.05703,-0.30706,0.15761
-0.10221,0.98909,-0.10605,-0.07145,-0.49481,0.0239
-0.09384,0.99392,-0.05763,0.0606,-0.38437,0.11383
-0.09275,0.9954,-0.0239,0.24056,-0.26469,0.02136
-0.09318,0.99563,0.00651,0.31286,-0.17687,0.02996
-0.09695,0.99437,0.04269,0.27113,-0.04672,0.08173
-0.10565,0.99097,0.08253,0.21103,0.05729,0.03376
-0.11171,0.987,0.11548,0.11447,0.09869,-0.03566
-0.11602,0.9827,0.14433,0.1426,0.19505,-0.31764
-0.1158,0.97802,0.17337,0.26205,0.27474,-0.54833
-0.11748,0.97199,0.20354,0.15523,0.28677,-0.28116
-0.12841,0.96663,0.22167,-0.0402,0.37766,-0.35732
-0.13947,0.96438,0.22475,0.16561,0.27573,-0.22865
-0.14769,0.96353,0.22313,0.30191,0.21516,-0.07407
-0.15613,0.96358,0.21711,0.0191,0.3468,-0.33363
-0.16112,0.96497,0.20705,-0.05208,0.29623,-0.32427
-0.16881,0.96776,0.18691,-0.05029,0.26387,-0.2585
-0.18046,0.97153,0.15351,0.22434,0.18317,-0.02198
-0.19508,0.97605,0.09626,0.25644,0.30659,0.16973
-0.20135,0.97922,0.02408,0.30822,0.43255,0.30671
-0.19079,0.98058,-0.04527,-0.07586,0.72523,0.56976
-0.17886,0.97858,-0.10192,-0.36098,0.64219,0.52546
-0.16578,0.97514,-0.14702,-0.27465,0.6126,0.09073
-0.16663,0.96795,-0.1879,-0.01653,0.53407,0.19686
-0.188,0.9548,-0.23023,0.17448,0.3802,0.62981
-0.21804,0.93099,-0.29277,0.26869,0.15502,0.48837
-0.24162,0.89971,-0.3635,0.17077,0.02578,0.12946
-0.25126,0.87664,-0.41032,0.13176,-0.07586,0.16174
-0.24875,0.86419,-0.43738,0.13561,-0.26198,0.50131
-0.24136,0.85564,-0.45785,0.1797,-0.36997,0.56922
-0.23763,0.84778,-0.47413,0.26966,-0.72709,0.6748
-0.24129,0.83695,-0.49122,0.26001,-0.82102,0.51634
-0.24878,0.82572,-0.50626,0.06494,-0.63878,0.4005
-0.25072,0.82033,-0.514,0.10272,-0.59812,0.42306
-0.25166,0.82222,-0.5105,0.09823,-0.6344,0.40528
-0.25208,0.83092,-0.49602,0.04242,-0.55399,0.23564
-0.24525,0.84717,-0.47133,-0.04289,-0.49599,0.02019
-0.22719,0.87061,-0.43636,-0.07425,-0.27048,-0.16051
-0.2035,0.89528,-0.39631,0.09278,0.67804,-0.61796
-0.19109,0.90749,-0.3741,0.27242,2.44821,-0.9471
-0.18465,0.89702,-0.40156,-0.109,1.07997,-0.98884
-0.1733,0.87946,-0.44329,0.16143,-0.27902,-1.18053
-0.17808,0.86866,-0.4623,0.13302,-0.62035,-0.29541
-0.19565,0.87061,-0.4514,0.07777,-0.10724,0.40143
-0.20187,0.8786,-0.43279,0.39707,0.54057,0.86643
-0.19695,0.88693,-0.4178,0.30989,0.92895,1.24224
-0.17324,0.8879,-0.42616,0.10332,-0.23615,0.73074
-0.15322,0.8969,-0.41484,-0.06665,-0.58036,0.56421
-0.1545,0.90362,-0.3995,-0.21342,-0.35731,0.20082
-0.19795,0.90809,-0.36904,0.13223,0.61743,0.17483
-0.24076,0.91012,-0.33721,0.31722,0.51253,0.25214
-0.22703,0.92951,-0.29064,0.36507,-0.15909,0.61468
-0.18908,0.95315,-0.23612,0.32637,-0.26231,0.46801
-0.16701,0.96551,-0.19973,0.22669,-0.06697,0.03723
-0.1606,0.97284,-0.16672,0.22027,-0.07429,0.00422
-0.15312,0.98048,-0.12332,0.03591,-0.38791,0.04457
-0.14469,0.98702,-0.06963,-0.01103,-0.34849,-0.08366
-0.14194,0.98955,-0.02527,0.10167,-0.32492,-0.19786
-0.14394,0.98956,0.00742,0.30063,-0.18006,-0.25474
-0.1467,0.98835,0.04048,0.43254,-0.05643,-0.04224
-0.15135,0.98549,0.07685,0.32613,-0.02496,0.19613
-0.1591,0.98056,0.11487,0.11363,0.05632,0.10625
-0.16961,0.97426,0.14851,-0.06479,0.16126,-0.02862
-0.17539,0.96823,0.17825,-0.05902,0.16729,-0.05836
-0.1737,0.96263,0.20779,0.27271,0.46662,-0.48695
-0.17893,0.95955,0.21737,0.25001,0.32184,-0.14918
-0.1896,0.95786,0.21574,0.25449,0.19922,-0.1518
-0.19837,0.95714,0.21101,0.35593,0.32859,-0.11643
-0.20366,0.95797,0.202,0.33939,0.57586,-0.16282
-0.20665,0.9615,0.18116,0.28277,0.59406,-0.10242
-0.21007,0.96718,0.14294,0.1164,0.51343,0.11634
-0.21424,0.97299,0.08598,-0.18681,0.22593,0.12514
-0.21954,0.97539,0.02044,-0.32488,0.06621,0.04986
-0.22733,0.97271,-0.04645,0.02648,0.49261,0.41006
-0.23106,0.96702,-0.10715,-0.015,0.68954,0.38524
-0.22791,0.95843,-0.17167,-0.10609,0.60986,0.13632
-0.22694,0.94463,-0.237,-0.1407,0.50239,0.16474
-0.24604,0.93042,-0.27161,0.00138,0.32608,0.40051
-0.27365,0.90979,-0.31207,0.26553,0.10911,0.25807
-0.2933,0.883,-0.36644,0.31332,-0.00935,0.15089
-0.29922,0.86343,-0.40615,0.22942,-0.18422,0.40812
-0.29818,0.85124,-0.43183,0.23154,-0.27257,0.53258
-0.29526,0.84106,-0.45324,0.16545,-0.51975,0.60113
-0.29112,0.83099,-0.47402,0.25526,-0.61255,0.54612
-0.28943,0.8216,-0.49112,0.18379,-0.62931,0.48307
-0.28717,0.81507,-0.50318,0.10188,-0.57992,0.46614
-0.28248,0.81463,-0.50655,0.11418,-0.6059,0.42108
-0.27611,0.82088,-0.49991,0.09421,-0.60372,0.297
-0.26625,0.83481,-0.48187,0.0843,-0.62523,0.11769
-0.25006,0.85612,-0.45225,0.07185,-0.59776,-0.10978
-0.22679,0.883,-0.41094,0.0193,-0.25525,-0.35652
-0.20437,0.90637,-0.36977,0.15611,0.99222,-0.85679
-0.19512,0.90765,-0.37163,-0.0448,2.54801,-0.92096
-0.17851,0.89304,-0.41305,-0.47912,0.71652,-1.22696
-0.17021,0.87514,-0.45294,-0.09927,-0.59436,-0.68811
-0.19361,0.86803,-0.45721,-0.02375,-0.35985,0.08817
-0.2213,0.86795,-0.44463,0.31489,0.65688,0.50483
-0.23446,0.87455,-0.42448,0.30005,1.14158,1.39885
-0.2279,0.87201,-0.43319,0.34842,-0.28703,0.70314
-0.20799,0.87519,-0.43679,-0.06934,-0.87395,0.50821
-0.18924,0.88261,-0.43032,-0.12432,-0.49075,0.48562
-0.19906,0.89236,-0.40506,0.16842,0.53364,-0.10739
-0.22718,0.89356,-0.38722,0.39995,0.90421,0.07165
-0.22124,0.91077,-0.34864,0.40508,0.06186,0.60454
-0.18509,0.93862,-0.2911,0.39879,-0.14673,0.48086
-0.1651,0.95356,-0.25192,0.2814,0.10218,0.01348
-0.16289,0.96116,-0.22279,0.15616,-0.02695,0.22255
-0.15326,0.9712,-0.1824,0.02239,-0.25135,0.17247
-0.13671,0.98286,-0.12369,-0.02392,-0.32317,0.0371
-0.12567,0.98998,-0.06441,-0.01508,-0.34352,0.02326
-0.12288,0.99217,-0.02221,0.16397,-0.3645,-0.00411
-0.12344,0.99223,0.01536,0.25487,-0.30302,0.0723
-0.12662,0.98994,0.06305,0.31191,-0.22595,0.12777
-0.13709,0.98423,0.1118,0.10365,0.0926,0.08965
-0.14878,0.97791,0.14682,0.05181,0.11413,0.06354
-0.15623,0.97272,0.17145,0.08641,0.15398,-0.11354
-0.15529,0.96747,0.19969,0.37482,0.32772,-0.35413
-0.15808,0.96309,0.21785,0.41572,0.3663,-0.10428
-0.17113,0.9606,0.21897,0.17772,0.17529,-0.19806
-0.18064,0.95911,0.21788,0.37653,0.32528,-0.04419
-0.18566,0.95842,0.21671,0.24444,0.42148,-0.21008
-0.19001,0.95846,0.21272,0.12559,0.39844,-0.3652
-0.19922,0.96078,0.19287,0.1174,0.40863,-0.1885
-0.20769,0.96521,0.15885,0.16455,0.35234,0.01573
-0.21396,0.97089,0.10761,-0.00996,0.26905,0.15485
-0.21641,0.97521,0.04611,-0.13797,0.16647,0.12345
-0.21843,0.97566,-0.01929,-0.25715,0.41933,0.48967
-0.21948,0.97182,-0.08596,-0.21456,0.49765,0.51831
-0.2139,0.96475,-0.1533,-0.14581,0.60019,0.25374
-0.20986,0.95336,-0.21694,-0.10698,0.7503,0.31548
-0.22083,0.93989,-0.26046,0.04431,0.44408,0.39716
-0.25295,0.91889,-0.30274,0.2295,0.33892,0.20355
-0.27914,0.89274,-0.35367,0.34454,0.16267,0.06696
-0.28046,0.87196,-0.40129,0.22084,-0.03318,0.25514
-0.27323,0.86108,-0.42882,0.12657,-0.29756,0.57481
-0.26316,0.85341,-0.44992,0.20417,-0.58135,0.66348
-0.25689,0.84573,-0.4677,0.24079,-0.76713,0.60673
-0.25782,0.83577,-0.48478,0.17338,-0.75977,0.50758
-0.25733,0.82851,-0.49735,0.07195,-0.66214,0.38733
-0.25408,0.82754,-0.50063,0.12044,-0.61104,0.37329
-0.25084,0.83295,-0.49323,0.07437,-0.68898,0.26816
-0.24651,0.8446,-0.47526,0.02785,-0.69671,0.18683
-0.23511,0.86233,-0.44846,0.00098,-0.72254,0.10645
-0.21497,0.88532,-0.4123,-0.04949,-0.32238,-0.10831
-0.19141,0.90874,-0.37088,-0.0206,0.08335,-0.32422
-0.17595,0.91363,-0.36651,0.00236,2.66006,-1.06668
-0.15899,0.89839,-0.4094,-0.54324,0.927,-1.29629
-0.16043,0.88006,-0.44695,-0.10647,-0.84211,-0.6971
-0.18735,0.87465,-0.44708,0.13721,-0.92246,-0.03841
-0.21351,0.87774,-0.42893,0.17463,-0.0069,0.43362
-0.22232,0.88533,-0.40836,0.37139,0.35212,0.87654
-0.21285,0.89323,-0.39601,0.29607,1.35855,0.92935
-0.18799,0.89692,-0.40023,0.20568,0.37638,0.3686
-0.16493,0.90138,-0.40038,0.24655,-0.37416,0.79679
-0.1418,0.91179,-0.38541,-0.38014,-0.43086,0.25229
-0.16704,0.91974,-0.35522,-0.14549,0.29619,-0.21215
-0.2125,0.91967,-0.33023,0.19666,0.40994,0.15915
-0.20215,0.93677,-0.28565,0.40093,-0.01311,0.6018
-0.1533,0.9623,-0.22467,0.34158,-0.01428,0.33125
-0.12248,0.97824,-0.16745,0.37808,0.06955,0.18957
-0.10177,0.98719,-0.12285,0.25813,-0.1679,0.38937
-0.08369,0.9931,-0.08212,-0.00942,-0.30308,0.13911
-0.07518,0.99643,-0.03846,-0.07302,-0.26027,0.05541
-0.07148,0.99744,-0.00243,0.13517,-0.26669,-0.11252
-0.06993,0.99684,0.03754,0.18947,-0.26634,0.08495
-0.07583,0.99366,0.08299,0.13735,-0.21943,0.10161
-0.0892,0.98906,0.11743,-0.02269,-0.09005,0.05666
-0.1022,0.98455,0.14213,0.05957,0.09346,-0.22942
-0.11119,0.97989,0.16565,0.35622,0.23767,-0.88143
-0.11617,0.9743,0.19298,0.45217,0.20886,-0.32798
-0.12443,0.96911,0.21291,0.28198,0.28956,-0.19045
-0.13577,0.96575,0.2211,0.21578,0.30463,-0.26668
-0.14283,0.9643,0.22296,0.34254,0.26571,-0.08665
-0.15132,0.9635,0.22082,0.16224,0.40306,-0.13424
-0.15815,0.96392,0.2141,-0.08834,0.3713,-0.29413
-0.16712,0.96656,0.19449,-0.09694,0.35551,-0.20828
-0.17994,0.97079,0.15872,0.13473,0.2272,0.00915
-0.19449,0.97597,0.09819,0.03185,0.39948,0.13519
-0.2018,0.97907,0.02642,-0.00359,0.39996,0.20157
-0.20147,0.97865,-0.04063,-0.09465,0.61405,0.48385
-0.19351,0.97578,-0.10197,-0.29677,0.73285,0.46239
-0.18136,0.97002,-0.16175,-0.2271,0.66754,0.21972
-0.17513,0.96294,-0.2051,0.01254,0.64811,0.2806
-0.19172,0.95255,-0.23641,0.18579,0.50662,0.54963
-0.22373,0.93134,-0.2873,0.32086,0.27462,0.38905
-0.24276,0.90068,-0.36033,0.26494,-0.14359,0.1304
-0.24486,0.87558,-0.41641,0.20697,-0.20206,0.2965
-0.24056,0.86169,-0.44679,0.16771,-0.27107,0.46238
-0.23138,0.85223,-0.46922,0.16353,-0.63921,0.61459
-0.22944,0.84315,-0.48626,0.16159,-0.63014,0.63163
-0.23711,0.83115,-0.50295,0.18336,-0.79916,0.5837
-0.24954,0.82041,-0.51445,0.16186,-0.60447,0.46501
-0.25901,0.81566,-0.5173,0.15299,-0.60313,0.438
-0.26404,0.81797,-0.51108,0.08085,-0.64944,0.35834
-0.26386,0.82911,-0.4929,0.01553,-0.66548,0.22446
-0.25304,0.84897,-0.46392,-0.02264,-0.60051,0.08254
-0.23094,0.87443,-0.42665,-0.06481,-0.35115,-0.12378
-0.20578,0.89941,-0.38563,0.00604,0.48842,-0.50186
-0.19224,0.90636,-0.37624,0.05565,2.42824,-0.8139
-0.17948,0.89219,-0.41446,-0.62267,1.71066,-1.14419
-0.17738,0.87205,-0.45614,-0.10347,-0.94386,-0.70872
-0.19837,0.86364,-0.46344,0.11602,-0.88026,-0.29065
-0.22504,0.863,-0.45231,0.18189,-0.01272,0.38804
-0.24647,0.86446,-0.43813,0.40455,0.36713,0.98398
-0.25522,0.86289,-0.4362,0.2172,0.70994,0.71216
-0.24801,0.86594,-0.43433,0.34835,-0.14025,0.38293
-0.24402,0.86704,-0.43438,0.40128,-0.28942,0.63932
-0.2487,0.87687,-0.4114,0.18495,-0.00443,0.31779
-0.26464,0.89308,-0.36383,0.30122,0.74555,0.33837
-0.26846,0.90766,-0.3226,0.28869,0.51682,0.41772
-0.24318,0.92973,-0.27652,0.294,0.04484,0.2701
-0.21441,0.95048,-0.22498,0.25926,-0.08572,0.20807
-0.18918,0.96508,-0.18119,0.17186,-0.1132,0.29973
-0.16669,0.97525,-0.14527,0.08844,-0.1244,0.15418
-0.14914,0.98277,-0.10916,0.10463,-0.19258,-0.03526
-0.13725,0.98796,-0.07142,0.25243,-0.33119,0.00673
-0.12724,0.99129,-0.03401,0.34318,-0.34843,-0.02746
-0.11974,0.99279,0.00431,0.29059,-0.33635,0.05014
-0.11679,0.99205,0.04686,0.21381,-0.2236,0.12297
-0.11927,0.989,0.08747,0.16457,-0.12202,0.1049
-0.124,0.98499,0.12005,0.15338,0.04931,-0.02514
-0.12449,0.98134,0.14653,0.11923,0.23042,-0.83274
-0.11584,0.97669,0.18067,0.08429,0.29798,-0.54748
-0.11304,0.9725,0.20364,0.06906,0.31863,-0.0944
-0.12328,0.97006,0.20923,-0.15707,0.42812,-0.15973
-0.13014,0.96936,0.20831,-0.12557,0.42822,-0.28877
-0.13491,0.96959,0.20417,0.02965,0.43072,-0.37376
-0.14559,0.97076,0.19087,0.29961,0.66779,-0.42744
-0.15765,0.9745,0.15964,0.40151,0.46049,-0.22394
-0.16724,0.98052,0.10294,0.44928,0.24399,-0.02221
-0.1748,0.98437,0.02113,0.13978,0.14627,0.21934
-0.17986,0.98268,-0.04443,0.18055,0.34152,0.51679
-0.18813,0.97922,-0.07566,0.21875,0.49748,0.63329
-0.20504,0.97247,-0.11066,0.36765,0.53862,0.3772
-0.2329,0.95927,-0.15988,0.44798,0.62956,0.28378
-0.26902,0.93711,-0.22237,0.05826,0.3897,0.19186
-0.31114,0.90871,-0.27825,-0.14446,0.02427,0.06004
-0.34821,0.88519,-0.30851,0.14516,-0.09554,0.30115
-0.37658,0.86635,-0.32806,0.38418,-0.16298,0.39811
-0.40264,0.85028,-0.33896,0.44393,-0.30124,0.3802
-0.42744,0.83764,-0.34008,0.39738,-0.38094,0.34148
-0.4472,0.8292,-0.33531,0.40473,-0.44278,0.35704
-0.46069,0.8249,-0.32756,0.44881,-0.38967,0.34713
-0.46727,0.82514,-0.31748,0.41029,-0.52856,0.34912
-0.46731,0.82998,-0.30456,0.3333,-0.57143,0.34658
-0.46208,0.83876,-0.28803,0.23929,-0.46969,0.26505
-0.45187,0.8514,-0.26632,0.03667,-0.39514,0.08692
-0.43584,0.86739,-0.24016,-0.29627,-0.26577,-0.37013
-0.41591,0.88431,-0.21215,-0.70201,0.83918,-0.81586
-0.41194,0.89152,-0.18842,-0.62075,1.34709,-0.2992
-0.43398,0.88112,-0.18785,-0.51611,1.09655,-0.1876
-0.45535,0.86431,-0.2136,-0.5045,0.06624,-0.12711
-0.46911,0.85413,-0.2245,0.14262,-0.61857,0.25253
-0.47903,0.84984,-0.21978,0.11105,-0.18658,0.20129
-0.49068,0.84687,-0.20504,0.3433,0.3321,-0.01351
-0.49534,0.84768,-0.18993,0.59176,0.73385,-0.21751
-0.49325,0.85034,-0.18336,0.83848,0.3655,-0.19628
-0.48246,0.85478,-0.19126,0.84056,-0.11436,0.34359
-0.45331,0.872,-0.18471,0.46167,0.15354,0.34546
-0.42125,0.89218,-0.16297,0.33922,0.5273,-0.00196
-0.39255,0.90809,-0.14584,0.36496,0.50298,0.1256
-0.35899,0.92372,-0.13364,0.39884,0.13888,0.05683
-0.32065,0.94104,-0.10782,0.42159,-0.16423,0.01517
-0.28087,0.95709,-0.07129,0.38326,-0.21571,0.0685
-0.24007,0.97035,-0.02807,0.31205,-0.15458,0.12942
-0.20302,0.97898,0.0192,0.15249,-0.16894,0.10494
-0.17318,0.98282,0.06381,0.03083,-0.18478,0.01223
-0.14949,0.98341,0.10275,-0.05725,-0.30097,-0.16395
-0.13103,0.98225,0.13421,-0.08293,-0.29644,-0.01723
-0.11621,0.97928,0.16585,-0.02634,-0.22415,0.12634
-0.10688,0.97492,0.19518,-0.02796,-0.17464,0.09489
-0.10293,0.9712,0.21487,-0.16345,-0.05827,-0.26568
-0.09871,0.96896,0.22663,-0.16039,0.0966,-0.55308
-0.09707,0.96599,0.23964,0.0142,0.18844,-0.0329
-0.10096,0.9617,0.25484,0.25117,0.27149,0.06094
-0.10807,0.96075,0.2555,0.28419,0.41676,-0.19724
-0.11346,0.96306,0.24421,0.20636,0.49655,-0.17664
-0.11341,0.966,0.23234,0.09228,0.51888,-0.27694
-0.11024,0.97056,0.21415,0.01495,0.20005,-0.39549
-0.11889,0.97759,0.17372,0.02359,0.19302,-0.35506
-0.13862,0.98469,0.10565,0.1857,0.59797,-0.0639
-0.15796,0.98718,0.02276,0.00607,0.58371,-0.0872
-0.17485,0.98356,-0.04507,-0.34186,0.48775,0.66236
-0.19507,0.97751,-0.08003,0.20179,0.50292,0.92868
-0.22061,0.96861,-0.11455,0.64131,0.6413,0.34363
-0.2487,0.95403,-0.16726,0.69292,0.87246,0.10079
-0.27137,0.93053,-0.24591,0.36602,0.44502,0.12634
-0.29579,0.90368,-0.30963,0.06113,0.01618,-0.01977
-0.3235,0.88172,-0.34339,0.02085,-0.27575,0.43349
-0.33771,0.8638,-0.37388,0.07382,-0.41974,0.70123
-0.35337,0.84549,-0.40035,0.3814,-0.66344,0.47588
-0.37264,0.83041,-0.41419,0.57616,-0.53932,0.22018
-0.38813,0.8215,-0.41773,0.48255,-0.32038,0.31478
-0.4021,0.81628,-0.41473,0.45586,-0.38954,0.32976
-0.41208,0.81378,-0.40983,0.34633,-0.46664,0.32544
-0.41345,0.81571,-0.40457,0.25145,-0.50855,0.28819
-0.40399,0.82457,-0.39608,0.05793,-0.57748,0.12211
-0.38378,0.84089,-0.38159,-0.2324,-0.59834,-0.15497
-0.35336,0.86487,-0.35657,-0.48954,-0.28625,-0.41887
-0.32406,0.88517,-0.33385,-0.60809,0.87723,-0.69737
-0.31671,0.88814,-0.33303,-0.50325,1.72031,-0.66369
-0.34127,0.87478,-0.34394,-0.42869,0.49053,-0.50578
-0.3489,0.8585,-0.37582,-0.19016,-0.62098,-0.17567
-0.3534,0.85034,-0.38991,-0.05457,-0.79251,0.02596
-0.37409,0.84777,-0.37595,0.03149,-0.67237,0.30692
-0.39478,0.85068,-0.34711,-0.04963,-0.07289,0.56591
-0.40168,0.85617,-0.325,0.02528,0.67458,0.5844
-0.4019,0.86075,-0.31239,0.49434,2.2988,-0.47714
-0.40673,0.86105,-0.30523,1.17279,0.37378,0.47538
-0.39143,0.87042,-0.29859,0.72344,-0.60038,0.41484
-0.36146,0.89171,-0.27237,0.26089,-0.19355,0.18692
-0.33149,0.91505,-0.22977,0.41874,0.41506,-0.07364
-0.30128,0.93362,-0.19383,0.53775,0.3683,0.40365
-0.25539,0.9527,-0.16472,0.37904,0.03019,0.26176
-0.20937,0.97062,-0.11859,0.20683,-0.08786,0.15425
-0.1809,0.98174,-0.05874,0.0136,-0.0573,0.113
-0.15857,0.98722,-0.01549,0.10818,-0.01132,0.17151
-0.13897,0.99009,0.01989,0.15773,-0.25857,0.01187
-0.11962,0.9912,0.05667,0.16157,-0.30194,-0.20857
-0.10331,0.99086,0.08672,0.1451,-0.33816,-0.25756
-0.09537,0.98853,0.11708,0.02272,-0.23087,0.01997
-0.09591,0.98406,0.14975,-0.05729,-0.10256,0.12706
-0.09534,0.97907,0.17979,-0.07855,0.04078,-0.00715
-0.08963,0.97579,0.19948,-0.11728,0.06356,-0.83488
-0.08037,0.97415,0.21109,-0.03114,0.08079,-0.50003
-0.08312,0.97056,0.22604,0.06383,0.12522,-0.05574
-0.09538,0.96793,0.23241,0.19979,0.47189,-0.47723
-0.10071,0.96876,0.22662,0.20513,0.47106,-0.47145
-0.10416,0.97092,0.21553,0.19846,0.42277,-0.47235
-0.10562,0.97364,0.20214,-0.06233,0.25367,-0.49237
-0.11343,0.97869,0.17117,-0.0125,0.18365,-0.29717
-0.12917,0.98444,0.11911,0.06786,0.16116,-0.04282
-0.1435,0.98825,0.0525,0.11019,0.59703,0.07972
-0.1523,0.98833,0.00149,0.303,0.88299,0.78905
-0.16518,0.98552,-0.03828,0.53087,0.62879,0.96691
-0.18723,0.97904,-0.0801,0.46102,0.61193,0.28345
-0.2094,0.96674,-0.14681,0.42639,0.68035,0.32653
-0.2358,0.94489,-0.22709,0.05867,0.36669,0.2706
-0.27474,0.91827,-0.28512,-0.41317,-0.16001,0.139
-0.31217,0.89485,-0.31903,-0.12278,-0.32353,0.22315
-0.33927,0.87508,-0.34514,0.41889,-0.29696,0.26718
-0.35843,0.86069,-0.36157,0.52145,-0.3603,0.30069
-0.37474,0.84908,-0.37232,0.45128,-0.46569,0.30662
-0.38986,0.83995,-0.37748,0.44488,-0.48742,0.35972
-0.402,0.83294,-0.38026,0.40435,-0.4866,0.34185
-0.40972,0.82973,-0.37905,0.40216,-0.57819,0.38218
-0.41342,0.83099,-0.37221,0.30615,-0.64371,0.36878
-0.41047,0.83733,-0.36109,0.14938,-0.58478,0.24482
-0.40025,0.84992,-0.34269,-0.01443,-0.4491,-0.0605
-0.38465,0.86708,-0.31656,-0.36332,-0.12028,-0.66467
-0.36246,0.88529,-0.29134,-0.68032,0.70326,-1.1277
-0.3536,0.89033,-0.28682,-0.21896,1.79791,-0.18306
-0.37281,0.88103,-0.29118,-0.38616,0.60798,-0.25278
-0.38771,0.86375,-0.32189,-0.29083,-0.45251,-0.21682
-0.39589,0.85491,-0.33524,-0.2404,-0.66549,-0.18893
-0.40275,0.85593,-0.32429,0.04431,-0.50512,0.11409
-0.40991,0.85774,-0.31025,0.08497,-0.11545,0.0792
-0.41482,0.86039,-0.29603,0.40507,0.46144,0.31067
-0.41209,0.86325,-0.29152,0.79713,1.36799,0.23869
-0.403,0.86773,-0.29091,0.53781,0.8153,0.50351
-0.3938,0.87493,-0.2818,0.53641,-0.24814,0.65558
-0.37504,0.89184,-0.25288,0.33122,0.07759,0.19907
-0.35528,0.91137,-0.20779,0.45329,0.5198,-0.00069
-0.32672,0.92956,-0.17076,0.6815,0.36594,0.27914
-0.28358,0.94893,-0.1382,0.56921,0.11007,0.29654
-0.23449,0.96796,-0.08981,0.1631,-0.11856,0.34042
-0.20106,0.97914,-0.02932,-0.00537,-0.17201,0.31953
-0.17396,0.98456,0.01948,-0.14863,-0.11915,0.04225
-0.15394,0.98625,0.05997,-0.04387,-0.35987,-0.06945
-0.14022,0.98613,0.0888,0.04543,-0.39509,-0.16991
-0.13396,0.9852,0.10686,0.16017,-0.40081,-0.26238
-0.13215,0.98271,0.12965,0.24554,-0.19136,0.0043
-0.13526,0.97852,0.15555,0.18375,-0.14165,0.08179
-0.13837,0.97394,0.17969,0.09668,-0.06799,0.02296
-0.13376,0.97079,0.19914,0.06485,0.009,-0.73962
-0.12628,0.96869,0.21372,0.05737,0.01111,-0.75421
-0.12667,0.96599,0.22541,0.18619,0.08086,0.04065
-0.13401,0.96393,0.22995,-0.01393,0.37049,-0.39424
-0.1414,0.9643,0.22388,0.05522,0.47074,-0.24504
-0.15099,0.96588,0.21041,0.12412,0.57602,-0.11747
-0.15779,0.96758,0.19716,0.01793,0.41643,-0.56607
-0.16823,0.97049,0.17274,0.22514,0.44736,-0.28518
-0.18528,0.97472,0.12484,0.50543,0.30385,0.0023
-0.20083,0.97839,0.04908,0.6632,0.40755,0.12853
-0.19866,0.97948,-0.03381,0.60519,0.73149,0.40248
-0.18819,0.98001,-0.0645,-0.11635,0.60112,0.93859
-0.18668,0.97702,-0.10282,-0.13376,0.64317,0.30236
-0.18869,0.96988,-0.15404,-0.03501,0.76232,0.10492
-0.21179,0.95629,-0.20162,0.33755,0.56252,0.57532
-0.2398,0.93462,-0.26264,0.45731,0.15982,0.44712
-0.25149,0.90476,-0.34375,0.40355,-0.09459,0.0258
-0.25831,0.88484,-0.38771,0.17373,-0.37299,0.13155
-0.26223,0.87301,-0.41118,0.2648,-0.2903,0.24364
-0.26843,0.86417,-0.42561,0.30694,-0.4542,0.3894
-0.27142,0.85766,-0.43675,0.40744,-0.51029,0.47064
-0.27894,0.85015,-0.44658,0.32527,-0.60839,0.5582
-0.29236,0.84076,-0.45569,0.23677,-0.55635,0.49524
-0.30341,0.83572,-0.45773,0.18297,-0.61091,0.42686
-0.30748,0.83911,-0.44871,0.11517,-0.61113,0.36033
-0.30197,0.85047,-0.4307,0.05133,-0.60136,0.23026
-0.28536,0.86716,-0.40817,-0.01314,-0.50782,0.04818
-0.2618,0.88692,-0.38056,-0.16912,-0.19495,-0.07105
-0.2367,0.90674,-0.34899,-0.16043,0.32816,-0.43411
-0.21764,0.91795,-0.33164,0.11739,1.68782,-0.94473
-0.22284,0.91245,-0.34318,0.25557,0.93998,-1.01648
-0.24457,0.89715,-0.36785,0.35713,-0.11356,-0.92442
-0.26103,0.88543,-0.38454,0.31482,-0.53317,-0.67146
-0.27817,0.88357,-0.37673,0.02541,0.00048,0.13956
-0.28009,0.88535,-0.37109,0.33619,0.66124,0.62666
-0.25401,0.89114,-0.37596,0.56131,1.07912,0.92155
-0.21143,0.89792,-0.38606,0.26599,-0.15068,0.93008
-0.17627,0.90866,-0.37851,0.12038,-0.40821,0.93728
-0.18776,0.91727,-0.35122,-0.89594,-0.55413,0.14584
-0.2379,0.91977,-0.31213,0.81056,0.76662,0.08244
-0.26227,0.92629,-0.27056,1.06275,0.41995,0.17038
-0.21213,0.95435,-0.21023,0.9919,0.15638,0.59056
-0.16589,0.97553,-0.1443,0.46197,-0.12537,0.19425
-0.15267,0.98419,-0.08972,0.30102,-0.04788,0.20941
-0.14973,0.98696,-0.059,0.10675,-0.03304,0.36389
-0.14366,0.98933,-0.02417,-0.09799,-0.1574,0.05498
-0.13594,0.99043,0.02384,0.08573,-0.29629,-0.0484
-0.12945,0.9894,0.06571,0.18202,-0.32731,-0.15708
-0.12767,0.98655,0.10207,0.25589,-0.24195,-0.09435
-0.12856,0.98261,0.13395,0.21958,-0.21929,-0.09634
-0.13137,0.97847,0.15914,0.15635,-0.18535,-0.0852
-0.13384,0.97353,0.18528,0.22244,0.09219,-0.23137
-0.13338,0.96781,0.21339,0.28878,0.18212,-0.40587
-0.13134,0.9614,0.24178,0.32325,0.23254,-0.55421
-0.13197,0.95648,0.26024,-0.00878,0.41092,-0.44439
-0.1373,0.95398,0.26658,-0.01726,0.43314,-0.48077
-0.14295,0.95462,0.26125,0.35476,0.48474,-0.17518
-0.14986,0.9569,0.24876,0.02651,0.65245,-0.56625
-0.15222,0.96088,0.23138,-0.06177,0.48314,-0.64865
-0.15793,0.96736,0.19812,0.01564,0.11613,-0.01264
-0.18013,0.97626,0.12028,-0.13245,0.17003,-0.09463
-0.20415,0.97882,0.01528,-0.0857,0.27819,0.08719
-0.21737,0.97332,-0.07344,0.53919,1.01952,0.68283
-0.21616,0.97098,-0.10234,0.22312,0.80741,0.76842
-0.21774,0.96964,-0.11123,-0.09105,0.8359,0.24992
-0.24554,0.95637,-0.15832,-0.19582,0.67896,0.49584
-0.29211,0.93187,-0.21514,-0.06674,0.14288,0.26086
-0.33774,0.90065,-0.2734,0.12392,-0.16709,0.0032
-0.36229,0.87277,-0.32711,0.33143,-0.39787,-0.05208
-0.37156,0.85885,-0.3526,0.32483,-0.54065,0.44983
-0.38011,0.84985,-0.36505,0.36064,-0.58679,0.49543
-0.39274,0.84131,-0.3714,0.56816,-0.50895,0.48404
-0.4038,0.83352,-0.37707,0.47506,-0.53182,0.41644
-0.40721,0.82842,-0.38456,0.45254,-0.56089,0.39819
-0.40733,0.82619,-0.38922,0.31548,-0.58919,0.38414
-0.40217,0.82931,-0.38794,0.19627,-0.62924,0.2983
-0.38961,0.84057,-0.37635,0.0534,-0.63832,0.13683
-0.36606,0.86132,-0.35232,-0.09288,-0.598,-0.158
-0.32999,0.888,-0.32023,-0.20799,-0.23218,-0.40555
-0.29502,0.90606,-0.30335,-0.37959,0.25996,-0.6925
-0.28661,0.89677,-0.33713,-0.45195,2.45977,-0.98115
-0.30909,0.87762,-0.3664,-0.43294,0.33773,-0.61335
-0.32236,0.86379,-0.38723,-0.27086,-1.00838,-0.38582
-0.33742,0.8582,-0.38683,-0.27088,-0.32368,0.07447
-0.35307,0.85589,-0.37787,-0.00525,0.72267,0.26794
-0.36988,0.84508,-0.38604,0.11834,1.16406,0.13403
-0.37366,0.83696,-0.39983,0.62568,0.27313,0.56218
-0.36273,0.83991,-0.40369,0.25257,-0.65467,0.85569
-0.34479,0.85442,-0.38869,0.21176,-0.47393,0.54288
-0.32897,0.87385,-0.35799,0.31547,0.50975,0.10086
-0.31494,0.88882,-0.33287,0.71033,0.52199,0.47738
-0.27556,0.91204,-0.30373,0.52771,0.24374,0.34209
-0.23382,0.93639,-0.26171,0.38968,0.0462,0.23245
-0.20522,0.95247,-0.22511,0.29599,-0.00915,0.16407
-0.18089,0.96398,-0.19498,0.21492,-0.15586,0.09705
-0.15343,0.97534,-0.15861,0.09618,-0.25272,-0.03269
-0.11654,0.98818,-0.09953,0.08317,-0.48911,-0.03595
-0.08382,0.99596,-0.03216,0.11301,-0.43947,0.02685
-0.06404,0.99784,0.01442,0.04454,-0.37485,-0.0169
-0.05573,0.99702,0.05319,0.12385,-0.13449,-0.19998
-0.05535,0.99408,0.09341,0.2127,-0.16051,-0.09769
-0.06425,0.98813,0.13953,0.19768,0.05522,0.34102
-0.08148,0.98121,0.17486,0.01866,0.21566,0.04798
-0.09354,0.97621,0.19558,-0.06076,0.48825,-1.31688
-0.08754,0.97144,0.22052,0.3353,0.46305,-0.65748
-0.0838,0.96904,0.23224,0.62004,0.22492,-0.0523
-0.1002,0.97007,0.22118,0.2891,0.38116,-0.09685
-0.11265,0.97093,0.21118,-0.11788,0.50145,-0.28642
-0.1153,0.97382,0.19587,0.10745,0.35311,-0.25849
-0.1241,0.97991,0.15611,0.22752,0.38256,-0.00311
-0.1347,0.98631,0.09513,-0.08615,0.53345,0.08027
-0.14529,0.98921,0.01887,-0.45144,0.35218,0.26262
-0.15193,0.98688,-0.05455,-0.41625,0.55456,0.58871
-0.1521,0.98145,-0.11665,-0.36283,0.64408,0.45406
-0.14978,0.9727,-0.17727,-0.22119,0.72483,0.41007
-0.15644,0.96006,-0.23195,-0.1094,0.74813,0.41148
-0.18552,0.94451,-0.27106,0.01053,0.43606,0.46384
-0.23646,0.9196,-0.31372,0.22151,0.16879,0.41654
-0.27736,0.88519,-0.3735,0.43374,-0.16612,0.28416
-0.27707,0.8558,-0.43684,0.34375,-0.55226,0.19311
-0.27731,0.84246,-0.4619,0.2779,-0.82813,0.71696
-0.29116,0.82936,-0.47685,0.47245,-0.78453,0.60171
-0.30778,0.81604,-0.48924,0.32658,-0.61226,0.51838
-0.31434,0.80646,-0.5008,0.32089,-0.58938,0.41779
-0.31339,0.80258,-0.5076,0.31247,-0.61994,0.37932
-0.30957,0.80521,-0.50577,0.19635,-0.73008,0.29652
-0.30104,0.81609,-0.49333,0.07889,-0.73047,0.17306
-0.28267,0.836,-0.47032,0.05835,-0.73039,0.03072
-0.25357,0.8617,-0.4395,-0.11644,-0.34144,-0.44135
-0.22466,0.88097,-0.41643,-0.32147,0.74771,-1.13838
-0.20262,0.87762,-0.43442,-0.38493,2.14316,-1.23327
-0.19533,0.86602,-0.46028,-0.74137,0.93281,-0.64106
-0.21183,0.85871,-0.46662,-0.24766,-0.34965,-0.13253
-0.24115,0.85291,-0.46301,-0.54025,-0.13421,0.28387
-0.2575,0.84952,-0.46044,0.01465,0.3762,0.65334
-0.25949,0.85217,-0.45439,0.0159,0.83075,0.58518
-0.24974,0.85737,-0.45005,0.19523,0.04053,0.58608
-0.24719,0.86292,-0.44075,0.22967,-0.24607,0.30751
-0.24115,0.86936,-0.43135,0.48074,-0.05481,0.51015
-0.22297,0.886,-0.40654,0.45744,0.28538,0.26297
-0.19857,0.90588,-0.3741,0.67262,0.30189,0.13112
-0.16934,0.92861,-0.33016,0.61346,0.14659,0.36118
-0.14238,0.95096,-0.27459,0.29558,-0.12892,0.32097
-0.11782,0.96862,-0.21881,0.18251,-0.2498,0.2517
-0.09337,0.98194,-0.16453,-0.01657,-0.35837,0.31617
-0.07276,0.99004,-0.12049,-0.21564,-0.31592,-0.01002
-0.05826,0.99507,-0.08024,-0.10799,-0.30453,0.03671
-0.04694,0.998,-0.04238,0.10524,-0.32125,0.12651
-0.04156,0.99911,-0.00707,0.18637,-0.30613,0.24365
-0.04548,0.9984,0.03333,0.10127,-0.14384,0.18454
-0.05216,0.9959,0.07391,0.19943,0.0416,0.15196
-0.06284,0.99222,0.10739,0.22015,0.07792,-0.15511
-0.06834,0.98738,0.14286,0.29596,0.29378,-0.8825
-0.06676,0.98162,0.17877,0.44661,0.25888,-0.28393
-0.07271,0.97703,0.20029,0.25898,0.37716,-0.26957
-0.08549,0.97462,0.20688,0.11042,0.42634,-0.37854
-0.09377,0.97413,0.20558,0.40392,0.25601,-0.07797
-0.10376,0.9737,0.2028,0.38637,0.31556,-0.03744
-0.11194,0.97406,0.19663,0.04715,0.42653,-0.26828
-0.12124,0.97713,0.17467,0.11521,0.42161,0.00209
-0.12766,0.98275,0.13375,0.20018,0.34088,0.18368
-0.13132,0.9883,0.07749,-0.09189,0.28202,0.16203
-0.13512,0.99075,0.01208,-0.38641,0.36988,0.28363
-0.14051,0.98846,-0.05655,-0.27718,0.44045,0.53249
-0.13986,0.98259,-0.12223,-0.19166,0.58696,0.42224
-0.1345,0.97306,-0.18724,-0.2246,0.79359,0.25358
-0.13925,0.95896,-0.24699,-0.03298,0.63383,0.2606
-0.16267,0.9444,-0.28572,0.25162,0.47254,0.48136
-0.2016,0.9207,-0.33417,0.43488,-0.11252,0.17097
-0.22542,0.8872,-0.40256,0.47904,-0.29533,-0.02316
-0.22628,0.86811,-0.4418,0.39363,-0.39502,0.06242
-0.22473,0.85746,-0.46287,0.19357,-0.57539,0.65342
-0.23132,0.84607,-0.48026,0.20016,-0.564,0.67081
-0.2434,0.83352,-0.49599,0.21841,-0.67586,0.6808
-0.25199,0.82222,-0.51035,0.16113,-0.65973,0.57436
-0.257,0.81458,-0.52,0.10954,-0.70648,0.53112
-0.25787,0.81297,-0.52209,0.04798,-0.68564,0.43133
-0.25249,0.81969,-0.51416,-0.0755,-0.60634,0.34317
-0.23854,0.83487,-0.49606,-0.14329,-0.58319,0.15732
-0.2138,0.85841,-0.46628,-0.08903,-0.42766,-0.15732
-0.18222,0.88428,-0.42994,-0.05546,0.3803,-0.71839
-0.15977,0.88925,-0.42861,-0.01773,2.08518,-1.29357
-0.14855,0.87498,-0.4608,-0.44675,1.30716,-1.23965
-0.15084,0.86103,-0.48567,-0.10752,-0.33725,-0.68111
-0.18057,0.85358,-0.48866,-0.07776,-0.77019,0.10141
-0.21589,0.85145,-0.47793,-0.0844,0.12722,0.68725
-0.2373,0.85353,-0.46386,0.26717,0.72476,0.89422
-0.22791,0.85511,-0.46566,0.28338,1.17123,1.05511
-0.2012,0.86236,-0.4646,0.40973,0.1117,0.52539
-0.17589,0.87087,-0.45897,0.14304,-0.30517,0.5551
-0.17459,0.88697,-0.42754,0.23738,0.20232,0.05549
-0.19117,0.89705,-0.39844,0.36705,0.25893,0.34563
-0.19257,0.91518,-0.35405,0.31521,-0.11133,0.47283
-0.16381,0.94045,-0.29783,0.28861,-0.01235,0.28338
-0.13465,0.96136,-0.24011,0.3597,-0.02042,0.26505
-0.1091,0.97607,-0.18807,0.2554,-0.17059,0.39394
-0.08046,0.98641,-0.14319,0.22677,-0.18093,0.34907
-0.05694,0.99372,-0.09628,-0.33111,-0.38845,0.04886
-0.04319,0.99757,-0.05452,-0.18284,-0.41992,-0.0258
-0.03514,0.99923,-0.01717,-0.04439,-0.37655,-0.04718
-0.03534,0.99915,0.02118,0.27803,-0.28989,0.08109
-0.0465,0.99705,0.06102,0.30087,-0.14994,0.19207
-0.06017,0.99349,0.09672,0.15793,0.03547,0.15447
-0.07042,0.98851,0.1337,0.09421,0.24359,-0.43202
-0.07344,0.98196,0.17419,0.16834,0.43291,-0.88658
-0.07574,0.97724,0.19811,0.37315,0.40188,-0.26608
-0.09004,0.97565,0.19999,0.29491,0.42644,-0.27038
-0.10108,0.97473,0.19918,0.28919,0.23697,-0.21734
-0.10766,0.97466,0.19606,0.2997,0.46005,-0.17893
-0.11599,0.9759,0.18481,0.38088,0.73537,-0.12851
-0.12384,0.9801,0.15507,0.34365,0.6002,0.2019
-0.12288,0.9861,0.11182,0.04475,0.39983,0.40464
-0.1185,0.99133,0.05665,-0.41248,0.30635,0.25437
-0.12184,0.99248,-0.01102,-0.32918,0.31611,0.32091
-0.127,0.98837,-0.08364,-0.20578,0.51452,0.44209
-0.1296,0.97941,-0.15479,-0.09778,0.64395,0.49135
-0.12728,0.96702,-0.22062,-0.1545,0.69103,0.2974
-0.12951,0.95314,-0.27339,-0.15227,0.70491,0.35017
-0.14878,0.93959,-0.30826,0.12108,0.3858,0.51451
-0.1813,0.91748,-0.35405,0.44349,0.0824,0.26976
-0.20133,0.88838,-0.41261,0.40942,-0.03605,0.32875
-0.21099,0.86238,-0.46019,0.30512,-0.1312,0.37464
-0.2229,0.84321,-0.48919,0.09135,-0.63076,0.59269
-0.23723,0.82805,-0.50799,0.05812,-0.72347,0.63698
-0.24981,0.81556,-0.52196,0.15327,-0.76687,0.55991
-0.25998,0.80558,-0.53239,0.21868,-0.62591,0.55174
-0.26797,0.79789,-0.53996,0.19124,-0.56572,0.53984
-0.27163,0.79582,-0.54118,0.16252,-0.55887,0.4833
-0.27071,0.80198,-0.53249,0.10498,-0.6247,0.4114
-0.2629,0.81732,-0.5127,0.03871,-0.63974,0.24616
-0.24513,0.84099,-0.48232,-0.04375,-0.6274,0.01203
-0.21761,0.86831,-0.44572,-0.15534,-0.21308,-0.27496
-0.19767,0.88437,-0.42286,-0.14262,1.15376,-0.9945
-0.1848,0.87468,-0.44809,0.00127,2.52155,-1.05759
-0.17174,0.85653,-0.48667,-0.62683,0.50229,-1.11042
-0.17981,0.84559,-0.50264,-0.24841,-0.87208,-0.37314
-0.2116,0.84316,-0.49426,-0.13872,-0.58346,0.27782
-0.24175,0.8412,-0.48366,0.16836,0.41559,0.57947
-0.25684,0.83972,-0.47843,0.36634,0.75786,0.83991
-0.24779,0.83934,-0.48384,0.34713,0.78304,0.64768
-0.23049,0.84435,-0.48366,0.35894,-0.4044,0.73461
-0.20649,0.85557,-0.47471,0.14891,-0.53085,1.01021
-0.20147,0.86923,-0.45148,0.32227,0.72943,-0.11289
-0.21291,0.87731,-0.4301,0.46269,0.6242,0.14985
-0.19247,0.90195,-0.38658,0.40348,0.03845,0.46402
-0.15238,0.93018,-0.33396,0.28832,-0.10247,0.36387
-0.11848,0.95221,-0.28152,0.23971,-0.02483,0.27938
-0.09297,0.96971,-0.22587,0.11629,-0.1986,0.46069
-0.06264,0.98318,-0.17156,0.00519,-0.25037,0.26298
-0.03288,0.9917,-0.1243,-0.14334,-0.29861,0.01561
-0.01885,0.99626,-0.08424,-0.08264,-0.33594,-0.03463
-0.01097,0.99875,-0.04859,0.11902,-0.32142,-0.01144
-0.00498,0.99995,-0.00869,0.24756,-0.41764,0.1072
-0.00783,0.99931,0.03611,0.26294,-0.37274,0.18613
-0.02287,0.99677,0.07698,0.08553,-0.10284,0.15787
-0.03791,0.99281,0.1135,0.04457,0.19701,-0.18201
-0.04901,0.98852,0.1429,0.09367,0.30734,-0.66497
-0.05175,0.98324,0.17479,0.36038,0.32735,-0.35022
-0.05856,0.97982,0.19107,0.28111,0.28104,-0.32463
-0.06704,0.9788,0.19353,0.28351,0.25474,-0.26293
-0.07713,0.97837,0.19191,0.42053,0.22654,-0.08896
-0.08445,0.97765,0.19248,0.11567,0.40618,-0.13173
-0.08779,0.97835,0.18737,-0.06988,0.37043,-0.1993
-0.09796,0.98147,0.16465,0.02369,0.3751,-0.0576
-0.11191,0.98641,0.12023,0.20661,0.28784,0.19022
-0.12085,0.99107,0.05629,0.12929,0.44086,0.22525
-0.12029,0.99269,-0.00958,0.03061,0.43926,0.27946
-0.11223,0.99116,-0.07072,-0.42412,0.61953,0.61396
-0.09927,0.98742,-0.12301,-0.43707,0.62326,0.66625
-0.08638,0.98044,-0.17681,-0.22079,0.67978,0.01863
-0.094,0.9696,-0.22589,0.00208,0.42787,0.33366
-0.12454,0.95698,-0.26206,0.03262,0.4405,0.36984
-0.16789,0.93802,-0.30318,0.32525,0.12399,0.4462
-0.19614,0.90945,-0.36663,0.53896,-0.0742,0.38318
-0.19619,0.88024,-0.43207,0.45006,-0.16848,0.34276
-0.19497,0.85924,-0.47295,0.3128,-0.33658,0.40017
-0.19627,0.8451,-0.49727,0.08647,-0.64986,0.53492
-0.20107,0.83314,-0.51522,0.15115,-0.61153,0.54925
-0.21219,0.82169,-0.52896,0.16745,-0.71076,0.57491
-0.22,0.81234,-0.54009,0.15221,-0.7233,0.50469
-0.22707,0.80882,-0.54244,0.14121,-0.66063,0.53344
-0.23262,0.81316,-0.53353,0.0596,-0.65201,0.44391
-0.23071,0.82726,-0.51225,0.01176,-0.5938,0.30931
-0.21515,0.84997,-0.48089,-0.0433,-0.52596,0.08889
-0.18747,0.8781,-0.44022,-0.1409,-0.18098,-0.19791
-0.1624,0.89591,-0.41347,-0.01524,1.13033,-0.98074
-0.14759,0.88293,-0.44569,-0.12388,2.65586,-1.35056
-0.13557,0.86422,-0.4845,-0.26527,-0.51004,-0.88651
-0.15396,0.85221,-0.50003,-0.05013,-0.92738,-0.50522
-0.18699,0.85159,-0.48973,0.07606,-0.72938,0.22903
-0.21625,0.85235,-0.47616,0.38093,0.78347,0.95156
-0.23254,0.84986,-0.47292,0.3657,2.06944,0.9202
-0.21754,0.85059,-0.47871,0.60856,-0.05929,0.51893
-0.19593,0.85324,-0.48331,0.20286,-0.61102,1.01163
-0.18025,0.86366,-0.47074,-0.2357,-0.45609,0.28434
-0.19606,0.87541,-0.44183,0.09688,0.69646,-0.35662
-0.23904,0.87865,-0.41332,0.46676,0.43552,0.58773
-0.21811,0.90482,-0.36568,0.44557,0.19539,0.44013
-0.1698,0.93569,-0.30926,0.24947,0.10265,0.31797
-0.12948,0.9579,-0.25624,0.17491,-0.02464,0.25849
-0.08812,0.97322,-0.21228,0.18759,-0.23399,0.34066
-0.04932,0.98551,-0.16223,0.03174,-0.39381,0.1743
-0.03056,0.99281,-0.11568,-0.03472,-0.3921,0.15385
-0.02454,0.99609,-0.08475,-0.01449,-0.28712,0.08166
-0.02149,0.99825,-0.05497,0.13451,-0.34093,0.08619
-0.0205,0.99966,-0.01595,0.21429,-0.38781,0.15631
-0.02633,0.99926,0.02775,0.23319,-0.20654,0.23939
-0.04011,0.99732,0.0611,0.10856,0.02032,0.02609
-0.05233,0.99427,0.0931,0.01913,0.18932,-0.42532
-0.0574,0.989,0.13629,0.24849,0.28958,-0.62355
-0.06198,0.98234,0.17652,0.42219,0.22302,-0.41269
-0.07249,0.97847,0.1932,0.25146,0.4702,-0.57232
-0.07766,0.97748,0.19619,0.33991,0.22601,-0.13822
-0.08428,0.97731,0.1943,0.32856,0.31415,-0.09184
-0.09155,0.97738,0.19062,0.24334,0.4423,-0.11243
-0.10035,0.97927,0.1759,0.09005,0.48315,0.12829
-0.10819,0.98372,0.14343,0.07575,0.41832,0.32248
-0.11521,0.98891,0.09368,0.06907,0.36557,0.35763
-0.1171,0.99255,0.03334,-0.39012,0.3315,0.22858
-0.12239,0.99189,-0.03398,-0.3128,0.2923,0.40411
-0.12072,0.98796,-0.09671,-0.22497,0.40407,0.46263
-0.11281,0.98173,-0.15319,-0.12735,0.78486,0.40077
-0.10478,0.97328,-0.20431,-0.12219,0.715,0.29489
-0.10428,0.96403,-0.24447,-0.088,0.63114,0.30146
-0.12851,0.9527,-0.27539,0.1494,0.11178,0.45024
-0.1687,0.93156,-0.32207,0.26902,0.03584,0.46422
-0.19357,0.90222,-0.38537,0.35846,-0.00543,0.63218
-0.2004,0.87337,-0.44391,0.27946,-0.45854,0.45579
-0.20803,0.8509,-0.48237,0.16767,-0.606,0.54345
-0.21167,0.83452,-0.50868,0.00717,-0.8077,0.61311
-0.22185,0.82,-0.52762,0.10953,-0.72875,0.5946
-0.23242,0.80704,-0.54283,0.15636,-0.64952,0.4728
-0.23678,0.79916,-0.55252,0.13288,-0.53573,0.45693
-0.23792,0.79783,-0.55395,0.05773,-0.52393,0.42082
-0.23496,0.80436,-0.5457,0.02772,-0.53396,0.26551
-0.22479,0.81966,-0.5269,0.00739,-0.52914,0.05635
-0.20727,0.84229,-0.49757,-0.03275,-0.35305,-0.18636
-0.18934,0.86428,-0.46601,-0.09039,0.51133,-0.62445
-0.18297,0.86701,-0.46348,0.06578,1.8732,-0.80404
-0.17921,0.85402,-0.48839,-0.47486,1.07944,-1.03822
-0.16992,0.83606,-0.52165,-0.39521,0.3139,-0.98819
-0.17316,0.82864,-0.53232,0.01476,-0.82676,-0.38618
-0.19536,0.83143,-0.52015,0.10736,-0.62846,0.45829
-0.22672,0.83339,-0.50403,0.02195,0.19812,0.6204
-0.24827,0.83464,-0.49166,0.22573,1.30464,0.63753
-0.23948,0.83662,-0.49265,0.41678,1.29831,0.62874
-0.21229,0.84549,-0.48997,0.40936,-0.15964,0.91357
-0.18582,0.84952,-0.49373,-0.05603,-0.5263,0.50495
-0.19213,0.86041,-0.47199,-4e-05,0.02568,-0.04194
-0.22619,0.86735,-0.44333,0.32318,0.55439,0.22176
-0.23339,0.88565,-0.40143,0.53683,0.26161,0.56383
-0.19373,0.9174,-0.34763,0.46007,0.23042,0.38783
-0.15937,0.94194,-0.29553,0.42011,0.13278,0.20929
-0.13057,0.95981,-0.24839,0.28363,-0.05495,0.38561
-0.09551,0.97444,-0.20333,0.09783,-0.19883,0.344
-0.06006,0.98594,-0.15589,-0.07228,-0.21389,0.17594
-0.04179,0.9925,-0.11486,-0.26125,-0.42911,0.00654
-0.03664,0.99576,-0.08425,-0.09721,-0.38599,0.06128
-0.03217,0.99808,-0.05273,0.07137,-0.42846,0.06225
-0.03012,0.99944,-0.01387,0.18465,-0.41906,0.13139
-0.03633,0.99879,0.03302,0.23321,-0.15792,0.25239
-0.05183,0.99582,0.07508,0.17826,0.08174,0.11772
-0.06528,0.99153,0.11219,0.12277,0.19215,-0.43673
-0.06874,0.98544,0.15544,0.32831,0.29383,-0.40199
-0.0725,0.97999,0.18532,0.34479,0.33578,-0.31466
-0.08027,0.97787,0.19314,0.28708,0.33016,-0.44445
-0.08846,0.97722,0.19288,0.30132,0.33257,-0.13667
-0.09684,0.97709,0.18947,0.26198,0.44445,-0.20245
-0.10566,0.97783,0.18075,0.23508,0.52492,-0.2747
-0.11737,0.98121,0.15309,0.19668,0.49236,0.15865
-0.12069,0.98635,0.11193,0.10047,0.41328,0.28386
-0.12015,0.99123,0.05486,0.03508,0.39099,0.33163
-0.12358,0.99219,-0.0165,-0.31041,0.4071,0.38376
-0.12483,0.98833,-0.08727,-0.24912,0.5327,0.51133
-0.11876,0.98116,-0.15237,-0.2139,0.61655,0.50327
-0.10556,0.9705,-0.21673,-0.24088,0.88735,0.19355
-0.10534,0.95789,-0.26709,-0.22247,0.81652,0.23016
-0.12772,0.94584,-0.29843,0.19176,0.3751,0.56574
-0.16558,0.9218,-0.3505,0.47213,0.1055,0.53486
-0.19033,0.88331,-0.4284,0.53601,-0.0088,0.53271
-0.19995,0.84728,-0.49207,0.23439,-0.47539,0.34606
-0.20813,0.82625,-0.52344,0.02979,-0.7386,0.65503
-0.21861,0.81084,-0.5429,0.05455,-0.83567,0.70055
-0.235,0.79431,-0.56022,0.21019,-0.72375,0.62229
-0.25055,0.77897,-0.57483,0.23941,-0.58739,0.55022
-0.25954,0.76911,-0.58404,0.21879,-0.53016,0.51948
-0.26512,0.76736,-0.58383,0.0551,-0.59886,0.50686
-0.26927,0.77501,-0.5717,-0.01421,-0.66133,0.37195
-0.26388,0.79394,-0.54774,-0.07392,-0.66096,0.09531
-0.2427,0.82352,-0.51273,-0.06364,-0.49366,-0.14565
-0.21334,0.85375,-0.47495,-0.09817,0.4063,-0.65879
-0.19539,0.86122,-0.46916,0.17656,2.19108,-1.06726
-0.18741,0.84724,-0.49704,-0.53206,1.45847,-1.10505
-0.18334,0.83149,-0.52441,-0.07613,-0.21331,-0.68747
-0.20872,0.81942,-0.53383,-0.28332,-0.27122,-0.05005
-0.2441,0.81011,-0.53304,-0.14646,0.7173,0.54961
-0.26968,0.80667,-0.52588,0.37567,1.57958,0.90331
-0.27969,0.79937,-0.53176,0.53468,-0.52945,0.81206
-0.27085,0.80088,-0.53406,0.02789,-0.9232,1.11747
-0.26353,0.81031,-0.5234,0.10589,-0.44614,0.4907
-0.2828,0.81279,-0.50929,0.24632,0.20861,0.10091
-0.30505,0.81557,-0.49171,0.57269,0.80567,0.49694
-0.2811,0.85068,-0.4442,0.51138,0.46783,0.45426
-0.24637,0.88574,-0.39339,0.42525,0.3759,0.25447
-0.22522,0.90397,-0.36344,0.36657,0.19042,0.16499
-0.20366,0.9205,-0.33347,0.246,-0.13795,0.2354
-0.1725,0.94216,-0.28734,0.15317,-0.33766,0.18644
-0.13946,0.96322,-0.22964,0.05839,-0.37831,0.13103
-0.11063,0.98014,-0.16453,0.03581,-0.40635,0.24437
-0.08839,0.99012,-0.10882,0.05181,-0.33629,0.09741
-0.07545,0.99523,-0.06171,0.07432,-0.36182,-0.0271
-0.0703,0.9974,-0.01549,0.10526,-0.3673,-0.02571
-0.07153,0.99697,0.03028,0.15951,-0.27201,0.27467
-0.0842,0.99374,0.07326,0.05679,-0.03961,0.27218
-0.101,0.98945,0.10381,-0.01324,0.18647,-0.14401
-0.11048,0.98605,0.12439,0.04358,0.33575,-0.56639
-0.11039,0.982,0.15319,0.10856,0.33378,-0.93059
-0.11246,0.97872,0.17155,0.3122,0.20668,-0.17928
-0.12453,0.9779,0.1679,0.22463,0.15129,-0.17574
-0.13649,0.97741,0.16132,0.43324,0.24215,0.01701
-0.14592,0.9771,0.15479,0.25947,0.38989,-0.27116
-0.15226,0.97725,0.14755,0.04111,0.47845,-0.38477
-0.16321,0.97843,0.12657,0.20756,0.16778,-0.12059
-0.18025,0.98013,0.0827,0.26845,0.44169,0.11689
-0.19457,0.98073,0.01701,0.15298,0.38383,0.26313
-0.19808,0.97882,-0.05154,0.04021,0.59785,0.49923
-0.18901,0.97573,-0.11048,-0.28613,0.78361,0.68862
-0.17069,0.97136,-0.16523,-0.38203,0.67568,0.53285
-0.15363,0.9645,-0.21477,-0.24521,0.65348,0.22694
-0.15769,0.95612,-0.2469,0.02185,0.54989,0.41915
-0.18826,0.94433,-0.26978,0.18105,0.53714,0.53928
-0.23087,0.92065,-0.3148,0.41002,0.19578,0.42805
-0.2513,0.88971,-0.38111,0.47722,0.09059,0.21146
-0.24974,0.86664,-0.43193,0.15462,-0.21389,0.31598
-0.24318,0.85468,-0.45868,0.01609,-0.58838,0.53363
-0.23784,0.84544,-0.47817,0.18845,-0.67808,0.50974
-0.24343,0.83695,-0.49016,0.29981,-0.73784,0.57718
-0.25285,0.82872,-0.49928,0.21658,-0.68941,0.49896
-0.25968,0.82308,-0.50507,0.19045,-0.61895,0.49061
-0.26399,0.82174,-0.50501,0.1876,-0.63939,0.48629
-0.26749,0.82647,-0.49537,0.09189,-0.67583,0.44122
-0.26623,0.83833,-0.47574,-0.00558,-0.6623,0.20807
-0.25355,0.85794,-0.44681,-0.02204,-0.6696,0.07601
-0.22892,0.88457,-0.40635,-0.03753,-0.54848,-0.08865
-0.20434,0.90741,-0.36722,0.08321,1.10654,-0.92331
-0.19648,0.90108,-0.38657,0.126,2.30877,-1.26054
-0.19711,0.88126,-0.42956,-0.74275,0.34892,-1.07077
-0.21769,0.86653,-0.44915,-0.22432,-1.11785,-0.32751
-0.25615,0.85934,-0.44262,-0.08091,-0.75943,-0.09801
-0.28928,0.85322,-0.43396,0.40336,1.34481,0.93177
-0.30587,0.84138,-0.44555,0.56885,1.64931,0.74067
-0.29692,0.84176,-0.45084,0.46872,-0.35338,0.61154
-0.29512,0.84544,-0.44511,0.2692,-0.6976,0.76164
-0.29992,0.86211,-0.40841,0.30938,0.18463,0.30602
-0.31091,0.8758,-0.3692,0.57958,0.79335,0.15987
-0.29184,0.89663,-0.33299,0.56341,0.47712,0.38711
-0.24773,0.92373,-0.29212,0.42275,0.18698,0.19292
-0.21006,0.94562,-0.24832,0.39638,0.00221,0.22726
-0.17059,0.96279,-0.20957,0.18131,-0.0839,0.24413
-0.12762,0.97895,-0.15924,-0.03362,-0.22512,0.14856
-0.09792,0.98985,-0.10295,-0.31157,-0.34045,0.06348
-0.08143,0.99477,-0.06162,-0.30735,-0.4288,0.01392
-0.07551,0.99667,-0.0305,0.0841,-0.37376,-0.00069
-0.07313,0.99731,-0.00264,0.22042,-0.32303,-0.01709
-0.07195,0.99701,0.02794,0.4152,-0.23723,0.07031
-0.07324,0.99557,0.05888,0.36632,-0.16393,0.15105
-0.0778,0.99281,0.09085,0.20205,0.0006,0.06727
-0.08338,0.98908,0.12142,0.01342,0.10578,-0.30956
-0.08247,0.98505,0.15119,-0.03171,0.2958,-0.45844
-0.07843,0.97997,0.18299,0.06745,0.28085,-0.30753
-0.08362,0.97691,0.19657,0.2531,0.15449,-0.32464
-0.09602,0.97616,0.19459,0.21517,0.30567,-0.18247
-0.1133,0.97615,0.18514,0.25176,0.47476,-0.04157
-0.12713,0.97819,0.16421,0.45824,0.93198,0.22458
-0.13109,0.98349,0.12465,0.45543,0.8245,0.31372
-0.1233,0.98947,0.07574,0.04739,0.41953,0.15627
-0.11579,0.993,0.02313,-0.61454,-0.18457,-0.1509
-0.12804,0.99069,-0.0462,-0.33832,-0.15905,0.22043
-0.14528,0.98273,-0.11454,-0.04483,0.11003,0.36095
-0.1559,0.97192,-0.1762,0.19171,0.76646,0.50065
-0.14918,0.96352,-0.22215,0.07897,0.77248,0.55907
-0.1448,0.95778,-0.24836,-0.15855,0.62045,0.46916
-0.16474,0.94364,-0.28703,0.07642,0.3623,0.51637
-0.19642,0.91674,-0.34785,0.1855,0.03005,0.56945
-0.21758,0.8821,-0.4178,0.25237,-0.15544,0.24104
-0.23352,0.85381,-0.46527,0.109,-0.43249,0.20258
-0.24173,0.83656,-0.49166,0.22612,-0.4548,0.37515
-0.24955,0.82415,-0.50842,0.2257,-0.51087,0.50879
-0.25761,0.81463,-0.51962,0.24908,-0.5469,0.52406
-0.26007,0.80776,-0.52904,0.22554,-0.57166,0.51719
-0.25792,0.80467,-0.53477,0.22339,-0.56857,0.52291
-0.25365,0.80668,-0.53377,0.20058,-0.62956,0.38044
-0.246,0.8159,-0.52324,0.05903,-0.68799,0.16682
-0.23296,0.8331,-0.50166,0.01728,-0.68891,0.02815
-0.21334,0.85766,-0.46787,-0.08332,-0.49103,-0.21845
-0.19607,0.88084,-0.4309,-0.15856,0.32789,-0.63163
-0.19248,0.87913,-0.43597,0.17194,2.08219,-0.86586
-0.19484,0.85945,-0.47263,-0.42069,1.16211,-1.03605
-0.19661,0.84128,-0.50357,-0.26547,-0.63701,-0.37395
-0.22322,0.83538,-0.5023,-0.36909,-0.62518,-0.06295
-0.25613,0.83434,-0.48813,-0.27257,0.48191,0.53999
-0.27856,0.82845,-0.48586,0.24925,1.29162,0.68307
-0.29487,0.81748,-0.49474,0.15339,0.48204,0.43746
-0.29498,0.81929,-0.49167,0.20213,-0.68617,0.6373
-0.29431,0.8279,-0.47745,0.35099,-0.51905,0.90042
-0.29258,0.84404,-0.44943,0.49101,0.37011,0.35234
-0.28229,0.85873,-0.42765,0.55971,0.85126,0.33318
-0.2517,0.88433,-0.39319,0.60211,0.53462,0.50414
-0.21185,0.91464,-0.34431,0.4145,0.1906,0.35853
-0.18083,0.93433,-0.3071,0.1716,0.01484,0.25178
-0.1591,0.94723,-0.27827,-0.0121,-0.24619,0.19026
-0.12774,0.96267,-0.23863,-0.07719,-0.38863,0.09228
-0.09067,0.98025,-0.17574,-0.05057,-0.392,0.08759
-0.06467,0.991,-0.11717,0.09625,-0.27818,0.26622
-0.05266,0.99542,-0.07971,0.26712,-0.17822,0.16354
-0.05158,0.9975,-0.04821,0.27695,-0.12442,0.06088
-0.0509,0.99856,-0.01671,0.2187,-0.15494,0.15787
-0.0467,0.99879,0.01523,0.20345,-0.19642,0.09997
-0.04259,0.99798,0.04687,0.17728,-0.20953,0.11028
-0.04447,0.99586,0.07921,-0.02471,-0.05985,-0.12756
-0.04584,0.99238,0.1143,-0.09911,0.21256,-0.49759
-0.04561,0.98761,0.15008,0.21391,0.21792,-0.40376
-0.0481,0.98315,0.1763,0.30072,0.35768,-0.1979
-0.05321,0.98057,0.18876,0.10657,0.34777,-0.34601
-0.05742,0.97967,0.19219,0.20397,0.2611,-0.099
-0.06569,0.97963,0.18973,0.2105,0.39829,0.09427
-0.07855,0.97948,0.18556,0.0332,0.55044,-0.25497
-0.09051,0.98175,0.1672,0.12681,0.4882,-0.1531
-0.10024,0.98614,0.13216,0.2271,0.41485,0.00306
-0.10424,0.99049,0.0897,0.26065,0.29001,0.21096
-0.10469,0.99383,0.03633,-0.06695,0.15589,0.14999
-0.1102,0.99332,-0.03387,-0.16003,0.22266,0.29472
-0.11029,0.98853,-0.1031,-0.08836,0.32612,0.45217
-0.09881,0.98169,-0.16283,-0.06862,0.81023,0.55974
-0.08037,0.97314,-0.21569,-0.13072,0.74606,0.34041
-0.07516,0.9649,-0.2516,-0.15134,0.71053,0.34003
-0.09824,0.95427,-0.28232,0.05394,0.35899,0.59671
-0.143,0.92884,-0.34175,0.32153,0.12687,0.58576
-0.17691,0.88972,-0.42082,0.44533,0.04856,0.61122
-0.18972,0.85308,-0.48606,0.28494,-0.25014,0.22955
-0.19365,0.83145,-0.52075,0.01142,-0.66476,0.39822
-0.19404,0.8188,-0.54028,0.02294,-0.58385,0.58482
-0.20213,0.80676,-0.55522,0.16777,-0.57017,0.63545
-0.21209,0.79433,-0.56926,0.16728,-0.55728,0.61333
-0.21782,0.78343,-0.58205,0.09221,-0.53044,0.56489
-0.22026,0.77851,-0.5877,0.07124,-0.49627,0.53123
-0.21959,0.7812,-0.58438,-0.0497,-0.59044,0.36641
-0.21163,0.79329,-0.57087,-0.08876,-0.56822,0.26054
-0.19299,0.81568,-0.54536,-0.10545,-0.60122,0.09784
-0.16602,0.84457,-0.50905,-0.09109,0.22196,-0.44136
-0.146,0.8622,-0.48507,-0.01217,0.96864,-0.81332
-0.1384,0.85366,-0.5021,0.03194,2.06666,-0.88902
-0.1318,0.83418,-0.53551,-0.15772,-0.07446,-0.85145
-0.14584,0.81982,-0.55373,-0.05666,-0.47517,-0.68655
-0.17234,0.81774,-0.54918,0.03504,-0.20478,0.38503
-0.19839,0.81999,-0.53689,0.1329,0.42961,0.6544
-0.21201,0.82387,-0.52563,0.04828,0.8495,0.58905
-0.20324,0.82645,-0.52504,0.10313,0.57257,0.78887
-0.17364,0.83647,-0.51978,0.16598,-0.18577,0.75316
-0.15368,0.84555,-0.51129,0.07274,-0.24797,0.67276
-0.16385,0.85827,-0.48632,0.14258,0.31426,0.16797
-0.18545,0.86913,-0.45849,0.43278,0.46186,0.30402
-0.18803,0.8881,-0.41943,0.45449,0.30972,0.52516
-0.15869,0.91687,-0.36628,0.42189,-0.0264,0.41831
-0.12794,0.94051,-0.31475,0.42262,0.12305,0.26481
-0.10389,0.95734,-0.26961,0.23619,0.01997,0.31597
-0.07526,0.97142,-0.2251,-0.0115,-0.17316,0.24547
-0.03933,0.98327,-0.17783,-0.21166,-0.42831,0.08567
-0.0159,0.99091,-0.13354,-0.25833,-0.49399,0.08723
-0.00601,0.99534,-0.09618,-0.06471,-0.33733,0.07972
-0.00281,0.99819,-0.05999,0.23677,-0.24109,0.1189
-0.00537,0.99982,-0.01783,0.33495,-0.10775,0.18992
-0.01282,0.99964,0.02343,0.29153,0.04765,0.14444
-0.02154,0.99816,0.05649,0.1465,0.10764,0.10757
-0.02718,0.99561,0.08951,0.09038,0.22847,-0.60736
-0.02529,0.99153,0.12731,0.17928,0.21666,-0.97083
-0.02501,0.98828,0.15052,0.25928,0.27106,-0.22578
-0.03176,0.9869,0.15809,0.15772,0.32474,-0.23244
-0.03955,0.98677,0.15715,0.14879,0.23808,-0.04187
-0.04845,0.98685,0.15412,0.18197,0.36944,0.0453
-0.05491,0.9872,0.14968,0.07675,0.40834,-0.15047
-0.06051,0.98842,0.13909,-0.07354,0.17949,-0.2205
-0.07427,0.99119,0.10958,-0.03723,0.11072,-0.0698
-0.08846,0.99413,0.06223,0.14371,-0.00833,-0.00175
-0.0982,0.99514,-0.00549,0.30119,0.31996,0.24158
-0.09286,0.99303,-0.07256,0.5205,0.49629,0.47614
-0.07301,0.98905,-0.12824,0.07859,0.82908,0.86533
-0.0518,0.98429,-0.16874,-0.5337,0.77855,0.48978
-0.03685,0.97639,-0.21283,-0.48083,0.65115,0.14983
-0.05311,0.96469,-0.25794,-0.14894,0.54036,0.40465
-0.09453,0.9448,-0.31371,0.11995,0.3889,0.64161
-0.14257,0.9119,-0.38486,0.30958,0.18759,0.48611
-0.16488,0.8743,-0.45652,0.36067,0.17786,0.10805
-0.16618,0.85275,-0.49517,0.16694,-0.07528,0.24752
-0.15877,0.84048,-0.51805,0.08435,-0.40806,0.55594
-0.15616,0.82929,-0.53655,0.06292,-0.50699,0.55945
-0.161,0.8191,-0.55059,0.13335,-0.84872,0.7224
-0.16865,0.80895,-0.56316,0.13363,-0.7788,0.60652
-0.17944,0.80056,-0.57175,0.12173,-0.65693,0.57671
-0.19062,0.79688,-0.57328,0.06305,-0.64755,0.57841
-0.20116,0.80063,-0.56438,-0.01733,-0.66517,0.4679
-0.20432,0.81401,-0.54372,-0.06683,-0.67726,0.34783
-0.19156,0.83848,-0.51015,-0.15967,-0.47808,0.02361
-0.16277,0.87026,-0.46492,-0.05354,0.07733,-0.20679
-0.13937,0.8951,-0.42351,0.0466,0.65734,-0.51188
-0.13242,0.88967,-0.43696,-0.01947,2.35131,-0.89829
-0.12556,0.8669,-0.48241,-0.30483,0.05299,-1.2777
-0.12719,0.8448,-0.51974,0.10351,-0.88886,-0.75539
-0.15817,0.83711,-0.52367,-0.15274,-0.17286,0.17145
-0.19026,0.83972,-0.50859,0.40426,1.02875,1.05144
-0.19977,0.84415,-0.4975,0.37291,1.63164,1.0818
-0.17577,0.84119,-0.51136,0.29141,-0.47043,1.00834
-0.14019,0.84516,-0.5158,-0.29389,-0.79801,0.98579
-0.13769,0.85647,-0.49749,-0.26789,-0.32751,-0.09965
-0.19002,0.85729,-0.47847,0.46971,1.02835,0.04956
-0.22497,0.86252,-0.45326,0.55025,0.44611,0.77156
-0.17818,0.90032,-0.39706,0.38404,-0.0368,0.53259
-0.1265,0.93237,-0.33862,0.32397,0.09303,0.28442
-0.10083,0.94997,-0.29561,0.21931,0.01768,0.49599
-0.08099,0.96376,-0.25414,0.09567,-0.11978,0.45925
-0.0485,0.97786,-0.20352,0.01333,-0.25762,0.31115
-0.02334,0.98797,-0.15285,-0.10043,-0.35268,0.23762
-0.01413,0.99355,-0.11249,-0.10963,-0.35826,0.19727
-0.00965,0.99685,-0.07856,0.09346,-0.28442,0.06507
-0.00662,0.99924,-0.03832,0.22587,-0.3406,0.12304
-0.01013,0.99993,0.0049,0.19802,-0.28295,0.09108
-0.02031,0.99892,0.04168,0.18391,-0.16748,0.07935
-0.03152,0.99696,0.07115,0.09982,0.08776,-0.08845
-0.03712,0.9941,0.1018,0.08425,0.11564,-0.35374
-0.03737,0.9895,0.13953,0.2417,0.23961,-0.44026
-0.04329,0.98538,0.16471,0.23628,0.24641,-0.3474
-0.05458,0.98372,0.17116,0.20261,0.36931,-0.37899
-0.06655,0.9835,0.16814,0.34571,0.24526,-0.08332
-0.07877,0.9836,0.16217,0.35249,0.33012,0.0952
-0.08461,0.9848,0.15165,0.12117,0.54487,-0.16018
-0.08564,0.9879,0.12923,-0.03431,0.57818,-0.03978
-0.09045,0.99212,0.08659,0.02215,0.2389,0.31305
-0.09218,0.9954,0.02588,-0.15545,0.28091,0.1636
-0.09463,0.99458,-0.04295,-0.22742,0.31702,0.23393
-0.09392,0.98968,-0.10812,-0.16909,0.33055,0.52885
-0.08338,0.9823,-0.16769,-0.25078,0.61262,0.65027
-0.07064,0.97129,-0.22715,-0.22113,0.73959,0.24143
-0.06787,0.96019,-0.27096,-0.03499,0.68736,0.44317
-0.09244,0.94692,-0.30788,0.17194,0.36204,0.58475
-0.13733,0.91995,-0.36719,0.32814,0.0096,0.45031
-0.165,0.88178,-0.44184,0.41799,-0.1462,0.12853
-0.17337,0.8528,-0.4926,0.19722,-0.39065,0.34232
-0.17551,0.83828,-0.51622,0.07678,-0.53431,0.65671
-0.17947,0.82608,-0.5342,0.12155,-0.62429,0.65172
-0.19266,0.81315,-0.54924,0.14531,-0.62513,0.66711
-0.20325,0.80179,-0.56197,0.06632,-0.57044,0.5962
-0.20744,0.79371,-0.57183,0.05462,-0.50684,0.58329
-0.20862,0.79051,-0.57582,0.0449,-0.5038,0.57669
-0.20799,0.79468,-0.57027,-0.03498,-0.58935,0.46752
-0.20072,0.80806,-0.55384,-0.11294,-0.63904,0.23835
-0.18219,0.83131,-0.52509,-0.09563,-0.55496,0.02696
-0.15539,0.86173,-0.48298,-0.04591,-0.03002,-0.15009
-0.13444,0.88595,-0.44387,0.11894,1.36543,-0.78457
-0.12148,0.88023,-0.45873,-0.06163,2.60228,-1.25268
-0.10185,0.86055,-0.49908,-0.41119,0.22004,-1.42861
-0.10628,0.84275,-0.52771,-0.00866,-0.91892,-0.40123
-0.13698,0.83791,-0.52833,-0.11528,-0.30048,0.38235
-0.16953,0.8394,-0.51638,0.43409,0.74827,1.17616
-0.18497,0.84412,-0.50323,0.30462,1.38514,1.06215
-0.1681,0.84059,-0.51492,0.21587,-0.18455,0.79333
-0.14784,0.84234,-0.51827,0.10294,-0.36127,0.82978
-0.14734,0.85138,-0.50342,0.06551,0.2037,0.17255
-0.16941,0.86321,-0.47557,0.25089,0.7395,-0.03019
-0.19868,0.87256,-0.44627,0.40688,0.79811,0.14972
-0.17136,0.9013,-0.39786,0.26812,0.06341,0.44
-0.128,0.93083,-0.34229,0.22476,0.03388,0.38444
-0.10031,0.95038,-0.29446,0.25689,0.1496,0.26452
-0.07116,0.96498,-0.25248,0.23267,-0.2949,0.39042
-0.03961,0.97639,-0.21234,0.20112,-0.30631,0.35028
-0.02642,0.98466,-0.17241,-0.2337,-0.33888,0.09315
-0.02369,0.98965,-0.14147,0.01875,-0.26323,0.10369
-0.02016,0.99369,-0.1103,0.01521,-0.26726,0.07252
-0.01617,0.99734,-0.07096,0.23321,-0.28552,0.078
-0.01699,0.99947,-0.02749,0.23782,-0.2361,0.1032
-0.02414,0.99964,0.01072,0.19368,-0.08915,0.17751
-0.03445,0.99835,0.04564,0.07847,-0.03113,-0.10762
-0.04164,0.99547,0.08539,0.10535,0.16515,-0.61376
-0.04614,0.99152,0.12138,0.32678,0.23435,-0.28795
-0.05323,0.98883,0.13916,0.2347,0.37012,-0.37306
-0.06018,0.9879,0.14287,0.26971,0.33939,-0.19453
-0.07101,0.98775,0.13885,0.36659,0.19723,-0.05337
-0.0805,0.98767,0.1342,0.16729,0.58926,-0.15605
-0.08567,0.98879,0.12223,0.07566,0.62263,-0.05479
-0.08916,0.9916,0.09364,0.1196,0.46218,0.25605
-0.09022,0.99484,0.04622,-0.17021,0.24683,0.28963
-0.09373,0.99549,-0.01425,-0.35192,0.19886,0.21701
-0.10174,0.99182,-0.07695,-0.40605,0.19325,0.27103
-0.10547,0.9839,-0.14422,-0.05805,0.46863,0.42498
-0.10072,0.97204,-0.21209,-0.09325,0.65647,0.51789
-0.08772,0.95709,-0.27618,-0.1505,0.72426,0.40526
-0.08895,0.94281,-0.32122,-0.06818,0.51892,0.60778
-0.12119,0.92373,-0.36334,0.13883,0.21874,0.43848
-0.16637,0.89066,-0.42313,0.31334,-0.01004,0.34261
-0.1842,0.85587,-0.48327,0.35905,-0.19527,0.24246
-0.18329,0.83492,-0.51895,0.13019,-0.32462,0.56599
-0.18471,0.81963,-0.54229,0.12439,-0.44942,0.65051
-0.18981,0.80635,-0.56015,0.12094,-0.65765,0.61432
-0.19537,0.7954,-0.57373,0.13755,-0.64942,0.59492
-0.19475,0.7879,-0.58419,0.08616,-0.65029,0.56994
-0.19176,0.78551,-0.58839,0.05539,-0.58325,0.50996
-0.18796,0.78998,-0.5836,0.00272,-0.56447,0.42128
-0.1815,0.80268,-0.56812,-0.06772,-0.67569,0.25191
-0.16875,0.82435,-0.54034,-0.10276,-0.59329,0.04091
-0.14831,0.85354,-0.49946,-0.11116,-0.15452,-0.11338
-0.12646,0.87827,-0.46113,-0.08628,0.23936,-0.3896
-0.11054,0.87569,-0.47005,-0.14493,2.72563,-1.12168
-0.09133,0.85744,-0.5064,-0.58128,0.7436,-1.25375
-0.10748,0.83749,-0.53577,-0.29279,-0.55964,-0.28541
-0.14352,0.8276,-0.54266,-0.07674,-0.18943,0.34651
-0.17229,0.82915,-0.53181,0.51361,1.25241,1.16298
-0.17211,0.83411,-0.52405,0.31265,1.35843,0.86134
-0.15059,0.8347,-0.52971,0.29779,0.49697,0.72414
-0.1261,0.84048,-0.52696,-0.1337,-0.59605,0.99054
-0.11614,0.85845,-0.49958,-0.26582,-0.39086,0.42418
-0.14128,0.86971,-0.4729,0.01849,0.24877,-0.16612
-0.15346,0.88575,-0.43806,0.56927,0.06053,0.73188
-0.10307,0.92271,-0.37144,0.32014,-0.06844,0.57709
-0.05749,0.94958,-0.30821,0.24476,-0.0721,0.42701
-0.03207,0.9638,-0.26467,-0.02066,-0.22032,0.39968
-0.01333,0.97374,-0.22724,-0.08602,-0.35059,0.28038
-0.0021,0.98238,-0.18683,-0.15995,-0.39558,0.16212
0.00249,0.989,-0.14787,0.12384,-0.1866,0.14378
0.00536,0.99412,-0.10813,0.2265,-0.18232,0.17881
0.0053,0.99769,-0.06763,0.17933,-0.10839,0.15058
0.00135,0.99958,-0.02859,0.12761,-0.04369,-0.02341
-0.00254,0.99998,0.00501,0.13242,-0.01664,-0.05846
-0.00615,0.99928,0.03724,0.03905,-0.0079,-0.21017
-0.00833,0.99751,0.06989,0.12748,0.11493,-0.38873
-0.01249,0.99439,0.10498,0.16035,0.17297,-0.39259
-0.02086,0.99061,0.13502,0.12868,0.24902,-0.33625
