gravity.x,gravity.y,gravity.z,userAcceleration.x,userAcceleration.y,userAcceleration.z
-0.33853,-0.93614,-0.09506,-0.12446,0.43242,-0.03787
-0.336,-0.93782,-0.08714,-0.00209,0.40355,-0.14087
-0.32535,-0.9411,-0.09201,0.12603,0.41391,-0.20429
-0.30783,-0.94594,-0.10215,0.1492,0.44742,-0.1881
-0.2884,-0.95091,-0.11218,0.18164,0.53831,-0.13383
-0.27269,-0.95492,-0.11729,0.17764,0.4993,-0.07718
-0.26593,-0.95727,-0.11365,0.17134,0.42055,-0.05492
-0.26986,-0.95747,-0.10203,0.1147,0.06041,0.01175
-0.28043,-0.95599,-0.08625,0.14956,-0.18359,0.04762
-0.29125,-0.9538,-0.07375,0.12096,-0.29822,0.04915
-0.29563,-0.95274,-0.06989,0.08527,-0.19661,0.03544
-0.29213,-0.95347,-0.07448,0.13067,0.079,-0.02319
-0.28487,-0.95486,-0.0841,0.17622,0.19534,-0.02416
-0.27743,-0.95644,-0.09081,0.33605,0.37159,0.09487
-0.27077,-0.95855,-0.08869,0.30626,0.31847,0.32722
-0.26083,-0.96209,-0.07967,0.15841,0.22544,0.34818
-0.24415,-0.96739,-0.06746,-0.15041,0.0938,0.2775
-0.22459,-0.97296,-0.05387,-0.127,-0.0674,0.27422
-0.20888,-0.97705,-0.04158,-0.40549,-0.55084,0.07623
-0.19846,-0.9792,-0.04217,-0.4371,-1.06847,-0.35938
-0.19239,-0.98004,-0.04994,-0.07664,-0.95375,-0.33049
-0.189,-0.98065,-0.05087,-0.16995,-0.58342,-0.28123
-0.18901,-0.98088,-0.04636,0.00711,0.05268,-0.17523
-0.19578,-0.97987,-0.03886,0.08399,0.15346,-0.11075
-0.20947,-0.97723,-0.03377,-0.17547,0.19679,-0.11081
-0.22293,-0.97417,-0.03595,-0.35829,0.082,-0.04592
-0.23146,-0.97193,-0.0422,-0.36494,-0.12161,0.06743
-0.23477,-0.97108,-0.04334,-0.13556,-0.19071,0.28174
-0.2352,-0.97127,-0.03603,0.16581,-0.01579,0.42014
-0.23622,-0.97133,-0.02659,0.35663,0.3441,0.17671
-0.24016,-0.97045,-0.02325,0.37233,0.4743,0.04211
-0.2448,-0.96922,-0.02591,0.39124,0.61467,-0.07906
-0.25101,-0.96749,-0.0308,0.4388,1.17397,-0.18476
-0.26049,-0.96481,-0.0358,0.44674,1.24923,-0.05096
-0.27093,-0.96183,-0.03839,0.43198,1.2584,0.06132
-0.27685,-0.96002,-0.0414,0.22506,0.08973,0.10123
-0.27412,-0.96014,-0.05456,-0.42102,-0.5414,-0.19004
-0.26937,-0.95896,-0.08844,-1.06811,-0.79595,-0.48612
-0.25842,-0.95955,-0.11167,-0.7399,-1.38586,-0.50246
-0.24946,-0.96184,-0.1124,-0.23202,-1.38692,0.03128
-0.25672,-0.96136,-0.09935,0.06042,-0.91826,0.15708
-0.27575,-0.95759,-0.08351,0.2805,-0.16921,-0.15034
-0.29861,-0.95166,-0.07185,0.22047,0.81938,-0.18506
-0.31352,-0.94611,-0.08111,0.276,0.9066,-0.16257
-0.31768,-0.94246,-0.10409,0.27982,0.81449,-0.14003
-0.31276,-0.94181,-0.12313,0.16043,0.5226,0.0346
-0.29724,-0.94574,-0.13123,0.12983,0.24318,0.17612
-0.27197,-0.95373,-0.12816,0.091,0.07832,0.39742
-0.24291,-0.96257,-0.12015,0.02629,-0.27166,0.41147
-0.21784,-0.96933,-0.11372,-0.00284,-0.87637,0.59887
-0.20216,-0.9733,-0.10869,-0.41754,-1.3921,0.43706
-0.19749,-0.97343,-0.11585,-0.42222,-1.39197,0.44422
-0.20547,-0.97141,-0.11893,-0.00156,-0.33455,-0.31291
-0.21571,-0.96992,-0.11275,-0.04616,0.30707,-0.31518
-0.22504,-0.96811,-0.11,0.05074,0.52944,-0.26501
-0.2346,-0.96606,-0.10808,0.09398,0.60446,-0.0281
-0.24544,-0.96368,-0.10525,-0.07407,0.46585,-0.04722
-0.25489,-0.9611,-0.10633,-0.22483,0.19984,0.01662
-0.26132,-0.95898,-0.10987,-0.21821,-0.09588,0.09942
-0.26674,-0.95734,-0.11113,-0.12761,-0.17178,0.17361
-0.26953,-0.95678,-0.10918,-0.02862,-0.09944,0.23298
-0.26789,-0.95754,-0.10653,0.14468,-0.01692,0.28957
-0.26408,-0.95862,-0.10628,0.18488,0.1309,0.21129
-0.26203,-0.95907,-0.10734,0.17605,0.24779,0.15624
-0.26337,-0.95904,-0.10423,0.27646,0.56872,0.06459
-0.26692,-0.95888,-0.09638,0.37057,0.68131,-0.03106
-0.27179,-0.95833,-0.0879,0.38036,0.65807,-0.06574
-0.279,-0.9568,-0.0818,0.087,0.20969,0.07413
-0.28794,-0.9545,-0.0776,-0.17988,-0.71764,-0.05009
-0.29355,-0.95178,-0.08902,-0.35559,-1.18068,-0.34539
-0.29655,-0.94903,-0.10675,-0.45255,-1.58238,-0.29484
-0.30245,-0.94669,-0.1109,-0.15891,-0.66737,0.08439
-0.30973,-0.94586,-0.09699,0.07224,0.14207,0.06696
-0.31602,-0.94624,-0.06896,0.07043,0.51478,-0.02772
-0.31575,-0.94745,-0.05122,-0.04555,0.53713,-0.20786
-0.31066,-0.94887,-0.0559,-0.05285,0.49796,-0.28882
-0.30283,-0.94982,-0.07826,0.03595,0.46435,-0.2236
-0.29391,-0.9499,-0.10626,0.15407,0.53172,-0.16583
-0.28591,-0.94995,-0.12588,0.17126,0.56402,-0.17786
-0.27907,-0.95196,-0.12604,0.14635,0.38059,-0.10375
-0.27221,-0.95616,-0.10796,0.20052,0.09756,0.18132
-0.26298,-0.9618,-0.07605,0.30422,-0.19975,0.4778
-0.2516,-0.96681,-0.04424,0.26892,-0.24917,0.57296
-0.23826,-0.97071,-0.03059,0.03427,0.0339,0.29648
-0.22448,-0.97345,-0.0447,-0.03968,0.04845,0.1337
-0.2117,-0.97509,-0.06613,-0.1183,0.00239,0.1349
-0.19951,-0.97697,-0.0756,-0.63862,-0.86162,-0.2414
-0.19285,-0.97816,-0.0775,-0.34701,-0.61617,-0.09596
-0.19319,-0.97888,-0.06681,-0.11758,-0.08992,-0.10665
-0.19708,-0.97887,-0.05444,0.17879,0.03234,-0.25147
-0.20462,-0.97781,-0.0448,0.23767,0.10576,-0.2236
-0.2181,-0.97529,-0.03508,0.10512,0.18049,-0.1633
-0.23262,-0.97212,-0.02947,-0.04726,0.08499,-0.05125
-0.24269,-0.96951,-0.03395,-0.0873,0.05811,0.0964
-0.24738,-0.96787,-0.04499,-0.06945,0.14131,0.35942
-0.24929,-0.96708,-0.05106,-0.02944,0.28078,0.46663
-0.24968,-0.96714,-0.04778,0.01972,0.36534,0.41825
-0.25044,-0.96735,-0.03884,0.22421,0.60407,0.09763
-0.25379,-0.96674,-0.03165,0.36856,0.76647,-0.06964
-0.25955,-0.96511,-0.03449,0.45768,0.81307,-0.14277
-0.2638,-0.96341,-0.04723,0.34901,0.67014,-0.13722
-0.26676,-0.96195,-0.05893,0.27222,0.01518,0.23124
-0.26777,-0.96128,-0.06499,-0.10717,-0.52575,0.11184
-0.26882,-0.95896,-0.0901,-0.80321,-1.43111,-0.57524
-0.26907,-0.95704,-0.10803,-0.63823,-1.4584,-0.48593
-0.26998,-0.95705,-0.10563,-0.39422,-1.31099,-0.33724
-0.27427,-0.95723,-0.09205,0.18402,-0.29793,0.04439
-0.283,-0.956,-0.07717,0.05488,0.19778,-0.04504
-0.29086,-0.95363,-0.0773,0.07271,0.37833,-0.10773
-0.29545,-0.95033,-0.09787,-0.02954,0.66034,-0.16561
-0.29502,-0.94696,-0.12733,-0.08609,0.66266,-0.06973
-0.29183,-0.9447,-0.14957,-0.03342,0.69996,-0.01282
-0.28468,-0.94514,-0.16019,0.07852,0.50849,-0.0415
-0.27064,-0.94989,-0.15637,0.23785,0.23563,0.14466
-0.24925,-0.95819,-0.14047,0.29306,-0.03283,0.30848
-0.22496,-0.96651,-0.12344,0.30449,-0.2301,0.42393
-0.20711,-0.97153,-0.115,0.21157,-0.21896,0.4765
-0.19767,-0.9727,-0.12153,0.11847,-0.3036,0.30693
-0.19681,-0.97079,-0.13718,-0.19018,-0.7415,0.21712
-0.19664,-0.9686,-0.15209,-0.68487,-1.14186,-0.26043
-0.1961,-0.96861,-0.15276,-0.27164,-0.54972,-0.09443
-0.20323,-0.9699,-0.13409,-0.1613,0.21166,-0.06742
-0.20961,-0.9702,-0.12148,0.07001,0.40859,-0.19321
-0.2195,-0.9683,-0.11922,0.17311,0.45319,-0.20361
-0.23354,-0.96494,-0.11974,0.04769,0.34392,-0.09948
-0.24831,-0.9609,-0.12247,-0.19914,0.13453,-0.05434
-0.2603,-0.95697,-0.12821,-0.28102,-0.08412,0.01484
-0.26736,-0.95424,-0.13392,-0.26932,-0.0222,0.18197
-0.26899,-0.95347,-0.13615,-0.2184,0.06234,0.31664
-0.26548,-0.95418,-0.13803,-0.19183,0.06951,0.33161
-0.25967,-0.9552,-0.14194,-0.04645,0.22899,0.11855
-0.25561,-0.95656,-0.14017,0.14017,0.42557,0.06395
-0.25464,-0.95833,-0.12944,0.2724,0.52156,0.11964
-0.25485,-0.96033,-0.11316,0.50667,0.63421,-0.01134
-0.2562,-0.96154,-0.099,0.38579,0.50214,-0.09044
-0.25892,-0.96138,-0.09325,0.15176,0.17408,-0.01513
-0.26073,-0.96041,-0.09811,-0.12877,-0.45336,0.09654
-0.26017,-0.95831,-0.1181,-0.44275,-1.30027,-0.18884
-0.25809,-0.95577,-0.14098,-0.54971,-1.72933,-0.32898
-0.26449,-0.95369,-0.14324,-0.27978,-1.26158,-0.09904
-0.27737,-0.95222,-0.12782,-0.11418,-0.33671,-0.04344
-0.29237,-0.95139,-0.09676,-0.03086,0.26818,0.0544
-0.29966,-0.95166,-0.06738,-0.03896,0.49847,0.04437
-0.29857,-0.95281,-0.05468,-0.07092,0.54025,-0.07379
-0.29059,-0.95471,-0.06391,-0.05123,0.54621,-0.13665
-0.27892,-0.95616,-0.08915,0.07755,0.68187,-0.13555
-0.26671,-0.95711,-0.11314,0.18854,0.85826,-0.16555
-0.25453,-0.95921,-0.12297,0.22842,0.79898,-0.15873
-0.24432,-0.96246,-0.11817,0.16538,0.55856,-0.09043
-0.2362,-0.96621,-0.10311,0.08929,0.18054,-0.04667
-0.23235,-0.96883,-0.08591,0.06954,-0.13649,0.00098
-0.23394,-0.96933,-0.07523,0.19791,-0.24859,0.24602
-0.2376,-0.96873,-0.07142,0.25199,-0.24731,0.37336
-0.23517,-0.96863,-0.08023,0.09614,-0.3903,0.17404
-0.22522,-0.9696,-0.09561,-0.12682,-0.31876,0.17318
-0.21154,-0.97212,-0.10114,-0.37527,-0.09975,0.33098
-0.19485,-0.97607,-0.0965,-0.53776,-0.18902,0.34464
-0.1783,-0.97885,-0.10024,-0.47119,-0.70701,0.00652
-0.173,-0.9792,-0.10594,-0.11307,-0.80126,-0.0938
-0.17574,-0.97787,-0.11347,-0.10215,-0.73519,-0.22516
-0.18136,-0.97524,-0.12651,0.05248,-0.218,-0.44271
-0.19417,-0.97169,-0.13456,0.12876,0.07218,-0.31002
-0.21105,-0.96848,-0.13225,0.02998,0.31446,-0.14105
-0.22715,-0.96615,-0.12223,-0.00089,0.52912,-0.00292
-0.23843,-0.96518,-0.10759,-0.01061,0.64038,0.09154
-0.24334,-0.96532,-0.09451,-0.07,0.57742,0.11441
-0.24131,-0.96647,-0.08775,-0.17337,0.43305,0.05435
-0.23173,-0.96903,-0.08532,-0.21599,0.30417,-0.03588
-0.21623,-0.97267,-0.08459,-0.21822,0.18188,-0.09697
-0.19672,-0.97657,-0.08715,-0.1703,0.16897,-0.0854
-0.17498,-0.98016,-0.09307,-0.14974,0.21334,-0.01951
-0.15368,-0.98304,-0.10003,-0.27848,0.28618,0.03828
-0.13416,-0.98517,-0.10694,-0.48328,0.3045,-0.01171
-0.11792,-0.98683,-0.1107,-0.60358,0.30197,-0.06838
-0.1072,-0.98829,-0.10851,-0.59877,0.2734,-0.07462
-0.10085,-0.98949,-0.10357,-0.53422,0.36328,-0.09331
-0.09726,-0.99025,-0.0997,-0.52832,0.44706,-0.14774
-0.09234,-0.99097,-0.09715,-0.37237,0.30251,-0.03575
-0.08642,-0.99256,-0.08566,-0.18895,-0.17956,0.28804
-0.07853,-0.9951,-0.06002,0.37617,-0.88245,0.96483
-0.07303,-0.99678,-0.03287,0.50213,-0.95131,0.83141
-0.09445,-0.99519,-0.02583,0.66557,-0.86652,0.64747
-0.14524,-0.98837,-0.04489,0.46554,-0.77327,0.1638
-0.20053,-0.97621,-0.08238,0.34062,-0.99254,-0.19282
-0.24836,-0.9628,-0.10641,-0.37022,-1.12708,-0.1775
-0.27757,-0.95314,-0.12032,-0.97956,-0.64939,0.13454
-0.29067,-0.94837,-0.12691,-0.65159,-0.17053,0.34041
-0.29531,-0.94568,-0.13594,-0.42927,0.18735,0.1447
-0.28926,-0.94557,-0.14904,-0.19893,0.53558,-0.04381
-0.27483,-0.94904,-0.15423,-0.15588,0.58617,-0.0261
-0.25681,-0.95602,-0.14164,-0.09716,0.44023,0.15054
-0.24108,-0.96339,-0.11728,0.0143,0.1567,0.35115
-0.2281,-0.96895,-0.09541,0.08787,0.10775,0.35935
-0.21683,-0.97199,-0.09059,0.15599,0.09137,0.33226
-0.20742,-0.97289,-0.10219,0.22558,0.34801,-0.01145
-0.19653,-0.97328,-0.11868,0.21959,0.45628,-0.03873
-0.18115,-0.97473,-0.13065,0.25223,0.53493,-0.05188
-0.16328,-0.9772,-0.13569,0.22342,0.2824,0.03784
-0.15087,-0.97884,-0.13817,0.13654,0.09244,-0.06694
-0.14376,-0.97853,-0.14765,-0.0849,-0.22223,-0.31788
-0.14054,-0.97694,-0.1607,-0.15855,-0.17192,-0.29269
-0.14048,-0.97683,-0.16145,-0.18839,0.01442,-0.14193
-0.14337,-0.97905,-0.14456,-0.21998,0.15681,-0.0
-0.14602,-0.98102,-0.12755,-0.28108,0.19779,0.10039
-0.14302,-0.98095,-0.13142,-0.27578,-0.2615,0.15133
-0.13645,-0.97752,-0.1607,-0.59579,-0.72165,0.14691
-0.13254,-0.97065,-0.20063,-0.41266,-0.46753,0.55401
-0.12111,-0.97105,-0.20587,-0.24382,-0.70752,0.77177
-0.10258,-0.98035,-0.16847,-0.33466,-0.58691,0.64718
-0.09082,-0.98684,-0.13372,-0.20838,0.03505,0.537
-0.09133,-0.99002,-0.10728,-0.20953,0.52049,0.30669
-0.1029,-0.9922,-0.07034,-0.20033,0.42226,0.10438
-0.11823,-0.99254,-0.02955,0.08108,0.23766,0.15473
-0.13145,-0.99132,-0.00033,0.2187,0.18309,0.14948
-0.13718,-0.99048,0.01078,0.37717,-0.00239,0.13528
-0.13671,-0.99055,0.01012,0.29911,-0.0132,0.07199
-0.13583,-0.99071,0.00473,0.24449,0.01227,0.05579
-0.1376,-0.99048,-0.00098,0.04374,0.20383,0.02833
-0.14303,-0.98971,-0.00157,-0.07696,0.27862,0.02356
-0.15217,-0.98833,0.00602,-0.17187,0.24063,0.09942
-0.16384,-0.98628,0.02002,-0.27433,0.14275,0.19743
-0.17367,-0.9842,0.03424,-0.2895,0.11115,0.13802
-0.17738,-0.98327,0.04117,-0.22921,0.19969,-0.00091
-0.17471,-0.98387,0.03824,-0.14051,0.34158,-0.12298
-0.16649,-0.98561,0.02905,-0.08539,0.34188,-0.17969
-0.15687,-0.98743,0.0191,-0.09959,0.17967,-0.20647
-0.14944,-0.9887,0.01134,-0.20487,0.02337,-0.21515
-0.14328,-0.98963,0.00964,-0.28198,0.03316,-0.08753
-0.13426,-0.99084,0.01436,-0.32548,0.0196,-0.03134
-0.1246,-0.99204,0.01797,-0.43299,-0.05946,-0.05871
-0.12085,-0.9925,0.01826,-0.54374,-0.07403,-0.02854
-0.12278,-0.99226,0.01833,-0.47842,-0.30805,0.00621
-0.13046,-0.99119,0.02237,-0.23289,-0.49495,0.33444
-0.14486,-0.98891,0.03244,0.03683,-0.36424,0.54604
-0.16414,-0.98567,0.03875,0.16601,-0.27886,0.48856
-0.19096,-0.981,0.03388,0.33905,0.00737,0.32026
-0.22132,-0.97501,0.01874,0.25796,0.05926,0.30826
-0.24977,-0.9683,-0.00134,0.25377,-0.05619,0.27659
-0.27886,-0.96011,-0.02,0.07987,-0.33661,0.12689
-0.30638,-0.95133,-0.03307,-0.39776,-0.60556,0.03394
-0.32577,-0.94452,-0.04166,-0.42706,-0.57329,0.04961
-0.33738,-0.94024,-0.04594,-0.35511,-0.45234,0.11772
-0.33759,-0.93978,-0.05326,-0.11764,0.12105,0.17397
-0.32636,-0.94341,-0.05883,-0.11317,0.22694,0.17284
-0.31186,-0.94839,-0.05731,-0.11291,0.28909,0.15583
-0.30189,-0.95209,-0.04868,0.03283,0.18625,0.14213
-0.29844,-0.95357,-0.04032,0.03767,0.15152,0.08687
-0.29757,-0.95373,-0.04295,0.05407,0.11945,0.0427
-0.29315,-0.95409,-0.06135,-0.03058,0.23616,-0.13041
-0.28201,-0.95533,-0.08836,-0.00385,0.34729,-0.08524
-0.26847,-0.95685,-0.11107,0.07504,0.47106,0.03396
-0.25873,-0.95812,-0.12267,0.05086,0.59267,0.09737
-0.25267,-0.95967,-0.12321,0.18984,0.54873,0.16302
-0.25281,-0.95987,-0.12136,0.17475,0.51594,0.10498
-0.25579,-0.95885,-0.12313,0.16999,0.47419,0.00944
-0.25747,-0.95781,-0.12766,0.18983,0.37576,-0.08048
-0.25515,-0.95809,-0.13019,0.12156,0.20013,-0.12142
-0.24878,-0.96003,-0.12822,0.03586,0.02366,-0.13012
-0.24039,-0.96264,-0.12458,0.0047,-0.07634,-0.11485
-0.23417,-0.96419,-0.12449,0.03061,-0.08582,-0.05235
-0.23284,-0.96388,-0.12923,0.06957,-0.02119,-0.01857
-0.23688,-0.96154,-0.139,0.05638,0.05852,-0.09345
-0.24644,-0.95732,-0.15097,0.0957,0.14735,-0.13522
-0.25944,-0.95269,-0.15831,0.21257,0.20682,0.07489
-0.27178,-0.94979,-0.15498,0.25653,0.26916,0.46275
-0.27624,-0.95119,-0.13753,0.03634,0.35781,0.61487
-0.26283,-0.9571,-0.12189,-0.26089,0.11242,0.54613
-0.23291,-0.96534,-0.11775,-0.46474,-0.49876,0.83739
-0.19634,-0.97146,-0.13303,-0.93887,-1.4298,0.51084
-0.17603,-0.9738,-0.14397,-0.38054,-1.53203,-0.04665
-0.17613,-0.97656,-0.12367,0.36668,-0.91536,-0.3044
-0.18447,-0.97893,-0.0875,0.4794,-0.13312,-0.45359
-0.20209,-0.97787,-0.05392,0.62144,0.20563,-0.38084
-0.22024,-0.9746,-0.04037,0.21859,0.37654,-0.31088
-0.23476,-0.97085,-0.04832,-0.02789,0.37076,-0.11967
-0.24583,-0.96741,-0.06058,-0.19201,0.28596,0.13334
-0.24769,-0.96672,-0.06391,-0.28801,0.22836,0.26629
-0.23754,-0.9694,-0.06186,-0.36891,0.11086,0.30798
-0.22512,-0.97228,-0.06304,-0.1888,0.23724,0.04901
-0.21896,-0.97318,-0.07053,-0.13001,0.26598,-0.04409
-0.2206,-0.97188,-0.08226,-0.00091,0.33413,-0.14822
-0.22853,-0.96953,-0.08822,0.10626,0.47757,-0.15922
-0.23815,-0.96771,-0.08251,0.16337,0.55041,-0.12525
-0.24251,-0.96753,-0.07119,0.20175,0.69585,0.1023
-0.2398,-0.96892,-0.06066,0.2768,0.61028,0.41944
-0.23271,-0.97128,-0.04954,0.30874,0.62231,0.4186
-0.22484,-0.97342,-0.04337,0.31742,0.61475,0.21993
-0.21744,-0.97467,-0.05213,0.27394,0.19867,-0.02965
-0.21529,-0.97389,-0.07192,0.22725,-0.14432,0.00755
-0.21975,-0.97122,-0.09185,-0.04274,-1.22408,-0.15603
-0.22803,-0.9673,-0.11097,-0.79661,-1.82681,-0.821
-0.24655,-0.96274,-0.1111,-0.48477,-1.71546,-0.34053
-0.26947,-0.95862,-0.09171,-0.10844,-0.81475,-0.09467
-0.29054,-0.95508,-0.05823,0.12097,-0.07937,0.16704
-0.30286,-0.95261,-0.02837,-0.03877,0.40375,0.24577
-0.30358,-0.95246,-0.02526,-0.08962,0.70523,-0.19846
-0.29796,-0.95338,-0.04776,-0.0466,0.66556,-0.25632
-0.28859,-0.95396,-0.0817,-0.02231,0.53547,-0.24047
-0.28108,-0.95326,-0.11079,-0.05788,0.45664,-0.22841
-0.27345,-0.95326,-0.12846,0.00685,0.43799,-0.12907
-0.26476,-0.95526,-0.13179,0.13992,0.39035,0.03576
-0.25738,-0.9589,-0.11943,0.23057,0.20699,0.15488
-0.25456,-0.96218,-0.09698,0.28775,0.04868,0.24338
-0.25724,-0.96356,-0.07329,0.3252,0.00183,0.24743
-0.25853,-0.9643,-0.05731,0.37881,-0.11105,0.19632
-0.25284,-0.96602,-0.05357,0.22927,-0.18569,0.12776
-0.24153,-0.96829,-0.06384,0.13554,-0.23305,0.13357
-0.2239,-0.97179,-0.07406,-0.24859,-0.69673,0.41436
-0.20225,-0.97381,-0.10382,-0.89573,-1.04284,-0.14069
-0.19654,-0.97177,-0.13046,-0.17232,-0.8548,-0.08277
-0.20725,-0.96981,-0.1285,-0.09593,-0.29937,-0.16107
-0.21811,-0.9687,-0.11845,0.0421,0.12555,-0.28029
-0.23196,-0.96676,-0.1075,0.17079,0.484,-0.20962
-0.24873,-0.96419,-0.09201,0.05659,0.48619,-0.1516
-0.26548,-0.961,-0.07742,-0.03376,0.46829,-0.10213
-0.27722,-0.95839,-0.06797,-0.01056,0.41989,0.01505
-0.28157,-0.95741,-0.06385,0.0486,0.26327,0.20631
-0.28035,-0.9577,-0.0648,0.09239,0.12213,0.31742
-0.27242,-0.95942,-0.07269,0.09437,0.04049,0.27273
-0.26079,-0.96101,-0.09181,0.05029,0.05394,-0.0139
-0.25008,-0.96153,-0.11361,0.08965,0.13063,-0.12394
-0.24484,-0.96192,-0.12144,0.13573,0.17899,-0.0241
-0.24693,-0.963,-0.10789,0.22456,0.39614,0.38353
-0.25367,-0.96384,-0.08162,0.27584,0.57396,0.35901
-0.26289,-0.96276,-0.06304,0.1891,0.58472,-0.00356
-0.2772,-0.95883,-0.06167,0.1168,0.48676,-0.11231
-0.29344,-0.95373,-0.0654,-0.17745,-1.09835,-0.39627
-0.30244,-0.94905,-0.08843,-0.62516,-1.68135,-0.51569
-0.30593,-0.94516,-0.11434,-0.95234,-1.86722,-0.51186
-0.31176,-0.94224,-0.12239,-0.16045,-1.08501,-0.06184
-0.32058,-0.94135,-0.10526,0.01026,-0.00245,0.06088
-0.32573,-0.94312,-0.06649,0.03191,0.47206,0.12084
-0.32475,-0.94483,-0.04266,-0.08836,0.49946,-0.10616
-0.32217,-0.94537,-0.0497,-0.077,0.49829,-0.37293
-0.31645,-0.9451,-0.08142,-0.03871,0.42044,-0.39644
-0.30937,-0.94382,-0.11612,-0.06958,0.46216,-0.31373
-0.30029,-0.94396,-0.13691,0.0531,0.51421,-0.17658
-0.2888,-0.9475,-0.13722,0.19125,0.54417,0.02579
-0.27788,-0.95318,-0.11929,0.24135,0.45376,0.1463
-0.27053,-0.95815,-0.09351,0.19605,0.02364,0.1836
-0.26893,-0.96055,-0.07077,0.28559,-0.13786,0.18947
-0.27025,-0.96109,-0.05713,0.4137,-0.15517,0.29523
-0.26873,-0.96183,-0.0515,0.39581,-0.15703,0.37289
-0.2599,-0.96394,-0.05704,0.28706,-0.15358,0.33214
-0.24387,-0.96694,-0.07451,-0.1805,-0.37645,0.373
-0.22374,-0.97058,-0.08888,-0.48458,-0.60986,0.1451
-0.20424,-0.97302,-0.10723,-0.65705,-0.95677,-0.16619
-0.20322,-0.97242,-0.11441,-0.01095,-0.6872,-0.07359
-0.21443,-0.97084,-0.1071,-0.03994,-0.21602,-0.25633
-0.22522,-0.96887,-0.10274,0.14789,0.3291,-0.24797
-0.24029,-0.96581,-0.09729,0.10998,0.47708,-0.18138
-0.25841,-0.96208,-0.08723,0.02872,0.46314,-0.15351
-0.27479,-0.95843,-0.07675,-0.16596,0.4009,-0.0224
-0.28457,-0.95617,-0.06883,-0.22579,0.29179,0.07792
-0.28686,-0.95582,-0.06412,-0.22285,0.23437,0.12612
-0.28418,-0.95678,-0.06169,-0.11411,0.04911,0.16644
-0.27675,-0.95905,-0.06022,-0.02484,-0.022,0.10277
-0.26551,-0.96224,-0.05987,0.10976,-0.03262,-0.02958
-0.25385,-0.96518,-0.06301,0.21591,0.05086,-0.06488
-0.2463,-0.96678,-0.0682,0.22302,0.14577,0.03555
-0.24459,-0.96714,-0.06939,0.13237,0.30214,0.23155
-0.24622,-0.9672,-0.0624,0.19917,0.48143,0.34108
-0.24738,-0.96771,-0.0482,0.26652,0.59308,0.20705
-0.24774,-0.96816,-0.03584,0.24982,0.58795,0.10481
-0.25139,-0.96727,-0.0342,0.18712,0.16851,-0.07531
-0.25884,-0.96506,-0.04068,0.14632,-0.80563,-0.24283
-0.26387,-0.96237,-0.06485,-0.68602,-1.99553,-0.58309
-0.26606,-0.95857,-0.10168,-0.79627,-1.91933,-0.32853
-0.2784,-0.9537,-0.11372,-0.21368,-0.76518,0.06278
-0.29493,-0.95026,-0.1,0.01504,0.25466,0.14266
-0.30896,-0.94911,-0.06097,0.12591,0.59825,0.15892
-0.31275,-0.94957,-0.02196,0.11186,0.5857,-0.10625
-0.31175,-0.95009,-0.01157,0.09619,0.54488,-0.36328
-0.30919,-0.95035,-0.03491,0.03865,0.45086,-0.48625
-0.30256,-0.95011,-0.07574,-0.00434,0.4368,-0.37899
-0.29301,-0.94989,-0.10886,0.03864,0.51039,-0.14967
-0.28207,-0.95167,-0.12144,0.07404,0.56421,0.06323
-0.27352,-0.95493,-0.11529,0.09789,0.49942,0.21531
-0.2696,-0.95798,-0.09785,0.06658,0.26531,0.26951
-0.26974,-0.95972,-0.07846,0.03056,-0.00677,0.18139
-0.27201,-0.96008,-0.06511,0.15727,-0.05217,-0.00466
-0.27361,-0.96004,-0.05875,0.45325,-0.02257,-0.03311
-0.27037,-0.96112,-0.05599,0.58801,-0.03267,0.04223
-0.26171,-0.96349,-0.05648,0.27845,-0.00117,0.21397
-0.24821,-0.96656,-0.06443,0.06309,0.03629,0.15723
-0.23177,-0.96972,-0.07687,-0.09118,0.03283,0.15345
-0.21277,-0.97391,-0.07882,-0.76779,-0.82875,0.17005
-0.19453,-0.97734,-0.08342,-0.88725,-0.90088,0.04726
-0.19573,-0.97688,-0.08589,-0.53367,-0.83855,-0.03818
-0.20712,-0.97506,-0.07965,-0.01232,-0.12594,-0.48883
-0.21525,-0.97357,-0.07634,0.0935,0.06692,-0.47636
-0.22475,-0.97162,-0.07365,0.1876,0.24027,-0.39066
-0.23701,-0.96901,-0.06948,-0.10204,0.36982,-0.13827
-0.24579,-0.96696,-0.06759,-0.17949,0.38882,-0.14237
-0.2491,-0.96604,-0.06861,-0.2065,0.28911,0.16311
-0.2518,-0.96531,-0.069,-0.24474,0.06976,0.30687
-0.25745,-0.96369,-0.07079,-0.26955,-0.03506,0.28489
-0.26092,-0.96231,-0.07658,-0.18679,-0.23413,0.10483
-0.25917,-0.96228,-0.08267,0.10707,-0.09936,0.06306
-0.25616,-0.9628,-0.08598,0.2229,0.05131,0.09457
-0.25694,-0.96291,-0.08231,0.38483,0.48857,0.28008
-0.26026,-0.96314,-0.06793,0.42135,0.68743,0.17839
-0.26189,-0.96397,-0.04648,0.41347,0.73459,0.01876
-0.26377,-0.96407,-0.0314,0.22895,0.47426,-0.17505
-0.27178,-0.96194,-0.0283,0.00708,-0.26719,-0.04929
-0.28397,-0.95793,-0.04141,-0.28808,-0.86772,-0.24425
-0.29771,-0.95142,-0.07843,-0.89279,-1.66497,-0.32114
-0.31381,-0.9439,-0.10277,-0.37172,-1.3064,-0.1062
-0.33003,-0.93849,-0.10152,-0.23033,-0.82514,-0.06773
-0.34456,-0.93643,-0.06608,0.04809,0.31074,-0.02151
-0.34861,-0.93719,-0.0113,0.01137,0.48887,-0.13268
-0.34251,-0.9392,0.02379,-0.00077,0.46804,-0.28785
-0.33083,-0.9434,0.0233,0.12737,0.44764,-0.24072
-0.31502,-0.94907,-0.00473,0.1329,0.53426,-0.22342
-0.30017,-0.95271,-0.04714,0.12353,0.67967,-0.23478
-0.28912,-0.95359,-0.084,0.10964,0.74392,-0.1846
-0.28403,-0.95402,-0.09572,0.10403,0.60501,-0.0318
-0.28504,-0.95483,-0.08394,0.04841,0.32795,0.09224
-0.28739,-0.95598,-0.05911,0.12274,0.01419,0.16911
-0.28667,-0.9575,-0.03156,0.38314,-0.19588,0.27639
-0.28209,-0.95934,-0.00929,0.51556,-0.34978,0.3461
-0.27231,-0.9622,-0.00171,0.43929,-0.35721,0.19724
-0.25812,-0.96598,-0.01543,0.25226,-0.40081,0.1675
-0.24065,-0.96975,-0.04066,-0.14221,-0.81406,0.37309
-0.22341,-0.97181,-0.07523,-0.58671,-0.97108,0.28978
-0.22435,-0.96917,-0.10182,-0.14695,-0.39875,-0.15201
-0.24272,-0.96504,-0.09885,-0.12859,-0.40288,-0.15498
-0.26423,-0.96044,-0.08792,0.00597,0.02105,-0.3118
-0.281,-0.95612,-0.08279,0.19307,0.33459,-0.31777
-0.29537,-0.9521,-0.07906,0.11869,0.30943,-0.27589
-0.30457,-0.94983,-0.07112,-0.04202,0.32945,-0.12166
-0.30729,-0.94961,-0.06164,-0.10984,0.42746,0.19724
-0.30492,-0.95078,-0.05494,-0.12651,0.3529,0.23714
-0.30119,-0.95204,-0.05371,-0.12202,0.14853,0.20378
-0.29601,-0.95342,-0.05796,-0.05429,-0.00517,0.09164
-0.29062,-0.95449,-0.06685,0.01654,-0.04035,-0.01155
-0.28712,-0.9546,-0.07931,0.09469,0.05076,-0.06144
-0.28497,-0.95405,-0.09249,0.12529,0.19205,-0.08825
-0.28558,-0.953,-0.1011,0.02721,0.31721,-0.0621
-0.28873,-0.95193,-0.1022,-0.12233,0.38408,0.04709
-0.29107,-0.95166,-0.09802,-0.16106,0.4414,0.25475
-0.28968,-0.9532,-0.08649,0.09895,0.38342,0.45496
-0.2847,-0.95621,-0.06775,0.24979,0.14696,0.26082
-0.27947,-0.95866,-0.05332,0.23339,-0.21725,-0.12765
-0.27787,-0.95893,-0.05677,0.22886,-0.43561,-0.25794
-0.28114,-0.95675,-0.07466,0.23182,-1.23969,-0.39394
-0.28664,-0.95308,-0.09725,0.12035,-1.5314,-0.40954
-0.30182,-0.94698,-0.11012,-0.35125,-1.26544,-0.10045
-0.32225,-0.94023,-0.11004,-0.30815,-0.13695,-0.02234
-0.33902,-0.93537,-0.10064,-0.23374,0.37057,0.01921
-0.34986,-0.93279,-0.08651,-0.21168,0.50605,0.00415
-0.35095,-0.93335,-0.0754,-0.1052,0.54104,-0.12231
-0.3446,-0.93594,-0.07245,0.02034,0.46721,-0.19304
-0.33233,-0.93977,-0.0798,0.13371,0.41366,-0.206
-0.31474,-0.94466,-0.09241,0.23439,0.41361,-0.15983
-0.29623,-0.94951,-0.10331,0.27326,0.43786,-0.09116
-0.28294,-0.95297,-0.10852,0.22901,0.43365,-0.05493
-0.27918,-0.95439,-0.1058,0.1142,0.34646,0.00551
-0.28357,-0.95424,-0.09489,0.01747,0.1469,0.0433
-0.29104,-0.95346,-0.07873,-0.01082,-0.06098,0.04551
-0.29757,-0.95263,-0.06278,0.09647,-0.15354,0.03342
-0.30036,-0.95239,-0.05216,0.28556,-0.10747,0.12029
-0.29825,-0.95319,-0.04964,0.35275,0.02236,0.2263
-0.29256,-0.95472,-0.05389,0.31501,0.10005,0.26042
-0.28333,-0.95698,-0.06251,-0.00071,0.02407,0.20907
-0.2695,-0.9603,-0.07203,-0.17195,-0.04419,0.17548
-0.25468,-0.96401,-0.07622,-0.43261,-0.49949,0.34035
-0.24015,-0.96779,-0.07551,-0.48979,-1.16496,-0.19042
-0.22837,-0.97037,-0.07888,-0.50157,-1.16238,-0.18705
-0.22801,-0.97043,-0.07914,0.06115,-0.51103,-0.37557
-0.22982,-0.96984,-0.08112,0.23063,0.01728,-0.38448
-0.23503,-0.96812,-0.08651,0.2604,0.18083,-0.28397
-0.24755,-0.96483,-0.08836,0.08908,0.37422,-0.10137
-0.26271,-0.9613,-0.08295,-0.19861,0.46523,0.07477
-0.27573,-0.95847,-0.07274,-0.33457,0.53135,0.16521
-0.28308,-0.95705,-0.06254,-0.35678,0.49161,0.18113
-0.28356,-0.95726,-0.05694,-0.22583,0.13662,0.09623
-0.2782,-0.95882,-0.05715,-0.13214,0.09077,0.04444
-0.26897,-0.96118,-0.06151,-0.03229,0.07502,-0.00026
-0.25776,-0.9638,-0.06808,0.26809,0.28439,-0.1518
-0.24596,-0.96628,-0.07609,0.26409,0.34154,-0.17365
-0.23799,-0.9676,-0.08429,0.21805,0.37618,-0.17918
-0.23476,-0.968,-0.0886,-0.11279,0.38055,-0.06463
-0.23256,-0.96862,-0.08763,-0.11499,0.38117,-0.0656
-0.22866,-0.96972,-0.08569,-0.20385,0.37638,0.00258
-0.22358,-0.97093,-0.08538,-0.12067,0.22253,0.1265
-0.21948,-0.97193,-0.08464,-0.10307,0.14347,0.19761
-0.21756,-0.97283,-0.07907,0.00785,-0.10323,0.33081
-0.21921,-0.97307,-0.07115,0.10821,-0.30862,0.21612
-0.22677,-0.97166,-0.06668,0.13955,-0.42234,0.04789
-0.24077,-0.96806,-0.06978,0.20577,-0.77872,-0.36929
-0.25666,-0.96335,-0.07794,0.09392,-1.12566,-0.45291
-0.27118,-0.95824,-0.09072,-0.0934,-1.1723,-0.43358
-0.29019,-0.95084,-0.10809,-0.48472,-0.37611,-0.08721
-0.31108,-0.94209,-0.12523,-0.44859,0.08139,0.01621
-0.33153,-0.9338,-0.13453,-0.398,0.24044,0.04867
-0.34615,-0.92829,-0.13586,-0.27902,0.56635,0.10434
-0.35155,-0.92684,-0.13179,-0.10365,0.56492,0.04611
-0.34723,-0.92931,-0.12572,-0.00441,0.52367,-0.02394
-0.33414,-0.93461,-0.1218,0.20748,0.36441,-0.1853
-0.31672,-0.94069,-0.12161,0.23421,0.36755,-0.19449
-0.299,-0.94616,-0.124,0.21941,0.37789,-0.17477
-0.28378,-0.95043,-0.12706,0.13332,0.37363,-0.17257
-0.27301,-0.95325,-0.12948,0.06686,0.31392,-0.14455
-0.26839,-0.95459,-0.12928,0.05593,0.32027,-0.02172
-0.26947,-0.95496,-0.12419,0.18803,0.29126,0.08493
-0.27323,-0.95478,-0.11714,0.22642,0.1557,-0.08768
-0.27352,-0.95493,-0.11527,0.13895,-0.08841,-0.34715
-0.26828,-0.95568,-0.12117,-0.02391,-0.2222,-0.46757
-0.26228,-0.95609,-0.13072,-0.14292,-0.00965,-0.41103
-0.25848,-0.9563,-0.13659,-0.14242,0.15781,-0.36731
-0.25794,-0.95626,-0.13793,-0.08924,0.42626,0.50671
-0.2557,-0.95788,-0.13065,0.06117,-0.30376,0.59531
-0.23871,-0.96159,-0.13551,-0.02729,-1.18159,0.46018
-0.20902,-0.9628,-0.17119,-0.99972,-1.65808,0.07115
-0.18927,-0.96206,-0.19646,-0.47685,-1.02895,0.69536
-0.19051,-0.96595,-0.17503,-0.32037,-0.87565,0.84165
-0.201,-0.96946,-0.14045,-0.37201,0.27546,0.30552
-0.2108,-0.96923,-0.12707,-0.13816,0.57542,-0.23911
-0.2187,-0.96788,-0.12396,0.05601,0.21518,-0.36916
-0.22893,-0.96625,-0.11808,0.06936,0.03474,-0.21232
-0.23432,-0.96641,-0.10552,0.17877,0.16462,-0.10761
-0.2303,-0.96937,-0.08524,0.35652,0.29188,0.01938
-0.21786,-0.9741,-0.06038,0.41091,0.3522,0.14287
-0.20126,-0.97875,-0.039,0.3727,0.29568,0.16028
-0.19005,-0.98136,-0.02839,0.21756,0.26798,0.09864
-0.19069,-0.98114,-0.03131,-0.09656,0.25943,0.00985
-0.19722,-0.9794,-0.0431,-0.32013,0.23153,-0.02008
-0.20004,-0.97837,-0.05264,-0.2926,0.23032,0.0263
-0.19527,-0.97901,-0.05825,-0.23974,0.36765,0.00109
-0.18082,-0.98119,-0.06747,-0.21801,0.3384,-0.0077
-0.16253,-0.98343,-0.08026,-0.23101,0.11261,-0.04746
-0.14797,-0.98475,-0.09138,-0.46431,-0.14667,-0.20429
-0.14019,-0.98571,-0.09332,-0.51476,-0.2317,-0.01031
-0.13643,-0.98707,-0.08404,-0.44443,-0.36666,0.05508
-0.13272,-0.98838,-0.07396,-0.26936,-0.63903,0.51716
-0.13544,-0.9883,-0.07005,-0.13654,-0.49983,0.52974
-0.14995,-0.9861,-0.07146,-0.09885,-0.34295,0.55885
-0.17694,-0.9816,-0.0717,0.12486,0.1172,0.4626
-0.20724,-0.97555,-0.07301,0.15622,0.17693,0.20817
-0.23156,-0.96919,-0.08392,0.16042,0.10038,0.00091
-0.24492,-0.96416,-0.102,0.00485,-0.28519,-0.18308
-0.24729,-0.9617,-0.11823,-0.33046,-0.416,-0.04126
-0.24191,-0.9615,-0.13033,-0.43453,-0.37422,0.06158
-0.23823,-0.9613,-0.13836,-0.44594,-0.09336,0.25631
-0.2368,-0.96079,-0.1442,-0.29005,0.00747,0.24418
-0.23627,-0.9609,-0.14438,-0.2202,0.10019,0.22724
-0.23619,-0.9624,-0.13412,-0.05397,0.27075,0.25737
-0.23574,-0.96491,-0.11558,0.04023,0.27192,0.23348
-0.23199,-0.96769,-0.0987,0.09849,0.27789,0.14928
-0.22352,-0.9703,-0.09243,0.13646,0.29771,0.05387
-0.21336,-0.9722,-0.09643,0.14964,0.34239,0.0003
-0.20145,-0.97415,-0.10214,0.12297,0.40346,-0.00847
-0.18721,-0.97674,-0.10451,0.05439,0.3971,0.00365
-0.17294,-0.97926,-0.10553,-0.00171,0.28109,0.04816
-0.16292,-0.98108,-0.10454,0.00898,0.21841,0.08835
-0.1615,-0.98172,-0.10069,0.01222,0.0847,0.11383
-0.16633,-0.98132,-0.09666,0.03269,-0.13743,0.06904
-0.1723,-0.98013,-0.09824,-0.02129,-0.21399,-0.01248
-0.17512,-0.97838,-0.10995,-0.11352,-0.28277,-0.09768
-0.17483,-0.97627,-0.12773,-0.43178,-0.14358,-0.24449
-0.17704,-0.97404,-0.14104,-0.45135,0.01599,-0.17704
-0.18388,-0.97244,-0.14335,-0.38391,0.12914,-0.02395
-0.1916,-0.97157,-0.13906,-0.20601,-0.01833,0.0497
-0.19261,-0.97098,-0.14177,-0.105,-0.29981,0.04543
-0.18867,-0.96928,-0.15778,-0.09664,-0.50506,0.00841
-0.18887,-0.96462,-0.18394,0.14287,-0.39583,0.47595
-0.19167,-0.9622,-0.19346,0.29999,-0.32077,0.68067
-0.18614,-0.96798,-0.16841,0.47302,-0.42723,0.79257
-0.17852,-0.97442,-0.13646,0.06272,-0.15662,0.48551
-0.17647,-0.9758,-0.12911,-0.04132,0.05708,0.4067
-0.18688,-0.97279,-0.13695,-0.22692,0.21143,0.37607
-0.20007,-0.97065,-0.13339,-0.10647,0.10389,0.15875
-0.20899,-0.97083,-0.11745,0.00143,0.10442,0.14521
-0.21127,-0.97198,-0.103,0.17799,0.09373,0.13223
-0.20378,-0.97446,-0.09432,0.30196,-0.00497,0.0906
-0.19171,-0.97714,-0.09184,0.32358,-0.00251,0.02458
-0.18368,-0.97854,-0.09338,0.18659,0.17812,0.05731
-0.18458,-0.97815,-0.09556,-0.00039,0.19178,0.11161
-0.19247,-0.97644,-0.09752,-0.09406,0.18286,0.13397
-0.20381,-0.97393,-0.09956,-0.28728,0.14016,0.17955
-0.21461,-0.97148,-0.10076,-0.24947,0.16939,0.18383
-0.22121,-0.96998,-0.10096,-0.19217,0.18251,0.17406
-0.22339,-0.96942,-0.10158,-0.01776,0.24595,0.04275
-0.22409,-0.96897,-0.10428,0.07606,0.26895,-0.06149
-0.22568,-0.96805,-0.1092,0.10813,0.27129,-0.09801
-0.22854,-0.96663,-0.11572,0.08164,0.23596,-0.10766
-0.23092,-0.96517,-0.12294,-0.02575,0.18486,-0.03211
-0.23176,-0.96413,-0.12938,-0.07492,0.17219,0.02786
-0.23089,-0.96376,-0.13361,-0.12533,0.14511,0.09093
-0.22947,-0.96349,-0.13788,-0.1533,0.149,0.01811
-0.22892,-0.96261,-0.14479,-0.16228,0.14585,-0.01241
-0.23053,-0.96121,-0.15136,-0.18678,0.15085,0.0035
-0.23353,-0.96011,-0.15373,-0.2632,0.17947,0.02954
-0.23583,-0.95993,-0.15137,-0.28195,0.18551,0.01444
-0.23559,-0.96031,-0.1493,-0.34984,0.16243,-0.06467
-0.23285,-0.9606,-0.15168,-0.39509,0.14203,-0.06792
-0.22965,-0.96072,-0.15575,-0.34129,0.15442,-0.04518
-0.22602,-0.96132,-0.15734,-0.19717,0.23688,0.12358
-0.22222,-0.96297,-0.15263,0.03793,0.43949,0.45079
-0.21987,-0.96608,-0.13542,0.20365,0.41433,0.57358
-0.21753,-0.96969,-0.11122,0.57524,-0.04827,0.63902
-0.21203,-0.97286,-0.09258,0.79916,-0.39385,0.20017
-0.20819,-0.97389,-0.0905,0.7584,-0.60193,-0.03743
-0.21283,-0.97069,-0.11156,0.43449,-1.49185,-0.32796
-0.23498,-0.96136,-0.14335,0.07136,-1.70436,-0.32567
-0.27202,-0.94807,-0.16478,-0.1848,-1.30936,-0.03964
-0.31422,-0.93468,-0.16625,-0.50436,0.02916,0.17368
-0.34963,-0.92381,-0.15597,-0.5364,0.43577,0.13187
-0.36771,-0.91949,-0.139,-0.37649,0.59466,0.1012
-0.36893,-0.92195,-0.11786,-0.15514,0.55598,0.05699
-0.36053,-0.92705,-0.10287,-0.05425,0.42988,-0.07792
-0.34635,-0.93242,-0.10303,0.02607,0.31708,-0.14434
-0.32707,-0.93805,-0.11439,0.1549,0.26911,-0.15218
-0.30525,-0.94313,-0.1316,0.27056,0.24604,-0.15128
-0.28448,-0.94714,-0.14829,0.26117,0.30012,-0.1532
-0.26911,-0.94969,-0.16016,0.22274,0.3772,-0.12305
-0.26282,-0.95013,-0.16782,0.18865,0.38508,-0.06997
-0.2674,-0.94788,-0.1732,0.1777,0.37734,-0.02983
-0.2808,-0.94298,-0.17868,0.19288,0.39003,0.01187
-0.29789,-0.93641,-0.18544,0.20977,0.40902,0.02093
-0.3099,-0.93119,-0.19193,0.11658,0.22268,0.02962
-0.31086,-0.93065,-0.19296,0.03652,0.08547,0.04854
-0.30288,-0.93433,-0.18782,0.10122,-0.10073,0.19872
-0.29182,-0.93859,-0.18405,0.19183,-0.06101,0.23381
-0.28028,-0.94254,-0.18179,0.26261,-0.02266,0.29623
-0.26743,-0.9476,-0.17471,0.24457,-0.10687,0.37303
-0.25234,-0.95254,-0.17021,0.12089,-0.1541,0.3494
-0.23515,-0.9569,-0.17038,-0.2873,-0.50761,0.38912
-0.2128,-0.9619,-0.17161,-0.64006,-1.03899,-0.27576
-0.19704,-0.96281,-0.18481,-0.45086,-1.16252,-0.3821
-0.20528,-0.96078,-0.18643,-0.04666,-0.30799,-0.29118
-0.21856,-0.95956,-0.1774,-0.06516,0.19353,-0.23578
-0.23273,-0.95739,-0.17096,0.04067,0.33681,-0.16874
-0.24893,-0.95395,-0.16733,-0.1238,0.58371,0.01829
-0.26257,-0.95103,-0.16304,-0.37187,0.45565,0.02747
-0.27117,-0.94902,-0.16069,-0.42171,0.35533,0.0451
-0.27495,-0.94762,-0.16251,-0.38148,0.12344,0.20359
-0.2746,-0.94738,-0.16447,-0.29705,-0.02413,0.13488
-0.26729,-0.94918,-0.16615,-0.21674,-0.10877,0.07913
-0.25459,-0.95233,-0.16807,0.21095,-0.2741,-0.01598
-0.24269,-0.95514,-0.1697,0.42061,-0.0829,0.07193
-0.23778,-0.95671,-0.1678,0.47854,0.06152,0.18197
-0.242,-0.95731,-0.15805,0.41877,0.52736,0.36006
-0.25132,-0.9576,-0.14079,0.4083,0.76933,0.27337
-0.26071,-0.9574,-0.12412,0.38587,0.85602,0.17264
-0.26947,-0.95574,-0.11809,0.24167,0.6219,0.02998
-0.27909,-0.95252,-0.12167,0.16037,0.01578,0.07489
-0.28416,-0.94967,-0.13182,-0.08248,-1.22721,-0.25713
-0.27597,-0.94809,-0.15798,-0.83159,-2.06154,-0.49606
-0.26842,-0.94667,-0.17819,-0.3841,-1.4232,-0.08897
-0.27234,-0.94448,-0.18378,-0.04692,-0.3623,0.09532
-0.28604,-0.94296,-0.17026,0.03826,0.43576,0.06596
-0.30418,-0.94202,-0.14165,-0.18889,0.66669,-0.02696
-0.31686,-0.9398,-0.1279,-0.25448,0.64342,-0.21126
-0.32436,-0.93631,-0.13453,-0.13062,0.66025,-0.21555
-0.32116,-0.93502,-0.15026,-0.01655,0.54455,-0.17319
-0.31004,-0.9362,-0.16548,0.06181,0.44681,-0.12325
-0.29384,-0.93947,-0.17617,0.15259,0.36249,-0.05449
-0.27738,-0.94399,-0.17869,0.21885,0.15969,0.0142
-0.26515,-0.94901,-0.17047,0.28197,-0.08401,0.06306
-0.26197,-0.95303,-0.15196,0.36414,-0.16736,0.1809
-0.26681,-0.9551,-0.12881,0.40832,-0.12092,0.36591
-0.27252,-0.95615,-0.1072,0.3385,-0.02288,0.4911
-0.26724,-0.95871,-0.09721,0.14241,-0.12419,0.41948
-0.25166,-0.96221,-0.10397,-0.18705,-0.38664,0.2084
-0.23378,-0.96484,-0.12006,-0.33094,-0.47698,0.20446
-0.22353,-0.96458,-0.14006,-0.45041,-0.58724,0.10263
-0.22192,-0.96202,-0.15893,-0.13691,-0.36638,-0.19207
-0.23239,-0.9591,-0.1616,-0.05597,-0.03895,-0.13958
-0.24899,-0.9563,-0.15321,0.01757,0.13744,-0.11539
-0.26864,-0.95291,-0.14066,0.0265,0.46487,-0.00898
-0.28938,-0.94857,-0.12832,-0.10038,0.40795,-0.04441
-0.30592,-0.94428,-0.12142,-0.22879,0.32802,-0.03399
-0.31486,-0.94155,-0.11968,-0.32634,0.19413,0.18053
-0.31722,-0.94053,-0.12152,-0.2682,0.02514,0.22543
-0.31227,-0.94168,-0.12533,-0.15198,-0.10072,0.19843
-0.30012,-0.94487,-0.13087,0.06204,-0.04463,0.17115
-0.28526,-0.94819,-0.1398,0.18512,0.04943,0.03617
-0.27518,-0.94984,-0.14853,0.19905,0.15742,0.01613
-0.27357,-0.94998,-0.1506,0.23966,0.33038,0.10729
-0.27854,-0.94968,-0.14322,0.31652,0.41323,0.17567
-0.28549,-0.95003,-0.12617,0.3813,0.58509,0.1634
-0.29135,-0.95049,-0.10807,0.28679,0.46307,0.0832
-0.29679,-0.94961,-0.10076,0.23054,0.3211,0.02668
-0.30287,-0.94686,-0.10826,0.06199,-0.67576,-0.17841
-0.30522,-0.94251,-0.13604,-0.46625,-1.6158,-0.52825
-0.3059,-0.9373,-0.16695,-0.70989,-1.7915,-0.40258
-0.31489,-0.93423,-0.16746,-0.09078,-0.72844,0.06411
-0.32881,-0.9325,-0.14937,0.05918,0.07798,0.12339
-0.3405,-0.93228,-0.12206,0.05283,0.35437,0.08794
-0.341,-0.93441,-0.10288,-0.06897,0.55831,-0.17124
-0.33663,-0.936,-0.10288,-0.06584,0.60836,-0.29264
-0.33038,-0.93642,-0.11817,-0.06719,0.55624,-0.26082
-0.32115,-0.93676,-0.13904,-0.0549,0.53309,-0.20491
-0.31008,-0.93753,-0.15773,0.03181,0.51303,-0.1535
-0.29935,-0.93913,-0.16854,0.12148,0.46307,-0.05143
-0.29283,-0.94149,-0.16684,0.07863,0.22803,-0.0087
-0.29127,-0.94444,-0.15225,-0.01015,-0.16994,0.04868
-0.29357,-0.947,-0.13037,0.08414,-0.33072,0.21842
-0.29852,-0.94819,-0.10867,0.18645,-0.28951,0.25793
-0.29989,-0.94934,-0.09379,0.45627,-0.08268,0.41767
-0.29267,-0.95229,-0.08653,0.4668,-0.02423,0.3975
-0.27801,-0.95627,-0.09079,0.17808,0.11968,0.21594
-0.25934,-0.96005,-0.10502,0.03948,-0.01483,0.23188
-0.24095,-0.96305,-0.1203,-0.32482,-0.44133,0.12328
-0.22883,-0.96309,-0.14168,-0.52282,-0.96856,-0.21455
-0.23475,-0.95958,-0.15518,-0.21595,-0.77322,-0.23624
-0.25015,-0.95668,-0.14892,-0.25342,-0.10381,-0.25217
-0.2638,-0.95507,-0.13503,-0.12522,0.19958,-0.25264
-0.27454,-0.95412,-0.11947,-0.05174,0.32466,-0.0745
-0.27935,-0.95453,-0.10405,-0.11403,0.34386,0.02604
-0.27925,-0.95557,-0.0943,-0.09781,0.35946,0.09943
-0.27616,-0.9566,-0.09295,-0.03141,0.29185,0.14356
-0.27199,-0.95731,-0.09777,-0.06532,0.15089,0.10137
-0.26627,-0.95798,-0.10659,-0.0734,0.01691,0.0245
-0.25772,-0.9591,-0.11699,-0.00748,-0.11887,-0.01137
-0.24856,-0.96016,-0.12763,0.10513,-0.12217,-0.01371
-0.24344,-0.9605,-0.13473,0.30024,0.15682,0.13506
-0.24552,-0.96025,-0.13274,0.26313,0.44452,0.27084
-0.25275,-0.96036,-0.11754,0.2945,0.66831,0.29953
-0.26014,-0.96091,-0.09465,0.27688,0.76209,0.14202
-0.26372,-0.96139,-0.07858,0.22137,0.59077,-0.01658
-0.26628,-0.9607,-0.07834,0.10853,0.19341,-0.0311
-0.27047,-0.95842,-0.09094,-3e-05,-0.60382,-0.05639
-0.27521,-0.95482,-0.11209,-0.5247,-1.45102,-0.37596
-0.27954,-0.94998,-0.13923,-0.6904,-1.62644,-0.38558
-0.2876,-0.94476,-0.15719,-0.22078,-0.87487,0.0168
-0.29545,-0.94196,-0.15937,-0.0271,-0.22024,0.02799
-0.30713,-0.9413,-0.14003,0.01597,0.2842,-0.03879
-0.31611,-0.94206,-0.11217,-0.0517,0.5511,-0.15062
-0.32016,-0.94212,-0.09947,-0.01524,0.60882,-0.24919
-0.32085,-0.94096,-0.10783,-0.00622,0.51733,-0.24177
-0.3177,-0.93949,-0.12815,-0.0125,0.51808,-0.16468
-0.3104,-0.93936,-0.14576,0.07505,0.5306,-0.08637
-0.30186,-0.94092,-0.15345,0.15774,0.43101,0.00438
-0.29463,-0.94391,-0.14904,0.15132,0.13294,0.06781
-0.29107,-0.94732,-0.13362,0.15366,-0.16976,0.13251
-0.29382,-0.9491,-0.11339,0.25821,-0.292,0.23551
-0.29959,-0.94932,-0.09501,0.36656,-0.28704,0.30749
-0.30005,-0.95003,-0.08606,0.36009,-0.21318,0.33602
-0.2926,-0.95179,-0.09197,0.1913,-0.01332,0.2893
-0.28281,-0.95304,-0.10826,-0.0833,0.15887,0.26549
-0.27146,-0.95455,-0.12303,-0.42964,-0.25175,0.37463
-0.25983,-0.95662,-0.13172,-0.57631,-0.45951,0.24451
-0.25033,-0.95842,-0.13696,-0.6422,-0.5251,-0.04121
-0.24411,-0.95994,-0.13749,-0.003,-0.12894,-0.22349
-0.24326,-0.96082,-0.13284,-0.00386,-0.12807,-0.22814
-0.24476,-0.96118,-0.12735,0.15902,0.14288,-0.23073
-0.25079,-0.96031,-0.12201,0.01456,0.29938,-0.09811
-0.26009,-0.95853,-0.11643,0.02385,0.2976,-0.10369
-0.26746,-0.95708,-0.1116,-0.12917,0.28688,0.09411
-0.27032,-0.95642,-0.11037,-0.16878,-0.00919,0.10157
-0.26942,-0.9561,-0.11524,-0.17721,-0.08944,0.0772
-0.26479,-0.95564,-0.12897,-0.169,-0.16898,0.04053
-0.25518,-0.95524,-0.14964,-0.07901,-0.0966,0.01965
-0.24441,-0.95504,-0.16782,0.08092,0.03737,0.02335
-0.23723,-0.95552,-0.17522,0.11838,0.21369,0.09447
-0.23506,-0.95695,-0.17026,0.1582,0.42078,0.31525
-0.23497,-0.96017,-0.15119,0.23023,0.53764,0.37037
-0.23495,-0.96399,-0.1245,0.24046,0.53847,0.233
-0.23721,-0.96555,-0.10691,0.14723,0.39071,0.00158
-0.24526,-0.96376,-0.10488,0.12605,0.13908,-0.19758
-0.25583,-0.96033,-0.11096,0.26131,-0.47707,-0.14164
-0.26072,-0.95714,-0.1261,-0.09227,-1.30885,-0.35425
-0.26577,-0.95317,-0.14431,-0.33433,-1.48378,-0.30198
-0.27459,-0.94937,-0.15262,-0.10032,-0.42109,0.06488
-0.28282,-0.94804,-0.14569,-0.03894,-0.08274,0.08547
-0.28908,-0.94928,-0.12363,-0.01999,0.5846,0.03939
-0.29436,-0.95014,-0.10282,-0.08636,0.7129,-0.09043
-0.30059,-0.94847,-0.10017,-0.10406,0.61989,-0.18561
-0.30463,-0.9455,-0.11502,-0.10966,0.46388,-0.17784
-0.3042,-0.94327,-0.13302,-0.10515,0.4503,-0.14335
-0.29833,-0.9436,-0.14353,0.03287,0.45532,-0.08596
-0.28868,-0.94689,-0.1416,0.14485,0.32946,-0.00676
-0.27719,-0.95251,-0.12602,0.15777,0.00535,0.04964
-0.26739,-0.95782,-0.1052,0.26707,-0.24845,0.17063
-0.26291,-0.96115,-0.08404,0.38001,-0.351,0.30583
-0.2602,-0.96322,-0.06696,0.3951,-0.2659,0.41413
-0.25386,-0.96525,-0.06191,0.27257,-0.11211,0.3664
-0.24543,-0.96667,-0.07277,0.00583,0.01509,0.22187
-0.23714,-0.96733,-0.08955,-0.26195,-0.11419,0.20387
-0.23008,-0.96725,-0.10714,-0.60976,-0.6176,0.12379
-0.22459,-0.96661,-0.12333,-0.74343,-0.78243,-0.07276
-0.22314,-0.96632,-0.12819,-0.22755,-0.34777,-0.14332
-0.22603,-0.96667,-0.12021,-0.02732,-0.00829,-0.16009
-0.22689,-0.96791,-0.10795,0.07898,0.1167,-0.21452
-0.2305,-0.96869,-0.09218,0.24637,0.39659,-0.14028
-0.23906,-0.96804,-0.07579,0.13764,0.41085,-0.06906
-0.24894,-0.96617,-0.06735,0.05465,0.35011,-0.04088
-0.25511,-0.96426,-0.07153,-0.11893,0.14286,0.05829
-0.25739,-0.96279,-0.08235,-0.1513,0.08174,0.1083
-0.25501,-0.96249,-0.09254,-0.17423,0.05371,0.14564
-0.24646,-0.96389,-0.10082,-0.14132,0.01963,0.1132
-0.23409,-0.96585,-0.11107,-0.03082,0.06132,-0.03539
-0.22289,-0.96707,-0.1228,0.03048,0.11371,-0.10713
-0.21712,-0.96714,-0.13226,0.05838,0.22329,-0.06193
-0.21904,-0.96653,-0.13355,0.06394,0.3704,0.16585
-0.22455,-0.96688,-0.12127,0.11567,0.39868,0.30341
-0.22747,-0.96881,-0.09825,0.20024,0.37941,0.45171
-0.22614,-0.97101,-0.07741,0.09377,0.01891,0.0144
-0.22545,-0.97137,-0.07483,0.04737,-0.1377,-0.1107
-0.22892,-0.96924,-0.0903,0.03434,-0.30377,-0.162
-0.23654,-0.96556,-0.1083,0.01338,-0.99173,-0.1068
-0.24577,-0.96203,-0.11867,0.02261,-0.99526,-0.09644
-0.2586,-0.95836,-0.12106,-0.27718,-0.70317,-0.03427
-0.2691,-0.9558,-0.11841,-0.23919,-0.18916,-0.05082
-0.27762,-0.95463,-0.10769,-0.13443,0.18066,-0.03771
-0.28441,-0.95428,-0.09197,-0.08291,0.43838,-0.0401
-0.28653,-0.95456,-0.08191,-0.0012,0.46042,-0.10355
-0.28308,-0.95538,-0.08425,0.07477,0.3311,-0.18972
-0.27429,-0.9568,-0.09638,0.10656,0.24327,-0.22752
-0.26126,-0.95889,-0.11074,0.12985,0.27263,-0.18093
-0.24905,-0.96088,-0.12115,0.11435,0.30383,-0.124
-0.24184,-0.96248,-0.12301,0.09867,0.30311,-0.07286
-0.24,-0.96395,-0.11481,-0.04088,0.11578,0.0511
-0.24244,-0.96509,-0.09907,-0.05401,0.03377,0.04049
-0.24765,-0.96534,-0.08237,-0.04762,-0.04451,0.02996
-0.25187,-0.96506,-0.07218,0.11322,-0.05577,0.06219
-0.24939,-0.96573,-0.07182,0.16768,-0.04535,0.10702
-0.23808,-0.96813,-0.07774,0.16398,-0.19115,0.12526
-0.22261,-0.97095,-0.08767,-0.01663,-0.22375,0.15156
-0.20651,-0.97343,-0.09894,-0.16106,-0.02877,0.20355
-0.19264,-0.97555,-0.10572,-0.14652,0.00609,0.16992
-0.18544,-0.97667,-0.10827,-0.175,-0.27702,0.23659
-0.18326,-0.97672,-0.11148,-0.25927,-0.47041,0.20675
-0.18216,-0.97613,-0.1182,-0.29027,-0.72197,-0.11376
-0.18693,-0.97479,-0.12177,-0.02853,-0.30862,-0.257
-0.19652,-0.97273,-0.12313,0.03455,-0.19261,-0.33063
-0.20651,-0.97023,-0.12646,0.20387,0.24848,-0.28866
-0.21573,-0.96783,-0.12942,0.19995,0.44606,-0.12915
-0.22337,-0.96597,-0.13039,0.14391,0.48333,-0.03846
-0.22855,-0.96494,-0.129,-0.12145,0.46256,0.12279
-0.23089,-0.96476,-0.12613,-0.3004,0.37845,0.13451
-0.22855,-0.96553,-0.12452,-0.37193,0.32863,0.10757
-0.21984,-0.96731,-0.12638,-0.45202,0.22238,-0.0146
-0.20455,-0.96998,-0.13149,-0.38714,0.20176,-0.08381
-0.18479,-0.97308,-0.13768,-0.2453,0.21429,-0.17465
-0.16436,-0.97609,-0.14222,-0.09813,0.25493,-0.17112
-0.14664,-0.9789,-0.14229,-0.08664,0.28418,-0.09752
-0.13296,-0.98152,-0.13761,-0.26157,0.26088,-0.05096
-0.12253,-0.98387,-0.13028,-0.44323,0.2641,-0.0177
-0.11665,-0.98543,-0.12373,-0.44774,0.20433,-0.06112
-0.11672,-0.98605,-0.1186,-0.41668,0.20547,-0.14948
-0.12015,-0.98642,-0.11194,-0.39398,0.23828,-0.2117
-0.12266,-0.9875,-0.09898,0.01939,-0.04853,0.25235
-0.12224,-0.98969,-0.07452,0.01897,-0.04633,0.22789
-0.11835,-0.99178,-0.04857,0.17113,-0.62269,0.8524
-0.11404,-0.99272,-0.03856,0.26342,-0.55678,0.7017
-0.1218,-0.99143,-0.04719,0.39246,-0.62367,0.67674
-0.15092,-0.98596,-0.07142,0.12075,-0.80774,0.17843
-0.18792,-0.97635,-0.1069,-0.04882,-1.28096,-0.31101
-0.22092,-0.96586,-0.13529,-0.39399,-1.1175,-0.2323
-0.24596,-0.95758,-0.1501,-0.69895,-0.38116,0.17731
-0.26786,-0.95024,-0.15905,-0.6535,0.20808,0.2603
-0.2848,-0.94519,-0.15967,-0.63747,0.50829,0.21591
-0.28854,-0.94611,-0.147,-0.39249,0.63329,0.22741
-0.27764,-0.95228,-0.12678,-0.1004,0.62287,0.2228
-0.25689,-0.9607,-0.10518,0.03382,0.55822,0.21966
-0.23128,-0.96877,-0.08938,0.27405,0.30338,0.21357
-0.20631,-0.97496,-0.08301,0.35717,-0.03443,0.02217
-0.18945,-0.97806,-0.08661,0.33446,-0.0782,-0.03056
-0.18039,-0.97883,-0.09666,0.29874,-0.0498,-0.06038
-0.17291,-0.97928,-0.10539,0.13911,0.29157,-0.00891
-0.16639,-0.9803,-0.10636,0.1242,0.31677,0.03793
-0.16224,-0.98169,-0.09973,-0.02198,0.2665,0.08693
-0.1595,-0.98262,-0.09494,-0.14983,0.00032,-0.03234
-0.15486,-0.98274,-0.10119,-0.18488,-0.13544,-0.11428
-0.14679,-0.98162,-0.12196,-0.24011,-0.22865,-0.23239
-0.13733,-0.9799,-0.14464,-0.29082,-0.01262,-0.17214
-0.13165,-0.97965,-0.15148,-0.22557,0.03487,0.00708
-0.13352,-0.98047,-0.1444,-0.19659,0.07121,0.19718
-0.13432,-0.98028,-0.14492,-0.21871,-0.42742,0.11186
-0.12957,-0.97828,-0.16178,-0.34225,-0.54987,0.10764
-0.12593,-0.97479,-0.18415,-0.21163,-0.4154,0.53605
-0.12009,-0.97582,-0.18263,0.03252,-0.3759,0.84046
-0.10493,-0.9829,-0.15126,0.09075,-0.51893,0.83771
-0.09114,-0.9882,-0.12307,0.05952,-0.19855,0.53319
-0.09173,-0.98895,-0.1164,-0.05414,0.20874,0.22553
-0.10584,-0.98794,-0.113,-0.2023,0.23637,0.07988
-0.12262,-0.98715,-0.10238,-0.14299,0.1812,0.03463
-0.13776,-0.98658,-0.08759,-0.02022,0.20407,0.12265
-0.14675,-0.98647,-0.07308,0.01477,0.20194,0.12587
-0.14602,-0.98755,-0.05846,0.07757,0.09401,0.10331
-0.1384,-0.98937,-0.04448,0.10222,0.07429,0.06589
-0.13067,-0.99089,-0.03241,0.08259,0.07941,0.01846
-0.12831,-0.99145,-0.02354,-0.00635,0.10212,0.02319
-0.1325,-0.99103,-0.01727,-0.16788,0.16017,0.1
-0.14123,-0.98991,-0.01146,-0.32557,0.21267,0.15181
-0.14975,-0.9887,-0.00589,-0.35086,0.24949,0.12686
-0.15456,-0.98798,-0.00088,-0.25289,0.28,0.05693
-0.1561,-0.98773,0.00311,-0.16818,0.34985,-0.04652
-0.15408,-0.98804,0.005,-0.09558,0.35521,-0.10425
-0.14998,-0.98868,0.00316,-0.095,0.2394,-0.17381
-0.14624,-0.98924,-0.00268,-0.12274,0.04387,-0.19683
-0.14531,-0.98935,-0.0082,-0.16821,-0.01367,-0.15449
-0.14637,-0.98918,-0.00943,-0.24783,-0.04939,-0.02456
-0.14794,-0.98897,-0.00644,-0.31577,-0.07144,0.01559
-0.15092,-0.98853,-0.00417,-0.50984,0.0024,0.01284
-0.15559,-0.98781,-0.00215,-0.52558,-0.05198,0.01978
-0.16087,-0.98697,0.00057,-0.52274,-0.10215,-0.05237
-0.16691,-0.98593,0.00853,-0.34732,-0.14793,0.24428
-0.17436,-0.98435,0.02531,-0.12271,-0.10209,0.50389
-0.18481,-0.98181,0.04353,0.08032,-0.10836,0.54723
-0.2039,-0.97745,0.05475,0.25209,-0.09978,0.50299
-0.2331,-0.9708,0.05661,0.31005,-0.14982,0.39745
-0.26611,-0.96277,0.04748,0.31538,-0.23378,0.34155
-0.29603,-0.95476,0.02797,0.33632,-0.39486,0.2827
-0.31897,-0.94775,0.00316,-0.01074,-0.69246,-0.12859
-0.33288,-0.94289,-0.01181,-0.11077,-0.54115,-0.08577
-0.33815,-0.94098,-0.01404,-0.11757,-0.34625,-0.02632
-0.33991,-0.94035,-0.01437,0.00317,0.19575,0.04516
-0.33871,-0.94072,-0.01787,-0.02506,0.257,0.038
-0.33537,-0.94185,-0.02102,-0.06063,0.31027,0.03947
-0.33139,-0.9433,-0.01864,0.09035,0.18304,0.13339
-0.32807,-0.94456,-0.01259,0.09702,0.12375,0.09724
-0.32349,-0.94615,-0.01202,0.0782,0.07691,0.02774
-0.31685,-0.94822,-0.02176,0.0181,0.13799,-0.27043
-0.30909,-0.95026,-0.03827,0.06318,0.19425,-0.27465
-0.3024,-0.95156,-0.05556,0.1251,0.36149,-0.17446
-0.29889,-0.95175,-0.06956,0.08728,0.50897,-0.0943
-0.29844,-0.95118,-0.07859,0.04685,0.61345,-0.05131
-0.2997,-0.95027,-0.08455,0.02221,0.61599,-0.03827
-0.3022,-0.94865,-0.09349,0.02626,0.57047,0.00446
-0.3052,-0.94625,-0.10702,0.02871,0.54853,0.03225
-0.30743,-0.94379,-0.12141,0.04584,0.37479,0.00222
-0.30749,-0.94199,-0.13453,0.05969,0.17397,-0.08933
-0.30522,-0.94086,-0.14699,0.05116,0.05616,-0.11319
-0.30296,-0.93973,-0.1585,0.09445,-0.09773,-0.10922
-0.30241,-0.93874,-0.16524,0.21621,-0.06791,-0.07811
-0.30425,-0.93742,-0.16928,0.27212,-0.02222,-0.05153
-0.30781,-0.93515,-0.17531,0.37896,0.29679,-0.02568
-0.31239,-0.93231,-0.18224,0.35758,0.5653,0.14998
-0.31686,-0.93092,-0.1816,0.35313,0.63321,0.32498
-0.31441,-0.93361,-0.17181,0.07767,-0.33943,0.56679
-0.3,-0.94002,-0.16237,-0.88243,-1.62094,0.61303
-0.26849,-0.94475,-0.18802,-1.65451,-2.10451,0.33863
-0.24936,-0.94712,-0.20191,-0.36702,-1.44748,0.42911
-0.24692,-0.95361,-0.17217,0.01873,-0.16161,0.03918
-0.25137,-0.9569,-0.14544,0.2638,0.29056,-0.22305
-0.25718,-0.95666,-0.13657,0.41875,0.4219,-0.39348
-0.26402,-0.95477,-0.13675,0.15229,0.34987,-0.32347
-0.2688,-0.95269,-0.14183,-0.339,0.08956,-0.11828
-0.26616,-0.95296,-0.14499,-0.46366,0.0004,0.01474
-0.25837,-0.95597,-0.13913,-0.38462,0.05264,0.20602
-0.25013,-0.96001,-0.12574,-0.24102,0.05878,0.30494
-0.24449,-0.96274,-0.11555,-0.18427,0.03481,0.2542
-0.24067,-0.96385,-0.11434,-0.20652,0.10607,0.06527
-0.2383,-0.96438,-0.1148,-0.16962,0.26888,-0.0034
-0.23692,-0.96575,-0.10578,-0.11291,0.46917,0.03167
-0.23554,-0.96798,-0.08676,-0.03895,0.61089,0.054
-0.23391,-0.97005,-0.06538,0.00364,0.65555,0.02756
-0.23046,-0.97159,-0.05386,0.09284,0.55401,-0.01838
-0.2257,-0.97252,-0.0571,0.10443,0.34378,-0.09791
-0.22207,-0.97268,-0.0676,0.07529,0.15435,-0.11305
-0.21996,-0.97262,-0.07496,-0.04709,0.03977,-0.0718
-0.21977,-0.97253,-0.07673,-0.18968,0.01848,0.00695
-0.22055,-0.97244,-0.07557,-0.25817,0.0258,0.04554
-0.22215,-0.97227,-0.07306,-0.2126,0.03904,0.21174
-0.22348,-0.97251,-0.06538,-0.05488,0.16687,0.43117
-0.22391,-0.97331,-0.05012,0.18975,0.26734,0.4958
-0.22527,-0.97369,-0.03421,0.36001,0.2283,0.33604
-0.23074,-0.97253,-0.03045,0.29811,-0.0656,-0.26603
-0.24009,-0.96976,-0.04375,0.2732,-0.24602,-0.31297
-0.25103,-0.96562,-0.06742,0.28074,-0.51556,-0.27613
-0.26352,-0.96004,-0.09424,-0.18874,-1.78467,-0.27107
-0.29044,-0.95107,-0.10538,-0.72271,-0.95544,-0.05593
-0.3152,-0.94369,-0.10044,-0.36101,-0.06277,-0.01782
-0.3344,-0.93909,-0.07927,-0.09951,0.55839,0.04967
-0.34194,-0.93812,-0.05472,-0.06495,0.74371,0.01665
-0.33921,-0.9396,-0.0455,-0.07877,0.56668,-0.16026
-0.33177,-0.9416,-0.05752,-0.04229,0.30959,-0.29287
-0.31963,-0.94393,-0.08255,0.1262,0.18525,-0.21202
-0.30359,-0.94701,-0.10482,0.15686,0.23344,-0.16185
-0.28891,-0.94985,-0.11964,0.23527,0.26485,-0.04549
-0.28262,-0.95084,-0.12654,0.18755,0.25692,0.00999
-0.28945,-0.94925,-0.12302,0.05101,0.17999,0.03778
-0.30305,-0.94668,-0.10934,0.00239,0.04952,0.05286
-0.31393,-0.94498,-0.09189,0.05966,0.03264,0.02277
-0.31683,-0.94512,-0.07976,0.36842,0.05576,0.1121
-0.31026,-0.94773,-0.07444,0.43311,0.06963,0.28036
-0.29793,-0.9518,-0.07288,0.39537,0.10737,0.35533
-0.27959,-0.95692,-0.07827,0.02811,0.03518,0.31942
-0.25684,-0.96204,-0.09218,-0.22302,-0.18226,0.30444
-0.23925,-0.96545,-0.1032,-0.32124,-0.33615,0.30592
-0.23329,-0.96635,-0.10829,-0.62262,-0.79116,-0.21716
-0.23597,-0.96478,-0.11625,-0.31401,-0.69271,-0.49311
-0.24256,-0.9632,-0.11573,-0.19883,-0.42094,-0.42246
-0.2478,-0.96335,-0.10271,-0.03215,0.18557,-0.24429
-0.25042,-0.96436,-0.08543,0.05306,0.29607,-0.1837
-0.25013,-0.96546,-0.07293,0.04529,0.27881,-0.19901
-0.24886,-0.96584,-0.07222,-0.04644,0.14432,-0.15956
-0.24954,-0.96485,-0.0823,-0.0964,-0.0273,-0.07364
-0.25143,-0.96336,-0.09329,-0.18284,-0.17674,-0.00732
-0.25101,-0.96282,-0.0998,-0.26881,-0.22982,0.04909
-0.24731,-0.96366,-0.10095,0.02339,-0.10524,0.2033
-0.24408,-0.96484,-0.09743,0.14708,-0.02283,0.22156
-0.24539,-0.96529,-0.08934,0.24986,0.25161,0.2552
-0.25162,-0.9648,-0.07641,0.30939,0.5647,0.24716
-0.26172,-0.96302,-0.06383,0.31215,0.70394,0.17631
-0.27331,-0.96027,-0.05634,0.35085,1.06406,-0.00128
-0.28304,-0.95744,-0.05643,0.41811,1.05099,-0.06167
-0.28697,-0.95606,-0.05992,0.40915,0.94869,0.02701
-0.28372,-0.95698,-0.06058,0.31557,0.04393,0.15812
-0.27397,-0.95907,-0.07148,-0.76024,-0.89431,-0.64455
-0.25929,-0.96142,-0.09184,-0.98256,-1.17065,-0.75162
-0.25101,-0.96296,-0.09839,-0.3201,-1.5107,-0.25222
-0.25751,-0.9626,-0.08413,-0.04896,-0.68016,0.16199
-0.26981,-0.96103,-0.06004,0.01975,-0.36877,-0.02386
-0.28548,-0.95758,-0.03905,0.07644,0.11463,-0.19751
-0.30139,-0.95288,-0.0341,0.05445,0.6328,-0.18312
-0.30881,-0.95019,-0.04195,0.07732,0.85363,-0.08813
-0.30828,-0.9499,-0.0514,0.05097,0.76399,-0.01541
-0.29892,-0.95253,-0.05764,0.08812,0.65553,0.03047
-0.2843,-0.95677,-0.06125,0.18953,0.52484,-0.00731
-0.26799,-0.96158,-0.0595,0.32489,0.27978,0.03606
-0.25112,-0.96641,-0.05463,0.31719,-0.23016,0.12544
-0.23508,-0.97069,-0.04987,0.24979,-0.37321,0.1843
-0.22257,-0.97347,-0.05293,0.09666,-0.50488,0.33803
-0.21487,-0.9747,-0.06151,-0.15209,-0.80832,0.55424
-0.20896,-0.97548,-0.06896,-0.84662,-1.05007,-0.2526
-0.20449,-0.97577,-0.07772,-0.18874,-0.69519,-0.42134
-0.20641,-0.976,-0.06925,-0.00404,-0.00327,-0.19253
-0.20961,-0.97594,-0.0599,0.09705,0.36748,-0.27481
-0.21578,-0.97464,-0.05928,0.15476,0.49533,-0.2674
-0.2273,-0.97209,-0.058,-0.04029,0.36636,-0.14655
-0.23678,-0.97013,-0.05272,-0.15823,0.27109,-0.11244
-0.23984,-0.96965,-0.04732,-0.25253,0.07407,0.11563
-0.2399,-0.96972,-0.04554,-0.20183,0.02256,0.16479
-0.23925,-0.96971,-0.04909,-0.1696,0.01627,0.16747
-0.23753,-0.9698,-0.05532,0.00685,-0.02309,0.17112
-0.23528,-0.97026,-0.05687,0.1932,0.09422,0.15923
-0.2309,-0.97167,-0.05024,0.2634,0.19468,0.1669
-0.22703,-0.9731,-0.039,0.32054,0.50179,0.12528
-0.22543,-0.97382,-0.02894,0.29083,0.67121,-0.01564
-0.22637,-0.97375,-0.02365,0.3387,0.8767,-0.1338
-0.22985,-0.97292,-0.02425,0.3809,0.96311,-0.15706
-0.23419,-0.97178,-0.02816,0.36,0.67151,-0.04049
-0.23629,-0.97105,-0.0348,-0.00306,-0.28447,0.15786
-0.22949,-0.97163,-0.0571,-0.80356,-1.35567,-0.36531
-0.21181,-0.97377,-0.0831,-0.59544,-1.65439,-0.44124
-0.20742,-0.97387,-0.09247,-0.0303,-1.41293,-0.02489
-0.22311,-0.97118,-0.08384,0.00082,-0.71219,0.13498
-0.24698,-0.9671,-0.06092,0.0668,-0.04177,-0.23542
-0.27369,-0.96119,-0.03456,0.18074,0.55705,-0.22101
-0.29208,-0.95603,-0.02629,0.18671,0.84592,-0.14665
-0.29589,-0.95459,-0.03469,0.15256,0.78936,-0.13603
-0.29081,-0.95537,-0.05182,0.05918,0.7182,-0.05937
-0.27834,-0.95809,-0.06772,0.01539,0.62694,-0.01912
-0.25998,-0.96261,-0.07606,0.09689,0.56565,-0.06543
-0.24055,-0.96799,-0.07158,0.28663,0.39363,0.09471
-0.22179,-0.97333,-0.05853,0.28383,0.12847,0.217
-0.2047,-0.97777,-0.04524,0.21365,-0.21211,0.32908
-0.19438,-0.97992,-0.04419,-0.03833,-0.54629,0.33658
-0.19113,-0.97993,-0.05657,-0.1761,-1.0006,0.44248
-0.19064,-0.97871,-0.07598,-0.67194,-1.35543,-0.24475
-0.19092,-0.97803,-0.08368,-0.56336,-0.96166,-0.4512
-0.1946,-0.97866,-0.06589,-0.30251,-0.11752,-0.26269
-0.19516,-0.97984,-0.04256,-0.09187,0.26802,-0.18552
-0.19393,-0.98072,-0.02397,0.14199,0.36908,-0.16207
-0.19422,-0.98088,-0.01168,0.04633,0.20802,-0.14353
-0.19566,-0.98059,-0.01218,-0.082,-0.16809,-0.14875
-0.20156,-0.97912,-0.02622,-0.07984,-0.38468,-0.12024
-0.21187,-0.97645,-0.04044,0.05911,-0.40041,0.13074
-0.22283,-0.97402,-0.04022,0.19538,-0.0384,0.48203
-0.23257,-0.97222,-0.02623,0.20218,0.1258,0.44955
-0.24203,-0.97021,-0.00979,0.20364,0.65533,0.02637
-0.25038,-0.96814,0.00273,0.20898,0.99408,-0.2887
-0.2579,-0.96609,0.01204,0.23749,1.15983,-0.3436
-0.26675,-0.96363,0.01576,0.39815,1.52538,-0.0826
-0.27308,-0.96194,0.0087,0.3251,1.47559,0.06254
-0.27047,-0.96265,-0.01174,0.31904,1.23596,0.05771
-0.25923,-0.96507,-0.03786,-0.26709,-0.44053,-0.22279
-0.24571,-0.96678,-0.07034,-1.26908,-0.8284,-0.55295
-0.22912,-0.96833,-0.09915,-0.9541,-1.02505,-0.51657
-0.21796,-0.97062,-0.10192,0.02134,-1.42352,-0.09776
-0.22474,-0.97095,-0.08213,0.20489,-1.24643,0.09648
-0.24606,-0.96723,-0.06247,0.33845,-0.51096,-0.24653
-0.2758,-0.96024,-0.0431,0.40274,0.28399,-0.15763
-0.30001,-0.95332,-0.03397,0.33315,0.83304,0.15958
-0.31046,-0.94985,-0.03732,0.39132,0.96266,0.24098
-0.30876,-0.95029,-0.04017,0.25785,0.81798,0.18315
-0.28986,-0.95614,-0.04203,-0.0399,0.25201,0.22285
-0.25533,-0.96553,-0.05047,-0.20263,-0.05414,0.22692
-0.21674,-0.97388,-0.06756,-0.41371,-0.92334,0.1607
-0.18666,-0.97818,-0.09118,-0.2448,-1.74794,-0.09019
-0.18193,-0.97831,-0.09896,0.10903,-1.55539,0.06587
-0.19743,-0.9769,-0.0817,0.1294,-0.65675,-0.17259
-0.22374,-0.97305,-0.05572,0.17439,0.17105,-0.3439
-0.25136,-0.96701,-0.04117,0.22049,0.78197,-0.27676
-0.27188,-0.96144,-0.04122,0.04247,0.8443,-0.13134
-0.28284,-0.95802,-0.04672,-0.21014,0.65111,0.00338
-0.28417,-0.95733,-0.05237,-0.34322,0.48222,0.07058
-0.27664,-0.95932,-0.05622,-0.29131,0.24785,0.10747
-0.26516,-0.96233,-0.05994,-0.11731,-0.00593,0.05965
-0.25536,-0.96452,-0.06699,0.05771,-0.17713,0.03716
-0.24923,-0.96545,-0.07596,0.20042,-0.17575,0.0113
-0.24601,-0.96578,-0.08211,0.24642,0.0235,-0.02759
-0.24813,-0.96548,-0.07921,0.21137,0.24694,0.0254
-0.25459,-0.9648,-0.06578,0.19964,0.52533,0.2191
-0.26056,-0.96437,-0.04562,0.27361,0.69673,0.25767
-0.26287,-0.96427,-0.03255,0.30662,0.6911,0.17014
-0.26487,-0.9636,-0.03625,0.21964,0.35604,-0.06534
-0.26742,-0.96205,-0.05425,0.06803,-0.17046,-0.1932
-0.26627,-0.95999,-0.0867,-0.21231,-1.20974,-0.39172
-0.26173,-0.95731,-0.12266,-0.65561,-1.78128,-0.4898
-0.26683,-0.9538,-0.13804,-0.30736,-1.30645,-0.10195
-0.28016,-0.95098,-0.13091,-0.11564,-0.39065,-0.04232
-0.29408,-0.95061,-0.09925,-0.04319,0.3364,0.00023
-0.29773,-0.9519,-0.07233,-0.11246,0.66359,-0.05212
-0.29577,-0.95263,-0.07074,-0.04138,0.64909,-0.21468
-0.28916,-0.95319,-0.08832,0.07933,0.59424,-0.22671
-0.28209,-0.9532,-0.10869,0.08646,0.64859,-0.19653
-0.27445,-0.95439,-0.11748,0.08416,0.64723,-0.18295
-0.26252,-0.95848,-0.11132,0.17306,0.46734,0.08116
-0.24567,-0.96427,-0.09909,0.15617,0.14536,0.14047
-0.22891,-0.96932,-0.08946,0.14832,-0.0456,0.12469
-0.22057,-0.97209,-0.07988,0.33443,-0.47074,0.22116
-0.22137,-0.97256,-0.07145,0.38917,-0.35597,0.38445
-0.22089,-0.97265,-0.07173,0.34453,-0.25754,0.35654
-0.21501,-0.97302,-0.0836,0.13775,-0.04994,0.16073
-0.20618,-0.97382,-0.0957,-0.11803,0.08064,0.03581
-0.2005,-0.97432,-0.10238,-0.24347,0.05556,0.13018
-0.19538,-0.9749,-0.10668,-0.5989,-0.57989,-0.0554
-0.18981,-0.97551,-0.11113,-0.41505,-0.61324,-0.20605
-0.19042,-0.97581,-0.10736,-0.20825,-0.04601,-0.20056
-0.19283,-0.97632,-0.09799,-0.01099,0.15378,-0.30113
-0.19723,-0.97666,-0.08503,0.11801,0.15405,-0.22823
-0.20417,-0.97644,-0.06973,0.04342,0.13506,-0.08388
-0.21,-0.97598,-0.05798,-0.12368,0.11245,-0.0175
-0.21495,-0.97509,-0.05466,-0.19109,-0.00567,0.06809
-0.22054,-0.97366,-0.05777,-0.24069,-0.0884,0.13055
-0.22489,-0.97214,-0.06598,-0.31763,-0.06748,0.10125
-0.22517,-0.9713,-0.07661,-0.17494,0.083,0.04275
-0.22242,-0.97153,-0.08151,-0.05298,0.15618,0.0489
-0.21955,-0.9728,-0.07377,0.21355,0.307,0.14175
-0.21892,-0.97418,-0.05508,0.39107,0.53396,0.17201
-0.21973,-0.9749,-0.03566,0.42622,0.64418,0.13765
-0.22007,-0.97508,-0.02781,0.35307,0.83967,-0.16057
-0.21987,-0.9748,-0.03755,0.26463,0.80463,-0.22188
-0.22122,-0.97363,-0.05558,0.16708,0.52422,0.03449
-0.22171,-0.97229,-0.07405,-0.14579,-0.24542,0.17534
-0.21922,-0.97039,-0.10134,-0.89843,-0.99422,-0.26579
-0.20759,-0.97066,-0.12129,-0.76522,-1.6371,-0.56123
-0.20099,-0.97296,-0.11373,-0.27376,-1.48681,-0.21905
-0.20632,-0.97471,-0.08578,0.03304,-0.51003,-0.04024
-0.21709,-0.97481,-0.05105,0.20817,0.26352,-0.07377
-0.22625,-0.9735,-0.03314,0.25515,0.56571,-0.1562
-0.2317,-0.97207,-0.03714,0.1907,0.65527,-0.25142
-0.23444,-0.97093,-0.04824,0.10958,0.56694,-0.2744
-0.23572,-0.97026,-0.05497,0.07613,0.51543,-0.12673
-0.23243,-0.971,-0.05588,0.04341,0.44376,-0.01018
-0.22367,-0.97313,-0.05455,0.04276,0.30027,0.06773
-0.21451,-0.97525,-0.05356,0.0853,0.19845,0.08925
-0.21148,-0.97609,-0.05014,0.21824,-0.04315,0.21219
-0.21461,-0.97579,-0.04192,0.1846,-0.10409,0.33765
-0.21624,-0.97562,-0.03747,0.03436,-0.15971,0.24703
-0.20996,-0.97672,-0.04386,-0.11014,-0.31088,0.17565
-0.19706,-0.97883,-0.05517,-0.20873,-0.40369,0.17348
-0.18213,-0.98062,-0.0721,-0.90895,-1.0804,0.2065
-0.17137,-0.9808,-0.09301,-0.32779,-1.04364,-0.14724
-0.17621,-0.97891,-0.10335,0.04774,-0.47837,-0.15704
-0.19357,-0.97461,-0.11253,0.25933,-0.04558,-0.33606
-0.21643,-0.96751,-0.13067,0.43977,0.37635,-0.47846
-0.24261,-0.95819,-0.15168,0.4943,0.55557,-0.49204
-0.2697,-0.94986,-0.15817,0.05668,0.78276,-0.26359
-0.28735,-0.94694,-0.14397,-0.33579,0.6959,0.01504
-0.28843,-0.94965,-0.12235,-0.41933,0.60394,0.10889
-0.27694,-0.95451,-0.11049,-0.44979,0.24012,0.24963
-0.25894,-0.95885,-0.11636,-0.41649,0.20101,0.11383
-0.23853,-0.96198,-0.13302,-0.23332,0.18265,-0.10916
-0.21809,-0.96497,-0.1458,-0.00684,0.26287,-0.2924
-0.19981,-0.96892,-0.14582,0.11427,0.23463,-0.19471
-0.18748,-0.97241,-0.13881,0.03762,0.18144,-0.11492
-0.17898,-0.97474,-0.13358,-0.36662,0.23106,-0.07712
-0.17235,-0.97662,-0.12848,-0.50276,0.24647,-0.12775
-0.16623,-0.97872,-0.12024,-0.47533,0.34019,-0.15282
-0.15741,-0.98104,-0.11305,-0.31694,0.36811,-0.20605
-0.14437,-0.98458,-0.0987,-0.19026,0.07354,0.05832
-0.12812,-0.98916,-0.07163,-0.09321,-0.28182,0.20869
-0.11582,-0.99251,-0.03877,0.32565,-1.06134,0.90947
-0.12022,-0.9923,-0.02963,0.28306,-0.91757,0.72342
-0.15108,-0.98695,-0.05567,0.17885,-0.56968,0.43441
-0.18907,-0.97748,-0.09371,0.16846,-0.66783,-0.27155
-0.22244,-0.96853,-0.11161,-0.21171,-0.85473,-0.21781
-0.24165,-0.96253,-0.12298,-0.54381,-0.9051,-0.02001
-0.25033,-0.958,-0.13989,-0.83394,-0.14416,0.32785
-0.25559,-0.95445,-0.1539,-0.65781,0.38031,0.03862
-0.24971,-0.95665,-0.14988,-0.45241,0.3968,-0.04463
-0.23498,-0.96298,-0.13204,-0.35733,0.35379,0.06194
-0.21384,-0.97063,-0.11016,-0.0222,0.16298,0.38661
-0.19265,-0.97712,-0.0901,-0.01957,0.04448,0.37605
-0.17649,-0.98147,-0.07459,-0.00732,-0.05924,0.37957
-0.16699,-0.98356,-0.0687,0.14962,0.08352,0.14989
-0.16166,-0.98433,-0.0703,0.24277,0.17348,0.07126
-0.15518,-0.98529,-0.0715,0.27336,0.27493,0.00628
-0.14272,-0.98731,-0.06962,0.25622,0.58827,-0.008
-0.1242,-0.98984,-0.06908,0.2604,0.55132,0.00202
-0.10716,-0.99148,-0.07395,0.22457,0.50709,0.00792
-0.09932,-0.9917,-0.08159,0.03474,0.15103,-0.0909
-0.10034,-0.99058,-0.09311,-0.14615,-0.00641,-0.27757
-0.1071,-0.98825,-0.10898,-0.3492,-0.14064,-0.29425
-0.11399,-0.98635,-0.11882,-0.47921,-0.28543,0.01616
-0.11383,-0.98716,-0.11205,-0.35256,-0.41401,0.18352
-0.11067,-0.98858,-0.10222,-0.15347,-0.36454,0.30124
-0.10502,-0.98834,-0.11024,-0.20864,-0.618,0.15377
-0.10469,-0.98423,-0.14254,-0.2932,-0.58645,0.12701
-0.11161,-0.97944,-0.16805,-0.06512,0.11033,0.83492
-0.10839,-0.98362,-0.144,0.02023,-0.30261,0.82993
-0.096,-0.99062,-0.09719,-0.10335,-0.40435,0.67985
-0.08242,-0.99418,-0.06935,-0.13942,-0.18927,0.25994
-0.07574,-0.99492,-0.06626,0.00196,-0.11818,0.0824
-0.07735,-0.99466,-0.06825,0.02212,-0.12865,-0.0146
-0.08366,-0.99414,-0.06838,0.27766,-0.04619,-0.05875
-0.09471,-0.99298,-0.07079,0.33965,0.08772,-0.02121
-0.11101,-0.99081,-0.07716,0.29392,0.14508,-0.02094
-0.12721,-0.98831,-0.08392,0.0313,0.26103,-0.01929
-0.14267,-0.98605,-0.08568,-0.10777,0.4467,0.05853
-0.15794,-0.98428,-0.07899,-0.20346,0.62649,0.11512
-0.17119,-0.98293,-0.06734,-0.28404,0.64774,0.14982
-0.17879,-0.98216,-0.05825,-0.37457,0.43925,0.12203
-0.17707,-0.98274,-0.05349,-0.33588,0.24591,0.05355
-0.16905,-0.98426,-0.05134,-0.18138,0.17567,0.00034
-0.15949,-0.98584,-0.05177,-0.05857,0.11405,-0.09152
-0.15068,-0.98699,-0.05596,-0.01392,0.05567,-0.13466
-0.14606,-0.98734,-0.06174,0.04934,-0.0292,-0.19975
-0.14753,-0.98699,-0.06387,0.05081,-0.02955,-0.19762
-0.15261,-0.98641,-0.06076,-0.04818,0.08306,-0.08841
-0.15749,-0.98585,-0.05724,-0.32389,0.05324,-0.02505
-0.16116,-0.98529,-0.05667,-0.50391,0.02956,-0.05566
-0.1619,-0.98516,-0.05695,-0.56964,0.00972,-0.00269
-0.15992,-0.98548,-0.0569,-0.46473,-0.46894,0.12593
-0.161,-0.98556,-0.0524,-0.27923,-0.60723,0.4159
-0.16847,-0.98467,-0.04512,-0.11038,-0.53399,0.47017
-0.18741,-0.98152,-0.03863,0.07126,-0.23533,0.5214
-0.21566,-0.97576,-0.03707,0.2763,-0.02397,0.51554
-0.2432,-0.96904,-0.04253,0.3219,0.02486,0.48433
-0.2631,-0.96323,-0.05443,0.26862,-0.09108,0.30936
-0.27472,-0.95894,-0.07035,0.0884,-0.27746,0.02441
-0.28084,-0.95558,-0.08936,-0.01138,-0.33895,-0.00514
-0.28367,-0.95266,-0.10933,-0.07688,-0.36853,0.00528
-0.28544,-0.94976,-0.12837,-0.134,0.10839,0.1436
-0.28317,-0.94834,-0.14301,-0.11829,0.17924,0.16975
-0.2769,-0.94996,-0.14454,-0.14042,0.24232,0.17623
-0.27092,-0.95362,-0.13112,-0.10925,0.20114,0.29948
-0.26693,-0.95732,-0.11084,-0.0624,0.06265,0.20534
-0.2625,-0.96012,-0.09621,0.00826,-0.03712,0.01549
-0.256,-0.96194,-0.09554,0.02428,0.01951,-0.10881
-0.24646,-0.96317,-0.10745,0.06253,0.26903,-0.08518
-0.23431,-0.96447,-0.12202,0.1766,0.43126,0.05231
-0.22401,-0.96596,-0.12934,0.16902,0.55631,0.12934
-0.21876,-0.96733,-0.12807,0.15919,0.58936,0.13548
-0.22004,-0.96759,-0.1239,0.12899,0.53053,0.08119
-0.22734,-0.96597,-0.12336,0.08838,0.45463,0.0192
-0.23716,-0.96297,-0.12822,0.08712,0.44247,0.00298
-0.24495,-0.96036,-0.13302,0.10439,0.38993,0.00396
-0.24857,-0.95962,-0.13163,0.06629,0.20096,-0.00444
-0.24795,-0.96085,-0.12361,0.02234,0.07056,-0.02036
-0.24511,-0.96298,-0.11214,0.03054,-0.25151,0.02581
-0.24321,-0.96451,-0.10277,0.11587,-0.28705,0.09273
-0.24353,-0.96458,-0.10135,0.1487,-0.20232,0.12544
-0.24631,-0.96317,-0.1078,0.31942,0.15967,0.21007
-0.2519,-0.9613,-0.1115,0.37088,0.36076,0.39544
-0.25676,-0.96091,-0.10352,0.19245,0.37035,0.4876
-0.25263,-0.96266,-0.0972,-0.18983,0.04381,0.33337
-0.23756,-0.96592,-0.10274,-0.25966,-0.3666,0.4173
-0.21307,-0.97076,-0.11054,-0.32532,-0.68705,0.52207
-0.1899,-0.97329,-0.12898,-0.69633,-1.44491,-0.14371
-0.18229,-0.97291,-0.14213,0.10512,-0.81815,-0.32421
-0.18727,-0.97268,-0.13713,0.17893,0.00441,-0.38176
-0.20134,-0.97164,-0.12397,0.31471,0.3888,-0.29397
-0.22255,-0.96839,-0.11263,0.18713,0.63514,-0.20762
-0.24196,-0.96483,-0.10268,-0.04047,0.63613,-0.12655
-0.25439,-0.96217,-0.09744,-0.19281,0.50215,0.01428
-0.25809,-0.96082,-0.10098,-0.28518,0.27505,0.14781
-0.25399,-0.96054,-0.11329,-0.31373,0.17008,0.17436
-0.24436,-0.96117,-0.1282,-0.31183,-0.13574,0.12302
-0.23435,-0.96211,-0.13932,-0.20284,-0.21628,0.05007
-0.22532,-0.96313,-0.14697,0.07279,-0.10996,0.058
-0.21915,-0.96375,-0.15217,0.22478,0.08745,0.04021
-0.21909,-0.96437,-0.14825,0.22693,0.3315,0.15066
-0.2242,-0.96567,-0.13118,0.198,0.59448,0.25998
-0.23216,-0.96699,-0.10497,0.22813,0.77337,0.31815
-0.24004,-0.96755,-0.07891,0.2805,0.812,0.17597
-0.24685,-0.96685,-0.06526,0.25229,0.63672,0.01335
-0.2523,-0.96522,-0.06842,0.10847,0.19676,-0.01628
-0.25237,-0.964,-0.08363,0.03314,-0.729,0.09269
-0.24239,-0.96355,-0.11312,-0.48209,-1.70493,-0.33951
-0.23807,-0.96144,-0.13766,-0.22635,-1.33817,-0.24104
-0.24681,-0.95959,-0.13518,-0.0882,-0.84312,-0.14163
-0.26664,-0.95852,-0.10061,0.03602,0.10841,-0.06152
-0.28684,-0.95622,-0.05795,-0.11375,0.59559,-0.05141
-0.29862,-0.95354,-0.03966,-0.10292,0.42779,-0.18999
-0.29973,-0.95257,-0.05249,-0.12054,0.32351,-0.1886
-0.29305,-0.9529,-0.07804,-0.1338,0.37639,-0.16496
-0.28081,-0.95474,-0.09802,-0.04443,0.34222,-0.0772
-0.2644,-0.95808,-0.11029,0.0511,0.29834,-0.00956
-0.24912,-0.96187,-0.11288,0.16251,0.29674,0.08669
-0.24101,-0.96504,-0.10295,0.24106,0.16495,0.14631
-0.24027,-0.96709,-0.08361,0.3633,0.02293,0.30909
-0.24194,-0.96851,-0.05872,0.44246,-0.00717,0.3908
-0.24057,-0.9699,-0.0376,0.36595,0.1294,0.36448
-0.23148,-0.97236,-0.0303,0.23452,0.15719,0.30998
-0.2141,-0.97612,-0.03654,0.17283,-0.07382,0.26985
-0.18854,-0.98076,-0.05047,-0.16144,-0.67878,0.24113
-0.16667,-0.9824,-0.08428,-0.51746,-0.98087,-0.20816
-0.16376,-0.97945,-0.11771,-0.19371,-0.67828,-0.17703
-0.1776,-0.97638,-0.123,-0.28769,0.09918,-0.24103
-0.197,-0.97448,-0.10758,-0.09834,0.37887,-0.2111
-0.21871,-0.97239,-0.08128,-0.09049,0.47401,-0.1242
-0.23623,-0.97014,-0.05495,-0.2302,0.34149,-0.10512
-0.24375,-0.96889,-0.04279,-0.32832,0.0493,-0.04733
-0.24417,-0.96856,-0.04753,-0.33816,-0.06467,0.01687
-0.23961,-0.96897,-0.06066,-0.20349,-0.14178,0.12212
-0.23269,-0.96985,-0.07237,-0.21041,-0.1409,0.13383
-0.22756,-0.97064,-0.07794,0.1423,-0.05678,0.082
-0.22742,-0.97096,-0.07419,0.41471,0.23447,0.18966
-0.23433,-0.97032,-0.05971,0.42161,0.23382,0.17518
-0.24625,-0.96838,-0.04,0.4012,0.58591,0.18699
-0.25696,-0.96609,-0.025,0.33979,0.7834,-0.10169
-0.26345,-0.96428,-0.02738,0.34628,0.78158,-0.09932
-0.26883,-0.96212,-0.04521,0.16826,0.36858,0.04912
-0.2702,-0.96059,-0.06527,-0.44362,-0.96138,-0.17573
-0.26763,-0.95927,-0.09042,-0.6616,-1.21677,-0.28423
-0.26936,-0.95697,-0.10788,-0.48264,-1.367,-0.29011
-0.27873,-0.95329,-0.11637,-0.20209,-0.83973,-0.08475
-0.29253,-0.94978,-0.11106,-0.01944,-0.08911,-0.04319
-0.3059,-0.94755,-0.09258,0.09346,0.33211,-0.15315
-0.31396,-0.94596,-0.08108,-0.04032,0.38798,-0.21816
-0.3194,-0.94334,-0.08994,-0.00706,0.44305,-0.16452
-0.32003,-0.94067,-0.11275,0.06875,0.51502,-0.0886
-0.3163,-0.93857,-0.13795,0.08467,0.53958,-0.01769
-0.30957,-0.93871,-0.15157,0.10217,0.46662,0.0747
-0.30077,-0.94182,-0.15002,0.07078,0.29077,0.08539
-0.29063,-0.94719,-0.13552,0.21859,0.07362,0.27019
-0.28174,-0.95258,-0.11493,0.32379,0.0624,0.46085
-0.27508,-0.95663,-0.09581,0.25135,0.07202,0.51698
-0.2649,-0.9603,-0.08739,0.04951,-0.07759,0.33515
-0.24955,-0.96398,-0.09203,0.00614,-0.21115,0.19469
-0.23323,-0.9675,-0.09768,-0.01053,-0.6499,-0.00139
-0.21854,-0.97065,-0.1004,-0.08841,-0.7536,-0.3311
-0.21152,-0.97177,-0.10451,-0.25734,-0.64244,-0.32489
-0.21231,-0.97198,-0.10089,-0.06145,0.26832,0.00184
-0.21744,-0.97207,-0.08833,-0.0242,0.2867,-0.06202
-0.22727,-0.97086,-0.07595,-0.07165,0.20608,-0.10659
-0.23971,-0.96833,-0.06975,-0.26187,-0.05909,-0.07919
-0.24903,-0.96576,-0.07274,-0.28693,-0.29186,-0.07322
-0.25367,-0.96377,-0.08236,-0.22556,-0.33894,-0.05083
-0.25478,-0.96265,-0.09154,-0.04681,-0.12069,0.12393
-0.25367,-0.96271,-0.09395,0.07064,0.04847,0.27962
-0.25403,-0.96371,-0.08202,0.17532,0.16549,0.32384
-0.2605,-0.96366,-0.05907,0.44071,0.62537,0.24278
-0.27137,-0.96173,-0.03783,0.51599,0.91232,-0.03054
-0.28039,-0.95938,-0.03116,0.55827,0.99179,-0.18106
-0.2893,-0.95631,-0.04211,0.27997,0.77546,-0.16527
-0.29629,-0.95347,-0.05564,0.0282,0.10844,0.15079
-0.29452,-0.95311,-0.06949,-0.64594,-0.84569,-0.10776
-0.28184,-0.95526,-0.08961,-0.6789,-1.34565,-0.38425
-0.26833,-0.95795,-0.10162,-0.18262,-1.44371,-0.19972
-0.26925,-0.95789,-0.0997,0.03133,-0.81541,-0.11983
-0.28658,-0.95528,-0.07283,0.08982,0.04549,-0.11057
-0.30424,-0.95174,-0.04026,0.02765,0.46552,-0.13311
-0.31581,-0.94839,-0.02844,-0.00184,0.52089,-0.10926
-0.32346,-0.94534,-0.04123,-0.00768,0.5485,-0.07723
-0.32391,-0.94398,-0.06299,-0.01579,0.53244,-0.03668
-0.31811,-0.94472,-0.07938,-0.01072,0.50371,0.08741
-0.30587,-0.94858,-0.08143,0.17808,0.43621,0.34903
-0.28817,-0.95499,-0.07038,0.31376,0.41872,0.37599
-0.26842,-0.96199,-0.05029,0.38267,0.37767,0.36308
-0.25166,-0.96726,-0.03268,0.27416,-0.14054,0.16525
-0.23949,-0.97047,-0.02886,0.2237,-0.85033,0.23944
-0.22375,-0.97399,-0.03576,-0.32393,-1.69941,-0.10923
-0.20369,-0.97678,-0.06643,-0.40139,-1.13332,-0.16215
-0.20073,-0.97538,-0.09134,-0.1964,-0.06761,-0.05029
-0.21272,-0.97259,-0.09391,-0.02347,0.44321,-0.08743
-0.23193,-0.96929,-0.08167,0.02557,0.67097,-0.02928
-0.25183,-0.9655,-0.06617,-0.14595,0.56165,-0.00989
-0.26505,-0.96248,-0.05805,-0.40817,0.08072,-0.15176
-0.2673,-0.96147,-0.0642,-0.45531,-0.25208,-0.17905
-0.26178,-0.9617,-0.08121,-0.27694,-0.25246,0.03867
-0.25217,-0.96321,-0.09295,-0.14046,-0.1991,0.22387
-0.23669,-0.96659,-0.09839,0.05148,-0.2238,0.2046
-0.22073,-0.97006,-0.10122,0.30685,-0.05088,0.13736
-0.21472,-0.97188,-0.09663,0.45102,0.26343,0.15843
-0.22002,-0.97173,-0.08562,0.46273,0.39133,0.17407
-0.23138,-0.97008,-0.07348,0.34295,0.79122,0.0905
-0.24328,-0.96769,-0.06621,0.32564,0.76577,0.06117
-0.25136,-0.96551,-0.06781,0.2641,0.63653,0.02876
-0.25649,-0.96333,-0.0788,-0.25703,-0.25869,-0.01682
-0.25946,-0.96111,-0.09455,-0.3996,-0.75253,-0.0792
-0.25873,-0.95935,-0.1127,-0.47725,-1.13938,-0.13277
-0.26041,-0.95646,-0.13174,-0.44013,-1.13181,-0.09197
-0.26861,-0.95304,-0.13986,-0.26691,-0.60116,-0.09876
-0.27992,-0.95164,-0.12657,-0.02645,0.20817,-0.05032
-0.29287,-0.9513,-0.09618,-0.03513,0.42634,-0.03535
-0.29937,-0.9512,-0.07476,-0.05433,0.47093,-0.07584
-0.29861,-0.95089,-0.08141,-0.13045,0.46528,-0.21104
-0.29217,-0.95027,-0.10775,-0.16667,0.41766,-0.20092
-0.28285,-0.94999,-0.13231,-0.15512,0.4176,-0.15692
-0.27298,-0.9515,-0.14186,-0.04035,0.34214,-0.05583
-0.26383,-0.95505,-0.13513,0.06027,0.14898,0.05554
-0.25646,-0.95936,-0.11768,0.08733,0.02244,0.07261
-0.25248,-0.96243,-0.09986,0.14209,-0.19512,0.09792
-0.25311,-0.96343,-0.08794,0.25253,-0.1298,0.19133
-0.25482,-0.96356,-0.08134,0.29942,-0.03984,0.26701
-0.25141,-0.9647,-0.07829,0.22253,0.11586,0.32581
-0.24156,-0.96691,-0.08196,-0.04396,0.03457,0.30939
-0.22626,-0.96975,-0.0916,-0.19994,-0.02351,0.27886
-0.21133,-0.97196,-0.10306,-0.48595,-0.46709,0.06838
-0.20284,-0.97261,-0.11352,-0.41369,-0.92105,-0.02447
-0.19782,-0.97257,-0.12234,-0.33059,-1.04843,-0.07892
-0.1993,-0.97112,-0.13114,-0.11924,-0.50534,-0.12545
-0.20654,-0.96852,-0.13891,0.06543,-0.10844,-0.23688
-0.2194,-0.96522,-0.14217,0.10945,0.07084,-0.21279
-0.23566,-0.96152,-0.14122,0.04323,0.64062,-0.05595
-0.24958,-0.95876,-0.13594,-0.06309,0.95402,0.01829
-0.25651,-0.95842,-0.12497,-0.10505,0.94063,0.02352
-0.25367,-0.96046,-0.1147,-0.28785,0.47484,0.02379
-0.24309,-0.96359,-0.11137,-0.33406,0.35642,0.02319
-0.22599,-0.96751,-0.11332,-0.34472,0.27139,-0.0024
-0.20265,-0.97222,-0.11715,-0.30632,0.29645,-0.03927
-0.17588,-0.97705,-0.12012,-0.19813,0.18623,-0.0341
-0.14999,-0.9812,-0.12144,-0.22402,0.19038,-0.03278
-0.1297,-0.98403,-0.12186,-0.3252,0.04177,-0.0238
-0.11542,-0.98579,-0.122,-0.41193,0.17683,-0.0925
-0.10671,-0.98689,-0.12108,-0.43039,0.25865,-0.12587
-0.10242,-0.98789,-0.11652,-0.43239,0.33695,-0.16495
-0.10037,-0.98934,-0.10545,-0.29123,0.08111,0.29986
-0.09891,-0.99161,-0.08314,-0.20319,-0.25141,0.46032
-0.095,-0.99376,-0.05843,-0.16796,-0.54505,0.60962
-0.0932,-0.99502,-0.03536,0.3547,-0.80934,0.68688
-0.10822,-0.99366,-0.03045,0.43059,-0.75816,0.66343
-0.14612,-0.98791,-0.05181,0.49617,-0.6255,0.54144
-0.18535,-0.97845,-0.09091,0.01175,-1.00273,-0.26818
-0.21836,-0.96971,-0.1094,-0.38904,-0.9429,-0.10335
-0.24077,-0.96386,-0.11402,-0.91096,-0.25678,0.36065
-0.25369,-0.96015,-0.11723,-0.71239,0.11065,0.23666
-0.25991,-0.95824,-0.11924,-0.65049,0.23859,0.12456
-0.25157,-0.9615,-0.11058,-0.26059,0.37675,0.2192
-0.23305,-0.96817,-0.09125,-0.11874,0.3936,0.37119
-0.21039,-0.97544,-0.06511,-0.05777,0.30139,0.40993
-0.18885,-0.98121,-0.03953,0.15835,-0.02273,0.38209
-0.17307,-0.98467,-0.02154,0.29549,0.00174,0.21026
-0.16539,-0.98606,-0.0178,0.34486,0.05549,0.1069
-0.16205,-0.98646,-0.02501,0.17348,0.35807,-0.1653
-0.15416,-0.98745,-0.03431,0.18027,0.51627,-0.15798
-0.13873,-0.98944,-0.04186,0.16591,0.61911,-0.0879
-0.11677,-0.99207,-0.04634,0.21026,0.42663,0.10576
-0.1006,-0.99367,-0.04994,-0.02639,0.19847,-0.02272
-0.09527,-0.99386,-0.05623,-0.10721,0.04836,-0.1642
-0.09596,-0.99271,-0.0729,-0.31825,-0.38608,-0.37784
-0.09919,-0.99025,-0.09776,-0.48534,-0.40306,-0.21899
-0.10093,-0.98844,-0.11311,-0.36542,-0.22494,0.33674
-0.10183,-0.98894,-0.10779,-0.26714,0.02311,0.30872
-0.10189,-0.98954,-0.10208,-0.16973,-0.45142,0.23007
-0.09792,-0.98895,-0.1113,-0.27304,-0.57354,0.13008
-0.0992,-0.98576,-0.13577,-0.27493,-0.2078,0.41563
-0.10116,-0.98486,-0.14073,0.01545,-0.1057,0.81035
-0.0921,-0.98995,-0.10725,0.07601,-0.33819,0.83731
-0.0794,-0.9939,-0.07654,-0.09667,-0.31291,0.46057
-0.0778,-0.99365,-0.08118,-0.40153,0.08165,0.13447
-0.08935,-0.99168,-0.09263,-0.38889,0.11256,0.1094
-0.10607,-0.99074,-0.0847,-0.30096,0.11176,0.10685
-0.12251,-0.9902,-0.067,-0.01264,0.19355,0.19355
-0.13437,-0.98952,-0.05278,0.07927,0.18782,0.18431
-0.13829,-0.98938,-0.04459,0.17609,0.19718,0.07593
-0.13666,-0.9898,-0.04014,0.18297,0.37432,0.00604
-0.13345,-0.99038,-0.03639,0.16619,0.42627,0.00337
-0.13244,-0.99067,-0.03208,0.15243,0.46171,0.00939
-0.13512,-0.99039,-0.02951,-0.09129,0.35196,0.08975
-0.14083,-0.9896,-0.0291,-0.17531,0.29255,0.08946
-0.14597,-0.98889,-0.02792,-0.22876,0.24554,0.07594
-0.14727,-0.98877,-0.02539,-0.20341,0.22236,-0.03523
-0.14363,-0.98936,-0.0232,-0.20278,0.27123,-0.06643
-0.13564,-0.9905,-0.02259,-0.18767,0.28032,-0.12196
-0.12486,-0.99193,-0.02193,-0.16944,0.08647,-0.18628
-0.11478,-0.9932,-0.0195,-0.14794,-0.07507,-0.16798
-0.10813,-0.99403,-0.01405,-0.18053,-0.10912,-0.066
-0.10307,-0.99463,-0.00913,-0.24096,-0.09036,-0.0229
-0.09738,-0.99519,-0.0104,-0.37511,-0.0783,-0.09856
-0.09527,-0.9953,-0.01729,-0.61655,-0.11179,-0.16055
-0.10091,-0.99461,-0.02376,-0.69908,-0.1807,-0.03769
-0.10882,-0.9938,-0.02268,-0.76462,-0.28205,-0.09027
-0.11619,-0.99312,-0.01398,-0.41236,-0.24156,0.52456
-0.12605,-0.99202,0.00266,-0.23727,-0.21166,0.60084
-0.13837,-0.99012,0.02264,0.02064,-0.21183,0.60871
-0.15857,-0.98664,0.03721,0.22282,-0.16184,0.45805
-0.18554,-0.98179,0.0406,0.26521,-0.13771,0.51138
-0.21093,-0.97698,0.03187,0.3567,-0.21152,0.4963
-0.23285,-0.97244,0.01144,0.23145,-0.57849,0.09604
-0.25028,-0.96804,-0.01598,0.04125,-0.63826,-0.162
-0.26289,-0.96407,-0.0381,-0.07209,-0.34558,-0.10683
-0.27022,-0.9615,-0.04994,0.02134,0.05911,0.02934
-0.27425,-0.95996,-0.05706,-0.03628,0.26808,0.09494
-0.27321,-0.95993,-0.06225,-0.05246,0.31385,0.13675
-0.26887,-0.96127,-0.06052,-0.06565,0.37057,0.20331
-0.26383,-0.96321,-0.051,0.011,0.27799,0.21147
-0.26094,-0.96458,-0.03851,0.02524,0.22034,0.17768
-0.2589,-0.96538,-0.03167,-0.07,0.10565,-0.02843
-0.25442,-0.96641,-0.03629,-0.1084,0.16462,-0.11613
-0.24658,-0.96779,-0.0508,-0.05591,0.22447,-0.09115
-0.23738,-0.96894,-0.0693,-0.00752,0.34818,0.00807
-0.23039,-0.9695,-0.08359,0.09566,0.4753,0.11742
-0.22872,-0.96934,-0.08981,0.0935,0.61307,0.10168
-0.23114,-0.96865,-0.09096,0.13318,0.61204,0.05617
-0.2361,-0.96721,-0.09358,0.13681,0.55129,0.0118
-0.24382,-0.96448,-0.10159,0.13495,0.51528,-0.00293
-0.25331,-0.96081,-0.11251,0.07515,0.39914,-0.02661
-0.25948,-0.95811,-0.12124,-0.02576,0.10636,-0.00538
-0.25923,-0.95768,-0.1251,-0.06173,-0.0035,0.03014
-0.25443,-0.95901,-0.12477,-0.07323,-0.09719,0.08236
-0.2506,-0.96009,-0.12414,0.07291,-0.02916,0.17419
-0.25061,-0.95961,-0.12779,0.15225,0.03676,0.14109
-0.25332,-0.95805,-0.13399,0.23493,0.09525,0.1785
-0.25562,-0.95746,-0.13386,0.28084,0.28597,0.38867
-0.25388,-0.95931,-0.12352,0.11634,0.25033,0.26682
-0.24246,-0.96364,-0.11223,-0.00676,0.13245,0.27846
-0.21581,-0.97103,-0.10252,-0.9544,-1.22303,0.02975
-0.17734,-0.97768,-0.1126,-0.96752,-1.21284,-0.04113
-0.16345,-0.98017,-0.112,0.00797,-0.95852,-0.14768
-0.16715,-0.98125,-0.09587,0.15644,-0.45405,-0.31003
-0.17978,-0.98008,-0.08441,0.3242,0.0781,-0.29142
-0.19839,-0.97723,-0.0752,0.26847,0.39247,-0.13099
-0.21669,-0.97422,-0.06264,-0.21095,0.46336,-0.15785
-0.22646,-0.97252,-0.0539,-0.20857,0.42594,-0.12775
-0.22837,-0.97204,-0.05458,-0.24056,0.19823,0.09836
-0.22712,-0.97184,-0.0627,-0.28191,0.03896,0.14933
-0.22314,-0.97207,-0.07266,-0.27071,-0.0331,0.13694
-0.21689,-0.97294,-0.0796,-0.07467,-0.16077,-0.01433
-0.21011,-0.9739,-0.08587,0.18019,-0.06672,-0.01827
-0.20585,-0.97389,-0.09565,0.23257,0.02532,0.00595
-0.2061,-0.97315,-0.10246,0.14128,0.38759,0.16038
-0.20759,-0.97354,-0.09544,0.22043,0.64723,0.32906
-0.20997,-0.9749,-0.07393,0.28666,0.75536,0.33043
-0.21193,-0.97603,-0.04946,0.27137,0.82108,-0.00968
-0.21247,-0.97646,-0.03714,0.18727,0.69585,-0.08835
-0.21569,-0.97553,-0.04254,0.07308,0.53684,-0.08331
-0.2229,-0.97332,-0.05437,-0.03583,-0.72123,-0.18814
-0.221,-0.97268,-0.07099,-0.69951,-1.54442,-0.55809
-0.21309,-0.973,-0.08863,-0.69441,-1.84699,-0.50854
-0.21265,-0.97309,-0.08873,0.12557,-0.85707,-0.10877
-0.22157,-0.97189,-0.07954,0.20003,-0.06116,-0.09456
-0.23436,-0.97016,-0.06207,0.14554,0.1722,-0.0873
-0.24449,-0.96836,-0.04988,-0.07309,0.49916,-0.24603
-0.25359,-0.96562,-0.0571,-0.10482,0.62096,-0.267
-0.26176,-0.96206,-0.0769,-0.11511,0.66139,-0.20974
-0.26844,-0.95859,-0.09508,-0.13315,0.74057,-0.09935
-0.27058,-0.95719,-0.10279,-0.04582,0.62336,0.03564
-0.26694,-0.95887,-0.09647,0.00815,0.39887,0.17809
-0.25748,-0.96308,-0.07853,0.1191,0.13542,0.26991
-0.24311,-0.96855,-0.05294,0.29111,-0.0766,0.36338
-0.22586,-0.9739,-0.0224,0.3856,-0.14669,0.43924
-0.20731,-0.97827,0.00211,0.29913,-0.10219,0.369
-0.18437,-0.98282,0.00738,0.25265,-0.28121,0.25945
-0.15626,-0.98771,0.00127,0.07628,-0.6393,0.0983
-0.13265,-0.9911,-0.0107,-0.19634,-0.81935,-0.35275
-0.12544,-0.9915,-0.03447,-0.28793,-0.67479,-0.36747
-0.13437,-0.98957,-0.05182,-0.49673,-0.31742,-0.27958
-0.15442,-0.98685,-0.04758,-0.29565,0.36507,-0.19273
-0.17633,-0.98396,-0.02699,-0.37518,0.43196,-0.07351
-0.19337,-0.98111,-0.00389,-0.43507,0.27506,-0.00264
-0.1984,-0.98009,0.00724,-0.36387,-0.05604,-0.01598
-0.19515,-0.98076,0.00295,0.00677,-0.33894,0.10243
-0.19225,-0.98129,-0.00998,0.1504,-0.27063,0.14382
-0.19184,-0.98126,-0.0176,0.25664,-0.17479,0.18928
-0.19297,-0.9811,-0.01371,0.60443,0.29592,0.10926
-0.19976,-0.97984,-0.00244,0.63599,0.46041,0.01255
-0.21272,-0.97708,0.00768,0.63451,0.64641,-0.07891
-0.22652,-0.97397,0.00796,0.38045,1.03902,-0.15125
-0.24019,-0.97072,-0.00086,0.04229,0.65157,0.19303
-0.25308,-0.9674,-0.00837,-0.94853,-0.16474,-0.0622
-0.26393,-0.96426,-0.02302,-1.09291,-0.87711,-0.4486
-0.26085,-0.96421,-0.04733,-1.04622,-1.1044,-0.29462
-0.24404,-0.96735,-0.0684,-0.14477,-1.252,-0.10725
-0.22953,-0.97034,-0.07583,0.25891,-0.65562,-0.22103
-0.23187,-0.971,-0.05814,0.3131,0.04324,-0.25747
-0.24559,-0.96903,-0.02574,0.27782,0.52536,-0.2292
-0.26337,-0.96462,-0.01147,0.20052,0.76692,-0.09915
-0.27906,-0.95996,-0.02461,0.13756,0.75692,-0.05269
-0.2902,-0.95582,-0.04671,0.02473,0.67449,0.04047
-0.29695,-0.95306,-0.05914,0.07765,0.53582,0.28195
-0.29338,-0.95439,-0.05531,0.11232,0.44705,0.35347
-0.27796,-0.9598,-0.039,0.27831,0.38782,0.56622
-0.25495,-0.96678,-0.01844,0.19541,0.0261,0.43567
-0.23123,-0.97284,-0.01101,0.02949,-0.63216,0.10932
-0.21683,-0.97589,-0.02481,-0.04393,-1.32201,-0.04422
-0.20959,-0.97672,-0.04571,-0.02628,-1.40457,-0.45153
-0.20485,-0.97694,-0.06015,-0.25959,-0.99137,-0.416
-0.21214,-0.97564,-0.05575,-0.08159,0.4133,-0.23894
-0.2275,-0.97293,-0.04071,0.07143,0.58134,-0.18018
-0.24685,-0.96858,-0.0301,-0.1536,0.42221,-0.07779
-0.26269,-0.96442,-0.02972,-0.50587,0.04198,-0.08036
-0.27009,-0.96188,-0.04274,-0.57348,-0.31589,-0.10184
-0.26618,-0.9621,-0.05915,-0.21694,-0.26911,0.11359
-0.25869,-0.96403,-0.06096,0.20397,-0.00075,0.3879
-0.25261,-0.96648,-0.04576,0.4002,0.19002,0.33395
-0.24963,-0.96806,-0.02325,0.49178,0.45517,0.18551
-0.25069,-0.96806,-0.00356,0.48633,0.70869,-0.07043
-0.25143,-0.96787,0.00296,0.50212,0.76061,-0.28334
-0.25322,-0.96739,-0.00548,0.46672,0.5836,-0.09784
-0.25909,-0.96571,-0.01645,0.17451,-0.00786,0.07018
-0.26821,-0.96275,-0.03418,-0.87528,-0.50252,-0.16382
-0.27549,-0.95894,-0.06735,-0.7037,-0.83131,-0.32365
-0.27436,-0.95709,-0.09325,-0.52009,-0.93263,-0.28467
-0.26981,-0.9584,-0.0931,-0.30068,-0.70079,-0.12227
-0.26994,-0.96055,-0.06685,-0.05225,-0.37932,-0.10498
-0.27566,-0.96028,-0.04313,0.0914,-0.06971,-0.2125
-0.28189,-0.95858,-0.04076,0.19767,0.29064,-0.26583
-0.28626,-0.95661,-0.05437,0.20249,0.54071,-0.1896
-0.28978,-0.95465,-0.0683,0.10828,0.68176,-0.04693
-0.29315,-0.95322,-0.07362,0.13203,0.66657,0.18423
-0.29403,-0.95325,-0.06966,0.16026,0.6064,0.26723
-0.28787,-0.95602,-0.05618,0.20546,0.55399,0.30753
-0.27321,-0.96132,-0.03497,0.30246,0.32004,0.38783
-0.25506,-0.96677,-0.01728,0.22744,0.1246,0.37672
-0.23847,-0.97104,-0.01468,0.05692,-0.73932,0.24547
-0.22214,-0.9745,-0.03176,-0.22962,-1.70582,-0.07998
-0.20562,-0.97625,-0.06815,-0.32937,-1.78728,-0.32575
-0.19963,-0.97455,-0.10194,-0.42286,-0.09634,-0.30843
-0.20923,-0.97191,-0.10772,-0.0565,0.55065,-0.17993
-0.22478,-0.97029,-0.08945,0.12129,0.67111,-0.16231
-0.24289,-0.96795,-0.06384,-0.07438,0.6726,-0.13343
-0.25602,-0.96561,-0.04526,-0.37306,0.26021,-0.13368
-0.261,-0.96438,-0.04295,-0.43676,0.03478,-0.13476
-0.25583,-0.96539,-0.05059,-0.20267,-0.31981,0.01499
-0.24322,-0.96834,-0.05613,0.08993,-0.21028,0.26069
-0.22968,-0.97183,-0.0528,0.3144,-0.10682,0.37457
-0.21935,-0.97472,-0.0424,0.50722,0.08518,0.29844
-0.21761,-0.97564,-0.02767,0.4959,0.43044,0.12882
-0.22321,-0.97465,-0.01521,0.43102,0.60407,-0.04256
-0.23019,-0.97304,-0.01397,0.35155,0.79471,-0.22502
-0.24136,-0.9702,-0.02125,0.15986,0.4921,0.0563
-0.2556,-0.96635,-0.02871,-0.29284,-0.18516,0.1403
-0.26548,-0.96317,-0.04275,-0.93872,-0.58667,-0.22981
-0.26402,-0.96218,-0.06707,-0.6048,-0.94495,-0.29582
-0.25359,-0.96387,-0.08146,-0.25812,-0.98454,-0.33132
-0.24667,-0.96627,-0.07394,0.03334,-0.5537,-0.17178
-0.24857,-0.96744,-0.04753,0.13217,-0.06092,-0.1636
-0.25516,-0.96667,-0.02074,0.15276,0.12861,-0.19073
-0.26164,-0.9651,-0.01144,0.11581,0.53167,-0.22797
-0.26803,-0.9632,-0.01994,0.07782,0.64854,-0.24602
-0.27444,-0.96106,-0.03219,0.0444,0.66384,-0.23208
-0.28023,-0.95924,-0.03635,-0.01916,0.54202,-0.10055
-0.28185,-0.95893,-0.03166,0.00599,0.22868,-0.02663
-0.27643,-0.96073,-0.02418,0.03734,0.10027,-0.00922
-0.26537,-0.96396,-0.01872,0.22204,-0.21374,0.06848
-0.25334,-0.96722,-0.01712,0.26011,-0.31182,0.23435
-0.24359,-0.96971,-0.01795,0.10751,-0.36334,0.33433
-0.23527,-0.97166,-0.02278,-0.04016,-0.33486,0.20111
-0.22614,-0.97365,-0.02942,-0.22287,-0.30585,0.0895
-0.21612,-0.9756,-0.03856,-0.49488,-0.40486,-0.05996
-0.20581,-0.97716,-0.0528,-0.5184,-0.51905,-0.0827
-0.20277,-0.9771,-0.06438,-0.13544,-0.06448,-0.17714
-0.20791,-0.97536,-0.07372,-0.07991,0.1106,-0.24194
-0.2182,-0.97272,-0.07875,0.02622,0.21094,-0.29106
-0.23472,-0.96926,-0.0737,0.10435,0.41889,-0.20784
-0.25076,-0.96623,-0.05923,0.08057,0.40918,-0.11185
-0.25882,-0.96506,-0.04072,0.04421,0.38766,-0.02855
-0.25762,-0.96589,-0.026,-0.02473,0.27874,-0.00211
-0.24942,-0.96818,-0.02046,-0.08656,0.16334,-0.10526
-0.23797,-0.971,-0.02272,-0.19759,0.08984,-0.23257
-0.22523,-0.97384,-0.02992,-0.23939,0.11574,-0.27879
-0.21239,-0.97648,-0.03691,-0.24022,0.18956,-0.26923
-0.20062,-0.9788,-0.04125,-0.28447,0.42621,-0.27894
-0.19014,-0.98084,-0.04236,-0.38766,0.48072,-0.24648
-0.17956,-0.98308,-0.0361,-0.46172,0.48189,-0.22085
-0.16718,-0.98569,-0.02131,-0.5411,0.29169,-0.17989
-0.15332,-0.98817,-0.00254,-0.4783,0.19665,-0.18502
-0.13974,-0.99004,0.01685,-0.41583,0.08037,-0.03367
-0.12908,-0.99078,0.0411,0.10482,-1.17838,0.4752
-0.12127,-0.99067,0.06222,0.097,-1.17849,0.45407
-0.12403,-0.98871,0.08403,0.52965,-1.06212,0.51967
-0.14975,-0.98425,0.09389,0.5921,-0.75125,0.48641
-0.19625,-0.97737,0.07896,0.33685,-0.34343,-0.10665
-0.23797,-0.96965,0.05612,0.34339,-0.2937,-0.21455
-0.26578,-0.9629,0.04672,0.06816,-0.49491,6e-05
-0.28242,-0.95867,0.03454,-0.33245,-0.57036,-0.00667
-0.29351,-0.95594,0.00557,-0.52772,-0.36128,0.03268
-0.30289,-0.95254,-0.03028,-0.63672,0.16855,-0.16678
-0.30394,-0.95128,-0.05185,-0.47403,0.36427,-0.12593
-0.29597,-0.95384,-0.05086,-0.37851,0.45076,-0.06173
-0.28668,-0.95744,-0.03356,-0.05129,0.60696,0.09085
-0.2802,-0.95989,-0.00931,0.12876,0.63564,0.12865
-0.27468,-0.96146,0.01155,0.13389,0.66469,0.08446
-0.26858,-0.96302,0.02143,0.16412,0.76297,-0.09921
-0.26219,-0.96482,0.01947,0.14122,0.73363,-0.21266
-0.2555,-0.96678,0.00771,0.12058,0.67613,-0.30494
-0.24298,-0.96998,-0.01002,0.2652,-0.00031,-0.35589
-0.23003,-0.97282,-0.02671,0.2104,-0.4259,-0.45836
-0.22061,-0.97472,-0.03537,0.16064,-0.52334,-0.506
-0.21863,-0.97504,-0.03857,0.10835,-0.54775,-0.48611
-0.22806,-0.97275,-0.04187,-0.08359,-0.46901,-0.30901
-0.24008,-0.96988,-0.04106,-0.0818,-0.36137,-0.05237
-0.24025,-0.97025,-0.0298,-0.0264,-0.44491,0.16383
-0.23121,-0.97267,-0.02137,-0.18624,-1.2511,0.07951
-0.21751,-0.97536,-0.037,-0.09516,-0.5311,0.24692
-0.20208,-0.97816,-0.04861,0.21069,-0.10454,0.47852
-0.18021,-0.98336,-0.02306,0.41687,-0.42273,0.2914
-0.16487,-0.98631,0.00044,0.25053,-0.38113,0.10051
-0.16912,-0.98554,-0.00995,0.13105,-0.21071,0.02649
-0.18919,-0.98131,-0.03511,-0.17219,0.11737,0.04748
-0.21326,-0.97591,-0.046,-0.14811,0.11197,0.05838
-0.2327,-0.97176,-0.0391,0.03168,0.1233,0.08142
-0.24571,-0.96899,-0.02625,0.24031,0.44589,0.13488
-0.25088,-0.96793,-0.01317,0.29272,0.46991,0.11099
-0.24995,-0.96824,-0.00591,0.48411,0.59866,-0.0081
-0.25185,-0.96773,-0.00858,0.39173,0.74771,-0.09656
-0.26309,-0.96461,-0.01763,0.24383,0.60276,-0.0991
-0.27521,-0.96107,-0.0245,-0.08306,0.33584,-0.05661
-0.28127,-0.95931,-0.02482,-0.20028,0.14997,0.01111
-0.2809,-0.95947,-0.02268,-0.25053,0.05473,0.04107
-0.27221,-0.96191,-0.02507,-0.23029,0.19653,-0.01441
-0.25863,-0.9654,-0.03321,-0.118,0.23571,-0.19557
-0.24606,-0.96832,-0.04258,-0.12452,0.23776,-0.30379
-0.23394,-0.97123,-0.04448,-0.10717,0.03103,-0.43093
-0.22245,-0.97431,-0.03505,-0.16997,-0.12295,-0.34329
-0.2165,-0.97607,-0.02049,-0.23528,-0.07304,-0.22178
-0.21547,-0.97647,-0.00912,-0.27886,-0.28936,0.00467
-0.21662,-0.97625,-0.00347,-0.25604,-0.65244,-0.07382
-0.22082,-0.97531,0.00228,-0.2316,-0.66458,-0.05656
-0.23598,-0.97159,0.01829,0.01053,-0.44022,0.32513
-0.25929,-0.96481,0.04369,0.32521,-0.37218,0.35403
-0.28546,-0.95617,0.06522,0.41785,-0.29904,0.31742
-0.3076,-0.94897,0.06961,0.26156,-0.22378,0.29179
-0.32028,-0.94547,0.05919,0.21762,-0.2653,0.29546
-0.32848,-0.94345,0.04468,0.18031,-0.33724,0.21243
-0.33429,-0.94209,0.02683,0.03369,-0.58198,-0.0865
-0.34109,-0.94002,0.00495,-0.00928,-0.17449,-0.14008
-0.34852,-0.93715,-0.01685,-0.00186,-0.17735,-0.11828
-0.3494,-0.93632,-0.03476,-0.10276,0.31592,-0.04155
-0.34209,-0.93859,-0.04491,-0.10185,0.53565,-0.03802
-0.33251,-0.94212,-0.04296,-0.06462,0.5982,-0.02234
-0.32424,-0.94549,-0.03034,-0.01248,0.62913,-0.00828
-0.31767,-0.94808,-0.01513,0.14104,0.58976,-0.02045
-0.31301,-0.94971,-0.00836,0.14271,0.5519,-0.07149
-0.31004,-0.9506,-0.01532,0.10507,0.44665,-0.25859
-0.30793,-0.95086,-0.03243,0.07538,0.38105,-0.35486
-0.30573,-0.95077,-0.05068,0.07738,0.31814,-0.3354
-0.30381,-0.95064,-0.06308,0.06371,0.19445,-0.13787
-0.30198,-0.95116,-0.06409,0.14079,0.09224,0.0671
-0.29979,-0.95234,-0.05634,0.20984,0.08236,0.07505
-0.29929,-0.95288,-0.04937,0.21363,-0.10585,-0.13551
-0.30039,-0.95231,-0.0536,0.04625,-0.35725,-0.38737
-0.30387,-0.95037,-0.06675,-0.10242,-0.3534,-0.40592
-0.30458,-0.94946,-0.07583,-0.01607,-0.30425,-0.20745
-0.29873,-0.95158,-0.0725,0.0863,-0.51372,0.06147
-0.29219,-0.95421,-0.06405,0.14733,-0.9042,0.11948
-0.28249,-0.95667,-0.07053,0.0951,-0.90319,-0.03504
-0.27457,-0.95733,-0.09021,0.35187,-0.26008,0.20502
-0.27064,-0.95853,-0.08929,0.42687,0.00188,0.32141
-0.26314,-0.96261,-0.06426,0.49632,0.06991,0.35682
-0.25424,-0.96615,-0.04365,0.22685,0.00625,0.27159
-0.25429,-0.96591,-0.04847,0.07485,0.08482,0.23
-0.26184,-0.96265,-0.06891,-0.11877,0.04007,0.00622
-0.27023,-0.95942,-0.08051,0.00612,-0.06626,-0.02482
-0.2772,-0.95794,-0.0742,0.07624,-0.04624,0.00732
-0.27925,-0.95849,-0.05756,0.40004,0.17078,0.1309
-0.2743,-0.96076,-0.04108,0.47582,0.21949,0.08259
-0.26623,-0.96333,-0.03339,0.53709,0.26448,0.0455
-0.26403,-0.96384,-0.03606,0.44719,0.35234,0.00888
-0.27403,-0.96074,-0.04347,0.28464,0.28929,0.01245
-0.28839,-0.95628,-0.04859,0.01006,0.11999,0.04
-0.30067,-0.95256,-0.04709,-0.16621,0.14507,0.0928
-0.31037,-0.9496,-0.04382,-0.28821,0.15383,0.00634
-0.31413,-0.94821,-0.04701,-0.32242,0.21863,-0.0728
-0.31242,-0.94857,-0.05107,-0.36755,0.28536,-0.23698
-0.30723,-0.95049,-0.04656,-0.23793,0.25155,-0.23705
-0.29932,-0.9535,-0.03531,-0.17077,0.22542,-0.21889
-0.29077,-0.95649,-0.02419,-0.11792,0.09255,-0.22337
-0.28335,-0.95885,-0.01756,-0.17164,-0.00068,-0.24755
-0.27723,-0.96071,-0.01335,-0.17333,-0.049,-0.27341
-0.27301,-0.96197,-0.0088,-0.03225,-0.09649,-0.29793
-0.26892,-0.96315,-0.00332,0.03407,-0.17214,-0.29453
-0.26413,-0.96448,0.00126,0.12935,-0.30964,-0.33503
-0.26405,-0.96442,0.01303,0.26101,-0.28958,0.10012
-0.27215,-0.96161,0.03512,0.37953,-0.32554,0.34089
-0.28556,-0.95643,0.06081,0.45943,-0.32162,0.40777
-0.30081,-0.95078,0.07427,0.50383,-0.23978,0.39236
-0.31595,-0.94607,0.07157,0.43601,-0.31189,0.33705
-0.32887,-0.94252,0.05912,0.30504,-0.50969,0.1322
-0.34033,-0.93927,0.0442,0.16497,-0.67092,-0.06986
-0.34981,-0.93641,0.02752,-0.11014,-0.39632,-0.09188
-0.35379,-0.93528,0.00917,-0.10615,-0.39746,-0.07353
-0.35126,-0.93625,-0.00737,-0.27367,0.17517,-0.0262
-0.34061,-0.94002,-0.0184,-0.15542,0.43712,-0.06148
-0.32533,-0.94541,-0.01875,-0.0755,0.50726,-0.03778
-0.31169,-0.95015,-0.00838,0.0122,0.5453,-0.01809
-0.30284,-0.95302,0.00634,0.12583,0.41498,-0.05816
-0.29952,-0.95396,0.01574,0.12251,0.41592,-0.06756
-0.29888,-0.95419,0.01392,-0.01899,0.29724,-0.30577
-0.29713,-0.95483,0.00036,-0.06441,0.29984,-0.44372
-0.29101,-0.95653,-0.01892,-0.13039,0.30088,-0.42954
-0.27908,-0.95961,-0.03548,-0.26015,0.25569,-0.28266
-0.26752,-0.96252,-0.04466,-0.26639,0.24876,-0.04127
-0.26073,-0.96452,-0.04156,-0.27318,0.25076,-0.04438
-0.26049,-0.96515,-0.02517,-0.04685,0.19189,0.07379
-0.26413,-0.96447,-0.00503,0.23336,-0.07822,-0.17893
-0.26787,-0.96343,0.00683,0.28856,-0.20638,-0.30121
-0.27199,-0.96229,0.00462,0.14054,-0.36057,-0.54375
-0.27536,-0.96134,-0.00231,0.0352,-0.27197,-0.46498
-0.2738,-0.96178,-0.00445,0.01492,-0.11241,-0.32475
-0.26679,-0.96375,-0.00098,0.00684,-0.11079,-0.12787
-0.25358,-0.96731,0.00359,0.21362,-0.62592,0.07138
-0.23691,-0.97151,0.00666,0.22103,-0.60773,0.05621
-0.22066,-0.97533,0.0061,0.37025,-0.44027,0.08023
-0.20918,-0.97778,0.01347,0.50586,-0.08051,0.29182
-0.20281,-0.97865,0.03334,0.49547,0.01048,0.30826
-0.20234,-0.97804,0.04997,0.24293,0.0274,0.30033
-0.20857,-0.97675,0.04944,-0.04544,0.06382,0.24544
-0.21867,-0.9751,0.03687,-0.13882,0.0912,0.21637
-0.22875,-0.973,0.03055,-0.03547,0.02826,-0.0389
-0.23627,-0.9711,0.03378,0.08873,0.0444,-0.06286
-0.23841,-0.97039,0.03862,0.28242,0.10968,-0.06163
-0.23292,-0.97163,0.04102,0.43003,0.12538,-0.04822
-0.22214,-0.9742,0.03991,0.51079,0.15004,-0.0729
-0.2141,-0.97621,0.03427,0.49422,0.16317,-0.06639
-0.2176,-0.97569,0.02597,0.13108,0.20949,0.01817
-0.22867,-0.97334,0.01765,-0.14245,0.09123,0.08375
-0.23963,-0.97079,0.01198,-0.24657,0.06629,0.1044
-0.24809,-0.96868,0.01024,-0.41208,0.0945,0.0213
-0.25235,-0.9676,0.00844,-0.35831,0.23547,-0.10812
-0.25085,-0.96802,0.00405,-0.31506,0.33873,-0.17598
-0.246,-0.96926,0.0025,-0.18217,0.53679,-0.24362
-0.2396,-0.97083,0.00902,-0.15365,0.34601,-0.21527
-0.2312,-0.97271,0.01939,-0.13626,0.22701,-0.19277
-0.22304,-0.97439,0.0286,-0.03931,-0.02801,-0.13184
-0.21572,-0.97592,0.03217,-0.00118,-0.19688,-0.24172
-0.20877,-0.9776,0.02672,-0.00813,-0.19521,-0.23627
-0.20252,-0.97916,0.01478,-0.04539,-0.17226,-0.31048
-0.19673,-0.98045,0.00319,-0.05534,-0.31014,-0.1973
-0.19232,-0.98133,-0.00275,-0.06635,-0.33471,-0.10945
-0.19492,-0.98081,0.00236,-0.07096,-0.3532,0.02974
-0.20724,-0.97812,0.01792,-0.12415,-0.35575,0.44117
-0.22338,-0.97431,0.0286,-0.14965,-0.28399,0.54316
-0.23509,-0.97186,0.01476,0.03459,-0.0849,0.40909
-0.24499,-0.96948,-0.00908,0.0707,-0.04215,0.28443
-0.25688,-0.96618,-0.02221,0.05664,-0.07608,0.20903
-0.26875,-0.963,-0.01973,-0.01813,-0.20104,0.01558
-0.28043,-0.95971,-0.01739,-0.14321,-0.28017,0.01961
-0.28797,-0.95706,-0.0333,-0.10052,-0.2461,0.00355
-0.28891,-0.95546,-0.06022,-0.05999,0.00438,-0.03533
-0.28276,-0.95591,-0.07919,-0.19306,0.26678,-0.02943
-0.27305,-0.95855,-0.08144,-0.23237,0.3096,0.00516
-0.26473,-0.96173,-0.07059,-0.17771,0.28118,0.13571
-0.25955,-0.9641,-0.05596,-0.06015,0.2075,0.15717
-0.25627,-0.96541,-0.04803,0.07205,0.15221,0.08435
-0.25411,-0.96576,-0.0522,0.12274,0.17214,-0.04974
-0.25034,-0.96593,-0.06555,0.10642,0.28521,-0.21843
-0.24496,-0.96615,-0.08091,0.07287,0.32826,-0.21319
-0.239,-0.96664,-0.09204,0.01977,0.37234,-0.14262
-0.23571,-0.96687,-0.09801,-0.09623,0.36242,-0.06452
-0.23564,-0.96671,-0.09971,-0.09747,0.31325,-0.0154
-0.23835,-0.96608,-0.0994,-0.07397,0.29522,-0.06584
-0.24081,-0.96532,-0.10082,0.04226,0.31194,-0.01089
-0.23817,-0.96601,-0.10051,0.20555,0.14138,-0.00194
-0.22984,-0.96828,-0.09803,0.11044,-0.13745,-0.14629
-0.22027,-0.9701,-0.10193,-0.21124,-0.32753,-0.26929
-0.21311,-0.97034,-0.11409,-0.28541,-0.31577,-0.06626
-0.20845,-0.97013,-0.12405,-0.33838,-0.25646,0.03987
-0.20093,-0.97116,-0.1283,-0.35901,-0.40719,0.02108
-0.19042,-0.97241,-0.13475,-0.35816,-0.45978,-0.04394
-0.17975,-0.97275,-0.14645,-0.27624,-0.46941,-0.17798
-0.17624,-0.97129,-0.15978,-0.20543,-0.30685,0.05924
-0.17282,-0.97225,-0.15766,0.02387,-0.30534,0.2955
-0.16544,-0.97672,-0.13653,0.05584,-0.09353,0.40667
-0.15585,-0.98062,-0.11869,0.04517,0.062,0.36433
-0.14732,-0.9828,-0.11133,0.03071,0.20787,0.32273
-0.14391,-0.98391,-0.10583,-0.13812,0.37466,0.3363
-0.14589,-0.98498,-0.0924,-0.26241,0.32656,0.28564
-0.1496,-0.98622,-0.07065,-0.23537,0.29042,0.19594
-0.1533,-0.98704,-0.04739,0.07809,0.0109,0.03696
-0.15476,-0.98748,-0.03061,0.2336,-0.20678,0.00422
-0.15275,-0.98796,-0.02425,0.23159,-0.20629,-0.00213
-0.15206,-0.98805,-0.02529,0.24017,0.04287,-0.02
-0.15486,-0.9875,-0.02919,0.09529,0.2352,0.01503
-0.16311,-0.98605,-0.03308,0.10354,0.23375,0.01892
-0.17504,-0.98388,-0.03655,-0.23573,0.21911,0.12832
-0.18893,-0.98127,-0.03755,-0.39072,0.18915,0.14988
-0.2025,-0.97864,-0.03555,-0.37715,0.18652,0.14788
-0.21041,-0.97701,-0.03433,-0.38296,0.16873,0.00645
-0.21105,-0.97678,-0.03668,-0.15749,0.17243,-0.14748
-0.20671,-0.97744,-0.04337,-0.08092,0.16575,-0.1873
-0.20102,-0.97812,-0.05355,0.02977,0.15964,-0.20711
-0.19621,-0.9784,-0.06498,0.02368,0.26741,-0.10812
-0.19157,-0.97879,-0.07258,-0.0069,0.33157,-0.04142
-0.18473,-0.98011,-0.07243,-0.09701,0.3461,0.03982
-0.17742,-0.9819,-0.06625,-0.21311,0.18095,0.01072
-0.17276,-0.98311,-0.06034,-0.23673,0.05071,-0.0963
-0.17008,-0.98371,-0.0581,-0.19096,-0.0723,-0.0994
-0.16761,-0.98419,-0.0572,-0.1672,-0.29538,-0.17936
-0.16563,-0.98443,-0.05875,-0.16927,-0.39525,-0.18278
-0.1678,-0.98422,-0.05612,-0.183,-0.33869,0.00131
-0.17413,-0.98362,-0.04657,-0.15329,-0.4373,0.32022
-0.18612,-0.98192,-0.03439,-0.12083,-0.32853,0.39047
-0.20601,-0.97828,-0.02299,-0.01669,0.09061,0.48352
-0.23216,-0.97258,-0.01375,0.03307,0.2361,0.46259
-0.25668,-0.96645,-0.00951,0.0478,0.24434,0.42635
-0.27341,-0.96178,-0.01491,0.13751,-0.03262,0.15732
-0.28279,-0.9587,-0.03044,0.18581,-0.37253,-0.03044
-0.28578,-0.9569,-0.05163,0.15225,-0.51826,-0.09175
-0.2851,-0.9555,-0.0757,-0.10299,-0.43534,-0.13302
-0.28627,-0.95305,-0.09865,-0.15285,-0.01945,0.02128
-0.28807,-0.95099,-0.1124,-0.13574,0.09558,0.09447
-0.29075,-0.95024,-0.11185,-0.24342,0.28279,0.24158
-0.29506,-0.95047,-0.09771,-0.1862,0.19525,0.29091
-0.29755,-0.95165,-0.07628,-0.04761,0.03336,0.20292
-0.29704,-0.95277,-0.06318,0.00376,-0.0708,0.01376
-0.29284,-0.95361,-0.06978,-0.04717,-0.02489,-0.1751
-0.28197,-0.95521,-0.08973,-0.04712,0.04684,-0.19395
-0.26649,-0.95778,-0.10788,0.0695,0.31908,-0.04824
-0.25181,-0.96087,-0.11537,0.11432,0.44395,0.07678
-0.24312,-0.96325,-0.11422,0.10243,0.50243,0.10962
-0.24242,-0.9639,-0.11009,0.13567,0.57312,0.09844
-0.24889,-0.96241,-0.10871,0.163,0.53512,0.03168
-0.25986,-0.95914,-0.11188,0.17726,0.4953,0.01113
-0.27136,-0.95541,-0.11638,0.15831,0.34228,-0.057
-0.27902,-0.95294,-0.11857,0.09266,0.18824,-0.05618
-0.28166,-0.95227,-0.11765,0.04847,0.12505,-0.0428
-0.28133,-0.95301,-0.11231,-0.01769,0.06312,0.07938
-0.28124,-0.95404,-0.10343,-0.00184,0.10095,0.132
-0.28216,-0.95437,-0.09781,0.02177,0.11175,0.13602
-0.28355,-0.95373,-0.09995,0.13664,0.07519,-0.03161
-0.28568,-0.95236,-0.10672,0.13588,0.05391,-0.08011
-0.28875,-0.95066,-0.11344,0.13291,0.03489,-0.10268
-0.29182,-0.94934,-0.1166,0.17181,0.07537,-0.04118
-0.293,-0.94929,-0.114,0.18811,0.1007,0.20774
-0.28741,-0.95212,-0.10422,0.14234,0.03986,0.2983
-0.27244,-0.95732,-0.09646,-0.15537,-0.20329,0.3215
-0.2514,-0.96317,-0.09539,-0.27112,-0.3448,0.28069
-0.23008,-0.96851,-0.09509,-0.29844,-0.48684,0.30217
-0.21319,-0.97185,-0.10031,-0.55248,-1.04383,-0.05164
-0.20989,-0.97202,-0.1054,-0.01716,-0.78536,-0.26836
-0.22135,-0.96999,-0.10058,0.11447,-0.47633,-0.27144
-0.23672,-0.96694,-0.09481,0.18632,0.07555,-0.28962
-0.25356,-0.96292,-0.09215,0.21722,0.3177,-0.1738
-0.269,-0.95905,-0.08865,0.06782,0.44095,-0.06151
-0.28038,-0.95594,-0.08697,-0.14987,0.47413,0.0066
-0.28604,-0.95391,-0.09077,-0.24126,0.4702,0.02105
-0.28793,-0.95245,-0.0997,-0.25286,0.42651,0.05262
-0.28881,-0.95123,-0.10834,-0.26134,0.1904,0.14472
-0.28599,-0.95149,-0.11348,-0.1444,-0.00602,0.0942
-0.2777,-0.95362,-0.11615,-0.02426,0.02054,0.08447
-0.26754,-0.95602,-0.12014,0.08752,0.07336,0.06421
-0.25937,-0.95731,-0.12756,0.11673,0.31205,-0.19323
-0.25479,-0.95765,-0.1341,0.04547,0.35633,-0.17509
-0.25401,-0.95815,-0.13202,-0.01428,0.37872,-0.10836
-0.25608,-0.95895,-0.1218,-0.01441,0.35838,0.32136
-0.25779,-0.9601,-0.10835,-0.0127,0.35953,0.3079
-0.25843,-0.96163,-0.09209,0.2746,0.11086,0.32247
-0.26054,-0.96227,-0.07841,0.16442,-0.20466,-0.01326
-0.26688,-0.96078,-0.07525,0.10999,-0.36788,-0.18932
-0.2748,-0.95841,-0.07705,0.0674,-1.32336,-0.45205
-0.28352,-0.95516,-0.08527,-0.38747,-1.74309,-0.35508
-0.30302,-0.94838,-0.09355,-0.48273,-1.45818,-0.22776
-0.32404,-0.94122,-0.09534,-0.28907,-0.20592,0.00011
-0.34,-0.93699,-0.08029,-0.13305,0.26241,0.09915
-0.34632,-0.9365,-0.0549,-0.114,0.38675,0.06712
-0.34472,-0.93816,-0.03172,-0.03887,0.58518,-0.07076
-0.33951,-0.94044,-0.01726,0.1016,0.59733,-0.1747
-0.33179,-0.94322,-0.01555,0.16829,0.54289,-0.21028
-0.32138,-0.9466,-0.02555,0.2687,0.38325,-0.2425
-0.30696,-0.95081,-0.04166,0.21148,0.36835,-0.19331
-0.29336,-0.95436,-0.05596,0.16509,0.36464,-0.15732
-0.28794,-0.95574,-0.06042,0.12325,0.29956,0.02253
-0.29264,-0.95478,-0.05248,0.10508,0.22175,0.093
-0.30497,-0.95166,-0.03657,0.09934,0.19169,0.09853
-0.31858,-0.94775,-0.01646,0.09188,0.1309,0.0469
-0.32605,-0.94534,0.00312,0.15401,0.02394,-0.03811
-0.32397,-0.94593,0.01598,0.18573,-0.04763,-0.07041
-0.31677,-0.94832,0.01837,0.21829,-0.16675,-0.13861
-0.3102,-0.95061,0.01043,0.28184,-0.05583,-0.10861
-0.30425,-0.95259,-0.00168,0.37287,0.00502,0.04094
-0.29761,-0.95462,-0.01075,0.24333,-0.03097,0.21589
-0.28816,-0.95745,-0.01587,0.00875,-0.17272,0.27478
-0.27558,-0.96111,-0.01783,-0.10847,-0.24842,0.27384
-0.26292,-0.96461,-0.01973,-0.39014,-0.43422,0.21477
-0.25227,-0.96729,-0.02663,-0.66202,-0.76324,0.0223
-0.2486,-0.96775,-0.04066,-0.66569,-0.76278,0.03632
-0.2563,-0.96522,-0.0516,-0.13274,-0.53817,-0.30111
-0.26795,-0.96141,-0.0624,0.0112,-0.03704,-0.4116
-0.28046,-0.95685,-0.07598,0.02371,-0.04159,-0.39802
-0.29138,-0.95301,-0.08283,0.18415,0.19215,-0.25193
-0.29878,-0.95112,-0.078,0.12348,0.46683,-0.0616
-0.30351,-0.95039,-0.06805,0.1282,0.46609,-0.07155
-0.30563,-0.95018,-0.06117,0.08552,0.5258,0.1763
-0.30586,-0.94992,-0.06398,-0.09206,0.21994,0.09381
-0.30527,-0.94925,-0.07575,-0.12259,0.15028,0.04562
-0.30403,-0.94854,-0.08849,-0.13962,0.03797,-0.04089
-0.3014,-0.9485,-0.09746,-0.03169,0.0562,-0.06518
-0.29663,-0.94957,-0.1016,0.02264,0.13436,-0.01824
-0.29009,-0.95153,-0.10213,0.05177,0.21755,0.00441
-0.2832,-0.95354,-0.10272,-0.03745,0.43511,-0.07857
-0.27637,-0.95534,-0.10456,-0.04427,0.43691,-0.07673
-0.27007,-0.95705,-0.10541,-0.07408,0.31783,0.00941
-0.26384,-0.95908,-0.10268,-0.04051,0.1879,0.08085
-0.25791,-0.96127,-0.0971,0.10812,0.10477,0.30169
-0.25132,-0.96398,-0.08701,0.23455,0.04658,0.36327
-0.24468,-0.96665,-0.07552,0.28268,-0.18618,0.11519
-0.24272,-0.9674,-0.07226,0.22397,-0.33917,-0.07124
-0.251,-0.96507,-0.07504,0.20289,-0.68716,-0.29561
-0.26292,-0.96212,-0.07213,0.146,-1.10794,-0.34058
-0.27687,-0.9583,-0.07065,-0.13278,-1.31339,-0.32311
-0.29649,-0.95178,-0.07869,-0.52957,-0.56477,-0.13414
-0.31371,-0.94544,-0.08793,-0.30156,-0.01069,-0.01342
-0.32624,-0.94129,-0.08688,-0.20747,0.20368,0.03024
-0.3306,-0.94076,-0.07532,0.00975,0.35672,0.04423
-0.32956,-0.94226,-0.0594,0.04097,0.34869,-0.03383
-0.32593,-0.94426,-0.04624,0.05446,0.35542,-0.1253
-0.31826,-0.94697,-0.04415,0.26492,0.34663,-0.26399
-0.30623,-0.95039,-0.05463,0.28912,0.37313,-0.22537
-0.29308,-0.95348,-0.07055,0.29615,0.4038,-0.16941
-0.28493,-0.9553,-0.07877,0.28031,0.474,0.00915
-0.28628,-0.95536,-0.07294,0.22796,0.46301,0.06969
-0.29753,-0.9529,-0.05872,0.18526,0.43418,0.08196
-0.31387,-0.94849,-0.04311,0.08807,0.27035,0.13776
-0.32766,-0.94435,-0.02905,0.08779,0.15732,0.06288
-0.33371,-0.94249,-0.01871,0.07709,0.07028,-0.00534
-0.33166,-0.9433,-0.01334,0.11238,-0.1504,-0.10427
-0.32508,-0.94562,-0.01099,0.19796,-0.16487,-0.06596
-0.31523,-0.94891,-0.01369,0.24583,-0.15498,0.02627
-0.30011,-0.95368,-0.02084,0.33436,-0.38395,0.25137
-0.28228,-0.95871,-0.03448,0.01967,-0.52774,0.15843
-0.26913,-0.96172,-0.05155,-0.14707,-0.52358,0.11133
-0.26174,-0.96326,-0.06014,-0.50436,-0.6461,0.21346
-0.25678,-0.96433,-0.06423,-0.7073,-0.9561,0.01781
-0.25827,-0.96419,-0.06034,-0.49147,-0.86899,-0.01044
-0.26669,-0.9624,-0.0516,0.07799,-0.22866,-0.28029
-0.27362,-0.9604,-0.05256,0.24609,0.22108,-0.40911
-0.28077,-0.95776,-0.06219,0.24307,0.33204,-0.33862
-0.28835,-0.95497,-0.06987,0.13106,0.37116,-0.19022
-0.29554,-0.9526,-0.07217,-0.05947,0.47459,0.05475
-0.30153,-0.95092,-0.06949,-0.05348,0.47291,0.05207
-0.30494,-0.95011,-0.06556,-0.15182,0.44984,0.19557
-0.30465,-0.95017,-0.0661,-0.18874,0.14485,0.10844
-0.30107,-0.95091,-0.07159,-0.13661,0.06451,0.06004
-0.29606,-0.95201,-0.07761,-0.00355,0.01433,-0.01738
-0.29062,-0.95326,-0.08263,0.11745,0.14233,-0.07411
-0.28308,-0.95524,-0.08591,0.10991,0.14431,-0.07082
-0.27555,-0.9573,-0.08739,0.12193,0.32252,-0.07597
-0.27064,-0.95858,-0.08875,-0.00455,0.43313,-0.06766
-0.26871,-0.95899,-0.09014,-0.05988,0.45244,-0.05529
-0.26745,-0.95935,-0.09004,-0.1536,0.44948,-0.05824
-0.26488,-0.9601,-0.08974,-0.15637,0.21026,-0.07579
-0.26145,-0.96111,-0.08898,-0.08009,0.11795,0.08612
-0.25688,-0.9628,-0.08375,0.0049,0.0658,0.18443
-0.25151,-0.96515,-0.0723,0.19917,-0.18603,0.25403
-0.24882,-0.9666,-0.0614,0.18696,-0.3322,0.17268
-0.25424,-0.96525,-0.06036,0.05424,-0.66683,-0.17858
