gravity.x,gravity.y,gravity.z,userAcceleration.x,userAcceleration.y,userAcceleration.z
0.35822,0.92229,-0.14507,-0.00492,-0.2599,0.05387
0.35775,0.92149,-0.15119,-0.18953,-0.38197,-0.13815
0.35043,0.92208,-0.16415,-0.0684,-0.37464,-0.14907
0.33982,0.92255,-0.18274,0.06572,-0.39178,-0.04176
0.33258,0.92041,-0.20547,0.05711,-0.58356,0.04829
0.32882,0.91625,-0.22879,-0.01356,-0.64343,0.19952
0.32698,0.91157,-0.24921,-0.15085,-0.56854,0.41392
0.32404,0.90687,-0.2694,-0.31743,-0.09588,0.27172
0.32144,0.89917,-0.2969,-0.3537,0.90429,0.04035
0.32527,0.88556,-0.33162,0.00872,1.18935,0.39002
0.33219,0.87404,-0.35452,0.07713,0.38617,-0.00075
0.33407,0.86825,-0.36678,0.39547,0.30498,-0.17486
0.33735,0.86076,-0.38115,0.49261,1.02738,-0.24089
0.34772,0.85233,-0.39066,0.05154,0.92589,-0.26452
0.36052,0.849,-0.38627,-0.20223,0.08819,-0.19966
0.36904,0.84987,-0.37618,-0.13622,-0.57897,-0.15275
0.37267,0.85372,-0.36368,0.01814,-0.43346,-0.00172
0.3735,0.8601,-0.34743,0.11683,-0.17187,-0.00171
0.37347,0.86873,-0.32529,0.01915,-0.10411,-0.08582
0.36865,0.87934,-0.30139,-0.08499,-0.18258,-0.1037
0.35899,0.8905,-0.27949,-0.11669,-0.34775,-0.05403
0.34758,0.90048,-0.26135,-0.17095,-0.47215,0.03435
0.33794,0.90793,-0.24788,-0.2764,-0.51094,0.09816
0.3332,0.91301,-0.23531,-0.2989,-0.16927,0.08516
0.33217,0.91679,-0.22169,-0.34724,0.029,0.0925
0.33026,0.91983,-0.21171,-0.46485,0.33306,0.11391
0.33072,0.92095,-0.20607,-0.35019,-0.46903,0.23045
0.33232,0.92208,-0.19828,-0.36116,-0.58993,0.2862
0.33303,0.92348,-0.19041,-0.25153,-0.70688,0.05719
0.3344,0.92366,-0.1871,-0.03759,-0.4661,0.25407
0.34136,0.91979,-0.1935,0.50668,0.19575,0.22769
0.34636,0.91713,-0.19721,0.98711,1.07637,-0.05628
0.34588,0.91957,-0.18639,-0.04687,0.66165,0.10674
0.34265,0.92064,-0.18707,0.01372,1.23015,0.18137
0.34036,0.9198,-0.1952,0.35186,0.51271,-0.31406
0.34276,0.91851,-0.19708,0.40779,-0.41979,-0.13418
0.34732,0.91696,-0.19632,0.35153,-0.48792,-0.094
0.35398,0.9161,-0.18824,0.33648,0.0747,-0.1153
0.35726,0.91708,-0.17698,0.31146,0.68716,0.00648
0.35449,0.92002,-0.16698,0.30401,0.45236,0.03827
0.35319,0.92267,-0.15465,0.1074,-0.05323,0.01405
0.35179,0.92399,-0.14992,-0.27035,-0.28957,0.09878
0.34758,0.92402,-0.15924,-0.31748,-0.29307,0.13852
0.34106,0.92254,-0.18048,-0.1394,-0.673,0.21185
0.33395,0.91937,-0.20789,-0.19772,-0.79436,0.2051
0.33452,0.91182,-0.23804,-0.29597,-0.91674,0.21972
0.34681,0.89776,-0.27153,-0.36808,-0.84456,0.01052
0.3638,0.87865,-0.30921,-0.24887,-0.19318,-0.0602
0.37803,0.8568,-0.35069,-0.05651,0.47838,0.12773
0.38541,0.83355,-0.39579,0.86754,1.19935,-0.02265
0.38958,0.82525,-0.40888,0.31309,0.67144,0.08324
0.39487,0.82363,-0.40707,-0.22763,0.09837,-0.37645
0.3978,0.82328,-0.40491,-0.10803,0.01168,-0.13397
0.39678,0.82442,-0.40358,-0.13645,0.58294,-0.05786
0.39988,0.82204,-0.40538,0.15562,0.37909,0.04216
0.40297,0.8232,-0.39993,-0.08847,0.10225,0.12589
0.40635,0.83037,-0.38125,-0.15055,-0.05281,0.02975
0.41033,0.84228,-0.34954,-0.17963,-0.04251,-0.10644
0.41298,0.85386,-0.31678,-0.04439,-0.2193,-0.25673
0.40988,0.86344,-0.29403,0.00015,-0.381,-0.36405
0.40278,0.87126,-0.28046,-0.09032,-0.43025,-0.05291
0.3962,0.87826,-0.26769,-0.46522,-0.12073,0.09841
0.38472,0.88843,-0.25034,-0.49368,-0.01105,0.14982
0.37243,0.89969,-0.22766,-0.47036,0.01412,0.17999
0.36913,0.90533,-0.21001,-0.3245,-0.42245,0.36684
0.3721,0.90681,-0.19802,-0.19766,-0.64189,0.30744
0.37735,0.90722,-0.18587,-0.01682,-0.53011,0.35457
0.38842,0.90411,-0.17804,0.6307,0.51928,0.24407
0.39941,0.89965,-0.17629,0.58178,1.90665,-0.0978
0.39563,0.89909,-0.18734,0.58556,1.90721,-0.08676
0.36813,0.90746,-0.20245,-0.08927,1.09167,-0.411
0.35869,0.91095,-0.20371,0.33969,-1.23511,-0.28015
0.36298,0.90862,-0.20647,0.5221,-1.18668,-0.00404
0.37535,0.90377,-0.20564,0.57875,-0.31822,0.1528
0.38593,0.90221,-0.19248,0.11245,1.40295,0.2745
0.38482,0.9073,-0.16942,-0.16082,1.16822,0.13665
0.38896,0.91042,-0.1408,-0.3771,-0.11231,-0.08017
0.38693,0.91294,-0.12961,-0.37571,-0.62158,0.15923
0.37987,0.91671,-0.1238,-0.35432,-0.51259,0.12574
0.37226,0.9207,-0.11708,-0.19581,-0.37555,0.02564
0.36717,0.92322,-0.11325,0.19365,-0.18895,-0.07916
0.36586,0.92393,-0.11173,0.22659,-0.26476,-0.13372
0.36735,0.92253,-0.11824,0.31577,-0.31609,-0.10979
0.36741,0.92103,-0.1292,0.21984,-0.33941,-0.14163
0.36168,0.92087,-0.14549,0.20556,-0.3253,-0.03102
0.353,0.92066,-0.16661,0.04867,-0.37723,0.16565
0.34397,0.91998,-0.18789,-0.18622,-0.35324,0.26017
0.33622,0.91834,-0.20879,-0.30114,-0.26685,0.25178
0.33023,0.91464,-0.23315,-0.40587,0.71176,-0.02406
0.32711,0.90836,-0.26051,-0.19081,0.90849,0.15102
0.32932,0.89836,-0.29064,0.14596,0.87776,0.26914
0.33489,0.88865,-0.31325,0.4963,0.46854,-0.09108
0.33893,0.88228,-0.32664,0.35736,0.45798,-0.01093
0.34689,0.87553,-0.3363,0.24084,0.89795,-0.29397
0.3579,0.86906,-0.34152,-0.07689,0.22327,-0.19037
0.36592,0.86521,-0.34277,-0.05599,-0.04681,-0.09006
0.36491,0.86678,-0.33987,0.02798,-0.31898,0.11219
0.35665,0.87328,-0.33192,-0.07765,-0.399,0.17317
0.34668,0.88298,-0.31645,-0.21965,-0.37903,0.12813
0.33812,0.89296,-0.29713,-0.30922,-0.40335,0.11679
0.32984,0.90238,-0.2773,-0.2667,-0.48617,0.23636
0.32122,0.91131,-0.25753,-0.25373,-0.49113,0.15781
0.31519,0.91881,-0.23754,-0.25531,-0.50566,0.06936
0.3108,0.92459,-0.22027,-0.34907,-0.33957,-0.00677
0.30523,0.92882,-0.21004,-0.34957,-0.08932,-0.04064
0.30199,0.9306,-0.20682,-0.32271,-0.03635,-0.06204
0.30843,0.92919,-0.20362,-0.12505,-0.43384,0.01757
0.32136,0.92629,-0.19672,-0.19035,-0.49007,0.10285
0.33609,0.92266,-0.18902,-0.18957,-0.44102,0.0723
0.3427,0.92065,-0.18692,0.08818,-0.06057,0.2475
0.3382,0.9204,-0.19615,0.77406,1.19697,0.36226
0.33273,0.9218,-0.19891,0.77953,1.19558,0.36502
0.33557,0.92399,-0.18336,0.22582,0.32217,-0.19373
0.34251,0.92218,-0.1796,0.36962,0.70917,-0.07476
0.34579,0.92061,-0.18136,0.22508,0.75298,-0.13443
0.34262,0.92245,-0.17796,0.21708,0.24947,-0.08507
0.34165,0.92442,-0.16942,0.20483,0.02945,0.00255
0.34421,0.92615,-0.15408,0.36007,0.04769,-0.04841
0.34794,0.92793,-0.13366,0.28601,0.06374,-0.15987
0.34993,0.92958,-0.11583,0.17302,0.01551,-0.18701
0.34892,0.93111,-0.10618,0.1084,-0.00374,-0.14956
0.34537,0.93278,-0.10302,0.0745,-0.13154,-0.04996
0.33984,0.93505,-0.10085,0.08699,-0.37348,-0.04038
0.33292,0.93761,-0.10021,0.08643,-0.55014,0.05855
0.32549,0.93984,-0.10359,-0.05201,-0.58459,0.05116
0.31721,0.94163,-0.11263,-0.19372,-0.51387,0.07113
0.30815,0.94248,-0.12946,-0.12921,-0.50718,0.20888
0.29883,0.94215,-0.15177,-0.17076,-0.61667,0.28379
0.29143,0.94059,-0.17422,-0.32295,-0.66407,0.13183
0.28531,0.93824,-0.19565,-0.27939,-0.54045,0.15747
0.28379,0.93378,-0.21794,0.21081,1.20365,-0.09929
0.29156,0.92275,-0.25199,0.52854,1.26798,-0.03664
0.30515,0.90975,-0.28148,0.44276,0.65951,-0.22493
0.31451,0.90374,-0.2904,0.45487,0.6766,-0.42572
0.32459,0.89718,-0.29948,0.44479,0.68316,-0.41664
0.33325,0.89098,-0.30835,0.23985,0.56529,-0.27771
0.33266,0.89062,-0.31003,0.02603,0.20671,-0.18588
0.32688,0.89448,-0.30503,-0.00614,0.02706,-0.13968
0.31776,0.90083,-0.29584,0.01799,-0.31518,0.00522
0.30739,0.90893,-0.28167,-0.08682,-0.23727,0.02555
0.29761,0.91727,-0.26463,-0.12016,-0.2726,0.09341
0.28708,0.92589,-0.24555,-0.14934,-0.44272,0.10912
0.27526,0.93479,-0.22448,-0.14337,-0.51322,0.08338
0.26316,0.9432,-0.20276,-0.13302,-0.5281,-0.00217
0.25474,0.94929,-0.18422,-0.10034,-0.54357,-0.07141
0.24942,0.95321,-0.17079,-0.11914,-0.43384,0.02328
0.24479,0.9558,-0.16283,-0.19303,-0.18507,0.00019
0.23953,0.95735,-0.16154,-0.32819,0.15942,-0.06434
0.23991,0.95635,-0.16677,-0.29205,0.00204,-0.13961
0.24367,0.95391,-0.17511,-0.16518,-0.50007,-0.17027
0.25007,0.9502,-0.18593,-0.14967,-0.67589,0.28303
0.25503,0.9446,-0.20658,0.22555,0.73477,0.17431
0.25274,0.93587,-0.24546,0.61625,1.46508,0.61436
0.24785,0.927,-0.28148,1.38404,1.88669,0.77681
0.24723,0.92746,-0.28049,0.04704,0.36019,0.15062
0.25282,0.92901,-0.27021,0.04314,0.91223,-0.16662
0.26045,0.92301,-0.28319,0.03551,0.91822,-0.15364
0.25937,0.92187,-0.28787,0.66619,0.42435,0.02754
0.26537,0.92356,-0.27677,0.56718,-0.11506,-0.11525
0.2704,0.92815,-0.25573,0.45145,-0.15548,-0.01494
0.26605,0.93589,-0.23089,0.23553,-0.16677,0.12437
0.26224,0.9434,-0.20299,0.0858,-0.00464,0.1525
0.26284,0.94911,-0.17346,-0.20553,-0.08514,0.12478
0.26411,0.95334,-0.14617,-0.31114,-0.27376,0.06871
0.26083,0.95736,-0.1241,-0.23133,-0.49672,0.10241
0.25039,0.96201,-0.10873,-0.09179,-0.71798,0.11127
0.23507,0.9673,-0.09513,0.06006,-0.65356,0.02902
0.21741,0.9728,-0.07978,0.25448,-0.25433,0.01086
0.20303,0.97699,-0.06519,0.21758,-0.03874,-0.08276
0.19417,0.97927,-0.05752,0.05758,0.02374,-0.19466
0.18365,0.98132,-0.0571,0.402,0.04471,-0.25352
0.17174,0.9832,-0.0616,0.67965,-0.03595,-0.22966
0.15882,0.98506,-0.06643,0.93152,-0.14366,-0.23567
0.14791,0.98673,-0.06683,0.49414,-0.02067,0.12192
0.14433,0.98733,-0.06582,0.32653,0.07862,0.19158
0.14702,0.98651,-0.07183,0.17903,0.05551,0.30622
0.15186,0.98475,-0.08483,0.54152,0.30995,0.3857
0.15742,0.98139,-0.10991,0.59583,0.48184,0.37477
0.1665,0.97623,-0.13871,0.1545,0.45549,0.26281
0.18138,0.97001,-0.16174,-0.02384,0.35092,0.23229
0.19504,0.96447,-0.17817,-0.17528,0.26518,0.09512
0.20142,0.96019,-0.19352,0.2908,0.19571,0.08985
0.19967,0.95651,-0.2126,0.41497,0.12341,0.11027
0.19538,0.95319,-0.23075,0.48699,0.08359,0.13093
0.19141,0.95005,-0.24646,0.27557,-0.00488,0.16312
0.19061,0.94691,-0.25886,0.08947,-0.00674,0.20587
0.1931,0.94373,-0.26847,0.05437,-0.12625,0.25006
0.19346,0.94238,-0.2729,0.13306,-0.24292,0.33244
0.18843,0.94446,-0.26922,0.07192,-0.3811,0.36731
0.17784,0.94829,-0.26287,-0.10155,-0.35392,0.30004
0.16587,0.9506,-0.26235,-0.14444,-0.15397,0.23157
0.15699,0.95183,-0.26334,-0.09662,-0.19958,0.23191
0.15172,0.95364,-0.25986,-0.07131,-0.22574,0.1373
0.15029,0.9562,-0.25116,-0.00538,-0.18677,0.01077
0.15134,0.95836,-0.24214,0.11921,-0.09779,-0.1041
0.15175,0.9603,-0.23404,0.20377,-0.05605,-0.05234
0.15134,0.96175,-0.2283,0.19207,-0.07468,-0.09232
0.15219,0.96329,-0.22114,0.14096,-0.04171,-0.1375
0.15584,0.96414,-0.21479,0.11551,-0.00936,-0.22698
0.16119,0.96375,-0.21256,0.26772,-0.08878,-0.17848
0.16704,0.96217,-0.21518,0.15914,-0.13869,-0.27176
0.17625,0.95961,-0.21924,0.19803,0.08421,-0.04598
0.18923,0.95342,-0.23487,0.40687,0.51887,0.08372
0.20285,0.94752,-0.24707,0.11252,0.24103,0.32679
0.21585,0.94585,-0.24241,-0.04124,0.4015,0.31122
0.22273,0.94638,-0.23396,0.19702,0.19052,-0.00899
0.21335,0.94968,-0.22929,0.41659,-0.45122,0.31603
0.20477,0.95023,-0.23476,0.46543,-0.37127,0.38569
0.212,0.94859,-0.23499,0.3578,0.02774,0.55298
0.2247,0.94971,-0.21803,0.26978,0.50326,0.28595
0.23199,0.95432,-0.18822,-0.02388,0.38804,-0.06011
0.23452,0.95823,-0.16362,0.13805,0.03354,0.1798
0.2366,0.96017,-0.14859,0.15227,-0.07218,0.29982
0.23941,0.9615,-0.13485,0.04097,0.01806,0.13096
0.23721,0.96412,-0.11914,-0.01536,0.02085,-0.05171
0.22997,0.96749,-0.10515,0.17301,-0.20443,-0.10674
0.22551,0.96969,-0.094,0.22409,-0.32309,-0.0539
0.22694,0.9704,-0.08254,0.1589,-0.53814,0.08831
0.2307,0.97064,-0.06792,0.13486,-0.30498,0.02211
0.23207,0.97129,-0.05213,0.11513,-0.14507,-0.03138
0.23188,0.97187,-0.04089,0.04569,0.0358,-0.11492
0.23205,0.97195,-0.03796,0.11995,-0.09517,-0.16656
0.2305,0.97219,-0.04116,0.19893,-0.12332,-0.12913
0.22694,0.97285,-0.04506,0.38503,-0.01894,-0.01618
0.22272,0.97359,-0.04995,0.35829,-0.09377,0.07151
0.21813,0.97416,-0.05835,0.25167,-0.14335,0.10185
0.2122,0.97472,-0.06982,0.20084,0.2218,0.419
0.20646,0.97448,-0.08803,0.15127,0.43488,0.53787
0.20455,0.97144,-0.12017,-0.24213,0.32368,0.22605
0.21012,0.96596,-0.15085,-0.03206,0.19116,0.14874
0.21728,0.95985,-0.17735,0.13428,0.33717,-0.01298
0.22663,0.95321,-0.20003,0.42436,0.39484,-0.10039
0.2342,0.94676,-0.22086,0.3843,-0.02251,-0.11431
0.23999,0.94142,-0.23689,0.20552,-0.0397,-0.05298
0.24502,0.93713,-0.24847,0.1411,0.01082,-0.04983
0.24975,0.93347,-0.25737,0.02439,0.23048,-0.01326
0.25546,0.9306,-0.26212,-0.01208,0.1079,0.03985
0.26465,0.9279,-0.26258,-0.00411,-0.05902,0.09583
0.27457,0.92589,-0.25949,0.05613,-0.49079,0.18919
0.28137,0.92601,-0.25166,0.00211,-0.50908,0.18511
0.28141,0.92873,-0.24135,-0.25391,-0.30564,0.09164
0.27983,0.93197,-0.23045,-0.15714,-0.32487,0.07826
0.2783,0.93478,-0.22071,-0.07835,-0.32364,0.0617
0.27721,0.93685,-0.21321,-0.04331,-0.35152,-0.00541
0.27723,0.93873,-0.20472,-0.00904,-0.44076,-0.03779
0.27743,0.94096,-0.19394,-0.03917,-0.46932,-0.04626
0.27674,0.94346,-0.18244,-0.01738,-0.48004,-0.05853
0.27651,0.94613,-0.16842,-0.06465,-0.54647,-0.04542
0.27788,0.9482,-0.15386,-0.226,-0.52419,-0.00451
0.2818,0.94884,-0.14237,-0.33766,-0.43363,0.1021
0.28608,0.94897,-0.13263,-0.29765,-0.20898,0.15742
0.28851,0.94947,-0.1235,-0.2471,-0.04374,0.12648
0.29675,0.94765,-0.11781,-0.05563,-0.08933,0.29753
0.31184,0.9433,-0.11362,0.07211,-0.15923,0.18271
0.32678,0.9386,-0.1106,0.33408,0.11392,0.20012
0.3381,0.93438,-0.1123,0.83648,0.71771,-0.0457
0.33854,0.93472,-0.10806,0.21311,0.81167,-0.013
0.33593,0.93662,-0.09939,-0.22071,0.76876,-0.07933
0.33205,0.93609,-0.11599,0.36654,1.64885,0.36344
0.33123,0.93466,-0.12914,0.58073,0.12285,-0.43417
0.33743,0.9319,-0.13296,0.45132,-0.06104,-0.17217
0.34564,0.92822,-0.13757,0.3915,-0.07945,-0.25362
0.35072,0.92741,-0.12991,0.27365,-0.15941,-0.34278
0.34945,0.92953,-0.1176,0.08199,-0.03277,-0.05658
0.34317,0.93394,-0.09984,0.0136,-0.22452,0.11762
0.33615,0.93871,-0.0762,-0.0622,-0.24274,0.05266
0.33135,0.94201,-0.05298,-0.18684,-0.034,-0.00467
0.32548,0.9446,-0.04202,-0.27443,-0.09081,-0.02103
0.3141,0.94826,-0.04618,-0.11393,-0.33566,0.12602
0.29942,0.9526,-0.05366,0.08298,-0.51826,0.1144
0.28756,0.95558,-0.06448,0.05775,-0.54275,0.02869
0.28007,0.95619,-0.08511,-0.00824,-0.51837,-0.14296
0.27401,0.95548,-0.10936,-0.11936,-0.66866,0.17797
0.27099,0.95343,-0.13237,-0.22502,-0.72635,0.21412
0.27192,0.94933,-0.15752,-0.28959,-0.38936,0.14971
0.28152,0.93948,-0.19521,0.27048,1.45853,0.01671
0.29338,0.92827,-0.22852,0.27391,1.50677,-0.02243
0.30209,0.92265,-0.23967,-0.06576,0.54816,-0.23659
0.31724,0.91565,-0.24682,0.4137,0.25273,-0.06476
0.33814,0.90446,-0.25998,0.58791,0.25634,-0.1409
0.35054,0.89852,-0.26413,-0.03469,0.25155,-0.31241
0.35665,0.8977,-0.25869,-0.16673,0.18531,-0.33614
0.35995,0.89953,-0.24752,-0.24893,0.00068,-0.23513
0.36016,0.902,-0.23802,0.09124,-0.28256,-0.03102
0.35867,0.90605,-0.22455,0.0496,-0.28791,-0.0432
0.35738,0.91149,-0.2036,-0.002,-0.28992,-0.07295
0.35536,0.91784,-0.17683,-0.14053,-0.35015,-0.15553
0.35155,0.92405,-0.15012,-0.20142,-0.41239,-0.06732
0.34542,0.92887,-0.13363,-0.29131,-0.46272,-0.01206
0.33904,0.93254,-0.12406,-0.48663,-0.62451,0.12505
0.3366,0.93529,-0.10914,-0.27855,-0.72823,-0.01739
0.34342,0.93496,-0.08886,-0.18546,-0.91161,-0.10729
0.35904,0.93031,-0.07477,-0.34881,-0.73401,-0.02573
0.37741,0.92296,-0.07537,-0.25824,-0.45121,0.23357
0.38519,0.91716,-0.10213,0.61817,1.0333,0.05904
0.37773,0.91688,-0.129,1.34404,2.77647,0.26682
0.37398,0.92115,-0.10775,-0.18767,0.43774,-0.4659
0.37872,0.91904,-0.10922,-0.41024,-0.05456,-0.23883
0.38316,0.91452,-0.12969,1.2066,0.76754,-0.70872
0.37033,0.91905,-0.13481,0.59747,0.27661,-0.02549
0.36796,0.92089,-0.12863,0.35008,0.07781,0.03418
0.37488,0.91944,-0.11861,0.05902,0.01554,-0.16837
0.37962,0.91791,-0.11538,0.17443,0.08243,-0.25775
0.37999,0.9174,-0.11815,0.10058,-0.04528,-0.18763
0.37893,0.91683,-0.12576,-0.00686,-0.39199,-0.07913
0.37644,0.91555,-0.14155,-0.11613,-0.6853,0.20498
0.36872,0.91604,-0.15777,-0.22788,-0.73492,0.35113
0.35701,0.9188,-0.1683,-0.20342,-0.67657,0.20769
0.3473,0.92011,-0.18098,-0.22711,-0.64929,0.15103
0.34172,0.91828,-0.19993,-0.23234,-0.70688,0.08039
0.33862,0.91326,-0.22644,-0.29311,-0.48539,0.10928
0.34246,0.90374,-0.25684,-0.11046,1.17681,0.08816
0.35834,0.88683,-0.29171,0.49841,1.68951,0.11538
0.36951,0.87797,-0.30433,0.04954,0.66099,-0.05044
0.37836,0.87309,-0.30746,0.22372,0.44333,-0.14913
0.39289,0.86434,-0.31392,0.39869,0.65114,-0.27169
0.4057,0.85728,-0.31697,0.06505,0.9069,-0.32419
0.41184,0.85541,-0.31407,-0.11029,-0.26224,-0.24244
0.41432,0.8576,-0.30472,-0.14459,-0.55146,-0.2444
0.41835,0.86177,-0.28691,-0.08182,-0.36107,-0.11939
0.4215,0.86711,-0.26542,0.08714,-0.12428,-0.1107
0.4179,0.87533,-0.24317,-0.0401,-0.0635,-0.15178
0.40836,0.88597,-0.21971,-0.0669,-0.20252,-0.12424
0.39333,0.89825,-0.196,-0.08162,-0.28665,-0.12833
0.37552,0.91003,-0.17553,-0.31323,-0.52347,-0.07576
0.35576,0.92069,-0.16047,-0.37221,-0.47614,-0.00063
0.33986,0.92844,-0.1499,-0.33643,-0.21257,0.13545
0.33523,0.93114,-0.14348,-0.29174,0.00354,0.09103
0.34422,0.9286,-0.13856,-0.19296,-0.1609,-0.01302
0.35874,0.92419,-0.131,-0.18786,-0.23089,0.04747
0.37266,0.9196,-0.12425,-0.31988,-0.18562,-0.16025
0.37851,0.9175,-0.12208,0.05568,-0.25629,0.20786
0.37648,0.91699,-0.13177,0.30912,-0.06258,0.2693
0.37685,0.91394,-0.15062,0.63368,0.38709,0.18105
0.38456,0.91169,-0.14461,0.40014,0.43511,-0.03646
0.39513,0.91033,-0.12314,0.10792,0.65279,-0.10424
0.40265,0.90634,-0.12805,0.16559,0.82232,0.05486
0.40041,0.90628,-0.13531,0.17398,0.62924,-0.1079
0.39444,0.90948,-0.13135,0.09491,0.06416,-0.00728
0.39375,0.91087,-0.1235,0.1519,-0.12472,-0.03048
0.39807,0.9103,-0.1135,0.07598,-0.04875,-0.10801
0.40152,0.90989,-0.10419,0.02397,0.00127,-0.11564
0.39921,0.91184,-0.09576,0.00979,-0.01727,-0.08299
0.39527,0.91423,-0.08897,0.19867,0.04085,-0.12327
0.39329,0.91568,-0.08269,0.10999,-0.16539,-0.16076
0.39263,0.91634,-0.07839,-0.00072,-0.22774,-0.20971
0.38753,0.9182,-0.08187,-0.03757,-0.30044,-0.17659
0.37787,0.92143,-0.09032,0.02608,-0.35692,-0.15628
0.36639,0.92534,-0.09737,0.11665,-0.33623,-0.09341
0.35635,0.92862,-0.10322,0.04543,-0.30237,-0.06336
0.34743,0.93103,-0.11158,-0.00066,-0.26595,0.02078
0.33661,0.93335,-0.12459,-0.11563,-0.41868,0.17319
0.32433,0.93594,-0.13712,-0.14066,-0.6087,0.34925
0.31487,0.93745,-0.14843,-0.35419,-0.4293,0.208
0.31182,0.93567,-0.16511,-0.39352,-0.09835,0.02656
0.3203,0.92734,-0.19345,-0.29621,0.75906,-0.20482
0.33777,0.91259,-0.23036,0.37573,0.78998,-0.06918
0.35194,0.90112,-0.2532,0.32831,0.5178,-0.07311
0.36011,0.89513,-0.26276,0.33858,0.32853,-0.10046
0.36957,0.89035,-0.26584,0.26906,0.14105,-0.21911
0.37947,0.88643,-0.265,0.06979,0.27432,-0.29739
0.38625,0.88406,-0.26311,-0.06094,0.2546,-0.27804
0.38954,0.88406,-0.25822,-0.12365,-0.21608,-0.08701
0.38836,0.88677,-0.25059,-0.0868,-0.33657,-0.06005
0.38428,0.89258,-0.23582,-0.13989,-0.2486,-0.06236
0.38118,0.89898,-0.21567,-0.06086,-0.25517,-0.10498
0.37604,0.90576,-0.19538,-0.09721,-0.25165,-0.09857
0.36909,0.91289,-0.17431,-0.26364,-0.2446,-0.04242
0.36066,0.91994,-0.15368,-0.30795,-0.20197,0.09102
0.3495,0.92666,-0.13831,-0.33826,-0.11306,0.16681
0.33706,0.9331,-0.12523,-0.39132,-0.17393,0.13082
0.33103,0.93728,-0.10908,-0.0978,-0.73068,-0.07284
0.33105,0.93914,-0.09165,-0.08227,-0.90858,-0.1161
0.34005,0.93677,-0.08243,-0.22949,-0.75616,0.04956
0.35567,0.93087,-0.08336,-0.07253,-0.42811,0.08974
0.36892,0.92398,-0.10069,0.08497,-0.00534,0.28195
0.36844,0.92205,-0.11855,0.86143,1.82942,0.24395
0.36204,0.92675,-0.10021,-0.08153,0.29205,-0.26254
0.36942,0.92392,-0.09936,-0.1014,0.03561,0.04853
0.37866,0.9184,-0.11459,0.76375,1.00962,-0.49301
0.36865,0.92221,-0.11662,0.33191,0.35613,-0.17704
0.36272,0.92468,-0.11568,0.14398,0.05571,-0.13337
0.36347,0.92525,-0.10851,0.12514,-0.09295,-0.19295
0.36474,0.9261,-0.09633,0.28198,0.11505,-0.37303
0.36249,0.92778,-0.0883,0.28692,0.05644,-0.37728
0.35938,0.92928,-0.08517,0.10026,-0.24673,-0.09782
0.35824,0.92987,-0.08356,0.0279,-0.42891,0.01833
0.35704,0.93024,-0.0846,-0.08944,-0.408,0.19554
0.35107,0.93224,-0.08753,-0.19157,-0.373,0.12077
0.34281,0.93437,-0.09697,-0.08054,-0.36554,0.0933
0.3346,0.93496,-0.11777,-0.08628,-0.41738,0.13021
0.32786,0.93437,-0.13943,-0.20273,-0.73476,0.1462
0.32512,0.93221,-0.15896,-0.33806,-0.34426,0.15607
0.32783,0.92662,-0.18408,-0.2851,0.09403,0.04309
0.33452,0.91695,-0.21745,0.13153,1.18894,-0.03125
0.33869,0.90891,-0.24323,0.31978,0.99193,0.03898
0.34638,0.90401,-0.25055,-0.12178,0.45143,-0.1283
0.35781,0.89796,-0.25616,0.05975,0.23613,-0.11395
0.36797,0.8935,-0.25734,0.25367,0.02741,-0.17451
0.37393,0.89226,-0.25305,0.04173,0.06082,-0.39865
0.38072,0.89041,-0.24942,0.07928,0.31502,-0.38168
0.38548,0.88955,-0.24512,0.06387,0.17603,-0.10066
0.38564,0.89226,-0.2348,0.02223,0.12948,-0.0674
0.38276,0.89828,-0.21581,0.00913,0.10354,-0.03027
0.37565,0.90651,-0.19261,-0.13418,-0.25609,0.05474
0.36534,0.91557,-0.16802,-0.20579,-0.42296,-0.02396
0.35621,0.9228,-0.14671,-0.34538,-0.78706,-0.00299
0.35182,0.9272,-0.12848,-0.59465,-1.11276,-0.13262
0.35433,0.9287,-0.10926,-0.57337,-1.13534,-0.15036
0.36146,0.92746,-0.09559,-0.20441,-1.07945,-0.10066
0.37162,0.92354,-0.09461,-0.21009,-1.04516,0.05026
0.38281,0.9188,-0.09612,-0.34684,-0.50568,0.22631
0.38712,0.91627,-0.10273,0.40263,1.08156,0.33215
0.39396,0.91103,-0.12166,1.28611,2.00818,-0.02395
0.4021,0.90916,-0.10828,1.1438,1.0835,-0.22575
0.40578,0.9091,-0.09415,-0.82332,-0.18801,0.09011
0.41039,0.9055,-0.10781,0.16055,1.54876,-0.6718
0.39933,0.90797,-0.1269,1.0726,1.58214,-1.04296
0.38543,0.91301,-0.13358,0.65335,-0.405,-0.12524
0.38908,0.9106,-0.13932,0.60652,-0.5083,0.09394
0.3982,0.90601,-0.14336,0.37992,-0.16099,0.08985
0.39932,0.90504,-0.14636,-0.05429,0.13445,-0.16783
0.39396,0.90598,-0.15483,-0.38355,-0.09436,0.16684
0.38409,0.90798,-0.16739,-0.45043,-0.3438,0.1866
0.37471,0.90865,-0.18422,-0.42822,-0.59109,0.19187
0.36258,0.90881,-0.20636,-0.1843,-0.00794,0.1244
0.35163,0.90662,-0.23318,-0.09226,0.31939,0.09078
0.34604,0.90164,-0.25939,0.32778,0.92414,0.10558
0.34848,0.89693,-0.27214,0.2422,0.6096,-0.12372
0.36011,0.89118,-0.27585,0.24569,0.6099,-0.22305
0.37633,0.88324,-0.27973,0.26362,0.7634,-0.34087
0.38811,0.8773,-0.28229,0.12762,0.41426,-0.31433
0.39416,0.87345,-0.28585,0.11558,0.08036,-0.18281
0.3978,0.87233,-0.28423,0.08714,-0.49204,0.15731
0.39646,0.87672,-0.27231,-0.30621,-0.23192,0.17322
0.3913,0.88414,-0.25526,-0.30105,-0.23933,0.15617
0.38241,0.89365,-0.23481,-0.40718,-0.24144,0.01737
0.37235,0.90313,-0.21375,-0.37594,-0.41749,0.01413
0.36356,0.91111,-0.1941,-0.32427,-0.70567,-0.00095
0.35541,0.91786,-0.17661,-0.33598,-0.84915,0.03206
0.34956,0.92336,-0.15873,-0.39712,-0.69498,0.03762
0.34321,0.92831,-0.14292,-0.39477,-0.18807,0.04734
0.34138,0.92996,-0.13641,-0.30358,0.0911,-0.01685
0.35193,0.92658,-0.13254,0.01302,-0.42707,0.08948
0.36588,0.92229,-0.12449,-0.0145,-0.89578,0.12283
0.37881,0.9184,-0.11412,-0.23697,-0.90777,-0.05423
0.38788,0.91523,-0.10895,-0.40406,-0.3917,0.00645
0.3948,0.91138,-0.11614,0.3476,0.59442,0.21723
0.4014,0.90584,-0.13533,1.92105,1.83032,-0.24439
0.40265,0.90756,-0.11908,-0.29125,0.3969,-0.09562
0.40268,0.90953,-0.10285,-0.52739,0.25801,-0.00625
0.40222,0.9081,-0.1164,-0.06825,1.48214,0.21213
0.39438,0.91037,-0.12516,0.45584,0.29472,-0.33136
0.39299,0.91063,-0.12758,0.33696,-0.1433,-0.15442
0.39737,0.90937,-0.12295,0.13345,-0.24303,-0.02379
0.40037,0.90973,-0.10986,0.07484,-0.05917,-0.06488
0.39573,0.91211,-0.10687,-0.22474,0.03824,-0.11871
0.38937,0.91403,-0.11367,-0.06822,-0.30099,-0.08735
0.38443,0.91528,-0.12021,0.00146,-0.44695,-0.11867
0.38264,0.9147,-0.12996,-0.01571,-0.64466,-0.09344
0.37941,0.91446,-0.14067,-0.0046,-0.73728,0.22477
0.37494,0.91515,-0.14794,-0.13343,-0.61485,0.21718
0.37083,0.91573,-0.15459,-0.14958,-0.48776,0.26562
0.36672,0.91549,-0.16543,-0.21952,-0.38928,0.1277
0.3623,0.91481,-0.17841,-0.2881,-0.24977,0.17594
0.36027,0.91181,-0.19692,-0.33871,-0.11387,0.09625
0.36562,0.90338,-0.22406,-0.19831,0.805,0.00198
0.37764,0.89033,-0.25434,0.16989,0.74322,-0.06496
0.38399,0.88344,-0.26844,0.13971,0.45123,-0.13338
0.38719,0.87901,-0.27822,0.45461,0.5568,-0.48856
0.39388,0.87062,-0.29471,0.42423,1.21623,-0.45138
0.39864,0.86625,-0.30112,0.23813,1.19303,-0.42834
0.397,0.86771,-0.29907,-0.12037,0.11039,-0.44424
0.39284,0.8713,-0.29411,-0.11714,-0.13308,-0.27805
0.38313,0.87897,-0.28391,-0.11438,-0.07707,-0.24773
0.3684,0.89006,-0.26843,-0.08602,-0.1626,-0.09069
0.35076,0.90238,-0.2503,-0.00734,-0.29948,-0.01698
0.33006,0.91495,-0.23217,-0.00883,-0.40015,0.00769
0.30812,0.92786,-0.21006,-0.14686,-0.42099,0.03557
0.29027,0.9391,-0.18387,-0.21949,-0.32471,-0.05683
0.27824,0.94692,-0.16097,-0.25692,-0.29007,-0.16707
0.27306,0.95121,-0.14356,-0.25242,-0.31648,-0.19019
0.27205,0.95344,-0.13008,-0.27372,-0.30628,-0.2117
0.27328,0.9546,-0.11846,-0.27786,-0.20687,-0.24757
0.27439,0.95516,-0.11118,-0.28952,0.00291,-0.29577
0.27289,0.95581,-0.1092,-0.3179,0.2369,-0.28331
0.26928,0.9568,-0.1095,-0.21636,0.11928,-0.2875
0.26695,0.95729,-0.11093,-0.08228,-0.26764,-0.36596
0.26779,0.95668,-0.11411,-0.00325,-0.66904,-0.32982
0.26956,0.95547,-0.11996,0.04746,-0.78712,-0.17967
0.26872,0.95449,-0.12927,-0.04095,-0.66998,0.45534
0.26639,0.95222,-0.1493,-0.05063,0.00851,0.50531
0.2584,0.94926,-0.17919,0.58,1.80919,0.93133
0.25697,0.94787,-0.18837,0.95563,1.12218,0.46614
0.27093,0.94435,-0.18648,0.33585,-0.09111,-0.05775
0.2923,0.93582,-0.1969,0.50503,-0.0289,0.01252
0.30759,0.92897,-0.20587,0.50668,0.82999,-0.12444
0.31015,0.92923,-0.20079,0.65724,0.68555,-0.23594
0.31049,0.9321,-0.18641,0.59318,0.42915,-0.26273
0.31355,0.93475,-0.16707,0.44132,0.14947,-0.22032
0.31334,0.93877,-0.14317,0.09911,-0.02402,-0.12866
0.30869,0.94398,-0.11658,0.04522,-0.10848,-0.09469
0.30502,0.94794,-0.09131,-0.04814,-0.25909,0.08682
0.30084,0.95132,-0.06679,-0.18349,-0.39691,0.16823
0.29119,0.95572,-0.04209,-0.14947,-0.34661,0.09711
0.27859,0.96001,-0.02727,-0.05708,-0.31171,-0.00585
0.26692,0.96346,-0.02149,0.00613,-0.66891,-0.04785
0.25656,0.9664,-0.01512,0.03372,-0.67671,-0.03468
0.24651,0.96909,-0.00876,0.10314,-0.13788,-0.24832
0.23839,0.97114,-0.00568,0.20634,0.091,-0.28476
0.2326,0.97252,-0.0084,0.53156,0.11821,-0.22454
0.22798,0.97356,-0.01321,0.32419,-0.15821,-0.24319
0.21674,0.97606,-0.0171,0.27813,-0.16202,-0.09777
0.20311,0.97893,-0.02027,0.28935,-0.05248,0.02828
0.19478,0.98041,-0.02871,0.11218,0.02331,0.20756
0.19417,0.97992,-0.04498,0.09909,-0.00134,0.20722
0.19988,0.97712,-0.07252,0.49301,0.53693,0.40677
0.20957,0.97141,-0.1114,0.43017,0.60906,0.26623
0.2274,0.96335,-0.14219,0.20006,0.3634,0.03751
0.24624,0.95531,-0.1635,0.14327,0.26143,-0.18515
0.25881,0.94808,-0.18478,0.22467,0.35238,-0.02784
0.26407,0.94178,-0.20811,0.40412,0.22763,0.03861
0.26562,0.93728,-0.22568,0.34999,0.05119,0.08626
0.26494,0.93457,-0.23742,0.11818,-0.07063,0.09035
0.26611,0.93235,-0.24472,-0.0207,-0.17268,0.09651
0.27003,0.92987,-0.24981,-0.13588,-0.29311,0.13568
0.2725,0.92789,-0.25445,-0.07412,-0.31705,0.20966
0.27232,0.92703,-0.25775,0.06995,-0.22977,0.24072
0.26989,0.9268,-0.26112,0.07506,-0.12479,0.20157
0.26516,0.92762,-0.26303,0.0159,-0.19142,0.21631
0.25857,0.92991,-0.26151,-0.05153,-0.24152,0.16666
0.25262,0.93272,-0.2573,-0.05868,-0.22796,0.11101
0.24828,0.93578,-0.25033,-0.00443,-0.18198,0.0355
0.24402,0.93972,-0.2395,0.06038,-0.22607,-0.09288
0.23912,0.94411,-0.22686,0.10477,-0.24498,-0.15836
0.2334,0.94815,-0.21569,0.22278,-0.20169,-0.17367
0.22807,0.95098,-0.2088,0.29323,-0.03365,-0.215
0.22598,0.95177,-0.20747,0.30283,0.02592,-0.19707
0.23094,0.94973,-0.21131,0.26358,0.15809,-0.18691
0.24049,0.94556,-0.21922,0.19842,0.24552,-0.16892
0.25215,0.93849,-0.23587,0.35039,0.51906,0.00307
0.26806,0.93079,-0.2485,0.37352,0.22288,0.12355
0.28707,0.92627,-0.24411,-0.04479,-0.09913,0.28434
0.29505,0.9255,-0.23745,-0.03047,-0.15632,0.14289
0.2868,0.929,-0.23383,0.35791,-0.25952,0.25716
0.2771,0.93194,-0.23386,0.50875,-0.0239,0.44268
0.2783,0.93443,-0.22218,0.42455,0.1144,0.41097
0.28662,0.93715,-0.19891,0.15613,0.32443,0.24551
0.29513,0.93932,-0.17481,0.28135,0.22439,0.26381
0.29624,0.94288,-0.15232,0.27169,0.17311,0.29414
0.29178,0.94783,-0.12828,0.03617,0.16649,0.19044
0.28433,0.95276,-0.1067,-0.0346,0.10865,0.07737
0.27712,0.95655,-0.09043,-0.11559,-0.10226,-0.03741
0.27294,0.95891,-0.07718,-0.01672,-0.35364,0.01009
0.27461,0.9596,-0.06106,-0.05216,-0.52367,0.09537
0.27827,0.9596,-0.04136,-0.07666,-0.57047,0.09109
0.27795,0.96038,-0.01978,0.07198,-0.29612,0.00594
0.27458,0.96155,-1e-05,0.14342,-0.16708,0.04588
0.27042,0.96253,0.0195,0.10692,-0.11417,0.05463
0.26312,0.964,0.03785,-0.19691,0.09209,-0.01048
0.2507,0.96664,0.05231,-0.17775,0.25585,-0.12984
0.23635,0.96991,0.05813,0.02978,0.31419,-0.19848
0.22522,0.97246,0.05966,0.66529,0.08757,-0.27197
0.2204,0.97356,0.05977,0.78708,-0.02687,-0.27346
0.22244,0.97308,0.06004,0.7365,-0.0673,-0.26294
0.23153,0.97103,0.05883,0.48595,-0.07464,-0.04691
0.24541,0.96801,0.05204,0.18059,-0.11318,-0.03884
0.2607,0.96458,0.03981,0.15768,-0.0796,0.11184
0.27571,0.96109,0.01615,0.46299,0.1573,0.30683
0.29084,0.95657,-0.01886,0.30653,0.4312,0.32841
0.30577,0.95083,-0.04906,-0.02631,0.54742,0.31493
0.31758,0.94524,-0.0751,-0.2791,0.62575,0.17586
0.32382,0.94059,-0.102,-0.33081,0.47379,0.11701
0.32618,0.93642,-0.12918,-0.03416,0.21212,0.13202
0.32858,0.93197,-0.15311,0.15544,0.02312,0.10721
0.3319,0.92745,-0.1722,0.16212,-0.06013,0.0563
0.33346,0.92381,-0.18803,0.03304,-0.13861,0.02529
0.33248,0.92108,-0.20259,-0.09584,-0.13125,0.07838
0.32937,0.91904,-0.21648,-0.20172,-0.32761,0.23808
0.32456,0.91829,-0.22669,-0.19054,-0.42178,0.22473
0.3186,0.91928,-0.23108,-0.24095,-0.55984,0.18552
0.31248,0.92119,-0.23182,-0.24215,-0.45525,0.11316
0.30776,0.92285,-0.23153,-0.17751,-0.26375,-0.0743
0.30393,0.92387,-0.23253,-0.08553,-0.13958,-0.20171
0.30077,0.92365,-0.23747,-0.02396,-0.02927,-0.13184
0.29735,0.92386,-0.24093,0.01051,0.00629,-0.14034
0.29171,0.92512,-0.24298,0.06986,0.17683,-0.08861
0.28654,0.92642,-0.24415,0.00714,0.31496,-0.13961
0.29136,0.92535,-0.24251,-0.01514,0.16696,-0.12186
0.30445,0.92119,-0.24229,-0.09748,0.05077,0.01327
0.32069,0.91475,-0.24569,-0.11881,0.15809,0.16364
0.33189,0.90987,-0.24893,-0.08364,0.22423,0.19177
0.32761,0.90847,-0.25949,0.08244,0.67401,0.4444
0.31538,0.91126,-0.26481,0.63917,0.41151,0.19479
0.31027,0.91435,-0.26014,0.61661,-0.11979,0.14161
0.31711,0.91359,-0.25449,0.1508,-0.46586,0.16996
0.32939,0.91176,-0.24531,-0.02966,-0.31952,0.14771
0.33409,0.91281,-0.23482,0.22611,0.20076,-0.03407
0.32541,0.91959,-0.2201,0.44212,0.40573,0.11107
0.32437,0.9239,-0.2029,0.32628,-0.03526,0.14046
0.33477,0.92398,-0.18482,0.03365,-0.3107,0.1657
0.34278,0.92502,-0.16377,-0.1001,-0.31586,0.09444
0.34037,0.92983,-0.13978,-0.10627,-0.2508,0.03879
0.3332,0.93481,-0.1228,0.03373,-0.02676,-0.00662
0.33095,0.93682,-0.11317,0.1131,-0.22645,0.17057
0.33408,0.93704,-0.10163,0.07963,-0.24253,0.16529
0.33705,0.93745,-0.08697,0.05412,-0.16366,0.12038
0.33633,0.93865,-0.07611,-0.03967,0.19181,-0.05404
0.33554,0.93888,-0.0768,0.06801,0.1317,-0.11842
0.33676,0.93771,-0.08518,0.13132,0.02901,-0.1069
0.3384,0.93612,-0.09557,0.26359,-0.0787,0.0422
0.33885,0.93452,-0.10873,0.21895,-0.1785,0.21029
0.33497,0.93329,-0.12939,0.1623,-0.19606,0.27454
0.3229,0.9329,-0.15943,-0.17746,-0.17904,0.32183
0.30767,0.93127,-0.19506,-0.23855,0.37249,0.33163
0.29851,0.92597,-0.23121,-0.14267,0.61955,0.26788
0.30384,0.91753,-0.25651,0.19864,0.37347,-0.00472
0.31511,0.90754,-0.2776,0.25821,0.1488,-0.13891
0.32223,0.89877,-0.29725,0.22225,0.10182,-0.05439
0.32973,0.88994,-0.31507,0.23591,0.19727,0.00441
0.33903,0.88088,-0.33029,0.06369,0.27106,0.07985
0.3482,0.87386,-0.33928,-0.03251,0.144,0.09767
0.35535,0.87005,-0.34163,-0.03889,-0.03837,0.12646
0.36116,0.86876,-0.33882,0.02193,-0.21286,0.1529
0.36573,0.86961,-0.33166,0.0177,-0.37053,0.21287
0.36842,0.87295,-0.31971,-0.14325,-0.49279,0.20403
0.36735,0.87843,-0.3056,-0.36589,-0.45503,0.20813
0.36526,0.88351,-0.29321,-0.35653,-0.31064,0.15843
0.36166,0.88882,-0.2814,-0.33947,-0.38468,0.09136
0.35792,0.89469,-0.26722,-0.23661,-0.51732,0.06164
0.35584,0.89998,-0.25177,-0.16322,-0.49922,0.05717
0.35579,0.90408,-0.23671,-0.19255,-0.46737,-0.02992
0.35634,0.9069,-0.2248,-0.27993,-0.3942,0.08218
0.3582,0.90775,-0.21833,-0.30296,-0.17242,0.16793
0.36536,0.9074,-0.20764,-0.19321,0.14079,0.16646
0.37901,0.9057,-0.18982,-0.26153,-0.27665,0.0982
0.38901,0.90429,-0.17582,-0.29028,-0.28603,0.09449
0.39478,0.90184,-0.17554,-0.08069,-0.1909,0.05496
0.39518,0.89845,-0.19128,0.80878,0.48505,0.2359
0.39125,0.89636,-0.20842,0.80287,1.02849,0.36478
0.39378,0.89809,-0.1958,0.0925,1.24017,0.15421
0.3931,0.89698,-0.20216,0.14164,1.73633,0.22896
0.39308,0.89779,-0.19858,0.02156,-0.46273,-0.54875
0.39155,0.89605,-0.20921,0.18836,-0.75272,-0.02181
0.39161,0.89308,-0.22142,0.38166,-0.30638,0.12449
0.38996,0.89567,-0.21372,0.27439,0.82178,-0.02506
0.38078,0.90178,-0.20441,0.02445,0.76967,-0.09741
0.37803,0.90525,-0.19391,0.12645,0.18562,-0.11302
0.38249,0.90434,-0.18932,0.15837,-0.73775,-0.20691
0.39035,0.90042,-0.19194,0.02937,-0.59296,0.02409
0.3925,0.89898,-0.19433,0.012,-0.49041,0.04563
0.37976,0.90336,-0.19925,0.27448,0.18217,0.29396
0.36312,0.90901,-0.20448,0.08753,-0.0878,0.13535
0.35288,0.91138,-0.21176,-0.01085,-0.23334,0.1508
0.34822,0.91029,-0.22381,-0.38225,-0.6484,0.13402
0.34363,0.90803,-0.23954,-0.40193,-0.79754,0.28184
0.33738,0.90404,-0.26242,-0.36523,-0.49468,0.37704
0.33537,0.89648,-0.28952,-0.24319,0.35634,0.12071
0.33991,0.88294,-0.32382,0.10883,1.27068,0.29539
0.35038,0.87074,-0.34501,-0.0889,0.79892,0.0624
0.36571,0.86393,-0.34621,-0.24449,0.36741,0.00459
0.38263,0.85458,-0.35109,0.24067,0.15353,-0.00681
0.39625,0.84541,-0.35811,0.1433,0.29451,-0.13766
0.40238,0.84344,-0.35592,-0.03272,0.18564,-0.06031
0.40788,0.8448,-0.3463,-0.14903,-0.08084,-0.03456
0.41194,0.84874,-0.33156,-0.18705,0.11861,-0.0544
0.41212,0.85357,-0.31868,-0.08885,0.21989,-0.08543
0.41093,0.85988,-0.30286,0.0575,0.1928,-0.1643
0.40681,0.86837,-0.28359,0.13274,0.13685,-0.35663
0.40242,0.87681,-0.26313,0.08234,-0.04928,-0.27688
0.3982,0.88429,-0.24383,-0.0369,-0.1119,-0.15865
0.39379,0.89129,-0.22475,-0.22747,-0.08876,-0.05962
0.38614,0.8981,-0.21046,-0.38076,-0.10821,0.06691
0.3818,0.90288,-0.19749,-0.23942,-0.65923,0.20736
0.38096,0.90685,-0.18017,-0.36503,-1.23974,0.22843
0.38548,0.90858,-0.16086,-0.4302,-1.1287,0.19463
0.3993,0.90471,-0.14847,-0.44254,-0.80285,0.01329
0.41347,0.89716,-0.15534,-0.34177,-0.45303,0.19848
0.41945,0.89064,-0.17549,0.37751,0.46701,0.27055
0.42616,0.88563,-0.18444,1.29372,1.82066,0.11088
0.43107,0.88664,-0.16742,0.02504,0.58764,0.06676
0.4342,0.88505,-0.16772,-0.36471,0.59449,0.16607
0.42839,0.88614,-0.17669,0.43191,0.50148,-0.65453
0.41031,0.89203,-0.1895,0.48779,-0.0739,-0.40775
0.40557,0.89096,-0.20416,0.81382,-0.081,-0.14381
0.41279,0.8855,-0.21322,0.56374,-0.0649,0.11731
0.41699,0.88184,-0.22011,0.08382,0.04882,0.18235
0.41186,0.8815,-0.23089,-0.35482,-0.11627,0.17721
0.40268,0.88085,-0.24885,-0.50084,-0.25341,0.03955
0.39602,0.87791,-0.26911,-0.42111,-0.49146,0.10734
0.3912,0.87174,-0.29499,-0.19474,-0.51349,0.23916
0.38749,0.86313,-0.32378,-0.08314,-0.30571,0.31923
0.39069,0.85232,-0.34771,0.17399,0.79687,0.02111
0.40276,0.84079,-0.36171,0.20587,1.04245,0.04047
0.41492,0.83373,-0.36431,0.0822,0.37762,-0.01093
0.42594,0.82823,-0.36414,0.1365,0.24669,-0.00227
0.43067,0.82605,-0.36353,0.15487,0.28554,-0.05778
0.43289,0.82781,-0.35682,0.02462,0.35401,-0.13157
0.43463,0.8323,-0.34402,-0.00316,0.19053,-0.1312
0.43392,0.83865,-0.32919,-0.06263,-0.0166,-0.17312
0.42773,0.84727,-0.3149,0.00111,-0.04916,0.00448
0.41656,0.85808,-0.30024,0.0,-0.06805,0.04313
0.40485,0.86941,-0.2832,-0.19546,-0.0723,0.0444
0.39469,0.87991,-0.26448,-0.3049,-0.02119,0.04329
0.38645,0.88922,-0.24478,-0.34502,-0.06555,-0.05475
0.37811,0.8978,-0.22578,-0.32854,-0.05523,-0.09153
0.36827,0.90514,-0.21229,-0.04338,-0.37206,0.1737
0.36571,0.90822,-0.20339,-0.05672,-0.63296,0.2559
0.37197,0.90729,-0.19607,-0.1462,-0.86247,0.23271
0.38373,0.90482,-0.18445,-0.35557,-1.21535,0.02541
0.39832,0.90154,-0.16893,-0.501,-1.02472,0.00525
0.40938,0.89793,-0.16155,-0.5691,-0.91479,-0.09837
0.41299,0.89507,-0.16813,-0.07497,0.10347,0.28338
0.41908,0.88918,-0.1836,1.05965,1.37167,0.05152
0.42734,0.88556,-0.18204,1.33848,1.56131,0.18274
0.43186,0.88638,-0.16675,-0.42588,0.24694,0.20203
0.43007,0.8854,-0.1763,-0.18308,0.89806,0.30014
0.41725,0.8867,-0.19912,1.05641,1.2436,-1.03147
0.40522,0.88872,-0.21436,0.64136,-0.22984,-0.24275
0.40642,0.88548,-0.22522,0.35283,-0.46693,-0.07297
0.41467,0.881,-0.22772,0.32723,-0.11532,0.07331
0.41052,0.88137,-0.23375,0.11874,0.16093,-0.0195
0.39793,0.88332,-0.24776,-0.04058,0.04664,0.05945
0.38321,0.88628,-0.26006,-0.12007,-0.16636,0.20084
0.3716,0.88815,-0.27036,-0.20233,-0.482,0.21886
0.36588,0.88696,-0.28181,-0.29109,-0.48956,0.38324
0.36151,0.88488,-0.29374,-0.33886,-0.03821,0.30164
0.35787,0.8813,-0.30859,-0.15108,0.54441,0.21021
0.35663,0.876,-0.32469,0.17292,0.68859,0.16395
0.35835,0.87228,-0.33271,0.06867,0.44452,0.06904
0.36582,0.86761,-0.33678,0.09369,0.44134,0.01976
0.37561,0.86126,-0.34225,0.06617,0.55526,-0.00517
0.38095,0.85816,-0.34411,-0.01341,0.38815,-0.11862
0.3817,0.85976,-0.33927,-0.12534,0.09198,-0.13371
0.38264,0.86266,-0.33074,0.01492,-0.28456,-0.03896
0.38544,0.86519,-0.32072,0.09513,-0.30878,0.01041
0.38768,0.8689,-0.30773,0.07278,-0.06367,0.02098
0.39029,0.87394,-0.28962,-0.04834,0.22219,-0.0456
0.38787,0.88178,-0.26832,-0.06564,0.23101,-0.08588
0.38021,0.89124,-0.2472,-0.11338,-0.05443,-0.08862
0.36872,0.901,-0.22852,-0.16945,-0.15669,-0.01385
0.35897,0.90886,-0.21234,-0.5165,-0.26413,0.06617
0.35542,0.91312,-0.19965,-0.62335,-0.40502,0.11269
0.35724,0.91484,-0.18824,-0.43626,-0.67533,0.18503
0.35685,0.9171,-0.17762,-0.07858,-1.09778,-0.07939
0.36079,0.91764,-0.16656,-0.03706,-1.38686,-0.13838
0.37206,0.91489,-0.15661,-0.41382,-1.11536,0.01861
0.38474,0.9103,-0.15265,-0.60288,-0.85435,0.29556
0.39053,0.90642,-0.16083,0.13186,0.62925,0.34251
0.38738,0.90264,-0.1875,1.67518,3.55665,0.21034
0.39138,0.90349,-0.17463,0.38393,0.56875,-0.14016
0.4085,0.89712,-0.16814,-0.31423,-0.53262,0.46366
0.4198,0.89135,-0.17098,-0.16016,0.1009,-0.61158
0.40458,0.89561,-0.18486,0.07511,0.19638,-0.80867
0.38362,0.90154,-0.20008,0.42496,0.21508,0.20562
0.37857,0.90359,-0.20045,0.33153,0.16886,0.24949
0.37425,0.90483,-0.20298,0.33619,0.1601,0.29679
0.36247,0.90615,-0.21793,-0.11006,-0.06455,0.0111
0.3493,0.90448,-0.24471,-0.33093,-0.38446,-0.03918
0.34537,0.89781,-0.27321,-0.38901,-0.60978,0.06622
0.34853,0.88648,-0.3044,-0.37015,-0.6083,0.09711
0.35463,0.87019,-0.34205,0.42568,1.36788,-0.1074
0.35244,0.85671,-0.37657,0.6646,1.49688,0.18254
0.35275,0.85425,-0.38184,0.08667,0.62871,-0.11474
0.36703,0.85122,-0.37509,0.03243,0.36551,-0.14068
0.38421,0.84397,-0.37427,0.18951,0.35176,-0.13574
0.39133,0.8418,-0.37178,-0.10045,0.45187,-0.17067
0.39217,0.84338,-0.36729,-0.09081,-0.28471,0.04858
0.38844,0.84938,-0.35728,-0.08253,-0.40587,0.05871
0.38125,0.85933,-0.34085,-0.13433,-0.49433,0.04709
0.37021,0.87143,-0.32178,-0.15651,-0.46937,0.16048
0.35981,0.88286,-0.30177,-0.20101,-0.42187,0.17145
0.35427,0.89088,-0.28426,-0.30068,-0.40251,0.19399
0.3558,0.896,-0.26566,-0.37705,-0.36859,0.04766
0.35766,0.90065,-0.24675,-0.38502,-0.37775,-0.01198
0.35183,0.90592,-0.2356,-0.27779,-0.20417,-0.03922
0.34538,0.91011,-0.2289,-0.08188,-0.05595,0.12668
0.35121,0.9093,-0.22315,-0.09708,-0.18924,0.04879
0.36772,0.90452,-0.21586,-0.17858,-0.4467,-0.04875
0.38672,0.89768,-0.21117,-0.27431,-0.16381,-0.08905
0.39818,0.89132,-0.21675,-0.31241,0.06201,-0.12115
0.39639,0.88877,-0.23008,0.08455,0.54257,0.1414
0.39458,0.88687,-0.24031,0.97764,0.63135,0.40953
0.39958,0.88744,-0.2297,0.68161,0.24635,0.19438
0.40772,0.88759,-0.21429,0.13055,0.94627,-0.11566
0.41585,0.88247,-0.21977,0.42125,1.25833,-0.16069
0.41456,0.88166,-0.22538,0.58639,0.7741,0.01097
0.41541,0.88359,-0.21605,0.19634,-0.03866,0.12468
0.42074,0.88449,-0.20156,0.11998,-0.27205,0.12467
0.42758,0.88511,-0.18368,0.05132,0.05676,-0.01554
0.43067,0.88658,-0.16878,0.13176,0.3298,-0.20788
0.42417,0.89155,-0.15873,0.10711,0.18223,-0.12397
0.41716,0.89643,-0.14958,0.01118,-0.10468,-0.07915
0.41198,0.90028,-0.1405,-0.03785,-0.34726,-0.04673
0.40495,0.90382,-0.13818,-0.082,-0.48492,0.05713
0.39417,0.90824,-0.14036,-0.12775,-0.50862,0.08911
0.38485,0.91158,-0.14456,-0.07078,-0.36189,0.00572
0.37841,0.91272,-0.15399,0.03399,-0.32662,0.05564
0.37148,0.91255,-0.17095,0.02026,-0.4289,0.07773
0.36302,0.91266,-0.18774,-0.10244,-0.58618,0.09944
0.35527,0.91223,-0.20396,-0.09785,-0.61473,0.21009
0.35029,0.90861,-0.22736,-0.26837,-0.32034,0.22427
0.34816,0.90152,-0.25696,-0.30374,0.33997,-0.00031
0.35278,0.88975,-0.2896,-0.24105,1.17945,0.09619
0.36258,0.87786,-0.31284,0.23431,0.70038,0.03509
0.3687,0.8705,-0.326,0.33159,0.33032,-0.05953
0.37566,0.86308,-0.33758,0.45511,0.7887,-0.23896
0.38654,0.85512,-0.34545,0.12826,1.1092,-0.28317
0.39805,0.85029,-0.34431,-0.23968,0.83341,-0.16963
0.40257,0.85091,-0.33744,-0.04658,-0.14715,-0.03505
0.40189,0.85556,-0.32632,0.06216,-0.31459,0.00386
0.39653,0.86502,-0.30737,0.12857,-0.47539,0.04993
0.3867,0.87775,-0.28283,-0.11441,-0.32944,-0.03519
0.37508,0.89011,-0.25884,-0.18189,-0.34639,-0.07993
0.36223,0.90168,-0.23608,-0.22881,-0.42713,0.02426
0.35259,0.91034,-0.21667,-0.34499,-0.51928,0.09442
0.34481,0.91624,-0.20395,-0.44642,-0.63898,0.09385
0.3365,0.92171,-0.19286,-0.39649,-0.5699,0.16568
0.33458,0.92524,-0.17878,-0.17494,-0.27641,0.07348
0.34645,0.92315,-0.16655,-0.2247,-0.81305,-0.14613
0.36206,0.9186,-0.15833,-0.29735,-0.94609,0.02898
0.38097,0.91159,-0.15441,-0.18654,-0.39386,0.34653
0.39151,0.90471,-0.16795,0.12987,0.33141,0.25065
0.38001,0.90717,-0.1806,1.55957,2.20839,-0.03928
0.37981,0.91099,-0.16069,-0.3577,0.04162,-0.13295
0.39811,0.90292,-0.1619,-0.13322,0.47385,0.0903
0.40516,0.89775,-0.1728,1.36542,2.4149,-0.36818
0.38256,0.90705,-0.17576,0.30523,-0.05431,-0.14954
0.37674,0.9077,-0.18473,0.16234,-0.33971,-0.05358
0.38099,0.90725,-0.17809,0.38672,0.41649,-0.337
0.37892,0.91063,-0.16476,0.3888,0.41311,-0.35033
0.37363,0.91361,-0.16027,0.21078,-0.01424,-0.2452
0.36631,0.91622,-0.16228,0.07363,-0.58416,0.25742
0.35833,0.91919,-0.16328,-0.05525,-0.66808,0.38427
0.34516,0.92435,-0.16257,-0.36308,-0.56062,0.38846
0.32688,0.93058,-0.16475,-0.44982,-0.62277,0.15547
0.31263,0.93355,-0.1753,-0.35041,-0.68617,0.1742
0.30002,0.93413,-0.19329,-0.28305,-0.80266,0.21022
0.29169,0.93395,-0.2065,-0.13629,-0.92644,0.29705
0.28997,0.93142,-0.21988,-0.25209,-0.43416,0.0899
0.29856,0.92326,-0.24173,-0.10657,0.65703,-0.1165
0.31856,0.90657,-0.27681,0.87314,1.79412,-0.09201
0.3289,0.89756,-0.29359,0.36206,0.85453,-0.15496
0.33511,0.89452,-0.29582,0.28853,0.75154,-0.34391
0.34256,0.89035,-0.29986,0.41712,0.67431,-0.29408
0.34576,0.88767,-0.30408,0.14849,0.47398,-0.23469
0.34197,0.88862,-0.30558,0.00169,0.08034,-0.15065
0.33516,0.89313,-0.29993,-0.01662,-0.24415,-0.10613
0.32598,0.90128,-0.28534,-0.05971,-0.38288,-0.00945
0.31734,0.9105,-0.26505,-0.1211,-0.28055,0.03923
0.30853,0.92015,-0.24107,-0.05617,-0.38189,-0.00737
0.29802,0.92947,-0.21736,-0.05552,-0.38876,-0.04265
0.2877,0.93744,-0.196,-0.09841,-0.34733,-0.09097
0.27856,0.94349,-0.17947,-0.22212,-0.35499,-0.09205
0.27207,0.94765,-0.16708,-0.19217,-0.40114,0.12833
0.26856,0.95041,-0.15678,-0.15449,-0.3726,0.09709
0.26895,0.95162,-0.14854,-0.14421,-0.15198,-0.08152
0.27483,0.94952,-0.1512,-0.20262,-0.0315,-0.2894
0.28131,0.94453,-0.16942,-0.18501,-0.07974,-0.06822
0.29324,0.93733,-0.18813,-0.10563,-0.4747,0.19944
0.30722,0.93021,-0.20076,-0.31935,-0.70809,0.49785
0.30658,0.92684,-0.21668,-0.39213,-0.23327,0.482
0.29519,0.92085,-0.25472,-0.04389,1.02077,0.48618
0.29794,0.91208,-0.28163,1.25879,1.49354,0.35586
0.31054,0.90826,-0.28036,0.94055,0.97475,0.04711
0.31912,0.90503,-0.28118,1.03712,1.01044,0.03055
0.31751,0.90686,-0.27706,0.41051,0.51759,-0.15238
0.31387,0.91129,-0.2665,0.51972,0.39259,-0.02659
0.31629,0.91665,-0.24431,0.55853,0.16663,0.06787
0.31523,0.92453,-0.21411,0.05123,0.37495,0.33857
0.30499,0.93482,-0.18183,-0.05891,0.43059,0.28768
0.2941,0.94326,-0.15404,-0.06595,0.09363,0.09513
0.29339,0.94672,-0.13275,0.01058,-0.15077,0.05567
0.29304,0.94888,-0.11714,-0.16243,-0.45479,0.03406
0.28764,0.95192,-0.10527,-0.14503,-0.67894,-0.01389
0.27792,0.95568,-0.097,-0.00298,-0.81432,0.0511
0.26881,0.95921,-0.08729,0.07362,-0.79448,0.08048
0.26183,0.96246,-0.07136,0.12753,-0.47222,-0.03873
0.25274,0.96598,-0.05455,0.07125,-0.08207,0.0077
0.24024,0.96979,-0.04194,0.08037,0.10202,0.029
0.22453,0.97383,-0.03482,0.14591,0.3443,0.08238
0.206,0.97783,-0.03718,0.42864,0.10339,-0.19853
0.18716,0.98132,-0.04408,0.52181,-0.06137,-0.32943
0.17625,0.98312,-0.04881,0.59389,-0.02294,-0.1761
0.17865,0.98237,-0.0547,0.49986,-0.06012,0.01616
0.18818,0.97991,-0.06582,0.40988,-0.11396,0.03396
0.19717,0.97714,-0.0793,0.37042,-0.01178,0.35602
0.20349,0.97396,-0.09982,0.25354,0.18426,0.40996
0.20998,0.9695,-0.12631,0.22267,0.28772,0.31345
0.21992,0.96334,-0.15357,0.11547,0.46296,0.12669
0.23426,0.95522,-0.1807,-0.00032,0.3746,0.13066
0.24959,0.94591,-0.20719,0.13531,0.28628,0.11853
0.26279,0.93658,-0.2318,0.31318,0.31646,0.08243
0.26945,0.92929,-0.25257,0.3019,0.18884,0.09369
0.26884,0.92431,-0.27083,0.25364,0.00817,0.18327
0.26424,0.92044,-0.28801,0.20168,-0.11669,0.24448
0.25851,0.91744,-0.3024,0.15479,-0.18853,0.30456
0.25276,0.91541,-0.31324,0.10552,-0.2569,0.36062
0.24539,0.91508,-0.31997,0.07531,-0.27269,0.37835
0.23641,0.91709,-0.321,-0.01119,-0.23746,0.3906
0.22737,0.91943,-0.32083,-0.08511,-0.15214,0.35391
0.21796,0.92134,-0.32188,-0.12591,-0.10219,0.31793
0.21022,0.92354,-0.3207,-0.13137,-0.10436,0.31718
0.2063,0.92609,-0.31588,-0.05619,-0.08557,0.21009
0.20362,0.92954,-0.30737,0.04564,-0.11335,0.00991
0.19858,0.93407,-0.29675,0.17496,-0.11223,-0.06932
0.1921,0.9393,-0.28423,0.30711,-0.08655,-0.12897
0.18739,0.9437,-0.27256,0.2847,-0.05394,-0.15487
0.18698,0.94638,-0.2634,0.18852,0.02706,-0.16913
0.18891,0.94769,-0.25725,0.21682,0.07642,-0.18257
0.19195,0.9478,-0.25456,0.24399,0.00445,-0.1291
0.19708,0.94806,-0.24964,0.12866,-0.14804,-0.23332
0.20746,0.94737,-0.24377,0.10199,-0.19987,-0.1881
0.22007,0.94336,-0.24822,0.23766,-0.06844,0.20169
0.22914,0.93897,-0.25652,0.29181,0.46874,0.36921
0.23126,0.94161,-0.24465,0.09347,0.39106,0.40592
0.22479,0.94618,-0.23277,-0.11042,0.37501,0.29812
0.21275,0.94819,-0.23589,0.40912,-0.10116,0.27236
0.20414,0.94975,-0.23721,0.51455,-0.39876,0.32622
0.20837,0.95025,-0.23148,0.38509,-0.33823,0.30132
0.2217,0.95104,-0.21529,0.28999,-0.1967,0.21242
0.2294,0.95307,-0.19749,0.13942,0.25967,0.02562
0.22628,0.95729,-0.17991,0.10543,0.35483,0.07131
0.22548,0.9609,-0.16062,0.18709,0.16356,0.12572
0.23005,0.96241,-0.14427,0.22243,-0.1878,0.14569
0.2354,0.96352,-0.12724,0.02071,-0.24999,0.04044
0.23634,0.96588,-0.10579,0.0046,-0.19624,0.01444
0.23376,0.96872,-0.08306,0.02285,-0.15494,-0.02309
0.23368,0.97015,-0.06456,0.10738,-0.09425,0.04275
0.23689,0.97023,-0.05005,0.11444,-0.1988,0.08639
0.24052,0.96996,-0.03594,0.14093,-0.29084,0.0869
0.24283,0.96983,-0.02067,0.15815,-0.24841,0.03645
0.24372,0.96982,-0.00279,0.16993,-0.13182,-0.03931
0.24375,0.96967,0.01706,0.12434,-0.10138,-0.06629
0.24303,0.96935,0.0355,0.0802,-0.08449,-0.04524
0.23963,0.96957,0.04985,0.1096,0.1499,-0.03769
0.23398,0.97046,0.05853,0.26655,0.28148,-0.13441
0.22777,0.97177,0.06119,0.47168,0.18164,-0.20935
0.22433,0.97263,0.0602,0.56818,0.00431,-0.21016
0.22491,0.97264,0.0578,0.65155,-0.02784,-0.11647
0.22722,0.97235,0.05351,0.54031,0.06975,-0.05745
0.23214,0.97154,0.04673,0.19576,0.06415,0.0262
0.23759,0.97065,0.03666,0.02362,-0.05748,0.19459
0.24194,0.97006,0.02034,0.0407,-0.04884,0.38974
0.24782,0.96874,-0.0097,-0.04487,0.11631,0.28735
0.25589,0.96567,-0.04429,-0.03839,0.3397,0.14612
0.26543,0.96116,-0.07536,-0.04007,0.41422,0.15266
0.27437,0.95586,-0.10497,0.21998,0.34974,0.00418
0.28051,0.95111,-0.1291,0.29023,0.12343,0.09007
0.28828,0.94623,-0.14667,0.19099,0.02574,0.09209
0.29182,0.94308,-0.15941,0.07889,-0.04424,-0.01875
0.28696,0.94249,-0.17131,-0.05499,-0.00161,-0.07265
0.28196,0.94136,-0.18524,-0.04237,0.17015,-0.00692
0.28499,0.93772,-0.19856,-0.08033,-0.14207,0.08106
0.29625,0.93168,-0.21018,-0.03378,-0.22983,0.12694
0.30974,0.92602,-0.21569,0.01832,-0.38238,0.16213
0.31938,0.92338,-0.21293,-0.07285,-0.44083,0.14418
0.32105,0.92436,-0.20607,-0.20512,-0.37573,0.08416
0.31926,0.92623,-0.20036,-0.19469,-0.24424,0.04967
0.31658,0.92806,-0.1961,-0.0472,-0.28185,0.16398
0.31408,0.93025,-0.18962,-0.02691,-0.2782,0.1368
0.313,0.93264,-0.1794,-0.08784,-0.26063,0.00804
0.31371,0.93476,-0.16669,-0.1872,-0.35901,-0.09405
0.31367,0.93678,-0.15497,-0.20414,-0.40564,-0.09947
0.31063,0.93911,-0.14677,-0.17,-0.50653,-0.06139
0.30726,0.94148,-0.13845,-0.16665,-0.50789,-0.12673
0.3065,0.9431,-0.1288,-0.15516,-0.44656,-0.01945
0.31029,0.94304,-0.11989,-0.03355,-0.1091,0.05723
0.31634,0.94219,-0.11036,0.01783,0.08609,0.05544
0.32643,0.93994,-0.0996,-0.0959,-0.17583,-0.00053
0.33536,0.93822,-0.0851,-0.21588,-0.65133,0.11064
0.34031,0.93747,-0.07289,-0.23393,-0.51527,0.22552
0.34109,0.93721,-0.07254,-0.1138,-0.03169,0.13414
0.33869,0.93583,-0.0974,0.80236,1.40466,-0.04572
0.33663,0.93519,-0.10983,1.18973,1.21867,0.14897
0.34792,0.93358,-0.08569,-0.0995,0.15626,-0.26077
0.36557,0.92664,-0.08752,0.09556,0.71205,-0.0416
0.36933,0.92366,-0.10205,0.60614,0.67012,-0.49759
0.35924,0.92739,-0.1042,0.4094,0.00625,-0.15465
0.35902,0.92739,-0.10498,0.28443,-0.42614,0.20555
0.36519,0.92622,-0.09339,-0.01977,-0.47511,0.14545
0.37103,0.92551,-0.07578,-0.07128,0.00529,-0.12904
0.37057,0.92616,-0.06985,-0.09212,0.06723,-0.27613
0.36773,0.92671,-0.07711,0.0665,-0.35223,-0.12107
0.36664,0.92619,-0.08786,0.08043,-0.45118,-0.06043
0.36359,0.9262,-0.09961,0.00816,-0.46301,0.02733
0.35481,0.92823,-0.11168,-0.03865,-0.41454,-0.01171
0.34552,0.92985,-0.12631,0.0186,-0.41173,0.05115
0.33769,0.9303,-0.14307,0.06096,-0.46987,0.19395
0.33227,0.92931,-0.16108,-0.25654,-0.09649,0.27043
0.33326,0.92443,-0.18531,-0.3465,0.24538,0.20168
0.34244,0.91449,-0.21545,-0.32814,1.052,0.04984
0.35324,0.90373,-0.24181,0.14954,0.94051,-0.03517
0.36152,0.89615,-0.25726,0.23725,0.38326,-0.15743
0.3696,0.89008,-0.2667,0.33587,0.1868,-0.07333
0.37679,0.8853,-0.27248,0.17676,0.25413,-0.10826
0.38176,0.88265,-0.27415,-0.026,0.45884,-0.1764
0.38722,0.8813,-0.27084,-0.11924,0.32645,-0.17644
0.39259,0.88076,-0.26477,-0.1949,0.13427,-0.16165
0.39419,0.88258,-0.2562,-0.06045,-0.04153,-0.06019
0.39131,0.8876,-0.24293,0.05762,-0.09169,-0.04592
0.3861,0.89471,-0.22448,0.06619,-0.13707,-0.13536
0.37813,0.90289,-0.2044,0.02838,-0.12317,-0.15177
0.36829,0.91081,-0.18643,-0.05112,-0.11502,-0.07401
0.35844,0.91796,-0.16983,-0.18148,-0.13753,0.0047
0.34943,0.9242,-0.15398,-0.26444,-0.17288,0.03694
0.34313,0.92896,-0.13879,-0.43203,-0.2815,0.00367
0.34128,0.93169,-0.12431,-0.41254,-0.6613,-0.01913
0.34463,0.93171,-0.11449,-0.26569,-0.99347,-0.04492
0.35167,0.92951,-0.11095,-0.10362,-1.26296,-0.07006
0.36342,0.92578,-0.10405,-0.08474,-1.27613,-0.0728
0.37376,0.92263,-0.09497,-0.33309,-0.71095,0.05514
0.37957,0.91896,-0.1068,0.11136,0.36565,0.33733
0.37708,0.91739,-0.12718,0.85142,1.37608,-0.08153
0.38144,0.91753,-0.11228,1.1445,1.77134,0.04881
0.38876,0.9164,-0.09506,-0.46835,-0.49274,-0.10932
0.39714,0.91135,-0.10814,-0.48409,-0.25673,0.23401
0.38851,0.91332,-0.12196,0.4754,1.56585,-0.88849
0.36446,0.92236,-0.12802,0.81319,-0.07119,-0.10189
0.36117,0.92184,-0.14049,0.49084,-0.53164,0.075
0.36482,0.91797,-0.15557,0.37099,-0.49383,0.07019
0.3655,0.91489,-0.17135,0.1591,0.02212,-0.22536
0.36329,0.91133,-0.1936,-0.21305,-0.19552,-0.09956
0.35777,0.90811,-0.21752,-0.40868,-0.7285,0.32775
0.35333,0.90467,-0.23813,-0.43535,-0.35758,0.30312
0.35013,0.89827,-0.26548,-0.31411,0.26417,0.21385
0.35034,0.88768,-0.29876,-0.10006,0.83996,0.15809
0.35872,0.87732,-0.31876,0.17894,1.24588,-0.0466
0.37854,0.8672,-0.3235,0.05726,0.23969,-0.12691
0.39306,0.85939,-0.32701,0.1843,0.07375,-0.15544
0.39516,0.85958,-0.32396,-0.07268,0.13451,-0.16435
0.39584,0.8641,-0.31082,-0.04828,0.07898,-0.217
0.39751,0.86955,-0.29298,-0.01873,0.04791,-0.28816
0.39669,0.8763,-0.27334,-0.00317,0.04279,-0.29843
0.39281,0.88279,-0.25761,-0.01287,0.01291,-0.09281
0.38538,0.88995,-0.24383,-0.06807,-0.05993,-0.05644
0.37546,0.89834,-0.22799,-0.11977,-0.13009,-0.0269
0.3637,0.90734,-0.21079,-0.10268,-0.19657,-0.05184
0.35,0.9171,-0.19082,-0.12226,-0.23561,-0.09901
0.33608,0.92615,-0.17112,-0.18233,-0.04049,-0.02555
0.3263,0.93241,-0.15525,-0.27454,0.20308,0.00971
0.32612,0.93403,-0.14565,-0.30721,0.04049,0.19676
0.32963,0.93343,-0.14147,-0.10887,-0.65688,0.1431
0.33413,0.93298,-0.13372,-0.19825,-0.96903,0.14201
0.34255,0.93205,-0.11791,-0.31725,-1.07802,-0.0428
0.35411,0.92959,-0.10215,-0.45084,-1.16018,-0.25953
0.36137,0.92698,-0.10042,-0.45141,-0.76785,0.2267
0.36438,0.92453,-0.11156,-0.2561,-0.64651,0.39361
0.36935,0.92007,-0.13048,0.8901,0.93824,-0.03494
0.38152,0.916,-0.12391,0.74641,0.93158,-0.17544
0.3947,0.91307,-0.10238,-0.17408,0.23549,-0.44836
0.40639,0.90702,-0.11016,-0.67107,0.01959,-0.02253
0.40481,0.90656,-0.11936,-0.15374,0.70571,-0.66279
0.37916,0.91603,-0.13075,1.06851,1.26729,-0.76276
0.3644,0.92082,-0.13883,0.64965,-0.12163,0.24349
0.36509,0.92032,-0.14031,0.28881,-0.30832,0.25734
0.36167,0.92031,-0.14901,-0.05423,0.1264,-0.21699
0.35487,0.91855,-0.17411,-0.26293,-0.04435,-0.21232
0.34397,0.91731,-0.20049,-0.29169,-0.36874,-0.0818
0.33613,0.91612,-0.21843,-0.27386,-1.03921,0.33678
0.33443,0.91023,-0.24415,-0.26198,-0.80133,0.26359
0.33454,0.90138,-0.27489,-0.10758,0.45499,-0.04974
0.33617,0.892,-0.30215,0.55357,1.56215,0.25531
0.34879,0.88516,-0.30792,0.22086,0.83849,-0.06349
0.36449,0.88037,-0.30343,-0.0025,0.36052,-0.11849
0.36847,0.87922,-0.30196,0.21755,-0.1038,-0.14529
0.36944,0.88114,-0.29509,-0.03852,0.55947,-0.17192
0.38071,0.88025,-0.2832,0.07005,0.43601,-0.28317
0.39008,0.87971,-0.27188,0.17194,0.05001,-0.19878
0.39177,0.88315,-0.25796,0.11101,-0.21522,-0.16623
0.38837,0.88945,-0.24087,-0.04845,-0.28842,-0.12083
0.38199,0.89741,-0.22073,-0.16983,-0.4199,-0.00672
0.3725,0.90684,-0.19715,-0.27513,-0.56998,0.06834
0.36202,0.91593,-0.17315,-0.28732,-0.60535,0.08779
0.35228,0.92353,-0.15152,-0.38898,-0.46098,0.10333
0.34097,0.93052,-0.13359,-0.34488,-0.07415,0.04288
0.32753,0.93757,-0.11685,-0.24,0.31099,0.05293
0.31883,0.94183,-0.10615,-0.10738,-0.19693,-0.10598
0.32469,0.94032,-0.10171,-0.09599,-0.45765,0.00557
0.34003,0.93521,-0.0986,-0.15312,-0.42359,-0.0493
0.36052,0.92794,-0.09441,-0.22417,-0.31964,-0.05788
0.3771,0.92126,-0.09512,-0.10455,0.09243,-0.0262
0.37887,0.92004,-0.09973,0.22466,0.45227,-0.04373
0.3693,0.92271,-0.11045,0.52659,0.48745,0.02764
0.36978,0.92092,-0.12305,0.70317,0.18582,0.07473
0.38339,0.91601,-0.11797,0.27691,0.24879,0.02159
0.39919,0.91107,-0.10276,0.10392,0.44148,-0.21592
0.40844,0.90665,-0.10549,0.47833,1.31488,-0.22706
0.40733,0.90545,-0.11918,0.52568,0.74413,0.0897
0.40658,0.90604,-0.11726,-0.07835,-0.24044,0.01831
0.40755,0.90678,-0.10781,-0.14746,-0.38824,0.06105
0.40895,0.90733,-0.09742,-0.05021,-0.13541,0.02629
0.40685,0.90933,-0.08693,-0.11088,0.02713,-0.06569
0.40065,0.91265,-0.08077,-0.07091,0.07902,-0.07913
0.39453,0.91556,-0.07785,0.06851,-0.21582,-0.11948
0.38982,0.91763,-0.07718,0.05012,-0.42993,-0.09825
0.38742,0.91816,-0.08282,0.01483,-0.5761,-0.15287
0.38504,0.91834,-0.09145,0.00403,-0.48789,-0.08265
0.38122,0.91853,-0.10465,0.04728,-0.39532,-0.17219
0.37501,0.91944,-0.11823,0.13755,-0.33666,-0.02639
0.36752,0.92074,-0.13093,-0.00233,-0.43592,0.18628
0.36074,0.92145,-0.14411,-0.07261,-0.42168,0.25854
0.35526,0.92092,-0.16021,-0.27003,-0.16976,0.24779
0.3525,0.91857,-0.17871,-0.35688,0.52241,-0.06194
0.35338,0.91321,-0.20285,-0.23752,0.80429,-0.04249
0.35784,0.90459,-0.2316,0.42412,0.39884,-0.21448
0.36633,0.8943,-0.25691,0.45642,0.42034,-0.1895
0.3721,0.88713,-0.27297,0.4742,0.51929,-0.151
0.37927,0.88045,-0.28449,0.12614,0.95483,-0.2304
0.3895,0.87415,-0.29004,-0.05065,0.91813,-0.15488
0.39885,0.87066,-0.28783,-0.29537,0.34443,-0.03544
0.40224,0.87021,-0.28446,-0.14057,-0.37517,0.05906
0.39967,0.87268,-0.28048,-0.06384,-0.49292,0.11388
0.39289,0.87869,-0.27116,-0.17173,-0.51252,0.05839
0.38687,0.88604,-0.25543,-0.15463,-0.48495,-0.06708
0.38135,0.89343,-0.23734,-0.10162,-0.47361,-0.14141
0.37255,0.90206,-0.21784,-0.15814,-0.34846,-0.14382
0.36279,0.91063,-0.19777,-0.28653,-0.22235,-0.16
0.35647,0.91623,-0.18279,-0.38051,-0.11123,-0.13983
0.35218,0.91966,-0.17369,-0.34113,0.05142,-0.03663
0.34438,0.92381,-0.16719,-0.12554,0.08135,0.06073
0.33954,0.92709,-0.15869,0.05116,-0.2601,0.10403
0.34096,0.92833,-0.14808,-0.06304,-0.51225,-0.01728
0.35024,0.9264,-0.13816,-0.22348,-0.45121,-0.04202
0.36262,0.92255,-0.13182,-0.21435,-0.26811,-0.09688
0.37237,0.91843,-0.13338,0.0365,0.0655,0.11202
0.3731,0.91669,-0.14298,0.68473,0.71441,0.1675
0.37265,0.91581,-0.14963,0.64102,0.20624,0.16869
0.37647,0.91573,-0.14031,-0.02054,0.0414,0.0891
0.38616,0.91339,-0.12876,0.19586,0.71885,-0.11691
0.39371,0.90922,-0.13519,0.76395,0.68715,-0.33194
0.39025,0.91034,-0.13765,0.36896,0.07521,-0.32716
0.38967,0.91055,-0.13797,0.0506,-0.48918,-0.11626
0.39611,0.908,-0.13641,0.20337,0.00158,-0.16665
0.4007,0.90772,-0.12433,0.28495,0.27632,-0.20602
0.3929,0.91301,-0.10962,0.2191,0.55339,-0.11036
0.38191,0.91906,-0.09718,0.07901,-0.09643,-0.07812
0.37426,0.92315,-0.08768,-0.04557,-0.37934,-0.03669
0.37033,0.92572,-0.07654,-0.15234,-0.439,-0.04641
0.36444,0.92849,-0.07105,-0.15547,-0.43364,-0.00697
0.35498,0.93211,-0.07158,-0.09536,-0.33397,0.06485
0.34601,0.93555,-0.07068,-0.01784,-0.39612,0.10947
0.33903,0.93812,-0.07034,0.08712,-0.36528,0.1186
0.33252,0.93989,-0.07744,0.10897,-0.33448,0.10302
0.3255,0.94082,-0.09422,0.09792,-0.28028,0.07785
0.31809,0.94047,-0.11962,-0.01885,-0.47823,-0.05778
0.31308,0.93887,-0.14307,-0.0791,-0.48314,0.09134
0.31414,0.93482,-0.16553,-0.33982,-0.0673,-0.01779
0.32056,0.92734,-0.19303,-0.22782,0.44901,-0.01035
0.33135,0.91542,-0.22843,0.28999,1.11708,0.01232
0.33636,0.90857,-0.24766,0.08534,0.52428,-0.1734
0.34367,0.90405,-0.25409,0.05657,0.48881,-0.16565
0.36229,0.89383,-0.26418,0.20988,0.65256,-0.27942
0.37842,0.88451,-0.27278,0.05599,0.55863,-0.32073
0.38672,0.88049,-0.27415,0.02106,0.31169,-0.30641
0.39281,0.87943,-0.26883,0.094,-0.24923,-0.21187
0.39421,0.88173,-0.25908,0.01622,-0.17383,-0.04516
0.39024,0.88762,-0.24455,-0.00552,-0.02521,-0.04604
0.38553,0.89415,-0.22768,-0.12684,-0.01967,-0.06008
0.3797,0.90106,-0.20952,-0.15834,-0.10798,-0.03052
0.37305,0.9084,-0.18871,-0.21031,-0.23947,-0.04177
0.364,0.91693,-0.16345,-0.36918,-0.30289,0.00492
0.35246,0.92574,-0.13691,-0.45437,-0.22166,0.20546
0.34036,0.933,-0.11672,-0.37656,-0.18827,0.24097
0.33718,0.93578,-0.10293,0.01506,-0.83374,-0.01728
0.34021,0.93609,-0.08925,0.03843,-1.24845,-0.23076
0.35061,0.93333,-0.07702,-0.12112,-1.52946,-0.1637
0.36913,0.9268,-0.069,-0.4877,-1.19792,0.05003
0.3944,0.91682,-0.06208,-0.47696,-0.016,0.00814
0.41183,0.90855,-0.06997,0.04137,0.84047,0.18145
0.41304,0.90503,-0.10142,0.99709,1.97615,-0.332
0.4197,0.90162,-0.10444,0.47273,0.36793,0.18342
0.42231,0.90286,-0.08042,-0.78976,-0.31118,0.15489
0.42589,0.90157,-0.07584,-0.8318,0.69407,-0.28349
0.41295,0.90585,-0.09422,1.01939,1.71585,-0.96337
0.37921,0.9188,-0.10944,1.17801,0.17634,0.03159
0.37488,0.9197,-0.11655,0.60041,-0.55408,0.01822
0.38794,0.91331,-0.12385,0.29037,-0.24709,-0.27796
0.39323,0.9093,-0.13603,-0.11288,-0.12609,-0.19261
0.39141,0.90716,-0.15434,-0.19411,-0.35774,0.03973
0.38493,0.90636,-0.17406,-0.23883,-0.7606,0.27235
0.37835,0.90684,-0.18565,-0.44141,-0.97462,0.32285
0.37294,0.90658,-0.19748,-0.35036,-0.15533,0.24686
0.37051,0.90277,-0.21841,-0.15587,0.53867,-0.00731
0.37118,0.89558,-0.24521,0.22708,0.97544,0.16176
0.37538,0.88939,-0.26086,0.19608,0.26609,0.08025
0.38208,0.8853,-0.265,0.03508,0.02755,0.01686
0.38461,0.88236,-0.2711,0.15336,0.28615,0.02564
0.38276,0.88217,-0.2743,0.02643,0.6512,-0.12799
0.38312,0.88307,-0.27089,-0.17142,0.77826,-0.32321
0.38702,0.88397,-0.26227,-0.05076,0.26657,-0.35038
0.38974,0.88615,-0.25062,0.1667,-0.22181,-0.23078
0.38757,0.89139,-0.2349,0.15976,-0.24816,-0.15847
0.38457,0.8973,-0.2166,0.13131,-0.1465,-0.08354
0.38018,0.90405,-0.19525,-0.01815,-0.10554,-0.13598
0.37157,0.91247,-0.17119,-0.34614,-0.04812,0.02002
0.35666,0.92219,-0.14943,-0.40314,-0.05418,0.08349
0.33772,0.932,-0.1315,-0.43174,-0.11073,0.25259
0.32416,0.93895,-0.11513,-0.3062,-0.70114,0.01867
0.32142,0.94142,-0.10189,-0.1571,-1.0533,-0.02122
0.32472,0.9411,-0.09406,-0.16092,-1.17986,-0.09672
0.33277,0.93891,-0.08766,-0.19683,-1.23752,0.027
0.34332,0.93568,-0.08121,-0.31579,-0.97688,-0.02252
0.35119,0.9325,-0.08413,-0.38818,-0.47278,0.10582
0.34367,0.93236,-0.11208,1.47049,2.57551,0.1574
0.33763,0.93292,-0.12501,0.41957,0.22308,-0.28011
0.34556,0.93268,-0.10323,-0.14748,-0.6045,-0.44256
0.36524,0.92559,-0.09922,-0.13472,-0.01318,-0.06175
0.37644,0.92006,-0.10843,0.60679,0.56154,-1.06648
0.36384,0.92411,-0.11662,1.21509,1.1868,-0.83417
0.34849,0.93027,-0.11457,0.95234,-0.12959,-0.32802
0.34319,0.93367,-0.10219,0.64509,-0.38996,-0.23561
0.33615,0.93716,-0.09326,0.38009,-0.22684,-0.14296
0.32721,0.94063,-0.0901,0.07076,0.30273,-0.24038
0.31497,0.9449,-0.08897,0.12843,0.01303,-0.04067
0.30037,0.94979,-0.08743,0.14316,-0.17867,0.03706
0.28338,0.95501,-0.08733,-0.20532,-0.34577,0.20067
0.26791,0.95888,-0.09344,-0.32406,-0.58436,0.21597
0.25761,0.96051,-0.105,-0.37019,-0.52963,0.23988
0.25243,0.95996,-0.12135,-0.3871,-0.06789,0.18778
0.25613,0.95542,-0.14678,0.04241,0.7077,0.22987
0.26805,0.94599,-0.18228,0.91472,0.83583,0.13651
0.27426,0.93979,-0.20382,0.3944,0.42443,0.11846
0.28118,0.93636,-0.21007,0.20739,0.43856,-0.06331
0.29339,0.93088,-0.21761,0.09643,0.52467,-0.13599
0.30754,0.92397,-0.2273,0.14888,0.33537,-0.1833
0.31947,0.91653,-0.24059,0.32271,0.13723,-0.02705
0.32414,0.91245,-0.24969,0.14867,-0.00069,0.10856
0.32327,0.91208,-0.25213,-0.02417,-0.02952,0.15831
0.32106,0.91327,-0.25066,-0.17911,-0.07776,0.161
0.31956,0.9151,-0.24585,-0.20302,-0.19063,0.15761
0.31903,0.91739,-0.23788,-0.04577,-0.32294,0.15102
0.31816,0.91995,-0.22898,-0.01743,-0.3954,0.07007
0.31532,0.92307,-0.2202,-0.07395,-0.23461,-0.00352
0.31271,0.9264,-0.20967,-0.06294,-0.1919,-0.11947
0.30908,0.93009,-0.19843,-0.09356,-0.19573,-0.23756
0.30407,0.93374,-0.1888,-0.06358,-0.21047,-0.19572
0.29707,0.93705,-0.18347,-0.00378,-0.12688,-0.17729
0.29011,0.93968,-0.18114,0.02493,0.17412,-0.08282
0.28334,0.94126,-0.1836,-0.02571,0.33765,-0.15316
0.28083,0.94097,-0.18889,0.02947,0.45561,-0.20813
0.28252,0.93887,-0.19668,0.09317,0.46134,-0.13559
0.28658,0.93475,-0.20995,0.07026,0.13988,0.04528
0.29137,0.93132,-0.21845,0.17017,0.07497,0.18129
0.28896,0.92973,-0.22821,0.41845,-0.04664,0.21227
0.28298,0.9301,-0.23411,0.68459,-0.37624,0.37594
0.279,0.93215,-0.23072,0.38873,-0.09059,0.37128
0.28169,0.93419,-0.21889,0.16092,0.24942,0.39463
0.2811,0.93797,-0.20291,-0.02498,0.36111,0.35453
0.27101,0.9448,-0.18408,-0.12189,0.33862,0.3137
0.26347,0.95016,-0.16659,0.02583,0.1394,0.26177
0.26759,0.95151,-0.1516,0.0681,-0.03872,0.19063
0.27504,0.95176,-0.13591,0.06917,-0.12641,0.07019
0.28,0.95269,-0.11814,0.07773,-0.18631,-0.00325
0.28079,0.95454,-0.09986,0.15829,-0.25239,-0.09699
0.27988,0.95648,-0.08238,0.10038,-0.30366,-0.03983
0.28056,0.95754,-0.06605,0.04858,-0.34945,-0.00841
0.28169,0.9582,-0.04968,-0.01073,-0.3608,0.06279
0.27989,0.95946,-0.03262,0.03138,-0.17861,0.04429
0.27608,0.961,-0.01477,0.0706,-0.03785,-0.01812
0.27318,0.96194,0.0023,0.08249,-0.05677,-0.05883
0.2703,0.96265,0.01455,0.20499,-0.13518,-0.038
0.26539,0.96382,0.02421,0.23005,-0.05276,-0.05607
0.25849,0.96537,0.03457,0.24147,0.15171,-0.11247
0.25127,0.96695,0.04287,0.31029,0.25516,-0.1461
0.24539,0.96829,0.04657,0.4269,0.215,-0.20029
0.23959,0.96985,0.04404,0.60639,0.18177,-0.22044
0.2314,0.97204,0.03939,0.6318,0.06272,-0.19874
0.22232,0.97425,0.03707,0.54953,-0.01767,-0.11141
0.21696,0.97557,0.03382,0.33019,-0.00676,0.06916
0.21566,0.97612,0.02539,0.06884,-0.18297,0.11724
0.21624,0.97626,0.01045,-0.03891,-0.25739,0.28258
0.2178,0.97591,-0.01094,0.09299,-0.14083,0.37213
0.22343,0.97372,-0.04361,0.55055,0.2711,0.35684
0.23296,0.96905,-0.08153,0.41067,0.52452,0.17294
0.24923,0.96214,-0.11015,0.23783,0.5022,0.10791
0.26341,0.95518,-0.13494,-0.03384,0.26921,-0.07407
0.2715,0.94942,-0.15763,0.04335,0.1079,0.05186
0.27445,0.94434,-0.18129,0.17344,-0.03899,0.12895
0.27515,0.93994,-0.20194,0.22354,-0.11364,0.10553
0.27687,0.93518,-0.22078,0.18857,-0.06996,0.08629
0.28191,0.92885,-0.24029,0.13292,0.03674,0.15676
0.28911,0.92213,-0.25704,0.02898,-0.05619,0.25265
0.29342,0.91751,-0.26843,-0.01273,-0.1764,0.28809
0.29294,0.91589,-0.27442,-0.02703,-0.26569,0.25314
0.28837,0.91634,-0.27775,-0.06157,-0.22169,0.20715
0.28261,0.91668,-0.28248,-0.14919,-0.02125,0.14742
0.27774,0.91736,-0.28509,-0.11353,-0.10386,0.17382
0.27331,0.91973,-0.28172,-0.06901,-0.19352,0.17588
0.27012,0.92363,-0.27186,0.00071,-0.31836,0.01988
0.26814,0.9274,-0.26078,-0.00403,-0.20462,-0.09531
0.26815,0.92971,-0.25238,0.01169,-0.15851,-0.13051
0.26806,0.93057,-0.24931,0.08373,-0.11175,-0.191
0.26701,0.9315,-0.24694,0.19623,-0.13945,-0.21031
0.26386,0.93297,-0.24478,0.29491,-0.03632,-0.17639
0.26377,0.9329,-0.24516,0.29951,0.04365,-0.19997
0.27459,0.92943,-0.24642,0.12735,0.29724,0.15341
0.28883,0.92089,-0.26174,0.12896,0.78152,0.1757
0.30258,0.91311,-0.27322,0.0421,0.64225,0.20397
0.31099,0.91346,-0.26239,-0.25445,0.39153,0.10179
0.31113,0.91428,-0.25935,-0.11402,-0.23674,0.21522
0.3045,0.9124,-0.27346,0.49561,-0.51727,0.37159
0.29685,0.91043,-0.28805,0.64201,-0.42659,0.37849
0.29623,0.91122,-0.28618,0.54215,0.41221,0.57005
0.30346,0.91563,-0.26366,-0.14428,0.6023,0.20648
0.31347,0.91982,-0.23588,-0.43912,0.522,-0.00189
0.32038,0.92191,-0.21772,0.11159,0.05788,0.23953
0.32594,0.92304,-0.20429,0.0759,-0.06788,0.30078
0.33451,0.92272,-0.19147,-0.06794,-0.12391,0.14708
0.34224,0.92297,-0.17596,-0.1136,-0.12996,0.08061
0.34257,0.92619,-0.15743,-0.0649,-0.1133,-0.00855
0.33803,0.93028,-0.14244,-0.01097,-0.1009,0.05525
0.33653,0.93221,-0.13301,-0.00261,-0.12975,0.03346
0.33999,0.93166,-0.128,0.03329,-0.23874,-0.0346
0.34323,0.93071,-0.12629,0.09083,-0.26568,-0.02181
0.34289,0.9307,-0.12722,0.0749,-0.29138,-0.09178
0.33983,0.93141,-0.13024,-0.0412,-0.44972,-0.07392
0.33746,0.93176,-0.13379,-0.08331,-0.62204,0.01755
0.3361,0.93141,-0.13958,-0.00974,-0.58424,0.05529
0.33279,0.93171,-0.14535,0.23528,0.11379,-0.07166
0.32461,0.93384,-0.15015,0.25824,0.22681,2e-05
0.31687,0.93556,-0.15587,0.21269,-0.0026,0.07793
0.31052,0.9364,-0.16337,0.12708,-0.27936,0.15057
0.29923,0.93844,-0.1725,0.10923,-0.25161,0.14736
0.28565,0.94067,-0.18307,-0.02755,-0.21606,0.1642
0.27439,0.94134,-0.19636,-0.09524,-0.35734,0.20869
0.2697,0.93936,-0.21174,-0.30422,-0.28254,0.29188
0.27155,0.93423,-0.23118,-0.38625,0.16251,0.12395
0.2817,0.92324,-0.26122,0.11027,0.94401,0.11066
0.29339,0.90913,-0.29561,0.5682,0.84199,0.14476
0.30065,0.9014,-0.31156,0.22531,0.38358,-0.01112
0.31018,0.89664,-0.31591,0.05818,-0.03754,-0.05532
0.32706,0.88771,-0.324,0.01562,0.02907,-0.07867
0.33837,0.87939,-0.33489,-0.13302,0.33211,-0.08459
0.34633,0.87261,-0.34434,0.00678,0.45281,-0.09326
0.35614,0.86742,-0.34745,0.03311,0.40526,-0.05361
0.36723,0.86417,-0.34398,0.13976,0.10934,-0.00064
0.37235,0.8661,-0.33347,0.09241,-0.21787,0.08745
0.37156,0.87315,-0.31547,-0.03161,-0.11686,0.05552
0.37088,0.88012,-0.29633,-0.10341,0.0056,-0.04016
0.36929,0.88714,-0.27675,-0.14469,-0.02515,-0.01428
0.3678,0.89514,-0.25182,-0.2332,-0.16725,-0.02229
0.36682,0.90306,-0.22336,-0.42641,-0.44914,0.1748
0.36607,0.9087,-0.20057,-0.61804,-0.50197,0.16497
0.36647,0.91259,-0.18123,-0.63626,-0.52584,0.10934
0.36674,0.91577,-0.16381,-0.19645,-0.6539,-0.02435
0.36213,0.92022,-0.1484,-0.0337,-0.70821,-0.0775
0.36399,0.92091,-0.13926,0.21817,-0.97746,-0.11122
0.38157,0.9145,-0.13436,-0.16593,-0.91176,-0.03928
0.39954,0.90675,-0.13465,-0.25832,-0.61389,0.37963
0.41292,0.89867,-0.1478,0.00915,-0.0639,0.46561
0.41532,0.89401,-0.16798,1.23234,2.44058,0.27572
0.41604,0.89665,-0.15129,-0.08995,0.56423,-0.42941
0.41551,0.8979,-0.14518,-0.62294,0.08577,-0.20377
0.41364,0.89676,-0.15715,0.54048,1.21784,-0.90463
0.38648,0.90697,-0.16732,1.14561,0.52123,-0.2305
0.36441,0.91427,-0.17684,0.67984,-0.41919,0.22814
0.36996,0.91015,-0.18635,0.25966,-0.40507,0.07454
0.3742,0.90652,-0.19534,0.04705,-0.00253,0.0625
0.36998,0.90362,-0.21575,-0.28319,-0.18025,0.08818
0.35616,0.90268,-0.24141,-0.57867,-0.58921,0.28789
0.34228,0.90299,-0.25967,-0.64538,-0.64006,0.21957
0.33749,0.8988,-0.27968,-0.40043,-0.00352,0.12346
0.33759,0.88786,-0.31259,0.2257,0.78652,0.19766
0.33213,0.87908,-0.34188,0.76884,1.01788,0.18869
0.33046,0.87685,-0.34915,0.03754,0.71005,-0.04781
0.34143,0.8746,-0.34419,-0.12621,0.1718,-0.06945
0.35266,0.87164,-0.34036,-0.0775,0.05268,-0.04642
0.35376,0.87289,-0.33598,-0.08284,0.20882,0.01254
0.35224,0.87629,-0.32866,-0.053,0.11639,-0.00308
0.35358,0.88066,-0.31527,-0.08554,0.19364,-0.08491
0.35571,0.88576,-0.29811,-0.09813,0.21202,-0.10368
0.35277,0.89248,-0.28107,-0.06201,0.05083,-0.007
0.34715,0.90062,-0.26141,-0.01483,-0.1594,0.04294
0.3432,0.90855,-0.23817,-0.12184,-0.31316,0.09503
0.34193,0.91422,-0.21738,-0.29968,-0.26857,0.26555
0.34288,0.91738,-0.20202,-0.42752,-0.19517,0.09516
0.34588,0.91945,-0.1869,-0.40313,-0.6242,-0.04201
0.34911,0.92132,-0.17107,-0.22571,-1.06719,-0.1519
0.35322,0.92266,-0.15457,-0.04571,-1.4862,-0.06157
0.36354,0.92031,-0.14432,-0.08818,-1.51077,0.0962
0.38052,0.91444,-0.1377,-0.42685,-0.99731,0.29926
0.39554,0.90774,-0.13971,-0.47763,-0.16781,0.22734
0.39749,0.90288,-0.1636,0.85411,2.32824,-0.44489
0.39621,0.90135,-0.17481,0.56285,0.97266,-0.09376
0.40676,0.89786,-0.16839,-0.06418,0.17822,0.07763
0.41783,0.89367,-0.16351,-0.17259,-0.54531,0.01951
0.4072,0.89605,-0.17675,0.52076,0.6561,-0.57904
0.37731,0.90432,-0.19953,1.01911,0.88113,-0.04115
0.36087,0.90927,-0.20727,0.69957,0.20738,0.01239
0.36372,0.90843,-0.206,0.34398,-0.47857,0.17449
0.37006,0.90433,-0.21263,-0.16149,-0.41835,0.29123
0.37086,0.90018,-0.22826,-0.48884,-0.26499,0.336
0.3642,0.8974,-0.24898,-0.4759,-0.21488,0.23143
0.35331,0.8965,-0.26727,-0.45225,-0.20311,-0.06866
0.34492,0.89283,-0.28958,-0.35128,0.12578,0.05406
0.34087,0.88339,-0.32157,0.33597,0.60926,0.23733
0.34219,0.87126,-0.35184,0.68964,0.78072,-0.0238
0.34868,0.86432,-0.36242,0.33656,0.64621,-0.0241
0.36001,0.86211,-0.35656,0.01394,0.2487,-0.17048
0.37457,0.85814,-0.35108,-0.00062,0.25267,-0.17596
0.38467,0.85249,-0.35392,-0.08438,0.3053,-0.01789
0.392,0.84831,-0.35591,-0.06074,-0.1237,0.09596
0.39611,0.84938,-0.34873,-0.11581,-0.34856,0.10131
0.39555,0.85652,-0.33149,-0.15912,-0.42981,0.11643
0.39001,0.86666,-0.31106,-0.26981,-0.47541,0.13225
0.38198,0.87685,-0.29186,-0.39564,-0.4497,0.23011
0.37653,0.88452,-0.27535,-0.39875,-0.35528,0.19283
0.37583,0.89024,-0.25726,-0.38715,-0.25822,0.1526
0.37824,0.89558,-0.23417,-0.33531,-0.01884,0.05045
0.37647,0.90153,-0.21325,-0.13158,0.3859,-0.15391
0.37522,0.9055,-0.1981,0.12466,0.04866,-0.1634
0.37816,0.90644,-0.18794,0.01686,-0.52905,0.01701
0.38705,0.90439,-0.17955,-0.06808,-0.86885,0.11171
0.40043,0.90165,-0.16321,-0.22893,-0.7747,0.20413
0.41529,0.89739,-0.14895,-0.35847,-0.30211,0.11468
0.42554,0.89313,-0.14556,-0.14653,0.44337,0.11724
0.42517,0.89068,-0.16088,0.66368,1.45481,0.25577
0.42832,0.88696,-0.17263,0.27613,0.30855,-0.11074
0.43512,0.885,-0.16555,-0.25994,0.02081,-0.09382
0.44452,0.88138,-0.15982,-0.56436,0.13887,-0.09855
0.44887,0.87671,-0.17278,0.3041,0.84455,-0.46021
0.43713,0.8792,-0.18943,1.31723,1.18301,0.05371
0.43291,0.8819,-0.18654,0.36358,0.14755,-0.02513
0.4378,0.88235,-0.17248,-0.2577,-0.3215,0.05207
0.44272,0.88251,-0.15853,-0.2304,-0.1083,-0.0559
0.44103,0.88536,-0.14692,-0.14967,-0.04608,-0.02863
0.43267,0.89013,-0.14293,0.00851,-0.08471,0.03456
0.42318,0.89488,-0.14162,0.17014,-0.16919,0.05619
0.4163,0.89883,-0.13695,-4e-05,-0.46566,0.03165
0.41109,0.90179,-0.13322,-0.16635,-0.47784,-0.02631
0.40625,0.90431,-0.1309,-0.19272,-0.43105,-0.03286
0.39884,0.907,-0.135,-0.13023,-0.23562,-0.01413
0.38871,0.9097,-0.14594,-0.01232,-0.23968,0.16459
0.37843,0.91178,-0.15939,0.03505,-0.29628,0.2653
0.36907,0.9131,-0.17322,-0.12,-0.45706,0.26613
0.36136,0.91265,-0.1909,-0.39809,-0.31072,0.13459
0.35723,0.90877,-0.21562,-0.46911,-0.01652,0.05926
0.35997,0.89926,-0.2484,0.00434,1.2389,0.13904
0.36857,0.88635,-0.28018,0.63578,0.70694,-0.13878
0.37485,0.87866,-0.29565,0.44714,0.59342,-0.1605
0.3773,0.8747,-0.30417,0.26139,0.39651,-0.0887
0.38452,0.87012,-0.30823,-0.02368,0.40923,-0.1564
0.39163,0.86696,-0.30818,-0.19866,0.47925,-0.20866
0.39902,0.86407,-0.30681,-0.15248,0.14963,-0.19838
0.40409,0.86292,-0.30338,0.03046,-0.151,0.02229
0.40269,0.86628,-0.29557,0.1098,-0.17384,0.12458
0.3976,0.87373,-0.28015,0.04288,-0.1023,0.08566
0.39265,0.88189,-0.26089,-0.08018,-0.13885,-0.01995
0.38498,0.89076,-0.24148,-0.26984,-0.18098,0.0096
0.37556,0.89992,-0.22152,-0.44639,-0.25681,0.04088
0.36735,0.90801,-0.20134,-0.49429,-0.36908,0.05959
0.36293,0.91374,-0.18256,-0.46808,-0.41682,0.00711
0.3615,0.91744,-0.16611,-0.24776,-0.73317,0.08296
0.35901,0.91996,-0.15733,-0.12981,-0.98464,0.08776
0.3594,0.92089,-0.15081,-0.12637,-1.28585,-0.01287
0.36723,0.91969,-0.13883,-0.29488,-1.13258,0.0109
0.37948,0.91629,-0.12795,-0.42771,-0.60921,-0.03658
0.38871,0.91083,-0.13877,0.03987,0.41544,0.52189
0.38897,0.90573,-0.16828,1.69867,1.95351,-0.19373
0.39476,0.90374,-0.16545,-0.0338,0.03925,-0.53817
0.40713,0.90101,-0.14965,-0.44225,0.03181,-0.54974
0.4224,0.89017,-0.17071,0.22265,1.30304,-0.23394
0.40903,0.89409,-0.1824,0.58609,-0.05244,-0.17567
0.3858,0.90453,-0.1815,0.55718,-0.30749,-0.15018
0.3776,0.9069,-0.18683,0.44821,-0.36772,-0.08827
0.37755,0.90649,-0.18894,0.4125,-0.06788,-0.12475
0.37257,0.90714,-0.19557,0.25903,0.01203,-0.05983
0.3631,0.90793,-0.20925,-0.03771,-0.32066,0.1953
0.34971,0.91014,-0.22209,-0.38741,-0.4423,0.5274
0.33335,0.91346,-0.23333,-0.50348,-0.42554,0.44629
0.32085,0.91371,-0.2493,-0.45456,-0.16481,0.11869
0.31408,0.90958,-0.272,-0.25069,0.39454,0.1154
0.31622,0.90055,-0.29831,0.24479,0.65788,0.15338
0.32671,0.89054,-0.31651,0.3137,0.42991,-0.12096
0.338,0.88216,-0.32789,0.21003,0.32775,-0.15823
0.34487,0.87574,-0.3378,0.33632,0.4632,-0.18127
0.34414,0.87358,-0.3441,0.02354,0.46723,-0.25368
0.34325,0.87306,-0.34628,-0.03081,0.2883,-0.2175
0.34401,0.87275,-0.34631,-0.009,0.04491,-0.12015
0.34188,0.87529,-0.34198,0.16232,-0.51293,0.03354
0.33377,0.88235,-0.33171,-0.05473,-0.32383,0.12637
0.32365,0.8903,-0.32028,-0.17903,-0.21342,0.14273
0.31516,0.89752,-0.30837,-0.22125,-0.2715,0.13717
0.30537,0.90551,-0.29456,-0.22175,-0.35423,0.18915
0.29664,0.9137,-0.2777,-0.18758,-0.38209,0.1187
0.28977,0.92107,-0.26006,-0.19967,-0.34209,0.02429
0.28344,0.92681,-0.24628,-0.25222,-0.29805,-0.0402
0.27633,0.93075,-0.2394,-0.20846,-0.24682,-0.04371
0.27098,0.93311,-0.23629,-0.06086,-0.23394,-0.00759
0.2707,0.93462,-0.23057,-0.07684,-0.18272,-0.14707
0.27771,0.93393,-0.22496,-0.17348,-0.12389,-0.32366
0.2906,0.92946,-0.22719,-0.14464,-0.24481,-0.31669
0.30184,0.92255,-0.24033,-0.21163,-0.33294,0.15328
0.30589,0.91606,-0.25927,-0.07532,0.09645,0.41519
0.30004,0.91085,-0.28337,0.66221,0.8585,0.36574
0.29607,0.90125,-0.31631,1.05593,0.2776,0.58235
0.31203,0.89628,-0.3151,0.28215,0.19042,0.19023
0.33405,0.89619,-0.29193,-0.13509,0.74081,-0.40403
0.34237,0.8887,-0.30489,0.56664,1.21867,-0.16557
0.33317,0.89129,-0.30751,0.88819,0.66707,0.22732
0.33257,0.89653,-0.29257,0.46117,0.11107,0.23573
0.33701,0.90375,-0.26387,0.1733,0.03552,0.1506
0.34355,0.90958,-0.23364,0.15468,0.42371,0.09725
0.34578,0.91453,-0.20984,-0.04654,0.31052,0.15541
0.34564,0.91949,-0.18717,-0.13342,-0.18716,0.23217
0.34474,0.92463,-0.16177,-0.16203,-0.30052,0.16578
0.33787,0.93065,-0.14035,-0.17527,-0.4919,0.15969
0.32475,0.93809,-0.12032,-0.15152,-0.61702,0.10896
0.3081,0.94626,-0.09806,-0.09141,-0.53402,0.10412
0.29092,0.95356,-0.07773,-0.07063,-0.27164,-0.04791
0.27726,0.95889,-0.06011,-0.05921,-0.20753,-0.06187
0.26674,0.96237,-0.05144,0.10854,-0.17149,-0.11543
0.25845,0.96481,-0.04788,0.30358,0.0607,-0.26726
0.25176,0.96657,-0.04813,0.53846,0.1008,-0.3668
0.24432,0.96832,-0.05118,0.64647,-0.02419,-0.4046
0.23513,0.97056,-0.05174,0.75471,-0.02134,-0.36268
0.22847,0.97223,-0.05027,0.47826,0.23839,0.11444
0.22723,0.97239,-0.05276,0.30158,0.07159,0.17148
0.22903,0.97168,-0.05774,0.09488,-0.07433,0.4392
0.23306,0.96976,-0.07205,0.08951,-0.02609,0.4442
0.23824,0.96607,-0.0995,0.20669,0.29015,0.29978
0.24221,0.9605,-0.13683,0.19308,0.48057,0.23473
0.25108,0.95212,-0.17432,0.18609,0.46521,0.1874
0.26171,0.94352,-0.20308,0.31405,0.12748,-0.03071
0.2653,0.93733,-0.22582,0.3987,0.1225,0.00709
0.2652,0.93184,-0.2476,0.37228,0.03674,0.11133
0.25897,0.92868,-0.26541,0.33943,-0.0138,0.14219
0.24826,0.92753,-0.2793,0.15541,-0.07338,0.0768
0.2369,0.92633,-0.29285,0.07996,-0.07385,0.15315
0.22657,0.92525,-0.3042,0.07662,-0.19959,0.28436
0.21908,0.92539,-0.30923,0.17553,-0.32148,0.36688
0.21407,0.92628,-0.31006,0.20355,-0.3309,0.33835
0.20739,0.92806,-0.30928,-0.0452,-0.18824,0.21364
0.19653,0.93005,-0.31041,-0.14309,-0.00959,0.19949
0.18654,0.93206,-0.31053,-0.09964,-0.09083,0.22855
0.17877,0.93383,-0.30979,-0.02358,-0.20314,0.20571
0.17406,0.93536,-0.30785,-0.03662,-0.12236,0.12497
0.172,0.93708,-0.30376,-0.03964,-0.08893,0.04283
0.16904,0.93994,-0.2965,0.00428,-0.08346,-0.11417
0.16195,0.94429,-0.28646,0.10834,-0.18357,-0.0913
0.15482,0.9476,-0.27937,0.30643,-0.21347,-0.14047
0.15078,0.94929,-0.27582,0.36959,-0.16427,-0.13185
0.15183,0.94871,-0.27724,0.40298,0.00069,-0.24991
0.15909,0.94689,-0.2794,0.31187,0.23373,-0.26038
0.17315,0.94263,-0.28537,0.33965,0.25804,-0.10445
0.18945,0.93741,-0.29211,0.3365,0.102,0.14135
0.20309,0.93579,-0.28812,-0.08394,0.50952,0.39466
0.20433,0.93751,-0.28157,0.24956,0.92519,0.29402
0.18804,0.94355,-0.2726,0.54704,0.08643,0.17199
0.17536,0.94642,-0.27109,0.56762,-0.62045,0.37337
0.18303,0.94606,-0.26726,0.58035,-0.26197,0.52468
0.19701,0.94805,-0.24969,0.43368,0.35471,0.3365
0.19958,0.95547,-0.21725,0.11641,0.50185,0.16741
0.19758,0.9632,-0.18212,-0.07511,0.34578,0.18049
0.2075,0.96572,-0.15582,0.11518,0.07848,0.24354
0.2203,0.96613,-0.13425,-0.00593,-0.04753,0.13177
0.22506,0.96785,-0.11214,0.00713,-0.16777,-0.06942
0.22342,0.97009,-0.09467,0.10545,-0.23733,-0.14487
0.2224,0.97161,-0.08039,0.21396,-0.36787,0.00613
0.2257,0.9719,-0.06652,0.19483,-0.41716,0.01712
0.23184,0.97124,-0.05382,0.12618,-0.49796,0.05774
0.23792,0.9704,-0.04081,0.1334,-0.43119,0.04319
0.24277,0.96972,-0.02583,0.16367,-0.23913,-0.03981
0.24533,0.96935,-0.01119,0.10422,-0.01799,-0.08157
0.24563,0.96934,0.00077,0.01376,-0.08334,-0.07263
0.24229,0.97014,0.00885,0.09462,0.09027,-0.06107
0.23694,0.97142,0.01217,0.28917,0.22328,-0.08394
0.23251,0.97249,0.01209,0.43536,0.0556,-0.07616
0.22991,0.97315,0.00885,0.55413,-0.06599,-0.04272
0.23071,0.97299,0.00307,0.61558,-0.00176,-0.00089
0.23579,0.97175,-0.00737,0.20032,-0.1023,0.19493
0.24523,0.96919,-0.02203,0.05314,-0.1387,0.41476
0.25723,0.9652,-0.04656,0.02376,0.5406,0.25208
0.26887,0.95933,-0.08574,-0.00014,0.69636,0.15387
0.27858,0.95259,-0.12213,0.00586,0.76016,0.17119
0.29,0.94502,-0.15097,0.27093,0.30841,-0.07082
0.29924,0.9383,-0.17325,0.23819,0.09315,-0.01622
0.30946,0.93099,-0.1935,0.21899,0.06513,0.00486
0.31583,0.92421,-0.2146,0.03151,-0.00291,-0.02699
0.31396,0.92042,-0.23284,-0.03351,0.07967,0.00375
0.30799,0.91817,-0.24914,0.04029,0.17227,0.02441
0.30829,0.91509,-0.25985,0.03175,0.00843,0.13751
0.31489,0.91093,-0.26649,0.02049,-0.15571,0.15442
0.32187,0.90741,-0.27012,0.032,-0.39548,0.15158
0.32473,0.90722,-0.26733,-0.13783,-0.51641,0.15614
0.32164,0.90996,-0.26171,-0.28573,-0.3555,0.10875
0.3174,0.91287,-0.25669,-0.19605,-0.3132,0.11849
0.31436,0.91481,-0.25349,-0.11383,-0.32105,0.11506
0.31384,0.91576,-0.25069,-0.092,-0.29444,0.08971
0.31589,0.91628,-0.24618,-0.07043,-0.28772,0.01089
0.31477,0.91835,-0.23981,-0.09008,-0.27466,-0.07056
0.30924,0.92288,-0.22939,-0.04334,-0.38849,-0.03061
0.30171,0.92812,-0.21801,-0.01222,-0.44484,0.01811
0.29578,0.93214,-0.20877,-0.17121,-0.23413,0.0179
0.29213,0.93439,-0.2038,-0.23139,0.0402,0.02738
0.29534,0.93367,-0.20248,-0.2216,0.19553,-0.03879
0.30475,0.93096,-0.20097,-0.11182,-0.06277,-0.05997
0.31333,0.92928,-0.19551,-0.05184,-0.17189,-0.01018
0.3236,0.92779,-0.1856,-0.06704,-0.24233,0.00839
0.334,0.92622,-0.17468,-0.10628,-0.29068,0.03253
0.33837,0.92552,-0.16995,-0.17118,-0.29803,0.02041
0.33259,0.92662,-0.17527,0.01271,-0.1533,0.28184
0.32699,0.92727,-0.18224,0.53365,0.44676,0.50621
0.33425,0.92507,-0.18025,0.50328,0.77566,-0.13904
0.35056,0.92175,-0.16569,0.09538,0.71932,-0.29967
0.35934,0.91721,-0.17191,0.33417,0.33108,-0.25056
0.3595,0.91488,-0.1836,0.12371,-0.08018,-0.39933
0.36054,0.91312,-0.19021,0.14397,-0.2985,-0.36977
0.36688,0.90952,-0.19527,0.45367,-0.26703,-0.02856
0.37443,0.9093,-0.1815,0.17742,-0.31312,0.02512
0.38056,0.91127,-0.15721,-0.01573,-0.15531,0.09083
0.38445,0.91305,-0.13596,-0.15313,0.08779,0.06744
0.38191,0.91631,-0.12034,-0.1103,0.31727,0.05572
0.37394,0.92094,-0.10953,-0.04451,-0.0007,-0.17414
0.36664,0.92446,-0.10438,-0.10715,-0.60366,-0.24151
0.35836,0.92709,-0.10973,-0.0395,-0.84918,0.02932
0.35108,0.92875,-0.11886,0.18084,-0.78219,0.05186
0.34537,0.93085,-0.11914,0.20268,-0.52281,0.09264
0.33995,0.93267,-0.12048,0.04722,-0.23806,0.01513
0.33412,0.93381,-0.12771,-0.00262,-0.12376,0.00732
0.32652,0.93552,-0.13472,0.03833,-0.18565,0.18218
0.31935,0.93655,-0.14438,-0.05152,-0.42242,0.25386
0.31565,0.93455,-0.16414,-0.33065,-0.2044,0.08443
0.32106,0.92858,-0.18605,-0.37869,0.60639,-0.06795
0.33953,0.91501,-0.21782,0.10914,1.40889,-0.11014
0.35665,0.89893,-0.25435,0.46951,1.39677,-0.1396
0.36373,0.89126,-0.27077,0.41812,0.23418,-0.20063
0.3697,0.88739,-0.27535,0.21474,0.25216,-0.26336
0.37688,0.88214,-0.28241,-0.18301,0.66905,-0.27043
0.38309,0.87698,-0.29002,-0.20821,0.22237,-0.08951
0.38962,0.87399,-0.29033,-0.10061,0.00088,-0.03134
0.39518,0.87336,-0.28467,0.09265,-0.3981,0.01093
0.39636,0.87624,-0.27399,0.12477,-0.56406,0.10105
0.39102,0.88351,-0.25783,-0.17292,-0.44695,0.08234
0.38461,0.89115,-0.24059,-0.3242,-0.36727,0.0364
0.37851,0.89805,-0.22407,-0.39058,-0.35639,0.05845
0.37157,0.90477,-0.20808,-0.34715,-0.41911,0.01979
0.36229,0.91233,-0.19069,-0.3147,-0.50501,-0.0543
0.35353,0.9193,-0.1728,-0.30806,-0.52482,-0.04563
0.3479,0.92393,-0.159,-0.29723,-0.27724,0.01729
0.34419,0.92713,-0.14806,-0.17173,0.16787,0.00768
0.34577,0.9276,-0.14127,-0.11056,0.03199,-0.14162
0.3554,0.92443,-0.1381,-0.09892,-0.4562,-0.07545
0.368,0.91995,-0.13503,-0.27059,-0.58758,0.10041
0.37957,0.9156,-0.13251,-0.20258,-0.29721,0.12265
0.38563,0.91178,-0.1411,0.40164,0.47853,0.11707
0.38625,0.91051,-0.14747,0.83548,0.95355,0.11218
0.38493,0.91195,-0.14192,0.48166,0.92436,-0.18535
0.3896,0.91175,-0.12992,-0.29402,-0.11131,-0.37249
0.40203,0.90631,-0.13009,-0.223,0.09392,-0.29169
0.41162,0.90054,-0.13984,0.80182,0.54174,0.10937
0.41369,0.89979,-0.13855,0.79975,0.54248,0.10808
0.41396,0.90214,-0.12141,-0.03699,-0.11015,0.00108
0.4157,0.90323,-0.10644,-0.41204,-0.28131,0.01171
0.41614,0.90445,-0.09355,-0.34568,-0.17484,-0.03683
0.41143,0.90757,-0.08363,-0.23957,-0.09028,-0.1068
0.40423,0.91109,-0.08045,0.0975,-0.31081,0.00535
0.39963,0.91327,-0.07864,0.0345,-0.46381,-0.02553
0.39609,0.9149,-0.07764,-0.04564,-0.5316,-0.05265
0.39153,0.91671,-0.07934,0.04906,-0.50024,-0.13365
0.38525,0.91873,-0.08646,0.14966,-0.43891,-0.15742
0.37827,0.92048,-0.09792,0.19093,-0.29082,-0.12435
0.37062,0.92216,-0.1105,0.1673,-0.28752,0.07383
0.36192,0.92415,-0.12214,0.13633,-0.29542,0.15304
0.35179,0.92616,-0.13576,-0.19061,-0.24015,0.07996
0.34402,0.92685,-0.15017,-0.41381,0.21818,-0.02837
0.3438,0.92382,-0.16827,-0.3142,1.0325,-0.07843
0.35249,0.91433,-0.19926,0.05745,1.24816,0.09246
0.35798,0.90692,-0.22204,0.52737,0.52723,-0.12777
0.36035,0.90322,-0.23301,0.42854,0.30648,-0.19415
0.36661,0.89874,-0.24047,-0.00111,0.77561,-0.23121
0.38002,0.891,-0.24834,-0.36258,0.65173,-0.16136
0.39087,0.88502,-0.25284,-0.39449,0.14718,-0.07071
0.39414,0.88363,-0.25261,-0.08031,-0.27946,0.06134
0.39399,0.88493,-0.24827,0.18086,-0.48143,0.11164
0.39095,0.88935,-0.23704,0.10243,-0.38922,0.00355
0.38731,0.89506,-0.22096,-0.09256,-0.23559,-0.0877
0.38352,0.90035,-0.20552,-0.20895,-0.25878,-0.04964
0.37714,0.9064,-0.19018,-0.2246,-0.30355,0.02401
0.36757,0.91385,-0.17241,-0.24241,-0.33292,0.01027
0.35704,0.92142,-0.15319,-0.3114,-0.31993,-0.04644
0.34674,0.92828,-0.13422,-0.3785,-0.10318,-0.02928
0.33358,0.93502,-0.12004,-0.30062,0.25791,0.03467
0.32413,0.93948,-0.11076,-0.30242,0.2255,-0.01351
0.3268,0.93934,-0.10391,-0.15414,-0.64019,0.04734
0.33785,0.93622,-0.09642,-0.08254,-0.94698,-0.11767
0.35249,0.9322,-0.08186,-0.13994,-0.98208,-0.15488
0.36361,0.92869,-0.07259,-0.12285,-0.51394,-0.17219
0.37363,0.92424,-0.07838,0.15495,-0.03656,0.0221
0.37548,0.92112,-0.10249,1.19189,1.29804,-0.17327
0.38029,0.91797,-0.11253,1.20305,0.83453,0.26326
0.39187,0.91531,-0.09275,-0.18142,0.25493,0.04703
0.40154,0.91222,-0.08106,-0.40045,0.30188,0.17389
0.40002,0.91217,-0.08882,-0.37583,0.9007,-0.16457
0.38361,0.91774,-0.10272,0.40634,0.7319,-0.21337
0.36941,0.92267,-0.1103,0.19064,-0.11924,-0.21774
0.36336,0.92503,-0.11061,0.29066,-0.30688,-0.13225
0.36326,0.92561,-0.10602,0.33767,-0.42955,-0.13181
0.3651,0.92576,-0.09813,0.0372,-0.33799,-0.18779
0.36785,0.92491,-0.09582,0.04512,-0.22325,-0.13307
0.36726,0.92508,-0.09644,0.16693,0.05304,0.00704
0.35896,0.92841,-0.09566,0.02721,-0.13787,0.03624
0.34583,0.93283,-0.1009,0.0655,-0.19101,0.1328
0.33239,0.93625,-0.11363,0.00506,-0.34143,0.26775
0.3224,0.93747,-0.131,-0.23265,-0.54919,0.09885
0.31803,0.93624,-0.14921,-0.28325,-0.57548,0.07867
0.31762,0.93248,-0.17192,-0.35703,-0.44553,0.12061
0.32082,0.9253,-0.20211,-0.20537,0.65328,-0.16777
0.32839,0.91338,-0.24056,0.54856,0.92465,0.06996
0.33583,0.90266,-0.26904,0.58653,0.53893,-0.08877
0.34295,0.89747,-0.27729,0.2484,0.36927,-0.06821
0.35519,0.89229,-0.2786,0.26632,0.52616,-0.14106
0.37023,0.88707,-0.27569,0.04822,0.80475,-0.35758
0.37963,0.88432,-0.27171,-0.0465,0.21349,-0.24118
0.38322,0.88457,-0.26579,-0.01431,-0.1511,-0.15607
0.38048,0.88914,-0.25422,0.05095,-0.70257,-0.05525
0.37531,0.89625,-0.23632,-0.14862,-0.47549,-0.01858
0.3746,0.9012,-0.21791,-0.14411,-0.44752,-0.05658
0.37075,0.90645,-0.20214,-0.22052,-0.28247,0.08155
0.35978,0.91458,-0.18454,-0.29229,-0.00966,0.07898
0.34358,0.92539,-0.15988,-0.30943,0.32122,0.07847
0.32611,0.93527,-0.13739,-0.34636,0.31906,0.07579
0.31929,0.9397,-0.12233,-0.3547,-0.22822,0.10214
0.32424,0.93901,-0.11439,-0.26873,-0.71632,0.08245
0.33019,0.93791,-0.10605,-0.1804,-1.09616,-0.0645
0.33662,0.93682,-0.09488,-0.16095,-1.274,-0.11978
0.34545,0.93432,-0.0876,-0.22249,-0.58844,-0.02834
0.36341,0.92673,-0.09522,-0.11164,-0.22896,-0.05622
0.37894,0.91674,-0.12627,0.21861,0.64408,0.07201
0.38459,0.91222,-0.14106,1.33315,1.40765,0.00553
0.38633,0.91473,-0.11822,-0.32464,-0.28286,0.04742
0.39646,0.91107,-0.11278,-0.58059,-0.34284,0.21229
0.40665,0.90454,-0.12809,0.5321,1.46307,-0.70246
0.38737,0.91091,-0.14189,1.16371,1.88987,-0.5674
0.37758,0.91482,-0.14317,0.12239,-0.15855,-0.00264
0.38186,0.91325,-0.1418,0.28469,-0.50572,-0.24793
0.38398,0.91241,-0.1415,0.10187,-0.43708,-0.27513
0.37906,0.91255,-0.15336,-0.02228,-0.31126,-0.12908
0.37248,0.91282,-0.16728,-0.01708,-0.36689,0.11391
0.36211,0.9157,-0.17417,-0.14569,-0.29907,0.15035
0.34665,0.92042,-0.18061,-0.25376,-0.50318,0.31518
0.32995,0.92442,-0.19114,-0.26846,-0.61198,0.33314
0.32029,0.92472,-0.20558,-0.36313,-0.7011,0.23724
0.32307,0.91865,-0.22728,-0.29237,0.1582,-0.12126
0.3396,0.90361,-0.26098,-0.15421,0.6589,-0.01906
0.36179,0.88486,-0.29343,1.05033,1.25896,-0.28314
0.37308,0.87816,-0.29935,0.22572,0.35629,-0.35367
0.3836,0.87314,-0.30073,0.31408,0.47839,-0.2552
0.3883,0.86946,-0.30532,0.09097,0.74804,-0.3084
0.39241,0.86752,-0.30558,-0.0535,0.14607,-0.17834
0.39469,0.8679,-0.30155,-0.0765,-0.12125,-0.18951
0.39439,0.87114,-0.29248,-0.10471,-0.30378,-0.0899
0.38785,0.87932,-0.27627,-0.15116,-0.29535,0.00177
0.37663,0.89011,-0.25656,-0.14613,-0.29793,0.01768
0.36462,0.9004,-0.23726,-0.13978,-0.34495,0.05664
0.35265,0.91005,-0.21774,-0.14935,-0.37814,0.05585
0.34242,0.91837,-0.19827,-0.18841,-0.37363,0.07245
0.33528,0.92483,-0.17953,-0.26601,-0.35858,0.02679
0.32922,0.93005,-0.16306,-0.4105,-0.24897,0.00762
0.32127,0.93524,-0.14853,-0.46301,-0.04246,0.0475
0.31168,0.94042,-0.13573,-0.28635,0.08288,-0.11013
0.3076,0.94326,-0.12492,-0.09205,-0.36557,-0.06061
0.31017,0.94323,-0.1186,-0.09128,-0.51892,-0.10573
0.32021,0.94078,-0.11119,-0.18656,-0.68952,-0.06224
0.33496,0.93686,-0.10023,-0.21605,-0.60867,0.06441
0.34848,0.93251,-0.09454,-0.16135,-0.17764,0.15453
0.35437,0.92946,-0.10232,0.089,0.33668,-0.02866
0.35231,0.92931,-0.11055,1.04287,0.9676,0.18238
0.36396,0.92656,-0.09467,0.24399,-0.52749,-0.28891
0.38511,0.92002,-0.07219,0.08335,-0.63346,-0.23489
0.40471,0.91084,-0.08086,1.07143,2.56846,-0.65119
0.39446,0.91417,-0.09295,0.25018,-0.16314,-0.43018
0.38385,0.91992,-0.0797,0.1913,-0.66229,-0.32348
0.38932,0.91834,-0.07097,0.29729,-0.37688,-0.00747
0.39432,0.91759,-0.0499,0.34403,0.05437,0.02898
0.38925,0.92087,-0.02081,-0.03288,0.65983,0.03781
0.38259,0.92388,0.00445,-0.33935,0.05299,0.00886
0.37788,0.92552,0.02375,-0.2668,-0.44441,0.0987
0.3631,0.93062,0.04534,-0.31674,-0.54069,0.06042
0.34359,0.93688,0.06442,-0.29123,-0.47534,0.03906
0.32841,0.94148,0.0755,-0.14701,-0.65026,0.04231
0.31569,0.94478,0.08762,-0.01704,-0.55327,-0.20452
0.30446,0.94726,0.09973,0.16412,-0.51853,-0.36655
0.29371,0.94984,0.10711,0.39937,-0.30452,-0.35552
0.28431,0.95166,0.116,0.54983,-0.25546,-0.46781
0.27588,0.95285,0.12611,0.50382,-0.24416,-0.33349
0.26616,0.95436,0.13525,0.44304,-0.13217,-0.26472
0.25767,0.95591,0.14067,0.27265,-0.02169,-0.29867
0.25101,0.95841,0.1356,-0.1629,0.03564,-0.33682
0.24481,0.96201,0.12059,-0.29517,-0.29577,-0.2789
0.23956,0.966,0.09691,-0.09455,-0.37402,0.32205
0.2456,0.96734,0.06227,0.09743,0.37912,0.48191
0.26145,0.96497,0.02055,0.35436,0.76998,0.32595
0.28339,0.95877,-0.02008,0.50656,1.06166,0.0166
0.29852,0.95255,-0.05913,0.43064,1.32286,0.00106
0.30838,0.9478,-0.08079,0.27308,1.49208,0.07699
0.32163,0.94192,-0.09642,-0.12458,0.99502,-0.28497
0.34206,0.93213,-0.11867,0.03771,0.3706,-0.24486
0.36409,0.92081,-0.13964,0.10097,0.21099,-0.12949
0.3781,0.91336,-0.15086,0.12361,-0.18438,-0.10053
0.39008,0.90779,-0.15396,0.1572,-0.57475,0.11685
0.39474,0.90638,-0.15035,0.04291,-0.68792,0.15011
0.38471,0.91221,-0.1408,-0.18018,-0.85162,0.1083
0.36704,0.92049,-0.13391,-0.39858,-0.54293,0.15184
0.3513,0.927,-0.13121,-0.43362,-0.54472,0.09169
0.34208,0.93029,-0.13232,-0.47948,-0.50998,-0.02211
0.33825,0.93124,-0.13539,-0.36724,-0.42833,-0.09512
0.33522,0.93143,-0.14149,-0.11772,-0.11618,-0.13265
0.33162,0.93053,-0.15522,0.06218,0.16198,-0.15097
0.33273,0.92744,-0.17059,0.49306,0.57683,-0.50811
0.34267,0.92295,-0.17522,0.17502,0.10601,-0.65456
0.36047,0.91665,-0.17256,-0.009,-0.22382,-0.67075
0.37265,0.90889,-0.18713,-0.08551,0.23671,0.2261
0.38156,0.90095,-0.20657,0.02643,0.49826,0.06066
0.38278,0.90394,-0.19062,-0.39069,0.56389,0.7168
0.38078,0.90589,-0.18529,-0.53671,1.18829,0.74844
0.3778,0.90426,-0.19887,0.05021,0.30128,-0.02345
0.37275,0.90543,-0.20304,0.17005,-0.39299,0.29096
0.37758,0.9028,-0.20578,0.17521,-0.36981,0.35692
0.39213,0.89831,-0.19808,0.35132,0.00604,0.23272
0.39898,0.89991,-0.17589,0.13233,0.46105,-0.18715
0.39563,0.90666,-0.14629,-0.15186,0.27616,-0.11182
0.39928,0.9086,-0.12235,-0.03451,-0.34244,-0.09117
0.41145,0.90502,-0.1077,-0.06014,-0.46038,0.05123
0.42255,0.90121,-0.09611,-0.16165,-0.63839,0.16774
0.42834,0.90064,-0.073,-0.03296,-0.30289,0.06322
0.42364,0.90466,-0.04549,0.04751,-0.1041,-0.02506
0.41961,0.90727,-0.02727,-0.04018,-0.06462,-0.04898
0.41848,0.90815,-0.00946,-0.10668,-0.38502,0.07046
0.41048,0.91176,0.01242,-0.0908,-0.28378,-0.02474
0.39726,0.91695,0.03668,0.00796,-0.17893,-0.17157
0.38421,0.92144,0.05724,0.19082,-0.01963,-0.18593
0.37405,0.92459,0.0719,0.20303,0.04752,-0.2698
0.36246,0.92824,0.08332,0.11054,0.21219,-0.22803
0.34745,0.9331,0.09253,0.0944,0.20863,-0.25447
0.33409,0.93719,0.09999,0.26677,0.09528,-0.29248
0.32809,0.93863,0.10622,0.51656,-0.06471,-0.15774
0.32907,0.93744,0.11338,0.40262,0.06445,-0.13687
0.33549,0.93447,0.11895,0.28719,0.45231,0.03953
0.34142,0.93256,0.11705,0.08518,0.15589,0.06835
0.34322,0.93294,0.10845,-0.02874,0.10728,0.11204
0.34359,0.93417,0.096,-0.17454,0.0869,0.26222
0.34536,0.93589,0.06913,-0.18351,0.3393,0.32642
0.35366,0.93496,0.02707,-0.29471,0.47734,0.21668
0.37038,0.92875,-0.01418,0.01094,0.56028,0.12328
0.38212,0.92282,-0.04835,0.10456,0.25177,-0.00573
0.38884,0.91801,-0.07759,0.10039,0.17007,0.01771
0.39299,0.91386,-0.10187,0.00397,0.05375,-0.02133
0.39592,0.90965,-0.12548,-0.01509,-0.02578,-0.06389
0.39568,0.90591,-0.15075,-0.03971,-0.05136,-0.05194
0.39457,0.90159,-0.17724,-0.11337,-0.02058,-0.0097
0.39567,0.89639,-0.19974,-0.19359,-0.11881,0.10559
0.39966,0.89091,-0.21567,-0.1447,-0.38581,0.14649
0.40216,0.8878,-0.22368,-0.1179,-0.59238,0.14775
0.39734,0.8896,-0.22514,-0.1403,-0.67578,0.1026
0.38583,0.89535,-0.22236,-0.3073,-0.42859,0.07405
0.37705,0.90018,-0.21786,-0.28921,-0.37418,0.03312
0.37129,0.90409,-0.2115,-0.23053,-0.34975,-0.02747
0.36891,0.90668,-0.20443,-0.12878,-0.28919,-0.16739
0.36774,0.90857,-0.19808,-0.02182,-0.27882,-0.23483
0.36478,0.91138,-0.19048,0.02834,0.01706,-0.218
0.35521,0.91557,-0.18844,0.08832,0.79997,-0.01099
0.34645,0.91746,-0.19545,-0.00234,0.92118,-0.13778
0.34772,0.91573,-0.20122,-0.00573,0.43431,-0.54426
0.36102,0.91102,-0.19916,-0.07558,0.11336,-0.53892
0.38022,0.90168,-0.20585,0.09592,-0.06258,-0.14273
0.38726,0.89606,-0.21693,0.29773,0.02754,-0.31768
0.38463,0.89893,-0.20962,-0.28101,-0.04946,0.18693
0.38187,0.90297,-0.19692,-0.4242,-0.07472,0.33056
0.37418,0.90707,-0.19281,-0.3794,0.15021,0.43766
0.36336,0.91002,-0.1995,-0.15351,0.96019,0.21033
0.35769,0.91304,-0.1959,0.12421,-0.25209,0.31647
0.36339,0.91167,-0.19174,0.14062,-0.32151,0.30251
0.37458,0.90762,-0.18941,0.11853,-0.1634,0.19361
0.38027,0.90672,-0.18223,0.02482,-0.00497,0.10866
0.38241,0.90836,-0.16912,-0.12357,0.10017,0.08443
0.38898,0.90804,-0.15533,-0.12796,0.06186,0.04084
0.40048,0.90478,-0.14473,-0.06119,-0.07047,0.05989
0.4144,0.90081,-0.12951,-0.03716,-0.19462,0.08636
0.42541,0.89815,-0.11094,-0.09678,-0.24368,0.02846
0.42728,0.8991,-0.09492,-0.06712,-0.12088,0.00365
0.42341,0.90252,-0.07834,-0.04566,-0.11242,-0.09566
0.4214,0.90485,-0.06019,-0.02506,-0.19775,-0.08831
0.42022,0.90649,-0.04043,0.01045,-0.26648,-0.0354
0.41698,0.90873,-0.01728,0.04237,-0.18412,-0.09893
0.4112,0.9115,0.00543,0.07358,-0.1475,-0.133
0.40199,0.91534,0.02265,0.07186,-0.04704,-0.12345
0.39097,0.9197,0.03525,-0.03094,0.08811,-0.1274
0.38007,0.92384,0.04491,-0.01511,0.04261,-0.16104
0.36967,0.92756,0.05417,0.15285,-0.11931,-0.23198
0.36333,0.92951,0.0628,0.60691,0.06649,-0.14555
0.36301,0.92914,0.06975,0.44152,0.08978,-0.17059
0.36534,0.92768,0.07669,0.27414,0.2031,-0.20433
0.3681,0.92612,0.08213,0.1329,0.38198,0.09045
0.37059,0.92514,0.08203,0.11907,0.22826,0.09881
0.37374,0.92429,0.0772,0.03289,0.05142,0.25514
0.38012,0.9224,0.06812,-0.14491,0.01558,0.389
0.38752,0.92062,0.04723,-0.42158,0.20731,0.32144
0.39147,0.92012,0.0094,-0.74136,0.63176,0.0783
0.39809,0.91695,-0.02592,-0.44161,0.75216,0.19661
0.40301,0.91363,-0.05307,0.06983,0.4195,0.04097
0.40336,0.91187,-0.07579,0.18928,0.05692,-0.05095
0.40502,0.90924,-0.09589,0.01507,-0.00394,-0.00947
0.40578,0.90653,-0.11619,-0.02543,-0.06098,-0.05216
0.40618,0.90356,-0.13622,-0.05066,-0.06915,-0.07204
0.40516,0.90066,-0.15691,-0.08237,-0.0093,-0.05345
0.40661,0.89668,-0.17492,-0.1078,-0.05531,0.08516
0.41215,0.89203,-0.18543,-0.1686,-0.18971,0.15016
0.41745,0.88918,-0.18723,-0.17659,-0.53518,0.10713
0.41701,0.89041,-0.1823,-0.22794,-0.55679,0.04353
0.40936,0.89512,-0.17649,-0.35609,-0.26972,-0.10214
0.40283,0.89892,-0.17215,-0.2466,-0.21407,-0.12162
0.39805,0.90145,-0.17,-0.15305,-0.25802,-0.17227
0.39637,0.90278,-0.16688,-0.10276,-0.28119,-0.22132
0.3969,0.90337,-0.16232,0.04688,-0.28086,-0.37171
0.39788,0.90349,-0.15926,0.12783,-0.22151,-0.37176
0.39769,0.90408,-0.15633,0.11547,-0.0222,-0.18499
0.39451,0.9048,-0.16017,0.08476,0.16835,-0.07909
0.39664,0.9031,-0.16444,-0.26212,0.83074,-0.34581
0.40715,0.8989,-0.16178,-0.30224,0.71366,-0.40606
0.41875,0.89306,-0.16447,-0.33074,0.70905,-0.32193
0.42459,0.88972,-0.16755,-0.23843,-0.27588,0.08925
0.42121,0.89146,-0.16686,-0.28203,-0.18522,0.15609
0.41576,0.89302,-0.17211,-0.25189,0.21112,0.35582
0.40917,0.89407,-0.18213,-0.19023,0.64261,0.39729
0.40806,0.8958,-0.17605,-0.00759,-0.09917,0.27321
0.41453,0.89494,-0.16494,0.03713,-0.20216,0.29226
0.42739,0.88956,-0.16121,-0.03586,-0.10301,0.26781
0.43733,0.88528,-0.15805,-0.09557,0.05193,0.25557
0.43766,0.88678,-0.14847,-0.22397,0.23299,0.15329
0.43691,0.88929,-0.13501,-0.20812,0.18645,0.13228
0.44497,0.88684,-0.12438,-0.08512,0.05122,0.15316
0.4593,0.88143,-0.10994,0.00105,-0.12512,0.21487
0.47284,0.87684,-0.08679,-0.03377,-0.14745,0.1492
0.48014,0.87481,-0.06428,-0.09955,-0.14297,0.03987
0.48024,0.87587,-0.0467,-0.00958,-0.08098,0.02216
0.47638,0.87874,-0.02891,0.02982,-0.08298,-0.019
0.47315,0.88091,-0.00888,0.10983,-0.19294,-0.0491
0.46879,0.88319,0.01272,0.09019,-0.2366,-0.10346
0.46035,0.88705,0.03419,0.05697,-0.03108,-0.166
0.44963,0.8917,0.05157,0.05154,-0.01841,-0.19564
0.43889,0.89638,0.06181,0.14339,-0.09031,-0.25749
0.4296,0.90024,0.07041,0.20671,-0.06469,-0.30352
0.42229,0.90292,0.07969,0.22739,-0.07234,-0.28183
0.41379,0.90614,0.08737,0.17217,-0.00316,-0.22166
0.404,0.90979,0.09499,0.11364,0.21824,-0.17046
0.39498,0.91295,0.10229,0.11151,0.30681,-0.1456
0.38602,0.91622,0.10711,0.14985,0.15801,-0.15971
0.37612,0.92018,0.1084,0.13726,0.10086,-0.19229
0.36752,0.92357,0.10903,0.09305,0.34466,-0.1292
0.36213,0.9262,0.10475,0.06605,0.1248,0.07132
0.36018,0.92797,0.09539,0.02451,-0.09818,0.16086
0.36268,0.92837,0.08087,-0.03332,-0.14375,0.32922
0.37111,0.9268,0.0572,-0.16093,0.03426,0.33523
0.38359,0.92325,0.02067,-0.30375,0.43573,0.14418
0.39355,0.91922,-0.01066,-0.31892,0.74343,0.02046
0.39959,0.91597,-0.03574,-0.21791,0.62442,-0.01826
0.40439,0.91258,-0.06018,0.04979,0.20191,-0.19626
0.4084,0.90886,-0.08443,0.04266,-0.03274,0.02001
0.40909,0.90592,-0.1091,0.02772,-0.13365,0.02275
0.40669,0.90409,-0.13107,0.02131,-0.14672,-0.06911
0.40373,0.90207,-0.15244,0.00918,-0.03685,-0.12193
0.40275,0.89865,-0.17374,-0.00462,-0.02262,-0.04753
0.40337,0.89497,-0.19046,-0.03106,-0.26355,0.03029
0.40338,0.89264,-0.20109,-0.06642,-0.45508,0.07352
0.39852,0.89379,-0.20563,-0.13204,-0.55198,-0.0194
0.38536,0.8993,-0.2067,-0.2611,-0.38784,-0.05423
0.37231,0.9045,-0.20793,-0.21284,-0.22163,-0.0712
0.3622,0.90807,-0.21017,-0.19219,-0.23231,-0.17227
0.35664,0.91014,-0.21077,-0.15347,-0.24708,-0.22437
0.35409,0.911,-0.21131,-0.0143,-0.1888,-0.28846
0.35377,0.91051,-0.21397,0.03771,-0.07872,-0.31389
0.35315,0.91007,-0.21686,0.10454,0.16037,-0.27058
0.34674,0.91199,-0.21909,0.05725,0.46255,-0.23568
0.34157,0.91405,-0.21864,-0.12742,0.59761,-0.41554
0.34332,0.91309,-0.21989,-0.13835,0.49897,-0.37796
0.34693,0.90927,-0.22984,-0.06441,0.37323,-0.04276
0.34873,0.90672,-0.23709,0.00022,-0.08189,0.16104
0.3491,0.90729,-0.23435,-0.03878,-0.2435,0.20577
0.34923,0.90663,-0.2367,-0.11176,-0.03202,0.34085
0.34915,0.90455,-0.24465,0.31634,0.46786,0.2226
0.34551,0.90733,-0.23944,0.20492,-0.06717,0.21147
0.34053,0.91132,-0.23128,0.20006,-0.2488,0.19545
0.33705,0.91407,-0.22548,0.09379,-0.19181,0.22998
0.33457,0.91739,-0.21546,0.05776,0.07958,0.24067
0.33159,0.92238,-0.19807,0.03968,0.1797,0.21725
0.32985,0.92728,-0.17692,-0.09743,0.11289,0.08224
0.33166,0.92958,-0.16075,-0.06322,-0.06799,0.09146
0.33756,0.92927,-0.14992,-0.05684,-0.13717,0.13612
0.34358,0.92899,-0.13741,-0.13147,-0.27247,0.05143
0.34699,0.92988,-0.12198,-0.07952,-0.39015,0.07234
0.34876,0.9311,-0.1066,0.00124,-0.34679,0.09215
0.34831,0.93333,-0.08673,0.06257,-0.23846,0.03008
0.3464,0.93608,-0.06092,0.08974,-0.15714,-0.04362
0.34213,0.93892,-0.03642,0.10554,-0.11942,-0.07279
0.33529,0.94191,-0.01841,0.09958,-0.11375,-0.10622
0.32684,0.94504,-0.0052,0.0991,-0.04777,-0.06282
0.31551,0.94888,0.00507,0.07846,0.11182,-0.08544
0.30162,0.95332,0.01283,0.06234,0.28025,-0.14793
0.28952,0.95703,0.01512,0.14113,0.18074,-0.20604
0.28267,0.95908,0.01474,0.45283,-0.04001,-0.20778
0.27832,0.96035,0.01463,0.67604,-0.01473,-0.11992
0.27639,0.96091,0.01425,0.64338,0.19917,0.01984
0.2786,0.96033,0.01036,0.26847,0.14873,0.18155
0.28134,0.95958,-0.00126,0.06769,0.07168,0.29239
0.28443,0.95839,-0.0231,-0.00657,0.00798,0.3637
0.29032,0.95524,-0.05647,-0.02288,0.11367,0.32717
0.29583,0.95116,-0.08793,-0.02805,0.4813,0.13154
0.30258,0.94593,-0.1167,0.02926,0.53623,0.06978
0.30749,0.94034,-0.14552,0.18981,0.24512,-0.01624
0.3092,0.93543,-0.17126,0.11218,0.04112,0.07218
0.30831,0.93144,-0.1932,0.06454,-0.00059,0.11576
0.30583,0.92799,-0.21277,-0.04284,-0.05776,0.01501
0.29993,0.92517,-0.2325,-0.00832,-0.015,0.00464
0.29373,0.92247,-0.25048,0.03295,-0.00246,0.05391
0.29243,0.91913,-0.26392,0.00887,-0.3231,0.17322
0.29525,0.91597,-0.27164,-0.04089,-0.53822,0.18801
0.2942,0.91548,-0.27442,-0.05638,-0.57344,0.19631
0.28434,0.919,-0.27305,-0.18448,-0.48313,0.24884
0.27426,0.92336,-0.26861,-0.25644,-0.23958,0.19434
0.26883,0.92682,-0.2621,-0.26182,-0.21343,0.1057
0.26811,0.9288,-0.25575,-0.21125,-0.12445,-0.08856
0.26782,0.9304,-0.2502,-0.00608,-0.14892,-0.19795
0.26456,0.93221,-0.24688,0.07682,-0.12217,-0.20586
0.25768,0.93527,-0.24257,0.18674,0.03774,-0.10816
0.24922,0.93858,-0.23858,0.04921,0.41956,-0.12943
0.24436,0.93986,-0.23855,-0.15449,0.32285,-0.20688
0.24634,0.93956,-0.23771,-0.17103,0.17601,-0.21634
0.25189,0.93692,-0.24228,0.13939,0.42809,0.02926
0.2573,0.93214,-0.25471,0.13558,0.43526,0.0674
0.26322,0.92988,-0.25691,0.08077,0.27132,0.08296
0.26456,0.9304,-0.25364,-0.00765,0.03448,0.25486
0.25662,0.92957,-0.2646,0.33232,0.18352,0.30086
0.24464,0.93018,-0.27365,0.58747,0.05459,0.33858
0.23611,0.93414,-0.26759,0.56476,-0.1851,0.33438
0.23898,0.93712,-0.25429,0.26984,-0.1645,0.22177
0.24576,0.9394,-0.23892,0.01471,-0.04156,0.20418
0.24892,0.94227,-0.22387,-0.10648,0.17108,0.17195
0.24632,0.94686,-0.20674,-0.04084,0.22921,0.16908
0.24878,0.94971,-0.19003,0.07744,0.06431,0.18919
0.25978,0.94931,-0.17688,0.08133,-0.19026,0.1335
0.2707,0.94874,-0.16304,0.01023,-0.30091,0.05271
0.27562,0.95014,-0.14569,0.01878,-0.3028,-0.01999
0.27715,0.9521,-0.12908,0.1194,-0.21142,-0.01492
0.28079,0.95286,-0.11474,0.19316,-0.16073,0.02292
0.28698,0.95247,-0.10193,0.16471,-0.20009,0.03649
0.29226,0.95209,-0.08981,0.12703,-0.27402,0.0474
0.29413,0.95251,-0.07854,0.14154,-0.21076,-0.08614
0.2934,0.95353,-0.0682,0.22686,0.02721,-0.26823
0.29217,0.95421,-0.06383,0.21052,0.06292,-0.2754
0.29223,0.95425,-0.06291,0.08788,-0.2478,-0.07326
0.29396,0.95421,-0.05505,0.04371,-0.35088,0.05555
0.2935,0.955,-0.04236,0.14943,0.04676,0.15294
0.29112,0.9561,-0.03269,0.16683,0.45999,0.16127
0.29177,0.95606,-0.02779,0.09819,0.44956,0.1296
0.29279,0.95575,-0.02762,0.46499,0.15559,0.02327
0.29197,0.95571,-0.03651,0.52365,0.06187,0.09553
0.29017,0.95535,-0.05539,0.30678,-0.04147,0.35479
0.28865,0.95324,-0.08925,-0.01455,-0.08105,0.20139
0.28821,0.9486,-0.13062,-0.23607,0.16067,0.12466
0.29092,0.94252,-0.16425,-0.23603,0.3704,0.11656
0.29739,0.93519,-0.19219,0.25386,0.2983,-0.00936
0.30123,0.92968,-0.21195,0.3289,0.2199,-0.0709
0.2996,0.92662,-0.22711,0.29479,0.14437,-0.05193
0.29941,0.92271,-0.24276,0.11684,0.09273,-0.0078
0.30347,0.91653,-0.26045,0.05985,0.15529,-0.00757
0.30716,0.90995,-0.27857,-0.02388,0.23452,0.04154
0.30967,0.90492,-0.29187,-0.01852,0.00397,0.14928
0.31442,0.90113,-0.29846,-0.01003,-0.10121,0.17928
0.32148,0.89901,-0.29731,-0.02027,-0.32197,0.15406
0.32641,0.89943,-0.29059,-0.13068,-0.46082,0.08045
0.32397,0.90262,-0.28336,-0.24634,-0.32528,0.09631
0.31818,0.90643,-0.27771,-0.1417,-0.31516,0.14763
0.31279,0.91029,-0.27111,-0.02068,-0.32904,0.14561
0.30967,0.91405,-0.26187,0.01765,-0.29339,0.06543
0.30798,0.91799,-0.24982,0.00915,-0.25451,-0.05788
0.30446,0.92265,-0.23661,-0.06507,-0.28675,-0.00082
0.2997,0.92745,-0.22355,-0.10135,-0.32218,0.04414
0.29531,0.93153,-0.21214,-0.19039,-0.38866,0.14167
0.2907,0.93534,-0.20148,-0.28518,-0.38872,0.17072
0.28571,0.93938,-0.18945,-0.22885,-0.41761,0.13101
0.28359,0.94281,-0.17506,-0.14237,-0.39427,0.0475
0.28576,0.94437,-0.1627,-0.04482,-0.23789,-0.09121
0.2935,0.94295,-0.15707,0.02269,0.00051,-0.15222
0.30547,0.93916,-0.1569,-0.00901,0.23083,-0.17979
0.31662,0.93571,-0.15541,-0.14567,0.2715,-0.21188
0.3242,0.93383,-0.15107,-0.27528,-0.15708,-0.00276
0.32355,0.93372,-0.1531,-0.2233,-0.26803,0.17908
0.3158,0.93504,-0.16106,0.28521,-0.15511,0.11182
0.31,0.93555,-0.16913,0.6683,0.71118,0.38126
0.31114,0.934,-0.1755,0.62038,1.01154,0.17863
0.3179,0.93275,-0.16993,0.03907,1.19144,-0.02979
0.31752,0.9298,-0.18604,0.65387,1.16735,-0.21436
0.32408,0.92692,-0.18907,0.4923,-0.13422,-0.45436
0.33732,0.92102,-0.19467,0.41088,-0.48203,-0.17125
0.34699,0.9178,-0.19287,0.44904,-0.24454,0.08727
0.35091,0.91988,-0.17505,0.11256,0.03451,0.15432
0.34405,0.9263,-0.15346,0.05483,0.79638,0.11014
0.33903,0.931,-0.13516,-0.01864,0.14847,-0.01197
0.3396,0.93255,-0.12239,-0.18287,-0.36279,-0.09162
0.34169,0.93257,-0.11627,-0.2816,-0.48282,0.02956
0.34095,0.9329,-0.11584,-0.22655,-0.41881,0.02536
0.3362,0.93435,-0.11799,0.0513,-0.13479,-0.08321
0.3277,0.93695,-0.12126,0.19753,-0.36436,-0.07743
0.3208,0.93889,-0.12465,0.22323,-0.47963,0.022
0.31685,0.93911,-0.13278,0.12557,-0.47947,-0.04274
0.31278,0.93887,-0.14372,0.15344,-0.45942,-0.08601
0.30682,0.93875,-0.15673,0.22408,-0.41821,0.00739
0.30118,0.93822,-0.1703,0.23374,-0.39598,0.12408
0.29559,0.93748,-0.18363,-0.01649,-0.31799,0.22347
0.29076,0.93627,-0.19702,-0.26929,-0.13493,0.20494
0.28801,0.93364,-0.2129,-0.33444,0.03163,0.21033
0.29031,0.92682,-0.23808,-0.13678,0.94207,0.14172
0.3001,0.91543,-0.26814,-0.0333,1.07391,0.21456
0.30909,0.90605,-0.28898,0.22837,0.32026,-0.21622
0.31188,0.90152,-0.29993,0.37152,0.41524,-0.15611
0.3201,0.8961,-0.30741,0.31843,0.72928,-0.27224
0.33237,0.89111,-0.30889,0.05965,0.70601,-0.30157
0.34268,0.88896,-0.30379,-0.12262,0.32708,-0.28473
0.34881,0.88867,-0.2976,-0.00192,-0.18548,-0.15915
0.34829,0.89135,-0.2901,0.0519,-0.42975,-0.04173
0.34473,0.89593,-0.28006,-0.05051,-0.22944,-0.0002
0.34255,0.90118,-0.2655,-0.08946,-0.09799,0.06193
0.34002,0.90716,-0.24783,-0.11377,0.00488,0.02241
0.33415,0.91446,-0.22819,-0.0706,-0.10017,-0.04697
0.32513,0.923,-0.20571,-0.05743,-0.19978,-0.05607
0.31734,0.93056,-0.18253,-0.20595,-0.31268,-0.00803
0.31483,0.93473,-0.16469,-0.38288,-0.34656,0.1215
0.31468,0.93702,-0.15142,-0.58743,-0.22436,0.20152
0.31327,0.93904,-0.14154,-0.5084,-0.33242,0.2097
0.31258,0.94075,-0.13128,-0.16139,-0.92937,0.12207
0.31247,0.94239,-0.11925,-0.1433,-1.08535,-0.17595
0.31992,0.94048,-0.1145,-0.23647,-1.21463,-0.01196
0.33831,0.9337,-0.11708,-0.31704,-1.12543,0.04277
0.35593,0.92521,-0.13135,-0.10567,-0.3006,0.19289
0.36131,0.91947,-0.15492,1.50239,1.38618,-0.68331
0.36394,0.91891,-0.15201,1.41021,1.59462,0.27852
0.37804,0.91659,-0.13001,-0.49501,0.15221,-0.24624
0.38759,0.91324,-0.12538,-0.96761,-0.16072,0.02927
0.37529,0.91597,-0.14181,0.69015,1.29817,-0.90552
0.34032,0.92732,-0.15565,0.79655,-0.05201,0.08695
0.33855,0.92707,-0.1609,0.51229,-0.42481,-0.10669
0.35401,0.91909,-0.17296,0.37878,-0.53777,-0.18815
0.35804,0.91349,-0.19316,0.12887,-0.18404,-0.17247
0.34812,0.91209,-0.21652,-0.04611,-0.23881,0.11434
0.33352,0.91321,-0.23405,-0.15462,-0.37827,0.36902
0.31967,0.9146,-0.24757,-0.41838,-0.56088,0.18876
0.30986,0.91227,-0.26781,-0.54422,-0.35427,0.1958
0.30898,0.9044,-0.29421,-0.10576,0.8022,0.24016
0.3183,0.8911,-0.32341,0.3071,1.02504,0.40353
0.33323,0.87948,-0.33976,0.45955,0.66382,0.05509
0.34091,0.87531,-0.3429,0.3179,0.45701,-0.0315
0.34612,0.87384,-0.34144,0.19755,0.67585,-0.25358
0.35373,0.87383,-0.33357,-0.0755,1.14224,-0.23747
0.3613,0.876,-0.31946,-0.1542,-0.27037,-0.205
0.36544,0.88012,-0.30299,-0.10285,-0.66223,-0.20072
0.36738,0.88328,-0.29121,-0.02716,-0.58874,-0.09468
0.36913,0.88505,-0.28352,-0.02622,-0.21442,-0.10125
0.3683,0.88773,-0.27614,0.09761,-0.03934,-0.14169
0.36151,0.89295,-0.26817,0.29242,0.06602,0.0119
0.35221,0.90039,-0.25535,0.123,-0.01323,0.06403
0.34945,0.90686,-0.23547,-0.08848,-0.07051,0.04784
0.35099,0.912,-0.21217,-0.37673,0.0986,-0.04436
0.34714,0.91843,-0.18957,-0.33611,0.29837,-0.01433
0.33398,0.9259,-0.17643,-0.15741,0.09992,0.04252
0.32498,0.9304,-0.16943,-0.01596,-0.62334,0.19118
0.32345,0.93319,-0.1565,-0.2289,-1.02691,0.16012
0.3266,0.93548,-0.13477,-0.30576,-1.21165,0.01169
0.33513,0.93568,-0.11025,-0.25954,-1.2351,-0.08464
0.34505,0.93422,-0.09013,-0.36253,-1.01581,0.06925
0.35163,0.9327,-0.07981,-0.68484,-0.602,0.17424
0.35222,0.93214,-0.08374,-0.34468,0.27723,0.36693
0.34528,0.93237,-0.10688,0.78021,2.10033,0.00448
0.33372,0.93581,-0.11329,0.96463,1.50176,-0.05875
0.3333,0.93659,-0.108,-0.30271,-0.38976,-0.25572
0.34482,0.93121,-0.11793,-0.21097,-0.48222,-0.24854
0.34434,0.9281,-0.14152,0.86276,0.32552,-0.97286
0.33347,0.92865,-0.16235,1.50659,1.00778,-0.29609
