gravity.x,gravity.y,gravity.z,userAcceleration.x,userAcceleration.y,userAcceleration.z
-0.98367,0.17538,-0.04033,-0.08187,0.00031,-0.05539
-0.98431,0.16833,-0.05286,-0.09501,-0.00494,0.01648
-0.98462,0.16539,-0.05614,-0.05047,-0.08095,-0.08555
-0.98489,0.16556,-0.05066,-0.05912,-0.01667,-0.06276
-0.98548,0.16583,-0.03636,-0.0513,0.01929,-0.06012
-0.98576,0.16774,-0.01158,-0.0452,-0.01682,0.02917
-0.98468,0.17314,0.02041,-0.07376,0.00101,0.11635
-0.98232,0.18094,0.04786,-0.03699,0.01474,0.07362
-0.97912,0.19166,0.06767,-0.04696,0.09852,0.14829
-0.9755,0.20567,0.078,0.26275,-0.08358,0.16623
-0.97478,0.21133,0.0716,0.13923,-0.14881,-0.03554
-0.97529,0.20949,0.07011,-0.06266,0.01946,0.01822
-0.97561,0.20871,0.06799,-0.02798,-0.00419,-0.0048
-0.97533,0.20933,0.06999,-0.03795,0.02733,0.05553
-0.9749,0.21121,0.07039,0.01706,0.02297,0.0187
-0.97438,0.21292,0.07237,0.01889,0.00528,0.05212
-0.97446,0.21326,0.07023,0.00103,0.01655,-0.00823
-0.97464,0.21329,0.06757,0.00993,-0.01509,0.01868
-0.97452,0.21415,0.06657,0.00271,-0.02544,0.00986
-0.97461,0.21365,0.06694,0.01243,0.0109,0.06738
-0.97527,0.21231,0.06136,-0.01317,0.42715,0.27966
-0.97736,0.20886,0.03351,-0.00501,0.05835,-0.19275
-0.97762,0.20847,0.028,0.0792,-0.20844,-0.06084
-0.9773,0.20886,0.03536,-0.00199,-0.13531,0.05346
-0.97754,0.20767,0.03578,0.00075,-0.00817,0.07328
-0.9779,0.20618,0.03463,0.00629,0.01504,0.02633
-0.97826,0.20503,0.03079,0.25652,-0.14157,0.70719
-0.97956,0.201,0.00734,0.0385,0.04166,-0.17281
-0.97993,0.19876,0.01505,-0.07482,0.00763,0.10197
-0.98031,0.19693,0.01409,-0.0232,0.11135,-0.00241
-0.98043,0.19672,0.00708,-0.03453,0.16877,0.00084
-0.97996,0.19912,0.00396,-0.01822,0.13277,-0.01092
-0.97933,0.20207,0.00815,0.02636,-0.06551,-0.001
-0.97866,0.20466,0.01801,0.01882,-0.15197,-0.10807
-0.97824,0.20477,0.0331,0.03124,-0.06575,0.19575
-0.97843,0.20425,0.03062,-0.00609,0.07455,0.01752
-0.97856,0.20392,0.02857,0.01474,0.08236,-0.03731
-0.97864,0.2035,0.02878,0.01118,0.06136,-0.02508
-0.97864,0.20324,0.03083,0.00314,0.01914,0.02267
-0.97836,0.20442,0.03159,-0.01034,0.00331,0.02907
-0.97814,0.20545,0.03196,-0.00731,0.02602,0.02431
-0.97809,0.20554,0.03273,0.00185,0.042,0.02548
-0.97804,0.20564,0.03365,-0.01198,0.05646,0.03021
-0.9781,0.20504,0.03549,-0.01495,0.0371,0.02562
-0.97813,0.20464,0.03709,-0.00373,0.04216,0.04281
-0.97799,0.20494,0.0391,-0.0111,0.05146,0.04848
-0.97781,0.20543,0.04085,-0.01583,0.05583,0.05208
-0.97775,0.20535,0.04272,-0.03106,0.02974,0.05864
-0.97757,0.20559,0.04546,-0.0357,0.02139,0.03126
-0.97716,0.206,0.05214,-0.00229,0.03445,0.06508
-0.97704,0.20484,0.05847,0.01761,0.01014,0.04773
-0.97702,0.20239,0.06669,0.00956,0.00781,0.0147
-0.97705,0.19806,0.07832,0.02493,0.03906,-0.0079
-0.97711,0.19279,0.08981,0.03465,-0.02075,0.00489
-0.97722,0.18711,0.10011,0.04556,-0.09219,0.04464
-0.97758,0.18119,0.10724,-0.01151,-0.09672,0.06656
-0.9781,0.17552,0.11178,-0.05017,-0.03761,0.08724
-0.97847,0.1694,0.11781,-0.00415,0.12473,0.11253
-0.97808,0.16427,0.12788,0.06729,0.14329,0.11957
-0.97701,0.16135,0.13933,0.07402,0.07384,0.09622
-0.97543,0.16006,0.15134,0.05992,0.02004,0.08478
-0.97328,0.15996,0.16469,0.04204,-0.01757,0.0825
-0.97116,0.16036,0.17638,0.03658,-0.04103,0.07366
-0.97,0.15881,0.18402,0.04025,-0.04558,0.06449
-0.969,0.15715,0.19063,0.07509,-0.0544,0.06851
-0.96798,0.15639,0.19633,0.09092,-0.05814,0.08821
-0.96688,0.15726,0.20101,0.08376,-0.06398,0.11139
-0.96576,0.15958,0.20452,0.08344,-0.06856,0.11513
-0.96442,0.163,0.20809,0.078,-0.08165,0.14321
-0.96306,0.1677,0.21066,0.0791,-0.07353,0.15288
-0.96193,0.17296,0.21158,0.08302,-0.05533,0.13208
-0.96087,0.17851,0.21177,0.05926,-0.03729,0.13425
-0.9599,0.18359,0.21184,0.0014,-0.03175,0.15229
-0.9593,0.1875,0.21112,-0.066,-0.02651,0.13865
-0.95915,0.18892,0.21055,-0.09397,-0.0073,0.09684
-0.95994,0.18971,0.2062,-0.08524,0.00951,0.08454
-0.96129,0.18813,0.20126,-0.10491,0.08278,0.04248
-0.96277,0.18652,0.19565,-0.08829,0.19167,0.02165
-0.96343,0.18623,0.19264,0.05564,0.19285,0.03621
-0.96393,0.18513,0.19118,0.08295,0.03438,-0.03832
-0.96495,0.18549,0.18563,0.12286,-0.02773,-0.06589
-0.9667,0.18629,0.17545,0.08358,-0.0341,-0.05211
-0.96875,0.18734,0.1625,0.02471,0.06444,-0.02446
-0.97098,0.18646,0.14969,-0.02102,0.13517,-0.00086
-0.97283,0.18502,0.13912,0.02225,0.13645,-0.00059
-0.97434,0.18385,0.12983,0.03485,0.08943,-0.07728
-0.97541,0.18366,0.12179,0.0341,0.06079,-0.15049
-0.97656,0.18455,0.11071,0.04828,-0.00117,-0.16525
-0.97755,0.18458,0.10154,0.02423,-0.05314,-0.13842
-0.97882,0.18315,0.09138,0.01366,-0.04327,-0.14205
-0.98032,0.18095,0.07882,-0.00482,-0.0314,-0.11575
-0.98174,0.1781,0.06676,-0.00218,0.00813,-0.04645
-0.98287,0.17527,0.05693,-0.01327,0.01241,-0.0513
-0.9836,0.17364,0.0486,-0.01879,-0.00945,-0.09723
-0.98395,0.17352,0.0414,-0.02747,-0.02806,-0.15052
-0.98406,0.17453,0.03387,-0.03327,-0.02568,-0.15335
-0.98403,0.17582,0.02772,-0.03018,-0.02789,-0.11173
-0.984,0.17659,0.02327,-0.01873,-0.02691,-0.05861
-0.98394,0.17738,0.01968,-0.03146,-0.03987,-0.0787
-0.98407,0.1772,0.01429,-0.01963,-0.08514,-0.10985
-0.98445,0.17549,0.00785,-0.00022,-0.11848,-0.1114
-0.98487,0.17325,0.00155,0.00013,-0.11977,-0.09577
-0.98521,0.17125,-0.00486,-0.00069,-0.06836,-0.03721
-0.98536,0.17006,-0.01116,-0.0047,-0.04692,-0.00378
-0.98526,0.1702,-0.01671,-0.00061,-0.04152,0.00321
-0.98508,0.17065,-0.02202,0.01013,-0.05108,-0.01251
-0.98491,0.17092,-0.02708,-0.00272,-0.10084,0.00422
-0.98479,0.17094,-0.03084,-0.03079,-0.09975,0.03571
-0.98478,0.17041,-0.03396,-0.0394,-0.08581,0.03262
-0.98487,0.16932,-0.03665,-0.03475,-0.08784,0.02571
-0.98496,0.16813,-0.03955,-0.02732,-0.09125,0.02519
-0.98514,0.16623,-0.04302,-0.0048,-0.10008,0.01513
-0.98538,0.16377,-0.04689,0.00979,-0.08538,0.01473
-0.98551,0.16182,-0.05079,-0.00653,-0.04868,0.01437
-0.98542,0.16085,-0.05539,-0.01291,-0.03906,0.01146
-0.98541,0.15958,-0.05905,-0.02597,-0.0164,0.01513
-0.98532,0.1595,-0.06072,-0.03389,-0.01553,0.05053
-0.98492,0.16159,-0.06169,-0.02004,-0.03248,0.04381
-0.98446,0.16383,-0.06319,0.01317,-0.06938,0.02561
-0.98401,0.16596,-0.06459,0.01688,-0.09952,0.03248
-0.98357,0.16813,-0.0657,-0.00572,-0.06778,0.06028
-0.98303,0.17059,-0.06736,-0.0215,-0.00658,0.0702
-0.98235,0.17356,-0.06967,-0.00292,0.00944,0.04584
-0.9816,0.17712,-0.07125,0.02104,-0.03308,0.04593
-0.98086,0.18114,-0.07142,0.01551,-0.09372,0.05458
-0.98003,0.18533,-0.07192,-0.03934,-0.13217,0.02737
-0.97923,0.18862,-0.07433,-0.08272,-0.10475,0.00467
-0.97884,0.18944,-0.07734,-0.12573,-0.11512,-0.00306
-0.97878,0.18858,-0.08012,-0.0962,-0.02073,-0.00648
-0.97885,0.18747,-0.08178,-0.04533,0.05337,0.01224
-0.97909,0.18744,-0.07899,-0.05921,-0.00891,0.10372
-0.9793,0.18806,-0.07481,-0.10142,-0.08439,0.15359
-0.9794,0.18884,-0.07151,-0.09337,-0.09146,0.13191
-0.97978,0.18867,-0.06649,-0.09567,-0.08151,0.08546
-0.98076,0.18665,-0.05715,-0.09038,-0.00694,0.08996
-0.98239,0.18212,-0.04172,-0.03158,-0.00778,0.10052
-0.98443,0.1748,-0.0184,0.05851,-0.00737,0.1104
-0.98637,0.16423,0.00926,0.06993,0.02892,0.10548
-0.98782,0.15125,0.03646,0.02287,0.10205,0.09369
-0.98899,0.13629,0.05761,-0.09294,0.21906,-0.04301
-0.99026,0.11856,0.07298,-0.1189,0.256,-0.11625
-0.99118,0.09867,0.08835,-0.10295,0.28641,-0.20233
-0.99129,0.07651,0.10714,-0.02647,0.17316,-0.22755
-0.98985,0.05352,0.1316,-0.01232,0.13599,-0.19917
-0.98669,0.03154,0.15949,0.01054,0.06806,0.02182
-0.98265,0.00959,0.18516,0.04711,0.04039,0.03048
-0.97954,-0.01042,0.20096,0.07786,0.04078,-0.00965
-0.97686,-0.02717,0.21211,0.10796,-0.02839,-0.03911
-0.97424,-0.04067,0.22177,0.11085,-0.08262,0.01806
-0.97242,-0.05179,0.22738,0.11672,-0.071,0.03364
-0.9714,-0.0597,0.22981,0.13165,-0.03327,0.03892
-0.97058,-0.06338,0.23226,0.1348,-0.00594,-0.00126
-0.97033,-0.06316,0.23337,0.12809,-0.03387,-0.04136
-0.97079,-0.05967,0.23235,0.13951,-0.03553,-0.04548
-0.97096,-0.05346,0.23314,0.20536,-0.00214,0.05789
-0.97053,-0.04506,0.23669,0.16858,0.00846,0.1016
-0.96951,-0.03534,0.24247,0.11212,0.00611,0.09745
-0.96941,-0.02648,0.24398,0.04638,-0.06312,-0.0032
-0.9701,-0.01878,0.24196,0.1288,-0.06653,0.01011
-0.9703,-0.01122,0.24163,0.19675,-0.04215,0.0284
-0.97041,-0.00262,0.2414,0.30327,-0.00518,-0.00114
-0.97143,0.00811,0.23718,0.32868,-0.0054,-0.03944
-0.97233,0.02094,0.23265,0.32256,0.0207,-0.05283
-0.97263,0.03364,0.22989,0.25778,0.06061,-0.01017
-0.97334,0.04367,0.22517,0.21833,0.08891,0.01963
-0.97561,0.05134,0.2134,0.22337,0.06188,-0.02631
-0.97879,0.05965,0.19594,0.2934,-0.02373,-0.03961
-0.98125,0.06941,0.17976,0.30594,-0.08849,0.00069
-0.98281,0.08006,0.16631,0.26673,-0.10205,0.04197
-0.9834,0.09105,0.15691,0.11983,-0.07116,0.14966
-0.98176,0.10084,0.16113,-0.30826,0.12371,0.39858
-0.97914,0.10646,0.17305,-0.60465,0.31981,0.53787
-0.98193,0.10173,0.15957,-0.60194,0.61953,-0.19465
-0.98076,0.09887,0.16832,-1.18241,0.8187,0.11036
-0.97561,0.09241,0.19909,-0.27712,0.0279,0.15781
-0.9719,0.07475,0.22316,-0.01868,-0.319,-0.20398
-0.96765,0.06152,0.24465,-0.16434,-0.21762,-0.27538
-0.96372,0.05726,0.26067,-0.27039,-0.10456,-0.13508
-0.96296,0.05845,0.2632,-0.27436,0.0625,-0.27013
-0.96569,0.06075,0.25247,-0.08421,0.08748,-0.20964
-0.97231,0.06476,0.2245,-0.05755,-0.09158,-0.23337
-0.9792,0.06939,0.19061,-0.03627,-0.24236,-0.24573
-0.9813,0.07387,0.17769,-0.1077,-0.26807,-0.04305
-0.98342,0.07547,0.16486,-0.19358,-0.05906,0.04564
-0.98837,0.07475,0.13237,-0.13251,0.03058,0.03907
-0.99174,0.07349,0.10508,0.03709,0.35282,-0.12862
-0.99203,0.07433,0.10165,0.05752,0.3204,-0.115
-0.99109,0.0779,0.10802,0.07911,0.28306,-0.0816
-0.99089,0.08078,0.10773,0.10719,0.07805,0.01547
-0.99083,0.08416,0.10565,0.11305,-0.08453,-0.05696
-0.9908,0.08768,0.10303,0.06716,-0.23486,-0.13799
-0.99133,0.09012,0.09556,0.06358,-0.29563,-0.07844
-0.9924,0.0911,0.08264,0.08281,-0.13228,-0.01359
-0.99327,0.09225,0.07,0.05255,-0.03713,-0.00159
-0.9937,0.09473,0.05978,-0.03621,0.03308,0.00971
-0.99377,0.09868,0.05178,-0.02935,0.07014,-0.02497
-0.99361,0.10244,0.04735,-0.01047,0.09429,-0.04272
-0.99331,0.10507,0.04779,0.01418,0.09494,-0.03198
-0.99303,0.10689,0.04961,0.05019,0.07151,0.00682
-0.99285,0.10823,0.05026,0.00036,0.00433,0.04041
-0.99279,0.10922,0.04926,0.01505,-0.05569,0.01958
-0.99281,0.11022,0.04654,0.02351,-0.07291,0.01726
-0.99266,0.11283,0.0435,0.06248,-0.03163,-0.0104
-0.99246,0.11466,0.0432,0.08119,-0.00635,0.03219
-0.99213,0.11634,0.04612,0.08326,0.00863,0.06379
-0.99181,0.11746,0.05013,0.06218,0.0405,0.07542
-0.99151,0.11862,0.05307,0.0132,0.01642,0.05536
-0.9912,0.12034,0.05505,0.02269,-0.04843,-0.01577
-0.99077,0.12248,0.05792,0.14603,-0.12271,-0.06293
-0.99034,0.12278,0.06431,0.16944,-0.13462,0.00686
-0.99001,0.12119,0.07204,0.12653,-0.08651,0.03424
-0.99008,0.11984,0.07321,0.08963,0.05698,-0.02578
-0.99001,0.1202,0.07368,0.05689,-0.04569,-0.03306
-0.98949,0.12218,0.0773,0.03528,-0.10915,0.03202
-0.98879,0.12352,0.08382,0.03522,-0.12693,0.05958
-0.9882,0.12365,0.09037,0.02561,-0.12615,0.02517
-0.98783,0.1247,0.09289,0.11216,-0.12164,-0.03349
-0.98755,0.12747,0.0921,0.20752,-0.07099,-0.05409
-0.9872,0.13089,0.09109,0.23988,-0.01532,-0.03091
-0.98678,0.13361,0.09162,0.20079,-0.02547,0.01406
-0.98667,0.13525,0.09044,0.14136,-0.09275,-0.00145
-0.98681,0.13578,0.08803,0.12265,-0.12873,-0.0248
-0.98674,0.13559,0.08914,0.15625,-0.13884,0.01618
-0.98638,0.13452,0.09461,0.11939,-0.12266,0.09176
-0.98585,0.12951,0.10633,0.00661,-0.05386,0.09638
-0.98496,0.11771,0.1264,-0.07723,-0.01015,0.0324
-0.98319,0.09582,0.1554,-0.26466,-0.05337,0.17949
-0.98134,0.05786,0.18336,-0.97376,-0.03024,0.29309
-0.98365,0.01033,0.17979,-1.47964,0.24641,-0.10249
-0.9852,-0.03599,0.16756,-0.8094,0.28767,-0.21372
-0.98195,-0.06968,0.17579,0.18203,-0.00237,-0.07018
-0.9772,-0.08453,0.19475,0.36329,-0.12002,-0.00979
-0.9725,-0.08963,0.21492,-0.31695,0.01686,0.15621
-0.96811,-0.09757,0.2307,-0.34149,0.49537,0.19471
-0.96496,-0.1043,0.24073,-0.18054,0.57296,0.12333
-0.96214,-0.10805,0.2502,-0.02004,0.56821,0.04868
-0.95779,-0.11051,0.26536,0.47274,0.39376,-0.09082
-0.95421,-0.11128,0.27764,0.55968,0.13514,-0.07947
-0.95555,-0.11161,0.27287,0.34996,0.10935,-0.2022
-0.95924,-0.10881,0.26078,0.27942,0.14647,-0.18548
-0.96273,-0.10211,0.25042,0.27294,0.19686,-0.11831
-0.96537,-0.09041,0.2447,0.2656,0.20138,-0.05723
-0.96783,-0.07449,0.2403,0.23692,-0.03799,-0.07332
-0.96996,-0.05675,0.23654,0.16907,-0.36926,-0.07887
-0.97199,-0.03684,0.23209,0.05573,-0.58077,-0.06656
-0.97506,-0.01242,0.22155,0.04534,-0.6095,-0.04801
-0.97839,0.01298,0.20632,0.1273,-0.43333,0.01415
-0.98045,0.03296,0.19394,0.19876,-0.29964,0.06476
-0.9817,0.04646,0.18464,0.27433,-0.14851,0.03247
-0.98254,0.05587,0.17745,0.22356,-0.05235,0.02915
-0.984,0.06367,0.16636,0.14349,-0.02772,0.00179
-0.9868,0.06774,0.14706,0.21898,-0.00432,-0.02563
-0.98925,0.06871,0.12907,0.2712,0.01999,-0.00062
-0.99081,0.07115,0.11503,0.24172,0.28642,0.23169
-0.9916,0.0729,0.10677,0.11733,0.32068,0.33606
-0.99254,0.07268,0.09789,-0.22069,0.40092,0.1849
-0.9946,0.07388,0.07283,-0.12633,0.41916,-0.21565
-0.99489,0.08067,0.06069,-0.25276,0.4825,-0.15233
-0.99359,0.08456,0.07497,-0.32315,0.51084,-0.27258
-0.99245,0.08693,0.08651,-1.06497,0.4766,-0.36776
-0.99049,0.08442,0.10857,-1.15366,-0.28825,-0.04319
-0.99064,0.07192,0.11598,-0.37694,-0.76754,-0.08809
-0.98894,0.06241,0.13448,0.00716,-0.77178,0.04247
-0.98774,0.06445,0.14217,0.08744,-0.22508,-0.07834
-0.98865,0.07397,0.13076,-0.00777,0.07584,-0.11679
-0.98976,0.08504,0.11461,0.06038,-0.15665,-0.11931
-0.99116,0.09372,0.09384,0.10876,-0.45334,-0.18654
-0.99085,0.10061,0.08998,0.12967,-0.34077,0.09375
-0.99121,0.10435,0.0813,0.03798,-0.19693,0.29585
-0.99259,0.10833,0.05499,0.07436,0.02427,0.1809
-0.99306,0.11213,0.03542,0.15854,0.1305,0.06249
-0.99304,0.11272,0.034,0.27719,-0.04959,-0.00739
-0.99257,0.11308,0.04472,0.39382,-0.19541,0.01186
-0.9922,0.11173,0.05513,0.40465,-0.27072,-0.01069
-0.99235,0.10817,0.05943,0.42312,-0.16829,0.03734
-0.99271,0.10447,0.05995,0.34756,0.01525,0.02985
-0.99293,0.10213,0.06046,0.35735,0.07895,-1e-05
-0.9928,0.10195,0.06276,0.28887,-0.02311,-0.16578
-0.99192,0.10114,0.07649,0.21838,-0.2814,-0.19735
-0.99034,0.08872,0.10647,0.16962,-0.51572,0.00862
-0.98813,0.0598,0.14149,-0.12097,-0.51026,0.21062
-0.98435,0.02234,0.17475,-0.44903,-0.07137,0.27204
-0.97895,-0.01967,0.20314,-0.86737,0.24103,0.14444
-0.97434,-0.05791,0.21747,-0.86424,0.85085,-0.30243
-0.96629,-0.09308,0.24003,-0.78712,0.94058,-0.35055
-0.95662,-0.13107,0.26017,-0.12846,0.40066,-0.03529
-0.94901,-0.16919,0.26596,-0.01687,-0.03587,0.15576
-0.94686,-0.19212,0.25794,-0.07714,-0.18404,0.12301
-0.94961,-0.19524,0.24517,-0.14255,-0.29823,-0.02114
-0.95438,-0.18578,0.23374,0.05449,-0.03329,-0.02716
-0.95905,-0.1728,0.22437,0.15354,0.03866,0.02444
-0.96397,-0.15867,0.21349,0.39152,0.19925,0.1519
-0.96945,-0.14138,0.20041,0.57812,0.16849,0.08696
-0.97574,-0.11571,0.18583,0.75484,0.07709,-0.0444
-0.98197,-0.0764,0.17287,0.76981,0.05641,-0.10971
-0.98651,-0.02555,0.16168,0.55125,0.0499,-0.09112
-0.98791,0.02349,0.1532,-0.06522,0.007,-0.04259
-0.9884,0.05032,0.14327,-0.37026,0.02119,0.02165
-0.99055,0.04775,0.12855,0.02589,-0.07485,0.06849
-0.99209,0.0463,0.11664,0.46233,0.01435,0.11551
-0.99266,0.05386,0.10821,0.57588,-0.01543,0.12104
-0.9941,0.059,0.09094,0.26462,-0.24804,-0.01216
-0.99509,0.05651,0.0812,-0.13728,-0.17068,0.16346
-0.99678,0.05593,0.05729,-0.25941,0.13833,0.11028
-0.99724,0.06428,0.03689,-0.13085,0.63132,0.26905
-0.99621,0.07325,0.04683,-0.3632,0.04615,-0.72963
-0.99564,0.07448,0.05602,-1.65872,-0.26731,0.33429
-0.99446,0.07366,0.07485,-0.56836,-0.87735,0.23879
-0.99243,0.07775,0.09498,-0.58057,-0.20858,-0.06744
-0.99112,0.07233,0.11157,-0.19446,0.14023,-0.06779
-0.99194,0.07206,0.10421,-0.18997,0.21662,-0.18451
-0.99235,0.07525,0.09781,0.07911,0.13647,0.05151
-0.99242,0.08766,0.08608,0.10736,-0.12194,-0.09261
-0.99271,0.10219,0.06388,0.14793,-0.27466,-0.29983
-0.99263,0.11101,0.04854,0.31569,-0.29994,0.10948
-0.99239,0.11399,0.04636,0.28933,-0.2746,0.28764
-0.99248,0.11572,0.03969,0.31617,-0.15909,0.32724
-0.99255,0.11726,0.03287,0.56766,0.138,-0.04166
-0.99253,0.11567,0.03872,0.5187,-0.06304,-0.03435
-0.99246,0.11154,0.05065,0.47752,-0.13629,0.04972
-0.99253,0.10451,0.0628,0.36679,-0.16655,-0.05018
-0.99251,0.09588,0.07559,0.24375,-0.13374,-0.0493
-0.99224,0.08383,0.0918,0.07825,-0.20526,0.03927
-0.99118,0.06341,0.1163,-0.40102,-0.20956,0.06008
-0.98894,0.02968,0.14528,-0.82666,0.03718,-0.13952
-0.98252,-0.01672,0.18535,-1.06037,0.30378,-0.12295
-0.97193,-0.06413,0.22632,-0.88634,0.60049,-0.12506
-0.96121,-0.10224,0.25613,-0.48521,0.55837,-0.00444
-0.9551,-0.1304,0.26601,-0.17228,0.06245,0.14582
-0.95233,-0.15498,0.26275,-0.13932,-0.06339,0.09352
-0.95244,-0.17253,0.25117,0.056,-0.04372,0.03313
-0.95442,-0.18121,0.23714,0.17801,0.0544,0.02268
-0.95708,-0.18001,0.22713,0.19157,0.025,0.02676
-0.96031,-0.16818,0.22252,0.26661,-0.03388,0.03279
-0.96381,-0.14825,0.22154,0.42139,0.06498,0.07335
-0.96803,-0.1247,0.21763,0.43373,0.02353,0.08335
-0.97344,-0.09845,0.20665,0.5176,0.03293,-0.01225
-0.97905,-0.06621,0.19251,0.62122,-0.00344,-0.08089
-0.98435,-0.02759,0.17402,0.59607,-0.04181,-0.0931
-0.98902,0.01084,0.14737,0.38538,-0.00594,-0.1672
-0.99104,0.04163,0.12688,0.11317,0.03656,-0.16318
-0.99072,0.05857,0.12257,-0.0744,0.05203,-0.00431
-0.9909,0.06173,0.1196,0.00666,0.08833,0.1626
-0.99158,0.06135,0.11402,-0.18314,0.17417,0.41409
-0.99455,0.05812,0.08647,-0.17729,0.20049,-0.00444
-0.99702,0.0592,0.04936,-0.28362,0.41236,-0.23718
-0.99728,0.06591,0.03292,-0.16932,0.4186,-0.14728
-0.99637,0.06782,0.05134,-0.48291,0.01795,0.12638
-0.9953,0.06685,0.07003,-0.72846,-0.47455,-0.11705
-0.9945,0.0615,0.08476,-0.54457,-1.05102,0.04463
-0.99351,0.05415,0.09996,-0.62276,0.03817,0.04954
-0.99407,0.04546,0.0987,-0.32709,0.15701,-0.00391
-0.99492,0.04155,0.09166,-0.07854,0.06278,-0.09229
-0.99575,0.04728,0.07894,0.10955,0.1217,-0.21856
-0.99583,0.05865,0.06982,0.11735,0.0622,-0.24268
-0.99614,0.06804,0.05545,0.17235,-0.09769,-0.26977
-0.99611,0.07545,0.04549,0.22322,-0.26044,-0.05355
-0.99532,0.07806,0.05688,-0.00174,-0.17639,0.45606
-0.99524,0.08067,0.05464,0.174,0.09369,0.30838
-0.99511,0.08754,0.04556,0.37018,0.02293,-0.0348
-0.99433,0.09428,0.04902,0.47866,-0.12129,-0.12409
-0.9936,0.09743,0.05712,0.51136,-0.12765,-0.14
-0.99321,0.09626,0.06525,0.50029,-0.13909,-0.12335
-0.99296,0.09066,0.07619,0.32008,-0.16726,-0.05887
-0.99314,0.08121,0.08411,0.30977,-0.15467,-0.04222
-0.99325,0.06989,0.09256,0.24158,-0.20916,-0.02972
-0.99262,0.05509,0.10797,-0.14095,-0.31365,0.06114
-0.99121,0.03093,0.1286,-0.57867,-0.23583,0.17166
-0.9879,-0.00414,0.155,-0.85446,0.04637,0.02508
-0.98073,-0.04723,0.18957,-0.82896,0.43791,-0.20528
-0.97031,-0.08982,0.22453,-0.81226,0.68655,-0.19496
-0.9643,-0.12076,0.23567,-0.50398,0.50057,0.14218
-0.96024,-0.14564,0.23818,-0.17758,0.18787,0.1673
-0.9583,-0.16656,0.23221,-0.08928,-0.12979,0.0445
-0.95824,-0.17944,0.22264,-0.00671,-0.1397,0.0518
-0.96024,-0.18108,0.21246,0.13834,0.00713,0.01818
-0.96355,-0.17336,0.20374,0.24511,0.04584,0.07843
-0.96756,-0.15787,0.19721,0.32471,0.09146,0.10049
-0.97133,-0.14081,0.19154,0.5358,0.18393,0.0244
-0.97467,-0.1233,0.18656,0.6892,0.1166,0.0007
-0.97836,-0.09965,0.18129,0.78667,0.10286,-0.0011
-0.98231,-0.06665,0.17498,0.80278,0.12962,-0.04088
-0.9866,-0.02698,0.1609,0.57534,0.12833,-0.12507
-0.98939,0.01378,0.14458,-0.00191,-0.02356,-0.17091
-0.98895,0.04261,0.142,-0.42522,-0.07224,-0.02392
-0.98895,0.05024,0.13944,-0.19273,-0.20138,0.14998
-0.99002,0.05407,0.13012,-0.07677,-0.10138,0.43251
-0.99165,0.0601,0.11403,-0.18422,0.0732,0.36421
-0.99511,0.06229,0.07658,-0.21637,0.26586,-0.28503
-0.99687,0.06856,0.03932,-0.09163,0.53804,-0.27324
-0.99681,0.07295,0.03231,0.3173,0.32419,-0.06168
-0.9957,0.0753,0.054,-0.9175,-0.09647,0.00715
-0.99513,0.08469,0.05029,-1.0621,-0.26466,-0.15595
-0.99579,0.08179,0.0412,-0.75009,-0.8342,0.27791
-0.99537,0.07535,0.05954,-0.72164,-0.34534,-0.1176
-0.99523,0.06716,0.07069,-0.08018,-0.01415,-0.02832
-0.99609,0.06779,0.05661,0.04702,0.16468,-0.18515
-0.99605,0.07614,0.04565,0.14395,0.28325,-0.20933
-0.99548,0.0861,0.0401,0.08205,-0.07765,-0.24568
-0.99491,0.09799,0.02311,0.17291,-0.3407,-0.31254
-0.99352,0.11303,0.01184,0.27962,-0.39689,-0.15372
-0.99198,0.12559,0.01397,0.15821,-0.06818,0.31989
-0.9906,0.13644,0.00929,0.21729,0.08359,0.15483
-0.9893,0.14578,0.00443,0.31287,0.0227,-0.07332
-0.98791,0.15495,0.00383,0.40779,-0.1526,-0.14156
-0.98697,0.16087,0.00196,0.53468,-0.24431,-0.15363
-0.98676,0.16209,0.00549,0.6613,-0.24319,-0.01321
-0.98685,0.16006,0.02255,0.52234,-0.18688,0.15171
-0.98704,0.1562,0.03676,0.3774,-0.17452,0.13078
-0.98746,0.15132,0.04488,0.12296,-0.27788,0.0141
-0.98789,0.1441,0.05742,0.03681,-0.26791,0.06783
-0.98798,0.13168,0.08095,-0.14206,-0.23132,0.25173
-0.98679,0.11127,0.11775,-0.31879,-0.13905,0.04272
-0.9842,0.08446,0.15559,-0.65015,-0.06212,-0.06308
-0.97994,0.05502,0.19153,-1.23864,0.12798,-0.27117
-0.97761,0.0286,0.20845,-1.44022,0.34779,-0.31803
-0.97523,-0.00326,0.22116,-0.15876,0.12453,-0.06728
-0.97443,-0.03913,0.22123,-0.12451,0.03928,-0.04631
-0.97232,-0.0728,0.22201,-0.14112,-0.004,0.09418
-0.973,-0.09132,0.21193,-0.04962,-0.16829,0.20072
-0.9757,-0.0986,0.19567,0.01889,-0.12565,0.08247
-0.9776,-0.09735,0.18657,0.13263,-0.07151,-0.03171
-0.97824,-0.08552,0.18902,0.49354,0.11979,-0.05551
-0.97826,-0.06661,0.19635,0.65203,0.18893,-0.02424
-0.97848,-0.04381,0.20161,0.71936,0.2005,-0.04118
-0.97882,-0.0196,0.20376,0.61996,0.26618,-0.02444
-0.9795,0.00813,0.20127,0.5436,0.31695,-0.02631
-0.98215,0.03751,0.18429,0.23269,0.31835,-0.05946
-0.9858,0.06391,0.15527,-0.02592,0.17197,-0.04819
-0.98603,0.08066,0.14574,-0.45886,-0.13448,0.10967
-0.9841,0.07997,0.15855,0.15138,-0.51303,0.28847
-0.98403,0.07432,0.16169,0.21414,-1.00105,0.16676
-0.98604,0.06081,0.15497,-0.13758,-1.06737,-0.00215
-0.98953,0.04525,0.13699,-0.48012,-0.07236,-0.00475
-0.9929,0.04824,0.10872,-0.23853,0.67587,-0.26663
-0.9958,0.05917,0.06976,-0.026,0.89095,-0.58318
-0.99575,0.07101,0.05853,-0.71885,1.03082,-0.11527
-0.99252,0.09207,0.08008,-0.80292,0.61109,-0.10898
-0.99148,0.10462,0.07757,-0.86799,-0.90777,0.00582
-0.98931,0.1185,0.08489,-0.63976,-1.16726,0.14482
-0.98814,0.12969,0.08215,-0.16519,-0.21302,-0.44431
-0.98862,0.13834,0.05903,-0.07136,0.11686,-0.44981
-0.98893,0.14606,0.02603,0.08253,0.4964,-0.49644
-0.98696,0.15903,-0.02449,0.38479,0.37969,-0.4582
-0.98289,0.1786,-0.04488,0.25009,-0.13242,0.08329
-0.97911,0.19911,-0.04112,0.24925,-0.26011,0.54112
-0.97399,0.21992,-0.05449,0.22834,0.1494,0.26886
-0.96877,0.23775,-0.07041,0.10727,0.03976,0.12569
-0.96504,0.25261,-0.06982,0.07127,-0.27498,0.15692
-0.96341,0.26021,-0.06426,0.04582,-0.59424,0.28521
-0.96279,0.26289,-0.06261,0.10953,-0.69997,-0.03929
-0.96355,0.26401,-0.04309,0.12186,-0.49651,0.05005
-0.96559,0.25889,-0.0244,-0.24804,-0.54985,0.14801
-0.96863,0.24826,-0.01091,-0.31145,-0.37025,0.02321
-0.97289,0.23097,0.01145,-0.25132,0.01288,-0.2064
-0.97614,0.21067,0.05249,-0.43914,0.0413,-0.19593
-0.97748,0.18468,0.10205,-0.39297,0.10418,-0.14151
-0.97791,0.15821,0.13658,-0.37347,0.10838,-0.24835
-0.97807,0.13708,0.15675,-0.24422,0.20302,-0.30852
-0.97861,0.11908,0.16775,-0.16347,0.26777,-0.30357
-0.98062,0.09771,0.1698,-0.2047,0.244,-0.34264
-0.98173,0.07269,0.17582,-0.25657,0.1315,-0.28025
-0.98114,0.04281,0.18844,-0.21862,-0.09411,-0.19984
-0.97882,0.01275,0.20428,-0.18106,-0.23149,-0.12272
-0.97524,-0.00989,0.22092,-0.10171,-0.22257,-0.08529
-0.97151,-0.02681,0.23547,0.08582,-0.0266,-0.10232
-0.96781,-0.03991,0.24847,0.3464,0.21114,-0.23647
-0.96262,-0.05088,0.26599,0.38384,0.18175,-0.12483
-0.96024,-0.05735,0.2732,0.36371,0.09633,-0.10131
-0.96268,-0.04871,0.26619,0.42875,-0.07892,-0.22908
-0.96699,-0.02755,0.25328,0.42645,-0.13578,-0.2383
-0.97192,0.00155,0.23529,0.28906,-0.14563,-0.17178
-0.97473,0.03258,0.22097,-0.1453,-0.13143,0.12297
-0.9749,0.05213,0.21643,-0.28406,-0.21177,0.06463
-0.97488,0.04869,0.21732,-0.21909,-0.40432,0.05616
-0.97457,0.02842,0.22226,-0.19589,-0.46778,-0.25946
-0.97298,0.00972,0.23064,-0.52584,0.12793,-0.32369
-0.9742,-0.0039,0.22562,-0.38226,0.16232,-0.33819
-0.9774,-0.00189,0.21135,0.32364,0.22238,-0.33068
-0.97834,0.01029,0.20671,0.30319,0.32908,-0.41595
-0.97775,0.03345,0.20704,-0.06878,0.413,-0.39552
-0.97559,0.06508,0.20971,-0.19371,0.19766,-0.44929
-0.97588,0.09461,0.19672,-0.18998,0.05966,-0.31647
-0.97716,0.12097,0.1747,-0.17777,-0.15741,-0.17704
-0.97724,0.14509,0.1547,-0.11719,-0.17826,-0.1519
-0.97574,0.16655,0.14205,-0.03551,-0.10072,-0.19009
-0.9759,0.18143,0.12122,-0.01536,-0.08056,-0.33018
-0.97727,0.19118,0.09155,-0.01986,-0.03512,-0.42521
-0.9776,0.20051,0.06381,0.01449,-0.00185,-0.30785
-0.97652,0.21182,0.03916,0.06403,-0.00723,-0.07074
-0.97465,0.22317,0.01582,0.06473,-0.08172,-0.00732
-0.97251,0.23275,-0.00665,0.05042,-0.12227,-0.04914
-0.96987,0.24198,-0.0281,0.07934,-0.16413,-0.16545
-0.96657,0.25241,-0.04489,0.14895,-0.09712,-0.02381
-0.96314,0.2632,-0.0555,0.05483,-0.19722,0.14893
-0.96009,0.27253,-0.06285,0.02268,-0.27001,0.16198
-0.95777,0.27918,-0.06879,0.00957,-0.30045,0.16139
-0.95642,0.2833,-0.07065,-0.08015,-0.27822,0.16615
-0.95656,0.28421,-0.0648,-0.13081,-0.24849,0.10955
-0.95805,0.28139,-0.05435,-0.44388,-0.28944,-0.00818
-0.96047,0.27464,-0.04547,-0.13858,-0.21629,-0.1262
-0.96484,0.26117,-0.02945,-0.0682,-0.19823,-0.10344
-0.97084,0.23963,0.00677,-0.11503,-0.12253,0.01285
-0.97568,0.21167,0.05688,-0.24641,0.02724,0.0383
-0.97775,0.18532,0.0982,-0.31944,0.20375,-0.17065
-0.97822,0.16703,0.12321,-0.21273,0.20767,-0.26573
-0.9797,0.14829,0.13489,-0.22027,0.26195,-0.29993
-0.98152,0.12261,0.14687,-0.1886,0.18554,-0.28644
-0.98292,0.08989,0.16054,-0.14762,-0.02676,-0.22899
-0.98323,0.0552,0.17379,-0.05525,-0.17361,-0.21014
-0.98152,0.01903,0.19037,-0.09675,-0.3895,-0.1712
-0.97712,-0.01338,0.21223,-0.13596,-0.27334,-0.13151
-0.97145,-0.03484,0.23465,0.02339,0.15005,-0.12193
-0.9663,-0.05047,0.2524,0.29531,0.48022,-0.14447
-0.96285,-0.06598,0.26183,0.40951,0.36466,-0.10985
-0.9613,-0.07572,0.26488,0.40508,0.31109,-0.13961
-0.96115,-0.07512,0.2656,0.38273,0.08693,-0.19205
-0.96253,-0.06424,0.26344,0.35779,-0.06581,-0.18122
-0.96607,-0.04643,0.25406,0.18512,-0.1945,-0.15413
-0.97082,-0.02514,0.23848,-0.11903,-0.26309,-0.02925
-0.97392,-0.00634,0.22679,-0.41309,-0.25406,0.04964
-0.97545,0.00111,0.22019,-0.46399,-0.2162,0.10001
-0.97649,-0.00736,0.21541,-0.22273,-0.33793,0.04599
-0.97678,-0.02468,0.2128,0.1928,-0.23171,0.03636
-0.97592,-0.03808,0.21473,0.14429,0.02203,-0.04373
-0.97494,-0.04102,0.21863,-0.56054,0.17228,-0.16553
-0.97549,-0.03948,0.21645,-0.75913,0.29474,-0.48845
-0.98047,-0.036,0.19333,-0.12477,0.26623,-0.24193
-0.98102,-0.03177,0.19125,0.41677,0.11266,-0.05671
-0.97858,-0.03094,0.20351,0.23456,0.04206,-0.21257
-0.9776,-0.01746,0.20973,0.08293,0.18059,-0.3427
-0.97718,0.00476,0.21234,-0.02214,0.39945,-0.34237
-0.97914,0.02936,0.20103,0.10382,0.43066,-0.26313
-0.98247,0.0512,0.17922,0.1575,0.25315,-0.06833
-0.98317,0.06781,0.1696,0.06412,-0.10713,-0.15387
-0.98208,0.08143,0.16991,-0.04676,-0.36589,-0.19262
-0.98087,0.09225,0.17136,-0.02474,-0.38794,-0.12914
-0.98055,0.10115,0.16815,0.09551,-0.12382,-0.0684
-0.9823,0.10672,0.15391,0.18895,-0.13833,-0.09597
-0.98449,0.10961,0.13696,0.17397,-0.07949,-0.14691
-0.98579,0.11076,0.12624,0.19291,-0.05938,-0.13173
-0.98635,0.11162,0.12103,0.17832,-0.01989,-0.11753
-0.98654,0.11183,0.11928,0.09797,0.03436,-0.00441
-0.98662,0.1113,0.11912,0.09805,0.0349,-0.00425
-0.98701,0.10852,0.1184,0.24792,0.0468,-0.08217
-0.98749,0.10584,0.11684,0.2832,0.00352,-0.10318
-0.98778,0.105,0.11509,0.26165,-0.00023,-0.09244
-0.98769,0.10466,0.11618,0.28463,-0.02968,-0.03421
-0.9877,0.10318,0.11742,0.43039,-0.12785,-0.1025
-0.98805,0.10158,0.11584,0.4375,-0.18176,-0.13916
-0.98881,0.0993,0.11129,0.40627,-0.21738,-0.19235
-0.99006,0.0926,0.10581,0.17893,-0.31225,-0.07839
-0.99083,0.07781,0.11038,-0.06697,-0.27511,0.03884
-0.99013,0.05341,0.12949,-0.67164,-0.19658,0.19494
-0.98906,0.01739,0.14644,-1.2681,0.0437,-0.07619
-0.98351,-0.03699,0.17697,-1.3946,0.44124,-0.12741
-0.97202,-0.09317,0.21559,-0.48467,0.95706,-0.16923
-0.96207,-0.13557,0.23669,-0.04717,0.55752,0.06454
-0.95649,-0.16723,0.23905,-0.14741,-0.00828,0.07725
-0.953,-0.1913,0.23492,-0.00755,-0.23246,-0.01519
-0.95166,-0.20513,0.22857,0.0797,-0.19959,0.01913
-0.95265,-0.20551,0.22407,0.17894,-0.02342,0.05118
-0.95474,-0.19761,0.22227,0.42989,0.09085,0.02373
-0.9576,-0.18172,0.22355,0.50528,0.13228,0.03344
-0.96165,-0.16031,0.22254,0.58555,0.15423,0.05289
-0.96702,-0.13467,0.21618,0.62284,0.21592,-0.00539
-0.9731,-0.10332,0.2059,0.63698,0.19365,-0.03536
-0.97937,-0.06348,0.1918,0.35715,0.0573,-0.13856
-0.98495,-0.01961,0.17167,-0.05193,-0.00587,-0.16997
-0.98867,0.01762,0.149,-0.19594,-0.03379,-0.14333
-0.99102,0.03486,0.12904,0.06423,-0.10809,0.11884
-0.99282,0.03624,0.11393,0.11108,-0.00384,0.21657
-0.99426,0.03692,0.1003,-0.31802,-0.05685,0.38452
-0.99669,0.036,0.07276,-0.24427,0.1728,-0.17867
-0.99849,0.04123,0.03624,-0.42481,0.39369,-0.22627
-0.99841,0.04835,0.02889,-0.35139,0.03159,-0.08808
-0.99802,0.04718,0.04139,-0.5605,-0.34529,0.12417
-0.99768,0.0447,0.05118,-0.70575,-0.34564,-0.09876
-0.99743,0.03628,0.06171,-0.23483,0.02575,-0.19344
-0.99665,0.0313,0.07541,-0.30367,0.12727,-0.09418
-0.99685,0.03363,0.07168,-0.0237,-0.03618,-0.02873
-0.99724,0.0392,0.06295,0.13538,-0.04436,-0.11251
-0.9975,0.05062,0.04911,0.19922,-0.03358,-0.15491
-0.99731,0.06484,0.03383,0.27472,-0.06715,-0.12087
-0.99697,0.07389,0.02416,0.3066,-0.22368,-0.06893
-0.99708,0.07344,0.02049,0.22218,-0.13517,-0.02947
-0.99708,0.06983,0.03063,0.10166,0.06494,0.18629
-0.9969,0.06486,0.04447,0.27703,0.02235,0.1892
-0.99695,0.06283,0.04612,0.38602,-0.04542,0.09516
-0.9969,0.0624,0.04783,0.41914,-0.19224,-0.0335
-0.99645,0.05988,0.05903,0.32798,-0.17173,-0.068
-0.99578,0.05156,0.07587,0.22087,-0.14395,-0.03325
-0.99445,0.03388,0.09957,0.00708,-0.10652,0.01827
-0.99193,0.00529,0.12663,-0.67545,0.09098,0.00378
-0.98808,-0.03527,0.14979,-1.08928,0.31429,-0.09645
-0.98026,-0.0896,0.17621,-1.28907,0.42646,-0.05622
-0.97026,-0.13955,0.19776,0.30392,0.44033,-0.4179
-0.95961,-0.17667,0.21888,0.11266,0.10496,0.28988
-0.95437,-0.2006,0.22116,-0.14218,-0.12543,0.34742
-0.95539,-0.20692,0.2107,-0.02233,0.04023,-0.03045
-0.95717,-0.20713,0.20223,0.05137,0.06503,-0.02874
-0.95912,-0.20038,0.19982,0.35009,0.06651,0.06454
-0.96215,-0.183,0.2019,0.46967,0.07939,0.13156
-0.96676,-0.15771,0.20123,0.6789,0.15206,0.22574
-0.97284,-0.13014,0.19137,0.80021,0.13204,0.01829
-0.97881,-0.09814,0.17969,0.81754,0.05643,-0.05254
-0.98324,-0.05465,0.17391,0.61115,-0.07315,-0.11988
-0.98546,-0.0044,0.16979,-0.20063,-0.076,-0.03791
-0.98589,0.03649,0.16333,-0.4176,-0.11008,0.00625
-0.98808,0.05127,0.14513,-0.18101,-0.1433,0.04493
-0.99123,0.05049,0.12206,0.10312,0.11526,0.31807
-0.99229,0.05347,0.11175,-0.41926,0.18883,0.40707
-0.9943,0.05593,0.09064,-0.23984,0.22382,0.03535
-0.99719,0.0615,0.04256,-0.22682,0.6215,-0.36793
-0.99702,0.07299,0.02483,-0.37489,0.29448,-0.01495
-0.99574,0.07223,0.05724,-1.1465,0.07324,0.14928
-0.99611,0.06349,0.06102,-0.46956,-0.66775,-0.10628
-0.99651,0.05276,0.06451,-0.40035,-0.13393,-0.1072
-0.99516,0.047,0.08626,-0.29836,-0.07218,0.03334
-0.99526,0.04199,0.08761,0.12708,0.05986,-0.17142
-0.99652,0.04462,0.07026,0.23313,0.16229,-0.2592
-0.99717,0.05688,0.04904,0.34363,-0.0038,-0.1687
-0.9971,0.06946,0.0308,0.17812,-0.23725,-0.20048
-0.99685,0.07815,0.01321,0.308,-0.39727,-0.04771
-0.99655,0.0808,0.01848,0.29381,-0.38685,0.28018
-0.99611,0.07828,0.04029,0.24452,0.18203,0.27885
-0.99587,0.08079,0.04112,0.37872,0.14599,0.09125
-0.99585,0.08328,0.03651,0.48622,-0.09672,-0.07774
-0.99571,0.08292,0.0408,0.53596,-0.07963,-0.20234
-0.99553,0.07945,0.05084,0.40603,-0.06558,-0.27216
-0.99521,0.0738,0.06406,0.35258,-0.12068,-0.2298
-0.9946,0.06269,0.08263,-0.09634,-0.29882,0.20777
-0.9933,0.04181,0.1077,-0.52558,-0.16342,0.09927
-0.99245,0.01107,0.12205,-0.71807,0.08321,-0.19058
-0.98866,-0.0293,0.14721,-0.96249,0.19773,-0.06252
-0.97956,-0.0739,0.18705,-0.93539,0.45423,-0.2582
-0.96675,-0.11928,0.22615,-0.50087,0.48367,0.14425
-0.95895,-0.15362,0.23832,-0.1443,0.22456,0.19058
-0.9559,-0.17292,0.23737,-0.01235,0.07629,0.00104
-0.95612,-0.18296,0.22877,0.02746,0.03129,-0.01874
-0.95828,-0.18471,0.21808,0.07077,-0.00938,-0.02308
-0.96198,-0.17647,0.20843,0.34404,0.00307,0.03368
-0.96646,-0.15856,0.20196,0.46331,0.00999,0.07206
-0.97158,-0.13445,0.19476,0.56421,0.01177,0.12664
-0.97766,-0.10832,0.18008,0.68011,0.08457,0.02843
-0.98362,-0.07766,0.16261,0.69598,0.02262,-0.03552
-0.98795,-0.03995,0.14947,0.46044,0.00922,-0.11742
-0.99018,-0.00029,0.13973,0.1154,-0.00506,-0.02758
-0.99095,0.03234,0.13018,-0.03438,0.0502,0.01641
-0.99205,0.04689,0.11672,-0.02127,0.17675,-0.04838
-0.99435,0.04656,0.0953,0.27166,0.20611,0.08881
-0.99524,0.04815,0.08465,0.18271,-0.04963,0.28463
-0.99531,0.04795,0.08395,-0.4461,0.08754,0.32834
-0.99714,0.05068,0.05586,-0.12755,0.43285,-0.38104
-0.99774,0.06341,0.02179,-0.15552,0.57718,-0.39049
-0.99645,0.08136,0.02104,-0.34348,0.25464,-0.10435
-0.99506,0.09143,0.03859,-0.82132,-0.10986,-0.19425
-0.99502,0.08793,0.04684,-1.10557,-0.89053,0.42572
-0.99551,0.07838,0.05295,-0.56315,-0.84453,0.19933
-0.99544,0.06577,0.06905,-0.37953,-0.33571,-0.10674
-0.9956,0.05525,0.07562,0.05141,0.2742,-0.28587
-0.99731,0.05317,0.05035,0.27706,0.52459,-0.23225
-0.99759,0.05605,0.04082,0.11659,0.39902,0.06567
-0.99696,0.06766,0.03833,0.15816,-0.19005,-0.24197
-0.99664,0.07907,0.02116,0.36502,-0.5256,-0.21151
-0.9959,0.08913,0.01524,0.26242,-0.64059,0.34084
-0.99539,0.09104,0.0298,0.27365,-0.15418,0.41441
-0.99493,0.0966,0.02776,0.40423,0.26397,0.1574
-0.99443,0.10342,0.02013,0.51123,0.08659,-0.15602
-0.99422,0.10558,0.01891,0.56113,-0.06322,-0.19628
-0.99396,0.10689,0.02458,0.57689,-0.20244,-0.2093
-0.99406,0.10308,0.03461,0.35594,-0.24902,-0.08254
-0.99429,0.09459,0.04924,0.29286,-0.15679,0.0375
-0.99415,0.08385,0.06791,-0.14453,-0.09194,0.1887
-0.99411,0.06783,0.08447,-0.56871,-0.12459,0.03438
-0.99435,0.04439,0.09631,-0.77201,-0.08511,-0.0829
-0.99183,0.00753,0.12728,-0.70431,0.10215,-0.16708
-0.9841,-0.03804,0.17342,-0.60386,0.37886,0.00398
-0.97545,-0.07837,0.20576,-0.70231,0.39657,0.06431
-0.96833,-0.11202,0.2231,-0.51501,0.5404,0.25439
-0.96279,-0.14968,0.22497,-0.16059,0.24946,0.08583
-0.95981,-0.18254,0.21314,0.00523,-0.02888,-0.03002
-0.95867,-0.20026,0.20206,0.12095,-0.08209,0.02049
-0.95971,-0.20324,0.19396,0.22085,-0.11145,-0.03683
-0.96286,-0.19323,0.18852,0.35742,-0.04687,-0.08313
-0.96674,-0.17422,0.1872,0.55553,0.02597,0.00888
-0.97083,-0.15144,0.18586,0.73047,0.07132,0.10546
-0.97624,-0.12625,0.17604,0.82842,0.14285,0.10552
-0.98264,-0.09684,0.15819,0.85424,0.14025,0.02208
-0.98846,-0.05715,0.14019,0.54013,0.22601,-0.06162
-0.99178,-0.00883,0.12758,0.04003,0.20831,-0.06984
-0.99206,0.03392,0.121,-0.30177,0.10104,0.02821
-0.99178,0.05659,0.1147,-0.28853,0.02492,-0.00988
-0.99446,0.05296,0.09073,-0.26178,-0.09384,0.08049
-0.99721,0.03837,0.06395,-0.39822,-0.08087,0.17984
-0.99885,0.03334,0.03407,-0.55997,0.37952,-0.21966
-0.99892,0.04545,0.00884,-0.62858,0.39666,-0.35432
-0.9987,0.05072,7e-05,-0.52946,-0.10413,-0.18774
-0.9988,0.04808,0.00788,-0.68258,-0.71899,0.46554
-0.99852,0.04337,0.03248,-0.53763,-0.25831,0.0589
-0.99843,0.03745,0.04152,-0.32179,0.17611,-0.25039
-0.99857,0.03348,0.04147,-0.0576,0.18254,-0.14241
-0.99871,0.03568,0.03595,0.15033,0.17254,-0.15024
-0.99864,0.04311,0.0292,0.28648,0.05952,-0.13754
-0.99834,0.05308,0.02184,0.41145,-0.09341,-0.13587
-0.99778,0.06377,0.01882,0.37763,-0.1731,-0.07593
-0.99707,0.07438,0.01746,0.14625,-0.02688,0.19753
-0.99646,0.08248,0.0154,0.18452,0.00966,0.20249
-0.99581,0.08947,0.01864,0.26424,0.00652,0.10059
-0.99518,0.0948,0.02496,0.35528,-0.09495,0.01381
-0.99468,0.09736,0.03345,0.37821,-0.10586,-0.00097
-0.99428,0.09711,0.04432,0.33137,-0.19098,-0.06224
-0.99394,0.09405,0.05675,0.35509,-0.21711,-0.09409
-0.99341,0.0885,0.07269,0.34919,-0.20939,2e-05
-0.99232,0.07901,0.09512,0.08967,-0.22259,0.03757
-0.99033,0.06425,0.12289,-0.12298,-0.13019,0.13518
-0.98674,0.04301,0.15647,-0.48995,0.09474,0.02841
-0.98199,0.01565,0.18825,-0.81429,0.35702,-0.07554
-0.97462,-0.02086,0.22284,-1.10497,0.6123,-0.04172
-0.96681,-0.06339,0.24745,-0.61422,0.48419,-0.10321
-0.96074,-0.1045,0.25697,-0.12568,0.03765,0.04641
-0.95828,-0.13329,0.2528,-0.08888,-0.17488,0.05581
-0.95867,-0.1518,0.24061,-0.03042,-0.17895,-0.01161
-0.96063,-0.16135,0.22615,0.01271,-0.13597,-0.00968
-0.96325,-0.16172,0.2144,0.25125,-0.03923,0.08359
-0.96696,-0.15238,0.20433,0.49243,0.02495,0.18053
-0.97197,-0.13251,0.19415,0.60981,0.07422,0.26453
-0.97819,-0.10959,0.17643,0.738,0.08747,0.19293
-0.98413,-0.08283,0.15685,0.68808,-0.07292,-0.19269
-0.98799,-0.04535,0.14764,0.67607,-0.09352,-0.22407
-0.98966,0.00056,0.1434,0.64958,-0.09255,-0.21957
-0.9894,0.04557,0.13784,-0.24974,-0.08077,0.17548
-0.9887,0.07569,0.12934,-0.50794,-0.11869,0.24708
-0.99113,0.08059,0.10558,-0.39141,-0.17555,0.26637
-0.99399,0.07572,0.07899,-0.2527,0.07628,0.35488
-0.99628,0.06552,0.05584,-0.30091,0.32945,0.29092
-0.99743,0.06796,0.02245,-0.31454,0.48403,0.04371
-0.99626,0.08609,0.00586,0.01247,0.37123,-0.34707
-0.99571,0.09133,0.0146,-0.673,0.08654,0.01701
-0.99503,0.09573,0.02707,-0.94979,-0.14008,-0.0582
-0.99504,0.09534,0.02799,-0.73451,-0.93082,0.33774
-0.99492,0.08654,0.05134,-0.56908,-0.3218,-0.02961
-0.99512,0.0755,0.06348,-0.34432,-0.09897,-0.08196
-0.99579,0.07069,0.05829,0.33284,0.35013,-0.32518
-0.99653,0.07301,0.03978,0.52235,0.21882,-0.37061
-0.99679,0.07941,0.00914,0.57296,0.07173,-0.39575
-0.99594,0.08978,-0.00634,0.43913,-0.05183,-0.09896
-0.9949,0.10074,-0.00183,0.12256,-0.14643,0.21294
-0.99396,0.10706,0.02371,0.1086,-0.11919,0.45009
-0.99333,0.11238,0.02558,0.41931,-0.12606,0.03137
-0.99289,0.11715,0.02086,0.42923,-0.16349,-0.02803
-0.99275,0.11493,0.03512,0.28933,-0.30695,-0.01412
-0.99297,0.1043,0.05578,0.39826,-0.12672,-0.04012
-0.99287,0.0873,0.08105,0.42105,-0.0258,-0.04722
-0.99074,0.0649,0.11917,-0.14836,0.0737,0.13461
-0.98657,0.03202,0.16012,-0.82535,0.12189,-0.08199
-0.98342,-0.00872,0.18106,-1.04787,0.33303,-0.33965
-0.97572,-0.05878,0.21094,-0.5237,0.38723,-0.09437
-0.96434,-0.10503,0.2429,-0.25409,0.16617,0.1045
-0.9587,-0.13,0.25293,-0.2078,-0.07017,0.02907
-0.95809,-0.14252,0.24846,-0.08883,-0.10122,0.01201
-0.96076,-0.14668,0.23539,-0.01473,-0.09377,-0.03474
-0.96421,-0.14382,0.2227,0.184,-0.05931,0.06447
-0.96841,-0.13099,0.21214,0.40051,-0.06643,0.14429
-0.97344,-0.10768,0.20198,0.55792,-0.10261,0.18353
-0.97904,-0.07519,0.18922,0.63211,-0.12663,0.17876
-0.9843,-0.0371,0.17253,0.71335,-0.02555,0.11158
-0.9879,0.00044,0.15506,0.43616,-0.02711,0.00097
-0.98798,0.03508,0.15051,-0.15721,-0.05246,0.00452
-0.98638,0.0625,0.15211,-0.2812,-0.02982,0.02509
-0.98885,0.07056,0.13105,0.30969,0.07281,-0.231
-0.99252,0.07327,0.09756,0.24612,0.17298,-0.17764
-0.99362,0.07891,0.08049,0.14729,0.19935,0.06438
-0.99391,0.08023,0.07543,-0.06811,0.39305,-0.30181
-0.99447,0.08957,0.05478,-0.04078,0.36035,-0.37279
-0.99388,0.10159,0.04334,-0.25915,0.25407,-0.18926
-0.99349,0.10532,0.04325,-1.2206,-0.57085,-0.08149
-0.99309,0.10604,0.05015,-0.97458,-0.8515,0.17666
-0.9927,0.10011,0.0672,-0.5621,-0.832,0.31154
-0.99247,0.0885,0.08462,-0.03167,-0.03706,-0.09866
-0.99369,0.07945,0.07915,0.05425,0.14333,-0.18425
-0.99575,0.08038,0.04493,0.06703,0.31539,-0.22947
-0.99614,0.08645,0.01476,0.20375,0.12619,-0.26687
-0.99493,0.10043,-0.00422,0.33106,-0.04016,-0.18297
-0.99286,0.11905,-0.00701,0.28515,-0.29885,0.11931
-0.99024,0.13932,-0.00275,0.17043,-0.3058,0.33986
-0.98774,0.15588,-0.00786,0.22759,-0.15273,0.09606
-0.98554,0.16888,-0.01372,0.33444,-0.25805,-0.09675
-0.98375,0.17884,-0.01546,0.35291,-0.34866,-0.04179
-0.98244,0.18594,-0.01524,0.34326,-0.38272,-0.00556
-0.98154,0.19047,-0.01725,0.25362,-0.52312,0.03013
-0.9807,0.19461,-0.01851,0.27082,-0.56882,0.01557
-0.98007,0.19823,-0.01244,0.29793,-0.56635,-0.08526
-0.9801,0.19847,0.00361,-0.16509,-0.41627,0.24566
-0.98174,0.18811,0.02797,-0.36333,-0.24499,0.18267
-0.98497,0.16688,0.04438,-0.49803,-0.15858,0.18121
-0.98911,0.137,0.0537,-1.26506,0.35451,-0.58664
-0.99108,0.10604,0.08069,-1.3849,0.63126,-0.5786
-0.98908,0.07775,0.12511,-0.68099,0.71778,0.16011
-0.98825,0.04988,0.1444,-0.28367,0.18316,-0.02019
-0.99064,0.01582,0.1355,-0.35285,-0.16044,-0.32815
-0.99048,-0.02288,0.13568,-0.26823,0.13513,0.14649
-0.98419,-0.05645,0.16781,-0.34161,0.26158,0.27901
-0.97924,-0.08132,0.18566,-0.27272,0.12852,0.01873
-0.97785,-0.09285,0.18755,0.00487,0.09637,-0.18062
-0.97783,-0.09499,0.1866,0.36007,0.09934,-0.31471
-0.97503,-0.09412,0.20108,0.60087,-0.03619,-0.11856
-0.97255,-0.08883,0.21504,0.65057,0.10958,0.01686
-0.97477,-0.07631,0.20974,0.5557,0.16237,-0.07798
-0.97933,-0.05553,0.19445,0.41434,0.05333,-0.08884
-0.98386,-0.027,0.17685,0.28893,-0.00738,-0.04852
-0.98492,0.00347,0.17292,0.01573,-0.07252,0.06647
-0.98335,0.01398,0.18114,-0.58902,-0.82452,-0.16405
-0.9812,-0.00912,0.19273,-0.59117,-0.80141,-0.17564
-0.97751,-0.03625,0.20772,0.29851,-0.36908,-0.02241
-0.97442,-0.04861,0.21938,0.09068,0.50042,0.37586
-0.96989,-0.05395,0.23747,-0.5886,0.703,-0.3655
-0.97585,-0.05031,0.21253,-0.51165,0.35353,-0.59834
-0.97843,-0.02673,0.2048,0.01423,0.22094,-0.22485
-0.97666,-0.0106,0.21449,0.18362,0.04992,-0.31858
-0.97583,-0.00181,0.21847,0.20079,-0.16192,-0.29281
-0.97521,0.01661,0.22059,-0.02378,-0.22441,-0.29272
-0.97762,0.03991,0.2065,-0.10982,-0.13084,-0.38759
-0.9822,0.06163,0.17738,-0.02987,0.07667,-0.41323
-0.98515,0.08344,0.15002,-0.19564,0.10305,-0.15154
-0.98515,0.10254,0.13765,-0.28176,0.09856,-0.0519
-0.98428,0.12077,0.12878,-0.03073,0.00706,-0.19032
-0.98401,0.13708,0.11365,0.03432,-0.13129,-0.31015
-0.9839,0.15091,0.09563,0.12367,-0.10765,-0.34208
-0.9835,0.16478,0.07458,0.12277,-0.00838,-0.19363
-0.98235,0.1794,0.05288,0.03226,-0.04779,-0.02664
-0.98009,0.19561,0.03397,0.03201,0.0064,0.06721
-0.9771,0.2124,0.01243,0.06026,0.02457,-0.00945
-0.97347,0.22866,-0.0079,0.08127,0.00236,-0.10766
-0.96992,0.24266,-0.01894,0.07214,-0.0648,0.00997
-0.96702,0.2537,-0.02218,-0.06487,-0.26094,0.1858
-0.96525,0.26019,-0.02419,-0.12379,-0.41705,0.14386
-0.96476,0.26192,-0.02493,-0.09058,-0.5706,0.02878
-0.96582,0.25786,-0.02624,-0.15154,-0.55344,-0.16499
-0.96768,0.25068,-0.02728,-0.42037,-0.4438,-0.14133
-0.97021,0.24132,-0.02092,-0.54332,-0.07252,-0.18126
-0.97367,0.22753,0.01306,-0.07286,0.01139,-0.1063
-0.976,0.20975,0.05842,0.05055,-0.05137,-0.05729
-0.97731,0.18525,0.10262,-0.03926,0.02265,-0.09022
-0.97803,0.15556,0.13869,-0.28352,0.14614,-0.15478
-0.97887,0.12688,0.16032,-0.25032,0.18457,-0.23841
-0.97966,0.10422,0.17145,-0.04782,0.2077,-0.32167
-0.98071,0.08345,0.17672,-0.04306,0.16715,-0.36671
-0.98111,0.05926,0.1841,-0.08366,0.01624,-0.29884
-0.98008,0.02771,0.19664,-0.09883,-0.17084,-0.21665
-0.97653,-0.00559,0.21527,-0.12889,-0.28161,-0.15585
-0.97144,-0.03242,0.23502,-0.16081,-0.28477,-0.16454
-0.96644,-0.04982,0.25197,-0.01198,-0.05391,-0.15937
-0.96181,-0.05814,0.26744,0.28777,0.26065,-0.09115
-0.96133,-0.06365,0.2679,0.39461,0.29803,-0.13846
-0.96434,-0.06596,0.25628,0.34523,0.29161,-0.31752
-0.96665,-0.06041,0.24886,0.32587,0.13918,-0.20958
-0.9685,-0.04592,0.24469,0.30606,0.02828,-0.12082
-0.97242,-0.02154,0.23219,0.22636,-0.07287,-0.13621
-0.97657,0.00676,0.21505,-0.15304,-0.13267,-0.09848
-0.97785,0.03093,0.20698,-0.62057,-0.05983,0.04517
-0.97798,0.03437,0.20581,-0.40691,-0.22387,0.06504
-0.97723,0.01822,0.21137,-0.00986,-0.5078,-0.01628
-0.97611,0.00311,0.21721,0.11613,-0.07833,-0.14534
-0.97554,-0.00057,0.21979,-0.38456,0.09988,-0.07369
-0.97622,-0.00219,0.21673,-0.61329,0.28604,-0.2861
-0.98098,-0.00159,0.19408,0.10512,0.38811,-0.28
-0.98192,0.00869,0.18904,0.10607,0.37783,-0.27497
-0.98192,0.02555,0.18752,0.30538,0.42643,-0.2739
-0.98159,0.05093,0.18401,-0.03582,0.03897,-0.23696
-0.98093,0.08376,0.17537,-0.13698,-0.05377,-0.26207
-0.98067,0.11267,0.1599,-0.21685,-0.18441,-0.35511
-0.98069,0.1348,0.14165,-0.0388,-0.13941,-0.1095
-0.98023,0.14863,0.13058,0.05377,-0.13946,-0.08878
-0.98058,0.15331,0.12226,0.10436,-0.11215,-0.11895
-0.9813,0.15822,0.1095,0.08639,0.04493,-0.26506
-0.98189,0.16419,0.09442,0.03319,-0.04976,-0.30493
-0.98249,0.17119,0.07344,0.0868,-0.15526,-0.21856
-0.9824,0.18057,0.04753,0.07585,-0.20675,-0.09489
-0.98133,0.19084,0.02345,0.0196,-0.15901,-0.03433
-0.98007,0.19863,0.00084,0.00848,-0.01066,-0.06475
-0.97871,0.20426,-0.01966,0.05606,0.04109,-0.00436
-0.97727,0.20954,-0.03208,0.01631,0.11015,0.07079
-0.97628,0.21466,-0.02802,0.03518,0.09819,0.12012
-0.97513,0.22073,-0.01944,-0.08119,-0.08818,0.07315
-0.97403,0.22605,-0.01229,-0.12688,-0.20446,0.01386
-0.97418,0.22568,-0.00579,-0.30019,-0.23845,-0.0114
-0.97572,0.21898,-0.00178,-0.29106,-0.20532,-0.06851
-0.97852,0.20604,0.00542,-0.15664,-0.05626,-0.1644
-0.98178,0.1886,0.02279,-0.11403,0.04443,-0.09344
-0.9841,0.16954,0.05284,-0.10407,0.04849,-0.00945
-0.98475,0.14737,0.09244,-0.02266,-0.00796,0.01393
-0.98433,0.11678,0.13209,-0.08986,-0.078,-0.02992
-0.9828,0.07913,0.16678,-0.24238,0.01781,-0.03635
-0.9814,0.042,0.18725,-0.24755,0.20403,-0.17766
-0.98085,0.00441,0.19469,-0.13085,0.38124,-0.31078
-0.9788,-0.0303,0.2025,0.0872,0.26346,-0.18862
-0.97615,-0.0589,0.2089,0.16426,0.13622,-0.18041
-0.97364,-0.08179,0.21287,0.17567,0.05867,-0.18551
-0.9715,-0.09796,0.21581,0.18666,0.05388,-0.13155
-0.9703,-0.10887,0.21596,0.22595,0.08156,-0.06463
-0.96988,-0.11509,0.21465,0.28179,0.08126,-0.01161
-0.9702,-0.1139,0.2138,0.37101,0.05717,0.05292
-0.97182,-0.10542,0.21081,0.4054,-0.02677,0.06405
-0.97437,-0.09107,0.20562,0.44517,-0.0702,0.02834
-0.97682,-0.07005,0.20224,0.42047,-0.05444,-0.05279
-0.9788,-0.04304,0.20021,0.37127,-0.05067,-0.11119
-0.9802,-0.01301,0.19754,0.29867,-0.073,-0.11911
-0.98111,0.01571,0.19278,-0.09029,0.01101,-0.07846
-0.98229,0.03568,0.18387,-0.0891,-0.00896,-0.06955
-0.98428,0.04213,0.17148,0.07409,0.05557,0.02754
-0.9869,0.04046,0.15613,0.32068,0.04891,0.04784
-0.98955,0.03987,0.13852,0.38876,-0.00968,0.05087
-0.9915,0.04356,0.12249,0.36307,-0.10024,0.01945
-0.9925,0.04958,0.11161,0.25554,-0.08382,0.05777
-0.99242,0.05506,0.10976,-0.08277,-0.06494,0.27096
-0.99305,0.05654,0.10318,-0.5386,0.07109,0.1409
-0.9961,0.056,0.06803,-0.33741,0.48587,-0.29572
-0.99707,0.062,0.04466,-0.25382,0.77488,-0.20004
-0.99626,0.07118,0.04891,0.12753,0.3908,-0.20153
-0.99491,0.07804,0.06361,-0.94343,-0.05072,0.0808
-0.99443,0.08821,0.05757,-1.06993,-0.28259,0.08761
-0.99545,0.08498,0.0429,-0.24419,-0.54367,-0.0479
-0.99542,0.08241,0.04822,-0.10283,-0.31104,-0.08654
-0.99401,0.07805,0.07634,-0.36512,-0.15988,0.20563
-0.99487,0.07833,0.06383,0.20909,0.33277,-0.33597
-0.99617,0.0781,0.0392,0.51037,0.28836,-0.3112
-0.99576,0.08761,0.02773,0.4971,0.24462,-0.04438
-0.99469,0.09862,0.02898,-0.12617,-0.13402,-0.17467
-0.9939,0.10833,0.02024,0.01023,-0.31118,-0.09888
-0.99324,0.11102,0.03362,0.21736,-0.57314,0.44646
-0.99238,0.11162,0.05204,0.31011,-0.07975,0.16035
-0.99156,0.11817,0.05315,0.2912,0.04832,-0.00953
-0.991,0.12169,0.05559,0.31003,-0.1859,-0.04436
-0.99093,0.1208,0.05875,0.41439,-0.32762,-0.18215
-0.99159,0.11272,0.06348,0.41184,-0.22179,-0.20602
-0.99228,0.0989,0.07465,0.28438,-0.13492,0.03193
-0.99218,0.08229,0.0938,-0.08253,-0.13657,0.21374
-0.99104,0.06221,0.11807,-0.60811,-0.06694,0.18157
-0.98986,0.03424,0.13781,-0.88865,0.18483,-0.25481
-0.98628,-0.00317,0.165,-0.91878,0.41882,-0.21228
-0.97706,-0.04951,0.20708,-0.63834,0.5421,-0.02108
-0.96598,-0.09378,0.24096,-0.11318,0.28788,0.12999
-0.95877,-0.13,0.25265,0.04499,0.0024,0.0605
-0.95534,-0.15626,0.25076,0.01232,-0.03641,-0.06365
-0.95515,-0.17126,0.24153,-0.03452,0.04797,-0.08281
-0.95709,-0.17829,0.2284,0.03244,0.01534,-0.06926
-0.96065,-0.17727,0.21376,0.23902,0.02168,-0.0522
-0.9646,-0.1684,0.20288,0.47878,0.06232,0.04704
-0.96841,-0.15419,0.19592,0.64849,0.04396,0.12229
-0.97306,-0.13341,0.18796,0.76144,0.06471,0.0889
-0.97872,-0.1018,0.17808,0.75404,0.07336,0.055
-0.98418,-0.05817,0.16729,0.66519,0.04386,0.04003
-0.98736,-0.00918,0.15818,-0.37199,0.21093,-0.05368
-0.98903,0.03031,0.14452,-0.37032,0.17144,-0.04003
-0.99149,0.04453,0.12225,-0.07579,0.17507,0.02622
-0.9931,0.04683,0.10744,0.14578,0.09645,0.18657
-0.99404,0.05061,0.09646,-0.09667,-0.02268,0.1068
-0.99575,0.05366,0.07469,-0.21879,0.00914,0.01566
-0.99745,0.05702,0.04272,-0.27271,0.34367,-0.03351
-0.99775,0.06418,0.0189,-0.24911,0.52961,-0.07115
-0.99727,0.07213,0.01547,-0.31443,0.12921,-0.05598
-0.99683,0.07802,0.01471,-0.57931,-0.28199,-0.0399
-0.99638,0.08222,0.021,-0.73732,-0.34136,-0.19336
-0.99628,0.07949,0.03314,-0.57413,-0.40425,-0.02792
-0.99671,0.07303,0.03477,-0.3711,-0.0532,-0.0344
-0.9969,0.07033,0.03503,-0.05587,0.16907,-0.0469
-0.99687,0.07247,0.03124,0.12186,0.19116,-0.0963
-0.99672,0.07865,0.01867,0.33542,0.12501,-0.14848
-0.99616,0.08653,0.01226,0.38085,0.03911,-0.11143
-0.99528,0.0964,0.01026,0.28214,-0.16106,-0.04306
-0.99461,0.10347,0.00454,0.18056,-0.18256,-0.01823
-0.99426,0.10685,0.0036,0.19357,-0.12096,0.08506
-0.99394,0.10895,0.01376,0.2503,-0.10291,0.14852
-0.99323,0.11336,0.02486,0.35008,-0.04153,0.0642
-0.99277,0.11517,0.03366,0.30675,-0.10015,-0.01926
-0.99267,0.11381,0.04039,0.28119,-0.12802,-0.08668
-0.99284,0.11072,0.04469,0.36332,-0.12835,-0.118
-0.99322,0.10574,0.04809,0.34054,-0.14575,-0.13949
-0.9937,0.09865,0.05292,0.2799,-0.18552,-0.12901
-0.99453,0.08339,0.0628,-0.32598,-0.35817,0.08815
-0.99508,0.05491,0.08238,-0.41618,-0.27848,0.1097
-0.99359,0.0104,0.1125,-0.5711,-0.17032,0.1086
-0.98788,-0.04103,0.14962,-0.82079,0.33684,0.01766
-0.97845,-0.0914,0.18508,-0.61405,0.50752,-0.06249
-0.96945,-0.13052,0.20761,-0.39305,0.63972,-0.09976
-0.96341,-0.16098,0.21423,-0.04318,0.12874,0.00515
-0.95929,-0.18443,0.21383,-0.06209,0.03946,0.00373
-0.95725,-0.2008,0.20816,-0.06019,0.00036,-0.02121
-0.9575,-0.20702,0.2008,-0.0054,-0.08662,0.03995
-0.95969,-0.20291,0.19442,0.05488,-0.06337,0.05722
-0.96347,-0.19002,0.18865,0.38248,-0.03052,0.15837
-0.96863,-0.16947,0.18169,0.51863,0.09279,0.17909
-0.97463,-0.14405,0.17122,0.5431,0.11943,0.14276
-0.98015,-0.11394,0.16216,0.61931,0.07834,-0.01929
-0.98493,-0.07529,0.15565,0.56569,0.07387,-0.06784
-0.98874,-0.03097,0.1463,0.45321,0.06442,-0.0762
-0.99124,0.01044,0.13154,0.04479,0.10189,-0.17619
-0.99267,0.03952,0.11409,-0.03716,0.19662,-0.17082
-0.99339,0.04896,0.10376,0.13337,0.14986,-0.02347
-0.99386,0.0535,0.09677,0.05016,-0.21993,0.1584
-0.99545,0.05733,0.07599,-0.31313,-0.53745,0.24789
-0.99771,0.05647,0.037,-0.31287,-0.05894,0.15114
-0.99852,0.05358,-0.00795,-0.27182,0.32832,0.0841
-0.99821,0.0525,-0.02814,-0.23937,0.67692,-0.01672
-0.99827,0.05465,-0.02116,-0.4336,0.46497,-0.20874
-0.99824,0.05834,-0.00977,-0.75799,0.08255,-0.2907
-0.99818,0.05941,0.00983,-0.54134,-0.37639,-0.01589
-0.99764,0.05765,0.03698,-0.5973,-0.60723,0.07525
-0.99736,0.05287,0.04952,-0.39935,-0.4315,0.16676
-0.99804,0.04661,0.04159,-0.02279,0.09963,-0.13393
-0.99857,0.04748,0.02414,0.10012,0.31419,-0.21888
-0.99866,0.05068,0.0094,0.22855,0.16731,-0.15326
-0.99822,0.05904,-0.00771,0.39711,0.01201,-0.29299
-0.99731,0.07044,-0.01998,0.4441,-0.04834,-0.18921
-0.99689,0.07854,-0.00442,0.44574,-0.15146,0.00734
-0.99657,0.08026,0.01955,0.12871,-0.0323,0.34962
-0.99642,0.08397,0.00822,0.12857,-0.03601,0.36095
-0.99633,0.08552,0.00017,0.42072,-0.21026,-0.10708
-0.9964,0.08406,0.00976,0.39261,-0.1581,-0.11231
-0.99668,0.07829,0.02192,0.35241,-0.09197,-0.12072
-0.99688,0.072,0.03197,0.3083,-0.0205,-0.13341
-0.99687,0.06754,0.04092,0.31237,-0.10329,-0.11209
-0.99657,0.06371,0.05268,0.228,-0.20285,-0.0835
-0.99593,0.0529,0.07279,0.05483,-0.31675,-0.016
-0.99482,0.02625,0.09813,-0.7299,-0.36316,0.23115
-0.99127,-0.01664,0.13074,-0.75377,-0.11853,0.11177
-0.98208,-0.06716,0.17602,-0.72725,0.15696,-0.11605
-0.97118,-0.11205,0.21032,-0.72052,0.58223,-0.19861
-0.96156,-0.15073,0.22946,-0.46738,0.57261,-0.12763
-0.9551,-0.18179,0.23391,-0.01247,0.33204,0.13768
-0.95235,-0.2038,0.22688,-0.01719,0.14853,0.0741
-0.95146,-0.21624,0.21896,-0.06826,-0.05729,0.01079
-0.95258,-0.2185,0.21173,0.00713,-0.08515,0.0078
-0.95577,-0.20931,0.20658,0.10147,-0.01068,-0.01178
-0.96,-0.19376,0.20205,0.27504,0.09194,0.03398
-0.96536,-0.1748,0.19365,0.55392,0.31223,0.07152
-0.97134,-0.15398,0.18104,0.69202,0.33261,-0.00527
-0.97717,-0.12851,0.16912,0.72654,0.26045,-0.02828
-0.98324,-0.09385,0.15621,0.72921,0.15346,-0.05828
-0.98932,-0.05128,0.1364,0.65593,0.09992,-0.05029
-0.99378,-0.00517,0.11116,0.32117,0.05064,-0.06202
-0.99506,0.03196,0.09385,-0.24581,0.10619,-0.11106
-0.99434,0.04511,0.09608,-0.25873,0.04166,-0.06236
-0.99397,0.04353,0.1005,-0.14055,-0.21761,0.12071
-0.99574,0.04345,0.08126,-0.23414,-0.29476,0.24807
-0.99827,0.04848,0.033,-0.21218,-0.09002,-0.01124
-0.9982,0.05975,-0.004,-0.63135,0.37518,-0.10645
-0.99791,0.06454,0.00024,-0.74216,0.50115,-0.28782
-0.99804,0.06042,0.01583,-0.9504,-0.13926,0.16761
-0.99829,0.05149,0.02721,-0.35534,-0.72525,0.18981
-0.99764,0.04421,0.05227,-0.63642,-0.2206,-0.44505
-0.99718,0.03632,0.06558,-0.27942,-0.11699,0.09331
-0.9984,0.03404,0.04505,0.07608,0.17263,-0.16944
-0.99899,0.03525,0.02763,0.15615,0.17332,-0.06834
-0.99914,0.039,0.01369,0.1209,-0.0268,-0.23113
-0.99891,0.04653,0.0009,0.26635,-0.18004,-0.24623
-0.99826,0.05878,-0.00321,0.27848,-0.21164,-0.15259
-0.99754,0.06934,0.00978,0.00793,-0.05808,0.42049
-0.99682,0.0787,0.01171,0.1869,0.14165,0.38099
-0.99629,0.08564,0.00752,0.4631,0.13303,-0.12542
-0.99571,0.09141,0.01352,0.33429,-0.147,-0.13859
-0.99536,0.09308,0.0238,0.31081,-0.19933,-0.10513
-0.99503,0.09226,0.0371,0.33894,-0.20641,-0.04416
-0.99424,0.09126,0.05601,0.2943,-0.06291,0.14036
-0.99338,0.0896,0.07174,0.18451,-0.01616,0.10236
-0.99318,0.0871,0.07734,0.08614,-0.0835,-0.00638
-0.99296,0.08095,0.08641,0.1612,-0.23198,0.02414
-0.99206,0.06745,0.10609,0.17196,-0.27239,0.04388
-0.99066,0.04341,0.12921,-0.47727,-0.23748,0.03344
-0.98708,0.01334,0.1596,-0.61721,0.09123,-0.1004
-0.97866,-0.01916,0.20455,-0.65004,0.32917,-0.10778
-0.96858,-0.0535,0.24282,-0.92315,0.64643,-0.08591
-0.96004,-0.08733,0.26586,-0.53108,0.35729,0.00512
-0.95251,-0.12087,0.27945,-0.03501,0.05094,0.14208
-0.94975,-0.14743,0.27609,0.10439,-0.07386,0.08229
-0.95117,-0.16244,0.26242,0.20302,-0.08379,-0.05767
-0.95426,-0.16538,0.24901,0.20878,-0.10675,-0.1162
-0.9577,-0.15723,0.24097,0.29025,-0.09811,-0.11758
-0.96248,-0.13669,0.23437,0.43904,-0.00038,-0.0735
-0.96843,-0.10812,0.22457,0.57474,0.10033,0.05267
-0.97453,-0.08049,0.20925,0.62143,0.10741,0.18998
-0.98105,-0.05442,0.18588,0.60051,0.03844,0.16266
-0.98662,-0.02227,0.16144,0.4399,-0.0375,-0.00827
-0.98874,0.01566,0.14877,0.12033,-0.0153,-0.14016
-0.98817,0.04218,0.14735,-0.05374,0.0252,-0.08845
-0.98943,0.04774,0.13683,0.19721,0.02048,-0.06694
-0.99226,0.05069,0.11324,0.36411,0.34094,-0.00757
-0.99404,0.05263,0.09537,-0.25862,0.10157,0.09192
-0.99566,0.05045,0.0781,-0.27189,0.11566,0.1437
-0.99768,0.0545,0.04063,-0.46324,0.42258,0.12864
-0.99797,0.06287,0.00898,-0.1345,0.28454,-0.2138
-0.99768,0.06767,0.00626,-0.29428,-0.0289,-0.0443
-0.99737,0.07198,0.00709,-0.89663,-0.47365,-0.11496
-0.99724,0.07377,0.00766,-0.71336,-0.72439,0.06041
-0.99758,0.06731,0.01698,-0.57733,-0.43618,-0.03307
-0.99754,0.05635,0.04149,-0.27021,0.1321,0.07481
-0.99774,0.05176,0.04268,0.15777,0.46655,-0.26012
-0.9986,0.04841,0.02086,0.3008,0.33924,-0.33905
-0.99867,0.05038,0.01021,0.28023,0.27062,-0.24475
-0.99829,0.05731,0.01123,0.2853,0.09456,-0.20061
-0.9976,0.06757,0.01423,0.36954,-0.09309,-0.02299
-0.99654,0.0812,0.01759,0.31781,-0.2134,0.28939
-0.99554,0.0911,0.02433,0.31803,-0.21303,0.33973
-0.99514,0.09564,0.02299,0.35394,-0.19712,0.06014
-0.99511,0.09768,0.01429,0.33374,-0.29533,-0.0101
-0.99525,0.09637,0.01349,0.21618,-0.35679,0.16363
-0.9956,0.09067,0.02332,0.07821,-0.17772,0.18988
-0.99606,0.08321,0.03047,0.25445,-0.00939,0.02429
-0.9961,0.07695,0.04295,0.38959,-0.01317,0.03359
-0.99497,0.0701,0.07141,0.0899,-0.11565,0.1371
-0.99249,0.0543,0.10951,-0.1778,-0.17207,0.17411
-0.99016,0.02498,0.13762,-0.7887,0.03612,-0.02985
-0.98593,-0.01556,0.16636,-0.85353,0.20952,-0.14547
-0.97849,-0.05877,0.19771,-0.4507,0.53878,-0.19951
-0.97013,-0.09762,0.22204,-0.24647,0.17204,-0.0404
-0.96336,-0.13023,0.23441,-0.35289,0.09828,0.16297
-0.9611,-0.15511,0.22847,-0.32558,0.02697,0.15585
-0.96246,-0.17021,0.21139,-0.01699,-0.07265,-0.05452
-0.96464,-0.1762,0.19598,-0.01481,-0.06665,-0.03912
-0.96735,-0.17246,0.18567,0.2515,-0.11059,0.01972
-0.97084,-0.15562,0.18232,0.44706,-0.07955,0.08672
-0.97566,-0.12818,0.17789,0.609,-0.04614,0.18668
-0.98151,-0.09572,0.16571,0.70043,0.03761,0.18352
-0.98748,-0.06025,0.1457,0.6678,0.05219,0.05791
-0.99144,-0.02129,0.12877,0.38884,-0.0014,-0.06822
-0.99187,0.0216,0.12531,-0.01686,0.02628,-0.06049
-0.99073,0.05425,0.12448,-0.17318,0.05392,-0.04964
-0.99173,0.06519,0.11049,0.21763,-0.12994,0.03424
-0.99329,0.07131,0.09096,0.24315,0.02537,0.25653
-0.99435,0.07634,0.07368,-0.30772,0.20305,0.29792
-0.99595,0.07725,0.04567,-0.38289,0.47707,0.03965
-0.99621,0.0858,0.01385,-0.03289,0.55185,-0.41044
-0.99547,0.09428,0.01149,-0.01663,0.41127,-0.32503
-0.99513,0.096,0.02195,-0.40511,-0.13445,-0.1341
-0.99447,0.10225,0.02339,-0.7824,-0.82796,0.10934
-0.99454,0.10292,0.01653,-0.63984,-0.8996,0.37184
-0.9953,0.09344,0.02508,-0.40851,-0.4658,0.13696
-0.99633,0.08329,0.01906,-0.10436,-0.00919,-0.07337
-0.99678,0.0776,0.01961,0.10462,0.1774,-0.21035
-0.99683,0.07829,0.01336,0.22275,0.21634,-0.23002
-0.99625,0.08638,-0.00385,0.35141,-0.02348,-0.2858
-0.99522,0.09538,-0.02071,0.42843,-0.19847,-0.15184
-0.9943,0.1034,-0.02573,0.27776,-0.18527,0.20186
-0.99426,0.10644,-0.00976,0.16872,0.08143,0.43606
-0.99415,0.10786,0.00311,0.37993,-0.00779,0.19474
-0.99378,0.11122,0.0023,0.47944,-0.24358,0.01299
-0.99351,0.11359,0.00494,0.43802,-0.34815,-0.05097
-0.99343,0.11318,0.01667,0.32846,-0.26415,-0.05384
-0.99354,0.10859,0.03262,0.17909,-0.20164,0.07061
-0.99339,0.10249,0.05154,-0.05471,-0.15275,0.07375
-0.99307,0.09546,0.0684,-0.10912,-0.01442,-0.0061
-0.99211,0.08395,0.09305,-0.24462,0.04372,0.03114
-0.98952,0.0649,0.1289,-0.60292,0.06279,-0.05967
-0.98589,0.03758,0.16308,-0.95415,-0.00413,-0.15898
-0.97817,0.01205,0.20742,-0.98613,0.09948,-0.00733
-0.97208,-0.01753,0.23393,-0.23226,0.34926,0.01742
-0.9672,-0.04812,0.24937,-0.08601,-0.03158,0.14101
-0.96449,-0.07129,0.25427,-0.02461,-0.02618,0.05803
-0.96543,-0.08591,0.24606,0.02501,0.00619,-0.00752
-0.96758,-0.09408,0.23433,0.22662,0.02035,-0.10671
-0.96999,-0.0938,0.22428,0.31626,0.00231,-0.08738
-0.97207,-0.08381,0.21918,0.41346,-0.02985,-0.0621
-0.97332,-0.06537,0.2199,0.68688,0.0869,0.08039
-0.97507,-0.04019,0.21817,0.69915,0.12772,0.10763
-0.97874,-0.01005,0.20483,0.66419,0.12246,0.1162
-0.98285,0.02392,0.18281,0.07446,0.02399,0.11258
-0.98619,0.05441,0.15635,-0.11591,0.01037,0.14267
-0.98703,0.06983,0.14447,-0.30543,-0.02703,0.20473
-0.98779,0.06787,0.14017,-0.06948,-0.53904,0.1026
-0.98839,0.05451,0.14175,-0.21907,-0.70361,-0.0751
-0.98975,0.02944,0.13965,-0.17751,-0.51726,-0.16357
-0.99311,0.021,0.11517,-0.44278,0.71655,-0.33102
-0.99542,0.03936,0.08704,-0.25657,0.90828,-0.70531
-0.99535,0.05938,0.0757,-0.54258,1.08369,-0.33791
-0.99213,0.06018,0.10975,-0.40393,0.12041,-0.3094
-0.99151,0.05398,0.11822,-0.49534,-0.58879,-0.2937
-0.98931,0.05672,0.13424,-0.64744,-0.63899,0.03528
-0.98948,0.0654,0.12899,-0.1342,0.09045,-0.47167
-0.99168,0.07893,0.10159,-0.01606,0.2388,-0.44651
-0.99257,0.09179,0.07974,0.09551,0.30355,-0.32377
-0.99276,0.1044,0.05923,0.15047,0.08322,-0.10768
-0.99094,0.12118,0.05781,0.06946,-0.05812,0.04299
-0.98844,0.13884,0.0607,0.10069,0.00436,0.18455
-0.98674,0.1569,0.04137,0.25149,0.07087,0.00819
-0.98478,0.17293,0.01694,0.24033,-0.02655,-0.05222
-0.98261,0.18548,0.0073,0.12585,-0.36381,-0.00112
-0.98029,0.19734,0.00791,0.11314,-0.48053,0.23321
-0.97804,0.20833,0.00426,0.08058,-0.45926,0.19949
-0.97627,0.21653,0.001,-0.01186,-0.42777,0.13209
-0.97506,0.22185,0.00407,-0.06337,-0.34611,-0.07108
-0.97426,0.22525,0.00826,-0.28966,-0.3537,0.05228
-0.97506,0.22167,0.01043,-0.51509,-0.39829,-0.03636
-0.97758,0.20969,0.01855,-0.29956,-0.15013,-0.16827
-0.98061,0.18983,0.04855,-0.18051,-0.0597,-0.22125
-0.98169,0.16663,0.09216,-0.26727,-0.06188,-0.13412
-0.98074,0.14424,0.13163,-0.14864,0.11454,-0.25747
-0.97894,0.12425,0.16193,-0.05211,0.23133,-0.24081
-0.97856,0.10483,0.17723,-0.04142,0.20254,-0.26482
-0.97921,0.08659,0.18337,-0.05578,0.15862,-0.35468
-0.9801,0.06846,0.18625,-0.07106,0.15571,-0.42289
-0.97953,0.04714,0.19563,-0.14696,-0.13569,-0.36874
-0.9762,0.02325,0.21558,-0.16154,-0.40639,-0.22034
-0.97019,-0.0001,0.2423,-0.19038,-0.46981,-0.1676
-0.9639,-0.01666,0.26571,-0.10637,-0.15534,-0.15557
-0.95954,-0.02274,0.28063,0.15288,0.17037,-0.15413
-0.95748,-0.02555,0.28733,0.2987,0.28031,-0.15183
-0.95933,-0.02816,0.28085,0.32964,0.26733,-0.28825
-0.96319,-0.02644,0.26747,0.28294,0.16717,-0.37451
-0.96546,-0.01932,0.25978,0.24105,0.11915,-0.3089
-0.96771,-0.00357,0.25199,0.21341,0.06267,-0.2392
-0.97154,0.01777,0.23616,0.07435,-0.12452,-0.1278
-0.976,0.03979,0.21407,-0.1073,-0.15539,-0.07996
-0.97917,0.05937,0.19411,-0.37325,-0.16702,-0.00089
-0.98087,0.06757,0.18249,-0.27161,-0.38003,0.07109
-0.9818,0.06075,0.17991,-0.18575,-0.38894,0.08065
-0.98079,0.05037,0.1884,-0.03113,-0.3683,0.01802
-0.97984,0.04245,0.19516,0.24185,0.06188,-0.2613
-0.98034,0.03692,0.19379,0.26748,0.00596,-0.2663
-0.98243,0.033,0.18362,0.32951,-0.14342,-0.26364
-0.98463,0.03421,0.17122,-1.36427,0.12595,-0.40453
-0.98745,0.03955,0.15282,-1.08693,0.27176,-0.26639
-0.99216,0.04378,0.11694,0.14127,0.24873,-0.10034
-0.9921,0.05059,0.11468,0.52337,0.00598,-0.0628
-0.98956,0.05953,0.1312,0.28091,-0.09054,-0.20835
-0.98664,0.07499,0.14455,0.1298,0.13265,-0.23476
-0.98461,0.09325,0.14772,0.1022,0.22878,-0.37002
-0.98595,0.10866,0.12677,0.13894,0.26653,-0.41776
-0.98782,0.12463,0.09302,0.15753,0.23601,-0.31846
-0.98785,0.14086,0.06552,-0.04241,-0.00337,-0.13677
-0.98604,0.15405,0.06306,-0.12671,-0.11509,-0.02945
-0.98446,0.16178,0.06811,0.00784,-0.35152,-0.09147
-0.98452,0.1668,0.05362,0.17115,-0.26756,-0.28705
-0.98467,0.172,0.02859,0.15958,-0.07819,-0.23367
-0.98421,0.17676,0.00796,0.09548,0.04733,-0.13688
-0.98283,0.18432,-0.00671,0.00368,0.05776,-0.10114
-0.98057,0.19499,-0.02113,0.00315,-0.00034,-0.05217
-0.97772,0.20677,-0.0361,0.05833,-0.01381,0.01066
-0.97452,0.21858,-0.05009,0.05181,-0.00878,0.00239
-0.97104,0.23039,-0.06321,-0.02657,-0.0094,0.03185
-0.96745,0.24132,-0.07612,-0.06074,-0.09006,0.07554
-0.96427,0.25017,-0.08707,-0.06802,-0.2304,0.12251
-0.96271,0.25482,-0.09078,-0.16464,-0.24119,0.07268
-0.96313,0.25474,-0.08644,-0.38857,-0.3204,0.08698
-0.9645,0.25072,-0.08291,-0.50011,-0.36584,-0.04267
-0.96693,0.24005,-0.08607,-0.39731,-0.26838,-0.12078
-0.97114,0.22458,-0.08023,-0.42313,-0.09974,-0.11401
-0.97679,0.20666,-0.05615,-0.14952,-0.05997,0.07584
-0.98234,0.18521,-0.02642,-0.04843,-0.01027,0.09736
-0.98644,0.16397,0.00535,0.10885,0.02854,0.10569
-0.98917,0.14246,0.03493,0.046,0.14214,0.05583
-0.9909,0.12042,0.05994,-0.10509,0.18961,-0.06233
-0.99206,0.10144,0.07414,-0.0704,0.26271,-0.25616
-0.99328,0.08577,0.07753,-0.01651,0.29672,-0.40392
-0.99404,0.06779,0.08525,0.02471,0.10627,-0.26206
-0.9937,0.04332,0.1032,0.05039,-0.07265,-0.09999
-0.9922,0.01364,0.12384,0.02636,-0.14331,-0.01573
-0.98979,-0.0148,0.14166,0.04421,-0.04125,0.02111
-0.98732,-0.03934,0.15373,0.15312,0.10376,0.01901
-0.98538,-0.05947,0.15961,0.27131,0.16463,-0.0506
-0.98439,-0.07454,0.15939,0.27252,0.13398,-0.04725
-0.98403,-0.08251,0.15767,0.26424,0.10311,-0.04062
-0.98423,-0.08304,0.15612,0.22102,0.04402,-0.04914
-0.98481,-0.07826,0.15494,0.19677,-0.01992,-0.04641
-0.98579,-0.07027,0.15255,0.17333,-0.08691,-0.04061
-0.98684,-0.06098,0.14971,0.05183,-0.32053,0.08697
-0.98761,-0.0519,0.148,-0.06669,-0.31933,0.10516
-0.98805,-0.04583,0.14708,-0.19484,-0.22277,0.11982
-0.98798,-0.04611,0.14749,-0.20711,-0.20836,0.07548
-0.98673,-0.05527,0.15259,-0.26034,-0.15808,0.07646
-0.98498,-0.06692,0.15913,-0.92361,0.24508,-0.26634
-0.986,-0.07353,0.1496,0.03727,0.43535,-0.14503
-0.98553,-0.0766,0.15111,0.70347,0.33612,-0.05292
-0.9834,-0.07155,0.16666,0.12653,0.26934,-0.20562
-0.98285,-0.05109,0.17714,-0.1296,0.3285,-0.17458
-0.98342,-0.02165,0.17997,-0.1214,0.30462,-0.23013
-0.98477,0.00691,0.17365,0.15985,0.13893,-0.32633
-0.98754,0.03516,0.15331,0.07324,-0.01321,-0.15161
-0.98809,0.0587,0.14216,0.02657,-0.12024,-0.09955
-0.98669,0.07203,0.1457,0.04857,-0.20577,-0.07431
-0.98643,0.07737,0.14473,0.07777,-0.10779,-0.0629
-0.98802,0.07895,0.13253,0.09176,-0.078,-0.16748
-0.9898,0.08107,0.11705,0.06498,-0.13547,-0.19704
-0.9905,0.08477,0.1082,0.14319,-0.10297,-0.12442
-0.99098,0.08678,0.102,0.24065,-0.16934,-0.04118
-0.99154,0.08721,0.09606,0.23817,-0.19519,0.00276
-0.99189,0.08749,0.09208,0.20385,-0.19993,0.05549
-0.99222,0.08787,0.08811,0.0654,-0.13102,0.04995
-0.99279,0.08806,0.08126,0.04219,-0.0581,0.03141
-0.99386,0.08613,0.06932,0.22456,0.00709,-0.03487
-0.99467,0.08418,0.05936,0.27925,-0.01705,-0.05933
-0.9945,0.08586,0.05985,0.29304,-0.03221,-0.02809
-0.99356,0.08868,0.07033,0.20304,-0.06476,0.01447
-0.99263,0.09022,0.08076,0.18332,-0.08537,-0.00545
-0.99222,0.0912,0.08466,0.25172,-0.08598,-0.09137
-0.99177,0.09215,0.08874,0.27433,-0.10185,-0.10157
-0.99072,0.09229,0.09972,0.19714,-0.10488,-0.10517
-0.9891,0.0868,0.11889,0.08964,-0.13318,0.06749
-0.98721,0.07562,0.1403,-0.19533,-0.1695,0.17139
-0.98512,0.0563,0.16235,-0.50159,-0.12096,0.09168
-0.98224,0.02765,0.18553,-0.7413,0.01581,-0.23061
-0.97787,-0.00531,0.2091,-0.78748,0.32273,-0.37397
-0.97042,-0.04149,0.23777,-0.8521,0.51163,-0.29387
-0.96293,-0.07905,0.25788,-0.52215,0.47291,-0.21703
-0.95727,-0.1162,0.26478,-0.156,0.03367,-0.04449
-0.95441,-0.1472,0.25963,-0.00349,-0.25151,0.01778
-0.95544,-0.16035,0.24778,0.11293,-0.1637,-0.05569
-0.95736,-0.15956,0.2408,0.26256,-0.07906,-0.03984
-0.95874,-0.14782,0.24279,0.35487,0.01364,0.02631
-0.96045,-0.12506,0.24875,0.46359,0.17688,0.11373
-0.96407,-0.09783,0.24693,0.50854,0.43325,0.10258
-0.96996,-0.07351,0.23184,0.52028,0.3827,0.00812
-0.97606,-0.05066,0.21146,0.57723,0.13429,-0.2294
-0.98082,-0.02032,0.19381,0.46042,0.10895,-0.23717
-0.98405,0.01647,0.17705,0.22192,0.15366,-0.16355
-0.98563,0.05409,0.15994,-0.37222,0.10101,-0.02005
-0.98485,0.08358,0.15187,-0.40143,-0.08196,0.16963
-0.98525,0.09096,0.14485,0.11517,-0.25217,0.20651
-0.98776,0.08704,0.12935,0.04947,-0.38787,0.19254
-0.99043,0.0827,0.11043,-0.20519,-0.20671,0.28218
-0.993,0.08163,0.08521,-0.25997,0.30571,-0.14747
-0.9949,0.08752,0.04993,-0.19982,0.44097,-0.23672
-0.99454,0.09874,0.03359,-0.37616,0.12717,-0.12121
-0.99412,0.1042,0.02925,-0.49244,-0.18672,-0.196
-0.99406,0.10553,0.02606,-0.58618,-0.10115,-0.24361
-0.99436,0.10144,0.03046,-0.32004,-0.07788,-0.02851
-0.99501,0.09026,0.04233,-0.15096,-0.04571,0.03824
-0.99504,0.08426,0.05262,-0.14309,-0.07963,0.0843
-0.99565,0.07958,0.04821,0.11476,-0.06195,-0.0268
-0.99652,0.07549,0.03494,0.34049,0.10597,-0.16427
-0.99683,0.07722,0.01879,0.40067,0.20398,-0.26025
-0.99638,0.08442,0.00942,0.43749,0.03334,-0.11316
-0.9956,0.09265,0.01352,0.1307,-0.07847,-0.03806
-0.99504,0.09819,0.01564,0.13847,-0.14778,-0.04519
-0.9949,0.09719,0.02642,0.05121,-0.22575,0.30849
-0.99499,0.09303,0.03629,0.14592,-0.21927,0.31126
-0.99505,0.09494,0.02892,0.40361,-0.30937,0.04913
-0.9951,0.09537,0.02569,0.41002,-0.24693,-0.1428
-0.99549,0.08784,0.03546,0.34751,-0.18369,-0.21603
-0.99596,0.07355,0.05137,0.15866,-0.09019,-0.0143
-0.99586,0.05524,0.07212,-0.38397,-0.02135,0.24641
-0.99447,0.03339,0.09948,-0.56612,0.1062,0.15845
-0.99158,0.00333,0.12938,-0.68832,0.26675,-0.01538
-0.98702,-0.03555,0.15657,-0.88997,0.45774,-0.16816
-0.97788,-0.08288,0.19198,-0.84866,0.50671,-0.20057
-0.96743,-0.13067,0.21674,-0.25711,0.21796,0.01521
-0.9596,-0.17007,0.22412,0.1201,-0.0926,0.12063
-0.95489,-0.19513,0.2238,0.12328,-0.1116,-0.02821
-0.95231,-0.20655,0.22455,0.04967,0.03676,-0.01682
-0.95179,-0.21003,0.22351,0.06271,0.06529,-0.03689
-0.95365,-0.20356,0.22157,0.1865,0.0626,0.01319
-0.95722,-0.18496,0.22249,0.42166,0.11056,0.05647
-0.96172,-0.16098,0.22173,0.57933,0.17413,0.1327
-0.96775,-0.1373,0.21116,0.53615,0.12618,0.04954
-0.9744,-0.10874,0.19672,0.59784,0.11026,-0.02729
-0.9802,-0.07214,0.18433,0.61051,0.10164,-0.01226
-0.98635,-0.03114,0.16163,0.16721,-0.02462,-0.06228
-0.99117,0.00942,0.13217,-0.3498,-0.01744,-0.03652
-0.99278,0.02656,0.11686,-0.07925,-0.25409,0.0968
-0.9936,0.02209,0.1107,0.1635,-0.27671,0.16541
-0.99441,0.01956,0.10362,0.01817,-0.24752,0.34248
-0.9962,0.02014,0.0846,-0.31944,0.19231,0.28698
-0.99875,0.02373,0.04387,-0.07051,0.74808,-0.44563
-0.99923,0.03391,0.01948,-0.33091,0.34152,-0.29312
-0.99891,0.04118,0.02167,-0.82849,0.07856,-0.29901
-0.99863,0.04813,0.02005,-1.38418,-0.104,-0.04039
-0.9986,0.04888,0.01965,-0.23417,-0.35858,0.19878
-0.99879,0.03719,0.03196,-0.00735,-0.46181,0.01197
-0.99864,0.02421,0.04589,-0.1301,-0.39947,0.09725
-0.99839,0.01604,0.0542,0.14318,-0.01656,-0.06067
-0.99877,0.01322,0.04751,0.27953,0.26458,-0.11126
-0.99938,0.01716,0.03029,0.27952,0.25917,-0.01943
-0.99952,0.02683,0.01467,0.29393,-0.05613,-0.17608
-0.99927,0.03784,0.0039,0.28613,-0.16605,-0.12812
-0.99869,0.05075,0.00459,0.12448,-0.16482,0.15988
-0.99813,0.05954,0.01339,0.12084,-0.07535,0.24412
-0.99772,0.06473,0.0184,0.43786,0.1721,-0.06752
-0.99734,0.07036,0.01879,0.4452,0.12517,-0.12986
-0.99705,0.07445,0.01841,0.43593,0.03083,-0.16114
-0.99676,0.07693,0.02304,0.38871,-0.16772,-0.08284
-0.99643,0.07722,0.03374,0.39035,-0.15101,-0.1289
-0.99591,0.07345,0.05246,0.28467,-0.1343,-0.0125
-0.99464,0.06349,0.08146,-0.23394,-0.25307,0.33835
-0.99316,0.04212,0.10883,-0.4865,-0.31617,0.32412
-0.99308,0.00531,0.11722,-0.98252,-0.09396,0.00144
-0.98914,-0.04537,0.13973,-0.8959,0.28637,-0.03869
-0.98145,-0.09492,0.16647,-0.30523,0.50238,-0.16443
-0.97045,-0.13728,0.19838,0.01784,0.37652,-0.07709
-0.96055,-0.16742,0.22203,-0.1398,0.13314,0.04868
-0.95541,-0.18424,0.23071,-0.19077,0.03828,0.14603
-0.95486,-0.19694,0.22232,-0.02452,-0.05164,0.00546
-0.95683,-0.2018,0.2091,0.11069,0.01238,-0.04206
-0.95994,-0.1973,0.19889,0.24624,0.05053,-0.01979
-0.9642,-0.18432,0.19059,0.44888,0.00028,0.02341
-0.96944,-0.16245,0.18377,0.56056,-0.03065,0.11359
-0.97573,-0.13097,0.17541,0.56155,0.00741,0.15654
-0.98325,-0.09226,0.15709,0.50846,0.07399,0.15246
-0.99004,-0.0543,0.12978,0.16096,0.0502,0.03069
-0.99354,-0.01834,0.1119,-0.12557,0.05734,0.0126
-0.99454,0.0103,0.1037,-0.09107,0.05065,0.00789
-0.99557,0.01908,0.09192,0.10478,-0.02571,0.00973
-0.99713,0.01732,0.07361,-0.00496,0.11404,-0.03857
-0.9983,0.01909,0.0548,-0.29193,0.24038,0.21113
-0.99903,0.01988,0.03894,-0.4507,0.43924,0.18718
-0.99957,0.02291,0.01746,-0.26945,0.51721,-0.0817
-0.9997,0.02267,0.00786,-0.13542,0.00646,-0.34407
-0.99977,0.01946,0.0074,-0.47357,-0.41715,-0.07531
-0.99961,0.02174,0.01681,-0.74009,-0.42493,0.07227
-0.99968,0.01915,0.01566,-0.3938,-0.29624,0.03347
-0.99982,0.00899,0.01595,-0.19679,0.11494,0.00379
-0.99976,0.00835,0.01993,-0.03633,0.10072,-0.02801
-0.99956,0.0092,0.02786,0.18115,0.12183,-0.10379
-0.99916,0.01336,0.03833,0.32308,0.10383,-0.13879
-0.99899,0.01949,0.04018,0.36638,0.01276,-0.13077
-0.99903,0.02671,0.03471,0.33141,-0.24243,-0.09856
-0.99898,0.03564,0.02725,0.21788,-0.23912,-0.02599
-0.99881,0.04409,0.02036,0.18301,-0.28772,0.10387
-0.99849,0.0488,0.02468,0.11135,-0.28995,0.2416
-0.99817,0.0486,0.03571,0.09174,-0.06917,0.1917
-0.99778,0.04742,0.04651,0.19981,0.14835,0.06241
-0.99693,0.04649,0.0628,0.36159,0.21599,-0.09599
-0.99558,0.04354,0.08314,0.43022,0.07846,-0.02279
-0.99322,0.03385,0.11111,0.32403,-0.01107,0.03243
-0.98976,0.01452,0.1419,-0.12964,-0.12371,0.05515
-0.98506,-0.01393,0.17155,-0.47963,-0.16415,-0.01617
-0.97836,-0.04568,0.20172,-0.68779,-0.06014,-0.0399
-0.97179,-0.07892,0.22219,-1.12121,0.38428,-0.25845
-0.96547,-0.11305,0.23467,-0.75031,0.36467,-0.03855
-0.95841,-0.14583,0.24527,-0.48886,0.2239,0.05075
-0.954,-0.17038,0.24663,0.0288,-0.03386,0.02139
-0.95429,-0.18234,0.23676,0.19651,-0.04454,-0.01952
-0.95769,-0.18246,0.22251,0.21555,0.01141,0.02524
-0.96257,-0.1722,0.20924,0.3531,0.05329,0.08417
-0.96875,-0.15242,0.1956,0.52506,0.05779,0.14375
-0.97554,-0.12688,0.17942,0.58644,0.08249,0.15916
-0.98161,-0.09971,0.16269,0.60816,0.09159,0.11232
-0.98646,-0.07075,0.14788,0.63761,0.09415,-0.02941
-0.98966,-0.03736,0.13842,0.51819,0.08961,-0.06211
-0.9909,-5e-05,0.13453,0.33093,0.027,-0.06312
-0.99122,0.03476,0.12751,-0.13841,-0.0614,-0.01124
-0.99164,0.05484,0.11668,-0.06207,-0.05363,0.08171
-0.99227,0.0612,0.10782,0.02439,0.0119,0.17377
-0.9939,0.0622,0.09096,-0.17775,0.19858,0.08634
-0.99644,0.06036,0.05869,-0.1623,0.39874,-0.25855
-0.99767,0.0654,0.01873,-0.20126,0.79924,-0.26519
-0.99711,0.07511,0.00991,-0.00893,0.45947,-0.29506
-0.99693,0.07603,0.01826,-0.03995,0.09046,-0.23013
-0.99677,0.07454,0.02964,-0.75879,-0.49126,-0.01078
-0.9966,0.07174,0.04024,-0.72627,-0.46443,0.23566
-0.99718,0.06313,0.04032,-0.32687,-0.40073,0.0038
-0.99809,0.05485,0.0279,-0.13223,-0.0614,-0.07326
-0.99818,0.05235,0.02944,0.03531,0.12682,-0.1341
-0.99798,0.05421,0.03279,0.14871,0.09501,-0.18406
-0.99752,0.06166,0.03373,0.18822,0.05639,-0.09353
-0.9966,0.07448,0.03508,-0.05762,-0.06413,0.02259
-0.99603,0.08465,0.02734,-0.01928,-0.20087,-0.03091
-0.99589,0.08923,0.01458,0.22494,-0.30122,0.04631
-0.99584,0.09032,0.01159,0.28098,-0.28084,0.21288
-0.99584,0.09,0.01332,0.30302,-0.22404,0.21911
-0.9957,0.09186,0.01128,0.31471,-0.0368,-0.00286
-0.99559,0.09304,0.01146,0.35357,-0.09104,-0.00989
-0.99583,0.08963,0.01632,0.31562,-0.10114,-0.03733
-0.99627,0.08175,0.02706,0.20663,-0.1638,0.05401
-0.99661,0.06962,0.04354,-0.14945,-0.25077,0.14339
-0.99674,0.04907,0.06385,-0.36448,-0.15238,0.06831
-0.99575,0.01668,0.09049,-0.4924,0.15739,0.02519
-0.99207,-0.02082,0.12383,-0.72497,0.52844,-0.18797
-0.98646,-0.05828,0.15322,-0.74712,0.67152,-0.27
-0.97689,-0.10112,0.18824,-0.52227,0.37496,-0.1
-0.96485,-0.14814,0.21702,-0.13517,0.04016,0.15112
-0.95661,-0.1845,0.22546,0.01038,-0.03599,0.15788
-0.9538,-0.20607,0.21857,0.09282,-0.14695,-0.0568
-0.95553,-0.20704,0.20992,0.16917,0.01439,-0.08536
-0.95909,-0.19443,0.20571,0.25885,0.03601,-0.05833
-0.96323,-0.17533,0.20354,0.42253,0.08762,0.04896
-0.96758,-0.15187,0.20175,0.54898,0.11862,0.18817
-0.97256,-0.12657,0.19515,0.58865,0.11298,0.25085
-0.97977,-0.10043,0.17305,0.47936,0.05764,0.05446
-0.98769,-0.06751,0.14105,0.31596,-0.02918,-0.27937
-0.99278,-0.0272,0.1167,0.248,-0.0634,-0.22037
-0.99427,0.01339,0.10592,0.17321,-0.06362,-0.1
-0.99464,0.0428,0.09403,-0.11069,-0.03744,0.1492
-0.99589,0.05421,0.07244,-0.04534,-0.11351,0.16787
-0.99615,0.05959,0.06407,-0.01004,-0.10755,0.20528
-0.9963,0.05907,0.06222,-0.18171,0.26339,0.1267
-0.99756,0.05979,0.03569,-0.12338,0.3809,-0.1389
-0.99757,0.069,0.0078,-0.05191,0.45086,-0.32672
-0.99713,0.07544,0.00413,-0.46178,-0.17121,-0.24699
-0.99703,0.0744,0.01951,-0.60933,-0.28269,-0.29617
-0.99702,0.06843,0.03518,-0.98392,-0.704,0.5754
-0.99743,0.05508,0.04556,-0.38883,-0.12013,-0.0385
-0.99864,0.03817,0.03533,-0.20344,0.04626,-0.064
-0.9991,0.03216,0.02739,0.22142,0.34313,-0.27021
-0.99924,0.03537,0.01575,0.42281,0.29239,-0.34438
-0.99888,0.04692,0.00482,0.49967,0.05424,-0.26492
-0.99802,0.06264,0.00339,0.33579,-0.18178,-0.10647
-0.997,0.07688,0.00732,0.15585,-0.32241,0.17069
-0.99639,0.08268,0.01862,0.10351,-0.31638,0.29185
-0.99615,0.08309,0.02754,0.15106,-0.21854,0.23364
-0.99584,0.08709,0.02634,0.31716,-0.29722,-0.01068
-0.99553,0.08872,0.03198,0.36026,-0.27706,-0.08363
-0.99549,0.08502,0.04172,0.3632,-0.06587,-0.1467
-0.99548,0.07694,0.05553,0.16908,0.01733,-0.01126
-0.99489,0.06422,0.07782,-0.01299,0.03299,0.06697
-0.99321,0.04485,0.1072,-0.28277,0.05649,0.11237
-0.99002,0.01513,0.14002,-0.6082,0.01562,-0.02864
-0.98646,-0.02799,0.16154,-0.91488,0.02299,-0.15706
-0.97999,-0.08278,0.18096,-0.8397,0.13906,-0.21311
-0.97213,-0.12926,0.19551,-0.3129,0.12643,-0.12498
-0.96634,-0.159,0.20219,0.02327,0.07305,0.16184
-0.96368,-0.18134,0.19597,0.04314,0.01276,0.18025
-0.96438,-0.18916,0.18482,0.16818,0.04854,-0.04734
-0.96636,-0.18774,0.17573,0.21595,0.04034,-0.02937
-0.9689,-0.17934,0.17041,0.25098,0.03075,0.00157
-0.9726,-0.1601,0.16853,0.41258,0.08469,0.08664
-0.97791,-0.13155,0.16235,0.45458,0.10851,0.11677
-0.98344,-0.10294,0.14912,0.44408,0.20456,0.12668
-0.98822,-0.07602,0.13273,0.52603,0.06134,-0.05083
-0.99187,-0.04362,0.11946,0.50627,0.05105,-0.05681
-0.99377,-0.00411,0.1113,0.42178,0.06122,-0.03718
-0.99424,0.03153,0.10235,-0.22042,0.05219,0.11255
-0.99474,0.04634,0.09123,-0.28062,-0.016,0.095
-0.99607,0.04313,0.07723,-0.28585,-0.03874,0.02361
-0.99747,0.04108,0.0579,-0.21059,0.11198,0.05438
-0.99853,0.04528,0.02957,-0.29609,0.25474,0.00789
-0.9984,0.05294,0.01939,-0.13452,0.39032,-0.32672
-0.99804,0.05471,0.03011,-0.22352,-0.05828,-0.15803
-0.99796,0.05546,0.03114,-0.75715,-0.5611,0.24614
-0.99807,0.05833,0.02095,-0.69158,-0.46612,-0.15621
-0.99846,0.05386,0.0127,-0.58614,-0.19807,0.09918
-0.99866,0.05024,0.01129,-0.52041,0.01673,-0.08562
-0.99871,0.04936,0.01077,0.03102,0.05991,-0.07522
-0.99853,0.05288,0.01068,0.27879,0.12275,-0.12968
-0.998,0.06281,0.00525,0.32144,0.11452,-0.11667
-0.99704,0.07653,-0.00657,0.34379,-0.04845,-0.12408
-0.99568,0.09044,-0.02065,0.35405,-0.20778,-0.04877
-0.9943,0.10323,-0.02645,0.28681,-0.22166,0.21944
-0.99324,0.11471,-0.01737,0.28087,-0.06747,0.26147
-0.99219,0.12389,-0.01378,0.38524,-0.0764,0.02431
-0.99083,0.13426,-0.01449,0.36725,-0.13899,0.00299
-0.9896,0.14333,-0.01109,0.3502,-0.20291,0.02841
-0.98891,0.14837,-0.00428,0.36617,-0.25024,0.03804
-0.98872,0.14957,0.00605,0.31602,-0.25289,0.04394
-0.98881,0.14701,0.0248,0.17198,-0.26395,0.12013
-0.98869,0.14025,0.05286,-0.0395,-0.27911,0.23964
-0.9884,0.12643,0.08404,-0.18299,-0.29121,0.22987
-0.98738,0.10596,0.1176,-0.52405,-0.19634,-0.18305
-0.98283,0.08643,0.16295,-0.68911,0.04089,-0.10149
-0.97717,0.06251,0.20299,-0.80011,0.25775,0.06272
-0.97553,0.03091,0.21764,-0.73029,0.40412,0.02204
-0.9758,-0.00454,0.21857,-0.29671,0.35667,0.00598
-0.97485,-0.04034,0.21912,-0.07412,0.21628,0.02746
-0.97413,-0.06785,0.21552,0.00603,0.05959,-0.00379
-0.97467,-0.0877,0.20566,0.09838,-0.11845,0.00311
-0.97614,-0.09896,0.19324,0.1628,-0.21931,0.01866
-0.97812,-0.09595,0.18454,0.38399,-0.19509,0.05136
-0.97976,-0.07991,0.18348,0.5124,-0.04473,0.09286
-0.98107,-0.05403,0.18591,0.62264,0.09981,0.17844
-0.98311,-0.02381,0.18137,0.53167,0.14867,0.16522
-0.98541,0.00853,0.16992,0.37994,0.04205,-0.00677
-0.98579,0.04167,0.16265,0.29391,0.01254,0.03715
-0.98488,0.06997,0.15842,0.12343,-0.02959,0.06744
-0.98518,0.08042,0.15143,-0.20281,-0.27408,-0.00315
-0.98665,0.07146,0.14623,0.07416,-0.49176,0.20685
-0.98711,0.0529,0.15096,-0.10267,-0.49789,0.36533
-0.98811,0.02223,0.15205,-0.50789,0.22667,-0.26262
-0.99128,0.0102,0.1313,-0.8563,0.57084,-0.2008
-0.99338,0.02628,0.11173,-0.69333,0.94901,-0.45473
-0.99351,0.02877,0.10995,-0.52218,0.42679,-0.05022
-0.99157,0.02009,0.12787,-0.41744,-0.09976,-0.34446
-0.99149,0.01813,0.12879,-0.30883,-0.45755,-0.49208
-0.98932,0.02479,0.14352,-0.52079,-0.5594,0.19631
-0.98861,0.03637,0.14595,-0.20486,-0.13025,-0.06993
-0.9931,0.05498,0.10351,0.0198,0.16349,-0.25598
-0.99593,0.06835,0.05856,0.13219,0.44696,-0.52619
-0.99605,0.08342,0.03001,0.24466,0.33126,-0.46029
-0.99445,0.10189,0.02586,-0.01042,-0.30482,0.17533
-0.99187,0.12239,0.03452,-0.00569,-0.28379,0.51065
-0.98926,0.14386,0.02529,0.13299,-0.04276,0.33531
-0.98687,0.16146,-0.00251,0.17798,-0.11219,-0.21021
-0.98401,0.17722,-0.01714,0.13511,-0.17937,0.05348
-0.9808,0.19367,-0.02258,0.06089,-0.17737,0.13313
-0.97847,0.2052,-0.02181,0.03483,-0.35236,0.16972
-0.97678,0.21311,-0.0216,0.03109,-0.38276,0.09073
-0.97552,0.21898,-0.01962,0.00976,-0.34421,0.06334
-0.97514,0.22108,-0.01413,-0.37238,-0.43406,0.0684
-0.97637,0.21559,-0.01438,-0.45442,-0.47873,-0.07305
-0.9793,0.2019,-0.01343,-0.34981,-0.43235,-0.1313
-0.98303,0.18284,0.01396,-0.13196,-0.1058,-0.13266
-0.98515,0.16146,0.05816,-0.11293,0.01653,0.01633
-0.9853,0.13694,0.10205,-0.30044,0.12911,-0.00145
-0.98415,0.10946,0.13941,-0.23695,0.24741,-0.15531
-0.98307,0.08491,0.16231,-0.07667,0.35332,-0.30456
-0.98353,0.0616,0.16984,-0.08799,0.28938,-0.35033
-0.98462,0.03692,0.17067,-0.04138,0.09375,-0.38094
-0.9848,0.01213,0.17323,-0.01791,-0.08471,-0.33157
-0.98247,-0.01347,0.18587,-0.04509,-0.29627,-0.16713
-0.97695,-0.03893,0.20982,-0.08619,-0.43246,0.02466
-0.97038,-0.05982,0.23399,-0.1035,-0.27555,0.04135
-0.96669,-0.07177,0.24565,-0.06905,-0.08475,-0.04008
-0.96503,-0.07561,0.25093,0.22391,0.31357,-0.13399
-0.96423,-0.07963,0.25279,0.33323,0.30404,-0.13607
-0.96594,-0.08196,0.2454,0.3939,0.31046,-0.17712
-0.96731,-0.08003,0.24058,0.36343,0.18268,-0.31367
-0.96728,-0.06887,0.24414,0.31109,0.05405,-0.14449
-0.96931,-0.05102,0.24045,0.33025,0.04905,-0.09142
-0.9737,-0.03395,0.22523,0.19839,0.03229,0.04111
-0.97803,-0.01561,0.20783,-0.24768,-0.07504,0.227
-0.97948,0.00151,0.20145,-0.44843,-0.10603,0.23142
-0.9788,0.00326,0.20471,-0.22371,-0.27065,0.2395
-0.97754,-0.00636,0.21059,-0.03165,-0.32665,-0.10748
-0.97788,-0.02035,0.20811,0.02286,-0.20318,-0.26435
-0.97979,-0.03379,0.1971,0.02305,-0.1593,-0.32123
-0.98227,-0.04086,0.18288,-0.46585,-0.29923,-0.22667
-0.98365,-0.04039,0.17542,-0.85599,-0.12793,-0.15992
-0.98294,-0.03283,0.18089,-1.10345,0.18536,-0.01189
-0.982,-0.03309,0.1859,0.46369,0.37414,0.10767
-0.98035,-0.03191,0.19458,0.32883,0.20378,-0.03473
-0.97787,-0.01158,0.20882,0.14587,0.07365,-0.15017
-0.97716,0.01847,0.21162,0.17025,0.22973,-0.34335
-0.98101,0.04882,0.18765,0.14742,0.15718,-0.32469
-0.98683,0.07544,0.14302,0.08441,0.1155,-0.35908
-0.99005,0.09476,0.10395,0.04002,0.0499,-0.30277
-0.99009,0.11083,0.0861,-0.05506,-0.08368,-0.16758
-0.98837,0.12514,0.08625,-0.09545,-0.37244,0.1112
-0.98786,0.13551,0.07577,0.18057,-0.24979,-0.15119
-0.98813,0.14427,0.05253,0.26969,-0.10307,-0.20455
-0.98812,0.15063,0.03008,0.28548,0.14705,-0.18432
-0.98733,0.15787,0.01544,0.07445,0.08387,-0.0805
-0.98579,0.16782,0.00569,0.01889,-0.03325,-0.01996
-0.98395,0.17832,-0.00402,0.00075,-0.20299,0.0814
-0.98192,0.18872,-0.01389,0.0568,-0.22654,0.11872
-0.98015,0.19695,-0.02227,0.0499,-0.22423,0.12665
-0.97886,0.20263,-0.02742,-0.03777,-0.1943,0.10545
-0.97783,0.20699,-0.03131,-0.04472,-0.16489,0.0974
-0.97718,0.20969,-0.03347,-0.0905,-0.10001,0.11028
-0.9772,0.21013,-0.02998,-0.12823,-0.05302,0.0169
-0.97771,0.20862,-0.0233,-0.34981,-0.20814,-0.02436
-0.97832,0.20565,-0.02405,-0.59981,-0.32622,-0.08003
-0.97963,0.1983,-0.03137,-0.42877,-0.22828,-0.1897
-0.9825,0.18479,-0.02267,-0.34774,-0.08361,-0.1596
-0.98594,0.16672,0.01027,-0.19186,-0.01212,-0.08532
-0.98788,0.14532,0.05427,0.01381,-0.0962,0.1787
-0.98773,0.12151,0.09795,-0.05171,0.04971,0.03599
-0.98689,0.0972,0.12878,-0.00381,0.09204,-0.06001
-0.98614,0.07449,0.14816,-0.00502,0.06357,-0.21356
-0.98694,0.05345,0.1519,0.03395,0.14969,-0.44601
-0.98862,0.03238,0.14683,0.00467,0.14472,-0.47581
-0.98839,0.00912,0.15159,-0.16415,-0.05799,-0.32653
-0.98494,-0.01503,0.17218,-0.11731,-0.18506,-0.11557
-0.98021,-0.0349,0.19482,0.01719,-0.08119,-0.07348
-0.97655,-0.04681,0.2101,0.19185,0.15788,-0.16106
-0.97411,-0.0547,0.21929,0.28962,0.26815,-0.24106
-0.97184,-0.05923,0.22803,0.25849,0.25142,-0.06067
-0.97222,-0.05838,0.22661,0.20849,0.22508,-0.0482
-0.97396,-0.05279,0.22041,0.16674,-0.00373,-0.09232
-0.97516,-0.04214,0.21741,0.20604,-0.04194,-0.13631
-0.97648,-0.02581,0.21399,0.17161,-0.12658,-0.19811
-0.97839,-0.00465,0.20667,0.03449,-0.28312,-0.14106
-0.97938,0.01623,0.20129,-0.31011,-0.28321,0.00365
-0.98046,0.02397,0.19516,-0.23061,-0.26686,-0.01669
-0.98138,0.01829,0.19115,0.14759,-0.26987,-0.16808
-0.9818,0.00759,0.18967,0.31135,-0.137,-0.17802
-0.98313,0.00149,0.18283,0.21336,-0.02014,-0.04097
-0.98288,0.00153,0.18418,-0.40575,0.31625,-0.5942
-0.98917,0.001,0.14669,-0.38081,0.58828,-0.44597
-0.99188,0.01259,0.12647,0.08903,0.425,-0.13171
-0.99096,0.02823,0.13104,0.03962,-0.00649,-0.19307
-0.98947,0.04531,0.13734,0.03179,-0.07279,-0.22696
-0.98839,0.06528,0.1371,0.00551,-0.11607,-0.22141
-0.98812,0.08409,0.12856,0.04796,-0.01749,-0.26061
-0.98886,0.09968,0.11047,0.06314,0.05504,-0.23197
-0.98926,0.11337,0.09212,0.08229,0.18831,-0.23878
-0.9889,0.12585,0.07881,0.09483,0.08901,-0.21987
-0.98827,0.13518,0.07094,0.0807,0.01271,-0.17597
-0.9877,0.14125,0.06696,0.0874,-0.12226,-0.18536
-0.98726,0.14706,0.06048,0.10363,-0.12412,-0.14267
-0.98673,0.15469,0.04914,0.09114,-0.12378,-0.1049
-0.98605,0.16232,0.03646,-0.05661,-0.12809,-0.07625
-0.98524,0.16938,0.02442,-0.05554,-0.09988,-0.08817
-0.98431,0.17606,0.01115,-0.02221,-0.07753,-0.0558
-0.98329,0.182,0.00034,-0.0114,-0.09076,0.01249
-0.98215,0.18785,-0.00833,-0.04728,-0.1116,0.0639
-0.98109,0.19267,-0.01777,-0.04974,-0.08999,0.07778
-0.98024,0.19567,-0.02866,-0.00562,-0.02134,0.04207
-0.98001,0.19529,-0.03762,0.009,-0.04555,-0.00222
-0.98065,0.19134,-0.04119,-0.08094,-0.12591,-0.02981
-0.98196,0.18499,-0.03894,-0.12081,-0.11312,-0.0448
-0.9837,0.1768,-0.03231,-0.1299,-0.06833,-0.02758
-0.98594,0.1659,-0.0195,-0.12766,-0.05742,-0.04039
-0.98851,0.1511,-0.00119,-0.14655,0.05207,-0.01436
-0.99114,0.13112,0.02078,-0.12143,0.09546,0.05815
-0.99315,0.10707,0.04663,-0.10276,0.12492,0.08696
-0.99426,0.07908,0.07183,-0.02597,0.05062,0.00174
-0.99458,0.04746,0.09242,-0.19094,-0.10032,-0.04312
-0.99422,0.01521,0.10617,-0.21963,-0.06651,-0.12596
-0.99338,-0.0152,0.11374,-0.20095,0.18683,-0.20766
-0.99164,-0.0414,0.12208,0.00663,0.24462,-0.21542
-0.98854,-0.06388,0.13672,0.06759,0.19911,-0.18729
-0.98432,-0.08377,0.15516,0.16498,0.07858,-0.05096
-0.98034,-0.09934,0.17044,0.27895,0.13915,-0.0487
-0.97747,-0.11164,0.17904,0.3955,0.19222,-0.08137
-0.9755,-0.12135,0.18344,0.34517,0.0334,0.06502
-0.97592,-0.12242,0.18046,0.27815,-0.01227,0.09013
-0.97724,-0.11723,0.17676,0.25951,-0.07088,0.04422
-0.97837,-0.10814,0.17629,0.2958,-0.09589,-0.01042
-0.97946,-0.09578,0.17739,0.3367,-0.1371,-0.02507
-0.98084,-0.07997,0.1776,0.36034,-0.15451,-0.03615
-0.98279,-0.05992,0.17469,0.3304,-0.15016,-0.05215
-0.98511,-0.03716,0.16781,0.25705,-0.08682,-0.0587
-0.98715,-0.01678,0.15885,0.24537,0.00816,-0.04769
-0.98882,-0.00165,0.149,0.16767,0.04651,0.00245
-0.99057,0.00965,0.13661,0.10759,0.06873,0.03165
-0.99236,0.01929,0.1218,0.0908,0.0448,0.06648
-0.99381,0.02839,0.10726,0.08224,0.0183,0.01203
-0.99529,0.03538,0.09013,0.15783,0.02854,0.01426
-0.99653,0.03884,0.07341,0.1853,0.07346,0.03524
-0.99676,0.04118,0.0689,-0.36614,0.20587,0.20739
-0.99685,0.0441,0.06574,-0.26597,0.16292,-0.15973
-0.99793,0.04608,0.04465,-0.17538,0.19503,-0.29864
-0.9983,0.05013,0.02927,-0.29831,0.29648,-0.34497
-0.9981,0.05439,0.02869,-0.42161,0.14509,-0.2557
-0.99788,0.05235,0.03837,-0.63544,-0.18506,-0.13832
-0.99775,0.04623,0.04829,-0.51538,-0.60815,0.31042
-0.99795,0.0356,0.05294,-0.40273,-0.33368,0.22378
-0.99837,0.02606,0.05055,-0.2062,0.05228,-0.17119
-0.99901,0.02199,0.03828,0.13302,0.31168,-0.23561
-0.99935,0.02057,0.02921,0.2687,0.26076,-0.12739
-0.99934,0.02602,0.02511,0.33153,0.07017,0.02223
-0.99904,0.03645,0.02403,0.21199,-0.11255,-0.15751
-0.9987,0.04609,0.02145,0.14326,-0.08332,-0.02303
-0.99843,0.05172,0.02116,0.03297,-0.09341,0.27221
-0.99838,0.05183,0.0232,0.02998,-0.0997,0.31029
-0.99833,0.05313,0.02206,0.35908,0.00103,-0.10667
-0.99795,0.05802,0.02661,0.39509,-0.09156,-0.09912
-0.9975,0.06087,0.03555,0.3471,-0.16535,-0.02692
-0.99718,0.05994,0.04501,0.34872,-0.09906,4e-05
-0.99693,0.05677,0.05373,0.33714,-0.09368,0.00446
-0.99653,0.05353,0.06364,0.22194,-0.07542,-0.01589
-0.99601,0.0497,0.074,0.05291,-0.10817,0.07532
-0.99515,0.04339,0.08815,-0.11505,-0.13111,0.11877
-0.9938,0.0306,0.10677,-0.55112,-0.01353,0.00822
-0.99059,0.00716,0.13661,-0.74469,0.13561,-0.0636
-0.98458,-0.02297,0.17334,-1.06837,0.29986,-0.15724
-0.97726,-0.05444,0.2049,-0.8943,0.58213,-0.20342
-0.96921,-0.08922,0.22946,-0.2014,0.41556,-0.02961
-0.96254,-0.12015,0.24304,0.001,0.09811,-0.00517
-0.95848,-0.14667,0.24449,-0.09824,-0.07322,0.00872
-0.95681,-0.16755,0.23754,-0.04585,-0.06049,0.01585
-0.95711,-0.17916,0.22763,0.07451,0.05456,0.04006
-0.95801,-0.18329,0.22047,0.12752,0.05243,0.11657
-0.9598,-0.17637,0.21829,0.32809,0.1796,0.07905
-0.96192,-0.16211,0.22002,0.64867,0.16748,-0.0565
-0.96486,-0.14647,0.21808,0.72759,0.08499,-0.09058
-0.9685,-0.1256,0.21495,0.6761,0.10962,-0.04254
-0.97247,-0.09629,0.21217,0.69579,0.10074,-0.03452
-0.97752,-0.0588,0.20243,0.44656,0.05863,-0.10831
-0.98354,-0.01549,0.17997,0.05689,0.07503,-0.11162
-0.98644,0.02651,0.1619,-0.38682,-0.02354,-0.00658
-0.98699,0.0509,0.15244,-0.30728,-0.20265,0.14467
-0.98861,0.0536,0.14057,0.32784,-0.31404,0.18491
-0.9907,0.05438,0.12462,0.31721,-0.32782,0.18868
-0.99307,0.05947,0.10125,-0.10918,-0.18165,0.13135
-0.99487,0.06102,0.0805,-0.25014,0.34262,0.02969
-0.99675,0.06136,0.05202,-0.17751,0.55929,-0.11228
-0.99773,0.06349,0.02181,-0.25608,0.46062,-0.22832
-0.99777,0.06507,0.01419,-0.60186,0.07415,-0.21743
-0.99805,0.0561,0.02689,-0.8048,-0.12748,-0.13003
-0.99756,0.04646,0.05192,-0.3306,-0.70803,0.1644
-0.99664,0.03696,0.07295,-0.66652,-0.48119,-0.03346
-0.99667,0.0278,0.07654,-0.01725,-0.02849,-0.09795
-0.99778,0.02285,0.06232,0.22413,0.35186,-0.31013
-0.99888,0.02391,0.0405,0.32492,0.40611,-0.15301
-0.99903,0.03221,0.02973,0.25994,0.10168,-0.02383
-0.99869,0.0442,0.02533,0.20316,-0.15535,-0.18555
-0.99823,0.0565,0.01769,0.03823,-0.33217,-0.06822
-0.99773,0.06303,0.02319,-0.1074,-0.30932,0.36378
-0.99762,0.06123,0.03141,0.31219,0.05884,0.11868
-0.99736,0.06327,0.03534,0.53636,0.10343,-0.09561
-0.99696,0.06241,0.04639,0.53297,-0.01095,-0.11475
-0.99654,0.05776,0.05957,0.38002,-0.15656,-0.05386
-0.99631,0.05022,0.06937,0.37243,-0.14192,-0.0704
-0.99601,0.04074,0.0792,0.34636,-0.12889,-0.0546
-0.99528,0.02895,0.09245,-0.0768,-0.19715,0.03143
-0.99384,0.0098,0.11026,-0.58714,-0.16972,-0.00789
-0.99238,-0.02151,0.1212,-0.74932,-0.07746,-0.18289
-0.98693,-0.06927,0.1454,-1.29484,0.15821,-0.22559
-0.9734,-0.12714,0.19052,-0.86542,0.504,-0.11531
-0.95995,-0.1704,0.22232,0.22387,0.52313,0.18838
-0.9519,-0.20406,0.22852,0.35804,0.34248,0.27603
-0.95015,-0.22382,0.21703,0.00358,0.16589,0.10261
-0.95101,-0.23048,0.20599,0.00435,0.13024,0.09751
-0.95362,-0.23126,0.19261,0.01527,0.09544,0.08571
-0.9577,-0.22347,0.18125,0.21481,0.11032,0.11117
-0.96259,-0.20546,0.17657,0.28446,0.1493,0.10352
-0.96766,-0.18233,0.17423,0.33953,0.15617,0.06988
-0.97282,-0.15677,0.17036,0.50065,0.04777,0.03406
-0.97781,-0.12549,0.16766,0.53348,-0.00449,0.05616
-0.98263,-0.08566,0.16454,0.50883,0.05042,0.06727
-0.98661,-0.03878,0.15835,0.33902,0.05625,0.03087
-0.98925,0.00887,0.14585,0.17929,-0.00633,-0.01039
-0.98974,0.04856,0.13427,-0.23382,-0.05651,0.11504
-0.98961,0.0653,0.12797,-0.33902,-0.27774,0.12197
-0.99104,0.06354,0.11737,-0.21163,-0.2193,0.16569
-0.9942,0.06184,0.08787,-0.24657,0.31896,-0.13379
-0.99619,0.06627,0.0565,-0.30589,0.59756,0.06982
-0.99591,0.07512,0.05001,-0.06449,0.40263,0.0254
-0.99582,0.07165,0.05637,-0.72399,-0.22177,-0.17349
-0.99624,0.06585,0.05606,-0.21136,-0.52525,-0.1899
-0.99663,0.05802,0.05773,-0.23405,-0.43683,-0.10501
-0.99595,0.05523,0.0707,-0.42168,-0.0895,0.02371
-0.99571,0.05154,0.07666,0.04521,-0.09013,-0.06486
-0.99595,0.05363,0.07202,0.17789,0.03616,-0.13483
-0.99609,0.06169,0.06309,0.34707,0.14988,-0.08845
-0.99591,0.07297,0.05306,0.34123,-0.02136,-0.10983
-0.99565,0.0825,0.04313,0.30592,-0.12224,-0.12543
-0.9954,0.08951,0.03378,0.04391,-0.38136,0.10132
-0.99537,0.09018,0.03303,-0.03895,-0.3693,0.2677
-0.99569,0.08627,0.03375,0.20812,-0.23203,0.13443
-0.99535,0.08647,0.04212,0.51166,-0.01785,0.04586
-0.99472,0.08399,0.05873,0.36658,-0.09273,0.06009
-0.99431,0.07679,0.0736,0.26578,-0.03243,-0.0716
-0.99415,0.06489,0.08619,0.34416,-0.0181,-0.07154
-0.99322,0.05123,0.10421,0.22633,-0.04963,0.00872
-0.99055,0.03348,0.13294,0.0171,-0.06605,0.04316
-0.98644,0.00511,0.16398,-0.82673,0.00271,-0.06688
-0.98117,-0.0409,0.18869,-1.06607,0.30918,-0.2081
-0.9707,-0.10141,0.2178,-0.80408,0.37266,-0.14652
-0.95703,-0.15239,0.24669,-0.01299,0.31209,-0.06907
-0.94907,-0.18446,0.25537,0.04711,-0.06897,0.06504
-0.9469,-0.20141,0.25056,-0.04377,0.00921,-0.00395
-0.94873,-0.20204,0.24304,-0.08493,0.0495,-0.00524
-0.9524,-0.19487,0.23436,0.06782,0.05988,0.03952
-0.95741,-0.17989,0.22579,0.13914,0.03667,0.04923
-0.96394,-0.15486,0.21636,0.26201,-0.00787,0.07029
-0.97165,-0.12089,0.2031,0.63157,0.07915,0.1107
-0.97891,-0.08461,0.1859,0.67413,0.09244,0.1408
-0.98501,-0.04893,0.16532,0.70001,0.06173,0.14664
-0.98872,-0.00867,0.14948,-0.19781,-0.12321,-0.09936
-0.98949,0.03315,0.14068,-0.40211,-0.0682,-0.07986
-0.98979,0.05016,0.13337,-0.43398,-0.03986,-0.02654
-0.99223,0.04246,0.11684,0.28123,-0.17044,0.03831
-0.99461,0.03577,0.09722,0.12069,-0.19997,0.1782
-0.99557,0.0305,0.08883,-0.23237,0.48973,-0.21823
-0.99739,0.03377,0.0637,0.09042,0.56609,-0.48098
-0.99707,0.04379,0.06259,-0.0998,0.50459,-0.20562
-0.99663,0.04335,0.0695,-0.89685,-0.27254,-0.05068
-0.99656,0.04473,0.06956,-0.75067,-0.7378,-0.01363
-0.99696,0.04254,0.06505,-0.49295,-0.53143,0.01924
-0.99661,0.03374,0.07484,-0.30864,-0.18301,-0.02403
-0.99664,0.02892,0.07652,0.0334,-0.09534,-0.03121
-0.99688,0.02632,0.07425,0.14633,-0.02327,-0.07543
-0.99746,0.02904,0.06485,0.31712,0.18797,-0.24069
-0.99798,0.03848,0.05034,0.40388,0.22328,-0.2188
-0.99801,0.05088,0.03703,0.34005,0.171,-0.16502
-0.99755,0.06237,0.0313,0.09884,-0.11107,0.04294
-0.99722,0.06675,0.03286,0.05508,-0.32134,0.25148
-0.99692,0.06365,0.04566,0.08653,-0.34731,0.27749
-0.99651,0.06592,0.05101,0.27877,-0.15394,0.02537
-0.99622,0.06813,0.05368,0.3615,-0.08237,-0.18648
-0.99569,0.06394,0.06698,0.42198,-0.05408,-0.19553
-0.99488,0.05521,0.08453,0.35659,-0.02207,-0.04112
-0.99302,0.04298,0.10974,-0.05682,-0.11765,0.19951
-0.99038,0.02405,0.13616,-0.60718,-0.18067,0.00128
-0.9886,-0.00531,0.15042,-0.8046,0.07302,-0.28559
-0.98329,-0.04706,0.17581,-0.79929,0.24427,-0.18542
-0.9732,-0.09341,0.21005,-0.67731,0.35176,-0.13296
-0.96398,-0.13306,0.23025,-0.18324,0.34262,0.06162
-0.9583,-0.16235,0.23513,0.02887,0.09753,0.13997
-0.95598,-0.17789,0.23333,0.02449,0.0446,0.14224
-0.95655,-0.18334,0.22664,-0.05829,-0.10693,0.12275
-0.95805,-0.18294,0.22058,-0.0377,-0.14715,0.12666
-0.95993,-0.17611,0.21794,0.02038,-0.15683,0.11421
-0.96265,-0.16142,0.2173,0.20623,0.00895,0.05551
-0.96669,-0.13912,0.21478,0.34251,0.19033,0.01612
-0.97155,-0.11433,0.20735,0.44419,0.18032,-0.0349
-0.97608,-0.08943,0.19808,0.57191,0.01936,-0.09261
-0.98,-0.05679,0.19067,0.60121,0.02763,-0.08252
-0.98378,-0.01611,0.17857,0.51456,0.00192,-0.06129
-0.98713,0.02496,0.1579,0.36329,-0.0391,-0.01633
-0.98867,0.05561,0.13936,-0.03123,-0.04748,0.15851
-0.98989,0.0675,0.12463,0.15075,-0.06257,0.20543
-0.99148,0.0737,0.10726,0.16787,-0.05589,0.24006
-0.99278,0.07962,0.08955,-0.21712,0.25708,-0.18921
-0.99393,0.09217,0.05993,-0.10237,0.34493,-0.44967
-0.99337,0.1047,0.04731,-0.17701,0.44403,-0.44703
-0.99281,0.10926,0.04868,-0.49602,-0.10151,-0.23831
-0.99273,0.10892,0.05099,-0.47898,-0.37722,-0.21271
-0.99306,0.1083,0.0455,-0.7372,-0.8824,0.24711
-0.99368,0.10319,0.044,-0.43995,-0.50609,0.11204
-0.99427,0.09607,0.04656,-0.24765,-0.13637,-0.17151
-0.9942,0.09463,0.05095,0.03894,-0.00334,-0.17275
-0.99436,0.09555,0.04574,0.33356,0.0462,-0.15124
-0.99434,0.10024,0.0348,0.36473,0.06468,-0.13084
-0.9934,0.11244,0.02235,0.37319,-0.02499,-0.11675
-0.99168,0.12807,0.01211,0.34416,-0.19254,0.05117
-0.98963,0.14352,0.00251,0.3182,-0.25549,0.13142
-0.98735,0.15827,-0.0076,0.30971,-0.18267,0.10244
-0.98491,0.17248,-0.01366,0.30472,-0.17973,0.09347
-0.9826,0.18531,-0.01197,0.27088,-0.19447,0.1042
-0.98075,0.1951,-0.00666,0.16149,-0.35965,-0.03791
-0.97926,0.20252,-0.00298,0.22258,-0.38573,-0.02683
-0.97821,0.20745,0.00644,0.28224,-0.39994,-0.07312
-0.97792,0.20689,0.02901,0.08844,-0.48072,0.17892
-0.97879,0.19623,0.0587,-0.29387,-0.61793,0.13932
-0.98085,0.17443,0.08651,-0.33742,-0.53321,0.02883
-0.98301,0.14156,0.11677,-1.02935,-0.21803,0.0055
-0.98433,0.10682,0.1402,-1.29249,0.33886,-0.32344
-0.98349,0.07357,0.16524,-1.45064,0.70091,-0.14696
-0.98306,0.05114,0.17595,-0.6899,0.68932,-0.22579
-0.98563,0.02359,0.16717,-0.29847,-0.20497,-0.44019
-0.98603,-0.01387,0.16594,-0.29094,0.03449,-0.07092
-0.98249,-0.04732,0.18016,-0.35312,0.04889,0.12581
-0.97742,-0.07301,0.19824,-0.32234,0.11054,0.0815
-0.9733,-0.08783,0.212,-0.22593,0.19164,0.07429
-0.97272,-0.08817,0.2145,0.26847,0.21857,-0.22251
-0.9718,-0.08361,0.22043,0.55636,-0.0263,-0.21013
-0.96945,-0.07815,0.23244,0.71047,-0.00652,0.01007
-0.97087,-0.06805,0.22967,0.70645,0.05614,-0.10063
-0.97499,-0.05009,0.21645,0.60659,-0.03377,-0.20371
-0.97999,-0.02264,0.19767,0.51933,-0.09797,-0.09213
-0.98264,0.00869,0.18525,-0.39398,-0.11877,0.16649
-0.98008,0.02336,0.19718,-0.86967,0.02817,-0.01354
-0.97615,0.00103,0.21704,-0.07396,-0.3836,-0.14889
-0.97211,-0.03483,0.23186,0.62714,-0.49915,-0.21151
-0.97124,-0.04922,0.23288,0.90971,-0.14007,0.25117
-0.96824,-0.04722,0.24548,-0.31665,0.29893,-0.13615
-0.97748,-0.03458,0.20812,-0.65146,0.26049,-0.81014
-0.9864,-0.01703,0.16339,-0.59647,0.13158,-0.36798
-0.98751,-0.00638,0.15734,-0.25066,0.06042,-0.16765
-0.98568,-0.00727,0.1684,-0.12928,-0.06866,-0.11556
-0.98272,0.00106,0.18505,-0.08639,0.18409,-0.37414
-0.98409,0.02178,0.17627,0.17588,0.38305,-0.42251
-0.98775,0.04896,0.14806,0.15592,0.54275,-0.30807
-0.98843,0.07507,0.13171,0.05534,0.42549,-0.23392
-0.98647,0.09983,0.12995,-0.07296,0.20745,-0.21615
-0.98469,0.11994,0.12641,-0.09258,-0.35734,-0.13564
-0.98425,0.1354,0.11356,0.20034,-0.35536,-0.13788
-0.98435,0.14735,0.09649,0.25456,-0.28456,-0.13458
-0.98469,0.1574,0.0747,0.10269,-0.0442,-0.16487
-0.98508,0.16503,0.04853,-0.001,0.0505,-0.19403
-0.9842,0.17543,0.02332,-0.00295,0.07657,-0.16417
-0.98186,0.18948,0.00524,0.041,-0.11317,-0.04455
-0.979,0.20375,-0.00585,0.06139,-0.21119,0.00057
-0.97622,0.21611,-0.01627,0.0489,-0.22683,0.05044
-0.97364,0.22644,-0.02706,-0.05676,-0.33551,0.13897
-0.97153,0.23359,-0.03933,-0.03473,-0.42961,0.00965
-0.97002,0.23932,-0.04201,-0.07718,-0.32609,0.21217
-0.96992,0.24078,-0.03554,-0.11947,-0.17945,0.16365
-0.97124,0.23737,-0.01816,-0.35832,-0.27591,0.05547
-0.97298,0.23086,0.0008,-0.45008,-0.30039,0.06887
-0.97493,0.22175,0.01762,-0.31782,-0.09982,-0.14773
-0.97819,0.20398,0.03881,-0.01955,-0.01655,-0.26805
-0.98156,0.17905,0.06678,0.10627,0.01651,-0.29763
-0.98356,0.15239,0.0967,-0.08843,0.16285,-0.30263
-0.98474,0.12702,0.11885,-0.25433,0.26692,-0.29367
-0.98556,0.10576,0.13215,-0.23241,0.26689,-0.30862
-0.98664,0.08583,0.1384,-0.09434,0.16886,-0.42346
-0.98666,0.05952,0.15144,-0.12786,-0.12391,-0.26628
-0.98414,0.02526,0.17552,-0.14816,-0.24028,-0.16641
-0.97959,-0.00515,0.20085,-0.12856,-0.35113,0.04204
-0.97614,-0.02275,0.21588,-0.03056,-0.07699,-0.14992
-0.97409,-0.03186,0.22385,-0.03261,-0.06789,-0.15789
-0.97178,-0.03853,0.23265,0.23166,0.28126,-0.11074
-0.9706,-0.04633,0.23616,0.44093,0.38279,-0.1636
-0.97189,-0.0523,0.22951,0.43079,0.32584,-0.15222
-0.97454,-0.05212,0.21801,0.3419,0.12779,-0.18334
-0.97614,-0.04168,0.21303,0.30707,-0.01103,-0.09065
-0.97735,-0.02192,0.21042,0.23928,-0.10261,0.00389
-0.97954,0.00425,0.20112,-0.16557,-0.18283,0.05566
-0.9803,0.02678,0.19562,-0.53235,-0.18301,0.15951
-0.9809,0.02676,0.19258,-0.23078,-0.28256,0.10099
-0.98067,0.01288,0.19517,-0.00428,-0.27779,0.05876
-0.98061,0.00278,0.19589,0.33762,-0.16448,-0.19166
-0.9816,0.00129,0.19089,0.07469,-0.08694,0.03181
-0.97995,0.00277,0.19914,-0.67796,0.24824,-0.38881
-0.98352,0.00328,0.18067,-0.32275,0.3039,-0.31006
-0.98494,0.00838,0.17259,0.09679,0.31466,-0.1492
-0.98469,0.0127,0.1738,0.22837,0.17077,-0.13823
-0.98383,0.02587,0.17717,0.06854,0.02027,-0.19136
-0.98283,0.05079,0.17733,-0.02175,-0.0512,-0.19923
-0.98343,0.07552,0.16471,0.0044,-0.05518,-0.30676
-0.98577,0.09542,0.13829,0.01667,0.03025,-0.20012
-0.98667,0.11156,0.11835,0.01113,0.05844,-0.14684
-0.98634,0.12373,0.10864,0.06459,0.03612,-0.15183
-0.98608,0.13208,0.10089,0.03785,-0.06288,-0.2073
-0.98614,0.13867,0.09097,-0.00094,-0.14665,-0.2648
-0.98642,0.14493,0.07709,0.04817,-0.18473,-0.27788
-0.98676,0.15118,0.0585,0.08009,-0.14564,-0.18803
-0.98673,0.15804,0.03683,0.02666,-0.07557,-0.10734
-0.98588,0.16613,0.02036,-0.00972,-0.0584,-0.03557
-0.98456,0.17481,0.00751,0.0407,-0.09147,-0.03917
-0.98315,0.18266,-0.00584,0.06344,-0.10787,-0.02776
-0.98171,0.18956,-0.01726,0.0351,-0.09926,0.02346
-0.98058,0.19449,-0.02494,-0.01141,-0.1366,0.10242
-0.98,0.19664,-0.0301,-0.00741,-0.16699,0.13311
-0.97984,0.1969,-0.03345,-0.03246,-0.19662,0.12212
-0.98029,0.19448,-0.03458,-0.09357,-0.16681,0.01021
-0.98172,0.1874,-0.03304,-0.14867,-0.16822,0.04799
-0.9838,0.17614,-0.03294,-0.31507,-0.05294,-0.08794
-0.98628,0.16237,-0.02956,-0.12868,0.1321,-0.13888
-0.98907,0.14679,-0.01285,-0.09409,0.11722,-0.1102
-0.9916,0.12812,0.01687,-0.08942,0.07392,-0.06987
-0.99265,0.10608,0.05795,-0.09379,-0.00867,0.15147
-0.99226,0.07569,0.09827,-0.13042,0.04129,0.12855
-0.99056,0.04027,0.13093,-0.16049,0.14157,0.07333
-0.98867,0.00631,0.14987,-0.08393,0.26513,-0.18542
-0.98736,-0.02441,0.15652,-0.08524,0.29585,-0.19207
-0.98551,-0.04965,0.16207,-0.02668,0.1498,-0.26008
-0.98237,-0.0721,0.17239,0.00882,-0.09308,-0.20792
-0.97688,-0.09442,0.19175,0.01691,-0.13195,-0.16757
-0.9704,-0.11348,0.21309,0.06467,-0.10675,-0.05021
-0.96625,-0.1264,0.2244,0.26926,0.12154,-0.03299
-0.96524,-0.13501,0.22374,0.30027,0.15892,-0.04285
-0.96626,-0.13784,0.21751,0.32353,0.19537,0.00146
-0.96819,-0.13472,0.21077,0.32809,0.22426,0.03349
-0.96981,-0.12708,0.20808,0.28904,0.11222,0.01906
-0.97057,-0.11624,0.21084,0.30001,0.01823,-0.05689
-0.97166,-0.10231,0.21302,0.32769,-0.05257,-0.09468
-0.974,-0.0845,0.21014,0.33003,-0.07038,-0.09179
-0.9775,-0.06329,0.20113,0.1249,-0.08771,-0.06417
-0.98085,-0.04029,0.19047,0.02643,-0.00802,-0.01145
-0.98353,-0.02049,0.17948,0.01828,-0.0088,0.01641
-0.9858,-0.0056,0.16772,0.13717,-0.08587,-0.01872
-0.98751,0.00534,0.15737,0.25402,-0.0753,-0.01778
-0.98913,0.01399,0.14631,0.2927,-0.05876,-0.00378
-0.99094,0.02184,0.13243,0.31226,0.00517,-0.00377
-0.99274,0.0296,0.11648,0.23601,0.04052,0.02476
-0.99403,0.03744,0.1024,0.14466,0.10473,0.07566
-0.99455,0.0459,0.09353,-0.03739,0.16502,0.23698
-0.99475,0.05162,0.08817,-0.56909,0.21691,0.03562
-0.99646,0.05191,0.06596,-0.47229,0.31619,-0.10411
-0.99767,0.05507,0.03985,-0.41404,0.28071,-0.12427
-0.9977,0.06081,0.02958,-0.57344,0.03749,-0.33954
-0.99752,0.06111,0.03451,-0.68862,0.0402,-0.3764
-0.99737,0.05596,0.04587,-0.00221,-0.4575,-0.02467
-0.9974,0.04569,0.05556,-0.04496,-0.51004,-0.10425
-0.99662,0.03864,0.07224,-0.39937,-0.34371,0.06656
-0.99676,0.0279,0.07525,0.00784,0.00109,-0.0808
-0.99828,0.02101,0.05454,0.13298,0.2937,-0.12721
-0.99925,0.02357,0.03017,0.14038,0.34567,-0.03974
-0.99937,0.03249,0.01307,0.12334,0.06713,-0.2228
-0.99906,0.04306,-0.00086,0.26974,-0.05432,-0.18663
-0.99846,0.05487,-0.00705,0.27647,-0.13619,-0.06586
-0.99798,0.06325,0.0035,-0.13247,-0.2594,0.46258
-0.99766,0.06753,0.00901,0.1927,0.31385,-0.03644
-0.99746,0.07041,0.0094,0.30776,0.21468,-0.04233
-0.99738,0.0713,0.01146,0.33197,-0.17245,-0.11186
-0.99736,0.06994,0.0188,0.40781,-0.15226,-0.03873
-0.9973,0.06717,0.02943,0.40774,-0.14949,-0.04936
-0.99703,0.06514,0.0408,0.39042,-0.12956,0.09956
-0.99658,0.06274,0.05347,0.32163,-0.17111,0.00576
-0.99608,0.05923,0.06547,0.32113,-0.16759,-0.00623
-0.99573,0.05172,0.07634,-0.18784,-0.15129,0.03239
-0.99542,0.03511,0.0888,-0.46143,0.01638,0.06373
-0.99294,0.00385,0.11843,-0.46391,0.04764,0.03409
-0.98692,-0.03789,0.1566,-0.73992,0.42469,-0.05402
-0.97719,-0.08534,0.19441,-0.68874,0.56339,-0.05799
-0.96612,-0.1291,0.22341,-0.53607,0.58819,-0.08725
-0.95754,-0.1621,0.23835,-0.06674,0.04891,0.05902
-0.95341,-0.18283,0.23989,-0.04953,-0.04124,0.0225
-0.95382,-0.19174,0.23114,-0.01099,-0.1087,-0.02583
-0.95659,-0.18955,0.22131,0.10782,-0.11568,-0.08227
-0.95998,-0.17695,0.21702,0.38578,-0.08894,0.04241
-0.96395,-0.15534,0.21599,0.45787,-0.08535,0.11865
-0.9693,-0.12635,0.21086,0.51744,-0.00064,0.207
-0.97617,-0.09289,0.19607,0.50598,0.08244,0.09572
-0.98231,-0.05777,0.17806,0.48957,0.0459,0.06451
-0.98571,-0.02371,0.1667,0.43374,-0.01417,0.00838
-0.98652,0.00726,0.1634,0.15078,0.0421,-0.05869
-0.98702,0.02972,0.15772,0.10909,0.04235,-0.04449
-0.98994,0.03765,0.13632,0.22289,0.09034,0.0386
-0.99365,0.03836,0.1056,-0.18344,0.34679,-0.0335
-0.99529,0.04096,0.08773,-0.32127,0.35733,0.03156
-0.99674,0.04633,0.06586,-0.44754,0.32859,0.15289
-0.99746,0.05349,0.04683,-0.40969,0.30027,-0.07095
-0.9974,0.05441,0.04707,-0.40014,0.05535,-0.45984
-0.99744,0.05508,0.04539,-0.58702,-0.19972,0.1099
-0.99789,0.04848,0.04295,-0.25611,-0.84116,-0.19228
-0.99756,0.03609,0.05961,-0.35556,-1.028,-0.06421
-0.99638,0.03022,0.07932,-0.25396,-0.00203,0.06387
-0.99738,0.02488,0.06772,0.12763,0.31895,-0.23995
-0.99829,0.02909,0.05045,0.20831,0.35503,-0.20229
-0.99826,0.04066,0.04246,0.1558,0.08645,-0.07514
-0.99814,0.05134,0.03258,0.19192,-0.33811,-0.2427
-0.99775,0.06291,0.02249,0.20997,-0.43067,-0.2512
-0.99704,0.07159,0.02757,-0.03216,-0.20887,0.39478
-0.99681,0.07398,0.02968,0.19392,0.04859,0.29305
-0.99675,0.07871,0.01607,0.35174,0.22573,0.1559
-0.99653,0.08274,0.00726,0.41726,0.05977,-0.10196
-0.99619,0.08665,0.00827,0.34211,-0.12556,-0.08796
-0.99577,0.09008,0.01713,0.32544,-0.24187,-0.06434
-0.9954,0.09126,0.02866,0.2682,-0.25513,-0.00309
-0.99525,0.08804,0.04137,0.33007,-0.12693,0.05297
-0.995,0.07976,0.05982,0.33151,-0.08788,0.09588
-0.99405,0.06435,0.08777,-0.27806,-0.06467,0.4103
-0.99291,0.03772,0.11263,-0.73964,-0.05933,0.13769
-0.99252,0.00179,0.12198,-0.91758,0.15131,-0.19885
-0.98965,-0.03701,0.13855,-0.50919,0.53185,-0.38786
-0.98407,-0.07795,0.15967,0.0811,0.47824,-0.33834
-0.97572,-0.1205,0.1828,0.08519,0.10736,-0.06578
-0.96801,-0.14897,0.20183,-0.14826,0.08973,0.14758
-0.96644,-0.1602,0.20074,-0.31206,0.07537,0.15104
-0.96905,-0.16257,0.18568,-0.18259,-0.04857,0.09356
-0.97238,-0.15878,0.17098,0.0914,-0.14861,0.10734
-0.97544,-0.14881,0.16229,0.30389,-0.15275,0.11202
-0.97873,-0.1322,0.15677,0.46004,-0.20696,0.10925
-0.98257,-0.10839,0.15089,0.60846,-0.20535,0.0284
-0.98695,-0.07618,0.14175,0.68812,-0.16349,-0.01228
-0.9913,-0.03606,0.12648,0.61293,0.01833,-0.00076
-0.99434,0.00223,0.10608,0.51994,0.10775,0.04869
-0.99465,0.03451,0.09721,0.04822,0.36051,0.04774
-0.99531,0.05339,0.08049,-0.00141,0.37049,-0.08059
-0.99737,0.05222,0.04993,-0.0441,0.35371,-0.22184
-0.99816,0.04981,0.03405,-0.36713,0.0309,0.49102
-0.99795,0.05447,0.03316,-0.44246,0.09351,0.57376
-0.99833,0.05407,0.01987,-0.29879,0.10335,-0.107
-0.99874,0.0489,0.01048,-0.64581,-0.04254,-0.21761
-0.99907,0.04093,0.01236,-0.55032,-0.24155,-0.29047
-0.99949,0.02889,0.01264,-0.42422,-0.4052,-0.07904
-0.9992,0.02161,0.03309,-0.56271,0.00645,0.19408
-0.99922,0.01598,0.03578,-0.24811,0.12929,0.09796
-0.99933,0.01512,0.03308,0.14331,0.08865,-0.13775
-0.99917,0.02263,0.03336,0.23782,0.15287,-0.23245
-0.99899,0.03592,0.02638,0.29269,0.12863,-0.23438
-0.99855,0.05223,0.01235,0.33138,-0.06424,-0.2778
-0.99772,0.06731,0.00048,0.00251,-0.11129,0.01708
-0.99715,0.07521,0.00118,-0.09721,-0.11438,0.30699
-0.99719,0.07445,0.00697,0.32867,-0.08244,0.17704
-0.9973,0.07296,0.00707,0.3726,-0.19338,0.02136
-0.99716,0.07272,0.01896,0.35795,-0.25098,0.03234
-0.99715,0.06506,0.03777,0.36837,-0.12846,-0.01959
-0.99707,0.05171,0.05614,0.43986,0.01596,-0.01679
-0.9963,0.03512,0.07824,0.23142,0.04425,0.04702
-0.99406,0.01332,0.10786,-0.33403,-0.0693,0.12545
-0.99082,-0.01814,0.13387,-0.68635,0.03067,-0.20659
-0.9871,-0.05712,0.14947,-0.79795,0.18268,-0.37059
-0.97884,-0.09998,0.17843,-0.56898,0.3071,-0.21362
-0.96637,-0.13268,0.22021,-0.28279,0.33125,-0.1081
-0.95948,-0.15163,0.23743,-0.01759,0.20664,0.11001
-0.95988,-0.15948,0.23058,-0.22205,-0.0133,0.07227
-0.96262,-0.15722,0.2205,-0.13757,0.00568,0.07764
-0.96625,-0.15122,0.20848,-0.02847,-0.01385,0.09235
-0.97056,-0.13928,0.1964,0.25491,-0.05516,0.12281
-0.97582,-0.11998,0.1826,0.34586,-0.0766,0.13207
-0.98137,-0.09372,0.16764,0.5092,-0.04025,0.10973
-0.9862,-0.0627,0.15311,0.62962,-0.04444,0.0976
-0.99009,-0.0277,0.13757,0.47134,-0.03542,0.04293
-0.99255,0.00918,0.12137,0.35331,-0.0056,0.0226
-0.99345,0.03853,0.10739,-0.08484,0.12761,-0.03623
-0.99488,0.04939,0.08798,0.1139,-0.01488,0.00409
-0.9962,0.05003,0.07101,0.33097,-0.02776,0.10477
-0.99683,0.05421,0.05805,0.15654,-0.08269,0.30961
-0.99729,0.05676,0.04648,-0.17669,0.25054,0.13514
-0.99816,0.0579,0.01746,-0.17583,0.2494,0.16417
-0.99808,0.06136,-0.00634,-0.03114,0.13235,-0.24204
-0.9979,0.06414,-0.0067,-0.56635,-0.00161,-0.32844
-0.99774,0.06689,-0.00267,-0.56651,-0.00436,-0.33248
-0.99764,0.06842,-0.00139,-0.67796,-0.53888,0.39347
-0.99836,0.05654,0.00774,-0.29461,-0.1589,0.00354
-0.99893,0.04281,0.01664,-0.22632,-0.01416,-0.08924
-0.99913,0.03722,0.01836,0.147,0.21042,-0.18138
-0.99916,0.0403,0.0043,0.33138,0.25418,-0.31764
-0.99863,0.05156,-0.00719,0.40763,0.18517,-0.31258
-0.99755,0.06819,-0.01451,0.58758,0.04055,-0.26956
-0.99646,0.0827,-0.01406,0.43871,-0.11273,-0.07322
-0.99609,0.08795,-0.00622,-0.1711,-0.26227,0.36224
-0.99652,0.08318,-0.00114,0.03801,-0.23008,0.42222
-0.99654,0.08248,-0.00894,0.31324,-0.21907,-0.0031
-0.99628,0.086,-0.00341,0.36218,-0.19786,-0.05276
-0.99649,0.08079,0.02152,0.36135,-0.16762,-0.01344
-0.99641,0.06911,0.04865,0.37734,-0.13476,-0.00518
-0.99567,0.05181,0.07694,0.27596,-0.05391,0.04042
-0.9937,0.02746,0.10854,-0.3109,0.07094,0.13078
-0.99156,-0.00406,0.1295,-0.51978,0.11389,-0.04306
-0.98923,-0.0425,0.13993,-0.77219,0.24996,-0.31524
-0.98238,-0.08662,0.16554,-0.42496,0.158,-0.01829
-0.97285,-0.12448,0.19503,-0.10891,-0.00823,0.07383
-0.96769,-0.1463,0.20529,-0.2498,0.03822,0.21113
-0.96793,-0.1545,0.19803,-0.22383,0.14901,0.06778
-0.9696,-0.15585,0.18855,-0.07276,0.05135,0.04564
-0.97197,-0.15398,0.17759,0.03279,-0.02638,0.05705
-0.97496,-0.14476,0.16873,0.338,-0.08955,0.0836
-0.97883,-0.12507,0.1619,0.52321,-0.09512,0.11407
-0.98351,-0.09595,0.15318,0.58836,-0.09552,0.1231
-0.9884,-0.06166,0.13866,0.63589,0.05469,0.18463
-0.9927,-0.02416,0.11801,0.57869,0.02259,0.19855
-0.99555,0.01581,0.09269,0.36372,0.00301,0.13296
-0.99617,0.0528,0.06945,-0.0512,0.03988,-0.05143
-0.99593,0.07707,0.04643,-0.03089,-0.06171,-0.04965
-0.99594,0.08624,0.02547,0.04806,-0.14276,0.00717
-0.99546,0.09369,0.01612,-0.16885,-0.0074,0.33283
-0.99481,0.10161,0.00029,-0.35298,0.24695,0.17217
-0.99357,0.10797,-0.03379,-0.23969,0.23988,-0.05343
-0.99193,0.11667,-0.04931,-0.31901,0.30715,-0.29194
-0.9918,0.11827,-0.04809,-0.50377,-0.26654,-0.21991
-0.99216,0.11483,-0.04899,-0.50341,-0.2631,-0.21902
-0.99254,0.11066,-0.05093,-0.4292,-0.75242,0.24692
-0.99319,0.10648,-0.04701,-0.38761,-0.50536,0.17164
-0.99337,0.10189,-0.05307,-0.38743,-0.50077,0.1777
-0.99352,0.09602,-0.06059,0.1691,0.28057,-0.22372
-0.99223,0.09652,-0.07843,0.26241,0.25181,-0.28505
-0.9896,0.10711,-0.09585,0.25979,0.24122,-0.26763
-0.98748,0.12189,-0.1,0.2709,-0.0529,0.04425
-0.98523,0.13851,-0.10061,0.07386,-0.27367,0.39866
-0.98128,0.15707,-0.11131,0.06992,-0.29223,0.40936
-0.97607,0.17551,-0.12832,0.17846,-0.25866,0.06515
-0.97174,0.19285,-0.13607,0.19722,-0.28308,0.06685
-0.96852,0.20715,-0.13801,0.20318,-0.33481,0.1782
-0.96618,0.21585,-0.14101,0.19425,-0.42366,0.21289
-0.96488,0.2194,-0.14441,0.22361,-0.47569,0.25579
-0.96495,0.22103,-0.14142,0.22356,-0.38419,0.29979
-0.96687,0.22069,-0.1282,0.06617,-0.22025,0.22805
-0.9715,0.21257,-0.10477,-0.31936,-0.378,0.27157
-0.97791,0.19175,-0.08304,-0.28727,-0.36856,0.06125
-0.98531,0.16243,-0.05259,-0.56067,-0.09875,0.19398
-0.99142,0.1301,-0.01147,-1.29524,0.28167,-0.04311
-0.99426,0.10631,0.01053,-1.45933,0.6929,-0.22889
-0.99535,0.08926,0.0359,-0.82316,1.25066,-0.36748
-0.99689,0.06168,0.04889,-0.45954,0.70865,-0.33723
-0.99833,0.02892,0.04979,-0.30798,0.0095,-0.14676
-0.99782,-0.01226,0.06459,-0.59895,-0.34416,0.14932
-0.99362,-0.0636,0.09293,-0.28056,-0.23156,0.27364
-0.98809,-0.09878,0.11787,0.1471,0.21138,0.38771
-0.98482,-0.11455,0.13032,0.60252,0.1279,0.18391
-0.98453,-0.11935,0.12816,0.7639,0.10565,0.03822
-0.98574,-0.11112,0.12624,0.89604,0.07085,-0.05543
-0.98682,-0.09239,0.13272,1.07882,-0.13068,-0.30348
-0.98925,-0.0593,0.1336,0.93007,-0.36388,-0.28419
-0.99225,-0.01221,0.12352,0.66912,-0.45696,-0.23706
-0.99061,0.02437,0.13444,-0.54779,-0.68589,-0.08363
-0.99162,0.01832,0.12774,-0.65663,-0.69256,-0.22812
-0.99482,-0.01496,0.10038,-0.45765,-0.37016,0.01168
-0.98902,-0.03316,0.14393,-0.7678,0.85793,0.27501
-0.98984,-0.02539,0.13979,-0.71475,1.3058,-0.45182
-0.99469,-0.0257,0.09956,-0.24808,1.09393,-0.58812
-0.99342,-0.03846,0.10771,0.66158,0.47842,-0.26436
-0.99058,-0.0456,0.12901,0.61454,0.5077,-0.06787
-0.99086,-0.01647,0.13375,0.22995,0.39126,-0.25823
-0.99322,0.03357,0.11115,-0.81327,-0.25166,-0.37787
-0.9947,0.07991,0.06451,-0.77399,-0.25872,-0.37383
-0.99368,0.1059,0.0369,-0.53124,-0.28538,-0.24888
-0.99294,0.11676,0.02005,0.10748,-0.23098,0.08676
-0.99178,0.12772,0.00524,0.3391,0.0145,0.03501
-0.99017,0.13909,-0.01396,0.4234,0.06619,0.00801
-0.9878,0.15025,-0.04072,0.4802,0.23533,-0.18147
-0.98409,0.16271,-0.07124,0.2869,0.27969,-0.20847
-0.97969,0.17664,-0.09476,-0.09784,0.04457,0.01645
-0.97542,0.19189,-0.10824,-0.17505,-0.1381,0.32847
-0.96989,0.20908,-0.12479,-0.01775,-0.16724,0.31083
-0.96409,0.2272,-0.13747,0.02694,-0.22571,0.16212
-0.95952,0.24368,-0.14116,0.0202,-0.41684,0.1908
-0.95602,0.25498,-0.14489,-0.07061,-0.5723,0.22483
-0.95404,0.25863,-0.15135,-0.12623,-0.54588,0.18885
-0.95428,0.25549,-0.15507,-0.28644,-0.40216,0.10694
-0.95638,0.24631,-0.15697,-0.50463,-0.23088,-0.07648
-0.96134,0.22828,-0.1539,-0.45687,-0.06003,-0.17186
-0.96997,0.20248,-0.13468,-0.21488,0.23148,-0.11148
-0.98026,0.17246,-0.09658,0.03057,0.12911,0.40076
-0.98913,0.13926,-0.04687,-0.27608,0.17576,0.36674
-0.99379,0.11001,-0.01615,-0.3013,0.4898,-0.02583
-0.9966,0.08206,-0.00588,-0.0965,0.52949,-0.39034
-0.99832,0.05703,0.00849,0.05701,0.50259,-0.25437
-0.99916,0.034,0.02248,-0.07488,0.42218,-0.0154
-0.99937,0.00653,0.03462,-0.00532,0.12151,-0.03901
-0.99869,-0.02455,0.04473,0.01603,0.02469,-0.06326
-0.99675,-0.05931,0.05435,0.00027,-0.36226,0.03574
-0.99308,-0.09645,0.06673,-0.05728,-0.45831,0.1027
-0.98842,-0.1257,0.08485,-0.01244,-0.25381,0.08797
-0.98474,-0.14196,0.10053,0.3685,0.13288,0.08613
-0.98175,-0.15343,0.11227,0.43325,0.15008,0.06849
-0.98081,-0.15323,0.12043,0.47196,0.1819,-0.00677
-0.98225,-0.14084,0.1238,0.61514,0.17618,-0.10227
-0.98571,-0.11694,0.12114,0.65851,0.10486,-0.07301
-0.99023,-0.07811,0.11537,0.65437,0.05534,-0.05246
-0.99436,-0.02592,0.10272,0.01569,-0.04951,0.0813
-0.99441,0.01184,0.10475,-1.15642,-0.27681,0.19351
-0.99595,-0.0225,0.08695,-1.05923,-0.58915,0.04254
-0.99351,-0.09246,0.06606,-0.86786,-0.81083,0.31396
-0.98878,-0.11818,0.0912,-0.75421,0.46475,0.22498
-0.98657,-0.11177,0.11899,-0.01859,1.40462,-0.19568
-0.98495,-0.12845,0.11551,0.41827,0.68208,-0.52353
-0.98758,-0.12443,0.09581,0.43925,0.81414,-0.41462
-0.99167,-0.09371,0.08816,0.14239,0.87835,-0.21388
-0.99547,-0.04863,0.08153,-0.19435,0.5501,-0.09933
-0.99779,-0.00696,0.06591,-0.37511,-0.00187,-0.14419
-0.99855,0.02241,0.04864,-0.44902,-0.41203,-0.19625
-0.99857,0.03903,0.03608,-0.08231,-0.27649,-0.15204
-0.9987,0.04534,0.02272,0.17583,-0.0271,-0.07119
-0.99884,0.04786,-0.00026,0.28684,0.03826,-0.08759
-0.99833,0.05158,-0.02549,0.26968,0.10032,-0.09514
-0.99727,0.05953,-0.04344,0.17381,0.20388,-0.12308
-0.99589,0.07099,-0.05604,0.08834,0.18973,-0.10655
-0.99403,0.08408,-0.06937,0.05557,0.02601,-0.04495
-0.99204,0.09715,-0.07995,-0.01498,-0.02831,0.08633
-0.99012,0.10875,-0.08838,0.0151,0.01358,0.15726
-0.98811,0.11894,-0.09727,0.08029,-0.037,0.08851
-0.98638,0.12862,-0.10246,0.04396,-0.16573,0.05058
-0.98494,0.13653,-0.10602,0.03497,-0.29113,0.06574
-0.98345,0.14203,-0.1124,0.03614,-0.31724,0.12598
-0.98182,0.1452,-0.12214,0.08212,-0.3278,0.0996
-0.98051,0.1468,-0.1305,0.07934,-0.31561,0.07993
-0.98008,0.14703,-0.13345,-0.03617,-0.18129,0.04095
-0.97996,0.14731,-0.13398,-0.21111,0.11297,0.07732
-0.9804,0.14697,-0.13115,-0.21067,0.11332,0.0745
-0.98199,0.14372,-0.12252,-0.37828,-0.06527,0.12542
-0.98511,0.13355,-0.10814,-0.36282,0.17251,0.07814
-0.98967,0.11686,-0.08286,-0.35826,0.1892,0.05286
-0.99404,0.09702,-0.04952,0.11594,0.2471,0.04421
-0.99697,0.07567,-0.01708,0.01739,0.2919,0.12295
-0.99838,0.05666,0.00206,-0.03952,0.39673,0.08868
-0.99921,0.0387,0.00776,-0.09004,0.44669,-0.03611
-0.99948,0.02573,0.01869,-0.01642,0.33952,-0.01576
-0.99953,0.01832,0.024,-0.02604,0.31521,-0.08508
-0.99944,0.00913,0.03174,-0.10528,-0.01354,-0.02691
-0.99883,-0.00699,0.04759,-0.08685,-0.07262,0.01524
-0.99748,-0.02772,0.06505,-0.03563,-0.09955,0.04042
-0.99563,-0.0487,0.07956,0.16483,0.03396,0.09277
-0.99384,-0.06467,0.0899,0.18169,0.05746,0.09888
-0.99225,-0.0756,0.09844,0.20098,0.07736,0.11043
-0.99087,-0.08299,0.10609,0.30238,0.20538,0.16243
-0.99024,-0.08678,0.1089,0.33988,0.19944,0.07895
-0.99078,-0.08354,0.10655,0.32775,0.15393,0.00975
-0.99199,-0.07177,0.10381,0.23926,0.01558,-0.10104
-0.99319,-0.05334,0.10343,0.20869,-0.08136,-0.04266
-0.99438,-0.03029,0.10128,0.19824,-0.14098,0.00754
-0.99571,-0.00634,0.09215,0.08287,-0.29683,0.18121
-0.99701,0.0122,0.07618,-0.14047,-0.44374,0.16833
-0.99805,0.01872,0.05928,-0.23736,-0.55089,0.13427
-0.99896,0.00995,0.0443,-0.28069,-0.74237,0.06605
-0.99946,-0.00704,0.03159,-0.98017,-0.43389,0.03593
-0.99935,-0.02247,0.02763,-1.34005,-0.06842,-0.25349
-0.99873,-0.03458,0.03631,-0.2296,0.80134,0.18964
-0.99745,-0.05207,0.04849,0.74794,0.97775,0.38989
-0.99673,-0.0624,0.05113,0.97279,0.62825,-0.10983
-0.99818,-0.03853,0.04615,0.58604,0.37117,-0.39127
-0.99887,0.00301,0.04708,0.04515,0.44773,-0.20142
-0.99853,0.03941,0.0369,-0.15177,0.71042,0.01229
-0.99805,0.06155,0.00934,-0.0379,0.37061,-0.22035
-0.99732,0.07176,-0.01338,-0.13015,-0.41644,-0.37566
-0.99654,0.08118,-0.0171,-0.18306,-0.62571,-0.2026
-0.99635,0.08501,-0.00562,-0.1353,-0.47591,0.16691
-0.99668,0.08056,-0.01031,-0.10178,-0.2274,0.16834
-0.9963,0.0784,-0.03499,0.02739,0.11706,-0.11447
-0.99526,0.07946,-0.0559,0.10277,0.19303,-0.27619
-0.9945,0.08381,-0.06255,0.14821,0.15859,-0.25233
-0.9937,0.09267,-0.06289,0.10916,0.13171,-0.11405
-0.99237,0.104,-0.06601,-0.00339,0.03758,0.01935
-0.99045,0.11546,-0.07522,-0.01297,-0.00677,0.0704
-0.98823,0.12595,-0.08665,0.02858,-0.00392,0.05111
-0.98638,0.13555,-0.09304,0.05965,-0.03263,0.01675
-0.9846,0.14515,-0.09729,0.00395,-0.11196,0.03711
-0.98228,0.15479,-0.10561,0.00986,-0.13118,0.03403
-0.97983,0.16344,-0.1149,0.03545,-0.16757,0.03007
-0.97754,0.17106,-0.12304,0.02371,-0.20197,0.06809
-0.97554,0.17722,-0.12996,0.01735,-0.20987,0.07521
-0.9744,0.181,-0.13328,0.014,-0.18308,0.05969
-0.974,0.18361,-0.1326,-0.02151,-0.12672,0.00254
-0.97414,0.18438,-0.13052,-0.07773,-0.08905,-0.01024
-0.97481,0.18208,-0.12872,-0.32383,0.15759,0.00602
-0.97607,0.17595,-0.12773,-0.36767,0.34932,-0.05916
-0.97889,0.16698,-0.11773,-0.30591,0.3839,-0.02382
-0.98208,0.15998,-0.09951,-0.08658,0.0572,0.07673
-0.98542,0.1509,-0.07841,0.08856,-0.10389,0.14912
-0.98901,0.13697,-0.05552,0.13004,-0.06219,0.29127
-0.99269,0.11598,-0.03301,0.00174,0.22312,0.34992
-0.99536,0.09328,-0.02295,-0.05243,0.36262,0.22979
-0.99721,0.07312,-0.01394,-0.06101,0.49283,0.12434
-0.99829,0.0582,0.00035,0.05135,0.33626,-0.00124
-0.99877,0.04842,0.00958,0.06292,0.18731,-0.09569
-0.99892,0.04108,0.02129,0.04019,0.11004,-0.1151
-0.99885,0.02926,0.03763,0.0128,-0.15183,-0.07742
-0.99846,0.01225,0.0539,-0.00519,-0.24651,0.02079
-0.99779,-0.00562,0.06597,0.02402,-0.21932,0.06252
-0.99696,-0.02151,0.0747,0.18803,-0.02894,0.18048
-0.99629,-0.03449,0.07874,0.18414,0.01421,0.21308
-0.996,-0.04448,0.07739,0.17007,0.02476,0.19186
-0.99581,-0.05177,0.07519,0.23118,-0.01391,0.01774
-0.99564,-0.056,0.07446,0.21814,-0.14105,0.03072
-0.99578,-0.05653,0.0721,0.21828,-0.14052,0.03308
-0.99628,-0.05415,0.06692,0.08049,-0.25005,0.05505
-0.99693,-0.04995,0.0601,0.0549,-0.29075,0.09201
-0.99746,-0.0439,0.05582,0.05543,-0.2968,0.0963
-0.99797,-0.03614,0.05217,0.04097,-0.2625,0.18573
-0.99844,-0.02806,0.04799,0.01272,-0.24314,0.26242
