gravity.x,gravity.y,gravity.z,userAcceleration.x,userAcceleration.y,userAcceleration.z
-0.14589,0.9588,-0.24377,0.15987,-0.05561,-0.24169
-0.14095,0.95595,-0.25748,0.16379,-0.10695,-0.2337
-0.13766,0.95258,-0.27136,0.1362,-0.10349,-0.26209
-0.13696,0.9492,-0.28332,0.01002,-0.05788,-0.27091
-0.13758,0.94679,-0.29097,-0.03567,-0.059,-0.28475
-0.13872,0.94565,-0.2941,-0.00534,-0.00358,-0.28084
-0.14244,0.9439,-0.29792,-0.24184,0.2537,-0.20208
-0.14948,0.9397,-0.30762,-0.36311,0.71575,-0.2627
-0.15792,0.93544,-0.31625,-0.18861,0.16107,0.4834
-0.16169,0.93349,-0.32007,-0.68301,-0.64031,0.61118
-0.16029,0.93624,-0.31266,-0.5765,-0.42553,0.46087
-0.16287,0.94535,-0.28247,-0.08201,0.30075,0.70796
-0.16609,0.95536,-0.24432,0.01981,0.344,0.5833
-0.16844,0.96393,-0.20608,0.19322,0.36675,0.44635
-0.1715,0.96965,-0.17426,0.49929,0.15375,0.12691
-0.17476,0.97263,-0.15313,0.44963,0.07055,0.06693
-0.17582,0.97491,-0.13651,0.23545,-0.04509,0.09888
-0.17775,0.97725,-0.1157,0.02529,-0.00702,0.05937
-0.18289,0.97869,-0.09332,-0.06145,0.02003,0.01182
-0.19096,0.97886,-0.07326,-0.04763,0.05091,0.00757
-0.20039,0.97798,-0.0584,0.10819,-0.01505,0.0634
-0.20822,0.97702,-0.04563,0.17861,-0.00874,0.03007
-0.21272,0.97659,-0.03195,0.16951,-0.03476,0.00282
-0.21449,0.9766,-0.01596,0.15998,-0.02481,0.02999
-0.21526,0.97656,0.00112,0.08853,-0.02479,-0.00721
-0.21511,0.97637,0.02077,0.00681,0.0133,0.01171
-0.21376,0.97603,0.04081,0.02508,-0.03158,-0.03348
-0.21279,0.97545,0.0568,0.0305,-0.05252,-0.05942
-0.21192,0.97485,0.06901,0.02709,-0.04455,-0.02714
-0.21257,0.97387,0.07998,0.05608,-0.0552,-0.03481
-0.21404,0.97254,0.09144,0.08106,-0.06333,-0.09464
-0.21571,0.97079,0.10507,0.05456,-0.03887,-0.13971
-0.21749,0.96853,0.12105,0.04678,-0.00965,-0.11928
-0.21998,0.9662,0.13444,0.05598,0.00672,-0.07783
-0.22368,0.96387,0.14461,0.05995,-0.01234,-0.03155
-0.22864,0.96123,0.15411,0.07375,0.01594,-0.03852
-0.23345,0.95827,0.16498,0.09142,0.08095,-0.02563
-0.23827,0.95493,0.17705,0.15791,0.22803,-0.08981
-0.24237,0.95136,0.19019,0.24702,0.28714,-0.19276
-0.24522,0.94765,0.20452,0.34899,0.26932,-0.31663
-0.24551,0.94487,0.21668,0.28271,0.26125,-0.52731
-0.24568,0.94321,0.22357,0.28766,0.2837,-0.66089
-0.24491,0.94395,0.22129,0.36444,0.46176,-0.62104
-0.24289,0.94783,0.20643,0.3685,0.43643,-0.68439
-0.23683,0.95472,0.18004,0.25955,0.3656,-0.7061
-0.2279,0.9641,0.13626,0.13172,0.43025,-0.51647
-0.21873,0.97317,0.07145,-0.14936,0.49113,0.00795
-0.20923,0.97781,-0.01021,-0.326,0.679,0.76005
-0.19853,0.97602,-0.0893,-0.63336,0.59149,0.92222
-0.18967,0.9699,-0.15274,-0.81168,0.53888,0.34019
-0.1754,0.96387,-0.20049,-0.44098,0.40222,0.16424
-0.15868,0.9553,-0.24943,-0.20187,0.21483,0.32907
-0.13626,0.94458,-0.29868,0.16667,0.14391,0.57856
-0.11207,0.93738,-0.32978,0.23515,0.04139,0.56623
-0.08263,0.93315,-0.34987,0.11954,-0.09191,0.39493
-0.04875,0.9303,-0.36354,0.0419,-0.22093,0.32793
-0.02146,0.92566,-0.37775,-0.13823,-0.43987,0.31485
-0.0042,0.92029,-0.39121,-0.15548,-0.4345,0.32831
0.00113,0.91403,-0.40564,-0.30545,-0.68317,0.40618
-0.00303,0.90823,-0.41847,-0.35445,-0.79052,0.54081
-0.01073,0.90536,-0.42451,-0.35208,-0.81878,0.57504
-0.01718,0.90789,-0.41886,-0.32454,-0.66533,0.47821
-0.02341,0.91458,-0.40373,-0.09664,-0.50149,0.36596
-0.03197,0.92344,-0.3824,-0.00224,-0.46057,0.32105
-0.04345,0.93384,-0.35506,0.05687,-0.34823,0.2182
-0.05921,0.94414,-0.32417,0.02089,-0.11815,0.07336
-0.07967,0.95351,-0.29064,0.04135,-0.12752,0.03983
-0.10657,0.96071,-0.25626,0.23296,0.10131,-0.01728
-0.13922,0.96459,-0.224,0.55556,0.21439,-0.05354
-0.16314,0.96646,-0.19834,0.56226,0.2058,-0.12738
-0.16605,0.96814,-0.18745,0.24307,-0.01512,-0.34808
-0.1511,0.97163,-0.18197,-0.15095,-0.16843,-0.44169
-0.13429,0.97633,-0.16951,-0.5115,-0.1236,-0.39692
-0.12399,0.9784,-0.1654,-0.49862,0.36329,0.03654
-0.11689,0.97729,-0.17675,-0.21737,0.40343,0.69232
-0.10895,0.97627,-0.18717,-0.40046,0.42448,0.26162
-0.10442,0.97652,-0.18844,0.38528,1.51564,-1.42807
-0.10986,0.97821,-0.17618,0.35116,-0.19824,1.15876
-0.08634,0.96728,-0.23858,-0.25427,-0.32441,0.78838
-0.0615,0.95815,-0.27957,-0.30567,-0.08715,0.61046
-0.04951,0.95532,-0.29139,-0.2835,-0.12738,0.48021
-0.05625,0.95974,-0.27519,-0.14129,-0.0978,0.21993
-0.07567,0.96988,-0.23153,0.24498,0.19867,-0.52838
-0.09024,0.97992,-0.1778,0.32559,0.11977,-0.41374
-0.08748,0.98211,-0.16676,-0.05595,-0.32113,0.0079
-0.08607,0.98013,-0.17872,-0.15863,-0.45997,-0.06311
-0.09314,0.97954,-0.17838,-0.1254,-0.28811,-0.04475
-0.10373,0.97978,-0.17108,0.04328,-0.04922,-0.04693
-0.11149,0.9792,-0.16954,0.04272,-0.00222,-0.08932
-0.11357,0.97852,-0.17201,-0.05375,0.04131,-0.38957
-0.11247,0.97657,-0.18345,-0.06573,0.04548,-0.31238
-0.11261,0.97072,-0.21217,0.03548,0.17933,-0.39002
-0.11265,0.96212,-0.24825,0.1679,0.5777,-0.29697
-0.10484,0.94979,-0.29481,0.17253,0.88513,-0.14736
-0.07876,0.93518,-0.3453,0.13082,1.13394,0.08942
-0.05929,0.91177,-0.40641,0.02615,1.16535,0.433
-0.04601,0.88377,-0.46565,-0.19024,0.40239,0.61877
-0.00528,0.87641,-0.48154,-0.187,-0.19927,0.53938
0.03107,0.87499,-0.48314,-0.29138,-0.64218,0.42048
0.04506,0.87913,-0.47445,-0.40066,-0.73034,0.43045
0.04611,0.88808,-0.45737,-0.14976,-0.45434,0.41684
0.04173,0.89956,-0.43481,-0.21757,-0.52016,0.33984
0.032,0.9123,-0.40827,-0.22895,-0.62203,0.34525
0.01736,0.92546,-0.37843,-0.17916,-0.71186,0.31583
-0.00257,0.93827,-0.3459,-0.01137,-0.63968,0.12643
-0.03112,0.94901,-0.3137,-0.03962,-0.63105,0.05356
-0.06369,0.9582,-0.27892,-0.08151,-0.35146,0.18049
-0.09807,0.96448,-0.24526,0.05432,0.2465,0.15985
-0.12802,0.96711,-0.2198,0.18019,0.76998,-0.27521
-0.14322,0.96989,-0.19697,0.30825,0.39162,-0.58735
-0.14831,0.97377,-0.17257,0.31741,-0.06032,-0.35946
-0.1477,0.97795,-0.14765,0.13715,-0.05662,-0.19759
-0.1405,0.98208,-0.12561,-0.24451,0.32357,-0.7993
-0.12409,0.98393,-0.12838,0.03699,0.20191,0.19118
-0.11041,0.98045,-0.16286,-0.57474,0.26694,0.90848
-0.10622,0.97832,-0.17777,-1.268,0.40135,-0.18526
-0.1211,0.97808,-0.16941,-0.80763,1.56323,-1.64484
-0.12977,0.97792,-0.16382,1.44149,0.65946,0.49088
-0.11289,0.96717,-0.22768,-0.12405,-0.15559,0.52187
-0.09775,0.96162,-0.25638,-0.07699,-0.09576,0.6866
-0.09502,0.96292,-0.2525,0.00558,-0.06843,0.48171
-0.10184,0.96819,-0.22854,0.14466,0.07673,-0.00576
-0.10928,0.97591,-0.18885,0.06526,0.10402,-0.35921
-0.10922,0.98193,-0.15455,-0.02595,0.00278,-0.26847
-0.10712,0.98459,-0.13827,-0.04153,-0.2093,-0.14682
-0.11325,0.98526,-0.1282,0.0377,-0.28024,-0.23722
-0.12339,0.98481,-0.12213,0.05494,-0.36966,-0.22421
-0.13103,0.98301,-0.12852,-0.12804,-0.34744,-0.13541
-0.13812,0.98085,-0.13729,0.00447,-0.19135,-0.05909
-0.14563,0.97941,-0.13984,0.09111,-0.17295,-0.17707
-0.14425,0.97868,-0.14618,0.21024,0.19743,-0.75048
-0.13448,0.97571,-0.17291,0.05936,0.07905,-0.3203
-0.1284,0.96764,-0.21722,0.02287,0.12117,-0.29308
-0.1276,0.95405,-0.2711,0.18943,0.7092,-0.29644
-0.12062,0.93351,-0.33765,0.00663,0.86759,0.10176
-0.10777,0.90892,-0.40279,-0.17617,0.72111,0.66247
-0.10129,0.87751,-0.46874,-0.25232,0.30714,0.90119
-0.09515,0.85541,-0.50914,-0.18197,-0.26468,0.61047
-0.08501,0.8505,-0.51906,-0.06967,-0.15076,0.65609
-0.07692,0.85116,-0.51924,-0.22531,0.01603,0.48745
-0.05623,0.86184,-0.50405,-0.15406,-0.17268,0.30027
-0.03175,0.87831,-0.47704,-0.17278,-0.24296,0.31864
-0.01684,0.89502,-0.4457,-0.21848,-0.30407,0.34052
-0.01376,0.91071,-0.41281,-0.26006,-0.4409,0.26397
-0.02054,0.92526,-0.37877,-0.23157,-0.48314,0.2255
-0.03572,0.93992,-0.33952,-0.16101,-0.55019,0.17056
-0.06156,0.95375,-0.29421,-0.12211,-0.66468,0.13293
-0.10075,0.96187,-0.25428,-0.11243,-0.52937,0.02315
-0.13698,0.96464,-0.2252,0.26978,0.34463,-0.30315
-0.15482,0.96766,-0.19916,0.42922,0.28869,-0.81806
-0.17449,0.96778,-0.18153,0.42648,0.0864,-0.59465
-0.18961,0.96805,-0.16407,0.28946,-0.16323,-0.25237
-0.19218,0.96956,-0.15173,-0.20334,0.27628,-0.4159
-0.18228,0.97082,-0.15585,-0.51111,0.59194,-0.62186
-0.17946,0.96481,-0.19219,-0.77763,0.68094,1.17902
-0.17161,0.95969,-0.22257,-0.80155,0.187,-0.04661
-0.17757,0.96136,-0.21039,-0.39702,1.74021,-0.78709
-0.18826,0.96113,-0.20197,0.89487,0.17904,0.31578
-0.17486,0.94971,-0.25977,0.11109,-0.10063,0.92255
-0.16324,0.94459,-0.28478,0.16364,-0.06837,0.79699
-0.15973,0.94544,-0.28395,0.14071,0.01139,0.51992
-0.16182,0.95305,-0.25595,0.23606,0.09653,-0.10429
-0.16241,0.95993,-0.22837,0.18948,-0.02318,-0.28667
-0.16257,0.96394,-0.21072,0.0833,-0.06174,-0.32253
-0.16802,0.96617,-0.19565,0.11582,-0.1756,-0.13763
-0.17415,0.96752,-0.18325,0.1554,-0.25673,-0.16695
-0.1769,0.96783,-0.17889,0.08674,-0.33836,-0.08614
-0.17794,0.96735,-0.18045,0.02113,-0.32185,-0.11771
-0.17884,0.9673,-0.17983,0.04214,-0.2746,-0.12537
-0.18076,0.96762,-0.17614,0.12507,-0.21729,-0.04883
-0.18221,0.96761,-0.17471,0.20046,-0.1251,-0.08252
-0.18079,0.96714,-0.17874,0.13668,0.00677,-0.46214
-0.17488,0.96568,-0.19203,0.13083,0.23703,-0.44704
-0.16248,0.96269,-0.21641,0.32906,0.69904,-0.3427
-0.1477,0.95658,-0.25129,0.43658,0.80945,-0.36784
-0.12659,0.94788,-0.2924,0.30895,0.66812,0.0903
-0.09557,0.93789,-0.33351,0.10288,0.55299,0.31201
-0.07508,0.92448,-0.37376,-0.11887,0.27391,0.47736
-0.05795,0.91312,-0.40355,-0.20716,0.08251,0.7527
-0.04919,0.90392,-0.42486,-0.44139,0.05535,0.65627
-0.05067,0.90135,-0.43011,-0.21553,-0.07251,0.52606
-0.03508,0.91327,-0.40585,-0.20398,-0.2407,0.35136
-0.01402,0.92742,-0.37377,-0.45326,-0.2247,0.29715
-0.00444,0.94003,-0.34107,-0.47049,-0.35134,0.20595
-0.00575,0.95127,-0.3083,-0.39882,-0.45025,0.1121
-0.01543,0.96059,-0.27753,-0.28541,-0.39124,0.1929
-0.0312,0.96796,-0.24916,-0.22021,-0.38341,0.18127
-0.05252,0.97316,-0.22405,-0.13106,-0.40321,0.12517
-0.0817,0.97572,-0.20319,-0.0498,-0.32365,0.00144
-0.11459,0.97584,-0.18604,0.01589,-0.17998,0.05551
-0.13976,0.97722,-0.15971,0.22509,0.21185,-0.19023
-0.15619,0.97869,-0.13333,0.42379,0.09868,-0.59207
-0.16982,0.97864,-0.11589,0.4869,0.05791,-0.47257
-0.17939,0.97847,-0.10204,0.43572,-0.1582,-0.17892
-0.17842,0.97939,-0.09462,0.14815,-0.11849,-0.18808
-0.1656,0.98175,-0.09354,0.0089,-0.09405,-0.3528
-0.15228,0.98128,-0.1179,-0.11722,-0.0362,0.49465
-0.14718,0.97773,-0.14961,-0.80264,0.50212,0.01245
-0.15077,0.97901,-0.13713,-0.84727,1.52068,-0.5159
-0.15055,0.9816,-0.11749,0.85071,1.13539,-2.08111
-0.13216,0.97747,-0.16458,0.07099,-0.41219,1.36595
-0.10273,0.96474,-0.24234,-0.24751,-0.46736,0.87714
-0.08513,0.96036,-0.26544,-0.14559,-0.11473,0.73788
-0.08184,0.9592,-0.27063,-0.06313,-0.1779,0.22637
-0.0895,0.96118,-0.26098,-0.04087,-0.03833,-0.31853
-0.11409,0.97164,-0.20713,-0.03978,0.09134,-0.36712
-0.1332,0.98102,-0.14093,0.30285,0.08203,-0.45831
-0.14013,0.9793,-0.14605,0.29489,-0.14605,0.11645
-0.15179,0.97473,-0.16388,0.09485,-0.16426,-0.28441
-0.15792,0.97457,-0.15898,0.03153,0.12388,-0.54062
-0.15735,0.97357,-0.16554,0.03089,0.17809,-0.46671
-0.15589,0.96993,-0.18688,-0.02473,0.15606,-0.82134
-0.15335,0.96326,-0.22047,0.0468,0.26548,-0.42737
-0.14588,0.95042,-0.27463,0.04284,0.30038,-0.23698
-0.13862,0.93111,-0.33738,-0.09837,0.27065,0.34014
-0.13464,0.90584,-0.40165,-0.16807,0.36929,0.74095
-0.13366,0.87547,-0.46442,-0.08421,0.42451,0.91966
-0.14249,0.85303,-0.50203,0.20815,-0.1481,0.69425
-0.13976,0.84966,-0.50847,0.17075,-0.11574,0.47094
-0.13028,0.85147,-0.50797,0.03568,-0.02636,0.50843
-0.1258,0.85465,-0.50373,-0.35359,-0.1775,0.35279
-0.12081,0.86318,-0.49023,-0.28431,-0.23394,0.3042
-0.11488,0.87807,-0.46454,-0.28499,-0.25464,0.30094
-0.11259,0.89522,-0.43117,-0.33315,-0.34198,0.22168
-0.11616,0.9128,-0.39154,-0.3236,-0.40259,0.16183
-0.12676,0.9299,-0.34528,-0.26693,-0.49855,0.18077
-0.14522,0.94432,-0.29525,-0.18873,-0.47117,0.14446
-0.17306,0.95287,-0.24916,0.28616,0.14324,0.02917
-0.18937,0.96031,-0.20481,0.70646,0.55968,-0.73124
-0.19143,0.96687,-0.16886,0.6735,0.36569,-1.10285
-0.19544,0.9703,-0.14253,0.87911,0.48406,-0.9834
-0.18591,0.97259,-0.13967,0.82254,0.22666,-0.16296
-0.16455,0.96769,-0.19103,-0.52113,0.00869,0.70276
-0.14735,0.9665,-0.21014,-1.48251,1.01543,-0.24924
-0.16521,0.97034,-0.17646,-0.81169,1.05235,0.59615
-0.17118,0.96878,-0.17935,0.06388,-0.04136,0.1389
-0.16871,0.96772,-0.18724,0.15037,0.07791,0.53963
-0.16433,0.97027,-0.17767,-0.0187,1.01787,-0.37417
-0.16856,0.97574,-0.13973,0.34881,0.3545,-0.05843
-0.16418,0.97837,-0.12583,0.16198,-0.2138,0.09914
-0.16509,0.97881,-0.12111,-0.03528,-0.45976,-0.10309
-0.17223,0.97881,-0.11076,0.10114,-0.37397,-0.29953
-0.18289,0.97774,-0.10282,0.20147,-0.30999,-0.35911
-0.19015,0.97594,-0.10669,-0.02962,-0.36908,-0.31244
-0.19477,0.9746,-0.11055,-0.13175,-0.39343,0.04009
-0.20128,0.97297,-0.1132,0.01093,-0.24635,-0.04176
-0.21009,0.97109,-0.1133,0.20783,-0.01969,-0.41129
-0.21323,0.96942,-0.12143,0.1527,0.08476,-0.48872
-0.21462,0.96623,-0.14263,0.0098,0.19933,-0.30896
-0.21912,0.96099,-0.16876,0.17484,0.41425,-0.35279
-0.22001,0.95196,-0.21298,0.52806,1.10114,-0.54572
-0.20979,0.93702,-0.27925,0.37903,1.22822,-0.31467
-0.19663,0.91654,-0.34826,-0.05181,0.70133,0.4112
-0.17667,0.89792,-0.40314,-0.14895,0.25712,0.86644
-0.16067,0.87983,-0.44731,-0.05671,0.04169,0.42373
-0.15389,0.87068,-0.46716,0.0481,0.14371,0.26441
-0.1338,0.87799,-0.4596,0.39901,-0.03178,0.33388
-0.11174,0.88414,-0.45366,0.03793,-0.17747,0.32395
-0.0956,0.89134,-0.44313,-0.10789,-0.23172,0.26732
-0.0871,0.90161,-0.42369,-0.14766,-0.2055,0.26123
-0.0874,0.91326,-0.3979,-0.12173,-0.25624,0.24221
-0.09689,0.92371,-0.37063,-0.11607,-0.33254,0.24815
-0.11043,0.93261,-0.34356,-0.07188,-0.40055,0.23089
-0.12516,0.94157,-0.3127,-0.00454,-0.36747,0.12943
-0.14375,0.94999,-0.27721,-0.12512,-0.37423,0.04812
-0.17199,0.95395,-0.24576,-0.22231,-0.38814,-0.02296
-0.20145,0.95318,-0.22554,-0.21417,-0.02503,-0.32401
-0.22222,0.95252,-0.20813,-0.05842,0.30068,-0.75282
-0.24676,0.94853,-0.19849,0.30394,0.16965,-0.73113
-0.27025,0.9436,-0.19128,0.46268,0.02354,-0.47761
-0.28588,0.94039,-0.18424,0.35395,-0.08029,-0.3963
-0.28961,0.93964,-0.18221,0.04159,-0.15848,-0.45408
-0.2888,0.93865,-0.18848,-0.22202,0.02969,-0.87628
-0.29355,0.93634,-0.19261,-0.12346,0.53524,-0.61295
-0.30486,0.92733,-0.21705,0.15333,0.76218,1.81556
-0.28867,0.92039,-0.26373,-0.9063,1.7651,0.74503
-0.27491,0.92878,-0.24858,-0.77215,1.08114,-1.26185
-0.27627,0.92923,-0.24537,0.13891,-0.54892,0.36505
-0.26647,0.91783,-0.29425,0.16154,0.01366,0.92664
-0.26812,0.91188,-0.31078,0.22541,0.15776,1.29079
-0.27256,0.91339,-0.30238,-0.03374,0.58226,0.71204
-0.28484,0.92457,-0.25305,-0.00588,0.4723,0.15727
-0.2992,0.94064,-0.16022,-0.19874,0.13961,-0.37242
-0.30536,0.9499,-0.06665,-0.50286,0.03405,-0.30814
-0.31208,0.94928,-0.03841,0.01169,-0.03331,-0.2543
-0.31962,0.94673,-0.03933,0.50387,-0.09736,0.0435
-0.32212,0.94617,-0.03154,0.57992,-0.19043,0.10029
-0.32076,0.94712,-0.00795,0.16706,-0.23552,0.14662
-0.31937,0.94719,0.02894,0.07918,-0.1281,0.07792
-0.32332,0.94356,0.07173,0.05555,-0.05297,0.01119
-0.33213,0.93709,0.10752,0.32178,0.05953,-0.30563
-0.34055,0.93046,0.13516,0.39638,0.20554,-0.39037
-0.34692,0.92425,0.15936,0.407,0.33898,-0.54628
-0.34731,0.91976,0.18276,0.12084,0.27344,-0.93235
-0.34419,0.91711,0.20107,0.05147,0.25429,-0.90817
-0.34867,0.91562,0.20017,0.37008,0.3727,-0.68132
-0.36156,0.91479,0.18008,0.46099,0.42196,-0.54591
-0.37502,0.91441,0.15234,0.47653,0.47824,-0.61993
-0.38709,0.91546,0.10993,0.52069,0.95757,-0.46598
-0.40023,0.91526,0.04596,0.83095,1.32363,0.45368
-0.41113,0.91133,-0.02114,1.05504,1.02266,0.92034
-0.41768,0.9043,-0.08823,0.82788,0.23987,1.12191
-0.41891,0.89664,-0.14336,0.52797,0.38597,0.78625
-0.41261,0.89394,-0.17497,0.46821,0.42872,0.65176
-0.39371,0.8981,-0.19597,0.23584,0.51752,0.35645
-0.3658,0.90459,-0.21886,0.14931,0.29895,0.37281
-0.33557,0.91035,-0.24217,0.10228,0.07807,0.47801
-0.30782,0.91555,-0.25885,0.21695,0.06525,0.63318
-0.2873,0.92114,-0.26259,0.40164,0.08766,0.5983
-0.27594,0.92564,-0.25893,0.33521,0.08363,0.52909
-0.26137,0.93172,-0.25215,0.09028,0.08405,0.4327
-0.24629,0.93779,-0.24471,-0.10258,-0.03977,0.4043
-0.23685,0.9422,-0.23697,-0.07741,-0.12453,0.38931
-0.23122,0.94507,-0.23103,0.01885,-0.07976,0.35708
-0.22696,0.9462,-0.23061,0.03943,-0.01404,0.34061
-0.2234,0.94528,-0.23777,-0.14884,-0.15574,0.30725
-0.21927,0.94371,-0.24763,-0.17359,-0.18708,0.28415
-0.21571,0.94333,-0.25218,-0.05589,-0.29996,0.29336
-0.21302,0.94419,-0.25124,-0.03395,-0.32277,0.30195
-0.20975,0.94691,-0.24366,-0.02527,-0.30428,0.18387
-0.20853,0.95055,-0.23015,0.04582,-0.21373,0.03413
-0.21293,0.95408,-0.21069,0.12249,-0.10837,-0.21378
-0.22251,0.95643,-0.18899,0.25332,0.18024,-0.51284
-0.23285,0.95663,-0.17503,0.48074,0.49668,-0.71668
-0.2372,0.95582,-0.17363,0.48459,0.60867,-0.74046
-0.23377,0.95589,-0.17781,0.19214,0.29644,-0.45603
-0.22749,0.95637,-0.1833,-0.04367,0.47761,-0.13354
-0.22093,0.95707,-0.18762,-0.05905,0.72683,0.06349
-0.21016,0.95524,-0.20821,-0.40783,0.12361,0.88093
-0.18601,0.94927,-0.25353,-0.57679,-0.856,0.22893
-0.17447,0.94857,-0.26416,-0.63138,-1.06443,0.48741
-0.18445,0.95031,-0.25077,-0.0788,-0.23193,1.17411
-0.19788,0.95214,-0.23296,-0.01542,0.35581,1.00674
-0.21189,0.95125,-0.22412,0.01952,0.47046,0.74826
-0.23186,0.95125,-0.20336,0.54538,0.80706,-0.23377
-0.25197,0.94916,-0.18866,0.46358,0.27558,-0.00387
-0.27075,0.94537,-0.18155,0.34216,0.1218,0.14282
-0.28364,0.94485,-0.16374,0.18129,-0.13179,0.30368
-0.29178,0.94555,-0.14417,0.1678,-0.11718,0.09736
-0.29571,0.94753,-0.12141,0.16432,-0.05526,-0.06248
-0.2977,0.94954,-0.09871,0.14039,-0.0521,-0.0775
-0.29442,0.95245,-0.07848,-0.10434,-0.05962,-0.16027
-0.28707,0.95598,-0.0608,-0.13552,-0.06683,-0.16553
-0.28074,0.95861,-0.04732,-0.16069,-0.09701,-0.1751
-0.27776,0.96001,-0.03498,0.12574,-0.3172,-0.12735
-0.27926,0.95992,-0.02366,0.27594,-0.36181,-0.16847
-0.28108,0.95957,-0.01487,0.50896,-0.27436,-0.14045
-0.27954,0.9601,-0.0079,0.28155,-0.07797,-0.42625
-0.27626,0.96108,-0.00241,0.0466,-0.07805,-0.45105
-0.2733,0.96192,-0.00259,-0.04092,-0.39019,-0.14392
-0.27251,0.96198,-0.01811,0.04895,-0.43212,0.08414
-0.27212,0.96172,-0.03211,0.11967,-0.22236,0.03858
-0.27092,0.9619,-0.03653,0.26973,0.08152,-0.19945
-0.26493,0.96313,-0.04669,0.2245,0.11402,-0.83717
-0.25581,0.96339,-0.08021,0.08463,0.2536,-0.9132
-0.24663,0.95896,-0.13989,0.02517,1.36662,-0.29881
-0.231,0.94701,-0.22318,0.02102,1.60054,-0.26224
-0.21145,0.92818,-0.30622,-0.17765,0.4202,0.99947
-0.19503,0.90662,-0.37417,-0.19595,-0.1772,0.7878
-0.16688,0.89624,-0.41097,-0.21741,0.0858,0.30558
-0.1375,0.89112,-0.43242,0.00189,0.42769,0.38991
-0.11974,0.88149,-0.45676,-0.12361,0.35999,0.37262
-0.09445,0.88334,-0.45912,0.07776,-0.10419,0.41741
-0.07063,0.89126,-0.44795,-0.01079,-0.32655,0.51672
-0.05747,0.89993,-0.43223,-0.13961,-0.35285,0.48631
-0.04621,0.91302,-0.40529,-0.25909,-0.36677,0.38085
-0.03856,0.92966,-0.36638,-0.32419,-0.42063,0.29824
-0.04001,0.94665,-0.31977,-0.23973,-0.53846,0.27431
-0.0492,0.961,-0.27212,-0.10656,-0.67461,0.23669
-0.06683,0.97165,-0.22678,-0.07497,-0.66542,0.18813
-0.098,0.9778,-0.18521,-0.06997,-0.59305,0.1419
-0.13984,0.9787,-0.15028,-0.05932,0.22331,-0.19837
-0.17318,0.97804,-0.11591,-0.02598,0.22397,-0.23274
-0.19152,0.9783,-0.07902,0.0668,0.37804,-0.90447
-0.19645,0.97894,-0.05552,0.29592,0.05835,-0.65502
-0.19913,0.97936,-0.03449,0.31166,-0.03931,-0.53524
-0.19738,0.98017,-0.01751,0.07919,-0.1146,-0.38641
-0.18634,0.98244,-0.00913,-0.27396,0.25811,-0.73633
-0.17511,0.98437,-0.01837,0.20506,0.16499,0.91323
-0.17222,0.98203,-0.07712,-0.37591,0.63148,0.28945
-0.17357,0.98068,-0.09022,-0.33344,0.66132,-0.04334
-0.1903,0.97888,-0.07466,-0.43545,0.76547,-0.29517
-0.1967,0.97729,-0.07881,0.50714,0.61659,-0.77983
-0.1895,0.97471,-0.11838,0.21953,-0.11104,0.49632
-0.17555,0.97224,-0.15471,-0.11165,0.07517,0.65669
-0.1673,0.97237,-0.16281,-0.05244,-0.03696,0.52156
-0.16313,0.97468,-0.15292,-0.02094,-0.19434,0.31827
-0.16445,0.97847,-0.12469,0.03319,-0.17172,0.01007
-0.16752,0.98286,-0.07687,0.21653,0.01517,-0.57903
-0.1646,0.98574,-0.0349,0.11637,0.01344,-0.63692
-0.16038,0.98619,-0.04126,0.08317,-0.17834,-0.34639
-0.1601,0.98527,-0.06007,-0.10367,-0.15569,-0.66751
-0.16094,0.98419,-0.07389,-0.12361,-0.17459,-0.53344
-0.16287,0.98146,-0.10103,-0.09657,-0.20355,-0.30355
-0.1669,0.97706,-0.13228,0.01167,-0.09476,-0.47194
-0.16557,0.97118,-0.17146,0.15146,0.0206,-0.23114
-0.15831,0.96134,-0.22528,-0.00939,0.34298,-0.14057
-0.14867,0.94551,-0.28967,-0.00162,0.36643,0.27699
-0.14478,0.92386,-0.35429,-0.08639,0.41278,0.72303
-0.14358,0.90251,-0.40602,-0.09034,0.45281,0.77074
-0.14264,0.88731,-0.43855,0.03356,0.18358,0.56742
-0.12844,0.88612,-0.44529,0.04551,0.17676,0.45751
-0.11036,0.89235,-0.43763,-0.1932,0.11802,0.49372
-0.0904,0.90291,-0.42021,-0.34117,-0.07335,0.23375
-0.06824,0.91812,-0.39037,-0.17717,-0.4043,0.23322
-0.05493,0.93293,-0.35584,-0.21398,-0.64463,0.24535
-0.05549,0.94605,-0.31923,-0.20249,-0.64515,0.23033
-0.06757,0.95816,-0.27812,-0.15111,-0.55834,0.1477
-0.08902,0.96901,-0.23042,-0.07604,-0.32475,-0.05907
-0.12175,0.97635,-0.17866,0.19116,0.07285,-0.21004
-0.15712,0.97834,-0.13477,0.54578,0.22479,-0.31501
-0.17549,0.97886,-0.10506,0.55578,0.23471,-0.59072
-0.18136,0.97981,-0.08411,0.4154,0.02469,-0.44003
-0.18026,0.98145,-0.0653,0.21919,-0.02235,-0.55834
-0.17328,0.98358,-0.0504,0.03226,0.18856,-0.68924
-0.15585,0.9858,-0.06249,-0.07879,-0.01291,0.6031
-0.14275,0.98257,-0.119,-0.99339,0.69331,0.51366
-0.14304,0.97962,-0.141,-1.37981,1.19854,0.06788
-0.15731,0.97984,-0.12314,-0.8089,0.96755,-0.81664
-0.16938,0.98173,-0.08667,1.00378,0.44331,-0.39638
-0.16637,0.9787,-0.12028,0.15073,-0.17399,0.32821
-0.15625,0.9748,-0.15923,-0.06836,-0.09043,0.63238
-0.15341,0.97274,-0.17388,-0.00928,0.03835,0.54166
-0.15534,0.97391,-0.1654,0.0328,0.02018,0.12387
-0.16224,0.97817,-0.12985,0.11496,0.0016,-0.06582
-0.16789,0.9829,-0.07557,0.2106,-0.02351,-0.56246
-0.16804,0.98524,-0.03264,0.00593,-0.17747,-0.73573
-0.17176,0.9844,-0.03816,0.01438,-0.30367,-0.32789
-0.17846,0.98225,-0.05771,0.08343,-0.4109,0.09315
-0.18375,0.98081,-0.06514,0.06245,-0.36292,-0.05718
-0.18722,0.98014,-0.06527,0.03016,-0.17485,-0.50593
-0.1881,0.97939,-0.07359,0.10917,0.06161,-0.2658
-0.18654,0.9777,-0.09641,0.07089,-0.02705,-0.19035
-0.18544,0.97488,-0.12334,-0.00568,-0.16139,-0.47037
-0.18142,0.96999,-0.16187,0.16815,0.52115,-0.5015
-0.16769,0.96184,-0.2162,0.07219,0.89548,-0.23548
-0.15118,0.9486,-0.27804,0.01502,0.7809,0.05437
-0.14838,0.9275,-0.34312,-0.15655,0.41244,0.58477
-0.15392,0.90068,-0.40629,-0.34179,-0.01883,1.04397
-0.14581,0.88345,-0.44526,-0.11521,-0.07147,0.74554
-0.14193,0.88111,-0.45111,-0.2025,0.1443,0.46843
-0.13014,0.89099,-0.43496,-0.22052,0.08977,0.12295
-0.10292,0.90708,-0.40818,-0.17392,-0.15863,0.23435
-0.07913,0.92366,-0.37494,-0.22118,-0.31408,0.32662
-0.06766,0.93787,-0.34031,-0.27212,-0.40662,0.31112
-0.0656,0.95086,-0.30259,-0.24269,-0.5292,0.32174
-0.07077,0.96289,-0.26045,-0.11355,-0.50146,0.2501
-0.08741,0.97191,-0.2185,0.00939,-0.52108,0.18885
-0.11562,0.97647,-0.18204,0.05747,-0.6031,0.01767
-0.14829,0.97785,-0.14767,-0.02604,-0.20307,0.0892
-0.16971,0.9813,-0.09081,0.19846,0.30787,-0.78848
-0.18209,0.98231,-0.04365,0.64172,0.4501,-1.27248
-0.18571,0.98185,-0.03842,0.66339,0.01844,-0.70587
-0.18368,0.98222,-0.03859,0.21512,-0.05421,-0.61479
-0.17193,0.98452,-0.03393,-0.53618,0.33826,-0.42699
-0.15179,0.98728,-0.0472,-0.12244,-0.00729,0.99121
-0.14567,0.98394,-0.10311,-0.533,0.60596,0.77871
-0.14977,0.98251,-0.11061,-0.26087,0.72667,0.76941
-0.16654,0.98065,-0.10292,-0.20558,0.8128,-0.76022
-0.18202,0.98047,-0.07445,-0.02835,1.53594,-2.00769
-0.1806,0.97858,-0.09879,0.16963,-0.17865,0.38394
-0.16904,0.97491,-0.14479,-0.02688,-0.03081,0.63508
-0.16525,0.97359,-0.1575,-0.05214,0.05552,0.50771
-0.16359,0.97574,-0.14551,-0.04904,-0.02266,0.20841
-0.16657,0.97881,-0.11906,0.05204,-0.1991,-0.04508
-0.17308,0.98176,-0.07861,0.16597,-0.26368,-0.47622
-0.17707,0.98346,-0.03805,0.00859,-0.19502,-0.63981
-0.18396,0.98235,-0.03383,0.28167,-0.2356,-0.21614
-0.1916,0.98033,-0.04729,0.31418,-0.2846,-0.01411
-0.19246,0.97973,-0.0554,0.27292,-0.25711,-0.12557
-0.19075,0.97996,-0.05736,0.0527,-0.09214,-0.4
-0.18674,0.97989,-0.0703,0.01388,-0.10983,-0.25474
-0.18456,0.9787,-0.08993,-0.00651,-0.14968,-0.13146
-0.18607,0.97627,-0.11072,0.11642,-0.05255,-0.46684
-0.18524,0.97162,-0.14707,0.15651,0.11217,-0.3976
-0.17753,0.96381,-0.19885,0.12735,0.45504,-0.47499
-0.16601,0.94937,-0.26669,-0.22959,0.66722,0.13307
-0.15834,0.93016,-0.33124,-0.18837,0.39616,0.63865
-0.16186,0.90554,-0.39216,-0.36965,0.04088,1.03501
-0.16462,0.88135,-0.44285,-0.05526,-0.05558,0.83697
-0.16083,0.87206,-0.46221,-0.09114,0.17967,0.66155
-0.16027,0.87619,-0.45453,-0.1005,0.17215,0.16192
-0.13807,0.89208,-0.43026,0.03495,-0.19146,0.26772
-0.11632,0.9088,-0.40067,0.02551,-0.29008,0.31791
-0.10729,0.92356,-0.36812,-0.16662,-0.50828,0.31958
-0.10768,0.93782,-0.32999,-0.20029,-0.52063,0.31247
-0.11235,0.952,-0.28474,-0.13812,-0.53047,0.25041
-0.12245,0.96445,-0.23418,0.10656,-0.54355,0.13939
-0.144,0.97274,-0.18178,0.11066,-0.38788,-0.03972
-0.16539,0.97721,-0.13304,0.06978,-0.07918,-0.17934
-0.17905,0.98009,-0.08576,0.37199,0.47767,-1.16412
-0.18229,0.9809,-0.06774,0.54412,0.17228,-0.90416
-0.18366,0.98113,-0.0604,0.32616,-0.11257,-0.60618
-0.18011,0.98215,-0.05415,-0.12415,0.08078,-0.35652
-0.16811,0.98373,-0.06329,-0.04839,-0.05316,0.80236
-0.1576,0.981,-0.11315,-0.67138,0.59559,0.38906
-0.15728,0.97821,-0.13548,-0.63383,0.8359,0.06852
-0.16883,0.979,-0.11422,-0.18238,0.24042,0.24777
-0.17419,0.97982,-0.09802,0.00969,1.59539,-1.99318
-0.17528,0.9794,-0.10022,0.8889,0.55992,-0.21264
-0.16221,0.97528,-0.15002,-0.13925,-0.10524,0.49861
-0.15559,0.97316,-0.16953,-0.15817,-0.11545,0.58243
-0.15787,0.97243,-0.1716,0.02392,-0.15493,0.34859
-0.16728,0.97341,-0.15648,0.09699,-0.10038,0.10164
-0.17983,0.97651,-0.11867,0.15206,-0.02213,-0.18223
-0.18545,0.98027,-0.06832,-0.16374,-0.07982,-0.52336
-0.1874,0.98032,-0.06199,-0.08032,-0.25319,-0.20789
-0.19501,0.97762,-0.07885,0.11407,-0.28318,0.05192
-0.19937,0.9768,-0.07819,0.17027,-0.1046,-0.29208
-0.19752,0.97727,-0.07692,0.134,0.0642,-0.44664
-0.19242,0.97714,-0.09035,0.08885,0.13446,-0.32604
-0.18982,0.97567,-0.10971,0.15254,0.05423,-0.52431
-0.18906,0.97204,-0.13921,0.2131,-0.02833,-0.37568
-0.18754,0.9651,-0.18278,0.25769,0.22552,-0.33274
-0.18294,0.9533,-0.24032,0.03679,0.61756,-0.21113
-0.17967,0.93554,-0.3041,-0.22199,0.62194,0.14416
-0.18073,0.91374,-0.36388,-0.20669,0.35625,0.7031
-0.1831,0.88872,-0.42028,-0.2909,0.13088,1.174
-0.17119,0.87735,-0.44826,-0.21238,-0.22724,0.68381
-0.16598,0.88292,-0.43919,-0.11127,-0.06873,0.58332
-0.16387,0.89468,-0.41555,-0.18771,0.20294,0.23817
-0.1469,0.91182,-0.38341,-0.13702,-0.28732,0.13134
-0.12957,0.92978,-0.34455,0.0032,-0.48004,0.11652
-0.12472,0.9448,-0.30296,-0.07474,-0.58729,0.075
-0.13052,0.95726,-0.25809,-0.09474,-0.57065,0.13443
-0.14057,0.9685,-0.20551,-0.0606,-0.49283,-0.12582
-0.16154,0.97511,-0.15183,-0.11565,-0.07692,-0.64373
-0.18845,0.97527,-0.11542,0.10688,0.18887,-0.88498
-0.20439,0.97493,-0.08787,0.49379,0.4696,-0.79517
-0.21211,0.97513,-0.06419,0.62406,0.03128,-0.51079
-0.21561,0.97514,-0.05094,0.58997,-0.33862,-0.18069
-0.20857,0.97662,-0.05192,0.5219,-0.38638,-0.17308
-0.19431,0.97952,-0.05273,-0.13101,-0.14065,0.08817
-0.17412,0.98287,-0.06037,-0.30644,0.04904,0.58316
-0.15367,0.9838,-0.09225,-0.72456,0.46276,-0.57218
-0.16517,0.98333,-0.076,-0.52625,1.068,0.21481
-0.18258,0.97915,-0.08896,0.17832,-0.00792,0.53998
-0.18202,0.97515,-0.12629,0.29147,-0.24743,0.31661
-0.17087,0.97583,-0.13616,-0.12142,1.02038,-0.21776
-0.16508,0.98028,-0.10858,0.2984,0.39524,-0.05607
-0.15936,0.98191,-0.10221,0.04816,-0.04018,-0.08628
-0.15948,0.98143,-0.10653,-0.10984,-0.09123,0.15603
-0.16465,0.98037,-0.10844,0.0667,-0.07358,-0.2029
-0.17483,0.97956,-0.09941,0.07689,-0.07278,-0.21193
-0.18301,0.97944,-0.0848,-0.01416,-0.0169,-0.47132
-0.18186,0.97923,-0.08959,0.0482,-0.06851,-0.27489
-0.17793,0.97914,-0.09802,0.04426,-0.06842,-0.26645
-0.17605,0.97826,-0.10951,0.15247,-0.03707,-0.56172
-0.17504,0.97469,-0.13899,0.04557,-0.05062,-0.25436
-0.1732,0.96806,-0.18124,-0.04607,-0.03148,-0.19054
-0.16737,0.95775,-0.23388,-0.20686,-0.04368,-0.04582
-0.16337,0.94188,-0.29354,0.04071,-0.04397,0.59733
-0.16267,0.92653,-0.33923,-0.03191,-0.01222,0.66908
-0.15751,0.91521,-0.37091,-0.08718,0.14656,0.86578
-0.15099,0.91387,-0.37687,0.05139,0.13521,0.65621
-0.13191,0.92649,-0.35242,0.13381,0.14641,0.21813
-0.1059,0.93975,-0.32505,-0.10895,0.03958,0.21177
-0.08735,0.94896,-0.30306,-0.46595,-0.09637,0.17082
-0.0875,0.95627,-0.27909,-0.45591,-0.09193,0.12636
-0.10358,0.96325,-0.24783,-0.34348,-0.1684,0.08668
-0.12716,0.96914,-0.21116,0.23962,0.06701,-0.12024
-0.15497,0.97301,-0.17096,0.39147,0.02722,-0.17427
-0.17913,0.97514,-0.13038,0.41772,-0.13277,-0.20727
-0.19563,0.97633,-0.09213,0.23889,0.17258,-0.56135
-0.20752,0.97619,-0.06303,0.20818,0.15477,-0.57149
-0.21665,0.9752,-0.04518,0.18272,0.06951,-0.51854
-0.22232,0.9744,-0.03308,0.10666,-0.24123,-0.20323
-0.22238,0.97475,-0.02006,0.10812,-0.36595,-0.21999
-0.21869,0.97576,-0.00704,0.08124,-0.51676,-0.2785
-0.2176,0.97603,0.00022,0.03416,-0.38367,0.22985
-0.21976,0.9754,-0.01699,0.09736,-0.10725,0.1395
-0.22486,0.97412,-0.02288,0.00718,0.16987,-0.13722
-0.22888,0.97333,-0.01493,-0.15973,0.66677,-0.09992
-0.22919,0.9733,-0.01235,0.07111,0.05437,-0.0876
-0.22724,0.97352,-0.02479,0.12142,-0.08433,0.00543
-0.22396,0.9741,-0.03099,0.09174,0.1047,0.42535
-0.22108,0.97474,-0.03165,-0.15449,0.45108,0.24722
-0.22428,0.97451,-0.00472,0.32964,0.26309,-0.34817
-0.23186,0.97247,0.02284,0.37207,-0.23036,-0.20574
-0.23769,0.97111,0.02091,0.28996,-0.22856,-0.01688
-0.24572,0.9692,0.01645,0.20492,-0.27742,0.18274
-0.25529,0.9664,0.02982,0.20683,0.02619,-0.34318
-0.26394,0.96247,0.0631,0.25868,0.20617,-0.693
-0.27385,0.95753,0.09016,0.2108,0.13829,-0.67662
-0.28509,0.9543,0.08957,0.17245,0.13312,-0.76688
-0.29656,0.95144,0.08247,0.16054,0.11345,-0.92693
-0.31135,0.94778,0.06902,0.02065,0.06255,-0.61625
-0.33066,0.94293,0.03914,0.05394,0.5038,-0.36033
-0.34521,0.93849,-0.00738,0.24691,0.74631,-0.32182
-0.35525,0.93254,-0.06449,0.44285,0.68911,0.22754
-0.3581,0.92509,-0.12636,0.47773,0.60735,0.75406
-0.35063,0.91687,-0.19078,0.16041,0.68565,1.01917
-0.3286,0.91177,-0.24633,-0.11363,0.75964,0.99032
-0.30662,0.91459,-0.26362,-0.05762,0.59498,0.10302
-0.29008,0.92261,-0.25424,0.05801,0.53871,0.09271
-0.26652,0.93058,-0.25098,-0.17143,0.29526,0.29233
-0.23341,0.94027,-0.24779,-0.18244,0.18312,0.34538
-0.19424,0.95264,-0.23397,-0.05385,0.15167,0.34656
-0.1684,0.96511,-0.20046,0.14687,-0.10214,0.37319
-0.15265,0.97597,-0.15546,0.40566,-0.02248,0.19623
-0.13953,0.98235,-0.12456,0.30872,-0.04231,0.02054
-0.13934,0.98417,-0.10947,-0.18801,-0.30908,0.04706
-0.15081,0.98303,-0.10435,-0.19262,-0.44397,0.11525
-0.16846,0.98064,-0.09976,-0.14179,-0.44604,0.02356
-0.18851,0.97753,-0.0943,-0.07689,-0.30695,-0.27696
-0.20864,0.97392,-0.08913,0.24788,-0.02993,-0.44791
-0.22395,0.97131,-0.07994,0.33794,0.04817,-0.56487
-0.22398,0.97149,-0.07763,0.3933,0.10479,-0.65415
-0.21455,0.97298,-0.08523,0.20837,-0.40333,0.11439
-0.20511,0.97348,-0.10132,0.26892,-0.51957,0.3212
-0.1971,0.97374,-0.11389,0.38556,-0.60655,0.39049
-0.19431,0.97377,-0.11831,-0.8014,3.01701,-0.69333
-0.19115,0.97411,-0.12066,-0.37606,3.17967,-2.31577
-0.17739,0.97,-0.16618,0.15728,-0.38428,1.44311
-0.17153,0.95771,-0.231,0.14067,-1.01916,1.00516
-0.18011,0.95206,-0.24726,-0.13532,-0.71854,1.13014
-0.20222,0.94814,-0.24522,-0.07974,0.47363,1.1657
-0.23096,0.94017,-0.25046,0.13625,0.74802,0.9612
-0.25508,0.93483,-0.24703,0.24428,0.73106,0.17075
-0.27638,0.94677,-0.16502,-0.06758,0.24991,0.38642
-0.27434,0.95812,-0.0821,-0.35606,0.28642,-0.36535
-0.26614,0.96236,-0.05499,-0.20932,0.06708,-0.27901
-0.26129,0.96406,-0.04798,0.09229,-0.05308,0.27373
-0.25934,0.96495,-0.04011,0.13724,-0.24849,0.37354
-0.25461,0.96679,-0.02216,0.06894,-0.29845,0.34049
-0.24923,0.96841,0.00805,-0.04832,-0.23447,0.20637
-0.24693,0.96813,0.04168,-0.06783,-0.24775,0.12883
-0.24725,0.96566,0.07971,0.00741,-0.22903,-0.03194
-0.25096,0.96007,0.1236,0.12423,-0.14855,-0.12457
-0.2565,0.95221,0.16583,0.22142,0.02225,-0.09674
-0.26476,0.94407,0.1965,0.32281,0.13677,-0.13876
-0.272,0.93733,0.21773,0.3748,0.17051,-0.26829
-0.27271,0.93247,0.2369,0.27112,0.07193,-0.73132
-0.26468,0.92937,0.2573,-0.11702,0.0802,-1.05825
-0.25745,0.92997,0.26243,-0.33744,0.13403,-0.75292
-0.26716,0.93286,0.24162,0.12124,0.46841,-0.56811
-0.2801,0.93772,0.20546,0.40908,0.56188,-0.63183
-0.28447,0.94551,0.15835,0.56407,0.72902,-0.43833
-0.2834,0.95422,0.09555,0.58472,0.86873,0.1106
-0.27968,0.95975,0.02551,0.55675,0.75963,0.34357
-0.27484,0.9605,-0.04356,0.48117,0.4921,0.88871
-0.26412,0.95778,-0.11349,0.09051,0.43356,0.64771
-0.24912,0.95427,-0.16523,0.01269,0.44974,0.60961
-0.23022,0.95369,-0.19356,-0.02704,0.18587,0.42599
-0.20643,0.95529,-0.21164,0.063,0.29333,0.2667
-0.18169,0.95657,-0.22795,0.19055,0.13364,0.39749
-0.1536,0.95805,-0.24193,0.16227,0.04187,0.51774
-0.1298,0.95871,-0.25303,0.14918,-0.13642,0.54425
-0.11364,0.959,-0.25962,0.1715,-0.14709,0.51256
-0.10184,0.95948,-0.26272,0.122,-0.16196,0.46142
-0.09253,0.95993,-0.26452,-0.1929,-0.15776,0.32096
-0.08683,0.96051,-0.26434,-0.24086,-0.18776,0.35333
-0.08414,0.96164,-0.26106,-0.25062,-0.20035,0.33589
-0.0833,0.96278,-0.25713,-0.24053,-0.1625,0.14823
-0.08005,0.96379,-0.25436,-0.2642,-0.16542,0.11072
-0.07564,0.96425,-0.25396,-0.28381,-0.20225,-0.01244
-0.07603,0.96349,-0.2567,-0.22214,-0.17373,-0.16296
-0.08321,0.96095,-0.26389,-0.10517,-0.0908,-0.23733
-0.09863,0.95663,-0.2741,0.11439,-0.13637,-0.08726
-0.11638,0.95202,-0.28304,0.23168,-0.15182,-0.02078
-0.13525,0.94675,-0.29218,0.33494,-0.14885,-0.03423
-0.15373,0.94223,-0.29758,0.34517,-0.04378,-0.1217
-0.16757,0.93987,-0.29758,0.16351,0.09363,-0.21707
-0.17515,0.93813,-0.29872,-0.06254,0.09123,-0.24602
-0.17972,0.93618,-0.30211,-0.15233,0.07724,-0.25565
-0.18342,0.93493,-0.30373,-0.09658,-0.03716,-0.14796
-0.18436,0.93439,-0.30482,-0.20574,-0.16692,-0.08571
-0.18421,0.93386,-0.30652,-0.27975,0.02634,-0.17802
-0.18831,0.93428,-0.30274,-0.25388,0.59123,-0.1473
-0.19146,0.93526,-0.2977,-0.20574,1.70433,-0.38424
-0.19564,0.93534,-0.29471,-0.22652,0.30537,1.09548
-0.18693,0.92302,-0.33629,-0.15071,-0.76039,1.32796
-0.16915,0.91487,-0.3666,-0.30509,-0.50569,0.8729
-0.16669,0.91943,-0.35617,-0.18446,-0.13058,1.00482
-0.18285,0.92335,-0.33762,-0.14201,0.24813,0.77714
-0.20659,0.92364,-0.32282,0.14836,0.43275,0.37909
-0.23691,0.92642,-0.2926,0.42995,0.3918,-0.04371
-0.26103,0.93768,-0.22935,0.32766,0.18364,0.02423
-0.25919,0.94604,-0.19447,0.09265,-0.0061,-0.39323
-0.25107,0.95027,-0.18423,-0.14372,-0.05725,-0.04651
-0.24636,0.95413,-0.17013,-0.04788,-0.09728,0.03528
-0.2467,0.95758,-0.14887,-0.02754,-0.07814,-0.15545
-0.2521,0.95982,-0.12318,-0.04355,-0.14616,-0.20124
-0.25665,0.96061,-0.10655,0.11351,-0.10668,-0.16257
-0.2589,0.96043,-0.10262,0.16368,-0.06299,-0.23001
-0.26092,0.95991,-0.10236,0.02857,-0.10826,-0.2395
-0.26462,0.95907,-0.10078,0.07942,-0.19948,-0.12342
-0.26789,0.95785,-0.10365,0.12442,-0.19534,-0.06453
-0.26811,0.95727,-0.10831,0.12497,-0.10239,-0.41455
-0.26537,0.95726,-0.11493,0.35936,-0.48421,-0.17691
-0.2625,0.95576,-0.13267,0.38313,-0.48457,-0.0063
-0.25829,0.95492,-0.14628,0.30936,-0.37297,0.03771
-0.25016,0.95577,-0.15467,0.48047,0.35991,-0.23971
-0.23611,0.95602,-0.17396,0.44033,0.4523,-0.3359
-0.21715,0.95495,-0.20223,0.37662,0.46326,-0.34084
-0.19469,0.94848,-0.24993,0.0841,0.39281,-0.17979
-0.16864,0.93319,-0.31736,0.05804,0.40811,-0.11236
-0.14748,0.9075,-0.39331,-0.02305,-0.14474,0.72789
-0.13574,0.8776,-0.45976,-0.09485,-0.45052,0.78285
-0.12536,0.85223,-0.50793,0.02635,-0.29647,0.86489
-0.09503,0.84606,-0.52455,0.30142,0.2142,1.19963
-0.04933,0.85954,-0.50867,-0.30477,0.37299,0.41245
-0.00875,0.87479,-0.48441,-0.31697,0.1776,0.28542
0.01028,0.8881,-0.45953,-0.2871,0.03626,0.26939
0.00901,0.90289,-0.42977,-0.51359,-0.14862,0.27558
-0.00322,0.92011,-0.39164,-0.50873,-0.18257,0.24803
-0.02365,0.9386,-0.34418,-0.45331,-0.211,0.16984
-0.0513,0.95733,-0.2844,-0.24622,-0.2006,-0.2552
-0.08493,0.97058,-0.22529,-0.11428,-0.16144,-0.35905
-0.1208,0.9721,-0.20102,-0.15524,0.03252,-0.53207
-0.14855,0.97081,-0.18829,-0.01201,0.36838,-0.60187
-0.16548,0.97191,-0.1673,0.17563,0.48266,-0.37384
-0.1802,0.97242,-0.14806,0.50571,0.05999,-0.18993
-0.19369,0.97095,-0.14046,0.38437,-0.25275,-0.31028
-0.19924,0.97085,-0.13322,0.30877,-0.40351,-0.18593
-0.19616,0.97098,-0.13678,0.18165,-0.27393,0.82637
-0.18768,0.96867,-0.1626,0.14276,-0.08905,0.79744
-0.18423,0.9692,-0.16339,-0.10472,0.36639,0.1337
-0.1896,0.97337,-0.12883,-0.60461,1.05134,-0.263
-0.19028,0.97469,-0.11733,-0.33375,0.0779,-0.32404
-0.18029,0.97295,-0.14437,-0.39649,0.58718,-0.15898
-0.17517,0.97115,-0.16176,0.08502,0.20629,0.64361
-0.16998,0.9678,-0.18565,0.15723,-0.10393,0.50445
-0.16887,0.96678,-0.19187,0.17763,-0.23031,0.49874
-0.17126,0.96848,-0.18084,0.29057,-0.37598,0.36652
-0.17446,0.97158,-0.15993,0.47412,0.04129,-0.28117
-0.16843,0.97645,-0.1348,0.27761,0.46925,-0.87766
-0.15618,0.97806,-0.13783,-0.02517,-0.01489,-0.12295
-0.15294,0.97723,-0.14707,0.03402,-0.12749,-0.25494
-0.15403,0.97621,-0.15255,0.12078,-0.11142,-0.44223
-0.15141,0.97274,-0.17559,0.13396,0.04338,-0.39166
-0.14554,0.96725,-0.20794,0.13249,0.09409,-0.35456
-0.13863,0.95902,-0.24707,-0.08618,0.10624,-0.20225
-0.12926,0.94795,-0.29098,-0.09662,0.0753,0.12777
-0.12215,0.93282,-0.339,-0.05895,0.12613,0.40076
-0.11907,0.9146,-0.38641,-0.0569,0.22613,0.56059
-0.09653,0.908,-0.40769,0.19054,0.45502,0.75362
-0.09091,0.90236,-0.42128,-0.22611,0.0685,0.39862
-0.08587,0.89719,-0.43321,0.05059,0.30728,0.66896
-0.07663,0.9025,-0.42382,-0.18627,0.52948,0.39713
-0.05315,0.91738,-0.39445,-0.18441,-0.07636,0.14745
-0.03111,0.9321,-0.36084,-0.29495,-0.25138,0.14458
-0.02278,0.94355,-0.33043,-0.4062,-0.38416,0.13782
-0.02952,0.95375,-0.29914,-0.37113,-0.58279,0.20699
-0.04957,0.96323,-0.26403,-0.33275,-0.59383,0.15484
-0.0767,0.97061,-0.22807,-0.30395,-0.60871,0.13284
-0.11024,0.97377,-0.19903,-0.148,-0.14236,-0.34404
-0.14764,0.97422,-0.17054,0.00393,-0.01145,-0.39903
-0.17026,0.97574,-0.13761,0.27231,0.10747,-0.36192
-0.18584,0.976,-0.11351,0.57968,-0.01214,-0.57086
-0.19867,0.97476,-0.10178,0.50341,-0.10539,-0.45331
-0.2073,0.9734,-0.09749,0.48617,-0.19944,-0.38137
-0.20709,0.9736,-0.0959,-0.13465,0.04585,-0.68617
-0.19405,0.97408,-0.11619,-0.18022,0.23066,-0.0001
-0.18459,0.96695,-0.17582,-0.61915,0.98789,-0.07464
-0.18751,0.96495,-0.18357,-0.70375,1.12151,0.05071
-0.192,0.96474,-0.17998,-0.04923,0.45474,0.80666
-0.18456,0.96195,-0.20146,0.08963,0.34526,0.01768
-0.17955,0.96284,-0.2017,0.13536,0.40711,0.28581
-0.17366,0.96498,-0.1966,0.0989,0.32975,0.32238
-0.16553,0.96695,-0.19389,-0.05847,0.02591,0.3583
-0.16037,0.96997,-0.18284,-0.04324,-0.10333,0.12852
-0.15916,0.97369,-0.16305,-0.0179,-0.15875,0.00988
-0.1604,0.97704,-0.14016,0.09978,0.01585,-0.29983
-0.16165,0.97965,-0.11891,0.12632,-0.01682,-0.36704
-0.15851,0.98112,-0.1107,0.1148,-0.03194,-0.46442
-0.15532,0.98162,-0.11085,-0.03109,-0.17055,-0.41984
-0.1544,0.98085,-0.11866,-0.05337,-0.20793,-0.38826
-0.15518,0.97888,-0.13303,-0.06247,-0.23708,-0.27429
-0.15824,0.9755,-0.15278,-0.06165,-0.21485,-0.34719
-0.16268,0.97006,-0.18029,0.03068,-0.0851,-0.44013
-0.1613,0.96178,-0.22124,0.12758,-0.00774,-0.33682
-0.14922,0.94861,-0.27903,0.08888,0.39041,0.05494
-0.14116,0.92748,-0.34618,-0.03423,0.37391,0.48647
-0.14109,0.90439,-0.4027,-0.04431,0.33484,0.83254
-0.14261,0.88491,-0.44339,-0.13344,0.30839,0.92009
-0.1318,0.87842,-0.45935,0.14082,0.26672,0.71644
-0.12152,0.88296,-0.45343,-0.07658,0.41188,0.4722
-0.10021,0.89466,-0.43535,-0.44516,0.43438,0.15709
-0.08666,0.9088,-0.40812,-0.2334,-0.10032,0.16105
-0.08228,0.92383,-0.37383,-0.20124,-0.35166,0.14053
-0.08567,0.93852,-0.33441,-0.31948,-0.52138,0.25779
-0.09795,0.95229,-0.28902,-0.31651,-0.56483,0.30101
-0.11737,0.96357,-0.24028,-0.26814,-0.59681,0.23143
-0.15113,0.96828,-0.19895,-0.2258,-0.3745,-0.34917
-0.1849,0.96849,-0.16684,-0.0319,-0.22398,-0.11045
-0.19996,0.97157,-0.12675,0.23274,0.34173,-0.70361
-0.2063,0.97324,-0.10118,0.49596,0.22951,-0.85244
-0.21054,0.9734,-0.09029,0.50209,-0.20416,-0.48049
-0.21016,0.97357,-0.08932,0.39522,-0.41951,-0.22409
-0.20201,0.97459,-0.09676,-0.124,-0.34473,-0.07909
-0.18838,0.97455,-0.12149,-0.11371,0.30027,0.69153
-0.18017,0.97069,-0.15904,-0.55324,0.76912,0.16622
-0.18915,0.97095,-0.14654,-0.65733,1.06095,0.03254
-0.19656,0.97091,-0.13673,-0.34798,1.20475,-1.69364
-0.18748,0.97312,-0.1337,0.15643,1.10937,-1.81878
-0.17283,0.96939,-0.17434,0.50448,0.27559,0.11839
-0.15839,0.9635,-0.21581,-0.177,0.15634,0.84966
-0.15458,0.95964,-0.2349,-0.10593,0.08799,0.73603
-0.15793,0.9601,-0.23078,0.0644,-0.04317,0.26448
-0.16685,0.96428,-0.2057,0.08838,-0.05139,0.04571
-0.17865,0.97089,-0.15949,0.10428,0.01081,-0.23718
-0.18602,0.97751,-0.09927,0.10846,0.04434,-0.48308
-0.1859,0.98,-0.07097,0.22477,-0.07098,-0.71421
-0.18668,0.9786,-0.08654,0.17618,-0.10012,-0.20832
-0.18818,0.9763,-0.10681,0.03742,-0.16625,-0.26853
-0.19104,0.97513,-0.11232,-0.06233,-0.28053,-0.26902
-0.19648,0.97297,-0.12131,-0.05718,-0.34667,-0.19408
-0.20478,0.96895,-0.13855,0.04026,-0.07992,-0.28964
-0.20828,0.96412,-0.16458,0.1154,0.01213,-0.41977
-0.20134,0.95816,-0.20342,0.0763,0.06183,-0.44761
-0.19098,0.94881,-0.25156,-0.00478,0.28912,-0.16716
-0.18589,0.93343,-0.30683,0.10482,0.35823,0.16294
-0.18342,0.91239,-0.36591,0.07855,0.34606,0.52359
-0.1876,0.8856,-0.42487,-0.15772,0.24065,1.03435
-0.18183,0.86586,-0.46606,-0.15026,0.2389,0.87746
-0.16952,0.86708,-0.46843,0.03907,0.18074,0.27593
-0.15489,0.8747,-0.45924,0.23195,0.14424,0.28079
-0.14178,0.87891,-0.45542,-0.1848,0.02491,0.332
-0.13095,0.8888,-0.43917,-0.33842,-0.01641,0.18127
-0.12024,0.90507,-0.40791,-0.26686,-0.12945,0.19578
-0.11415,0.92216,-0.36958,-0.2485,-0.20274,0.25724
-0.1124,0.93863,-0.32607,-0.20068,-0.215,0.16914
-0.11597,0.95354,-0.27803,-0.15509,-0.2577,0.07881
-0.12667,0.9641,-0.23338,-0.15095,-0.34361,0.01518
-0.14435,0.96859,-0.20246,-0.1033,-0.20576,0.02074
-0.16898,0.9691,-0.17969,0.07576,-0.03018,-0.1638
-0.19167,0.96917,-0.1548,0.26205,0.07903,-0.26419
-0.20165,0.97118,-0.12706,0.33505,0.13881,-0.36299
-0.20329,0.97401,-0.09981,0.27163,0.10292,-0.41374
-0.20114,0.97659,-0.0762,0.21882,-0.12658,-0.29764
-0.196,0.97855,-0.06339,0.25426,-0.51149,-0.33422
-0.18814,0.9798,-0.06776,-0.04509,-0.59351,-0.37247
-0.17416,0.97919,-0.1041,0.07278,-0.19884,0.29922
-0.1644,0.97523,-0.14794,-0.16329,0.47758,-0.44189
-0.17581,0.97352,-0.14608,-0.53329,1.17384,0.62933
-0.17886,0.97284,-0.14691,-0.16472,0.29718,0.64029
-0.16619,0.9769,-0.13427,-0.23399,1.21856,-1.52012
-0.14882,0.97947,-0.13597,0.46412,0.19673,0.19673
-0.1299,0.97653,-0.17179,-0.28859,-0.00344,0.54358
-0.12861,0.97229,-0.19518,-0.16237,-0.25905,0.50254
-0.13854,0.96933,-0.20297,-0.02998,-0.23796,0.54261
-0.15202,0.97018,-0.18878,0.01854,-0.06467,0.1256
-0.16322,0.97703,-0.13698,0.14824,0.14016,-0.48436
-0.15144,0.98098,-0.12133,-0.14915,-0.04208,-0.32992
-0.14174,0.97831,-0.15104,-0.25656,-0.18003,-0.3853
-0.14164,0.97559,-0.16779,-0.07538,0.05908,-0.89251
-0.13332,0.97009,-0.20285,0.04751,0.12054,-0.17415
-0.12548,0.9581,-0.25749,-0.01318,-0.0209,-0.11812
-0.12498,0.93836,-0.32227,-0.04072,-0.04384,0.02062
-0.13109,0.90852,-0.39674,0.03897,0.02178,0.63719
-0.15024,0.87377,-0.46254,0.08871,0.20464,0.96931
-0.161,0.84824,-0.50454,0.15328,0.36052,1.05811
-0.15163,0.84118,-0.51906,0.13106,0.23254,0.51163
-0.13011,0.8445,-0.51951,-0.43129,0.24664,0.28411
-0.10104,0.85603,-0.50696,-0.47886,0.12408,0.11899
-0.07087,0.87616,-0.47677,-0.18128,-0.0878,0.06005
-0.04989,0.89776,-0.43763,-0.18188,-0.29161,0.12698
-0.0445,0.91603,-0.39861,-0.33273,-0.45145,0.18911
-0.05122,0.93316,-0.35579,-0.23757,-0.52033,0.16133
-0.06762,0.94948,-0.30644,-0.13082,-0.41968,0.0189
-0.1008,0.9608,-0.25824,-0.05824,-0.15712,-0.0749
-0.13942,0.96454,-0.22408,0.33368,0.39335,-0.46288
-0.16276,0.96644,-0.19872,0.38369,0.35102,-0.57742
-0.18363,0.96833,-0.16913,0.34122,0.10898,-0.43506
-0.2016,0.96844,-0.14652,0.49442,-0.31724,-0.2386
-0.21356,0.96715,-0.13782,0.39635,-0.42194,-0.41679
-0.2143,0.96782,-0.13189,0.16626,-0.25053,-0.25418
-0.19254,0.97054,-0.14482,-0.12957,-0.13399,0.21951
-0.16829,0.96785,-0.18692,-0.89786,0.52875,0.29747
-0.16638,0.96633,-0.19626,-0.91465,0.8556,0.74898
-0.17054,0.96767,-0.18579,-0.08861,0.38314,-0.02882
-0.17162,0.96792,-0.18349,0.60463,1.39024,-1.11663
-0.17596,0.97058,-0.16431,0.30841,0.04082,0.49193
-0.1629,0.9664,-0.19882,-0.06959,0.02753,0.60465
-0.15633,0.96193,-0.22413,-0.06215,-0.12836,0.5672
-0.16147,0.95989,-0.22919,-0.0046,-0.06386,0.36171
-0.17144,0.96252,-0.21014,0.15777,0.06954,-0.24799
-0.1814,0.96943,-0.16519,0.17487,0.11553,-0.73808
-0.18008,0.97467,-0.13257,0.10469,-0.03488,-0.54945
-0.17875,0.97378,-0.14067,0.14422,-0.01406,-0.29069
-0.18586,0.97162,-0.14631,0.33175,0.04831,-0.76237
-0.19084,0.96932,-0.15487,0.14295,0.09757,-0.81811
-0.19567,0.96254,-0.18765,-0.02014,0.06192,-0.51399
-0.20932,0.95117,-0.22684,0.03863,-0.03019,-0.36069
-0.22649,0.93386,-0.27677,0.1265,-0.03295,-0.20668
-0.23569,0.90898,-0.34379,0.2316,0.09079,0.28816
-0.24481,0.87789,-0.41154,0.21059,-0.09513,1.05433
-0.25744,0.84478,-0.46911,0.13508,-0.09373,1.21138
-0.25419,0.82191,-0.50976,0.00255,-0.09162,1.15221
-0.23924,0.82172,-0.51724,0.00442,0.31738,0.4404
-0.22986,0.82726,-0.51264,0.17081,0.35133,0.62554
-0.21046,0.83806,-0.50335,0.07473,0.37459,0.64878
-0.17921,0.85773,-0.48185,-0.13043,-0.02228,0.18767
-0.15932,0.88023,-0.44699,-0.12399,-0.19281,0.22154
-0.15669,0.90188,-0.40255,-0.19389,-0.24829,0.25612
-0.16223,0.92207,-0.35136,-0.35557,-0.06667,0.141
-0.1734,0.94049,-0.29225,-0.47414,-0.18008,-0.04988
-0.19827,0.95147,-0.23534,-0.49753,-0.16929,-0.34702
-0.21827,0.95566,-0.19765,0.5964,0.175,-1.05502
-0.21413,0.96189,-0.17002,0.80399,-0.04342,-1.2401
-0.22452,0.96277,-0.15053,0.81529,-0.27678,-1.00389
-0.23448,0.96135,-0.14425,0.61142,-0.85268,0.06725
-0.23964,0.95909,-0.1507,0.37442,-0.78657,-0.16368
-0.24714,0.95492,-0.16444,-0.32851,0.52773,0.66201
-0.25136,0.95041,-0.1831,-1.41458,2.19598,-0.97231
-0.25926,0.95395,-0.15087,-0.7291,1.0627,0.21214
-0.26416,0.95151,-0.15762,0.00982,-0.18701,0.32547
-0.27018,0.9427,-0.19573,0.29092,-0.19427,0.59596
-0.27998,0.9358,-0.2142,0.25159,0.1694,0.21103
-0.28958,0.93575,-0.20127,0.34181,1.072,-0.32038
-0.30623,0.94115,-0.14302,1.08475,0.46245,-0.65961
-0.31359,0.94372,-0.10508,0.56925,-0.24346,0.0046
-0.31898,0.94019,-0.1195,0.3761,-0.2278,0.2082
-0.33024,0.93586,-0.12285,0.14764,0.05512,-0.27794
-0.34706,0.93321,-0.09305,0.00632,0.22244,-0.74095
-0.36298,0.92922,-0.06913,0.0084,0.11671,-0.72614
-0.38067,0.92107,-0.08191,0.27511,0.31231,-0.35875
-0.4005,0.91071,-0.10097,0.55764,0.54893,-0.3183
-0.41734,0.89907,-0.13226,0.63821,0.73669,-0.34662
-0.42357,0.88929,-0.17245,0.79065,1.48397,0.32756
-0.4043,0.8885,-0.217,0.30657,0.96016,1.0654
-0.36644,0.89153,-0.26626,-0.47301,0.28774,0.74277
-0.32925,0.89636,-0.29685,-0.7523,0.29667,0.32901
-0.31823,0.90301,-0.2886,-0.158,0.45008,0.10369
-0.33416,0.90571,-0.2608,0.17421,0.39134,0.15991
-0.34985,0.9082,-0.22971,-0.0499,0.12316,0.30432
-0.33948,0.91383,-0.22284,-0.1261,-0.01308,0.21075
-0.30368,0.92336,-0.23488,-0.15902,-0.09884,0.09905
-0.26737,0.93309,-0.24052,-0.096,-0.20811,0.1226
-0.25554,0.93795,-0.23441,-0.01254,-0.25769,0.27338
-0.26319,0.93754,-0.22747,0.2329,-0.13677,0.15359
-0.27048,0.93494,-0.22962,0.16996,-0.15591,0.19945
-0.27945,0.92916,-0.24197,0.13587,-0.17901,0.26631
-0.28712,0.9234,-0.25473,0.07677,-0.33169,0.3862
-0.29188,0.91967,-0.26268,0.12739,-0.38415,0.31441
-0.29557,0.918,-0.26441,0.16448,-0.40126,0.22365
-0.29825,0.9183,-0.26032,0.03426,-0.26958,-0.10673
-0.29986,0.92086,-0.2492,0.07326,0.29057,-0.81952
-0.29901,0.92283,-0.24283,0.19282,0.4025,-0.76313
-0.29941,0.92278,-0.24254,0.25476,0.21792,-0.33869
-0.29583,0.92318,-0.24538,0.1681,0.00878,-0.12618
-0.28441,0.92477,-0.25278,0.13718,-0.12965,-0.25503
-0.27275,0.92617,-0.26039,-0.08838,0.04526,-0.40654
-0.26766,0.92763,-0.26047,-0.28057,0.90905,-0.34496
-0.26671,0.92805,-0.25996,-0.27815,1.58739,-0.40592
-0.26947,0.91919,-0.28716,-0.73706,0.38623,0.58251
-0.27503,0.89982,-0.33865,-0.23617,-1.11628,1.65527
-0.27052,0.88915,-0.36909,0.12074,-0.92117,1.52276
-0.27326,0.89317,-0.35717,-0.19073,0.48404,1.0652
-0.30013,0.89152,-0.33928,-0.1775,0.8321,0.91014
-0.33278,0.88554,-0.32414,0.36971,0.9424,0.06822
-0.37208,0.89177,-0.25748,0.59177,0.41449,0.22848
-0.39429,0.90343,-0.16835,0.28679,0.08815,-0.13562
-0.38677,0.91366,-0.125,0.15049,0.10619,-0.30858
-0.37015,0.92347,-0.1009,-0.10715,0.04743,0.07839
-0.3543,0.9321,-0.07522,-0.06976,-0.10833,-0.04232
-0.34255,0.9384,-0.04524,0.01702,-0.17476,-0.14288
-0.33499,0.94213,-0.01293,-0.00121,-0.21973,-0.07789
-0.33243,0.94295,0.01809,-0.044,-0.37024,0.05562
-0.33163,0.94239,0.04361,0.12641,-0.24313,-0.02004
-0.33479,0.94012,0.06379,0.20808,-0.18636,0.14005
-0.33993,0.93703,0.08001,0.24844,-0.18058,0.01321
-0.34487,0.93324,0.10057,0.22718,-0.029,-0.07674
-0.34959,0.92803,0.12858,0.19019,0.11102,-0.04266
-0.3547,0.92184,0.15619,0.24097,0.09911,-0.1396
-0.36051,0.91545,0.17881,0.29319,0.241,-0.38802
-0.36352,0.90846,0.20623,0.23552,0.30196,-0.46737
-0.35772,0.90211,0.2413,0.13149,0.2467,-0.41781
-0.35089,0.89806,0.26523,0.0222,0.29958,-0.56427
-0.35007,0.89738,0.26859,0.07065,0.36882,-0.78812
-0.35165,0.89957,0.25904,0.1208,0.33514,-0.82625
-0.35445,0.90374,0.24001,0.20644,0.36601,-0.80702
-0.36375,0.9111,0.19384,0.23138,0.44096,-1.08045
-0.37434,0.91868,0.12602,0.21999,0.84096,-0.18966
-0.38487,0.92152,0.05157,0.70128,1.17574,0.66692
-0.3852,0.92258,-0.02144,1.0505,0.84552,0.81082
-0.38316,0.91985,-0.08396,0.96336,0.6047,0.89507
-0.38312,0.91428,-0.13152,0.78761,0.53217,0.75681
-0.36657,0.91463,-0.17051,0.60329,0.44103,0.68498
-0.33003,0.92048,-0.20923,0.0719,0.18972,0.12169
-0.29768,0.92788,-0.22455,-0.0257,0.1766,0.19902
-0.27082,0.93357,-0.23473,0.18111,-0.03111,0.46833
-0.24486,0.93716,-0.2485,0.33812,-0.15468,0.66066
-0.22309,0.94063,-0.25581,0.37518,-0.12467,0.67026
-0.20542,0.94417,-0.25756,0.36184,0.06354,0.62288
-0.19154,0.94777,-0.25503,0.19734,0.04016,0.52276
-0.18143,0.95046,-0.25238,0.13927,0.04874,0.53241
-0.17847,0.95001,-0.25615,-0.01662,-0.01363,0.51894
-0.1807,0.947,-0.26558,-0.27388,-0.121,0.46078
-0.18036,0.94512,-0.27242,-0.32698,-0.15375,0.40647
-0.17469,0.94652,-0.27125,-0.32403,-0.24538,0.27515
-0.1683,0.94957,-0.26452,-0.23867,-0.26259,0.16314
-0.16602,0.95294,-0.25364,-0.18678,-0.24862,0.17602
-0.16906,0.95654,-0.23757,-0.11138,-0.21422,0.18451
-0.17275,0.96062,-0.21762,0.2121,-0.1109,-0.07784
-0.17492,0.96435,-0.19853,0.22659,-0.04976,-0.20289
-0.17469,0.9677,-0.18174,0.29847,0.15483,-0.38845
-0.17098,0.97103,-0.1669,0.40185,0.24409,-0.56624
-0.16683,0.97317,-0.15842,0.43497,0.10071,-0.49519
-0.16222,0.97541,-0.14912,0.14688,0.51792,0.51138
-0.15596,0.97685,-0.14637,-0.38283,1.40765,-0.47437
-0.15446,0.97469,-0.16156,-0.65461,1.09235,-0.57168
-0.15292,0.9677,-0.20041,-0.3337,-0.63823,0.8947
-0.16481,0.9567,-0.23989,-0.05284,-0.67014,1.08364
-0.18902,0.94957,-0.25013,-0.1569,-0.03643,1.06158
-0.212,0.94681,-0.24207,-0.07725,0.3331,0.72743
-0.23307,0.94455,-0.2313,0.22438,0.57755,0.06064
-0.25446,0.94903,-0.18598,0.42973,0.28202,0.23752
-0.25748,0.9569,-0.13431,0.16727,-0.01348,-0.0942
-0.24293,0.96393,-0.1087,-0.16375,-0.08218,-0.24887
-0.22797,0.96934,-0.09166,-0.21899,-0.07868,-0.1599
-0.22321,0.97209,-0.07215,0.00287,-0.10866,0.02462
-0.22516,0.97285,-0.05343,0.04766,-0.07884,-0.06907
-0.22871,0.97288,-0.03448,0.08145,-0.12655,-0.10626
-0.23115,0.97272,-0.01903,0.24833,-0.10239,-0.23144
-0.23133,0.97285,-0.00612,0.20121,-0.10015,-0.16007
-0.22927,0.97335,-7e-05,0.18891,-0.11262,-0.18789
-0.22607,0.9741,0.00188,0.17745,-0.16555,-0.1104
-0.22217,0.975,-0.00308,0.01607,-0.16297,-0.09684
-0.221,0.97524,-0.0073,-0.14402,-0.18192,-0.16182
-0.22384,0.97458,-0.0086,-0.1844,-0.31946,-0.09476
-0.22893,0.97331,-0.01571,0.03488,-0.36128,-0.02491
-0.23563,0.97151,-0.02509,0.09218,-0.28165,-0.15488
-0.23781,0.97085,-0.02969,0.18374,-0.15309,-0.25449
-0.23361,0.97157,-0.03837,0.27754,0.24137,-0.53554
-0.22599,0.97257,-0.05501,0.26992,0.24037,-0.51891
-0.21703,0.97309,-0.07737,0.42852,0.29798,-0.91195
-0.2057,0.9712,-0.12015,0.29002,0.37023,-0.43263
-0.18887,0.96425,-0.18585,0.08641,0.35697,-0.28063
-0.17054,0.94991,-0.26188,-0.06145,0.4539,-0.44722
-0.16758,0.92003,-0.35419,-0.05994,0.18156,0.75756
-0.17076,0.88197,-0.43927,-0.03307,0.1145,1.05101
-0.16556,0.85169,-0.4972,0.06528,0.04146,1.16298
-0.14888,0.84336,-0.51631,0.14335,0.4785,0.99658
-0.11503,0.85302,-0.50903,-0.37533,0.30623,0.17376
-0.07292,0.86888,-0.48961,-0.46801,0.03966,0.01842
-0.04556,0.88682,-0.45986,-0.13648,-0.25601,0.29598
-0.03843,0.90396,-0.42588,-0.22058,-0.46028,0.47374
-0.04393,0.92165,-0.38552,-0.43337,-0.48609,0.37959
-0.05386,0.93974,-0.3376,-0.46821,-0.40443,0.25542
-0.06578,0.95717,-0.28195,-0.41662,-0.138,0.04318
-0.09107,0.97121,-0.2201,-0.26184,0.20292,-0.17036
-0.13595,0.97679,-0.1655,-0.18276,0.27176,-0.3868
-0.17812,0.97572,-0.12743,0.21264,0.10868,-0.48343
-0.18148,0.97836,-0.09927,0.66041,0.20445,-0.73469
-0.1799,0.98003,-0.08464,0.69717,-0.14084,-0.61154
-0.18239,0.98018,-0.0773,0.61086,-0.95268,-0.39213
-0.17924,0.98106,-0.07337,0.25678,-1.15688,-0.06396
-0.16561,0.9824,-0.08632,-0.31608,-0.09454,-0.37081
-0.15349,0.98223,-0.10793,-0.62787,0.39825,-0.29552
-0.15114,0.98252,-0.10861,-0.84765,1.77039,-0.20922
-0.15431,0.98263,-0.10301,-0.1002,-0.13479,0.36925
-0.14844,0.98206,-0.11623,0.00322,-0.29717,0.538
-0.14454,0.98137,-0.12652,-0.06191,0.69199,-0.52674
-0.14864,0.98322,-0.10568,0.81086,0.68115,-0.39316
-0.14479,0.98284,-0.11423,0.28923,-0.06765,0.17413
-0.14086,0.98195,-0.12616,0.07992,-0.23529,-0.01859
-0.14148,0.98265,-0.11988,0.09169,0.25327,-0.78318
-0.14237,0.98304,-0.11556,0.17607,0.43467,-0.93998
-0.13304,0.98006,-0.14755,-0.33039,0.27607,-0.82325
-0.12558,0.97427,-0.18714,-0.20972,0.09078,-0.43835
-0.12341,0.96246,-0.24171,-0.02093,-0.16573,0.04388
-0.12581,0.94347,-0.30662,-0.11407,-0.3639,0.42048
-0.1305,0.91777,-0.37504,-0.18272,-0.55997,0.80136
-0.13731,0.8895,-0.43581,-0.14465,-0.45273,0.91436
-0.1387,0.87141,-0.47053,-0.0683,0.30425,0.91483
-0.13263,0.86861,-0.47741,0.269,0.87144,0.53134
-0.10917,0.87813,-0.46579,0.21347,0.64387,0.34619
-0.07869,0.88978,-0.44956,-0.28984,0.08349,0.08649
-0.04739,0.90679,-0.41891,-0.2463,-0.22992,0.07412
-0.03662,0.9233,-0.38231,-0.28582,-0.37554,0.09425
-0.04279,0.93877,-0.34185,-0.32897,-0.45077,0.18592
-0.06071,0.95506,-0.29011,-0.29612,-0.54808,-0.00865
-0.09165,0.96909,-0.22905,-0.11951,-0.22142,-0.21177
-0.12988,0.9758,-0.17589,0.37756,-0.15436,-0.04463
-0.138,0.97974,-0.14511,0.55725,0.03779,-0.65523
-0.14024,0.98293,-0.11906,0.60179,0.06734,-0.50035
-0.14573,0.98474,-0.09506,0.425,0.06987,-0.19732
-0.14987,0.98572,-0.07671,0.2615,0.01771,-0.14725
-0.14558,0.98705,-0.06734,-0.31103,0.12894,-0.54297
-0.13498,0.98795,-0.07561,-0.48522,0.21993,0.41811
-0.13517,0.98531,-0.10428,-0.60186,0.55027,0.68925
-0.14684,0.98306,-0.10964,-0.63665,0.713,0.01904
-0.16203,0.9842,-0.07122,-0.85048,2.61055,-2.9744
-0.16287,0.98371,-0.076,0.70156,-0.47109,0.55867
-0.14621,0.97882,-0.14328,0.0585,-0.47616,0.5179
-0.14009,0.97532,-0.17063,-0.1277,0.11666,0.8696
-0.14679,0.97388,-0.17321,-0.02405,-0.04332,0.40718
-0.15954,0.97452,-0.15763,0.04031,0.06117,0.05747
-0.17518,0.97739,-0.11835,0.17748,0.09996,-0.43702
-0.18613,0.98097,-0.05512,0.09666,-0.19508,-0.54286
-0.19096,0.9813,-0.02395,0.17704,-0.3574,-0.34673
-0.19563,0.98008,-0.03415,0.38009,-0.31494,-0.06838
-0.19739,0.9796,-0.03762,0.36711,-0.24894,-0.29559
-0.1946,0.98035,-0.03207,0.26088,-0.20427,-0.49187
-0.19053,0.98116,-0.03184,0.04401,0.01835,-0.4387
-0.18555,0.98159,-0.04516,-0.02807,-0.0555,-0.4336
-0.18229,0.98088,-0.06806,-0.09674,-0.08586,-0.57759
-0.18191,0.97754,-0.10631,-0.12883,-0.0261,-0.38783
-0.17916,0.97104,-0.15801,-0.03804,0.15587,-0.39515
-0.16981,0.9617,-0.21517,0.08674,0.45424,-0.3697
-0.1659,0.94269,-0.28949,0.00286,0.54692,0.28659
-0.16585,0.91833,-0.35939,-0.16299,0.4179,0.61946
-0.16504,0.89477,-0.4149,-0.32933,0.08675,0.84025
-0.15548,0.8777,-0.45327,-0.02031,-0.22547,0.54597
-0.14764,0.87512,-0.46082,0.13637,-0.10425,0.5725
-0.13962,0.87837,-0.45713,-0.12506,0.25962,0.36314
-0.12182,0.88914,-0.44112,-0.24104,0.03753,0.06949
-0.10923,0.90287,-0.41579,-0.15159,-0.19888,0.19463
-0.10917,0.91616,-0.38564,-0.19676,-0.37086,0.25244
-0.12047,0.92923,-0.3493,-0.22241,-0.36389,0.2435
-0.1339,0.94395,-0.30168,-0.0886,-0.42824,0.31659
-0.14555,0.9585,-0.24512,-0.07695,-0.44278,0.26003
-0.16216,0.96859,-0.18851,0.00817,-0.17493,0.03615
-0.18145,0.97349,-0.13921,0.23916,0.47319,-0.50326
-0.19487,0.97604,-0.09676,0.25258,0.47065,-0.54571
-0.1995,0.97778,-0.06432,0.41633,0.09864,-0.7856
-0.19966,0.97913,-0.03784,0.4573,-0.48546,-0.48455
-0.19742,0.98001,-0.02442,0.27689,-0.49461,-0.44549
-0.18777,0.98157,-0.0353,0.20542,-0.46952,-0.54719
-0.17713,0.98146,-0.07306,-0.61174,0.27938,0.39336
-0.16859,0.9806,-0.09992,-0.93515,0.99765,0.28564
-0.16782,0.98203,-0.08623,-0.25131,0.93095,0.39708
-0.17738,0.98202,-0.06452,0.09459,0.33126,-1.26915
-0.17462,0.98356,-0.04591,0.43637,1.00421,-0.64832
-0.16399,0.98273,-0.08563,0.00828,0.03743,0.76907
-0.15478,0.97911,-0.13178,-0.12179,-0.21234,0.51766
-0.15841,0.97588,-0.15018,-0.05126,-0.29256,0.36382
-0.16596,0.97537,-0.14524,-0.11012,-0.06862,0.37137
-0.17372,0.97729,-0.12131,-0.05706,0.26842,-0.48057
-0.18403,0.98131,-0.05607,-0.19628,0.55198,-1.88302
-0.17489,0.98056,-0.08891,0.00201,0.10098,-0.4003
-0.16561,0.97704,-0.13397,-0.06567,0.02366,-0.71741
-0.15767,0.9714,-0.1775,-0.02811,0.18405,-0.69216
-0.14622,0.9569,-0.25089,-0.22243,-0.12928,0.30934
-0.13987,0.93583,-0.32348,-0.18965,-0.3222,0.59513
-0.13714,0.90884,-0.39395,0.03856,-0.4721,0.91692
-0.13966,0.88412,-0.44589,-0.05034,0.08852,1.03142
-0.14197,0.8723,-0.46791,0.11156,0.52509,0.5127
-0.14597,0.87086,-0.46935,0.0526,0.28983,0.32607
-0.13062,0.87473,-0.46667,-0.1439,-0.04656,0.57453
-0.13384,0.8749,-0.46543,-0.4548,-0.1544,0.37336
-0.13628,0.88484,-0.44551,-0.26842,-0.18791,0.14764
-0.13317,0.90457,-0.40498,-0.15278,-0.32734,0.1826
-0.13565,0.92557,-0.35342,-0.14617,-0.23809,0.17345
-0.14623,0.94687,-0.28643,-0.247,0.15361,0.08362
-0.16175,0.96498,-0.20647,-0.11749,0.28558,-0.0216
-0.1704,0.97521,-0.1411,0.31728,0.50562,-0.67599
-0.17049,0.98002,-0.10241,0.58838,0.15905,-0.83855
-0.17566,0.98061,-0.08682,0.54918,-0.34876,-0.50331
-0.18381,0.9794,-0.08353,0.37002,-0.8358,0.07711
-0.18655,0.97756,-0.09778,0.13803,-0.79678,-0.24643
-0.18929,0.97583,-0.10917,-0.01179,-0.28029,-0.41312
-0.19602,0.97598,-0.09504,-0.12629,0.53878,0.74367
-0.19396,0.97677,-0.09107,-0.27415,1.05403,0.66341
-0.18657,0.97846,-0.08826,-0.83893,1.10749,-0.71831
-0.18107,0.98167,-0.0594,0.78338,-0.06677,0.94987
-0.17359,0.98072,-0.08962,0.16137,-0.21749,0.85071
-0.16395,0.97545,-0.14699,-0.09858,-0.28423,0.67531
-0.16643,0.97042,-0.17487,-0.07885,-0.11156,0.54595
-0.17682,0.96891,-0.17302,-0.07318,-0.06029,0.50198
-0.18753,0.96996,-0.15488,-0.0399,-0.01756,0.39966
-0.20045,0.97324,-0.11229,-0.09514,0.2154,-0.62346
-0.20315,0.97673,-0.06866,0.09217,0.0106,-0.25686
-0.20252,0.97509,-0.09044,0.14161,-0.00112,-0.24872
-0.20556,0.97314,-0.10357,0.28007,0.23407,-0.87093
-0.20395,0.97051,-0.1285,0.13997,0.18521,-0.84358
-0.20122,0.96401,-0.17371,-0.02223,0.11126,-0.5964
-0.20072,0.95338,-0.22532,-0.08041,-0.07757,0.19923
-0.19761,0.93596,-0.29141,-0.09523,-0.10603,0.38719
-0.19851,0.9109,-0.36173,-0.07898,-0.23215,0.58611
-0.21124,0.88278,-0.4196,0.09907,-0.33785,0.97101
-0.22276,0.86393,-0.45167,0.22133,-0.19889,0.80016
-0.21395,0.86421,-0.45537,0.38689,0.09272,0.5497
-0.18807,0.87429,-0.44749,0.25606,0.13194,0.40888
-0.16623,0.8834,-0.43813,-0.33274,0.23139,0.47754
-0.14208,0.89994,-0.4122,-0.43721,0.32404,-0.11934
-0.12644,0.92265,-0.36431,-0.15341,0.03968,-0.22291
-0.12226,0.94384,-0.30693,-0.12252,-0.0241,-0.24661
-0.12505,0.96038,-0.24903,-0.15765,-0.33898,-0.0282
-0.1329,0.9702,-0.20256,-0.20774,-0.49488,0.08746
-0.149,0.97347,-0.17363,-0.41155,-0.07798,0.24386
-0.16539,0.97537,-0.14587,0.10864,0.16357,-0.39581
-0.17428,0.97852,-0.11005,0.44565,0.17772,-0.73694
-0.18654,0.97895,-0.0827,0.52449,0.18763,-0.66753
-0.19657,0.97826,-0.06594,0.60927,-0.20335,-0.27708
-0.19914,0.97833,-0.05664,0.59979,-0.53935,-0.06146
-0.19559,0.97941,-0.04985,0.19667,-0.79428,0.22394
-0.18488,0.98087,-0.06087,-0.072,-0.42331,0.24256
-0.17992,0.98069,-0.07654,-0.26427,0.34037,-0.04481
-0.18839,0.97974,-0.0679,-0.48109,0.82104,0.15732
-0.19512,0.98009,-0.03661,-0.19111,0.59732,-0.12843
-0.19714,0.97977,-0.03411,-0.08559,0.59544,-1.34509
-0.18564,0.98135,-0.04986,0.29394,0.5525,0.02927
-0.17197,0.98194,-0.07879,-0.06904,-0.04618,0.63589
-0.16537,0.98033,-0.10766,-0.06305,-0.15965,0.37863
-0.17117,0.97849,-0.11508,0.09359,-0.11811,0.16791
-0.18283,0.97789,-0.10141,0.2483,0.29287,-0.56537
-0.1901,0.97933,-0.069,0.17365,0.39178,-1.18925
-0.18219,0.97909,-0.09037,-0.04149,0.22573,-0.75546
-0.17595,0.97632,-0.12581,0.01439,0.1344,-0.57729
-0.17329,0.97172,-0.16035,0.44911,0.12499,-0.43549
-0.16727,0.96052,-0.2223,0.0894,-0.0656,0.13259
-0.16382,0.94358,-0.28776,-0.3004,-0.49517,0.52783
-0.16129,0.92164,-0.35293,-0.30279,-0.70934,0.79223
-0.15898,0.89823,-0.40976,-0.23453,-0.66336,0.8941
-0.15653,0.88559,-0.43729,-0.25754,0.02474,0.72576
-0.16274,0.88543,-0.43533,0.46,0.51453,0.45141
-0.15085,0.89304,-0.42394,0.33126,0.35776,0.34105
-0.1319,0.89988,-0.4157,0.06053,0.12754,0.2768
-0.13157,0.90496,-0.40463,-0.35522,0.03069,0.17751
-0.14033,0.91398,-0.38072,-0.37817,0.10067,0.09047
-0.1511,0.92884,-0.33826,-0.37114,0.12886,0.00968
-0.16603,0.94623,-0.27762,-0.19689,-0.01471,-0.03421
-0.18769,0.96039,-0.20594,-0.21293,-0.16477,0.02111
-0.20716,0.96626,-0.15299,-0.14891,-0.14407,0.03156
-0.20874,0.97243,-0.10393,0.36719,0.19852,-0.92467
-0.20944,0.97547,-0.06764,0.39253,0.02645,-0.94083
-0.21316,0.97578,-0.04892,0.44831,-0.27884,-0.74302
-0.2156,0.9753,-0.04781,0.50927,-0.9713,-0.15594
-0.21323,0.97509,-0.06104,0.3347,-0.9812,0.01095
-0.20416,0.97554,-0.08142,-0.40072,-0.3885,0.05699
-0.19228,0.97753,-0.08631,-0.59274,1.29635,0.37945
-0.1854,0.97984,-0.07427,-0.83423,1.81174,0.10252
-0.18622,0.98142,-0.04606,-0.16623,0.48759,-0.16567
-0.18621,0.98234,-0.01761,0.14559,0.78687,-1.0159
-0.17945,0.98327,-0.0309,0.2845,0.46405,0.25362
-0.17746,0.98145,-0.07252,-0.05429,-0.05395,0.39397
-0.18032,0.98035,-0.07991,0.15201,-0.17778,-0.03581
-0.18878,0.98029,-0.05807,0.34837,0.02656,-0.58
-0.19085,0.98099,-0.03494,0.35095,0.42851,-0.97487
-0.18254,0.98144,-0.05862,-0.1755,0.23255,-0.49618
-0.18257,0.97961,-0.08378,-0.14914,0.11703,-0.53756
-0.18936,0.97429,-0.12199,0.32814,0.12248,-0.49789
-0.19265,0.96447,-0.18078,0.19808,0.19651,-0.14703
-0.19565,0.94745,-0.25308,0.0469,0.15132,0.11124
-0.2076,0.92138,-0.32855,-0.08903,-0.2131,0.71566
-0.23056,0.88775,-0.39842,-0.03431,-0.20492,0.97772
-0.2493,0.85822,-0.44866,-0.00384,-0.1243,0.95272
-0.24259,0.85518,-0.45805,0.36369,0.48368,0.50748
-0.21201,0.87026,-0.44463,0.27425,0.53689,0.22154
-0.17829,0.87999,-0.44026,-0.15472,0.33325,0.24729
-0.14282,0.89372,-0.42527,-0.28526,-0.08293,-0.03052
-0.11848,0.91043,-0.39631,-0.14655,-0.21766,0.06832
-0.11038,0.92571,-0.36174,-0.21497,-0.25929,0.03307
-0.12053,0.93774,-0.32573,-0.09156,-0.37333,0.04773
-0.13969,0.94752,-0.28753,-0.04604,-0.26716,0.0684
-0.1645,0.95409,-0.25028,-0.07117,-0.17478,0.04171
-0.19175,0.95737,-0.216,-0.05633,-0.24282,0.00379
-0.21798,0.95855,-0.18346,-0.1816,-0.18746,0.07385
-0.23774,0.95928,-0.15247,-0.11838,-0.04584,-0.14393
-0.25625,0.95803,-0.12848,0.20088,0.35669,-0.82241
-0.27011,0.95617,-0.11296,0.76246,0.20656,-1.21128
-0.27345,0.95643,-0.10222,0.85034,0.07642,-0.6971
-0.26798,0.9585,-0.09721,0.64275,-0.13803,-0.36971
-0.25514,0.96133,-0.1036,0.30597,-0.23422,-0.50674
-0.244,0.96303,-0.11413,-0.0551,0.09143,-0.87908
-0.23979,0.96101,-0.13762,-0.1476,0.37399,0.99344
-0.24361,0.94637,-0.21218,-1.16534,1.24995,0.26853
-0.23471,0.94297,-0.23602,-1.17424,1.25335,0.29237
-0.2557,0.947,-0.19439,0.08028,0.14734,1.05387
-0.2687,0.94029,-0.20891,0.30125,0.06696,0.01734
-0.28546,0.93408,-0.21445,0.41833,0.2435,0.61977
-0.29896,0.93178,-0.20591,0.24628,0.40686,0.93505
-0.29982,0.93846,-0.1714,-0.01248,0.35747,0.50404
-0.29365,0.94856,-0.11829,-0.12701,0.32868,0.1279
-0.28429,0.95764,-0.04572,-0.40979,0.20105,-0.42741
-0.27732,0.96065,0.01481,-0.48835,-0.11101,-0.25959
-0.28078,0.95902,0.03771,-0.01245,-0.18339,-0.12882
-0.2854,0.95698,0.05215,0.28207,-0.21842,0.01354
-0.28581,0.95577,0.06933,0.30897,-0.39032,-0.01186
-0.28345,0.95455,0.09203,0.12666,-0.32603,-0.1185
-0.28122,0.95193,0.12133,-0.19465,-0.11183,-0.04025
-0.28342,0.94689,0.15183,-0.13731,-0.10857,-0.053
-0.29177,0.94,0.1768,-0.04868,-0.08276,-0.08842
-0.30312,0.93205,0.19847,0.17841,0.13993,-0.15794
-0.31507,0.92324,0.21985,0.33615,0.10636,-0.1805
-0.32384,0.9157,0.23792,0.30672,0.17697,-0.40039
-0.32586,0.90936,0.25856,0.07183,0.25113,-0.63482
-0.32081,0.90248,0.28739,-0.05962,0.21569,-0.57145
-0.31721,0.89791,0.30516,-0.09118,0.28016,-0.71596
-0.31971,0.8964,0.30696,0.14682,0.2885,-0.96543
-0.32424,0.89925,0.2936,0.2076,0.3817,-1.0671
-0.33403,0.90574,0.26084,0.32477,0.55022,-0.67113
-0.35339,0.91219,0.20739,0.48263,0.52507,-0.29137
-0.3711,0.91801,0.13972,0.78905,1.03317,-0.06527
-0.37435,0.9249,0.06643,0.90621,1.10945,0.41878
-0.36749,0.92999,0.00767,0.59186,0.6646,0.82503
-0.36141,0.9309,-0.05289,0.38747,0.42383,0.84037
-0.35381,0.92865,-0.11142,0.30674,0.32479,0.76212
-0.34168,0.92766,-0.15064,0.20897,0.36221,0.58252
-0.3202,0.93216,-0.16892,0.28909,0.2698,0.5138
-0.28475,0.94141,-0.1807,0.38831,0.06471,0.5172
-0.24816,0.94885,-0.19514,0.31419,-0.11402,0.77466
-0.21566,0.95565,-0.20051,0.281,-0.19413,0.84335
-0.18737,0.96385,-0.18942,0.13724,-0.16387,0.79501
-0.16943,0.96917,-0.17888,0.00158,-0.07982,0.58109
-0.15999,0.97209,-0.17153,-0.04037,-0.05193,0.58248
-0.15587,0.97373,-0.16598,-0.11512,-0.12537,0.4063
-0.15569,0.97428,-0.16285,-0.19725,-0.00022,0.26385
-0.1571,0.975,-0.15709,-0.15986,0.21707,0.09777
-0.1586,0.97553,-0.15225,-0.18033,0.1799,0.07379
-0.16151,0.97506,-0.15219,-0.18149,0.07565,0.08606
-0.16761,0.9735,-0.15555,-0.17606,-0.1169,0.25138
-0.17569,0.97124,-0.16064,-0.17697,-0.184,0.28597
-0.18369,0.96923,-0.16385,-0.15382,-0.32863,0.25361
-0.1925,0.96789,-0.1616,0.03115,-0.37401,0.16529
-0.2041,0.96703,-0.15227,0.10187,-0.30647,0.13808
-0.21514,0.96703,-0.13623,0.13575,-0.05431,0.02178
-0.22201,0.9681,-0.1161,0.11941,0.2911,-0.50443
-0.22146,0.96973,-0.10277,0.38429,0.25697,-0.44621
-0.21338,0.97193,-0.09906,0.59472,0.06874,-0.02498
-0.20013,0.97473,-0.09914,0.37954,0.38563,0.11275
-0.18956,0.97648,-0.10265,-0.12387,1.01616,0.09484
-0.18389,0.97553,-0.12043,-0.25843,0.18732,0.0263
-0.17358,0.97412,-0.14475,-0.23845,-0.54353,0.32092
-0.17755,0.97125,-0.15855,-0.25603,-0.68737,0.49462
-0.19616,0.96804,-0.15623,-0.13365,-0.08793,0.70405
-0.21672,0.96519,-0.14637,-0.04772,0.20276,0.56893
-0.23814,0.95962,-0.14968,0.01283,0.46813,0.39053
-0.26172,0.95185,-0.15959,0.07652,0.39316,-0.13238
-0.28545,0.9483,-0.13867,0.2038,0.16303,0.25437
-0.30192,0.94829,-0.09786,0.34036,0.088,0.40647
-0.30614,0.94937,-0.07038,0.30641,0.05282,0.19112
-0.29736,0.95326,-0.05346,0.13792,0.0603,0.09625
-0.28341,0.95837,-0.03459,-0.11645,-0.03457,0.15005
-0.26838,0.96323,-0.01192,-0.30901,-0.1046,0.03723
-0.25772,0.96616,0.01033,-0.26839,-0.10396,-0.14046
-0.25651,0.96602,0.03148,-0.05496,-0.15053,-0.0966
-0.25928,0.96425,0.05454,0.12456,-0.10782,-0.00177
-0.26273,0.96165,0.07865,0.16853,-0.01721,-0.01827
-0.26648,0.95839,0.10232,0.132,0.0492,-0.08189
-0.27147,0.95416,0.12594,0.20257,-0.00462,-0.11768
-0.27645,0.94956,0.14794,0.23893,-0.02955,-0.16204
-0.28025,0.94455,0.17105,0.31811,0.0887,-0.32617
-0.27937,0.93958,0.19778,0.34892,0.26957,-0.61306
-0.27159,0.93625,0.22281,-0.06636,0.25523,-1.12208
-0.26129,0.93767,0.22908,-0.07666,0.25381,-1.12834
-0.26663,0.94454,0.19169,-0.15088,0.16653,-0.59927
-0.28275,0.949,0.13938,0.00336,0.19618,-0.60524
-0.29715,0.952,0.0734,0.04102,0.49355,-0.43194
-0.3041,0.95247,-0.01763,0.05837,0.96285,-0.14363
-0.30596,0.94616,-0.10564,0.19168,0.61656,0.96126
-0.30497,0.93311,-0.19051,0.23905,0.69562,1.17377
-0.29534,0.91843,-0.26316,0.28025,0.586,1.13628
-0.27531,0.91102,-0.30697,0.14067,0.29347,0.36976
-0.2445,0.90895,-0.33766,0.07852,0.26254,0.32627
-0.20779,0.90515,-0.37084,-0.03848,0.21859,0.34012
-0.1765,0.90024,-0.39801,0.04851,-0.06579,0.47385
-0.15011,0.89594,-0.41803,0.07209,-0.16687,0.49683
-0.12707,0.89301,-0.43172,0.12076,-0.25261,0.52962
-0.11248,0.89233,-0.43714,-0.00693,-0.47862,0.54801
-0.10913,0.89198,-0.43869,-0.03753,-0.51423,0.55513
-0.11369,0.89297,-0.43551,-0.06929,-0.57797,0.52387
-0.12369,0.89638,-0.42568,-0.26042,-0.58642,0.50466
-0.13534,0.90203,-0.40989,-0.25216,-0.59564,0.50697
-0.14528,0.90962,-0.38921,-0.24232,-0.59457,0.50592
-0.15384,0.91853,-0.36418,-0.27108,-0.4669,0.46472
-0.16636,0.92801,-0.33334,-0.26322,-0.36095,0.356
-0.18572,0.93717,-0.29533,-0.07516,0.13492,0.1498
-0.20933,0.94564,-0.24887,0.1689,0.2189,-0.27085
-0.23052,0.95496,-0.18683,0.25037,0.23782,-0.4945
-0.24284,0.96204,-0.12448,0.37147,0.27032,-0.52499
-0.24301,0.96504,-0.09811,0.3873,0.02316,-0.47359
-0.23318,0.96767,-0.09606,0.2196,-0.15656,-0.46369
-0.22231,0.96946,-0.10352,0.09658,-0.48023,-0.36102
-0.21597,0.96971,-0.11407,0.17373,-0.41731,0.47838
-0.21625,0.96665,-0.13718,0.31378,-0.18587,0.56443
-0.21752,0.96327,-0.15746,-0.35453,0.37484,0.47002
-0.21528,0.96372,-0.15778,-0.62684,0.78521,0.19649
-0.20967,0.96765,-0.14029,-0.40384,0.28664,0.46348
-0.20733,0.97305,-0.1009,0.75792,1.91928,-2.21502
-0.19948,0.97459,-0.10181,0.43343,-0.23008,0.98869
-0.17152,0.96984,-0.17317,-0.17802,-0.10666,0.59671
-0.1579,0.96412,-0.21338,-0.13648,-0.08642,0.80105
-0.15788,0.96088,-0.22755,-0.12387,0.01903,0.57287
-0.16341,0.96323,-0.21324,-0.1057,0.17663,0.46762
-0.17616,0.969,-0.17316,-0.08337,0.29511,0.41329
-0.19031,0.97329,-0.12837,0.52126,0.62586,-2.63358
-0.19595,0.97799,-0.07163,0.01053,0.23957,-1.74712
-0.17472,0.97509,-0.1366,-0.51342,0.03814,0.20842
-0.16804,0.96622,-0.19537,-0.30809,-0.22586,-0.34963
-0.18496,0.95101,-0.24771,0.06377,-0.34473,0.10728
-0.20183,0.92571,-0.31986,0.23412,-0.48411,0.31071
-0.20934,0.8983,-0.38629,0.2073,-0.68984,0.73728
-0.22301,0.86874,-0.44221,0.22097,-0.66027,0.7932
-0.2399,0.84317,-0.48114,0.12769,-0.26268,0.91653
-0.24077,0.83332,-0.4976,-0.05659,1.2176,0.64784
-0.23074,0.83704,-0.4961,-0.09078,0.75897,0.54736
-0.2058,0.8499,-0.48509,-0.14004,0.25612,0.4319
-0.17243,0.86826,-0.46516,-0.36372,-0.06889,0.33685
-0.15718,0.8825,-0.44327,-0.56503,-0.09693,0.26245
-0.15093,0.90176,-0.40502,-0.48206,-0.14021,0.14498
-0.14932,0.92636,-0.34576,-0.30544,-0.07292,-0.05762
-0.15966,0.9473,-0.27771,-0.13418,0.26809,-0.32383
-0.18185,0.95718,-0.22523,0.15479,0.43544,-0.43166
-0.19873,0.96084,-0.19306,0.33141,0.03983,-0.39728
-0.2109,0.96273,-0.16929,0.31637,-0.03542,-0.32166
-0.22296,0.9633,-0.14943,0.22385,-0.02026,-0.13504
-0.23074,0.96418,-0.13079,0.25048,-0.0591,-0.08384
-0.22963,0.96656,-0.1141,0.26589,-0.27039,-0.09455
-0.22223,0.96955,-0.10283,0.19211,-0.39504,-0.10837
-0.21439,0.97162,-0.09984,0.07552,-0.2615,-0.54475
-0.21046,0.97194,-0.10501,0.23627,-0.02416,-0.1924
-0.20057,0.97145,-0.12663,-0.46135,0.26521,0.37706
-0.18353,0.9717,-0.14867,-0.8311,0.70847,0.06889
-0.18022,0.97385,-0.13832,-0.3353,1.8042,-1.81107
-0.19251,0.97438,-0.1162,0.80102,-0.41823,0.51505
-0.18158,0.9682,-0.17208,0.0013,-0.23953,0.59108
-0.17389,0.96283,-0.20668,-0.01637,-0.0489,0.5036
-0.17951,0.9613,-0.20897,0.07024,0.14914,0.23018
-0.19228,0.96391,-0.18411,0.14908,0.2271,-0.06943
-0.20347,0.96915,-0.13903,0.12414,0.13146,-0.43664
-0.20382,0.97258,-0.11198,0.0611,-0.04576,-0.44341
-0.20274,0.97191,-0.11949,0.03417,0.14511,-0.66491
-0.20233,0.96982,-0.13601,0.03439,0.38618,-1.21052
-0.19299,0.96591,-0.17253,-0.10317,0.24061,-0.45647
-0.1886,0.95623,-0.22372,-0.02299,-0.04763,-0.15749
-0.18792,0.94002,-0.28468,-0.11495,-0.23398,0.1159
-0.18006,0.91783,-0.35379,-0.20852,-0.37003,0.59826
-0.16989,0.89305,-0.41664,-0.13196,-0.50009,0.90593
-0.16251,0.87089,-0.46382,-0.17686,-0.26926,0.94738
-0.16562,0.86075,-0.48132,-0.03404,0.4872,0.7489
-0.17264,0.86516,-0.47083,0.43405,0.432,0.45699
-0.15393,0.87627,-0.45656,0.1141,3e-05,0.47831
-0.13751,0.8885,-0.43779,-0.11795,-0.02624,0.33099
-0.13244,0.90257,-0.40966,-0.28174,-0.05769,0.27754
-0.13148,0.92022,-0.36864,-0.36468,-0.02548,0.30413
-0.13162,0.94019,-0.31419,-0.40393,0.04782,0.29875
-0.13989,0.95897,-0.24656,-0.25688,-0.23279,0.05385
-0.1659,0.97048,-0.17503,-0.19647,-0.31312,-0.09737
-0.19147,0.97369,-0.12355,-0.04507,-0.36466,-0.0934
-0.19876,0.97423,-0.10657,0.77116,-0.40898,-1.10638
-0.20602,0.97303,-0.10369,0.73307,-0.67507,-1.18932
-0.21718,0.9715,-0.09494,0.64804,-0.78381,-1.19779
-0.22297,0.96863,-0.10965,0.32647,0.3538,0.85596
-0.22187,0.96252,-0.1559,0.06611,0.62113,1.45415
-0.20804,0.96036,-0.18549,-0.32158,1.12925,1.01377
-0.20212,0.96776,-0.15027,-0.4209,0.92809,-1.62906
-0.19223,0.97348,-0.12397,-0.06854,1.08371,-0.89362
-0.17788,0.96972,-0.16729,0.12582,0.43104,0.59594
-0.17197,0.96391,-0.20319,-0.04022,0.0164,0.21176
-0.18027,0.96507,-0.19008,-0.0078,0.26543,-0.60832
-0.17836,0.96623,-0.18594,0.08743,0.56726,-1.11275
-0.16015,0.95989,-0.23011,-0.2374,0.26756,-0.5816
-0.14521,0.95361,-0.26369,-0.24713,0.26618,-0.8384
-0.13774,0.93474,-0.32754,-0.18906,-0.24275,0.56281
-0.1333,0.90882,-0.3953,-0.15181,-0.7012,0.91916
-0.12776,0.87905,-0.45928,-0.09259,-0.9461,1.0375
-0.13185,0.8551,-0.50142,0.06274,-0.98866,1.10611
-0.13984,0.85177,-0.50489,0.0724,-0.05693,0.89013
-0.13503,0.86197,-0.48864,-0.09059,0.82526,0.65282
-0.12613,0.87423,-0.46884,-0.09955,0.90226,0.29213
-0.11743,0.88795,-0.44468,-0.17577,0.35915,-0.06095
-0.11124,0.90695,-0.40628,-0.14201,0.13737,-0.10417
-0.11703,0.92467,-0.36232,-0.30242,-0.11304,0.08191
-0.1312,0.94047,-0.31351,-0.33679,-0.15144,-0.14848
-0.15606,0.95451,-0.25407,-0.39973,-0.23443,-0.28236
-0.18835,0.96091,-0.2029,-0.16091,0.03056,-0.21722
-0.21271,0.96017,-0.18113,0.16511,0.30173,-0.28892
-0.20682,0.96488,-0.16191,0.45936,0.5008,-0.81979
-0.21263,0.9669,-0.14097,0.59062,-0.08758,-0.85594
-0.22471,0.96649,-0.12402,1.07621,-0.6733,-0.18644
-0.23259,0.96408,-0.1282,1.12857,-0.85934,0.40751
-0.2187,0.96206,-0.16306,0.1857,-0.51168,0.84164
-0.19638,0.9615,-0.19221,-0.60442,0.00344,-0.82549
-0.19295,0.97004,-0.14757,-1.0371,1.59733,-0.44766
-0.20176,0.97284,-0.11342,-0.36781,0.53699,-0.39565
-0.20298,0.96933,-0.13848,-0.12139,0.67116,-0.53387
-0.1925,0.96959,-0.15106,0.16126,0.24367,0.69024
-0.17963,0.96909,-0.16907,0.05585,-0.02765,0.51424
-0.17847,0.9686,-0.17305,0.14931,-0.09445,0.21683
-0.185,0.97078,-0.15279,0.20005,0.15917,-0.46362
-0.18383,0.9729,-0.14015,0.03907,0.26026,-0.80063
-0.17558,0.97068,-0.1641,-0.30236,0.31292,-0.81614
-0.16893,0.96655,-0.19291,-0.30891,0.16653,-0.70692
-0.16078,0.95778,-0.2383,-0.07028,0.1413,-0.23124
-0.15553,0.93983,-0.30417,0.00241,0.02802,0.13412
-0.16254,0.91178,-0.37713,-0.01994,-0.04082,0.26134
-0.17721,0.87604,-0.44849,-0.09142,-0.52156,0.81859
-0.19064,0.8433,-0.50249,0.02203,-0.32384,1.12004
-0.20134,0.82889,-0.52192,-0.02884,-0.05583,1.01443
-0.20118,0.83409,-0.51362,-0.09952,0.13228,0.70373
-0.19138,0.84406,-0.50092,-0.04509,0.25877,0.23962
-0.18276,0.85595,-0.48368,-0.12593,0.10745,0.20055
-0.17822,0.8726,-0.45474,-0.15668,-0.00299,0.14392
-0.18298,0.89003,-0.41756,-0.10889,-0.09576,0.27364
-0.19133,0.90808,-0.37251,-0.12822,-0.04621,0.2199
-0.20186,0.92695,-0.31624,-0.15685,-0.0067,0.09912
-0.22398,0.94305,-0.2459,-0.39792,-0.18053,-0.11786
-0.24652,0.95006,-0.19131,0.11563,0.06351,-0.79781
-0.25188,0.95265,-0.17028,0.58922,0.39937,-1.31206
-0.2608,0.95239,-0.15787,0.79376,-0.91424,-0.41435
-0.25632,0.95228,-0.16565,0.50654,-0.89581,-0.10549
-0.24688,0.95089,-0.18667,0.10366,-0.85299,-0.64947
-0.26288,0.94439,-0.19749,-0.16136,0.67653,0.72581
-0.27729,0.94018,-0.19786,-0.22563,0.84349,-0.08286
-0.29159,0.94013,-0.17637,0.03947,0.29905,-0.22828
-0.29547,0.93855,-0.17831,0.10726,0.13882,0.2849
-0.29724,0.93665,-0.18525,0.16533,0.10273,0.43818
-0.29929,0.93598,-0.18533,0.11292,0.20878,0.44937
-0.30541,0.9371,-0.16896,0.28545,0.40187,-0.14984
-0.3124,0.94044,-0.13399,0.43472,0.33747,-0.34578
-0.31412,0.94256,-0.11348,0.37046,-0.27804,-0.139
-0.32054,0.94071,-0.11087,0.24922,0.0714,-0.07192
-0.33313,0.93762,-0.0994,0.20652,0.46549,-0.26242
-0.34488,0.93547,-0.07706,0.13098,0.32923,-0.65232
-0.35879,0.93086,-0.06885,0.02063,0.09438,-0.77665
-0.37393,0.9245,-0.07385,0.00581,0.05025,-0.6588
-0.3875,0.91779,-0.08655,0.06286,0.51286,-0.28696
-0.39487,0.91187,-0.11202,0.01625,0.89802,-0.2739
-0.39526,0.90572,-0.15306,0.04316,0.80943,-0.13864
-0.39257,0.8974,-0.20136,0.3934,0.78524,0.58515
-0.38538,0.88672,-0.25533,0.23595,0.73242,0.95693
-0.36534,0.87888,-0.30673,0.05,0.74366,0.97494
-0.34466,0.87882,-0.32996,-0.19488,0.49551,0.30877
-0.32911,0.88771,-0.32192,0.08186,0.44782,0.23517
-0.30844,0.89707,-0.31643,0.14459,0.30499,0.23142
-0.27731,0.90507,-0.32239,-0.08383,-0.08297,0.35192
-0.24149,0.91423,-0.32534,-0.02192,-0.14165,0.37278
-0.21472,0.92448,-0.31499,0.11772,-0.15492,0.41726
-0.20152,0.9344,-0.29372,0.1743,-0.1569,0.32813
-0.19564,0.94262,-0.27051,0.0859,-0.15257,0.17432
-0.19238,0.94711,-0.25681,-0.02498,-0.26074,0.17679
-0.19615,0.94713,-0.25388,-0.0933,-0.34277,0.20207
-0.20574,0.94541,-0.25268,-0.15468,-0.31973,0.27723
-0.21799,0.94336,-0.25008,-0.14243,-0.31767,0.27463
-0.23099,0.94126,-0.2463,-0.09802,-0.17354,0.02325
-0.24268,0.94002,-0.23967,0.02741,0.07931,-0.20843
-0.24764,0.94044,-0.23285,0.03237,0.07889,-0.21526
-0.24666,0.93975,-0.23665,0.19271,0.31344,-0.60164
-0.24552,0.9378,-0.24542,0.37531,0.1066,-0.19401
-0.24081,0.9365,-0.25489,0.3706,0.10791,-0.18453
-0.23383,0.93554,-0.26472,0.33353,-0.00598,-0.12294
-0.22418,0.93679,-0.26861,0.3665,-0.10654,-0.17041
-0.21509,0.94005,-0.26463,0.35909,-0.12463,-0.17404
-0.21156,0.94305,-0.25667,0.38628,-0.23566,0.04599
-0.21328,0.9466,-0.24174,0.0405,0.04972,0.29231
-0.21633,0.94947,-0.22734,-0.39096,0.44295,0.40214
-0.21946,0.95246,-0.21127,-0.61124,1.58083,-0.99854
-0.21646,0.95042,-0.22324,-0.28993,0.97628,-0.78342
-0.2151,0.93533,-0.28083,-0.27782,-0.86865,1.57403
-0.22277,0.92663,-0.30283,0.10601,-0.65454,1.02473
-0.239,0.92722,-0.2883,0.13257,-0.07272,0.84964
-0.26332,0.92484,-0.27442,0.2585,0.48182,0.83736
-0.28547,0.92027,-0.26757,0.48025,0.86759,0.3251
-0.30302,0.92103,-0.24468,0.48975,0.38581,0.09769
-0.31346,0.92701,-0.20586,0.18992,0.09937,0.17819
-0.31726,0.93214,-0.17448,0.04588,-0.01121,0.15208
-0.31918,0.93579,-0.14966,0.00408,-0.02611,0.12845
-0.32189,0.93888,-0.12192,0.02252,-0.01257,0.09583
-0.32131,0.94283,-0.08833,0.12554,-0.01197,-0.10833
-0.31851,0.94623,-0.05638,0.17242,0.01666,-0.12734
-0.31604,0.9482,-0.0317,0.20021,0.02029,-0.14826
-0.31383,0.94937,-0.01315,0.21637,0.00679,-0.00313
-0.31144,0.95025,0.00273,0.17521,0.00535,0.02979
-0.3089,0.95088,0.01978,0.08763,0.05457,0.06824
-0.30743,0.95075,0.03923,-0.05614,0.05768,0.01723
-0.30871,0.9489,0.06528,0.03045,-0.0347,0.11284
-0.31408,0.94485,0.09262,0.19245,-0.14181,0.10488
-0.32207,0.93907,0.11995,0.34589,-0.1539,-0.00899
-0.32956,0.93225,0.14925,0.42838,-0.05912,-0.04097
-0.33441,0.92564,0.17698,0.3703,0.13283,-0.10157
-0.33503,0.9198,0.20418,0.21515,0.34764,-0.20467
-0.3334,0.91311,0.23461,0.20837,0.33358,-0.55741
-0.32395,0.90514,0.27522,0.18829,0.27208,-0.88359
-0.30776,0.90234,0.30173,-0.14722,0.13343,-1.30852
-0.31179,0.91077,0.27064,-0.14167,0.1928,-0.80322
-0.32727,0.91888,0.22027,-0.03562,0.36739,-0.42234
-0.344,0.92404,0.16671,0.29238,0.34348,-0.32694
-0.36055,0.92804,0.09335,0.48549,1.27104,-0.13026
-0.36403,0.93135,0.00546,0.62389,1.25726,0.23537
-0.35815,0.93092,-0.07128,0.67142,0.75764,0.90342
-0.3531,0.92602,-0.13339,0.32215,0.29806,0.93051
-0.34219,0.92232,-0.17944,0.29343,0.35021,0.72737
-0.3218,0.92457,-0.20396,0.36614,0.2526,0.47051
-0.29319,0.93035,-0.22014,0.31349,0.21487,0.18049
-0.2652,0.93247,-0.24526,0.25945,0.19327,0.30365
-0.24131,0.93153,-0.27205,0.20684,0.1712,0.43103
-0.22081,0.93129,-0.2897,0.12708,-0.06062,0.60315
-0.20374,0.93306,-0.29642,0.10701,-0.10102,0.6169
-0.19214,0.93587,-0.2953,0.0895,-0.113,0.62155
-0.18659,0.93776,-0.29286,-0.00149,-0.164,0.46032
-0.18802,0.93799,-0.29122,-0.05196,-0.17787,0.46067
-0.19583,0.93738,-0.28803,-0.0938,-0.16035,0.47051
-0.20285,0.93719,-0.28375,-0.31502,-0.22787,0.38058
-0.20636,0.93884,-0.27563,-0.32019,-0.26221,0.3338
-0.20602,0.94313,-0.26086,-0.22988,-0.27098,0.15016
-0.20417,0.94928,-0.23907,-0.16282,-0.11319,-0.00792
-0.20546,0.95574,-0.21056,-0.13457,-0.01895,-0.10543
-0.21246,0.96006,-0.182,0.19772,0.2333,-0.41359
-0.21994,0.9615,-0.16467,0.25206,0.11047,-0.35095
-0.22472,0.96155,-0.15781,0.18159,-0.00865,-0.29887
-0.2258,0.96195,-0.1538,0.03178,-0.17943,-0.14836
-0.22243,0.96398,-0.14577,0.0262,-0.28321,-0.09972
-0.21721,0.96675,-0.13487,0.03431,-0.33981,0.04629
-0.2108,0.96871,-0.13095,-0.32837,1.16912,0.42208
-0.20551,0.97156,-0.11753,0.36045,1.17242,-0.47637
-0.19655,0.97444,-0.10865,0.14757,-0.50533,0.49179
-0.19351,0.97063,-0.14284,-0.17267,-0.6289,0.52094
-0.20413,0.96436,-0.16825,-0.41905,-0.07508,0.72086
-0.21523,0.96245,-0.16539,-0.3136,0.13297,0.66892
-0.22644,0.96195,-0.15281,-0.04109,0.21578,0.38549
-0.24042,0.96219,-0.1279,0.31841,0.3916,0.07097
-0.24928,0.96407,-0.09165,0.44893,0.12313,0.05961
-0.24404,0.96749,-0.06625,0.17882,-0.05756,-0.23651
-0.23547,0.97042,-0.05304,-0.08716,-0.12972,-0.06521
-0.23575,0.97093,-0.04102,-0.00817,-0.11719,0.08637
-0.2408,0.97027,-0.02383,0.12535,-0.08854,-0.06628
-0.24658,0.96909,-0.00522,0.16901,-0.05616,-0.09445
-0.25041,0.96806,0.01094,0.21081,-0.03024,-0.16353
-0.25039,0.9678,0.02515,0.19139,-0.03973,-0.25529
-0.24969,0.96766,0.03531,0.17645,-0.12399,-0.3637
-0.24968,0.96738,0.04262,0.15718,-0.11587,-0.44462
-0.25055,0.96691,0.04768,0.15285,-0.09979,-0.43324
-0.25258,0.96646,0.04606,0.09676,-0.09128,-0.35783
-0.25471,0.96634,0.03572,-0.0066,-0.12917,-0.24231
-0.25663,0.96623,0.02251,-0.03491,-0.14081,-0.08549
-0.25781,0.96616,0.00639,0.04074,-0.07665,-0.06687
-0.25623,0.96651,-0.0131,0.13138,0.02509,-0.31176
-0.25078,0.96743,-0.03418,0.23172,0.06517,-0.26591
-0.24319,0.9679,-0.06323,0.19552,0.04395,-0.20091
-0.23784,0.96661,-0.09524,0.16136,0.05641,-0.22631
-0.23108,0.96318,-0.13734,0.23091,0.16405,-0.52609
-0.22365,0.95508,-0.19435,0.12294,0.10101,-0.09716
-0.22125,0.93762,-0.26813,0.09014,-0.02641,0.29628
-0.22814,0.91124,-0.34289,0.02495,-0.15161,0.4867
-0.23963,0.88115,-0.4076,0.03542,-0.11078,0.79737
-0.24549,0.86044,-0.44649,-0.01008,0.16067,0.94991
-0.23529,0.85841,-0.45581,-0.07335,0.52036,0.64167
-0.21567,0.8703,-0.44277,-0.21475,0.40307,0.19785
-0.18788,0.88537,-0.42521,-0.31679,0.18677,0.11095
-0.15611,0.90455,-0.39674,-0.18229,-0.22274,0.20228
-0.13582,0.92357,-0.35855,-0.33293,-0.23863,0.22074
-0.13032,0.94138,-0.31112,-0.40433,-0.1023,0.21843
-0.13552,0.95793,-0.25296,-0.40646,0.05655,0.11064
-0.1488,0.9707,-0.18863,-0.21551,0.24343,-0.37411
-0.17361,0.97594,-0.13179,-0.03629,0.04765,-0.52873
-0.20199,0.97418,-0.10077,0.11715,-0.05201,-0.20405
-0.2044,0.9768,-0.06368,0.291,0.40475,-0.59866
-0.20402,0.97837,-0.03363,0.33182,0.2849,-0.66087
-0.20723,0.97797,-0.02433,0.58735,-0.53722,-0.31726
-0.21214,0.97686,-0.02669,0.76482,-0.79372,-0.19353
-0.21652,0.97569,-0.03335,0.71194,-0.9381,-0.12788
-0.21466,0.97569,-0.04377,0.28501,-0.85916,0.26141
-0.20895,0.97617,-0.0584,-0.10517,-0.33734,-0.41015
-0.19945,0.97879,-0.04644,-0.3819,1.34575,0.22483
-0.19673,0.97983,-0.03455,-0.93632,1.49273,-0.73945
-0.19337,0.98041,-0.03719,-0.39763,-0.07319,0.65292
-0.19242,0.97921,-0.06399,-0.33922,0.34914,-0.2753
-0.19629,0.97784,-0.0726,0.41982,0.62557,0.20897
-0.19551,0.97686,-0.08659,0.36955,0.43553,0.03323
-0.19226,0.9774,-0.08773,0.18221,0.40016,-1.00863
-0.18157,0.97652,-0.1158,0.09281,0.43035,-1.26793
-0.16756,0.97177,-0.16599,-0.0473,0.29258,-0.33865
-0.15123,0.96247,-0.22531,-0.06363,0.30189,-0.27933
-0.14603,0.94409,-0.29553,-0.35093,-0.60489,0.53188
-0.13708,0.92138,-0.36366,-0.03116,-1.17942,0.91448
-0.12703,0.8998,-0.41737,-0.0292,-1.34219,0.85996
-0.1286,0.88927,-0.43891,0.0097,-0.86466,0.76265
-0.1452,0.88806,-0.43618,0.20975,0.24077,0.71043
-0.13813,0.89388,-0.42647,0.03256,0.94904,0.65549
-0.13287,0.89852,-0.41832,-0.41554,0.82487,0.35001
-0.12834,0.91277,-0.38776,-0.31215,0.33154,-0.21515
-0.13655,0.93042,-0.34007,-0.0854,-0.04804,-0.18839
-0.1547,0.94614,-0.28437,-0.0574,-0.16732,-0.12375
-0.16839,0.9615,-0.21713,-0.0163,-0.30187,0.06145
-0.17658,0.97222,-0.15357,-0.33838,-0.10247,0.15815
-0.18338,0.97649,-0.1132,-0.26392,0.23367,-0.5044
-0.1885,0.97851,-0.08337,0.40988,-0.03225,-0.9903
-0.20194,0.97696,-0.06884,0.7937,-0.27982,-0.89521
-0.21917,0.97357,-0.06406,0.90295,-0.78694,-0.22937
-0.22424,0.97164,-0.07491,0.77649,-0.80779,0.22605
-0.21351,0.97326,-0.0846,0.18692,-0.40821,0.19408
-0.1986,0.97739,-0.0724,-0.62437,1.19204,0.47579
-0.18876,0.97978,-0.06613,-0.95193,1.64258,-0.7146
-0.1836,0.98111,-0.06078,-0.60865,1.06928,-0.45431
-0.17367,0.98299,-0.05945,0.23233,0.26905,0.48699
-0.16399,0.98306,-0.08166,0.10322,0.08603,0.34501
-0.16387,0.9829,-0.08387,0.18842,0.21042,-0.22831
-0.16923,0.98283,-0.07337,0.43097,0.79403,-1.1602
-0.1586,0.98155,-0.10668,-0.30493,0.71201,-0.94749
-0.14662,0.97685,-0.15567,-0.70458,0.12324,-0.44371
-0.13736,0.96973,-0.20184,-0.28806,-0.4025,0.4617
-0.12679,0.95927,-0.2524,-0.22582,-0.80309,0.51707
-0.11107,0.94879,-0.29569,-0.12146,-1.02899,0.83053
-0.09327,0.93796,-0.33392,-0.01229,-1.20919,0.75584
-0.08281,0.92877,-0.36126,0.11473,-1.10454,0.70171
-0.09409,0.9267,-0.36381,0.08484,-0.43736,0.79977
-0.11736,0.93382,-0.33791,-0.03813,0.58896,0.63989
-0.13296,0.9439,-0.30225,-0.40154,1.29405,0.33116
-0.14371,0.95032,-0.27606,-0.51319,0.85394,-0.10786
-0.15795,0.9562,-0.24638,-0.3212,0.13686,-0.03438
-0.17361,0.9631,-0.20561,-0.20118,0.0121,0.05572
-0.18958,0.97021,-0.15072,0.00186,-0.02095,-0.02876
-0.20844,0.97414,-0.08707,0.15084,-0.13458,-0.13563
-0.20995,0.97696,-0.03782,0.58537,-0.22335,-1.12968
-0.21303,0.97682,-0.02036,0.63408,-0.58252,-1.06102
-0.21984,0.9755,-0.00693,0.69251,-0.80065,-0.86123
-0.22554,0.97419,-0.00745,0.51498,-0.41995,-0.89937
-0.21961,0.97514,-0.02891,0.50906,-0.4209,-0.87791
-0.20376,0.97718,-0.05984,-0.41759,0.55211,0.64182
-0.1887,0.98033,-0.05767,-0.3787,0.39402,0.27336
-0.19089,0.98093,-0.03627,-0.36957,0.08046,0.09651
-0.19005,0.98054,-0.04886,-0.44024,0.07007,-0.42326
-0.19097,0.97919,-0.06847,0.25237,0.63159,-0.67883
-0.18627,0.97834,-0.09019,0.22387,0.51663,-0.67031
-0.18349,0.97475,-0.12718,0.22344,0.38419,-0.78752
-0.17697,0.96717,-0.18234,-0.03623,0.55627,-0.28031
-0.16359,0.95446,-0.24944,-0.22926,0.29192,0.05953
-0.1535,0.93471,-0.32051,-0.26243,-0.28461,0.51949
-0.14807,0.91054,-0.38597,-0.21096,-0.5555,1.29512
-0.13916,0.88895,-0.43634,-0.20809,-0.73697,1.37123
-0.1416,0.8846,-0.44431,-0.552,-0.40009,0.99111
-0.15426,0.89625,-0.41584,-0.3327,0.32615,0.73821
-0.15176,0.90832,-0.38975,-0.09125,0.51412,0.45397
-0.14738,0.92129,-0.35984,-0.15544,0.23249,0.04412
-0.15812,0.9328,-0.32381,-0.23786,0.13685,0.11579
-0.17688,0.94397,-0.27858,-0.09256,0.23967,-0.03972
-0.20059,0.95466,-0.21993,0.25383,-0.37466,-0.43433
-0.23092,0.96099,-0.15217,1.11263,-0.93303,-0.18578
-0.22991,0.96895,-0.09078,1.51131,-0.55324,-0.91186
-0.21734,0.97468,-0.05229,0.99047,-0.91645,-1.05472
-0.20537,0.97779,-0.04158,-0.13404,-0.41594,-0.78026
-0.20871,0.97527,-0.07255,0.03209,-0.03876,0.59158
-0.21323,0.97105,-0.10751,-0.86831,1.05334,-1.22461
-0.20832,0.97742,-0.03506,-0.27346,1.05692,-0.6891
-0.19752,0.97924,-0.04516,-0.48094,0.31299,-2.04602
-0.18537,0.97779,-0.0977,-0.35008,0.44969,-0.06123
-0.16808,0.97455,-0.14824,-0.05408,0.39702,-0.63499
-0.14586,0.96659,-0.21073,0.30474,0.3909,0.03459
-0.13514,0.94689,-0.29175,0.01378,0.14176,0.65631
-0.14227,0.91568,-0.37586,-0.15121,-0.50214,1.08799
-0.13962,0.89063,-0.43274,-0.09327,-0.23493,0.85666
-0.12541,0.88455,-0.44926,-0.18126,0.80268,0.82044
-0.10359,0.88982,-0.44437,-0.00252,0.51357,0.60077
-0.08006,0.89851,-0.43157,-0.38689,-0.0998,0.39266
-0.06229,0.91263,-0.404,-0.37251,-0.22767,0.25789
-0.05805,0.92983,-0.36336,-0.38056,-0.33663,0.25174
-0.06765,0.94745,-0.31263,-0.42099,-0.43277,0.23049
-0.09055,0.96458,-0.2477,-0.2286,-0.81378,-0.13447
-0.1313,0.9751,-0.17865,-0.48337,0.29974,-0.71065
-0.16194,0.97715,-0.13755,0.40171,1.11892,-1.41334
-0.17643,0.97707,-0.11909,0.69569,0.93017,-1.41869
-0.18535,0.97744,-0.10115,0.94136,0.16819,-0.97819
-0.18722,0.97823,-0.08933,0.77026,0.72669,-1.06488
-0.16904,0.97833,-0.11947,0.5591,-0.23631,1.66417
-0.13645,0.9721,-0.19071,-0.70329,0.95928,1.71604
-0.12338,0.97296,-0.19518,-1.53496,2.02339,0.20999
-0.14263,0.97651,-0.1614,-0.58609,-0.16292,0.77059
-0.15754,0.97315,-0.16774,-0.26081,-0.07045,0.4154
-0.1703,0.97067,-0.16959,-0.00931,0.18678,0.94797
-0.18168,0.96938,-0.16515,-0.11624,0.4035,0.9014
-0.19123,0.97301,-0.12904,-0.08375,0.67985,0.53539
-0.19822,0.97759,-0.07072,0.00961,0.49873,0.16592
-0.20617,0.97845,0.00967,0.09816,0.30649,-0.31439
-0.20671,0.97493,0.08208,-0.04112,-0.12713,-0.53821
-0.21413,0.97189,0.09767,-0.0011,-0.14319,-0.39959
-0.22128,0.97001,0.10045,0.0556,-0.15363,-0.30325
-0.22686,0.96676,0.1178,0.18243,-0.60725,-0.05527
-0.23408,0.96231,0.13827,0.20726,-0.64189,0.05457
-0.24419,0.9575,0.1534,0.23251,-0.5146,0.17843
-0.25755,0.95124,0.16962,0.18075,-0.23548,0.14143
-0.27108,0.94338,0.19107,0.16669,-0.1159,0.0597
-0.28085,0.93358,0.22251,0.15391,0.10563,-0.1044
-0.28356,0.9221,0.26322,0.22289,0.18322,-0.25521
-0.27981,0.91068,0.30386,0.14232,0.32252,-0.56953
-0.27478,0.89864,0.34191,0.1955,0.48523,-0.93389
-0.27733,0.89008,0.36165,0.18126,0.6488,-1.05558
-0.28641,0.88801,0.35967,0.31601,0.63891,-0.98104
-0.29455,0.88923,0.34995,0.62468,0.69317,-0.75798
-0.29268,0.89533,0.33569,0.82006,0.69034,-0.69235
-0.2866,0.91052,0.29793,0.83033,0.71937,-0.44437
-0.2728,0.93236,0.23715,-0.02127,0.58494,-0.26275
-0.24904,0.95208,0.17744,-0.54587,0.63477,0.08714
-0.22851,0.9667,0.11507,-0.56603,0.68218,0.36207
-0.21722,0.97519,0.04226,-0.56017,0.58752,0.43842
-0.21381,0.97644,-0.02858,-0.72721,0.55302,0.43604
-0.21902,0.97217,-0.083,-0.594,0.30277,0.26863
-0.21988,0.96778,-0.12259,-0.30186,0.08068,0.21356
-0.20918,0.96439,-0.16175,0.23924,-0.08243,0.4903
-0.18889,0.95982,-0.20747,0.5191,-0.05212,0.5012
-0.17409,0.95262,-0.24937,0.49039,-0.03877,0.51787
-0.16053,0.94569,-0.28263,0.20273,-0.38356,0.39687
-0.14659,0.93857,-0.31238,0.10363,-0.44601,0.42172
-0.1371,0.93128,-0.33748,0.02814,-0.49947,0.4838
-0.13159,0.92497,-0.35651,-0.03709,-0.5334,0.5838
-0.13136,0.92114,-0.36638,-0.07793,-0.60015,0.59837
-0.13526,0.92043,-0.36673,-0.18037,-0.63256,0.54418
-0.14072,0.92239,-0.3597,-0.23,-0.64788,0.46028
-0.14357,0.92796,-0.34389,-0.21109,-0.61668,0.40351
-0.14118,0.93697,-0.31959,-0.18374,-0.25543,-0.04322
-0.13414,0.94679,-0.29253,-0.2632,0.24057,-0.75778
-0.12784,0.95225,-0.27723,-0.22444,0.50204,-1.08113
-0.12688,0.95258,-0.27653,0.31851,0.45045,-0.88862
-0.12504,0.9513,-0.28171,0.29102,0.23453,-0.48432
-0.11939,0.95058,-0.28656,0.17548,0.05186,-0.0757
-0.10849,0.94996,-0.29289,0.09731,-0.0546,-0.14521
-0.10106,0.94976,-0.29619,-0.1839,0.19572,-0.19722
-0.10179,0.95327,-0.28441,-0.32776,0.67354,-0.2417
-0.10307,0.95856,-0.26555,-0.2271,1.28611,-0.04161
-0.09385,0.95394,-0.2849,-0.71094,0.39746,0.42946
-0.07227,0.94701,-0.31291,-0.82922,-1.09998,1.24774
-0.05142,0.95468,-0.29313,-0.83467,-0.98338,0.96494
-0.05217,0.96953,-0.23929,-0.65207,-0.07641,0.73206
-0.06916,0.98162,-0.17777,-0.60545,0.00858,0.5731
-0.09667,0.9886,-0.11529,-0.50513,0.0761,0.50698
-0.1259,0.98865,-0.08175,0.08772,0.43321,0.83366
-0.15568,0.98506,-0.0734,0.34724,0.35196,0.60038
-0.17689,0.98235,-0.06057,0.3583,0.31631,0.41404
-0.18539,0.98264,-0.00489,0.31341,0.02919,-0.06895
-0.1826,0.98251,0.03603,0.19334,-0.00682,0.01022
-0.17545,0.98293,0.05515,0.19817,0.03296,-0.22866
-0.16584,0.98278,0.08131,0.04751,0.0684,-0.08702
-0.16097,0.98035,0.11386,-0.07375,-0.21123,0.0035
-0.15967,0.97723,0.1396,-0.00638,-0.37759,-0.03165
-0.16606,0.97291,0.16074,0.01183,-0.21889,-0.05194
-0.1759,0.96795,0.17915,-0.03957,-0.07946,-0.17022
-0.18687,0.96111,0.20326,-0.04967,0.03494,-0.13717
-0.2006,0.95132,0.23391,0.08143,0.06921,-0.1679
-0.2126,0.94078,0.264,0.25131,0.14844,-0.43851
-0.21344,0.92898,0.30232,0.29849,0.28403,-0.47951
-0.20579,0.91638,0.34329,0.17675,0.2955,-0.55444
-0.20822,0.9071,0.36573,0.39987,0.3526,-0.55922
-0.22182,0.90876,0.35342,0.48982,0.44885,-0.47387
-0.22187,0.91761,0.32972,0.38415,0.3937,-0.43379
-0.21348,0.92378,0.31781,0.11011,0.42352,-0.38002
-0.20579,0.92663,0.31459,-0.19506,0.29569,-0.94412
-0.1991,0.93259,0.30098,-0.09445,0.25703,-1.00879
-0.20445,0.94682,0.24839,0.10621,0.29059,-0.4702
-0.20819,0.96307,0.17065,0.17508,0.45991,0.09097
-0.19833,0.97643,0.08496,-0.03822,0.60281,0.34149
-0.18108,0.98338,0.01208,-0.37375,0.59536,0.59431
-0.17418,0.983,-0.05778,-0.6522,0.60593,0.54583
-0.18303,0.97669,-0.11198,-0.93982,0.33391,0.25607
-0.19267,0.97119,-0.14014,-0.9829,0.02745,0.10372
-0.18599,0.96909,-0.16198,-0.4986,-0.13096,0.30847
-0.17213,0.9663,-0.19131,0.17137,-0.1231,0.35305
-0.16626,0.95893,-0.22977,0.29862,-0.10147,0.46668
-0.16557,0.95068,-0.26226,0.31055,-0.1149,0.5436
-0.16167,0.94251,-0.29243,0.05087,-0.24666,0.40451
-0.15742,0.93322,-0.32297,-0.00053,-0.33556,0.46681
-0.15332,0.92584,-0.34538,-0.024,-0.42293,0.4933
-0.15163,0.92224,-0.3556,-0.20873,-0.69466,0.50797
-0.15403,0.92131,-0.357,-0.2008,-0.70309,0.52641
-0.15951,0.9235,-0.34884,-0.17214,-0.69002,0.53083
-0.16407,0.92973,-0.32964,-0.06038,-0.47456,0.40184
-0.16485,0.93907,-0.30158,-0.04417,-0.34797,0.29789
-0.16162,0.95037,-0.26581,-0.00286,-0.2576,0.21599
-0.15427,0.96259,-0.22268,0.01778,0.62289,-0.80524
-0.14354,0.97136,-0.1893,-0.14583,0.942,-1.64772
-0.12925,0.97423,-0.18476,-0.11303,1.09916,-2.24656
-0.11874,0.97568,-0.18418,0.1054,0.15318,-0.44949
-0.10833,0.97586,-0.18957,-0.07996,0.10443,-0.47468
-0.09976,0.97513,-0.19786,-0.52054,0.20438,-0.32445
-0.09858,0.97382,-0.20475,-0.89942,0.41422,-0.04866
-0.10816,0.97091,-0.21357,-0.73379,0.88055,0.49009
-0.10558,0.96436,-0.24257,-0.35537,-0.85935,0.99301
-0.09883,0.96467,-0.24419,-0.22216,-0.74862,1.11767
-0.095,0.9717,-0.21621,-0.38037,-0.12746,0.79726
-0.10491,0.9806,-0.1655,-0.41301,0.26128,0.85671
-0.11837,0.98647,-0.11327,-0.05669,0.38304,0.8229
-0.13311,0.9879,-0.07938,0.09858,0.32644,0.69824
-0.14723,0.98731,-0.05928,0.29178,0.16333,0.37984
-0.15784,0.98659,-0.04107,0.45288,0.07699,-0.37503
-0.16676,0.98593,0.01015,0.45335,-0.03169,-0.61387
-0.16513,0.98427,0.06254,0.16443,0.00217,-0.20423
-0.15919,0.98374,0.08295,0.01838,-0.01619,-0.36101
-0.15343,0.98336,0.09712,-0.01782,0.01048,-0.32936
-0.15093,0.98202,0.1132,0.05015,-0.05241,-0.12783
-0.14814,0.98084,0.12633,0.00274,-0.07342,-0.05292
-0.14778,0.97903,0.14009,0.0051,-0.07318,-0.06089
-0.15005,0.97651,0.15448,0.04458,-0.00866,-0.10187
-0.15211,0.97373,0.16935,0.07168,0.00297,-0.11378
-0.15418,0.97064,0.18452,0.10104,-0.00996,-0.11798
-0.15755,0.967,0.20011,0.07671,-0.04171,-0.11315
-0.16044,0.96315,0.21575,0.05324,-0.05024,-0.16203
-0.16319,0.95833,0.23436,-0.02164,-0.05428,-0.25923
-0.16491,0.95196,0.25792,-0.05341,0.01271,-0.29763
-0.16902,0.94599,0.27658,0.08787,0.17607,-0.24973
-0.17648,0.94213,0.28497,0.09533,0.17993,-0.25811
-0.18125,0.93987,0.2894,0.23579,0.40961,-0.32866
-0.18249,0.93811,0.29427,0.16078,0.18297,-0.44557
-0.18107,0.93654,0.30012,0.15935,0.18454,-0.45142
-0.18043,0.9352,0.30464,0.04178,0.36189,-0.63139
-0.18228,0.93658,0.29924,-0.14397,0.40105,-0.85775
-0.18344,0.94451,0.2724,-0.14842,0.41479,-0.7759
-0.18358,0.95819,0.21939,-0.16097,0.41062,-0.60263
-0.1838,0.97205,0.14596,-0.20614,0.36328,0.21256
-0.18302,0.98092,0.06529,-0.2586,0.32511,0.58539
-0.1811,0.98339,-0.01055,-0.46348,0.29711,0.78624
-0.1838,0.97993,-0.07697,-0.68873,0.35834,0.46741
-0.19146,0.97491,-0.11336,-0.93029,0.0909,-0.08516
-0.19297,0.97234,-0.13146,-0.6366,0.14048,0.14147
-0.19381,0.96659,-0.16765,-0.16473,0.04149,0.16464
-0.20482,0.95282,-0.22397,0.08008,-0.00091,0.31208
-0.22049,0.9366,-0.27229,0.19386,-0.15027,0.55949
-0.23091,0.92451,-0.30321,0.16454,-0.21901,0.47371
-0.23756,0.91486,-0.32646,0.02851,-0.2618,0.37229
-0.23843,0.90617,-0.34925,0.00305,-0.3795,0.31198
-0.23731,0.8988,-0.36853,-0.04598,-0.42157,0.35914
-0.24064,0.89407,-0.37776,-0.04544,-0.5031,0.44487
-0.24679,0.89311,-0.37607,0.04631,-0.56346,0.52092
-0.25023,0.89723,-0.36378,0.13638,-0.52896,0.48318
-0.24686,0.90633,-0.34293,0.18398,-0.48618,0.41683
-0.23762,0.91883,-0.31505,0.2816,-0.16923,0.00713
-0.22439,0.93248,-0.28303,0.21635,-0.01944,-0.52955
-0.20902,0.94498,-0.2516,-0.08911,0.22342,-1.2194
-0.19778,0.95314,-0.22888,-0.11031,0.57584,-1.46035
-0.19228,0.95721,-0.21622,0.17017,0.66019,-0.79472
-0.18497,0.95803,-0.21894,0.05394,0.53709,-0.55304
-0.1783,0.95559,-0.2346,-0.09191,-0.09507,-0.52956
-0.17806,0.95284,-0.2457,-0.4841,-0.14978,-0.01323
-0.18343,0.95195,-0.24519,-0.86024,0.75198,0.62115
-0.18761,0.95387,-0.23432,-0.36268,1.42078,-0.64001
-0.18421,0.95516,-0.23174,-0.15289,-0.80158,1.21169
-0.17255,0.95031,-0.25905,-0.08969,-1.0991,1.42955
-0.15069,0.95477,-0.25627,-0.29215,-0.37811,0.70149
-0.14199,0.9659,-0.21645,-0.36987,-0.03205,0.65151
-0.15267,0.97555,-0.158,-0.36707,0.11554,0.63325
-0.17329,0.97947,-0.10281,0.01804,0.41029,0.67443
-0.19395,0.97823,-0.07363,0.33755,0.16658,0.49079
-0.21126,0.97576,-0.05675,0.47911,0.13076,0.03016
-0.22087,0.97483,-0.02981,0.47752,0.02091,-0.51864
-0.22707,0.97331,0.03277,0.3186,-0.00335,-0.1844
-0.22457,0.97237,0.06345,0.13384,0.04746,-0.31764
-0.21725,0.97328,0.07411,0.11662,0.08705,-0.19095
-0.21106,0.97348,0.08805,0.07181,0.07439,-0.06292
-0.20496,0.97351,0.10115,0.06032,-0.03397,-0.02792
-0.20152,0.97283,0.11378,0.06856,-0.13448,-0.03039
-0.20077,0.97074,0.13162,0.07648,-0.15663,0.01798
-0.20065,0.9685,0.14731,0.06993,-0.11625,0.018
-0.20443,0.96567,0.16017,0.04408,-0.11453,0.01288
-0.21398,0.96111,0.17449,0.00361,-0.09593,-0.21518
-0.22596,0.95362,0.19875,-0.02247,-0.02452,-0.13509
-0.23743,0.94393,0.22929,0.02042,0.09814,-0.23689
-0.24588,0.93259,0.26414,0.17442,0.23156,-0.3346
-0.24975,0.91931,0.30407,0.25278,0.37391,-0.38872
-0.24839,0.90545,0.34413,0.44091,0.46156,-0.67981
-0.24791,0.8937,0.37389,0.34426,0.43012,-0.74047
-0.25297,0.89412,0.36948,0.32157,0.50194,-0.64661
-0.24982,0.90737,0.33797,0.28788,0.60548,-0.53915
-0.23873,0.92212,0.30441,0.16634,0.62694,-0.35628
-0.22759,0.93535,0.27071,0.06568,0.66991,-0.38623
-0.21737,0.95038,0.22244,-0.11667,0.44286,-0.4923
-0.21527,0.96311,0.16137,-0.02452,0.26261,0.36956
-0.21917,0.97197,0.08491,-0.00649,0.29972,0.62087
-0.22379,0.97462,0.00093,-0.23506,0.53203,0.62402
-0.22957,0.97015,-0.07794,-0.43704,0.5421,0.42211
-0.23425,0.96318,-0.13186,-0.29479,0.13068,0.22761
-0.23317,0.95881,-0.16214,0.00811,0.20597,0.21188
-0.23225,0.95345,-0.19225,0.19165,0.08289,0.2609
-0.23469,0.94324,-0.23495,0.33108,-0.03666,0.33119
-0.24236,0.92858,-0.28103,0.43683,-0.09968,0.52967
-0.24958,0.91551,-0.31548,0.21532,-0.15784,0.47298
-0.24437,0.90818,-0.3398,0.10637,-0.24446,0.46247
-0.23402,0.90189,-0.36305,-0.08746,-0.38953,0.56356
-0.22704,0.89739,-0.37833,-0.05842,-0.4628,0.58746
-0.22438,0.89641,-0.38221,-0.04052,-0.47539,0.57172
-0.22528,0.89702,-0.38024,-0.04843,-0.55525,0.53261
-0.22665,0.90071,-0.37057,-0.0344,-0.56447,0.44248
-0.22807,0.90886,-0.34919,-0.07848,-0.44809,0.25842
-0.23134,0.92051,-0.31482,-0.26027,-0.08523,-0.15313
-0.24252,0.93101,-0.27272,-0.05356,0.47556,-0.80028
-0.25806,0.93823,-0.23043,0.13423,0.78191,-1.22773
-0.27086,0.93756,-0.21817,0.23906,0.58193,-0.88561
-0.2801,0.93337,-0.22437,0.13772,0.19507,-0.52733
-0.28404,0.92923,-0.23628,0.24075,-0.06669,-0.33814
-0.28042,0.92613,-0.25222,0.09385,-0.22777,-0.09986
-0.27199,0.9254,-0.26388,-0.12207,-0.14958,0.39368
-0.26469,0.92755,-0.26377,-0.34896,0.25095,0.51737
-0.26254,0.93008,-0.25689,-0.80684,1.51927,-0.45604
-0.26602,0.93343,-0.24066,0.20009,-0.10538,0.91443
-0.27572,0.92337,-0.26709,0.26897,-0.45688,1.31262
-0.2793,0.91473,-0.29196,0.36009,-0.19877,0.99883
-0.28862,0.91323,-0.28756,0.35194,0.09513,0.98498
-0.2937,0.91624,-0.27242,0.34499,0.33162,0.93028
-0.29305,0.92378,-0.24642,0.37656,0.59027,0.32137
-0.29698,0.93575,-0.19011,0.04814,0.19865,0.2075
-0.29441,0.94824,-0.11892,-0.12736,0.09092,0.00814
-0.28933,0.95484,-0.06737,-0.221,-0.04894,-0.09851
-0.28328,0.95815,-0.0409,0.12382,-0.06784,0.06829
-0.27636,0.96076,-0.023,0.11683,-0.12174,0.00184
-0.26841,0.96328,-0.00309,0.02491,-0.11729,-0.00819
-0.2616,0.96488,0.02308,0.02129,-0.08263,-0.13604
-0.25813,0.96472,0.05143,0.13287,-0.08644,-0.17837
-0.25759,0.96302,0.07877,0.21468,-0.10647,-0.12961
-0.25856,0.96067,0.10106,0.25711,-0.09318,-0.05533
-0.2591,0.95781,0.12417,0.23671,-0.04615,-0.06555
-0.25847,0.95406,0.15141,0.21521,0.02818,-0.08669
-0.25773,0.94909,0.18098,0.21663,0.1177,-0.32019
-0.25474,0.94372,0.21084,0.23691,0.16689,-0.43528
-0.24868,0.93853,0.23933,0.23028,0.25004,-0.55601
-0.24088,0.93506,0.25998,-0.29322,0.23307,-0.76779
-0.23839,0.93802,0.25147,-0.31884,0.162,-0.63415
-0.2469,0.94402,0.21867,-0.07619,0.12937,-0.83826
-0.25824,0.94956,0.17778,-0.13593,0.21046,-0.72811
-0.27482,0.95384,0.12092,-0.14147,0.53317,-0.33494
-0.29933,0.95314,0.04334,0.15099,1.14028,0.28428
-0.31468,0.94813,-0.04459,0.56044,0.63953,0.61577
-0.31665,0.94143,-0.1158,0.6477,0.40879,0.905
-0.3073,0.93457,-0.17921,0.88576,0.43749,0.74535
-0.28645,0.93006,-0.23001,0.74776,0.34208,0.34702
-0.25093,0.93478,-0.25139,0.49736,0.32972,0.19804
-0.21052,0.941,-0.26492,-0.22741,-0.04572,0.17011
-0.18313,0.93834,-0.29319,-0.22524,-0.24577,0.43337
-0.1681,0.93291,-0.31842,-0.17243,-0.26511,0.49597
-0.16462,0.92712,-0.33663,-0.04613,-0.24418,0.47404
-0.16078,0.92421,-0.34636,-0.13045,-0.2892,0.39923
-0.15403,0.92379,-0.35051,-0.19509,-0.36836,0.34825
-0.1504,0.925,-0.3489,-0.20359,-0.47372,0.3915
-0.15294,0.92665,-0.34337,-0.20708,-0.48692,0.39171
-0.15963,0.92888,-0.33417,-0.19039,-0.45903,0.34069
-0.16776,0.93256,-0.31963,-0.16252,-0.44092,0.3364
-0.17576,0.93804,-0.2986,-0.14233,-0.35708,0.29004
-0.18568,0.94453,-0.27085,-0.09769,-0.18617,0.18086
-0.20198,0.95114,-0.23346,0.00754,0.04346,0.05565
-0.22168,0.95654,-0.18935,0.18098,0.01836,-0.07325
-0.23743,0.95955,-0.15122,0.2585,0.0146,-0.19314
-0.24796,0.96088,-0.12329,0.28655,0.11504,-0.30434
-0.25334,0.96181,-0.10352,0.22793,0.05536,-0.30616
-0.25204,0.96348,-0.09026,0.15166,-0.03915,-0.31338
-0.24407,0.96582,-0.08713,0.18256,-0.46411,-0.36649
-0.23744,0.96702,-0.09195,0.63179,-0.79266,-0.19192
-0.23794,0.96618,-0.09921,0.80442,-0.93223,-0.02141
-0.23592,0.96612,-0.1045,0.41514,-0.7588,0.48559
-0.22792,0.96693,-0.11431,-0.15677,-0.69049,-0.0161
-0.20844,0.97264,-0.10244,-0.36932,0.10035,-0.36419
-0.20036,0.97629,-0.08171,-0.9742,1.58503,-0.46742
-0.19577,0.97909,-0.05495,-0.47939,0.51488,-0.37158
-0.19185,0.98064,-0.03885,-0.39389,1.01402,-1.16742
-0.17201,0.98221,-0.07511,0.11421,0.34553,0.69382
-0.15254,0.97928,-0.13306,-0.13155,0.04244,0.12115
-0.1551,0.97702,-0.14608,0.07719,-0.00289,-0.48779
-0.16338,0.97504,-0.15024,0.14913,0.24585,-0.90881
-0.15847,0.96772,-0.19587,-0.27561,0.15142,-0.53302
-0.1573,0.95778,-0.24059,-0.264,0.19435,-0.64522
-0.15618,0.94118,-0.2996,-0.18677,0.15223,-0.34876
-0.15042,0.91874,-0.36505,0.05269,-0.41007,0.55538
-0.14001,0.894,-0.4256,0.02929,-0.51763,0.7379
-0.13263,0.86788,-0.47871,0.1578,-0.48803,0.98985
-0.13575,0.84857,-0.51135,0.19491,0.21306,0.58349
-0.13604,0.84096,-0.5237,0.09251,0.50734,0.44402
-0.12845,0.83747,-0.53115,-0.34924,0.47785,0.32488
-0.1221,0.84051,-0.52784,-0.34157,0.07546,0.24209
-0.10708,0.85471,-0.50793,-0.25871,-0.05959,0.28887
-0.10067,0.87124,-0.48041,-0.35722,-0.32726,0.42434
-0.10681,0.89064,-0.44195,-0.4445,-0.28861,0.35986
-0.11596,0.91466,-0.3872,-0.46665,-0.31049,0.27767
-0.13064,0.94011,-0.3148,-0.35469,-0.09242,-0.09869
-0.16157,0.95604,-0.24464,0.03489,0.32571,-0.4004
-0.19662,0.95806,-0.20842,0.23149,0.26427,-0.42288
-0.20672,0.96335,-0.17085,0.43609,0.26556,-0.78806
-0.21611,0.96622,-0.1403,0.63861,-0.17978,-0.5763
-0.22887,0.9653,-0.12567,0.67798,-0.41305,-0.48459
-0.23399,0.96525,-0.11624,0.51234,-0.70341,-0.25095
-0.22782,0.96634,-0.11936,0.05238,-0.37876,-0.43881
-0.21705,0.96524,-0.14552,-0.32683,0.43941,0.28419
-0.20919,0.96466,-0.16012,-0.71258,1.32114,-0.71173
-0.20894,0.96809,-0.13823,0.06352,2.00243,-1.96928
-0.20241,0.96743,-0.15189,0.65773,0.53832,-0.27183
-0.18608,0.9541,-0.23461,-0.08336,-0.0312,0.92695
-0.17949,0.94155,-0.28503,0.07094,-0.13236,0.92116
-0.17349,0.93486,-0.3097,-0.11719,-0.11273,0.44451
-0.18155,0.93666,-0.29947,-0.17868,-0.06898,0.17865
-0.20787,0.94411,-0.25579,-0.06328,0.46515,-1.45179
-0.23577,0.95632,-0.17272,0.03805,1.10572,-2.62368
-0.22783,0.9465,-0.22845,-0.17782,0.11343,-0.13976
-0.23092,0.93522,-0.26834,-0.08234,0.03548,-0.72901
-0.23987,0.91673,-0.31945,-0.1787,-0.05825,-0.16003
-0.24503,0.8856,-0.39452,-0.2287,-0.03624,0.39161
-0.24447,0.85613,-0.45526,-0.00434,-0.63672,0.95568
-0.24482,0.82631,-0.50721,0.09564,-0.62335,1.03855
-0.24934,0.80591,-0.53695,0.18181,-0.46763,1.07194
-0.25335,0.80403,-0.53789,0.29793,0.75609,0.48122
-0.23357,0.81343,-0.53269,0.05977,0.69597,0.36236
-0.2079,0.82942,-0.51848,-0.25789,0.27031,0.30274
-0.18452,0.85303,-0.48814,-0.13419,-0.31426,0.30199
-0.17576,0.87716,-0.44686,-0.25937,-0.33927,0.32295
-0.17593,0.90158,-0.39519,-0.36426,-0.31886,0.32988
-0.18071,0.92707,-0.32842,-0.3777,0.0093,0.10128
-0.19037,0.9505,-0.24552,-0.3685,0.04222,-0.20075
-0.209,0.96375,-0.16575,-0.33818,-0.01122,-0.59067
-0.22164,0.96587,-0.13395,0.4487,0.83855,-0.95591
