gravity.x,gravity.y,gravity.z,userAcceleration.x,userAcceleration.y,userAcceleration.z
-0.10341,0.83974,0.53304,0.39334,-0.41968,-0.25121
-0.10014,0.85291,0.51235,0.30499,-0.67649,-0.33204
-0.08433,0.86955,0.48658,-0.05485,-0.64852,-0.13053
-0.0596,0.88871,0.45457,-0.16946,-0.63583,-0.06987
-0.03147,0.90915,0.41526,-0.25457,-0.56423,-0.03251
-0.00385,0.92759,0.37357,-0.15959,0.05049,-0.08244
0.02196,0.94259,0.33323,-0.1854,0.03549,-0.04209
0.04124,0.95365,0.29807,0.26511,0.14921,-0.03299
0.05186,0.96136,0.27034,0.36136,-0.10975,0.04149
0.05404,0.96655,0.25071,0.32781,-0.08334,0.08687
0.04472,0.97052,0.23681,0.1796,0.01736,0.22159
0.02673,0.97492,0.22092,0.02367,-0.17037,-0.19514
0.01919,0.97579,0.21784,0.13391,0.12923,-0.18934
0.01801,0.972,0.23429,-0.08145,0.58329,-0.03547
0.01156,0.97339,0.22883,0.00669,0.54013,-0.36537
0.00118,0.97439,0.22486,-0.0262,0.99552,0.11362
-0.01085,0.97204,0.23454,-0.3092,0.50576,0.12839
-0.03418,0.97278,0.2292,0.19669,-0.39352,-0.45591
-0.03882,0.97232,0.23037,0.19449,-0.44855,-0.59797
-0.02998,0.97128,0.23602,0.05589,-0.46671,-0.07036
-0.01439,0.97062,0.24015,0.10373,-0.21458,0.08024
-0.00024,0.97256,0.23264,0.2534,-0.076,-0.06438
0.00809,0.976,0.21759,0.095,-0.02701,0.2836
0.01136,0.97842,0.20629,-0.11219,0.10791,0.32442
0.00742,0.97998,0.19896,-0.20364,-0.05024,-0.10526
0.00435,0.97948,0.20146,-0.07372,-0.51774,-0.09255
0.00466,0.97777,0.20962,-0.07708,-0.58959,-0.00921
0.00735,0.97488,0.22259,-0.14917,-0.06208,0.13213
0.00646,0.97041,0.24138,-0.25735,0.23775,-0.10425
-0.00032,0.96184,0.27359,-0.21977,0.56965,0.02096
-0.01469,0.9481,0.31761,0.05269,0.70065,0.18352
-0.03434,0.92859,0.36952,0.30635,0.66898,0.09388
-0.05591,0.90505,0.42161,0.43047,0.56663,0.04215
-0.07265,0.87992,0.46953,0.47663,0.10875,-0.09412
-0.07819,0.85817,0.50738,0.30162,0.07512,-0.03293
-0.07957,0.84298,0.53201,0.00851,0.05854,-0.02423
-0.07915,0.83356,0.54672,0.05925,0.14267,-0.06947
-0.08093,0.8299,0.552,0.18891,0.08436,-0.1068
-0.0845,0.83306,0.54669,0.31156,-0.16514,-0.16661
-0.08577,0.84295,0.53111,0.34981,-0.30829,-0.15827
-0.07931,0.85706,0.50907,0.30647,-0.5441,-0.29467
-0.06107,0.87291,0.48404,0.07481,-0.58873,-0.22839
-0.03416,0.88929,0.45606,-0.13012,-0.66949,-0.10951
-0.00204,0.9062,0.42283,-0.18609,-0.66055,-0.08778
0.03197,0.92187,0.38618,-0.05752,-0.02953,-0.23216
0.06666,0.93404,0.35088,0.00948,0.06607,-0.09345
0.09638,0.9425,0.31999,0.0726,0.13309,0.01874
0.1155,0.94901,0.29331,0.25163,-0.09459,0.19103
0.1221,0.95522,0.26951,0.29946,-0.10946,0.24573
0.12112,0.96029,0.25132,0.32859,0.07405,0.4354
0.10989,0.96416,0.24148,0.24332,0.26185,0.3705
0.08958,0.97021,0.22508,0.23055,-0.03573,-0.64702
0.08538,0.97378,0.21086,0.26959,0.05265,-0.45252
0.0957,0.97148,0.21692,-0.18018,0.27286,0.32343
0.09577,0.97295,0.21024,-0.24866,0.25887,-0.06803
0.08767,0.97635,0.1976,0.12765,0.78056,-0.20686
0.08108,0.97507,0.20654,-0.10348,1.55775,0.73088
0.05965,0.97377,0.21957,-0.38865,0.17877,0.1055
0.04629,0.97349,0.22397,0.10278,-0.51755,-0.55465
0.04646,0.97422,0.22073,-0.03987,-0.74667,-0.56877
0.05654,0.97512,0.21433,-0.0763,-0.3054,-0.07995
0.06722,0.97535,0.21016,0.01983,0.55943,0.27438
0.0692,0.97705,0.20145,0.05119,0.388,0.22483
0.06834,0.97908,0.19164,0.00538,-0.2164,0.09797
0.06936,0.98004,0.18627,-0.12045,-0.20502,0.23473
0.07036,0.98002,0.18603,-0.09205,-0.08434,0.04525
0.07166,0.97862,0.19275,-0.21846,-0.0936,0.0817
0.07191,0.97529,0.20886,-0.1218,-0.15616,0.10762
0.07086,0.97056,0.2302,-0.02666,-0.21558,0.03128
0.06985,0.96381,0.25727,-0.09961,-0.16518,-0.21199
0.06804,0.95371,0.29291,-0.10301,0.06133,-0.08008
0.05985,0.93834,0.34048,-0.03016,0.36267,0.06199
0.04438,0.92046,0.38829,0.22912,0.36565,-0.07074
0.02577,0.90154,0.43192,0.38215,0.19223,-0.15052
0.01103,0.88197,0.47116,0.39899,0.18608,-0.14252
-0.00103,0.86431,0.50294,0.08703,0.07145,-0.20376
-0.01488,0.85078,0.5253,0.08957,0.12093,-0.11302
-0.02922,0.84049,0.54103,0.16681,0.40663,0.08876
-0.03795,0.83694,0.54597,0.12599,0.40716,-0.01266
-0.0386,0.84016,0.54095,0.17151,-0.15158,-0.08756
-0.03512,0.85115,0.52373,0.15528,-0.46035,-0.15056
-0.02625,0.86816,0.49558,0.06223,-0.52351,-0.11803
-0.00983,0.88741,0.46086,-0.02327,-0.58405,-0.01187
0.01308,0.9069,0.42113,-0.21415,-0.49972,-0.14986
0.04521,0.92434,0.37887,-0.1448,-0.25315,-0.19941
0.08388,0.93762,0.33737,-0.08979,-0.03572,-0.26691
0.12373,0.94622,0.29892,0.44158,0.27096,-0.22003
0.15987,0.95271,0.25841,0.45529,0.04051,-0.02242
0.18508,0.95778,0.21999,0.40736,-0.27907,0.21589
0.19658,0.96067,0.19612,-0.28031,-0.70215,0.45958
0.19646,0.96277,0.18566,-0.53385,-0.68024,0.15867
0.18411,0.96671,0.17769,-0.54312,-0.6758,-0.27447
0.18123,0.96723,0.17779,0.13983,0.94274,0.40407
0.1823,0.96373,0.19491,-0.08474,1.52425,0.70143
0.1635,0.9663,0.19878,-0.39955,1.0862,-0.05865
0.13312,0.97044,0.20128,-0.01186,-0.08499,-0.09427
0.11677,0.97228,0.20253,0.10868,0.06865,-0.27428
0.1099,0.97435,0.19637,-0.27253,0.16873,-0.21511
0.10694,0.97583,0.19054,-0.14957,0.04237,-0.06386
0.11178,0.97709,0.18109,0.08663,-0.1189,-0.07961
0.1242,0.97664,0.17533,0.27813,-0.12735,-0.04527
0.1435,0.97471,0.17128,0.37377,-0.09899,0.25473
0.16429,0.97263,0.1643,-0.02751,0.07024,0.2851
0.18105,0.97095,0.15644,-0.34455,0.25224,0.21374
0.19324,0.96934,0.15176,-0.45298,0.15411,0.08929
0.20533,0.96678,0.1522,-0.464,0.08311,0.07893
0.22112,0.96241,0.15766,-0.35886,-0.03326,0.00122
0.23883,0.95594,0.17067,-0.36371,0.12516,-0.09968
0.25102,0.94767,0.19724,-0.2902,0.32237,0.03915
0.25419,0.93799,0.23569,0.17835,0.70117,0.3388
0.24375,0.92788,0.28215,0.20339,0.57104,0.03401
0.22234,0.91726,0.33043,0.27811,0.46862,-0.28643
0.19642,0.90622,0.37438,0.26563,0.74565,-0.17049
0.16987,0.89769,0.40655,0.109,0.85385,-0.24052
0.14741,0.89038,0.43067,-0.34936,0.68182,-0.27829
0.12595,0.88235,0.45341,-0.21845,0.39843,-0.20697
0.1057,0.87877,0.46539,0.02815,0.11676,-0.39289
0.09275,0.87835,0.46891,0.26635,-0.06674,-0.46971
0.09132,0.87676,0.47216,0.29395,-0.16288,-0.3603
0.09396,0.87576,0.4735,0.04812,-0.24501,-0.47671
0.10556,0.87177,0.4784,-0.03058,-0.28619,-0.44831
0.12535,0.866,0.48407,0.10513,-0.33186,-0.33713
0.14844,0.86158,0.48542,0.21274,-0.27265,-0.1781
0.16877,0.86139,0.47906,0.21661,-0.22336,-0.09576
0.18394,0.86638,0.46426,0.07898,-0.16301,-0.06712
0.19807,0.87257,0.44651,-0.05246,-0.04389,-0.14624
0.21638,0.87561,0.43181,-0.10101,0.02284,-0.15552
0.23706,0.87435,0.42344,-0.0904,-0.0532,-0.1048
0.25763,0.87007,0.42021,-0.03801,-0.02828,0.05578
0.27866,0.86557,0.41608,-0.07898,0.02983,0.09632
0.29602,0.8628,0.4098,-0.21882,0.23199,0.16825
0.30959,0.86012,0.40537,-0.25399,0.29347,0.23783
0.31708,0.85777,0.40457,-0.24001,0.27523,0.16242
0.31056,0.86018,0.40451,-0.2006,0.16533,-0.01466
0.29818,0.86581,0.4018,0.15287,0.14516,-0.09447
0.28405,0.87279,0.3969,0.20899,0.2107,-0.23215
0.26605,0.88051,0.39232,0.29807,0.36513,-0.38202
0.25346,0.88712,0.38569,-0.03879,-0.12176,-0.1269
0.25637,0.8884,0.38079,-0.08755,-0.28145,-0.1938
0.26409,0.88639,0.38021,-0.10974,-0.366,-0.43746
0.28374,0.88485,0.36948,-0.11047,0.45707,-0.56433
0.30784,0.88447,0.35061,-0.22761,0.565,-0.39155
0.32509,0.88525,0.33263,-0.23311,0.46642,-0.27348
0.33508,0.8884,0.31378,-0.15993,0.03198,-0.15714
0.34309,0.89245,0.29294,-0.15434,0.04612,-0.26793
0.35223,0.89593,0.2706,-0.06473,0.02445,-0.26366
0.36179,0.89898,0.24684,0.10919,-0.12014,-0.06735
0.36878,0.90246,0.22262,0.09822,-0.14176,-0.0575
0.37555,0.90494,0.20011,-0.14216,-0.00723,-0.08415
0.38196,0.9066,0.17934,-0.24684,0.13766,-0.10822
0.38722,0.90798,0.1601,-0.25477,0.12915,-0.10583
0.39189,0.90878,0.14329,-0.19475,-0.03053,0.06762
0.39575,0.90973,0.12553,-0.17611,-0.03281,0.13994
0.4002,0.91033,0.10553,-0.19385,-0.02536,0.14534
0.40599,0.91004,0.08364,-0.26601,0.06045,0.05337
0.41282,0.9087,0.06189,-0.22176,0.12822,0.0779
0.42084,0.90625,0.03986,-0.24949,0.10762,0.10545
0.42828,0.90343,0.01959,-0.27607,0.10754,0.08009
0.43267,0.90154,0.00379,-0.23737,0.0834,-0.07415
0.43433,0.90068,-0.01117,-0.23735,0.11795,-0.1707
0.43354,0.90078,-0.02526,-0.23133,0.16011,0.01916
0.43008,0.90206,-0.03611,-0.17228,0.17254,0.12974
0.42545,0.90401,-0.04187,-0.14611,0.39398,0.1054
0.42049,0.90643,-0.03966,-0.22761,0.59635,0.14621
0.41334,0.91027,-0.02333,-0.38293,0.66118,-0.00403
0.4012,0.91597,0.00586,-0.31877,0.57613,-0.00992
0.38675,0.92117,0.04306,-0.11114,0.34781,0.29776
0.37387,0.92242,0.09675,0.0344,0.08503,0.04271
0.3668,0.91712,0.15604,0.12142,0.01974,-0.31264
0.35857,0.9098,0.20902,-0.15709,-0.07517,-0.4262
0.34429,0.903,0.257,-0.46309,0.16271,-0.30356
0.33012,0.89553,0.29839,-0.39026,0.36512,-0.32071
0.31687,0.89046,0.32659,-0.13764,0.82795,-0.26267
0.2988,0.8891,0.34671,0.01735,0.4637,-0.36531
0.27995,0.8884,0.36382,0.09102,0.12962,-0.3738
0.26535,0.88574,0.38085,0.2303,-0.25105,-0.30178
0.25373,0.88327,0.39427,0.06665,-0.37628,-0.36592
0.25005,0.8805,0.40272,-0.0848,-0.42539,-0.30181
0.25213,0.87811,0.40662,-0.08207,-0.33801,-0.27556
0.25857,0.87662,0.40578,-0.01535,-0.34182,-0.39045
0.27194,0.87542,0.39961,0.0201,-0.42496,-0.27682
0.29141,0.87555,0.38535,0.02015,-0.28836,-0.07532
0.3139,0.87763,0.36226,-0.0854,-0.09198,0.15669
0.33498,0.88053,0.33533,-0.13372,0.19581,0.35557
0.35324,0.88121,0.31413,-0.09849,0.37823,0.50555
0.36253,0.87893,0.30991,-0.36889,0.17986,0.32568
0.36349,0.87587,0.31738,-0.41459,-0.00335,0.26519
0.35616,0.87625,0.32455,-0.41045,-0.21061,0.16942
0.33767,0.87865,0.33757,0.03892,0.53119,-0.91723
0.31162,0.884,0.34847,0.2787,0.69133,-0.82564
0.30182,0.89147,0.33791,-0.1037,-0.04582,-0.4424
0.29172,0.8956,0.33584,0.06973,-0.51241,-0.21407
0.29749,0.89365,0.33596,0.15351,-0.08837,-0.29052
0.31937,0.89085,0.32308,0.13908,0.48622,-0.44956
0.34197,0.88565,0.31411,0.11278,0.47107,0.03602
0.35575,0.88401,0.30323,-0.12644,0.03238,0.24323
0.35883,0.88842,0.28626,-0.21131,0.02872,-0.07853
0.36059,0.89535,0.26137,-0.28803,0.0902,-0.16324
0.36288,0.90045,0.2398,-0.30269,0.02802,0.00013
0.36264,0.90489,0.22284,-0.22298,-0.11844,0.0387
0.36101,0.90902,0.2082,-0.19076,-0.16394,-0.02146
0.36058,0.91167,0.19707,-0.27406,-0.24387,0.08668
0.36024,0.91367,0.18824,-0.34059,-0.27875,0.23912
0.3575,0.91533,0.18537,-0.30281,-0.12346,0.20539
0.35093,0.91631,0.19291,-0.22288,-0.02686,0.0024
0.34194,0.91731,0.20398,-0.20639,-0.08688,0.06712
0.33304,0.91678,0.22046,-0.16296,-0.24695,0.22126
0.32672,0.91434,0.23922,-0.17814,-0.37957,0.00157
0.32222,0.91156,0.25539,-0.24768,-0.39992,-0.0265
0.32048,0.90805,0.2697,-0.30321,-0.12829,-0.02391
0.31833,0.9037,0.28634,-0.40503,0.34745,0.14866
0.31145,0.89924,0.30719,-0.60222,0.53595,-0.21184
0.29539,0.89442,0.33577,-0.57129,0.68177,-0.08538
0.27044,0.88588,0.37692,-0.33434,0.70322,-0.11679
0.24568,0.87334,0.42061,0.40652,0.23439,-0.19873
0.22182,0.85855,0.46225,0.56648,-0.06648,-0.31058
0.20851,0.84379,0.49451,0.37439,-0.1587,-0.0569
0.20001,0.83457,0.51331,0.03248,-0.149,0.04757
0.19032,0.83312,0.51931,0.07596,0.27533,-0.20368
0.18066,0.83463,0.52034,0.09022,0.34573,-0.2464
0.16951,0.84036,0.51483,0.13926,0.01507,-0.23583
0.16652,0.85054,0.49885,0.16899,-0.43417,-0.1711
0.17377,0.86281,0.47471,0.08594,-0.49258,-0.07769
0.18847,0.8764,0.44316,-0.02469,-0.57521,0.09665
0.20516,0.8916,0.40367,-0.13894,-0.65732,0.10227
0.2209,0.90584,0.36145,-0.18395,-0.56821,-0.03792
0.24336,0.91432,0.32372,-0.21645,-0.38642,-0.20218
0.2729,0.91566,0.2951,0.2257,0.27298,-0.19777
0.30151,0.91527,0.26714,0.25762,0.22358,-0.09965
0.31761,0.9176,0.239,0.23877,0.07274,0.02243
0.31827,0.92405,0.2117,-0.25806,-0.00664,0.18763
0.30654,0.93307,0.18817,-0.36899,-0.02552,0.37656
0.28551,0.94328,0.16943,-0.42911,-0.02456,0.46634
0.26623,0.94982,0.16421,-0.15742,0.71754,0.1872
0.25152,0.95026,0.18365,-0.20935,0.3682,-0.06451
0.23986,0.95155,0.19237,0.16388,1.039,0.57745
0.23352,0.94489,0.22946,0.27603,0.9798,0.18565
0.2235,0.94433,0.24142,0.06185,-0.2505,-0.4496
0.21477,0.94651,0.24079,-0.13354,-0.49193,-0.33381
0.21011,0.94858,0.23674,-0.03986,0.0645,0.04413
0.21269,0.94952,0.2306,-0.00605,0.13555,0.02894
0.21877,0.9497,0.22405,-0.10368,0.20128,0.24702
0.22751,0.94789,0.22303,-0.05365,0.3691,0.47088
0.23347,0.94645,0.22296,-0.01317,0.0461,0.30802
0.23657,0.94427,0.22887,-0.13023,-0.27446,0.2546
0.24056,0.94075,0.23901,-0.27144,-0.34202,0.03687
0.24426,0.9348,0.25785,-0.31525,-0.13801,0.00581
0.24303,0.92607,0.28868,-0.33406,-0.02271,-0.00596
0.23533,0.91402,0.33041,-0.20243,0.05804,-0.11069
0.2237,0.89585,0.38394,-0.01203,0.21571,-0.1589
0.2111,0.87233,0.441,0.2379,0.20719,-0.25412
0.20115,0.84845,0.48956,0.48639,-0.00763,-0.34523
0.19255,0.82932,0.52454,0.17605,-0.27378,-0.00739
0.18275,0.81403,0.55132,-0.00334,-0.11384,0.09808
0.17157,0.80636,0.56598,0.01256,0.19457,-0.10781
0.15829,0.80503,0.57172,0.0644,0.21426,-0.17735
0.14871,0.80997,0.5673,0.26099,-0.04402,-0.22167
0.15298,0.82,0.55154,0.05227,-0.28666,-0.05119
0.17356,0.83378,0.5241,-0.08225,-0.35839,0.05294
0.20335,0.85162,0.4831,-0.21843,-0.44395,0.15301
0.23206,0.87216,0.43067,-0.35437,-0.43888,0.29095
0.2575,0.89166,0.37232,-0.34091,-0.25162,0.17556
0.28152,0.90564,0.3171,-0.10047,0.23111,-0.32597
0.30175,0.9137,0.27222,0.17298,0.12918,-0.19879
0.31849,0.9187,0.23356,0.22558,-0.04558,-0.07141
0.33003,0.9214,0.20521,0.25391,0.00437,0.25026
0.32711,0.92572,0.18982,-0.19468,0.07786,0.75984
0.30286,0.93406,0.18922,-0.25889,-0.08741,-0.10026
0.28158,0.94278,0.17855,-0.02758,-0.2877,-0.37312
0.27538,0.94127,0.19535,-0.39232,0.18308,0.03905
0.27358,0.94077,0.20025,-0.42507,0.10125,-0.24811
0.26631,0.94378,0.19583,-0.21632,0.26973,-0.2883
0.26153,0.93822,0.2266,-0.19728,0.8333,0.09929
0.24134,0.9424,0.2316,-0.06652,-0.17139,-0.46069
0.22817,0.94605,0.23003,-0.03599,-1.01338,-0.27655
0.22792,0.94368,0.23983,-0.08369,-0.78984,0.01306
0.24741,0.93895,0.2391,0.0716,-0.2317,0.29856
0.26255,0.93333,0.24486,-0.06311,0.6704,0.25129
0.26528,0.9319,0.24734,-0.16983,-0.03537,0.13584
0.26387,0.93127,0.2512,-0.25476,-0.10356,0.08675
0.26038,0.92896,0.26311,-0.51174,-0.00016,0.06835
0.25345,0.92521,0.28239,-0.40334,-0.0091,-0.04896
0.24284,0.91738,0.31533,-0.30451,0.01958,-0.01203
0.22793,0.90245,0.36555,0.03103,-0.04875,-0.16676
0.21558,0.87832,0.4267,0.25201,-0.06082,-0.37758
0.21324,0.84772,0.48569,0.33705,-0.0976,-0.4841
0.21932,0.81744,0.53262,0.09318,-0.49424,-0.19156
0.22201,0.7947,0.56495,-0.28139,-0.50963,-0.04091
0.21708,0.78243,0.58367,-0.10754,-0.02986,-0.00206
0.20218,0.77996,0.59227,0.26817,0.2386,-0.02849
0.18196,0.78763,0.58866,0.38586,0.33356,-0.03155
0.17776,0.8024,0.56969,0.18851,0.16729,-0.17312
0.19786,0.81715,0.5414,-0.05981,-0.19476,0.14422
0.22346,0.83317,0.50586,-0.36404,-0.40569,0.28865
0.24252,0.85133,0.46521,-0.3845,-0.51806,0.36631
0.25266,0.8722,0.41883,-0.22036,-0.3134,-0.07677
0.27085,0.89007,0.36663,0.03844,0.2082,-0.41089
0.30023,0.89878,0.31945,0.26822,0.6209,-0.34979
0.33005,0.90307,0.27481,0.34648,0.28099,0.02016
0.34783,0.90905,0.22943,0.19329,-0.27268,0.23607
0.35009,0.91692,0.19154,-0.00277,-0.45671,0.22009
0.34477,0.92461,0.16193,-0.12373,-0.50059,0.3181
0.33997,0.93037,0.1372,-0.09639,-0.25644,-0.34333
0.34094,0.9322,0.12148,0.15066,0.16123,0.04504
0.34591,0.92977,0.12599,-0.01963,0.40405,0.34199
0.33932,0.93175,0.12918,-0.0779,0.4103,-0.2959
0.32362,0.93713,0.1306,-0.06219,0.40493,-0.29732
0.30855,0.94144,0.13597,-0.1494,0.17541,-0.05905
0.29366,0.94354,0.15328,-0.15073,0.7585,0.45069
0.27956,0.9459,0.16466,-0.10047,0.26533,-0.22523
0.2697,0.94877,0.16459,-0.001,-0.20102,-0.49988
0.26902,0.94813,0.16934,0.03286,-0.02998,0.41542
0.27639,0.94529,0.17328,0.06512,0.09977,0.43211
0.28543,0.94314,0.17032,-0.04527,0.28919,0.17506
0.2893,0.94224,0.16876,-0.17991,0.32382,0.03267
0.28702,0.94252,0.17107,-0.29713,0.05882,0.07581
0.28024,0.94239,0.18263,-0.33336,-0.00328,0.11192
0.26785,0.94068,0.20827,-0.30735,0.00721,0.13112
0.25214,0.93563,0.24704,-0.20317,-0.04717,-0.10057
0.2334,0.92459,0.30107,-0.00272,-0.02416,-0.11217
0.21694,0.9017,0.37401,0.05734,0.23728,-0.24794
0.20904,0.86966,0.44721,0.12178,0.23726,-0.27817
0.20813,0.83554,0.50847,0.20336,-0.35907,-0.03945
0.21329,0.80374,0.55543,0.25599,-0.31595,0.09152
0.20943,0.78297,0.58575,0.12689,0.01452,0.15076
0.19525,0.77457,0.60159,0.23739,0.3596,0.00743
0.18238,0.77442,0.60581,0.17727,0.34054,-0.13001
0.18464,0.77652,0.60243,0.03055,-0.05896,-0.19632
0.19364,0.78299,0.59113,-0.024,-0.49901,-0.14612
0.20671,0.79611,0.56876,-0.0683,-0.5384,-0.04927
0.22158,0.81428,0.53652,-0.10753,-0.65454,0.07602
0.23911,0.83592,0.49402,-0.15376,-0.64372,0.11836
0.26501,0.8573,0.44137,-0.20507,-0.02718,-0.06667
0.29972,0.87451,0.38132,-0.1577,0.63219,-0.25162
0.3306,0.88658,0.32353,0.0342,0.80148,-0.22381
0.34521,0.89882,0.27008,0.20504,0.09603,0.00014
0.3494,0.90982,0.22391,0.2723,-0.32798,0.07923
0.3563,0.91549,0.18686,0.25632,-0.16534,0.46495
0.35633,0.92094,0.15779,-0.14577,-0.24916,0.80411
0.33837,0.92927,0.14823,-0.20815,-0.44454,-0.55415
0.32422,0.93527,0.14197,0.14984,-0.32727,-0.35863
0.32558,0.93244,0.1567,-0.23896,0.10029,0.4945
0.32693,0.92885,0.17422,-0.65621,0.48056,-0.09971
0.31157,0.9349,0.16997,-0.15876,0.27774,-0.65575
0.29581,0.93739,0.18385,0.30307,1.73421,1.34675
0.28455,0.93523,0.21067,-0.27372,0.6295,-0.12004
0.26041,0.94327,0.20596,-0.01945,-0.81302,-0.63621
0.25181,0.94453,0.21083,-0.06457,-0.57473,0.19061
0.25979,0.93861,0.22697,0.13374,0.1585,0.5721
0.28253,0.93212,0.22653,0.13799,0.77152,0.5867
0.2889,0.93035,0.2258,-0.03675,0.21893,0.35103
0.28809,0.92957,0.22998,-0.09781,0.13048,0.51838
0.28366,0.92954,0.23555,-0.23916,0.1877,0.48148
0.27328,0.92888,0.24997,-0.36526,-0.07293,0.08026
0.26088,0.92489,0.27662,-0.24487,-0.23936,-0.15016
0.24899,0.91556,0.31582,-0.11277,-0.28184,-0.21771
0.23499,0.89572,0.37744,0.16606,-0.06686,-0.23498
0.2281,0.86777,0.44153,0.26803,-0.04666,-0.36919
0.2335,0.8353,0.49773,0.34101,-0.04713,-0.47057
0.24259,0.80515,0.54118,0.09265,-0.39587,-0.00737
0.24079,0.78406,0.57207,-0.03515,-0.25643,-0.07907
0.23273,0.77354,0.58946,-0.14056,-0.12445,-0.1178
0.21973,0.77051,0.59835,0.12532,-0.04155,-0.14315
0.20872,0.77613,0.59503,0.24381,-0.04247,-0.12222
0.21046,0.79032,0.57541,0.27367,-0.02535,-0.21824
0.23417,0.80595,0.54369,0.06252,-0.10832,0.08589
0.26373,0.82276,0.50349,-0.23486,-0.38575,0.39472
0.28516,0.84235,0.4573,-0.52479,-0.50012,0.20966
0.29795,0.86368,0.40654,-0.36501,-0.16376,-0.30928
0.31312,0.88145,0.35356,-0.19622,0.06684,-0.40199
0.33774,0.89115,0.30296,0.43589,0.63327,-0.33852
0.36897,0.89489,0.25107,0.42123,0.07618,0.18353
0.39318,0.8941,0.21446,0.27003,-0.14116,0.40389
0.39359,0.89695,0.20138,-0.14052,-0.24264,0.50464
0.36871,0.90914,0.19367,-0.34671,-0.54249,-0.24816
0.35399,0.91895,0.17384,-0.30636,-0.52709,-0.53569
0.34842,0.91886,0.18518,-0.2262,0.57487,0.30644
0.33945,0.91819,0.20418,-0.32314,0.82613,0.46293
0.32585,0.92469,0.19688,-0.24466,0.24569,-0.37594
0.31115,0.92752,0.20708,0.2264,1.27594,1.02543
0.30377,0.92306,0.23595,-0.09878,0.16097,-0.37102
0.29776,0.92533,0.23474,-0.13133,-0.57775,-0.57443
0.29991,0.92322,0.24023,-0.14539,-0.48877,0.12559
0.30845,0.92032,0.24053,0.07591,0.67678,0.8133
0.31569,0.91945,0.23442,-0.05815,0.86054,0.12711
0.31149,0.92155,0.23176,-0.1532,0.22492,0.28792
0.3025,0.92196,0.24183,-0.21852,-0.07989,0.36501
0.29662,0.91856,0.26125,-0.30303,-0.07477,0.13949
0.28752,0.90905,0.30157,-0.26801,-0.08258,-0.01782
0.27384,0.89249,0.35842,-0.11609,-0.04095,-0.24028
0.26376,0.86757,0.4216,-0.00936,-0.00455,-0.54512
0.26466,0.83346,0.48508,0.24436,0.09243,-0.45654
0.26731,0.80104,0.5356,0.23234,-0.16117,-0.37202
0.27095,0.77699,0.56821,0.03689,-0.4016,-0.20299
0.26539,0.76203,0.59065,-0.39098,-0.45942,-0.30752
0.25668,0.7531,0.60576,-0.01106,-0.21724,-0.05644
0.2376,0.759,0.60618,0.17616,-0.16403,0.12778
0.22761,0.77864,0.58472,0.31739,0.01011,0.03045
0.24052,0.79915,0.55091,0.13045,-0.18469,-0.03187
0.26545,0.81621,0.51316,-0.07659,-0.3154,0.03181
0.29068,0.83277,0.47116,-0.24611,-0.42765,0.18665
0.31405,0.84991,0.4231,-0.3034,-0.09067,0.038
0.34702,0.86279,0.36764,-0.21227,0.17558,-0.0975
0.38451,0.86773,0.31493,-0.01897,0.5103,-0.12013
0.41481,0.86991,0.2668,0.34532,0.1229,0.16593
0.42821,0.87458,0.22746,0.21458,-0.20364,0.18834
0.43167,0.87984,0.19886,0.14549,-0.36903,0.20659
0.42179,0.88881,0.17921,-0.62339,-0.53657,-0.09811
0.39922,0.90305,0.15851,-0.59739,-0.67772,-0.50336
0.39216,0.90926,0.13946,-0.34124,-0.53512,-0.52039
0.38967,0.90797,0.15408,-0.6043,0.90341,0.19413
0.37504,0.91402,0.15465,-0.50141,0.86444,0.27184
0.35344,0.91933,0.17292,0.42495,1.44117,0.72474
0.34113,0.91645,0.20913,0.11114,-0.32884,-0.69594
0.33769,0.9178,0.20883,0.00182,-0.57663,-0.88917
0.33603,0.91931,0.2048,-0.18705,-0.77313,-0.58007
0.33625,0.91874,0.20699,-0.14132,0.35601,0.21698
0.34788,0.91737,0.19343,-0.12949,0.51589,0.29214
0.35564,0.91666,0.18232,-0.04546,0.31365,0.29555
0.36497,0.91509,0.17146,-0.14252,-0.05948,0.18496
0.37692,0.91122,0.16615,-0.27771,-0.12084,0.25334
0.38918,0.90689,0.16152,-0.60041,0.28086,0.18756
0.39884,0.90256,0.16216,-0.76591,0.53654,0.10706
0.40771,0.8965,0.17337,-0.68618,0.49158,-0.02543
0.41158,0.88905,0.20048,-0.06358,0.42124,0.18904
0.40897,0.88012,0.2411,0.10849,0.2907,0.18509
0.40117,0.86948,0.28819,0.22462,0.11985,0.09953
0.38788,0.86036,0.33063,0.29431,-0.0619,-0.41226
0.36951,0.8546,0.36486,0.16464,0.36109,-0.3363
0.34619,0.85052,0.39593,0.021,1.53693,0.24388
0.32336,0.85275,0.41019,-0.19779,1.59868,-0.13836
0.29851,0.86131,0.41114,-0.21178,0.12382,-0.35684
0.28105,0.86783,0.40973,-0.08887,-0.22244,-0.30185
0.27349,0.87239,0.40515,0.17584,-0.13267,-0.2823
0.27151,0.87645,0.39763,0.24298,-0.0154,-0.13201
0.27606,0.87799,0.39105,0.05858,-0.10473,-0.23312
0.29079,0.87508,0.38687,0.05642,-0.32127,-0.35166
0.31374,0.86806,0.38475,0.1132,-0.45125,-0.28364
0.33753,0.8599,0.38294,0.16412,-0.47779,0.02606
0.35658,0.85509,0.37637,0.12964,-0.36129,0.20932
0.37375,0.85354,0.36301,-0.09547,-0.17149,0.24125
0.39143,0.85235,0.3468,-0.2195,-0.07846,0.21448
0.40865,0.84953,0.33362,-0.32195,0.00207,-0.05011
0.42499,0.84501,0.32455,-0.19631,0.06753,0.01679
0.43832,0.84133,0.31627,-0.12265,0.11667,0.05569
0.44705,0.83933,0.30929,0.05532,0.18697,0.33719
0.45291,0.83773,0.3051,0.02599,0.0538,0.42641
0.4499,0.83995,0.30344,-0.1571,-0.19006,0.1855
0.43716,0.84757,0.30085,-0.15056,-0.26119,-0.05625
0.42613,0.85591,0.29297,0.03479,-0.02136,-0.08649
0.41855,0.86435,0.27875,0.3441,0.46986,-0.02849
0.40961,0.87216,0.26748,0.4059,1.10507,0.17191
0.39642,0.87586,0.27517,-0.17188,0.72399,0.19102
0.38005,0.879,0.28795,-0.20268,-0.44693,-0.35002
0.37249,0.88371,0.28337,-0.11774,-1.04568,-0.66141
0.38136,0.88512,0.26667,-0.24573,-0.09083,-0.36965
0.39725,0.88238,0.25217,-0.40597,0.62392,-0.1291
0.40095,0.88307,0.24376,-0.51437,1.11789,-0.02827
0.40009,0.88809,0.22631,-0.11424,0.1939,-0.16538
0.3957,0.89521,0.205,-0.0241,0.01001,-0.12013
0.39946,0.89815,0.18373,0.12574,-0.09051,-0.12887
0.40654,0.89933,0.16101,0.25787,-0.1751,-0.0402
0.41246,0.90075,0.13607,0.14378,-0.1811,-0.04566
0.41877,0.90124,0.11136,-0.01609,-0.04873,-0.00843
0.42457,0.90126,0.08645,-0.11726,0.11814,-0.07311
0.42816,0.90153,0.06256,-0.15423,0.06822,-0.04319
0.43071,0.90159,0.04032,-0.16583,-0.08762,0.08024
0.43424,0.90058,0.01981,-0.18065,-0.05695,0.12794
0.43801,0.89897,0.00188,-0.11936,-0.0081,0.12236
0.44248,0.89664,-0.01543,-0.08152,-0.02668,0.17689
0.44855,0.8931,-0.0344,-0.16272,-0.00718,0.18037
0.45511,0.88882,-0.05358,-0.20554,0.05921,0.13389
0.46011,0.88501,-0.07113,-0.14606,0.18898,0.10566
0.46132,0.88298,-0.08673,-0.09447,0.18265,0.18223
0.46002,0.88195,-0.1027,-0.16836,0.21194,0.21229
0.45824,0.8819,-0.1107,-0.23667,0.3552,0.16553
0.45511,0.88352,-0.1107,-0.16323,0.43029,0.18865
0.45035,0.88684,-0.10347,-0.16269,0.45702,0.22473
0.44359,0.89206,-0.08639,-0.21048,0.42136,0.18618
0.43456,0.89906,-0.05338,-0.20345,0.50107,0.20577
0.42439,0.90546,-0.00627,-0.13842,0.43875,0.343
0.41542,0.90812,0.05225,-0.00898,0.19846,0.11438
0.40627,0.90619,0.11732,-0.01293,0.16869,-0.29572
0.39384,0.90122,0.18079,-0.02561,0.19604,-0.40926
0.37608,0.89675,0.23324,-0.01545,0.24364,-0.41997
0.35568,0.89412,0.27209,-0.26032,0.62095,-0.15616
0.33181,0.89287,0.30445,-0.23645,0.62221,-0.18852
0.30728,0.89215,0.33113,0.00327,0.36176,-0.41833
0.28476,0.88998,0.35615,0.15409,-0.12143,-0.4501
0.26566,0.88453,0.38343,0.17553,-0.17988,-0.39977
0.24708,0.87892,0.40799,0.11857,-0.24432,-0.323
0.23231,0.87356,0.42768,0.05785,-0.2202,-0.31379
0.22134,0.86841,0.4437,0.01381,-0.19238,-0.31437
0.21615,0.86425,0.45425,0.07913,-0.16228,-0.36004
0.21942,0.86113,0.45859,0.13531,-0.14807,-0.39436
0.22892,0.8583,0.45925,0.188,-0.23353,-0.25713
0.24064,0.85747,0.45479,0.25713,-0.28699,-0.1662
0.252,0.85978,0.44416,0.25088,-0.31159,-0.14599
0.26284,0.86455,0.42831,0.15582,-0.33254,-0.11263
0.27496,0.8703,0.40861,0.01951,-0.25176,-0.04496
0.29013,0.87554,0.38634,-0.0546,-0.05376,0.1143
0.30947,0.87928,0.36205,-0.05995,0.03353,0.17478
0.33034,0.87948,0.34262,-0.04732,0.12563,0.26888
0.345,0.87535,0.33872,-0.10499,0.55124,0.63188
0.34355,0.87257,0.34726,-0.20717,0.27385,0.56842
0.32648,0.87557,0.35607,-0.33881,-0.25741,-0.14764
0.31211,0.87998,0.35806,-0.04581,0.05678,-0.55876
0.30671,0.88476,0.35089,0.11915,0.60064,-0.70058
0.29399,0.89363,0.3391,0.3804,0.88059,-0.51122
0.27456,0.89899,0.34122,0.24419,0.39755,0.03922
0.26022,0.89691,0.35752,0.22012,-0.25922,0.04364
0.25783,0.89744,0.35793,0.32835,-1.15583,-0.33048
0.27706,0.9,0.3365,0.04022,-0.28859,-0.24663
0.29991,0.89723,0.32409,-0.11265,0.38709,-0.28958
0.315,0.89423,0.31799,-0.07327,0.71517,-0.54853
0.32251,0.89486,0.30854,-0.05255,0.09758,0.08349
0.32569,0.89916,0.29229,-0.02815,-0.10487,-0.03603
0.33091,0.90349,0.27238,-0.02087,-0.14092,-0.11937
0.33516,0.90809,0.25106,0.00595,-0.13842,-0.11239
0.33829,0.91185,0.23255,0.04891,-0.03105,-0.14071
0.34249,0.91363,0.21902,0.04104,-0.02441,-0.02655
0.34698,0.91447,0.20819,-0.03452,-0.07453,0.06924
0.35073,0.91508,0.19902,-0.1419,-0.07574,0.05813
0.35249,0.91582,0.1924,-0.18658,-0.07015,0.0641
0.35143,0.91674,0.18994,-0.28336,-0.10863,0.21033
0.34577,0.91748,0.19662,-0.32597,-0.17531,0.1237
0.33798,0.91779,0.20838,-0.18547,-0.33332,0.12948
0.33312,0.91736,0.21789,-0.17585,-0.28717,-0.01586
0.32906,0.91565,0.23086,-0.17905,-0.24414,-0.03313
0.32595,0.91358,0.24317,-0.17805,-0.03908,-0.03279
0.31957,0.91416,0.24936,-0.05986,-0.11481,-0.26212
0.31287,0.91445,0.25668,-0.01878,-0.19509,-0.20742
0.30958,0.91243,0.26763,-0.03321,-0.05132,-0.11014
0.3102,0.90964,0.27626,-0.09592,0.19236,-0.07151
0.30937,0.90725,0.28492,-0.28306,0.33059,0.04711
0.29927,0.90432,0.30434,-0.39063,0.41931,-0.09766
0.28107,0.89817,0.33807,-0.16255,0.50139,-0.01116
0.25566,0.88555,0.38785,0.19482,0.60581,0.18689
0.22642,0.86528,0.44723,0.50035,0.48723,0.10638
0.19792,0.84062,0.50415,0.51005,0.13159,-0.25235
0.18533,0.8141,0.55036,0.42043,-0.29548,-0.53862
0.18918,0.78702,0.5872,0.1531,-0.42895,-0.23709
0.19279,0.76492,0.61458,0.04033,-0.00647,-0.08783
0.18668,0.75438,0.62933,0.23204,0.44984,0.01804
0.17381,0.7587,0.62782,0.39867,0.63161,-0.1316
0.16369,0.77048,0.61608,0.26425,-0.17755,-0.28184
0.16037,0.78832,0.59399,0.23365,-0.38875,-0.30728
0.1635,0.80949,0.5639,0.17448,-0.52393,-0.33997
0.17202,0.83182,0.5277,-0.27577,-0.76706,0.16677
0.18253,0.85535,0.48481,-0.23391,-0.78097,0.13335
0.19608,0.87962,0.43336,-0.1603,-0.44501,-0.18716
0.22088,0.89814,0.38019,0.02532,0.15312,-0.39345
0.25107,0.90741,0.33698,0.22453,0.53328,-0.4013
0.27944,0.91126,0.3025,0.44577,0.27665,0.02115
0.29245,0.91646,0.27305,0.15715,-0.45998,0.30027
0.29055,0.92438,0.24716,-0.04344,-0.6451,0.31661
0.28219,0.93277,0.22427,-0.38657,-0.45133,-0.04977
0.27198,0.94004,0.20578,-0.11076,-0.10447,-0.44359
0.26785,0.94212,0.20163,0.02776,0.45595,0.27902
0.26265,0.93575,0.23532,-0.06755,1.04696,0.5397
0.24771,0.93293,0.26131,-0.11817,0.89927,0.21191
0.22682,0.93914,0.25799,0.03027,-0.46473,-0.87813
0.21524,0.94273,0.2548,0.3125,-0.08828,0.37583
0.22389,0.93797,0.26472,0.43914,1.93017,0.90778
0.21095,0.94152,0.26273,-0.16889,0.46429,-0.47804
0.19668,0.94466,0.26253,-0.09051,-0.63149,-0.30583
0.19847,0.94058,0.27551,0.05874,-0.45683,0.55426
0.21537,0.93707,0.27479,0.22104,0.3799,0.40343
0.22479,0.9353,0.27328,-0.00819,0.89533,0.07299
0.21955,0.93312,0.28475,-0.06431,0.24476,0.11446
0.20576,0.92754,0.31197,-0.06079,-0.17283,0.02941
0.19365,0.91524,0.3533,0.01202,-0.21125,-0.06923
0.17524,0.89671,0.40645,-0.01142,-0.30137,-0.25631
0.16244,0.86825,0.46877,0.01848,-0.20834,-0.44448
0.16662,0.82886,0.53407,0.32705,-0.02653,-0.53922
0.17911,0.78737,0.58988,0.27469,-0.2545,-0.35636
0.18832,0.75175,0.63198,0.2008,-0.3619,-0.24607
0.19327,0.72585,0.66014,0.00734,-0.03778,-0.22676
0.19435,0.70872,0.67818,0.22938,0.06513,-0.16787
0.18552,0.70593,0.68355,0.45617,-0.03073,-0.05969
0.17818,0.71989,0.67082,0.38811,-0.10514,-0.08119
0.18684,0.74427,0.64121,0.27123,-0.12378,0.10838
0.20688,0.77057,0.60284,0.13523,-0.28926,0.19282
0.22517,0.79602,0.56182,-0.04587,-0.43422,0.27661
0.23338,0.82585,0.51332,-0.31689,-0.21959,-0.12964
0.23898,0.85885,0.45306,-0.29406,-0.00167,-0.38918
0.25339,0.88317,0.3947,-0.22705,0.21496,-0.51291
0.27905,0.89605,0.34527,0.39881,0.43209,-0.10482
0.30918,0.9026,0.29952,0.33032,0.23465,0.176
0.32792,0.90605,0.26747,0.2703,0.10085,0.38543
0.32737,0.91294,0.24365,0.22606,-0.27129,0.69149
0.30378,0.92663,0.2215,0.01873,-0.3705,0.08763
0.28727,0.93716,0.19799,-0.02012,-0.43156,-0.51644
0.28814,0.93552,0.20437,-0.15571,-0.03348,0.15794
0.28702,0.92897,0.23373,-0.4415,0.19759,0.0424
0.27484,0.93293,0.23257,-0.17745,0.08435,-0.73972
0.26049,0.94084,0.21668,0.51403,1.17546,0.42151
0.24911,0.93942,0.23545,0.49154,1.98682,1.25419
0.21999,0.94203,0.25333,0.11986,-0.47891,-0.66632
0.20741,0.94304,0.26009,0.09548,-1.11887,-0.54541
0.21271,0.93575,0.28128,-0.04175,-1.15508,-0.20549
0.22634,0.92601,0.3021,0.0554,0.21027,0.52779
0.24877,0.92062,0.30093,0.23595,1.42921,0.20525
0.24382,0.92337,0.29652,-0.08037,0.57045,0.17623
0.22802,0.92675,0.29856,-0.25256,0.05213,0.07835
0.21155,0.92674,0.31046,-0.35588,-0.18494,0.07862
0.19869,0.9195,0.33916,-0.26322,-0.19808,-0.13769
0.18696,0.90506,0.38196,-0.04948,0.03781,-0.10456
0.17514,0.87865,0.44416,0.23312,0.19672,-0.14552
0.16994,0.84301,0.51033,0.57679,0.26617,-0.3032
0.16979,0.80749,0.5649,0.59578,0.01711,-0.45428
0.17166,0.77962,0.60226,0.3093,-0.38477,-0.11529
0.15757,0.76362,0.62613,-0.00794,-0.2971,-0.10614
0.1343,0.76252,0.63287,0.09749,-0.03431,-0.07783
0.11025,0.77082,0.62743,0.21916,0.03798,-0.23461
0.0985,0.78234,0.61501,0.25224,-0.102,-0.38562
0.1034,0.79641,0.59584,0.24368,-0.31187,-0.3573
0.12512,0.81125,0.57114,0.11795,-0.42409,-0.14826
0.15616,0.8262,0.54128,0.00022,-0.52571,0.02128
0.18543,0.84397,0.50331,-0.24401,-0.63584,0.43201
0.21206,0.86564,0.45353,-0.30046,-0.3576,0.24691
0.23921,0.88646,0.39618,-0.20207,-0.17283,-0.03937
0.26719,0.89751,0.35083,0.4384,0.47385,-0.62521
0.29143,0.90227,0.31777,0.44144,0.31238,-0.10287
0.30271,0.90721,0.29211,0.26074,0.19215,0.46912
0.28532,0.91682,0.27934,0.06873,0.32635,0.55991
0.25427,0.93228,0.25726,-0.01269,-0.08924,-0.21438
0.24183,0.93995,0.24084,0.12481,-0.32598,-0.11091
0.24034,0.93119,0.27405,-0.11093,0.05774,0.04287
0.24464,0.92944,0.27619,-0.20677,0.224,0.07352
0.23764,0.9299,0.28073,0.41898,1.60665,0.12848
0.21977,0.92315,0.31542,0.0877,1.01983,0.13158
0.21022,0.92617,0.31306,0.14792,-0.58488,-0.4611
0.20115,0.92856,0.31195,-0.22332,-0.79902,-0.18737
0.20617,0.9303,0.30338,-0.0433,-0.11165,0.02154
0.21683,0.93029,0.29585,0.0917,0.54834,0.09937
0.22521,0.92938,0.29245,0.15978,0.3955,0.11243
0.23284,0.9273,0.29306,0.08598,0.01392,0.3131
0.23745,0.92461,0.29784,0.00777,-0.04901,0.47088
0.23628,0.92302,0.30365,-0.2652,0.01673,0.07706
0.2319,0.9216,0.31123,-0.27918,0.11841,-0.024
0.2246,0.91461,0.33622,-0.13274,0.04134,-0.02909
0.21193,0.89952,0.38201,0.05609,0.07034,-0.01491
0.19542,0.8755,0.44193,0.09866,-0.01799,-0.4073
0.18443,0.8421,0.5068,0.14949,-0.04504,-0.70945
0.18968,0.80089,0.56797,0.14902,-0.20717,-0.55661
0.20094,0.76447,0.61254,0.11427,-0.51758,-0.27196
0.20019,0.74564,0.63556,0.0005,-0.52254,-0.20226
0.19218,0.74124,0.64313,0.11675,-0.26921,-0.13497
0.17968,0.74514,0.64223,0.18112,-0.17784,-0.25232
0.16758,0.75523,0.63366,0.39412,-0.0728,-0.38283
0.16634,0.77555,0.60897,0.42101,0.03018,-0.32236
0.18743,0.79837,0.57224,0.26041,0.10866,0.07426
0.21876,0.81218,0.54083,-0.07815,-0.02475,0.62315
0.24242,0.82572,0.50932,-0.29413,-0.13161,0.66885
0.25462,0.84755,0.46564,-0.21668,-0.00121,-0.08255
0.26673,0.86826,0.41829,0.08178,0.38996,-0.41595
0.28712,0.88217,0.37326,0.40261,0.53906,-0.29002
0.30663,0.89192,0.33233,0.40672,0.31954,-0.13078
0.3145,0.90077,0.29949,0.23703,-0.31329,0.0497
0.31873,0.90933,0.26742,0.24863,-0.39652,0.16582
0.32121,0.91624,0.23943,0.03341,-0.50434,0.41564
0.31928,0.92084,0.22384,-0.32726,-0.23959,-0.43461
0.31811,0.92378,0.21315,-0.16906,-0.05317,-0.5278
0.31831,0.92428,0.21064,-0.11966,0.07621,-0.34472
0.30676,0.92573,0.22117,-0.35222,0.12641,0.03451
0.28415,0.933,0.22082,-0.32961,0.11914,0.03485
0.26483,0.93644,0.23008,0.5841,1.09785,0.56709
0.25781,0.92853,0.26714,0.17993,1.54576,0.65606
0.23367,0.93359,0.27166,-0.01829,0.24384,-0.79764
0.2243,0.93237,0.2835,-0.17117,-1.12527,-0.1204
0.22384,0.92456,0.30833,0.01718,-0.3629,0.37994
0.24058,0.92029,0.30851,0.327,1.08041,0.45417
0.24135,0.91997,0.30887,0.09279,1.18303,0.22128
0.22986,0.91914,0.31991,-0.03575,0.11462,0.29902
0.21952,0.91766,0.3312,-0.20525,-0.27724,-0.00316
0.21118,0.90964,0.35769,-0.32553,-0.11673,0.01325
0.1984,0.89389,0.40198,-0.21709,0.002,-0.15153
0.18738,0.86774,0.46033,0.03921,0.02967,-0.42299
0.18499,0.83083,0.52487,0.16933,0.07635,-0.59158
0.19373,0.79039,0.58115,0.39693,-0.16147,-0.64821
0.20339,0.75719,0.62071,0.43952,-0.61998,-0.30806
0.20118,0.73912,0.64281,0.09339,-0.20237,-0.13056
0.19165,0.73624,0.64901,0.1371,-0.10098,-0.11419
0.17731,0.74286,0.64553,0.16516,-0.11163,-0.1598
0.16652,0.75645,0.63249,0.15547,-0.29201,-0.34459
0.17055,0.77482,0.60873,0.1788,-0.29691,-0.31497
0.191,0.79468,0.57619,0.13345,-0.23523,-0.09374
0.22204,0.81323,0.53791,-0.08415,-0.16952,0.23606
0.25367,0.83096,0.49512,-0.30146,0.04386,0.45526
0.27853,0.85297,0.44142,-0.19549,0.33839,0.14893
0.29344,0.87557,0.38374,0.16083,0.67743,-0.2799
0.30362,0.89303,0.33211,0.53923,0.45453,-0.21202
0.31294,0.90525,0.28737,0.37104,-0.12742,0.0913
0.31641,0.91343,0.25596,0.20192,-0.17036,0.22671
0.30599,0.92359,0.23098,-0.16538,-0.26331,0.29969
0.28643,0.93659,0.20189,-0.02048,-0.37994,-0.46644
0.28412,0.94067,0.1855,0.23951,-0.28917,0.19687
0.28733,0.93268,0.21804,-0.28838,0.20904,0.5649
0.28018,0.93196,0.23009,-0.37098,0.12712,-0.36371
0.26494,0.94058,0.21239,0.24423,0.4382,-0.68274
0.25195,0.94103,0.22579,0.29205,1.46045,0.69264
0.2419,0.93872,0.24553,-0.08829,0.40711,0.26472
0.22917,0.94068,0.2502,0.0675,-0.42336,-0.46314
0.2305,0.9391,0.25487,-0.19052,-1.02306,-0.17345
0.23836,0.93264,0.27086,-0.09132,-0.03083,0.2496
0.25932,0.92535,0.27653,0.12887,0.63257,0.45661
0.26114,0.92409,0.27903,0.09276,0.16818,0.29096
0.25021,0.9248,0.28658,-0.00488,-0.0478,0.30856
0.23846,0.92207,0.30481,-0.1092,-0.16827,0.18638
0.2272,0.91214,0.34112,-0.17371,-0.13668,-0.12768
0.2095,0.89541,0.39286,-0.05677,-0.0689,-0.2589
0.19803,0.8668,0.45765,0.03121,0.02456,-0.34784
0.19327,0.83187,0.52022,0.39805,-0.15554,-0.43998
0.19444,0.80029,0.56721,0.42571,-0.26478,-0.30589
0.19104,0.77329,0.60458,0.39409,-0.24606,-0.18884
0.18216,0.75605,0.62865,0.1522,0.34193,-0.1131
0.16904,0.75028,0.63914,0.22303,0.21968,-0.09071
0.16106,0.75129,0.64001,0.25784,0.07769,-0.02914
0.1619,0.75841,0.63134,0.13662,-0.55909,-0.18856
0.17433,0.77004,0.61371,0.05665,-0.50514,-0.19998
0.1976,0.78598,0.58582,-0.06262,-0.49592,-0.19454
0.22699,0.8048,0.54842,-0.09816,-0.55547,-0.06482
0.26021,0.82485,0.5019,-0.14957,-0.40517,-0.02679
0.30049,0.84167,0.44864,-0.14135,0.28723,-0.0232
0.33622,0.85551,0.39377,0.14141,0.6137,-0.23874
0.3596,0.86911,0.3396,0.27815,0.56024,-0.22753
0.3717,0.87952,0.2971,0.48883,-0.1018,0.03126
0.3857,0.87958,0.27852,0.18657,0.12363,0.46276
0.37261,0.88421,0.28166,-0.02111,0.13346,0.33406
0.3419,0.90562,0.25091,-0.28077,-0.80963,-0.36459
0.33855,0.91248,0.22967,0.0499,-0.03176,0.07532
0.33938,0.9045,0.25823,-0.23361,0.5169,0.273
0.33061,0.90915,0.25327,0.39632,1.46068,-0.03646
0.31888,0.91061,0.26287,-0.26976,1.117,0.38805
0.29631,0.90633,0.30127,-0.19142,-0.38065,-0.43754
0.2945,0.90592,0.30424,-0.21955,-0.70457,-0.47694
0.29285,0.90578,0.30626,-0.33034,-0.55129,-0.2426
0.30103,0.90647,0.2961,-0.00318,0.3713,0.08405
0.31067,0.90901,0.27782,-0.01608,0.63042,0.10435
0.31351,0.9113,0.2669,0.06602,0.14684,0.27867
0.32027,0.91223,0.25547,-0.05913,-0.0968,0.26608
0.32983,0.91089,0.24794,-0.22151,-0.07869,0.179
0.34012,0.90851,0.24273,-0.33142,-0.05813,0.08052
0.35057,0.9048,0.24174,-0.37515,0.18001,0.08953
0.36181,0.89741,0.25248,-0.35072,0.31536,0.32017
0.37025,0.88957,0.26753,-0.31415,0.10752,-0.1718
0.37322,0.87862,0.29785,-0.20939,0.16198,-0.23986
0.37095,0.86309,0.34272,0.17042,0.23635,0.07424
0.36302,0.84672,0.38894,0.21162,0.096,-0.24854
0.35006,0.83269,0.42905,0.26888,0.04328,-0.41436
0.33663,0.82214,0.45908,0.28577,0.25389,-0.33688
0.31859,0.81304,0.48729,0.10978,1.55316,-0.04892
0.29733,0.80971,0.50592,0.15914,1.58336,-0.16288
0.27568,0.81462,0.51028,0.10226,0.45505,-0.35378
0.26385,0.82005,0.50783,0.17266,-0.08247,-0.3252
0.26068,0.82406,0.50294,0.16565,-0.10475,-0.29202
0.25817,0.82826,0.49731,0.06212,-0.06788,-0.27183
0.25926,0.83142,0.49145,0.16437,-0.26719,-0.37106
0.26864,0.82999,0.48881,0.22788,-0.28464,-0.35986
0.287,0.8248,0.48716,0.2693,-0.27224,-0.31868
0.31139,0.81771,0.48413,0.23034,-0.27421,-0.2191
0.33434,0.81146,0.47931,0.1777,-0.29603,-0.04065
0.35349,0.80777,0.47175,0.13737,-0.28492,0.03715
0.36977,0.80605,0.46211,-0.09766,-0.12256,0.0101
0.38357,0.80508,0.45245,-0.16588,-0.11137,-0.02364
0.39759,0.80363,0.44283,-0.2367,-0.05971,-0.01383
0.41309,0.80135,0.43265,-0.22353,0.24769,0.17946
0.42792,0.79984,0.42087,-0.21079,0.35491,0.18478
0.44028,0.79828,0.41096,-0.0138,0.38167,0.30203
0.44477,0.79789,0.40687,-0.13187,0.16012,0.19067
0.44068,0.80153,0.40416,-0.21957,0.02722,0.11058
0.43315,0.80727,0.40085,-0.13229,-0.14443,-0.11679
0.43111,0.81258,0.39225,0.22048,0.16716,-0.33764
0.42867,0.8214,0.37622,0.36841,0.29883,-0.44729
0.4209,0.83107,0.36352,0.44413,0.66034,-0.09712
0.41649,0.8309,0.36896,0.04444,0.09315,0.24446
0.41071,0.8238,0.39072,-0.07399,-0.22726,0.10617
0.41208,0.82097,0.3952,-0.10027,-0.79799,-0.50834
0.42568,0.82164,0.37908,-0.33093,0.19707,-0.48991
0.43341,0.82543,0.36168,-0.67906,1.34358,-0.49447
0.43026,0.83488,0.34327,-0.50915,0.80641,-0.58069
0.42411,0.84625,0.32247,-0.26407,0.05394,-0.32593
0.42645,0.85572,0.29303,-0.03134,-0.19627,-0.34138
0.43671,0.86027,0.2631,0.16745,-0.10923,-0.25454
0.44945,0.86105,0.23788,0.30801,-0.12374,-0.06134
0.4636,0.85863,0.21869,0.40903,-0.19015,0.12943
0.47653,0.85635,0.19892,0.14104,-0.15784,0.0899
0.48832,0.85441,0.17751,-0.11598,0.07251,-0.05074
0.49504,0.85436,0.15812,-0.28027,0.15112,-0.12235
0.49983,0.85456,0.14103,-0.27096,0.11512,-0.04101
0.5031,0.85499,0.12602,-0.2107,0.03333,0.07798
0.50588,0.85546,0.11074,-0.17437,-0.02105,0.1237
0.50972,0.8553,0.09297,-0.26758,0.03395,0.11764
0.5137,0.8546,0.07599,-0.27713,0.13218,0.03891
0.51679,0.85395,0.06078,-0.22148,0.11872,0.04602
0.51914,0.85342,0.04661,-0.22664,0.1247,0.06408
0.51556,0.8559,0.04045,-0.1876,0.13141,-0.04236
0.51048,0.85929,0.032,-0.12142,0.03852,-0.14582
0.50808,0.86112,0.01816,-0.11539,0.03204,-0.0858
0.50593,0.86254,0.00755,-0.07603,0.14242,-0.03816
0.50192,0.86491,-0.00214,0.00185,0.28337,-0.0348
0.50617,0.86234,-0.01284,-0.15496,0.45959,0.11272
0.50847,0.86091,-0.01706,-0.31299,0.42739,0.01759
0.508,0.86115,-0.01882,-0.26346,0.37362,0.06316
0.50498,0.86305,-0.01172,-0.22783,0.35405,0.05415
0.49937,0.86635,0.00755,-0.15594,0.35631,0.18016
0.49282,0.86929,0.03832,-0.14872,0.28493,0.17585
0.48674,0.86954,0.08349,-0.15323,0.10009,0.13071
0.48016,0.86605,0.13928,-0.14239,0.04223,-0.18313
0.47256,0.85979,0.19351,-0.12486,0.05646,-0.48282
0.46378,0.85243,0.24139,-0.07871,0.3093,-0.42158
0.45293,0.84498,0.28434,-0.04046,0.53319,-0.32572
0.43924,0.83891,0.32139,-0.05149,0.60306,-0.22302
0.42252,0.83406,0.3547,-0.05259,0.40224,-0.35489
0.40417,0.83145,0.38122,-0.0426,0.10846,-0.43388
0.38757,0.82963,0.40186,0.01576,-0.0102,-0.5084
0.37428,0.82634,0.42079,0.11363,-0.18611,-0.34378
0.36436,0.82205,0.43756,0.0947,-0.16484,-0.28908
0.35773,0.81869,0.44918,0.03886,-0.15171,-0.3264
0.35627,0.81566,0.45581,-0.08735,-0.12672,-0.40328
0.36041,0.81236,0.45844,-0.0873,-0.18723,-0.36556
0.36995,0.80991,0.45516,-0.01166,-0.27419,-0.27887
0.38302,0.80946,0.44504,0.04081,-0.29744,-0.17976
0.39744,0.8119,0.42761,0.04818,-0.27899,-0.14603
0.41159,0.81647,0.40494,0.0136,-0.11896,-0.04803
0.42566,0.82171,0.37894,-0.06569,-0.02775,0.0228
0.44215,0.82538,0.35106,-0.09249,0.08079,0.14559
0.45819,0.82738,0.32481,-0.04452,0.24831,0.21401
0.4704,0.82625,0.30988,-0.05158,0.45216,0.32144
0.47406,0.82392,0.31052,-0.1974,0.31027,0.47427
0.46582,0.82549,0.31869,-0.33034,-0.15049,0.31833
0.45109,0.83163,0.32389,-0.37429,-0.24456,-0.15992
0.44004,0.83726,0.32459,-0.2515,0.00545,-0.47429
0.43209,0.84458,0.3162,-0.03223,0.55477,-0.61187
0.42147,0.85565,0.30038,0.39755,0.82854,-0.53004
0.41093,0.86117,0.29918,0.26422,0.42671,-0.00669
0.40382,0.85888,0.31504,0.13164,-0.2011,0.01035
0.40914,0.8599,0.30525,0.24374,-0.98958,-0.30857
0.42787,0.8603,0.27713,-0.07228,-0.03973,-0.03357
0.44112,0.85709,0.26609,-0.24858,0.89965,-0.49137
0.4495,0.85675,0.25285,-0.32726,0.51331,-0.25521
0.45263,0.85916,0.23866,-0.18202,0.10309,0.08902
0.45541,0.86268,0.21995,-0.18518,0.02648,-0.11283
0.45964,0.86519,0.20042,-0.14333,-0.02736,-0.11767
0.46244,0.86815,0.18014,0.02308,-0.12311,0.02999
0.46435,0.87096,0.16064,0.02202,-0.10992,0.02564
0.4676,0.87241,0.14231,-0.01153,-0.0676,0.02493
0.47056,0.87326,0.12642,-0.14083,0.03996,0.00823
0.47258,0.87366,0.11563,-0.16879,0.03765,0.00298
0.47369,0.87374,0.11039,-0.20788,0.01359,0.01962
0.47438,0.87331,0.1109,-0.36589,-0.07233,0.17602
0.47239,0.87331,0.11904,-0.39174,-0.13992,0.19302
0.46795,0.87368,0.13304,-0.30776,-0.19399,0.44016
0.46254,0.87451,0.14587,-0.45172,-0.12517,0.43588
0.45281,0.87638,0.16406,-0.31592,-0.15495,-0.18881
0.44454,0.87567,0.18862,-0.14146,-0.4122,-0.04792
0.44348,0.87152,0.20922,-0.18065,-0.32843,-0.01205
0.443,0.86825,0.22336,-0.21972,-0.04134,-0.11961
0.44043,0.86607,0.23653,-0.09526,0.20644,-0.02155
0.43869,0.86468,0.24469,-0.10683,0.26215,-0.0121
0.43737,0.8648,0.24665,-0.21306,0.34091,0.01304
0.43519,0.86477,0.25054,-0.3136,0.33759,-0.0259
0.4306,0.86155,0.26892,-0.31561,0.31878,0.09273
0.42239,0.85358,0.30493,-0.16308,0.25707,0.14246
0.41087,0.84044,0.35332,0.11112,0.33453,0.14781
0.3931,0.82062,0.41478,0.32559,0.34449,-0.11942
0.37282,0.79795,0.47358,0.32543,0.08616,-0.33378
0.35785,0.77583,0.51964,0.09503,-0.22523,-0.46089
0.35019,0.75863,0.54941,-0.23357,-0.38737,-0.15239
0.34182,0.74884,0.5678,-0.05743,0.01577,-0.06141
0.32367,0.74769,0.57981,0.16188,0.35458,-0.10405
0.31044,0.75598,0.57629,0.19174,0.38563,-0.08165
0.30455,0.76833,0.56295,0.17247,-0.14869,-0.14715
0.30502,0.78493,0.5393,0.08544,-0.42607,-0.17909
0.31172,0.80411,0.5062,-0.00337,-0.50514,-0.21552
0.32309,0.82301,0.46719,-0.14248,-0.51488,-0.00788
0.34237,0.83967,0.42159,-0.25536,-0.54522,0.23905
0.36844,0.85328,0.36901,-0.22907,-0.32654,0.08007
0.40434,0.85837,0.31577,-0.11357,0.41245,-0.22788
0.43821,0.85768,0.26899,0.31684,1.21884,-0.36155
0.45567,0.86087,0.22643,0.12546,0.12142,0.19907
0.45803,0.86836,0.19016,-0.2255,-0.76956,0.36553
0.4488,0.87896,0.16126,-0.54953,-1.19196,0.42521
0.43217,0.89135,0.13681,-0.716,-0.98469,-0.0247
0.4287,0.89478,0.12485,-0.17983,0.0661,-0.38295
0.4291,0.89243,0.13941,0.13264,1.11309,0.10157
0.4209,0.89386,0.15444,-0.43956,1.28932,0.13482
0.3925,0.90514,0.16331,-0.41498,0.3082,-0.07255
0.37509,0.91266,0.16235,0.28249,-0.22041,-0.0639
0.38071,0.9098,0.16528,0.47436,1.85328,0.44592
0.37379,0.91007,0.17904,0.07192,0.73257,-0.32705
0.36212,0.91391,0.18342,-0.11615,0.00342,-0.27872
0.35448,0.91172,0.20764,-0.51448,-0.32035,0.23244
0.35334,0.90728,0.22803,-0.40368,0.44046,0.64709
0.34504,0.90423,0.25162,-0.28948,0.65728,0.38971
0.33066,0.89515,0.29893,0.20467,-0.15039,-0.01296
0.3164,0.8754,0.36546,0.27907,-0.329,-0.11782
0.30566,0.84593,0.43701,0.28342,-0.45034,-0.24246
0.30746,0.80745,0.50347,0.14143,0.01796,-0.52001
0.32092,0.76748,0.55496,0.22419,0.09736,-0.26428
0.31809,0.74204,0.59009,0.25929,0.07681,-0.03406
0.30874,0.72853,0.61148,0.01165,0.07763,-0.14456
0.29917,0.72403,0.6215,0.04984,0.10791,-0.10042
0.28888,0.72801,0.62172,0.17679,-0.10106,-0.13992
0.28501,0.73959,0.60973,0.15668,-0.3574,-0.28801
0.29408,0.757,0.58349,-0.13579,-0.3807,-0.18161
0.31791,0.77761,0.54245,-0.23041,-0.39991,-0.12514
0.35055,0.79524,0.49468,-0.36161,-0.50048,0.14842
0.38371,0.81109,0.44147,-0.40427,-0.39004,0.39161
0.40923,0.83041,0.37807,-0.0518,0.42223,-0.21388
0.42313,0.8473,0.32099,0.45828,1.03942,-0.36677
0.4268,0.86196,0.2736,0.52692,0.76569,-0.2498
0.42867,0.87262,0.23403,-0.00112,-0.29259,0.14719
0.41368,0.88491,0.214,-0.41607,-0.35575,0.1725
0.38596,0.90142,0.19615,-0.45441,-0.48919,0.32266
0.37484,0.90882,0.18312,0.09256,-0.16407,0.34232
0.37312,0.90282,0.21377,0.18404,0.41689,0.35433
0.36735,0.9031,0.2224,0.05236,0.6435,-0.6878
0.35718,0.90929,0.21356,0.26124,0.72599,0.25597
0.35143,0.90255,0.24879,0.23875,1.1334,0.79858
0.33904,0.90306,0.26367,-0.04335,-0.29778,-0.38409
0.33385,0.9033,0.26943,-0.34552,-0.59658,-0.20146
0.33033,0.9041,0.27106,-0.50662,-0.43862,0.09169
0.33662,0.90303,0.26686,0.03786,0.43613,0.3145
0.34601,0.90092,0.26194,0.14213,0.79457,0.11948
0.34792,0.89867,0.26709,-0.19222,0.44401,0.3927
0.34147,0.89671,0.28161,-0.27947,-0.0157,0.28591
0.33314,0.8922,0.30494,-0.2598,-0.23975,-0.01696
0.32451,0.87965,0.34772,-0.24645,-0.10644,-0.13094
0.31303,0.85735,0.40861,-0.0858,0.15205,-0.19216
0.30701,0.82392,0.47634,0.23734,0.28057,-0.34146
0.3062,0.78679,0.53591,0.46895,0.09272,-0.4563
0.30871,0.75446,0.57921,0.42232,-0.0808,-0.50386
0.30647,0.73221,0.60823,-0.00231,-0.26236,-0.04458
0.29744,0.72285,0.62371,-0.1848,-0.0993,-0.21169
0.2867,0.72159,0.63017,-0.03128,-0.04449,-0.17051
0.27273,0.7305,0.62609,0.2092,-0.09376,-0.14902
0.26762,0.74915,0.60593,0.15946,-0.19536,-0.18619
0.2816,0.77067,0.57163,0.08226,-0.20206,-0.11992
0.30821,0.79015,0.52978,-0.01799,-0.26453,-0.03305
0.33536,0.80782,0.48473,-0.39067,-0.39461,0.19433
0.35732,0.82612,0.43571,-0.36603,-0.32171,0.13835
0.37659,0.84334,0.38333,-0.29174,-0.18557,-0.04024
0.39833,0.85464,0.33305,0.31993,0.68647,-0.24097
0.4214,0.86215,0.28129,0.36834,0.60567,-0.00399
0.43961,0.86483,0.24251,0.37674,0.39474,0.29964
0.44094,0.87117,0.21593,0.1878,-0.19019,0.40322
0.43057,0.88374,0.18331,0.17731,-0.2314,0.25925
0.42092,0.8937,0.15533,0.09638,-0.2484,0.14917
0.41816,0.89676,0.14478,0.24824,-0.18805,-0.18558
0.42191,0.89444,0.14819,-0.02413,-0.06976,0.08855
0.41886,0.89116,0.17433,-0.2236,0.08055,0.47909
0.40339,0.89554,0.18785,-0.52503,-0.17267,-0.44065
0.39056,0.90051,0.19115,-0.36116,-0.14317,-0.81799
0.37794,0.90349,0.20213,0.29181,1.20015,0.76717
0.36992,0.90339,0.21689,0.14906,1.79702,1.27756
0.33994,0.91372,0.2226,-0.4817,0.48811,-0.44369
0.32242,0.92092,0.21896,-0.21256,-0.86421,-0.28538
0.31618,0.92156,0.2253,-0.3481,-0.86066,0.12242
0.32516,0.91964,0.22031,-0.04996,0.16013,0.55737
0.34218,0.91465,0.21524,0.34138,1.12473,0.19828
0.34809,0.91355,0.21037,0.17905,0.29396,0.05383
0.34623,0.91536,0.20551,-0.19463,-0.20468,0.22816
0.3454,0.91682,0.20034,-0.39363,0.01253,0.20034
0.34468,0.91682,0.20158,-0.52819,0.35146,-0.03785
0.34234,0.91435,0.21627,-0.28623,0.28962,0.06821
0.33849,0.9079,0.24727,0.02794,0.22763,0.15806
0.33552,0.89532,0.29297,0.09527,0.20785,0.07936
0.32643,0.87902,0.34752,0.13748,0.15176,-1e-05
0.31204,0.85743,0.40919,0.16298,0.00095,-0.26942
0.30226,0.82944,0.46975,0.25509,-0.17226,-0.28432
0.29974,0.79837,0.52226,0.22668,-0.17287,-0.41012
0.29832,0.77238,0.56074,-0.04079,-0.42237,-0.21411
0.29157,0.75433,0.5882,-0.18063,-0.30442,-0.27763
0.28257,0.74242,0.60742,0.27298,-0.00449,-0.00371
0.26549,0.74696,0.60955,0.4902,0.02198,0.10678
0.26188,0.7599,0.59495,-0.03697,-0.24809,-0.21038
0.27213,0.77135,0.57529,-0.10663,-0.36037,-0.07924
0.28876,0.78646,0.54598,-0.2386,-0.49076,-0.04886
0.31115,0.8021,0.50971,-0.50709,-0.76937,-0.05073
0.33129,0.82201,0.46318,-0.44589,-0.68482,-0.13296
0.36016,0.83899,0.4079,-0.36622,-0.51766,-0.21903
0.39864,0.8477,0.34999,0.37822,0.98478,-0.30182
0.43566,0.8534,0.28621,0.55206,1.18916,-0.07593
0.45939,0.85633,0.23592,0.63912,0.92378,0.35761
0.45951,0.85885,0.2263,0.07313,0.01549,0.78288
0.42763,0.87376,0.23169,-0.1519,-0.22155,0.3155
0.40028,0.89597,0.19237,-0.39478,-0.59507,-0.10657
0.40247,0.8959,0.18807,-0.29186,0.40413,0.1587
0.39927,0.8833,0.24566,-0.40057,1.08255,0.95702
0.38479,0.8863,0.25768,-0.35183,1.18682,0.26861
0.36478,0.89044,0.27212,0.135,0.17087,0.13933
0.35553,0.8889,0.28889,0.13501,0.10924,0.13823
0.34802,0.89321,0.28471,-0.22534,-0.15323,-0.10045
0.34504,0.8977,0.274,-0.27998,-0.12557,-0.33037
0.34492,0.89979,0.26722,-0.07268,0.37081,0.16412
0.34625,0.89904,0.26802,0.05188,0.63436,0.50524
0.3463,0.8991,0.26776,0.05685,0.17602,0.50487
0.34317,0.89719,0.278,0.00954,0.01161,0.53101
0.33846,0.89178,0.30029,-0.22657,-0.05745,0.11814
0.32454,0.88002,0.34675,-0.2858,-0.02207,-0.2604
0.31211,0.85449,0.41524,-0.182,0.04965,-0.33678
0.30762,0.81744,0.48698,0.16467,-0.08027,-0.52067
0.31096,0.78407,0.53715,0.30293,-0.17677,-0.63414
0.30956,0.75974,0.57181,0.16556,-0.36279,-0.21308
0.30099,0.74487,0.59546,-0.11398,-0.00656,-0.21584
0.2876,0.74471,0.60224,-0.2784,-0.04041,-0.33843
0.27551,0.74945,0.60201,0.00873,-0.142,-0.19465
0.26677,0.76087,0.59153,0.06049,-0.42759,-0.27024
0.27405,0.77865,0.56444,0.06572,-0.52154,-0.23726
0.2971,0.7976,0.52494,0.15795,-0.43241,-0.0119
0.33004,0.81074,0.48349,0.04064,-0.3031,0.21611
0.36496,0.81916,0.44246,-0.17653,0.02782,0.18649
0.39897,0.82678,0.39656,-0.03389,0.60795,0.02142
0.42739,0.83471,0.34727,0.18314,0.89971,0.01752
0.44156,0.84498,0.3017,0.10845,0.31443,0.21742
0.44282,0.85511,0.26962,0.12084,0.10011,0.24962
0.42983,0.86936,0.24384,-0.03232,0.18473,0.24476
0.40083,0.88875,0.22236,-0.16093,-0.29636,-0.36204
0.38596,0.90324,0.1876,-0.01958,-0.40354,-0.2248
0.38079,0.90259,0.2008,0.004,-0.27317,0.2725
0.37352,0.89772,0.23361,-0.43189,0.22792,0.30275
0.36228,0.90526,0.22192,-0.23381,-0.22814,-0.98698
0.34938,0.91067,0.22048,-0.05088,0.00638,-0.8335
0.33807,0.90652,0.25283,-0.13786,0.78365,0.00475
0.31476,0.91643,0.24715,-0.11455,0.77374,0.01043
0.30242,0.92029,0.2482,-0.19869,-0.88764,-0.38051
0.30233,0.91431,0.26949,0.0774,0.04019,0.63278
0.32068,0.90606,0.27607,0.16557,0.4484,0.41912
0.33124,0.90199,0.27693,0.1268,0.72257,0.0188
0.33423,0.9001,0.27946,-0.22074,0.09839,0.40511
0.33591,0.90039,0.27651,-0.30716,0.19208,0.37141
0.33171,0.90026,0.28194,-0.48317,0.40652,0.19177
0.32483,0.89662,0.30092,-0.45786,0.23474,-0.12052
0.31204,0.88679,0.34094,-0.21155,0.03649,0.16072
0.29726,0.86792,0.39794,0.0273,-0.00796,-0.04978
0.28739,0.84,0.46022,0.1921,-0.10772,-0.40552
0.28873,0.80383,0.52008,0.17874,-0.09923,-0.64911
0.30477,0.76421,0.56841,0.13956,-0.22983,-0.51843
0.31272,0.73175,0.6056,0.10939,-0.47718,-0.06666
0.31168,0.71182,0.62942,-0.01025,-0.18947,-0.08088
0.30138,0.70504,0.64194,0.32165,0.17228,-0.01784
0.28302,0.71385,0.64056,0.3791,0.16265,-0.07455
0.28366,0.72729,0.62496,0.19151,0.09899,-0.18615
0.29786,0.7406,0.60232,-0.05896,-0.19724,0.02355
0.3157,0.75795,0.57083,-0.18087,-0.25278,0.0678
0.32946,0.78054,0.53123,-0.30014,-0.41001,0.22571
0.33811,0.80788,0.48271,-0.24079,-0.67238,0.13533
0.35931,0.83165,0.42339,-0.19581,-0.2498,-0.21064
0.39246,0.84609,0.36071,0.06291,0.46252,-0.43966
0.42325,0.85519,0.29917,0.31587,0.87384,-0.34025
0.44695,0.86036,0.24497,0.132,0.02066,0.21212
0.46009,0.86205,0.21259,0.17756,-0.21407,0.40795
0.46597,0.86328,0.19394,0.31045,-0.16653,0.6088
0.46286,0.86677,0.18565,0.07639,-0.17059,0.32783
0.4447,0.87585,0.1874,-0.17842,-0.39459,-0.73074
0.44157,0.87769,0.1862,-0.12147,-0.01631,-0.05517
0.43577,0.87738,0.20078,-0.63217,0.39559,0.25875
0.41381,0.88725,0.20383,-0.41812,1.09151,-0.12664
0.38569,0.89384,0.22867,-0.012,1.83257,1.00839
0.36046,0.90015,0.24455,-0.10069,-0.0742,-0.60649
0.34744,0.90699,0.23803,-0.20195,-0.81908,-0.55395
0.34268,0.90465,0.25335,-0.30209,-0.62269,-0.12176
0.35563,0.8966,0.26389,0.10661,0.40929,0.46841
0.3686,0.89229,0.26067,0.13704,0.48108,0.33754
0.37348,0.89154,0.25627,0.09967,0.36896,0.14901
0.37788,0.89179,0.24883,-0.20682,-0.00925,0.23689
0.3827,0.89083,0.24486,-0.21163,-0.0083,0.24086
0.38568,0.88931,0.2457,-0.513,-0.02625,0.05142
0.38728,0.88655,0.25306,-0.64189,-0.14609,0.00108
0.39234,0.87851,0.27254,-0.43368,-0.01018,0.20273
0.39332,0.86857,0.30147,-0.23108,0.02007,-0.1122
0.39004,0.8554,0.34082,0.01337,0.1996,-0.18993
0.38571,0.8385,0.3849,0.10788,0.23348,-0.12003
0.37952,0.82309,0.42247,0.1758,0.18225,-0.29589
0.37343,0.81117,0.45006,0.30255,0.07402,-0.247
0.36301,0.80535,0.46865,0.2497,0.00366,0.0085
0.3503,0.80497,0.47886,0.04361,0.21526,-0.02167
0.34064,0.80646,0.4833,-0.03587,0.39612,-0.02018
0.33453,0.8123,0.47777,-0.01515,0.22469,-0.03216
0.33505,0.82075,0.46272,0.08748,-0.14527,-0.11253
0.34122,0.82934,0.44245,0.132,-0.2436,-0.06707
0.35029,0.83722,0.41995,0.13716,-0.23797,-0.05359
0.35929,0.84372,0.3988,-0.00526,-0.35999,-0.08816
0.37202,0.84743,0.37876,-0.08659,-0.37921,-0.12597
0.38995,0.84696,0.36136,-0.07066,-0.33972,-0.14327
0.41119,0.84499,0.34191,0.02031,-0.17582,-0.08633
0.43706,0.84238,0.31524,0.03375,-0.11293,0.07003
0.46318,0.83946,0.28421,-0.02742,0.03097,0.22922
0.48417,0.83686,0.25543,-0.07272,0.12013,0.41837
0.49408,0.83552,0.24042,-0.09652,0.231,0.78635
0.49038,0.8367,0.24382,-0.26562,0.19943,0.98271
0.47346,0.84576,0.24599,-0.28572,-0.05202,0.41861
0.45484,0.85611,0.24533,0.15304,0.16308,0.04573
0.43648,0.86523,0.2467,0.16617,0.54374,0.07615
0.41623,0.87352,0.2524,-0.17448,0.52925,-0.1005
0.39449,0.88694,0.24023,0.29786,0.13761,-1.04841
0.38654,0.89484,0.22323,0.60549,0.07473,0.27554
0.38482,0.88207,0.27176,-0.28445,0.54832,0.38374
0.38485,0.8783,0.28368,-0.16558,-0.04598,-0.78185
0.39683,0.88323,0.24985,0.24102,0.14099,-0.5812
0.40499,0.88626,0.22478,-0.02457,0.64516,-0.39625
0.40976,0.89086,0.1961,-0.12883,0.39045,-0.13505
0.41146,0.89593,0.16736,-0.14083,0.06596,-0.13998
0.41557,0.89841,0.14197,-0.06886,0.00924,-0.2028
0.42294,0.89835,0.11863,0.02212,-0.03065,-0.00442
0.4306,0.8966,0.10342,0.11526,-0.19257,0.04451
0.43881,0.89402,0.09037,0.12229,-0.27049,0.08146
0.4481,0.89131,0.06896,-0.02174,-0.20409,0.11546
0.45645,0.88867,0.04366,-0.20208,0.01152,0.00325
0.46286,0.8862,0.02019,-0.28206,0.058,0.01056
0.46814,0.88365,-0.00057,-0.17472,0.05767,0.10494
0.47308,0.88076,-0.02131,-0.17965,0.06055,0.12568
0.47827,0.8773,-0.03987,-0.12334,0.10358,0.22936
0.48297,0.87395,-0.05432,-0.24396,0.10996,0.37159
0.48641,0.87117,-0.06672,-0.27754,0.14172,0.27861
0.48814,0.86917,-0.07914,-0.28083,0.17513,0.15109
0.48921,0.86749,-0.09019,-0.14505,0.19057,0.04691
0.48963,0.86629,-0.09902,-0.13296,0.21945,0.08191
0.48889,0.86569,-0.10756,-0.1152,0.24198,0.14453
0.48817,0.86526,-0.11405,-0.14862,0.15195,0.27318
0.48809,0.86555,-0.11221,-0.19183,0.21147,0.2451
0.48725,0.86711,-0.10343,-0.28807,0.37014,0.08138
0.48523,0.86982,-0.08921,-0.36632,0.32813,-0.05057
0.48058,0.87464,-0.06359,-0.35059,0.42065,-0.05865
0.47504,0.87936,-0.03267,-0.15115,0.46638,0.03978
0.47339,0.88077,0.01212,0.07295,0.25471,0.23284
0.47372,0.87787,0.07019,0.07352,0.15704,0.18683
0.47118,0.87272,0.12787,-0.0577,0.21647,-0.27847
0.46325,0.86761,0.18067,-0.11788,0.21697,-0.43855
0.45169,0.86421,0.22159,-0.22144,0.27844,-0.45538
0.43843,0.86255,0.25256,-0.45635,0.43485,-0.31904
0.42507,0.86082,0.27982,-0.20016,0.44854,-0.36815
0.4118,0.8602,0.30079,-0.08572,0.36444,-0.37952
0.39747,0.86064,0.31829,0.00235,-0.04655,-0.32276
0.3826,0.86142,0.334,0.01946,-0.10567,-0.30875
0.36825,0.86263,0.34678,-0.01283,-0.11347,-0.2338
0.35494,0.86402,0.35705,-0.05843,-0.04506,-0.24981
0.34501,0.86505,0.3642,-0.08668,-0.01749,-0.28688
0.3393,0.86499,0.36969,0.01669,0.01467,-0.35451
0.33812,0.86271,0.37603,0.09315,-0.0292,-0.29124
0.33922,0.85979,0.38169,0.13676,-0.05694,-0.22608
0.34119,0.85815,0.38362,0.22328,-0.16863,-0.05985
0.34386,0.85834,0.3808,0.17621,-0.19434,-0.06223
0.34697,0.85962,0.37504,0.07547,-0.21744,-0.08648
0.35039,0.8615,0.36748,-0.01063,-0.19257,-0.07073
0.35435,0.86375,0.35828,-0.02539,-0.14651,-0.04175
0.35964,0.86612,0.34711,-0.05384,-0.13446,0.04457
0.36707,0.86858,0.33288,-0.0492,-0.10161,0.13663
0.37733,0.87018,0.31685,-0.06578,-0.01729,0.20703
0.38735,0.87167,0.30023,-0.22111,0.12535,0.27472
0.39177,0.87371,0.28833,-0.31058,0.24738,0.3006
0.38498,0.87708,0.28726,-0.3316,0.46216,0.23233
0.36779,0.88266,0.29263,-0.17741,0.1834,-0.03535
0.35281,0.88792,0.29515,-0.08006,0.01174,-0.10211
0.34273,0.89394,0.28878,-0.02754,-0.03771,-0.10221
0.33583,0.90023,0.27714,0.66612,0.20447,-0.37927
0.32958,0.90591,0.26589,0.67238,0.19878,-0.36802
0.3308,0.90475,0.26832,0.38137,0.20277,0.19001
0.32883,0.90094,0.28315,0.09734,-0.23604,0.23532
0.32591,0.90146,0.28486,-0.01257,-0.88796,-0.21858
0.33499,0.90565,0.25993,-0.05693,-0.63,-0.43561
0.35011,0.90743,0.23236,-0.2666,0.46007,-0.48688
0.35698,0.90729,0.22223,-0.6074,0.96753,-0.21736
0.35629,0.90996,0.21219,-0.53882,0.39903,-0.13535
0.35495,0.91461,0.19362,-0.14749,-0.1766,-0.36634
0.3589,0.91697,0.17422,0.20864,-0.04967,-0.05848
0.36475,0.9173,0.15971,0.30612,0.09968,0.00741
0.37084,0.91712,0.14615,0.32734,-0.0186,-0.04537
0.37474,0.91735,0.13424,0.32518,-0.31465,-0.0765
0.38187,0.916,0.12295,0.25493,-0.27186,-0.06358
0.39135,0.91358,0.11045,0.07451,-0.02105,-0.084
0.39908,0.91192,0.09551,-0.13553,0.09215,-0.13837
0.40453,0.91118,0.07805,-0.15905,0.09211,-0.11708
0.40926,0.91043,0.06008,-0.1288,0.03518,-0.04016
0.41463,0.90903,0.04176,-0.10129,-0.05415,0.13911
0.42081,0.90687,0.02227,-0.14512,0.08721,0.28753
0.42541,0.90499,0.00266,-0.23954,0.1851,0.32913
0.42686,0.9042,-0.01436,-0.25307,0.241,0.25858
0.42492,0.90488,-0.02483,-0.17898,0.1309,0.13728
0.42029,0.90707,-0.02402,-0.10583,0.01557,0.06864
0.41419,0.91002,-0.01746,-0.00775,-0.01071,0.12503
0.40433,0.9146,-0.00465,0.02991,0.12543,0.15887
0.39481,0.91871,0.00937,0.02809,0.35349,0.09908
0.38244,0.92348,0.03012,0.148,0.5588,0.03053
0.37083,0.92693,0.05732,0.21117,0.37334,0.05723
0.36224,0.92678,0.09932,0.1871,0.12559,0.26318
0.35167,0.92317,0.15515,0.19532,0.03069,0.05311
0.33865,0.91656,0.21266,0.11388,-0.09411,-0.26384
0.33125,0.90412,0.26989,0.05379,-0.18021,-0.47103
0.32728,0.88872,0.32101,-0.11532,0.05558,-0.30218
0.32159,0.87706,0.35682,-0.0289,0.33763,-0.04374
0.31394,0.86823,0.38419,0.22211,0.51766,-0.17884
0.30202,0.86157,0.408,0.29407,0.23082,-0.39933
0.28721,0.85598,0.42989,0.25069,-0.26986,-0.38629
0.27293,0.85076,0.44912,0.02977,-0.42772,-0.28612
0.26281,0.84643,0.46311,-0.02399,-0.41029,-0.30275
0.25508,0.84307,0.47345,-0.0309,-0.39413,-0.28337
0.24903,0.84172,0.47905,-0.03559,-0.50599,-0.18466
0.24782,0.84187,0.47941,-0.046,-0.54283,-0.15969
0.2536,0.84344,0.47358,-0.06848,-0.57852,-0.12808
0.26702,0.84648,0.46061,-0.21554,-0.56946,-0.10221
0.28517,0.8505,0.44195,-0.23369,-0.57347,-0.08355
0.3032,0.85568,0.41937,-0.29468,-0.33435,-0.18007
0.31895,0.86238,0.39315,-0.13339,-0.20559,-0.09968
0.33441,0.86857,0.3657,0.00211,-0.03958,0.00182
0.35084,0.8743,0.33541,0.12525,0.07667,0.13605
0.36061,0.88319,0.29987,0.29192,0.07717,0.09111
0.36042,0.89382,0.26677,0.23148,-0.13456,-0.07655
0.35952,0.90029,0.24537,0.11237,-0.28034,-0.10803
0.35868,0.90307,0.23622,-0.04898,-0.16662,0.05104
0.34981,0.90655,0.23618,-0.28087,0.22637,-0.047
0.32886,0.91562,0.23127,-0.40178,0.46234,-0.51839
0.31086,0.91824,0.24536,-0.00861,0.11182,0.54592
0.29334,0.91205,0.28654,0.03622,0.12446,0.49021
0.27763,0.91562,0.29079,0.10543,-0.02898,-0.12952
0.27056,0.91317,0.30482,0.36452,1.36238,0.9983
0.26278,0.90726,0.32836,-0.00305,0.39674,-0.23433
0.2469,0.9114,0.3292,-0.09555,-0.45007,-0.36064
0.24081,0.9097,0.33831,-0.11213,-0.58769,-0.41366
0.24743,0.90829,0.33732,0.07052,0.08759,0.19204
0.26032,0.90697,0.3311,0.25289,0.69319,0.38101
0.26611,0.90557,0.33032,0.2159,0.71203,0.50257
0.25993,0.90673,0.33207,-0.08499,0.07507,0.16234
0.24949,0.90759,0.33766,-0.21322,-0.06055,0.09804
0.23571,0.902,0.36168,-0.20546,-0.0466,-0.08451
0.22026,0.88906,0.40131,-0.1172,0.02106,-0.26591
0.20865,0.8652,0.45594,0.20317,0.06374,-0.336
0.20503,0.83471,0.51109,0.48496,-0.05288,-0.41447
0.20547,0.80521,0.55625,0.49939,-0.25037,-0.44808
0.20764,0.78376,0.58531,0.24453,-0.35257,-0.15272
0.20155,0.77169,0.60321,-0.03505,-0.16675,-0.20108
0.19581,0.76597,0.61233,-0.0525,-0.09402,-0.24314
0.18616,0.76518,0.6163,0.17622,-0.07721,-0.2046
0.17472,0.77613,0.60588,0.39715,-0.15657,-0.21516
0.17721,0.79425,0.58117,0.41659,-0.02536,-0.26082
0.19745,0.8091,0.5535,0.28154,-0.04956,0.04944
0.21776,0.82128,0.52732,-0.08646,-0.335,0.31956
0.23298,0.83798,0.49346,-0.3796,-0.44956,0.4105
0.25017,0.85902,0.44663,-0.43403,-0.3809,0.29635
0.27579,0.87514,0.39757,-0.17609,0.25717,-0.42329
0.3054,0.88248,0.3577,-0.01606,0.53189,-0.4141
0.32507,0.8913,0.31606,0.2867,0.11181,-0.04633
0.33273,0.90147,0.27683,0.33712,-0.17096,0.05733
0.33646,0.90993,0.2425,0.2703,-0.12316,0.24869
0.33114,0.91962,0.21127,0.1545,-0.07663,0.44208
0.31367,0.93092,0.18707,0.0011,-0.29878,-0.44879
0.30521,0.93873,0.16009,0.00956,-0.30659,-0.42181
0.30117,0.93655,0.17937,-0.10961,-0.06956,0.34186
0.29341,0.93145,0.21518,-0.34076,0.02146,0.50019
0.28644,0.93382,0.2143,0.06445,0.09423,-0.20701
0.28017,0.92807,0.24531,0.52786,1.51458,0.23856
0.26931,0.9235,0.27317,-0.21772,0.63574,-0.01386
0.25677,0.92774,0.27086,-0.12951,-0.16381,-0.61598
0.25124,0.9281,0.27478,-0.16172,-0.58937,-0.27638
0.26071,0.9264,0.27169,0.04982,0.50711,0.41777
0.26794,0.92528,0.26845,0.07033,0.69887,0.38132
0.2651,0.92569,0.26985,0.08021,0.77724,0.27921
0.25651,0.92664,0.27483,0.06497,-0.02005,0.28217
0.24669,0.92704,0.28238,0.00136,-0.18749,0.0648
0.23944,0.92144,0.30594,-0.03111,-0.30635,-0.08692
0.23269,0.90956,0.34432,-0.14389,-0.29215,-0.27582
0.22336,0.8919,0.39322,-0.1158,-0.21483,-0.47233
0.22092,0.86059,0.45888,0.17522,0.15793,-0.28699
0.22563,0.82402,0.51969,0.49466,0.15532,-0.41884
0.2302,0.79368,0.56309,0.60805,-0.20402,-0.27239
0.22298,0.77396,0.59267,0.12674,-0.14905,-0.10392
0.20839,0.76545,0.60881,-0.04283,-0.16148,-0.09694
0.19029,0.76639,0.61353,0.21956,-0.0987,-0.14017
0.17154,0.77473,0.60856,0.30186,-0.15735,-0.24063
0.16605,0.78816,0.59264,0.21417,-0.31639,-0.24985
0.17663,0.80541,0.56578,0.1401,-0.33216,-0.20087
0.19986,0.82353,0.53088,0.03634,-0.50701,0.01165
0.2266,0.8405,0.49213,-0.04075,-0.56224,0.13705
0.25491,0.85847,0.44501,-0.15689,-0.12152,0.05687
0.28467,0.87759,0.38572,-0.06496,0.52088,-0.05989
0.30522,0.89574,0.32323,0.27179,0.96249,-0.15601
0.31034,0.91005,0.27476,0.25448,-0.01246,0.06012
0.30239,0.9178,0.25728,-0.20409,-0.2608,-0.11597
0.27462,0.929,0.24806,-0.35927,-0.66907,-0.14919
0.25762,0.94052,0.22147,-0.02235,-0.85675,0.22682
0.26044,0.92983,0.25996,0.20625,0.19288,0.72547
0.25946,0.9198,0.29434,0.14813,1.29024,0.30366
0.23671,0.93463,0.26536,-0.12192,0.36767,-1.25578
0.21151,0.94045,0.26611,-0.1278,0.27832,-0.88409
0.1985,0.94004,0.27732,0.06412,0.6075,0.56329
0.1909,0.94265,0.27379,0.13024,0.33099,0.04331
0.19173,0.94202,0.27535,0.17745,-0.05938,-0.102
0.19707,0.9369,0.28874,0.2076,0.21912,0.56138
0.20068,0.93291,0.29899,0.24803,0.35528,0.6679
0.19917,0.93182,0.30337,0.07666,0.04671,0.12952
0.19642,0.92792,0.31681,-0.07944,-0.07651,0.09626
0.19281,0.91935,0.34294,-0.17905,-0.17068,-0.11553
0.1861,0.90402,0.38483,-0.19624,-0.11218,-0.27427
0.1785,0.88015,0.43985,-0.03816,-0.07376,-0.41959
0.17833,0.84699,0.5008,0.1212,0.05345,-0.52729
0.18439,0.80985,0.55689,0.38824,0.01988,-0.38695
0.18652,0.78253,0.59401,0.43436,-0.31489,-0.31431
0.18114,0.76672,0.61588,0.02354,-0.22139,-0.16186
0.17352,0.75921,0.62727,0.02534,-0.17871,-0.05409
0.16016,0.76003,0.62984,0.27995,0.01184,-0.10336
0.14633,0.7709,0.61991,0.33503,0.0404,-0.12449
0.14519,0.78942,0.59642,0.22551,-0.17683,-0.17287
0.1637,0.80832,0.56552,0.12363,-0.25584,-0.05825
0.19077,0.82529,0.53149,-0.03034,-0.32683,0.17139
0.21194,0.84452,0.49179,-0.05973,-0.44897,0.24007
0.23057,0.86858,0.43862,-0.07496,-0.23738,-0.16312
0.25665,0.88858,0.38019,0.11273,0.27843,-0.49053
0.2872,0.8993,0.32979,0.41216,0.73401,-0.37203
0.3147,0.90429,0.28847,0.35139,0.12762,0.10844
0.33324,0.90446,0.26626,0.16673,-0.27438,0.39997
0.33057,0.90593,0.26457,-0.1953,-0.42999,0.51415
0.30248,0.91817,0.25587,-0.42934,-0.7522,0.06594
0.28617,0.93061,0.22814,-0.13798,-0.46557,-0.47755
0.28293,0.92689,0.24661,-0.00841,0.71658,0.18308
0.27478,0.91975,0.28026,-0.05565,1.42492,0.26297
0.25629,0.92438,0.28254,0.02324,0.28648,-0.24771
0.23591,0.92733,0.29051,0.05757,0.12428,0.27373
0.22657,0.9269,0.2992,0.0341,0.46867,0.15168
0.21751,0.9288,0.30003,0.01543,0.20422,-0.25206
0.21452,0.92719,0.30706,-0.02736,-0.04168,0.00386
0.21426,0.92152,0.32385,0.06541,0.03591,0.59837
0.21544,0.91785,0.33335,0.24668,0.14123,0.40033
0.21132,0.91763,0.33657,0.03926,0.12341,0.09994
0.20269,0.91479,0.34937,-0.0836,-0.0608,-0.10085
0.19306,0.90554,0.37778,-0.15508,-0.13451,-0.25501
0.18106,0.88571,0.42747,-0.1464,0.02715,-0.20742
0.17212,0.85491,0.48938,0.20217,0.00826,-0.41505
0.17511,0.81764,0.54844,0.35684,-0.05971,-0.44661
0.18449,0.78278,0.5943,0.43883,-0.15154,-0.53017
0.19071,0.75701,0.62494,0.09031,-0.03213,-0.12379
0.18779,0.74314,0.64222,0.09323,-0.01826,-0.14108
0.17572,0.74118,0.64788,0.3891,0.09246,-0.06655
0.15648,0.75208,0.64021,0.53613,0.01954,-0.18281
0.15111,0.76949,0.62051,0.40799,-0.11963,-0.16999
0.16443,0.78629,0.59557,0.19001,-0.28021,-0.1658
0.18784,0.802,0.56701,-0.24742,-0.47945,0.17392
0.20707,0.82128,0.5316,-0.28246,-0.6029,0.20318
0.22635,0.84271,0.48845,-0.23712,-0.66318,0.17543
0.25859,0.86113,0.43769,0.18801,0.30466,-0.28533
0.30026,0.87072,0.38946,0.35985,0.83151,-0.31541
0.33699,0.87748,0.34126,0.46264,0.62327,0.1999
0.35435,0.88445,0.3036,0.12211,-0.10698,0.30057
0.35579,0.89206,0.27863,0.10431,-0.24113,0.30166
0.34997,0.90099,0.25636,-0.05781,-0.54671,0.45359
0.3371,0.91109,0.23718,-0.44805,-0.68124,-0.14882
0.32129,0.92191,0.21643,-0.07172,-0.50483,-0.96453
0.32327,0.92231,0.21172,0.05735,-0.17405,0.01206
0.33202,0.91195,0.24103,-0.41154,0.84427,0.98309
0.31686,0.91495,0.24989,-0.44172,0.3753,-0.4539
0.29065,0.92639,0.2394,0.34876,0.46207,-0.3781
0.27561,0.92551,0.25973,0.31234,1.00342,0.98829
0.26409,0.92356,0.27801,-0.15309,0.11767,-0.2347
0.25172,0.92771,0.27563,-0.19716,-0.59534,-0.46728
0.25262,0.92446,0.28556,-0.14338,-0.67379,-0.40413
0.2618,0.91821,0.2972,0.00798,-0.1888,0.25928
0.28015,0.91139,0.30146,0.19644,0.39516,0.44556
0.29495,0.91177,0.28576,-0.04317,0.411,0.03582
0.30289,0.91479,0.26722,-0.36595,0.23783,0.06914
0.30754,0.91728,0.253,-0.58902,0.18432,0.03042
0.31063,0.91819,0.24582,-0.54711,0.05502,0.17093
0.31967,0.91446,0.2481,-0.3966,0.03874,0.13781
0.33313,0.90537,0.26328,0.18215,0.39328,0.05831
0.34524,0.89236,0.29068,0.51543,0.38232,0.21186
0.35064,0.87878,0.3237,0.47645,0.15726,0.25342
0.34711,0.86701,0.35747,0.29565,-0.05921,-0.28847
0.33971,0.85763,0.38608,0.21611,0.16795,-0.47381
0.33352,0.84864,0.41056,0.29768,0.68073,-0.41334
0.32363,0.84147,0.43265,0.28398,0.96667,-0.00601
0.31751,0.8386,0.44263,0.0523,0.51694,-0.22214
0.30987,0.83975,0.44586,-0.00089,0.03621,-0.31693
0.303,0.84323,0.444,0.03568,-0.07788,-0.30068
0.29878,0.84732,0.43905,0.1028,0.02653,-0.29622
0.29628,0.85236,0.43091,0.17623,0.03434,-0.21736
0.29589,0.85744,0.42098,0.08096,0.01275,-0.31614
0.30076,0.85918,0.41393,0.01275,-0.02874,-0.3193
0.31202,0.85595,0.4123,0.08187,-0.14821,-0.24712
0.32535,0.84925,0.41581,0.13604,-0.2071,-0.11415
0.33557,0.84298,0.42042,0.09963,-0.13957,0.08469
0.34219,0.84145,0.41815,0.03937,-0.10138,0.05643
0.34822,0.84346,0.40903,-0.04197,-0.07872,-0.03296
0.35261,0.84482,0.4024,-0.0862,-0.10466,-0.16214
0.35784,0.84267,0.4023,-0.09266,-0.12494,-0.17911
0.36721,0.8374,0.40486,-0.07239,-0.05888,-0.01716
0.38047,0.83159,0.40458,-0.12597,0.05627,0.0525
0.39535,0.82673,0.40025,-0.1892,0.18491,0.17592
0.4055,0.82272,0.39835,-0.25792,0.23191,0.29034
0.40505,0.82092,0.40251,-0.26522,0.21746,0.12154
0.39666,0.82351,0.40555,-0.15495,0.11797,-0.14812
0.39232,0.82675,0.40318,-0.03737,0.08895,-0.06305
0.39088,0.83037,0.3971,0.06894,0.13324,0.04572
0.38847,0.83633,0.38681,0.20714,0.24581,-0.22931
0.3827,0.84234,0.37947,0.38457,0.31207,-0.43663
0.37697,0.8457,0.37773,0.346,0.30322,-0.14143
0.37722,0.84396,0.38133,0.15287,-0.1371,0.15245
0.37859,0.8387,0.39145,-0.00074,-0.58631,-0.0984
0.38094,0.8376,0.39154,-0.0198,-0.74392,-0.56892
0.39439,0.83955,0.37364,-0.03324,-0.74587,-0.55102
0.41171,0.84015,0.35303,-0.45858,0.95261,-0.54375
0.41886,0.84286,0.33783,-0.35443,0.49598,-0.25032
0.42022,0.84491,0.33095,-0.15154,0.23877,-0.3073
0.42137,0.84783,0.3219,0.32478,-0.35807,-0.10309
0.43398,0.84866,0.30237,0.17206,-0.32246,-0.02835
0.45122,0.8491,0.27462,-0.0572,0.05654,-0.21923
0.46294,0.8526,0.2424,-0.04532,0.27048,-0.36757
0.46909,0.85672,0.21439,-0.00498,0.1923,-0.16307
0.47457,0.85895,0.19231,0.01103,0.08721,-0.02609
0.48075,0.85932,0.17446,-0.07581,-0.10313,0.08973
0.4875,0.85902,0.15629,-0.12666,-0.04311,0.01356
0.49335,0.85886,0.1377,-0.18878,0.08284,-0.07657
0.49897,0.85829,0.1198,-0.1843,0.11868,-0.11568
0.50484,0.8572,0.1016,-0.16071,0.02916,-0.01618
0.51107,0.85573,0.08078,-0.21243,0.02959,0.06654
0.51705,0.85397,0.05814,-0.24203,0.11269,0.12724
0.52077,0.85288,0.03727,-0.21521,0.20182,0.13835
0.52159,0.85288,0.02302,-0.14236,0.23776,0.07348
0.51984,0.85413,0.01485,-0.11275,0.21844,-0.05144
0.51528,0.85695,0.01069,-0.15115,0.19972,-0.11312
0.51162,0.85916,0.00856,-0.13988,0.2767,0.09256
0.51031,0.85995,0.00736,-0.14026,0.30701,0.22714
0.50788,0.86132,0.01341,-0.15599,0.26179,0.17355
0.50396,0.86328,0.02766,-0.10998,0.24388,-0.15518
0.49906,0.86514,0.0496,-0.08244,0.28352,-0.01945
0.49462,0.86516,0.08268,0.00277,0.20584,-0.15613
0.49127,0.86332,0.11544,0.08045,0.10917,-0.14268
0.4868,0.85954,0.1556,0.19034,-0.09875,-0.07942
0.48106,0.85487,0.19435,0.05408,0.02312,-0.33432
0.47497,0.8502,0.22705,0.06017,0.02779,-0.36702
0.46791,0.84621,0.25491,0.13931,0.16836,-0.32194
0.46051,0.84345,0.27661,0.26131,0.18489,-0.33295
0.45527,0.84045,0.29387,0.2883,0.12821,-0.34724
0.45529,0.83434,0.31076,0.31342,-0.24416,-0.30409
0.45982,0.82662,0.32441,0.18352,-0.44312,-0.24985
0.46907,0.81742,0.33434,0.08809,-0.31854,-0.2305
0.48309,0.80704,0.33955,0.19403,-0.10997,-0.21366
0.49546,0.7988,0.3412,0.38303,-0.02176,-0.18139
0.50566,0.79306,0.33962,0.65353,-0.01941,-0.11527
0.51485,0.78684,0.34028,0.57504,-0.05003,-0.17825
0.52135,0.77787,0.35086,0.27063,0.01142,-0.12696
0.51963,0.77018,0.36985,0.16237,0.1377,-0.05354
0.50972,0.76569,0.3923,-0.02227,0.14737,-0.0236
0.49468,0.76453,0.41325,-0.50239,0.08577,-0.1506
0.48173,0.76728,0.42332,-0.66105,-0.01301,-0.44908
0.48755,0.76506,0.42067,-0.30145,-0.0546,-0.31421
0.50033,0.76069,0.41353,-0.07313,-0.09786,-0.02744
0.50587,0.75994,0.40813,0.05615,-0.13436,0.14883
0.49979,0.76889,0.39876,-0.18725,0.00313,0.12724
0.48457,0.79024,0.3751,-0.3429,0.02332,0.02924
0.46422,0.81886,0.33756,-0.65149,0.05441,-0.23177
0.43592,0.8529,0.28725,-0.05853,0.39917,-0.29749
0.39612,0.87704,0.27181,0.50924,0.40479,-0.1655
0.3944,0.86953,0.29725,0.65254,-0.6223,0.84665
0.43416,0.84259,0.31864,0.03314,-0.74502,0.31719
0.46413,0.8181,0.33952,-0.41564,0.42407,-1.32223
0.47821,0.81488,0.32753,-0.70948,1.21192,-0.41792
0.47706,0.81916,0.3184,-0.68901,0.9203,-0.16179
0.46234,0.83367,0.30204,-0.43561,0.35878,-0.36555
0.45257,0.84609,0.28159,-0.38599,0.01967,-0.20887
0.45224,0.85225,0.26294,-0.18442,-0.12566,-0.25981
0.45833,0.85412,0.24575,0.05547,-0.14822,-0.01365
0.46797,0.85379,0.22809,0.13808,-0.07917,0.06994
0.47641,0.85367,0.21038,0.11072,0.03829,0.04267
0.48279,0.85455,0.19139,-0.07226,0.02293,0.01147
0.48857,0.85532,0.17239,-0.18372,0.03415,0.0338
0.49408,0.85551,0.15484,-0.37775,0.08661,0.05744
0.49854,0.85544,0.14028,-0.38544,0.12363,0.0046
0.50232,0.85559,0.12507,-0.33522,0.15177,0.04846
0.50613,0.85594,0.10577,-0.33289,0.15303,0.02134
0.50975,0.8561,0.08506,-0.28566,0.05724,0.00968
0.51266,0.85593,0.06753,-0.16844,-0.07217,0.00941
0.51522,0.85545,0.05233,-0.06692,-0.02392,0.0573
0.51871,0.85416,0.03658,-0.05508,0.07299,0.12967
0.52312,0.85197,0.02184,-0.10178,0.24324,0.06616
0.52766,0.8494,0.00911,-0.20448,0.23255,-0.00949
0.53269,0.8463,-0.00259,-0.34613,0.19169,0.07197
0.53755,0.84315,-0.01088,-0.41457,0.26561,0.04441
0.5411,0.84085,-0.0132,-0.26276,0.53159,-0.03028
0.54369,0.83918,-0.01273,-0.19773,0.59946,0.19931
0.54409,0.83901,-0.00346,-0.27697,0.60291,0.35353
0.5387,0.8421,0.02569,-0.25499,0.55561,0.12213
0.52729,0.84714,0.06573,-0.2092,0.41261,0.14288
0.51359,0.85021,0.11552,-0.16028,0.2748,0.11121
0.49901,0.8486,0.17564,0.16222,0.04631,-0.16069
0.48708,0.8416,0.23336,0.34793,0.12476,-0.26971
0.4773,0.83177,0.28342,0.13297,0.2132,-0.30709
0.46804,0.82087,0.32726,-0.0605,0.35221,-0.11771
0.45175,0.81169,0.37021,-0.10281,0.49818,-0.26259
0.43049,0.80646,0.40531,-0.07277,0.39337,-0.38714
0.40573,0.80544,0.43202,-0.00338,0.12506,-0.49043
0.37979,0.80559,0.45471,0.0608,-0.07598,-0.47288
0.35883,0.80378,0.47452,0.17558,-0.1896,-0.41435
0.34458,0.79918,0.4925,0.15782,-0.24126,-0.4419
0.3365,0.79262,0.50844,0.01053,-0.36717,-0.23142
0.33008,0.78741,0.52059,-0.00405,-0.42889,-0.17709
0.32505,0.78536,0.52681,-0.01464,-0.49839,-0.12993
0.3226,0.78763,0.52494,-0.15107,-0.6414,-0.08549
0.32408,0.79357,0.51498,-0.19718,-0.53559,-0.19659
0.32811,0.80259,0.49817,-0.20921,-0.31323,-0.31334
0.33466,0.81233,0.47761,-0.09575,-0.1859,-0.29764
0.34411,0.81947,0.4583,-0.04181,-0.18501,-0.12561
0.36018,0.82229,0.44056,-0.09108,-0.20864,0.032
0.37789,0.82428,0.42161,-0.19226,-0.20665,0.06105
0.39133,0.82845,0.40063,-0.14608,-0.15197,0.0484
0.39917,0.83492,0.37889,0.04303,-0.02369,-0.20886
0.40209,0.84207,0.35948,0.19178,0.22646,-0.36097
0.40735,0.84823,0.33846,0.18599,0.16744,-0.20401
0.41532,0.85548,0.30926,-0.13546,-0.03427,0.02134
0.41969,0.86368,0.27911,-0.05133,-0.15874,0.1149
0.4159,0.87227,0.25723,-0.00521,-0.20274,0.05451
0.4059,0.88111,0.24265,-0.47753,0.13858,-0.27058
0.39264,0.89069,0.22912,-0.60149,0.12903,-0.37576
0.38377,0.89727,0.21821,-0.05117,0.19798,0.12285
0.3729,0.8941,0.24805,0.41737,1.35549,0.67125
0.3662,0.88314,0.29316,0.06834,1.10755,0.33553
0.34154,0.88521,0.31583,-0.08623,-0.60379,-0.94705
0.32473,0.88956,0.32127,-0.21625,-0.74823,-0.25159
0.31682,0.88977,0.32852,-0.06726,0.24326,0.20754
0.31728,0.89316,0.31871,-0.25922,0.56211,0.08906
0.3132,0.89759,0.31021,-0.12498,0.24017,0.11648
0.31407,0.89758,0.30935,0.101,0.12389,0.12319
0.32134,0.89496,0.30947,0.06863,0.22264,0.22131
0.32763,0.89336,0.30749,-0.03413,-0.14595,0.33615
0.33304,0.89234,0.30462,-0.18266,0.0814,0.33853
0.33546,0.89059,0.30707,-0.35142,0.484,-0.17098
0.32872,0.88285,0.3354,-0.35442,0.4742,0.10269
0.31282,0.86595,0.39019,-0.15555,0.26242,-0.18907
0.29873,0.84107,0.45094,-0.04633,0.09124,-0.38461
0.2953,0.8075,0.51062,0.39881,-0.26358,-0.52923
0.30066,0.77312,0.55846,0.38783,-0.43662,-0.25421
0.30205,0.74963,0.5889,0.16825,-0.46101,0.25195
0.29138,0.74339,0.60204,0.11505,-0.12239,0.00813
0.27193,0.74709,0.60654,0.1128,0.062,-0.33183
0.25245,0.75487,0.60533,0.08519,0.01657,-0.39364
0.24776,0.7657,0.59355,0.06031,-0.12385,-0.34422
0.25871,0.7799,0.56991,-0.07306,-0.17772,-0.0746
0.28143,0.7943,0.5384,-0.09854,-0.24086,0.09505
0.3033,0.81013,0.50168,-0.1541,-0.35818,0.22751
0.32205,0.82825,0.45856,-0.14877,-0.36783,1e-05
0.34623,0.84594,0.40559,-0.14785,-0.10525,-0.12249
0.37467,0.85856,0.34997,-0.07209,0.31405,-0.27312
0.39766,0.86787,0.29773,0.05076,0.14122,0.03054
0.40531,0.87738,0.25673,0.04299,-0.24718,0.14496
0.40441,0.88488,0.23114,-0.13973,-0.37823,0.2624
0.39421,0.89554,0.20639,-0.50138,-0.33569,0.13277
0.37799,0.90748,0.18326,-0.257,-0.24388,-0.33154
0.36872,0.91438,0.16717,-0.14619,0.34739,0.12427
0.36155,0.91226,0.1925,-0.32841,0.47738,0.50162
0.3532,0.90925,0.22024,-0.02956,0.02289,-0.06697
0.3398,0.9125,0.22774,0.44984,0.89435,0.59721
0.33366,0.90381,0.26794,-0.16286,0.9346,-0.08258
0.31637,0.90675,0.27874,-0.13556,0.06632,-0.6552
0.30323,0.91178,0.27696,-0.36769,-0.58351,-0.14316
0.30006,0.9114,0.28159,-0.10591,0.07029,0.37234
0.31114,0.90871,0.27824,0.08769,0.66053,0.1156
0.32087,0.90561,0.2773,0.0095,0.66339,0.17052
0.32633,0.90293,0.27967,-0.04343,0.25952,0.49169
0.32643,0.90221,0.28188,-0.18644,0.2363,0.25614
0.32117,0.90032,0.29369,-0.30471,0.18356,0.12108
0.30967,0.89512,0.32069,-0.24222,-0.15108,-0.13421
0.29721,0.88357,0.36187,-0.07186,-0.22726,-0.13537
0.28666,0.85986,0.42244,0.16577,-0.00805,-0.16602
0.28172,0.82445,0.49081,0.25679,0.06796,-0.36673
0.28583,0.78419,0.55076,0.21785,-0.11564,-0.63563
0.2961,0.74784,0.59417,0.08075,-0.45318,-0.21093
0.29894,0.71972,0.6266,-0.17206,-0.35909,-0.10733
0.28992,0.70504,0.64719,-0.27675,-0.17356,-0.13997
0.2728,0.70493,0.6547,0.1886,0.02379,-0.03004
0.25809,0.71711,0.6474,0.18425,0.0561,-0.17247
0.26223,0.73064,0.63038,0.18188,-0.0654,-0.16275
0.27636,0.74699,0.60466,-0.01094,-0.33454,-0.08858
0.29387,0.76729,0.57,-0.23135,-0.57205,0.13027
0.30919,0.79031,0.52895,-0.23851,-0.58917,0.27598
0.3288,0.81254,0.48131,-0.30239,-0.16169,0.29959
0.35966,0.83229,0.4218,-0.10725,0.75502,-0.19252
0.3904,0.84582,0.36354,0.11146,1.05111,-0.28371
0.41142,0.85532,0.31489,0.27958,0.99896,-0.23178
0.41875,0.8642,0.27891,0.13843,-0.26032,0.08757
0.41989,0.86971,0.2594,0.06403,-0.24972,0.24813
0.40648,0.87964,0.24697,-0.09454,-0.24259,0.44168
0.38515,0.89376,0.22988,-0.28861,-0.56745,-0.39252
0.37856,0.89935,0.21874,-0.05489,-0.32849,-0.16674
0.38123,0.89069,0.24762,-0.1097,-0.04456,0.0927
0.38298,0.88455,0.26625,0.0792,1.01165,-0.04376
0.3708,0.88965,0.26647,0.10677,1.45957,-0.00179
0.34767,0.88834,0.29995,-0.10425,0.57126,0.02938
0.33188,0.89141,0.30859,-0.1752,-0.70486,-0.2158
0.32107,0.8939,0.3128,-0.26333,-0.7084,-0.10844
0.32181,0.89303,0.31451,-0.06641,0.2916,0.34873
0.33033,0.89219,0.30799,0.00749,0.5521,0.3233
0.33599,0.89169,0.30329,0.00605,0.66625,0.40742
0.33627,0.891,0.30502,-0.19582,0.28703,0.42907
0.33261,0.88926,0.31397,-0.31284,-0.07021,0.1313
0.32582,0.88419,0.33472,-0.29943,-0.19762,-0.11684
0.3149,0.87128,0.37644,-0.16228,-0.02522,-0.2018
0.30434,0.84574,0.43828,0.01689,-0.02776,-0.41103
0.30457,0.81302,0.49621,0.17014,-0.01108,-0.46067
0.30938,0.78137,0.54196,0.60263,-0.27924,-0.18504
0.30986,0.75885,0.57282,0.19272,-0.21762,-0.05378
0.30328,0.7491,0.58894,-0.13835,-0.07046,-0.20834
0.29381,0.74715,0.59618,-0.10927,-0.09815,-0.20313
0.2812,0.7504,0.59817,-0.02759,-0.16689,-0.20567
0.27054,0.76215,0.58815,0.0578,-0.18288,-0.2592
0.27311,0.78146,0.561,0.0854,-0.14633,-0.1804
0.2939,0.80203,0.51996,-0.06593,-0.14091,0.17547
0.32481,0.81938,0.47235,-0.28751,-0.22178,0.53362
0.35397,0.83474,0.42179,-0.44852,-0.0869,0.40834
0.36736,0.85567,0.3645,-0.35054,0.20486,-0.25829
0.37173,0.87645,0.306,0.2912,0.50058,-0.77451
0.37657,0.89018,0.25642,0.36287,-0.24393,-0.31923
0.38758,0.89498,0.22088,-0.02034,-0.57171,0.05968
0.39194,0.89716,0.20366,-0.60155,-0.33827,0.804
0.36943,0.90755,0.19965,-0.63362,-0.385,0.14505
0.35246,0.91325,0.20427,0.08125,0.27345,0.43762
0.34276,0.90596,0.24849,0.22917,0.74877,0.37448
0.33219,0.9068,0.25951,0.15281,0.46745,-0.51683
0.31778,0.90918,0.26906,-0.08632,0.33717,0.51024
0.3087,0.90657,0.28778,-0.18004,0.44978,0.0754
0.29601,0.9123,0.28296,-0.28436,0.06052,-0.1668
0.28981,0.9151,0.28034,-0.26076,-0.19807,-0.23754
0.29468,0.91305,0.28193,-0.1168,0.26064,0.55421
0.30459,0.90886,0.28494,0.07807,0.62324,0.45003
0.30904,0.90512,0.29195,-0.05567,0.31303,0.31432
0.30708,0.89962,0.31045,-0.14998,-0.12543,0.26175
0.30412,0.89103,0.33699,-0.17623,-0.12965,-0.09837
0.29697,0.87563,0.38088,-0.1645,0.04249,-0.18125
0.28765,0.85169,0.43804,-0.09965,0.03343,-0.34313
0.28651,0.82295,0.49057,-0.00325,0.02491,-0.48425
0.28719,0.79553,0.53351,0.41546,-0.31386,-0.15709
0.28537,0.77653,0.56174,0.24535,-0.28463,-0.09293
0.27916,0.7679,0.57653,-0.04194,-0.03993,-0.05
0.26719,0.76773,0.5824,0.13135,0.08836,-0.10178
0.25232,0.77466,0.57984,0.17381,0.14613,-0.13724
0.24668,0.78617,0.56663,0.16716,-0.03124,-0.19089
0.25293,0.79901,0.54553,-0.03831,-0.09941,-0.10719
0.27003,0.81184,0.51768,-0.16942,-0.25797,0.17712
0.2901,0.82605,0.48319,-0.217,-0.49609,0.3524
0.31084,0.84223,0.44047,-0.25284,-0.30193,0.21089
0.33539,0.85876,0.38735,-0.10613,0.1603,-0.21598
0.36142,0.87165,0.33104,0.28967,0.74934,-0.53146
0.38206,0.88142,0.27772,0.17653,-0.02155,-0.12218
0.39881,0.88718,0.23205,-0.06281,-0.54503,0.17559
0.41262,0.88828,0.20172,-0.54037,-0.55069,0.37627
0.40483,0.89605,0.18222,-0.75555,-0.70034,0.52474
0.38779,0.90654,0.1667,-0.21438,-0.28209,-0.04639
0.38401,0.90726,0.17144,0.05118,0.90138,0.21656
0.37603,0.90569,0.19574,-0.10279,1.23646,0.22955
0.36182,0.91274,0.18969,-0.30901,0.01503,-0.3121
0.34341,0.92071,0.18532,-0.07597,-0.22172,-0.47559
0.33097,0.92599,0.18161,-0.0767,0.64462,0.50855
0.32646,0.92656,0.1868,-0.14871,0.63469,0.09768
0.32117,0.93007,0.17832,-0.15297,-0.35128,-0.21514
0.32284,0.93073,0.1718,-0.00588,-0.67145,0.2008
0.33664,0.92508,0.17574,0.09012,-0.2802,0.42115
0.36275,0.91561,0.17337,0.17004,0.16654,0.56003
0.3807,0.91064,0.1606,-0.43221,0.59111,0.06572
0.38736,0.90988,0.14852,-0.43888,0.59188,0.07779
0.39209,0.90933,0.13923,-0.71657,0.05273,-0.07626
0.3976,0.90732,0.13662,-0.66716,0.00808,-0.00509
0.40289,0.90467,0.13873,-0.42387,0.12707,-0.17351
0.40678,0.90028,0.15495,0.15417,0.59319,0.41557
0.40383,0.89653,0.18205,0.60379,0.58771,0.68314
0.39509,0.89503,0.20692,0.52585,0.15562,0.13995
0.38297,0.89281,0.23709,0.43585,0.09012,-0.24729
0.37061,0.89022,0.26487,0.36635,0.31059,-0.30783
0.36044,0.88646,0.29029,0.36518,0.97636,0.32803
0.34789,0.88251,0.31642,0.24216,1.16163,0.0193
0.33171,0.88285,0.33247,0.14356,0.4768,-0.29659
0.31748,0.88185,0.34861,0.07682,-0.19496,-0.31074
0.30906,0.87575,0.37085,0.06594,-0.50173,-0.18819
0.30758,0.8674,0.39114,0.1,-0.58429,-0.11517
0.31387,0.85917,0.4041,-0.02075,-0.50839,-0.19704
0.32862,0.84864,0.41449,-0.10748,-0.34696,-0.22929
0.34639,0.83771,0.42219,-0.19911,-0.37502,-0.24177
0.36676,0.82672,0.42663,-0.14484,-0.39927,-0.10566
0.38342,0.82037,0.42424,-0.07126,-0.34322,0.01055
0.3966,0.81939,0.41388,-0.18727,-0.15821,0.03921
0.40849,0.82174,0.39733,-0.29511,0.03561,0.1207
0.41625,0.82681,0.37829,-0.31178,0.15535,0.25243
0.41912,0.833,0.36116,-0.24477,0.20271,0.41127
0.41731,0.83826,0.35094,-0.12031,0.2552,0.46899
0.41077,0.84202,0.34965,0.05052,0.25037,0.46525
0.40306,0.8432,0.35573,0.18779,0.15487,0.43546
0.39595,0.84373,0.36239,0.06813,-0.17657,0.29052
0.38779,0.84601,0.36588,0.05803,-0.24671,0.13181
0.384,0.84958,0.36159,0.09436,-0.02693,0.13571
0.38948,0.85444,0.34383,0.06102,0.14982,0.28727
0.39246,0.86136,0.32251,0.04789,0.68565,0.10445
0.38299,0.86955,0.31176,0.21838,0.76023,-0.58057
0.36481,0.87728,0.3119,0.10671,-0.28089,-0.49575
0.34874,0.88389,0.31161,0.28212,-1.28628,-0.15095
0.34794,0.8886,0.29885,0.21916,-0.84932,0.01261
0.35598,0.89159,0.27988,-0.3352,0.60748,0.19025
0.34995,0.90218,0.25216,-0.37954,0.92994,-0.85282
0.3425,0.9162,0.20798,-0.19316,0.46634,-0.57152
0.33344,0.92355,0.1894,-0.04642,-0.16065,0.10822
0.33768,0.92499,0.1742,0.04289,-0.35683,0.1721
0.35017,0.92629,0.13917,0.08405,-0.2385,-0.14394
0.36488,0.92554,0.1011,0.04538,-0.03454,-0.15565
0.37847,0.92267,0.07364,0.0004,0.0948,-0.05841
0.38983,0.91953,0.04992,-0.1069,-0.03751,0.20134
0.39764,0.91722,0.02398,-0.16296,-0.1086,0.21336
0.4044,0.91458,-0.00057,-0.1948,-0.11877,0.17391
0.41172,0.91105,-0.02168,-0.26688,0.03788,-0.03027
0.41946,0.90696,-0.03821,-0.26279,0.05768,-0.01165
0.42692,0.90261,-0.05492,-0.23249,0.04264,0.07945
0.43432,0.89768,-0.07435,-0.16351,-0.00759,0.12426
0.44082,0.89255,-0.09494,-0.13536,0.05319,0.13072
0.44671,0.88726,-0.11492,-0.1534,0.11236,0.15522
0.4533,0.88144,-0.13258,-0.17355,0.08977,0.10214
0.46121,0.87554,-0.14391,-0.15806,0.17758,0.05628
0.47003,0.86955,-0.15148,-0.23277,0.37306,0.06912
0.47841,0.86382,-0.1579,-0.35624,0.45649,0.28044
0.48415,0.85983,-0.16211,-0.36687,0.52146,0.29523
0.48534,0.85924,-0.16168,-0.38784,0.59042,0.31573
0.48006,0.86392,-0.15226,-0.12211,0.61387,0.11682
0.4659,0.87459,-0.13427,-0.01337,0.6048,0.16599
0.44864,0.88766,-0.1038,0.27572,0.22059,0.44449
0.43543,0.89882,-0.05018,0.53944,-0.01634,0.06896
0.42755,0.90383,0.01702,0.58074,-0.11682,-0.16024
0.42351,0.90239,0.07948,0.51554,0.07733,0.01346
0.41571,0.89897,0.1379,0.25676,0.31505,0.02332
0.40013,0.89603,0.19239,0.02604,0.42161,-0.05132
0.3801,0.89248,0.24288,-0.0004,0.29573,-0.2638
0.35907,0.88688,0.29069,-0.05285,0.0866,-0.44976
0.33928,0.87938,0.33403,-0.0949,-0.0634,-0.48509
0.32274,0.86981,0.37318,-0.11292,-0.20901,-0.44218
0.31444,0.85794,0.40627,-0.10039,-0.38457,-0.41272
0.31613,0.84306,0.43509,-0.0741,-0.50962,-0.31196
0.32301,0.82865,0.45715,0.04862,-0.53356,-0.31025
0.33099,0.81679,0.47252,0.0755,-0.51724,-0.30454
0.33973,0.80893,0.47979,0.03938,-0.53322,-0.24784
0.34972,0.80613,0.47732,-0.08455,-0.53262,-0.17515
0.36062,0.8087,0.4647,-0.12747,-0.42248,-0.0949
0.37177,0.81688,0.441,-0.19367,-0.28299,-0.02742
0.38165,0.82904,0.40868,-0.21274,-0.0735,0.22954
0.38923,0.84063,0.37659,-0.15452,0.21676,0.61393
0.39698,0.8468,0.35402,0.00096,0.61707,0.81706
0.40092,0.847,0.34907,0.12069,0.83293,0.39457
0.39648,0.84471,0.35952,0.05135,0.25269,0.15569
0.39101,0.84098,0.37396,-0.03893,-0.0744,0.2032
0.38471,0.83885,0.38511,-0.09403,-0.59681,0.33089
0.37942,0.84243,0.38254,0.05831,-0.24476,0.15906
0.37969,0.85157,0.36145,0.12611,-0.09554,0.06208
0.37936,0.86505,0.32826,0.24809,0.21704,-0.10139
0.37527,0.87918,0.29361,0.82533,1.12783,-0.12966
0.35618,0.88888,0.28812,0.84441,1.11813,-0.12416
0.33782,0.89037,0.30515,-0.04245,-1.28262,0.0419
0.32731,0.89764,0.29512,0.28966,-1.8115,-0.55434
0.33656,0.90721,0.25234,0.28159,-1.41376,-0.51117
0.34143,0.91495,0.21512,-0.51629,1.14773,-0.18807
0.33465,0.92302,0.1898,-0.46783,1.33361,-0.55708
0.32448,0.92992,0.17305,-0.23601,0.20542,-0.45617
0.31519,0.93618,0.15558,0.03079,-0.55624,0.0291
0.32184,0.93777,0.13038,0.2017,-0.52494,0.23857
0.33306,0.93723,0.10326,0.1149,-0.35732,0.2449
0.34342,0.93604,0.07673,0.07503,0.00136,-0.19016
0.35236,0.93418,0.05597,-0.0058,0.16845,-0.18072
0.35907,0.93258,0.03676,-0.10827,0.14566,0.10658
0.36408,0.93124,0.01507,-0.17407,0.00263,0.13719
0.36953,0.9292,-0.00513,-0.22996,-0.09289,-0.09139
0.37616,0.92626,-0.02312,-0.22462,-0.03312,-0.07502
0.38354,0.92257,-0.04196,-0.21483,0.01551,0.03339
0.39182,0.91789,-0.06281,-0.19102,0.05654,0.12246
0.4,0.91264,-0.08418,-0.15438,0.00657,0.18986
0.40724,0.90741,-0.10365,-0.13205,-0.04447,0.23375
0.41428,0.90258,-0.11711,-0.16761,0.00717,0.23163
0.42151,0.89823,-0.12448,-0.17575,0.13825,0.17645
0.42847,0.89465,-0.12652,-0.36767,0.41655,0.05063
0.43338,0.89215,-0.12741,-0.46971,0.39373,0.21434
0.43534,0.89157,-0.12478,-0.40545,0.41617,0.22961
0.43205,0.8946,-0.11413,-0.15251,0.39915,0.31711
0.42274,0.90129,-0.09465,-0.07449,0.42999,0.19812
0.40708,0.91135,-0.06102,0.07628,0.36059,0.23727
0.38898,0.92122,-0.00707,0.57703,0.21305,0.42367
0.37455,0.92516,0.06157,0.69653,0.07358,0.2248
0.36446,0.92239,0.1279,0.81625,0.2258,-0.06853
0.35142,0.917,0.18871,0.74783,0.2572,-0.29698
0.33459,0.90961,0.24625,0.21976,0.41881,-0.17111
0.31338,0.90123,0.29929,-0.03074,0.42446,-0.1123
0.28947,0.89208,0.34696,-0.06926,0.20989,-0.17188
0.26783,0.88346,0.38438,-0.07508,0.04984,-0.33957
0.24989,0.87551,0.41354,-0.15733,-0.15823,-0.51829
0.24207,0.86459,0.44031,-0.15491,-0.2873,-0.61631
0.24864,0.8488,0.46658,-0.10267,-0.53259,-0.49719
0.26266,0.83112,0.49013,-0.05017,-0.50713,-0.45391
0.27605,0.81627,0.50743,0.19478,-0.45473,-0.25722
0.28703,0.8083,0.51404,0.22575,-0.46854,-0.21241
0.29557,0.80799,0.50969,0.18591,-0.47002,-0.18118
0.30227,0.81433,0.49547,0.02438,-0.46017,-0.0805
0.30856,0.82618,0.47139,-0.10513,-0.34937,-0.05375
0.31577,0.84157,0.43821,-0.20273,-0.2233,0.00968
0.3237,0.85673,0.40152,-0.22749,-0.02265,0.16863
0.33051,0.86785,0.37093,-0.21253,0.21422,0.40042
0.33394,0.87556,0.3491,-0.20302,0.27145,0.53515
0.33327,0.88221,0.33261,-0.06119,0.41065,0.51671
0.3314,0.88787,0.31912,-0.00642,0.55646,0.30273
0.32359,0.89235,0.31463,0.02621,0.55075,0.13499
0.30884,0.89355,0.32585,0.18461,-0.03876,0.271
0.29314,0.89384,0.33929,0.43269,-0.26757,0.46992
0.28905,0.89861,0.33006,0.2074,-0.57898,0.18697
0.2923,0.90752,0.30158,0.11017,0.01468,-0.13255
0.29441,0.91535,0.27466,0.50654,0.69411,-0.46718
0.2853,0.92076,0.26605,0.52552,0.55381,-0.42958
0.27368,0.92436,0.26581,0.25306,-0.7432,-0.20128
0.27368,0.92733,0.25522,0.38838,-1.02731,-0.09252
0.28034,0.93299,0.22566,0.05467,-0.09925,-0.22735
0.27726,0.94313,0.18337,-0.23002,0.74439,-0.28805
0.26575,0.95277,0.14694,-0.10535,0.31137,-0.47129
0.25323,0.96032,0.11684,-0.02383,-0.05437,-0.34937
0.2528,0.96322,0.09105,0.07911,-0.30355,-0.17433
0.2619,0.96301,0.06327,0.06215,-0.25093,-0.01907
0.27236,0.96164,0.03262,0.0056,-0.16928,-0.13079
0.28365,0.95887,0.00976,-0.10607,0.11607,-0.19459
0.29357,0.95591,-0.00609,-0.1139,0.14716,0.03543
0.3002,0.95356,-0.02419,-0.14633,0.09874,0.16079
0.30557,0.95136,-0.03906,-0.20149,-0.10188,0.08135
0.31103,0.949,-0.05144,-0.22685,-0.01869,0.01242
0.31584,0.94661,-0.06456,-0.2331,0.03789,0.00337
0.32058,0.94401,-0.07783,-0.23704,0.07324,0.11072
0.32584,0.94105,-0.09083,-0.17165,0.01307,0.14331
0.33194,0.9376,-0.10347,-0.03699,0.00238,0.18301
0.34,0.93333,-0.11523,-0.0439,0.03671,0.19789
0.34957,0.92862,-0.12435,-0.08353,0.08171,0.23834
0.35802,0.92464,-0.12985,-0.14519,0.19167,0.22032
0.36375,0.92207,-0.13212,-0.25388,0.24362,0.02348
0.36771,0.92082,-0.1299,-0.23398,0.15484,0.08434
0.37178,0.91964,-0.12663,-0.14212,0.13647,0.31327
0.3767,0.91902,-0.11619,-0.07876,0.40854,0.34151
0.37804,0.9206,-0.09788,-0.23052,0.48391,0.24439
0.37171,0.92571,-0.06988,-0.04692,0.44015,0.2212
0.35813,0.93333,-0.02508,0.32118,0.34213,0.46792
0.34328,0.93843,0.0386,0.59315,0.13402,0.27776
0.33232,0.93679,0.10946,0.70549,0.06613,-0.09744
0.32235,0.92986,0.17734,0.72238,0.25966,-0.24185
0.30767,0.92236,0.23364,0.08,0.56792,-0.13049
0.2853,0.9149,0.28555,-0.08618,0.5719,-0.16376
0.25934,0.90562,0.33554,-0.0684,0.41276,-0.15376
0.24105,0.89296,0.38015,0.10306,0.03633,-0.32222
0.22426,0.87913,0.42051,0.05525,-0.09197,-0.39796
0.20978,0.86419,0.45733,0.00277,-0.10967,-0.39527
0.20618,0.84827,0.48777,-0.10965,-0.39862,-0.55682
0.21718,0.82821,0.51661,-0.08694,-0.48652,-0.50877
0.2323,0.80764,0.54197,0.05299,-0.53675,-0.33799
0.2467,0.79196,0.5585,0.1417,-0.54304,-0.2903
0.26074,0.7841,0.5632,0.12752,-0.5321,-0.30618
0.27488,0.78393,0.55667,0.04254,-0.54796,-0.25187
0.28973,0.79042,0.53971,-0.09627,-0.45541,-0.11719
0.30705,0.80231,0.51187,-0.21999,-0.26622,0.07645
0.32551,0.81655,0.47673,-0.31546,0.0452,0.18657
0.34216,0.82637,0.44725,-0.28517,0.32633,0.31159
0.35046,0.83116,0.43167,-0.16614,0.39287,0.37503
0.35224,0.83289,0.42686,0.08,0.33424,0.49121
0.34821,0.83265,0.43061,0.45462,0.40866,0.47832
0.33905,0.82855,0.44557,0.39461,0.25961,0.20133
0.33347,0.82215,0.46137,0.03828,-0.2153,0.30494
0.33116,0.81868,0.46913,0.0207,-0.31984,0.40404
0.32951,0.81887,0.46995,0.20992,-0.10606,-0.08015
0.33066,0.82102,0.46537,0.35264,0.8088,-0.5605
0.32838,0.82332,0.46293,0.24916,0.50777,-0.35781
0.32157,0.8229,0.46842,0.12446,-0.55184,-0.26663
0.32179,0.82346,0.46728,0.15257,-0.85141,-0.38931
0.32832,0.8273,0.45582,-0.15938,-0.10788,-0.03689
0.32823,0.84123,0.42964,-0.33401,0.75593,-0.66306
0.32557,0.8621,0.38829,-0.16137,0.74966,-0.74159
0.32069,0.8745,0.36388,-0.14633,0.50243,-0.29636
0.31856,0.88113,0.34945,-0.11196,-0.08823,-0.02047
0.32095,0.88899,0.32662,0.01102,-0.32026,-0.05092
0.32976,0.89701,0.29431,0.05867,-0.25898,-0.11673
0.34082,0.9027,0.2626,0.02896,-0.03648,-0.22792
0.35281,0.90563,0.23528,-0.02517,0.08752,-0.14532
0.36272,0.90744,0.21208,-0.09604,0.02647,-0.08737
0.37115,0.90894,0.18995,-0.16581,-0.03218,-0.03891
0.37886,0.91028,0.16685,-0.17197,-0.06661,0.02985
0.38479,0.91163,0.14443,-0.1327,-0.02775,-0.02035
0.39027,0.91211,0.12542,-0.13742,-0.01699,0.0597
0.39582,0.91181,0.10922,-0.17985,0.01762,0.13439
0.40071,0.91145,0.09319,-0.21971,-0.02639,0.05902
0.40509,0.911,0.07727,-0.21907,-0.03194,0.00609
0.40976,0.91014,0.06109,-0.24124,0.02609,-0.06065
0.41496,0.90867,0.04602,-0.19858,0.07922,-0.04146
0.41715,0.9082,0.03393,-0.10569,0.10734,0.07885
0.42128,0.90665,0.02226,-0.0754,0.10453,0.12407
0.41817,0.90826,0.01389,-0.06372,0.18612,0.02398
0.42178,0.90666,0.00753,-0.07423,0.12654,0.04241
0.42579,0.9048,0.00558,-0.09382,0.09378,0.11976
0.42992,0.90278,0.0119,-0.25912,0.41263,0.22215
0.43271,0.90122,0.02345,-0.2619,0.41419,0.21061
0.43237,0.90048,0.04669,-0.24116,0.43314,-0.00931
0.42746,0.89995,0.08578,-0.16139,0.53577,0.06864
0.42157,0.89655,0.13586,-0.15551,0.53916,0.01856
0.41384,0.89043,0.18937,-0.08386,0.37672,-0.25809
0.40341,0.88292,0.24022,0.25756,0.32814,-0.199
0.3885,0.87588,0.28616,0.29563,0.28102,-0.23553
0.36936,0.87005,0.32645,0.17985,0.28339,-0.32592
0.34839,0.8641,0.36323,-0.0207,0.28958,-0.2284
0.32869,0.85753,0.39572,-0.06844,0.33412,-0.33139
0.31254,0.84876,0.42652,-0.04641,0.2435,-0.47117
0.3006,0.83833,0.45479,-0.07888,0.18302,-0.61971
0.29333,0.82766,0.47846,-0.07447,0.10201,-0.60791
0.2894,0.81671,0.49922,0.01279,-0.05181,-0.52363
0.2878,0.80731,0.51518,0.05433,-0.11768,-0.51774
0.28941,0.80157,0.52318,0.0706,-0.1381,-0.47943
0.29676,0.79856,0.52366,0.10006,-0.22339,-0.44245
0.30932,0.79646,0.51957,0.07845,-0.29212,-0.42217
0.32509,0.79328,0.5148,0.04077,-0.38874,-0.33102
0.34029,0.78972,0.51042,0.04452,-0.32252,-0.16418
0.35206,0.78887,0.50371,0.08999,-0.20962,-0.15287
0.36216,0.79031,0.4942,0.12541,-0.02875,-0.16662
0.37451,0.79185,0.48239,0.03511,-0.09639,-0.0903
0.38997,0.79265,0.46863,-0.01523,-0.1249,-0.0724
0.40975,0.79193,0.4527,-0.07964,-0.01077,0.03465
0.43273,0.78942,0.43538,-0.14255,0.23141,0.18538
0.45242,0.78658,0.42023,-0.18038,0.54083,0.35298
0.45954,0.78416,0.41701,-0.13388,0.54125,0.37524
0.45235,0.78339,0.42622,-0.05875,0.28073,0.22123
0.4399,0.78569,0.43493,-0.09477,-0.01687,0.01396
0.43115,0.79014,0.43564,-0.26362,-0.15484,-0.10893
0.42929,0.79543,0.42776,-0.08972,0.07745,-0.15619
0.4346,0.80219,0.40939,-0.1332,0.14209,-0.16889
0.43526,0.81306,0.38662,0.02814,0.16782,-0.35189
0.42647,0.8261,0.36832,0.22964,0.26328,-0.34331
0.41598,0.83459,0.36113,0.46944,0.19724,0.02289
0.4184,0.82641,0.37679,0.45936,-0.05923,0.13349
0.42382,0.81558,0.39394,0.02931,-0.6454,-0.33276
0.43427,0.81241,0.38909,-0.32702,-0.38171,-0.46782
0.44308,0.81644,0.37026,-0.56864,0.19427,-0.25469
0.43783,0.82738,0.35176,-0.77297,1.17327,-0.71272
0.42763,0.8351,0.34601,0.12753,-0.0589,-0.26832
0.42922,0.83587,0.34216,0.28875,-0.3703,0.00591
0.44774,0.83327,0.3243,0.32484,-0.50437,0.23608
0.4579,0.83547,0.30381,-0.03496,-0.04896,-0.00868
0.4612,0.84074,0.28363,-0.09708,0.03025,-0.00978
0.46008,0.84609,0.26917,-0.13951,0.08011,0.00555
0.45702,0.85162,0.25664,-0.22916,-0.04352,0.03741
0.45399,0.85619,0.24662,-0.25403,-0.08475,0.07942
0.45187,0.85954,0.23876,-0.29446,-0.08593,0.10715
0.44954,0.86208,0.23394,-0.35523,-0.06255,0.15325
0.44552,0.86394,0.23477,-0.35617,-0.10118,0.23246
0.43948,0.86508,0.24183,-0.34335,-0.16301,0.27228
0.43114,0.86459,0.25806,-0.0532,-0.46029,0.16862
0.42646,0.86223,0.27327,-0.08283,-0.42581,0.05874
0.42293,0.85895,0.28866,-0.14308,-0.33795,-0.03024
0.41744,0.85613,0.30458,-0.15461,-0.12712,-0.0722
0.41066,0.854,0.31944,-0.14811,-0.06507,0.0629
0.40319,0.85222,0.33338,-0.27717,0.32322,0.31651
0.39219,0.85166,0.34765,-0.28574,0.43393,-0.19161
0.37814,0.84976,0.3673,-0.28747,0.43189,-0.17173
0.35739,0.84142,0.40532,-0.27368,0.47076,-0.23857
0.32753,0.82416,0.46203,-0.06448,0.44895,-0.28941
0.30811,0.79167,0.52756,0.1672,0.38337,-0.24047
0.29357,0.76109,0.5784,0.50096,-0.01466,-0.56041
0.28804,0.74523,0.60138,0.24688,-0.02848,-0.23678
0.27709,0.73753,0.61583,0.08687,-0.15698,-0.21297
0.26515,0.73904,0.61927,-0.09486,-0.32774,-0.06011
0.25639,0.74937,0.61049,-0.04834,-0.46219,-0.16043
0.25181,0.76359,0.59457,-0.05105,-0.57073,-0.19517
0.25593,0.78194,0.56837,0.28259,-0.51188,-0.25203
0.27502,0.7979,0.53638,0.32842,-0.17712,-0.15529
0.30622,0.80756,0.50404,0.01394,-0.11828,0.291
0.33637,0.81616,0.4698,-0.00786,-0.13491,0.40524
0.35812,0.83017,0.42727,-0.21473,0.11882,0.08746
0.37518,0.84283,0.38582,-0.33488,0.43656,-0.24851
0.38986,0.8485,0.35783,-0.30275,0.29623,-0.13648
0.39375,0.85405,0.33992,-0.24165,-0.05509,-0.038
0.38743,0.86463,0.31986,0.0417,-0.09296,-0.11704
0.37958,0.87574,0.2983,0.14035,0.05233,-0.11786
0.37284,0.88301,0.28509,-0.31977,0.57317,-0.09472
0.36007,0.88851,0.28441,-0.50268,0.50933,0.01433
0.33925,0.89336,0.29462,-0.30482,-0.07703,0.06775
0.32475,0.89643,0.30155,0.18282,0.42483,0.46704
0.32251,0.89263,0.31495,0.09734,1.45639,0.88123
0.30844,0.88467,0.34959,-0.17508,1.11281,-0.26428
0.2899,0.89222,0.34624,-0.30974,-0.61721,-0.46075
0.27708,0.89406,0.35196,-0.37033,-0.55223,-0.13113
0.27908,0.89356,0.35164,-0.25693,-0.14657,0.29056
0.28578,0.89585,0.34023,-0.01511,0.50066,-0.02901
0.2892,0.89748,0.333,0.03976,0.42427,0.09112
0.29231,0.89574,0.33496,0.11982,0.28131,0.24982
0.29307,0.89308,0.34133,-0.26081,-0.11697,0.30698
0.28834,0.89225,0.34747,-0.25609,-0.11614,0.30085
0.28216,0.89016,0.35774,-0.30459,-0.16641,-0.09377
0.27369,0.88125,0.38534,-0.19117,-0.05309,-0.14181
0.26199,0.86279,0.43237,-0.07051,0.16377,-0.25377
0.24983,0.83415,0.49169,0.01446,0.10059,-0.43438
0.24681,0.79707,0.55114,0.15378,-0.03196,-0.60337
0.25833,0.75728,0.59981,0.23768,-0.24955,-0.52531
0.26778,0.72481,0.63476,0.09883,-0.21081,-0.11059
0.26885,0.70604,0.65514,-0.10538,-0.21423,-0.04982
0.26238,0.69747,0.66684,0.15426,-0.06285,-0.06261
0.2475,0.70116,0.66866,0.35933,-0.02579,-0.04372
0.23057,0.7208,0.65365,0.13385,-0.17391,-0.25181
0.23231,0.74498,0.62531,-0.02354,-0.25307,-0.30539
0.25445,0.7622,0.59521,-0.24226,-0.45919,0.04214
0.27579,0.78053,0.56097,-0.31702,-0.53234,0.14867
0.29396,0.80346,0.51771,-0.37457,-0.55773,0.21521
0.32036,0.8257,0.46429,-0.24974,0.10917,-0.27853
0.35346,0.84123,0.40913,-0.1644,0.37667,-0.33425
0.38534,0.8488,0.36198,0.09027,0.70469,-0.24026
0.40683,0.85516,0.32121,0.16876,0.0017,0.11008
0.41463,0.86283,0.28912,0.12234,-0.20191,0.21131
0.41327,0.87048,0.26731,0.0431,-0.1975,0.48864
0.39755,0.88154,0.2546,-0.11666,-0.25673,-0.10006
0.38603,0.89287,0.23182,0.00523,-0.12824,-0.3773
0.38455,0.89599,0.22205,0.01664,0.50541,0.21925
0.37759,0.8959,0.23402,0.04035,1.58104,0.99757
0.35079,0.90063,0.25653,0.147,2.11126,0.38149
0.31532,0.90392,0.28894,-0.22446,-0.26874,-0.40007
0.29389,0.90172,0.31703,-0.11371,-1.07401,-0.29606
0.29179,0.89813,0.32894,-0.29244,-0.87425,-0.45933
0.30072,0.89678,0.32455,-0.14187,-0.07528,-0.03425
0.31554,0.89511,0.31496,-0.02962,0.66658,0.29116
0.31609,0.89795,0.30619,-0.23917,0.44812,0.07503
0.30679,0.90349,0.29928,-0.23135,0.01094,0.111
0.30063,0.90429,0.3031,-0.20853,-0.29142,0.33741
0.30083,0.90078,0.31319,-0.14489,-0.22216,0.44416
0.30377,0.89625,0.32317,-0.14782,-0.21763,0.43418
0.30321,0.88714,0.3479,-0.17345,0.03192,0.01112
0.297,0.86851,0.39683,-0.01869,0.13127,-0.11666
0.28533,0.84204,0.45774,-0.02322,0.18863,-0.33706
0.2745,0.80588,0.52458,-0.00878,0.29589,-0.52841
0.26873,0.7645,0.58592,0.2378,-0.00115,-0.44068
0.26222,0.7328,0.62787,0.28987,-0.14913,-0.23944
0.24678,0.71509,0.65401,0.03728,-0.06603,-0.12656
0.22972,0.70731,0.66852,0.022,-0.13288,-0.12868
