gravity.x,gravity.y,gravity.z,userAcceleration.x,userAcceleration.y,userAcceleration.z
0.31863,0.93836,-0.134,0.59717,0.08151,-0.07195
0.32552,0.9385,-0.11508,0.14092,2.18384,-0.6986
0.3251,0.93818,-0.11883,0.09145,-0.11831,0.17743
0.32406,0.93744,-0.12725,-0.00102,0.07602,0.18262
0.31764,0.9393,-0.12971,0.01512,-0.01979,0.19485
0.30943,0.94233,-0.12756,-0.10382,-0.08678,0.2075
0.30047,0.9455,-0.12553,-0.13381,-0.06688,0.20988
0.29196,0.9482,-0.12525,0.09304,-0.1732,-0.05438
0.28636,0.94969,-0.12681,0.11109,-0.24445,-0.10219
0.28306,0.95061,-0.12736,0.10476,-0.27838,-0.13309
0.27982,0.95149,-0.12795,0.05233,-0.27786,-0.03161
0.27676,0.95204,-0.13048,0.04867,-0.22587,-0.0592
0.27298,0.95223,-0.13687,0.03128,-0.2078,-0.07022
0.26813,0.95152,-0.15071,0.07783,-0.26901,-0.2246
0.26261,0.94961,-0.17113,0.13258,-0.25289,-0.14314
0.25792,0.94575,-0.19755,0.15661,-0.21138,-0.13504
0.25365,0.93832,-0.23499,0.0782,-0.19506,-0.12533
0.24737,0.92567,-0.28627,-0.00788,0.01647,-0.04341
0.23699,0.90779,-0.34605,-0.16853,0.07979,0.18549
0.22595,0.88542,-0.40616,-0.27876,0.32338,0.12502
0.21931,0.85963,-0.46145,-0.35018,0.5359,0.21032
0.22081,0.83432,-0.50513,-0.09183,0.58896,0.27472
0.23024,0.81261,-0.5354,0.13463,0.1901,0.24559
0.23873,0.79621,-0.55593,0.10957,0.09234,0.03658
0.24937,0.78596,-0.56576,0.133,0.15963,0.03058
0.26208,0.7827,-0.56453,0.05573,0.13377,0.10208
0.28043,0.78519,-0.55213,-0.08005,-0.07245,0.18573
0.30564,0.79148,-0.52929,-0.1581,-0.11554,0.16525
0.33169,0.80286,-0.49537,-0.11349,-0.28397,0.0457
0.35047,0.81984,-0.45282,-0.01665,-0.29315,-0.00173
0.35842,0.84114,-0.40499,-0.00378,-0.38348,-0.02736
0.35346,0.86461,-0.3571,-0.10396,-0.43588,-0.04364
0.33686,0.88812,-0.31268,-0.12345,-0.25679,0.05929
0.31432,0.90885,-0.27423,-0.00402,0.0002,0.06787
0.2912,0.92396,-0.24797,0.03798,0.08751,-0.09875
0.27312,0.93381,-0.2311,0.0572,-0.11336,-0.30219
0.26283,0.93989,-0.21803,0.02362,-0.28333,-0.16852
0.26684,0.94209,-0.20311,-0.10109,-0.32118,0.22667
0.27562,0.94492,-0.17653,-0.22923,0.09665,0.29816
0.27677,0.95097,-0.138,-0.05729,0.54185,0.02736
0.26581,0.95654,-0.1199,0.63233,0.50675,0.06713
0.25774,0.95961,-0.1128,0.46678,-0.06004,0.08613
0.26162,0.96018,-0.09806,0.0497,0.2016,-0.02354
0.25836,0.96231,-0.08486,0.18375,1.51268,-0.18706
0.24395,0.96707,-0.07253,0.12233,0.20145,0.13474
0.22848,0.97091,-0.0716,0.15552,-0.0324,0.19169
0.21319,0.97472,-0.06689,0.17751,-0.22661,0.27001
0.19513,0.97909,-0.05743,-0.1304,-0.41366,0.30159
0.17671,0.98334,-0.04269,-0.20031,-0.40312,0.22034
0.16189,0.9865,-0.02473,0.13468,-0.14075,-0.07498
0.14927,0.98878,-0.00581,0.13976,-0.18022,-0.11225
0.13636,0.99058,0.01232,0.15743,-0.18953,-0.14852
0.11961,0.99244,0.02744,0.16016,-0.20767,-0.14573
0.09947,0.99439,0.03598,0.27505,-0.23935,-0.11569
0.08,0.99614,0.03603,0.35794,-0.19931,-0.13924
0.06167,0.99764,0.03014,0.24767,-0.12435,-0.22054
0.04707,0.99862,0.02346,0.2147,-0.12931,-0.2489
0.03469,0.99926,0.01628,0.22818,-0.1443,-0.25156
0.02015,0.99978,0.00544,0.26374,0.01236,-0.29598
0.00189,0.99995,-0.00957,0.44124,0.14542,-0.05389
-0.02053,0.99904,-0.03858,0.5545,0.22825,0.0035
-0.03252,0.99588,-0.08463,0.21311,0.10466,-0.09262
-0.028,0.98969,-0.14049,-0.01189,0.33815,0.19041
-0.00863,0.97985,-0.19953,0.02177,0.52434,0.42163
0.02139,0.96624,-0.25677,-0.05406,1.18162,0.49209
0.06194,0.95007,-0.30582,0.08134,1.2762,-0.0876
0.10052,0.93494,-0.34027,0.44477,0.77884,-0.12451
0.13206,0.92329,-0.36068,0.59753,0.22751,0.14654
0.16638,0.91018,-0.37932,0.54883,0.05674,0.26043
0.20003,0.89497,-0.39876,0.31191,0.12529,0.37659
0.22854,0.88239,-0.41128,0.00077,0.23601,0.5004
0.24951,0.87485,-0.41519,-0.14206,0.14314,0.51567
0.2626,0.87293,-0.41114,-0.26741,-0.18703,0.48411
0.26843,0.87558,-0.40164,-0.39379,-0.36532,0.42111
0.26538,0.88246,-0.38837,-0.50245,-0.63287,0.3819
0.25414,0.8931,-0.37121,-0.65459,-0.57054,0.20092
0.24087,0.90593,-0.34823,-0.5385,-0.37545,0.00429
0.22419,0.91847,-0.32582,-0.34551,-0.1222,-0.11374
0.2017,0.92909,-0.31001,-0.05938,0.09743,-0.13045
0.17206,0.93529,-0.30925,0.267,0.29061,-0.28796
0.14046,0.93468,-0.32656,0.49693,0.33129,-0.51585
0.11519,0.92789,-0.35461,0.5321,-0.08179,-0.15557
0.1058,0.91906,-0.37965,0.39133,-0.16837,0.11653
0.11878,0.91066,-0.39571,0.23328,0.40344,0.59788
0.1497,0.91146,-0.38318,0.18085,0.79603,0.71809
0.17052,0.92212,-0.34729,-0.35022,0.34893,0.0845
0.16922,0.92961,-0.32741,-0.17287,0.04204,0.16875
0.15761,0.93683,-0.31227,0.20558,-0.12521,0.59158
0.14973,0.94526,-0.28994,0.29008,0.19981,0.77236
0.14231,0.95498,-0.26031,0.06849,0.30434,0.53817
0.13345,0.96575,-0.22254,-0.03779,0.29857,0.38398
0.12272,0.97463,-0.18715,-0.14952,0.27366,0.08759
0.11266,0.98073,-0.15963,-0.11366,0.03656,-0.00582
0.10645,0.98512,-0.13492,-0.05721,-0.03424,0.04836
0.10117,0.98856,-0.11185,0.18133,-0.1935,0.18697
0.09369,0.99136,-0.0918,0.25493,-0.28263,0.12904
0.08458,0.99373,-0.07316,0.25783,-0.33674,0.03053
0.07464,0.99577,-0.05349,0.16733,-0.39284,0.03573
0.06366,0.99741,-0.03351,0.10639,-0.39124,0.04249
0.05347,0.99847,-0.01381,0.05529,-0.228,0.11763
0.04199,0.9991,0.00679,0.17865,-0.12765,0.12846
0.02853,0.9992,0.02818,0.24892,-0.11803,0.06746
0.01544,0.99865,0.04965,0.25411,-0.09379,0.00892
0.00279,0.99758,0.06946,0.08666,0.09835,-0.13551
-0.01092,0.99646,0.08338,0.02117,0.21506,-0.20772
-0.02393,0.99573,0.08915,0.03208,0.29066,-0.24781
-0.03507,0.99546,0.08842,0.26883,0.23328,-0.2764
-0.04525,0.99559,0.08224,0.4164,0.06119,-0.14013
-0.05277,0.99632,0.0675,0.49516,0.0779,-0.05255
-0.05527,0.99764,0.04068,0.45351,0.36321,0.03632
-0.05521,0.99847,-0.00027,0.33766,0.30632,0.14142
-0.0508,0.99714,-0.05597,0.36179,0.29855,0.20864
-0.03975,0.992,-0.11983,0.20865,0.29243,0.11557
-0.01866,0.98259,-0.18485,0.08719,0.47044,0.08603
0.00821,0.9696,-0.24456,0.06555,0.58605,0.18116
0.03576,0.95476,-0.29521,0.28607,0.52673,0.18536
0.05851,0.94024,-0.33545,0.41628,0.13912,0.1716
0.07904,0.92784,-0.3645,0.59209,-0.00833,0.18995
0.10324,0.91631,-0.38694,0.47406,-0.02194,0.23142
0.1292,0.90443,-0.40658,0.2899,0.01,0.28737
0.15514,0.89294,-0.4226,0.13935,0.01305,0.44679
0.17682,0.88356,-0.43365,-0.02544,-0.10842,0.538
0.18887,0.87654,-0.44274,-0.0886,-0.18479,0.46559
0.19336,0.87166,-0.45036,-0.11862,-0.21185,0.45756
0.19207,0.86856,-0.45685,-0.07957,-0.20836,0.44574
0.18977,0.8678,-0.45924,-0.07533,-0.14245,0.42979
0.19191,0.86943,-0.45526,-0.12828,-0.04919,0.36472
0.19959,0.87319,-0.44465,-0.19823,-0.08303,0.32847
0.21018,0.87903,-0.42794,-0.21277,-0.12306,0.32795
0.22174,0.88603,-0.40716,-0.12978,-0.13397,0.24312
0.23025,0.89358,-0.38536,-0.02421,-0.04995,0.10749
0.23297,0.90172,-0.36419,0.04782,-0.01605,-0.0359
0.22901,0.91056,-0.34414,0.09368,-0.06266,-0.15927
0.21949,0.91933,-0.32658,0.16085,0.00566,-0.14849
0.20871,0.9263,-0.3137,0.39185,-0.04791,-0.23438
0.20174,0.93048,-0.30578,0.52427,-0.06514,-0.23303
0.20382,0.93151,-0.30125,0.62397,-0.05828,-0.16802
0.21518,0.92989,-0.29833,0.42674,-0.0348,-0.11888
0.23163,0.92758,-0.29317,0.36998,-0.04524,-0.16299
0.25208,0.92556,-0.28247,0.37213,0.83725,0.33606
0.27722,0.92382,-0.26403,0.04411,1.36039,0.49959
0.29216,0.92131,-0.25656,-0.85846,-0.04258,0.0569
0.29328,0.91892,-0.26376,-0.82928,-0.13279,0.24463
0.27509,0.92314,-0.26858,-0.58556,-0.19083,0.44424
0.25065,0.93129,-0.26432,0.09388,-0.15697,0.80588
0.23849,0.93832,-0.25035,0.30208,0.40206,0.60568
0.23528,0.94315,-0.23474,0.22624,0.43548,0.13123
0.23993,0.94714,-0.21298,0.12061,0.04067,-0.03165
0.24513,0.95084,-0.18924,-0.03449,0.00528,0.04105
0.24542,0.95446,-0.16963,-0.03537,0.01118,0.12663
0.23996,0.95854,-0.15371,0.03482,-0.01177,0.10755
0.23166,0.9631,-0.13698,0.0922,-0.11472,0.05572
0.22281,0.96772,-0.11779,0.12434,-0.13331,0.0358
0.21602,0.97139,-0.09864,0.12343,-0.12848,0.02562
0.21136,0.97389,-0.08284,0.01215,-0.08975,0.04032
0.20794,0.97543,-0.07282,0.03783,-0.09309,-0.00035
0.20592,0.97633,-0.06617,0.06907,-0.06846,-0.01005
0.20561,0.9766,-0.06307,0.07624,-0.14477,0.01948
0.20637,0.97633,-0.06471,0.0284,-0.24313,-0.00571
0.20666,0.97578,-0.07168,-0.00875,-0.25177,-0.05676
0.20425,0.97541,-0.08277,-0.12457,-0.24427,-0.06817
0.1979,0.97535,-0.09758,-0.09106,-0.15866,-0.06601
0.1886,0.97558,-0.11256,-0.01658,-0.06848,-0.03149
0.17861,0.97595,-0.125,0.16353,0.12398,-0.04723
0.17012,0.97532,-0.14077,0.17088,-0.15723,0.06965
0.16501,0.97322,-0.16005,0.1683,-0.23318,0.06956
0.16072,0.97043,-0.18008,0.06894,-0.34955,0.07693
0.15385,0.96771,-0.19967,0.04959,-0.40358,0.10325
0.14484,0.96564,-0.21577,0.04918,-0.42543,0.16258
0.13517,0.96381,-0.22979,-0.0215,-0.14507,0.09549
0.1253,0.96165,-0.24401,-0.08222,0.27329,0.04943
0.11639,0.95744,-0.26412,-0.10097,0.37136,0.05195
0.11303,0.94968,-0.29211,-0.13752,0.65647,-0.13668
0.11432,0.93755,-0.32854,-0.08911,0.60722,-0.18066
0.11814,0.92041,-0.37268,0.14761,0.37514,-0.15811
0.12393,0.90051,-0.41679,0.20287,0.45714,0.00651
0.13019,0.88133,-0.45421,0.21832,0.56472,-0.03666
0.14523,0.86458,-0.48104,0.19865,0.49455,-0.24984
0.16835,0.85328,-0.49353,0.24459,0.17544,-0.32094
0.19037,0.84773,-0.4951,0.22258,-0.06603,-0.09205
0.20822,0.84576,-0.49125,0.14545,-0.21596,0.13722
0.21973,0.84693,-0.48417,0.05239,-0.28109,0.21514
0.22756,0.85087,-0.47353,-0.0835,-0.30614,0.25546
0.2373,0.85659,-0.45819,-0.22264,-0.34402,0.28044
0.24955,0.86407,-0.43715,-0.37545,-0.4539,0.31134
0.26306,0.87346,-0.40971,-0.37756,-0.4251,0.33764
0.27488,0.88448,-0.37701,-0.3058,-0.42932,0.26063
0.28259,0.89705,-0.33977,-0.27232,-0.38558,0.11627
0.28274,0.91122,-0.29955,-0.23353,-0.30482,0.03383
0.27373,0.92553,-0.26165,-0.17868,-0.12312,-0.05935
0.25622,0.93868,-0.23072,-0.07603,0.08217,-0.11628
0.23502,0.9501,-0.2051,0.02288,0.27235,-0.13273
0.21718,0.95837,-0.18535,0.1129,0.27295,-0.19603
0.2028,0.96356,-0.17441,0.29793,0.12349,-0.49875
0.19362,0.96642,-0.16897,0.3123,-0.00461,-0.53147
0.19093,0.96751,-0.16575,0.21427,-0.24525,-0.3325
0.1918,0.96717,-0.16672,0.13834,-0.30968,-0.12293
0.19485,0.96655,-0.16675,0.07326,-0.21913,-0.13002
0.1995,0.9675,-0.1554,0.06861,-0.22007,-0.14137
0.20821,0.96915,-0.13193,0.08674,0.07678,-0.07333
0.21945,0.96998,-0.10478,0.06148,0.44378,0.07223
0.22839,0.97051,-0.07707,0.03194,0.6328,0.29143
0.23066,0.97057,-0.06918,0.13147,0.33287,-0.09957
0.22845,0.97078,-0.07351,0.10587,0.01011,0.28234
0.22839,0.97082,-0.07308,0.10273,0.15221,0.29482
0.22708,0.97163,-0.06612,-0.05387,0.16364,0.17508
0.2235,0.973,-0.05752,-0.03034,0.21434,0.07933
0.22097,0.9742,-0.04585,0.02275,0.37806,-0.00735
0.22109,0.97473,-0.03195,0.1971,0.16263,0.02264
0.22367,0.97437,-0.02379,0.08034,-0.03614,0.01613
0.2235,0.97448,-0.02083,0.06823,-0.20788,0.04787
0.22062,0.97519,-0.0184,0.07366,-0.2924,-0.02048
0.21639,0.97619,-0.01548,0.07594,-0.23918,-0.11407
0.21142,0.97731,-0.01274,0.13228,-0.13492,-0.16185
0.20678,0.9783,-0.01319,0.21734,-0.12143,-0.14162
0.20371,0.97885,-0.01853,0.14106,-0.2544,-0.15525
0.20094,0.97921,-0.02783,0.06405,-0.38348,-0.15755
0.19692,0.97955,-0.04127,0.03105,-0.45007,-0.1438
0.19197,0.97969,-0.05789,0.05419,-0.42392,-0.14988
0.18728,0.97942,-0.0752,0.07659,-0.3552,-0.20006
0.18237,0.9788,-0.09319,0.17589,-0.18227,-0.08408
0.17654,0.97757,-0.11485,0.20874,-0.27332,-0.09498
0.16756,0.97505,-0.1456,0.1774,-0.32181,-0.015
0.15518,0.97031,-0.18553,0.03609,0.14709,-0.05353
0.14599,0.96248,-0.22874,-0.20623,0.43262,-0.02998
0.14131,0.95029,-0.27744,-0.3982,0.82545,0.05211
0.14505,0.93207,-0.33196,-0.22421,0.89994,0.02129
0.15654,0.90949,-0.38513,-0.05383,0.51201,0.03531
0.16749,0.88834,-0.42756,-0.06478,0.53316,0.07773
0.18246,0.87027,-0.45753,0.24695,0.31964,-0.03829
0.20084,0.8553,-0.47762,0.42531,0.18811,-0.17895
0.22061,0.84395,-0.48895,0.32967,0.08757,-0.11569
0.23946,0.83799,-0.49034,-0.02564,-0.10708,0.11186
0.25675,0.83683,-0.48353,-0.12914,-0.25663,0.17453
0.27472,0.83954,-0.46873,-0.15749,-0.29677,0.18792
0.29195,0.8464,-0.44539,-0.21318,-0.51542,0.19371
0.30678,0.85685,-0.41437,-0.25422,-0.57187,0.225
0.31652,0.87125,-0.37516,-0.25646,-0.62814,0.21602
0.31932,0.88931,-0.32735,-0.24667,-0.60903,0.21343
0.31456,0.90859,-0.27479,-0.2318,-0.60029,0.17855
0.30061,0.92702,-0.22422,-0.26825,-0.39772,0.07774
0.28051,0.94273,-0.18047,-0.23035,-0.0701,-0.05466
0.25624,0.95486,-0.15026,-0.16791,0.20856,-0.33683
0.23492,0.96271,-0.13418,-0.09279,0.29335,-0.41001
0.22397,0.9657,-0.13138,0.35266,-0.05484,-0.35605
0.22877,0.96385,-0.13659,0.34811,-0.17883,-0.33599
0.24837,0.95893,-0.13697,0.18636,-0.1707,-0.29156
0.26356,0.95775,-0.11512,-0.06332,0.36227,0.53898
0.2683,0.95852,-0.09622,0.12277,0.88713,0.05199
0.26119,0.96043,-0.09669,0.35551,0.83998,-0.03912
0.2635,0.95951,-0.09954,0.03359,0.21436,-0.04577
0.26882,0.95864,-0.09352,-0.21133,0.56901,-0.04007
0.26381,0.96021,-0.09168,-0.29371,0.73005,-0.01017
0.25799,0.96214,-0.08796,0.27921,0.35747,0.01483
0.25677,0.96287,-0.0834,0.27372,0.28474,0.02534
0.25702,0.96297,-0.08143,-0.00757,0.00891,0.08969
0.25483,0.96342,-0.08296,-0.11604,-0.22461,0.06952
0.24859,0.96481,-0.0857,-0.03497,-0.35263,0.03915
0.24002,0.96714,-0.08391,0.04158,-0.35423,0.00656
0.23212,0.96956,-0.07796,0.24478,-0.10945,-0.15285
0.22777,0.97069,-0.07669,0.17386,-0.12169,-0.21428
0.22469,0.97089,-0.08304,0.12486,-0.22459,-0.18071
0.22068,0.97064,-0.09574,0.0377,-0.37675,-0.19433
0.2158,0.96984,-0.11332,0.04158,-0.39968,-0.05763
0.21224,0.96832,-0.13156,0.00734,-0.40906,-0.05277
0.20821,0.96622,-0.1519,0.00086,-0.30293,-0.21153
0.2027,0.96305,-0.17736,0.22426,-0.34248,-0.06766
0.19747,0.95781,-0.20882,0.24883,-0.32317,0.09794
0.19253,0.94989,-0.24624,-0.00233,0.30589,-0.01404
0.19133,0.93865,-0.28692,-0.1344,0.87356,-0.10731
0.19832,0.92305,-0.32963,-0.14138,0.88916,-0.0646
0.21204,0.90306,-0.37354,-0.05338,0.39093,0.11473
0.22282,0.8825,-0.41419,0.01029,0.35988,-0.01109
0.22968,0.86456,-0.44697,0.00343,0.37781,0.02169
0.23863,0.85091,-0.46797,0.10607,0.41086,-0.13035
0.24964,0.84122,-0.47962,0.15176,0.17622,-0.1557
0.26349,0.83564,-0.48195,0.13791,0.1818,-0.15337
0.27984,0.83272,-0.47778,0.0731,-0.0323,0.14488
0.29618,0.83192,-0.46924,-0.02678,-0.19337,0.19509
0.31071,0.8346,-0.45486,-0.04132,-0.19605,0.1807
0.32243,0.84122,-0.43404,-0.22296,-0.35868,0.15924
0.33024,0.85207,-0.40611,-0.25845,-0.40335,0.14305
0.33255,0.86707,-0.37095,-0.30554,-0.4725,0.15299
0.32923,0.8842,-0.33136,-0.24976,-0.46533,0.15808
0.3201,0.90159,-0.29097,-0.16179,-0.32986,0.11432
0.30607,0.91817,-0.25157,-0.15696,-0.26685,0.05873
0.28948,0.93291,-0.2142,-0.16235,0.01347,-0.05425
0.27333,0.94447,-0.18238,-0.13053,0.36314,-0.19392
0.25997,0.9523,-0.15984,-0.12061,0.27901,-0.24607
0.25091,0.95651,-0.14877,0.15014,-0.11816,-0.28635
0.24821,0.95723,-0.14868,0.3086,-0.30833,-0.18645
0.25318,0.95577,-0.1497,0.1752,-0.36571,-0.10494
0.26302,0.95376,-0.14549,-0.20057,-0.31182,0.0339
0.26552,0.95502,-0.13204,-0.35043,-0.08832,-0.0102
0.25943,0.95966,-0.1084,-0.25615,0.08146,-0.09504
0.24864,0.96511,-0.08213,0.09485,0.35224,0.06483
0.24058,0.96857,-0.06316,0.34026,0.42949,0.16463
0.24424,0.96864,-0.04573,0.42266,0.06789,-0.00348
0.25067,0.9676,-0.03036,0.02595,0.27072,0.02142
0.24973,0.9681,-0.02042,-0.08654,0.91394,-0.19459
0.2468,0.969,-0.01139,0.0308,1.05111,-0.1866
0.25087,0.968,-0.00672,0.42579,0.18911,0.14317
0.25913,0.96581,-0.00739,0.32237,0.18409,0.10532
0.26498,0.96419,-0.01096,-0.04751,-0.00502,-0.0322
0.26677,0.96366,-0.01398,-0.11269,-0.06423,0.14386
0.26367,0.96457,-0.00918,-0.1222,-0.04832,0.17802
0.25479,0.96699,0.00373,-0.09302,-0.02074,0.14954
0.24482,0.96941,0.0174,0.13868,-0.0588,-0.08428
0.23785,0.97078,0.03179,0.22643,-0.17331,-0.09508
0.23397,0.9712,0.04515,0.22529,-0.22168,-0.0937
0.23213,0.97125,0.05277,0.03856,-0.32205,-0.20311
0.23107,0.97142,0.05436,0.00518,-0.27334,-0.30084
0.22832,0.97231,0.04973,0.00793,-0.27424,-0.2962
0.22448,0.97363,0.04056,0.16837,-0.08009,-0.20811
0.22125,0.97484,0.02705,0.15942,-0.10951,-0.17138
0.21863,0.97578,0.00734,0.16204,-0.11045,-0.15168
0.21402,0.97669,-0.01666,0.10852,-0.36644,-0.024
0.2081,0.97719,-0.0424,0.16275,-0.36266,0.03246
0.20411,0.97648,-0.0695,0.10911,-0.31586,0.00664
0.20006,0.97428,-0.10369,0.11881,-0.12278,-0.12344
0.19618,0.97001,-0.1435,0.10418,-0.04417,0.03846
0.19481,0.96254,-0.18856,0.01033,0.09126,0.09934
0.19468,0.95083,-0.24086,-0.2734,0.7313,-0.1967
0.19913,0.93315,-0.29931,-0.28145,0.78603,0.08969
0.20645,0.91024,-0.35894,-0.14999,0.59142,0.10695
0.20984,0.88807,-0.40901,0.01046,0.53275,-0.0572
0.21855,0.86792,-0.44604,0.30135,0.8129,-0.11625
0.23645,0.84777,-0.47474,0.25021,0.6477,-0.16039
0.25864,0.83124,-0.49209,0.16101,0.06706,-0.2021
0.28047,0.82021,-0.49859,0.14836,-0.19753,0.04821
0.29728,0.81516,-0.49712,0.08092,-0.18026,0.122
0.30675,0.81477,-0.49199,-0.03784,-0.27905,0.23182
0.31133,0.81799,-0.48371,-0.34602,-0.38301,0.29775
0.31467,0.82504,-0.46935,-0.39204,-0.46443,0.27639
0.31785,0.83675,-0.4459,-0.32033,-0.52204,0.20193
0.31837,0.85364,-0.41225,-0.21851,-0.52296,0.19809
0.3167,0.87291,-0.37111,-0.17612,-0.49571,0.16287
0.31294,0.89299,-0.32348,-0.25978,-0.49101,0.12469
0.30099,0.91462,-0.26995,-0.23569,-0.27709,0.06289
0.27707,0.935,-0.22138,-0.10925,0.14125,-0.0572
0.24829,0.95098,-0.18435,-0.03941,0.41064,-0.23047
0.22599,0.96135,-0.15729,0.05916,0.38353,-0.44034
0.21361,0.9665,-0.14228,0.26045,0.01125,-0.58911
0.21037,0.96785,-0.1379,0.13924,-0.27215,-0.86793
0.21969,0.96478,-0.1447,-0.00996,-0.15058,-0.33236
0.23512,0.96094,-0.14598,-0.08332,-0.10833,0.22937
0.24988,0.95881,-0.13504,0.10051,0.38538,0.44834
0.26066,0.95826,-0.11742,-0.03668,0.76496,0.29649
0.26072,0.958,-0.11941,0.1771,0.63433,-0.04062
0.27297,0.95475,-0.11802,0.28913,-0.15762,0.45881
0.28699,0.9509,-0.11588,-0.12378,-0.16788,0.36559
0.29015,0.95096,-0.10721,-0.31706,0.24968,-0.01558
0.28382,0.9546,-0.09041,0.20312,0.52648,-0.0671
0.2789,0.95668,-0.0836,0.1329,0.1784,0.06947
0.27703,0.95745,-0.08087,0.21061,0.07833,0.09561
0.27579,0.95868,-0.06981,0.19428,-0.03107,0.05223
0.27354,0.96033,-0.05432,0.09623,-0.16727,-0.03879
0.26773,0.96281,-0.03628,0.10203,-0.16975,-0.05683
0.25914,0.96565,-0.01923,0.10165,-0.22532,-0.13362
0.25162,0.96782,-0.00334,0.07145,-0.2115,-0.11324
0.24524,0.96941,0.01038,0.07783,-0.21309,-0.12696
0.23974,0.97065,0.01923,0.03981,-0.19939,-0.20412
0.2353,0.97167,0.0221,0.03094,-0.25257,-0.26459
0.231,0.97282,0.01634,0.03523,-0.25372,-0.25884
0.2255,0.97424,0.00175,0.06599,-0.36815,-0.19433
0.22015,0.97533,-0.0163,0.22259,-0.28148,-0.2678
0.21543,0.97583,-0.03677,0.22732,-0.28198,-0.24733
0.20819,0.9763,-0.05921,0.08138,-0.33625,-0.05333
0.19965,0.97599,-0.08709,0.146,-0.2802,-0.03967
0.19257,0.97384,-0.12066,0.13462,-0.23311,-0.04734
0.18541,0.96895,-0.16361,-0.0747,-0.07818,-0.09736
0.17537,0.95969,-0.21964,-0.11983,0.28048,-0.12152
0.16614,0.94503,-0.28163,-0.07075,0.49462,-0.14067
0.15905,0.92366,-0.34866,0.00878,1.04827,-0.07369
0.15292,0.8995,-0.40928,-0.03529,1.11562,0.33807
0.14791,0.87481,-0.46133,-0.09351,0.41403,0.26354
0.14051,0.85483,-0.49952,-0.07804,0.23741,-0.04145
0.14164,0.83816,-0.52671,0.03798,0.52648,-0.04642
0.15338,0.82651,-0.54162,0.06215,0.42114,0.05288
0.17334,0.82131,-0.54351,0.02609,-0.11434,0.11697
0.19981,0.82338,-0.53115,0.01456,-0.41248,0.13925
0.23028,0.83038,-0.50739,-0.02234,-0.46261,0.13403
0.25923,0.8416,-0.47383,-0.00121,-0.62186,0.03623
0.28115,0.85822,-0.42942,-0.00463,-0.7144,0.02024
0.29293,0.87846,-0.37748,-0.10638,-0.79611,0.07034
0.29459,0.8992,-0.3235,-0.23258,-0.70535,0.05553
0.28308,0.92003,-0.27093,-0.22329,-0.40592,-0.00276
0.26067,0.93891,-0.2247,-0.08747,-0.03692,-0.07274
0.23577,0.95245,-0.19301,-0.05514,0.17936,-0.20257
0.21433,0.96038,-0.17811,-0.10769,0.00872,-0.19305
0.20568,0.96407,-0.16812,-0.10779,-0.2654,-0.15953
0.2093,0.96647,-0.14878,-0.19434,-0.14176,-0.13224
0.21635,0.96957,-0.1146,-0.00566,0.51484,-0.03721
0.22255,0.97196,-0.07589,0.23576,0.84303,0.19718
0.229,0.97125,-0.06507,0.65569,0.79789,0.15724
0.23848,0.96904,-0.06391,0.74898,0.08494,-0.04317
0.2535,0.96536,-0.0617,0.39198,-0.01949,0.05799
0.25944,0.96362,-0.06416,-0.09539,0.83806,-0.07019
0.25798,0.96429,-0.06,0.14166,0.52949,0.01453
0.25693,0.96485,-0.05523,0.18758,0.31965,0.04372
0.25526,0.96578,-0.04598,0.03621,0.10531,0.0678
0.24939,0.96777,-0.03507,-0.0576,-0.12878,0.0911
0.24042,0.97036,-0.02454,-0.04863,-0.13137,0.08057
0.23077,0.9729,-0.01489,0.10393,0.03774,-0.02858
0.22334,0.97469,-0.01021,0.24646,-0.17014,-0.14656
0.21805,0.97586,-0.01206,0.25175,-0.17131,-0.14471
0.21353,0.9767,-0.0217,0.04046,-0.49144,-0.14037
0.20865,0.97721,-0.03911,-0.00093,-0.40331,-0.23161
0.20362,0.97717,-0.06068,0.00409,-0.40327,-0.21004
0.19825,0.97666,-0.0827,-0.04926,-0.27188,-0.21921
0.19324,0.97558,-0.10445,0.06593,-0.30225,-0.09376
0.19008,0.97393,-0.12381,0.13495,-0.32197,0.01547
0.18877,0.97151,-0.14331,0.21396,-0.26506,-0.10147
0.18757,0.96715,-0.17157,0.23947,-0.00125,-0.16102
0.1848,0.95894,-0.21513,0.24224,0.00695,-0.11747
0.17886,0.94535,-0.27263,-0.19494,0.54118,-0.16587
0.16904,0.92517,-0.33984,-0.27203,0.85322,0.04655
0.15835,0.9004,-0.40523,-0.28434,0.87123,0.29926
0.1541,0.87409,-0.46067,-0.14985,0.41121,0.29045
0.15624,0.85061,-0.50204,0.01632,0.07282,-0.05407
0.16088,0.83221,-0.5306,0.10662,0.19123,-0.06145
0.1701,0.81743,-0.55034,0.14808,0.31271,0.00974
0.1874,0.80832,-0.55811,0.00957,0.04313,0.03927
0.21047,0.80884,-0.54907,0.01322,-0.06526,0.03714
0.23613,0.81703,-0.52603,0.01323,-0.53739,0.08131
0.25804,0.83124,-0.4924,0.02319,-0.70665,0.08045
0.27256,0.85091,-0.44906,-0.03591,-0.73995,0.07211
0.28172,0.87441,-0.39502,-0.15313,-0.56799,0.12146
0.28439,0.89949,-0.33171,-0.18641,-0.55599,0.08611
0.27525,0.92456,-0.26347,-0.21486,-0.41442,0.0703
0.25534,0.9462,-0.19879,-0.03086,0.25753,-0.12848
0.23138,0.96119,-0.15027,-0.02879,0.27691,-0.2301
0.21287,0.96923,-0.12358,-0.07276,0.2056,-0.33242
0.20097,0.97312,-0.11247,0.02839,-0.28667,-0.45707
0.19699,0.9736,-0.11529,0.20241,-0.29881,-0.22907
0.21037,0.9707,-0.11614,0.18152,0.10094,0.10873
0.23059,0.96841,-0.09495,-0.09626,0.54203,0.61728
0.24325,0.96643,-0.08271,-0.03443,0.97273,0.16518
0.24742,0.96429,-0.09445,1.13159,0.68742,0.03124
0.26294,0.95999,-0.09635,0.5859,0.13012,0.15461
0.27,0.95669,-0.10882,-0.10769,0.50707,0.0034
0.26231,0.95796,-0.11619,-0.0165,0.64486,0.16087
0.24627,0.96245,-0.11421,0.0334,0.51222,0.0829
0.22799,0.96816,-0.10339,-0.03427,0.23175,0.16357
0.2072,0.97471,-0.08377,-0.03152,0.1453,0.1638
0.18831,0.98025,-0.06035,0.04912,-0.12932,0.13625
0.17535,0.98394,-0.03327,0.15203,-0.18783,0.09011
0.16729,0.98589,-0.00579,0.20305,-0.2058,-0.03666
0.16,0.98694,0.01872,0.19876,-0.22984,-0.09852
0.14916,0.98806,0.03857,0.14129,-0.27787,-0.09756
0.13451,0.98948,0.05332,0.11105,-0.3026,-0.11222
0.11702,0.99105,0.06422,0.12813,-0.32172,-0.10629
0.09921,0.99242,0.07258,0.10291,-0.41679,-0.27114
0.08065,0.99358,0.07935,0.10539,-0.42595,-0.31844
0.0626,0.99432,0.08609,0.17513,-0.2915,-0.29729
0.04462,0.99452,0.09449,0.40517,-0.1209,-0.12308
0.02583,0.99448,0.10171,0.42396,-0.12085,-0.1303
0.01018,0.99434,0.10579,0.36925,-0.16359,-0.22406
-3e-05,0.99392,0.11009,0.53228,-0.10617,-0.26451
-0.00843,0.99361,0.11257,0.54237,-0.04823,-0.30649
-0.01556,0.99373,0.11074,0.39941,0.16982,-0.48888
-0.02366,0.99477,0.09933,0.38114,0.16148,-0.56941
-0.03505,0.99684,0.07123,0.39253,0.15941,-0.54131
-0.04524,0.99875,0.02133,0.65262,0.00742,-0.06029
-0.04516,0.99786,-0.04722,0.23736,0.3808,-0.34776
-0.03042,0.99296,-0.11448,0.08023,0.78202,-0.2927
-0.00295,0.98604,-0.1665,-0.16665,1.2084,0.60694
0.03246,0.97475,-0.22095,-0.32773,0.68732,0.06775
0.06573,0.96269,-0.26251,-0.15818,0.73917,-0.21829
0.09132,0.95382,-0.28615,0.55731,0.27103,-0.10418
0.11783,0.94585,-0.30247,0.53468,-0.03175,0.07763
0.14413,0.93566,-0.32212,0.41426,-0.0771,0.1343
0.16905,0.92615,-0.33715,0.00481,0.07309,0.43155
0.19634,0.91985,-0.33961,-0.11637,0.08304,0.44486
0.22556,0.91609,-0.33151,-0.23054,0.023,0.40826
0.25092,0.91512,-0.31558,-0.2916,-0.21813,0.18337
0.26805,0.91637,-0.29734,-0.28181,-0.38434,0.03711
0.27222,0.92125,-0.27784,-0.39855,-0.46166,0.02881
0.2638,0.92916,-0.25899,-0.47883,-0.59397,0.16724
0.24799,0.93802,-0.24211,-0.37751,-0.54337,0.03232
0.22883,0.94721,-0.22456,-0.27142,-0.44931,-0.0539
0.20672,0.95534,-0.21118,0.09481,0.00705,-0.59657
0.18082,0.95964,-0.21538,0.51856,0.47899,-0.94663
0.15487,0.95574,-0.25015,0.68561,0.20882,-0.43481
0.14117,0.94464,-0.2962,0.31069,-0.20906,0.00262
0.14055,0.93234,-0.33314,-0.0274,0.29521,0.50019
0.15776,0.92446,-0.3471,-0.16264,0.78064,0.45869
0.17084,0.92341,-0.3437,0.73451,0.2602,0.60089
0.18686,0.91927,-0.34644,0.26213,0.08379,0.92049
0.19493,0.92275,-0.33246,0.16368,0.28952,0.71727
0.17245,0.93522,-0.30924,-0.27194,0.22637,0.46438
0.14566,0.95095,-0.27292,-0.18075,0.2585,0.50123
0.13085,0.96426,-0.23038,-0.12462,0.44701,0.31391
0.12548,0.97351,-0.19112,-0.14742,0.40463,0.13707
0.12549,0.98032,-0.1524,-0.12777,0.10295,0.03297
0.12582,0.98572,-0.11189,-0.07553,0.00824,-0.08057
0.12336,0.98946,-0.07584,0.07348,-0.11995,-0.07463
0.11539,0.99212,-0.04881,0.14232,-0.25706,-0.06804
0.10122,0.99451,-0.0264,0.1635,-0.4003,-0.08601
0.08478,0.99639,-0.00482,0.18623,-0.47229,-0.0794
0.0699,0.99746,0.01379,0.19832,-0.32334,-0.01256
0.05579,0.99794,0.03154,0.19323,-0.28499,-0.00485
0.0399,0.99783,0.05237,0.18462,-0.2341,-0.00411
0.02204,0.9968,0.07685,0.24629,-0.17421,-0.09803
0.00321,0.99476,0.1022,0.26511,-0.17217,-0.12338
-0.01364,0.99245,0.12188,0.39767,0.07982,-0.18719
-0.02416,0.99092,0.13222,0.12911,0.36955,-0.21418
-0.0258,0.99053,0.13482,0.13075,0.36994,-0.21677
-0.02461,0.99145,0.12815,0.22134,0.38497,-0.30447
-0.02194,0.99355,0.1112,0.32592,0.40794,-0.01736
-0.01707,0.9965,0.08174,0.32105,0.40498,0.0121
-0.01173,0.99934,0.03447,0.46406,0.37212,0.32185
-0.00553,0.99966,-0.0254,0.07799,-0.00566,0.05357
0.00523,0.99611,-0.08789,-0.02782,-0.01287,0.01833
0.02452,0.98852,-0.14905,-0.05848,0.25827,0.06807
0.0542,0.97668,-0.20774,0.01825,0.47639,0.05465
0.08956,0.96274,-0.25515,0.29273,0.32667,0.16436
0.1149,0.95113,-0.28661,0.43687,-0.04567,0.34533
0.13389,0.94088,-0.31115,0.45681,-0.05224,0.24874
0.15491,0.92931,-0.33523,0.44717,-0.05892,0.18637
0.18026,0.91719,-0.35533,0.36108,-0.07898,0.39618
0.20884,0.90564,-0.36906,-0.02281,-0.06292,0.45408
0.22907,0.8962,-0.37992,-0.27465,-0.08611,0.43029
0.23816,0.88971,-0.38947,-0.29352,-0.08875,0.33855
0.24203,0.88594,-0.39563,-0.19081,-0.08219,0.3139
0.24912,0.88362,-0.39642,-0.18737,-0.0874,0.30325
0.25968,0.88269,-0.39169,-0.20819,-0.03804,0.33676
0.2704,0.88361,-0.38225,-0.22649,-0.04668,0.36571
0.28121,0.88656,-0.36734,-0.22431,-0.09193,0.337
0.28987,0.89218,-0.34638,-0.2558,-0.10361,0.22486
0.29309,0.90023,-0.32201,-0.20141,-0.0632,0.13454
0.28882,0.91008,-0.29722,-0.15074,-0.02649,0.09348
0.27836,0.92015,-0.27538,-0.0545,-0.00479,-0.26605
0.26438,0.93007,-0.25511,0.253,0.2085,-0.57912
0.24922,0.93792,-0.24123,0.26816,0.20065,-0.593
0.23972,0.93916,-0.24598,0.45584,0.10304,-0.29264
0.24469,0.93344,-0.26231,0.37568,-0.09662,-0.33976
0.25924,0.92629,-0.27348,0.3601,-0.33139,-0.35371
0.27434,0.92134,-0.27545,0.40345,-0.4974,0.18574
0.28088,0.92285,-0.26355,0.09069,-0.15194,0.36733
0.27883,0.93327,-0.2264,-0.01371,0.36311,0.32325
0.28531,0.94064,-0.1838,-0.12433,1.52852,0.10952
0.29648,0.93812,-0.17893,-0.48656,-0.24092,-0.24375
0.30062,0.93681,-0.17893,-0.44888,-0.23695,0.26625
0.28542,0.93996,-0.18709,-0.32967,-0.21123,0.42991
0.25234,0.94864,-0.19081,-0.14164,-0.27366,0.77104
0.22398,0.958,-0.17905,0.08599,-0.11827,0.8414
0.21276,0.96349,-0.16257,0.05803,0.55444,0.25221
0.21898,0.96623,-0.13585,0.15125,-0.01026,0.02699
0.22793,0.96804,-0.10463,0.04113,-0.08136,0.02426
0.22972,0.96999,-0.0797,-0.01538,-0.02145,0.2534
0.22486,0.97252,-0.06038,-0.0976,-0.04298,0.15979
0.21559,0.97563,-0.04069,-0.1105,-0.01456,0.07399
0.20496,0.97854,-0.02112,-0.06297,-0.06635,-0.01862
0.19583,0.98061,-0.00664,-0.00346,-0.06695,0.00665
0.1886,0.98204,0.00455,0.00664,-0.04932,0.02811
0.18073,0.98341,0.01567,0.03777,-0.02644,0.06797
0.17053,0.98495,0.02808,0.05614,-0.09226,0.06991
0.15993,0.98625,0.04167,0.05032,-0.08764,0.05258
0.1498,0.98704,0.0575,0.01051,-0.09933,0.05372
0.13774,0.9876,0.07532,-0.00273,-0.09152,0.0283
0.1252,0.98776,0.09305,0.03953,0.00066,-0.02579
0.11239,0.9877,0.10867,0.10456,0.06963,-0.09267
0.09609,0.98775,0.12291,0.1318,0.11308,-0.11023
0.08129,0.98778,0.13299,0.12308,-0.0215,-0.0402
0.07387,0.98798,0.13578,0.24574,0.02666,-0.06478
0.07042,0.98858,0.13323,0.38492,-0.02657,-0.0605
0.06414,0.98882,0.13462,0.33164,0.12443,-0.11634
0.05908,0.98891,0.13624,0.23151,0.25445,-0.18048
0.05391,0.98931,0.13545,0.24579,0.26177,-0.15627
0.04946,0.99069,0.12685,0.31587,0.18537,-0.10341
0.04912,0.99298,0.10763,0.37607,0.09858,0.00448
0.05691,0.99555,0.07504,0.16558,0.07288,0.11864
0.07726,0.99656,0.02984,-0.01666,0.10482,0.11481
0.1082,0.99388,-0.02223,-0.37288,0.3767,0.00737
0.14121,0.98659,-0.08184,-0.36341,0.48193,0.04479
0.17195,0.97472,-0.14261,-0.3389,0.64445,0.098
0.19905,0.95962,-0.19877,-0.20125,0.59678,0.0457
0.22191,0.94363,-0.24558,-0.04284,0.02471,0.16793
0.24416,0.92724,-0.28393,-0.06508,0.0411,0.20628
0.26941,0.90918,-0.3175,-0.01306,-0.05038,0.14657
0.29684,0.88834,-0.35033,-0.09112,0.00167,0.1567
0.32211,0.86533,-0.38399,-0.11639,0.02469,0.19036
0.34477,0.842,-0.41494,-0.14549,0.10263,0.26505
0.36202,0.82118,-0.44114,-0.37116,-0.12433,0.23378
0.37525,0.80383,-0.46156,-0.38439,-0.10698,0.25421
0.38452,0.79052,-0.47668,-0.42686,-0.14967,0.22799
0.38933,0.78119,-0.48802,-0.30277,-0.24277,0.23309
0.39102,0.77614,-0.49468,-0.26459,-0.26793,0.24484
0.39279,0.77617,-0.49323,-0.14259,-0.27144,0.22922
0.39689,0.78087,-0.48241,-0.12269,-0.34751,0.208
0.40083,0.78955,-0.46469,-0.12663,-0.35619,0.19028
0.40145,0.80106,-0.44401,-0.17236,-0.41627,0.1473
0.39741,0.81481,-0.42208,-0.16845,-0.40123,0.1664
0.38989,0.82993,-0.39901,-0.15274,-0.37128,0.17923
0.38026,0.84538,-0.37513,-0.10675,-0.26312,0.17094
0.36862,0.86036,-0.352,-0.04397,0.00773,0.02114
0.35623,0.87377,-0.33108,-0.00118,0.08517,-0.07485
0.3466,0.8848,-0.31144,0.13639,0.03917,-0.14696
0.34089,0.89355,-0.29218,0.13024,-0.19215,-0.10156
0.3384,0.89919,-0.27737,0.01656,-0.27206,-0.10798
0.33797,0.90231,-0.26761,-0.07779,-0.18377,-0.04673
0.33798,0.90585,-0.25535,-0.15273,-0.09561,-0.00732
0.33804,0.91058,-0.23785,-0.21232,0.02898,-0.01521
0.34051,0.91412,-0.22008,-0.08663,0.49773,0.13817
0.34699,0.91548,-0.20369,0.06389,0.54355,0.59511
0.35173,0.91745,-0.18591,-0.0143,0.64076,0.64791
0.34467,0.91979,-0.18756,-0.42379,0.45081,-0.09912
0.3321,0.92357,-0.19163,-0.00639,0.9576,0.09344
0.32508,0.92713,-0.1864,0.19299,1.18433,-0.18863
0.32782,0.92645,-0.18499,0.4565,-0.07725,0.39549
0.33247,0.92401,-0.18886,0.13888,0.0575,0.27061
0.32965,0.92535,-0.18726,0.06691,0.09648,0.15166
0.3222,0.92981,-0.17788,-0.16799,0.03136,0.33611
0.31297,0.9363,-0.15935,-0.20807,0.02781,0.20883
0.30063,0.94388,-0.13678,-0.13601,-0.00182,0.10634
0.29177,0.94934,-0.11674,0.22544,-0.17185,-0.03858
0.28834,0.95257,-0.09732,0.13405,-0.2862,-0.06874
0.28726,0.95427,-0.08278,0.0947,-0.28441,-0.02454
0.28578,0.95513,-0.07786,-0.00115,-0.23212,-0.1343
0.28412,0.95531,-0.08155,-0.05116,-0.25843,-0.20431
0.28096,0.95526,-0.09238,-0.03493,-0.35493,-0.19952
0.27657,0.95495,-0.10754,0.13271,-0.28888,-0.00013
0.2719,0.95407,-0.12576,0.01365,-0.2005,-0.14827
0.26553,0.95255,-0.14882,0.02002,-0.19897,-0.12521
0.25762,0.95008,-0.176,0.07234,-0.3883,0.17333
0.25312,0.94437,-0.20997,-0.03721,-0.23334,0.08252
0.24746,0.93448,-0.25594,-0.03154,-0.22345,0.12849
0.23828,0.91854,-0.31545,-0.06016,0.5157,-0.06075
0.23315,0.89727,-0.3749,-0.19717,0.69038,0.19267
0.23181,0.87033,-0.43451,-0.25192,0.81479,0.20544
0.23974,0.8386,-0.48915,-0.22362,0.47333,0.24039
0.25188,0.80806,-0.53253,-0.13241,0.38072,0.17462
0.26577,0.78356,-0.56161,-0.1463,0.40523,0.2037
0.2843,0.76523,-0.57758,0.23456,0.58182,-0.14924
0.30131,0.75343,-0.58443,0.28655,0.38828,-0.20287
0.31945,0.74852,-0.5811,0.31619,0.06725,-0.00884
0.33831,0.74922,-0.5694,-0.04233,-0.12808,0.20604
0.35823,0.75538,-0.5487,-0.21224,-0.26696,0.24429
0.37924,0.76692,-0.51769,-0.27143,-0.32823,0.23461
0.39861,0.78438,-0.47525,-0.26748,-0.343,0.20921
0.41125,0.80777,-0.42235,-0.36886,-0.51686,0.1756
0.41457,0.83518,-0.3614,-0.37422,-0.56049,0.11056
0.40758,0.86365,-0.29662,-0.44898,-0.37032,0.10577
0.39024,0.88994,-0.23604,-0.34661,-0.05368,0.07918
0.36588,0.9101,-0.19454,-0.25801,0.02246,0.02198
0.33993,0.92333,-0.1786,-0.25582,0.18377,-0.22825
0.32062,0.93121,-0.17333,0.00021,0.14066,-0.27942
0.31424,0.93368,-0.17174,0.17332,0.03921,-0.21696
0.31984,0.93181,-0.17155,-0.10289,-0.27208,0.04978
0.33354,0.92742,-0.16926,-0.21026,-0.13597,0.25025
0.33901,0.92748,-0.15762,-0.28073,-0.05872,0.47242
0.34008,0.9301,-0.13875,0.15334,0.39897,0.19814
0.33797,0.93259,-0.12666,0.71984,0.60409,0.26636
0.3497,0.92971,-0.11551,0.96347,0.36912,0.20217
0.36184,0.92556,-0.11139,-0.24798,0.51842,-0.67445
0.35798,0.92683,-0.11325,0.13382,1.89841,-0.25592
0.35442,0.92635,-0.12748,0.5016,0.52074,0.17537
0.35084,0.92623,-0.13789,-0.05488,0.09492,0.22842
0.33903,0.9301,-0.14134,-0.01295,0.11647,0.19218
0.32716,0.93524,-0.13526,-0.05949,0.0675,0.13703
0.31826,0.93944,-0.1271,-0.07172,-0.05221,0.11387
0.30924,0.94333,-0.1204,0.06594,-0.09907,-0.10311
0.30203,0.94663,-0.11251,0.18612,-0.1283,-0.12974
0.29731,0.94892,-0.10558,0.09693,-0.34831,-0.05605
0.29397,0.9503,-0.10255,0.03734,-0.37974,-0.06364
0.29101,0.95072,-0.10697,-0.01478,-0.39434,0.01862
0.28875,0.95006,-0.11833,-0.07668,-0.26151,-0.1856
0.28436,0.94879,-0.1376,-0.00802,-0.25217,-0.14563
0.27843,0.94698,-0.16033,0.0504,-0.30815,-0.03411
0.27287,0.94386,-0.18618,0.01456,-0.33074,-0.03746
0.26661,0.93871,-0.21851,0.08984,0.01727,-0.04497
0.26048,0.929,-0.26288,0.09596,0.02698,-0.00059
0.25721,0.91327,-0.31586,-0.20788,0.36959,0.06836
0.25662,0.8914,-0.37355,-0.31094,0.83993,-0.1616
0.26038,0.86373,-0.43148,-0.3147,0.86761,-0.10367
0.27007,0.8332,-0.48252,0.14907,0.17479,0.13302
0.27397,0.80732,-0.52265,0.19478,0.40093,-0.06338
0.27875,0.78858,-0.54812,0.25244,0.61308,-0.08298
0.27949,0.77584,-0.56565,0.14741,0.39534,-0.12169
0.28273,0.76888,-0.57349,-0.08549,0.0301,0.12624
0.29181,0.76851,-0.56942,-0.12915,-0.04909,0.21381
0.30509,0.77386,-0.55502,-0.14941,-0.10057,0.27076
0.31886,0.78372,-0.53302,-0.263,-0.39279,0.36047
0.33207,0.79785,-0.50315,-0.2762,-0.40692,0.33061
0.34332,0.81669,-0.46383,-0.38909,-0.46603,0.25972
0.34925,0.84,-0.41524,-0.26703,-0.55347,0.2124
0.34734,0.86631,-0.35896,-0.26799,-0.57219,0.15659
0.33703,0.89316,-0.29777,-0.30013,-0.25187,0.09548
0.31808,0.91744,-0.23901,-0.24183,0.09223,-0.01612
0.29584,0.93528,-0.19422,-0.18848,0.22059,-0.10108
0.27647,0.94599,-0.16929,-0.10455,0.37063,-0.58299
0.26429,0.94979,-0.16747,0.33541,-0.03533,-0.40663
0.27325,0.94629,-0.17285,0.44566,-0.01535,-0.21978
0.3049,0.9378,-0.166,-0.28947,0.17386,0.7548
0.32643,0.93518,-0.13737,-0.5217,0.4991,0.28013
0.32795,0.93642,-0.12475,-0.49453,0.70915,-0.04327
0.31255,0.93835,-0.14768,0.94427,0.12971,0.23814
0.32693,0.93428,-0.14228,0.50211,0.35863,-0.17053
0.33649,0.93352,-0.12375,-0.17982,0.65549,-0.39044
0.32967,0.93669,-0.11798,0.16914,0.64203,0.0293
0.32533,0.93917,-0.11009,0.21659,0.25231,0.05894
0.32001,0.94144,-0.10623,0.14963,0.1281,0.08479
0.31413,0.94362,-0.10439,-0.23073,-0.1104,0.19553
0.3066,0.94574,-0.10754,-0.26001,-0.20475,0.16546
0.29788,0.94865,-0.10648,-0.14715,-0.16173,0.05544
0.29017,0.95193,-0.09807,0.31995,0.00336,0.11342
0.28606,0.95445,-0.08479,0.24016,-0.05113,-0.01115
0.28602,0.9554,-0.07341,0.15271,-0.13164,-0.06781
0.28652,0.95529,-0.07295,-0.03125,-0.27374,-0.16745
0.28499,0.95472,-0.08541,-0.05346,-0.28957,-0.11391
0.28084,0.95335,-0.11065,0.02562,-0.29993,-0.18006
0.27617,0.94957,-0.14846,0.06475,-0.26357,-0.24654
0.27278,0.94177,-0.19661,0.02305,-0.27733,-0.15011
0.26725,0.92837,-0.25828,-0.04938,-0.17881,-0.1687
0.25672,0.90798,-0.33115,-0.13179,-0.05914,0.04151
0.24402,0.88271,-0.40159,-0.25715,0.04602,0.34878
0.23264,0.85526,-0.46303,-0.30771,0.08872,0.32487
0.22708,0.82909,-0.51092,-0.35392,0.51052,0.23512
0.22977,0.80557,-0.54613,0.08138,0.30604,0.17589
0.23229,0.7876,-0.57071,0.18209,0.1271,0.08016
0.23722,0.77553,-0.58505,0.18111,0.45639,0.02159
0.24405,0.77137,-0.58773,0.17375,0.2667,0.09713
0.25737,0.77317,-0.57963,0.0513,0.11302,0.15609
0.27899,0.78069,-0.55918,-0.26227,-0.24351,0.20076
0.30301,0.79519,-0.52522,-0.13657,-0.3825,0.19272
0.32187,0.8147,-0.48234,-0.12949,-0.4282,0.15189
0.33487,0.83676,-0.43323,-0.14028,-0.39978,0.04415
0.34071,0.86153,-0.3764,-0.21752,-0.43577,0.02028
0.33557,0.88828,-0.3136,-0.21238,-0.46252,-0.04253
0.32015,0.91216,-0.25587,0.02528,-0.00907,0.03419
0.30228,0.92853,-0.21554,0.04736,0.02786,-0.20626
0.28942,0.93679,-0.19661,0.08331,0.03583,-0.40746
0.29434,0.93512,-0.19726,0.39652,0.1902,0.08376
0.3174,0.92913,-0.18966,-0.16163,0.28992,0.38706
0.32535,0.93317,-0.15278,-0.59045,0.78132,-0.10974
0.30955,0.93685,-0.16273,-1.25749,0.97892,-0.02592
0.31085,0.93645,-0.16257,1.4896,1.73609,-0.30215
0.3376,0.92815,-0.15669,0.39861,0.15865,0.22832
0.34655,0.92129,-0.17643,-0.10472,0.02404,0.11138
0.33539,0.92244,-0.19136,-0.14054,0.0968,0.31787
0.3182,0.92891,-0.18941,-0.09327,0.22582,0.40314
0.30519,0.93779,-0.16553,-0.14186,0.21574,0.12497
0.29387,0.94653,-0.13309,0.12034,0.12647,0.06944
0.28695,0.95255,-0.10152,0.23869,-0.045,0.10923
0.28507,0.95571,-0.07311,0.14638,-0.10578,-0.00822
0.28449,0.95706,-0.05562,-0.06318,0.00076,-0.1938
0.28205,0.95782,-0.05497,-0.21232,-0.02465,-0.25061
0.27664,0.95793,-0.07635,-0.12283,-0.38565,-0.26061
0.26748,0.95693,-0.11286,-0.00493,-0.45052,-0.17378
0.25943,0.95392,-0.15075,0.08806,-0.44393,-0.05114
0.25792,0.94662,-0.19335,-0.00421,-0.14807,-0.27304
0.25497,0.9333,-0.25284,-0.04817,-0.14015,-0.27355
0.24547,0.91494,-0.32036,-0.0398,-0.20266,-0.01779
0.23233,0.89166,-0.38855,-0.02209,-0.32882,0.55586
0.2171,0.86678,-0.44894,-0.19656,-0.24572,0.4268
0.2049,0.84412,-0.49545,-0.27457,-0.17849,0.42088
0.20211,0.82456,-0.52844,-0.26339,0.81884,0.11555
0.21391,0.80646,-0.55123,0.30799,0.58262,0.05018
0.22839,0.79213,-0.56601,0.2251,0.14253,0.12671
0.25197,0.78545,-0.56532,0.06317,0.16687,0.16797
0.28125,0.78894,-0.54632,-0.03069,0.1102,0.13925
0.31583,0.80005,-0.51008,-0.1528,-0.03753,0.10845
0.35301,0.81659,-0.45668,-0.15066,-0.45145,0.06856
0.37908,0.83825,-0.39197,-0.16407,-0.58695,-0.00107
0.38353,0.86367,-0.32708,-0.16852,-0.61237,-0.06596
0.37127,0.88951,-0.26631,-0.14591,-0.33504,0.02752
0.35099,0.91134,-0.2151,-0.18173,0.30431,-0.04454
0.33019,0.92539,-0.18606,-0.16094,0.29026,-0.07358
0.31435,0.93195,-0.18068,-0.161,0.1542,-0.3451
0.31252,0.93042,-0.19145,0.51138,-0.13282,0.29211
0.33221,0.92684,-0.17494,0.49169,-0.12924,0.2756
0.34684,0.92912,-0.12815,-0.42409,1.15216,0.29517
0.33773,0.93314,-0.1232,0.28661,0.63361,-0.21811
0.33301,0.93394,-0.12985,0.29133,0.63282,-0.21145
0.34807,0.93047,-0.1143,0.29817,0.90731,0.00113
0.3555,0.9261,-0.12631,0.08606,0.29199,0.03969
0.35435,0.92583,-0.13145,0.04192,0.27426,0.0943
0.34762,0.92846,-0.13081,-0.13927,0.20484,0.254
0.33961,0.93262,-0.12196,-0.34478,0.08772,0.24663
0.3285,0.93838,-0.10735,-0.33517,-0.05891,0.10608
0.31534,0.94483,-0.08869,-0.07039,-0.0112,0.09677
0.30553,0.94983,-0.06692,0.16483,-0.06384,0.02021
0.29944,0.95288,-0.04851,0.05831,-0.23704,-0.13414
0.29457,0.95488,-0.03775,0.02875,-0.30182,-0.15939
0.28935,0.95657,-0.03525,0.05878,-0.45876,-0.07285
0.28426,0.95791,-0.03998,0.05158,-0.48009,-0.16713
0.27839,0.95921,-0.04907,0.13631,-0.34602,-0.2121
0.27221,0.96025,-0.06175,0.21884,-0.20073,-0.18739
0.26732,0.95992,-0.0842,0.19101,-0.18063,-0.15221
0.26129,0.95788,-0.11915,-0.05655,-0.37488,-0.0681
0.25249,0.95451,-0.15862,-0.07067,-0.43635,-0.11334
0.24294,0.94955,-0.19835,-0.00281,-0.37931,0.02296
0.23506,0.94114,-0.2429,-0.18804,0.2692,-0.05489
0.22793,0.92712,-0.29747,-0.18609,0.51418,-0.25499
0.22046,0.9064,-0.36032,-0.05478,0.78705,-0.14358
0.21854,0.88076,-0.42011,-0.02649,0.65462,0.34183
0.22177,0.85554,-0.46784,-0.02972,0.67985,0.38956
0.22453,0.83799,-0.49735,-0.00099,0.47314,0.25852
0.23314,0.82688,-0.51177,0.04716,0.42414,-0.1236
0.24999,0.82068,-0.51379,0.05297,0.46766,-0.07013
0.27378,0.82121,-0.50066,-0.04376,0.14229,0.06011
0.30186,0.82598,-0.47606,-0.15791,-0.08716,0.23375
0.32832,0.83273,-0.44582,-0.21692,-0.40915,0.31213
0.34895,0.84205,-0.41132,-0.2349,-0.54423,0.27816
0.35797,0.8565,-0.37185,-0.2151,-0.75235,0.18791
0.35373,0.87582,-0.32836,-0.15242,-0.67739,0.17638
0.33963,0.89614,-0.28563,-0.16047,-0.64716,0.10912
0.31792,0.91655,-0.24262,-0.3555,-0.21721,0.06807
0.29001,0.93491,-0.20452,-0.30121,0.15485,-0.08685
0.25967,0.94925,-0.17746,-0.23745,0.19258,-0.19588
0.23535,0.95837,-0.16166,-0.14546,-0.01292,-0.32992
0.2223,0.96214,-0.1577,0.2524,-0.2525,-0.14691
0.22969,0.95941,-0.16362,0.24501,-0.24977,-0.141
0.25191,0.95458,-0.15909,0.05861,0.27849,0.43567
0.26495,0.95604,-0.12564,-0.05875,0.58426,0.5699
0.25501,0.95742,-0.13531,0.09082,0.61882,0.57695
0.2605,0.95771,-0.12217,1.44682,0.9611,-0.16056
0.27074,0.95702,-0.10402,0.16106,0.89354,0.08107
0.26994,0.95784,-0.09837,0.16548,1.06218,-0.03479
0.26614,0.96014,-0.08548,0.26471,0.35061,0.16837
0.25862,0.96341,-0.07033,-0.00536,0.29632,0.082
0.24389,0.96829,-0.05407,-0.16084,0.25282,0.11201
0.22557,0.97351,-0.03739,-0.28863,-0.22059,0.11
0.20931,0.97762,-0.02094,-0.12847,-0.50365,0.00829
0.1976,0.98027,-0.00417,0.10399,-0.48102,-0.03373
0.18746,0.98223,0.00869,0.13432,-0.50987,-0.1385
0.17939,0.98366,0.01543,0.11331,-0.47314,-0.30577
0.1745,0.98457,0.01263,0.14487,-0.44736,-0.28564
0.17146,0.98519,-0.00052,0.1973,-0.34023,-0.31303
0.1684,0.98544,-0.0233,0.1741,-0.25912,-0.50983
0.16146,0.98539,-0.05421,0.02636,-0.27233,-0.3287
0.15014,0.9846,-0.08958,0.17827,-0.38549,0.01301
0.13862,0.98156,-0.13161,0.20667,-0.499,0.33559
0.13059,0.97442,-0.18289,-0.1061,-0.08981,0.11181
0.12468,0.962,-0.24293,-0.29721,0.38897,-0.15973
0.12789,0.94439,-0.30295,-0.37646,1.1981,0.13867
0.14486,0.92583,-0.34908,-0.27877,1.06229,0.30871
0.16655,0.90836,-0.3836,-0.18254,0.41406,-0.0843
0.17794,0.89393,-0.41136,0.18044,0.59603,-0.17
0.18458,0.88278,-0.43201,0.50169,0.57967,-0.05322
0.19178,0.87473,-0.44504,0.22094,0.13261,0.01514
0.19977,0.86969,-0.45137,-0.14806,-0.16078,0.13747
0.20868,0.86796,-0.45066,-0.18947,-0.24095,0.21211
0.21734,0.86992,-0.44271,-0.187,-0.45348,0.27258
0.22598,0.87667,-0.4247,-0.2301,-0.51153,0.21315
0.23313,0.88871,-0.39476,-0.27628,-0.54744,0.11893
0.2372,0.90515,-0.35275,-0.31914,-0.46353,-0.13694
0.2332,0.92331,-0.30514,-0.27016,-0.38252,-0.25906
0.21815,0.93981,-0.263,-0.20628,-0.26116,-0.32095
0.19364,0.95309,-0.23264,0.18227,0.13967,-0.4408
0.17048,0.96023,-0.2211,0.52057,0.3568,-0.52746
0.16501,0.95683,-0.23928,0.6122,0.33618,-0.48197
0.17672,0.94714,-0.26775,0.08379,-0.35733,-0.43095
0.18887,0.9365,-0.29545,-0.29191,0.19537,0.6558
0.19224,0.92493,-0.32794,-0.29529,0.20694,0.68829
0.21043,0.92866,-0.30546,0.08072,1.22762,1.19975
0.22718,0.93311,-0.27874,0.16801,0.78988,1.6583
0.23388,0.93254,-0.27507,0.36278,0.60011,0.03929
0.24093,0.93916,-0.24482,0.57269,0.63888,0.17722
0.22983,0.94487,-0.23323,-0.01905,0.38191,0.49089
0.21092,0.95333,-0.21603,-0.29399,0.36585,0.52217
0.19913,0.96227,-0.18541,-0.47229,0.33038,0.26268
0.18648,0.97085,-0.1506,-0.48783,0.37146,-0.0207
0.17775,0.97753,-0.11332,-0.28734,0.23407,0.02172
0.16847,0.9828,-0.0756,0.02608,-0.20028,0.10507
0.15882,0.98633,-0.04399,0.15983,-0.45662,0.12957
0.14624,0.98901,-0.02177,0.09819,-0.48249,0.06679
0.13459,0.99089,-0.004,0.04068,-0.53043,-0.00979
0.12312,0.99233,0.01111,0.18659,-0.39931,-0.39859
0.11128,0.99347,0.02489,0.22037,-0.30642,-0.44747
0.09931,0.9945,0.03333,0.24629,-0.17838,-0.43886
0.08542,0.9957,0.03592,0.45233,-0.00113,-0.09061
0.07368,0.99666,0.0352,0.46407,-0.00209,-0.08989
0.06671,0.99714,0.03551,0.41385,-0.04174,-0.17064
0.06474,0.99726,0.03564,0.32533,0.04185,-0.22711
0.06553,0.99749,0.02664,0.33192,0.16254,-0.20588
0.06671,0.99777,0.00257,0.26488,0.38233,0.00024
0.06791,0.99686,-0.04075,0.23731,0.20529,0.26135
0.0707,0.99164,-0.10795,0.21973,0.23198,0.35588
0.08471,0.97849,-0.18808,-0.05505,0.73133,0.11245
0.10994,0.95718,-0.2678,-0.29698,0.94086,0.08168
0.13408,0.93186,-0.33713,-0.18079,0.9559,0.42232
0.15938,0.90788,-0.38775,0.36726,0.14191,0.35789
0.1823,0.88695,-0.42435,0.39021,-0.06358,0.26188
0.20303,0.86707,-0.45494,0.49343,-0.15606,0.18016
0.22657,0.84813,-0.4789,0.46528,-0.0318,0.23638
0.25139,0.83144,-0.49548,0.19333,0.04768,0.26723
0.26807,0.81639,-0.51151,0.04365,0.06789,0.31266
0.27351,0.8066,-0.52402,-0.28509,-0.25646,0.64087
0.27176,0.80412,-0.52872,-0.2744,-0.32336,0.63252
0.26551,0.80747,-0.52679,-0.2983,-0.35164,0.56794
0.25889,0.81396,-0.52005,-0.3046,-0.3306,0.37758
0.25459,0.82189,-0.50959,-0.27398,-0.22436,0.34649
0.25292,0.83092,-0.49558,-0.26203,-0.13402,0.33016
0.25303,0.8425,-0.47558,-0.27067,-0.08131,0.28382
0.2517,0.85723,-0.44923,-0.23823,-0.03394,0.21359
0.24522,0.87462,-0.41821,-0.19948,-0.03791,0.18773
0.23215,0.89188,-0.38814,0.04156,-0.02309,0.12616
0.21521,0.90575,-0.3651,0.31192,0.24244,-0.22851
0.19932,0.91666,-0.34642,0.4003,0.35531,-0.35982
0.18956,0.92494,-0.32947,0.43017,0.25969,-0.22772
0.18752,0.92788,-0.32229,0.22184,0.02682,-0.05286
0.19212,0.92681,-0.32267,0.19795,-0.11634,-0.06272
0.1996,0.9246,-0.32444,0.22389,-0.24371,-0.03033
0.20328,0.92329,-0.32591,0.10774,0.10354,0.0608
0.19697,0.92637,-0.321,0.30849,0.94131,0.33936
0.19026,0.93606,-0.29593,0.10011,1.39256,0.41201
0.18731,0.94365,-0.27284,-0.1525,-0.27383,0.09419
0.18288,0.94779,-0.26122,-0.19645,-0.30323,0.21256
0.17652,0.95238,-0.2486,-0.06861,-0.26612,0.48027
0.16271,0.95892,-0.23238,-0.07023,-0.2158,0.51822
0.14066,0.96545,-0.21933,-0.03515,-0.11337,0.54559
0.11493,0.9715,-0.20728,-0.04444,0.12426,0.48292
0.09219,0.97791,-0.1876,-0.07655,0.14889,0.26503
0.07688,0.98403,-0.16052,0.04025,0.08887,0.16011
0.07261,0.98852,-0.13248,0.2307,0.05973,0.08822
0.07523,0.99101,-0.11063,0.32859,0.00774,0.05499
0.08133,0.9918,-0.09851,0.33672,-0.02554,0.01121
0.08583,0.99199,-0.09266,0.27901,-0.01927,-0.05686
0.08485,0.99231,-0.09006,0.14612,-0.10916,-0.02348
0.08043,0.99297,-0.08686,0.04657,-0.06668,0.14672
0.07296,0.99424,-0.07852,0.02962,-0.05195,0.21191
0.06261,0.99596,-0.06435,0.06885,-0.07633,0.18241
0.05137,0.99761,-0.04604,0.08008,-0.07798,0.1641
0.04072,0.99884,-0.02579,0.16533,-0.10653,0.13177
0.03111,0.9995,-0.00531,0.1119,-0.13988,0.1076
0.02142,0.99967,0.01376,0.12158,-0.14005,0.08854
0.01249,0.99944,0.03087,0.16167,-0.03034,0.06929
0.00203,0.99894,0.04599,0.18947,-0.0318,0.00701
-0.00982,0.99817,0.05961,0.2268,0.00278,-0.01948
-0.02268,0.9972,0.07119,0.26217,0.05221,-0.03006
-0.03593,0.99622,0.07899,0.10269,0.06461,-0.06421
-0.04645,0.9954,0.08376,0.16208,0.10665,-0.07842
-0.05174,0.99502,0.08517,0.2654,0.0965,-0.06393
-0.04519,0.99557,0.0824,0.30309,0.13179,-0.14381
-0.05515,0.99518,0.08107,0.31306,0.13219,-0.14249
-0.06461,0.99485,0.07804,0.51455,0.14098,-0.12751
-0.07292,0.99509,0.06689,0.48895,0.06627,-0.01191
-0.07794,0.99595,0.0448,0.47941,-0.02686,0.08965
-0.07665,0.99701,0.00905,0.24021,0.1938,0.24176
-0.06895,0.99699,-0.03532,0.0282,0.33028,0.08936
-0.05403,0.99516,-0.0821,-0.09907,0.4638,0.07846
-0.03231,0.99066,-0.13243,-0.12404,0.52806,0.08307
-0.00878,0.98233,-0.18692,-0.08378,0.43126,0.12461
0.01506,0.97122,-0.2377,-0.0451,0.33261,0.1036
0.03553,0.96056,-0.2758,0.33732,-0.22546,0.09332
0.05378,0.95212,-0.30096,0.41571,-0.32349,0.28141
0.07394,0.94458,-0.31984,0.36433,-0.28796,0.32498
0.09888,0.93656,-0.33627,0.29652,-0.06224,0.24434
0.12511,0.92685,-0.35395,0.23358,0.06045,0.19282
0.1509,0.91671,-0.36994,0.17246,0.09859,0.23663
0.1766,0.90879,-0.37804,-0.16133,0.09208,0.33432
0.19609,0.90427,-0.37926,-0.33252,0.0123,0.34108
0.20932,0.90079,-0.38046,-0.3008,0.00277,0.32335
0.21948,0.89788,-0.38163,-0.07368,0.09617,0.24082
0.23034,0.89554,-0.38071,-0.04139,0.09371,0.18163
0.24225,0.89316,-0.37892,-0.05831,0.06837,0.17179
0.25264,0.89105,-0.3771,-0.03769,-0.09055,0.18183
0.25876,0.8897,-0.37612,-0.01363,-0.17803,0.18003
0.25987,0.88981,-0.3751,-0.00637,-0.20016,0.1757
0.25656,0.89185,-0.37253,-0.00043,-0.14658,0.16188
0.24993,0.89552,-0.3682,0.00096,-0.20448,0.14281
0.24099,0.90066,-0.36157,-0.00518,-0.23547,0.12581
0.23218,0.90713,-0.35101,-0.04183,-0.225,-0.07048
0.22532,0.91484,-0.33509,0.03854,-0.03774,-0.19164
0.21998,0.92226,-0.31788,0.10565,0.06038,-0.23396
0.2164,0.92607,-0.30912,0.23342,0.29538,-0.17994
0.2186,0.92363,-0.31482,0.21068,0.21548,-0.22149
0.22684,0.91774,-0.32604,0.2149,0.06667,-0.27725
0.23673,0.91269,-0.33308,0.27378,-0.19724,-0.16397
0.23996,0.911,-0.3354,0.21603,-0.25457,-0.06197
0.23889,0.9119,-0.33372,0.17862,-0.27162,-0.03896
0.24038,0.91486,-0.32441,0.17502,-0.24209,0.00547
0.24884,0.91892,-0.30603,0.16935,0.14969,0.25395
0.26467,0.92372,-0.27694,0.05,0.31867,0.1858
0.27776,0.92871,-0.24566,-0.0908,0.69198,0.01374
0.27078,0.92999,-0.24858,-0.2935,-0.27842,0.21869
0.2688,0.92544,-0.26704,-0.39407,-0.56786,0.40105
0.26051,0.92884,-0.26342,-0.42325,-0.41661,0.486
0.23621,0.93818,-0.25303,0.07794,-0.2228,0.81086
0.21112,0.94827,-0.23706,0.10303,-0.2329,0.7949
0.19973,0.95521,-0.21837,0.1542,0.30448,0.16742
0.19921,0.96039,-0.19487,-0.08191,0.01421,0.14798
0.2045,0.9642,-0.16882,-0.15563,-0.02805,0.15605
0.21041,0.96674,-0.14542,-0.19087,-0.00255,0.1655
0.21238,0.96898,-0.12635,-0.02421,-0.01755,0.04197
0.20943,0.97159,-0.11025,0.11841,-0.09079,-0.06243
0.20333,0.97446,-0.09534,0.18058,-0.15712,-0.13261
0.19569,0.97725,-0.08172,0.17944,-0.14797,-0.14318
0.18737,0.97972,-0.07102,0.17285,-0.07771,-0.09031
0.18072,0.98146,-0.06384,0.23347,0.03584,0.01794
0.17605,0.9827,-0.05753,0.23197,-0.07268,0.01197
0.17373,0.9835,-0.05033,0.20702,-0.08845,-0.01522
0.19246,0.97988,-0.05277,0.0955,-0.07212,-0.0785
0.20277,0.97813,-0.04621,0.04854,-0.04973,-0.15954
0.21615,0.9754,-0.04338,0.03684,-0.01359,-0.26469
0.22675,0.97283,-0.04675,0.0784,-0.12212,-0.17109
0.22709,0.97248,-0.05202,-0.00145,-0.25457,0.04828
0.22086,0.97352,-0.05904,-0.03572,-0.31753,0.18715
0.21108,0.97521,-0.0664,-0.0513,-0.26325,0.235
0.20326,0.97644,-0.07244,-0.0823,-0.05192,0.00935
0.20033,0.97677,-0.07608,-0.15574,0.01165,-0.06962
0.19804,0.97681,-0.08133,-0.07279,-0.10165,0.05406
0.19409,0.97708,-0.08746,-0.04281,-0.23822,0.06405
0.188,0.97748,-0.09588,-0.03672,-0.23862,0.07248
0.18052,0.97775,-0.10679,-0.04258,-0.34494,0.03796
0.17196,0.97775,-0.1201,0.04696,-0.26295,-0.07831
0.16502,0.97699,-0.1351,0.1534,-0.13289,-0.13794
0.16143,0.9745,-0.15582,0.26822,-0.08607,0.04457
0.16272,0.96865,-0.18772,0.04634,0.07258,-0.14757
0.16687,0.95794,-0.23347,-0.0965,0.55079,-0.15527
0.16587,0.94244,-0.29034,-0.09789,0.90366,-0.17314
0.16359,0.92335,-0.34735,0.04997,0.83458,0.12571
0.16638,0.90034,-0.40212,0.15724,0.62862,0.17074
0.16627,0.8803,-0.44433,0.12374,0.51757,-0.00462
0.17671,0.86327,-0.4728,0.0186,0.51198,-0.23865
0.19635,0.84786,-0.49252,-0.00038,0.37829,-0.12317
0.21935,0.83403,-0.50624,-0.02116,0.12026,0.02202
0.24154,0.82292,-0.51425,-0.03944,-0.0889,0.12364
0.25816,0.817,-0.51562,-0.10185,-0.22861,0.2217
0.26866,0.81625,-0.51142,-0.13085,-0.32653,0.26231
0.27539,0.8199,-0.50192,-0.17602,-0.32936,0.30694
0.28274,0.82631,-0.4871,-0.20219,-0.3541,0.31684
0.29399,0.83448,-0.46605,-0.2092,-0.46546,0.31086
0.30754,0.84469,-0.43807,-0.26024,-0.56129,0.15121
0.32032,0.85825,-0.401,-0.2698,-0.56588,0.13371
0.32938,0.87465,-0.35566,-0.3535,-0.75046,0.20207
0.33114,0.89268,-0.30573,-0.34237,-0.63545,0.12569
0.32137,0.91216,-0.25433,-0.26338,-0.43543,0.09523
0.30032,0.93088,-0.20799,0.0698,0.38777,0.0144
0.27321,0.94512,-0.17916,0.17763,0.66788,-0.30241
0.2518,0.95287,-0.16919,0.1754,0.61433,-0.44458
0.24791,0.95486,-0.16363,0.32974,-0.3531,-0.36497
0.2646,0.95135,-0.15783,-0.01293,-0.46037,-0.1088
0.28912,0.94658,-0.14284,-0.18734,-0.37182,0.19228
0.29736,0.94823,-0.1115,-0.30236,0.6799,-0.03332
0.29666,0.95093,-0.08792,-0.03489,0.8188,-0.04856
0.29152,0.953,-0.08256,0.63846,0.77749,0.65624
0.2982,0.95099,-0.08182,0.15407,0.24675,-0.10677
0.30573,0.948,-0.08847,-0.39709,0.00516,-0.05791
0.30646,0.94704,-0.09593,-0.37261,0.1833,0.02472
0.3056,0.94738,-0.09522,0.40942,0.7244,0.02343
0.30989,0.94642,-0.09088,0.32809,0.33901,0.00997
0.31411,0.94477,-0.09352,0.02912,0.12518,-0.02606
0.31163,0.9445,-0.10395,-0.13034,-0.08463,0.09809
0.30294,0.94624,-0.11335,-0.11747,-0.22246,-0.04224
0.29197,0.95003,-0.11041,-0.06161,-0.24901,-0.02503
0.27898,0.95544,-0.09642,0.09437,-0.42076,-0.07544
0.26801,0.96027,-0.07781,0.36456,-0.16844,-0.27972
0.26444,0.96247,-0.06094,0.36813,-0.17065,-0.29658
0.26722,0.96225,-0.05158,0.27456,-0.42716,-0.14672
0.2756,0.95932,-0.06117,-0.20474,-0.09047,-0.39046
0.27471,0.95713,-0.09183,-0.17988,-0.15662,-0.30787
0.26295,0.95556,-0.13329,-0.12532,-0.29261,-0.04241
0.24935,0.95182,-0.17847,-0.36154,-0.22818,-0.11635
0.23307,0.94456,-0.23128,-0.31529,-0.03384,-0.10292
0.21658,0.9328,-0.28804,-0.08723,0.21374,-0.01719
0.20426,0.91404,-0.35045,0.02362,0.92169,0.11708
0.1979,0.88946,-0.41194,-0.0259,1.08282,0.28946
0.20497,0.8585,-0.47007,-0.19946,0.64483,0.22199
0.22022,0.82729,-0.51682,-0.12915,0.03535,0.25959
0.22671,0.79971,-0.55593,-0.10126,0.41822,0.0312
0.23157,0.77781,-0.58428,0.17186,0.22014,-0.05053
0.24306,0.7644,-0.59717,0.11957,-0.13507,-0.02231
0.26066,0.76286,-0.59169,0.05598,-0.32088,0.11682
0.28087,0.76957,-0.57348,0.05229,-0.38697,0.1708
0.29693,0.78239,-0.54744,-0.0041,-0.55606,0.17371
0.30914,0.80112,-0.51249,-0.13815,-0.55992,0.18653
0.32366,0.82495,-0.46336,-0.18612,-0.44966,0.09074
0.33505,0.85229,-0.40168,-0.25639,-0.38731,-0.05538
0.33647,0.87989,-0.33553,-0.23169,-0.16993,-0.02227
0.32129,0.90823,-0.26811,-0.20481,0.23763,-0.0182
0.29681,0.93238,-0.20632,-0.1623,0.27357,-0.09736
0.27571,0.94705,-0.16457,-0.13438,0.20401,-0.26585
0.26427,0.95313,-0.14733,0.27853,-0.10015,-0.19448
0.27118,0.95284,-0.1362,0.27995,-0.1773,-0.10357
0.29118,0.94928,-0.11863,0.15578,0.00204,0.00292
0.30087,0.94926,-0.09153,-0.46491,0.57105,0.16082
0.29767,0.95176,-0.07448,-0.40505,0.97912,-0.04083
0.28578,0.95415,-0.08907,0.22682,0.67375,0.01167
0.29975,0.94999,-0.0876,0.45742,0.28669,-0.06339
0.31784,0.94367,-0.09199,-0.05282,0.52243,-0.28144
0.32262,0.94075,-0.10439,0.12652,0.4698,-0.0205
0.3207,0.941,-0.10801,0.05294,0.36164,0.11924
0.31363,0.9434,-0.10781,-0.12317,0.19765,0.19337
0.30349,0.94755,-0.10024,-0.21576,0.03163,0.15259
0.29387,0.9518,-0.08783,-0.1851,-0.13358,0.10165
0.28618,0.95518,-0.0757,-0.0002,-0.17028,0.0184
0.28102,0.95747,-0.06542,0.09777,-0.18432,-0.07102
0.2777,0.95905,-0.0558,0.12292,-0.29021,-0.1978
0.27409,0.9604,-0.05005,0.12329,-0.30567,-0.13841
0.27077,0.96138,-0.04935,0.06564,-0.24426,-0.1105
0.26828,0.96183,-0.0538,0.05111,-0.25004,-0.09329
0.26411,0.96244,-0.06291,0.17907,-0.34438,-0.12565
0.2584,0.9631,-0.07526,0.18478,-0.34504,-0.1133
0.25294,0.96333,-0.08951,0.05783,-0.26021,-0.24228
0.24889,0.96219,-0.11061,0.00579,-0.23346,-0.13241
0.24479,0.95952,-0.13929,0.00989,-0.23079,-0.10373
0.24025,0.95447,-0.1768,0.10912,-0.14943,-0.04079
0.23808,0.94505,-0.22404,-0.15834,0.3223,-0.13982
0.2366,0.93027,-0.28037,-0.15685,0.33708,-0.08349
0.23901,0.90842,-0.34299,-0.09556,0.7648,-0.02009
0.2457,0.88102,-0.40426,-0.1503,0.63758,0.26401
0.25467,0.85304,-0.45548,-0.1288,0.40918,0.20439
0.25918,0.82915,-0.49531,-0.10528,0.22894,0.15269
0.26119,0.81195,-0.52202,-0.06783,0.17669,-0.06327
0.2667,0.80025,-0.5371,-0.07334,0.1884,-0.0482
0.27432,0.7941,-0.54236,-0.0256,0.18709,0.04764
0.28649,0.79507,-0.53458,-0.05947,-0.07377,0.12621
0.30381,0.80095,-0.51592,-0.13228,-0.38343,0.20432
0.32186,0.81099,-0.48856,-0.16007,-0.40468,0.1629
0.33773,0.82535,-0.45247,-0.15325,-0.51979,0.14887
0.3509,0.8435,-0.40666,-0.13949,-0.55223,0.12608
0.35592,0.86393,-0.35629,-0.22711,-0.59907,0.04343
0.3503,0.88626,-0.30305,-0.38532,-0.55386,-0.01116
0.33337,0.90998,-0.2466,-0.28557,-0.03865,0.02655
0.31004,0.92899,-0.20211,-0.12057,0.27232,-0.0671
0.28957,0.93928,-0.18414,-0.07896,0.28751,-0.31443
0.2825,0.94157,-0.18339,0.23279,-0.0973,-0.25203
0.29928,0.93886,-0.1702,0.26914,-0.17955,-0.06376
0.32639,0.9344,-0.14266,-0.00886,0.22809,0.20876
0.3404,0.93423,-0.10654,-0.38245,0.32276,0.04636
0.34202,0.93479,-0.0959,0.42043,0.57088,0.09699
0.34463,0.93337,-0.10028,1.133,0.72494,-0.02673
0.36171,0.9282,-0.08718,0.11678,0.20033,-0.03498
0.36177,0.92816,-0.08741,0.238,1.36317,-0.0265
0.35014,0.93272,-0.08617,0.13939,0.4973,-0.039
0.34014,0.93576,-0.09305,-0.09243,0.07362,0.13383
0.32582,0.94039,-0.09749,-0.00779,0.01493,0.17873
0.31122,0.94587,-0.09203,-0.07218,-0.14326,0.11107
0.29855,0.95119,-0.07816,-0.03796,-0.2733,0.14456
0.28595,0.95647,-0.05826,0.09649,-0.23937,0.07993
0.27578,0.96059,-0.03497,0.13915,-0.19925,-0.01845
0.26903,0.9631,-0.00855,0.10111,-0.24154,-0.07465
0.26408,0.96435,0.01687,-0.03007,-0.32245,-0.12469
0.26006,0.96499,0.03408,-0.02573,-0.31834,-0.10013
0.25812,0.96536,0.03803,-0.05444,-0.35504,-0.18488
0.25913,0.96545,0.02736,-0.02509,-0.27116,-0.45682
0.26109,0.96529,0.00668,0.1845,-0.04129,-0.43951
0.26338,0.9644,-0.02358,0.22596,-0.03551,-0.27096
0.26653,0.961,-0.07383,0.01715,-0.13548,-0.21124
0.26457,0.95408,-0.1405,0.00153,-0.29916,-0.01144
0.2566,0.94205,-0.21607,0.00328,-0.13596,0.13864
0.24263,0.92359,-0.29684,-0.08503,0.19278,0.00449
0.2289,0.90104,-0.36842,-0.2422,0.77372,0.19251
0.22346,0.87759,-0.42415,-0.30787,0.66121,0.39227
0.22709,0.85576,-0.46486,-0.35484,0.67311,0.39611
0.24027,0.83516,-0.49474,0.00025,0.0793,0.21865
0.25616,0.8185,-0.51424,-0.01563,0.09596,0.23814
0.27271,0.80973,-0.51958,0.10571,0.12191,0.09899
0.28649,0.81084,-0.51035,0.0655,-0.15081,0.10179
0.29992,0.81974,-0.48793,0.05207,-0.1597,0.07937
0.3123,0.83463,-0.45372,0.08838,-0.42517,0.03128
0.32098,0.85493,-0.40753,-0.00321,-0.77381,-0.06533
0.32488,0.87787,-0.35184,-0.06885,-0.86956,-0.11838
0.32233,0.90087,-0.29076,-0.28519,-0.75173,-0.00287
0.30713,0.92365,-0.22922,-0.26109,0.35241,0.10658
0.28774,0.94007,-0.18297,-0.159,0.64689,-0.00496
0.27382,0.94796,-0.16248,-0.23414,0.7485,-0.47911
0.27623,0.94827,-0.15645,0.16397,0.12419,-0.37695
0.29468,0.94595,-0.13543,0.26971,-0.36371,0.63081
0.30601,0.94766,-0.09113,-0.24427,0.06315,0.219
0.29451,0.9528,-0.0737,-0.5047,0.62487,0.07609
0.27311,0.95874,-0.07895,0.92754,0.57715,0.19415
0.27635,0.95895,-0.06362,0.39476,0.20147,-0.2477
0.27989,0.95796,-0.06303,-0.21022,0.81537,-0.45597
0.27985,0.95709,-0.0753,0.37445,0.51881,-0.02965
0.28671,0.95448,-0.08226,0.27219,0.01868,-0.01338
0.28948,0.95348,-0.08417,-0.08307,-0.10895,0.05232
0.28407,0.95498,-0.08556,-0.12622,-0.16854,0.13575
0.2738,0.95803,-0.08495,-0.04192,-0.16289,0.15939
0.26375,0.96056,-0.08805,0.03877,-0.25519,0.02197
0.25889,0.96108,-0.09648,0.05856,-0.28195,-0.10343
0.26029,0.95957,-0.10716,0.12506,-0.17821,-0.18991
0.26353,0.95645,-0.12552,0.04385,-0.27401,-0.08227
0.26414,0.95265,-0.15059,-0.11285,-0.34953,-0.21682
0.25992,0.94711,-0.18822,-0.09734,-0.28135,-0.20059
0.25246,0.93646,-0.24354,-0.02861,-0.24627,-0.02593
0.24232,0.91981,-0.30859,-0.07992,-0.24816,0.20204
0.22671,0.89771,-0.37777,-0.2306,0.1298,0.13766
0.2145,0.87189,-0.44023,-0.32447,0.51121,0.15787
0.21553,0.84637,-0.48704,-0.32754,0.85831,0.29156
0.22994,0.82369,-0.51833,-0.10253,0.61937,0.1238
0.24785,0.80557,-0.53817,0.12626,0.01995,0.18757
0.26668,0.79206,-0.54912,0.16479,-0.03858,0.21197
0.28262,0.78784,-0.54721,0.07001,-0.04269,0.10883
0.29699,0.79381,-0.53071,0.08424,-0.18433,0.00731
0.30951,0.80888,-0.49992,0.10755,-0.32243,-0.03664
0.31905,0.83045,-0.45668,0.02681,-0.37394,-0.03049
0.32596,0.85465,-0.40413,-0.08329,-0.44518,-0.04355
0.3308,0.8794,-0.34237,-0.14052,-0.55067,-0.08724
0.327,0.90486,-0.27259,-0.29425,-0.32145,0.13169
0.31223,0.92702,-0.20769,0.09582,0.22588,0.19521
0.2978,0.94021,-0.16528,0.14393,0.1997,-0.01629
0.28984,0.94722,-0.13701,0.1292,0.13626,-0.22357
0.29379,0.94941,-0.11092,0.07572,-0.20031,-0.13994
0.31022,0.94602,-0.09388,-0.09801,-0.04464,0.08214
0.31862,0.94471,-0.07747,-0.31536,0.06469,0.50748
0.31194,0.94783,-0.06561,0.02453,0.71649,0.53049
0.29987,0.95073,-0.07865,0.90094,0.41893,0.4848
0.30695,0.94887,-0.07366,1.51861,0.20985,0.30161
0.31527,0.94634,-0.07097,-0.02482,0.81329,-0.23792
0.31955,0.9431,-0.09197,-0.02439,0.67516,-0.02614
0.31692,0.94155,-0.1142,-0.1269,0.44735,0.03064
0.30906,0.94297,-0.12363,-0.1305,0.06263,0.20746
0.29695,0.94707,-0.12197,-0.10067,-0.01082,0.16808
0.28369,0.9521,-0.11417,-0.05488,-0.07916,0.06185
0.27182,0.957,-0.10126,0.39505,-0.07357,-0.09352
0.26328,0.96094,-0.08532,0.46365,-0.06561,-0.13122
0.26057,0.96277,-0.07201,0.2075,-0.25735,-0.16606
0.26163,0.96264,-0.06989,0.00305,-0.37143,-0.15072
0.26163,0.96152,-0.08383,-0.07762,-0.35244,-0.20961
0.25749,0.95998,-0.11014,0.03317,-0.33071,-0.05677
0.25123,0.95731,-0.14293,0.03847,-0.3157,-0.03218
0.24732,0.95097,-0.18569,-0.05218,-0.25224,-0.07305
0.24014,0.93909,-0.24584,-0.20569,-0.00696,-0.0496
0.22896,0.91957,-0.31932,-0.11705,0.10727,0.04033
0.21839,0.89264,-0.39434,-0.16436,0.21257,0.1748
0.2085,0.86419,-0.45794,-0.21802,0.50106,0.12971
0.20974,0.8384,-0.50308,-0.05959,0.61831,0.11885
0.21872,0.81657,-0.5342,0.17482,0.45325,0.06449
0.23237,0.79662,-0.55803,0.25048,0.08927,0.14752
0.24475,0.78174,-0.57357,-0.0607,0.1107,0.1659
0.25386,0.77648,-0.57674,-0.05034,0.18308,0.1384
0.26232,0.78139,-0.56623,-0.06795,-0.16483,0.02973
0.27429,0.79433,-0.54204,-0.0102,-0.32376,0.06571
0.28811,0.81261,-0.50661,0.05698,-0.43215,0.12981
0.29997,0.83405,-0.46301,0.0022,-0.5047,0.13455
0.30805,0.85841,-0.41015,-0.07043,-0.56304,0.06526
0.31017,0.88383,-0.35019,-0.21278,-0.55963,0.07838
0.29921,0.90973,-0.28787,-0.34171,0.12493,0.24651
0.28169,0.93042,-0.23447,-0.21533,0.31981,0.19331
0.26344,0.94483,-0.19465,-0.1639,0.17538,-0.02651
0.24848,0.9547,-0.16371,-0.107,-0.08205,-0.27897
0.23924,0.95998,-0.14561,0.13858,0.20475,-0.32223
0.24186,0.95798,-0.15422,0.26937,0.31549,-0.33065
0.25498,0.95046,-0.17779,-0.15341,0.19817,0.27038
0.26711,0.94969,-0.1635,-0.85308,0.77681,-0.35348
0.26572,0.94872,-0.17122,0.23785,0.11532,0.49741
0.2729,0.94538,-0.1783,1.47382,0.85461,-0.01038
0.29073,0.94321,-0.16071,0.59449,0.93054,-0.20222
0.29396,0.94252,-0.15888,0.23236,0.41356,0.09629
0.28401,0.9461,-0.15566,-0.07324,0.3087,0.22755
0.26811,0.95269,-0.14317,-0.06143,0.24464,0.2039
0.25043,0.96082,-0.11879,-0.12016,0.16732,0.14758
0.23015,0.96884,-0.09156,-0.13776,0.05887,0.13644
0.21382,0.97478,-0.0639,-0.1125,-0.20967,0.11704
0.20134,0.97889,-0.03504,-0.12917,-0.23488,0.06867
0.18795,0.98215,-0.00799,-0.12359,-0.26486,0.01708
0.17301,0.9848,0.0154,0.1096,-0.28454,-0.10267
0.15712,0.98695,0.03514,0.15779,-0.31607,-0.1155
0.14258,0.98846,0.05105,0.18202,-0.33371,-0.15091
0.12898,0.98947,0.0656,0.22194,-0.17153,-0.43813
0.11594,0.99002,0.08009,0.38647,0.13858,-0.51487
0.1013,0.99109,0.08641,0.6326,0.00231,-0.35146
0.08684,0.993,0.08001,0.69442,-0.31742,-0.07901
0.08012,0.99474,0.06381,0.63523,-0.41416,0.06372
0.08325,0.99581,0.03775,0.13584,-0.60595,-0.21582
0.09291,0.99564,0.00843,-0.00954,-0.26033,-0.42539
0.09802,0.995,-0.01888,-0.01639,-0.07505,-0.22671
0.09359,0.99439,-0.04917,0.09131,0.07676,-0.18606
0.08099,0.9927,-0.08933,0.10075,-0.30446,0.19358
0.06892,0.98801,-0.13814,-0.07305,-0.24678,0.22691
0.05701,0.9786,-0.19769,-0.18561,0.32715,-0.02356
0.05644,0.96406,-0.25963,-0.00406,0.7501,0.05878
0.07345,0.94593,-0.31593,0.05866,0.74605,0.18573
0.09967,0.92642,-0.36305,0.14561,0.37187,0.16746
0.12139,0.91017,-0.39604,0.06712,0.65819,-0.11697
0.14296,0.89877,-0.41446,0.05678,0.8643,-0.24644
0.16798,0.8914,-0.42094,0.34749,0.26798,-0.20053
0.19539,0.8864,-0.41966,0.33592,-0.03016,0.00874
0.21811,0.883,-0.41563,0.20163,-0.21846,0.22071
0.23564,0.88255,-0.40692,-0.00709,-0.37248,0.30331
0.24799,0.88635,-0.39102,-0.36066,-0.38093,0.28611
0.25598,0.89366,-0.36856,-0.52495,-0.2943,0.22017
0.25971,0.90341,-0.34117,-0.47428,-0.21426,0.12666
0.25752,0.91487,-0.31096,-0.35531,-0.1907,0.00969
0.24936,0.92716,-0.27963,-0.31019,-0.24851,-0.06783
0.23578,0.93908,-0.25008,-0.22661,-0.39097,-0.27861
0.21511,0.9502,-0.22549,-0.11361,-0.3453,-0.26185
0.18952,0.95914,-0.21009,-0.01278,-0.28639,-0.22037
0.16505,0.96392,-0.20885,0.40865,-0.02317,-0.23768
0.14798,0.96372,-0.22214,0.41821,0.08531,-0.43151
0.14408,0.95995,-0.24027,0.30153,-0.01084,-0.50484
0.15018,0.95528,-0.25471,0.20608,-0.40075,-0.41848
0.15812,0.95139,-0.26432,0.08749,-0.15703,-0.59143
0.1631,0.94306,-0.28987,0.19367,0.37386,-0.58145
0.18796,0.93307,-0.30668,0.10909,0.55595,1.22601
0.20221,0.9415,-0.26962,-0.59416,1.60001,0.70061
0.1768,0.94789,-0.26503,-0.97504,1.38692,0.38956
0.16247,0.95107,-0.26282,1.22583,0.54068,0.86554
0.15722,0.95606,-0.24745,0.42582,0.35031,0.23368
0.14955,0.96326,-0.22305,0.22118,0.31948,0.39688
0.13965,0.97067,-0.19569,0.04054,0.35016,0.34205
0.12921,0.97876,-0.15918,-0.2583,0.45948,0.16689
0.11805,0.98522,-0.12412,-0.14832,0.37117,0.03161
0.10644,0.98947,-0.0981,-0.01363,0.22785,-0.04785
0.09692,0.9925,-0.07442,0.0009,-0.2469,-0.1006
0.08587,0.99491,-0.05261,0.03362,-0.38353,-0.06668
0.07098,0.99682,-0.03631,0.10706,-0.48182,-0.11802
0.05553,0.99813,-0.02552,0.1526,-0.55041,-0.17306
0.04277,0.9989,-0.01934,0.25716,-0.44578,-0.17031
0.03222,0.99936,-0.01567,0.36978,-0.20599,-0.19723
0.02133,0.99972,-0.01044,0.40497,-0.11362,-0.23359
0.00918,0.99996,-0.00087,0.48168,0.00741,-0.36482
-0.00484,0.99991,0.01209,0.58913,-0.09849,-0.39569
-0.01849,0.9996,0.0213,0.62338,-0.1412,-0.33178
-0.02774,0.99946,0.0173,0.62794,-0.08037,-0.19888
-0.02992,0.99952,-0.00737,0.69912,0.43361,0.41096
-0.02131,0.99854,-0.0497,-0.04624,0.39984,0.21476
0.00224,0.99548,-0.09494,-0.45436,0.64278,0.23264
0.02788,0.98777,-0.15341,-0.62545,0.96925,0.18182
0.04095,0.97492,-0.21876,-0.13507,0.88575,0.26344
0.05047,0.9595,-0.27716,0.17361,0.66805,0.28732
0.06544,0.94393,-0.32359,0.53678,0.05734,0.36995
0.08447,0.92863,-0.36125,0.45096,-0.11652,0.32489
0.11164,0.91375,-0.39064,0.24451,0.00988,0.1664
0.14408,0.89919,-0.41315,0.16668,0.10798,0.09137
0.17582,0.88489,-0.43134,0.21219,0.1305,0.21976
0.20434,0.87227,-0.44428,0.13374,0.09803,0.42603
0.2236,0.86505,-0.44911,-0.04508,-0.14141,0.49197
0.23249,0.86336,-0.44784,-0.20206,-0.30814,0.53585
0.23305,0.86405,-0.4462,-0.26427,-0.32395,0.52193
0.23052,0.86577,-0.44419,-0.28556,-0.31471,0.50268
0.23143,0.86883,-0.4377,-0.39241,-0.11205,0.35431
0.23937,0.87441,-0.42204,-0.39199,-0.1015,0.30497
0.2492,0.88258,-0.39868,-0.38882,-0.10751,0.23355
0.25593,0.89264,-0.37108,-0.34876,-0.11001,0.18117
0.25559,0.90384,-0.34314,-0.20556,-0.13505,0.1363
0.24638,0.91489,-0.31981,-0.02064,-0.05072,-0.01024
0.22862,0.92522,-0.30281,0.09996,0.02153,-0.33091
0.20703,0.93462,-0.28917,0.40125,0.24046,-0.45995
0.19181,0.94031,-0.28112,0.70869,0.3495,-0.22395
0.19137,0.94066,-0.28024,0.41009,0.1169,-0.09934
0.20272,0.93809,-0.28086,0.26288,-0.24301,-0.27885
0.21685,0.93469,-0.28165,0.27723,-0.34773,-0.30305
0.22653,0.93366,-0.27743,0.22733,-0.28017,0.06469
0.22944,0.93856,-0.2578,0.20051,0.4661,0.20626
0.23146,0.95021,-0.20862,0.26248,2.34941,0.52588
0.23258,0.95666,-0.1752,-0.01444,-0.10686,-0.12149
0.23054,0.95838,-0.16841,-0.27303,-0.35677,-0.06804
0.22361,0.96101,-0.16266,-0.18221,-0.50439,0.48837
0.20723,0.96542,-0.15816,-0.24797,-0.42219,0.58673
0.17682,0.97217,-0.1537,-0.24539,0.02966,0.52314
0.14475,0.97903,-0.14331,-0.06893,0.47174,0.33921
0.1272,0.98446,-0.12106,0.10627,0.17924,0.17651
0.12768,0.98771,-0.0901,0.31746,-0.09527,0.11425
0.13894,0.98813,-0.06543,0.31431,-0.00857,0.05507
0.15113,0.98716,-0.05165,0.27334,0.01566,0.0029
0.15582,0.98679,-0.04431,0.20579,-0.02436,-0.04819
0.15083,0.98779,-0.03905,0.11828,-0.0089,0.06048
0.14084,0.9896,-0.02908,0.08577,-0.01611,0.17905
0.12987,0.99142,-0.01487,0.1049,-0.05291,0.1567
0.12068,0.99269,-0.00011,0.23453,-0.05206,0.05939
0.11328,0.99347,0.0138,0.2022,-0.041,-0.07839
0.10555,0.99401,0.02831,0.14853,-0.0783,-0.15691
0.09661,0.99439,0.0431,0.07809,-0.10999,-0.21754
0.08862,0.99462,0.05352,0.15101,-0.04116,-0.2057
0.0833,0.99493,0.05633,0.18033,-0.00945,-0.21948
0.08101,0.9955,0.04906,0.23461,0.0943,-0.06531
0.08275,0.9962,0.02708,0.19557,0.37622,0.0723
0.09296,0.99561,-0.01092,-0.09871,0.37239,-0.01557
0.11215,0.99207,-0.05663,-0.21953,0.35766,0.16655
0.12919,0.98467,-0.11717,-0.30142,0.24375,0.05856
0.13675,0.97244,-0.18884,-0.23218,0.32082,0.10762
0.13722,0.95565,-0.26059,-0.0255,0.41194,0.15668
0.13307,0.93641,-0.3247,0.09331,0.21996,0.32885
0.13344,0.91765,-0.37433,0.11025,0.06565,0.32979
0.1467,0.89996,-0.41055,0.15062,-0.00887,0.28221
0.16903,0.88445,-0.43495,0.12098,0.00702,0.12179
0.19484,0.8702,-0.45254,0.09517,0.02127,0.13939
0.2205,0.85705,-0.46567,-0.00012,-0.03875,0.11525
0.23488,0.84603,-0.47861,-0.07276,-0.22438,0.24862
0.24042,0.83823,-0.48946,-0.07829,-0.21658,0.25947
0.24617,0.83479,-0.49247,-0.14852,-0.30392,0.31188
0.25548,0.83567,-0.48619,-0.20235,-0.26457,0.33374
0.26774,0.84018,-0.4716,-0.21798,-0.25844,0.30738
0.28126,0.84724,-0.45064,-0.21698,-0.29374,0.23986
0.29376,0.85615,-0.4251,-0.17687,-0.30717,0.18027
0.30076,0.86766,-0.39586,-0.20611,-0.3382,0.12781
0.30019,0.88211,-0.363,-0.24045,-0.34819,0.15122
0.29068,0.89919,-0.32705,-0.19235,-0.2492,0.16851
0.27253,0.91717,-0.29074,-0.04593,-0.03587,0.09152
0.25262,0.93306,-0.25607,0.09165,0.12045,-0.03388
0.23665,0.94479,-0.22663,0.12201,0.16003,-0.29266
0.22719,0.9515,-0.20743,0.16012,0.06268,-0.45986
0.22695,0.95367,-0.19752,0.22407,-0.13934,-0.34538
0.23601,0.95264,-0.19179,0.09297,-0.34828,-0.11722
0.24666,0.95041,-0.18943,-0.06576,-0.51716,-0.11186
0.25445,0.94934,-0.18441,-0.02917,-0.63321,0.04574
0.25729,0.95001,-0.17685,-0.15347,-0.68289,0.36006
0.25567,0.95314,-0.16174,-0.27876,-0.64714,0.43202
0.25297,0.95726,-0.14017,-0.06137,0.20603,0.31917
0.25007,0.96063,-0.12104,0.55442,0.83312,0.58252
0.25238,0.9619,-0.10511,0.68526,1.19557,0.61279
0.25805,0.96091,-0.10026,-0.43213,1.60661,-0.69479
0.26095,0.95869,-0.11318,0.77648,0.73517,-0.05038
0.2797,0.9492,-0.14417,0.72901,-0.16395,0.55451
0.29005,0.94129,-0.17279,0.05714,-0.04887,0.08813
0.28364,0.93916,-0.19369,-0.00447,-0.03212,0.35241
0.27083,0.94194,-0.19848,-0.06746,-0.00667,0.29023
0.25999,0.94773,-0.18498,0.0131,0.11436,0.04856
0.25083,0.95372,-0.16583,0.40804,0.17021,0.03699
0.24767,0.9571,-0.15042,0.37025,-0.17716,-0.09497
0.25114,0.95731,-0.14314,0.08161,-0.2224,-0.24788
0.25214,0.95677,-0.14499,0.02167,-0.30372,-0.13278
0.2496,0.95668,-0.14986,-0.0081,-0.3561,-0.08785
0.24441,0.95684,-0.15721,-0.05772,-0.34937,-0.06743
0.2349,0.95693,-0.17063,-0.01385,-0.33383,-0.15635
0.22461,0.95567,-0.19037,0.05665,-0.19711,-0.13519
0.21362,0.95217,-0.21846,-0.01269,-0.15683,-0.05661
0.20062,0.94491,-0.25865,-0.29409,0.07301,0.11132
0.18442,0.9321,-0.31175,-0.40036,0.22121,0.13908
0.16566,0.9131,-0.37256,-0.39806,0.37233,0.08363
0.15563,0.88819,-0.43231,-0.12156,0.68038,0.13525
0.15926,0.86047,-0.48396,-0.04734,0.6806,0.28446
0.17605,0.83274,-0.52494,0.14494,0.44487,0.20365
0.20204,0.80802,-0.55343,0.24408,0.35352,-0.10155
0.22524,0.78796,-0.57305,0.28877,0.32746,-0.08792
0.2437,0.77433,-0.58397,0.21419,0.21374,-0.04434
0.26628,0.76817,-0.58224,0.01735,-0.10051,0.15279
0.29254,0.76969,-0.56746,0.00478,-0.19115,0.15887
0.31724,0.77805,-0.54222,-0.01229,-0.2751,0.13432
0.33546,0.79301,-0.50853,-0.07908,-0.31039,0.17805
0.34889,0.81354,-0.46522,-0.07399,-0.34422,0.16381
0.35566,0.83861,-0.41261,-0.07305,-0.37251,0.13487
0.35376,0.86626,-0.35275,-0.22124,-0.62829,0.14655
0.34083,0.89467,-0.28881,-0.26223,-0.6196,0.06487
0.319,0.92041,-0.22604,-0.28795,-0.31823,-0.02329
0.2935,0.9402,-0.17289,-0.22606,0.14791,-0.13665
0.27049,0.9527,-0.13857,-0.2623,0.3033,-0.21896
0.25128,0.9606,-0.11873,-0.29694,0.18632,-0.32774
0.23912,0.96412,-0.11532,0.02668,-0.20629,-0.255
0.24146,0.963,-0.11972,0.13598,0.04552,-0.32756
0.24707,0.96018,-0.13039,-0.31138,0.39045,0.32588
0.24521,0.96281,-0.11344,-0.30105,0.54574,0.85076
0.23528,0.9654,-0.1125,0.47957,0.18773,0.04061
0.22802,0.96643,-0.1184,1.66474,0.86428,-0.48284
0.24839,0.96413,-0.0936,0.36835,1.03947,-0.24571
0.26268,0.95896,-0.10675,0.24306,0.30819,0.21964
0.26366,0.95748,-0.1171,-0.09436,0.22858,0.17641
0.25573,0.95946,-0.11851,-0.01975,0.20445,0.38739
0.24692,0.96317,-0.10644,-0.1198,0.16482,0.31671
0.23867,0.96736,-0.08513,-0.26249,0.09195,-0.03863
0.22803,0.97139,-0.06629,0.15696,-0.00513,0.05548
0.22166,0.9738,-0.05072,0.24128,-0.21128,0.03305
0.21987,0.97482,-0.03727,0.19144,-0.27642,-0.05785
0.21966,0.97514,-0.02927,0.15161,-0.26092,-0.14053
0.21914,0.97518,-0.03162,0.09809,-0.30228,-0.23583
0.21872,0.97479,-0.04419,0.09485,-0.28977,-0.29152
0.21766,0.97396,-0.06342,0.11655,-0.24427,-0.24398
0.21666,0.97227,-0.08805,0.1157,-0.2521,-0.1859
0.21723,0.96838,-0.12265,0.1495,-0.29118,-0.30594
0.21748,0.96103,-0.17068,0.04717,-0.17103,-0.33099
0.21303,0.95146,-0.22213,-0.02614,-0.27369,-0.01595
0.20767,0.93703,-0.28079,0.02296,-0.39931,0.12082
0.1984,0.91622,-0.3481,-0.17481,-0.16404,0.34023
0.18138,0.89145,-0.41524,-0.18559,-0.08391,0.3611
0.16989,0.86465,-0.47278,-0.207,0.45104,0.08986
0.17314,0.83907,-0.51574,-0.08934,0.91606,0.1946
0.18618,0.81611,-0.54708,-0.19492,0.34914,0.18549
0.19955,0.79491,-0.57298,-0.09716,0.27377,0.21813
0.22273,0.78926,-0.57223,0.0746,0.15257,0.03367
0.24881,0.79571,-0.55221,0.00094,-0.02341,0.02493
0.27506,0.80879,-0.5198,-0.00353,-0.23648,0.08326
0.29739,0.82664,-0.47774,0.05239,-0.39889,0.111
0.31274,0.84855,-0.42679,0.03715,-0.51406,0.05637
0.32012,0.87389,-0.36585,-0.01091,-0.50864,-0.03962
0.31896,0.89986,-0.29752,-0.13108,-0.58629,-0.09688
0.30372,0.9252,-0.22751,-0.23211,-0.10977,-0.04596
0.2849,0.94347,-0.16941,-0.27782,0.17856,-0.16715
0.27135,0.95265,-0.13723,-0.33551,0.30535,-0.35824
0.26172,0.95572,-0.13453,-0.10884,0.01405,-0.67703
0.27122,0.95177,-0.14345,0.47387,-0.37263,0.16431
0.29805,0.94661,-0.12286,0.17064,-0.31938,0.74394
0.30677,0.94879,-0.07541,-0.56527,0.37544,0.2468
0.29623,0.95228,-0.07353,0.79783,1.52184,-0.30586
0.29598,0.95244,-0.07241,1.25326,0.82334,-0.16967
0.32044,0.94357,-0.08364,0.05404,-0.03395,0.16726
0.33022,0.9364,-0.11879,-0.22304,0.01854,-0.0722
0.32308,0.93545,-0.14335,-0.1058,0.32958,0.27836
0.31131,0.93798,-0.15259,-0.19366,0.31002,0.34445
0.3,0.94236,-0.14819,-0.26705,0.12246,0.1123
0.29045,0.94761,-0.13295,-0.0908,0.08292,0.11115
0.28263,0.95203,-0.11729,0.18825,0.00711,0.05689
0.27815,0.95499,-0.1031,0.36415,0.04326,-0.20191
0.27517,0.95701,-0.09171,0.24388,-0.12997,-0.12241
0.27053,0.95896,-0.08484,0.08038,-0.20188,-0.16342
0.26448,0.9608,-0.08314,0.05298,-0.18371,-0.1975
0.2601,0.96134,-0.09036,0.04219,-0.22582,-0.25153
0.25588,0.96049,-0.10946,0.10437,-0.22856,-0.34735
0.24939,0.95796,-0.14185,0.17851,-0.31721,-0.07314
0.24234,0.95219,-0.18603,0.03984,-0.43301,0.01225
0.23545,0.94083,-0.24373,-0.27323,-0.32364,-0.07447
0.22318,0.92287,-0.31385,-0.38764,-0.28234,0.12502
0.2067,0.89892,-0.38629,-0.23081,-0.39253,0.49034
0.18851,0.87269,-0.45042,-0.11403,-0.47729,0.53593
0.17542,0.84825,-0.4997,-0.07304,-0.47947,0.15493
0.17806,0.82868,-0.53064,-0.0402,0.71581,-0.13357
0.19829,0.81165,-0.54946,0.30934,1.10284,-0.09735
0.22144,0.80255,-0.55397,0.40045,0.99369,-0.05721
0.2551,0.79877,-0.54488,-0.0367,0.21417,0.01073
0.29366,0.80101,-0.52167,-0.08631,-9e-05,0.01725
0.32826,0.8111,-0.48411,-0.11775,-0.18845,0.02253
0.35322,0.82784,-0.43579,-0.11619,-0.55368,0.11931
0.36438,0.84779,-0.38533,-0.14476,-0.49435,0.07425
0.36249,0.86952,-0.33546,-0.11009,-0.47318,0.04403
0.34739,0.89459,-0.2811,-0.10765,-0.0072,-0.02053
0.32669,0.91686,-0.22942,-0.08339,0.10831,-0.07398
0.30606,0.93312,-0.18869,-0.12438,0.20669,-0.10025
0.2885,0.94389,-0.16072,-0.21697,0.07167,-0.23263
0.27874,0.94931,-0.14527,-0.13113,0.02337,-0.3292
0.28997,0.9474,-0.13541,0.45867,-0.06877,0.25205
0.31458,0.94316,-0.10717,0.12145,0.02022,0.42329
0.32412,0.94361,-0.06737,-0.15112,0.27065,0.17906
0.31751,0.94494,-0.07925,-0.08988,0.61819,0.02744
0.32345,0.94253,-0.08375,1.61254,1.39232,0.20247
0.34411,0.9349,-0.08682,0.32355,0.11188,-0.01405
0.35318,0.92973,-0.10417,0.06041,0.08618,-0.15886
0.34417,0.93175,-0.11565,-0.10133,0.33277,0.27938
0.32877,0.93695,-0.1184,-0.1385,0.29434,0.25298
0.31617,0.94268,-0.10668,-0.23767,0.15645,0.11754
0.30322,0.94927,-0.08328,-0.0227,0.06702,0.07309
0.28908,0.9555,-0.05867,0.10934,-0.02708,0.0851
0.27991,0.95945,-0.03323,0.17735,-0.08743,0.05826
0.27298,0.96197,-0.00995,0.05708,-0.1565,-0.09472
0.26343,0.96464,0.00849,0.06393,-0.17115,-0.15282
0.25301,0.96722,0.02176,0.10862,-0.13078,-0.19258
0.24603,0.96889,0.02695,0.10836,-0.14473,-0.17326
0.24081,0.97033,0.02142,0.12745,-0.19088,-0.17827
0.23591,0.97176,0.00589,0.20095,-0.19963,-0.17598
0.23296,0.9723,-0.01901,0.19793,-0.13023,-0.193
0.23329,0.97084,-0.0552,0.01149,-0.11882,-0.21796
0.23185,0.96737,-0.10215,-0.06022,-0.14977,-0.16457
0.22761,0.96022,-0.16175,-0.00311,-0.2712,0.09977
0.22417,0.94629,-0.23298,-0.06135,-0.25963,0.14847
0.21641,0.9254,-0.31112,-0.40849,-0.17536,0.13479
0.19927,0.89954,-0.38874,-0.32549,-0.36842,0.50921
0.18102,0.87258,-0.45368,-0.18458,-0.41989,0.60563
0.16807,0.8488,-0.50128,0.00893,-0.58862,0.10758
0.16764,0.82766,-0.53561,-0.05129,0.02845,-0.03562
0.18343,0.80807,-0.55979,-0.05516,0.3458,0.20113
0.19761,0.79512,-0.57336,0.26719,1.05231,0.39651
0.21378,0.79619,-0.56602,-0.03429,0.36373,0.00998
0.2354,0.81095,-0.53568,-0.07453,0.0348,-0.14307
0.25581,0.83618,-0.48514,0.05772,-0.67545,-0.20043
0.27198,0.86433,-0.42303,0.20628,-0.90012,-0.06355
0.28223,0.89008,-0.3579,0.21515,-0.9333,-0.05988
0.28262,0.91305,-0.29405,-0.09088,-0.84676,0.00321
0.26613,0.93653,-0.22822,-0.24718,-0.18393,0.07261
0.2438,0.95435,-0.17255,-0.31247,0.94264,-0.40602
0.22345,0.96246,-0.15408,-0.36261,2.27871,-0.42696
0.20567,0.95922,-0.19389,-0.21389,0.08685,0.27848
0.21503,0.96143,-0.17149,-0.03621,0.05021,0.30577
0.22863,0.96559,-0.12393,-0.38857,0.11897,0.26886
0.23276,0.96476,-0.1227,1.4743,1.34983,-0.35949
0.26009,0.95907,-0.11198,1.71626,-0.109,-0.75599
0.26459,0.9564,-0.12361,-0.02948,0.02165,0.19043
0.25134,0.95913,-0.12999,0.01541,0.22874,0.30606
0.23038,0.96606,-0.11682,-0.05707,0.2013,0.3123
0.21017,0.97307,-0.09464,-0.19535,0.18414,0.17014
0.18767,0.97974,-0.06991,-0.02159,-0.05443,0.05915
0.17158,0.98419,-0.04385,0.13516,-0.1734,0.00842
0.15931,0.98708,-0.01701,0.07023,-0.23654,0.06383
0.14723,0.98906,0.00844,0.02501,-0.1619,0.07819
0.13157,0.99087,0.02925,0.12436,-0.20811,-0.01816
0.11403,0.99242,0.04569,0.18757,-0.24258,-0.13188
0.09574,0.99372,0.05789,0.18209,-0.29587,-0.18086
0.07901,0.99455,0.06799,0.30631,-0.17543,-0.11839
0.06049,0.99516,0.07736,0.41424,-0.15668,-0.11644
0.03975,0.99562,0.08454,0.45317,-0.23099,-0.16218
0.0191,0.99604,0.08676,0.47534,-0.25878,-0.18199
0.00245,0.99627,0.08619,0.3191,-0.17056,-0.20382
-0.01001,0.99644,0.08372,0.2103,-0.0897,-0.24669
-0.02137,0.99685,0.07636,0.26147,-0.06699,-0.22414
-0.03622,0.99734,0.06319,0.25958,-0.02761,-0.23525
-0.05563,0.99754,0.04257,0.33888,0.07868,-0.00963
-0.07326,0.99729,0.00605,0.45491,0.43884,0.05753
-0.0776,0.99609,-0.04208,-0.08638,0.20477,-0.05671
-0.06406,0.99314,-0.09777,-0.29271,0.6166,0.12255
-0.03945,0.98682,-0.15692,-0.23902,0.78909,0.28225
-0.00944,0.97664,-0.21466,-0.0619,1.05281,0.23125
0.02441,0.96337,-0.26704,0.04181,0.81357,-0.04073
0.0562,0.9496,-0.30838,0.21746,0.73656,-0.12938
0.08088,0.93798,-0.33713,0.50897,0.48951,-0.03936
0.10501,0.92632,-0.36181,0.43054,0.18031,0.18708
0.13447,0.91209,-0.38731,0.34776,0.05018,0.24846
0.16988,0.89854,-0.40467,-0.14807,0.06146,0.41942
0.20903,0.88883,-0.40778,-0.32665,0.08984,0.45352
0.2417,0.88389,-0.4004,-0.21976,-0.05558,0.36214
0.26964,0.8824,-0.38557,-0.18189,-0.25041,0.19233
0.29029,0.88508,-0.36381,-0.29227,-0.52058,0.18121
0.29928,0.89173,-0.33947,-0.36967,-0.68513,0.25579
0.29699,0.90095,-0.31634,-0.36293,-0.64734,0.18004
0.28796,0.91194,-0.2923,-0.25306,-0.49599,0.02929
0.27239,0.92406,-0.26814,-0.09359,-0.16667,-0.07301
0.24807,0.93517,-0.25282,-0.00407,0.12762,-0.23245
0.2202,0.94148,-0.25518,0.17504,0.29245,-0.55817
0.19438,0.94246,-0.272,0.29091,0.15866,-0.4258
0.17809,0.93837,-0.2962,0.36593,-0.03369,-0.16887
0.17734,0.93012,-0.32158,0.10118,0.59662,0.0416
0.19971,0.92365,-0.32709,0.07881,0.6031,0.0471
0.22578,0.92385,-0.30906,0.18796,1.43179,1.00249
0.23982,0.92132,-0.30602,-0.37435,0.00466,0.46624
0.23133,0.92355,-0.30583,-0.36201,0.07454,0.53489
0.20275,0.93444,-0.29277,-0.12387,-0.07783,0.6687
0.17309,0.94658,-0.27208,0.17505,0.1722,0.56095
0.15186,0.95687,-0.24765,0.27376,0.38581,0.43562
0.1424,0.96631,-0.21437,0.01075,0.3609,0.28732
0.14133,0.97287,-0.18315,-0.12324,0.08785,0.07098
0.14102,0.97807,-0.15327,-0.1584,0.02205,0.0944
0.13946,0.98227,-0.12528,-0.02803,0.04007,0.09108
0.13527,0.98571,-0.1004,0.10269,-0.07605,0.0299
0.12773,0.98862,-0.07947,0.17503,-0.23595,-0.01602
0.11661,0.99122,-0.06235,0.17144,-0.34182,-0.08334
0.10477,0.99332,-0.04838,0.13751,-0.29982,-0.1047
0.09379,0.99492,-0.03636,0.07373,-0.21291,-0.09208
0.08378,0.99617,-0.02475,0.07154,-0.04393,-0.02069
0.07228,0.99729,-0.01337,0.11946,-0.0001,0.03709
0.05919,0.99824,-0.00028,0.21604,-0.04889,0.05835
0.04598,0.99879,0.0171,0.27486,-0.08264,0.08469
0.03267,0.99873,0.0383,0.26989,-0.11225,0.04363
0.01912,0.99797,0.06069,0.28492,-0.09256,0.01844
0.00559,0.99674,0.0804,0.28273,0.12356,-0.01243
-0.00581,0.9956,0.0935,0.09199,0.22309,-0.15809
-0.01231,0.99483,0.10079,0.16284,0.2576,-0.21599
-0.01781,0.99473,0.10095,0.39068,0.20354,-0.07885
-0.02272,0.99533,0.09378,0.39369,0.23337,-0.05949
-0.02739,0.99612,0.08356,0.33433,0.21163,-0.06876
-0.03229,0.99724,0.06677,0.39034,0.15235,0.08584
-0.03471,0.99859,0.03999,0.36279,0.17159,0.11243
-0.02863,0.99956,0.00664,0.30355,0.17959,0.10949
-0.01685,0.99929,-0.03354,0.01931,0.02506,0.19879
-0.00334,0.99693,-0.07821,-0.17207,0.0638,0.03851
0.00995,0.99238,-0.1228,-0.20611,0.2459,-0.06378
0.0266,0.98513,-0.16975,-0.06834,0.38072,-0.04429
0.04662,0.97536,-0.21563,0.09527,0.30603,0.00749
0.06418,0.96483,-0.2549,0.23744,0.06306,0.11222
0.08012,0.95494,-0.28576,0.23856,-0.0897,0.22066
0.09813,0.9462,-0.30833,0.20709,-0.14383,0.28459
0.12005,0.9377,-0.32604,0.19201,-0.10033,0.27549
0.14442,0.92858,-0.34186,0.15377,-0.04664,0.25794
0.16979,0.91938,-0.35484,0.05504,-0.0138,0.26623
0.19449,0.91087,-0.36399,-0.03044,0.01635,0.29391
0.2166,0.90319,-0.37058,-0.13254,0.03182,0.29933
0.2342,0.89674,-0.37551,-0.28937,-0.00126,0.19832
0.24906,0.89115,-0.37923,-0.26156,0.00398,0.1706
0.26225,0.88624,-0.38183,-0.21313,0.00656,0.14326
0.27404,0.88228,-0.38273,-0.04699,-0.05069,0.11362
0.28401,0.87936,-0.38219,-0.05696,-0.04777,0.11307
0.29176,0.87776,-0.38002,-0.04075,-0.1488,0.18624
0.29597,0.87871,-0.37452,-0.07184,-0.17252,0.17298
0.29608,0.88299,-0.36422,-0.0867,-0.18427,0.12576
0.2921,0.89029,-0.34936,-0.04744,-0.1949,-0.02269
0.28446,0.90028,-0.3295,0.0785,-0.11696,-0.10409
0.27484,0.91093,-0.30768,0.08812,-0.1276,-0.12591
0.26559,0.91997,-0.2883,0.15896,0.1078,-0.26149
0.2602,0.92529,-0.2759,0.2175,0.25474,-0.30378
0.26158,0.92553,-0.2738,0.20574,0.18371,-0.24003
0.27057,0.92181,-0.27759,0.1509,-0.05383,-0.13432
0.28346,0.91656,-0.28206,0.08157,-0.09582,-0.16644
0.292,0.9127,-0.28586,0.02387,-0.05022,-0.00762
0.29462,0.91288,-0.28257,-0.04434,0.04276,0.24292
0.29875,0.91629,-0.26674,0.21395,1.37483,0.18112
0.30278,0.91898,-0.2526,0.01021,0.06619,0.12033
0.3092,0.9163,-0.25451,-0.38541,-0.15855,0.36741
0.3113,0.91789,-0.24612,-0.52769,-0.10276,0.40583
0.29205,0.92682,-0.23601,-0.41082,-0.16633,0.4457
0.25989,0.93916,-0.22455,-0.09052,-0.00752,0.5441
0.23087,0.95006,-0.20998,0.04957,0.22461,0.43068
0.20984,0.95815,-0.19469,0.0225,0.20579,0.26784
0.19881,0.96444,-0.17413,0.0747,-0.08917,0.14341
0.19714,0.96898,-0.14901,0.0145,-0.07512,0.24673
0.19931,0.97199,-0.12455,-0.00452,-0.05068,0.2315
0.20145,0.97397,-0.1039,0.10525,-0.04576,0.03225
0.20245,0.97531,-0.08826,0.18629,-0.07243,-0.08477
0.2033,0.9761,-0.07671,0.19998,-0.07669,-0.1575
0.20458,0.97645,-0.06846,0.18266,-0.01301,-0.16393
0.2057,0.97652,-0.0639,0.10415,-0.11715,-0.10172
0.20678,0.97642,-0.06198,0.1176,-0.12187,-0.06537
0.2077,0.97624,-0.06177,0.17634,-0.04664,-0.04843
0.21697,0.97372,-0.06914,0.23788,-0.07503,0.0051
0.22793,0.97098,-0.07241,0.20774,-0.10947,0.10528
0.24265,0.96774,-0.06779,-0.0651,-0.0832,-0.13498
0.25041,0.966,-0.06426,-0.11778,-0.05752,-0.23117
0.25174,0.96498,-0.07375,-0.11511,-0.08055,-0.05885
0.25085,0.96408,-0.08729,-0.06929,-0.08374,0.11871
0.24871,0.96346,-0.09943,-0.04865,0.00097,0.11092
0.24619,0.96291,-0.11042,0.00158,0.00618,0.12815
0.24501,0.96157,-0.1239,0.05719,-0.0038,0.12098
0.2463,0.9587,-0.14222,-0.01771,-0.0266,-0.0282
0.24628,0.95409,-0.17047,-0.01769,-0.02199,4e-05
0.24278,0.94711,-0.20985,0.03105,-0.00136,-0.08849
0.23792,0.93478,-0.2638,0.03342,-0.08138,-0.03178
0.23175,0.91527,-0.32949,-0.20512,-0.10436,0.10134
0.21882,0.89004,-0.39993,-0.27204,-0.35558,0.32753
0.20021,0.86212,-0.46548,-0.21101,-0.27182,0.40991
0.19017,0.83296,-0.51962,-0.05158,-0.09084,0.29086
0.19483,0.80652,-0.55818,0.00406,0.13886,0.03621
0.21573,0.78331,-0.58299,0.15618,0.6468,-0.05069
0.23571,0.76455,-0.59992,0.20158,0.59475,0.06707
0.25538,0.75476,-0.60425,-0.09242,0.31678,-0.04479
0.27722,0.75523,-0.59394,-0.07654,0.13203,-0.01543
0.30595,0.76165,-0.57121,-0.09796,-0.19788,0.0875
0.33342,0.77248,-0.54047,-0.01769,-0.49585,0.22343
0.35117,0.79026,-0.50217,0.04283,-0.71691,0.22476
0.3581,0.81453,-0.4564,-0.0661,-0.66901,0.14805
0.35847,0.84138,-0.40445,-0.15702,-0.53223,0.01409
0.35136,0.86925,-0.34778,-0.18888,-0.22432,-0.15143
0.33235,0.89754,-0.28977,-0.23315,0.12942,-0.21266
0.3086,0.91987,-0.24209,-0.28543,0.35418,-0.26525
0.28701,0.93444,-0.2108,-0.22434,0.05132,-0.30751
0.27596,0.94012,-0.20006,0.22783,-0.17814,-0.33766
0.28604,0.93769,-0.19727,0.53542,-0.06695,0.11152
0.31086,0.93329,-0.17983,-0.14458,0.0809,0.87786
0.31717,0.9376,-0.14249,-0.69099,0.82941,-0.09793
0.30691,0.942,-0.13582,-0.00871,1.65076,0.07268
0.30914,0.93961,-0.14685,2.3226,0.71989,-0.31936
0.34989,0.92347,-0.1574,1.34432,-0.3937,0.13554
0.35762,0.91428,-0.19025,-0.52325,-0.1518,0.19582
0.34481,0.91532,-0.20808,-0.0933,0.35191,0.30943
0.32661,0.92251,-0.20567,-0.02458,0.60189,0.28203
0.31807,0.92901,-0.18915,-0.20637,0.36032,0.1649
0.30861,0.93591,-0.1698,-0.13295,0.12354,0.10412
0.29985,0.94238,-0.14832,0.06677,-0.00377,0.04131
0.29339,0.94745,-0.1275,0.19924,-0.27725,0.01693
0.28776,0.9513,-0.11056,0.13477,-0.30219,-0.00215
0.28027,0.95459,-0.10099,0.11541,-0.27353,-0.17797
0.27233,0.9576,-0.09405,0.18055,-0.29776,-0.21244
0.26537,0.96003,-0.08896,0.14427,-0.27574,-0.20725
0.26012,0.96154,-0.0882,0.04561,-0.18332,-0.02093
0.25672,0.96162,-0.09684,0.11647,-0.14259,-0.02857
0.2536,0.96038,-0.11554,0.1465,-0.14014,-0.15975
0.25116,0.95707,-0.14469,0.12671,-0.16923,-0.1232
0.24868,0.95058,-0.18587,0.06514,-0.24459,-0.08387
0.2453,0.93922,-0.2402,-0.08508,-0.15716,-0.19616
0.24068,0.92087,-0.30668,-0.08047,-0.13882,-0.12967
0.23175,0.89627,-0.37814,-0.16538,-0.13737,0.28542
0.21871,0.86815,-0.44551,-0.14759,0.0606,0.29083
0.20637,0.83967,-0.50236,-0.13525,0.08909,0.34768
0.19953,0.81326,-0.54663,-0.14155,0.61083,0.27551
0.20415,0.78934,-0.57901,-0.02721,0.57622,0.14955
0.21713,0.77017,-0.59975,-0.13861,0.49303,0.27592
0.23947,0.75948,-0.60485,-0.21382,0.34443,0.2543
0.26207,0.76254,-0.59148,-0.06537,-0.15848,0.13272
0.28738,0.77609,-0.56133,-0.03862,-0.24339,0.11506
0.3091,0.79597,-0.52047,0.0366,-0.28627,0.12014
0.32222,0.82085,-0.47157,0.11363,-0.32884,0.06236
0.32656,0.85,-0.41334,0.1108,-0.4634,-0.01129
0.32398,0.88095,-0.3449,0.03654,-0.64187,-0.08199
0.31018,0.91108,-0.27149,-0.21486,-0.42468,-0.04574
0.28813,0.93547,-0.20461,-0.29022,0.18094,-0.10491
0.26868,0.94986,-0.15989,-0.3006,0.47813,-0.32966
0.25179,0.95597,-0.15075,-0.18663,0.49971,-0.56753
0.25445,0.95232,-0.16833,0.29367,-0.1931,0.03352
0.27783,0.94739,-0.15893,-0.12728,-0.02811,0.58726
0.28939,0.9499,-0.11806,-0.72712,0.32963,-0.0044
0.28548,0.95261,-0.10498,-0.48557,0.39684,-0.0331
0.28312,0.95307,-0.10722,1.37299,1.08869,0.09121
0.30904,0.94646,-0.09325,0.80458,0.81327,-0.44446
0.32508,0.94015,-0.10211,0.2427,0.23392,-0.21895
0.32745,0.93754,-0.1174,-0.19431,0.39754,0.12373
0.31942,0.93858,-0.13056,-0.33319,0.29739,0.25966
0.30687,0.94247,-0.13261,-0.26903,0.16988,0.27117
0.29464,0.94705,-0.1276,-0.14695,-0.08122,0.08674
0.28401,0.95123,-0.12043,0.09214,-0.00214,0.01127
0.27809,0.9536,-0.11532,0.34711,-0.00289,0.07794
0.27647,0.95364,-0.11887,0.36483,-0.05847,-0.41999
0.27514,0.95165,-0.13655,0.30953,-0.25187,-0.40574
0.27136,0.94867,-0.16242,0.17583,-0.4267,-0.05823
0.26756,0.94367,-0.19465,-0.23717,-0.45986,0.05786
0.25936,0.93554,-0.2398,-0.29551,-0.39629,0.08651
0.24337,0.92268,-0.29905,-0.04244,-0.41389,-0.14757
0.2326,0.90241,-0.36269,-0.06813,-0.36512,0.2114
0.2196,0.87611,-0.42919,-0.21475,-0.52548,0.68029
0.20033,0.85208,-0.48355,-0.16859,-0.64037,0.64311
0.1858,0.83143,-0.52364,-0.16683,-0.46964,0.26812
0.18923,0.81389,-0.54933,-0.30032,0.5657,-0.09911
0.21882,0.7964,-0.56379,-0.11258,1.00305,0.14062
0.25735,0.7902,-0.5562,0.31851,1.09954,0.29945
0.29411,0.79486,-0.53075,0.14475,0.08411,0.07785
0.32545,0.80619,-0.49409,0.04426,-0.06521,-0.02829
0.35069,0.82564,-0.44196,-0.01892,-0.17108,-0.1378
0.36444,0.85153,-0.37693,0.14123,-0.58336,-0.08691
0.36412,0.87913,-0.30747,0.14155,-0.61096,-0.15637
0.34387,0.90869,-0.2367,-0.17965,-0.49105,0.07018
0.3136,0.93377,-0.17242,-0.42436,0.48849,-0.09572
0.29115,0.94726,-0.13387,-0.38928,0.67289,-0.31572
0.27768,0.95139,-0.13324,-0.34261,0.75949,-0.54695
0.28434,0.94763,-0.14541,0.47857,0.11702,0.3135
0.30822,0.94138,-0.13715,0.28233,-0.08676,0.65335
0.31829,0.94112,-0.11389,-0.08459,-0.07317,0.45024
0.30906,0.94245,-0.12753,1.5439,1.86327,-0.67802
0.31958,0.94039,-0.11631,2.36676,2.53109,-0.36964
0.33215,0.93408,-0.13102,0.13564,-0.23184,0.70627
0.32533,0.93361,-0.1501,-0.09633,0.15744,0.00296
0.31179,0.93796,-0.15171,-0.22282,0.24725,0.27088
0.30059,0.94301,-0.14271,-0.1878,0.33904,0.24651
0.29022,0.95,-0.11516,-0.22482,0.2277,0.1463
0.27513,0.95758,-0.08568,-0.07995,0.29056,0.02545
0.26228,0.96281,-0.06488,0.15472,0.07801,0.03199
0.25392,0.96566,-0.05503,0.101,-0.14676,-0.15798
0.24924,0.9665,-0.06136,0.02356,-0.25489,-0.28967
0.24684,0.96507,-0.08779,-0.08958,-0.35778,-0.40583
0.24586,0.9592,-0.1396,-0.08528,-0.53897,-0.07873
0.23939,0.9476,-0.2115,-0.01782,-0.58277,-0.06961
0.22662,0.92957,-0.29077,-0.30667,-0.58537,0.51076
0.21307,0.90978,-0.35624,-0.3693,-0.81655,0.69175
0.20153,0.89248,-0.40356,-0.37586,-0.9634,0.60516
0.19229,0.87728,-0.43979,-0.21341,-0.71259,0.44329
0.18041,0.86214,-0.47347,-0.15319,-0.64104,0.2424
0.18438,0.84988,-0.49366,-0.17862,-0.46037,0.01564
0.21897,0.84551,-0.487,-0.05829,1.08673,0.2565
0.25977,0.85182,-0.45488,0.60139,0.30445,0.16869
0.28664,0.86625,-0.4092,0.4774,-0.15446,-0.01516
0.30676,0.88409,-0.35253,0.23232,-0.23992,-0.39568
0.3112,0.90745,-0.28229,0.15059,-0.11152,-0.43947
0.29886,0.93022,-0.21298,0.11131,0.13948,-0.30971
0.27529,0.94551,-0.17385,0.02827,0.2336,-0.15789
0.26255,0.95005,-0.16873,-0.02389,0.06179,-0.05229
0.26686,0.94927,-0.16632,-0.19598,0.15322,-0.17869
0.27593,0.95013,-0.14527,-0.28962,0.61347,0.13249
0.28208,0.95363,-0.10492,-0.40963,0.88964,0.60193
0.27902,0.95403,-0.1094,-0.0303,0.88273,-0.06887
0.29869,0.94987,-0.09237,1.61046,0.62032,-0.16199
0.30817,0.94545,-0.10561,0.15133,-0.1087,0.138
0.29651,0.9476,-0.11883,-0.10717,0.29553,0.13328
0.27774,0.95367,-0.11563,-0.12002,0.54331,0.31055
0.26263,0.96019,-0.09515,-0.19302,0.40695,0.19259
0.24652,0.96701,-0.06408,-0.18517,0.35879,0.04726
0.22599,0.97356,-0.03324,-0.05897,0.17555,-0.0115
0.20892,0.97792,-0.00362,0.12938,-0.1906,-0.05137
0.19327,0.9809,0.02186,0.08394,-0.16777,-0.09318
0.17306,0.98403,0.04171,0.05225,-0.20081,-0.13099
0.14915,0.9873,0.05468,0.05411,-0.53976,-0.22763
0.1287,0.98988,0.05973,0.10317,-0.59918,-0.18655
0.11438,0.99171,0.05853,0.1548,-0.58135,-0.14816
0.10669,0.99299,0.0508,0.11755,-0.62596,-0.27303
0.10107,0.99412,0.0388,0.17721,-0.57212,-0.1703
0.09767,0.99495,0.02303,0.2634,-0.48673,-0.11057
0.09838,0.99515,0.00113,0.16591,-0.15202,-0.35553
0.09873,0.99457,-0.03288,0.05935,-0.19666,-0.37434
0.0953,0.99244,-0.07737,0.04543,-0.34931,-0.16312
0.091,0.98632,-0.13741,-0.04466,-0.40318,0.04996
0.0901,0.97458,-0.20514,-0.1163,-0.08418,-0.096
0.09318,0.96022,-0.26323,-0.34145,0.88843,-0.29868
0.0993,0.94526,-0.31083,-0.14009,1.31757,0.24282
0.10462,0.92979,-0.35291,-0.06517,0.84993,0.19528
0.10169,0.91532,-0.38967,-0.09429,0.45706,-0.34943
0.09718,0.9038,-0.41678,0.09072,0.61969,-0.27836
0.09563,0.89814,-0.42918,0.18038,0.67123,-0.14936
0.09765,0.89661,-0.43191,0.14742,0.02761,-0.0677
0.10513,0.89859,-0.42601,0.17254,-0.32503,-0.00133
0.1144,0.90425,-0.41138,0.11401,-0.44971,0.07061
0.12704,0.91258,-0.38867,-0.17239,-0.53246,0.13595
0.14429,0.92335,-0.35582,-0.2681,-0.48968,-0.05694
0.16161,0.93603,-0.31261,-0.19809,-0.54016,-0.28707
0.17228,0.94979,-0.26118,-0.14295,-0.56541,-0.34294
0.17393,0.96262,-0.20762,0.11306,-0.478,-0.45565
0.16811,0.97242,-0.16168,0.33896,-0.28181,-0.54934
0.15817,0.97734,-0.14064,0.48739,0.04315,-0.56452
0.1548,0.97495,-0.1597,0.68011,0.32968,-0.44617
0.1658,0.9638,-0.20878,-0.07279,0.24374,-0.82005
0.17171,0.94925,-0.26351,-0.08643,-0.36192,1.16831
0.20122,0.94516,-0.25727,-0.64392,0.16252,1.36937
0.22338,0.95047,-0.21609,-0.34832,0.82301,1.82396
0.22867,0.951,-0.20812,0.09652,2.35998,-0.49922
0.23888,0.9555,-0.17309,0.57742,0.36862,0.16732
0.23618,0.96107,-0.14339,0.32726,0.11602,0.44669
0.2259,0.96847,-0.10499,-0.02622,0.61459,0.35498
0.21445,0.97537,-0.05164,-0.32747,0.39882,0.12967
0.19384,0.98102,-0.00426,-0.36306,0.49946,-0.01484
0.17691,0.9835,0.03787,0.01568,0.30651,-0.06639
0.15904,0.98477,0.07018,-0.04043,-0.08228,-0.04947
0.13787,0.98635,0.08999,-0.0439,-0.36007,-0.10345
0.11529,0.98777,0.10491,0.11997,-0.46316,-0.20066
0.0947,0.98867,0.11647,0.31083,-0.64936,-0.29635
0.08027,0.98887,0.12529,0.31272,-0.59037,-0.4967
0.06547,0.98929,0.13045,0.30266,-0.48563,-0.53627
0.05314,0.9906,0.12602,0.44788,-0.35918,-0.39695
0.04453,0.99242,0.11456,0.45198,-0.32233,-0.32803
0.0395,0.99451,0.09686,0.41785,-0.29209,-0.24847
0.03961,0.99677,0.06981,0.40667,0.16331,0.05173
0.04746,0.99837,0.03163,0.40996,0.46661,0.1391
0.07056,0.99741,-0.01347,0.11801,0.779,0.11392
0.10131,0.99224,-0.07209,-1.12907,1.2594,-0.02489
0.11652,0.98354,-0.13811,-0.75536,1.12268,0.23306
0.13165,0.97273,-0.19096,-0.41478,1.08046,0.28451
0.14932,0.9614,-0.23109,0.22813,0.33922,0.11051
0.16681,0.95007,-0.26371,0.21807,0.14678,0.07403
0.1876,0.93777,-0.29221,0.15793,-0.04283,0.05637
0.2134,0.92262,-0.32128,0.04874,-0.07146,0.18006
0.24596,0.90387,-0.35003,-0.21392,-0.05809,0.30059
0.28096,0.88407,-0.37348,-0.38727,-0.03836,0.27656
0.30634,0.87091,-0.38427,-0.44321,-0.3667,0.32473
0.32137,0.86381,-0.38801,-0.44783,-0.53777,0.34939
0.32762,0.85994,-0.39136,-0.46071,-0.78667,0.39658
0.32479,0.85917,-0.3954,-0.35301,-0.83445,0.43993
0.31807,0.86123,-0.39637,-0.24324,-0.85095,0.41556
0.31445,0.86831,-0.38361,-0.32967,-0.75523,0.16471
0.31519,0.88059,-0.35386,-0.28108,-0.6386,-0.07509
0.3147,0.89671,-0.31126,-0.23569,-0.50726,-0.21309
0.30834,0.91314,-0.26663,0.2499,0.27172,-0.51328
0.29786,0.92355,-0.24154,0.6389,0.70847,-0.8435
0.2944,0.92204,-0.25132,0.83525,0.52907,-0.56771
0.30911,0.9109,-0.27331,0.44429,0.16089,-0.29517
0.33388,0.89983,-0.28075,-0.0653,0.94768,0.45698
0.35431,0.89242,-0.27935,-0.56077,1.8347,-0.06716
0.36446,0.8844,-0.29157,-0.42311,-0.55308,0.36585
0.3775,0.88211,-0.28172,-0.61433,-0.16123,0.64633
0.37444,0.88906,-0.26337,-0.46822,0.09812,1.03712
0.35078,0.90734,-0.23169,-0.34104,0.17832,1.02782
0.32332,0.92472,-0.20087,0.1142,0.67351,-0.06868
0.3106,0.93611,-0.165,0.13458,0.26398,-0.0149
0.30967,0.94302,-0.12169,-0.23836,-0.06335,0.23828
0.30657,0.94847,-0.08011,-0.40476,-0.0334,0.28044
0.29669,0.95411,-0.04057,-0.37695,-0.04812,0.2485
0.28308,0.95908,-0.00544,-0.17175,-0.11948,0.30311
0.26796,0.96313,0.02396,-0.13796,-0.11404,0.15048
0.25038,0.96697,0.04763,-0.10831,-0.21127,0.02603
0.23258,0.97042,0.06476,0.08865,-0.18261,-0.0511
0.21925,0.97257,0.07768,0.32328,-0.10647,-0.17202
0.2086,0.97376,0.09093,0.3962,-0.13679,-0.20338
0.19847,0.97456,0.10408,0.35591,-0.20752,-0.14174
0.18876,0.97465,0.12014,0.30524,-0.21082,-0.04664
0.17817,0.97355,0.14301,0.1644,-0.19337,-0.03379
0.16409,0.97209,0.16767,0.10051,-0.08979,-0.22302
0.14472,0.97093,0.19065,0.13366,0.07114,-0.35048
0.12409,0.97097,0.20448,0.20582,0.17422,-0.20771
0.10927,0.9716,0.2099,0.22211,0.15409,0.05755
0.10202,0.97193,0.21197,0.29158,0.24215,0.0753
0.09938,0.97178,0.21391,0.09816,0.34565,-0.10985
0.09903,0.97165,0.21466,-0.085,0.4165,-0.32399
0.0957,0.97316,0.2093,0.10233,0.25711,-0.40366
0.09069,0.9773,0.19148,0.29236,0.22993,-0.31132
0.08812,0.98378,0.15623,0.43173,0.16142,0.1122
0.09509,0.99057,0.09856,0.23238,0.13391,0.11868
0.12369,0.99154,0.03931,-0.18577,0.08846,-0.09255
0.1625,0.98643,-0.02336,-0.3863,0.30881,0.04716
0.19598,0.97643,-0.09044,-0.39984,0.89912,0.05113
0.21784,0.9634,-0.15623,-0.33491,1.02093,0.07708
0.22907,0.95036,-0.21059,-0.10575,0.16631,0.02317
0.23728,0.93805,-0.25249,0.06602,-0.1111,0.06291
0.24682,0.92491,-0.28916,0.14382,-0.13068,0.06414
0.25769,0.90988,-0.32514,0.08406,-0.03306,0.07704
0.26843,0.89336,-0.36035,-0.01367,-0.05289,0.14306
0.28084,0.87578,-0.3926,-0.02233,-0.10337,0.2168
0.29231,0.85955,-0.4192,-0.31274,-0.2089,0.39661
0.2969,0.84812,-0.43879,-0.46609,-0.26901,0.4517
0.29728,0.84057,-0.45284,-0.42544,-0.27852,0.40094
0.29343,0.83671,-0.4624,-0.36134,-0.27986,0.37249
0.29258,0.83732,-0.46184,-0.3464,-0.25764,0.32399
0.29891,0.84175,-0.44957,-0.3442,-0.22967,0.25218
0.31309,0.84838,-0.42688,-0.34995,-0.25762,0.18057
0.33067,0.85738,-0.3944,-0.31705,-0.35435,0.18746
0.34407,0.86951,-0.35436,-0.27198,-0.36405,0.14217
0.34732,0.88452,-0.31144,-0.20851,-0.34599,0.03955
0.33849,0.90108,-0.27106,0.206,-0.01345,-0.39992
0.31967,0.91698,-0.23865,0.22482,-0.02935,-0.43232
0.29881,0.92802,-0.22245,0.69112,0.54013,-0.74782
0.29709,0.9283,-0.22358,0.61673,0.43798,-0.48464
0.32076,0.92136,-0.21959,0.39722,0.43066,-0.59276
0.34796,0.91356,-0.21055,0.23992,0.42045,-0.62101
0.37463,0.90636,-0.19537,-0.46862,0.61911,0.63307
0.39992,0.89951,-0.17591,-0.64463,0.58998,0.6137
0.42108,0.8917,-0.16601,-0.9527,0.21143,-0.19587
0.42827,0.89016,-0.15557,-0.69676,-0.10346,0.18662
0.42085,0.89633,-0.1396,-0.61793,-0.04133,0.43916
0.40008,0.90894,-0.11733,-0.59866,-0.04874,0.61713
0.37593,0.92234,-0.08926,-0.41438,0.41317,0.39593
0.36192,0.93028,-0.05999,-0.20874,0.52641,0.14439
0.35781,0.93346,-0.0248,-0.01847,-0.03223,0.19645
0.35715,0.93393,0.01448,-0.12443,-0.11258,0.22308
0.35514,0.93349,0.04975,-0.14642,-0.07536,0.21396
0.35057,0.93315,0.0795,-0.19762,-0.04125,0.19434
0.34313,0.93337,0.10529,-0.12156,-0.0766,0.12396
0.33465,0.93352,0.12867,-0.06635,-0.04311,0.10379
0.3257,0.93352,0.14985,-0.01853,0.04596,-0.02929
0.31757,0.93302,0.16917,0.01789,0.03652,-0.11671
0.30656,0.93362,0.18539,-0.04388,-0.00279,-0.12197
0.29241,0.93466,0.20226,0.15992,-0.01794,0.04714
0.27479,0.93568,0.22136,0.17202,-0.05334,-0.01976
0.2545,0.93646,0.2414,0.13089,-6e-05,-0.1977
0.23258,0.93735,0.25937,0.11342,0.09155,-0.30233
0.20935,0.93884,0.27342,0.23933,0.00777,-0.28163
0.18765,0.94049,0.28332,0.40035,-0.04962,-0.16759
0.16984,0.94233,0.28839,0.46239,-0.04704,0.01424
0.15415,0.94432,0.2907,0.11624,0.01239,-0.14986
0.14555,0.94525,0.29208,0.0641,0.09385,-0.21923
0.14126,0.9467,0.28948,-0.06753,0.22902,-0.43211
0.13699,0.94955,0.28212,-0.03183,0.22533,-0.48544
0.13179,0.95403,0.26917,0.04177,0.20579,-0.43176
0.12832,0.96073,0.24604,0.20548,0.15394,-0.17007
0.13176,0.96994,0.2046,0.12453,0.35913,0.1191
0.14975,0.97774,0.14694,-0.2569,0.44794,0.06296
0.18296,0.97927,0.08692,-0.5389,0.29299,-0.01148
0.2162,0.97612,0.02114,-0.65351,0.47978,-0.03671
0.24105,0.96941,-0.04621,-0.51691,0.86198,0.02102
0.25775,0.96027,-0.10701,-0.04948,0.6225,0.06592
0.27024,0.9505,-0.15336,0.11324,0.36261,0.04059
0.28152,0.94085,-0.18856,0.29653,-0.0463,-0.01223
0.29352,0.93034,-0.21978,0.17375,-0.07761,-0.03817
0.30616,0.91758,-0.25359,-0.08296,-0.03028,0.0516
0.32162,0.90198,-0.2881,-0.13427,-0.05885,0.10524
0.33933,0.88501,-0.31875,-0.2316,-0.02315,0.13853
0.35126,0.87105,-0.34334,-0.4291,-0.28144,0.39631
0.35684,0.86032,-0.36403,-0.43468,-0.2707,0.41701
0.35923,0.85233,-0.38012,-0.37433,-0.27477,0.26942
0.36143,0.8484,-0.38677,-0.36131,-0.21184,0.24642
0.36368,0.84774,-0.3861,-0.36355,-0.21119,0.24575
0.3664,0.84931,-0.38004,-0.29256,-0.22959,0.12743
0.36769,0.85321,-0.36992,-0.14192,-0.21527,0.08153
0.36565,0.85993,-0.35611,-0.09886,-0.20951,0.06085
0.36163,0.86895,-0.33787,-0.06097,-0.22767,0.02129
0.35502,0.88024,-0.31487,0.08074,-0.36014,-0.11793
0.3438,0.89389,-0.28769,0.11776,-0.37628,-0.1859
0.32813,0.90893,-0.25725,0.15606,-0.28747,-0.31288
0.31203,0.92192,-0.22956,0.29641,0.03433,-0.5012
0.3001,0.92852,-0.21862,0.48932,0.64848,-0.63605
0.30138,0.92778,-0.21999,0.60414,0.6765,-0.53397
0.31217,0.9248,-0.21746,0.36977,-0.00853,-0.67054
0.32213,0.92107,-0.21877,0.16007,-0.43978,-0.45968
0.33253,0.9184,-0.2144,-0.23644,-0.06449,0.10706
0.33579,0.92271,-0.18935,-0.42858,0.17304,0.28797
0.32736,0.9355,-0.13295,-0.70304,1.37789,0.73393
0.31888,0.94292,-0.096,-0.5103,0.13652,-0.36654
0.31509,0.94465,-0.09141,-0.09171,-0.22509,-0.11388
0.30574,0.94896,-0.0774,0.11753,-0.35375,0.50518
0.29492,0.95394,-0.05494,-0.13191,-0.48684,0.63447
0.27705,0.95996,-0.04145,-0.48199,-0.29266,0.46902
0.24955,0.9679,-0.02977,-0.44376,0.15971,0.25142
0.22806,0.97357,-0.01257,-0.24,0.49708,0.10321
0.22326,0.97462,0.01646,0.19402,0.03748,0.15921
0.22596,0.97303,0.04638,0.07345,-0.10452,0.06599
0.23169,0.97054,0.06616,-0.00153,-0.08104,-0.06173
0.2333,0.96927,0.07805,-0.09955,-0.12401,-0.0867
0.22702,0.97026,0.08395,-0.16905,-0.17954,-0.03478
0.21614,0.97221,0.08993,-0.0536,-0.11122,0.07573
0.20471,0.97372,0.09976,0.17484,-0.00974,0.11046
0.19508,0.9742,0.11343,0.25935,-0.03913,0.05248
0.18802,0.9735,0.13018,0.31209,-0.06469,-0.01516
0.17928,0.97249,0.14873,0.13695,-0.0508,-0.11371
0.1684,0.97156,0.16648,0.01968,0.02207,-0.19866
0.15373,0.97128,0.18162,0.00684,0.0227,-0.25477
0.13529,0.97159,0.19417,0.09425,0.03067,-0.2525
0.11556,0.97198,0.2047,0.09237,0.04396,-0.24775
0.09566,0.97243,0.21264,0.30094,0.06417,-0.13046
0.077,0.97348,0.21543,0.19636,0.02478,-0.07343
0.0632,0.97481,0.21387,0.0802,0.02758,-0.16713
0.05672,0.97578,0.21126,0.06094,0.08413,-0.17273
0.05289,0.97713,0.20594,0.14529,0.28115,-0.3247
0.05001,0.97875,0.19888,0.20815,0.31511,-0.30148
0.0474,0.98177,0.18405,0.24638,0.2805,-0.23949
0.04928,0.98704,0.15272,0.37274,0.0913,0.05926
0.05965,0.99324,0.09959,0.30218,0.13417,0.09106
0.08458,0.99571,0.03756,0.23508,0.14148,0.10059
0.11878,0.99261,-0.02492,-0.13272,0.31904,-0.05491
0.15527,0.98436,-0.0832,-0.20412,0.55047,0.02926
0.1891,0.97204,-0.13917,-0.27887,0.78902,0.08694
0.21625,0.95878,-0.18431,0.07403,0.08801,0.01437
0.23695,0.9472,-0.21602,0.20139,-0.14021,0.03346
0.25867,0.9349,-0.24299,0.32712,-0.22934,0.08778
0.28189,0.91976,-0.2731,0.2023,0.03654,0.09178
0.30488,0.90211,-0.30536,0.11571,0.1138,0.17303
0.32642,0.88382,-0.33512,-0.12024,0.15559,0.26719
0.34103,0.86796,-0.36102,-0.40336,-0.03229,0.44321
0.34346,0.856,-0.38638,-0.493,-0.19815,0.49479
0.34126,0.84595,-0.40978,-0.40204,-0.22448,0.2699
0.33702,0.8393,-0.4266,-0.33842,-0.13292,0.20373
0.33739,0.83638,-0.43201,-0.24683,-0.15546,0.1941
0.34269,0.8368,-0.427,-0.18792,-0.19232,0.21213
0.34919,0.84006,-0.41517,-0.21647,-0.23682,0.23655
0.3526,0.84739,-0.397,-0.26787,-0.28678,0.22514
0.35004,0.86022,-0.3708,-0.27362,-0.32943,0.10719
0.33818,0.87878,-0.33672,-0.10544,-0.28302,0.0143
0.31674,0.89968,-0.30043,0.21189,0.00651,-0.1259
0.28868,0.91847,-0.27033,0.38805,0.35224,-0.508
0.26323,0.93189,-0.24956,0.55209,0.71921,-0.78
0.25023,0.93685,-0.24432,0.43492,0.31765,-0.37462
0.25255,0.93444,-0.25108,0.1994,-0.04433,-0.19483
0.26241,0.92987,-0.25785,0.10293,-0.18196,-0.14924
0.26968,0.92724,-0.2598,0.02416,-0.00698,-0.13481
0.27114,0.92848,-0.25379,-0.05604,1.00928,0.35143
0.27327,0.93051,-0.24386,0.18033,-0.06458,0.25001
0.27751,0.93232,-0.23188,-0.05538,-0.21022,0.54194
0.27779,0.93563,-0.21779,-0.31133,-0.12736,0.48724
0.25974,0.9444,-0.20161,-0.27157,-0.11917,0.50179
0.22917,0.95614,-0.18242,-0.12831,-0.03228,0.54381
0.19989,0.96657,-0.1606,-0.0689,0.17158,0.48645
0.1813,0.9737,-0.13796,-0.15086,0.12513,0.28525
0.17488,0.9783,-0.11112,-0.17249,0.00351,0.11881
0.17529,0.98108,-0.08216,-0.19105,0.03523,0.13709
0.17607,0.98272,-0.05714,-0.08274,0.09538,0.18792
0.17457,0.98387,-0.039,-0.022,0.06952,0.17526
0.1708,0.98494,-0.02688,0.09713,-0.05781,-0.01127
0.1663,0.98594,-0.01637,0.15208,-0.15115,-0.1254
0.16037,0.98703,-0.00642,0.13626,-0.12684,-0.06403
0.15257,0.98829,0.0028,0.12589,-0.07145,-0.00599
0.14291,0.98965,0.01259,0.10097,-0.1284,0.12271
0.13285,0.99084,0.02433,0.10451,-0.16329,0.10388
0.12447,0.99151,0.03761,0.09703,-0.15521,0.07613
0.11921,0.99152,0.05179,0.00509,-0.02914,-0.03061
0.1117,0.99139,0.06828,-0.01006,-0.01254,-0.062
0.10193,0.99114,0.08511,-0.0195,0.01942,-0.09037
0.09402,0.99043,0.10105,-0.0088,0.05541,-0.18799
0.08037,0.99043,0.11215,0.06453,0.00671,-0.22723
0.06761,0.99052,0.11955,0.14127,-0.03663,-0.23164
0.05733,0.99163,0.11569,0.17853,0.05285,-0.09854
0.04997,0.9928,0.10889,0.12701,0.08756,-0.08057
0.04627,0.9942,0.09708,0.07848,0.14367,-0.05955
0.04565,0.99587,0.07844,0.24453,0.39196,0.12461
0.04752,0.9976,0.05044,0.3148,0.31844,0.11653
0.05881,0.9982,0.01145,0.12594,0.21574,0.06481
0.08219,0.99601,-0.03467,-0.09246,0.14191,-0.068
0.11105,0.98971,-0.09023,-0.15257,0.1307,-0.02638
0.13793,0.97875,-0.1517,-0.15772,0.1047,0.07204
0.16171,0.96306,-0.2153,-0.08547,0.37414,0.08041
0.18213,0.94465,-0.27289,-0.00567,0.46491,0.16988
0.19849,0.92664,-0.31929,0.14278,0.11253,0.23273
0.21426,0.90951,-0.3562,0.12192,-0.03732,0.19505
0.23474,0.89264,-0.38482,0.09988,-0.01982,0.17483
0.26054,0.8753,-0.40738,0.06318,0.09976,0.18622
0.28794,0.85679,-0.42779,-0.04772,0.15769,0.23882
0.30913,0.83914,-0.44752,-0.11698,0.1412,0.26304
0.32007,0.82493,-0.46589,-0.13893,-0.01368,0.33187
0.33005,0.8134,-0.47901,-0.19827,-0.06887,0.43508
0.34329,0.80527,-0.48342,-0.28366,-0.135,0.40857
0.35631,0.80141,-0.48039,-0.31744,-0.11211,0.22933
0.36808,0.80006,-0.47373,-0.31338,-0.06313,0.09083
0.37585,0.80026,-0.46724,-0.28764,-0.11208,0.09741
0.38095,0.8025,-0.4592,-0.11926,-0.18187,0.20453
0.38454,0.80688,-0.44842,-0.09183,-0.20101,0.15205
0.38588,0.81333,-0.43542,-0.09615,-0.26008,0.0455
0.38149,0.82247,-0.42191,-0.05875,-0.22626,0.06379
0.37131,0.83422,-0.40768,-0.03111,-0.15916,0.08284
0.35703,0.8476,-0.39257,0.0094,-0.03241,0.04265
0.34099,0.8611,-0.37713,0.05462,0.01385,-0.03118
0.3273,0.87351,-0.36034,0.11199,-0.06658,-0.04734
0.3205,0.88306,-0.34276,0.14755,-0.11707,-0.03408
0.31979,0.88893,-0.32792,0.07863,-0.2282,-0.01143
0.32126,0.89225,-0.31729,-0.01625,-0.32559,0.01192
0.32054,0.89613,-0.30692,-0.05064,-0.35267,0.04806
0.3158,0.90221,-0.29374,-0.05841,-0.46106,0.19911
0.30599,0.91089,-0.27684,-0.08904,-0.44054,0.19345
0.29326,0.92079,-0.25716,-0.13225,-0.3562,0.1004
0.27956,0.9303,-0.23747,-0.15763,-0.28395,0.04746
0.26762,0.9384,-0.21859,-0.17234,-0.24522,0.01479
0.25946,0.94428,-0.2025,-0.26964,0.11339,-0.11732
0.25507,0.94687,-0.19589,0.0138,0.71687,0.0259
0.26104,0.9472,-0.18621,0.24985,0.11372,0.80282
0.26719,0.95063,-0.15783,-0.00355,0.1083,0.68211
0.26189,0.95123,-0.16301,-0.20269,0.5615,0.14139
0.26731,0.94707,-0.17776,0.46283,-0.00504,0.31527
0.28286,0.9344,-0.21654,-0.03303,-0.37199,0.7268
0.27903,0.92772,-0.24793,-0.18592,-0.37548,0.42373
0.2669,0.92666,-0.26469,-0.01699,0.30782,0.17106
0.25431,0.93107,-0.26158,0.04293,0.32358,0.05476
0.24254,0.93781,-0.24835,0.32098,0.1489,0.08698
0.2329,0.9439,-0.23412,0.49476,0.09262,0.0626
0.23071,0.94807,-0.21896,0.47376,-0.03344,0.00095
0.23594,0.94786,-0.21424,0.17654,-0.09584,-0.21366
0.24123,0.94237,-0.23184,0.0194,-0.04671,-0.29089
0.24368,0.93103,-0.27166,0.00907,-0.05055,-0.13375
0.24135,0.91337,-0.32787,-0.45366,-0.41056,0.28738
0.22916,0.89392,-0.38522,-0.60839,-0.70782,0.39697
0.21308,0.87128,-0.44212,-0.58876,-0.74095,0.45169
0.19973,0.84605,-0.49428,-0.34524,-0.69135,0.5853
0.18994,0.82229,-0.53644,-0.17914,-0.79029,0.46766
0.18413,0.80008,-0.57094,-0.12067,-0.62494,0.37046
0.19063,0.78212,-0.59325,-0.07483,-0.0327,0.177
0.21502,0.77084,-0.59965,-0.20865,0.6845,0.51009
0.248,0.76872,-0.58954,0.03615,0.85931,0.38288
0.26717,0.78061,-0.56503,0.27464,0.50016,-0.02536
0.28275,0.79932,-0.53022,0.1738,0.28109,-0.13418
0.29578,0.82524,-0.48113,0.25031,-0.05092,-0.32716
0.30001,0.85496,-0.42312,0.1705,-0.48317,-0.20175
0.30238,0.88233,-0.36063,-0.04789,-0.63883,0.03025
0.29422,0.90789,-0.2986,-0.21454,-0.07367,0.15198
0.27575,0.92761,-0.25199,-0.1218,0.33957,-0.09087
0.25907,0.93824,-0.22932,-0.09488,0.46504,-0.45269
0.25622,0.94105,-0.22086,0.00366,0.32447,-0.46118
0.27155,0.93994,-0.20683,0.22753,0.02454,0.32185
0.28756,0.94217,-0.17209,-0.14758,0.10241,0.55862
0.2872,0.94624,-0.14883,-0.39485,0.46416,0.08
0.28066,0.94683,-0.15728,0.8362,1.5337,0.01043
0.30854,0.93769,-0.15979,1.53561,0.46253,-0.28631
0.32698,0.92544,-0.19144,0.07242,-0.0515,0.06464
0.3166,0.92335,-0.21722,-0.337,0.16353,0.28091
0.29647,0.928,-0.22566,0.04171,0.37422,0.2374
0.28253,0.93401,-0.21863,0.10286,0.24936,0.0994
0.274,0.93955,-0.20536,0.05199,0.12842,0.10539
0.26814,0.94333,-0.19552,0.31368,0.17857,0.04833
0.27017,0.94331,-0.19279,0.34409,0.15296,-0.00822
0.27405,0.93976,-0.20431,0.24333,0.04943,-0.22702
0.27062,0.9345,-0.23124,0.18345,-0.10923,0.01346
0.26289,0.92796,-0.26414,-0.03787,-0.2908,0.11323
0.25623,0.91766,-0.30371,-0.29906,-0.42851,0.07157
0.24654,0.90308,-0.35165,-0.30225,-0.53867,0.20678
0.23503,0.88391,-0.40431,-0.24371,-0.60132,0.3127
0.22299,0.8617,-0.4558,-0.19683,-0.68828,0.47474
0.21187,0.83825,-0.50244,-0.2908,-0.71104,0.6109
0.20179,0.81625,-0.5413,-0.28655,-0.62314,0.49055
0.19464,0.79733,-0.5713,-0.21733,-0.30839,0.07197
0.20037,0.78072,-0.59188,-0.4817,0.45086,0.10259
0.22271,0.76586,-0.6032,0.3274,1.26492,0.12644
0.23687,0.76214,-0.60252,0.22773,0.60642,-0.03627
0.25209,0.76873,-0.58779,0.13428,0.43471,-0.18302
0.27216,0.78638,-0.55456,0.01916,0.22807,-0.19053
0.29523,0.80874,-0.5087,-0.00185,-0.08491,-0.18061
0.31173,0.83272,-0.4576,0.0531,-0.22547,-0.28249
0.31578,0.85813,-0.40482,0.04788,-0.35171,-0.34598
0.3069,0.88348,-0.35395,0.10703,-0.36241,0.00491
0.29254,0.9046,-0.31004,0.26209,-0.03253,0.06108
0.28516,0.91765,-0.27679,0.25383,0.0145,-0.08529
0.2878,0.92512,-0.24763,0.15719,0.01943,-0.13401
0.30683,0.92859,-0.20874,0.07343,0.09348,0.00395
0.32982,0.92817,-0.17236,-0.1608,0.3418,0.53409
0.34381,0.92857,-0.13983,-0.37105,0.71813,-0.15103
0.34136,0.92997,-0.13649,-0.32969,0.42803,-0.0897
0.33046,0.9328,-0.14383,0.34902,0.35202,0.42774
0.32546,0.93578,-0.13559,0.44321,1.37141,-0.31091
0.32335,0.9361,-0.13839,0.13779,0.36101,-0.09874
0.31804,0.93587,-0.15164,0.05052,0.04654,0.21228
0.30651,0.93929,-0.15421,0.20042,0.19004,0.17162
0.29528,0.94445,-0.14431,0.08304,0.25833,0.23805
0.28571,0.9504,-0.12289,0.03359,0.21175,0.1798
0.27656,0.95618,-0.09606,0.03127,0.17498,0.12755
0.26945,0.96039,-0.07101,0.02154,0.1622,0.01687
0.26421,0.96308,-0.0516,0.02678,0.15951,-0.00254
0.25871,0.96507,-0.04122,-0.04697,-0.03211,-0.12742
0.2522,0.96684,-0.04015,-0.00667,-0.10557,-0.2091
0.24689,0.96771,-0.05074,0.0137,-0.14874,-0.20268
0.247,0.96593,-0.07719,0.03817,-0.32604,-0.12897
0.25139,0.95992,-0.12391,0.0502,-0.44712,-0.21348
0.25476,0.94667,-0.19724,-0.02719,-0.40976,-0.19317
