gravity.x,gravity.y,gravity.z,userAcceleration.x,userAcceleration.y,userAcceleration.z
-0.18602,0.98125,-0.05029,0.2034,0.40896,-0.01056
-0.1958,0.98013,-0.03166,0.1886,0.52428,0.07393
-0.20406,0.97895,0.004,0.14257,0.55377,0.15028
-0.20665,0.97749,0.04247,0.02535,0.05277,-0.09163
-0.20391,0.97681,0.06524,-0.17048,-0.19576,-0.12941
-0.19568,0.97827,0.06853,-0.24272,-0.26892,-0.13904
-0.18496,0.98107,0.0573,-0.20863,-0.4097,-0.15488
-0.17458,0.98358,0.04571,-0.01652,-0.40544,-0.08285
-0.16457,0.9852,0.04781,0.06038,-0.39421,-0.04308
-0.15647,0.98572,0.0621,0.19137,-0.47252,0.09408
-0.14945,0.98567,0.0782,0.21474,-0.49264,0.21694
-0.14387,0.98559,0.08887,0.18332,-0.49766,0.24556
-0.1411,0.98568,0.09228,0.09285,-0.44636,0.19944
-0.14129,0.98582,0.09052,0.01164,-0.32577,0.1146
-0.1431,0.98582,0.08756,-0.06997,-0.21942,0.04838
-0.1449,0.98555,0.08764,-0.07832,-0.1026,0.01567
-0.14738,0.98484,0.0914,0.0016,-0.02798,-0.03722
-0.14814,0.98404,0.09858,0.11089,0.10703,0.02547
-0.14621,0.98341,0.10735,0.15773,0.33661,0.11745
-0.14216,0.98327,0.11382,0.11904,0.62261,0.13537
-0.13152,0.98436,0.11715,0.1084,0.62152,0.13204
-0.12046,0.9843,0.129,0.01947,0.93598,0.17869
-0.11309,0.98148,0.1546,0.05692,0.81237,0.21629
-0.10525,0.97893,0.17497,0.05128,0.67139,0.18895
-0.09759,0.97973,0.17492,0.2876,0.00263,-0.22144
-0.09277,0.98134,0.16837,0.34465,-0.00889,-0.39705
-0.08929,0.98051,0.17496,0.2363,-0.05241,-0.36611
-0.08381,0.97948,0.18325,0.15282,-0.17527,-0.24558
-0.08049,0.9794,0.18518,-0.23803,0.00087,-0.25168
-0.08465,0.97994,0.18038,-0.27197,0.0342,-0.29874
-0.09085,0.98188,0.1663,-0.26428,0.02206,-0.32221
-0.09463,0.98458,0.14707,-0.03424,0.09372,-0.16744
-0.09742,0.98692,0.12838,0.13313,0.02013,-0.08283
-0.09652,0.98894,0.11262,0.19903,0.01631,-0.04134
-0.09262,0.99076,0.09905,0.32526,-0.30346,0.06979
-0.09334,0.99194,0.08569,0.31941,-0.39646,0.08576
-0.09984,0.99234,0.07266,0.15138,-0.48941,0.02225
-0.11211,0.99173,0.0624,0.07421,-0.46854,0.02757
-0.12624,0.99046,0.05517,-0.10432,-0.30072,-0.02765
-0.1381,0.98919,0.04923,-0.19677,-0.2443,-0.05446
-0.14519,0.98832,0.04616,-0.20832,-0.21769,-0.0543
-0.14639,0.98809,0.04731,-0.22843,-0.22503,0.011
-0.14173,0.98872,0.04831,-0.09256,-0.38666,0.0679
-0.1307,0.99056,0.04121,-0.05257,-0.34163,0.07979
-0.11716,0.99266,0.02985,0.0373,-0.2198,0.16314
-0.10619,0.99408,0.02277,-0.00906,-0.04628,0.16202
-0.09698,0.99515,0.01594,-0.13643,0.15665,0.15709
-0.09233,0.9957,0.00628,-0.15752,0.20881,0.20426
-0.09064,0.99587,-0.00483,-0.22743,0.34698,0.1287
-0.08998,0.99579,-0.01716,-0.22344,0.501,0.01758
-0.09295,0.99529,-0.02741,-0.27817,0.6201,0.09147
-0.10275,0.99385,-0.04106,-0.28801,0.69969,-0.11577
-0.12004,0.9912,-0.05564,-0.18485,0.73394,-0.22212
-0.13817,0.98803,-0.06856,0.05687,0.37228,-0.38238
-0.15573,0.98469,-0.07824,0.4933,-0.00271,-0.44758
-0.17265,0.98122,-0.08595,0.38682,-0.22915,-0.44789
-0.18452,0.97857,-0.09136,0.34845,-0.21332,-0.36077
-0.19565,0.97667,-0.08848,0.388,0.13608,-0.00476
-0.20654,0.97574,-0.07253,0.37237,0.45512,0.21067
-0.21848,0.97494,-0.04189,0.29479,0.54201,0.24713
-0.22778,0.97369,-0.00567,0.08045,0.37683,0.02958
-0.2313,0.97262,0.02235,-0.14747,0.03994,-0.16363
-0.22987,0.97247,0.03806,-0.314,-0.15408,-0.2181
-0.22403,0.97386,0.03732,-0.33455,-0.27695,-0.1897
-0.21581,0.97608,0.02616,-0.23156,-0.36843,-0.10778
-0.20633,0.9783,0.01855,-0.12008,-0.40387,-0.05844
-0.19737,0.98011,0.02046,0.16949,-0.53599,0.07558
-0.18984,0.98134,0.03027,0.25797,-0.57657,0.19678
-0.18361,0.98204,0.0433,0.28734,-0.57764,0.29413
-0.18028,0.98206,0.0552,0.20716,-0.54305,0.30873
-0.18114,0.98136,0.06405,0.09056,-0.44058,0.26778
-0.18492,0.98023,0.07027,0.026,-0.36228,0.20103
-0.19044,0.9789,0.07407,-0.06559,-0.13986,-0.10962
-0.19545,0.97767,0.07714,-0.0309,-0.16099,-0.19924
-0.19803,0.9766,0.0839,0.03692,-0.0445,-0.15491
-0.19809,0.97567,0.09389,0.1535,0.39519,0.24475
-0.19678,0.97508,0.10238,-0.08062,0.49159,0.4066
-0.18573,0.97738,0.10108,0.04999,0.6053,0.1173
-0.16508,0.98153,0.09661,0.04879,0.41341,0.08517
-0.14507,0.98425,0.10095,0.1599,0.7726,0.26066
-0.13358,0.98393,0.11847,0.06733,1.01389,0.32968
-0.13107,0.9825,0.13228,0.11798,0.46581,0.00178
-0.12559,0.98348,0.13032,0.44243,-0.03962,-0.58932
-0.11576,0.98582,0.12144,0.53629,0.00994,-0.6254
-0.10275,0.98639,0.12837,0.3546,0.03307,-0.34233
-0.08942,0.98544,0.14461,-0.08929,0.05398,-0.04912
-0.08563,0.98365,0.15842,-0.15256,0.10218,-0.10645
-0.09011,0.98314,0.1591,-0.27027,0.0677,-0.2731
-0.09904,0.98429,0.14618,-0.14364,-0.01152,-0.2944
-0.10813,0.98589,0.12773,0.04963,-0.06329,-0.14371
-0.11449,0.98755,0.10787,0.19286,-0.12054,-0.06913
-0.11509,0.98928,0.08984,0.23207,-0.16792,-0.01029
-0.1113,0.99083,0.0766,0.30487,-0.30037,0.09512
-0.10921,0.99171,0.06771,0.30524,-0.43735,0.06786
-0.11295,0.99163,0.06244,0.12229,-0.5025,0.01639
-0.1244,0.99044,0.0595,-0.0438,-0.39486,0.00074
-0.13625,0.98911,0.05558,-0.13665,-0.36828,-0.06388
-0.14646,0.98804,0.04827,-0.16395,-0.33555,-0.11864
-0.15179,0.98765,0.03878,-0.13807,-0.32012,-0.05218
-0.15004,0.98817,0.03162,-0.0562,-0.32701,0.09124
-0.13898,0.98988,0.02843,0.08358,-0.14328,0.25245
-0.12349,0.99193,0.02862,0.11387,-0.00916,0.27358
-0.1095,0.99359,0.02808,0.06167,0.01416,0.26049
-0.10148,0.99454,0.02431,-0.12208,0.02716,0.20685
-0.09929,0.99494,0.01536,-0.24854,0.10223,0.2335
-0.10203,0.99478,0.0024,-0.29645,0.15729,0.26099
-0.10445,0.99444,-0.01361,-0.36702,0.47659,-0.01142
-0.10483,0.9941,-0.02759,-0.33351,0.74231,0.0365
-0.10599,0.99352,-0.04095,-0.20279,0.7745,-0.16053
-0.1133,0.99205,-0.05478,-0.01017,0.71888,-0.39905
-0.13093,0.98926,-0.06488,0.25805,0.44666,-0.32187
-0.15196,0.98594,-0.06947,0.42308,-0.02386,-0.45917
-0.17052,0.9824,-0.0762,0.32544,-0.21896,-0.49143
-0.18903,0.97834,-0.08432,0.16741,-0.07391,-0.31612
-0.20702,0.97452,-0.08634,0.26227,0.18875,-0.07998
-0.2236,0.97194,-0.07301,0.09083,0.60562,0.26434
-0.23724,0.97072,-0.03766,0.04597,0.61337,0.21425
-0.24124,0.97046,0.00311,0.02231,0.35054,-0.04892
-0.23586,0.97137,0.02825,-0.04816,-0.10715,-0.18572
-0.22542,0.97373,0.03224,-0.14275,-0.35526,-0.17312
-0.21436,0.97655,0.01966,-0.1752,-0.4212,-0.13364
-0.20642,0.97845,0.0056,-0.03155,-0.44384,-0.04025
-0.20049,0.97967,0.00639,0.12131,-0.44124,0.02529
-0.19716,0.98012,0.02216,0.15593,-0.55504,0.07623
-0.19437,0.97993,0.04422,0.1504,-0.62963,0.13832
-0.19055,0.97952,0.06497,0.15446,-0.7233,0.25256
-0.18832,0.97899,0.07816,0.06542,-0.69118,0.2439
-0.18751,0.97895,0.08063,0.01738,-0.4955,0.16986
-0.19398,0.97799,0.0768,-0.0427,-0.12983,0.03648
-0.2005,0.9767,0.07644,-0.08203,0.13293,0.01747
-0.20633,0.97475,0.0854,0.13655,0.23099,0.0312
-0.20678,0.97343,0.09835,0.2922,0.35463,0.13185
-0.20347,0.97321,0.10707,0.05132,0.59125,0.30043
-0.19669,0.9751,0.10242,-0.11191,0.17256,0.06625
-0.1801,0.97897,0.09579,-0.01831,0.44176,0.14741
-0.16196,0.98082,0.10846,-0.03525,0.7816,0.33591
-0.14874,0.98014,0.13113,-0.06704,1.09406,0.35526
-0.14567,0.9777,0.15128,0.10479,0.49581,-0.17093
-0.14226,0.97775,0.15415,0.27665,0.03182,-0.66205
-0.13175,0.98177,0.13697,0.53235,-0.00367,-0.71598
-0.11433,0.98471,0.13143,0.28364,0.02686,-0.23419
-0.09756,0.98448,0.14587,0.02314,-0.00747,0.0478
-0.09264,0.98261,0.16088,-0.22473,-0.04505,-0.15242
-0.10009,0.98118,0.16513,-0.21464,-0.02059,-0.33415
-0.11304,0.98151,0.15444,0.00742,-0.01078,-0.22455
-0.12674,0.98293,0.13333,0.13417,-0.06887,-0.10831
-0.13504,0.9847,0.1101,0.25435,-0.08764,0.00512
-0.13604,0.98663,0.08977,0.303,-0.09081,0.04376
-0.13027,0.98862,0.07517,0.38573,-0.30514,0.06943
-0.1289,0.98933,0.06782,0.30534,-0.38513,0.01693
-0.13616,0.98856,0.06489,0.13496,-0.47693,-0.04379
-0.14838,0.98686,0.06387,-0.01511,-0.41562,-0.09968
-0.1602,0.98527,0.05981,-0.14445,-0.40473,-0.13591
-0.16856,0.98448,0.04873,-0.21284,-0.41313,-0.13433
-0.16973,0.98485,0.03561,-0.19718,-0.328,-0.01871
-0.16266,0.98622,0.03018,-0.11038,-0.24459,0.0964
-0.14836,0.98851,0.02873,0.0583,-0.10497,0.23737
-0.13001,0.99118,0.0257,0.16235,-0.06186,0.2745
-0.11234,0.99346,0.02048,0.08403,0.03996,0.2283
-0.10065,0.99481,0.01485,-0.03032,0.0909,0.21777
-0.09694,0.99527,0.00649,-0.22252,0.25362,0.22391
-0.10043,0.99493,-0.00415,-0.2803,0.11685,0.26123
-0.1063,0.99416,-0.01842,-0.36874,0.24093,0.1562
-0.11213,0.99314,-0.03314,-0.2934,0.76205,0.13034
-0.12161,0.99142,-0.04793,-0.28392,0.76377,0.14513
-0.13531,0.98863,-0.06553,0.03081,0.47574,-0.33512
-0.15039,0.98553,-0.07817,0.58356,0.12493,-0.41523
-0.16642,0.98277,-0.08046,0.59958,0.12769,-0.41293
-0.18082,0.98025,-0.08003,0.37966,-0.12385,-0.47613
-0.19498,0.9774,-0.08169,0.29794,0.0017,-0.36366
-0.2098,0.97459,-0.07847,0.31401,0.25968,-0.12003
-0.2281,0.97162,-0.06267,0.24365,0.56906,0.19864
-0.24671,0.96867,-0.0284,0.1065,0.65181,0.34526
-0.25488,0.96689,0.0127,0.07136,0.39372,0.06273
-0.25232,0.9667,0.04276,-0.06897,-0.07836,-0.15902
-0.24358,0.9682,0.05698,-0.25811,-0.3517,-0.1849
-0.23264,0.9709,0.05674,-0.29093,-0.45137,-0.18349
-0.22243,0.97367,0.0498,-0.18445,-0.47711,-0.13909
-0.21381,0.97554,0.05097,0.01678,-0.43862,-0.05335
-0.20798,0.97605,0.06375,0.09271,-0.50207,0.03672
-0.20353,0.97576,0.08038,0.15528,-0.68109,0.23268
-0.19913,0.97537,0.0948,0.16209,-0.69699,0.29434
-0.19554,0.97523,0.10341,0.08931,-0.68438,0.34607
-0.19018,0.97637,0.1026,0.0175,-0.48907,0.17275
-0.18574,0.97835,0.09123,-0.0207,-0.40738,0.06432
-0.18695,0.97938,0.07653,-0.03926,-0.02354,-0.15069
-0.19331,0.97826,0.07513,0.06194,0.35516,0.06122
-0.20126,0.97521,0.09199,0.11355,0.67088,0.23041
-0.20391,0.97333,0.10513,-0.21751,0.83269,0.31409
-0.19938,0.97491,0.09894,-0.20913,0.1095,0.23909
-0.18896,0.97747,0.09409,0.0689,0.16311,0.08793
-0.17875,0.97795,0.10801,0.15321,0.3145,0.41216
-0.17016,0.97771,0.12301,0.31175,0.78041,0.28384
-0.16084,0.97862,0.1282,0.03916,0.92962,0.1149
-0.15234,0.98002,0.12784,0.296,0.36742,-0.48084
-0.13605,0.98398,0.11517,0.56626,0.05996,-0.95442
-0.11571,0.98763,0.1058,0.44939,0.13766,-0.50873
-0.09923,0.98752,0.12227,0.27062,0.1559,-0.24467
-0.09127,0.98566,0.14189,-0.29479,-0.02045,-0.04479
-0.09327,0.98493,0.14567,-0.36831,-0.13834,-0.21396
-0.10328,0.98556,0.13417,-0.09289,-0.03892,-0.19394
-0.11812,0.9865,0.11344,0.12767,0.00366,-0.15012
-0.13115,0.98715,0.09127,0.30121,-0.07519,-0.05543
-0.13529,0.98831,0.07031,0.38027,-0.09397,0.01511
-0.13364,0.98967,0.05197,0.43463,-0.27198,0.12693
-0.12803,0.99091,0.04133,0.44785,-0.28879,0.15072
-0.13186,0.99033,0.04301,0.37233,-0.3155,0.12919
-0.14392,0.98836,0.04927,0.01849,-0.49134,0.05124
-0.15816,0.98628,0.04727,-0.15301,-0.49537,-0.05736
-0.16986,0.98495,0.03196,-0.24495,-0.5378,-0.1468
-0.17537,0.98445,0.01015,-0.2964,-0.55217,-0.16506
-0.17022,0.98538,-0.00635,-0.27567,-0.43681,-0.02098
-0.1544,0.98792,-0.01333,-0.14391,-0.2562,0.18085
-0.13288,0.99101,-0.01541,0.03019,-0.01063,0.30513
-0.111,0.99364,-0.01899,0.12236,0.02326,0.31362
-0.09431,0.99522,-0.02514,0.03187,0.17964,0.29985
-0.08649,0.99575,-0.03174,-0.15814,0.32513,0.34952
-0.0873,0.99538,-0.03992,-0.20775,0.22949,0.32398
-0.09317,0.99415,-0.05456,-0.31737,0.53331,-0.10612
-0.10223,0.99247,-0.06742,-0.41481,0.81528,-0.00181
-0.11566,0.9899,-0.08199,-0.34175,0.70946,-0.30737
-0.12818,0.98727,-0.09411,0.0951,0.56902,-0.45586
-0.14824,0.98441,-0.09463,0.52584,0.0575,-0.43598
-0.16753,0.98185,-0.08884,0.39223,-0.05716,-0.39985
-0.18479,0.9791,-0.08486,0.28883,0.06258,-0.29597
-0.20055,0.97611,-0.08353,0.34013,0.33829,-0.05594
-0.21499,0.97361,-0.0765,0.19366,0.59035,0.25169
-0.23206,0.97146,-0.04908,0.03655,0.58806,0.30936
-0.24536,0.96942,-0.00522,-0.01712,0.22315,0.00957
-0.24821,0.96824,0.02999,-0.10698,-0.21105,-0.19476
-0.24211,0.96935,0.04177,-0.18314,-0.32479,-0.22786
-0.23241,0.972,0.03449,-0.23935,-0.50069,-0.2341
-0.22174,0.9749,0.01989,-0.01818,-0.52668,-0.15061
-0.2106,0.97747,0.01387,0.17981,-0.48429,1e-05
-0.20259,0.97894,0.02507,0.2434,-0.49396,0.14832
-0.19765,0.97914,0.04715,0.22245,-0.53433,0.22235
-0.19403,0.97849,0.06997,0.12653,-0.71452,0.40129
-0.18903,0.97819,0.0861,0.08673,-0.71403,0.29651
-0.18532,0.97853,0.09015,-0.06267,-0.63085,0.06183
-0.18068,0.9801,0.08216,-0.11659,-0.21648,-0.11135
-0.18075,0.98086,0.07242,-0.12736,0.053,-0.09806
-0.1866,0.97948,0.07613,-0.01778,0.17889,0.02239
-0.19657,0.97605,0.09321,0.15443,0.50555,0.26486
-0.20178,0.97355,0.10711,-0.00014,0.72014,0.46177
-0.19398,0.97555,0.10332,0.21621,0.62589,0.1407
-0.17535,0.97961,0.09807,-0.01262,0.52465,0.12222
-0.16437,0.98,0.11216,-0.03672,0.54481,0.14849
-0.16348,0.97586,0.1448,0.01341,0.84029,0.2574
-0.16733,0.97042,0.17405,0.03399,0.51176,-0.17225
-0.16079,0.9721,0.17077,0.1186,0.25899,-0.43502
-0.14158,0.97845,0.15033,0.39488,0.07566,-0.60597
-0.11961,0.98107,0.15228,0.27953,0.13825,-0.41986
-0.10704,0.97986,0.16854,-0.14625,0.14159,-0.07949
-0.10783,0.97854,0.17557,-0.25538,-0.0305,-0.23764
-0.11711,0.97921,0.16561,-0.19062,-0.07876,-0.27995
-0.13059,0.98064,0.14588,0.09896,-0.02909,-0.14308
-0.14437,0.98138,0.12671,0.15188,-0.03387,-0.03992
-0.15009,0.98239,0.11125,0.22509,-0.15611,0.00235
-0.14799,0.98401,0.09913,0.41089,-0.29484,0.08525
-0.1418,0.98583,0.08958,0.41339,-0.37608,0.101
-0.14211,0.98626,0.08426,0.24717,-0.4621,0.02954
-0.15105,0.98496,0.08394,0.11722,-0.53412,0.01631
-0.16258,0.98319,0.08314,-0.19936,-0.41309,-0.11642
-0.17114,0.98245,0.07418,-0.23349,-0.39486,-0.14753
-0.17268,0.98314,0.06018,-0.2538,-0.358,-0.13336
-0.16509,0.98501,0.05008,-0.11061,-0.34395,0.09039
-0.15144,0.98745,0.04489,-0.03417,-0.33214,0.17058
-0.13212,0.99055,0.03684,0.19695,-0.05799,0.25407
-0.11133,0.99341,0.02711,0.20908,-0.00484,0.19645
-0.09502,0.99527,0.02027,0.01172,0.0098,0.17048
-0.08775,0.99603,0.01514,-0.18096,0.16314,0.22186
-0.08855,0.99604,0.00788,-0.32559,0.2481,0.20902
-0.09442,0.99553,-0.0036,-0.45768,0.33457,-0.08364
-0.10125,0.99473,-0.01614,-0.52615,0.54928,0.25474
-0.10866,0.99358,-0.03145,-0.38788,0.70233,-0.01081
-0.12104,0.99118,-0.05396,-0.12131,0.71126,-0.28499
-0.13951,0.98727,-0.07632,0.17949,0.49202,-0.44146
-0.15805,0.9831,-0.09238,0.43997,0.19035,-0.57319
-0.17809,0.97873,-0.10184,0.50259,0.01024,-0.62474
-0.19534,0.97486,-0.10717,0.3547,0.03814,-0.40348
-0.21228,0.97145,-0.10588,0.40283,0.24968,-0.13979
-0.227,0.96924,-0.09511,0.43038,0.36397,0.04698
-0.23709,0.9689,-0.07086,0.26944,0.51349,0.34392
-0.24043,0.97011,-0.03276,0.17472,0.32553,0.09578
-0.23684,0.97153,0.00571,-0.02382,-0.07222,-0.17916
-0.22908,0.97297,0.02922,-0.21636,-0.33417,-0.22469
-0.2196,0.97504,0.0328,-0.33572,-0.43748,-0.20111
-0.21069,0.97729,0.02264,-0.3587,-0.46746,-0.16054
-0.20228,0.97924,0.01313,-0.07843,-0.42319,-0.0234
-0.19583,0.98047,0.01807,0.1346,-0.4028,0.13138
-0.19231,0.98071,0.03504,0.15313,-0.50181,0.19038
-0.18969,0.98042,0.05289,0.20388,-0.48908,0.22013
-0.18974,0.9797,0.06465,0.12068,-0.52961,0.31738
-0.19284,0.97889,0.06775,0.12378,-0.5288,0.31429
-0.19734,0.97819,0.06482,-0.03771,-0.38615,0.15135
-0.20482,0.97693,0.06048,-0.14837,-0.3383,-0.03507
-0.20654,0.97682,0.05625,-0.09157,-0.2729,-0.08239
-0.20677,0.97693,0.05343,0.18547,0.01215,-0.00625
-0.20906,0.97592,0.06229,0.08374,0.48641,0.27463
-0.21098,0.97471,0.07371,-0.07732,0.7115,0.2978
-0.20082,0.97679,0.07446,-0.11246,0.60835,0.00845
-0.18283,0.97991,0.0797,-0.17551,0.43745,0.12741
-0.16958,0.98074,0.09693,-0.00225,0.48986,0.19558
-0.1656,0.9789,0.11974,0.06446,0.8245,0.41501
-0.16485,0.97791,0.12852,0.12878,0.34941,-0.22871
-0.15821,0.9801,0.11991,0.34363,0.11793,-0.53179
-0.14554,0.98321,0.11005,0.46609,0.13961,-0.71463
-0.1296,0.98406,0.12179,0.24267,-0.0334,-0.13967
-0.11692,0.98297,0.14174,0.04681,-0.07604,-0.07227
-0.11834,0.98135,0.15144,-0.13166,-0.0706,-0.06985
-0.12787,0.98117,0.14473,-0.1865,-0.05296,-0.35615
-0.13756,0.98237,0.12654,-0.08029,-0.06007,-0.23221
-0.14611,0.98347,0.10697,0.17301,0.00125,-0.00602
-0.15038,0.98456,0.08961,0.33369,-0.06744,0.06635
-0.14536,0.98642,0.07648,0.43711,-0.12495,0.11394
-0.13813,0.9881,0.0676,0.45939,-0.33599,0.11424
-0.13552,0.98885,0.06161,0.42939,-0.32672,0.06603
-0.14408,0.98783,0.05851,0.18395,-0.46261,0.03281
-0.15774,0.98584,0.05683,-0.11345,-0.33054,-0.06133
-0.17045,0.98403,0.05129,-0.22921,-0.30852,-0.1119
-0.17851,0.98305,0.04159,-0.24263,-0.31499,-0.10793
-0.17891,0.98328,0.03386,-0.21892,-0.4332,-0.02098
-0.17066,0.98487,0.02992,-0.14135,-0.45916,0.12454
-0.15338,0.98781,0.02634,-0.01322,-0.22048,0.23228
-0.1307,0.99117,0.02222,0.11329,-0.06713,0.25042
-0.10895,0.99386,0.01922,0.07504,-0.01432,0.10894
-0.09426,0.99541,0.01631,-0.14106,0.01481,0.11873
-0.08786,0.99608,0.01007,-0.24809,0.168,0.25207
-0.08943,0.99599,-0.00049,-0.27246,0.2603,0.22682
-0.09406,0.99544,-0.01567,-0.33012,0.37855,-0.01847
-0.09795,0.99476,-0.02919,-0.40376,0.59606,0.11237
-0.10473,0.99345,-0.04575,-0.38821,0.66752,-0.08311
-0.11818,0.99095,-0.06354,-0.29831,0.75683,-0.19305
-0.14004,0.98706,-0.07804,0.10951,0.61293,-0.361
-0.16117,0.98278,-0.09033,0.5322,0.40604,-0.53804
-0.1832,0.97814,-0.09841,0.49753,0.04639,-0.57167
-0.20257,0.97364,-0.10485,0.32578,-0.01868,-0.36618
-0.2196,0.97021,-0.10233,0.33514,0.19021,-0.03203
-0.23328,0.96881,-0.08356,0.33767,0.28946,0.12397
-0.241,0.96923,-0.05014,0.13688,0.38162,0.31993
-0.24105,0.97047,-0.00949,0.04264,0.14887,0.0711
-0.235,0.97173,0.0226,-0.06795,-0.20174,-0.16275
-0.22548,0.97354,0.03713,-0.16813,-0.34759,-0.19289
-0.21459,0.97611,0.03404,-0.22823,-0.41506,-0.18686
-0.20555,0.9784,0.02197,-0.23273,-0.42573,-0.16607
-0.19908,0.97983,0.01717,0.0758,-0.4094,0.01439
-0.19445,0.98056,0.02633,0.1473,-0.48858,0.08973
-0.19122,0.98063,0.04241,0.16609,-0.53106,0.13379
-0.1884,0.98037,0.05816,0.15156,-0.57306,0.28818
-0.18717,0.97981,0.07027,0.05408,-0.53448,0.28773
-0.18824,0.97911,0.07691,0.00403,-0.4864,0.25289
-0.19384,0.97786,0.07881,-0.14983,-0.11891,0.11958
-0.20044,0.97651,0.07908,-0.18652,0.03082,0.00909
-0.21021,0.97417,0.08249,-0.07336,0.00551,-0.05326
-0.21722,0.97166,0.0932,0.09645,0.18557,-0.00206
-0.22055,0.96972,0.10485,-0.17116,0.34079,0.23552
-0.21936,0.96982,0.10643,-0.21501,0.30873,0.28963
-0.21528,0.97138,0.10039,0.07773,0.29225,0.11566
-0.20481,0.97322,0.10433,0.01596,0.45642,0.32204
-0.19707,0.97362,0.11495,0.14522,0.63476,0.28462
-0.19239,0.97347,0.12384,0.06888,0.91927,0.2437
-0.19137,0.97224,0.13464,0.00614,0.88289,0.01196
-0.19107,0.97196,0.13701,0.24933,0.05334,-0.49933
-0.18545,0.97435,0.12743,0.60278,-0.16619,-0.80228
-0.17263,0.97695,0.12558,0.44228,0.07043,-0.3398
-0.15593,0.97862,0.13407,0.14622,0.12808,0.05869
-0.14803,0.97852,0.14345,-0.1229,0.13343,-0.12943
-0.15282,0.97724,0.1471,-0.15436,0.09412,-0.22787
-0.16316,0.97672,0.13924,-0.02521,0.05579,-0.23402
-0.17356,0.97715,0.12268,0.14888,-0.09309,-0.1363
-0.17826,0.97849,0.1038,0.20922,-0.10569,-0.09817
-0.17565,0.98067,0.08624,0.31662,-0.12248,-0.02997
-0.1689,0.98296,0.07246,0.40552,-0.29517,0.09392
-0.16115,0.98488,0.06359,0.38492,-0.28076,0.10513
-0.16516,0.9845,0.05905,0.14584,-0.43736,0.06947
-0.17642,0.98272,0.05591,0.00018,-0.42999,0.01704
-0.18967,0.98051,0.05116,-0.10017,-0.46115,-0.04834
-0.19958,0.97893,0.04324,-0.14531,-0.43774,-0.0789
-0.20416,0.97835,0.03373,-0.20681,-0.36867,-0.02277
-0.20053,0.97937,0.02495,-0.16419,-0.3808,0.0724
-0.18785,0.98205,0.01659,-0.0134,-0.22119,0.18161
-0.16828,0.98568,0.01043,0.07036,-0.04542,0.1961
-0.14849,0.98888,0.0076,0.0292,-0.05881,0.10842
-0.13298,0.9911,0.00511,-0.10087,0.0224,0.1034
-0.12558,0.99208,0.00034,-0.17985,0.18893,0.21087
-0.12596,0.992,-0.00861,-0.22894,0.22973,0.26902
-0.13039,0.99121,-0.02249,-0.27537,0.28873,-0.0004
-0.13421,0.99024,-0.03755,-0.30503,0.41586,0.06037
-0.13883,0.98908,-0.04932,-0.33521,0.68711,0.03835
-0.14832,0.98669,-0.06665,-0.28614,0.6822,0.01802
-0.15954,0.98368,-0.08313,0.15139,0.65235,-0.21706
-0.17475,0.97989,-0.09635,0.47026,0.27175,-0.35784
-0.18473,0.97698,-0.1067,0.54985,0.03236,-0.65099
-0.19615,0.97323,-0.11981,0.39819,-0.13776,-0.44892
-0.20995,0.96906,-0.1298,0.33262,0.17712,-0.18567
-0.2235,0.96635,-0.12732,0.37215,0.37184,0.08725
-0.23648,0.96555,-0.10861,0.27856,0.46098,0.31699
-0.24931,0.96562,-0.07369,0.17878,0.40163,0.24052
-0.25541,0.96629,-0.03239,0.00099,0.10077,-0.05985
-0.25224,0.96766,0.00028,-0.13484,-0.05813,-0.13483
-0.24592,0.96911,0.01881,-0.39558,-0.35551,-0.19206
-0.23851,0.97091,0.02123,-0.37436,-0.40044,-0.20363
-0.23038,0.97302,0.01245,-0.18514,-0.48181,-0.13231
-0.2208,0.97529,0.00693,0.02464,-0.47673,-0.02136
-0.21346,0.97686,0.01303,0.15868,-0.5596,0.14244
-0.20818,0.97772,0.02704,0.23275,-0.55822,0.27916
-0.20405,0.97809,0.04122,0.29451,-0.55119,0.37499
-0.20105,0.9782,0.05191,0.20993,-0.56934,0.36878
-0.20025,0.97803,0.05794,0.22283,-0.49821,0.27346
-0.20203,0.97754,0.05991,-0.02982,-0.46804,0.1083
-0.20196,0.97765,0.05841,-0.06811,-0.25026,-0.08197
-0.2059,0.97701,0.05526,-0.10009,-0.08845,-0.16812
-0.21296,0.97547,0.05565,0.02732,0.21061,0.11036
-0.22473,0.972,0.06862,-0.09102,0.70201,0.34761
-0.22745,0.97079,0.07632,-0.30694,0.77205,0.29102
-0.21245,0.97453,0.07174,0.19145,0.51602,0.00304
-0.19575,0.97743,0.07942,0.04972,0.40517,0.11504
-0.18402,0.97762,0.10189,0.16473,0.72835,0.4813
-0.18275,0.97568,0.12104,0.13954,0.83156,0.19265
-0.18372,0.97413,0.13162,0.12492,0.45991,-0.32628
-0.18074,0.97477,0.13093,0.50136,0.15691,-0.87486
-0.16843,0.97869,0.11745,0.38921,0.17196,-0.52008
-0.15038,0.98086,0.12368,0.05862,0.08005,-0.13151
-0.13449,0.98069,0.14198,0.11926,0.12962,0.04042
-0.13245,0.97996,0.14876,-0.20072,-0.09144,-0.26232
-0.13897,0.98077,0.137,-0.10778,-0.10161,-0.21918
-0.14809,0.98219,0.11563,0.23917,-0.05145,-0.05353
-0.15687,0.98316,0.09374,0.31039,-0.051,-0.02592
-0.16114,0.98413,0.07424,0.37966,-0.11136,-0.01533
-0.1589,0.98567,0.05662,0.40063,-0.2541,0.05782
-0.15397,0.98708,0.04439,0.35866,-0.41504,0.08103
-0.1534,0.98743,0.03801,0.22075,-0.42124,0.02626
-0.16115,0.98629,0.03547,0.02614,-0.43273,0.02872
-0.17292,0.98431,0.03507,-0.13048,-0.34571,-0.01994
-0.18374,0.98251,0.0303,-0.19744,-0.3915,-0.08131
-0.19057,0.98148,0.01934,-0.22753,-0.36709,-0.04119
-0.18937,0.98185,0.01052,-0.21681,-0.32421,0.05124
-0.18018,0.98361,0.00677,-0.07931,-0.27503,0.12379
-0.16482,0.98632,0.00231,0.04276,-0.14036,0.18493
-0.14698,0.98913,-0.00457,0.05814,-0.02073,0.26928
-0.13006,0.99144,-0.01123,0.01355,-0.03177,0.32897
-0.11812,0.99285,-0.01735,-0.06461,0.03116,0.3584
-0.11384,0.99318,-0.02488,-0.21697,0.28355,0.20278
-0.11527,0.99265,-0.03677,-0.21554,0.28408,0.21467
-0.12085,0.99126,-0.05281,-0.39832,0.61074,0.11371
-0.13053,0.98905,-0.06877,-0.3025,0.74506,-0.15535
-0.14672,0.98535,-0.08696,-0.28631,0.74877,-0.13716
-0.16575,0.98076,-0.10313,0.21665,0.60852,-0.34012
-0.17992,0.97709,-0.11366,0.58299,0.05317,-0.39596
-0.19409,0.97376,-0.11882,0.48924,-0.168,-0.46401
-0.20769,0.96996,-0.12662,0.29071,-0.13804,-0.3663
-0.22239,0.96629,-0.12968,0.30214,0.27258,0.00384
-0.23642,0.96408,-0.12106,0.28134,0.41495,0.16096
-0.25242,0.96293,-0.09515,0.17254,0.59037,0.36144
-0.26566,0.96253,-0.05434,0.18643,0.47471,0.15609
-0.26745,0.96344,-0.01609,0.18993,0.26634,-0.03819
-0.26123,0.96525,0.00737,-0.14719,-0.32352,-0.10744
-0.24944,0.96832,0.01187,-0.27699,-0.46073,-0.11085
-0.23755,0.97137,0.00174,-0.27731,-0.47651,-0.10147
-0.22879,0.97344,-0.00766,-0.05319,-0.4542,-0.02899
-0.22202,0.97503,-0.00389,0.06397,-0.46749,0.05606
-0.21744,0.97602,0.01015,0.07985,-0.51687,0.15943
-0.21162,0.97701,0.02559,0.1614,-0.57199,0.31626
-0.20685,0.97768,0.03682,0.09847,-0.62554,0.32026
-0.20276,0.97837,0.0409,0.0347,-0.47198,0.25956
-0.20007,0.97902,0.03868,-0.02909,-0.30778,0.17599
-0.2004,0.97911,0.03423,-0.10652,-0.1227,-0.0192
-0.20574,0.97809,0.03172,-0.00628,0.06756,-0.05314
-0.2117,0.97662,0.03722,0.17248,0.28979,0.09678
-0.21896,0.97459,0.04718,0.00043,0.73722,0.31599
-0.22212,0.9734,0.05614,-0.16803,0.71924,0.28134
-0.21658,0.97406,0.06549,-0.00485,0.41676,0.19329
-0.19939,0.9765,0.08173,0.13816,0.44488,0.31408
-0.18852,0.97693,0.10028,0.19579,0.65313,0.41327
-0.18421,0.97532,0.12173,-0.0107,0.82424,0.22272
-0.18437,0.97351,0.13523,0.18588,0.13211,-0.42992
-0.18019,0.97462,0.13284,0.53268,0.07537,-0.83165
-0.16777,0.97754,0.12755,0.35623,0.17485,-0.37363
-0.15036,0.97967,0.13283,0.10447,0.10249,0.0024
-0.13745,0.98038,0.14129,-0.12996,0.03641,-0.08346
-0.13846,0.98049,0.13951,-0.22862,-0.0761,-0.34343
-0.14627,0.98149,0.12359,-0.05641,-0.04888,-0.25674
-0.15529,0.98286,0.09936,0.09998,-0.09939,-0.14338
-0.16303,0.98407,0.07087,0.22983,-0.09006,-0.0127
-0.16836,0.98465,0.04597,0.31672,-0.14745,0.12306
-0.1694,0.98514,0.0283,0.43734,-0.24585,0.19354
-0.16418,0.98626,0.01797,0.39882,-0.42068,0.15522
-0.16381,0.98643,0.01114,0.2429,-0.41416,0.06899
-0.17285,0.98492,0.0068,0.02243,-0.41839,0.04853
-0.18512,0.9827,0.00599,-0.11511,-0.34302,-0.02401
-0.1969,0.98041,0.00441,-0.21127,-0.33182,-0.07752
-0.20546,0.97867,-0.00089,-0.26241,-0.30899,-0.05328
-0.20628,0.97847,-0.00647,-0.23867,-0.36093,0.02865
-0.19819,0.98009,-0.01208,-0.10009,-0.38814,0.13532
-0.18217,0.98306,-0.02004,-0.02376,-0.27498,0.19764
-0.16313,0.98626,-0.02606,0.14757,-0.0156,0.26876
-0.14513,0.98897,-0.02961,0.01347,0.01826,0.31141
-0.13382,0.99047,-0.03259,0.00215,0.01677,0.31439
-0.1307,0.99069,-0.03815,-0.20603,0.26699,0.37598
-0.13265,0.98987,-0.05054,-0.31528,0.46691,0.01202
-0.13758,0.98805,-0.06941,-0.38879,0.59271,0.0032
-0.14579,0.98563,-0.08525,-0.39042,0.7794,0.01772
-0.15801,0.98232,-0.1004,-0.0874,0.68254,-0.3193
-0.17202,0.9787,-0.11202,0.09487,0.6754,-0.38987
-0.18499,0.97554,-0.11876,0.55305,0.13326,-0.37967
-0.19656,0.97266,-0.12366,0.46847,-0.12156,-0.47656
-0.21236,0.96855,-0.12963,0.24753,-0.1514,-0.3979
-0.22906,0.96469,-0.12998,0.28323,0.08207,-0.18092
-0.24673,0.96166,-0.11973,0.37364,0.42821,0.09429
-0.26472,0.95952,-0.09608,0.28975,0.65443,0.28416
-0.27479,0.95957,-0.06092,0.27658,0.51128,0.18438
-0.27175,0.96199,-0.02679,0.17124,0.00912,-0.09071
-0.26298,0.96479,-0.00299,-0.06877,-0.32101,-0.12567
-0.25014,0.96819,0.00608,-0.24498,-0.45116,-0.08663
-0.2379,0.97128,0.00263,-0.29857,-0.52091,-0.05947
-0.22983,0.97322,-0.00263,-0.11592,-0.48772,-0.02942
-0.22396,0.9746,0.00139,0.05712,-0.51451,0.08198
-0.21981,0.97544,0.01406,0.08309,-0.52682,0.13679
-0.21667,0.97581,0.029,0.13505,-0.53132,0.3067
-0.21494,0.97569,0.04266,0.13938,-0.44048,0.41237
-0.21597,0.97503,0.05168,0.06831,-0.33271,0.32448
-0.21871,0.97423,0.05517,0.02705,-0.27771,0.24624
-0.22318,0.97315,0.05624,-0.06107,-0.15915,-0.0729
-0.22986,0.97138,0.05987,0.00177,-0.10692,-0.12747
-0.2373,0.96879,0.07158,0.10398,0.11676,0.10073
-0.24283,0.96616,0.087,-0.00068,0.60998,0.46122
-0.24203,0.96503,0.10066,-0.15923,0.63623,0.55185
-0.23529,0.96572,0.10959,0.10427,0.49703,0.1107
-0.21682,0.96956,0.11369,0.0126,0.51147,0.27899
-0.20179,0.9716,0.12361,0.15067,0.8049,0.40715
-0.19503,0.97062,0.14087,0.09284,0.94594,0.26616
-0.19294,0.96821,0.15918,0.11268,0.60032,-0.07392
-0.18798,0.96903,0.16014,0.44372,-0.12102,-0.68663
-0.17652,0.97291,0.14923,0.41612,0.05571,-0.62281
-0.16214,0.97502,0.15183,0.17878,0.11573,-0.14269
-0.14967,0.97479,0.16547,-0.1231,0.01293,-0.0317
-0.14721,0.97367,0.17406,-0.37538,-0.10518,-0.27004
-0.15323,0.97377,0.1682,-0.38465,-0.10969,-0.3319
-0.16147,0.97556,0.149,-0.03115,0.00901,-0.15232
-0.16939,0.97772,0.12392,0.14684,-0.03472,-0.08533
-0.17665,0.97951,0.09669,0.23643,-0.04042,-0.03312
-0.17734,0.98152,0.07189,0.50292,-0.1952,0.15482
-0.17069,0.98386,0.05375,0.48218,-0.28865,0.18134
-0.16826,0.98483,0.04234,0.43855,-0.32257,0.13832
-0.17435,0.98398,0.03714,-0.00952,-0.44614,0.05832
-0.18791,0.98155,0.03514,0.00404,-0.44371,0.06032
-0.20058,0.97922,0.0298,-0.19576,-0.42273,-0.09717
-0.20918,0.97773,0.01671,-0.22699,-0.41146,-0.10814
-0.20863,0.97799,0.00151,-0.21157,-0.3784,-0.05809
-0.19778,0.9802,-0.00922,-0.07654,-0.39304,0.08971
-0.17747,0.98399,-0.01648,0.16419,0.04999,0.2225
-0.15542,0.98767,-0.01851,0.2057,0.03288,0.24805
-0.13441,0.99079,-0.01631,0.22193,0.01753,0.27667
-0.12199,0.99241,-0.01555,-0.10126,0.1782,0.35573
-0.11899,0.99268,-0.02066,-0.14035,0.20599,0.37013
-0.122,0.99197,-0.03322,-0.1984,0.26393,0.2896
-0.12596,0.9906,-0.05328,-0.40947,0.36595,-0.03162
-0.1302,0.98903,-0.06979,-0.38205,0.61191,0.0863
-0.13573,0.98724,-0.08319,-0.33862,0.75993,-0.03406
-0.14402,0.98489,-0.09613,-0.13722,0.67144,-0.32701
-0.15507,0.98221,-0.10585,0.20992,0.42738,-0.40313
-0.16589,0.97963,-0.11316,0.35165,-0.12394,-0.4793
-0.17744,0.97594,-0.12672,0.23848,-0.19238,-0.45787
-0.19157,0.97127,-0.1412,0.1008,-0.12158,-0.28224
-0.20515,0.9681,-0.14385,0.32722,0.37652,0.10537
-0.21812,0.96754,-0.12761,0.26439,0.52181,0.286
-0.23059,0.96877,-0.09112,0.21146,0.46789,0.29296
-0.23641,0.97062,-0.0448,0.11714,0.00831,-0.04474
-0.23087,0.97294,-0.0092,0.0049,-0.18777,-0.16504
-0.21972,0.97555,0.00416,-0.1762,-0.41491,-0.19158
-0.20772,0.97818,-0.00204,-0.30735,-0.38626,-0.11012
-0.20064,0.97957,-0.01361,-0.255,-0.35335,-0.06353
-0.19524,0.98064,-0.01492,-0.08215,-0.31334,-0.00174
-0.1914,0.9815,-0.00334,0.07188,-0.42192,0.09749
-0.18845,0.982,0.01238,0.15322,-0.50391,0.19438
-0.18705,0.98202,0.02524,0.15477,-0.557,0.32191
-0.18829,0.98158,0.03225,0.12661,-0.55234,0.31732
-0.19326,0.98057,0.03347,0.05799,-0.45415,0.25822
-0.20217,0.97878,0.03339,-0.04052,-0.32054,0.21749
-0.2109,0.97682,0.03657,-0.06353,-0.11101,0.07908
-0.21465,0.97573,0.04331,-0.01626,-0.05767,-0.02869
-0.21987,0.97397,0.05515,0.11937,0.12079,0.01023
-0.22345,0.97236,0.06766,0.11847,0.36864,0.10017
-0.2258,0.97099,0.07866,-0.34678,0.59293,0.31988
-0.22337,0.97155,0.0787,-0.14292,0.32339,0.06826
-0.20981,0.97425,0.08259,0.02521,0.41697,0.12557
-0.2007,0.97435,0.10176,0.02174,0.62036,0.4033
-0.20059,0.97241,0.1191,-0.03334,1.12645,0.40403
-0.20533,0.96974,0.13207,0.00782,0.6424,-0.06458
-0.2073,0.96932,0.13207,0.39903,-0.04607,-0.69271
-0.19787,0.97219,0.12529,0.51083,0.16983,-0.65071
-0.18396,0.97327,0.13746,0.27177,0.1087,-0.11936
-0.16987,0.97266,0.15831,0.12766,-0.09594,0.08022
-0.16446,0.97167,0.16974,-0.03401,-0.09625,-0.00905
-0.17182,0.97159,0.16272,-0.28016,-0.08732,-0.32964
-0.1809,0.97309,0.14272,-0.05732,-0.07248,-0.18184
-0.18857,0.97506,0.11701,0.08643,-0.08314,-0.07459
-0.19314,0.97692,0.09123,0.20955,0.00338,-0.04347
-0.19492,0.9785,0.06738,0.34319,-0.3327,0.10907
-0.18853,0.98081,0.04969,0.43329,-0.23841,0.13546
-0.18304,0.98234,0.03872,0.39105,-0.28169,0.11914
-0.18643,0.9819,0.03326,0.13551,-0.46306,0.09221
-0.19515,0.98025,0.03204,0.06816,-0.42799,0.07681
-0.20492,0.9783,0.03069,-0.08032,-0.35343,-0.00395
-0.21262,0.97681,0.02519,-0.18654,-0.33543,-0.04208
-0.21489,0.97648,0.01764,-0.19907,-0.36626,-0.01118
-0.20847,0.97798,0.00971,-0.03051,-0.39682,0.07595
-0.19274,0.98125,-6e-05,0.02969,-0.28854,0.13962
-0.17012,0.98541,-0.00424,0.12294,0.02635,0.22799
-0.14822,0.98895,-0.00146,0.01346,0.00121,0.15965
-0.13527,0.9908,0.00085,-0.25125,0.04792,0.21569
-0.13287,0.99113,-0.00187,-0.28514,0.18599,0.28483
-0.13778,0.99037,-0.01315,-0.22562,0.24042,0.24699
-0.14203,0.98935,-0.0319,-0.23416,0.34046,0.00904
-0.14535,0.98818,-0.04869,-0.35758,0.59387,0.20076
-0.15129,0.98649,-0.0629,-0.29766,0.58216,0.03191
-0.16151,0.98368,-0.07921,-0.08145,0.68125,-0.19242
-0.1733,0.98043,-0.09341,0.2887,0.52093,-0.34076
-0.18584,0.97679,-0.1065,0.44487,0.30454,-0.3595
-0.2002,0.97278,-0.11666,0.44434,-0.16173,-0.51539
-0.21719,0.96814,-0.12459,0.20827,-0.0524,-0.31227
-0.23609,0.96363,-0.12519,0.25088,0.26397,-0.11152
-0.25554,0.96031,-0.11176,0.25433,0.54951,0.19118
-0.2743,0.95842,-0.07869,0.14252,0.57176,0.35707
-0.2868,0.95744,-0.03226,0.09251,0.29834,0.13128
-0.28557,0.95832,0.00806,-0.0652,-0.25375,-0.11149
-0.27602,0.96064,0.03141,-0.14953,-0.34145,-0.1161
-0.26129,0.96452,0.0378,-0.22933,-0.40901,-0.12421
-0.24561,0.96885,0.0315,-0.11859,-0.48274,-0.09249
-0.23385,0.97197,0.02417,-0.00078,-0.474,-0.02528
-0.22568,0.97375,0.02935,0.06194,-0.46866,0.024
-0.22125,0.97421,0.04422,0.13567,-0.61309,0.24676
-0.2178,0.97414,0.06001,0.15783,-0.60541,0.3046
-0.21561,0.97385,0.07164,0.16525,-0.58311,0.35656
-0.21629,0.97329,0.07697,0.0163,-0.40081,0.30044
-0.22046,0.97237,0.07676,-0.02283,-0.31329,0.2268
-0.22614,0.97129,0.07385,-0.04653,-0.21534,0.14319
-0.23187,0.97003,0.07259,0.08517,0.06128,-0.10452
-0.2383,0.96812,0.07719,0.09128,0.12308,-0.04137
-0.24289,0.9663,0.08527,0.12138,0.42476,0.11056
-0.24092,0.96649,0.08862,-0.2525,0.56591,0.29971
-0.23,0.97009,0.07762,-0.09203,0.15296,0.11556
-0.21268,0.97385,0.0798,-0.01017,0.43954,0.23317
-0.20017,0.97415,0.10468,-0.10537,0.60794,0.52566
-0.19811,0.97176,0.12818,-0.00241,0.93863,0.55677
-0.20403,0.96843,0.14323,0.11021,0.61788,0.06591
-0.2093,0.96736,0.14281,0.3367,-0.06517,-0.61104
-0.2005,0.97129,0.12806,0.62055,-0.04465,-0.86884
-0.18532,0.97502,0.12242,0.32725,0.11754,-0.06514
-0.17282,0.97512,0.13881,0.00371,0.0966,0.13115
-0.16808,0.97265,0.16031,-0.1579,0.10784,0.00032
-0.17379,0.97069,0.16597,-0.23385,0.04476,-0.21995
-0.18214,0.97138,0.15245,0.0114,-0.02997,-0.13174
-0.18895,0.97347,0.12899,0.12975,-0.02334,-0.06085
-0.1954,0.97532,0.10275,0.34046,-0.29309,-0.00895
-0.19548,0.97777,0.07583,0.46431,-0.21903,0.0538
-0.19208,0.97994,0.05303,0.43149,-0.30135,0.16496
-0.19129,0.9808,0.03795,0.27335,-0.30625,0.09905
-0.19891,0.97951,0.03131,0.19043,-0.38828,0.0804
-0.21107,0.97702,0.02971,0.01746,-0.39991,-0.0605
-0.22124,0.97487,0.02586,-0.05186,-0.38434,-0.11727
-0.22602,0.97396,0.01753,-0.12013,-0.32334,-0.03408
-0.22276,0.97482,0.00955,-0.18005,-0.24461,0.06099
-0.2124,0.97716,0.0059,-0.09106,-0.29634,0.1679
-0.19756,0.98029,0.00047,0.07938,-0.28459,0.24143
-0.17832,0.98393,-0.00889,0.08199,-0.11184,0.2962
-0.16022,0.98694,-0.01632,0.03775,-0.20253,0.24978
-0.14847,0.98864,-0.02334,-0.20039,-0.06141,0.2613
-0.14391,0.98903,-0.03335,-0.32252,0.04935,0.31383
-0.14526,0.98825,-0.0475,-0.32091,0.1653,0.24939
-0.14979,0.9864,-0.06755,-0.34378,0.35034,0.05821
-0.15567,0.98407,-0.08586,-0.37,0.5396,0.15094
-0.16447,0.981,-0.10289,-0.33588,0.81578,-0.06801
-0.17648,0.97717,-0.11824,0.14511,0.67787,-0.33134
-0.19274,0.97262,-0.12982,0.16137,0.68242,-0.31977
-0.2099,0.96778,-0.13908,0.60631,0.10835,-0.53612
-0.22849,0.96201,-0.14941,0.37036,0.00535,-0.27872
-0.2521,0.95492,-0.15675,0.3576,0.21424,-0.13184
-0.27485,0.94928,-0.15267,0.42387,0.34556,0.02506
-0.2924,0.94717,-0.13175,0.28336,0.68218,0.36922
-0.30289,0.9485,-0.09274,0.22601,0.57669,0.24108
-0.30332,0.95186,-0.04432,0.06168,0.07366,-0.1408
-0.29821,0.95449,-0.00401,-0.22894,-0.3167,-0.23154
-0.28877,0.95723,0.01784,-0.30273,-0.37271,-0.18875
-0.27666,0.96073,0.02132,-0.3449,-0.48881,-0.13402
-0.26409,0.96444,0.01083,-0.15825,-0.63156,-0.05464
-0.25242,0.96761,0.00258,0.02403,-0.56664,0.06926
-0.24501,0.96948,0.00847,0.12878,-0.54878,0.18113
-0.24021,0.97048,0.02159,0.20579,-0.53314,0.30275
-0.23625,0.97107,0.03462,0.22696,-0.5278,0.38725
-0.23229,0.97173,0.04224,0.14977,-0.51282,0.34129
-0.22873,0.97257,0.04229,0.08919,-0.37755,0.22785
-0.22725,0.97302,0.03972,-0.05518,-0.17108,0.13078
-0.23363,0.97127,0.04513,-0.10442,0.09087,0.05005
-0.24628,0.96706,0.06427,-0.01619,0.18516,0.06687
-0.25328,0.96377,0.08364,0.18038,0.42525,0.21482
-0.25034,0.96371,0.09271,-0.03799,0.36195,0.30885
-0.2417,0.96656,0.08568,0.06697,0.18768,0.17154
-0.22411,0.97154,0.07666,0.14495,0.65123,0.3233
-0.21087,0.97371,0.08607,0.08805,1.21902,0.44504
-0.20279,0.97375,0.10334,0.01223,1.26331,0.36021
-0.19527,0.97449,0.1106,0.08805,0.77724,0.03982
-0.18512,0.9769,0.10674,0.55436,-0.21493,-0.7362
-0.17266,0.97946,0.1041,0.48996,-0.08328,-0.47269
-0.16436,0.97955,0.11605,0.22503,-0.05782,-0.03596
-0.15818,0.97839,0.13315,-0.17361,-0.01478,0.06728
-0.16004,0.97664,0.14339,-0.44016,0.06424,-0.13167
-0.16854,0.97526,0.14299,-0.33445,0.07031,-0.28063
-0.18115,0.97483,0.12996,-0.01162,-0.04549,-0.2103
-0.19051,0.97573,0.10797,0.17471,-0.04987,-0.12006
-0.19447,0.97729,0.08419,0.309,-0.03913,0.01802
-0.19126,0.97948,0.0635,0.42713,-0.12566,0.16301
-0.18512,0.98158,0.04714,0.48406,-0.32065,0.21984
-0.1827,0.98243,0.03809,0.39067,-0.4533,0.1329
-0.18898,0.98133,0.03573,0.31584,-0.5519,0.08586
-0.20063,0.97901,0.03569,-0.06974,-0.45877,-0.03019
-0.21143,0.97685,0.03254,-0.05894,-0.4566,-0.02704
-0.21783,0.97571,0.0232,-0.24987,-0.4088,-0.0377
-0.21659,0.97618,0.01243,-0.25457,-0.41443,0.02129
-0.20556,0.97864,0.00202,-0.2288,-0.39475,0.10415
-0.18527,0.98264,-0.00886,-0.08251,-0.0989,0.25282
-0.1594,0.98703,-0.01898,0.08931,0.03479,0.27398
-0.13397,0.99057,-0.02845,0.08762,-0.01917,0.17559
-0.11583,0.9926,-0.0362,-0.18413,0.07304,0.17086
-0.1101,0.99292,-0.04444,-0.30357,0.13484,0.24138
-0.11548,0.99174,-0.05572,-0.36474,0.22255,0.24625
-0.12558,0.9895,-0.07143,-0.42111,0.44743,0.05177
-0.13568,0.9871,-0.08491,-0.42717,0.68917,0.20106
-0.14806,0.98389,-0.10019,-0.41165,0.6973,-0.06444
-0.16685,0.97886,-0.11826,-0.08896,0.8202,-0.14747
-0.18657,0.97371,-0.13065,0.26717,0.62463,-0.29661
-0.20309,0.96998,-0.13374,0.60559,0.14638,-0.39151
-0.21853,0.96623,-0.13654,0.46229,-0.06773,-0.44078
-0.23457,0.96233,-0.13743,0.31372,-0.0627,-0.23667
-0.24966,0.95964,-0.12941,0.32881,-0.06001,-0.24469
-0.2623,0.95865,-0.11039,0.3398,0.42082,0.22677
-0.27359,0.9589,-0.07518,0.20871,0.41489,0.24443
-0.28246,0.95877,-0.03117,0.1128,0.05643,-0.01439
-0.28211,0.95937,0.00266,-0.12912,-0.29215,-0.10551
-0.27581,0.96102,0.01879,-0.27144,-0.34876,-0.14175
-0.26464,0.96413,0.02011,-0.30746,-0.37791,-0.12111
-0.252,0.96759,0.01597,-0.20648,-0.38124,-0.07208
-0.24009,0.97062,0.01572,-0.01446,-0.41947,0.01635
-0.23001,0.97287,0.02462,0.08358,-0.49512,0.12126
-0.22388,0.97386,0.03829,0.15251,-0.61612,0.24193
-0.22052,0.97408,0.05025,0.19065,-0.58741,0.32294
-0.22144,0.97341,0.05855,0.12393,-0.55799,0.32393
-0.22527,0.97223,0.06333,0.09029,-0.39666,0.24614
-0.23078,0.97079,0.06558,0.01694,-0.21261,0.16582
-0.23376,0.96994,0.06758,-0.03727,-0.05914,0.04715
-0.23347,0.96973,0.07146,0.0378,-0.00954,0.01677
-0.23438,0.96884,0.08005,0.09332,0.19689,0.14783
-0.23426,0.96831,0.08659,0.03164,0.41275,0.26024
-0.2293,0.96969,0.08441,-0.32974,0.31306,0.29412
-0.21911,0.97308,0.07139,-0.13929,0.04369,0.16021
-0.20438,0.97642,0.0694,0.16465,0.49117,0.35728
-0.1947,0.97661,0.09123,-0.0475,0.52077,0.60441
-0.1943,0.97522,0.1058,0.1121,0.97377,0.35508
-0.20074,0.97264,0.11693,0.01266,1.07915,0.25395
-0.2065,0.97071,0.12271,0.46627,0.10956,-0.77272
-0.19326,0.97574,0.10285,0.64831,0.12944,-0.82276
-0.17456,0.97965,0.09902,0.49211,0.16552,-0.54093
-0.16573,0.97835,0.12394,-0.00165,0.03726,0.19779
-0.16736,0.97479,0.1475,-0.27859,-0.06185,-0.1434
-0.17878,0.97288,0.14672,-0.21636,-0.02583,-0.18653
-0.19361,0.97336,0.12277,-0.07846,-0.01201,-0.15865
-0.20563,0.97437,0.09112,0.20295,-0.12094,-0.01521
-0.21547,0.97453,0.0621,0.2128,-0.12109,0.01382
-0.21522,0.97587,0.03674,0.46851,-0.17399,0.05141
-0.20951,0.97766,0.01663,0.50463,-0.26048,0.09799
-0.20376,0.97901,0.00411,0.34595,-0.30332,0.10809
-0.20518,0.97872,0.00164,0.15174,-0.42284,0.1054
-0.21371,0.97688,0.00576,-0.00622,-0.39146,0.04724
-0.22344,0.97468,0.0075,-0.05307,-0.38975,-0.05779
-0.23028,0.97312,-0.00266,-0.10629,-0.50466,-0.04905
-0.23064,0.97286,-0.01846,-0.18582,-0.42301,0.06486
-0.22191,0.97463,-0.02893,-0.2135,-0.41949,0.15382
-0.20541,0.97793,-0.03801,-0.08023,-0.29295,0.21907
-0.1849,0.9816,-0.04766,-0.02075,0.00824,0.25236
-0.16378,0.98483,-0.05727,0.03672,0.06045,0.27676
-0.14842,0.98672,-0.06595,-0.13842,0.17312,0.37854
-0.14001,0.98743,-0.07325,-0.24332,0.32171,0.41841
-0.13797,0.98688,-0.08382,-0.2804,0.42198,0.06687
-0.14357,0.98485,-0.09723,-0.37762,0.76102,0.12769
-0.15807,0.9809,-0.11326,-0.41047,0.7476,0.03784
-0.17878,0.97548,-0.12834,-0.27818,0.66762,-0.14508
-0.19776,0.97022,-0.13986,0.24883,0.22574,-0.4807
-0.21311,0.96588,-0.14716,0.39418,0.08266,-0.50979
-0.23065,0.96244,-0.14318,0.44444,0.05694,-0.46755
-0.24697,0.95986,-0.13287,0.35253,0.1044,-0.11697
-0.26131,0.95748,-0.12222,0.34679,0.3424,0.09861
-0.27271,0.95603,-0.10788,0.29163,0.54216,0.20371
-0.28612,0.95465,-0.08223,0.28823,0.5543,0.13078
-0.29641,0.95366,-0.05165,0.13363,0.23029,-0.06548
-0.30229,0.95285,-0.02633,-0.05958,-0.12693,-0.07288
-0.30482,0.95236,-0.0097,-0.16566,-0.28892,-0.02428
-0.3006,0.95374,-0.00202,-0.15389,-0.3789,-0.00244
-0.29063,0.95683,-0.00102,-0.02289,-0.38775,0.01086
-0.27759,0.96069,-0.00162,0.04162,-0.39898,0.02782
-0.26465,0.96434,0.00109,0.1586,-0.41456,0.1519
-0.254,0.96717,0.00722,0.19028,-0.4576,0.24975
-0.24615,0.96914,0.01303,0.16153,-0.50895,0.28792
-0.24129,0.9703,0.01673,0.10093,-0.50057,0.26262
-0.23818,0.97102,0.01934,0.0386,-0.42514,0.22709
-0.2378,0.971,0.02456,-0.03213,-0.32021,0.1889
-0.24327,0.96932,0.03491,-0.10484,-0.169,0.10631
-0.25364,0.96593,0.05141,-0.12159,-0.05024,0.0966
-0.26656,0.96101,0.07338,-0.09094,0.3996,0.21573
-0.27656,0.9565,0.09274,0.15719,0.36652,0.14947
-0.27686,0.95595,0.0975,0.25568,0.53993,0.12641
-0.26437,0.96025,0.0896,-0.01932,0.75915,0.33119
-0.24818,0.96531,0.08108,-0.08672,0.69752,0.39379
-0.2343,0.96889,0.07963,0.03091,0.57481,0.29511
-0.22193,0.97146,0.08372,0.39916,0.33103,-0.06861
-0.21457,0.97274,0.08793,0.47354,0.17422,-0.27691
-0.21329,0.972,0.09851,0.43357,0.06532,-0.3277
-0.21186,0.97072,0.11313,0.2371,-0.17563,-0.29171
-0.20922,0.96948,0.12777,-0.10473,-0.03506,-0.12558
-0.20912,0.96797,0.13888,-0.25501,0.05116,-0.10923
-0.21184,0.9667,0.14354,-0.41823,0.06252,-0.21079
-0.21483,0.96699,0.13698,-0.14768,0.09188,-0.10492
-0.21591,0.96867,0.12265,-0.00041,0.12432,-0.05158
-0.21392,0.97113,0.1055,0.29961,0.04146,0.0455
-0.20744,0.97433,0.08737,0.43525,-0.1128,0.11352
-0.20126,0.97719,0.06764,0.46992,-0.31449,0.14367
-0.19833,0.97885,0.0501,0.40376,-0.31736,0.10025
-0.20391,0.97815,0.04032,0.21815,-0.41913,0.05015
-0.21574,0.9757,0.03813,0.06911,-0.43702,-0.00923
-0.22932,0.97261,0.03788,-0.06371,-0.37303,-0.05303
-0.2383,0.97064,0.03245,-0.16468,-0.32611,-0.0716
-0.2407,0.97035,0.02157,-0.17908,-0.35718,-0.02493
-0.23423,0.97215,0.00741,-0.157,-0.39893,0.02979
-0.21779,0.97593,-0.01058,0.03943,-0.37786,0.20509
-0.19226,0.98079,-0.03278,0.07915,-0.28951,0.27599
-0.16676,0.98462,-0.05199,0.14778,-0.0882,0.27693
-0.147,0.98719,-0.06193,0.10187,-0.06826,0.24797
-0.13355,0.98882,-0.06629,-0.20147,0.10812,0.20986
-0.12789,0.98919,-0.07162,-0.31949,0.17876,0.28246
-0.12826,0.98839,-0.08138,-0.40566,0.261,0.02349
-0.13187,0.98674,-0.09457,-0.46964,0.51332,0.09721
-0.13821,0.98459,-0.10706,-0.45427,0.65791,0.10193
-0.15008,0.98124,-0.12094,-0.36568,0.78099,0.01234
-0.16869,0.97689,-0.13124,-0.03193,0.65202,-0.11453
-0.1852,0.97287,-0.13863,0.36585,0.36336,-0.33505
-0.19609,0.96923,-0.14877,0.44521,0.04701,-0.49129
-0.20873,0.96469,-0.16062,0.3499,-0.14685,-0.28666
-0.22203,0.96117,-0.16383,0.29902,0.04072,-0.06328
-0.23277,0.96018,-0.15448,0.33709,0.23535,0.15475
-0.23994,0.96178,-0.13188,0.33607,0.35975,0.20655
-0.24543,0.96436,-0.09881,0.1614,0.38485,0.17077
-0.24807,0.96666,-0.06343,-0.05598,0.07868,-0.05727
-0.24926,0.96767,-0.03836,-0.23826,-0.14716,-0.16684
-0.24821,0.96822,-0.03036,-0.33675,-0.21664,-0.18071
-0.24502,0.96883,-0.03622,-0.32283,-0.26676,-0.10256
-0.23862,0.97006,-0.04501,-0.10886,-0.35803,0.02043
-0.2284,0.97254,-0.04458,0.13655,-0.40793,0.10168
-0.21875,0.97515,-0.03496,0.25193,-0.46961,0.20195
-0.21105,0.97715,-0.02488,0.31064,-0.50061,0.31113
-0.20698,0.97815,-0.01942,0.26313,-0.55075,0.36985
-0.20783,0.97798,-0.0186,0.14666,-0.54858,0.35263
-0.21281,0.97688,-0.02025,0.09642,-0.47898,0.30713
-0.22054,0.97512,-0.02198,-0.07162,-0.34523,0.18988
-0.22541,0.97403,-0.02099,-0.07918,-0.28511,0.07589
-0.22391,0.97445,-0.01711,0.03149,-0.10105,-0.02351
-0.22958,0.97327,-0.00469,0.05798,0.00665,0.00458
-0.23606,0.97171,0.00642,0.0681,0.57815,0.38015
-0.23606,0.97167,0.0109,-0.044,0.77885,0.22458
-0.22393,0.97456,0.00851,0.07939,0.77068,0.11914
-0.20629,0.9783,0.01898,-0.21531,0.80261,0.37722
-0.20048,0.97873,0.04332,-0.27134,0.97796,0.50224
-0.20425,0.97667,0.06615,-0.04671,0.64288,0.29768
-0.20674,0.97577,0.0716,0.27295,-0.05127,-0.25222
-0.20348,0.97601,0.0773,0.4331,-0.17558,-0.49567
-0.19727,0.97615,0.09057,0.20814,0.06793,-0.44021
-0.18607,0.97752,0.09913,-0.05014,-0.06141,-0.0876
-0.17635,0.97876,0.10448,-0.19761,-0.04376,-0.13857
-0.17426,0.97941,0.1018,-0.34594,-0.05286,-0.25163
-0.17776,0.98011,0.08814,-0.00448,-0.09004,-0.11429
-0.18225,0.98096,0.06699,0.13591,-0.08707,-0.05279
-0.18522,0.98192,0.03899,0.32755,0.04122,0.08891
-0.18609,0.98242,0.01462,0.39497,-0.10025,0.15538
-0.183,0.98309,-0.00494,0.42819,-0.32059,0.15412
-0.17895,0.98364,-0.02039,0.34863,-0.42058,0.11877
-0.18005,0.98319,-0.03016,0.177,-0.54273,0.08655
-0.18803,0.98159,-0.03346,0.00752,-0.49166,0.07388
-0.19805,0.97961,-0.03368,-0.09144,-0.4506,0.01054
-0.20521,0.97786,-0.04073,-0.14379,-0.43439,-0.07288
-0.20576,0.977,-0.0559,-0.08073,-0.45143,-0.04918
-0.19502,0.97857,-0.06595,-0.08884,-0.22027,0.17945
-0.17599,0.98209,-0.06713,-0.0244,0.00689,0.29135
-0.15562,0.98555,-0.06674,0.01875,0.06297,0.30664
-0.13768,0.98806,-0.069,-0.11441,0.01235,0.27489
-0.12733,0.98908,-0.07412,-0.31637,0.10871,0.26949
-0.12431,0.98875,-0.08319,-0.37775,0.326,0.10791
-0.12703,0.98733,-0.09501,-0.30873,0.49144,0.03489
-0.13443,0.98518,-0.10649,-0.3477,0.67659,0.02679
-0.14934,0.98157,-0.11921,-0.32554,0.84897,0.12782
-0.17126,0.97654,-0.13048,-0.23226,0.81389,0.09985
-0.19141,0.97113,-0.14231,0.23145,0.43556,-0.37562
-0.20923,0.96552,-0.15489,0.55765,0.1962,-0.52489
-0.2265,0.96049,-0.1617,0.52484,0.00689,-0.40275
-0.23972,0.9571,-0.16273,0.39663,-0.07128,-0.13945
-0.24923,0.95607,-0.1543,0.35822,-0.02807,-0.03206
-0.25542,0.95762,-0.13313,0.26971,0.14614,0.21423
-0.25523,0.96144,-0.10241,0.19458,0.23533,0.15515
-0.25337,0.96478,-0.07067,0.12886,0.22368,0.0503
-0.25112,0.96684,-0.04632,-0.14885,0.05051,-0.04719
-0.24975,0.96779,-0.03169,-0.22921,-0.08577,-0.07329
-0.24618,0.96887,-0.02612,-0.24985,-0.12887,-0.08959
-0.24063,0.9703,-0.02482,-0.12616,-0.27742,0.00991
-0.23327,0.9722,-0.01989,0.04985,-0.38662,0.09318
-0.2245,0.97442,-0.01,0.09089,-0.42367,0.10061
-0.21539,0.97652,-0.0011,0.19755,-0.60886,0.20653
-0.20884,0.97794,0.00329,0.1811,-0.66735,0.29855
-0.20652,0.97843,0.00419,0.08967,-0.60004,0.33804
-0.20868,0.97797,0.00435,0.00967,-0.45024,0.33586
-0.21371,0.97688,0.00506,-0.03566,-0.25144,0.17539
-0.22068,0.97527,0.01141,-0.0374,-0.12171,0.02024
-0.22912,0.97295,0.02922,0.11727,-0.05149,0.02536
-0.24059,0.96894,0.05715,0.28594,0.41513,0.33678
-0.24594,0.9662,0.07723,0.04498,0.69794,0.46587
-0.24306,0.96731,0.07229,-0.24568,0.7539,0.55045
-0.22839,0.97239,0.04788,0.03033,0.10672,0.12575
-0.21414,0.97579,0.04439,0.04437,0.31877,0.24092
-0.20624,0.97637,0.0644,0.02786,0.42507,0.45555
-0.20978,0.97386,0.08707,-0.15188,1.24793,0.33189
-0.21511,0.97143,0.1002,0.13729,0.73966,-0.13618
-0.20216,0.97585,0.08268,0.42755,-0.02759,-0.88037
-0.18077,0.98127,0.06652,0.36597,0.07244,-0.40713
-0.16761,0.98228,0.0838,0.23597,0.09762,-0.06005
-0.1614,0.98055,0.11165,0.15313,0.02333,0.14324
-0.16439,0.97936,0.1175,-0.33808,-0.1932,-0.15954
-0.1726,0.98011,0.09788,-0.16976,-0.13224,-0.26151
-0.18019,0.98119,0.06923,-0.0052,-0.09853,-0.21302
-0.18621,0.98154,0.04353,0.13398,-0.08974,-0.13616
-0.188,0.98202,0.01674,0.24472,-0.0689,-0.09153
-0.18164,0.9833,-0.01021,0.38543,-0.16388,0.12489
-0.17135,0.98473,-0.03044,0.40532,-0.24245,0.29066
-0.16684,0.9853,-0.03673,0.2787,-0.30466,0.29823
-0.17283,0.9844,-0.0328,0.14663,-0.41221,0.18845
-0.18196,0.9828,-0.03151,0.06155,-0.43713,0.01527
-0.18803,0.98121,-0.0431,0.0033,-0.45271,-0.03531
-0.18778,0.98028,-0.06157,-0.11682,-0.36893,0.01948
-0.18013,0.98117,-0.06966,-0.22974,-0.29327,0.15693
-0.16753,0.98336,-0.07011,-0.18467,-0.19503,0.25845
-0.15316,0.98532,-0.07532,-0.09365,-0.08514,0.28815
-0.13676,0.98642,-0.09087,-0.1017,0.07922,0.27595
-0.12397,0.98727,-0.09958,-0.11617,0.11714,0.30977
-0.11651,0.98805,-0.10081,-0.21122,0.24492,0.33142
-0.11491,0.98795,-0.10369,-0.29043,0.34973,0.24836
-0.11607,0.98668,-0.11392,-0.37444,0.53218,0.09787
-0.12058,0.98457,-0.12678,-0.24307,0.69883,0.06925
-0.13059,0.98113,-0.14257,-0.25543,0.71974,-0.14746
-0.14851,0.97652,-0.15604,-0.16941,0.72847,-0.23408
-0.16608,0.97196,-0.16641,0.22165,0.2925,-0.37807
-0.18505,0.96709,-0.17462,0.43271,-0.02159,-0.46805
-0.20356,0.96222,-0.18079,0.45122,-0.01673,-0.46188
-0.21901,0.95882,-0.18083,0.32537,0.12799,-0.10881
-0.2286,0.95806,-0.17279,0.33819,0.34257,0.26644
-0.23258,0.96087,-0.1504,0.19928,0.53989,0.41321
-0.23509,0.96533,-0.11338,0.1846,0.549,0.33915
-0.23456,0.96903,-0.07718,-0.04345,-0.19731,-0.13191
-0.23123,0.97131,-0.05551,-0.12191,-0.29321,-0.1602
-0.22582,0.97278,-0.05198,-0.20349,-0.35356,-0.14455
-0.22138,0.97322,-0.06182,-0.30472,-0.40636,-0.04062
-0.21736,0.97362,-0.06931,-0.08731,-0.433,0.05875
-0.21056,0.9755,-0.06364,-0.00166,-0.43499,0.07977
-0.20247,0.97798,-0.0506,0.1458,-0.52139,0.20891
-0.19608,0.97985,-0.03777,0.15961,-0.59535,0.32209
-0.19506,0.98043,-0.02643,0.11167,-0.56823,0.39842
-0.19879,0.9799,-0.01621,0.05049,-0.5314,0.36739
-0.20496,0.97874,-0.00707,0.0212,-0.44961,0.29535
-0.21299,0.97704,0.0035,-0.16021,-0.11324,0.02794
-0.22677,0.97373,0.02029,-0.07751,0.09858,-0.03448
-0.24265,0.96902,0.04601,0.05388,0.15938,0.06135
-0.2515,0.96534,0.06977,0.17151,0.23834,0.16459
-0.25045,0.9655,0.07123,-0.03085,0.20811,0.15782
-0.23826,0.96959,0.05582,0.18279,0.2928,0.02748
-0.22158,0.97323,0.0609,-0.09902,0.81191,0.49866
-0.21338,0.97358,0.08129,-0.01805,1.03306,0.43125
-0.21278,0.97225,0.09715,0.05496,0.96017,0.2419
-0.21119,0.97242,0.09896,0.46021,-0.07368,-0.26837
-0.2016,0.97498,0.09355,0.53258,0.03739,-0.50369
-0.19404,0.97575,0.10121,0.45666,0.12012,-0.42424
-0.18622,0.97572,0.11526,0.15184,-0.02946,-0.06408
-0.18165,0.97486,0.12899,-0.24944,-0.11802,-0.09916
-0.18223,0.97359,0.1375,-0.42631,-0.06426,-0.32049
-0.18786,0.9735,0.1304,-0.31375,-0.07274,-0.29558
-0.19294,0.97495,0.11061,-0.05405,-0.05189,-0.16089
-0.19461,0.97704,0.08661,0.09756,-0.01368,-0.07508
-0.19268,0.97931,0.06171,0.3863,-0.14707,0.15645
-0.18643,0.98171,0.03845,0.49503,-0.28277,0.25184
-0.17998,0.98354,0.01542,0.50455,-0.32714,0.26506
-0.17837,0.98396,-0.001,0.2435,-0.45091,0.1262
-0.18486,0.98274,-0.00682,0.03396,-0.45442,0.06317
-0.19616,0.98054,-0.00733,-0.04292,-0.41165,0.02431
-0.20727,0.97823,-0.00949,-0.21799,-0.34948,-0.07582
-0.21447,0.97656,-0.01806,-0.22419,-0.34201,-0.0584
-0.21364,0.97643,-0.03061,-0.08981,-0.40244,0.05635
-0.20245,0.97835,-0.04274,0.02471,-0.32766,0.17045
-0.18181,0.98179,-0.05492,0.11132,-0.02957,0.32163
-0.15813,0.98556,-0.06053,0.12639,0.00179,0.33649
-0.13829,0.98848,-0.06148,-0.06269,-0.08584,0.27929
-0.12733,0.98972,-0.065,-0.33649,0.21813,0.22575
-0.12286,0.98959,-0.07489,-0.34641,0.34201,0.24234
-0.12179,0.98841,-0.09052,-0.34223,0.2816,0.0912
-0.12221,0.98671,-0.10708,-0.44389,0.54978,0.0851
-0.12627,0.98498,-0.1177,-0.44418,0.67415,0.2064
-0.13564,0.98217,-0.13016,-0.43601,0.67422,0.01618
-0.15177,0.97794,-0.14347,-0.03979,0.51542,-0.37748
-0.17192,0.97225,-0.15865,0.17988,0.37773,-0.36205
-0.19281,0.96628,-0.17062,0.42761,0.01635,-0.50307
-0.21628,0.96028,-0.17626,0.36318,-0.02742,-0.32647
-0.23929,0.95561,-0.17187,0.36543,0.05069,-0.25037
-0.26266,0.95211,-0.15649,0.33678,0.43402,0.25862
-0.28256,0.9506,-0.12851,0.19809,0.59057,0.48253
-0.29594,0.95126,-0.08662,0.13835,0.63139,0.42555
-0.2959,0.95415,-0.04514,0.05869,0.05713,-0.12932
-0.2889,0.95721,-0.01648,-0.08839,-0.3029,-0.23679
-0.2799,0.96002,-0.00275,-0.24974,-0.44261,-0.17055
-0.27026,0.96278,-0.00337,-0.28793,-0.49508,-0.08732
-0.26226,0.96491,-0.01252,-0.01647,-0.53815,0.02037
-0.25373,0.96715,-0.0152,0.15503,-0.50127,0.09094
-0.24728,0.96893,-0.00522,0.25468,-0.49531,0.16074
-0.24344,0.96985,0.0108,0.29521,-0.59409,0.27554
-0.24146,0.97009,0.02478,0.23225,-0.59723,0.37068
-0.243,0.96948,0.03242,0.12099,-0.58012,0.34084
-0.2469,0.9685,0.03234,0.00173,-0.45618,0.22174
-0.2515,0.9674,0.02949,-0.053,-0.28111,0.05677
-0.25478,0.96652,0.03016,-0.05633,-0.06952,-0.04335
-0.25867,0.96522,0.0378,-0.04468,0.02579,-0.00633
-0.26448,0.96309,0.05003,0.00875,0.41934,0.1894
-0.2672,0.96201,0.0559,-0.30051,0.62092,0.34989
-0.2629,0.96347,0.05093,-0.26828,0.30913,0.2607
-0.24904,0.96742,0.04555,0.12513,0.21679,0.13924
-0.23339,0.97073,0.05655,0.11115,0.6985,0.54142
-0.2285,0.97057,0.07596,0.02926,0.93936,0.53942
-0.23438,0.96713,0.09853,0.16076,0.47572,-0.09884
-0.24143,0.96427,0.10903,0.54656,0.16879,-0.83587
-0.23532,0.9666,0.10149,0.5835,0.29413,-0.66816
-0.21475,0.97192,0.09617,0.24533,0.29642,-0.10035
-0.19549,0.9742,0.11276,-0.05263,0.15137,0.18898
-0.18668,0.97338,0.13292,-0.28543,-0.0656,-0.20506
-0.1897,0.97274,0.13333,-0.15449,-0.16013,-0.35234
-0.19791,0.9735,0.1145,0.16385,-0.08793,-0.22841
-0.2059,0.97464,0.08754,0.25918,-0.05112,-0.05638
-0.21033,0.97589,0.05829,0.40463,-0.09431,0.06999
-0.20851,0.97749,0.03192,0.51223,-0.16876,0.19652
-0.20157,0.97941,0.01023,0.50138,-0.27368,0.27106
-0.1954,0.98071,-0.00376,0.24661,-0.30446,0.19423
-0.19658,0.98046,-0.00632,0.03794,-0.44042,0.08539
-0.20448,0.97886,-0.00341,-0.07871,-0.42626,-0.03534
-0.21259,0.97712,-0.00435,-0.11312,-0.41424,-0.1036
-0.21809,0.97582,-0.01389,-0.25336,-0.44735,-0.07963
-0.21683,0.97583,-0.02691,-0.13267,-0.43221,0.10391
-0.20634,0.97777,-0.03715,-0.03077,-0.44981,0.16787
-0.1886,0.98084,-0.04862,0.13516,-0.15725,0.31843
-0.16459,0.98459,-0.05909,0.18349,-0.04452,0.3805
-0.14248,0.98761,-0.06563,0.15012,-0.11231,0.35222
-0.12639,0.98938,-0.07168,-0.2173,0.03142,0.3126
-0.11935,0.98961,-0.08013,-0.33467,0.27237,0.30762
-0.12011,0.98845,-0.09235,-0.35426,0.44342,0.0691
-0.12498,0.98606,-0.10982,-0.42226,0.60766,0.03374
-0.13329,0.98313,-0.12519,-0.45476,0.67511,0.11527
-0.14568,0.97886,-0.1435,-0.23081,0.68654,-0.09529
-0.16395,0.97352,-0.15928,0.22452,0.64428,-0.2757
-0.18659,0.96774,-0.16926,0.59125,0.27126,-0.23842
-0.21051,0.96202,-0.17377,0.61632,0.05361,-0.48531
-0.23338,0.95622,-0.17654,0.43695,0.1079,-0.31012
-0.25441,0.95133,-0.17389,0.37941,0.28837,-0.13011
-0.27204,0.94794,-0.16551,0.36973,0.5772,0.2413
-0.2872,0.94733,-0.14171,0.1849,0.73204,0.48564
-0.29991,0.94893,-0.0979,0.11694,0.22295,0.02049
-0.30205,0.95194,-0.0506,0.00672,-0.08439,-0.14222
-0.29741,0.95457,-0.018,-0.23962,-0.43986,-0.12084
-0.28704,0.9579,-0.00555,-0.28732,-0.54609,-0.0809
-0.27412,0.96165,-0.00901,-0.26003,-0.58604,-0.0763
-0.26165,0.96496,-0.01935,0.0559,-0.61798,0.01814
-0.25148,0.96762,-0.02137,0.1549,-0.61314,0.12231
-0.24627,0.96914,-0.01087,0.16665,-0.62775,0.1829
-0.24465,0.96959,0.00546,0.14387,-0.68233,0.39554
-0.24538,0.96922,0.0199,0.08352,-0.63056,0.38586
-0.24882,0.96818,0.0267,0.03756,-0.48382,0.23269
-0.2526,0.96729,0.02299,0.04082,-0.1435,0.03557
-0.25521,0.96676,0.01491,0.08662,0.11962,0.03035
-0.26084,0.96521,0.01781,0.05718,0.12294,0.1218
-0.27189,0.96161,0.0371,0.18576,0.6996,0.32896
-0.27918,0.95891,0.05044,-0.1305,0.8293,0.30726
-0.2794,0.95893,0.0487,0.15118,0.13149,0.02416
-0.26507,0.96312,0.04607,-0.03403,0.47595,0.3478
-0.25102,0.96619,0.05883,0.03056,0.98973,0.56347
-0.24802,0.96507,0.08439,0.08334,0.99045,0.46058
-0.25098,0.9623,0.10476,0.08296,0.56671,0.03215
-0.25118,0.96285,0.09907,0.54247,-0.1186,-0.56961
-0.24116,0.9667,0.08555,0.52814,-0.02844,-0.61113
-0.22647,0.96981,0.09039,0.35913,0.11256,-0.12794
-0.21261,0.97146,0.10507,0.09916,-0.0433,0.08821
-0.20508,0.97162,0.11782,-0.04884,-0.07245,0.01755
-0.20473,0.97115,0.12226,-0.20631,-0.02864,-0.223
-0.20959,0.97119,0.11337,-0.02668,-0.00636,-0.14355
-0.21632,0.97189,0.09282,0.07905,0.00087,-0.11332
-0.21933,0.97328,0.0679,0.22124,-0.00138,-0.02729
-0.21784,0.97502,0.04326,0.36951,-0.12543,0.07494
-0.21145,0.97714,0.02178,0.39301,-0.19725,0.13259
-0.20473,0.97881,0.00288,0.38126,-0.37375,0.21822
-0.20272,0.9792,-0.00789,0.22045,-0.45599,0.15357
-0.20817,0.97803,-0.01032,0.11341,-0.50193,0.13299
-0.21854,0.97577,-0.00957,-0.11823,-0.42328,-0.00744
-0.22737,0.97367,-0.01583,-0.19803,-0.49389,-0.08712
-0.22995,0.97266,-0.03235,-0.16845,-0.43445,-0.03616
-0.22248,0.97373,-0.04832,-0.09507,-0.41161,0.07188
-0.20771,0.97642,-0.0587,0.02202,-0.27116,0.27336
-0.18602,0.9804,-0.06475,0.03049,-0.08784,0.34878
-0.1633,0.98415,-0.06911,0.15915,-0.03905,0.3292
-0.14534,0.98648,-0.07565,-0.02704,0.02045,0.25496
-0.13479,0.9874,-0.08277,-0.18799,0.12826,0.27099
-0.13119,0.98701,-0.09267,-0.20212,0.25902,0.327
-0.13222,0.98552,-0.10613,-0.29021,0.2434,0.1778
-0.13401,0.98351,-0.1214,-0.41754,0.50973,0.16371
-0.13813,0.98146,-0.13286,-0.3686,0.66944,0.17507
-0.1459,0.97798,-0.14916,-0.41872,0.80818,-0.05964
-0.15891,0.97355,-0.1641,0.00991,0.72217,-0.2465
-0.17244,0.96937,-0.17488,0.44251,0.35565,-0.33456
-0.18938,0.96505,-0.18113,0.46402,0.03735,-0.51446
-0.20942,0.9605,-0.18322,0.25445,-0.03234,-0.29342
-0.22733,0.9576,-0.17697,0.21282,0.15135,-0.05983
-0.24078,0.95668,-0.16366,0.28426,0.36985,0.24286
-0.25295,0.95761,-0.13781,0.20822,0.51975,0.44373
-0.26278,0.95988,-0.09779,0.23209,0.23998,0.11018
-0.26244,0.96308,-0.05987,0.0647,-0.19074,-0.12735
-0.25623,0.96592,-0.03648,-0.14924,-0.37109,-0.15368
-0.24733,0.96849,-0.02911,-0.26187,-0.45005,-0.14101
-0.23923,0.97038,-0.03347,-0.19423,-0.46849,-0.02996
-0.23303,0.97172,-0.03805,0.03645,-0.45448,0.07945
-0.2262,0.97364,-0.02904,0.13994,-0.53571,0.13457
-0.22138,0.97512,-0.01062,0.18025,-0.62681,0.23666
-0.21708,0.97612,0.00683,0.19955,-0.64325,0.2815
-0.21469,0.97651,0.0182,0.14233,-0.64226,0.44059
-0.21556,0.9762,0.02347,0.0766,-0.52555,0.3666
-0.21832,0.97562,0.02218,0.00534,-0.32494,0.20971
-0.22232,0.97482,0.01714,-0.03483,-0.24426,0.11633
-0.22699,0.97377,0.01489,-0.04058,-0.03733,0.03324
-0.23625,0.97142,0.02278,0.01244,0.07236,0.082
-0.2469,0.96849,0.03247,-0.09285,0.85907,0.43445
-0.25154,0.96725,0.03386,-0.25387,0.52865,0.42581
-0.24294,0.96975,0.02365,0.17377,0.30261,0.09308
-0.2265,0.97365,0.02608,-0.02904,0.58177,0.49717
-0.21906,0.97475,0.04309,0.14356,1.01635,0.53496
-0.22378,0.97264,0.06225,0.08611,0.89227,0.18661
-0.23762,0.96807,0.0798,0.38368,0.15845,-0.53382
-0.23301,0.96964,0.07409,0.65031,0.08293,-0.78081
-0.21191,0.97545,0.05986,0.45264,0.17015,-0.4281
-0.19518,0.97812,0.0719,0.22367,0.21252,-0.08699
-0.18957,0.97699,0.0977,-0.27717,-0.08162,-0.11822
-0.19225,0.97552,0.1067,-0.27449,-0.08015,-0.12723
-0.19964,0.97545,0.09283,0.04232,-0.01015,-0.17187
-0.20723,0.97576,0.07029,0.26977,0.02366,-0.01226
-0.21065,0.97644,0.04666,0.2732,0.02298,0.01137
-0.2102,0.9774,0.02199,0.44975,-0.08959,0.1486
-0.20254,0.97927,0.00113,0.47651,-0.24477,0.17234
-0.19385,0.98089,-0.01627,0.43854,-0.41329,0.14724
-0.19269,0.98096,-0.02378,0.17554,-0.52261,0.12075
-0.20107,0.97929,-0.02325,-0.02664,-0.51584,0.05688
-0.21161,0.977,-0.02584,-0.12366,-0.49504,-0.05494
-0.21751,0.97513,-0.04248,-0.18948,-0.45059,-0.1032
-0.21569,0.9743,-0.06476,-0.20313,-0.312,0.12093
-0.2062,0.9755,-0.07662,-0.15401,-0.34416,0.20439
-0.18849,0.97873,-0.08093,-0.11302,-0.24743,0.26709
-0.16716,0.98197,-0.08821,0.11436,0.00018,0.32736
-0.14503,0.98447,-0.09884,0.09592,0.02619,0.29747
-0.13015,0.9858,-0.10606,0.02163,0.07748,0.2981
-0.12385,0.98603,-0.11129,-0.22436,0.28071,0.44435
-0.12492,0.98499,-0.11909,-0.22196,0.28902,0.42062
-0.12792,0.98272,-0.13371,-0.34201,0.33266,-0.04465
-0.1338,0.97963,-0.14971,-0.21823,0.70969,0.22711
-0.14022,0.97705,-0.16033,-0.16028,0.72402,-0.20385
-0.1486,0.97383,-0.17192,0.15931,0.53149,-0.38832
-0.16317,0.9707,-0.17637,0.37095,0.36699,-0.34512
-0.18135,0.96799,-0.17348,0.40699,-0.04616,-0.3238
-0.19834,0.96491,-0.17203,0.14988,0.01893,-0.34077
-0.21684,0.96112,-0.17093,0.19703,0.14993,-0.19533
-0.23496,0.95757,-0.16684,0.24654,0.32475,-0.05394
-0.25655,0.95521,-0.14747,0.10175,0.70738,0.48883
-0.28082,0.95448,-0.10046,0.13445,0.62575,0.29946
-0.29341,0.95481,-0.04726,0.18557,0.36668,0.04296
-0.28833,0.9574,-0.0155,-0.14558,-0.39482,-0.17458
-0.27603,0.96112,-0.00703,-0.3144,-0.50828,-0.13846
-0.26319,0.96464,-0.01359,-0.30152,-0.54266,-0.08371
-0.25364,0.96699,-0.02408,-0.05216,-0.55186,0.08125
-0.24512,0.96921,-0.02316,0.07892,-0.55128,0.159
-0.2388,0.971,-0.01064,0.14154,-0.61428,0.24496
-0.23409,0.9722,0.0031,0.17048,-0.71128,0.37446
-0.23086,0.97291,0.01184,0.13615,-0.76494,0.40058
-0.22996,0.9731,0.01302,0.10072,-0.69971,0.27043
-0.22968,0.97324,0.0066,0.06098,-0.39851,0.11815
-0.23114,0.97291,-0.00154,0.04944,0.08612,0.01495
-0.23461,0.97208,-0.00076,0.02378,0.09133,0.12388
-0.24306,0.96986,0.01641,0.07548,0.21565,0.18717
-0.25544,0.9662,0.03438,-0.22721,1.0202,0.34346
-0.25928,0.96521,0.03355,-0.20943,0.42648,0.25547
-0.24616,0.96908,0.01674,0.1251,0.03608,-0.08997
-0.227,0.9737,0.0191,0.00533,0.46606,0.48192
-0.21763,0.97456,0.05334,0.01014,0.83215,0.65821
-0.21968,0.97157,0.08814,-0.08788,1.02511,0.50492
-0.2315,0.96643,0.11138,0.53677,-0.00511,-0.5731
-0.23174,0.96675,0.10801,0.73555,-0.17417,-0.82958
-0.21258,0.97248,0.09526,0.58577,0.23303,-0.59871
-0.19172,0.97567,0.10629,0.09289,0.11483,0.23253
-0.1776,0.97498,0.13362,-0.11476,-0.04632,0.23671
-0.17303,0.97336,0.15037,-0.26111,-0.10382,0.10374
-0.17945,0.97345,0.14205,-0.23927,-0.12372,-0.30414
-0.18955,0.97522,0.11404,0.08384,-0.08639,-0.3071
-0.1945,0.97753,0.08122,0.12481,-0.02684,-0.23799
-0.19586,0.97931,0.05074,0.35279,-0.05699,0.06506
-0.19121,0.9812,0.02602,0.40499,-0.1332,0.16382
-0.1819,0.98328,0.00726,0.4431,-0.20103,0.25566
-0.17481,0.98455,-0.00951,0.28481,-0.36278,0.29284
-0.17608,0.9842,-0.01789,0.08916,-0.4526,0.16806
-0.18382,0.98276,-0.01941,-0.06968,-0.39464,0.02745
-0.19227,0.9811,-0.02157,-0.2307,-0.34446,-0.03574
-0.19832,0.97972,-0.02829,-0.29822,-0.31532,-0.01795
-0.1995,0.97927,-0.03483,-0.30215,-0.3207,0.06427
-0.19364,0.98027,-0.03951,-0.07117,-0.50932,0.00948
-0.17953,0.98232,-0.05301,0.02511,-0.48633,0.05684
-0.15785,0.9851,-0.06816,0.13266,-0.01225,0.31241
-0.1332,0.98849,-0.07168,0.1075,-0.07651,0.36027
-0.11393,0.99089,-0.07167,-0.13954,0.05307,0.4254
-0.10454,0.99167,-0.07509,-0.22978,0.23274,0.41633
-0.10354,0.99094,-0.08542,-0.26478,0.32539,0.34492
-0.10652,0.98891,-0.10337,-0.24644,0.31991,0.19476
-0.11198,0.9859,-0.1243,-0.47214,0.60228,0.27067
-0.12092,0.98255,-0.14127,-0.45988,0.62244,0.09345
-0.13235,0.97842,-0.15863,-0.39755,0.66706,-0.09314
-0.14551,0.97397,-0.17379,0.10556,0.45033,-0.41016
-0.1632,0.96913,-0.18476,0.40674,0.08546,-0.33428
-0.18447,0.96374,-0.1928,0.3929,-0.11883,-0.42966
-0.20476,0.95825,-0.19954,0.28387,0.01129,-0.21948
-0.22408,0.95429,-0.19773,0.34585,0.29404,0.02481
-0.24251,0.9523,-0.18523,0.37297,0.5967,0.34949
-0.25968,0.95274,-0.15757,0.22119,0.66717,0.5113
-0.2691,0.95632,-0.11409,0.20699,0.44729,0.18709
-0.26354,0.96195,-0.07203,0.16841,0.17822,-0.05836
-0.25299,0.96639,-0.04545,-0.13367,-0.37083,-0.20894
-0.24227,0.96945,-0.03823,-0.2799,-0.48855,-0.12657
-0.23295,0.97132,-0.04748,-0.30297,-0.5042,-0.05446
-0.22548,0.97261,-0.05629,-0.01359,-0.43039,0.16365
-0.21998,0.97424,-0.04957,0.13355,-0.505,0.15908
-0.21724,0.97553,-0.03373,0.18544,-0.5242,0.14999
-0.21439,0.97654,-0.01956,0.18182,-0.67791,0.32458
-0.21214,0.97716,-0.01191,0.05107,-0.66144,0.40852
-0.21422,0.97671,-0.01102,-0.00165,-0.67212,0.39966
-0.21639,0.97618,-0.01543,0.02146,-0.33299,0.20069
-0.21925,0.97545,-0.02003,-0.04343,0.01025,0.09901
-0.22859,0.97345,-0.01102,-0.02021,0.12639,0.04328
-0.24218,0.97015,0.01148,0.11967,0.17786,0.08494
-0.2513,0.96753,0.02692,-0.12765,0.76973,0.40146
-0.25386,0.96685,0.02716,-0.05021,0.55727,0.27797
-0.24333,0.96971,0.02064,0.06434,0.42151,0.1888
-0.22964,0.97282,0.02952,-0.05076,0.89435,0.40831
-0.22869,0.97197,0.05433,0.0548,0.96716,0.46058
-0.23387,0.96928,0.07602,0.09943,0.84714,0.3287
-0.23351,0.96919,0.07831,0.5309,-0.06639,-0.67656
-0.22087,0.97273,0.07064,0.43165,0.04744,-0.515
-0.20518,0.97598,0.07312,0.23597,0.05919,-0.06386
-0.19168,0.97768,0.08593,-0.16923,-0.036,0.08461
-0.18737,0.97706,0.10109,-0.32279,-0.06494,-0.18277
-0.19095,0.97618,0.1029,-0.15924,-0.02214,-0.28131
-0.19845,0.97618,0.08758,0.20098,-0.02246,-0.15559
-0.20424,0.9768,0.06424,0.25835,0.01384,-0.10086
-0.20628,0.97768,0.03971,0.41136,-0.05875,0.10266
-0.2022,0.97919,0.01713,0.47512,-0.2296,0.22139
-0.19475,0.98083,-0.00407,0.51499,-0.34274,0.24686
-0.19042,0.98149,-0.02007,0.35122,-0.50912,0.18587
-0.19371,0.98071,-0.02584,0.10894,-0.49882,0.12022
-0.20346,0.97872,-0.02634,-0.07479,-0.38221,0.02336
-0.21237,0.97672,-0.0298,-0.19053,-0.34701,-0.05931
-0.21744,0.97521,-0.04078,-0.22476,-0.28541,-0.03112
-0.21475,0.97519,-0.05363,-0.18451,-0.31091,0.07089
-0.20278,0.9773,-0.06115,-0.06687,-0.30393,0.20359
-0.18281,0.98082,-0.06746,0.0482,-0.07964,0.31856
-0.15935,0.98451,-0.07307,0.09269,-0.05244,0.28506
-0.13707,0.98731,-0.08002,-0.05432,-0.01408,0.27138
-0.12414,0.98852,-0.08605,-0.27341,0.08955,0.33901
-0.12026,0.98829,-0.09378,-0.29705,0.23445,0.35
-0.1227,0.98668,-0.1067,-0.27045,0.22834,0.37869
-0.12617,0.98425,-0.12379,-0.42903,0.33877,0.09155
-0.13078,0.98179,-0.13772,-0.5077,0.48706,0.17178
-0.13698,0.97886,-0.1518,-0.30276,0.61536,0.01492
-0.14772,0.97486,-0.16676,0.0164,0.61686,-0.18159
-0.16306,0.97069,-0.1765,0.22608,0.51727,-0.20751
-0.18058,0.9669,-0.18023,0.56528,0.05005,-0.35032
-0.1959,0.96324,-0.1838,0.38746,-0.06001,-0.43522
-0.21351,0.95885,-0.18712,0.26482,0.07037,-0.23225
-0.23449,0.95442,-0.18463,0.26052,0.3861,0.02159
-0.2563,0.95199,-0.16737,0.18164,0.62479,0.36401
-0.27716,0.95226,-0.12796,0.10979,0.63167,0.47642
-0.28792,0.95436,-0.0793,0.14107,0.32946,0.07053
-0.2836,0.95792,-0.04414,-0.03259,-0.17627,-0.15442
-0.27297,0.96161,-0.02795,-0.20655,-0.40378,-0.10976
-0.25976,0.96524,-0.0286,-0.29393,-0.50023,-0.07733
-0.24751,0.96802,-0.04067,-0.18096,-0.49297,0.01007
-0.23633,0.97048,-0.04795,0.00304,-0.43915,0.09072
-0.22826,0.97276,-0.04012,0.09223,-0.50639,0.10692
-0.22383,0.97432,-0.02428,0.16185,-0.55566,0.16899
-0.22154,0.9751,-0.0091,0.16218,-0.69435,0.3048
-0.22052,0.97537,-0.00044,0.07437,-0.60573,0.32364
-0.2226,0.9749,0.00023,0.03942,-0.58795,0.28978
-0.22554,0.97421,-0.0049,0.05307,-0.32968,0.19682
-0.22952,0.97323,-0.01099,-0.01403,0.03826,0.11973
-0.23651,0.97158,-0.00889,0.04108,0.18466,0.17684
-0.24596,0.96927,0.00327,0.13037,0.5616,0.27259
-0.25199,0.96767,0.00978,-0.18925,0.74359,0.33197
-0.25027,0.96814,0.00711,0.00812,0.29283,0.13007
-0.23755,0.97133,0.00817,0.11654,0.22488,0.14042
-0.21945,0.97531,0.02425,-0.01675,0.59955,0.49797
-0.20842,0.97693,0.04624,-0.10958,1.01692,0.74735
-0.20697,0.97615,0.06531,-0.17108,1.05761,0.55347
-0.21382,0.97449,0.06809,0.22844,0.08127,-0.32969
-0.20952,0.97623,0.05532,0.55727,0.00554,-0.61927
-0.19359,0.97972,0.05158,0.49731,0.14763,-0.46287
-0.17821,0.98181,0.06531,0.22795,-0.12238,0.14895
-0.16969,0.98228,0.07951,-0.03013,-0.23176,0.02276
-0.17012,0.9817,0.08545,-0.19182,-0.1681,-0.17255
-0.17708,0.98118,0.07692,-0.24398,-0.08791,-0.32153
-0.18559,0.98101,0.05621,0.03278,-0.05659,-0.14817
-0.18964,0.98132,0.03214,0.12952,0.05007,-0.01321
-0.19072,0.9816,0.00785,0.27807,0.04643,0.11881
-0.18544,0.98256,-0.01311,0.38714,-0.09726,0.26348
-0.17682,0.98377,-0.03026,0.45362,-0.28621,0.2864
-0.17157,0.98408,-0.0461,0.43354,-0.35342,0.28702
-0.17484,0.98313,-0.05358,0.05577,-0.41826,0.09801
-0.18426,0.98137,-0.05423,0.0652,-0.41651,0.09866
-0.19521,0.97922,-0.0549,-0.13275,-0.37587,-0.01609
-0.2041,0.97709,-0.06027,-0.19115,-0.39412,0.03699
-0.20664,0.97594,-0.06952,-0.18861,-0.39297,0.04624
-0.19918,0.97667,-0.08019,-0.0378,-0.39653,0.25033
-0.1825,0.97876,-0.09333,0.11009,-0.06483,0.35325
-0.15745,0.98207,-0.10361,0.08505,-0.06814,0.36353
-0.13115,0.98549,-0.10765,0.05366,-0.01204,0.21843
-0.11179,0.9876,-0.1102,-0.24786,0.07918,0.24154
-0.102,0.98809,-0.11517,-0.36489,0.19676,0.34606
-0.10264,0.98667,-0.12623,-0.35464,0.23968,0.39479
-0.10848,0.9838,-0.14268,-0.40141,0.28978,0.10359
-0.11484,0.98066,-0.15846,-0.39831,0.62686,0.21679
-0.12155,0.97736,-0.17313,-0.37045,0.74322,0.07266
-0.13292,0.97287,-0.18933,-0.11917,0.70928,-0.26476
-0.14987,0.96843,-0.19915,0.30364,0.50285,-0.32537
-0.16995,0.96436,-0.20278,0.56132,0.13232,-0.29697
-0.19003,0.95993,-0.20591,0.42889,0.04892,-0.42013
-0.21172,0.95537,-0.20599,0.30458,0.06747,-0.25637
-0.23638,0.95167,-0.19603,0.32285,0.26421,-0.02641
-0.2619,0.94945,-0.173,0.28979,0.4876,0.31758
-0.28413,0.94935,-0.13412,0.13292,0.54841,0.50317
-0.29441,0.95167,-0.0874,0.03429,0.14091,0.02104
-0.28852,0.956,-0.05298,-0.06237,-0.11267,-0.13522
-0.27809,0.95989,-0.03547,-0.26467,-0.43735,-0.12332
-0.26667,0.96321,-0.03295,-0.30926,-0.48484,-0.06139
-0.2559,0.9658,-0.04161,-0.10893,-0.49288,0.05788
-0.2452,0.96836,-0.04619,-0.00983,-0.50172,0.10393
-0.23548,0.97118,-0.03664,0.17907,-0.55826,0.16203
-0.2288,0.97326,-0.01975,0.19006,-0.74426,0.25193
-0.22332,0.97472,-0.00545,0.18827,-0.78818,0.27572
-0.21975,0.97555,0.00164,0.06897,-0.74901,0.26277
-0.21857,0.97581,0.00053,-0.02777,-0.40168,0.20808
-0.22295,0.97481,-0.00489,-0.09298,-0.18555,0.19785
-0.23333,0.97238,-0.00396,-0.11238,0.19461,0.24458
-0.24742,0.96882,0.0122,0.15318,0.36092,0.22463
-0.26327,0.96412,0.03378,0.21818,0.58962,0.22458
-0.26948,0.96208,0.04207,-0.12177,0.54236,0.31817
-0.26204,0.96437,0.03618,0.17381,0.05934,0.10333
-0.24143,0.96972,0.03655,-0.14338,0.42071,0.45737
-0.22993,0.97147,0.05789,-0.06307,0.99017,0.64375
-0.23458,0.96753,0.094,-0.05956,0.99638,0.48739
-0.2471,0.96133,0.12149,0.17853,0.30686,-0.28915
-0.24542,0.9628,0.113,0.65112,0.1608,-0.8777
-0.22424,0.9697,0.09686,0.37663,0.21094,-0.15043
-0.20092,0.97424,0.10228,0.2757,0.05841,0.08125
-0.1872,0.97543,0.11608,0.08478,-0.06494,0.2275
-0.18874,0.97474,0.11935,-0.15808,-0.11438,-0.35696
-0.20033,0.97426,0.10329,-0.00561,-0.12211,-0.35572
-0.21184,0.97419,0.07781,0.14207,-0.08894,-0.29386
-0.21582,0.97506,0.05154,0.27731,0.02206,0.05958
-0.2133,0.97665,0.02503,0.3584,-0.00879,0.14337
-0.20391,0.97896,0.00526,0.39093,-0.05625,0.2204
-0.19343,0.98105,-0.01045,0.42343,-0.43335,0.21575
-0.18875,0.98172,-0.02385,0.30618,-0.46773,0.21507
-0.19323,0.98065,-0.03098,0.19033,-0.52846,0.20141
-0.20394,0.97833,-0.03552,-0.06973,-0.40028,0.07043
-0.21316,0.97593,-0.04578,-0.15405,-0.39262,-0.03105
-0.21689,0.97412,-0.06352,-0.1938,-0.38845,-0.03159
-0.21175,0.97405,-0.07986,-0.11449,-0.35922,0.14231
-0.19589,0.97651,-0.08962,-0.08052,-0.25262,0.23411
-0.17287,0.98048,-0.09354,-0.03555,-0.10564,0.31663
-0.14816,0.98446,-0.09412,0.01605,-0.02936,0.26205
-0.12691,0.98726,-0.09587,-0.08882,0.0255,0.25076
-0.1151,0.98843,-0.09867,-0.18129,0.13149,0.40151
-0.11361,0.98772,-0.1072,-0.22263,0.1884,0.43359
-0.1168,0.98552,-0.12284,-0.2354,0.26086,0.40566
-0.12018,0.98227,-0.14382,-0.39372,0.48709,0.10712
-0.12523,0.97919,-0.15963,-0.31333,0.78706,0.21395
-0.12996,0.9763,-0.173,-0.30263,0.70784,0.00799
-0.13923,0.97264,-0.18594,0.18636,0.59421,-0.31964
-0.15225,0.96871,-0.19597,0.51428,0.27107,-0.31584
-0.16694,0.96454,-0.20438,0.55166,0.12573,-0.30197
-0.18196,0.95955,-0.21482,0.26686,-0.1788,-0.21083
-0.19619,0.95479,-0.2233,0.27348,0.04159,-0.04608
-0.21291,0.95213,-0.21932,0.33522,0.2056,0.03644
-0.23183,0.95271,-0.19642,0.26957,0.50965,0.39307
-0.25145,0.9557,-0.15292,0.1158,0.43559,0.40907
-0.26583,0.9587,-0.10106,0.08576,0.21911,0.03151
-0.26397,0.96232,-0.06516,-0.18392,-0.12592,-0.15156
-0.25522,0.9655,-0.05143,-0.33851,-0.33142,-0.10787
-0.24466,0.96804,-0.05496,-0.35221,-0.4244,-0.06865
-0.23678,0.96933,-0.0657,-0.13885,-0.42154,0.04519
-0.22961,0.97105,-0.06573,0.0256,-0.45677,0.12553
-0.22346,0.97337,-0.05101,0.13465,-0.59162,0.17021
-0.21853,0.97524,-0.03365,0.16191,-0.71738,0.26915
-0.21408,0.97655,-0.02238,0.12052,-0.73297,0.35812
-0.21259,0.97696,-0.01798,0.07268,-0.70878,0.38506
-0.21375,0.97669,-0.01937,0.01206,-0.45529,0.24862
-0.2173,0.97578,-0.02461,-0.03116,-0.25618,0.1087
-0.22162,0.97472,-0.02799,-0.00473,0.02372,0.08072
-0.23152,0.97264,-0.01867,0.06122,0.14749,0.18499
-0.24527,0.96944,-0.00228,0.21111,0.52034,0.256
-0.25333,0.96735,0.00491,-0.06762,0.79455,0.42165
-0.25064,0.96806,0.00281,-0.08111,0.17322,0.31883
-0.23711,0.97146,0.00489,0.08559,0.34434,0.36931
-0.22185,0.97481,0.02235,0.05724,0.48883,0.49354
-0.21602,0.97537,0.04439,0.11417,0.76674,0.56192
-0.22187,0.97264,0.06867,-0.15718,1.145,0.39968
-0.23461,0.96885,0.07911,-0.01796,0.69954,-0.02919
-0.22889,0.97061,0.07413,0.48557,-0.05974,-0.91236
-0.21161,0.97437,0.0761,0.41929,0.19176,-0.43917
-0.19343,0.97651,0.09478,0.22184,-0.02034,0.11255
-0.18201,0.97694,0.11154,-0.07605,-0.07527,0.2034
-0.18216,0.9767,0.11335,-0.20952,0.05835,-0.13658
-0.19087,0.97658,0.09918,-0.16763,0.07773,-0.22247
-0.20165,0.97631,0.07834,0.18607,-0.02848,-0.13173
-0.20616,0.97684,0.05702,0.23797,0.03108,0.05428
-0.20601,0.97784,0.03691,0.31719,-0.02073,0.11153
-0.19914,0.97976,0.01971,0.46314,-0.29516,0.16491
-0.18997,0.98178,0.00163,0.42877,-0.43989,0.18386
-0.18614,0.98242,-0.01329,0.24573,-0.53326,0.1492
-0.19235,0.98109,-0.02106,0.06632,-0.51768,0.12444
-0.20438,0.97855,-0.02539,-0.03311,-0.48479,0.02248
-0.21294,0.97639,-0.0361,-0.08204,-0.44035,-0.03609
-0.21481,0.97499,-0.05682,-0.11741,-0.3172,0.03503
-0.20714,0.97529,-0.07668,-0.10807,-0.34303,0.19765
-0.19017,0.97775,-0.08841,-0.08428,-0.27415,0.27306
-0.16507,0.98168,-0.09505,0.05883,-0.0244,0.31604
-0.1373,0.98526,-0.10197,0.01912,-0.08085,0.22453
-0.11519,0.98726,-0.10963,-0.08543,-0.00942,0.21641
-0.10154,0.988,-0.11625,-0.31334,0.12117,0.28369
-0.09754,0.98737,-0.12473,-0.36038,0.24604,0.37293
-0.10068,0.98552,-0.13639,-0.30542,0.24144,0.36928
-0.10496,0.98256,-0.15345,-0.35797,0.50559,0.17266
-0.11175,0.97967,-0.16654,-0.31966,0.72374,0.16365
-0.12256,0.97586,-0.18069,-0.19687,0.63923,-0.12913
-0.14221,0.97095,-0.19239,0.18028,0.59764,-0.19166
-0.16309,0.96597,-0.2007,0.5381,0.27947,-0.25609
-0.18319,0.9613,-0.20573,0.52395,0.02884,-0.41731
-0.20257,0.95662,-0.20934,0.321,0.0021,-0.26235
-0.22138,0.95305,-0.20654,0.32935,0.19729,-0.03315
-0.23993,0.95132,-0.19341,0.36478,0.34011,0.10563
-0.25739,0.95194,-0.16593,0.19807,0.70057,0.53069
-0.27068,0.95475,-0.12315,0.15596,0.28031,0.05647
-0.27283,0.95836,-0.08417,0.03917,-0.00487,-0.09977
-0.26699,0.96174,-0.06119,-0.08611,-0.20436,-0.14856
-0.25729,0.96473,-0.05547,-0.29343,-0.41521,-0.12903
-0.24591,0.96717,-0.06393,-0.28921,-0.45517,-0.08151
-0.23372,0.96947,-0.07404,-0.04155,-0.48442,0.12852
-0.22174,0.97237,-0.07281,0.1381,-0.54479,0.19843
-0.21255,0.97518,-0.06189,0.1613,-0.59467,0.23451
-0.20627,0.97723,-0.04948,0.17883,-0.61592,0.27911
-0.20314,0.97828,-0.04087,0.07316,-0.63102,0.42885
-0.20342,0.97841,-0.03629,0.04134,-0.5498,0.40864
-0.20614,0.9779,-0.03464,0.02888,-0.43781,0.36918
-0.21197,0.97673,-0.03229,-0.1407,-0.00757,0.09998
-0.22422,0.97421,-0.02492,-0.07425,0.07192,0.04039
-0.24057,0.97057,-0.00943,-0.00083,0.16886,0.07326
-0.25607,0.96659,0.01055,-0.00816,0.47862,0.33967
-0.2649,0.96407,0.0191,-0.08629,0.35125,0.37699
-0.26008,0.96551,0.01081,0.21073,0.29559,0.16227
-0.24255,0.97005,0.01179,0.06665,0.49302,0.46852
-0.22994,0.97293,0.02235,0.24351,0.7969,0.55671
-0.22128,0.97467,0.03218,0.14746,1.00553,0.353
-0.21783,0.97498,0.04409,0.23403,0.47897,-0.06989
-0.21794,0.9748,0.0474,0.57066,-0.21921,-0.61881
-0.21117,0.97631,0.04687,0.29852,0.03731,-0.47192
-0.20126,0.97792,0.05613,0.14951,-0.00401,-0.06248
-0.19128,0.97924,0.06687,0.02147,-0.06744,0.03539
-0.18665,0.97931,0.07795,-0.2965,-0.07154,-0.20132
-0.18694,0.97887,0.08275,-0.00079,0.04117,-0.08792
-0.1896,0.9791,0.07339,0.00187,0.04093,-0.07856
-0.19172,0.97986,0.05563,0.31495,0.02779,0.05567
-0.19108,0.98091,0.03567,0.31828,0.0069,0.1211
-0.18784,0.98209,0.01395,0.42066,-0.09024,0.23987
-0.18201,0.98326,-0.00721,0.41129,-0.31009,0.22291
-0.17899,0.98345,-0.02764,0.27614,-0.41727,0.13125
-0.18235,0.98239,-0.04041,0.04704,-0.47618,0.09411
-0.19217,0.98031,-0.04507,-0.08639,-0.4528,0.0352
-0.20248,0.97793,-0.05124,-0.12419,-0.44992,-0.00882
-0.20761,0.97599,-0.0657,-0.18726,-0.45821,-0.02917
-0.20602,0.97496,-0.0836,-0.13334,-0.38658,0.09854
-0.19455,0.97594,-0.09833,-0.0379,-0.30315,0.19143
-0.17449,0.97838,-0.11097,0.10153,-0.11369,0.329
-0.14844,0.98174,-0.11891,0.1619,0.0119,0.32637
-0.12402,0.9849,-0.1207,0.11342,0.001,0.35262
-0.10565,0.98687,-0.12206,0.03447,0.04213,0.40443
-0.09651,0.98727,-0.12631,-0.18026,0.13094,0.48479
-0.09436,0.98626,-0.13552,-0.31106,0.2542,0.16866
-0.09542,0.98358,-0.15313,-0.43192,0.3747,-0.00533
-0.10029,0.98009,-0.17131,-0.4989,0.51103,0.10718
-0.10878,0.97633,-0.18689,-0.36244,0.79983,-0.12097
-0.12053,0.97248,-0.19932,-0.35069,0.80367,-0.10854
-0.1342,0.96937,-0.20565,0.29529,0.50972,-0.22676
-0.15082,0.96647,-0.20779,0.50527,0.12713,-0.2701
-0.17014,0.96246,-0.21144,0.27441,-0.09738,-0.31786
-0.18928,0.9584,-0.21359,0.22084,-0.00497,-0.13196
-0.20597,0.95616,-0.20812,0.31808,0.25999,0.10236
-0.22212,0.95634,-0.18988,0.19621,0.53336,0.38095
-0.23833,0.95947,-0.15036,0.09924,0.62601,0.43185
-0.24736,0.96357,-0.10164,0.1685,0.33542,0.01412
-0.24583,0.9669,-0.06818,-0.0013,-0.13853,-0.18701
-0.23941,0.96929,-0.05608,-0.20308,-0.31687,-0.1309
-0.23028,0.97126,-0.06005,-0.28009,-0.41132,-0.05886
-0.2223,0.9725,-0.06933,-0.10622,-0.45239,0.09892
-0.21496,0.97427,-0.06765,0.09855,-0.44442,0.17954
-0.21029,0.97626,-0.05161,0.18272,-0.52283,0.19465
-0.20775,0.97764,-0.03213,0.21455,-0.64721,0.28448
-0.20573,0.97842,-0.01886,0.21401,-0.69543,0.39469
-0.20696,0.97824,-0.01353,0.1034,-0.64965,0.43806
-0.21136,0.97731,-0.01314,-0.01797,-0.5016,0.35486
-0.21631,0.9762,-0.01453,-0.06998,-0.32043,0.18717
-0.22055,0.97524,-0.01531,-0.0935,-0.19567,-0.00108
-0.22337,0.97466,-0.01053,-0.047,-0.02599,0.00781
-0.22864,0.9735,0.00221,0.06577,0.44946,0.36291
-0.2348,0.97193,0.01376,-0.09822,0.79188,0.51915
-0.23388,0.97216,0.01365,-0.05679,0.24902,0.27562
-0.22182,0.97504,0.00836,0.191,0.42853,0.23683
-0.20343,0.97885,0.0209,-0.07048,0.54016,0.64847
-0.19506,0.97973,0.0454,0.12628,0.85099,0.65031
-0.19635,0.97815,0.06809,0.06914,0.70785,0.32319
-0.20445,0.97526,0.08388,0.33232,0.18662,-0.38421
-0.19853,0.97668,0.08156,0.44798,0.04355,-0.70914
-0.17987,0.98101,0.07235,0.357,0.20196,-0.36482
-0.16082,0.98355,0.08211,0.10756,0.08957,0.11039
-0.1494,0.98373,0.09963,-0.18599,-0.07118,0.06793
-0.14936,0.98317,0.1051,-0.30306,-0.12704,-0.25218
-0.15558,0.98375,0.0895,-0.07742,-0.10171,-0.21562
-0.16195,0.98485,0.06182,0.08923,-0.07553,-0.12223
-0.16444,0.98578,0.03414,0.21925,0.00821,0.05921
-0.16425,0.98637,0.00848,0.37032,-0.06196,0.1622
-0.15791,0.98735,-0.0134,0.40826,-0.2108,0.23157
-0.14955,0.98815,-0.03411,0.40207,-0.37002,0.23345
-0.14612,0.98805,-0.04888,0.20261,-0.43685,0.2284
-0.15066,0.98705,-0.05489,0.01412,-0.46991,0.17673
-0.1599,0.98536,-0.05884,-0.11637,-0.43526,0.06428
-0.16684,0.98341,-0.071,-0.16782,-0.45506,-0.06021
-0.16747,0.98138,-0.09395,-0.14367,-0.41332,-0.02769
-0.15838,0.98069,-0.11467,-0.15495,-0.34571,0.06649
-0.13983,0.98247,-0.12316,-0.01437,0.00169,0.39305
-0.11507,0.98578,-0.12236,-0.03914,-0.00162,0.39226
-0.09022,0.98856,-0.1208,0.0544,-0.07395,0.37059
-0.07026,0.98998,-0.12244,-0.13897,0.03594,0.29431
-0.05926,0.99,-0.12793,-0.22066,0.05105,0.33579
-0.05746,0.98885,-0.13727,-0.32928,0.20838,0.38317
-0.06008,0.98681,-0.15023,-0.41122,0.33924,0.11143
-0.0647,0.98355,-0.16857,-0.4066,0.3425,0.12977
-0.07133,0.98034,-0.1839,-0.37297,0.67549,0.21653
-0.08036,0.97667,-0.19912,-0.1522,0.68834,-0.28646
-0.09688,0.97231,-0.21264,-0.13567,0.6927,-0.27294
-0.11747,0.96771,-0.22297,0.42066,0.34316,-0.20745
-0.14026,0.96348,-0.22808,0.41395,0.01722,-0.32777
-0.16091,0.95954,-0.23101,0.33921,-0.03146,-0.28974
-0.17818,0.95677,-0.22982,0.34618,0.08121,-0.1024
-0.19341,0.95577,-0.22152,0.3863,0.36657,0.16873
-0.20555,0.958,-0.19992,0.23363,0.5884,0.47632
-0.21667,0.96375,-0.15565,0.14694,0.55307,0.43197
-0.21923,0.9699,-0.10588,0.12374,0.13499,-0.03623
-0.21349,0.97401,-0.07551,-0.15367,-0.33494,-0.21381
-0.20476,0.97621,-0.07112,-0.34521,-0.46918,-0.12139
-0.19701,0.97676,-0.08429,-0.27574,-0.45186,0.03096
-0.19064,0.97676,-0.09783,-0.1593,-0.42188,0.10415
-0.18419,0.97833,-0.09443,0.08316,-0.45087,0.20525
-0.17892,0.98076,-0.07791,0.16623,-0.55262,0.24472
-0.17446,0.98274,-0.06133,0.16198,-0.64561,0.28659
-0.17169,0.98369,-0.05338,0.10144,-0.76561,0.41122
-0.17302,0.9834,-0.0544,-0.00421,-0.65792,0.37472
-0.17756,0.9822,-0.06115,-0.02792,-0.54859,0.33242
-0.1855,0.98034,-0.06702,-0.05381,-0.03111,0.15879
-0.19536,0.97876,-0.0619,-0.02217,0.16107,0.11241
-0.20819,0.97707,-0.04438,0.07274,0.20761,0.14275
-0.22062,0.97498,-0.02661,0.02362,0.81333,0.34101
-0.22507,0.97403,-0.02426,-0.16897,0.36325,0.31213
-0.21662,0.97572,-0.03183,-0.06026,0.14363,0.1859
-0.19803,0.97993,-0.0222,-0.12224,0.56266,0.59237
-0.18844,0.98205,0.00583,0.0357,0.99381,0.67732
-0.19221,0.98076,0.03368,0.03758,1.09457,0.62382
-0.204,0.97783,0.04697,0.27819,0.18739,-0.17264
-0.20268,0.97833,0.0421,0.66026,-0.10127,-0.67461
-0.18566,0.98186,0.03824,0.60116,0.11833,-0.62643
-0.16783,0.98457,0.04935,0.28234,0.10151,0.03735
-0.15699,0.98527,0.06764,0.13385,-0.01466,0.1838
-0.15673,0.98437,0.08017,-0.22517,-0.08888,0.00837
-0.1634,0.98368,0.07517,-0.24909,-0.05439,-0.29038
-0.1715,0.98371,0.05366,0.08004,-0.0587,-0.12633
-0.17458,0.98426,0.02697,0.16362,-0.044,-0.03825
-0.17305,0.9849,0.00076,0.33041,0.00085,0.13287
-0.16691,0.98573,-0.02146,0.45528,-0.24548,0.2405
-0.15872,0.98637,-0.043,0.44709,-0.24613,0.26204
-0.15485,0.98608,-0.06043,0.32205,-0.4683,0.2767
-0.1596,0.98491,-0.06674,0.06442,-0.53441,0.19525
-0.16995,0.98309,-0.068,0.00372,-0.50731,0.15415
-0.17869,0.98106,-0.07457,-0.1626,-0.44693,-0.0365
-0.18206,0.97896,-0.09199,-0.19885,-0.35514,0.00163
-0.1767,0.97807,-0.11017,-0.18364,-0.32133,0.12053
-0.16066,0.97993,-0.11793,-0.13293,-0.23367,0.25546
-0.13735,0.98311,-0.12082,0.07558,-0.00085,0.37843
-0.11167,0.98598,-0.12388,0.09057,-0.0109,0.38613
-0.0887,0.98764,-0.12914,-0.0125,-0.03682,0.37264
-0.07477,0.98802,-0.13489,-0.28833,0.11038,0.42481
-0.06871,0.98722,-0.14373,-0.35662,0.18545,0.43538
-0.06871,0.98532,-0.15619,-0.33639,0.22409,0.37416
-0.07299,0.98206,-0.17378,-0.44943,0.59695,0.15823
-0.08199,0.97849,-0.18924,-0.36767,0.71911,0.19562
-0.09387,0.9744,-0.20425,-0.17535,0.66644,-0.22234
-0.11043,0.96985,-0.21719,0.21451,0.58422,-0.24364
-0.13009,0.96575,-0.22444,0.45674,0.3628,-0.18712
-0.14933,0.96276,-0.22535,0.50459,0.1035,-0.35639
-0.16913,0.95954,-0.22507,0.33711,0.05266,-0.20187
-0.18973,0.95716,-0.21869,0.30563,0.11182,-0.11093
-0.21187,0.95581,-0.20377,0.24396,0.46016,0.37061
-0.23314,0.95675,-0.17391,0.10097,0.66025,0.54218
-0.25044,0.96015,-0.12399,0.10487,0.63711,0.39732
-0.25421,0.96423,-0.07489,-0.08269,-0.32811,-0.23447
-0.24991,0.96714,-0.0465,-0.16815,-0.43307,-0.2195
-0.24161,0.96947,-0.04165,-0.25229,-0.48226,-0.17679
-0.23235,0.97119,-0.05273,-0.18359,-0.53129,-0.01683
-0.22218,0.9728,-0.06534,-0.07666,-0.50474,0.07742
-0.21264,0.97507,-0.0632,0.08558,-0.41498,0.22668
-0.20577,0.97748,-0.04653,0.19605,-0.44315,0.34811
-0.2014,0.97912,-0.02716,0.17363,-0.53767,0.42025
-0.19822,0.98003,-0.01474,0.11249,-0.59059,0.41178
-0.19572,0.98058,-0.01147,-0.05143,-0.57064,0.1697
-0.19539,0.98058,-0.01597,-0.09365,-0.48229,0.08091
-0.20063,0.97938,-0.02327,-0.18742,-0.20228,0.00567
-0.20996,0.97745,-0.02198,-0.01816,-0.04926,0.17777
-0.21944,0.97557,-0.0092,0.24749,0.25917,0.41879
-0.23092,0.97292,0.00859,0.32855,0.48747,0.48447
-0.23001,0.97312,0.01008,0.17374,0.6457,0.24888
-0.21624,0.97633,0.00146,0.16463,0.30177,0.12804
-0.19635,0.98049,0.00763,-0.10972,0.51038,0.36069
-0.18638,0.98192,0.03256,-0.21459,0.8096,0.73078
-0.19167,0.97911,0.06771,-0.06918,0.62566,0.48514
-0.19968,0.97613,0.08525,0.10193,0.38334,0.15453
-0.19469,0.97728,0.08357,0.41158,0.03395,-0.60695
-0.1801,0.98072,0.07569,0.28873,0.13887,-0.36388
-0.16367,0.98365,0.07494,0.29805,0.08784,-0.13677
-0.15363,0.98464,0.08283,-0.10687,-0.08583,0.02817
-0.15326,0.98472,0.08256,-0.263,-0.14747,-0.26699
-0.15745,0.98531,0.06589,-0.24018,-0.12826,-0.31228
-0.15994,0.98618,0.04298,0.1085,-0.03528,-0.03756
-0.15982,0.9869,0.02162,0.28808,0.00229,0.13484
-0.15702,0.98758,0.00129,0.35126,-0.0224,0.2116
-0.15048,0.98845,-0.0175,0.37829,-0.07989,0.26849
-0.14506,0.9887,-0.03746,0.24124,-0.37702,0.26091
-0.14655,0.98784,-0.05176,0.1297,-0.40699,0.24451
-0.15534,0.98607,-0.05927,0.03988,-0.39915,0.21972
-0.16485,0.984,-0.06738,-0.15074,-0.34017,0.05317
-0.17109,0.98199,-0.07995,-0.14449,-0.33816,0.06574
-0.16959,0.98117,-0.09226,-0.17863,-0.27631,0.16592
-0.16243,0.98178,-0.09845,-0.06076,-0.41397,0.21637
-0.14768,0.98336,-0.10569,-0.00596,-0.37728,0.23353
-0.12538,0.98478,-0.12027,0.19007,-0.19352,0.40148
-0.1034,0.98628,-0.12858,0.08491,-0.0045,0.31582
-0.08357,0.9879,-0.13053,-0.05736,0.0187,0.26366
-0.07244,0.98829,-0.13424,-0.30794,0.18133,0.36076
-0.07005,0.98695,-0.14488,-0.29491,0.37764,0.42336
-0.07157,0.98425,-0.16157,-0.24994,0.40904,0.32104
-0.0745,0.98095,-0.17931,-0.26546,0.60726,0.25918
-0.07945,0.97812,-0.19221,-0.29066,0.69343,0.32087
-0.08672,0.97439,-0.20742,-0.23308,0.73412,0.01997
-0.09698,0.97056,-0.22043,0.22866,0.51234,-0.28357
-0.11065,0.96721,-0.22858,0.35929,0.35567,-0.28482
-0.12509,0.96393,-0.23489,0.46194,-0.04999,-0.35443
-0.14091,0.96062,-0.23946,0.20295,0.04979,-0.06275
-0.15816,0.95818,-0.23843,0.27935,0.16151,0.04723
-0.17523,0.9575,-0.22905,0.34788,0.30461,0.18098
-0.19073,0.96026,-0.2037,0.22131,0.57979,0.58106
-0.20297,0.96612,-0.15933,0.16635,0.42214,0.34973
-0.20366,0.97245,-0.11327,0.13567,0.20383,0.11266
-0.196,0.97706,-0.08317,-0.24648,-0.33597,-0.10727
-0.18613,0.97972,-0.07398,-0.39781,-0.44414,-0.0561
-0.17616,0.98105,-0.08052,-0.41155,-0.4832,-0.03151
-0.16642,0.98201,-0.08911,-0.07591,-0.47995,0.14059
-0.15692,0.98394,-0.0849,-0.0136,-0.51649,0.15381
-0.14973,0.98605,-0.07245,0.02971,-0.57881,0.16384
-0.14402,0.98752,-0.06353,0.07731,-0.70429,0.32152
-0.14206,0.98792,-0.06163,0.01793,-0.64947,0.44889
-0.145,0.9873,-0.0647,0.01885,-0.58471,0.45142
-0.15017,0.98609,-0.07111,0.06864,-0.19887,0.27302
-0.15437,0.98518,-0.07465,0.11248,0.07584,0.15933
-0.15912,0.98496,-0.06713,0.14362,0.20785,0.17388
-0.16946,0.98451,-0.04458,0.12423,0.63374,0.28752
-0.17811,0.98349,-0.03148,-0.06019,0.65088,0.29675
-0.17536,0.98378,-0.03731,-0.01453,0.25015,0.17801
-0.16258,0.98618,-0.03132,-0.22717,0.60964,0.4521
-0.16005,0.98709,0.00249,-0.32985,1.10425,0.6575
-0.17512,0.9836,0.04284,-0.15579,1.08946,0.54264
-0.18536,0.9808,0.06029,0.29737,0.13892,-0.17653
-0.17677,0.98256,0.05734,0.54965,0.1081,-0.52377
-0.15956,0.98573,0.05329,0.50279,0.08047,-0.31302
-0.1438,0.9876,0.06277,0.31159,0.02586,0.09087
-0.13657,0.98756,0.07777,-0.18475,-0.10293,-0.0011
-0.13818,0.9869,0.08311,-0.25052,-0.06463,-0.19976
-0.14521,0.9871,0.06721,-0.05259,-0.00886,-0.15449
-0.1505,0.98782,0.0392,0.02408,0.03914,-0.00894
-0.15253,0.98822,0.01156,0.15873,0.02922,0.12574
-0.15163,0.98834,-0.01276,0.32515,-0.158,0.18537
-0.1447,0.98886,-0.0344,0.38417,-0.36881,0.23034
-0.13784,0.98887,-0.0558,0.36067,-0.41904,0.28396
-0.13785,0.98799,-0.0696,0.07558,-0.45726,0.27435
-0.14602,0.98644,-0.07482,-0.06138,-0.41757,0.18427
-0.15588,0.98463,-0.07858,-0.13921,-0.40013,0.06145
-0.16245,0.98272,-0.0886,-0.1747,-0.36939,0.02285
-0.16195,0.98134,-0.10352,-0.15761,-0.34525,0.05276
-0.15186,0.98151,-0.11643,-0.05203,-0.34964,0.09717
-0.13488,0.9827,-0.12681,0.11285,-0.12587,0.35069
-0.11269,0.98502,-0.13041,0.07237,0.05698,0.41886
-0.09034,0.98737,-0.13006,-0.13833,0.03445,0.34464
-0.07587,0.98816,-0.13328,-0.29227,0.17984,0.35512
-0.07167,0.98683,-0.14495,-0.32121,0.33928,0.33953
-0.07454,0.98387,-0.16257,-0.28351,0.36088,0.26593
-0.07852,0.98085,-0.17816,-0.11398,0.67866,0.21264
-0.08498,0.97842,-0.18831,-0.20998,0.72475,0.0709
-0.09332,0.97466,-0.20323,-0.18065,0.66311,-0.04994
-0.10332,0.97106,-0.21528,0.22536,0.47434,-0.298
-0.12073,0.96769,-0.22131,0.47154,0.10827,-0.39669
-0.14304,0.96323,-0.2274,0.5328,0.01668,-0.40549
-0.16705,0.95869,-0.23019,0.51129,0.08251,0.01514
-0.18651,0.95713,-0.22159,0.52359,0.22433,0.31528
-0.20466,0.95765,-0.20246,0.56306,0.34297,0.4775
-0.22031,0.96061,-0.1693,0.43221,0.52816,0.58698
-0.22953,0.96567,-0.12153,0.21671,0.24647,0.17512
-0.22675,0.971,-0.07562,-0.02439,-0.02989,-0.07085
-0.21875,0.97469,-0.04588,-0.49351,-0.34742,-0.16419
-0.20923,0.97727,-0.03382,-0.58135,-0.53898,-0.15621
-0.19899,0.97923,-0.03871,-0.59159,-0.54093,-0.15133
-0.18769,0.98114,-0.04593,-0.18398,-0.60442,0.18416
-0.1793,0.9829,-0.04159,-0.13024,-0.60517,0.27423
-0.17502,0.9841,-0.02989,-0.08781,-0.60248,0.34701
-0.17475,0.98442,-0.01864,0.03365,-0.55947,0.52471
-0.17808,0.98394,-0.01084,0.04102,-0.44615,0.48926
-0.18164,0.98328,-0.01232,0.02393,-0.40268,0.40485
-0.18326,0.98283,-0.02094,-0.05643,-0.11717,0.11619
-0.18573,0.98233,-0.02247,-0.00018,0.09361,0.12231
-0.1902,0.98167,-0.01094,0.01517,0.25852,0.19844
-0.19273,0.98124,-1e-05,0.09487,0.68349,0.35612
-0.18615,0.9825,-0.0032,0.06096,0.24578,0.31941
-0.1728,0.98492,-0.00675,0.09033,0.21026,0.2879
-0.16593,0.98611,0.00602,0.08047,0.49686,0.43816
-0.17137,0.98458,0.03488,0.20781,0.7752,0.41832
-0.18066,0.98121,0.06751,0.2171,0.77857,0.38569
-0.18141,0.98048,0.07568,0.26493,0.14545,-0.23978
-0.16672,0.9839,0.06418,0.48513,-0.1089,-0.55871
-0.14604,0.98731,0.06214,0.44314,-0.0827,-0.3835
-0.13553,0.98747,0.08071,-0.01973,0.10511,0.17169
-0.137,0.98535,0.10145,-0.17762,0.12116,-0.08223
-0.14514,0.98426,0.10072,-0.15668,0.09092,-0.12956
-0.15439,0.98447,0.08341,-0.05619,-0.04517,-0.08876
-0.16221,0.98457,0.0654,0.01253,-0.11882,-0.01027
-0.16739,0.98469,0.04844,0.01772,-0.11893,0.00669
-0.16794,0.98536,0.02892,0.28098,-0.36733,0.08152
-0.16562,0.98615,0.00773,0.27283,-0.39971,0.12385
-0.16312,0.98654,-0.01059,0.22246,-0.39683,0.16211
-0.16453,0.98615,-0.02029,0.02035,-0.24026,0.13325
-0.16835,0.9854,-0.02498,0.0025,-0.19825,0.11394
-0.17061,0.98481,-0.03206,-0.0222,-0.1467,0.09563
-0.16911,0.98474,-0.0409,-0.08362,-0.0588,0.10473
-0.16296,0.98548,-0.0475,-0.02722,-0.23995,0.20518
-0.15364,0.98664,-0.05406,0.01539,-0.27941,0.25376
-0.14228,0.98762,-0.06592,0.06237,-0.25562,0.43734
-0.12894,0.98842,-0.07983,-0.0851,-0.1627,0.36494
-0.1157,0.9888,-0.09421,-0.18437,-0.03096,0.32582
-0.10598,0.98862,-0.10669,-0.27881,0.18564,0.2226
-0.10026,0.98805,-0.11698,-0.24116,0.49207,0.02642
-0.09942,0.98756,-0.12177,-0.1873,0.60703,0.03948
-0.10487,0.987,-0.12169,-0.18752,0.66484,-0.07788
-0.11879,0.98561,-0.12021,-0.07567,0.51889,-0.1381
-0.1393,0.98277,-0.1214,0.04127,0.35904,-0.20378
-0.16251,0.9786,-0.12616,0.27628,-0.05062,-0.00205
-0.18719,0.97398,-0.12765,0.36447,-0.13658,0.07402
-0.20825,0.97052,-0.12125,0.45071,-0.02699,0.2346
-0.22356,0.96889,-0.10609,0.43775,0.21049,0.421
-0.23622,0.96826,-0.08159,0.23686,0.24718,0.4779
-0.24427,0.96829,-0.05217,0.16758,0.24254,0.38219
-0.24522,0.96913,-0.02512,-0.094,0.09419,-0.05792
-0.24257,0.97011,-0.00421,-0.20777,-0.07938,-0.17123
-0.23958,0.97084,0.0067,-0.26586,-0.16759,-0.13391
-0.23643,0.9716,0.0089,-0.1965,-0.37823,0.09663
-0.23095,0.97292,0.00815,-0.07048,-0.40819,0.22342
-0.22306,0.97473,0.0112,-0.01575,-0.4082,0.24731
-0.21548,0.97631,0.019,0.08321,-0.46114,0.30222
-0.20871,0.9776,0.02667,0.11238,-0.4677,0.33548
-0.20304,0.9787,0.03014,0.08814,-0.45642,0.33717
-0.19813,0.9798,0.02696,-0.06318,-0.36741,0.31569
-0.19353,0.98092,0.01799,-0.13468,-0.21201,0.27122
-0.19008,0.98172,0.00832,-0.13956,-0.11382,0.23127
-0.18819,0.98211,0.00364,0.03788,0.03459,0.15785
-0.18603,0.98252,0.00441,0.11442,0.21761,0.22795
-0.18323,0.98302,0.00862,-0.02276,0.33775,0.37959
-0.17834,0.98386,0.014,-0.2106,0.29237,0.46409
-0.17523,0.98428,0.02174,-0.17803,0.15575,0.42064
-0.17313,0.98427,0.03487,-0.1818,0.23288,0.4071
-0.17639,0.98284,0.05375,0.04408,0.62252,0.34925
-0.18148,0.98057,0.0743,0.09459,0.78284,0.16422
-0.18079,0.9802,0.08065,0.14434,0.59582,-0.00802
-0.17032,0.98306,0.06751,0.48827,0.10324,-0.29639
-0.15246,0.98628,0.06319,0.41524,-0.11331,-0.06711
-0.13971,0.9872,0.07676,0.33948,-0.20758,0.02201
-0.13516,0.98686,0.0884,-0.00357,-0.0728,0.04606
-0.13742,0.98724,0.08031,-0.10721,-0.04434,0.0164
-0.14,0.98814,0.06292,-0.09907,-0.01046,0.06598
-0.14139,0.98891,0.04521,-0.01605,-0.06006,0.02103
-0.14205,0.98952,0.02538,0.09086,-0.1424,0.03187
-0.14016,0.99011,0.00365,0.12069,-0.19246,0.06988
-0.13814,0.99025,-0.01751,0.15002,-0.31245,0.16757
-0.13846,0.98972,-0.03561,0.06219,-0.29955,0.23882
-0.14229,0.98861,-0.04878,-0.02825,-0.24325,0.25854
-0.14723,0.98742,-0.05742,-0.10398,-0.19745,0.17153
-0.15164,0.98632,-0.06451,-0.11162,-0.19085,0.15231
-0.15269,0.98562,-0.07228,-0.16025,-0.22361,0.12924
-0.14841,0.98562,-0.08066,-0.21873,-0.29045,0.20235
-0.13906,0.98622,-0.08948,-0.20367,-0.33499,0.2554
-0.12459,0.98667,-0.10456,-0.08407,-0.30209,0.33049
-0.1058,0.98672,-0.1232,-0.00574,-0.1833,0.41759
-0.08869,0.98645,-0.13799,-0.08495,0.0631,0.42288
-0.07551,0.98595,-0.14896,-0.09813,0.0636,0.43384
-0.06647,0.98486,-0.16001,-0.2168,0.1837,0.33053
-0.06049,0.98314,-0.1725,-0.21945,0.33545,0.16928
-0.05888,0.98158,-0.18171,-0.237,0.50602,0.13421
-0.06093,0.9802,-0.18836,-0.11042,0.66535,0.11383
-0.06825,0.97795,-0.19733,-0.0295,0.49491,-0.13335
-0.07998,0.97535,-0.20563,0.04639,0.45567,-0.17177
-0.09701,0.97244,-0.212,0.22415,0.22027,-0.175
-0.11898,0.96927,-0.21527,0.34768,-0.06835,-0.11599
-0.14299,0.96704,-0.21066,0.37169,-0.06611,-0.12059
-0.16358,0.96705,-0.19504,0.46859,0.23376,0.25565
-0.18144,0.96876,-0.16903,0.40978,0.35923,0.37887
-0.19671,0.97139,-0.13301,0.33547,0.36106,0.39661
-0.20553,0.97444,-0.09055,-0.0293,0.14188,0.10821
-0.20569,0.97714,-0.05355,-0.31555,-0.12376,-0.11675
-0.20295,0.97873,-0.02958,-0.40275,-0.21152,-0.16027
-0.19892,0.9798,-0.02017,-0.46028,-0.47302,-0.04036
-0.1922,0.98109,-0.02231,-0.33319,-0.5224,0.02006
-0.18155,0.98303,-0.0258,-0.23797,-0.50435,0.08608
-0.16961,0.98527,-0.02127,-0.00331,-0.44682,0.28546
-0.15865,0.98724,-0.01286,0.10057,-0.44159,0.43318
-0.15075,0.98853,-0.0078,0.12286,-0.46358,0.50214
-0.14578,0.98926,-0.00928,0.11117,-0.36817,0.41967
-0.14253,0.98964,-0.01659,0.03509,-0.25922,0.2269
-0.14198,0.98962,-0.02175,-0.01711,-0.13249,0.09241
-0.14593,0.98912,-0.01782,-0.0382,-0.06334,0.08342
-0.15414,0.98803,-0.00376,-0.05973,0.21189,0.24781
-0.16189,0.98674,0.01069,-0.1388,0.45453,0.44206
-0.16226,0.98664,0.01365,-0.11336,0.23775,0.37714
-0.15755,0.98741,0.01296,-0.08126,0.21797,0.35554
-0.15478,0.98761,0.02552,-0.0817,0.32515,0.37299
-0.1629,0.9853,0.05128,0.05467,0.69329,0.36109
-0.17241,0.98208,0.07601,0.25618,0.70399,0.0234
-0.17277,0.98227,0.07265,0.29973,0.38635,-0.12919
-0.16028,0.98554,0.05474,0.71445,-0.18867,-0.34665
-0.14385,0.98821,0.05217,0.48538,-0.11282,0.03069
-0.13595,0.98848,0.06641,0.21545,-0.03501,0.2749
-0.13669,0.9877,0.07582,-0.12792,0.10434,0.11299
-0.14191,0.988,0.06079,-0.16867,0.10476,-0.01637
-0.144,0.98896,0.03461,-0.16658,0.1038,0.00981
-0.14541,0.98928,0.01259,-0.14224,0.05791,-0.00557
-0.14611,0.98922,-0.00822,0.07244,-0.19839,0.05372
-0.14353,0.98917,-0.03024,0.10182,-0.26104,0.12062
-0.13998,0.98894,-0.04889,0.08859,-0.32693,0.19478
-0.13962,0.98831,-0.06105,0.01357,-0.41119,0.19068
-0.14216,0.98752,-0.06761,-0.0012,-0.40322,0.18146
-0.14329,0.98688,-0.07427,-0.06019,-0.30092,0.15461
-0.14053,0.9866,-0.08277,-0.1109,-0.25508,0.17756
-0.13464,0.98655,-0.09262,-0.13901,-0.29021,0.19458
-0.12527,0.98677,-0.10281,-0.16808,-0.26694,0.23781
-0.1124,0.98708,-0.11412,-0.13045,-0.2197,0.22579
-0.09697,0.98703,-0.12784,-0.0363,-0.14241,0.2913
-0.08047,0.98661,-0.14181,-0.03243,-0.02184,0.32844
-0.0668,0.98597,-0.15289,-0.16893,0.0584,0.31523
-0.05616,0.98522,-0.16178,-0.22948,0.10302,0.33584
-0.04738,0.98411,-0.17106,-0.27008,0.25438,0.29485
-0.04026,0.98266,-0.18095,-0.21759,0.42684,0.24824
-0.03463,0.98142,-0.18868,-0.15498,0.58134,0.3293
-0.03226,0.98025,-0.19505,-0.1403,0.5986,-0.00711
-0.0355,0.97914,-0.20003,-0.05544,0.52585,-0.16976
-0.04438,0.97816,-0.20302,0.0149,0.45238,-0.16375
-0.05928,0.97685,-0.20549,0.31219,-0.14006,-0.13043
-0.08285,0.97496,-0.20635,0.36412,-0.1645,-0.04118
-0.11109,0.97362,-0.19928,0.42573,-0.07651,0.07295
-0.1363,0.97406,-0.18058,0.42973,0.18052,0.344
-0.16115,0.97514,-0.15205,0.34366,0.29712,0.47923
-0.18095,0.97675,-0.11484,0.22784,0.33358,0.48609
-0.18962,0.97876,-0.07781,-0.19974,0.19597,0.20948
-0.18822,0.98072,-0.05239,-0.28816,-0.01897,-0.07958
-0.18267,0.98246,-0.03724,-0.32944,-0.10752,-0.17274
-0.17611,0.98384,-0.03189,-0.39976,-0.34549,-0.16758
-0.1675,0.98521,-0.03576,-0.22573,-0.45439,0.00628
-0.15784,0.98671,-0.03828,-0.09363,-0.41176,0.18502
-0.15102,0.988,-0.03196,0.04024,-0.40187,0.2703
-0.1463,0.98896,-0.02293,0.12931,-0.42723,0.3459
-0.14292,0.98956,-0.01774,0.16352,-0.42067,0.40419
-0.14071,0.98986,-0.01888,0.11386,-0.41929,0.40955
-0.13879,0.98995,-0.02661,-0.02819,-0.33293,0.3934
-0.13997,0.98959,-0.03317,-0.1491,-0.1717,0.31219
-0.14784,0.98842,-0.03388,-0.17875,-0.19382,0.08081
-0.15865,0.98684,-0.03081,-0.01573,-0.09713,0.00747
-0.17002,0.98517,-0.02258,0.08472,-0.00524,0.08059
-0.17771,0.98401,-0.01122,0.03609,0.37186,0.42899
-0.17803,0.984,-0.00414,-0.0975,0.36184,0.53589
-0.17171,0.98513,-0.00131,0.05832,0.24308,0.41624
-0.16262,0.98663,0.00965,0.06638,0.23391,0.42265
-0.15655,0.98739,0.0229,0.24299,0.58144,0.34533
-0.15013,0.98819,0.03028,0.21716,0.81581,0.33502
-0.14313,0.9891,0.03417,0.12853,0.67342,0.16074
-0.13469,0.99037,0.03164,0.50262,-0.07881,-0.39226
-0.12585,0.99158,0.03009,0.47967,-0.10074,-0.34075
-0.12,0.992,0.03886,0.19992,-0.1337,0.00783
-0.11775,0.99177,0.04996,-0.19891,-0.05643,0.01695
-0.12064,0.99139,0.05066,-0.37339,-0.03846,-0.06621
-0.12516,0.99143,0.03715,-0.34126,-0.04253,-0.07369
-0.12658,0.99175,0.01942,-0.02786,0.02028,0.00342
-0.1261,0.992,0.00427,0.03745,0.05131,0.03745
-0.12377,0.99224,-0.01084,0.20519,0.0147,0.1361
-0.11771,0.99266,-0.02751,0.3102,-0.20566,0.24081
-0.11184,0.99257,-0.04772,0.28969,-0.26848,0.2744
-0.11208,0.99158,-0.06471,0.06917,-0.37532,0.2606
-0.11923,0.99009,-0.0741,-0.01664,-0.36971,0.20184
-0.12837,0.98825,-0.08282,-0.06464,-0.34674,0.14867
-0.13526,0.98623,-0.09511,-0.07861,-0.33166,0.1071
-0.13669,0.98446,-0.11015,-0.10127,-0.27345,0.18419
-0.13036,0.98403,-0.12112,-0.10704,-0.19335,0.23542
-0.11707,0.98485,-0.12783,0.05072,-0.10923,0.32595
-0.09918,0.9857,-0.13617,0.05584,-0.02582,0.33919
-0.08049,0.98647,-0.14274,0.02311,-0.01685,0.34004
-0.06702,0.98699,-0.14608,-0.13183,0.03399,0.32895
-0.05916,0.98697,-0.1496,-0.18065,0.05229,0.38059
-0.05637,0.98599,-0.15695,-0.20361,0.08939,0.47854
-0.05579,0.98378,-0.17043,-0.22271,0.13872,0.4821
-0.05448,0.98036,-0.18951,-0.23542,0.24047,0.32751
-0.05491,0.9768,-0.20696,-0.23844,0.41947,0.39694
-0.0562,0.97271,-0.22508,-0.23272,0.57409,0.03408
-0.06021,0.96865,-0.24097,-0.02629,0.55016,-0.20445
-0.06786,0.96597,-0.24958,0.10787,0.49305,-0.21214
-0.07984,0.96422,-0.25277,0.29854,0.13437,-0.28036
-0.09567,0.96251,-0.2538,0.25695,-0.02751,-0.15718
-0.1133,0.96078,-0.25309,0.27459,-0.02578,-0.15789
-0.13153,0.9599,-0.24754,0.34943,0.3082,0.14677
-0.14926,0.96156,-0.23045,0.39244,0.5132,0.41106
-0.16562,0.96643,-0.19641,0.38547,0.53667,0.49197
-0.17387,0.97261,-0.15422,0.20731,0.24977,0.23408
-0.16912,0.97823,-0.1202,-0.0329,-0.08899,-0.06558
-0.16005,0.98203,-0.09991,-0.23886,-0.22404,-0.10618
-0.1488,0.9845,-0.09275,-0.37356,-0.29857,-0.0912
-0.13641,0.9861,-0.09476,-0.29097,-0.40167,-0.00361
-0.12338,0.98789,-0.09398,-0.21483,-0.4309,0.0621
-0.11298,0.99012,-0.083,-0.06788,-0.40062,0.2188
-0.10624,0.99212,-0.06631,-0.00925,-0.39552,0.32659
-0.10268,0.99329,-0.05305,-0.02007,-0.49996,0.44155
-0.10124,0.99371,-0.04771,-0.0535,-0.46734,0.48249
-0.1016,0.99362,-0.04871,-0.12963,-0.34995,0.44516
-0.10403,0.99333,-0.04954,-0.23059,-0.1976,0.29337
-0.11244,0.99267,-0.04401,-0.19637,-0.12236,0.09223
-0.12255,0.99196,-0.03139,0.09548,-0.02479,0.16103
-0.1312,0.99125,-0.01418,0.14065,0.07217,0.26916
-0.13396,0.99097,-0.00336,-0.05019,0.33935,0.51679
-0.13122,0.99133,-0.00457,-0.06612,0.16335,0.40579
-0.12618,0.992,-0.00179,-0.12721,0.18014,0.40561
-0.12486,0.99205,0.01493,0.0357,0.60263,0.36768
-0.12698,0.99138,0.03191,0.0975,0.74984,0.37167
-0.12948,0.99045,0.0472,0.12764,0.70624,0.26317
-0.12742,0.99039,0.05355,0.32163,0.0894,-0.39106
-0.12045,0.99151,0.04874,0.41037,0.0024,-0.44636
-0.11212,0.99224,0.05353,0.22067,-0.06179,-0.05423
-0.10646,0.99209,0.06637,-0.03737,-0.11453,0.035
-0.10391,0.99215,0.06945,-0.21254,-0.07561,-0.03004
-0.10414,0.993,0.05553,-0.26793,0.01829,-0.14364
-0.10477,0.99382,0.03641,-0.0034,0.00119,-0.03882
-0.10394,0.99434,0.02153,0.07015,0.06308,0.04309
-0.1035,0.99459,0.00769,0.21669,0.04418,0.15457
-0.10102,0.99486,-0.006,0.27494,-0.08261,0.24433
-0.098,0.99495,-0.02136,0.26559,-0.2554,0.28678
-0.09825,0.99452,-0.03532,0.13458,-0.39972,0.25176
-0.10292,0.99373,-0.04339,-0.04868,-0.4258,0.12017
-0.10916,0.99281,-0.04898,-0.08675,-0.38999,0.08361
-0.11312,0.99195,-0.05672,-0.1448,-0.35055,0.06441
-0.11305,0.99137,-0.06617,-0.31193,-0.19767,0.12083
-0.10787,0.99135,-0.07457,-0.31943,-0.1706,0.2223
-0.09724,0.99179,-0.08295,-0.29968,-0.15536,0.24872
-0.08246,0.99198,-0.09573,-0.04981,-0.12812,0.21411
-0.06487,0.99164,-0.11149,0.03706,-0.16229,0.29273
-0.04614,0.99138,-0.12257,-0.02865,-0.15231,0.29654
-0.03151,0.99125,-0.12808,-0.25577,0.03554,0.33262
-0.0232,0.99078,-0.13338,-0.29035,0.03586,0.38686
-0.01942,0.98955,-0.14279,-0.29413,0.03709,0.39627
-0.01693,0.98763,-0.15582,-0.27416,0.19053,0.25517
-0.0158,0.98573,-0.16755,-0.21922,0.43006,0.28606
-0.01636,0.98363,-0.17941,-0.22563,0.46327,0.28504
-0.01933,0.98085,-0.19373,-0.16881,0.61816,-0.01469
-0.02563,0.97828,-0.20567,0.01785,0.5417,-0.138
-0.03376,0.97606,-0.21481,0.02598,0.54391,-0.12886
-0.04631,0.9744,-0.21997,0.31766,0.16176,-0.3369
-0.06512,0.97348,-0.21927,0.42272,-0.05979,-0.05101
-0.08535,0.97309,-0.21399,0.4147,-0.02305,0.06794
-0.10422,0.97333,-0.20431,0.40269,0.08027,0.33148
-0.12115,0.97486,-0.18696,0.40245,0.21793,0.47764
-0.13349,0.97851,-0.15713,0.2489,0.27786,0.46209
-0.1369,0.98333,-0.11958,-0.04237,0.13943,0.16893
-0.1291,0.98755,-0.08973,-0.37876,-0.07139,-0.10668
-0.11696,0.99039,-0.07363,-0.45004,-0.09151,-0.13475
-0.10594,0.99178,-0.07167,-0.48692,-0.18021,-0.11157
-0.09524,0.99241,-0.07773,-0.23927,-0.3324,0.13045
-0.08489,0.99325,-0.07887,-0.17838,-0.33479,0.19116
-0.07688,0.99433,-0.07333,-0.01383,-0.39757,0.31329
-0.07061,0.99531,-0.06592,0.01684,-0.42224,0.34432
-0.06709,0.99587,-0.0611,0.01875,-0.45276,0.40573
-0.06619,0.99596,-0.06046,-0.15211,-0.36109,0.37426
-0.06618,0.99579,-0.06331,-0.19273,-0.26105,0.33929
-0.06837,0.99549,-0.06559,-0.2488,-0.20799,0.311
-0.0745,0.99522,-0.06297,-0.26012,-0.08708,0.14718
-0.08243,0.99501,-0.05597,-0.15329,0.00666,0.08374
-0.09038,0.99478,-0.04716,-0.04781,0.12149,0.19856
-0.09566,0.99465,-0.03881,-0.15621,0.2731,0.34822
-0.09734,0.99463,-0.03496,-0.15453,0.27312,0.34436
-0.09532,0.99477,-0.0365,-0.21031,0.09819,0.35449
-0.09227,0.99525,-0.03082,-0.07932,0.26458,0.43396
-0.09396,0.99545,-0.01499,0.05958,0.66095,0.41024
-0.10391,0.99457,0.0036,0.07298,0.83005,0.4525
-0.11786,0.99281,0.02041,0.19923,0.42864,0.1814
-0.12624,0.99153,0.03004,0.18874,0.24307,0.02738
-0.12557,0.99154,0.03256,0.52885,-0.14542,-0.28952
-0.11471,0.99275,0.03563,0.35985,-0.1725,-0.0756
-0.10147,0.99396,0.04147,0.13646,-0.1719,0.17392
-0.09366,0.99455,0.04561,-0.12407,-0.03672,0.03295
-0.09344,0.99487,0.03841,-0.16553,0.02286,-0.13115
-0.09382,0.99529,0.0239,-0.01599,0.00506,0.01153
-0.09311,0.9956,0.00998,-0.01669,0.00476,0.02545
-0.08978,0.99594,-0.00497,0.01504,0.13053,0.11216
-0.08529,0.99613,-0.02091,0.06793,0.09565,0.17374
-0.08038,0.99617,-0.03406,0.09722,0.02101,0.21801
-0.0766,0.99591,-0.04769,0.09458,-0.27969,0.22951
-0.07603,0.99526,-0.06043,-0.07225,-0.41297,0.12905
-0.07932,0.99449,-0.06836,-0.10716,-0.40045,0.09697
-0.08423,0.99365,-0.07452,-0.17335,-0.32484,0.06503
-0.08747,0.9928,-0.08173,-0.26417,-0.19254,0.14223
-0.0866,0.99226,-0.08892,-0.27404,-0.15754,0.18842
-0.07994,0.99227,-0.09484,-0.2825,-0.09818,0.30164
-0.06983,0.9926,-0.09924,-0.20127,-0.0984,0.35805
-0.05774,0.99255,-0.10723,-0.14807,-0.13078,0.33462
-0.04589,0.99136,-0.12282,-0.0765,-0.24751,0.30589
-0.03566,0.98964,-0.139,-0.16886,-0.17685,0.35793
-0.02664,0.98834,-0.14983,-0.2358,-0.0923,0.3639
-0.01927,0.98706,-0.15914,-0.30404,0.00568,0.3816
-0.01142,0.98542,-0.1697,-0.31357,0.11892,0.29467
-0.0048,0.98338,-0.18144,-0.31904,0.21928,0.22908
-0.00131,0.98152,-0.19132,-0.13268,0.59482,0.26772
-0.00086,0.9794,-0.20189,-0.06703,0.48773,-0.05719
-0.00549,0.9769,-0.21361,-0.02331,0.54871,-0.15181
-0.01655,0.97535,-0.22,0.14907,0.40761,-0.14215
-0.03488,0.97452,-0.22155,0.23297,0.1697,-0.20516
-0.05866,0.97379,-0.21974,0.26209,0.03665,-0.19559
-0.08397,0.97396,-0.21057,0.18494,0.1099,0.08069
-0.10818,0.97533,-0.19238,0.18272,0.17123,0.15937
-0.1301,0.97741,-0.16654,0.17719,0.24766,0.28763
-0.14678,0.98016,-0.13314,0.05854,0.18757,0.29992
-0.15513,0.9832,-0.09614,0.02642,0.11754,0.16816
-0.15412,0.98572,-0.06771,-0.04467,0.03168,0.04883
-0.14714,0.98772,-0.05241,-0.23529,-0.21152,-0.06362
-0.13876,0.98921,-0.04682,-0.28067,-0.33442,-0.02815
-0.13056,0.99032,-0.04689,-0.18249,-0.44689,0.06952
-0.12178,0.99154,-0.04471,-0.12416,-0.39707,0.20726
-0.11387,0.99291,-0.03388,-0.06209,-0.31559,0.26917
-0.10783,0.99397,-0.0194,-0.0146,-0.36752,0.29786
-0.10242,0.99469,-0.00929,0.00739,-0.40842,0.31219
-0.09823,0.99511,-0.00905,-0.02207,-0.42492,0.28995
-0.09512,0.99527,-0.0194,-0.10955,-0.41465,0.26335
-0.09326,0.99511,-0.03232,-0.20144,-0.28499,0.29739
-0.09483,0.9947,-0.0394,-0.20189,-0.14053,0.25744
-0.10139,0.99404,-0.03972,-0.09803,-0.10514,0.17035
-0.10947,0.99338,-0.03464,0.06775,0.00665,0.26731
-0.11587,0.99294,-0.02512,0.0097,0.30783,0.41051
-0.11816,0.99283,-0.01766,-0.1904,0.38309,0.41092
-0.11674,0.99299,-0.01773,-0.12026,0.24903,0.23066
-0.11469,0.99333,-0.01108,-0.03838,0.4823,0.37088
-0.12099,0.99258,0.01103,0.01548,0.67717,0.40732
-0.12894,0.99114,0.03164,0.11455,0.97067,0.41189
-0.12942,0.99095,0.0352,0.17551,0.37486,0.05391
-0.12355,0.99183,0.03145,0.31285,-0.01601,-0.1431
-0.11398,0.99278,0.03701,0.43311,-0.21753,-0.24799
-0.10446,0.99317,0.05167,0.15439,-0.31156,0.05172
-0.09725,0.99335,0.06141,-0.07476,-0.25875,0.10364
-0.09684,0.99367,0.05667,-0.3932,-0.01314,0.0338
-0.09857,0.99441,0.03763,-0.1501,0.05042,-0.05022
-0.09829,0.99502,0.01611,-0.0663,0.03407,-0.02718
-0.09796,0.99518,-0.0026,0.02954,0.09453,0.01914
-0.09558,0.99519,-0.02092,0.16857,-0.05214,0.14174
-0.09162,0.99506,-0.03782,0.19053,-0.13606,0.18345
-0.09024,0.99455,-0.05208,0.0887,-0.24716,0.21742
-0.09335,0.99364,-0.06289,-0.11309,-0.4046,0.17405
-0.09916,0.99247,-0.07172,-0.11797,-0.39414,0.17162
-0.10412,0.99122,-0.0814,-0.14719,-0.30474,0.17685
-0.1047,0.99021,-0.09223,-0.19319,-0.23355,0.18488
-0.09928,0.98972,-0.10289,-0.19065,-0.21388,0.21167
-0.08883,0.9897,-0.11216,-0.18725,-0.15904,0.32877
-0.07499,0.98982,-0.12093,-0.16737,-0.13947,0.34067
-0.05941,0.98928,-0.13331,-0.03013,-0.11268,0.31968
-0.04551,0.98791,-0.14812,-0.00374,-0.17154,0.31171
-0.03512,0.98654,-0.15965,-0.14922,-0.06956,0.33383
-0.02821,0.98572,-0.16594,-0.24994,-0.00632,0.35785
-0.02446,0.98495,-0.17107,-0.41998,0.11772,0.3713
-0.02084,0.9836,-0.17908,-0.3947,0.20466,0.25152
-0.0173,0.9815,-0.1906,-0.40004,0.28224,0.21485
-0.01352,0.97923,-0.20224,-0.16945,0.52727,0.27751
-0.01192,0.9768,-0.21378,-0.18211,0.49352,0.02608
-0.01658,0.97515,-0.22087,-0.16864,0.49282,-0.06969
-0.0267,0.97414,-0.22434,0.00171,0.34897,-0.12142
-0.0451,0.97301,-0.22627,0.17025,0.10301,-0.22762
-0.07201,0.97213,-0.22308,0.22995,0.00796,-0.19199
-0.09819,0.97248,-0.21124,0.30907,0.06896,0.14061
-0.12016,0.97412,-0.19142,0.36199,0.17414,0.24592
-0.13869,0.97641,-0.16544,0.2974,0.26616,0.35428
-0.15125,0.97908,-0.13602,0.11971,0.23022,0.40073
-0.15505,0.98171,-0.11037,-0.01473,0.09951,0.2237
-0.1513,0.98403,-0.09366,-0.1036,-0.01308,0.01347
-0.1438,0.98608,-0.0833,-0.20274,-0.14595,-0.08273
-0.13573,0.9877,-0.0775,-0.25272,-0.2632,-0.03958
-0.12871,0.98896,-0.07332,-0.14667,-0.36869,0.07088
-0.12144,0.99043,-0.06536,-0.04579,-0.39253,0.19628
-0.11597,0.99185,-0.05258,0.00834,-0.35302,0.28733
-0.11281,0.99279,-0.04017,0.02929,-0.39932,0.35671
-0.11171,0.99318,-0.03291,0.0103,-0.41456,0.41389
-0.11335,0.99304,-0.03151,-0.04215,-0.39438,0.41722
-0.11611,0.99259,-0.03546,-0.12133,-0.32793,0.38745
-0.12003,0.99196,-0.03973,-0.23356,-0.25361,0.31328
-0.12589,0.99117,-0.04141,-0.18786,-0.18823,0.0449
-0.13353,0.99015,-0.04182,-0.12289,-0.17709,0.03989
-0.14155,0.98923,-0.03694,0.00605,-0.04898,0.16976
-0.14637,0.98886,-0.02662,0.03023,0.29651,0.36315
-0.14374,0.98938,-0.02121,-0.02527,0.31865,0.44162
-0.13417,0.99065,-0.0244,0.03615,0.17795,0.47236
-0.12063,0.9924,-0.02399,0.1117,0.31177,0.54906
-0.1103,0.99379,-0.01388,0.09031,0.40762,0.53081
-0.10635,0.99429,-0.00742,0.03776,0.71268,0.52885
-0.10892,0.99403,0.00406,0.06996,0.72544,0.36023
-0.11513,0.99312,0.02081,0.37937,-0.05469,-0.22972
-0.11331,0.99321,0.02595,0.47723,-0.05118,-0.53906
-0.10222,0.99455,0.02004,0.4009,-0.02084,-0.35614
-0.09031,0.99568,0.02118,0.09091,-0.00289,0.1335
-0.08882,0.99567,0.02709,-0.32836,-0.07732,0.00592
-0.09477,0.99524,0.02233,-0.37008,-0.06129,-0.19456
-0.10037,0.99492,0.00573,-0.12772,-0.03714,-0.05621
-0.1032,0.99454,-0.01473,0.12801,0.03872,0.11408
-0.10153,0.99423,-0.03438,0.18004,0.03966,0.17275
-0.0974,0.99375,-0.05436,0.26389,0.01089,0.23595
-0.09083,0.99304,-0.07485,0.34146,-0.23243,0.27962
-0.08524,0.99147,-0.09844,0.25638,-0.35447,0.27276
-0.08546,0.98954,-0.1161,0.15317,-0.37254,0.27132
-0.09079,0.9881,-0.12408,0.03276,-0.41315,0.24117
-0.10059,0.98664,-0.12809,-0.0355,-0.33896,0.16421
-0.1087,0.98495,-0.13429,-0.04566,-0.30003,0.13093
-0.1108,0.98323,-0.1448,-0.12491,-0.22883,0.23259
-0.10635,0.98215,-0.15509,-0.13281,-0.27632,0.32432
-0.09571,0.98155,-0.16547,-0.11114,-0.32328,0.3088
-0.07995,0.98048,-0.17959,0.00155,-0.11294,0.38719
-0.06298,0.98002,-0.18861,-0.05556,0.03275,0.39059
-0.04953,0.97983,-0.19355,-0.12702,0.07425,0.36829
-0.041,0.97891,-0.20011,-0.31352,0.19958,0.44446
-0.0369,0.97706,-0.2097,-0.32582,0.26116,0.49144
-0.0351,0.97388,-0.22428,-0.31321,0.31593,0.39188
-0.03583,0.97104,-0.23619,-0.28299,0.68939,0.34936
-0.04106,0.96804,-0.24736,-0.31876,0.59702,0.06337
-0.05049,0.96406,-0.26082,-0.17014,0.56522,-0.19507
-0.0656,0.96112,-0.26819,0.08831,0.38811,-0.2943
-0.08581,0.95924,-0.26921,0.26121,0.08368,-0.21168
-0.10909,0.9578,-0.26588,0.25826,-0.11584,-0.22104
-0.12916,0.9576,-0.25749,0.22696,0.19745,0.08345
-0.14958,0.95942,-0.23899,0.25262,0.33376,0.21254
-0.16873,0.96283,-0.21088,0.25978,0.56223,0.45176
-0.1843,0.96733,-0.174,0.2329,0.58747,0.49023
-0.19068,0.9723,-0.13511,0.07879,0.0824,0.04643
-0.19042,0.97619,-0.10377,-0.02069,-0.11125,-0.04238
-0.18537,0.97904,-0.08421,-0.24365,-0.31872,-0.08351
-0.17736,0.981,-0.0785,-0.33939,-0.55781,0.01266
-0.16887,0.98227,-0.08128,-0.25546,-0.62703,0.08906
-0.1594,0.98401,-0.07937,-0.09228,-0.61653,0.19192
-0.1516,0.98608,-0.06816,0.02629,-0.59576,0.32464
-0.14566,0.98786,-0.05387,0.05161,-0.61719,0.36509
-0.14247,0.98874,-0.04563,0.03849,-0.62275,0.458
-0.1431,0.98859,-0.04677,0.03209,-0.45972,0.40068
-0.14716,0.98756,-0.05524,-0.03744,-0.22048,0.29738
-0.15306,0.98613,-0.06397,-0.06548,0.03,0.24686
-0.16059,0.98504,-0.06237,-0.02269,0.08267,0.24563
-0.16706,0.98477,-0.04796,0.1518,0.26142,0.21509
-0.17028,0.98483,-0.03299,0.00854,0.54755,0.4384
-0.17033,0.98499,-0.0275,-0.08878,0.27003,0.55
-0.16459,0.98572,-0.03528,-0.02347,0.0378,0.43361
-0.15012,0.98795,-0.03744,0.07945,0.39068,0.50446
-0.13904,0.99008,-0.01943,0.04291,0.60878,0.50514
-0.13888,0.99026,0.00847,0.13048,0.93879,0.50697
-0.14514,0.9887,0.03715,0.23823,0.47103,-0.01655
-0.1437,0.98832,0.05043,0.43697,-0.04884,-0.53471
-0.12536,0.99094,0.04789,0.43983,-0.04862,-0.64487
-0.1065,0.99312,0.04852,0.33679,0.08397,0.10863
-0.09785,0.99259,0.07185,-0.02556,0.05103,0.35201
-0.10227,0.98965,0.10053,-0.16163,0.02913,0.25339
-0.11315,0.98738,0.11072,-0.32396,0.01534,-0.13593
-0.124,0.98733,0.09888,-0.18167,-0.0586,-0.10602
-0.13067,0.98827,0.07894,-0.06538,-0.17165,-0.00556
-0.13167,0.98968,0.05639,0.22852,-0.31318,0.07124
-0.12876,0.99118,0.03102,0.32528,-0.42534,0.19685
-0.12292,0.99239,0.00605,0.31944,-0.42655,0.22182
-0.11698,0.993,-0.01528,0.15966,-0.40495,0.3952
-0.11546,0.99286,-0.02953,0.03151,-0.26816,0.323
-0.11647,0.9923,-0.04188,0.03251,-0.2676,0.33535
-0.116,0.99156,-0.05777,-0.11994,-0.1788,0.10064
-0.11298,0.99073,-0.07524,-0.14054,-0.18598,0.11105
-0.10617,0.99031,-0.08942,-0.14913,-0.20431,0.14662
-0.09612,0.99016,-0.10164,-0.05952,-0.38405,0.25533
-0.08341,0.98928,-0.11975,0.03647,-0.40422,0.33124
-0.06576,0.98743,-0.14365,0.07001,-0.21685,0.38609
-0.04675,0.98513,-0.16527,-0.01298,-0.11098,0.43927
-0.03191,0.98286,-0.18152,-0.2823,0.16411,0.4397
-0.023,0.98064,-0.19444,-0.34497,0.22815,0.38706
-0.01809,0.97804,-0.20759,-0.47924,0.74358,0.17054
-0.01975,0.97566,-0.21837,-0.43258,0.89402,0.21952
-0.02913,0.97205,-0.23293,-0.48604,0.8125,0.13569
-0.04455,0.96862,-0.24447,-0.29993,0.81701,0.08435
-0.05853,0.96593,-0.25206,0.12435,0.3696,-0.31018
-0.07223,0.96397,-0.256,0.3127,0.15461,-0.3411
-0.09006,0.96245,-0.25606,0.37405,-0.03677,-0.23091
-0.10584,0.96211,-0.25125,0.30564,-0.03514,0.14222
-0.11479,0.96323,-0.24287,0.32315,0.01548,0.24332
-0.12092,0.96553,-0.23047,0.23364,0.46274,0.55231
-0.12476,0.97005,-0.20837,0.14884,0.54083,0.48176
-0.12778,0.97609,-0.17577,-0.00182,0.30728,0.16263
-0.12938,0.9811,-0.14384,-0.14988,-0.01653,-0.01839
-0.13223,0.98387,-0.12043,-0.23239,-0.07174,-0.03599
-0.13252,0.98532,-0.1075,-0.33909,-0.18628,-0.00449
-0.12817,0.98637,-0.1031,-0.17365,-0.41978,0.09533
-0.11989,0.98786,-0.0987,-0.09396,-0.48035,0.14292
-0.10951,0.98988,-0.09017,0.05549,-0.58503,0.27645
-0.10003,0.99165,-0.08131,0.07672,-0.71316,0.36389
-0.09495,0.99255,-0.07621,0.05546,-0.75573,0.45362
-0.09704,0.99255,-0.07359,0.02221,-0.65374,0.47192
-0.10449,0.99191,-0.07195,-0.01674,-0.42067,0.42168
-0.11465,0.9909,-0.0704,-0.02656,-0.05775,0.30992
-0.12615,0.98988,-0.0649,-0.02386,0.15011,0.25203
-0.13918,0.989,-0.04985,0.08007,0.26289,0.21005
-0.15337,0.98774,-0.02886,0.12255,0.39736,0.32772
-0.16224,0.98653,-0.02048,-0.08044,0.3271,0.37566
-0.15876,0.98647,-0.04062,0.05979,0.12197,0.24703
-0.14094,0.98816,-0.0604,-0.05227,0.3766,0.40085
-0.12579,0.99071,-0.05148,-0.099,0.64911,0.50543
-0.12321,0.99212,-0.02223,0.1056,1.00788,0.52166
-0.12555,0.99208,0.00016,0.30664,0.31977,0.07029
-0.1182,0.99296,-0.00562,0.49033,-0.13153,-0.16753
-0.10136,0.99472,-0.01553,0.45443,-0.00816,-0.3659
-0.09292,0.99562,-0.00879,0.16306,-0.12838,0.25441
-0.09442,0.9955,0.00723,0.08035,-0.1411,0.29761
-0.10268,0.99447,0.02164,-0.36407,0.0039,-0.05109
-0.10989,0.99348,0.03006,-0.3682,0.07213,-0.12816
-0.11122,0.9934,0.02782,-0.36686,0.07222,-0.12591
-0.111,0.99378,0.00773,0.06005,0.01386,-0.04444
-0.10707,0.99409,-0.01721,0.27427,-0.02254,0.079
-0.09826,0.99431,-0.04086,0.3422,-0.08722,0.17026
-0.08687,0.99419,-0.06343,0.43259,-0.26163,0.32124
-0.07966,0.99315,-0.08532,0.38327,-0.35027,0.44256
-0.08214,0.99201,-0.09568,0.28055,-0.36855,0.4441
-0.09223,0.99101,-0.09685,0.01545,-0.44355,0.20296
-0.10149,0.98966,-0.1013,-0.17438,-0.38549,0.03286
-0.10491,0.98782,-0.11482,-0.17096,-0.38365,0.04638
-0.10074,0.98647,-0.12924,-0.2855,-0.26637,0.16728
-0.08847,0.98609,-0.14065,-0.06758,-0.44166,0.19932
-0.06763,0.98517,-0.15765,0.01522,-0.35953,0.2594
-0.04118,0.98348,-0.17625,0.11737,-0.11917,0.39366
-0.01522,0.98237,-0.1863,-0.12974,0.00422,0.39164
0.00226,0.98161,-0.19087,-0.29312,0.03776,0.39837
0.01194,0.98011,-0.19807,-0.49234,0.32856,0.22465
0.0146,0.97713,-0.21211,-0.47827,0.40567,0.14844
0.01022,0.97358,-0.22809,-0.45964,0.51554,0.28092
0.00055,0.96983,-0.24375,-0.47218,0.58931,0.25666
-0.01553,0.96478,-0.26259,-0.42969,0.60662,0.19309
-0.03621,0.95961,-0.27896,-0.18564,0.74156,-0.01635
-0.05729,0.95456,-0.29245,0.42108,0.09279,-0.31181
-0.07951,0.95019,-0.30135,0.49787,0.03526,-0.28879
-0.10394,0.94812,-0.30041,0.48692,0.02009,-0.08796
-0.12499,0.94894,-0.2896,0.40671,0.18365,0.12169
-0.14446,0.9511,-0.27298,0.38205,0.36268,0.43995
-0.16265,0.9554,-0.24648,0.32098,0.60611,0.61874
-0.177,0.96209,-0.20745,0.22733,0.62453,0.40352
-0.18169,0.96909,-0.16684,-0.05745,0.08675,-0.00409
-0.18139,0.97392,-0.13623,-0.25294,-0.27034,-0.14104
-0.17935,0.97624,-0.12155,-0.37351,-0.34033,-0.04547
-0.17286,0.97755,-0.12038,-0.32589,-0.44315,0.03733
-0.16223,0.97874,-0.12544,-0.25984,-0.47166,0.0871
-0.15133,0.98048,-0.12549,0.04229,-0.45835,0.21279
-0.1417,0.98302,-0.11653,0.15102,-0.4754,0.30678
-0.1342,0.98531,-0.10551,0.21832,-0.55428,0.40226
-0.13071,0.98623,-0.10123,0.21062,-0.5772,0.47472
-0.13211,0.98564,-0.10507,0.13023,-0.47345,0.48777
-0.13793,0.98404,-0.11236,-0.00442,-0.29212,0.47985
-0.14775,0.98196,-0.11793,-0.15925,-0.12835,0.36276
-0.15832,0.98037,-0.11748,-0.03853,-0.13686,0.2139
-0.16855,0.97966,-0.10884,0.09297,-0.13139,0.16605
-0.1759,0.97939,-0.09922,0.25009,-0.0203,0.22161
-0.17817,0.97926,-0.09635,0.0606,0.56117,0.60612
-0.17175,0.97949,-0.1053,0.18208,0.47669,0.46021
-0.15252,0.9809,-0.12062,0.23688,0.40005,0.3257
-0.13182,0.98397,-0.12007,0.07045,1.3159,0.5737
-0.12204,0.98748,-0.09988,0.06067,1.31239,0.55351
-0.12319,0.98965,-0.07347,0.14749,0.72475,0.21255
-0.12409,0.98967,-0.07169,0.39913,-0.38455,-0.43458
-0.11261,0.99038,-0.08029,0.36456,-0.21249,-0.53485
-0.10335,0.99215,-0.07023,0.04806,0.00344,0.05216
-0.10162,0.99362,-0.04868,-0.14733,-0.06323,0.16781
-0.10556,0.9938,-0.03478,-0.29469,-0.06472,0.09457
-0.11049,0.99339,-0.03089,-0.27989,-0.08664,-0.14078
-0.10983,0.99335,-0.03425,-0.07026,0.04681,-0.07125
-0.10948,0.99302,-0.04367,0.0567,0.06362,-0.04454
-0.10901,0.99222,-0.06007,0.25551,-0.02064,0.04692
-0.10448,0.99138,-0.07895,0.36564,-0.17754,0.29443
-0.09703,0.99036,-0.09878,0.37269,-0.27511,0.35821
-0.0917,0.98893,-0.11659,0.10809,-0.43951,0.28697
-0.09271,0.98753,-0.12719,0.01115,-0.46116,0.2571
-0.09974,0.98611,-0.13278,-0.06205,-0.42106,0.22732
-0.10646,0.98452,-0.13921,-0.22113,-0.29404,0.06804
-0.10902,0.9826,-0.15033,-0.2505,-0.23773,0.06832
-0.10498,0.98127,-0.16148,-0.27466,-0.19079,0.12013
-0.09387,0.9812,-0.16859,-0.17444,-0.33397,0.27337
-0.07604,0.98113,-0.17771,-0.02314,-0.17971,0.44549
-0.05382,0.98054,-0.18877,0.02402,-0.08236,0.49863
-0.02966,0.97986,-0.19742,0.04292,-0.1202,0.43788
-0.0112,0.97878,-0.20458,-0.0759,-0.10202,0.462
-7e-05,0.9774,-0.21138,-0.31356,0.02935,0.52128
0.00446,0.97523,-0.22112,-0.40428,0.23925,0.34316
0.00323,0.97133,-0.23769,-0.44305,0.47804,0.25742
-0.00424,0.96675,-0.25566,-0.36669,0.73421,0.22574
-0.01667,0.96111,-0.27564,-0.31816,0.63443,0.05131
-0.0346,0.95539,-0.2933,-0.14103,0.72705,-0.11645
-0.05513,0.95048,-0.30583,0.11701,0.51685,-0.17179
-0.07441,0.94677,-0.31316,0.42504,0.18465,-0.36692
-0.09493,0.94392,-0.31622,0.44579,0.03359,-0.25186
-0.11601,0.94265,-0.31295,0.41861,0.07283,-0.15603
-0.1369,0.94498,-0.29708,0.39088,0.32071,0.32514
-0.15648,0.95024,-0.26935,0.32886,0.51361,0.59688
-0.17249,0.95816,-0.22837,0.26331,0.57237,0.52247
-0.1767,0.96721,-0.18242,0.10379,0.13645,0.07121
-0.17271,0.97366,-0.14879,-0.17188,-0.30415,-0.10809
-0.16555,0.97695,-0.13474,-0.39871,-0.33624,-0.09074
-0.15661,0.97818,-0.13649,-0.44377,-0.39918,-0.04486
-0.14555,0.97877,-0.14422,-0.22966,-0.50392,0.08131
-0.1339,0.98059,-0.14314,-0.01359,-0.46138,0.22458
-0.12525,0.9837,-0.129,0.1044,-0.48008,0.32025
-0.11914,0.9866,-0.11137,0.17909,-0.59152,0.49257
-0.11683,0.98792,-0.10171,0.16121,-0.6016,0.52879
-0.1214,0.98736,-0.10177,0.09305,-0.4882,0.52314
-0.13054,0.98573,-0.10617,-0.04765,-0.20584,0.2703
-0.14047,0.98386,-0.1108,-0.09765,-0.13214,0.18726
-0.15032,0.98247,-0.11019,-0.11482,-0.05681,0.19513
-0.162,0.98211,-0.09588,0.05212,0.14501,0.29326
-0.17361,0.98187,-0.07594,0.10766,0.27301,0.32473
-0.17725,0.9816,-0.07083,-0.05174,0.55892,0.55419
-0.16946,0.98217,-0.08126,0.20666,0.26894,0.23963
-0.1527,0.9845,-0.08613,0.13043,0.36599,0.32638
-0.13967,0.98762,-0.07125,0.08026,0.81772,0.56501
-0.13427,0.98973,-0.04892,0.00847,0.94657,0.57721
-0.13612,0.99014,-0.03267,0.23226,0.13736,-0.00701
-0.13531,0.99011,-0.03677,0.38558,-0.22047,-0.24657
-0.11937,0.99177,-0.04605,0.38516,0.08306,-0.35685
-0.10529,0.99367,-0.03894,0.29827,0.10895,-0.14044
-0.10081,0.99464,-0.02269,-0.07943,-0.14968,0.20929
-0.106,0.99431,-0.00925,-0.27816,-0.18607,-0.07836
-0.1127,0.99361,-0.00341,-0.30817,-0.16386,-0.1805
-0.11521,0.9933,-0.00711,-0.1263,-0.03464,-0.09287
-0.11679,0.99296,-0.01947,0.11697,0.00858,-0.01649
