gravity.x,gravity.y,gravity.z,userAcceleration.x,userAcceleration.y,userAcceleration.z
0.11861,0.92664,-0.35675,-0.32727,-0.2278,0.307
0.11198,0.93009,-0.34984,0.02356,-0.09385,0.47707
0.10193,0.93548,-0.33834,0.26266,0.05078,0.47027
0.09128,0.94445,-0.31572,0.17481,0.1748,0.36747
0.08523,0.95509,-0.28378,-0.07282,0.12161,0.22198
0.08463,0.96455,-0.24997,-0.17096,-0.05865,0.1479
0.08691,0.97162,-0.22001,-0.15155,-0.20739,0.11744
0.09099,0.97651,-0.19528,-0.1115,-0.36184,0.18268
0.09593,0.97976,-0.17568,-0.05337,-0.45393,0.22517
0.09691,0.98275,-0.15747,-0.01151,-0.28517,0.19064
0.09089,0.98649,-0.13632,0.01104,-0.13009,0.09657
0.08414,0.99003,-0.11293,0.03523,-0.29434,-0.0242
0.0745,0.99294,-0.09227,-0.00204,-0.3266,-0.02207
0.05909,0.99519,-0.0781,-0.04094,-0.26526,0.02212
0.04033,0.99692,-0.0673,0.05184,-0.03032,-0.02358
0.01958,0.99815,-0.05754,0.11112,-0.01817,-0.01289
-0.00143,0.99888,-0.04728,0.17466,-0.09585,0.01763
-0.02227,0.99885,-0.0424,0.21886,-0.08094,-0.04494
-0.03995,0.99833,-0.0416,0.31218,-0.06662,-0.09971
-0.05109,0.99801,-0.03686,0.53964,0.0185,-0.06869
-0.05832,0.99794,-0.02664,0.41786,0.18625,-0.09138
-0.0593,0.99819,-0.00978,0.29873,0.34138,-0.02641
-0.04602,0.99892,0.0065,0.37438,0.46852,0.13852
-0.02324,0.99963,0.01424,0.13091,0.46619,0.19813
0.00967,0.99994,0.00505,-0.15631,0.52718,0.18447
0.04646,0.99867,-0.02229,-0.56549,0.77579,0.15495
0.07486,0.99527,-0.06186,-0.59028,0.89099,0.31737
0.09152,0.99108,-0.0969,-0.37738,0.48678,0.24442
0.10176,0.98726,-0.1223,-0.03949,0.34877,0.08461
0.10881,0.98341,-0.14511,0.07257,0.27051,-0.1181
0.11659,0.97894,-0.16755,0.03722,0.16228,-0.06087
0.12736,0.97336,-0.19063,0.02456,-0.15476,0.04651
0.13681,0.9671,-0.21446,-0.11058,-0.31462,0.17404
0.14307,0.96096,-0.23681,-0.18633,-0.31965,0.34761
0.14977,0.95527,-0.25499,-0.12899,-0.44603,0.17814
0.15013,0.95002,-0.27372,-0.18373,-0.55265,0.22032
0.1469,0.94531,-0.2912,-0.17297,-0.59531,0.2324
0.14036,0.94235,-0.30375,-0.13542,-0.65846,0.29202
0.13229,0.94248,-0.30696,-0.06243,-0.68285,0.24627
0.12097,0.94585,-0.30121,-0.01038,-0.71865,0.22313
0.1054,0.95089,-0.29101,0.06399,-0.55301,0.11075
0.08742,0.95566,-0.28119,0.05105,-0.31624,-0.03025
0.07337,0.95822,-0.27647,-0.02387,-0.15402,-0.0887
0.06702,0.95598,-0.28567,-0.05492,0.66728,-0.23873
0.0727,0.9494,-0.30555,0.11033,0.89584,-0.45923
0.08458,0.94348,-0.32046,0.07294,0.6644,-0.48898
0.09307,0.93962,-0.32932,-0.0163,0.15773,-0.27778
0.09634,0.93051,-0.35336,0.09324,0.80531,-0.04364
0.10476,0.91727,-0.38423,0.02289,1.47852,0.13412
0.11458,0.91337,-0.39067,-0.44399,0.86501,0.44744
0.12117,0.91817,-0.37721,-0.49171,-0.59013,0.37822
0.12069,0.92044,-0.37178,-0.3596,-0.59117,0.32591
0.1102,0.92317,-0.36826,0.12882,-0.19233,0.53249
0.09686,0.93043,-0.35343,0.33803,-0.04652,0.53657
0.08122,0.94242,-0.3244,0.07332,0.38115,0.33898
0.06731,0.95585,-0.28605,-0.14162,0.20329,0.06878
0.06299,0.96625,-0.24977,-0.09027,-0.01752,0.0928
0.06645,0.97275,-0.22212,-0.05417,-0.32114,0.16906
0.07356,0.97689,-0.20068,-0.05546,-0.45928,0.21826
0.08291,0.97976,-0.1822,-0.05591,-0.58634,0.26739
0.08678,0.983,-0.1618,-0.0646,-0.41792,0.24568
0.07942,0.98734,-0.1373,-0.02087,-0.08304,0.12473
0.07048,0.99118,-0.11223,0.00252,-0.24873,-0.03543
0.05878,0.99371,-0.09531,-0.04264,-0.33252,0.00502
0.04015,0.99551,-0.08569,-0.03804,-0.26399,0.15673
0.01689,0.99698,-0.0758,0.10279,-0.10115,0.01385
-0.00638,0.99779,-0.06607,0.10642,-0.1121,-0.0577
-0.02771,0.99802,-0.05639,0.15619,-0.09187,0.02486
-0.04755,0.99762,-0.04992,0.36951,-0.04085,-0.11174
-0.06209,0.9971,-0.04388,0.49637,-0.01152,-0.12876
-0.07087,0.99686,-0.03521,0.6054,0.03272,-0.00564
-0.07525,0.99699,-0.01839,0.33639,0.35748,0.14446
-0.06766,0.9977,0.00426,0.21579,0.39895,0.24463
-0.04488,0.99874,0.02241,0.01432,0.55923,0.29857
-0.00882,0.99971,0.02232,-0.24458,0.61703,0.21016
0.0299,0.99955,-0.00054,-0.64941,0.73563,0.22477
0.05939,0.99754,-0.03719,-0.57729,0.64142,0.32129
0.07759,0.99407,-0.07619,-0.36615,0.52748,0.29544
0.08837,0.99006,-0.1094,-0.25277,0.53025,0.16792
0.09723,0.98546,-0.13933,-0.124,0.41743,0.00196
0.10913,0.9802,-0.16524,0.06148,0.24138,-0.02362
0.12083,0.975,-0.18648,0.16622,0.07526,-0.02
0.13158,0.96946,-0.20697,-0.02144,-0.24581,-0.43934
0.1379,0.96386,-0.22794,-0.14413,-0.22718,0.10923
0.14173,0.95773,-0.25033,-0.1211,-0.28582,0.16334
0.14087,0.95191,-0.27208,-0.11953,-0.54309,0.24022
0.13569,0.94688,-0.29154,-0.08494,-0.6841,0.30608
0.1287,0.94273,-0.30772,-0.06376,-0.70452,0.32988
0.12195,0.9404,-0.31743,-0.12264,-0.73748,0.30633
0.11492,0.94076,-0.319,-0.05132,-0.78793,0.22406
0.10552,0.9429,-0.31591,-0.01878,-0.73119,0.2048
0.09331,0.94474,-0.31425,0.03079,-0.41134,0.02453
0.08422,0.94472,-0.31687,0.0166,-0.03012,-0.05341
0.08605,0.94137,-0.3262,-0.06023,0.27687,-0.11551
0.10044,0.93462,-0.34118,0.21569,1.1672,-0.40008
0.11906,0.92836,-0.3521,-0.16373,0.30309,-0.4055
0.12984,0.92196,-0.36486,-0.1745,0.30948,-0.39274
0.13212,0.90963,-0.39386,-0.01536,1.52741,0.04272
0.13422,0.90047,-0.41368,-0.01746,1.53657,0.06255
0.15008,0.90076,-0.40756,-0.16892,-0.12279,0.26485
0.16783,0.9027,-0.39619,-0.39434,-0.23952,0.28213
0.16632,0.90372,-0.3945,-0.364,-0.03504,0.33611
0.14918,0.90748,-0.3927,-0.08781,-0.01686,0.46655
0.12738,0.91575,-0.38101,0.09331,0.04222,0.51791
0.11261,0.92709,-0.35752,0.12388,0.04357,0.36788
0.10375,0.93962,-0.32611,0.00207,0.17488,0.20071
0.09881,0.95052,-0.29454,-0.09063,0.09372,0.18589
0.09775,0.95881,-0.26669,-0.10572,-0.12048,0.21159
0.09764,0.96548,-0.24148,-0.09219,-0.27563,0.19705
0.09764,0.97123,-0.21719,-0.10191,-0.35226,0.23818
0.09668,0.97627,-0.19379,-0.05554,-0.36866,0.25426
0.09189,0.98142,-0.16842,-0.04181,-0.32191,0.20715
0.08409,0.9865,-0.14054,0.01969,-0.24226,0.08801
0.07444,0.9908,-0.11304,-0.08954,-0.35824,0.04821
0.05978,0.99407,-0.09079,-0.07752,-0.3195,0.08906
0.04117,0.99611,-0.07786,-0.16518,-0.17479,-0.04182
0.02346,0.99758,-0.06547,0.06948,0.0621,0.07197
0.00378,0.9986,-0.05265,0.18487,0.00225,0.02422
-0.01446,0.99902,-0.04184,0.15821,0.0141,-0.02109
-0.03023,0.9988,-0.03862,0.1844,0.00976,0.00752
-0.04229,0.99845,-0.03622,0.46853,0.03117,-0.09625
-0.04886,0.99836,-0.02972,0.46704,0.12526,-0.10848
-0.05329,0.99843,-0.01714,0.38259,0.1811,-0.04063
-0.05553,0.99846,-0.00043,0.0777,0.52851,0.00972
-0.05035,0.99865,0.01262,0.10276,0.37877,0.18811
-0.03888,0.9991,0.01716,0.08121,0.36116,0.18814
-0.02034,0.99977,0.00682,-0.18305,0.32782,0.21989
0.00886,0.99972,-0.02209,-0.30374,0.52113,0.15763
0.0408,0.99717,-0.0631,-0.42379,0.7302,0.24107
0.0644,0.99258,-0.10316,-0.48926,0.76256,0.33555
0.0765,0.98825,-0.13235,-0.30407,0.37346,0.13232
0.08365,0.98436,-0.15503,-0.2253,0.3089,0.04233
0.09195,0.97972,-0.17805,-0.07835,0.22918,0.00265
0.10209,0.97432,-0.20069,0.1464,-0.19814,0.09469
0.11332,0.9685,-0.22173,0.07772,-0.23701,-0.1163
0.12012,0.96278,-0.24213,-0.07817,-0.23138,0.19095
0.12739,0.95689,-0.26102,-0.14117,-0.48913,0.23381
0.13222,0.95123,-0.2787,-0.12238,-0.64269,0.23713
0.13312,0.94568,-0.29658,-0.06862,-0.68546,0.25861
0.12786,0.94153,-0.31174,0.00843,-0.66163,0.31633
0.11684,0.941,-0.31758,0.03687,-0.73541,0.2846
0.10504,0.94378,-0.31345,0.06108,-0.69574,0.23629
0.09411,0.94756,-0.30541,0.08112,-0.53175,0.08445
0.0833,0.95033,-0.2999,-0.01396,-0.15202,0.01473
0.07616,0.95034,-0.30175,-0.01183,0.11054,-0.0886
0.07664,0.94603,-0.31489,0.10187,0.76833,-0.24076
0.08637,0.93856,-0.33414,-0.02358,0.79957,-0.40918
0.09826,0.9328,-0.34674,-0.16324,0.57443,-0.38028
0.10654,0.92213,-0.37192,-0.27092,0.96875,-0.22729
0.1155,0.90529,-0.40879,-0.21792,1.96519,0.25954
0.13334,0.89842,-0.41839,-0.18136,0.7776,0.22682
0.16278,0.90346,-0.39657,-0.42309,-0.89923,0.4061
0.17719,0.90541,-0.3858,-0.25283,-0.0038,0.39471
0.16854,0.90739,-0.38502,-0.07,-0.0872,0.44799
0.1438,0.9143,-0.37866,0.34535,0.28004,0.66957
0.1145,0.92771,-0.35531,-0.00839,0.18397,0.39039
0.09484,0.94384,-0.31651,-0.15504,0.13594,0.18387
0.0831,0.95702,-0.27787,-0.21765,0.01236,0.06843
0.07747,0.96554,-0.24846,-0.0925,-0.28138,0.205
0.07454,0.97121,-0.22624,-0.04424,-0.34567,0.21135
0.07271,0.97588,-0.20586,0.04739,-0.37738,0.20673
0.07404,0.97983,-0.18561,-0.04821,-0.38521,0.24788
0.07621,0.98328,-0.16538,-0.04676,-0.34334,0.22206
0.07675,0.98684,-0.14234,0.00664,-0.17415,0.05982
0.07365,0.9902,-0.1187,0.02337,-0.19994,-0.00377
0.063,0.99319,-0.09804,0.02135,-0.26914,-0.02322
0.04546,0.99542,-0.08408,-0.0515,-0.17555,0.00567
0.02343,0.9968,-0.0764,0.02459,-0.05315,0.02284
-0.00025,0.9976,-0.0692,0.15254,-0.07721,0.13431
-0.02153,0.99811,-0.05749,-0.01723,-0.23853,-0.04178
-0.03907,0.99802,-0.04921,0.16274,-0.06718,-0.02852
-0.05385,0.99748,-0.04618,0.48068,0.03736,-0.0926
-0.06441,0.99711,-0.04026,0.60468,0.14828,-0.04921
-0.07165,0.99705,-0.02753,0.48496,0.34128,-0.0345
-0.07182,0.99736,-0.01026,0.20608,0.48234,0.08759
-0.05902,0.99825,0.00328,0.0795,0.58439,0.22727
-0.03545,0.99935,0.00674,-0.11282,0.57275,0.20666
-0.00314,0.99997,-0.00632,-0.29524,0.51661,0.22038
0.03157,0.99883,-0.0367,-0.42734,0.52063,0.16063
0.05953,0.99514,-0.07837,-0.43636,0.74067,0.33635
0.07619,0.99024,-0.1167,-0.35671,0.61764,0.30301
0.08601,0.98545,-0.14662,-0.34446,0.49921,0.13487
0.09548,0.98022,-0.17337,-0.31725,0.37788,0.07471
0.10695,0.97442,-0.19763,0.01282,0.02126,0.04426
0.11996,0.96829,-0.21913,0.03499,-0.21736,-0.21067
0.13342,0.96199,-0.23828,-0.1028,-0.25891,0.09294
0.14595,0.95447,-0.26015,-0.14349,-0.37722,0.1727
0.15275,0.947,-0.2826,-0.12795,-0.5568,0.22803
0.15211,0.94011,-0.30505,-0.05915,-0.67648,0.29803
0.14564,0.93447,-0.32489,-0.06348,-0.7102,0.3447
0.13767,0.93115,-0.33764,-0.06524,-0.75508,0.31525
0.12931,0.93122,-0.34076,-0.04645,-0.81267,0.25129
0.12049,0.93427,-0.33559,0.0246,-0.69589,0.20855
0.11045,0.93816,-0.3281,0.05798,-0.58376,0.03034
0.10094,0.94069,-0.32389,0.02632,-0.28675,-0.07371
0.09568,0.94,-0.32748,-0.0403,-0.06627,-0.03839
0.10244,0.93453,-0.34081,0.05552,0.93041,-0.22789
0.11903,0.92705,-0.35555,-0.03681,0.68775,-0.45374
0.12895,0.92536,-0.35648,-0.03339,0.19146,-0.3526
0.1305,0.92149,-0.36581,-0.21433,0.35217,-0.26606
0.13123,0.91216,-0.38824,-0.27416,1.591,0.20428
0.1359,0.90351,-0.40645,-0.40766,1.55724,0.43341
0.14612,0.90269,-0.40471,-0.34524,0.19206,0.43715
0.15385,0.90676,-0.39258,-0.57187,-0.60362,0.34084
0.14935,0.90977,-0.38732,-0.39877,-0.28842,0.35193
0.13858,0.91372,-0.38197,-0.00379,-0.17509,0.53274
0.12806,0.92128,-0.3672,0.35718,0.31601,0.48177
0.11653,0.93299,-0.34051,0.19659,0.38455,0.37997
0.10885,0.94574,-0.30614,-0.13633,0.30558,0.19278
0.10761,0.95588,-0.27331,-0.18181,-0.17914,0.23509
0.10978,0.96299,-0.24617,-0.17924,-0.29638,0.2043
0.11289,0.96833,-0.22267,-0.13592,-0.3769,0.21147
0.1163,0.97257,-0.20142,-0.05835,-0.38729,0.26413
0.11739,0.97638,-0.1814,-0.04861,-0.37034,0.24412
0.11421,0.98063,-0.15911,0.01227,-0.16409,0.13383
0.11056,0.98455,-0.13578,0.02036,-0.30303,-0.00056
0.1029,0.98804,-0.1148,-0.04884,-0.38847,0.04518
0.0873,0.99116,-0.09988,-0.06993,-0.23097,0.09125
0.06709,0.99376,-0.08912,-0.03534,-0.10783,0.04999
0.04569,0.99584,-0.07885,-0.01383,-0.07237,0.02457
0.02604,0.99737,-0.06759,0.01205,-0.09954,0.02832
0.00922,0.99804,-0.06187,0.10676,-0.02232,-0.00191
-0.00228,0.99826,-0.05884,0.38127,-0.03424,-0.1178
-0.00856,0.99853,-0.05355,0.53508,0.0931,-0.08047
-0.01327,0.99909,-0.04043,0.44476,0.21854,-0.04571
-0.01598,0.99965,-0.0209,0.37319,0.42135,-0.13364
-0.00949,0.99994,-0.0043,0.17936,0.45588,0.1083
0.0037,0.99998,0.00446,0.10558,0.47823,0.10015
0.02346,0.99972,-0.00249,-0.04166,0.45879,0.18657
0.05064,0.99831,-0.02854,-0.45015,0.40933,0.20733
0.07819,0.99447,-0.07005,-0.49042,0.61486,0.23198
0.09714,0.98871,-0.1141,-0.53204,0.65856,0.33807
0.10695,0.98312,-0.14846,-0.32231,0.42408,0.27298
0.11385,0.97817,-0.17384,-0.32479,0.33093,0.09358
0.12233,0.97283,-0.19656,-0.28077,0.37301,0.04785
0.1312,0.96684,-0.2191,0.08278,-0.10156,0.15493
0.14212,0.96077,-0.23817,0.03417,-0.16736,-0.00226
0.14675,0.95499,-0.25777,-0.07534,-0.22335,0.19575
0.15125,0.9495,-0.27491,-0.14585,-0.44425,0.20759
0.1521,0.94428,-0.29187,-0.14968,-0.65061,0.22799
0.1484,0.93907,-0.31002,-0.10923,-0.68251,0.23924
0.14046,0.93489,-0.32596,-0.04453,-0.65201,0.2768
0.13002,0.93354,-0.33406,0.03047,-0.69956,0.2722
0.11931,0.93557,-0.33237,0.04274,-0.69097,0.25101
0.1085,0.93982,-0.32397,0.0822,-0.56533,0.16558
0.09619,0.94394,-0.3158,0.0543,-0.31894,0.10863
0.08596,0.94549,-0.3141,-0.11596,0.10702,-0.01485
0.08445,0.94151,-0.32623,-0.31491,0.74785,-0.16401
0.09679,0.93293,-0.34681,-0.10024,1.208,-0.52174
0.11096,0.92649,-0.35958,-0.18178,0.22809,-0.40683
0.11982,0.92263,-0.3666,-0.11005,-0.01466,-0.31584
0.11822,0.9143,-0.38741,0.17357,1.00686,0.01735
0.1217,0.90447,-0.40881,-0.01704,1.35478,0.16007
0.13283,0.9009,-0.41321,-0.23784,1.08662,0.48791
0.14413,0.90256,-0.40572,-0.34559,-0.40572,0.34527
0.14479,0.90561,-0.39862,-0.35347,-0.38097,0.27821
0.13238,0.90804,-0.39742,-0.16791,-0.10226,0.40736
0.11718,0.91289,-0.39102,0.19283,0.04998,0.51005
0.10281,0.92146,-0.37461,0.23442,0.15919,0.48685
0.09308,0.93299,-0.34765,-0.21092,0.21809,0.28215
0.08904,0.94468,-0.31568,-0.25114,0.17115,0.21986
0.08863,0.95372,-0.28732,-0.20922,-0.0015,0.20865
0.09028,0.96002,-0.26496,-0.14625,-0.27592,0.21012
0.09453,0.96477,-0.24553,-0.11003,-0.39186,0.26548
0.10039,0.9687,-0.22703,-0.0976,-0.39532,0.27244
0.10268,0.97325,-0.20552,-0.06159,-0.20048,0.21009
0.101,0.97867,-0.17887,-0.00905,-0.2094,0.10612
0.09588,0.98356,-0.15304,0.01111,-0.2828,0.07943
0.08349,0.98741,-0.13437,-0.07632,-0.38446,0.11574
0.06559,0.99095,-0.1171,-0.03866,-0.32994,0.0981
0.04501,0.99392,-0.10049,0.0402,-0.12865,0.07399
0.02458,0.99592,-0.08687,0.01545,-0.05361,-0.04759
0.00563,0.99718,-0.07485,0.04918,-0.00894,0.03501
-0.01145,0.99759,-0.06843,0.07139,0.03743,0.0534
-0.02411,0.99768,-0.06366,0.40523,-0.02205,-0.10133
-0.03242,0.99788,-0.0564,0.53468,0.0657,-0.10446
-0.04059,0.99826,-0.04282,0.50844,0.17087,-0.07524
-0.04161,0.99886,-0.02354,0.23773,0.33768,0.10297
-0.02921,0.99956,-0.00536,0.1588,0.43164,0.2392
-0.0087,0.99996,0.00239,-0.00808,0.54312,0.1896
0.01715,0.99982,-0.00813,-0.36149,0.52028,0.18564
0.0434,0.99842,-0.03579,-0.53316,0.42015,0.22239
0.06581,0.99499,-0.07519,-0.453,0.46485,0.24752
0.08181,0.98982,-0.11641,-0.35523,0.5135,0.33553
0.09212,0.98396,-0.15273,-0.16055,0.51219,0.2221
0.10085,0.97801,-0.18255,-0.12275,0.47811,0.13775
0.1087,0.97203,-0.20819,-0.10336,0.30258,-0.01727
0.11405,0.96614,-0.23143,0.02915,-0.11173,0.1155
0.1192,0.96014,-0.25281,-0.11424,-0.24077,0.27921
0.12387,0.95462,-0.27083,-0.06596,-0.29784,0.24567
0.12695,0.94921,-0.28791,-0.11951,-0.43785,0.2168
0.12654,0.9437,-0.30563,-0.16565,-0.56863,0.23114
0.12128,0.9383,-0.32386,-0.13875,-0.69072,0.29222
0.11415,0.93364,-0.33955,-0.10128,-0.71415,0.33764
0.10637,0.93159,-0.3476,-0.03981,-0.75245,0.32105
0.09764,0.93325,-0.34571,0.00544,-0.74367,0.28128
0.08783,0.93722,-0.33749,0.0667,-0.62021,0.20431
0.07798,0.94086,-0.32971,0.04197,-0.33508,0.01565
0.07172,0.94128,-0.32993,-0.08347,0.10065,-0.04662
0.07267,0.93658,-0.34285,-0.02485,1.00042,-0.32614
0.08496,0.92875,-0.36083,0.0066,1.07842,-0.3981
0.09556,0.92412,-0.36997,-0.11938,0.33322,-0.45407
0.10017,0.92292,-0.37173,-0.03653,0.05212,-0.37375
0.10053,0.91686,-0.38634,0.09104,0.22715,-0.31486
0.10226,0.90867,-0.4048,0.19202,0.98363,-0.00128
0.11241,0.90247,-0.41583,-0.25158,1.36102,0.64189
0.12929,0.90131,-0.41343,-0.19743,0.99562,0.62754
0.13756,0.90766,-0.39652,-0.55071,-0.54929,0.20265
0.13163,0.91214,-0.38817,-0.29095,-0.27457,0.43182
0.11742,0.91601,-0.38359,-0.06911,-0.31046,0.49875
0.10151,0.92307,-0.37099,0.37725,0.28236,0.54335
0.08786,0.93466,-0.34452,0.12725,0.56134,0.30881
0.08237,0.94765,-0.3085,-0.14342,0.16452,0.09184
0.08485,0.95731,-0.27631,-0.14207,-0.20216,0.13755
0.08912,0.96338,-0.2529,-0.08994,-0.38498,0.20387
0.09382,0.96799,-0.23279,-0.10374,-0.48975,0.26937
0.09676,0.97208,-0.21379,-0.10672,-0.46966,0.32277
0.09286,0.97708,-0.19156,-0.1066,-0.33201,0.28566
0.08538,0.98229,-0.16677,-0.01375,-0.10966,0.097
0.07788,0.98657,-0.14356,-0.04835,-0.29381,0.00154
0.06594,0.98994,-0.12519,-0.1048,-0.35363,0.09868
0.04846,0.99265,-0.11093,-0.06668,-0.32588,0.12848
0.02889,0.99486,-0.09707,0.01572,-0.1808,0.09744
0.00911,0.99638,-0.08453,0.00694,-0.094,0.01598
-0.00858,0.99742,-0.07125,-0.00176,-0.04744,-0.01594
-0.02449,0.99769,-0.06345,0.13615,0.02552,0.02608
-0.03745,0.9976,-0.05825,0.40836,0.0496,-0.1027
-0.0455,0.99767,-0.05089,0.52371,0.13835,-0.10955
-0.05206,0.99797,-0.03659,0.56645,0.32669,-0.10642
-0.0513,0.99853,-0.01757,0.31735,0.46749,0.17419
-0.03699,0.99931,-0.00304,0.27321,0.50676,0.26189
-0.01313,0.99991,0.00083,-0.00142,0.52856,0.20287
0.01896,0.99971,-0.01466,-0.53864,0.50551,0.16998
0.05078,0.99746,-0.05,-0.59063,0.63006,0.22566
0.0734,0.99284,-0.09425,-0.57215,0.713,0.41879
0.08867,0.98724,-0.13229,-0.40256,0.50869,0.36185
0.10014,0.98154,-0.16295,-0.11276,0.45694,0.16491
0.10979,0.97582,-0.18899,-0.05865,0.39179,0.03605
0.11929,0.9699,-0.21228,-0.05989,0.18467,0.00798
0.12964,0.9635,-0.23424,0.03611,-0.04766,0.04845
0.1376,0.95656,-0.25701,-0.09949,-0.18663,0.15946
0.14428,0.94916,-0.27977,-0.18006,-0.37668,0.39957
0.14707,0.94232,-0.30066,-0.14666,-0.43688,0.22288
0.13873,0.93539,-0.32527,-0.1654,-0.59696,0.29451
0.12834,0.92836,-0.34883,-0.16816,-0.68802,0.35812
0.11927,0.92285,-0.36622,-0.14119,-0.6872,0.38248
0.10992,0.92127,-0.37307,-0.05933,-0.74749,0.3498
0.09933,0.92388,-0.36957,-0.00062,-0.6845,0.26207
0.08705,0.92823,-0.36168,0.00776,-0.62874,0.1957
0.07625,0.9311,-0.35669,0.00816,-0.25201,0.03887
0.0701,0.93079,-0.35877,0.00197,-0.06812,-0.01275
0.07228,0.92574,-0.37118,-0.0528,0.58013,-0.24616
0.0873,0.91732,-0.38846,0.09837,1.33009,-0.38222
0.10444,0.91307,-0.39421,0.02242,0.47737,-0.40637
0.11428,0.91086,-0.39657,-0.18258,0.18542,-0.23283
0.11414,0.90272,-0.41481,0.02833,0.99727,-0.0374
0.11607,0.89491,-0.4309,-0.39822,1.45806,0.21695
0.11732,0.89298,-0.43454,-0.42518,1.19244,0.40383
0.12417,0.8954,-0.4276,-0.29912,-0.17061,0.4276
0.12454,0.89939,-0.41904,-0.27776,-0.38184,0.30249
0.11591,0.9026,-0.41458,-0.03067,-0.1656,0.52085
0.10609,0.90872,-0.40369,0.25267,-0.00029,0.49378
0.09444,0.91948,-0.38163,0.1602,0.16846,0.40973
0.08325,0.9333,-0.3493,-0.10497,0.25145,0.23685
0.07795,0.94633,-0.31367,-0.1605,0.08851,0.17084
0.07935,0.95589,-0.2828,-0.13692,-0.16878,0.19737
0.08343,0.96259,-0.2578,-0.12594,-0.35564,0.21488
0.08981,0.96761,-0.23595,-0.10108,-0.44869,0.32723
0.09695,0.97189,-0.21455,-0.11083,-0.43099,0.304
0.09773,0.97688,-0.19017,-0.08861,-0.33759,0.27719
0.09324,0.98225,-0.16279,-0.02822,-0.14702,0.09947
0.08564,0.98684,-0.13716,-0.0205,-0.30206,-0.02465
0.07237,0.99051,-0.11682,-0.04042,-0.3546,-0.02056
0.05384,0.99337,-0.10158,-0.00204,-0.24647,0.05586
0.03305,0.99542,-0.08967,0.10986,-0.04781,0.03381
0.01267,0.99686,-0.07817,0.13943,-0.08119,0.0003
-0.00494,0.99782,-0.06582,0.13068,-0.06952,0.01661
-0.01953,0.99796,-0.06071,0.15958,0.02666,-0.06487
-0.02787,0.99796,-0.05748,0.39727,-0.00017,-0.05168
-0.03244,0.99813,-0.05181,0.50645,0.19155,0.04226
-0.03384,0.99869,-0.03847,0.34514,0.38504,0.03855
-0.02024,0.99955,-0.02229,0.34551,0.37577,0.0966
0.00378,0.99985,-0.01697,0.2891,0.52405,0.12653
0.03523,0.9988,-0.03385,-0.24166,0.58727,0.11622
0.06739,0.99511,-0.07222,-0.63317,0.76058,0.19906
0.08903,0.98891,-0.11886,-0.62205,0.85281,0.4681
0.10302,0.98254,-0.15492,-0.27274,0.48848,0.25709
0.11403,0.97699,-0.18024,-0.15427,0.42635,0.12618
0.12327,0.97112,-0.20429,-0.00321,0.53734,-0.03714
0.13109,0.96476,-0.22814,-0.0165,0.14504,-0.02326
0.13607,0.95828,-0.25137,-0.04312,0.02408,0.06383
0.13822,0.95188,-0.27353,-0.09662,-0.20246,0.1707
0.13851,0.94612,-0.29271,-0.16335,-0.46492,0.26611
0.13569,0.94065,-0.31109,-0.16804,-0.50379,0.2824
0.13019,0.93478,-0.33052,-0.21012,-0.69239,0.33164
0.12398,0.9291,-0.34842,-0.18838,-0.7507,0.31812
0.11673,0.92472,-0.36231,-0.18055,-0.72361,0.3189
0.10864,0.92295,-0.36926,-0.03827,-0.78372,0.30326
0.09905,0.92389,-0.36962,0.0071,-0.75761,0.2949
0.08799,0.92504,-0.36954,0.04356,-0.60895,0.22809
0.07666,0.92594,-0.36981,0.06764,-0.34284,0.27232
0.07193,0.92751,-0.3668,-0.07605,-0.01063,0.16958
0.07306,0.92535,-0.37202,-0.0689,1.50658,-0.50854
0.08364,0.91932,-0.38452,-0.07835,0.5765,-0.44856
0.09458,0.91744,-0.38646,-0.20814,0.03077,-0.25203
0.09865,0.90835,-0.4064,-0.32346,0.24474,-0.22258
0.10306,0.89387,-0.43631,-0.05178,1.60427,0.08652
0.10381,0.88726,-0.44944,-0.13362,0.90461,0.28013
0.10912,0.8927,-0.43725,-0.17588,0.27192,0.25573
0.11276,0.8954,-0.43074,-0.15715,-0.1553,0.35047
0.10469,0.89681,-0.42986,-0.08273,-0.12201,0.49466
0.09069,0.90091,-0.42442,0.02145,-0.07688,0.56757
0.07721,0.90977,-0.40788,0.2341,-0.03986,0.52647
0.06648,0.92327,-0.37837,-0.00189,0.1271,0.38358
0.05929,0.93845,-0.3403,-0.09661,0.2009,0.28669
0.0563,0.95118,-0.30345,-0.12532,0.05912,0.21673
0.0572,0.96006,-0.27389,-0.14759,-0.19703,0.18551
0.06037,0.96621,-0.25058,-0.16349,-0.30873,0.18135
0.06559,0.97043,-0.23232,-0.12037,-0.50996,0.31629
0.06835,0.97434,-0.21445,-0.06501,-0.309,0.31221
0.06588,0.97967,-0.18947,-0.0126,-0.23221,0.23665
0.06331,0.98523,-0.15908,0.04681,-0.28044,0.01911
0.05839,0.98944,-0.13263,-0.0266,-0.3049,-0.01744
0.0479,0.99206,-0.11631,-0.05313,-0.26617,0.03585
0.03315,0.99387,-0.10546,-0.04248,-0.03106,0.101
0.01543,0.99541,-0.09448,-0.02708,-0.01347,0.05545
-0.00448,0.99654,-0.08302,0.04389,-0.01462,0.05597
-0.02472,0.99685,-0.0753,0.19875,-0.0441,0.03028
-0.04039,0.99655,-0.07248,0.44298,-0.05203,-0.0529
-0.04783,0.99666,-0.06614,0.6032,0.06346,-0.13018
-0.05377,0.99727,-0.05054,0.46777,0.18548,0.01096
-0.05651,0.99793,-0.03067,0.20606,0.54957,0.06572
-0.04782,0.99874,-0.01534,0.15856,0.53473,0.06666
-0.03219,0.99942,-0.0108,0.13788,0.54219,0.24685
-0.0062,0.99969,-0.02409,-0.27673,0.40406,0.26187
0.02784,0.99797,-0.05734,-0.532,0.53162,0.1944
0.05728,0.99312,-0.1021,-0.58154,0.7046,0.29546
0.07659,0.98703,-0.14112,-0.40815,0.4495,0.29965
0.08698,0.98178,-0.16894,-0.27808,0.40105,0.21275
0.09423,0.97675,-0.19256,0.04578,0.18966,-0.01084
0.10241,0.97111,-0.21554,0.16977,0.0389,-0.01134
0.11074,0.96488,-0.23819,0.0734,-0.20117,0.10273
0.11743,0.95795,-0.26178,-0.163,-0.34771,0.25437
0.12538,0.95111,-0.28226,-0.17096,-0.34086,0.27485
0.1284,0.94493,-0.30102,-0.21969,-0.40569,0.30133
0.12823,0.93919,-0.31856,-0.16066,-0.67191,0.30446
0.12366,0.9349,-0.33268,-0.07646,-0.70737,0.3094
0.11509,0.9328,-0.34151,-0.01271,-0.75095,0.32308
0.10641,0.93382,-0.34154,0.04256,-0.70993,0.2695
0.09771,0.93728,-0.3346,0.02808,-0.59127,0.18173
0.08681,0.94079,-0.32768,0.03002,-0.37558,0.03002
0.07669,0.94293,-0.32404,-0.09926,0.1592,-0.05257
0.0704,0.94095,-0.33114,-0.15478,0.48462,-0.09153
0.07391,0.93356,-0.35071,-0.17684,1.0244,-0.22298
0.08565,0.92714,-0.36478,-0.23469,0.63388,-0.43392
0.09142,0.92457,-0.36989,-0.42597,0.24301,-0.26224
0.09133,0.91324,-0.39705,-0.2965,0.4387,-0.16543
0.09725,0.90157,-0.42155,-0.16346,1.29031,0.31619
0.10596,0.89908,-0.42477,-0.30028,1.04881,0.39219
0.11573,0.90181,-0.41634,-0.24869,0.08262,0.37218
0.11271,0.90379,-0.41288,-0.29223,-0.17974,0.34684
0.1022,0.9065,-0.40966,-0.13076,-0.10398,0.50786
0.09123,0.91156,-0.40092,0.06016,-0.03143,0.53305
0.08095,0.92111,-0.3808,0.23857,0.16912,0.45608
0.07178,0.93418,-0.34951,-0.15403,0.20022,0.29764
0.06589,0.94731,-0.31348,-0.20926,0.08071,0.22467
0.06398,0.95739,-0.28163,-0.13411,-0.12925,0.20098
0.06644,0.96434,-0.25617,-0.14532,-0.24115,0.15946
0.07305,0.96899,-0.23606,-0.11789,-0.50579,0.2013
0.08094,0.97264,-0.21776,-0.09183,-0.50078,0.2509
0.08431,0.97739,-0.19392,-0.02385,-0.25295,0.23443
0.0843,0.98264,-0.16526,-0.01103,-0.19446,0.1035
0.07793,0.98688,-0.14139,-0.02529,-0.27971,0.03751
0.06253,0.99012,-0.12548,-0.06845,-0.21984,0.17153
0.0424,0.99261,-0.11367,-0.0677,-0.16569,0.13689
0.02181,0.99449,-0.10258,-0.01054,-0.06222,-0.02691
0.00259,0.9959,-0.09036,0.07737,0.02843,-0.10614
-0.01496,0.99647,-0.08254,0.16127,-0.004,0.08135
-0.0298,0.99646,-0.0786,0.41104,-0.08513,0.03869
-0.03936,0.99676,-0.07015,0.54799,0.07897,-0.01043
-0.04644,0.99737,-0.05557,0.45934,0.22318,0.01069
-0.04794,0.99819,-0.03622,0.17724,0.48804,0.05267
-0.03499,0.99923,-0.01778,0.17815,0.51514,0.25174
-0.01409,0.99981,-0.01335,0.12025,0.55639,0.19632
0.01358,0.99949,-0.02888,-0.26596,0.54233,0.20792
0.04134,0.99715,-0.06311,-0.64182,0.64247,0.2371
0.06155,0.99232,-0.10732,-0.63273,0.66361,0.33995
0.07409,0.98654,-0.14576,-0.49655,0.52682,0.40909
0.08176,0.98114,-0.17517,-0.04054,0.37967,0.12076
0.08554,0.97562,-0.20209,0.00882,0.4383,0.05808
0.08993,0.96921,-0.22924,-0.08983,0.27579,0.14076
0.09574,0.9627,-0.25307,-0.03347,-0.03438,0.0682
0.10083,0.95607,-0.27524,-0.10858,-0.13773,0.14275
0.10776,0.9491,-0.29596,-0.21694,-0.48255,0.25464
0.11495,0.94229,-0.31443,-0.17998,-0.3998,0.09517
0.11735,0.93505,-0.33453,-0.17534,-0.65855,0.29957
0.11417,0.92905,-0.35189,-0.13023,-0.65911,0.36025
0.10812,0.92517,-0.36382,-0.05847,-0.72696,0.37016
0.10148,0.92434,-0.36784,0.00886,-0.78974,0.35199
0.09255,0.92707,-0.36328,0.04107,-0.71986,0.28136
0.08112,0.93172,-0.35401,0.03532,-0.54919,0.07462
0.06796,0.93592,-0.34559,-0.06283,-0.19219,-0.07111
0.05765,0.93609,-0.34701,-0.14472,0.37713,-0.14823
0.05859,0.93017,-0.36241,-0.0079,1.082,-0.33829
0.06924,0.92214,-0.38062,0.10154,1.30853,-0.42807
0.07545,0.9204,-0.38362,0.02734,0.03158,-0.36875
0.07885,0.91928,-0.38562,-0.12673,0.08684,-0.27084
0.0813,0.9093,-0.40812,-0.11626,0.29404,-0.1659
0.09178,0.8973,-0.43178,-0.18557,1.42868,0.40135
0.10264,0.89428,-0.43557,-0.42876,1.04373,0.5154
0.11168,0.90093,-0.41935,-0.44167,0.1857,0.5007
0.11062,0.90604,-0.40848,-0.33994,-0.37897,0.32098
0.10056,0.909,-0.40449,-0.05079,-0.19559,0.50262
0.08874,0.91436,-0.39505,0.19495,-0.13533,0.50884
0.0775,0.9238,-0.37495,0.36804,0.42889,0.46449
0.06748,0.93646,-0.34421,-0.08532,0.43451,0.22092
0.06314,0.9492,-0.30828,-0.2011,0.09249,0.14843
0.06376,0.95871,-0.27713,-0.15334,-0.22449,0.18206
0.06655,0.96543,-0.25202,-0.10054,-0.37788,0.22082
0.07109,0.97022,-0.23156,-0.08591,-0.41254,0.23191
0.0757,0.97367,-0.21501,-0.10465,-0.4308,0.29179
0.07582,0.97741,-0.19728,-0.11157,-0.25352,0.22486
0.07194,0.98122,-0.17896,-0.09089,-0.18398,0.17911
0.06408,0.98464,-0.16242,-0.03925,-0.42591,0.0731
0.04844,0.98788,-0.14743,-0.05664,-0.43536,0.14735
0.02704,0.99067,-0.13353,-0.04527,-0.25786,0.12578
0.00421,0.99281,-0.11965,-0.05459,-0.14196,0.02216
-0.0174,0.99432,-0.10502,-0.03935,-0.12097,0.09284
-0.03679,0.99503,-0.09254,0.05867,-0.06813,0.18155
-0.0524,0.99496,-0.08545,0.38445,-0.04141,-0.03358
-0.06444,0.99483,-0.07845,0.56894,0.14593,-0.14515
-0.07265,0.99518,-0.06581,0.52851,0.31823,-0.06646
-0.07402,0.99622,-0.04541,0.25954,0.49186,-0.01092
-0.06271,0.99761,-0.0291,0.37034,0.43045,0.24896
-0.03996,0.99892,-0.02346,0.18769,0.4775,0.36306
-0.00578,0.99934,-0.03589,-0.32022,0.51803,0.28064
0.02936,0.99738,-0.06615,-0.61411,0.63727,0.20373
0.05591,0.99296,-0.10444,-0.76979,0.84852,0.34026
0.0756,0.98742,-0.13887,-0.67266,0.75246,0.39905
0.09343,0.98132,-0.16818,-0.33664,0.50097,0.17086
0.11135,0.97455,-0.19455,-0.18126,0.46219,0.10056
0.12799,0.96771,-0.21713,0.099,0.14255,0.07112
0.13966,0.96114,-0.23812,0.09626,-0.13718,0.07299
0.14472,0.95491,-0.25925,-0.13265,-0.29266,0.16899
0.14896,0.94848,-0.27964,-0.13997,-0.29017,0.23089
0.15082,0.94246,-0.29835,-0.15173,-0.63428,0.20884
0.14487,0.93764,-0.31598,-0.12373,-0.6641,0.23466
0.13294,0.93331,-0.33357,-0.12258,-0.58303,0.33129
0.12108,0.92998,-0.3471,-0.09952,-0.60117,0.33983
0.11236,0.92953,-0.35122,-0.06375,-0.64463,0.31716
0.10602,0.93256,-0.3451,-0.00928,-0.68424,0.24235
0.09992,0.93706,-0.33455,0.00277,-0.63314,0.20378
0.09182,0.9407,-0.32656,0.04122,-0.42482,0.03663
0.08451,0.94084,-0.32816,-0.11257,0.14373,-0.13191
0.08355,0.93523,-0.34404,-0.11197,0.86088,-0.19996
0.09373,0.92659,-0.36421,0.02584,1.21945,-0.32229
0.10144,0.92234,-0.37283,-0.16344,0.5146,-0.27363
0.10254,0.91203,-0.3971,-0.29936,0.41651,-0.22315
0.10885,0.89612,-0.43024,-0.13218,1.51093,0.13485
0.12244,0.8907,-0.4378,-0.31754,0.07328,0.44787
0.13737,0.89384,-0.42683,-0.40524,-0.41035,0.39756
0.13963,0.89528,-0.42306,-0.29128,-0.36386,0.42558
0.12876,0.89781,-0.42113,-0.06717,0.057,0.54654
0.11215,0.904,-0.41255,0.07452,0.13099,0.56645
0.0978,0.91482,-0.39183,0.16924,0.21565,0.48136
0.09028,0.92807,-0.3613,-0.25884,0.22118,0.23542
0.08822,0.94068,-0.32764,-0.23774,0.05079,0.2303
0.08982,0.95056,-0.29726,-0.17458,-0.05583,0.24772
0.09328,0.95783,-0.27176,-0.05979,-0.25932,0.24919
0.09821,0.96349,-0.24907,-0.02878,-0.34809,0.28052
0.10357,0.96813,-0.22804,-0.01821,-0.37816,0.30098
0.10587,0.97287,-0.20568,-0.02035,-0.27771,0.24445
0.10341,0.97847,-0.17862,-0.06392,-0.28415,0.13815
0.09623,0.98386,-0.15087,-0.08021,-0.32045,0.0828
0.08138,0.98839,-0.12832,-0.12448,-0.32623,0.14172
0.06066,0.99206,-0.11014,-0.10086,-0.20323,0.13303
0.0386,0.99478,-0.09441,-0.07574,-0.14788,0.08371
0.01697,0.99665,-0.08,0.10871,-0.00869,-0.02663
-0.0026,0.99767,-0.06809,0.23402,0.07967,-0.00044
-0.01981,0.99777,-0.06371,0.28543,-0.00793,-0.04234
-0.03247,0.99767,-0.05997,0.4951,0.02099,-0.09463
-0.0401,0.99777,-0.05331,0.52057,0.17642,-0.00701
-0.0453,0.99813,-0.04095,0.28727,0.499,0.11204
-0.0408,0.99885,-0.02492,0.08206,0.55116,0.18025
-0.02472,0.99957,-0.01568,0.11077,0.62848,0.25753
0.00108,0.99972,-0.02342,-0.26447,0.52287,0.22153
0.03217,0.99815,-0.05164,-0.62234,0.55933,0.14705
0.05929,0.99382,-0.09379,-0.63209,0.62871,0.33729
0.07771,0.98776,-0.13525,-0.43558,0.41683,0.4152
0.08957,0.9818,-0.16747,-0.16335,0.31415,0.23076
0.0984,0.97587,-0.19493,0.09816,0.37232,0.06684
0.10479,0.96972,-0.22058,-0.06818,0.20209,0.12062
0.1117,0.96339,-0.24371,-0.03414,0.04074,0.00825
0.11643,0.957,-0.2657,-0.12972,-0.11403,0.12355
0.12004,0.95018,-0.28766,-0.2092,-0.33037,0.24247
0.12477,0.9431,-0.30822,-0.22172,-0.38769,0.13672
0.12268,0.93603,-0.32984,-0.21879,-0.50099,0.30692
0.11533,0.92936,-0.35071,-0.15832,-0.62348,0.35646
0.10541,0.9238,-0.36809,-0.06456,-0.67086,0.39244
0.09611,0.92063,-0.37841,0.00583,-0.73147,0.31922
0.08677,0.9207,-0.38051,0.01636,-0.71402,0.29491
0.07658,0.92287,-0.37742,-0.01103,-0.49771,0.1949
0.06538,0.92482,-0.37473,0.00644,-0.36202,0.11587
0.05619,0.92463,-0.37668,-0.0461,-0.07063,0.04779
0.05238,0.92037,-0.38753,-0.05422,0.94334,-0.25322
0.05858,0.91252,-0.40481,-0.04928,1.20578,-0.34304
0.06772,0.90693,-0.41579,-0.16948,0.49456,-0.41998
0.0761,0.90507,-0.4184,-0.24126,0.14736,-0.26049
0.0775,0.89563,-0.438,0.05008,0.88384,-0.04562
0.07871,0.8811,-0.46634,0.09344,1.63857,0.14242
0.07686,0.87425,-0.47935,-0.18303,0.45366,0.4566
0.07918,0.87884,-0.4705,-0.34898,-0.44702,0.44206
0.07877,0.88133,-0.46589,-0.36699,-0.43937,0.39866
0.07027,0.88214,-0.46571,-0.05553,-0.05087,0.55693
0.05808,0.88651,-0.45905,0.29641,0.04059,0.57949
0.04535,0.89646,-0.44078,0.23445,0.21772,0.43526
0.03521,0.91066,-0.41165,0.01758,0.33402,0.23109
0.03151,0.92584,-0.3766,-0.02452,0.16785,0.19711
0.03465,0.93779,-0.34547,-0.04488,0.01215,0.18164
0.04104,0.94612,-0.3212,-0.1093,-0.29693,0.2288
0.04723,0.9526,-0.30053,-0.14927,-0.46726,0.32006
0.05196,0.95822,-0.28127,-0.13149,-0.45254,0.36338
0.04954,0.96443,-0.25966,-0.10075,-0.2917,0.32954
0.04244,0.97148,-0.23328,-0.08186,-0.27232,0.25174
0.03411,0.97776,-0.20691,-0.06112,-0.43414,0.1195
0.02095,0.98285,-0.18319,-0.07018,-0.34745,0.18228
0.00381,0.98679,-0.16196,-0.05284,-0.15659,0.15536
-0.01461,0.98941,-0.14437,0.03019,-0.01604,0.11452
-0.03469,0.99113,-0.12825,0.1276,0.06127,0.03775
-0.05578,0.99192,-0.11395,0.14908,0.13067,0.07603
-0.07679,0.99117,-0.10809,0.28473,0.08229,0.09999
-0.09443,0.99004,-0.10437,0.63856,0.14286,-0.09645
-0.10629,0.98963,-0.0966,0.62707,0.23915,-0.014
-0.11432,0.98975,-0.0856,0.44693,0.46811,0.03032
-0.10996,0.99147,-0.06998,0.33637,0.47998,0.22557
-0.09562,0.99362,-0.05975,0.20225,0.49227,0.29974
-0.07323,0.99511,-0.06622,-0.23039,0.39823,0.2774
-0.04592,0.99444,-0.09476,-0.52247,0.65521,0.29732
-0.02306,0.99025,-0.13739,-0.54599,0.70688,0.45739
-0.00611,0.98428,-0.17652,-0.38546,0.47987,0.46139
0.00795,0.97841,-0.20651,-0.1782,0.35057,0.2801
0.01886,0.97223,-0.23326,0.03847,0.30656,0.11978
0.02631,0.96511,-0.26052,-0.02674,0.19029,0.19903
0.03189,0.95803,-0.28488,-0.00621,0.08614,0.17283
0.033,0.95186,-0.30473,-0.01885,-0.11442,0.20102
0.03346,0.94626,-0.32167,-0.07554,-0.3727,0.31878
0.03402,0.94139,-0.3356,-0.0738,-0.50866,0.30908
0.03274,0.93669,-0.34862,-0.07814,-0.55434,0.31024
0.02873,0.93147,-0.36268,-0.08032,-0.68319,0.32486
0.02213,0.92617,-0.37644,-0.0685,-0.69354,0.37481
0.01434,0.92373,-0.38277,-0.03055,-0.68867,0.35794
0.00696,0.92481,-0.38035,0.03386,-0.64033,0.33883
-0.00058,0.92745,-0.37395,0.06801,-0.41149,0.26066
-0.00758,0.93034,-0.36662,-0.00476,-0.13488,0.09266
-0.01184,0.93235,-0.36136,-0.13356,0.259,0.06889
-0.01231,0.93027,-0.36667,0.16384,0.85631,-0.38362
-0.00964,0.92426,-0.38163,0.15711,0.66543,-0.43467
-0.00509,0.92053,-0.39063,0.08801,0.48791,-0.32556
0.00134,0.91248,-0.40912,0.02012,0.6039,-0.07467
0.015,0.8937,-0.44842,0.03297,1.75252,0.30108
0.0386,0.87943,-0.47446,-0.04032,1.78155,0.34768
0.0622,0.88639,-0.45874,-0.59256,-0.45881,0.27873
0.07255,0.89393,-0.44229,-0.37707,-0.47951,0.2531
0.065,0.89482,-0.44167,-0.29408,-0.12547,0.30721
0.05064,0.89504,-0.44309,0.26526,0.16027,0.61509
0.03278,0.90083,-0.43292,0.50393,0.37412,0.65292
0.02243,0.91511,-0.40257,0.25319,0.26087,0.44923
0.01616,0.93118,-0.3642,-0.2029,0.15192,0.10947
0.01172,0.94334,-0.33163,-0.05379,-0.04916,0.19935
0.01075,0.95131,-0.30803,-0.00453,-0.29152,0.2412
0.01235,0.95747,-0.28828,0.01232,-0.43378,0.31143
0.01635,0.96278,-0.26979,0.00489,-0.51208,0.36678
0.01812,0.96835,-0.24894,-0.01437,-0.36499,0.29494
0.0145,0.9745,-0.2239,-0.01966,-0.26489,0.18631
0.00739,0.98008,-0.19847,-0.04256,-0.34357,0.16684
-0.00789,0.98414,-0.17722,-0.10663,-0.30878,0.17871
-0.0315,0.98671,-0.15937,-0.11054,-0.12818,0.16515
-0.05955,0.9879,-0.14316,-0.12476,-0.07384,0.12996
-0.08718,0.98791,-0.12817,-0.00532,-0.02903,0.16432
-0.10858,0.98703,-0.11824,0.3247,-0.00387,0.13744
-0.12447,0.9855,-0.11531,0.67027,0.00512,-0.01956
-0.13508,0.98482,-0.10895,0.80929,0.10305,-0.04357
-0.13938,0.98553,-0.0964,0.59897,0.22992,0.03519
-0.13919,0.98721,-0.0777,0.25255,0.48938,0.08452
-0.12923,0.99,-0.0566,0.18761,0.51249,0.28534
-0.10953,0.99306,-0.04284,0.07035,0.54337,0.34848
-0.07714,0.99591,-0.04687,-0.33305,0.56619,0.33774
-0.04067,0.99651,-0.07285,-0.65181,0.63433,0.23914
-0.00972,0.99363,-0.11225,-0.64666,0.69643,0.40096
0.01172,0.9885,-0.15072,-0.61075,0.62226,0.41506
0.02669,0.98266,-0.18346,-0.37205,0.52474,0.25995
0.03825,0.97616,-0.21363,0.00935,0.24144,0.20948
0.04861,0.96905,-0.24201,-0.16755,0.13205,0.16204
0.06121,0.96249,-0.26433,0.07258,-0.06016,0.06958
0.07203,0.95595,-0.28454,-0.08931,-0.37874,0.3072
0.08334,0.94834,-0.30611,-0.15033,-0.41339,0.15068
0.09016,0.9415,-0.32471,-0.09626,-0.57037,0.28341
0.0903,0.93487,-0.3433,-0.02609,-0.68663,0.26481
0.08537,0.92845,-0.3615,0.0047,-0.67381,0.29411
0.079,0.92279,-0.37712,0.01952,-0.61824,0.3343
0.07211,0.92012,-0.38494,0.0331,-0.72364,0.33671
0.06321,0.92146,-0.3833,0.05205,-0.72122,0.30284
0.05268,0.92535,-0.37542,0.04867,-0.53464,0.14838
0.04316,0.92919,-0.36706,0.01277,-0.23994,0.0386
0.03829,0.93102,-0.36294,-0.18869,0.20293,-0.11338
0.04216,0.92585,-0.37553,-0.13744,0.51058,-0.13398
0.05749,0.9151,-0.39911,0.07499,1.39359,-0.3891
0.06608,0.91065,-0.40786,0.07647,0.21478,-0.3903
0.07006,0.9103,-0.40798,0.07594,-0.01384,-0.2221
0.06912,0.9044,-0.42105,0.05862,0.53626,-0.07042
0.07349,0.89805,-0.43371,-0.27569,0.9188,0.31608
0.08347,0.89336,-0.44152,-0.48205,1.04323,0.69941
0.09493,0.89462,-0.43663,-0.23879,0.14506,0.51564
0.09356,0.90377,-0.41765,-0.42846,-0.2756,0.22444
0.08123,0.91088,-0.4046,-0.19083,-0.20717,0.3584
0.06944,0.91653,-0.39388,0.21733,-0.10354,0.48835
0.06019,0.9245,-0.37639,0.26745,0.34501,0.4642
0.05357,0.93644,-0.3467,0.04563,0.38405,0.27776
0.05192,0.94978,-0.30858,-0.06193,0.00026,0.18443
0.05554,0.96001,-0.27437,-0.09056,-0.31091,0.21105
0.06326,0.96615,-0.25009,-0.09452,-0.39228,0.24092
0.07425,0.97013,-0.23094,-0.13162,-0.59221,0.33036
0.07963,0.9743,-0.21069,-0.15722,-0.39732,0.33019
0.07294,0.97974,-0.18652,-0.11516,-0.15713,0.21165
0.06325,0.98423,-0.16516,-0.02276,-0.25662,0.06978
0.04923,0.9876,-0.14907,0.04946,-0.34917,0.07374
0.02888,0.99028,-0.13607,0.09376,-0.24795,0.10461
0.00564,0.99226,-0.12399,0.13903,-0.058,0.044
-0.01761,0.99353,-0.11219,0.1749,0.00235,0.01542
-0.03996,0.99427,-0.09909,0.22063,-0.03561,0.00278
-0.06003,0.99415,-0.08979,0.37035,0.01215,-0.08454
-0.07366,0.99401,-0.08074,0.51671,0.09265,-0.14389
-0.08105,0.9942,-0.07064,0.43684,0.31954,0.04273
-0.08306,0.99496,-0.0561,-0.04095,0.60546,0.22408
-0.07112,0.99648,-0.04427,0.11487,0.63235,0.40921
-0.04929,0.99778,-0.04472,0.05285,0.45628,0.29151
-0.01575,0.99775,-0.06516,-0.48005,0.70439,0.13909
0.02044,0.99413,-0.10619,-0.5906,0.88464,0.20051
0.04547,0.98742,-0.15144,-0.58876,0.73545,0.39177
0.06,0.98094,-0.18482,-0.35654,0.38186,0.27227
0.0701,0.97546,-0.20872,-0.21714,0.3393,0.23078
0.0804,0.96945,-0.23172,0.1505,0.14256,0.02207
0.09025,0.96312,-0.25349,0.33868,-0.27745,0.21055
0.0994,0.95617,-0.27542,-0.08966,-0.36823,0.09903
0.09704,0.95016,-0.29625,-0.19642,-0.4259,0.29707
0.09622,0.94457,-0.31388,-0.20634,-0.66801,0.30332
0.09294,0.93927,-0.33034,-0.1966,-0.68671,0.2277
0.08304,0.93429,-0.34671,-0.07347,-0.67658,0.31035
0.06857,0.9302,-0.36057,0.0257,-0.68242,0.41735
0.05514,0.92878,-0.36649,0.02147,-0.68208,0.35934
0.04449,0.93047,-0.36366,0.03356,-0.61615,0.23765
0.03603,0.93277,-0.35867,-0.00281,-0.4169,0.0505
0.02814,0.93319,-0.35827,-0.06514,-0.10998,-0.00198
0.02394,0.93054,-0.3654,-0.20073,0.27082,0.05128
0.02877,0.92398,-0.38135,0.09558,1.09117,-0.15425
0.04299,0.91541,-0.40022,-0.06669,1.13666,-0.4673
0.04938,0.91246,-0.40616,-0.10897,0.21252,-0.30275
0.0463,0.90529,-0.42225,-0.13978,0.68251,-0.14976
0.0438,0.88997,-0.45391,-0.03313,1.48439,0.33193
0.05813,0.88018,-0.47106,-0.34399,1.15168,0.51965
0.07817,0.88405,-0.4608,-0.48645,-0.19178,0.42518
0.08598,0.89142,-0.44495,-0.40796,-0.45358,0.30873
0.077,0.89488,-0.4396,-0.14244,-0.07056,0.53717
0.06318,0.89931,-0.43271,0.28902,0.08723,0.61655
0.04871,0.91005,-0.41161,0.40746,0.22462,0.56676
0.03654,0.92595,-0.37586,-0.07574,0.29116,0.26499
0.0261,0.94193,-0.33479,-0.17734,0.24116,0.15709
0.02108,0.95382,-0.29963,-0.04422,-0.13816,0.20259
0.02294,0.96176,-0.27293,-0.05024,-0.39889,0.18574
0.02876,0.96667,-0.25437,-0.06291,-0.49373,0.27705
0.0373,0.96976,-0.24116,-0.08191,-0.49918,0.35298
0.04243,0.97385,-0.22316,-0.09509,-0.31259,0.32351
0.04218,0.979,-0.19945,-0.02063,-0.27288,0.13508
0.03684,0.98313,-0.17913,0.00167,-0.4072,0.07346
0.02147,0.98565,-0.16738,0.02182,-0.41176,0.11065
-0.00117,0.98731,-0.15874,-0.00376,-0.16255,0.1607
-0.02379,0.98856,-0.14892,-0.05914,-0.11582,0.06019
-0.04475,0.9898,-0.13521,-0.01363,-0.08189,0.17624
-0.06494,0.98992,-0.12585,0.4871,0.02958,-0.05697
-0.08063,0.98946,-0.12025,0.65639,0.03355,-0.12949
-0.08871,0.98987,-0.11082,0.66554,0.14857,-0.04438
-0.09327,0.99096,-0.09636,0.20016,0.56109,0.03582
-0.09273,0.99286,-0.07497,0.08124,0.57368,0.07885
-0.08008,0.99494,-0.06064,0.24852,0.60173,0.38654
-0.05536,0.9966,-0.061,-0.37619,0.47009,0.31831
-0.01711,0.99628,-0.0844,-0.56324,0.56726,0.28366
0.02017,0.99175,-0.12654,-0.71968,0.96601,0.38174
0.04537,0.98469,-0.1683,-0.58608,0.69352,0.40814
0.06019,0.97838,-0.19783,-0.49288,0.48419,0.32985
0.07237,0.97268,-0.22057,-0.11934,0.33805,0.10579
0.08531,0.96596,-0.24419,0.18152,-0.01244,0.0084
0.09761,0.95893,-0.2663,0.09622,-0.20066,0.06588
0.1066,0.95199,-0.28697,-0.08309,-0.32837,0.18484
0.11251,0.945,-0.30712,-0.14559,-0.46556,0.23886
0.11524,0.93799,-0.32695,-0.13563,-0.68902,0.32347
0.11158,0.9319,-0.34511,-0.09906,-0.73043,0.33173
0.10282,0.92646,-0.36207,0.04206,-0.77219,0.34097
0.09245,0.92182,-0.37642,0.02307,-0.74731,0.36184
0.08533,0.91946,-0.38379,-0.00412,-0.70633,0.29305
0.08101,0.92076,-0.38161,0.01481,-0.68671,0.26335
0.07718,0.92473,-0.37271,0.0567,-0.53686,0.16806
0.0692,0.92912,-0.36324,0.0636,-0.23279,0.08568
0.05531,0.93114,-0.36042,-0.12753,0.38308,-0.01155
0.04704,0.9262,-0.37407,0.09666,1.77502,-0.36154
0.05157,0.91841,-0.39225,0.09214,1.78281,-0.34336
0.05567,0.91794,-0.39279,-0.18151,0.18665,-0.423
0.06096,0.91674,-0.39481,-0.07917,0.00265,-0.10457
0.06281,0.90458,-0.42164,-0.11075,0.83077,0.28737
0.0699,0.88756,-0.45535,-0.50117,1.74299,0.63762
0.07831,0.8846,-0.45973,-0.56305,0.50737,0.59363
0.0797,0.89509,-0.43871,-0.56806,-0.36097,0.36911
0.07629,0.90201,-0.42492,-0.14595,-0.39377,0.2769
0.06899,0.90486,-0.42007,0.20792,-0.07465,0.55347
0.06474,0.90883,-0.41211,0.40181,0.04693,0.59948
0.06028,0.91832,-0.39122,0.16703,0.2733,0.52509
0.05145,0.93295,-0.35631,-0.255,0.25542,0.24586
0.04237,0.94769,-0.31636,-0.25085,0.15166,0.17235
0.0382,0.95802,-0.28415,-0.14268,-0.17672,0.22908
0.04132,0.96436,-0.26134,-0.13843,-0.33992,0.23171
0.05138,0.96811,-0.24517,-0.10236,-0.46895,0.27343
0.0628,0.97081,-0.23146,-0.05765,-0.45706,0.32828
0.06597,0.97477,-0.21321,-0.03498,-0.24862,0.27387
0.06134,0.97925,-0.19312,0.01376,-0.25321,0.07359
0.05127,0.98318,-0.1753,0.0576,-0.37223,0.15777
0.03301,0.98643,-0.16082,0.03148,-0.16088,0.15205
0.01104,0.98879,-0.14887,0.04154,-0.03129,0.09959
-0.00945,0.99037,-0.13808,0.01989,-0.08412,0.06375
-0.0284,0.99166,-0.12565,0.05407,-0.12429,0.08427
-0.04657,0.99183,-0.11873,0.12566,-0.07072,0.0037
-0.06028,0.99169,-0.1136,0.50248,0.07914,-0.08064
-0.06875,0.99205,-0.10534,0.55964,0.14274,-0.02572
-0.07495,0.9929,-0.09237,0.39696,0.33811,0.11015
-0.07197,0.99462,-0.0745,-0.03283,0.47751,0.16393
-0.05668,0.99632,-0.06425,0.05444,0.56131,0.34311
-0.03331,0.99697,-0.0703,-0.14755,0.44197,0.27715
-0.00018,0.99514,-0.0984,-0.42896,0.6511,0.2005
0.03028,0.98966,-0.14015,-0.48341,0.70637,0.30523
0.05299,0.98234,-0.17941,-0.53186,0.67238,0.40006
0.07028,0.97552,-0.20838,-0.28774,0.41564,0.22578
0.08447,0.96896,-0.23232,-0.07396,0.42379,0.07268
0.09992,0.96118,-0.2572,0.08045,0.19347,0.01017
0.11464,0.95347,-0.27885,-0.10466,-0.03507,0.10337
0.12281,0.94641,-0.29869,-0.11117,-0.22763,0.21579
0.12686,0.93999,-0.31675,-0.1678,-0.307,0.19234
0.12537,0.93412,-0.3342,-0.13424,-0.52179,0.29294
0.11795,0.92932,-0.34993,-0.15165,-0.65985,0.36844
0.10706,0.9257,-0.36279,-0.11829,-0.79324,0.33772
0.09576,0.92291,-0.37291,-0.08161,-0.70962,0.30589
0.0849,0.92222,-0.37723,-0.05142,-0.71929,0.27926
0.07589,0.92402,-0.37472,0.02198,-0.66394,0.27612
0.06794,0.92658,-0.36991,0.04195,-0.50589,0.21082
0.05975,0.92824,-0.36714,0.0167,-0.26743,0.12795
0.05177,0.92798,-0.36901,-0.02174,-0.07515,0.07198
0.04691,0.92301,-0.38189,0.06453,1.04862,-0.12566
0.05278,0.91472,-0.40061,-0.00986,1.37626,-0.39503
0.05835,0.91169,-0.4067,-0.18433,0.29018,-0.31902
0.06349,0.90797,-0.41418,-0.2594,0.09396,-0.14327
0.06963,0.89623,-0.43809,-0.02523,0.82048,0.23196
0.08171,0.88565,-0.4571,-0.12967,1.26535,0.36949
0.09254,0.88505,-0.45621,-0.41513,0.56886,0.56088
0.09771,0.89127,-0.44282,-0.52607,-0.16271,0.35862
0.0928,0.8971,-0.43196,-0.3381,-0.33718,0.26963
0.08281,0.8995,-0.42899,0.01407,-0.17796,0.52097
0.07566,0.90369,-0.42146,0.45388,0.07732,0.57684
0.06955,0.91416,-0.39933,0.50415,0.1917,0.53826
0.06205,0.92934,-0.36397,-0.17758,0.28032,0.30008
0.05666,0.94415,-0.3246,-0.16801,-0.06938,0.26927
0.05547,0.95467,-0.29244,-0.17028,-0.19295,0.23748
0.05759,0.96148,-0.26878,-0.14426,-0.42692,0.27862
0.06377,0.96591,-0.25089,-0.14312,-0.47366,0.3319
0.0706,0.96984,-0.23331,-0.12339,-0.37508,0.3622
0.07108,0.97519,-0.20962,-0.06555,-0.14583,0.19679
0.06663,0.98067,-0.18395,-0.05659,-0.22935,0.0986
0.05595,0.98485,-0.16413,-0.04332,-0.33652,0.0855
0.03716,0.98785,-0.15088,-0.0584,-0.12831,0.18643
0.01648,0.99005,-0.1397,-0.0402,-0.11431,0.11842
-0.00247,0.99165,-0.12892,0.039,-0.10882,0.01034
-0.0211,0.99275,-0.11832,0.24315,0.0235,-0.01518
-0.03783,0.99276,-0.11398,0.26769,0.02525,-0.02184
-0.04954,0.99274,-0.10957,0.46825,-0.03782,-0.09964
-0.05728,0.99317,-0.10163,0.53694,0.13087,0.00161
-0.06329,0.9942,-0.08689,0.26951,0.455,0.04757
-0.06079,0.99584,-0.06789,0.06563,0.52223,0.05786
-0.04644,0.99732,-0.05643,0.03428,0.58088,0.29462
-0.0236,0.99793,-0.05981,-0.14998,0.5117,0.31567
0.00738,0.99655,-0.08269,-0.52149,0.5024,0.25368
0.03772,0.99175,-0.12253,-0.64598,0.66929,0.40133
0.05945,0.98438,-0.1657,-0.55818,0.60606,0.50877
0.07454,0.97714,-0.19908,-0.39774,0.46701,0.35719
0.08801,0.97063,-0.22389,-0.08535,0.41446,0.16568
0.09847,0.96423,-0.2461,0.11199,0.21211,-0.02262
0.10557,0.95828,-0.2656,0.09417,-0.02452,0.06285
0.11225,0.95197,-0.28488,-0.11417,-0.1534,0.17097
0.11971,0.94555,-0.30265,-0.14724,-0.27099,0.15606
0.12528,0.93981,-0.31791,-0.12258,-0.49082,0.27239
0.12377,0.93444,-0.33392,-0.11718,-0.61313,0.27887
0.11416,0.92895,-0.35217,-0.05555,-0.73713,0.3618
0.10146,0.92366,-0.36954,-0.01076,-0.74576,0.37884
0.08818,0.92102,-0.37939,-0.00806,-0.66207,0.35081
0.07438,0.92204,-0.37987,0.05909,-0.68257,0.35744
0.0614,0.9248,-0.37547,0.04655,-0.56646,0.26246
0.04908,0.92676,-0.37243,-0.01486,-0.29939,0.07832
0.03914,0.92685,-0.37337,-0.08944,0.0386,0.02874
0.034,0.92117,-0.38768,-0.20247,0.72033,-0.0666
0.0398,0.91045,-0.41171,-0.00385,1.38919,-0.30489
0.04989,0.90487,-0.42276,-0.12017,0.04155,-0.21515
0.05483,0.90321,-0.42569,-0.20203,-0.02715,-0.16362
0.05239,0.89284,-0.44731,-0.1573,0.18945,-0.09885
0.05802,0.88117,-0.46922,-0.21889,1.58326,0.36594
0.07335,0.87761,-0.47373,-0.41756,1.1133,0.51445
0.0876,0.88273,-0.46164,-0.38283,-0.08607,0.29708
0.08779,0.88801,-0.45135,-0.24598,-0.28862,0.28142
0.07795,0.89094,-0.44738,-0.06335,-0.24854,0.5194
0.06686,0.89578,-0.43945,0.47472,-0.00803,0.65365
0.05572,0.90648,-0.41855,0.1068,0.26907,0.51426
0.04381,0.92259,-0.38328,0.11871,0.25296,0.47899
0.03528,0.93915,-0.34168,-0.23421,0.00334,0.24055
0.03416,0.95103,-0.3072,-0.18176,-0.13229,0.23109
0.04023,0.95801,-0.2839,-0.14736,-0.33165,0.24003
0.05024,0.96199,-0.26842,-0.07032,-0.4661,0.35558
0.05903,0.96587,-0.25222,-0.09209,-0.39978,0.35191
0.05978,0.97172,-0.22843,-0.06756,-0.2151,0.25724
0.05616,0.97762,-0.20273,0.05644,-0.30048,0.06322
0.04673,0.9819,-0.18351,0.08137,-0.3134,0.04868
0.02989,0.98481,-0.17104,0.08383,-0.23067,0.14054
0.01183,0.98707,-0.15985,0.04368,-0.11367,0.09088
-0.00495,0.9891,-0.14719,-0.07148,-0.06772,0.01206
-0.02142,0.99063,-0.13485,-0.0123,-0.01444,0.08186
-0.03808,0.99079,-0.12994,0.30023,0.04977,-0.02221
-0.05146,0.99058,-0.12687,0.45759,0.07462,-0.06269
-0.05964,0.99087,-0.12088,0.47473,0.18573,0.04722
-0.065,0.99171,-0.11084,0.18976,0.36992,0.06644
-0.06521,0.99323,-0.09614,0.01656,0.50056,0.23297
-0.05468,0.9945,-0.08934,0.09993,0.37194,0.34016
-0.03531,0.99472,-0.09634,-0.14975,0.30988,0.384
-0.00469,0.99191,-0.12687,-0.44012,0.59223,0.29557
0.02894,0.98413,-0.17504,-0.63786,0.93306,0.40395
0.05365,0.97371,-0.22139,-0.69301,0.79804,0.44986
0.06924,0.96563,-0.25053,-0.30133,0.42518,0.27923
0.07827,0.95994,-0.26906,-0.16836,0.35554,0.15108
0.08839,0.95315,-0.28931,0.31904,0.16775,0.02207
0.09952,0.94481,-0.31213,0.14981,-0.04633,0.08613
0.10683,0.93638,-0.33433,-0.09279,-0.18426,0.14647
0.11014,0.92837,-0.35496,-0.14488,-0.32321,0.27116
0.10825,0.92115,-0.37386,-0.15258,-0.51899,0.41972
0.10264,0.91473,-0.39082,-0.14145,-0.71014,0.41224
0.09522,0.90846,-0.40698,-0.09392,-0.82594,0.39031
0.08366,0.90325,-0.42089,-0.09581,-0.70813,0.39919
0.0687,0.90162,-0.42704,-0.08915,-0.63413,0.32747
0.05525,0.90329,-0.42546,-0.05472,-0.61412,0.30754
0.0459,0.90631,-0.42012,-0.02486,-0.45028,0.22323
0.03962,0.90981,-0.41312,-0.00619,-0.2543,0.14415
0.03431,0.91233,-0.40803,-0.04336,-0.10835,0.16065
0.02898,0.9097,-0.41425,0.11039,0.88806,-0.07229
0.02979,0.90427,-0.42592,0.19665,1.09903,-0.3029
0.03782,0.90244,-0.42914,-0.11018,0.47184,-0.39854
0.04741,0.89434,-0.44487,-0.11448,0.53566,-0.06753
0.05833,0.87831,-0.47451,-0.12539,0.55168,-0.03789
0.07138,0.86808,-0.49126,-0.31061,1.79491,0.55831
0.08571,0.872,-0.48193,-0.33581,-0.07081,0.36851
0.0928,0.88034,-0.46518,-0.44987,-0.74589,0.30119
0.08603,0.88209,-0.46316,-0.23544,-0.32609,0.43916
0.07083,0.88432,-0.46148,0.20752,-0.04438,0.61181
0.0518,0.89422,-0.44461,0.48231,0.3779,0.64952
0.03499,0.91138,-0.41007,-0.05824,0.4477,0.30884
0.02677,0.92879,-0.36964,-0.25986,0.15047,0.06766
0.02701,0.94095,-0.33747,-0.09583,-0.18317,0.17646
0.03285,0.94885,-0.31402,-0.01924,-0.43176,0.27448
0.04036,0.95469,-0.29485,0.00136,-0.49328,0.30132
0.04437,0.9601,-0.2761,-0.00317,-0.30581,0.3378
0.03949,0.96662,-0.25314,-0.02983,-0.13715,0.23423
0.0338,0.97303,-0.2282,-0.0356,-0.20029,0.17093
0.02662,0.97774,-0.20813,-0.08805,-0.38898,0.10098
0.01079,0.98099,-0.19374,-0.05527,-0.22036,0.27499
-0.01064,0.98346,-0.18082,-0.02168,-0.13098,0.27402
-0.03083,0.98531,-0.16795,-0.01747,-0.06437,0.14273
-0.0487,0.98682,-0.1543,0.03159,0.05534,0.11463
-0.06425,0.98706,-0.14691,0.10497,0.107,0.18819
-0.07904,0.98665,-0.14241,0.4957,0.086,0.02086
-0.09052,0.98685,-0.13393,0.60316,0.17186,0.07949
-0.09697,0.98812,-0.1192,0.38834,0.36953,0.02791
-0.09474,0.9905,-0.09966,0.17072,0.52851,0.21868
-0.08015,0.99317,-0.08479,0.26271,0.56417,0.38262
-0.05732,0.99508,-0.08085,-0.08684,0.48922,0.28535
-0.0239,0.99527,-0.0941,-0.46236,0.49476,0.26144
0.01058,0.99175,-0.1277,-0.62646,0.67817,0.21887
0.03555,0.98456,-0.17141,-0.6929,0.65469,0.46126
0.05055,0.97681,-0.20805,-0.54016,0.44234,0.40095
0.06162,0.96965,-0.23658,-0.28216,0.45437,0.22734
0.0712,0.96231,-0.26247,-0.05152,0.24184,0.06963
0.07803,0.95514,-0.28568,0.00619,-0.05026,0.09121
0.08629,0.94704,-0.30931,-0.03981,-0.22342,0.15598
0.09767,0.93809,-0.33232,-0.07442,-0.38443,0.03322
0.11073,0.92915,-0.35271,-0.06401,-0.41846,0.20023
0.11229,0.92122,-0.37247,-0.02759,-0.55088,0.31902
0.1056,0.91518,-0.38897,0.11302,-0.8118,0.36953
0.09358,0.91141,-0.4007,0.12505,-0.80804,0.38126
0.08243,0.91083,-0.40446,0.09222,-0.72585,0.34477
0.07108,0.91389,-0.39969,0.04579,-0.57849,0.22144
0.06065,0.9183,-0.39121,0.0452,-0.47615,0.15421
0.05232,0.92012,-0.38813,0.03243,-0.34739,0.04541
0.04615,0.91866,-0.39234,-0.15708,0.39762,0.03377
0.04742,0.91271,-0.40585,-0.15916,0.75735,-0.06142
0.06073,0.90371,-0.42381,0.00321,1.24422,-0.12782
0.06749,0.90041,-0.42978,-0.28266,0.2496,-0.26473
0.06429,0.89615,-0.43906,-0.36344,0.24279,-0.20411
0.05944,0.88306,-0.46548,0.00418,0.86931,0.18855
0.06389,0.87147,-0.48627,-0.22708,1.35742,0.47828
0.07699,0.86988,-0.48722,-0.29704,0.57801,0.57665
0.08783,0.87503,-0.47604,-0.45357,-0.2586,0.44581
0.08437,0.87929,-0.46875,-0.31409,-0.30393,0.34761
0.0717,0.88259,-0.46465,-0.02334,-0.14586,0.56785
0.0576,0.88956,-0.45317,0.44591,0.16465,0.59424
0.04533,0.9027,-0.42786,0.31022,0.22709,0.50201
0.03576,0.91913,-0.39233,-0.1341,0.23116,0.25676
0.03068,0.9339,-0.35621,-0.09699,-0.08275,0.2357
0.02985,0.94463,-0.32677,-0.04096,-0.20125,0.23485
0.03107,0.95229,-0.30361,-0.01476,-0.38346,0.28014
0.03344,0.95782,-0.28541,-0.04572,-0.48634,0.36464
0.03325,0.96297,-0.26755,-0.0826,-0.41896,0.36024
0.02857,0.96894,-0.24564,-0.10597,-0.22057,0.24978
0.02329,0.97469,-0.22233,-0.06026,-0.24595,0.07107
0.01344,0.97878,-0.20445,-0.02643,-0.24615,0.07497
-0.00356,0.98115,-0.19323,0.09065,-0.03539,0.21807
-0.02296,0.98267,-0.18394,0.11455,-0.03191,0.16966
-0.0417,0.98406,-0.17288,0.0939,-0.07959,0.14332
-0.06057,0.9849,-0.16219,0.109,-0.02651,0.16897
-0.08004,0.9844,-0.1567,0.40132,0.07255,0.0734
-0.09571,0.98398,-0.15042,0.56489,0.11028,0.01617
-0.10507,0.9844,-0.1411,0.49172,0.15964,0.07354
-0.10977,0.98584,-0.12677,0.17813,0.42377,0.1386
-0.1053,0.98841,-0.10931,0.08731,0.45844,0.27093
-0.0896,0.99106,-0.09879,0.12511,0.44424,0.28188
-0.06272,0.99282,-0.10178,-0.24793,0.3954,0.32333
-0.02582,0.99201,-0.12348,-0.47009,0.50384,0.2374
0.00953,0.987,-0.16045,-0.5839,0.70356,0.30674
0.03624,0.97918,-0.19973,-0.62943,0.76841,0.39869
0.05396,0.9717,-0.22996,-0.45691,0.48321,0.26184
0.06727,0.96497,-0.25359,-0.22059,0.3603,0.16629
0.07851,0.95793,-0.27604,0.10882,0.14265,0.09698
0.0853,0.95046,-0.29892,0.0807,-0.1077,0.1738
0.09099,0.94221,-0.32244,-0.1591,-0.23064,0.22989
0.09788,0.93352,-0.34491,-0.18978,-0.29361,0.19747
0.10328,0.92508,-0.36545,-0.16193,-0.48125,0.30695
0.10295,0.91785,-0.38333,-0.08107,-0.61429,0.37747
0.09846,0.91203,-0.39813,-0.00566,-0.77854,0.32271
0.0901,0.90863,-0.40776,0.01225,-0.5837,0.38426
0.07929,0.90814,-0.41108,-0.02364,-0.65857,0.3706
0.07207,0.91101,-0.40602,-0.02805,-0.60662,0.29706
0.06479,0.9156,-0.39684,0.01146,-0.45812,0.18628
0.05567,0.91892,-0.39049,0.0282,-0.23772,-0.0006
0.04678,0.91873,-0.3921,-0.03645,-0.06061,-0.00171
0.04457,0.91213,-0.40747,0.13458,1.33332,-0.15372
0.05468,0.9034,-0.4253,0.16407,1.25178,-0.23197
0.05989,0.9018,-0.42797,-0.23222,0.42538,-0.36753
0.05876,0.89589,-0.44037,-0.26612,0.35265,-0.1658
0.06125,0.8843,-0.46288,0.01408,0.93113,0.29159
0.07536,0.87616,-0.47609,-0.44233,1.16485,0.46597
0.09099,0.87598,-0.47368,-0.3506,0.56709,0.54974
0.09764,0.88258,-0.45991,-0.35714,-0.3063,0.43133
0.09098,0.88799,-0.45078,-0.27309,-0.36908,0.33429
0.08295,0.89159,-0.44518,0.0143,-0.18343,0.59731
0.07628,0.89931,-0.4306,0.29959,0.01444,0.56046
0.06671,0.91286,-0.40279,0.12813,0.28793,0.44452
0.05817,0.92853,-0.36668,-0.22028,0.10007,0.2541
0.05514,0.94118,-0.33338,-0.15741,-0.04263,0.25185
0.05945,0.94954,-0.30796,-0.08193,-0.28628,0.30423
0.06948,0.95506,-0.28814,-0.07308,-0.37935,0.35006
0.08185,0.95958,-0.26926,-0.10649,-0.38051,0.36006
0.0891,0.96504,-0.24647,-0.10482,-0.21277,0.29242
0.09012,0.97084,-0.22214,-0.05542,-0.23712,0.18204
0.08523,0.97527,-0.20389,-0.01753,-0.28619,0.1075
0.07198,0.97883,-0.19158,0.01078,-0.25225,0.16004
0.05433,0.98226,-0.17947,0.0234,-0.17724,0.15424
0.0365,0.98542,-0.16618,-0.02662,-0.125,0.03053
0.01787,0.9882,-0.15213,0.07699,-0.00254,0.04953
-0.00198,0.98964,-0.14358,0.09704,0.0342,0.09403
-0.0196,0.99011,-0.13887,0.28808,0.03515,-0.03535
-0.03041,0.99103,-0.13008,0.51346,0.0133,-0.00209
-0.03471,0.99237,-0.11831,0.43568,0.13918,0.04235
-0.03667,0.9941,-0.10205,0.28583,0.42488,0.0576
-0.03002,0.996,-0.08413,0.15728,0.44591,0.17814
-0.01431,0.99693,-0.07694,0.09471,0.52229,0.31037
0.00765,0.99605,-0.08848,-0.27202,0.44013,0.3451
0.03771,0.99181,-0.12201,-0.59014,0.65849,0.26744
0.06609,0.98323,-0.16995,-0.68936,0.92227,0.45669
0.08407,0.97377,-0.2114,-0.65191,0.64675,0.49955
0.09464,0.96681,-0.23732,-0.38863,0.39077,0.31025
0.10263,0.9608,-0.25754,-0.12027,0.33179,0.12401
0.11134,0.95393,-0.27861,0.19947,0.13094,-0.03898
0.11921,0.94561,-0.30267,0.17214,-0.28497,0.36819
0.12932,0.93555,-0.32865,-0.23166,-0.17107,0.18054
0.12906,0.92827,-0.3488,-0.25099,-0.29805,0.23242
0.12321,0.92297,-0.36462,-0.24503,-0.37295,0.31889
0.11542,0.91733,-0.38103,-0.04988,-0.79861,0.38088
0.10612,0.91109,-0.3983,-0.04058,-0.79238,0.39815
0.09586,0.90662,-0.41092,0.0242,-0.69835,0.41557
0.08517,0.90633,-0.4139,0.02774,-0.65509,0.3197
0.07436,0.90845,-0.41132,0.03251,-0.60872,0.28919
0.06422,0.90992,-0.40978,-0.00236,-0.38777,0.08469
0.05426,0.91016,-0.41068,-0.05647,0.09054,0.0575
0.04741,0.90674,-0.41902,-0.04963,0.09396,0.06584
0.04821,0.89921,-0.43485,0.12313,1.34232,-0.13455
0.05373,0.89516,-0.44249,-0.16106,0.95013,-0.40023
0.05525,0.89602,-0.44056,-0.24777,0.11528,-0.21954
0.05195,0.88725,-0.45834,-0.31596,0.39167,0.00323
0.05467,0.87616,-0.4789,-0.05015,1.01251,0.3939
0.06849,0.87003,-0.48822,-0.4059,1.12655,0.60594
0.08754,0.8747,-0.4767,-0.24121,0.33984,0.50021
0.09611,0.88352,-0.45843,-0.37188,-0.32213,0.33689
0.09104,0.88818,-0.45038,-0.29081,-0.26217,0.33416
0.08266,0.89132,-0.44578,0.23941,0.01084,0.6105
0.07153,0.89912,-0.43181,0.3177,0.18161,0.61678
0.05929,0.91317,-0.40325,-0.02868,0.36432,0.45513
0.0526,0.92915,-0.36594,-0.22483,0.01948,0.23249
0.05511,0.9416,-0.33219,-0.14395,-0.08265,0.24417
0.06474,0.9497,-0.30639,-0.04014,-0.24688,0.26457
0.07751,0.95543,-0.28485,-0.02221,-0.39846,0.29518
0.08768,0.96033,-0.26473,-0.07709,-0.44281,0.33277
0.08835,0.96608,-0.24265,-0.12758,-0.22235,0.32009
0.08397,0.97177,-0.22049,-0.10982,-0.15865,0.1679
0.07655,0.97662,-0.20086,-0.07485,-0.30702,0.10565
0.06289,0.98049,-0.18623,0.00074,-0.27329,0.14538
0.04598,0.98359,-0.17447,-0.03039,-0.14098,0.16631
0.02795,0.98634,-0.16233,0.02666,-0.05775,0.09113
0.00909,0.98885,-0.1486,0.05172,-0.06765,0.07275
-0.00979,0.99028,-0.1387,0.05553,-0.06279,0.05379
-0.02542,0.99097,-0.13165,0.25426,0.01118,-0.02938
-0.03434,0.99201,-0.12139,0.40522,0.04824,-0.01972
-0.03875,0.99337,-0.10822,0.41188,0.28948,0.10819
-0.04096,0.99492,-0.09196,0.16922,0.57732,0.12308
-0.03318,0.99646,-0.0772,0.11872,0.57069,0.29334
-0.01843,0.99704,-0.07461,0.1089,0.57033,0.32169
0.00521,0.9959,-0.09029,-0.37744,0.43957,0.26432
0.03628,0.99148,-0.12508,-0.53843,0.49289,0.24225
0.06354,0.98343,-0.16975,-0.53447,0.66629,0.39571
0.08085,0.97455,-0.20908,-0.44722,0.5398,0.42753
0.08948,0.96742,-0.23684,-0.23572,0.36763,0.2786
0.09631,0.96099,-0.25926,-0.065,0.31345,0.12647
0.10405,0.95375,-0.282,0.03316,0.24861,0.09656
0.1095,0.94563,-0.30625,0.07981,-0.11711,0.13353
0.10935,0.93695,-0.33192,-0.13999,-0.27008,0.23989
0.10729,0.92879,-0.35474,-0.23141,-0.35896,0.32457
0.10491,0.92158,-0.37374,-0.24456,-0.4184,0.37994
0.1013,0.91432,-0.39212,-0.20372,-0.66514,0.41281
0.09849,0.90705,-0.40934,-0.02779,-0.74833,0.43199
0.09016,0.90347,-0.41906,-0.03586,-0.62751,0.41319
0.07949,0.90428,-0.41946,-0.00352,-0.61257,0.31282
0.06957,0.90766,-0.4139,0.05072,-0.5541,0.26508
0.05995,0.9099,-0.41048,0.04603,-0.3858,0.12223
0.05195,0.90962,-0.41217,-0.02253,-0.09876,0.03595
0.04765,0.90536,-0.42196,-0.07307,0.31458,0.03587
0.04854,0.89695,-0.43945,0.08587,1.06884,-0.1425
0.04917,0.89103,-0.45126,-0.05204,0.99085,-0.32447
0.04476,0.89143,-0.45095,-0.05016,0.10165,-0.27395
0.04087,0.88503,-0.46374,-0.05226,-0.00917,-0.09534
0.04626,0.87243,-0.48654,0.1776,0.74309,0.32104
0.06603,0.86537,-0.49676,-0.30181,1.19242,0.62498
0.08153,0.8682,-0.48946,-0.56357,0.85868,0.55509
0.08124,0.87867,-0.47047,-0.52298,0.32154,0.41595
0.06708,0.88458,-0.46153,-0.3844,-0.2403,0.24282
0.05385,0.8866,-0.45939,-0.24236,-0.18463,0.42892
0.04879,0.89318,-0.44705,0.32232,-0.00533,0.66101
0.04609,0.90687,-0.41888,0.13409,0.34591,0.50668
0.04298,0.92403,-0.37989,-0.12595,0.24111,0.26807
0.04198,0.93795,-0.34422,-0.11265,-0.0776,0.20544
0.04622,0.94668,-0.31883,-0.11275,-0.28807,0.24428
0.05426,0.95212,-0.30088,-0.11463,-0.39422,0.31904
0.06369,0.9567,-0.28402,-0.13106,-0.42141,0.41114
0.06839,0.96278,-0.26148,-0.15783,-0.28137,0.38604
0.06894,0.96927,-0.23614,-0.10135,-0.19299,0.2275
0.06468,0.97436,-0.21547,-0.02848,-0.24405,0.09614
0.05277,0.97787,-0.20245,-0.01986,-0.33164,0.13839
0.03471,0.98115,-0.19012,0.02967,-0.19732,0.21626
0.01438,0.98443,-0.17516,0.01973,-0.07647,0.02019
-0.00643,0.98734,-0.15849,0.04374,-0.0537,-0.02992
-0.02632,0.989,-0.14557,0.11354,-0.01793,0.10039
-0.04245,0.98951,-0.13808,0.31291,0.02342,-0.02786
-0.05153,0.99047,-0.12767,0.55458,0.05565,-0.0106
-0.05643,0.99192,-0.11364,0.49385,0.25946,0.11453
-0.05732,0.99377,-0.09551,0.30786,0.49852,0.27407
-0.04538,0.9961,-0.07557,0.10651,0.61711,0.37299
-0.02202,0.9973,-0.06997,0.00678,0.66172,0.3515
0.00981,0.99638,-0.08438,-0.56518,0.58206,0.28039
0.04106,0.99219,-0.11773,-0.76042,0.66183,0.29095
0.06453,0.9851,-0.1594,-0.61373,0.59513,0.46624
0.07921,0.97725,-0.19671,-0.43754,0.43579,0.46893
0.08993,0.96964,-0.22738,-0.36507,0.44831,0.42434
0.09999,0.96206,-0.25385,-0.02867,0.40169,0.15338
0.10614,0.95555,-0.27505,0.02486,0.18437,0.07032
0.10882,0.94908,-0.29564,-0.03008,-0.06655,0.14399
0.10988,0.94181,-0.31766,-0.196,-0.22369,0.20229
0.11547,0.93386,-0.33849,-0.22185,-0.40584,0.38937
0.12286,0.92654,-0.35556,-0.16897,-0.39102,0.29392
0.11918,0.92062,-0.37183,-0.13134,-0.63769,0.33339
0.10848,0.91514,-0.38828,0.06502,-0.82309,0.40506
0.09728,0.91081,-0.4012,0.03434,-0.67733,0.40663
0.08653,0.90999,-0.40549,0.02714,-0.6722,0.36674
0.07555,0.91162,-0.40403,0.06612,-0.67083,0.34004
0.06425,0.91226,-0.40454,0.0791,-0.41215,0.14032
0.05276,0.91055,-0.41001,0.07479,-0.24835,0.03056
0.04631,0.90499,-0.4229,-0.09754,0.35795,-0.03972
0.0517,0.89455,-0.44397,-0.02178,1.2168,-0.19501
0.06115,0.88607,-0.4595,-0.16148,1.04403,-0.34893
0.06098,0.88587,-0.4599,-0.09494,-0.06699,-0.35077
0.05602,0.88647,-0.45937,-0.10012,0.00256,-0.03004
0.05086,0.87965,-0.47289,-0.0579,0.37175,0.1317
0.05937,0.87311,-0.48389,-0.12998,0.92724,0.68505
0.06847,0.87021,-0.48789,-0.68334,1.60313,0.76941
0.06994,0.87964,-0.47047,-0.56721,0.51335,0.42349
0.06248,0.88945,-0.45274,-0.5248,-0.45126,0.14718
0.05759,0.89217,-0.44801,-0.21583,-0.32592,0.44675
0.06135,0.89444,-0.44295,0.2896,-0.29474,0.61946
0.06234,0.90276,-0.42559,0.43719,0.23859,0.61829
0.05533,0.91845,-0.39165,-0.0296,0.36071,0.34245
0.0519,0.93513,-0.35047,-0.07807,0.09863,0.22521
0.05261,0.94694,-0.31707,-0.08157,-0.12174,0.19002
0.05706,0.95438,-0.29308,-0.2113,-0.40325,0.28872
0.06583,0.95924,-0.27482,-0.25351,-0.47569,0.32685
0.07272,0.96385,-0.25632,-0.23803,-0.32852,0.37145
0.07229,0.96974,-0.23317,-0.21374,-0.18205,0.30225
0.07027,0.97507,-0.21046,-0.05973,-0.27398,0.11688
0.06242,0.9791,-0.19354,-0.01516,-0.31887,0.13862
0.04696,0.98234,-0.18112,6e-05,-0.18406,0.22084
0.02875,0.98528,-0.16849,0.05962,-0.05594,0.12217
0.00954,0.98793,-0.15463,0.17179,0.02813,0.02427
-0.0098,0.9897,-0.14278,0.18865,0.04617,0.07571
-0.0266,0.9903,-0.1364,0.22544,-0.03774,-0.02643
-0.037,0.99109,-0.12796,0.53227,0.0482,-0.05522
-0.04162,0.99242,-0.1156,0.53198,0.2015,0.00375
-0.04435,0.99418,-0.09819,0.35114,0.58369,0.02754
-0.03724,0.99606,-0.08042,0.05635,0.50905,0.17849
-0.02074,0.99704,-0.07395,0.06192,0.52288,0.41996
0.00152,0.99632,-0.08564,-0.05403,0.47676,0.39979
0.03206,0.99227,-0.11986,-0.56958,0.61553,0.29497
0.05992,0.98419,-0.16664,-0.60036,0.78058,0.442
0.07784,0.9749,-0.20857,-0.63964,0.65812,0.52736
0.08984,0.96709,-0.23804,-0.45534,0.4859,0.35073
0.10035,0.95992,-0.2617,-0.22322,0.37619,0.19305
0.11014,0.95251,-0.28388,0.08086,0.15484,0.06661
0.1171,0.94487,-0.30579,0.2018,-0.11093,0.0825
0.11916,0.93701,-0.32835,-0.02761,-0.30552,0.21913
0.12063,0.92959,-0.3483,-0.18463,-0.4051,0.28676
0.12023,0.92265,-0.36641,-0.1827,-0.46757,0.362
0.11651,0.91502,-0.38621,-0.08227,-0.75212,0.35174
0.10412,0.90775,-0.40639,-0.03795,-0.77651,0.39368
0.08907,0.90272,-0.42091,-0.00201,-0.68217,0.41798
0.07441,0.90192,-0.42543,0.07213,-0.6533,0.33595
0.06065,0.90382,-0.42359,0.0859,-0.65519,0.33412
0.0481,0.90528,-0.42209,0.03745,-0.35262,0.14796
0.0377,0.9048,-0.42416,-0.039,-0.03627,0.01828
0.0342,0.89938,-0.43582,-0.17361,0.49169,-0.05981
0.04191,0.88978,-0.45445,0.03365,1.42344,-0.14261
0.04836,0.88583,-0.46148,-0.15145,0.81607,-0.2949
0.04766,0.88671,-0.45986,-0.16471,0.20925,-0.3202
0.04512,0.87874,-0.47516,-0.04031,0.40451,0.08835
0.05812,0.86786,-0.49339,-0.07315,1.06964,0.44496
0.08082,0.86223,-0.50003,-0.58483,1.5234,0.664
0.09111,0.87003,-0.48451,-0.62234,0.35783,0.42508
0.08437,0.87993,-0.46755,-0.51585,-0.46144,0.25931
0.07139,0.88303,-0.46385,-0.40099,-0.43844,0.24876
0.06439,0.88647,-0.45828,0.25115,-0.22413,0.69172
0.06075,0.89842,-0.43492,0.43525,0.18622,0.6745
0.05403,0.91708,-0.39501,-0.03792,0.44869,0.42349
0.04932,0.93519,-0.35068,-0.12404,0.01552,0.17702
0.04989,0.94738,-0.31618,-0.08414,-0.1605,0.17876
0.05568,0.95457,-0.29272,-0.08507,-0.3921,0.24107
0.06465,0.95948,-0.27427,-0.09347,-0.58231,0.40482
0.06803,0.96534,-0.25198,-0.11915,-0.50936,0.43635
0.06361,0.9729,-0.22229,-0.14928,-0.10619,0.23886
0.05876,0.97922,-0.19411,-0.09302,-0.21349,0.05946
0.04911,0.98305,-0.17662,-0.08243,-0.30368,0.10411
0.0339,0.98532,-0.16728,0.00823,-0.17206,0.19655
0.01928,0.98729,-0.15774,0.07398,-0.10031,0.13287
0.00537,0.98946,-0.14471,0.11543,-0.10764,-0.0037
-0.00958,0.99088,-0.13441,0.13703,-0.0261,0.01967
-0.0243,0.99143,-0.12835,0.26829,0.02496,0.02217
-0.03431,0.99199,-0.12157,0.46959,0.07082,-0.00217
-0.03787,0.99303,-0.11156,0.46877,0.11127,0.02175
-0.0404,0.99449,-0.09671,0.3859,0.20474,0.10619
-0.03605,0.99601,-0.08161,-0.08306,0.51643,0.1422
-0.02076,0.99679,-0.07731,0.0277,0.44251,0.42011
0.00157,0.9959,-0.09039,-0.14546,0.42646,0.38908
0.03535,0.99155,-0.12482,-0.45985,0.57709,0.32527
0.06964,0.98255,-0.17247,-0.54531,0.92033,0.37921
0.09164,0.97284,-0.21254,-0.74928,0.93287,0.48542
0.10383,0.96582,-0.2375,-0.35519,0.44009,0.2134
0.11414,0.95921,-0.25862,-0.23667,0.36925,0.16736
0.12825,0.95095,-0.28149,0.08566,0.15697,0.07675
0.14255,0.94218,-0.30327,0.04153,-0.14696,0.1446
0.15141,0.93373,-0.32439,-0.23086,-0.2068,0.18991
0.15026,0.92639,-0.3453,-0.30878,-0.21156,0.24288
0.14625,0.92056,-0.36217,-0.22418,-0.59476,0.39969
0.13879,0.9152,-0.37834,-0.21672,-0.5894,0.41586
0.12757,0.91013,-0.39419,-0.03461,-0.84722,0.38837
0.11315,0.90674,-0.40623,-0.05171,-0.70887,0.39198
0.09895,0.90672,-0.40995,0.0042,-0.72563,0.37622
0.0857,0.90943,-0.40693,0.0612,-0.7296,0.34687
0.07259,0.91156,-0.4047,0.05815,-0.46773,0.20258
0.06043,0.91141,-0.40705,0.01118,-0.28724,0.17378
0.053,0.90633,-0.41922,-0.0524,-0.04797,0.13008
0.05772,0.89503,-0.44225,-0.07441,1.26642,-0.17172
0.06997,0.88719,-0.45607,-0.08886,1.51404,-0.35944
0.0758,0.88714,-0.45522,-0.11601,0.11148,-0.34798
0.07621,0.88072,-0.46747,0.07788,-0.10719,-0.09947
0.07835,0.86914,-0.48831,0.07247,0.7794,0.26894
0.09321,0.86241,-0.49755,-0.46891,1.49976,0.62109
0.10445,0.8679,-0.48564,-0.5865,1.0449,0.61177
0.10539,0.87921,-0.46462,-0.66095,-0.10395,0.30698
0.09335,0.88536,-0.45544,-0.2475,-0.34155,0.48367
0.08196,0.88891,-0.45069,0.23987,-0.29179,0.67276
0.0743,0.89778,-0.43412,0.40763,-0.09758,0.67188
0.06338,0.91384,-0.4011,-0.0803,0.41592,0.4309
0.05302,0.93205,-0.35841,-0.22401,0.21339,0.21054
0.05146,0.94563,-0.32115,-0.16878,-0.00372,0.19772
0.05794,0.95317,-0.29681,-0.09477,-0.3919,0.29081
0.06962,0.95738,-0.28029,-0.10272,-0.47899,0.29798
0.08101,0.96102,-0.26434,-0.12908,-0.54539,0.37927
0.08395,0.96647,-0.24264,-0.22668,-0.18835,0.31501
0.08321,0.97223,-0.21872,-0.17511,-0.17183,0.21666
0.07735,0.97675,-0.19992,-0.04475,-0.36127,0.07907
0.06239,0.98054,-0.18612,0.01253,-0.24084,0.15678
0.04321,0.98398,-0.17296,0.04924,-0.05421,0.13267
0.02391,0.98713,-0.15814,0.06372,-0.01288,0.0749
0.00424,0.98985,-0.14202,0.05129,-0.01157,0.00298
-0.01501,0.99105,-0.13263,0.13397,0.01893,0.05349
-0.02929,0.99179,-0.12445,0.43963,0.06505,-0.07199
-0.03488,0.99304,-0.1125,0.54726,0.09852,0.059
-0.03551,0.99468,-0.0967,0.40164,0.47186,0.09737
-0.0262,0.99659,-0.07818,0.11949,0.59656,0.28673
-0.0084,0.99747,-0.0706,0.11155,0.65816,0.40236
0.01696,0.99652,-0.08156,-0.29902,0.60277,0.31061
0.04804,0.99212,-0.11571,-0.64371,0.71583,0.20652
0.07128,0.98426,-0.16171,-0.7526,0.83024,0.44807
0.08505,0.97585,-0.20121,-0.61227,0.52484,0.54221
0.09627,0.96844,-0.22989,-0.50991,0.40323,0.46263
0.1075,0.96121,-0.25402,-0.17861,0.40102,0.18161
0.11567,0.95414,-0.27611,0.07544,0.19805,0.08233
0.12038,0.94713,-0.29741,0.14683,-0.09804,0.11863
0.12191,0.93962,-0.31977,-0.01808,-0.2158,0.20251
0.12332,0.93258,-0.33923,-0.23249,-0.48321,0.2909
0.12135,0.92659,-0.35596,-0.21937,-0.53048,0.3295
0.11399,0.92077,-0.37307,-0.17186,-0.6424,0.37398
0.10202,0.9158,-0.38846,-0.01846,-0.69453,0.35186
0.08944,0.91324,-0.39748,-0.00506,-0.6608,0.35819
0.07814,0.91409,-0.39791,0.01513,-0.67776,0.34225
0.06717,0.91701,-0.39317,0.0753,-0.57324,0.22175
0.05681,0.91825,-0.39191,0.06906,-0.43437,0.1202
0.04829,0.9162,-0.3978,0.04754,-0.293,0.00844
0.04819,0.90955,-0.41279,-0.09225,0.28202,-0.03018
0.0595,0.89842,-0.43509,-0.03698,1.03792,-0.13452
0.073,0.89149,-0.44711,-0.04422,1.23012,-0.27829
0.07404,0.8903,-0.44932,-0.36896,0.27868,-0.1362
0.06742,0.87935,-0.47137,-0.34692,0.59201,0.04805
0.07694,0.86551,-0.49494,-0.58035,1.47859,0.70075
0.09765,0.8626,-0.49637,-0.71989,0.57244,0.42574
0.10995,0.86926,-0.48197,-0.64232,0.01907,0.49288
0.10563,0.87537,-0.47177,-0.33808,-0.1585,0.43535
0.09642,0.87969,-0.46567,0.08555,0.01895,0.69776
0.09047,0.88791,-0.45104,0.35823,0.08684,0.66699
0.08181,0.90274,-0.42233,-0.00967,0.33722,0.50396
0.07548,0.92097,-0.38226,-0.23573,0.27576,0.34118
0.07412,0.93711,-0.34106,-0.20503,0.07232,0.20866
0.07864,0.94806,-0.3082,-0.06735,-0.28905,0.24852
0.08858,0.95466,-0.28422,-0.03941,-0.40934,0.286
0.10145,0.9585,-0.26643,-0.08221,-0.49115,0.37599
0.11134,0.9627,-0.2466,-0.14395,-0.34829,0.38229
0.11041,0.96901,-0.22097,-0.14859,-0.21753,0.2331
0.10247,0.97509,-0.19673,-0.13945,-0.26697,0.14949
0.08742,0.97964,-0.18071,-0.11371,-0.45245,0.14963
0.06697,0.98342,-0.16852,-0.07673,-0.2665,0.18303
0.04876,0.9866,-0.15565,-0.00202,-0.16469,0.05829
0.03475,0.98948,-0.14039,0.07452,-0.1441,0.01858
0.02081,0.99146,-0.1287,0.20285,0.0724,0.09989
0.00684,0.99262,-0.12108,0.33178,0.11757,-0.00059
-0.00181,0.99375,-0.11158,0.44911,0.14275,0.00019
-0.0047,0.995,-0.09977,0.36275,0.27678,0.07783
-0.00334,0.99659,-0.08248,0.09196,0.50166,0.14437
0.01034,0.99753,-0.06938,0.17441,0.55737,0.29726
0.03313,0.99654,-0.07619,-0.0351,0.53729,0.31283
0.06551,0.99207,-0.10724,-0.34195,0.5222,0.30625
0.09534,0.98309,-0.15632,-0.87911,1.04036,0.3684
0.11344,0.97326,-0.1997,-0.84055,0.93207,0.58799
0.12295,0.96636,-0.22588,-0.66162,0.72718,0.54615
0.12851,0.9611,-0.24446,-0.24321,0.47566,0.13408
0.13634,0.95461,-0.26483,0.03964,0.39027,0.0055
0.1448,0.94743,-0.28533,0.18319,0.03655,0.04642
0.14754,0.94075,-0.30533,-0.0313,-0.24934,0.1937
0.14599,0.9348,-0.32379,-0.21021,-0.40236,0.2503
0.1405,0.92937,-0.34135,-0.27031,-0.58019,0.41569
0.13214,0.92385,-0.35921,-0.24313,-0.92352,0.45152
0.12096,0.91916,-0.37483,-0.17753,-0.86403,0.41765
0.10922,0.91613,-0.38571,-0.1493,-0.79459,0.42082
0.10036,0.9156,-0.38935,-0.1194,-0.77148,0.40049
0.09478,0.91661,-0.38838,-0.07897,-0.6255,0.25639
0.09161,0.91635,-0.38974,-0.0605,-0.52123,0.14331
0.0903,0.91424,-0.39498,-0.06243,-0.39962,0.02428
0.09284,0.90902,-0.40627,-0.04954,0.05463,-0.06976
0.10014,0.89853,-0.42733,0.08328,0.79933,-0.15861
0.10951,0.88821,-0.44618,0.1486,1.18101,-0.27283
0.10608,0.88618,-0.45104,0.03245,0.44372,-0.22204
0.0949,0.87753,-0.47004,-0.37023,0.69243,0.15223
0.10207,0.86112,-0.49805,-0.41518,1.64413,0.44159
0.13331,0.85342,-0.50389,-0.73448,0.94153,0.36088
0.16626,0.86076,-0.48109,-0.67179,-0.36057,0.48532
0.17305,0.86664,-0.46796,-0.53437,-0.31212,0.35398
0.15936,0.87057,-0.46552,-0.07776,-0.0626,0.52487
0.13984,0.87778,-0.4582,0.39743,0.33371,0.68491
0.12136,0.89258,-0.43424,0.28372,0.53194,0.46446
0.10962,0.91223,-0.39473,-0.22076,0.36873,0.15651
0.10417,0.92921,-0.35455,-0.12538,0.01843,0.12912
0.10361,0.94098,-0.3222,0.01636,-0.22994,0.265
0.10672,0.94853,-0.29814,0.03811,-0.37256,0.29828
0.11378,0.95316,-0.28025,0.01184,-0.45866,0.35587
0.12224,0.9566,-0.26449,-0.11377,-0.54097,0.39236
0.12447,0.96144,-0.24522,-0.20321,-0.36311,0.33676
0.11917,0.96741,-0.22342,-0.2321,-0.28657,0.21074
0.10827,0.97298,-0.20393,-0.23893,-0.45929,0.16093
0.08999,0.97792,-0.18858,-0.24145,-0.45085,0.25766
0.0678,0.98269,-0.1724,-0.18222,-0.27334,0.1932
0.04661,0.98688,-0.15458,-0.07781,-0.09401,0.13976
0.02785,0.99029,-0.13614,0.10132,0.05693,0.15558
0.0105,0.99229,-0.12349,0.11821,0.11494,0.16807
-0.00376,0.99314,-0.1168,0.19711,0.14649,-0.00435
-0.01147,0.99409,-0.10791,0.4519,0.15543,0.05104
-0.01564,0.99514,-0.09721,0.41579,0.2443,0.15057
-0.01408,0.99653,-0.08199,-0.00521,0.4647,0.08201
-0.00059,0.99725,-0.074,0.13644,0.48144,0.29032
0.02174,0.99627,-0.08349,0.09084,0.46321,0.35069
0.05633,0.99187,-0.11405,-0.42683,0.56277,0.24842
0.08955,0.98299,-0.16035,-0.67109,1.00191,0.27378
0.11068,0.97329,-0.20113,-0.8504,0.98032,0.57248
0.12502,0.96633,-0.22486,-0.53466,0.60105,0.43305
0.13846,0.96011,-0.24292,-0.33154,0.52356,0.1024
0.1584,0.95111,-0.26513,-0.06545,0.35521,0.05283
0.17895,0.94154,-0.28543,0.08983,-0.0229,0.06302
0.19069,0.93261,-0.30638,-0.08499,-0.32507,0.18812
0.1948,0.92396,-0.32916,-0.31914,-0.38516,0.26736
0.19714,0.9152,-0.35149,-0.35851,-0.52402,0.32909
0.19536,0.90794,-0.37077,-0.11056,-0.76437,0.40439
0.18474,0.90359,-0.38651,-0.15484,-0.84441,0.32858
0.17314,0.90116,-0.3974,-0.02698,-0.74358,0.3909
0.164,0.90078,-0.40211,-0.00421,-0.72296,0.31623
0.15514,0.90274,-0.40124,0.02033,-0.73695,0.31186
0.14545,0.90557,-0.39847,0.02568,-0.52946,0.14021
0.13243,0.90724,-0.39923,-0.02027,-0.21627,0.04585
0.11713,0.90505,-0.40886,-0.09557,0.36479,-0.06326
0.10826,0.89581,-0.43104,0.04627,1.32269,-0.09019
0.11395,0.88605,-0.44935,-0.05209,1.28355,-0.28278
0.12058,0.88523,-0.44925,-0.21271,0.02377,-0.30616
0.12784,0.88621,-0.44529,-0.099,-0.14238,-0.04348
0.13279,0.87822,-0.45946,-0.2981,0.50959,0.2576
0.14139,0.8664,-0.47892,-0.67891,1.77064,0.77371
0.14383,0.86422,-0.48211,-0.90077,1.36599,0.67331
0.13788,0.87353,-0.46683,-0.59186,-0.00898,0.33433
0.13413,0.88143,-0.45287,-0.20779,-0.40613,0.32038
0.13001,0.88478,-0.4475,0.0367,-0.13823,0.60056
0.13264,0.88931,-0.43765,0.31565,0.14287,0.55707
0.1311,0.90054,-0.41454,-0.05815,0.37391,0.57568
0.12492,0.91752,-0.37756,-0.43922,0.29092,0.3398
0.12207,0.93412,-0.33544,-0.28354,0.03704,0.19345
0.12537,0.94475,-0.30285,-0.15053,-0.11471,0.22253
0.13728,0.94957,-0.2819,-0.05894,-0.31796,0.31298
0.15731,0.95125,-0.26528,-0.04706,-0.47225,0.36197
0.17364,0.95435,-0.243,-0.04284,-0.50898,0.42124
0.17585,0.96055,-0.21544,-0.1018,-0.29461,0.19315
0.17059,0.96633,-0.19261,-0.09531,-0.41115,0.07936
0.15952,0.97104,-0.17784,-0.13369,-0.46164,0.09969
0.1444,0.9759,-0.16359,-0.16352,-0.26721,0.02601
0.12738,0.98095,-0.14666,-0.12355,-0.12115,0.08224
0.10996,0.9857,-0.12763,-0.022,-0.18126,0.00061
0.09094,0.99001,-0.10769,-0.00043,0.00488,0.03901
0.07246,0.993,-0.09323,0.15238,0.11082,-0.00323
0.05943,0.99496,-0.08065,0.35599,0.06993,-0.01751
0.05029,0.99638,-0.06856,0.26172,0.20345,0.11055
0.0447,0.99772,-0.05058,-0.1607,0.54036,0.16813
0.05329,0.9979,-0.03676,0.03089,0.56207,0.30658
0.07372,0.99639,-0.04202,-0.03719,0.54934,0.33574
0.10673,0.99166,-0.07219,-0.47187,0.68479,0.22743
0.14088,0.98258,-0.12119,-0.60803,0.96132,0.35555
0.16349,0.97227,-0.16721,-0.71594,1.09184,0.5813
0.17917,0.96406,-0.19615,-0.4369,0.62715,0.27186
0.19282,0.95726,-0.21555,-0.45488,0.5709,0.17298
0.21084,0.94853,-0.23629,-0.05656,0.30277,0.00601
0.22731,0.93932,-0.25693,0.00859,0.01216,0.03366
0.23551,0.93061,-0.28015,-0.20945,-0.25012,0.17253
0.23699,0.92224,-0.30546,-0.34024,-0.21489,0.18067
0.23977,0.91306,-0.32988,-0.25473,-0.42905,0.3627
0.24231,0.90428,-0.35151,-0.24606,-0.53972,0.32964
0.23559,0.89799,-0.37163,-0.0953,-0.7617,0.37825
0.22628,0.89351,-0.38785,-0.12927,-0.86836,0.34679
0.21491,0.89119,-0.39949,-0.12076,-0.85922,0.37906
0.20266,0.89154,-0.40508,-0.07591,-0.86488,0.36922
0.1882,0.89491,-0.40462,-0.0657,-0.85698,0.32463
0.17283,0.89908,-0.40222,-0.07723,-0.54349,0.28557
0.15736,0.90196,-0.40212,-0.18738,-0.10507,0.1573
0.14733,0.89828,-0.41399,-0.24142,0.66058,-0.17463
0.15028,0.88655,-0.43754,-0.13447,2.05698,-0.28796
0.15733,0.87909,-0.44995,-0.7158,0.70714,-0.15172
0.16742,0.86388,-0.47505,-0.56121,1.38883,0.09602
0.18165,0.83895,-0.51299,-0.43812,1.75156,0.32662
0.20611,0.83105,-0.51659,-0.28453,-0.12407,0.23577
0.23816,0.83994,-0.48762,-0.36241,-0.63472,0.39476
0.2509,0.84176,-0.47799,-0.1843,0.07617,0.46464
0.24553,0.84292,-0.47874,0.07071,0.4007,0.60965
0.22347,0.85151,-0.47433,-0.03284,0.2257,0.69555
0.20011,0.87024,-0.45015,-0.23227,0.11464,0.52757
0.18913,0.89317,-0.408,-0.46226,0.08748,0.20006
0.18683,0.91198,-0.36521,-0.25129,0.05189,0.24323
0.18935,0.92443,-0.33102,-0.11615,0.05597,0.27101
0.19387,0.93248,-0.30477,-0.07745,-0.09252,0.30303
0.20128,0.9378,-0.28285,-0.08495,-0.17476,0.32652
0.21281,0.94159,-0.26097,-0.13049,-0.38799,0.38928
0.22132,0.9466,-0.23442,-0.14254,-0.40063,0.30656
0.22372,0.95301,-0.20423,-0.13679,-0.39521,0.20947
0.22157,0.95919,-0.17563,-0.14508,-0.41267,0.10481
0.212,0.96493,-0.15475,-0.26489,-0.26579,0.09805
0.1988,0.96983,-0.14107,-0.2176,-0.18125,0.06147
0.1835,0.97475,-0.12719,-0.16864,-0.1086,-0.01243
0.1657,0.97986,-0.11137,-0.06385,-0.04479,0.02557
0.14515,0.9849,-0.09435,0.00046,-0.04511,-0.01249
0.12335,0.98917,-0.07945,0.05487,-0.04703,0.03542
0.10549,0.99219,-0.06646,0.2768,-0.06403,-0.0591
0.09484,0.99409,-0.05281,0.31313,0.01089,-0.02737
0.08762,0.99548,-0.03662,0.23931,0.1367,0.01643
0.08857,0.99593,-0.01647,-0.01687,0.52481,0.20792
0.10439,0.99453,0.00068,0.03956,0.69619,0.2756
0.12973,0.99154,-0.00108,-0.17732,0.66222,0.27995
0.16361,0.98622,-0.02439,-0.68615,0.64649,0.2775
0.19475,0.9786,-0.0663,-0.98556,0.86744,0.26124
0.21402,0.97036,-0.11217,-1.02565,0.78447,0.47565
0.22437,0.9637,-0.14472,-0.77934,0.56777,0.43008
0.23273,0.95852,-0.16452,-0.22211,0.50531,0.04671
0.24194,0.95255,-0.18466,-0.05986,0.44648,0.04031
0.25011,0.94594,-0.20646,0.01504,-0.0521,0.05874
0.25658,0.93844,-0.23127,-0.24019,-0.34846,0.19462
0.25888,0.93132,-0.25617,-0.30934,-0.35029,0.18647
0.26032,0.92446,-0.27856,-0.35674,-0.57876,0.19046
0.25806,0.91884,-0.29855,-0.23194,-0.74397,0.25244
0.25045,0.91516,-0.31583,-0.08518,-0.81145,0.28065
0.24009,0.91355,-0.32829,-0.06681,-0.84075,0.29585
0.23111,0.9143,-0.33264,-0.13746,-0.86353,0.25655
0.22516,0.91728,-0.32847,-0.13267,-0.80414,0.16122
0.21824,0.9204,-0.32439,-0.08383,-0.75429,0.15337
0.21048,0.92139,-0.32671,-0.06206,-0.35864,0.04816
0.20672,0.91938,-0.33466,-0.28163,0.10912,-0.21832
0.21126,0.90956,-0.35786,-0.49202,0.42247,-0.17464
0.23017,0.89387,-0.38472,-0.20308,0.8424,-0.46696
0.2392,0.88868,-0.39118,-0.1609,0.17821,-0.24828
0.23464,0.88184,-0.40903,-0.27196,0.08407,-0.20902
0.23279,0.86901,-0.4366,-0.52521,1.73858,0.20635
0.24882,0.85569,-0.45373,-0.61445,1.64591,0.33459
0.27066,0.85581,-0.44083,-0.59349,-0.16063,0.48101
0.28084,0.8599,-0.42626,-0.54475,-0.36011,0.36507
0.26535,0.86598,-0.42387,-0.46066,-0.11395,0.38002
0.24383,0.87344,-0.42147,0.0239,0.11423,0.62458
0.22418,0.88583,-0.40626,-0.0597,0.32401,0.49862
0.21325,0.90268,-0.37374,-0.2332,0.26803,0.40543
0.21034,0.91883,-0.33393,-0.29759,0.10127,0.26949
0.21143,0.93148,-0.29603,-0.23009,-0.05558,0.26832
0.21486,0.94033,-0.26384,-0.25456,-0.13659,0.21608
0.22074,0.94625,-0.23637,-0.25391,-0.42639,0.20538
0.22755,0.95006,-0.21355,-0.26909,-0.57297,0.29969
0.23191,0.95396,-0.1902,-0.24103,-0.54597,0.31192
0.22978,0.95974,-0.16153,-0.14731,-0.24322,0.18
0.22398,0.96583,-0.13037,-0.14647,-0.33636,0.02398
0.21265,0.97171,-0.10275,-0.25754,-0.31388,-0.00294
0.1945,0.97748,-0.08181,-0.3582,-0.12122,0.01345
0.1718,0.9831,-0.0631,-0.32556,0.02405,0.12262
0.14852,0.98795,-0.04342,-0.11849,0.00444,0.18319
0.12784,0.99143,-0.02658,0.10389,0.0442,-0.03555
0.11105,0.99369,-0.01549,0.13333,-0.0389,-0.19902
0.09862,0.99509,-0.00784,0.2013,0.03644,-0.11407
0.08969,0.99596,0.00294,0.23571,0.1674,-0.07447
0.0819,0.99645,0.01911,0.16281,0.355,-0.00337
0.07702,0.99635,0.03663,-0.02523,0.45395,-0.01179
0.08019,0.99587,0.04239,-0.06476,0.51751,0.23543
0.09231,0.99522,0.03175,-0.19691,0.3704,0.27479
0.11762,0.99305,0.00143,-0.42283,0.37285,0.14097
0.15202,0.98739,-0.04406,-0.43906,0.72274,0.16577
0.17867,0.97968,-0.09111,-0.75104,0.9328,0.34634
0.19362,0.97311,-0.12473,-0.65875,0.81986,0.37151
0.20033,0.96856,-0.14749,-0.24446,0.36422,0.0658
0.20751,0.96314,-0.17114,-0.04491,0.26669,-0.04837
0.21912,0.95582,-0.19592,0.05213,-0.00587,-0.02281
0.2308,0.94747,-0.22143,-0.19648,-0.18859,0.09275
0.24029,0.93867,-0.24728,-0.38889,-0.25152,0.184
0.25004,0.9298,-0.27007,-0.37394,-0.40014,0.31259
0.25653,0.92193,-0.29024,-0.30415,-0.63703,0.34279
0.25535,0.91567,-0.31038,-0.19613,-0.90249,0.30607
0.24477,0.91161,-0.33022,-0.16799,-0.91393,0.36376
0.22866,0.91058,-0.34431,-0.1456,-0.81583,0.35751
0.21095,0.91289,-0.34947,-0.07887,-0.79674,0.31999
0.19118,0.91733,-0.34921,-0.03121,-0.71291,0.28833
0.17109,0.92087,-0.3503,-0.08876,-0.41354,0.11104
0.15711,0.92087,-0.35681,-0.19043,0.02644,-0.00586
0.15056,0.9143,-0.376,-0.27624,0.36164,-0.16959
0.15225,0.90177,-0.4045,-0.09708,1.75213,-0.44979
0.15663,0.89395,-0.41989,-0.41002,0.40101,-0.04756
0.15941,0.88026,-0.4469,-0.41138,1.37448,0.32845
0.17344,0.8543,-0.48999,-0.31089,2.19166,0.45599
0.20255,0.8503,-0.48576,-0.70257,0.01451,0.37897
0.22247,0.86101,-0.45734,-0.61802,-0.74517,0.43488
0.2213,0.8635,-0.4532,-0.25237,-0.14839,0.49527
0.20543,0.8667,-0.45456,0.0585,-0.06824,0.59743
0.185,0.87822,-0.44102,0.41941,0.34923,0.70208
0.16365,0.89761,-0.40928,-0.1952,0.48046,0.31191
0.14782,0.9196,-0.36396,-0.38392,0.16917,0.10266
0.13938,0.93626,-0.32246,-0.1746,-0.14543,0.26736
0.13863,0.94694,-0.28995,-0.139,-0.34727,0.30039
0.14294,0.95359,-0.265,-0.16662,-0.44666,0.31695
0.14961,0.95768,-0.24587,-0.19102,-0.49563,0.29909
0.15444,0.96083,-0.23009,-0.2521,-0.53854,0.2954
0.15334,0.96481,-0.21358,-0.24484,-0.27542,0.11122
0.14886,0.9691,-0.19668,-0.18208,-0.43359,0.0747
0.14017,0.97311,-0.18274,-0.0751,-0.46078,0.13527
0.1234,0.97826,-0.16664,-0.06323,-0.27538,0.16048
0.1036,0.98353,-0.14809,-0.23423,-0.20533,0.2343
0.08279,0.98843,-0.12705,-0.37483,-0.00363,0.22325
0.05941,0.99251,-0.10667,-0.10728,0.21423,0.19677
0.03633,0.99509,-0.09199,0.13333,0.05966,-0.07488
0.02282,0.99645,-0.08104,0.27813,0.05351,-0.12294
0.01795,0.99743,-0.06926,0.30051,0.26001,0.16808
0.0189,0.99844,-0.05249,0.2757,0.50443,0.16336
0.03149,0.9989,-0.03469,0.38887,0.62931,0.43081
0.05311,0.99814,-0.02969,0.00958,0.59799,0.24787
0.08584,0.99527,-0.04549,-0.44274,0.65213,0.20943
0.11755,0.98965,-0.08226,-0.8218,0.73417,0.24605
0.13894,0.98215,-0.12677,-0.7351,0.64338,0.50246
0.15173,0.97477,-0.16368,-0.58215,0.36754,0.46459
0.16405,0.96773,-0.19123,-0.35395,0.42802,0.2485
0.1758,0.9604,-0.21616,0.03475,0.29384,0.05898
0.18123,0.95378,-0.2397,0.06803,0.15338,0.07035
0.18285,0.94724,-0.26323,0.04684,0.03063,0.15118
0.18423,0.94041,-0.28579,-0.30681,-0.26176,0.22556
0.18613,0.93403,-0.30486,-0.29491,-0.33506,0.23837
0.18728,0.92828,-0.32128,-0.29751,-0.4212,0.2759
0.18525,0.9221,-0.33972,-0.16752,-0.81335,0.2493
0.17776,0.91596,-0.35974,-0.18621,-0.77572,0.29996
0.16907,0.91038,-0.37764,-0.19883,-0.68277,0.35442
0.16196,0.90728,-0.38809,-0.08815,-0.78348,0.35187
0.15426,0.90694,-0.39198,-0.01083,-0.75545,0.42624
0.14265,0.90809,-0.39372,-0.02344,-0.46263,0.26268
0.12706,0.90902,-0.39691,-0.11176,-0.10456,0.18025
0.11756,0.90725,-0.40382,-0.17548,0.1306,0.09118
0.11669,0.89964,-0.42074,-0.15455,1.53172,-0.36616
0.12858,0.88851,-0.44047,-0.18902,1.57842,-0.39051
0.13673,0.88437,-0.44631,-0.26435,0.09508,-0.17747
0.13716,0.87556,-0.46323,-0.06647,0.70727,0.19514
0.14061,0.85785,-0.49428,-0.22633,1.87721,0.34956
0.16031,0.84729,-0.50635,-0.24604,1.88777,0.36163
0.18026,0.85235,-0.49091,-0.59908,-0.28511,0.50306
0.1854,0.85942,-0.47647,-0.48393,-0.30351,0.2969
0.17201,0.86506,-0.47125,-0.35461,-0.15924,0.41043
0.15487,0.87202,-0.46431,0.24613,0.09781,0.69178
0.13934,0.8848,-0.44464,0.15511,0.33526,0.51692
0.13029,0.90347,-0.40837,-0.10388,0.3125,0.39382
0.12685,0.9217,-0.36656,-0.20517,0.08855,0.24213
0.12627,0.93526,-0.33066,-0.1248,-0.17655,0.27814
0.12809,0.94435,-0.30296,-0.1575,-0.38552,0.26708
0.13234,0.95052,-0.28105,-0.17357,-0.46132,0.3245
0.13841,0.9547,-0.26341,-0.18518,-0.40464,0.42854
0.14173,0.95957,-0.24318,-0.19043,-0.18498,0.35675
0.14221,0.96607,-0.21558,-0.1501,-0.25346,0.11018
0.13875,0.9722,-0.18862,-0.12415,-0.39634,0.013
0.12708,0.97719,-0.17014,-0.1398,-0.38214,0.13233
0.10874,0.98174,-0.15605,-0.12425,-0.27994,0.12524
0.08991,0.9858,-0.1418,-0.11959,-0.107,0.07929
0.07039,0.98969,-0.12473,-0.0944,-0.10208,0.03445
0.05051,0.99285,-0.10813,-0.022,-0.07642,0.04776
0.03252,0.99469,-0.09766,0.38393,0.03302,-0.15163
0.02123,0.99596,-0.08724,0.39521,0.03175,-0.16204
0.01525,0.9971,-0.07452,0.38318,0.42897,0.12866
0.01849,0.99822,-0.05656,0.16263,0.58703,0.3683
0.03903,0.99833,-0.04247,0.09613,0.62209,0.4692
0.07135,0.99631,-0.04768,-0.20155,0.70126,0.27193
0.1059,0.99162,-0.07396,-0.88552,0.89443,0.27655
0.13211,0.98428,-0.11717,-0.92386,0.91095,0.42796
0.1458,0.97593,-0.16215,-0.82956,0.64986,0.58908
0.15477,0.96823,-0.1964,-0.45488,0.51001,0.37687
0.16721,0.96029,-0.22334,-0.19563,0.46294,0.31763
0.1775,0.9528,-0.2463,-0.04195,0.35352,0.22423
0.18305,0.94685,-0.2645,-0.13111,-0.16516,0.16603
0.18698,0.94094,-0.28225,-0.18687,-0.21748,0.16993
0.1922,0.93432,-0.30017,-0.25927,-0.23657,0.23608
0.20168,0.92694,-0.31639,-0.26859,-0.56532,0.13544
0.20555,0.91845,-0.33794,-0.28277,-0.59056,0.25035
0.20332,0.90912,-0.36352,-0.14464,-0.82848,0.38757
0.19966,0.90068,-0.38588,-0.16599,-0.67908,0.36714
0.19428,0.89511,-0.40128,-0.10903,-0.67221,0.39679
0.18756,0.89387,-0.40721,-0.01635,-0.65536,0.36479
0.17587,0.89592,-0.40792,-0.0215,-0.55467,0.2945
0.15915,0.8987,-0.40867,-0.0083,-0.33641,0.10404
0.14322,0.89909,-0.41366,-0.11578,0.30623,-0.09285
0.13469,0.89276,-0.42992,-0.06015,0.70563,-0.20634
0.14128,0.87932,-0.45479,0.10917,1.4339,-0.30631
0.15069,0.87119,-0.46725,-0.37866,0.24705,-0.14695
0.15566,0.85967,-0.48656,-0.26649,0.76894,0.07341
0.16245,0.84002,-0.51767,-0.3651,1.77033,0.34227
0.17428,0.82777,-0.53331,-0.49841,0.90477,0.50106
0.18688,0.83324,-0.52037,-0.60483,0.14346,0.48445
0.19048,0.83909,-0.50956,-0.60859,-0.51783,0.43687
0.18261,0.8429,-0.50613,-0.21853,0.06462,0.62408
0.17022,0.85251,-0.49422,0.17399,0.02278,0.59502
0.15636,0.869,-0.46945,0.24082,0.0898,0.57172
0.14389,0.88945,-0.43379,-0.16728,0.42849,0.25667
0.13784,0.90819,-0.3952,-0.18381,0.33268,0.20335
0.14029,0.92231,-0.36009,-0.10251,-0.04154,0.26764
0.14637,0.93232,-0.33069,-0.16869,-0.4454,0.28784
0.15314,0.93945,-0.30656,-0.20546,-0.48346,0.34948
0.16086,0.94481,-0.28541,-0.22525,-0.42792,0.40868
0.16561,0.95072,-0.26212,-0.19453,-0.21887,0.35338
0.16601,0.95771,-0.23498,-0.15609,-0.25964,0.15193
0.16156,0.96419,-0.21032,-0.16126,-0.49245,0.07714
0.14809,0.97046,-0.19046,-0.15969,-0.43878,0.18916
0.12764,0.97653,-0.17345,-0.14096,-0.15599,0.14791
0.10621,0.98188,-0.15695,-0.07101,0.05107,0.11242
0.08522,0.98645,-0.14013,-0.02564,0.04859,0.08415
0.06577,0.98982,-0.12623,0.00867,0.18983,0.076
0.04945,0.99157,-0.11976,0.05252,0.11874,0.02426
0.03954,0.99294,-0.11185,0.46503,0.08556,-0.11057
0.03364,0.99433,-0.10082,0.42814,0.21657,-0.01528
0.02971,0.99588,-0.08562,0.21773,0.36088,0.03644
0.03702,0.99701,-0.06783,-0.0468,0.44181,0.22945
0.05365,0.99662,-0.06219,-0.09967,0.40979,0.37887
0.07708,0.99383,-0.07972,-0.37981,0.48189,0.35165
0.10808,0.98651,-0.12291,-0.68968,0.81532,0.35368
0.13575,0.9756,-0.17253,-0.76801,0.87736,0.52384
0.15424,0.96543,-0.2101,-0.66463,0.72486,0.49014
0.16576,0.95824,-0.23301,-0.28443,0.46269,0.24787
0.17445,0.95116,-0.25467,-0.0769,0.31453,0.00733
0.18558,0.94231,-0.27858,-0.12349,0.19549,0.06709
0.19715,0.9326,-0.30231,-0.08447,0.07413,0.0849
0.20378,0.92281,-0.32693,-0.24183,-0.33511,0.30848
0.20696,0.913,-0.35157,-0.245,-0.32529,0.33312
0.2057,0.90424,-0.37421,-0.24759,-0.51781,0.29185
0.1923,0.8973,-0.39733,-0.1827,-0.92376,0.49355
0.17682,0.89143,-0.41724,-0.14319,-0.93363,0.48297
0.16017,0.88902,-0.42893,-0.12221,-0.8971,0.48906
0.14589,0.88951,-0.43298,-0.11149,-0.71752,0.35248
0.13346,0.89112,-0.4337,-0.12165,-0.66848,0.34543
0.1231,0.892,-0.43496,-0.0986,-0.40239,0.1776
0.11365,0.8909,-0.43975,-0.13829,-0.08951,0.1488
0.11137,0.88495,-0.45218,-0.14604,0.53034,-0.08174
0.1239,0.87355,-0.47071,0.0378,1.48133,-0.36255
0.14155,0.86582,-0.47991,-0.29217,0.8739,-0.27386
0.15111,0.85534,-0.49553,-0.36602,0.38153,-0.15805
0.15764,0.83455,-0.5279,-0.12151,1.33543,0.17385
0.16635,0.8249,-0.54025,-0.50126,0.73696,0.38325
0.17843,0.83218,-0.52501,-0.56337,0.15228,0.42284
0.18768,0.83604,-0.51557,-0.38262,-0.02226,0.54232
0.18357,0.83961,-0.51123,-0.19384,0.28457,0.63154
0.17045,0.85019,-0.49812,-0.03881,0.23023,0.65361
0.15519,0.86808,-0.47154,0.06267,-0.10694,0.55572
0.14182,0.88947,-0.43443,-0.18711,0.22854,0.34094
0.13224,0.9094,-0.39432,-0.24957,0.30727,0.25539
0.1295,0.92469,-0.35803,-0.05706,0.01599,0.28506
0.13368,0.93557,-0.32686,-0.08714,-0.38378,0.26901
0.14203,0.9425,-0.30253,-0.10629,-0.50672,0.27623
0.15277,0.94675,-0.28342,-0.16214,-0.62709,0.38823
0.15976,0.95155,-0.26273,-0.22554,-0.43974,0.37867
0.15755,0.95897,-0.23569,-0.25685,-0.29196,0.31679
0.15102,0.96644,-0.20781,-0.21534,-0.2785,0.08366
0.13766,0.97246,-0.18808,-0.18832,-0.31537,0.11055
0.11619,0.9778,-0.17438,-0.12687,-0.14978,0.12957
0.09387,0.98273,-0.15946,-0.02321,-0.07027,0.09467
0.07475,0.987,-0.14228,-0.04545,-0.04571,0.14373
0.05843,0.98965,-0.13107,0.03575,0.05642,0.08209
0.04666,0.99102,-0.12532,0.26198,-0.0488,-0.08472
0.04071,0.99227,-0.1172,0.4915,0.08828,0.06709
0.03777,0.99395,-0.10308,0.36082,0.22345,0.20484
0.03862,0.99589,-0.08194,-0.04692,0.48205,0.10373
0.05094,0.99625,-0.06996,-0.09075,0.57094,0.25064
0.07293,0.99466,-0.07301,-0.25318,0.47606,0.2422
0.10468,0.98994,-0.09512,-0.39212,0.48622,0.33479
0.14093,0.98046,-0.13721,-0.61307,0.96355,0.3488
0.17143,0.96843,-0.18095,-0.64357,0.97558,0.39254
0.19203,0.95772,-0.21421,-0.55604,0.86822,0.40727
0.20599,0.94941,-0.23703,-0.17787,0.5057,0.12436
0.21931,0.9408,-0.25843,0.00963,0.39349,0.09538
0.23192,0.93104,-0.28171,0.10969,0.05451,0.08036
0.24054,0.92142,-0.30517,-0.23933,-0.27617,0.27123
0.24186,0.91217,-0.33081,-0.29368,-0.37802,0.34002
0.23301,0.90407,-0.35826,-0.35217,-0.48472,0.36774
0.21925,0.89774,-0.38208,-0.32993,-0.71644,0.45628
0.20269,0.89204,-0.40395,-0.23326,-0.97864,0.4823
0.18423,0.88716,-0.42309,-0.17677,-0.92631,0.49802
0.16507,0.88538,-0.43457,-0.19269,-0.76508,0.5155
0.14718,0.88808,-0.43548,-0.12724,-0.70174,0.42042
0.12973,0.89338,-0.43017,-0.11586,-0.64083,0.34634
0.11703,0.89742,-0.42537,-0.15595,-0.41668,0.18512
0.1128,0.89858,-0.42405,-0.19317,-0.08929,-0.01048
0.11819,0.89395,-0.4323,-0.18641,0.98847,-0.34333
0.12833,0.88195,-0.45354,-0.03494,1.4089,-0.26034
0.13859,0.87545,-0.46301,-0.19779,0.76248,-0.20773
0.14037,0.86842,-0.47555,-0.26011,0.34423,-0.00571
0.13962,0.84888,-0.50981,-0.50944,1.23876,-0.02984
0.15351,0.82842,-0.53866,-0.68432,2.44989,0.41287
0.17935,0.83189,-0.52516,-0.37727,-0.34282,0.50096
0.2022,0.8361,-0.50996,-0.22982,-0.73289,0.48063
0.19748,0.83596,-0.51203,-0.22387,-0.27077,0.38347
0.18138,0.84182,-0.50837,0.16528,0.15835,0.72897
0.1611,0.85798,-0.48777,0.07236,0.34513,0.63788
0.14717,0.88214,-0.4474,-0.45413,0.4404,0.27652
0.14482,0.90521,-0.39953,-0.2964,0.26485,0.11756
0.15124,0.92098,-0.35905,-0.03979,-0.05092,0.27728
0.16216,0.93044,-0.32861,-0.05079,-0.29534,0.26344
0.17416,0.93605,-0.30575,-0.10972,-0.49083,0.32717
0.18658,0.93966,-0.28676,-0.17344,-0.61744,0.40394
0.19209,0.94512,-0.26428,-0.14259,-0.44103,0.38629
0.18617,0.95397,-0.23511,-0.15097,-0.2792,0.20015
0.17613,0.96282,-0.20483,-0.16449,-0.43222,0.02821
0.15988,0.97039,-0.18102,-0.19927,-0.42314,0.18591
0.13825,0.97668,-0.16425,-0.16436,-0.17907,0.11371
0.11836,0.98193,-0.14766,-0.01077,-0.03768,0.00856
0.1008,0.98668,-0.12769,0.08115,0.00809,-0.02336
0.08369,0.99003,-0.1133,0.05699,0.11778,0.0477
0.06725,0.99193,-0.10747,0.16656,0.02568,-0.04756
0.05667,0.99352,-0.09844,0.27975,0.00558,-0.06373
0.04985,0.99491,-0.08748,0.2299,0.16639,0.14914
0.04757,0.99641,-0.06992,-0.17747,0.48135,0.10355
0.05937,0.9968,-0.05352,-0.34535,0.53491,0.24994
0.08232,0.99518,-0.05321,-0.12722,0.63557,0.42298
0.11948,0.98954,-0.08074,-0.49017,0.5316,0.27915
0.15922,0.97933,-0.12474,-0.68947,0.6681,0.21269
0.1874,0.96809,-0.16638,-0.9407,0.97295,0.50015
0.20518,0.95941,-0.19346,-0.48342,0.6248,0.44371
0.21522,0.95272,-0.21449,-0.10033,0.35722,0.12145
0.22813,0.94404,-0.23819,-0.07717,0.39348,0.15118
0.24866,0.93331,-0.25903,-0.1207,0.12731,0.0056
0.26153,0.92367,-0.28006,-0.16549,-0.2127,0.11935
0.26066,0.91575,-0.30571,-0.35175,-0.39194,0.2415
0.25258,0.9082,-0.33373,-0.44055,-0.4508,0.41563
0.2422,0.90156,-0.35849,-0.33479,-0.40703,0.3483
0.2252,0.8984,-0.37703,-0.22918,-0.68339,0.50885
0.209,0.89676,-0.39004,-0.16485,-0.79831,0.37956
0.1916,0.89679,-0.39882,-0.1176,-0.86825,0.39415
0.17586,0.89864,-0.40189,-0.12886,-0.85047,0.33339
0.16147,0.9018,-0.40086,-0.15958,-0.66347,0.21731
0.14896,0.90329,-0.40233,-0.15462,-0.5044,0.138
0.1427,0.90102,-0.40963,-0.16771,-0.28896,0.05598
0.14477,0.89178,-0.42868,-0.17905,0.616,-0.02319
0.15842,0.88095,-0.4459,0.01276,1.43394,-0.16993
0.17377,0.87754,-0.4469,-0.29416,0.75621,-0.34538
0.18276,0.87006,-0.4578,-0.59548,0.42321,-0.24782
0.18736,0.85016,-0.49205,-0.49015,1.2496,0.03636
0.20287,0.8327,-0.51521,-0.50655,2.33853,0.5435
0.23031,0.83757,-0.49541,-0.42344,0.21378,0.35419
0.24715,0.84384,-0.47629,-0.43436,-0.74699,0.48328
0.24431,0.84796,-0.47041,-0.19179,-0.07571,0.57657
0.23147,0.85531,-0.46354,0.14791,0.02096,0.65851
0.20998,0.87064,-0.44486,0.12812,0.34502,0.69031
0.19403,0.89286,-0.40637,-0.33254,0.32744,0.40158
0.18866,0.91381,-0.35965,-0.41554,0.13224,0.19731
0.19191,0.92807,-0.31915,-0.3179,-0.09726,0.24722
0.20019,0.93627,-0.28866,-0.28164,-0.29775,0.2778
0.2132,0.94024,-0.26549,-0.22022,-0.45596,0.34176
0.22858,0.9421,-0.24536,-0.1988,-0.42151,0.41357
0.23837,0.94599,-0.21971,-0.14902,-0.15868,0.36819
0.24316,0.95157,-0.1881,-0.10485,-0.17948,0.12749
0.24258,0.95703,-0.15891,-0.06385,-0.32669,-0.02282
0.23092,0.96259,-0.14177,-0.12454,-0.32164,0.04782
0.20908,0.9691,-0.1309,-0.10107,-0.10653,-0.00858
0.18535,0.97573,-0.11657,-0.06165,-0.0875,-0.1162
0.16299,0.98199,-0.09553,-0.08683,-0.22233,0.087
0.14023,0.9869,-0.07972,-0.02493,-0.00578,-0.01833
0.12202,0.99013,-0.06892,0.18633,-0.00116,-0.11713
0.10964,0.99232,-0.05718,0.31263,0.00527,-0.11848
0.09936,0.99408,-0.04396,0.20908,0.32166,0.19319
0.09828,0.9948,-0.02661,-0.17655,0.61679,0.18117
0.11116,0.99362,-0.01882,-0.04759,0.75615,0.32855
0.13474,0.99032,-0.03321,-0.36486,0.55066,0.29647
0.16865,0.98312,-0.07088,-0.65038,0.5593,0.29756
0.19878,0.97262,-0.12038,-0.98593,0.93921,0.36136
0.21766,0.96283,-0.1599,-0.8726,0.73857,0.4639
0.22766,0.95644,-0.18273,-0.72333,0.5075,0.41287
0.23443,0.95154,-0.19901,-0.06703,0.38179,0.03495
0.24471,0.94485,-0.21765,0.13864,0.29015,-0.20624
0.25514,0.93675,-0.23957,-0.01184,-0.00139,0.07389
0.26295,0.92774,-0.26485,-0.13257,-0.24461,0.11809
0.26718,0.91908,-0.28966,-0.32811,-0.33943,0.22749
0.26808,0.91141,-0.31218,-0.43197,-0.51942,0.26352
0.26566,0.90398,-0.33501,-0.34671,-0.64437,0.37281
0.26076,0.8969,-0.35717,-0.18904,-0.81392,0.3413
0.25254,0.8926,-0.37348,-0.07525,-0.87203,0.38266
0.24182,0.89292,-0.37977,-0.04359,-0.88219,0.37386
0.22664,0.89744,-0.37847,-0.02678,-0.75861,0.33659
0.20558,0.90275,-0.37786,-0.01035,-0.53701,0.21288
0.18223,0.90613,-0.38173,-0.00801,-0.21251,0.08528
0.166,0.90352,-0.39509,-0.14042,0.33368,-0.03697
0.16561,0.89276,-0.41898,-0.31254,1.12899,-0.23444
0.17714,0.88033,-0.44004,-0.27448,1.63005,-0.41756
0.18415,0.86933,-0.45864,-0.58744,0.45539,-0.18872
0.18325,0.84575,-0.50112,-0.49351,1.69069,0.47022
0.19005,0.82445,-0.53308,-0.24418,1.48333,0.41363
0.21931,0.82902,-0.51442,-0.2929,-0.38525,0.53414
0.23969,0.83259,-0.49934,-0.39286,-0.85192,0.66459
0.23665,0.83215,-0.50152,-0.07671,0.03003,0.62302
0.21821,0.83905,-0.49838,0.2239,0.37778,0.72039
0.19172,0.85798,-0.47655,0.05024,0.37189,0.57841
0.16762,0.88392,-0.43656,-0.3117,0.49288,0.09782
0.15233,0.90491,-0.39742,-0.35565,0.38686,-0.01999
0.14752,0.91797,-0.36819,-0.10109,0.06592,0.17208
0.15127,0.92649,-0.34457,-0.01373,-0.38418,0.28572
0.1558,0.93307,-0.32418,-0.1221,-0.58412,0.30454
0.15683,0.93853,-0.30752,-0.23831,-0.69072,0.367
0.14857,0.94499,-0.2914,-0.31278,-0.36378,0.35048
0.13525,0.95212,-0.27417,-0.31927,-0.16326,0.24487
0.12426,0.9586,-0.25621,-0.24598,-0.45346,0.22673
0.10703,0.96524,-0.23843,-0.1937,-0.53621,0.27155
0.08525,0.97176,-0.22002,-0.08684,-0.28722,0.21912
0.0646,0.97709,-0.20278,-0.1669,-0.11819,0.18143
0.04821,0.98159,-0.18483,-0.18428,-0.12909,0.2516
0.03186,0.98479,-0.17079,0.03383,0.08154,0.23505
0.01733,0.98686,-0.16065,0.2176,0.10793,0.09996
0.00864,0.98872,-0.14948,0.57064,0.24534,0.00202
0.00524,0.99083,-0.13497,0.46937,0.30014,0.11219
0.00562,0.99339,-0.1146,0.36566,0.36415,0.12459
0.01744,0.99475,-0.10081,0.14374,0.46323,0.35299
0.03896,0.99396,-0.10257,0.02491,0.46171,0.39702
0.07403,0.98898,-0.12821,-0.24545,0.38065,0.44091
0.1137,0.97792,-0.17532,-0.75764,1.01654,0.26135
0.14011,0.9651,-0.22124,-0.96877,1.1906,0.54703
0.15588,0.95555,-0.25022,-0.88628,0.98361,0.51295
0.16444,0.9479,-0.27285,-0.32142,0.41009,0.18598
0.17749,0.93785,-0.2982,-0.09021,0.33264,0.12881
0.1912,0.927,-0.32267,0.14094,0.07647,0.13096
0.19743,0.91694,-0.34674,0.04507,-0.13934,0.22776
0.19606,0.90767,-0.37107,-0.27029,-0.31464,0.36912
0.19367,0.89922,-0.3923,-0.40065,-0.3199,0.40837
0.18976,0.89261,-0.40895,-0.32069,-0.73042,0.41797
0.18033,0.88778,-0.42347,-0.18439,-0.92733,0.3926
0.16648,0.88428,-0.43628,-0.11786,-0.94896,0.41064
0.15103,0.88296,-0.44449,-0.06828,-0.72859,0.37524
0.13357,0.88526,-0.4455,0.00864,-0.71947,0.43195
0.11748,0.88892,-0.44274,-0.00947,-0.50493,0.30784
0.10666,0.89126,-0.44076,-0.08586,-0.10216,0.13003
0.10019,0.88859,-0.44763,-0.15706,0.47813,0.01843
0.10036,0.87773,-0.46853,0.10207,1.46556,-0.19606
0.10855,0.86724,-0.48591,-0.22,1.05699,-0.32772
0.11732,0.86414,-0.48938,-0.4197,0.18085,-0.22797
0.1216,0.85008,-0.51242,-0.14551,0.64955,0.05481
0.12568,0.82603,-0.54943,-0.13655,1.76191,0.55111
0.1399,0.81143,-0.56745,-0.35975,1.4651,0.68311
0.1539,0.81981,-0.55157,-0.53145,-0.35588,0.58648
0.15776,0.82857,-0.5372,-0.46053,-0.46222,0.409
0.14931,0.83374,-0.53158,-0.09328,0.15151,0.66034
0.13396,0.8449,-0.51788,0.20449,0.25326,0.63611
0.11499,0.86394,-0.4903,-0.24484,0.45058,0.43824
0.10548,0.88613,-0.45126,-0.30357,0.3538,0.29333
0.10753,0.90545,-0.41059,-0.07384,-0.09315,0.27189
0.11711,0.91895,-0.37658,-0.03537,-0.32799,0.28593
0.13012,0.92755,-0.35032,-0.06493,-0.52008,0.37341
0.14416,0.93246,-0.33127,-0.1038,-0.5913,0.40376
0.15208,0.93777,-0.31218,-0.21732,-0.34332,0.40723
0.14852,0.94594,-0.28832,-0.2178,-0.30124,0.24631
0.14253,0.9537,-0.26485,-0.17411,-0.44248,0.15711
0.12941,0.96022,-0.24743,-0.1504,-0.32698,0.24972
0.10881,0.96635,-0.23308,-0.09592,-0.1435,0.24532
0.08886,0.97201,-0.21746,-0.12682,-0.15423,0.08158
0.07201,0.97729,-0.19928,-0.09596,-0.13334,0.0633
0.05627,0.98146,-0.18322,0.29939,0.14575,0.18084
0.04117,0.98386,-0.17412,0.443,0.09394,0.0584
0.0304,0.98616,-0.16297,0.52929,0.14639,0.07611
0.02487,0.98881,-0.14706,0.30272,0.40972,0.17541
0.02604,0.99182,-0.12495,0.20504,0.50421,0.29938
0.04021,0.99358,-0.10573,-0.0559,0.56962,0.42033
0.06855,0.99231,-0.10299,-0.48458,0.66928,0.32466
0.10513,0.98704,-0.12124,-0.93768,0.7354,0.32707
0.13767,0.9781,-0.15607,-1.01525,0.81362,0.35453
0.16299,0.96688,-0.1964,-0.82107,0.71105,0.51392
0.18168,0.95623,-0.22939,-0.7103,0.64642,0.50776
0.19648,0.94661,-0.25556,-0.22658,0.60267,0.22836
0.20908,0.93761,-0.2778,-0.03115,0.3215,0.13716
0.22071,0.9287,-0.29799,0.05558,0.13325,0.18176
0.23212,0.91917,-0.3182,-0.39582,-0.19597,0.13629
0.23647,0.90924,-0.34259,-0.36641,-0.22964,0.24175
0.2434,0.89816,-0.36614,-0.33653,-0.33506,0.33349
0.24623,0.88834,-0.38758,-0.24449,-0.61645,0.36496
0.24189,0.87977,-0.40926,-0.19654,-0.7734,0.42655
0.23714,0.87157,-0.42909,-0.12369,-0.7884,0.42525
0.23126,0.86637,-0.44262,-0.16304,-0.76272,0.42816
0.22002,0.86694,-0.44723,-0.07082,-0.79537,0.44367
0.20262,0.87189,-0.44582,-0.02995,-0.72142,0.38526
0.18214,0.87714,-0.44435,-0.05351,-0.39945,0.10866
0.16647,0.88011,-0.44463,-0.13139,0.24572,-0.15029
0.16201,0.87765,-0.45108,-0.16012,0.60201,-0.28837
0.16871,0.86751,-0.46792,-0.00976,1.10623,-0.24242
0.18106,0.859,-0.47889,-0.13702,0.0984,-0.18272
0.18632,0.85605,-0.48213,-0.27545,0.04983,-0.27045
0.18493,0.84868,-0.49551,-0.20434,0.38243,0.00591
0.18669,0.84484,-0.50139,-1.07508,1.06039,0.63562
0.18043,0.83928,-0.51288,-1.40646,1.78273,0.33048
0.17454,0.83292,-0.52515,-0.1936,0.04713,0.62323
0.17112,0.84458,-0.50735,-0.22102,-0.40398,0.55064
0.17141,0.85212,-0.49447,-0.22165,-0.62043,0.455
0.16898,0.85926,-0.48282,0.23354,0.08964,0.6392
0.16385,0.87133,-0.46254,-0.12558,0.544,0.66256
0.1534,0.89012,-0.42913,-0.37948,0.57179,0.52013
0.14463,0.91055,-0.38728,-0.43148,0.00553,0.19551
0.14328,0.92539,-0.35089,-0.29778,-0.23647,0.25849
0.15008,0.93379,-0.32483,-0.23118,-0.30856,0.31203
0.16695,0.93833,-0.30276,-0.11514,-0.51331,0.45523
0.18976,0.94131,-0.27914,-0.09016,-0.44263,0.47192
0.20236,0.94722,-0.24865,-0.10064,-0.29025,0.39025
0.20114,0.95505,-0.21775,-0.20079,-0.2788,0.07515
0.19204,0.96173,-0.19542,-0.23562,-0.35298,0.20712
0.17241,0.96918,-0.17594,-0.22944,-0.3086,0.26934
0.14973,0.97666,-0.154,-0.1802,-0.22664,0.04293
0.12932,0.98259,-0.1334,0.00239,0.02159,0.03237
0.10956,0.98704,-0.11725,0.08563,0.14283,0.05277
0.09068,0.9901,-0.10715,0.13557,0.05135,-0.01569
0.0752,0.99226,-0.09884,0.34626,0.12875,-0.09121
0.06609,0.99387,-0.08865,0.2821,0.21931,0.07157
0.06005,0.99547,-0.07366,0.06878,0.55883,0.02056
0.06122,0.99651,-0.05674,0.03993,0.57136,0.35958
0.07511,0.99607,-0.04682,0.08101,0.53106,0.46053
0.10148,0.99339,-0.05359,-0.42977,0.4399,0.33228
0.13862,0.98693,-0.08222,-0.72222,0.60016,0.21662
0.17105,0.97715,-0.12618,-0.87554,0.72135,0.26242
0.19368,0.96623,-0.16993,-0.82094,0.68019,0.47921
0.20959,0.95697,-0.20069,-0.38186,0.43028,0.26316
0.22351,0.94915,-0.22173,-0.16188,0.37249,0.1625
0.2351,0.94175,-0.24047,0.1435,0.14972,0.03249
0.24332,0.93382,-0.26225,-0.17858,-0.17382,0.1535
0.24949,0.92454,-0.28806,-0.29856,-0.27059,0.2112
0.25519,0.91449,-0.31399,-0.35946,-0.24708,0.21753
0.25821,0.9046,-0.33915,-0.31001,-0.66774,0.28687
0.25561,0.89535,-0.3647,-0.23637,-0.74704,0.35556
0.25034,0.88669,-0.38873,-0.1842,-0.80553,0.34811
0.24267,0.87996,-0.40839,-0.19628,-0.59898,0.38669
0.23575,0.87626,-0.42022,-0.19358,-0.615,0.36047
0.23222,0.8761,-0.42251,-0.16202,-0.63669,0.32447
0.2266,0.87872,-0.42012,-0.02759,-0.5099,0.17866
0.21512,0.88175,-0.41981,-0.03162,-0.37058,0.1471
0.20037,0.88448,-0.42137,-0.05679,-0.24616,0.14655
0.18658,0.88468,-0.42724,-0.25976,0.89485,-0.17961
0.17795,0.87885,-0.44266,-0.14019,1.55004,-0.32142
0.17821,0.8726,-0.45476,-0.25592,0.34325,-0.47193
0.17881,0.87197,-0.45573,-0.23107,-0.01449,-0.15688
0.17735,0.86492,-0.46954,-0.28549,0.23086,0.16908
0.18307,0.84724,-0.49866,-0.6093,2.27951,0.82444
0.19862,0.83087,-0.51982,-0.69589,2.64387,0.729
0.19965,0.83908,-0.50605,-0.562,-0.06726,0.51325
0.19824,0.84977,-0.48845,-0.37317,-0.64532,0.33327
0.19137,0.85146,-0.48825,0.09711,-0.20213,0.76451
0.188,0.8561,-0.4814,0.26455,-0.04291,0.74747
0.17907,0.8718,-0.45595,-0.23658,0.67417,0.56586
0.16387,0.89583,-0.41307,-0.50213,0.37451,0.17586
0.1554,0.91649,-0.36864,-0.35183,0.15356,0.12918
0.15846,0.92837,-0.33618,-0.21002,-0.27111,0.28797
0.17336,0.93354,-0.31375,-0.19782,-0.54626,0.38383
0.1963,0.9353,-0.29441,-0.23078,-0.65139,0.44517
0.21236,0.93949,-0.2688,-0.21763,-0.21675,0.42396
0.21144,0.94848,-0.23597,-0.22237,-0.14596,0.12342
0.20704,0.95604,-0.20767,-0.1723,-0.26882,0.05005
0.19352,0.96278,-0.1887,-0.21874,-0.44979,0.20496
0.17311,0.96993,-0.17111,-0.18147,-0.29016,0.10801
0.1536,0.97659,-0.15058,-0.15754,-0.0782,0.03869
0.13299,0.98257,-0.12985,-0.06613,0.1196,0.11262
0.11059,0.98727,-0.11427,0.04467,0.15793,0.05207
0.09045,0.99035,-0.10497,0.18224,0.09873,-0.07727
0.07981,0.99233,-0.09439,0.37866,0.09213,-0.11151
0.07473,0.9938,-0.08235,0.22036,0.41345,0.00864
0.072,0.99539,-0.0633,0.22309,0.41185,-0.0104
0.08153,0.9955,-0.04826,0.03484,0.45923,0.48831
0.10112,0.99372,-0.04792,-0.23143,0.47079,0.46286
0.13152,0.98865,-0.0726,-0.52156,0.42264,0.39565
0.16767,0.97842,-0.1207,-0.93206,1.01869,0.34718
0.19574,0.96526,-0.17307,-1.04207,0.97859,0.54688
0.2162,0.95381,-0.20855,-0.73335,0.55948,0.46028
0.22855,0.94644,-0.22805,-0.29172,0.34286,0.21667
0.23686,0.9401,-0.24518,0.1048,0.289,0.02748
0.24846,0.93165,-0.26514,0.21762,0.20617,0.03029
0.26097,0.92161,-0.28726,-0.15588,-0.15813,0.10086
0.26685,0.91177,-0.3122,-0.32248,-0.37207,0.22402
0.26966,0.90193,-0.33735,-0.34727,-0.46351,0.30317
0.2658,0.89349,-0.36197,-0.35197,-0.53611,0.36838
0.25587,0.88635,-0.3859,-0.19671,-0.84927,0.38085
0.24061,0.8813,-0.40672,-0.16412,-0.8198,0.41481
0.22427,0.87917,-0.42042,-0.1769,-0.72622,0.37718
0.20912,0.88092,-0.42455,-0.11404,-0.68553,0.33843
0.19562,0.88506,-0.42237,-0.12233,-0.5875,0.23908
0.18248,0.88846,-0.42111,-0.13864,-0.14925,0.18061
0.16918,0.88997,-0.42348,-0.23845,0.34204,0.08478
0.15553,0.88609,-0.43665,-0.21203,0.71179,0.05584
0.15289,0.87779,-0.45399,-0.29943,1.24481,-0.38261
0.15742,0.87507,-0.45767,-0.54745,0.36667,-0.14647
0.16178,0.86775,-0.46994,-0.6103,0.35013,-0.06723
0.16915,0.84575,-0.50606,-0.41056,1.94574,0.56265
0.1854,0.82367,-0.5359,-0.3832,1.23679,0.5081
0.20373,0.82966,-0.51977,-0.43553,-0.03425,0.39759
0.21507,0.84083,-0.49674,-0.39395,-0.58259,0.3325
0.21405,0.8429,-0.49366,-0.0814,-0.16284,0.61126
0.20685,0.84573,-0.49189,0.26744,0.19101,0.66497
0.1907,0.85592,-0.48066,0.24829,0.56774,0.69509
0.17513,0.87632,-0.44877,-0.37606,0.31423,0.33708
0.16696,0.89849,-0.40599,-0.39183,0.08767,0.1904
0.1645,0.9154,-0.36739,-0.23933,-0.05598,0.27807
0.16868,0.92598,-0.33779,-0.24009,-0.21844,0.27172
0.17801,0.93228,-0.3149,-0.24106,-0.43086,0.30874
0.19013,0.9354,-0.29813,-0.22208,-0.49867,0.41833
0.19822,0.93934,-0.2799,-0.16346,-0.28828,0.37716
0.1986,0.94614,-0.25569,-0.15638,-0.30208,0.22664
0.1951,0.95325,-0.23076,-0.16924,-0.41759,0.13291
0.18275,0.96025,-0.21099,-0.17584,-0.30804,0.20606
0.16434,0.9671,-0.19418,-0.14769,-0.24811,0.20035
0.14546,0.97325,-0.17781,-0.15344,-0.10086,0.05092
0.12698,0.97882,-0.16059,-0.10847,0.04917,0.02077
0.10808,0.98341,-0.14568,-0.05672,0.11176,0.09209
0.08983,0.98661,-0.13612,0.2769,0.04322,-0.0258
0.07734,0.98904,-0.12578,0.42133,0.08675,0.00256
0.0712,0.99133,-0.11039,0.37457,0.09671,0.05215
0.06775,0.99362,-0.09013,0.02206,0.46886,0.25836
0.07708,0.99429,-0.07371,-0.07378,0.60924,0.47199
0.09834,0.99258,-0.07147,-0.2299,0.58098,0.41586
0.12955,0.98744,-0.09045,-0.67263,0.61228,0.36691
0.16261,0.97825,-0.12874,-0.90782,0.8176,0.31914
0.18767,0.96691,-0.17282,-0.83281,0.83449,0.50241
0.20424,0.95675,-0.20716,-0.76393,0.70412,0.5047
0.21596,0.94867,-0.23106,-0.09701,0.44733,0.13496
0.22566,0.94133,-0.25096,-0.02223,0.36736,0.10194
0.23526,0.93341,-0.2709,0.01515,0.28799,0.06854
0.24568,0.92428,-0.29213,-0.25479,-0.18188,0.13389
0.25261,0.91543,-0.31334,-0.28889,-0.21525,0.13602
0.25533,0.90659,-0.33601,-0.34387,-0.26238,0.21993
0.25416,0.89833,-0.35834,-0.3329,-0.60299,0.37944
0.24837,0.89066,-0.38084,-0.26486,-0.76815,0.39411
0.23869,0.88366,-0.40269,-0.15724,-0.8076,0.41484
0.22796,0.87827,-0.42032,-0.13257,-0.7165,0.41059
0.21622,0.877,-0.42909,-0.09337,-0.68503,0.41065
0.20324,0.87987,-0.42955,-0.07836,-0.47343,0.35425
0.18843,0.88362,-0.4286,-0.1035,-0.19425,0.20933
0.17548,0.88582,-0.42957,-0.13625,-0.00416,0.14133
0.16604,0.88396,-0.43708,-0.33274,0.87887,-0.05424
0.16539,0.87514,-0.45473,-0.29836,1.55255,-0.37148
0.17281,0.86635,-0.46859,-0.35649,1.09233,-0.39589
0.17882,0.86406,-0.47056,-0.21007,-0.06706,-0.07153
0.18133,0.8543,-0.48713,-0.09164,0.46679,0.07696
0.18092,0.83663,-0.51702,-0.00332,0.9358,0.40057
0.19223,0.82159,-0.53669,-0.46209,1.41208,0.7024
0.20456,0.82398,-0.52841,-0.59956,-0.05187,0.54241
0.21112,0.83392,-0.50991,-0.44527,-0.40684,0.31188
0.20244,0.84126,-0.50129,-0.26462,-0.14086,0.54227
0.18644,0.84697,-0.49787,0.14956,0.03051,0.66114
0.16954,0.85788,-0.48507,0.2263,0.34013,0.71374
0.15899,0.87603,-0.4553,-0.27984,0.37838,0.45121
0.15397,0.89706,-0.41422,-0.38331,0.10871,0.2851
0.15263,0.91436,-0.37503,-0.26762,-0.15872,0.29931
0.15564,0.92556,-0.34512,-0.23959,-0.35856,0.3069
0.16341,0.93226,-0.32278,-0.2315,-0.53886,0.37888
0.17333,0.93725,-0.30252,-0.29511,-0.47277,0.45346
0.17553,0.94518,-0.27535,-0.30436,-0.24204,0.3663
0.17262,0.9543,-0.24393,-0.23155,-0.26644,0.17667
0.16708,0.96106,-0.22011,-0.19496,-0.30578,0.15478
0.15497,0.96641,-0.20501,-0.02777,-0.13357,0.20814
0.1419,0.97083,-0.19326,0.0519,-0.05097,0.17043
0.13017,0.97525,-0.17874,0.04804,-0.00564,0.06575
0.11562,0.97961,-0.16428,-0.06258,0.08226,-0.00181
0.09645,0.98326,-0.15459,0.10527,-0.05674,0.11686
0.07733,0.98626,-0.14595,0.45383,0.01696,-0.04064
0.06648,0.98885,-0.13325,0.45406,0.04287,-0.05612
0.06256,0.99133,-0.11555,0.12849,0.42051,0.14424
0.06145,0.99366,-0.09408,-0.09751,0.48943,0.23067
0.06971,0.99448,-0.07838,-0.10248,0.63799,0.54169
0.0869,0.99312,-0.07846,-0.46921,0.50198,0.45155
0.11527,0.98846,-0.09821,-0.69373,0.507,0.44994
0.14975,0.97913,-0.13738,-0.85446,0.73521,0.31093
0.17713,0.96728,-0.18165,-0.8468,0.65238,0.45428
0.19482,0.95703,-0.21481,-0.73645,0.51477,0.42124
0.20695,0.94913,-0.23732,-0.40842,0.38845,0.23968
0.21756,0.94126,-0.25825,-0.05342,0.37983,0.10791
0.22762,0.93226,-0.28121,-0.06348,0.38883,0.13087
0.23581,0.92266,-0.30511,-0.12838,-0.15198,0.2574
0.24184,0.9127,-0.32937,-0.25374,-0.32841,0.24905
0.24226,0.90397,-0.35236,-0.2818,-0.45247,0.39453
0.23713,0.89728,-0.37237,-0.29271,-0.61183,0.38828
0.2239,0.89201,-0.39266,-0.20869,-0.76742,0.41932
0.20811,0.88703,-0.41214,-0.15566,-0.81297,0.44963
0.19262,0.8835,-0.42699,-0.1529,-0.66551,0.44723
0.18042,0.88291,-0.43349,-0.18268,-0.60085,0.36701
0.17219,0.88498,-0.43262,-0.15664,-0.5546,0.32933
0.16519,0.88672,-0.43179,-0.18627,-0.35774,0.21629
0.15822,0.88685,-0.43413,-0.19803,-0.02099,0.13281
0.15401,0.88296,-0.44346,-0.3113,0.46854,0.04522
0.15921,0.87305,-0.46091,-0.05171,1.56807,-0.34198
0.17283,0.86547,-0.47019,-0.25173,0.49862,-0.36411
0.18342,0.86338,-0.47004,-0.23618,0.11169,-0.22384
0.1859,0.85097,-0.49121,-0.05649,0.84536,0.21748
0.19004,0.83536,-0.51581,-0.46158,1.53095,0.57345
0.19652,0.82841,-0.52451,-0.55858,1.3765,0.66311
0.20187,0.83417,-0.51323,-0.44822,-0.18457,0.44526
0.19747,0.84483,-0.49726,-0.46442,-0.30946,0.42957
0.18236,0.85373,-0.48774,-0.41784,-0.21967,0.42257
0.16736,0.86129,-0.47976,0.16164,-0.03034,0.60095
0.15813,0.87164,-0.46393,0.08564,0.19527,0.5947
0.15425,0.88657,-0.43611,-0.22905,0.19276,0.45249
0.1553,0.90406,-0.3982,-0.25358,0.0415,0.31716
0.15978,0.91889,-0.3607,-0.23462,-0.14893,0.27926
0.16888,0.92844,-0.33086,-0.27725,-0.31206,0.28475
0.18179,0.93352,-0.30901,-0.2996,-0.46046,0.34044
0.19597,0.93646,-0.29092,-0.29366,-0.38606,0.43112
0.20114,0.94247,-0.26699,-0.27765,-0.20265,0.38244
0.19981,0.95046,-0.23813,-0.23375,-0.19426,0.24692
0.19393,0.95741,-0.21393,-0.15319,-0.25549,0.16105
0.18121,0.96367,-0.19624,-0.13451,-0.22036,0.19961
0.16679,0.96925,-0.18095,-0.0671,-0.08854,0.10591
0.15181,0.97488,-0.16299,-0.05446,0.00158,-0.05213
0.13405,0.98024,-0.14547,-0.05109,0.02811,0.01437
0.11514,0.98438,-0.1332,0.01406,0.00389,0.10523
0.10029,0.98754,-0.12128,0.38032,0.0216,-0.0078
0.09267,0.98994,-0.10687,0.38794,0.0192,-0.02222
0.08782,0.992,-0.09063,0.13024,0.39615,0.08754
0.08753,0.99358,-0.07168,-0.20148,0.57983,0.24462
0.09965,0.99318,-0.06053,-0.14868,0.58818,0.41173
0.11928,0.99069,-0.06555,-0.27519,0.50766,0.41332
0.14891,0.98435,-0.09424,-0.67736,0.57113,0.33932
0.18075,0.97338,-0.14093,-0.77816,0.71862,0.30688
0.20299,0.96113,-0.18716,-0.90288,0.79781,0.54295
0.21618,0.95188,-0.21721,-0.65167,0.43595,0.4195
0.2248,0.94515,-0.23697,-0.47324,0.35156,0.30989
0.23258,0.93777,-0.25787,0.14658,0.22834,0.04436
0.2407,0.92898,-0.28116,0.03041,-0.01068,0.10883
0.2492,0.91908,-0.30528,-0.14053,-0.14588,0.13342
0.25198,0.90932,-0.33113,-0.27291,-0.29021,0.27
0.25175,0.90012,-0.35553,-0.32141,-0.59856,0.41484
0.24952,0.89161,-0.37785,-0.37541,-0.5377,0.36385
0.24217,0.88417,-0.3995,-0.25442,-0.7751,0.393
0.23402,0.87809,-0.41737,-0.19067,-0.71964,0.37943
0.22389,0.87562,-0.42798,-0.15105,-0.66535,0.38475
0.21268,0.87757,-0.4297,-0.11037,-0.59503,0.36314
0.20168,0.88199,-0.42594,-0.10366,-0.4062,0.27074
0.1884,0.88618,-0.4233,-0.1276,-0.10881,0.17102
0.17572,0.88859,-0.42371,-0.25609,0.29232,0.04843
0.16783,0.88493,-0.43444,-0.2127,1.13795,-0.23519
0.17181,0.87435,-0.45386,-0.14587,1.28232,-0.37975
0.1835,0.8677,-0.46198,-0.32667,0.27985,-0.24137
0.1957,0.85985,-0.47156,-0.11792,0.37544,-0.07639
0.20167,0.84453,-0.49608,-0.30297,1.33752,0.3763
0.20532,0.83166,-0.51593,-0.65731,1.71883,0.61501
0.20607,0.83236,-0.5145,-0.59248,1.18544,0.61264
0.2022,0.84084,-0.50209,-0.60863,-0.23682,0.45314
0.19545,0.84712,-0.49415,-0.32444,-0.18362,0.51413
0.18785,0.85263,-0.48757,0.09954,-0.09955,0.61727
0.18338,0.86164,-0.47323,0.28922,0.12681,0.65417
0.17927,0.87729,-0.44522,-0.2241,0.25601,0.50481
0.17421,0.89678,-0.40674,-0.48663,0.13946,0.33362
0.17154,0.91395,-0.36779,-0.39434,-0.05369,0.30468
0.17664,0.92476,-0.33705,-0.3187,-0.29404,0.32067
0.19146,0.92986,-0.31417,-0.25856,-0.55844,0.4004
0.20916,0.9331,-0.29252,-0.28054,-0.61871,0.42297
0.21492,0.94044,-0.26339,-0.27434,-0.17131,0.46152
0.20996,0.95044,-0.2293,-0.20783,-0.0968,0.14975
0.20344,0.9581,-0.20163,-0.19842,-0.17839,0.09718
0.19177,0.96415,-0.18338,-0.13374,-0.21959,0.17689
0.1794,0.96929,-0.1682,-0.10845,-0.13709,0.0995
0.16858,0.97437,-0.14894,-0.08572,-0.10077,-0.00795
0.15441,0.9792,-0.1316,0.06144,0.02799,0.00765
0.13615,0.98325,-0.12111,0.02086,0.03217,-0.03064
0.12166,0.98624,-0.11193,0.0298,-0.00487,0.00319
0.11354,0.9885,-0.09988,0.40258,-0.01815,0.00192
0.10529,0.99065,-0.08675,0.27325,0.22668,0.03981
0.10134,0.99252,-0.06806,0.14399,0.38866,0.07002
0.11078,0.99238,-0.05389,-0.13205,0.65015,0.39545
0.13115,0.98984,-0.05484,-0.17385,0.54687,0.4446
0.16151,0.98389,-0.07656,-0.53881,0.54096,0.3816
0.19339,0.9739,-0.11879,-0.78206,0.82439,0.33383
0.21608,0.96232,-0.16506,-0.85608,0.83929,0.50591
0.23104,0.95206,-0.20046,-0.67546,0.5302,0.44863
0.24366,0.94329,-0.22547,-0.41999,0.40666,0.29474
0.25606,0.93444,-0.24747,-0.17,0.36611,0.13915
0.26804,0.92525,-0.26843,-0.19982,0.2071,0.19922
0.2774,0.91634,-0.28873,-0.12318,-0.05672,0.10556
0.28047,0.90791,-0.3115,-0.27847,-0.3074,0.25449
0.28184,0.8994,-0.33414,-0.32346,-0.31887,0.31217
0.27697,0.89266,-0.35559,-0.32921,-0.44275,0.36647
0.26915,0.88636,-0.37671,-0.26318,-0.68985,0.33681
0.25933,0.88068,-0.39642,-0.23202,-0.69994,0.35359
0.24642,0.87716,-0.41215,-0.19155,-0.70296,0.39677
0.23285,0.87736,-0.41953,-0.14104,-0.64214,0.40891
0.21727,0.88129,-0.41966,-0.09477,-0.61297,0.40629
0.19771,0.88657,-0.41822,-0.04246,-0.45041,0.3411
0.17968,0.89095,-0.41703,-0.21633,0.04427,0.11574
0.1664,0.89081,-0.4228,-0.27528,0.27883,0.05539
0.16477,0.88033,-0.44483,-0.45163,0.6523,0.01964
0.17862,0.86612,-0.46683,-0.52074,0.63953,-0.3401
0.18927,0.86303,-0.46834,-0.43215,0.18303,-0.1793
0.19511,0.85546,-0.4797,-0.22354,0.07984,-0.0841
0.19724,0.84202,-0.50209,-0.06557,0.8567,0.35132
0.2005,0.8327,-0.51615,-0.2961,1.42238,0.39565
0.20017,0.83477,-0.51293,-0.50898,0.95816,0.6569
0.20033,0.84265,-0.4998,-0.36031,-0.36395,0.47296
0.19313,0.85003,-0.49005,-0.24756,-0.29783,0.40203
0.18425,0.85546,-0.48399,0.09941,-0.1567,0.5545
0.17947,0.86252,-0.47312,0.25678,0.28448,0.60162
0.17698,0.87462,-0.45134,-0.1884,0.38018,0.51606
0.17682,0.89076,-0.41865,-0.40686,0.1356,0.38572
0.17885,0.90597,-0.38371,-0.4059,-0.07647,0.32789
0.18443,0.91645,-0.3551,-0.41392,-0.16327,0.29197
0.19498,0.92283,-0.33222,-0.27466,-0.45171,0.39342
0.20739,0.9273,-0.31159,-0.24645,-0.44987,0.41644
0.21471,0.93358,-0.28692,-0.23349,-0.33736,0.38824
0.21598,0.94187,-0.25734,-0.12885,-0.10905,0.17192
0.21383,0.94925,-0.23064,-0.11863,-0.16533,0.10057
0.20511,0.9558,-0.21066,-0.12874,-0.30054,0.14209
0.19123,0.96202,-0.19479,-0.15616,-0.21414,0.19055
0.17705,0.96794,-0.17814,-0.13984,-0.12157,0.05564
0.16173,0.97352,-0.16156,-0.12418,-0.01693,-0.01209
0.14595,0.97795,-0.14939,-0.10225,-0.0129,0.12659
0.13115,0.98126,-0.14112,0.02258,-0.05977,0.12462
0.11955,0.98391,-0.13273,0.17275,-0.02693,-0.03253
0.11118,0.98659,-0.1195,0.25884,0.1156,0.00714
0.10439,0.9892,-0.1029,0.08273,0.38379,0.0928
0.10821,0.99046,-0.08527,-0.19497,0.49483,0.23685
0.12365,0.98946,-0.07527,0.00941,0.56464,0.4552
0.14586,0.98576,-0.08364,-0.43659,0.47438,0.39162
0.1757,0.97756,-0.11618,-0.62826,0.56544,0.34845
0.20217,0.96535,-0.165,-0.76914,0.7016,0.36239
0.22058,0.95271,-0.20899,-0.76483,0.58347,0.5337
0.23519,0.94298,-0.23551,-0.77944,0.5932,0.56022
0.24825,0.93534,-0.25203,-0.19953,0.35626,0.1801
0.25897,0.9271,-0.27096,-0.03553,0.37928,0.07253
0.26845,0.91739,-0.29381,-0.08178,0.35373,0.06624
0.27419,0.90719,-0.31909,-0.15244,0.00294,0.13258
0.27354,0.89784,-0.34504,-0.32582,-0.27545,0.29429
0.2722,0.88905,-0.36809,-0.32447,-0.26666,0.31734
0.26753,0.88182,-0.38834,-0.29573,-0.40955,0.25037
0.25549,0.87508,-0.41105,-0.21862,-0.74295,0.43809
0.24475,0.8687,-0.43063,-0.17628,-0.75347,0.42126
0.23281,0.86556,-0.4434,-0.23737,-0.74344,0.42397
0.22109,0.86704,-0.44649,-0.18707,-0.64462,0.35626
0.20802,0.87307,-0.44099,-0.13936,-0.6264,0.33877
0.19284,0.88037,-0.43331,-0.139,-0.43489,0.29766
0.17901,0.88563,-0.4285,-0.17816,-0.11131,0.25736
0.16735,0.88311,-0.4383,-0.32855,0.42553,0.19669
0.16839,0.87222,-0.45921,-0.32964,1.44832,-0.28672
0.17844,0.86654,-0.46612,-0.39115,0.47158,-0.36182
0.19115,0.86309,-0.46748,-0.21564,0.12968,-0.1718
0.20091,0.84644,-0.49313,0.10256,0.68046,0.05461
0.20456,0.82514,-0.52659,-0.27501,1.69419,0.44788
0.20915,0.81625,-0.5385,-0.37779,1.56772,0.55774
0.21919,0.82374,-0.52289,-0.57127,-0.45076,0.52899
0.22032,0.83184,-0.50941,-0.52157,-0.32771,0.36544
0.21193,0.83673,-0.50495,-0.42207,-0.19946,0.43314
0.19609,0.84288,-0.50109,0.0837,0.1678,0.64938
0.18232,0.85431,-0.48674,0.1423,0.37291,0.64117
0.17758,0.87075,-0.45853,-0.06538,0.3517,0.53853
0.17869,0.88852,-0.42261,-0.38709,0.12114,0.2926
0.18346,0.90296,-0.38859,-0.3344,-0.06348,0.27157
0.1906,0.91305,-0.36058,-0.31918,-0.15278,0.25274
0.1992,0.91992,-0.33774,-0.20205,-0.33718,0.32274
0.20891,0.92479,-0.31799,-0.13987,-0.37398,0.39733
0.21554,0.93093,-0.2948,-0.15578,-0.30016,0.38045
0.21632,0.93887,-0.26783,-0.19119,-0.23717,0.1763
0.21042,0.9472,-0.24195,-0.2394,-0.34107,0.12875
0.1946,0.9556,-0.22128,-0.23132,-0.26689,0.23214
0.17473,0.96343,-0.20313,-0.21329,-0.10537,0.24747
0.15568,0.97016,-0.18589,-0.22538,-0.04061,0.09064
0.13892,0.97587,-0.16845,-0.1682,0.0042,-0.00442
0.12402,0.98017,-0.15456,0.00606,0.06892,0.15328
0.11007,0.98306,-0.14655,0.25894,0.00106,0.10515
0.09981,0.9854,-0.1379,0.43348,0.02043,0.03379
0.09441,0.98755,-0.12577,0.30228,0.16754,0.02936
0.0911,0.98997,-0.10794,-0.12678,0.42374,0.16217
0.09973,0.99073,-0.0922,-0.09653,0.4215,0.21306
0.11717,0.98926,-0.08735,-0.02534,0.45625,0.40654
0.14303,0.9843,-0.10342,-0.61339,0.44827,0.40106
0.17671,0.97415,-0.14074,-0.64706,0.45843,0.43838
0.20378,0.96072,-0.18836,-0.86151,0.85672,0.45072
0.22132,0.94845,-0.22683,-0.82112,0.69713,0.5236
0.23359,0.93935,-0.25112,-0.66863,0.54507,0.45356
0.24461,0.93135,-0.26972,-0.20919,0.44757,0.14442
0.25539,0.92248,-0.28947,-0.12097,0.22507,0.05605
0.26382,0.91291,-0.31144,-0.10516,0.13058,0.08363
0.26763,0.9028,-0.33663,-0.16508,-0.13412,0.21862
0.26814,0.89254,-0.36258,-0.36229,-0.44709,0.40421
0.26617,0.88364,-0.38514,-0.3464,-0.55345,0.50702
0.25452,0.87753,-0.40641,-0.33449,-0.52052,0.45014
0.23887,0.87284,-0.42554,-0.13863,-0.79015,0.4564
0.22499,0.86985,-0.43902,-0.11695,-0.79191,0.46117
0.21213,0.86928,-0.44649,-0.14447,-0.73941,0.44205
0.20103,0.87206,-0.44619,-0.20195,-0.60946,0.32511
0.19188,0.87641,-0.44169,-0.18085,-0.5485,0.26876
0.18477,0.87898,-0.4396,-0.22863,-0.20847,0.10422
0.18055,0.87798,-0.44334,-0.28631,0.16855,0.0614
0.18243,0.86873,-0.46046,-0.2921,1.01959,-0.1093
0.19614,0.85732,-0.47595,-0.09674,1.61004,-0.34526
0.20542,0.85422,-0.47761,-0.20755,0.3372,-0.17326
0.2101,0.84198,-0.49692,-0.15636,0.58333,-0.04402
0.21802,0.82325,-0.52415,-0.18983,1.14036,0.21015
0.22555,0.81514,-0.53354,-0.53907,0.80107,0.58786
0.22935,0.81846,-0.5268,-0.53071,0.30361,0.53675
0.22803,0.82342,-0.51959,-0.51954,-0.06685,0.50381
0.2182,0.82995,-0.51339,-0.36514,0.03925,0.56776
0.20723,0.83816,-0.50452,-0.21966,0.11177,0.63101
0.20039,0.84928,-0.48843,0.05574,0.15687,0.58324
0.19803,0.86452,-0.46194,-0.25716,0.1938,0.49733
0.1992,0.88141,-0.42829,-0.35515,0.17248,0.42577
0.20226,0.8972,-0.39258,-0.26438,0.02557,0.33354
0.20768,0.90948,-0.36017,-0.24892,-0.16091,0.26059
0.21632,0.91771,-0.33318,-0.23878,-0.32356,0.27868
0.22797,0.92286,-0.31042,-0.23653,-0.40879,0.37867
0.23846,0.92785,-0.28675,-0.17676,-0.26089,0.36956
0.24047,0.93596,-0.2572,-0.21151,-0.27216,0.20833
0.23439,0.94532,-0.22678,-0.22136,-0.30244,0.1612
0.22015,0.95408,-0.20314,-0.24853,-0.20923,0.20009
0.20143,0.96175,-0.18561,-0.24462,-0.11344,0.19381
