gravity.x,gravity.y,gravity.z,userAcceleration.x,userAcceleration.y,userAcceleration.z
-0.19501,0.95338,0.23029,0.06361,-0.10846,-0.14833
-0.21483,0.93882,0.26918,-0.11955,-0.37553,-0.25136
-0.22949,0.92456,0.30416,-0.08777,-0.70639,-0.22966
-0.23351,0.91326,0.33382,0.07833,-0.92829,-0.30801
-0.22752,0.90572,0.35763,0.12869,-0.9399,-0.34485
-0.21688,0.90161,0.37423,0.11793,-1.10727,-0.34095
-0.20151,0.90169,0.38256,0.12419,-1.07497,-0.34846
-0.18089,0.90613,0.38236,0.13146,-1.00124,-0.31914
-0.1617,0.91258,0.37557,0.06256,-0.43345,0.28294
-0.15494,0.91711,0.36729,0.05634,-0.15228,0.27679
-0.14915,0.92066,0.36075,-0.02338,0.63418,0.12052
-0.13035,0.91876,0.37268,-0.08398,1.52266,0.64706
-0.11512,0.91074,0.3966,0.22065,1.04855,0.94236
-0.11091,0.90978,0.39999,0.06072,-0.20635,0.69166
-0.10934,0.91102,0.3976,0.20541,0.20211,-0.10203
-0.09904,0.90088,0.42263,-0.12945,0.63463,-0.38379
-0.09731,0.89406,0.43726,0.07444,0.83359,-0.82849
-0.09828,0.89614,0.43275,0.40474,0.65847,-0.11568
-0.0979,0.8996,0.4256,0.19652,0.00017,0.11639
-0.11307,0.90722,0.40517,-0.28738,-0.24317,-0.74888
-0.1303,0.92126,0.36647,-0.32332,-0.21984,-0.70566
-0.13125,0.93905,0.31773,-0.26218,-0.06208,-0.31656
-0.12193,0.95532,0.26924,0.11401,-0.25301,-0.14247
-0.12235,0.96791,0.21949,0.23573,-0.36798,-0.16787
-0.12461,0.9775,0.17016,0.41447,-0.54135,-0.20333
-0.1205,0.98504,0.1232,0.34056,-0.56843,-0.19646
-0.11284,0.99054,0.07811,0.26892,-0.56686,-0.0986
-0.10181,0.99419,0.03504,0.04783,-0.33157,-0.07723
-0.08411,0.99645,-0.00336,-0.15269,-0.12133,-0.17841
-0.05937,0.99747,-0.03914,-0.22464,-0.12105,-0.11542
-0.03151,0.99697,-0.07118,-0.24482,-0.10654,-0.02659
-0.00563,0.99545,-0.09516,-0.25294,0.49667,0.18111
0.01575,0.99434,-0.10506,-0.46535,0.15654,0.27674
0.03342,0.99303,-0.11305,-0.64829,0.22115,0.5729
0.04902,0.99127,-0.1224,-0.64776,0.4915,0.21635
0.05989,0.98971,-0.12994,-0.75473,0.46981,0.16573
0.06412,0.98862,-0.13606,-0.72939,0.53797,-0.08555
0.05909,0.98855,-0.13884,-0.32732,0.54922,-0.12416
0.03966,0.99024,-0.13358,-0.06277,0.43345,-0.15893
0.00966,0.99348,-0.11356,0.3932,0.16135,-0.15986
-0.02913,0.99639,-0.07975,0.2578,0.40524,-0.16848
-0.06575,0.99706,-0.03932,0.12241,0.65823,-0.28562
-0.09643,0.99531,0.008,0.15309,0.65998,-0.33293
-0.12741,0.98996,0.06113,0.53209,0.71051,-0.03935
-0.15773,0.98093,0.11352,0.6458,0.41583,-0.01745
-0.17849,0.97073,0.16068,0.56945,0.2029,-0.0569
-0.19443,0.96017,0.20065,0.06246,-0.26231,-0.18956
-0.21139,0.9494,0.23226,-0.15641,-0.53314,-0.26603
-0.22382,0.93984,0.25806,-0.17109,-1.00956,-0.21856
-0.22231,0.93409,0.27938,0.02202,-0.99218,-0.28939
-0.20974,0.92984,0.30233,0.1305,-0.90102,-0.22257
-0.19486,0.92425,0.3283,0.19173,-0.81627,-0.27875
-0.18346,0.91832,0.35074,0.25765,-0.84969,-0.21053
-0.17862,0.91524,0.36115,0.22389,-0.81824,-0.13395
-0.17897,0.91622,0.35848,0.02864,-0.44239,0.15873
-0.18189,0.91817,0.35197,-0.16807,0.04746,0.35347
-0.18107,0.92099,0.34496,-0.00312,0.85486,0.50558
-0.16719,0.91804,0.35952,-0.02641,1.26078,0.53904
-0.15008,0.91238,0.38083,0.13534,0.54592,0.77432
-0.14084,0.91411,0.38022,0.5135,0.3408,0.29999
-0.1353,0.90836,0.39568,0.17459,1.43387,-0.2367
-0.14046,0.89728,0.41851,0.07468,1.02653,-0.60005
-0.15677,0.89718,0.4129,0.22206,-0.07929,-0.60939
-0.16579,0.89913,0.40506,0.21737,-0.37276,0.07864
-0.17177,0.90225,0.39552,-0.28621,0.09485,-0.27461
-0.17633,0.91265,0.36873,-0.29237,0.1131,-0.63038
-0.16669,0.93054,0.32605,-0.02099,0.08447,-0.21145
-0.15478,0.94852,0.27631,0.10501,-0.30639,-0.11603
-0.15008,0.96196,0.22824,0.17537,-0.54551,-0.04653
-0.15232,0.9714,0.18216,0.18613,-0.61274,-0.16977
-0.15605,0.97807,0.13794,0.22992,-0.65214,-0.24984
-0.15554,0.98318,0.09577,0.25099,-0.60071,-0.20014
-0.14864,0.98735,0.05516,0.15915,-0.26531,0.02568
-0.13739,0.99037,0.01722,0.11543,-0.23126,0.04748
-0.12013,0.9926,-0.01788,-0.02432,-0.29744,-0.07683
-0.09412,0.9941,-0.05381,-0.10786,-0.46482,-0.06225
-0.05945,0.99419,-0.08973,-0.13908,-0.17523,0.17988
-0.02142,0.99266,-0.11904,-0.26022,0.38573,0.14768
0.01126,0.99058,-0.13648,-0.52421,0.31031,0.31946
0.03461,0.98797,-0.15073,-0.68109,0.38743,0.34126
0.04331,0.98565,-0.16317,-0.50797,0.66711,0.22059
0.04585,0.98514,-0.1655,-0.74426,0.60172,0.38478
0.04374,0.98537,-0.16474,-0.66965,0.45142,0.19603
0.03814,0.9873,-0.15425,-0.68295,0.53022,-0.1659
0.01886,0.9905,-0.1362,-0.21509,0.16776,-0.11858
-0.009,0.99431,-0.10611,0.16145,0.19136,-0.2806
-0.04436,0.99661,-0.0692,0.15618,0.65303,-0.31712
-0.08095,0.99646,-0.02254,0.39328,1.02611,-0.2035
-0.11705,0.99255,0.03384,0.50163,0.90615,-0.11662
-0.1493,0.9848,0.0887,0.61289,0.66005,-0.01912
-0.17521,0.97505,0.13626,0.33008,0.29613,0.00897
-0.19632,0.96421,0.17821,0.0227,-0.00754,-0.02157
-0.21737,0.95175,0.21662,-0.18369,-0.45388,-0.23243
-0.23298,0.93856,0.25459,-0.13969,-0.74582,-0.30224
-0.23605,0.92729,0.29052,-0.02854,-1.0444,-0.35962
-0.22461,0.91966,0.32212,0.23244,-0.98523,-0.32081
-0.20719,0.91449,0.34752,0.24736,-0.93515,-0.31584
-0.19003,0.91117,0.36558,0.27761,-0.9278,-0.28364
-0.17522,0.91024,0.37517,0.22269,-0.7946,-0.12074
-0.1679,0.91315,0.37143,0.07633,-0.6054,-0.05538
-0.1665,0.9186,0.3584,-0.0361,-0.46248,0.07702
-0.16951,0.92419,0.34226,-0.02635,0.15864,0.3144
-0.16048,0.92634,0.34078,-0.01649,1.25316,0.2217
-0.14596,0.918,0.36874,0.04403,1.07834,0.62859
-0.14073,0.91301,0.38289,-0.00374,0.03201,0.90495
-0.14014,0.91368,0.38149,0.40435,0.57843,0.1827
-0.13384,0.90378,0.40652,0.13062,0.89187,-0.02232
-0.12964,0.89398,0.42895,0.02668,0.60555,-0.62711
-0.1305,0.88988,0.43714,0.1126,0.26155,-0.37731
-0.13813,0.887,0.44062,0.05807,0.1755,0.09774
-0.16256,0.88662,0.43298,0.12174,0.12542,-0.61058
-0.1819,0.89607,0.40493,-0.10315,0.38176,-0.42557
-0.1816,0.91207,0.36761,-0.06194,-0.00537,-0.48113
-0.17248,0.933,0.31584,0.0522,-0.18189,-0.33928
-0.1637,0.95196,0.25877,0.20821,-0.32115,-0.16183
-0.15628,0.96657,0.20324,0.26568,-0.44434,-0.18713
-0.14943,0.97739,0.14961,0.23349,-0.46261,-0.21719
-0.14318,0.98467,0.09962,0.24862,-0.60152,-0.20994
-0.1339,0.98953,0.05389,0.17585,-0.49586,-0.02679
-0.1208,0.99258,0.0136,0.13526,-0.47336,0.06675
-0.10366,0.99436,-0.02229,0.00877,-0.31622,-0.06579
-0.08116,0.99511,-0.0563,-0.17614,-0.35705,-0.02448
-0.05406,0.99435,-0.09131,-0.25881,-0.12662,0.18546
-0.02452,0.99221,-0.1221,-0.27121,0.2296,0.14489
0.00279,0.98985,-0.14206,-0.24545,0.18094,0.37843
0.02684,0.98701,-0.15838,-0.53442,0.50423,0.41653
0.04057,0.98413,-0.17274,-0.70868,0.6978,0.34539
0.04449,0.98262,-0.18018,-0.87101,0.62612,0.3856
0.04179,0.98193,-0.18454,-0.66571,0.88544,0.02251
0.02504,0.98317,-0.18096,-0.17447,0.64371,0.00722
-0.00353,0.9866,-0.1631,-0.00299,0.26953,-0.08981
-0.04032,0.99074,-0.12967,0.22344,0.27022,-0.26353
-0.07719,0.99345,-0.08428,0.26067,0.63544,-0.23307
-0.10875,0.99349,-0.03401,0.30197,0.92166,-0.04865
-0.1357,0.99038,0.02709,0.49556,0.83248,-0.02703
-0.16028,0.98293,0.09032,0.55955,0.51796,0.03486
-0.17866,0.97361,0.14198,0.26233,0.12279,-0.10147
-0.19004,0.96449,0.18339,-0.03611,-0.36227,-0.09689
-0.20628,0.95415,0.21691,-0.05339,-0.46011,-0.11973
-0.22312,0.94386,0.24358,-0.05125,-0.63719,-0.11826
-0.22725,0.93747,0.26362,0.17785,-0.99306,-0.3038
-0.21727,0.93424,0.28282,0.15839,-1.0537,-0.29486
-0.20136,0.9321,0.30105,0.13886,-1.02063,-0.30073
-0.18577,0.92939,0.31894,0.16715,-0.8472,-0.20998
-0.17527,0.92735,0.33059,0.16986,-0.69805,-0.01679
-0.17408,0.92665,0.33318,0.14116,-0.56132,0.06813
-0.17883,0.92594,0.33262,0.06657,-0.22228,0.34902
-0.18208,0.92696,0.32801,-0.12351,0.40852,0.40482
-0.16963,0.92708,0.33427,-0.24414,0.77839,0.29909
-0.15575,0.92225,0.35383,0.01447,0.71011,0.69599
-0.15007,0.91947,0.36338,0.10055,0.02735,0.85253
-0.1431,0.91972,0.36555,0.32412,0.6409,-0.04019
-0.13656,0.91166,0.38759,0.14952,0.65276,-0.04449
-0.13551,0.90941,0.3932,0.29772,0.26237,-0.57732
-0.13697,0.90637,0.39967,-0.00167,0.75451,-0.15723
-0.14131,0.90527,0.40064,-0.04566,0.39184,-0.20196
-0.14733,0.91385,0.37837,-0.20006,-0.1176,-0.4107
-0.14925,0.92922,0.33805,-0.05224,-0.1804,-0.31961
-0.14609,0.94636,0.2882,-0.00073,-0.3303,-0.28022
-0.13651,0.96317,0.23165,0.06186,-0.39438,-0.17148
-0.132,0.97585,0.17406,0.0776,-0.54973,-0.02547
-0.13465,0.98372,0.11897,0.17478,-0.84974,-0.25242
-0.13695,0.98807,0.07036,0.26436,-0.88747,-0.27835
-0.13481,0.99059,0.0236,0.43423,-0.50397,-0.18695
-0.12599,0.99183,-0.0199,0.40613,-0.17292,-0.15356
-0.10951,0.99239,-0.0562,0.15222,-0.04261,0.02768
-0.08934,0.99233,-0.08548,-0.10931,-0.03716,0.077
-0.06439,0.9919,-0.10949,-0.26104,-0.03523,0.10029
-0.03672,0.99048,-0.13268,-0.31692,-0.04164,0.19309
-0.00682,0.98804,-0.15407,-0.25077,0.36659,0.26771
0.019,0.98486,-0.17231,-0.37369,0.56919,0.54903
0.03424,0.98246,-0.18329,-0.7193,0.62125,0.2778
0.0409,0.9807,-0.19121,-0.87487,0.60054,0.26659
0.03939,0.97973,-0.19642,-0.67264,0.83898,0.04162
0.02417,0.9805,-0.19501,-0.28026,0.50846,-0.05646
-0.0021,0.9841,-0.17763,0.03601,0.24433,0.03268
-0.0361,0.98866,-0.14579,0.32524,0.30625,0.116
-0.07127,0.99238,-0.10055,0.19746,0.55657,-0.22323
-0.10166,0.9934,-0.05302,0.06923,0.68534,-0.20144
-0.13117,0.99135,0.00438,0.28438,0.83868,-0.04357
-0.16017,0.98481,0.067,0.41,0.81788,-0.0674
-0.18116,0.97562,0.12385,0.2653,0.27331,0.00013
-0.19395,0.96599,0.171,0.10017,-0.10012,-0.10163
-0.20837,0.95455,0.21312,0.07066,-0.31359,-0.22763
-0.21676,0.94342,0.25096,0.17627,-1.04678,-0.27364
-0.2102,0.93552,0.28392,0.23088,-1.01537,-0.28579
-0.19782,0.93026,0.309,0.07833,-0.80503,-0.2803
-0.18881,0.92662,0.32515,0.04669,-0.92212,-0.32904
-0.18066,0.92446,0.33575,0.20387,-0.9259,-0.22507
-0.17226,0.92382,0.34187,0.19547,-0.92526,-0.23119
-0.16828,0.92431,0.34252,0.14779,-0.47758,0.27245
-0.17187,0.92427,0.34085,-0.0183,-0.32779,0.4303
-0.17371,0.92593,0.33537,-0.09603,0.50286,0.42588
-0.16064,0.92508,0.34413,-0.32726,1.36218,0.35932
-0.15048,0.91763,0.36785,0.03992,0.76363,0.71521
-0.14356,0.9144,0.37849,0.10413,-0.07512,0.94667
-0.1401,0.91765,0.37186,0.52307,0.51124,0.23318
-0.13353,0.91103,0.39011,-0.02455,0.75867,-0.07868
-0.13487,0.90857,0.39535,-0.04366,0.43205,-0.86849
-0.1375,0.91355,0.38277,0.24382,0.34591,0.08627
-0.13189,0.91539,0.38035,-0.05918,-0.05527,-0.06628
-0.1399,0.92209,0.3608,-0.11694,-0.11104,-0.22944
-0.15237,0.93374,0.32391,-0.12808,-0.14678,-0.44518
-0.15323,0.94977,0.27287,-0.00155,-0.23347,-0.26802
-0.14447,0.9644,0.22148,0.09068,-0.33408,-0.2527
-0.13645,0.9755,0.17259,0.28326,-0.35111,-0.11755
-0.13216,0.98287,0.12845,0.39192,-0.51319,-0.15479
-0.1264,0.98815,0.08706,0.4087,-0.61339,-0.17623
-0.11603,0.99217,0.04626,0.23121,-0.51907,-0.12866
-0.10257,0.99471,0.00616,0.12843,-0.48325,-0.08981
-0.0855,0.99583,-0.03166,0.02521,-0.37331,-0.20192
-0.06266,0.99548,-0.07133,0.03124,-0.14178,-0.09572
-0.03356,0.99332,-0.11042,0.0018,0.08598,0.22976
0.00079,0.99028,-0.13905,-0.10719,0.30574,0.36184
0.03708,0.98688,-0.15716,-0.6684,0.40444,0.4387
0.066,0.98373,-0.1671,-0.81713,0.41912,0.71089
0.08087,0.98119,-0.1753,-0.88005,0.62181,0.23331
0.08597,0.98086,-0.17469,-1.09674,0.65293,0.38906
0.07926,0.98287,-0.16639,-0.62685,0.64227,-0.05332
0.05811,0.98676,-0.15143,-0.35392,0.40605,-0.04535
0.02887,0.99209,-0.12213,0.11128,0.10585,-0.25435
-0.00797,0.99643,-0.084,0.26714,0.56614,-0.17682
-0.04404,0.99836,-0.03649,0.27775,0.92661,-0.27223
-0.07629,0.99691,0.01839,0.37481,0.84441,-0.41438
-0.10437,0.99159,0.07653,0.46267,0.71456,-0.11541
-0.1287,0.98291,0.13163,0.42633,0.49845,-0.01202
-0.15003,0.97245,0.17839,0.30614,0.31997,-0.02345
-0.16904,0.96142,0.21702,-0.05005,-0.26661,-0.10546
-0.18807,0.94974,0.25024,-0.09427,-0.42771,-0.16902
-0.19588,0.93978,0.28008,-0.02774,-0.84558,-0.16844
-0.19181,0.93244,0.30622,0.04893,-0.87909,-0.25423
-0.18404,0.92726,0.32605,0.06254,-0.85341,-0.302
-0.17762,0.92471,0.33669,0.20195,-1.07727,-0.41009
-0.1696,0.92578,0.33788,0.30559,-1.04184,-0.40461
-0.15915,0.92928,0.33333,0.25029,-0.77822,-0.16215
-0.15215,0.93296,0.32625,0.11263,-0.43482,0.24795
-0.15301,0.93402,0.32279,0.155,-0.08357,0.32751
-0.14654,0.93357,0.32706,0.22877,0.70704,-0.01859
-0.12711,0.9285,0.34889,-0.0734,1.43052,0.60341
-0.11469,0.92035,0.37389,-0.00917,0.58162,0.86936
-0.1098,0.91842,0.38006,0.22191,0.09423,0.42188
-0.10457,0.90949,0.40236,-0.23773,0.99221,0.14832
-0.10577,0.89447,0.43444,-0.22632,1.03353,-0.20319
-0.1306,0.88819,0.44053,0.10066,0.20535,-0.45928
-0.14583,0.88885,0.43437,0.25415,-0.1061,-0.27191
-0.13888,0.89142,0.43136,-0.31105,0.34283,-0.63175
-0.14388,0.90394,0.40272,-0.24617,0.51812,-0.14477
-0.14949,0.92353,0.35318,-0.10226,0.0384,-0.32952
-0.14056,0.94327,0.3008,-0.15549,-0.16782,-0.32643
-0.12698,0.96081,0.24641,0.02881,-0.4829,-0.17852
-0.12078,0.97476,0.18774,0.16024,-0.61671,-0.04912
-0.11847,0.98411,0.13223,0.32769,-0.83073,-0.15673
-0.11332,0.98989,0.08523,0.32745,-0.75602,-0.10042
-0.10282,0.99375,0.04353,0.17847,-0.52481,0.0244
-0.09168,0.99577,0.00496,0.13155,-0.42356,0.04182
-0.07727,0.99651,-0.03155,0.14441,-0.24418,-0.08181
-0.05567,0.99594,-0.07069,0.02851,-0.10069,-0.11485
-0.02728,0.9939,-0.10687,-0.12386,0.09215,0.26173
0.00415,0.99178,-0.12787,-0.153,0.27125,0.22018
0.0317,0.98997,-0.13765,-0.13132,0.17668,0.25368
0.05485,0.9873,-0.14912,-0.66214,0.44618,0.50422
0.06793,0.98525,-0.15705,-0.8617,0.58853,0.40584
0.07058,0.98444,-0.16093,-0.97782,0.64685,0.44208
0.06242,0.98528,-0.15913,-0.82716,0.70703,0.09282
0.04079,0.98777,-0.15047,-0.14871,0.42976,-0.01826
0.00908,0.99174,-0.12797,0.24741,0.25978,0.04793
-0.02498,0.99588,-0.08718,0.20044,0.41185,-0.27529
-0.05438,0.99758,-0.04321,0.04957,0.53898,-0.23319
-0.08149,0.99659,0.01303,0.09897,0.89192,-0.15607
-0.1121,0.9909,0.07445,0.37263,0.81427,0.06426
-0.14516,0.98121,0.12706,0.45058,0.60918,0.11333
-0.17432,0.97022,0.16818,0.45372,0.36508,0.10581
-0.20255,0.9583,0.2016,-0.11633,-0.39976,-0.08992
-0.22881,0.94508,0.23336,-0.09007,-0.38655,-0.12168
-0.23927,0.93599,0.25822,-0.14037,-1.00967,-0.28518
-0.2341,0.93217,0.27614,0.0924,-1.10281,-0.37184
-0.22215,0.93065,0.29077,0.16735,-1.11082,-0.38863
-0.20706,0.92952,0.30514,0.26554,-1.08869,-0.43924
-0.18837,0.9292,0.31795,0.41796,-0.75069,-0.06224
-0.17044,0.93059,0.32396,0.31539,-0.57619,0.12165
-0.15865,0.93232,0.32498,0.17945,-0.41184,0.28043
-0.15426,0.93378,0.32289,0.30557,-0.06613,0.28737
-0.1427,0.9387,0.31379,-0.02044,0.74584,0.22306
-0.12347,0.93891,0.32125,-0.34508,1.19218,0.67391
-0.11775,0.93396,0.33743,0.20653,0.36396,0.50109
-0.11724,0.93134,0.34476,0.321,0.81812,0.12973
-0.11279,0.92127,0.37219,0.06071,1.49169,0.21084
-0.11476,0.91119,0.39568,-0.08249,0.59853,-0.24956
-0.12238,0.90882,0.39883,0.31825,-0.61704,-0.69535
-0.11401,0.90926,0.4003,0.21783,-0.20788,-0.21363
-0.11485,0.9112,0.39563,-0.25144,0.591,-0.54471
-0.12027,0.924,0.36298,-0.29504,0.57588,-0.43458
-0.1166,0.94346,0.31029,-0.07999,-0.26556,-0.16761
-0.10968,0.96091,0.25422,-0.00597,-0.47525,-0.18215
-0.10539,0.97444,0.19839,0.19839,-0.67361,-0.0636
-0.10286,0.98433,0.14321,0.21071,-0.74491,-0.20916
-0.09786,0.99105,0.09076,0.21824,-0.73861,-0.20305
-0.09005,0.99506,0.04176,0.17012,-0.62375,-0.12933
-0.08077,0.99673,-0.00354,0.21531,-0.47742,0.02621
-0.06793,0.99674,-0.04348,0.203,-0.45135,0.02416
-0.04852,0.99566,-0.07941,-0.07869,-0.22735,-0.00447
-0.02469,0.99284,-0.11687,-0.32123,-0.06481,0.16978
-0.0015,0.98889,-0.14862,-0.33253,0.22798,0.30786
0.01623,0.98513,-0.17106,-0.14625,0.13842,0.12775
0.03334,0.98159,-0.18806,-0.46521,0.28188,0.37347
0.05186,0.97698,-0.20693,-0.68712,0.79356,0.40191
0.06119,0.97395,-0.21835,-0.59117,0.89019,0.29519
0.0618,0.97317,-0.22162,-0.74443,0.8498,0.10224
0.0522,0.97446,-0.21842,-0.44288,0.58485,0.09116
0.03024,0.97855,-0.20378,-0.08409,0.2622,0.1313
-0.00324,0.98551,-0.1696,0.26349,0.30823,-0.30959
-0.04112,0.99174,-0.12148,0.13162,0.6961,-0.46461
-0.08168,0.99385,-0.07474,0.32427,0.84817,-0.08096
-0.1219,0.99243,-0.01471,0.4519,0.89216,-0.38043
-0.15407,0.98681,0.04971,0.51857,0.60302,-0.0479
-0.17879,0.97817,0.10595,0.48668,0.4156,0.03047
-0.19674,0.96829,0.15396,0.1278,-0.1559,-0.04106
-0.21695,0.9562,0.19652,0.05379,-0.65329,-0.10544
-0.23349,0.94371,0.23431,0.0293,-0.88183,-0.11884
-0.23691,0.93518,0.26327,0.08723,-1.08089,-0.24865
-0.22685,0.93099,0.286,0.08202,-0.93367,-0.27558
-0.21115,0.92884,0.30443,0.09976,-0.9522,-0.2589
-0.19417,0.92784,0.31846,0.16704,-0.88885,-0.21357
-0.18115,0.92822,0.32494,0.13783,-0.55652,0.15678
-0.17646,0.92955,0.32372,0.13184,-0.50814,0.36668
-0.17563,0.93096,0.32011,0.12832,-0.50678,0.47346
-0.16607,0.93346,0.31792,-0.20693,0.45069,0.20241
-0.14575,0.93218,0.33135,-0.13669,1.04412,0.26954
-0.12838,0.92494,0.35779,-0.09632,1.46027,0.86503
-0.12065,0.92043,0.37182,0.10031,-0.31072,0.85502
-0.12196,0.92083,0.3704,0.57151,-0.38514,0.64469
-0.12053,0.90947,0.39792,-0.21738,0.75881,-0.20575
-0.12973,0.90583,0.40329,0.06434,0.46116,-0.69962
-0.13524,0.90354,0.40661,0.26128,0.75355,-0.18082
-0.14185,0.90237,0.40696,0.10513,0.16032,-0.02593
-0.15153,0.90833,0.38983,-0.16357,0.05265,-0.41643
-0.15432,0.92234,0.35423,-0.11947,0.12219,-0.32271
-0.15073,0.93871,0.31,0.10584,-0.28431,-0.38437
-0.14042,0.95487,0.26175,0.06661,-0.42559,-0.21329
-0.13345,0.96939,0.20608,0.09575,-0.35787,0.04185
-0.13662,0.97888,0.15206,0.2503,-0.67275,-0.28011
-0.13695,0.98548,0.10039,0.26413,-0.68174,-0.23259
-0.1307,0.99011,0.05103,0.2169,-0.58602,-0.15312
-0.11822,0.99297,0.00526,0.06484,-0.34298,-0.1249
-0.10234,0.99405,-0.0373,-0.01892,-0.24513,-0.14253
-0.08372,0.99321,-0.08081,-0.02728,-0.29005,-0.00793
-0.05905,0.99087,-0.12122,-0.02945,-0.04392,0.23933
-0.02701,0.98894,-0.14582,-0.13608,0.41571,0.31016
0.00638,0.98856,-0.15066,-0.28206,0.37881,0.26927
0.03296,0.98746,-0.15436,-0.61702,0.53275,0.6966
0.04312,0.98655,-0.15765,-0.99629,0.67842,0.33815
0.04246,0.98646,-0.15843,-0.83279,0.65772,0.42967
0.03382,0.98736,-0.15484,-0.55343,0.83272,0.01837
0.01421,0.9898,-0.14174,0.0903,0.49698,0.0793
-0.01214,0.99384,-0.11018,0.36156,0.08826,-0.00032
-0.03596,0.99712,-0.06675,0.23798,0.06954,-0.0578
-0.05897,0.99798,-0.02349,-0.09043,0.60202,0.0505
-0.08822,0.99583,0.02323,0.0571,0.7883,-0.16518
-0.12302,0.98941,0.07697,0.39382,0.69622,-0.22872
-0.15268,0.97951,0.13132,0.30056,0.43177,0.12863
-0.17214,0.96904,0.17702,0.17486,0.26336,0.08255
-0.1861,0.95832,0.21674,-0.0675,-0.22169,-0.08324
-0.1992,0.94667,0.25324,-0.08017,-0.51109,-0.17736
-0.20591,0.93592,0.28575,0.00938,-0.91045,-0.22989
-0.20211,0.92869,0.31095,0.1729,-1.05828,-0.23835
-0.19172,0.92499,0.32809,0.24571,-0.99815,-0.31437
-0.18027,0.9233,0.33916,0.19118,-0.90386,-0.37289
-0.16996,0.92385,0.34295,0.16544,-0.78893,-0.35454
-0.16128,0.92715,0.3382,0.14129,-0.59983,-0.13974
-0.15523,0.9326,0.32582,0.04241,-0.28883,0.22226
-0.15313,0.93706,0.31379,-0.02099,-0.0324,0.36513
-0.15082,0.94071,0.30383,0.27898,0.85235,0.27556
-0.14115,0.94175,0.30527,0.10461,1.08232,0.17705
-0.13062,0.9381,0.32078,-0.03103,0.88828,0.42628
-0.12464,0.93534,0.33105,-0.04299,0.94658,0.44101
-0.11699,0.93013,0.34809,-0.0609,1.40169,0.3964
-0.12277,0.91922,0.37411,0.17812,1.32039,-0.17747
-0.13351,0.90819,0.39669,-0.21019,0.15168,-0.41604
-0.15071,0.90968,0.387,0.24766,-0.4181,-0.03441
-0.15585,0.91359,0.37557,-0.09129,0.26145,-0.55184
-0.16518,0.92384,0.34531,0.05544,0.33497,-0.49079
-0.16012,0.94153,0.29643,0.10325,0.14788,-0.24489
-0.14497,0.95879,0.24434,-0.02795,-0.30928,-0.12857
-0.1302,0.97245,0.19337,-0.02503,-0.49872,-0.0839
-0.12203,0.98191,0.14477,0.05968,-0.59826,-0.18828
-0.11668,0.98826,0.09863,0.12451,-0.66363,-0.21649
-0.10767,0.99263,0.05566,0.21749,-0.71278,-0.17626
-0.09478,0.99541,0.01329,0.18399,-0.4548,0.09666
-0.08237,0.99624,-0.02694,0.12537,-0.27027,0.11855
-0.06863,0.99571,-0.06198,-0.07158,-0.06906,0.04771
-0.05083,0.99448,-0.09174,-0.22002,-0.06744,0.09815
-0.02938,0.99248,-0.1188,-0.30259,-0.0163,0.22002
-0.00731,0.99,-0.14089,-0.21789,0.10584,0.29783
0.01563,0.98775,-0.15528,-0.22318,0.09979,0.15719
0.04013,0.98512,-0.16711,-0.45909,0.45739,0.33908
0.05926,0.98207,-0.17898,-0.63567,0.65201,0.24924
0.06644,0.9804,-0.18547,-0.72254,0.56557,0.32916
0.06583,0.98005,-0.1875,-0.58832,0.41394,0.28041
0.05825,0.98154,-0.18219,-0.37197,0.17117,-0.10149
0.0392,0.98491,-0.16857,-0.17121,-0.0558,0.00587
0.01311,0.9905,-0.13689,0.1862,0.1392,-0.13498
-0.02063,0.99489,-0.09884,0.20413,0.94319,-0.17418
-0.05788,0.99657,-0.05912,0.30719,1.19473,-0.23467
-0.10087,0.99487,-0.00722,0.58079,1.22669,0.11613
-0.14266,0.98868,0.04644,0.51523,0.84706,-0.02598
-0.17266,0.98119,0.0863,0.26787,0.333,0.27439
-0.19781,0.97315,0.11767,0.0014,-0.0203,0.00998
-0.22574,0.96243,0.15088,-0.18346,-0.2684,-0.05063
-0.24763,0.95128,0.18367,-0.17175,-0.74027,-0.07495
-0.25542,0.94407,0.20854,0.07846,-1.01454,-0.27247
-0.24906,0.94129,0.22792,0.15566,-1.13835,-0.31202
-0.23344,0.94096,0.24516,0.22549,-1.13516,-0.3836
-0.21163,0.94182,0.26112,0.25331,-1.03789,-0.40402
-0.18927,0.94373,0.27121,0.40687,-0.64054,-0.00553
-0.17414,0.94539,0.27551,0.30056,-0.50698,0.07456
-0.17037,0.94464,0.28041,0.18006,-0.36534,0.25049
-0.17693,0.9412,0.28781,0.22868,0.38125,0.50372
-0.17234,0.93914,0.29719,-0.14199,0.77128,0.3731
-0.15777,0.93609,0.31441,-0.35874,0.8401,0.30306
-0.15301,0.93306,0.32555,0.16517,0.03883,0.79304
-0.1524,0.93325,0.32528,0.23745,0.00368,0.57784
-0.15414,0.93194,0.32821,0.48109,0.49485,0.18932
-0.15672,0.92389,0.34909,0.15276,0.95464,-0.28273
-0.16147,0.91843,0.36112,0.18261,0.8654,-0.36869
-0.16308,0.91759,0.36253,0.17126,-0.21694,-0.25814
-0.16587,0.92226,0.34917,0.10337,0.01448,-0.18372
-0.17174,0.93016,0.32451,0.00919,0.06008,-0.38465
-0.17803,0.94388,0.2782,-0.02572,0.01492,-0.32848
-0.18127,0.95806,0.22195,0.03924,-0.09685,-0.22169
-0.178,0.97005,0.16525,0.05016,-0.31088,-0.17185
-0.17408,0.97822,0.11303,0.2047,-0.5504,-0.0563
-0.16922,0.98341,0.06532,0.23845,-0.63742,-0.11666
-0.16072,0.98671,0.02395,0.30029,-0.7419,-0.18882
-0.14775,0.98892,-0.01459,0.22206,-0.41773,-0.07551
-0.13428,0.98956,-0.05233,0.09758,-0.26887,-0.00341
-0.11965,0.98885,-0.08869,0.00664,-0.12395,0.1099
-0.0995,0.98718,-0.12478,-0.1086,-0.155,0.16821
-0.07138,0.98507,-0.15666,-0.24806,-0.06959,0.15564
-0.03995,0.98276,-0.18052,-0.28452,0.06648,0.29082
-0.00978,0.97987,-0.19937,-0.27495,0.06549,0.35182
0.02041,0.97653,-0.21439,-0.49917,0.37065,0.57625
0.04203,0.97217,-0.23048,-0.68598,0.50531,0.78627
0.04971,0.96997,-0.23809,-0.99753,0.78656,0.33356
0.04496,0.96993,-0.23921,-0.64881,0.70344,0.36406
0.03462,0.9728,-0.22903,-0.28052,0.59966,-0.1327
0.01225,0.97796,-0.20842,0.20837,0.32422,0.02524
-0.01522,0.98535,-0.16988,0.43038,0.28582,-0.07359
-0.04281,0.99116,-0.12559,0.38418,0.23934,-0.27758
-0.07087,0.9948,-0.07311,0.3828,0.8524,-0.20842
-0.10156,0.99479,-0.00829,0.38713,0.74884,-0.19696
-0.12835,0.99011,0.05659,0.39838,0.75603,-0.03764
-0.14955,0.98241,0.1118,0.17613,0.33148,0.09606
-0.16917,0.97321,0.15572,0.03488,-0.16905,-0.06004
-0.1934,0.96211,0.19222,0.02818,-0.31915,-0.07019
-0.21535,0.95069,0.22317,0.05149,-0.48249,-0.10021
-0.227,0.94205,0.24699,0.11684,-0.91209,-0.23379
-0.22817,0.93703,0.2644,0.0454,-0.92727,-0.21066
-0.22694,0.93381,0.27657,0.03955,-0.99985,-0.24084
-0.22377,0.93233,0.28406,0.24159,-1.05763,-0.13986
-0.2175,0.93148,0.2916,0.19198,-0.90295,0.02851
-0.21363,0.93034,0.29803,0.13229,-0.74017,0.15477
-0.21602,0.92885,0.30095,-0.09829,-0.17996,0.28237
-0.21531,0.9295,0.29946,0.03979,0.58772,0.48468
-0.19713,0.93052,0.30865,-0.20227,0.84754,0.25586
-0.18601,0.92611,0.32821,-0.00997,0.52943,0.68558
-0.18622,0.92545,0.32995,-0.07466,0.04622,1.03484
-0.1892,0.92545,0.32825,-0.07417,0.76191,0.09518
-0.19253,0.91612,0.35166,-0.12976,0.62409,-0.5766
-0.20377,0.90935,0.36271,0.01207,0.62344,-0.80093
-0.2187,0.90907,0.35463,0.46505,-0.29393,0.10709
-0.22131,0.91,0.35061,0.25056,0.19427,-0.14921
-0.22074,0.91666,0.33318,0.02357,0.21286,-0.49326
-0.21523,0.93343,0.28703,-0.02672,0.26463,-0.23069
-0.20185,0.95135,0.2328,-0.03541,-0.08698,-0.20399
-0.18513,0.96658,0.17736,0.00274,-0.25181,-0.14439
-0.17095,0.97748,0.12373,0.14403,-0.5277,-0.00084
-0.16085,0.98418,0.07429,0.16508,-0.65683,-0.03064
-0.1507,0.98813,0.02967,0.33832,-0.86803,-0.17379
-0.13584,0.99064,-0.01373,0.21145,-0.60746,-0.04679
-0.1193,0.99125,-0.05646,0.16245,-0.50173,0.00629
-0.10086,0.99023,-0.09631,0.07779,-0.15983,0.10982
-0.08024,0.98762,-0.13479,0.06103,-0.13856,0.0752
-0.05668,0.98412,-0.16821,-0.09782,0.04083,0.28751
-0.02889,0.98124,-0.19062,-0.2828,0.20881,0.31618
-0.00041,0.97876,-0.20499,-0.4014,0.23898,0.24389
0.02738,0.97546,-0.21847,-0.46439,0.35001,0.55779
0.04947,0.97166,-0.23115,-0.56281,0.56578,0.47661
0.05791,0.96961,-0.23769,-0.77475,0.74577,0.32155
0.054,0.9694,-0.23948,-0.69555,0.78611,0.15615
0.03691,0.97182,-0.23282,-0.26929,0.49715,0.13452
0.00949,0.97725,-0.21189,-0.15821,0.26366,-0.05206
-0.02188,0.98447,-0.17415,0.10006,0.39167,-0.06805
-0.05535,0.99029,-0.12751,0.11819,0.67635,-0.21491
-0.08813,0.9934,-0.07335,0.29168,0.92257,-0.23196
-0.11997,0.9927,-0.0125,0.58742,0.88296,0.02
-0.14542,0.98805,0.05114,0.58468,0.76768,0.05859
-0.16316,0.981,0.10493,0.26219,0.15421,0.00031
-0.17717,0.97266,0.15015,0.10771,-0.19708,-0.03817
-0.19562,0.96249,0.18798,-0.06939,-0.54091,-0.13901
-0.21216,0.95224,0.21959,-0.03595,-1.08551,-0.19493
-0.21404,0.94565,0.24483,0.15276,-1.09544,-0.35272
-0.20461,0.94154,0.26764,0.1539,-1.10876,-0.28977
-0.19276,0.93812,0.28769,0.14155,-1.04187,-0.28887
-0.1827,0.93543,0.30263,0.18873,-1.01714,-0.17084
-0.17568,0.93596,0.30515,0.17522,-0.94142,-0.18076
-0.17084,0.94023,0.29458,0.12244,-0.66932,0.08478
-0.16628,0.94556,0.27976,0.0102,-0.22385,0.63671
-0.16426,0.94757,0.27408,-0.39928,0.28929,0.64688
-0.16509,0.94244,0.29079,-0.21883,1.28368,0.39497
-0.15332,0.93466,0.32078,0.10976,1.03107,0.63726
-0.13634,0.93418,0.32972,-0.27154,-0.29409,1.10563
-0.13566,0.94032,0.31209,0.37753,0.47289,0.10698
-0.1329,0.93204,0.3371,0.08137,0.87533,0.01727
-0.13128,0.9232,0.36119,0.13567,0.80315,-0.61409
-0.13212,0.92487,0.35659,0.33396,0.24793,0.13366
-0.12954,0.92424,0.35916,0.15509,-0.09178,-0.04436
-0.13964,0.92512,0.35307,-0.08493,0.05141,0.06957
-0.15308,0.93439,0.32168,-0.19549,0.12138,-0.37433
-0.15625,0.94881,0.27449,-0.18296,0.04748,-0.25218
-0.15085,0.96345,0.22137,-0.06879,-0.33885,-0.22044
-0.14465,0.97539,0.16639,0.12297,-0.48667,-0.03995
-0.14298,0.98331,0.11249,0.23867,-0.54666,0.07752
-0.14139,0.98805,0.06134,0.35804,-0.66844,-0.1002
-0.13487,0.99075,0.01481,0.36738,-0.59587,-0.21066
-0.12241,0.99204,-0.02966,0.29967,-0.33963,-0.08938
-0.10739,0.99173,-0.07023,0.21084,-0.30133,-0.07955
-0.08815,0.98998,-0.11034,0.14047,-0.30666,-0.05477
-0.06047,0.98703,-0.1487,-0.05577,-0.29756,0.05219
-0.02486,0.98261,-0.18402,-0.26527,0.0914,0.34579
0.01161,0.97819,-0.20738,-0.28065,0.49837,0.18627
0.04586,0.9751,-0.21695,-0.41917,0.25858,0.55986
0.07516,0.97157,-0.22449,-0.74444,0.47635,0.66767
0.09012,0.96909,-0.22966,-1.06252,0.65266,0.23983
0.09396,0.9684,-0.231,-0.9326,0.66496,0.33945
0.08976,0.96945,-0.22826,-0.61143,0.74022,0.03621
0.07081,0.97379,-0.21615,-0.19688,0.60362,-0.00982
0.04114,0.98135,-0.18776,0.22412,0.25185,-0.2583
0.00668,0.98851,-0.15099,-0.11207,0.4254,-0.48289
-0.0285,0.99423,-0.10339,-0.23558,0.75873,-0.32238
-0.06653,0.99689,-0.04232,0.38975,0.99497,-0.00721
-0.09669,0.99506,0.02225,0.55418,0.86681,-0.09694
-0.12016,0.98975,0.07718,0.45527,0.21803,0.14667
-0.1378,0.98302,0.12119,0.13952,-0.19725,0.04153
-0.15757,0.97447,0.15993,-0.00469,-0.38846,-0.1044
-0.17744,0.96479,0.19417,-0.17523,-0.66982,-0.12314
-0.19128,0.95624,0.22138,-0.11536,-0.96027,-0.24059
-0.19439,0.95046,0.24255,-0.03466,-0.96572,-0.25247
-0.19133,0.94657,0.2596,0.13168,-1.03265,-0.29086
-0.18512,0.94351,0.27481,0.35829,-1.02836,-0.25233
-0.1737,0.9418,0.28781,0.3168,-0.95555,-0.14682
-0.16367,0.94216,0.29246,0.16351,-0.74154,0.04367
-0.15956,0.94488,0.28589,0.19108,-0.22365,0.28334
-0.15495,0.94907,0.27432,0.1541,0.135,0.57544
-0.14066,0.95162,0.2732,0.00693,0.54741,0.68375
-0.1267,0.94687,0.29561,-0.24542,0.46246,0.67555
-0.11995,0.93825,0.32449,-0.14758,-0.10791,0.66902
-0.11847,0.93995,0.32009,-0.1613,-0.13837,0.46689
-0.1263,0.93324,0.33631,-0.00028,1.20534,-0.03742
-0.13922,0.91725,0.37319,-0.31649,1.16782,-0.86457
-0.15691,0.91461,0.37265,0.77404,-0.4853,0.02218
-0.15042,0.91556,0.37298,0.51438,-0.32767,-0.00471
-0.15356,0.91522,0.37254,0.04034,0.27166,-0.14946
-0.16238,0.92542,0.34237,-0.0564,0.31933,-0.22673
-0.15404,0.9428,0.29561,-0.00798,0.20998,-0.23316
-0.14224,0.95965,0.24257,-0.06749,0.07896,-0.21762
-0.13541,0.9729,0.18741,0.14174,-0.44299,-0.0419
-0.1351,0.98192,0.1326,0.22,-0.60613,0.00632
-0.13513,0.98748,0.08131,0.30425,-0.75261,-0.15128
-0.12703,0.99126,0.03547,0.17795,-0.60856,-0.15999
-0.11147,0.99374,-0.00701,0.06645,-0.44559,-0.02777
-0.09443,0.99442,-0.04707,0.04894,-0.47071,0.01933
-0.07461,0.99361,-0.08463,0.02763,-0.56536,0.00959
-0.04894,0.99097,-0.12483,-0.07884,-0.45761,0.02896
-0.01561,0.98638,-0.16376,-0.2193,0.02916,0.25629
0.0189,0.98126,-0.19175,-0.2114,0.48338,0.31589
0.05047,0.97727,-0.20589,-0.37542,0.25656,0.44076
0.07724,0.97327,-0.21627,-0.72126,0.29458,0.72109
0.09046,0.97025,-0.22455,-0.76522,0.67257,0.27622
0.09252,0.9694,-0.22739,-0.81255,0.78147,0.33363
0.08867,0.9697,-0.22765,-0.67139,0.91206,-0.01112
0.07153,0.97248,-0.22173,-0.18713,0.57104,-0.08809
0.04562,0.97808,-0.20316,0.25749,0.35769,-0.13844
0.01227,0.98485,-0.17298,0.32297,0.2937,0.0215
-0.01802,0.99064,-0.13529,0.11597,0.52314,0.02223
-0.04711,0.99521,-0.08568,0.16958,0.81346,-0.14949
-0.07681,0.99668,-0.02709,0.32817,0.8721,-0.02466
-0.10608,0.99387,0.03102,0.39559,0.48663,0.05432
-0.12945,0.98831,0.0805,0.23893,0.07321,0.01529
-0.14837,0.98134,0.12228,0.10441,-0.20513,-0.03458
-0.16876,0.97287,0.15823,0.02314,-0.38107,-0.12361
-0.18714,0.96369,0.19047,0.05747,-0.82917,-0.1491
-0.19792,0.95575,0.21764,0.11676,-0.97165,-0.19995
-0.19664,0.95078,0.23946,0.14021,-1.07914,-0.28021
-0.18687,0.94833,0.25642,0.11196,-1.12385,-0.19538
-0.17585,0.94795,0.26546,0.11483,-1.0068,-0.31528
-0.16744,0.94928,0.26613,0.0925,-0.92203,-0.28438
-0.16294,0.95145,0.26114,-0.14042,-0.29608,0.3359
-0.16683,0.95265,0.25422,-0.12188,-0.12213,0.35225
-0.16901,0.95253,0.25322,0.05465,0.1955,0.43281
-0.15854,0.94681,0.28004,0.31775,0.70242,0.52827
-0.14775,0.94281,0.2988,0.12474,0.31664,0.61096
-0.14158,0.94469,0.29583,-0.04564,0.02797,0.54189
-0.13649,0.94239,0.30539,-0.01707,0.90968,0.28474
-0.1369,0.93885,0.31594,0.08392,0.91224,-0.11417
-0.14448,0.93594,0.32116,0.06206,0.34018,-0.34394
-0.15799,0.93559,0.31575,0.15356,-0.16123,-0.11611
-0.16042,0.93856,0.30556,-0.04448,-0.07354,-0.02726
-0.16242,0.94635,0.27935,-0.09802,0.0188,-0.42372
-0.16081,0.95905,0.23316,0.00033,-0.09012,-0.36371
-0.14645,0.97255,0.18082,0.1027,-0.3972,-0.09946
-0.12746,0.98286,0.1332,0.15096,-0.46217,-0.02661
-0.11278,0.98966,0.08861,0.17796,-0.49073,0.00472
-0.10285,0.99369,0.04464,0.25623,-0.6737,-0.08583
-0.09437,0.99553,0.00183,0.24336,-0.65487,-0.07231
-0.08263,0.99581,-0.0391,0.11818,-0.51051,0.05007
-0.06951,0.99447,-0.07868,0.02598,-0.35762,0.05108
-0.05321,0.99174,-0.11667,-0.0852,-0.12625,0.01341
-0.03206,0.98751,-0.15423,-0.14425,-0.18544,0.12615
-0.00682,0.98169,-0.19036,-0.18193,0.00893,0.33863
0.02094,0.97604,-0.2166,-0.22486,0.39242,0.32672
0.04933,0.97147,-0.23198,-0.37227,0.29828,0.41007
0.07366,0.96653,-0.24574,-0.67686,0.57619,0.57424
0.08515,0.96364,-0.25329,-0.76509,0.73531,0.29997
0.08682,0.96315,-0.25457,-0.65979,0.64859,0.36358
0.07999,0.96529,-0.24864,-0.4325,0.61384,0.00027
0.0607,0.97061,-0.23286,-0.01761,0.30238,-0.01481
0.03361,0.97895,-0.20131,0.2488,0.22331,-0.16145
0.00293,0.98617,-0.16573,0.21477,0.18893,-0.21225
-0.02495,0.99225,-0.1217,0.07023,0.69577,-0.16263
-0.05359,0.99651,-0.06393,0.31331,0.98489,0.08892
-0.08394,0.99646,-0.00513,0.42925,0.89527,0.12778
-0.11092,0.99279,0.04531,0.36901,0.49971,0.20547
-0.13036,0.98769,0.08647,0.07727,-0.17659,0.03378
-0.14986,0.98126,0.12107,-0.01104,-0.28882,-0.00299
-0.17119,0.97376,0.14992,-0.11876,-0.66932,-0.10537
-0.18585,0.96736,0.17226,0.03749,-0.99769,-0.23589
-0.18791,0.96321,0.19213,0.03064,-0.97815,-0.2226
-0.18108,0.96021,0.21262,0.02054,-1.01905,-0.20407
-0.16929,0.95799,0.2315,0.23634,-0.96564,-0.09217
-0.15427,0.95621,0.24871,0.22132,-0.96386,-0.10938
-0.14161,0.95528,0.25957,0.02176,-0.61428,0.08073
-0.13814,0.95393,0.26632,-0.11549,-0.34624,0.29809
-0.14005,0.95351,0.26683,0.23418,0.1499,0.55587
-0.13245,0.95548,0.26364,-0.03034,0.74696,0.53306
-0.1189,0.95424,0.27437,0.03374,0.41879,0.65105
-0.11215,0.94964,0.29259,0.07569,0.34854,0.7042
-0.10923,0.94753,0.30041,0.20945,0.56503,0.57524
-0.10893,0.94116,0.3199,-0.03673,1.07998,-0.02101
-0.11726,0.92984,0.34877,0.07487,0.71945,-0.26502
-0.13515,0.92605,0.35236,0.36276,-0.17813,-0.16647
-0.1364,0.92465,0.35555,0.02466,0.23865,-0.14472
-0.13585,0.92691,0.34983,-0.2103,0.29054,-0.37638
-0.13508,0.93972,0.31414,-0.17843,0.05589,-0.1545
-0.12875,0.95622,0.26281,-0.05779,-0.18591,-0.27329
-0.11686,0.9712,0.20762,-0.03908,-0.32046,-0.24879
-0.11008,0.98288,0.14774,0.11893,-0.60855,-0.00399
-0.10858,0.99002,0.08977,0.18414,-0.71923,-0.27285
-0.10483,0.99377,0.03778,0.28936,-0.72354,-0.17025
-0.09714,0.99521,-0.01042,0.25215,-0.59366,-0.08996
-0.08567,0.99466,-0.05746,0.22107,-0.50544,-0.02453
-0.06902,0.99237,-0.10215,0.148,-0.30252,-0.04346
-0.04547,0.98832,-0.14543,-0.08215,-0.14355,0.1055
-0.01364,0.98276,-0.18436,-0.15621,-0.06708,0.23945
0.02455,0.97622,-0.2154,-0.30264,0.42927,0.38336
0.06286,0.96873,-0.24001,-0.428,0.29315,0.4287
0.09644,0.96158,-0.25703,-0.57254,0.13145,0.51594
0.11856,0.95524,-0.27104,-0.59921,0.48553,0.62216
0.12462,0.95214,-0.2791,-0.70402,0.6605,0.34479
0.12323,0.95188,-0.28058,-0.90288,0.62333,0.08875
0.10856,0.95467,-0.27717,-0.27778,0.4573,-0.12923
0.07436,0.96173,-0.2637,-0.17556,0.28447,-0.23944
0.02937,0.97246,-0.23119,0.19681,0.57449,-0.11634
-0.01779,0.98199,-0.18808,0.20793,0.76139,-0.35579
-0.05941,0.98873,-0.13744,0.35468,0.95779,0.02611
-0.09382,0.99284,-0.07389,0.46369,1.01051,0.08971
-0.12299,0.99235,-0.0106,0.48449,0.88463,0.11022
-0.14321,0.98887,0.04038,0.14532,0.18051,0.05801
-0.16116,0.98317,0.08603,-0.03417,-0.13325,0.01706
-0.18346,0.97499,0.12542,-0.14014,-0.43534,0.01168
-0.20251,0.96663,0.15689,-0.00639,-0.88357,-0.07573
-0.20932,0.96103,0.18058,0.15766,-0.9794,-0.15847
-0.20715,0.95768,0.19984,0.1488,-1.06087,-0.21927
-0.19853,0.95565,0.21752,0.16317,-1.10011,-0.24581
-0.18507,0.95454,0.23367,0.23683,-1.05862,-0.20731
-0.17211,0.95478,0.24243,0.18506,-0.8914,-0.06611
-0.16477,0.95607,0.24243,0.05449,-0.56569,0.22526
-0.16384,0.95646,0.24152,-0.0286,-0.43643,0.43739
-0.16448,0.95773,0.23602,0.13304,0.08288,0.33521
-0.15446,0.95909,0.23726,-0.03611,1.22425,0.36968
-0.14645,0.95463,0.2593,0.11825,0.9921,0.81526
-0.14421,0.95113,0.27305,0.22623,-0.10338,0.80828
-0.13826,0.95123,0.27575,0.18683,0.9328,-0.07498
-0.13351,0.94463,0.29976,0.01906,0.86272,-0.33467
-0.13423,0.94203,0.30752,0.01978,0.86532,-0.34243
-0.14615,0.94267,0.30002,0.17438,0.30423,-0.16154
-0.16667,0.9436,0.28606,0.32583,0.18881,0.21883
-0.17507,0.94803,0.26569,-0.11554,-0.07875,-0.04036
-0.17716,0.9577,0.22678,-0.09023,-0.32137,-0.32272
-0.16697,0.96996,0.17691,-0.08467,-0.50286,-0.33914
-0.14717,0.98129,0.12417,0.046,-0.40244,-0.13904
-0.12422,0.98914,0.07856,0.0645,-0.38593,-0.09607
-0.10555,0.99368,0.03824,0.13732,-0.60856,-0.16673
-0.09579,0.9954,-0.0004,0.37071,-0.75678,-0.14737
-0.08706,0.99537,-0.04065,0.268,-0.57679,-0.03636
-0.07312,0.99392,-0.08234,-0.00325,-0.40336,0.03101
-0.05329,0.99105,-0.12238,-0.2001,-0.3693,0.03409
-0.0303,0.9863,-0.16217,-0.38412,-0.05276,0.2792
-0.00617,0.98053,-0.19629,-0.43342,0.25879,0.42033
0.01611,0.97485,-0.22226,-0.2516,0.09346,0.42587
0.04103,0.96981,-0.24038,-0.38974,0.2685,0.32075
0.07003,0.96459,-0.25429,-0.5421,0.50679,0.57685
0.08859,0.96104,-0.26182,-0.70685,0.49217,0.2871
0.09325,0.95975,-0.26493,-0.68509,0.46281,0.44066
0.08885,0.96052,-0.26362,-0.54155,0.54587,0.10096
0.07259,0.96429,-0.25472,-0.0283,0.31799,0.08411
0.04411,0.97173,-0.23192,-0.02656,0.10369,-0.03148
0.00986,0.98069,-0.19533,0.16693,0.7035,-0.08321
-0.02938,0.98774,-0.15333,0.19668,0.96046,-0.03889
-0.07124,0.99206,-0.10362,0.32277,1.04371,-0.14466
-0.11353,0.99242,-0.04702,0.4564,0.91314,0.11297
-0.14735,0.98905,0.00837,0.29397,0.56762,0.12614
-0.17007,0.98385,0.05586,-0.02169,0.17758,0.16225
-0.1879,0.97715,0.09933,-0.0985,-0.07479,0.04003
-0.20854,0.96795,0.13992,-0.04291,-0.33802,-0.02235
-0.22582,0.95794,0.17708,0.08793,-0.80099,-0.05359
-0.23076,0.95078,0.2068,0.23915,-1.10675,-0.16668
-0.22389,0.94701,0.23031,0.19795,-1.07151,-0.21454
-0.2123,0.94545,0.24709,0.11825,-1.03737,-0.20993
-0.20069,0.94538,0.25686,0.1246,-0.90644,-0.23207
-0.19037,0.9467,0.25983,0.11455,-0.79646,-0.15959
-0.18232,0.94904,0.25706,0.06828,-0.69895,0.01671
-0.18015,0.95141,0.24973,0.03218,-0.21329,0.30039
-0.17713,0.95607,0.23354,0.12084,0.29185,0.42327
-0.16168,0.95837,0.23532,-0.00286,0.71957,0.49933
-0.15456,0.95505,0.25295,0.17229,0.20443,0.7208
-0.15438,0.95295,0.26085,0.30218,0.30633,0.70866
-0.15024,0.94977,0.27453,0.06658,1.18457,0.14464
-0.14559,0.94229,0.30149,0.08944,0.59563,-0.3335
-0.14456,0.9339,0.32699,0.15202,0.31573,-0.24099
-0.14361,0.92866,0.34199,-0.01777,0.08297,-0.02292
-0.15152,0.92642,0.34464,-0.20891,0.25288,-0.43874
-0.16268,0.93594,0.31231,-0.12943,0.452,-0.2472
-0.15976,0.94991,0.2686,-0.04112,0.03093,-0.15837
-0.15008,0.96409,0.21909,0.12086,-0.13108,-0.0988
-0.14097,0.9762,0.16481,0.2781,-0.41667,-0.05197
-0.1367,0.98478,0.10737,0.32766,-0.60444,-0.06698
-0.13141,0.99007,0.04994,0.31518,-0.69513,-0.21301
-0.11994,0.99277,-0.00343,0.27248,-0.72057,-0.19439
-0.10405,0.99311,-0.05379,0.08572,-0.53146,-0.11947
-0.08582,0.99126,-0.10021,0.0619,-0.39166,-0.14121
-0.06365,0.98764,-0.14323,0.04802,-0.34997,-0.09807
-0.03497,0.98223,-0.1844,-0.02063,-0.25188,0.28357
0.00065,0.97646,-0.2157,-0.1997,0.09479,0.36684
0.03899,0.97192,-0.23205,-0.34488,0.38895,0.32061
0.07573,0.96798,-0.23931,-0.56061,0.08339,0.43283
0.10747,0.96309,-0.24679,-0.64502,0.21556,0.68455
0.12812,0.95962,-0.25042,-0.99171,0.43399,0.36878
0.13344,0.95919,-0.24929,-1.04426,0.61793,0.51668
0.12995,0.96041,-0.2464,-0.8852,0.46207,0.18091
0.11482,0.96369,-0.24107,-0.72765,0.56692,-0.03449
0.08442,0.97114,-0.22305,0.13099,0.27463,-0.0081
0.05142,0.97974,-0.19354,0.09441,0.27099,-0.29587
0.01612,0.98722,-0.15853,0.03906,0.42577,-0.55462
-0.02823,0.99226,-0.12088,0.18425,1.23715,0.13254
-0.07631,0.99457,-0.07073,0.58391,1.11989,-0.09652
-0.1163,0.99288,-0.02564,0.68441,0.96787,-0.00334
-0.14278,0.9897,0.01074,0.129,0.23917,0.22442
-0.16433,0.98542,0.04412,-0.19273,-0.0809,0.08432
-0.18679,0.9793,0.07798,-0.20617,-0.17878,-0.01888
-0.20438,0.97218,0.11444,-0.12747,-0.48965,-0.16861
-0.21595,0.96468,0.15082,0.04589,-0.90827,-0.27415
-0.21816,0.95858,0.18309,0.18687,-1.40217,-0.22093
-0.21004,0.956,0.20481,0.35414,-1.3093,-0.30164
-0.19607,0.95657,0.2157,0.30229,-1.09155,-0.28252
-0.18109,0.95972,0.21481,0.20531,-0.86714,-0.16811
-0.16852,0.96449,0.20335,0.17571,-0.62134,0.04645
-0.15963,0.96843,0.19144,-0.05863,-0.282,0.51676
-0.15713,0.96835,0.19394,-0.38839,0.2243,0.77681
-0.15935,0.964,0.21286,0.169,1.06213,0.56327
-0.15201,0.95604,0.25073,0.32661,0.57219,0.2798
-0.14395,0.95331,0.26545,0.16523,-0.17457,0.74296
-0.14406,0.9542,0.26221,0.44299,0.81239,0.10237
-0.13932,0.94479,0.29658,0.05427,0.78452,0.17305
-0.1386,0.93116,0.33723,0.04435,0.69952,-0.3913
-0.14234,0.92241,0.35902,0.29225,0.43746,-0.0146
-0.14651,0.9155,0.3747,-0.18372,0.42041,-0.58028
-0.16136,0.92005,0.35703,-0.19005,0.56873,-0.43691
-0.16852,0.93201,0.32086,0.05885,0.08886,-0.15607
-0.17595,0.9451,0.27536,0.26427,-0.0301,-0.04507
-0.1765,0.95827,0.22486,0.28365,-0.11438,-0.09336
-0.17407,0.97052,0.16667,0.0848,-0.20839,-0.07213
-0.17613,0.97896,0.10299,0.2109,-0.40441,-0.19215
-0.17585,0.98341,0.04448,0.27125,-0.53118,-0.25028
-0.16798,0.98575,-0.00862,0.32869,-0.62355,-0.18958
-0.15265,0.98647,-0.05973,0.22072,-0.43433,-0.196
-0.13222,0.98526,-0.10849,0.17694,-0.36861,-0.0919
-0.10441,0.98211,-0.15669,0.02296,-0.42542,0.13641
-0.06679,0.97757,-0.19974,-0.1499,-0.33589,0.12838
-0.02352,0.97298,-0.22966,-0.32221,0.0601,0.22749
0.01734,0.96775,-0.25132,-0.50033,0.24545,0.3693
0.05324,0.96294,-0.26441,-0.69642,0.24551,0.37231
0.08175,0.95824,-0.27402,-0.78636,0.19096,0.48665
0.09968,0.95462,-0.28065,-0.70431,0.54755,0.48358
0.1067,0.95286,-0.28401,-0.77891,0.60193,0.37738
0.1062,0.95318,-0.28313,-0.67639,0.5821,0.38262
0.09064,0.95693,-0.27581,-0.19378,0.40902,0.04955
0.06166,0.9638,-0.25939,0.12272,0.28109,-0.14545
0.02203,0.97248,-0.23193,0.37091,0.25005,-0.24021
-0.01619,0.98057,-0.19546,0.39248,0.23021,0.10406
-0.04463,0.98818,-0.14667,0.24053,0.94994,0.02284
-0.07725,0.99287,-0.09073,0.41882,1.35896,0.1512
-0.11753,0.99251,-0.03314,0.49721,0.90302,0.28361
-0.15072,0.98847,0.01442,0.19904,0.41084,0.24076
-0.17459,0.98313,0.05443,-0.03461,0.01964,0.11815
-0.19691,0.97614,0.09152,-0.10189,-0.28821,-0.02058
-0.21709,0.96763,0.1287,-0.10524,-0.65627,-0.05439
-0.22607,0.96049,0.16232,0.0043,-1.00883,-0.0239
-0.22107,0.95675,0.18905,0.11414,-0.99156,-0.05114
-0.20784,0.95557,0.20897,0.17273,-1.0079,-0.03243
-0.1925,0.9563,0.22007,0.10901,-1.02449,-0.08087
-0.17755,0.9595,0.21868,0.09609,-0.94533,-0.08819
-0.16471,0.96459,0.20598,-0.07487,-0.75928,0.0683
-0.15493,0.96923,0.19128,-0.22785,-0.72341,0.25482
-0.15222,0.97088,0.18497,-0.53539,-0.06231,0.47272
-0.1577,0.96865,0.19191,0.35511,1.2934,0.68918
-0.16185,0.96101,0.22417,0.36881,1.20862,0.76746
-0.15443,0.9563,0.24827,0.25138,-0.36086,0.88603
-0.14716,0.96043,0.23644,0.57811,0.45345,0.29107
-0.13964,0.95749,0.2524,0.37804,0.825,0.06103
-0.1359,0.95017,0.28052,0.51682,0.6128,-0.50637
-0.134,0.94984,0.28254,-0.09787,0.50693,0.05463
-0.13209,0.94767,0.29064,-0.42493,0.15921,-0.13883
-0.15303,0.94939,0.27427,0.10905,0.02111,-0.21107
-0.16759,0.95545,0.24296,-0.25389,0.34557,-0.27422
-0.167,0.96538,0.20035,-0.27817,0.36093,-0.22664
-0.15891,0.97541,0.15266,0.0769,-0.30308,-0.16318
-0.15364,0.98313,0.09922,0.25473,-0.58277,-0.07208
-0.15088,0.98762,0.04276,0.36722,-0.63669,0.01879
-0.1437,0.98955,-0.01149,0.48488,-0.71912,-0.05021
-0.13017,0.98967,-0.06006,0.38766,-0.48758,-0.17462
-0.11303,0.98805,-0.10481,0.32531,-0.28582,-0.0694
-0.09352,0.9849,-0.14564,0.05328,-0.1211,0.06874
-0.06876,0.98097,-0.18156,-0.07487,-0.30066,0.02044
-0.03716,0.9765,-0.21228,-0.25172,-0.34556,0.06719
9e-05,0.97067,-0.24039,-0.32285,-0.05805,0.3424
0.03829,0.96378,-0.26393,-0.40354,0.20824,0.47885
0.07516,0.95773,-0.27765,-0.49239,0.23759,0.58757
0.10597,0.95271,-0.2848,-0.67969,0.31678,0.5687
0.12293,0.94945,-0.28884,-0.86057,0.53386,0.24043
0.13066,0.94972,-0.28451,-0.8683,0.53358,0.23609
0.12495,0.95255,-0.27753,-0.68164,0.48589,0.09511
0.10051,0.95984,-0.26191,-0.04289,0.31895,-0.10283
0.0625,0.97052,-0.23276,0.13885,0.25094,-0.19469
0.01733,0.98046,-0.19593,0.19153,0.95638,-0.07406
-0.02562,0.98879,-0.14705,0.39371,1.204,0.15001
-0.06438,0.99386,-0.08996,0.46959,1.25024,-0.03754
-0.09841,0.99454,-0.03449,0.51815,0.78352,0.25914
-0.12324,0.99229,0.01299,0.10429,0.25585,0.06387
-0.14221,0.98815,0.05774,-0.04425,0.011,0.03198
-0.16297,0.98167,0.09874,-0.25023,-0.47618,-0.03327
-0.17982,0.97482,0.13184,-0.16379,-0.946,-0.02608
-0.18438,0.97052,0.15518,0.0516,-0.93924,-0.11548
-0.17974,0.96832,0.17332,0.09627,-1.00685,-0.07514
-0.1686,0.96777,0.18703,0.12034,-1.0094,-0.13206
-0.15223,0.96864,0.19637,0.13428,-1.03314,-0.17303
-0.13531,0.97075,0.19831,0.07499,-0.9952,-0.06812
-0.12423,0.97318,0.1936,-0.00637,-0.72341,0.17764
-0.122,0.97435,0.18906,0.04558,-0.59876,0.54197
-0.12122,0.97542,0.18399,0.02842,-0.14006,0.30185
-0.11241,0.97598,0.18663,-0.10662,0.93955,0.15566
-0.10527,0.97275,0.20656,-0.039,1.35284,0.99889
-0.10833,0.96855,0.224,0.48186,0.22584,0.54214
-0.10659,0.96553,0.23744,0.17049,1.11023,0.08043
-0.10335,0.95718,0.27042,0.09361,1.21748,0.14209
-0.10952,0.94749,0.30044,0.04949,-0.15272,-0.38721
-0.1195,0.94326,0.30979,0.43405,0.0227,0.05214
-0.11767,0.94047,0.31884,-0.15693,0.44284,-0.45965
-0.11621,0.947,0.29946,-0.26533,0.45936,-0.27205
-0.10764,0.96047,0.25672,-0.15095,0.0167,-0.15038
-0.1015,0.97376,0.20368,-0.03121,-0.10065,-0.00319
-0.09907,0.98414,0.1471,0.1036,-0.41986,-0.03346
-0.09972,0.99092,0.09016,0.10556,-0.49875,0.05253
-0.09901,0.99441,0.03661,0.14967,-0.6932,-0.2054
-0.09291,0.9956,-0.01181,0.20627,-0.75311,-0.13995
-0.07941,0.99512,-0.05848,0.19797,-0.54267,-0.0998
-0.06088,0.9929,-0.10214,0.08489,-0.44645,-0.09308
-0.03906,0.98901,-0.14257,-0.063,-0.3256,-0.08964
-0.01277,0.98326,-0.18171,-0.11287,-0.32814,0.11346
0.01846,0.97604,-0.2168,-0.24117,-0.09603,0.32593
0.05388,0.96889,-0.24156,-0.35989,0.23752,0.51843
0.08793,0.96283,-0.2554,-0.44335,0.01328,0.34735
0.11832,0.95703,-0.26474,-0.56174,0.06798,0.64067
0.14175,0.95046,-0.27662,-0.60518,0.44668,0.51831
0.15301,0.94697,-0.28253,-1.00399,0.72942,0.25459
0.1521,0.9462,-0.28562,-0.83749,0.80945,0.0654
0.13493,0.94847,-0.2867,-0.54716,0.95442,0.11521
0.10184,0.95598,-0.27519,-0.03599,0.58646,0.04486
0.05608,0.96757,-0.24629,0.00978,0.57486,0.01596
0.00623,0.97978,-0.19995,0.4447,0.59654,-0.0876
-0.03428,0.98831,-0.14855,0.56249,0.99265,-0.08967
-0.06612,0.99375,-0.08994,0.59136,1.10518,-0.07948
-0.09391,0.99526,-0.02501,0.41953,0.76075,0.10808
-0.11474,0.9929,0.03134,0.12692,0.27094,0.06892
-0.12997,0.9882,0.08093,0.01033,0.07707,0.02355
-0.15223,0.98042,0.12487,-0.22045,-0.30383,-0.03591
-0.17891,0.97046,0.16184,-0.16785,-0.83478,0.02745
-0.19409,0.9627,0.18849,0.08853,-1.07186,-0.07962
-0.19613,0.9585,0.20688,0.15166,-1.17994,-0.10477
-0.18957,0.95696,0.21971,0.09182,-1.13319,-0.23227
-0.17504,0.95773,0.22827,0.1126,-1.13118,-0.21988
-0.15615,0.96107,0.22793,0.03599,-1.0527,-0.13894
-0.13875,0.96592,0.21851,-0.08549,-0.71698,0.07875
-0.12743,0.96944,0.20962,-0.31083,-0.41876,0.66218
-0.12498,0.97041,0.20656,-0.43735,0.02887,0.3795
-0.1183,0.96774,0.22244,0.29787,1.22921,0.47151
-0.10319,0.96166,0.25406,0.37405,1.48975,0.75482
-0.09624,0.95818,0.26949,0.19847,0.38909,0.88229
-0.09635,0.9599,0.26325,0.70678,-0.18532,0.28445
-0.08854,0.95411,0.28605,0.28642,1.08779,0.30509
-0.0808,0.94608,0.31368,0.07618,0.9505,-0.21599
-0.07641,0.94001,0.33245,0.09855,0.32576,-0.18422
-0.07987,0.936,0.34281,-0.04906,0.15386,-0.44738
-0.08966,0.93828,0.33405,-0.02918,0.15953,-0.51384
-0.09083,0.94884,0.30239,-0.08535,0.16381,-0.19115
-0.08677,0.96174,0.25986,-0.04804,0.09722,-0.13027
-0.08181,0.97425,0.21011,0.10135,-0.14151,-0.14276
-0.08133,0.98449,0.15546,0.15163,-0.37874,-0.02785
-0.08464,0.99125,0.10126,0.20645,-0.57321,-0.0852
-0.08526,0.99509,0.05027,0.21923,-0.6689,-0.24285
-0.07808,0.99692,0.00668,0.18677,-0.66717,-0.22165
-0.06234,0.99758,-0.03059,0.08413,-0.42874,-0.13144
-0.04241,0.99699,-0.06493,-0.08518,-0.20399,0.11567
-0.01955,0.99511,-0.09675,-0.17746,-0.25946,0.21902
0.00922,0.99183,-0.12722,-0.26762,-0.29638,0.28182
0.04474,0.98638,-0.15827,-0.45149,-0.34302,0.23376
0.08328,0.97879,-0.18717,-0.33772,-0.02957,0.10105
0.11434,0.97186,-0.20594,-0.25194,0.07787,0.12766
0.13874,0.96725,-0.21256,-0.72422,0.35197,0.44144
0.15471,0.96292,-0.22101,-0.84549,0.58002,0.55901
0.16432,0.96044,-0.22483,-0.82125,0.58366,0.52902
0.17446,0.95856,-0.2252,-0.81538,0.78538,0.2207
0.17491,0.95916,-0.22231,-0.54814,0.77989,0.05832
0.15772,0.96482,-0.21036,-0.45145,0.29583,-0.19453
0.12656,0.97348,-0.19057,-0.17171,-0.04076,0.05098
0.08584,0.98395,-0.15646,0.16797,0.09664,-0.27532
0.04364,0.99234,-0.11554,0.33856,0.23871,-0.27139
0.00688,0.99797,-0.0633,0.48091,1.34442,0.18696
-0.02737,0.99961,-0.00459,0.54652,1.06309,0.14317
-0.05469,0.99741,0.04666,0.51179,0.6847,0.12874
-0.07199,0.99372,0.08567,-0.16737,-0.08468,0.06859
-0.0889,0.98838,0.12333,-0.2623,-0.26859,-0.01237
-0.10938,0.98143,0.15758,-0.22397,-0.44621,-0.07984
-0.12579,0.9746,0.18529,-0.15598,-0.84548,-0.07658
-0.12992,0.97052,0.20302,-0.09629,-0.94442,-0.12488
-0.12295,0.96895,0.21452,0.07414,-1.00162,-0.14492
-0.10875,0.96873,0.22299,0.10082,-0.99826,-0.25643
-0.09104,0.96884,0.23033,0.13788,-0.92807,-0.19521
-0.07833,0.96919,0.23352,0.13178,-0.8558,-0.10174
-0.07578,0.97005,0.23078,0.02102,-0.54308,0.39109
-0.07997,0.97074,0.2264,-0.07149,-0.238,0.58468
-0.07861,0.97096,0.22596,-0.03621,0.02015,0.57161
-0.07021,0.96865,0.2383,-0.1365,0.81689,0.59147
-0.06488,0.96431,0.25669,0.1977,0.08339,0.68235
-0.06212,0.96217,0.26528,0.47221,0.34508,0.5784
-0.05753,0.95685,0.28483,0.03938,1.1945,0.3709
-0.05702,0.95058,0.30518,-0.15494,0.38059,0.03519
-0.06307,0.94413,0.32347,-0.14414,0.00139,-0.20842
-0.0739,0.94311,0.32417,0.27614,-0.09502,-0.31863
-0.07324,0.94302,0.32456,-0.06154,0.35242,-0.31585
-0.07221,0.95006,0.30359,-0.30244,0.49096,-0.52351
-0.07245,0.96307,0.25931,-0.13856,0.03608,-0.08022
-0.0712,0.97525,0.20929,-0.06535,-0.36873,-0.11605
-0.06467,0.98514,0.15907,-0.00084,-0.55666,-0.05348
-0.05643,0.99239,0.10941,0.07215,-0.51664,-0.04081
-0.04635,0.99708,0.06066,0.11529,-0.54166,-0.0913
-0.0364,0.99921,0.01555,0.10197,-0.5575,-0.06118
-0.02757,0.99933,-0.02403,0.10417,-0.43297,0.02327
-0.0169,0.99814,-0.05852,0.056,-0.39453,0.1133
-0.00108,0.99607,-0.08857,0.01167,-0.34949,0.1307
0.02147,0.9932,-0.11438,-0.22646,-0.18234,0.11068
0.0499,0.98872,-0.14122,-0.37862,-0.22103,0.30493
0.08249,0.98229,-0.16823,-0.45482,-0.20578,0.32054
0.11556,0.97497,-0.18995,-0.45078,-0.00028,0.31309
0.14228,0.9685,-0.20438,-0.38062,0.06889,0.41689
0.16081,0.96296,-0.21643,-0.58025,0.3174,0.49083
0.16838,0.95965,-0.22522,-0.84322,0.77829,0.27471
0.17052,0.95857,-0.22818,-0.81443,0.63268,0.39574
0.16654,0.95979,-0.22597,-0.58918,0.8207,0.03542
0.14663,0.96538,-0.21574,-0.21986,0.39345,-0.03968
0.11944,0.97439,-0.19054,-0.11291,0.12446,-0.06136
0.0856,0.9848,-0.15113,0.09474,0.17777,-0.31276
0.05304,0.99259,-0.10931,0.10345,0.78375,-0.21445
0.02289,0.9979,-0.06049,0.22717,1.04038,0.16447
-0.00724,0.99997,-0.00079,0.34206,1.0012,0.08667
-0.03275,0.9979,0.05585,0.3126,0.47419,0.06467
-0.04994,0.9935,0.10226,-0.03878,0.07249,-0.00164
-0.06903,0.98753,0.14145,-0.28853,-0.23486,0.0358
-0.09249,0.98031,0.17447,-0.33303,-0.60096,-0.0212
-0.10812,0.97393,0.19939,-0.14059,-0.97696,-0.1424
-0.11191,0.96998,0.21587,-0.1368,-0.97301,-0.15888
-0.10781,0.96742,0.22906,0.05855,-0.98277,-0.11825
-0.10147,0.96543,0.24008,0.09834,-0.95847,-0.21302
-0.09456,0.96473,0.24565,0.20482,-0.9591,-0.2063
-0.08839,0.96635,0.24154,0.10849,-0.87451,-0.04826
-0.08557,0.9699,0.22795,-0.00507,-0.62071,0.12401
-0.08813,0.97295,0.21352,-0.04633,-0.48829,0.20793
-0.0919,0.97531,0.2008,-0.03482,0.08157,0.39367
-0.08664,0.97555,0.20199,-0.08297,1.46868,0.57554
-0.07879,0.97181,0.22218,-0.19273,1.42772,0.92632
-0.07943,0.96738,0.24053,-0.19623,0.09049,0.87202
-0.08269,0.96797,0.23703,0.21738,0.10248,0.39972
-0.08395,0.96163,0.26117,-0.07011,0.55248,0.04174
-0.09624,0.95177,0.29133,-0.18815,0.5945,-0.26575
-0.12712,0.94705,0.29486,0.34919,-0.64397,-0.53079
-0.1498,0.94832,0.27973,0.58681,-0.73256,0.0747
-0.14959,0.94739,0.28298,-0.31175,0.58614,-0.48808
-0.14662,0.95669,0.2515,-0.20878,0.75816,-0.34592
-0.13061,0.97021,0.20402,-0.08281,0.32953,-0.04716
-0.11819,0.9809,0.15444,0.12593,-0.52235,-0.08487
-0.10973,0.98829,0.10605,0.27289,-0.52399,0.06663
-0.10509,0.99281,0.05729,0.28523,-0.5086,0.14503
-0.10237,0.9947,0.00945,0.25315,-0.65045,-0.15723
-0.09581,0.99473,-0.03657,0.15162,-0.53731,-0.04853
-0.0841,0.99325,-0.07989,0.09649,-0.46267,0.06118
-0.06649,0.99101,-0.11608,0.04242,-0.32072,0.00887
-0.04134,0.98808,-0.14831,-0.09188,-0.26173,0.00688
-0.00981,0.98286,-0.18408,-0.14884,-0.27368,0.04016
0.02724,0.97541,-0.2187,-0.17704,0.25103,0.18793
0.06759,0.96832,-0.2404,-0.2255,0.4318,0.27958
0.10509,0.96335,-0.24679,-0.26842,0.3048,0.36246
0.1317,0.9587,-0.25208,-0.72662,0.1972,0.80993
0.14529,0.95475,-0.25952,-1.08894,0.62988,0.35385
0.14742,0.9526,-0.26612,-1.05927,0.76206,0.44098
0.14331,0.95278,-0.26771,-0.73569,0.89234,0.12872
0.13136,0.95675,-0.25956,-0.30332,0.66901,0.07067
0.10483,0.9652,-0.23959,-0.11482,0.21609,0.11827
0.07195,0.97667,-0.20233,0.1274,-0.03871,-0.2309
0.03731,0.9858,-0.16371,-0.03702,0.27276,-0.16338
0.00283,0.99316,-0.11673,-0.04344,0.79003,0.02997
-0.03248,0.99795,-0.05512,0.39978,1.32899,-0.00746
-0.06303,0.99801,0.00024,0.51277,0.6829,0.1899
-0.08287,0.99559,0.04388,0.34174,0.38444,0.16362
-0.10096,0.99134,0.08401,-0.1674,-0.09609,0.02392
-0.12348,0.98492,0.1212,-0.34974,-0.45478,-0.02321
-0.13986,0.97855,0.15125,-0.27273,-1.06314,-0.11154
-0.14256,0.97482,0.17147,0.02263,-1.07045,-0.23003
-0.13815,0.97294,0.1852,0.13128,-1.03372,-0.1366
-0.13007,0.97187,0.19634,0.16153,-0.98141,-0.09177
-0.11964,0.97169,0.2037,0.20972,-1.0047,-0.09793
-0.10993,0.97262,0.20474,0.14121,-0.86387,-0.04989
-0.10501,0.97422,0.19964,0.07993,-0.76187,0.12308
-0.10532,0.97626,0.18926,0.05947,-0.49192,0.35369
-0.10573,0.97863,0.17636,0.137,0.05137,0.44567
-0.09962,0.97961,0.17447,0.00473,0.76987,0.18906
-0.09464,0.97687,0.19175,-0.11039,0.74962,0.97169
-0.09679,0.97314,0.20889,-0.06013,-0.02968,0.95882
-0.10198,0.97349,0.20473,0.20629,0.01906,0.40068
-0.10968,0.96756,0.22757,-0.13731,0.76841,0.21095
-0.12548,0.95756,0.25949,-0.27205,0.5946,-0.5151
-0.15151,0.95034,0.27184,0.62856,0.97042,0.16102
-0.15412,0.94615,0.28469,0.22657,0.16713,-0.29803
-0.1445,0.95323,0.26546,0.2009,-0.11314,-0.29532
-0.13269,0.96398,0.2305,0.02831,-0.1647,-0.35086
-0.11533,0.97637,0.18276,0.0702,0.06832,-0.16445
-0.0988,0.987,0.12673,-0.05695,0.1893,-0.0599
-0.09185,0.9933,0.07016,-0.14745,0.02041,0.00513
-0.09776,0.99508,0.01582,0.06092,-0.65854,0.00287
-0.10366,0.99403,-0.0339,0.26067,-0.98575,-0.10635
-0.09388,0.99257,-0.07734,0.21373,-0.90729,-0.09788
-0.07041,0.99068,-0.11655,-0.09218,-0.35042,-0.04278
-0.04334,0.98704,-0.15452,-0.17615,-0.25079,-0.03484
-0.01466,0.98105,-0.19319,-0.14203,-0.29727,0.20029
0.01886,0.97326,-0.22894,-0.05828,-0.38883,0.28149
0.05748,0.96529,-0.25478,-0.35031,0.22362,0.4622
0.09328,0.9585,-0.26941,-0.49941,0.4438,0.45304
0.12436,0.95329,-0.27528,-0.75736,0.20794,0.45243
0.14506,0.94793,-0.28351,-0.45506,0.45559,0.77616
0.15503,0.946,-0.2847,-0.37915,0.53781,0.36479
0.15928,0.94542,-0.28426,-0.64616,0.56655,0.41402
0.1555,0.94739,-0.27979,-0.38227,0.48329,0.11234
0.13982,0.95335,-0.26752,-0.3666,0.47733,0.10007
0.11752,0.96367,-0.23985,-0.0785,0.03633,0.16293
0.08554,0.97502,-0.205,0.12401,0.60347,-0.15055
0.05023,0.98495,-0.16538,0.15932,0.59354,-0.19017
0.01422,0.99338,-0.11395,0.33432,1.16102,-0.03514
-0.02252,0.9981,-0.05732,0.46722,1.09994,0.03342
-0.0516,0.99865,-0.00489,0.45006,0.81706,0.14308
-0.07211,0.99668,0.03777,-0.10369,0.19268,0.08767
-0.09502,0.99247,0.0773,-0.30079,-0.1276,0.02166
-0.11965,0.98621,0.1143,-0.29789,-0.42374,-0.02264
-0.1362,0.97979,0.14652,-0.1194,-0.92353,-0.05218
-0.13954,0.97532,0.17108,0.12332,-1.0935,-0.07956
-0.13531,0.97255,0.18931,0.11533,-1.14044,-0.15407
-0.127,0.97154,0.19997,0.11286,-1.17521,-0.23871
-0.11379,0.97235,0.20391,0.16867,-1.18929,-0.26247
-0.09855,0.97513,0.19851,0.04356,-1.04438,-0.2104
-0.0861,0.97908,0.18437,-0.07299,-0.68088,0.01983
-0.08361,0.982,0.16935,-0.08232,-0.32917,0.44534
-0.08985,0.98293,0.16053,-0.05399,-0.17619,0.6625
-0.08789,0.981,0.17293,-0.17773,0.78807,0.42384
-0.07713,0.97505,0.20815,0.05484,1.65596,0.60846
-0.06894,0.97287,0.22082,0.12134,1.21847,0.77306
-0.07147,0.97618,0.20486,0.58129,0.30319,0.27529
-0.06544,0.97347,0.21927,0.26849,1.43426,0.4015
-0.05456,0.96717,0.24819,0.27986,1.54268,-0.05921
-0.04304,0.96364,0.26371,0.0583,0.2947,0.20954
-0.04363,0.96116,0.27253,-0.11228,-0.99897,-0.21376
-0.05363,0.96403,0.26033,0.02157,-0.64289,-0.19388
-0.0654,0.96683,0.24692,-0.34291,0.00897,-0.51454
-0.0723,0.97572,0.20673,-0.31704,0.34345,-0.12864
-0.06527,0.98643,0.15064,-0.22684,0.36609,0.05541
-0.06003,0.99362,0.09548,-0.05878,-0.34327,-0.02474
-0.06016,0.99719,0.0446,0.11698,-0.74075,0.06235
-0.0577,0.99833,-0.00292,0.20763,-0.8601,-0.01193
-0.04764,0.99769,-0.04851,0.30949,-0.81623,-0.10976
-0.02875,0.99537,-0.09172,0.09918,-0.42597,0.01836
-0.00834,0.99154,-0.12952,0.00218,-0.31854,0.10233
0.01286,0.98652,-0.16313,-0.07275,-0.17448,0.02299
0.039,0.97975,-0.19637,-0.06317,-0.20471,0.10644
0.0704,0.97141,-0.22671,-0.10741,-0.20574,0.18034
0.1052,0.9642,-0.24341,-0.42203,0.28243,0.31654
0.13759,0.95953,-0.24569,-0.42311,0.28917,0.26565
0.16473,0.95493,-0.24691,-0.31898,0.12711,0.39744
0.18647,0.95037,-0.24904,-0.63909,0.41202,0.44357
0.20208,0.94772,-0.24697,-1.0924,0.56391,0.45365
0.20722,0.94684,-0.24607,-1.09754,0.56479,0.45275
0.19937,0.9502,-0.23952,-0.63044,0.72109,0.00743
0.17481,0.95908,-0.22272,-0.11845,0.2205,0.10378
0.14356,0.97083,-0.19204,0.07599,0.15222,0.15925
0.10866,0.98294,-0.14839,0.13166,0.31647,-0.25268
0.07862,0.99106,-0.10782,0.05679,1.14481,0.07774
0.0481,0.9975,-0.05178,0.0873,1.13837,0.02171
0.01636,0.99982,0.0096,0.24162,0.96661,0.05061
-0.00971,0.9982,0.05921,0.00272,0.42166,0.14499
-0.03144,0.99447,0.10019,-0.14303,0.16833,0.07395
-0.05854,0.98875,0.13767,-0.20301,-0.2412,-0.07289
-0.08365,0.9817,0.17107,-0.10677,-0.91815,-0.06667
-0.09736,0.97592,0.19521,-0.02182,-1.05387,-0.12331
-0.09917,0.97239,0.21125,0.02208,-1.09403,-0.15642
-0.09573,0.97037,0.22185,-0.02143,-1.09393,-0.26687
-0.08926,0.96933,0.22897,0.01084,-1.0692,-0.34921
-0.07773,0.96999,0.23037,0.10947,-0.94485,-0.05949
-0.06457,0.97272,0.2228,-0.03968,-0.60015,0.22453
-0.05844,0.976,0.20975,-0.05255,-0.44038,0.40672
-0.0605,0.97883,0.19551,0.0231,0.24041,0.50032
-0.05496,0.98091,0.18653,-0.1023,0.70488,0.19915
-0.04077,0.9789,0.2002,-0.23952,1.35348,0.81206
-0.03633,0.9736,0.22534,-0.09734,-0.18143,0.97955
-0.03719,0.97332,0.22642,0.20639,0.26521,0.27842
-0.03675,0.96864,0.24573,-0.13111,1.08919,0.14727
-0.04027,0.95944,0.279,0.0599,0.7,-0.45371
-0.05303,0.95728,0.28424,0.39341,-0.11945,-0.04825
-0.0535,0.95565,0.28959,0.26845,-0.15846,0.05965
-0.05818,0.95573,0.28843,-0.33019,0.22971,-0.52117
-0.06365,0.9649,0.25479,-0.23945,0.24557,-0.29954
-0.05606,0.97626,0.20921,-0.2175,0.112,-0.16348
-0.04177,0.98642,0.15886,0.00041,-0.32878,-0.09812
-0.03053,0.99386,0.10634,0.08824,-0.47416,-0.01169
-0.02548,0.99817,0.05482,0.15251,-0.56354,0.02074
-0.02133,0.99976,0.00552,0.20679,-0.67793,-0.07524
-0.01469,0.99911,-0.03939,0.1709,-0.70953,-0.10405
-0.00415,0.99646,-0.08394,0.02547,-0.50469,-0.0183
0.01121,0.99201,-0.12566,-0.0313,-0.21116,-0.07212
0.0306,0.98556,-0.16653,-0.0048,-0.16694,0.00423
0.05536,0.97658,-0.20789,-0.00528,-0.18564,0.10966
0.08901,0.9668,-0.23954,-0.28033,0.04295,0.32348
0.12643,0.95884,-0.25423,-0.55949,0.35939,0.40691
0.1599,0.9524,-0.25953,-0.6411,0.2024,0.40455
0.18356,0.946,-0.26719,-0.89106,0.44046,0.376
0.19019,0.94288,-0.2735,-0.92597,0.6632,0.56147
0.18567,0.94181,-0.28021,-0.92145,0.66427,0.56818
0.17555,0.94307,-0.2825,-0.74403,0.65033,0.15499
0.15348,0.94887,-0.27583,0.11503,0.41955,-0.06245
0.12117,0.95967,-0.25366,0.14734,0.40875,-0.08463
0.08742,0.97162,-0.21982,-0.23627,0.59612,-0.36702
0.05003,0.98217,-0.18123,-0.01146,0.99356,-0.02143
0.00459,0.99058,-0.13686,0.03398,0.98514,-0.06581
-0.03608,0.9961,-0.08055,0.54576,1.02092,-0.15038
-0.06356,0.99759,-0.02788,0.24918,0.33547,0.22422
-0.07994,0.99671,0.01365,0.26557,0.33635,0.18268
-0.09842,0.99395,0.04869,-0.1066,-0.12838,0.04756
-0.12227,0.98923,0.08052,-0.09334,-0.44079,0.02528
-0.13923,0.98458,0.10594,-0.09273,-0.65998,0.01397
-0.14294,0.98237,0.12048,0.03024,-1.15815,-0.19817
-0.13618,0.98198,0.13101,0.05976,-1.1333,-0.23288
-0.1238,0.98235,0.14025,0.06434,-1.14708,-0.26121
-0.10793,0.98309,0.14791,0.18069,-1.00642,-0.05744
-0.09502,0.98416,0.14963,0.21054,-0.78705,0.16151
-0.08886,0.9852,0.14656,0.16945,-0.69025,0.22468
-0.08945,0.98511,0.14683,-0.12373,-0.23813,0.55938
-0.08903,0.98425,0.15271,0.00913,0.38666,0.71939
-0.07435,0.982,0.17362,-0.12607,1.22146,0.7174
-0.06301,0.97795,0.19912,-0.07855,0.7627,0.67498
-0.06165,0.97749,0.2018,0.0601,-0.18333,0.65115
-0.0621,0.97649,0.20644,0.36367,0.05728,0.44007
-0.05989,0.97056,0.2333,0.00254,1.01314,0.48796
-0.05707,0.96478,0.25681,0.14458,0.28138,-0.2573
-0.05548,0.96346,0.26204,0.19762,-0.15382,-0.24881
-0.0532,0.96435,0.25924,0.03531,-0.266,-0.12443
-0.06072,0.96633,0.25002,-0.3882,0.4088,-0.52528
-0.06821,0.97586,0.20746,-0.38711,0.52862,-0.20462
-0.06593,0.98577,0.15462,-0.13052,-0.22755,-0.03289
-0.05989,0.99309,0.10093,-0.02253,-0.56943,-0.06666
-0.05524,0.99718,0.05072,0.13347,-0.67553,-0.00734
-0.04927,0.99879,0.00081,0.2286,-0.6516,-0.04982
-0.04103,0.99815,-0.04497,0.26039,-0.58129,-0.09227
-0.03124,0.99574,-0.08675,0.23368,-0.48984,-0.06365
-0.01911,0.99201,-0.12473,0.13465,-0.36075,-0.01397
-0.00134,0.98742,-0.15814,0.09041,-0.33307,-0.0551
0.02706,0.98174,-0.18832,0.04342,-0.27048,0.0142
0.06615,0.97308,-0.22079,-0.28088,-0.0947,0.3065
0.11086,0.96244,-0.24783,-0.60511,0.27486,0.39353
0.1507,0.95336,-0.26151,-0.71065,0.39564,0.36948
0.18153,0.94648,-0.26687,-0.91357,0.24857,0.61492
0.2005,0.94051,-0.2743,-0.76512,0.50122,0.62734
0.20997,0.93754,-0.27738,-0.89697,0.58854,0.35734
0.21055,0.93648,-0.28049,-0.79105,0.58383,0.5044
0.20217,0.93887,-0.27866,-0.65302,0.51256,-0.00799
0.17904,0.94615,-0.2697,-0.48237,0.32509,-0.05592
0.14313,0.95846,-0.2467,0.08586,0.08775,-0.00479
0.10078,0.97116,-0.21609,-0.02536,0.33432,-0.35112
0.05835,0.98172,-0.18114,-0.05503,1.03199,-0.12763
0.01496,0.99177,-0.12714,0.33366,1.33628,-0.02501
-0.02212,0.99768,-0.06434,0.73048,1.13933,0.09899
-0.04842,0.99877,-0.01039,0.78667,0.84626,0.16892
-0.06535,0.9974,0.03051,0.06113,-0.07018,0.09623
-0.08576,0.99398,0.0682,-0.38787,-0.40662,-0.0133
-0.1072,0.98911,0.10085,-0.44979,-0.54841,-0.03821
-0.11785,0.98498,0.12623,-0.24218,-1.03016,-0.16271
-0.11845,0.98218,0.14592,-0.08661,-1.10916,-0.09644
-0.11411,0.98033,0.16102,-0.02296,-1.17656,-0.16783
-0.10516,0.97918,0.17366,0.14539,-1.11731,-0.19317
-0.09591,0.9794,0.1777,0.14954,-1.04587,-0.06668
-0.09182,0.98079,0.1721,0.1329,-0.94922,0.02812
-0.09465,0.98203,0.16326,0.03679,-0.50785,0.48307
-0.09994,0.98378,0.14895,0.15053,-0.12921,0.4382
-0.09395,0.98556,0.14086,-0.11334,0.77546,0.15883
-0.08629,0.98301,0.162,-0.20834,1.35409,0.81563
-0.08761,0.97979,0.17985,0.10224,0.53135,1.11515
-0.08815,0.9803,0.17674,0.0401,-0.07436,1.06551
-0.08754,0.97467,0.20579,-0.31488,0.76475,0.15256
-0.08534,0.96968,0.22899,0.01289,0.47385,-0.229
-0.09045,0.96807,0.23378,0.20486,0.22298,-0.19478
-0.09432,0.96701,0.23662,0.24612,-0.28127,-0.01507
-0.10473,0.9685,0.22592,-0.29558,0.38915,-0.407
-0.10927,0.97737,0.18112,-0.37019,0.52858,-0.45715
-0.10334,0.98649,0.12712,-0.13573,-0.14484,-0.05951
-0.09185,0.99306,0.07341,0.08295,-0.47355,-0.07115
-0.07875,0.99664,0.02231,0.18048,-0.5743,0.15595
-0.06586,0.99746,-0.02719,0.18188,-0.58449,0.05433
-0.05373,0.99594,-0.07217,0.16974,-0.58298,0.09931
-0.04275,0.9924,-0.11542,0.21676,-0.74983,-0.1208
-0.02923,0.98733,-0.15598,0.14737,-0.33427,-0.05715
-0.01142,0.98138,-0.19171,0.0391,-0.15391,0.0013
0.01358,0.97426,-0.225,0.00142,-0.10727,0.03092
0.04825,0.96521,-0.25698,-0.02886,-0.32237,0.1973
0.0902,0.95477,-0.28334,-0.19121,-0.19604,0.3429
0.13131,0.94454,-0.301,-0.50296,0.38083,0.4779
0.17008,0.9367,-0.30603,-0.87963,0.1951,0.63596
0.1945,0.9299,-0.31217,-0.81739,0.30423,0.72966
0.20106,0.92717,-0.31612,-0.81748,0.44434,0.46216
0.20122,0.927,-0.31652,-0.98217,0.56958,0.47347
0.19296,0.93049,-0.31139,-0.65954,0.58134,0.27437
0.16801,0.94057,-0.29513,-0.21497,0.46385,0.11187
0.1342,0.95498,-0.26459,0.01061,0.43626,-0.64473
0.09022,0.96855,-0.23189,0.03659,1.09798,-0.05862
0.04228,0.98268,-0.18043,0.3479,1.2408,0.08256
0.00526,0.99266,-0.12079,0.52067,1.14973,-0.10565
-0.02293,0.99784,-0.06148,0.37533,0.74686,0.16282
-0.04023,0.99915,-0.00867,0.21023,0.58067,0.10874
-0.0556,0.99778,0.03663,-0.20784,-0.02944,0.10233
-0.07742,0.9943,0.07323,-0.22964,-0.47967,0.05531
-0.09742,0.99005,0.10149,-0.20963,-0.47542,0.02705
-0.105,0.9869,0.12251,-0.09232,-0.95968,-0.06968
-0.10075,0.98502,0.13991,-0.02509,-1.11183,-0.09737
-0.08887,0.98418,0.15327,-0.01373,-1.18067,-0.1791
-0.0737,0.98376,0.16364,0.07478,-1.12593,-0.18999
-0.06115,0.98365,0.16939,0.08479,-1.09373,-0.13198
-0.05659,0.98458,0.16551,0.08494,-1.00752,-0.02784
-0.06201,0.98538,0.15866,0.03001,-0.66347,0.38149
-0.07146,0.98549,0.15398,0.09429,-0.3356,0.42161
-0.07007,0.98488,0.15843,0.10045,0.06183,0.37786
-0.05964,0.98148,0.18202,-0.20124,1.50726,0.90599
-0.05395,0.97893,0.19695,-0.1377,-0.41525,1.17637
-0.05445,0.98127,0.1848,-0.14629,-0.39176,0.99593
-0.05531,0.97878,0.19729,0.11522,0.61604,0.1476
-0.0539,0.9716,0.23038,-0.13305,0.78213,-0.39915
-0.06075,0.96837,0.242,0.11369,0.87625,-0.28972
-0.06582,0.9664,0.24846,0.25369,0.02086,0.07961
-0.07384,0.96522,0.2508,-0.14716,0.08391,-0.30142
-0.07797,0.97117,0.22529,-0.21377,0.13833,-0.39109
-0.07257,0.98,0.1853,-0.17116,-0.08023,-0.25058
-0.06206,0.98889,0.13509,0.0222,-0.24064,-0.1209
-0.05373,0.99533,0.0802,0.054,-0.25241,-0.01507
-0.05295,0.99824,0.02677,0.09774,-0.38377,0.14779
-0.05535,0.9982,-0.02322,0.12532,-0.50268,0.02775
-0.05204,0.9963,-0.06847,0.2815,-0.68953,-0.11592
-0.03735,0.99314,-0.11083,0.25743,-0.49305,0.06279
-0.01429,0.98875,-0.1489,0.0843,-0.31587,-0.00143
0.01394,0.98301,-0.18299,-0.04188,-0.27347,-0.07744
0.0473,0.97469,-0.21848,-0.13243,-0.31355,0.07296
0.08597,0.96329,-0.25431,-0.30772,-0.19413,0.33595
0.12511,0.95096,-0.28289,-0.42877,0.07758,0.42673
0.16001,0.941,-0.29817,-0.48644,0.25179,0.63484
0.18941,0.933,-0.30599,-0.76438,0.30267,0.74638
0.20684,0.92782,-0.31043,-0.88499,0.57354,0.38706
0.21368,0.92565,-0.31228,-1.1522,0.72746,0.35883
0.20893,0.92584,-0.31492,-0.70871,0.88766,0.26365
0.18731,0.93245,-0.30896,-0.41715,0.69052,0.15808
0.15685,0.94483,-0.28757,-0.07509,0.22908,-0.22431
0.11673,0.95966,-0.25578,-0.03487,0.23805,-0.12938
0.07739,0.97259,-0.21927,0.13704,0.35743,-0.21678
0.04514,0.98493,-0.16694,0.33437,1.28295,0.25805
0.01715,0.9942,-0.10621,0.48738,1.37,0.07476
-0.0076,0.99873,-0.04975,0.23936,0.49193,0.09054
-0.02405,0.99971,-0.00296,-0.24645,-0.03231,0.16113
-0.04407,0.99836,0.03661,-0.33274,-0.17077,0.13993
-0.06853,0.99535,0.06764,-0.30604,-0.42829,0.0852
-0.08792,0.99194,0.09121,-0.10408,-0.82144,-0.00321
-0.09757,0.98931,0.10839,0.09524,-0.8924,-0.10645
-0.09882,0.98753,0.12256,0.10883,-0.95147,-0.08032
-0.09375,0.98625,0.13612,0.0345,-0.99534,-0.202
-0.08343,0.98533,0.14888,0.08025,-1.02826,-0.19667
-0.07303,0.9855,0.15318,0.11835,-1.03103,-0.10533
-0.06796,0.98694,0.14605,0.19972,-0.70563,0.28445
-0.06876,0.98803,0.13806,0.02329,-0.48832,0.68115
-0.0729,0.98828,0.13409,-0.2197,-0.14121,0.38127
-0.07236,0.98727,0.14166,0.15626,1.001,0.54235
-0.0648,0.98358,0.16845,-0.08761,0.4121,0.7213
-0.06115,0.98217,0.17778,0.04914,0.16197,0.64111
-0.05529,0.98017,0.1903,0.14455,0.76062,0.39428
-0.04804,0.97553,0.21456,0.16549,0.89546,0.26365
-0.04234,0.97066,0.23669,0.07221,0.47937,0.09543
-0.04199,0.96881,0.24423,0.17398,-0.45512,-0.40801
-0.04176,0.96862,0.245,-0.17707,0.06882,-0.11454
-0.05151,0.97121,0.23258,-0.28707,0.22691,-0.42057
-0.05381,0.98055,0.18874,-0.44506,0.5254,-0.082
-0.0504,0.98926,0.13722,-0.22478,-0.15687,-0.07113
-0.0468,0.99523,0.0856,-0.14194,-0.39737,-0.05611
-0.04486,0.99838,0.03489,0.05982,-0.7002,-0.07016
-0.04113,0.99902,-0.01657,0.24821,-0.72085,0.01997
-0.03159,0.99739,-0.06487,0.27844,-0.69509,0.01888
-0.01876,0.99405,-0.10734,0.22898,-0.52264,0.00478
-0.00568,0.98929,-0.14584,0.09812,-0.35402,0.19038
0.01085,0.98367,-0.17963,0.04306,-0.31818,0.25493
0.03421,0.97734,-0.20888,-0.03724,-0.1873,0.17579
0.06425,0.97005,-0.23426,-0.12251,-0.16392,0.11006
0.09881,0.96048,-0.2602,-0.19219,-0.1249,0.32199
0.13757,0.94955,-0.28181,-0.36325,0.35805,0.4429
0.17597,0.94034,-0.29119,-0.66497,0.21203,0.52969
0.20342,0.93294,-0.29707,-0.97243,0.39845,0.69343
0.21487,0.92828,-0.30352,-1.10992,0.72766,0.33526
0.21743,0.92637,-0.3075,-1.00541,0.72628,0.33511
0.20767,0.9282,-0.30873,-0.64008,0.84322,0.21868
0.18284,0.93682,-0.29822,-0.1296,0.38068,-0.10137
0.14611,0.94951,-0.27764,0.00505,0.34971,-0.10378
0.10125,0.96475,-0.24291,-0.00774,0.31819,-0.32275
0.05526,0.97749,-0.20364,0.16048,0.93937,0.22773
0.01561,0.98919,-0.14579,0.28667,1.17087,-0.05387
-0.01547,0.99608,-0.08707,0.40238,1.11512,-0.03014
-0.03765,0.99864,-0.03595,0.26462,0.38933,0.19104
-0.05219,0.9986,0.00886,-0.1004,-0.04456,0.0333
-0.06892,0.99644,0.04859,-0.18367,-0.20069,0.02767
-0.09062,0.99256,0.08136,-0.28449,-0.57061,-0.06038
-0.10643,0.98838,0.10855,-0.22153,-0.9542,-0.10588
-0.11009,0.98551,0.12903,-0.14986,-1.06928,-0.15613
-0.107,0.98388,0.14331,0.139,-1.07166,-0.20809
-0.10038,0.98311,0.15305,0.26986,-1.04173,-0.22776
-0.09155,0.98352,0.15587,0.29538,-1.01723,-0.0991
-0.08382,0.98546,0.14777,0.14949,-0.8749,0.13187
-0.08027,0.98761,0.13487,-0.03939,-0.51816,0.37405
-0.0854,0.98824,0.12681,-0.16035,-0.26441,0.65055
-0.08702,0.98848,0.12381,-0.01812,0.33473,0.54439
-0.07898,0.98633,0.14464,-0.23921,1.40569,0.68458
-0.07609,0.98256,0.16968,-0.20781,1.17595,0.91958
-0.07506,0.98265,0.16962,0.08106,-0.15232,0.82307
-0.0696,0.97977,0.18765,-0.02807,0.99599,0.32737
-0.0656,0.97296,0.22144,-0.03207,1.00279,0.29357
-0.07202,0.96921,0.23548,0.14391,0.21913,-0.22559
-0.07594,0.96867,0.23647,0.37451,-0.34905,-0.09697
-0.07933,0.96792,0.2384,0.20855,-0.14755,-0.20355
-0.08658,0.97315,0.21326,-0.23537,0.62069,-0.53869
-0.08373,0.98254,0.16615,-0.26804,0.45545,-0.08943
-0.07599,0.99058,0.11393,-0.14669,-0.22657,-0.0321
-0.06842,0.99587,0.05961,0.1017,-0.65763,0.05402
-0.06191,0.99806,0.00631,0.1572,-0.59131,0.16416
-0.05248,0.99773,-0.04223,0.1182,-0.58356,0.07333
-0.04156,0.99547,-0.08556,0.1367,-0.57917,0.0224
-0.02899,0.9916,-0.12606,0.07173,-0.4961,0.09368
-0.01227,0.98652,-0.16319,0.04363,-0.4524,0.14958
0.0104,0.9804,-0.19675,-0.04232,-0.33816,0.15381
0.03918,0.97191,-0.23208,-0.1437,-0.26037,0.2436
0.07618,0.96203,-0.26209,-0.16054,-0.2281,0.31356
0.11633,0.95413,-0.27586,-0.33236,0.33391,0.27339
0.15223,0.94895,-0.27625,-0.54928,-0.00924,0.45048
0.18115,0.94254,-0.28072,-0.78473,-0.06386,0.71744
0.20052,0.93662,-0.28728,-1.27341,0.54804,0.24153
0.20382,0.93357,-0.29479,-1.08668,0.72411,0.45924
0.19659,0.93335,-0.30035,-0.77403,0.79401,0.44241
0.17481,0.9392,-0.29555,-0.10041,0.6194,-0.0119
0.14237,0.95101,-0.27441,0.04297,0.24563,0.20499
0.10338,0.96638,-0.23543,0.1931,0.23693,0.00314
0.06644,0.97884,-0.19352,0.22341,0.63566,-0.26928
0.03142,0.98813,-0.15038,0.16975,0.94907,-0.04435
-0.00678,0.99576,-0.0917,0.23293,1.156,0.14317
-0.04258,0.99858,-0.03196,0.43223,0.62501,0.13853
-0.06684,0.99766,0.01431,0.03679,0.20397,0.2083
-0.08807,0.99475,0.05221,-0.14898,0.01714,0.17591
-0.11423,0.98975,0.08572,-0.36258,-0.50989,-0.01817
-0.13138,0.98478,0.11382,-0.17998,-0.96421,-0.04386
-0.13571,0.98153,0.13482,-0.06083,-1.04573,-0.08317
-0.13423,0.97967,0.14906,0.11275,-1.06163,-0.06953
-0.13018,0.97912,0.15612,0.12977,-1.11561,-0.14035
-0.12344,0.98042,0.15339,0.11267,-1.15257,-0.19171
-0.11647,0.98318,0.14065,0.05954,-1.11159,-0.09711
-0.11225,0.98565,0.12603,-0.07411,-0.64151,0.2978
-0.11631,0.98558,0.1229,-0.14211,-0.40489,0.6524
-0.12103,0.9853,0.12056,0.19721,0.1666,0.35444
-0.10907,0.98528,0.1316,0.05594,1.33923,0.26397
-0.1014,0.98205,0.15902,0.02436,1.76044,0.82737
-0.10283,0.98045,0.16777,0.04674,-0.04359,1.14998
-0.10362,0.982,0.15791,0.26473,0.6011,-0.04324
-0.09556,0.97599,0.19572,0.25666,0.60711,-0.08105
-0.0952,0.97145,0.21732,-0.28602,0.68183,-0.33681
-0.09938,0.97267,0.20984,0.21536,-0.31898,0.09426
-0.10035,0.97267,0.20939,0.04324,-0.36218,-0.08332
-0.1117,0.97285,0.20267,-0.33169,0.56596,-0.42029
-0.11458,0.97995,0.16301,-0.3341,0.42664,0.00817
-0.10785,0.98738,0.11594,-0.34083,0.4192,0.05523
-0.0981,0.99302,0.06544,0.17868,-0.54158,-0.18228
-0.088,0.99601,0.01481,0.3565,-0.42669,0.11039
-0.07521,0.99654,-0.0354,0.3437,-0.42722,0.1606
-0.06096,0.99476,-0.08201,0.2958,-0.45807,-0.02289
-0.04599,0.99085,-0.12688,0.22172,-0.61695,0.03603
-0.02568,0.9854,-0.16828,0.15306,-0.57194,0.12177
0.00127,0.97891,-0.20426,-0.01293,-0.40297,0.15348
0.03337,0.97056,-0.23852,-0.20328,-0.19746,0.17323
0.06928,0.95967,-0.27245,-0.29186,-0.17641,0.20021
0.10594,0.9483,-0.29918,-0.49421,0.04153,0.33303
0.13742,0.93914,-0.31484,-0.43327,0.30532,0.42624
0.16368,0.93225,-0.32267,-0.42529,0.17879,0.56363
0.18486,0.92474,-0.33269,-0.79684,0.691,0.42665
0.19597,0.92097,-0.33676,-0.91806,0.83423,0.41374
0.1984,0.92031,-0.33714,-0.91392,0.8846,0.42941
0.18701,0.92459,-0.33191,-0.46193,0.75855,0.10907
0.16206,0.93519,-0.3149,-0.22108,0.51487,-0.15406
0.12492,0.9504,-0.28482,0.16278,0.22937,0.10453
0.08396,0.96569,-0.24575,0.07817,0.36744,-0.06688
0.04698,0.97788,-0.2038,0.06154,0.58619,-0.00477
0.01531,0.98908,-0.1466,0.10579,0.87018,0.01332
-0.01282,0.99586,-0.09,0.25231,0.67545,0.20766
-0.03497,0.99869,-0.03741,0.17369,0.40537,0.1271
-0.05333,0.99856,0.00597,-0.11123,-0.02683,0.11671
-0.07492,0.99637,0.04044,-0.28563,-0.43469,0.08569
-0.09567,0.99322,0.06597,-0.24957,-0.81703,0.06895
-0.10663,0.99088,0.0824,-0.04541,-0.99931,-0.05145
-0.10833,0.98974,0.09316,0.07209,-0.96183,-0.00999
-0.10661,0.98924,0.10022,0.0968,-0.93411,0.01088
-0.10422,0.989,0.10496,0.1341,-0.99602,-0.07009
-0.10173,0.98924,0.10514,0.12946,-0.95033,0.00512
-0.10062,0.98994,0.09947,0.1039,-0.80688,0.15406
-0.10354,0.99011,0.09467,0.06603,-0.65238,0.40138
-0.11166,0.98914,0.09555,0.02241,-0.03957,0.49879
-0.11618,0.9876,0.1056,-0.0186,0.81105,0.28597
-0.11516,0.98531,0.12609,0.02269,1.36167,0.54516
-0.11717,0.98318,0.14007,0.04368,-0.6423,0.8095
-0.11706,0.98359,0.13726,0.40324,0.54889,0.2068
-0.11232,0.97887,0.17088,0.3985,0.55362,0.17318
-0.11653,0.97206,0.20373,-0.42835,0.93892,-0.16777
-0.13391,0.96974,0.20413,0.36911,-0.03531,-0.16961
-0.14038,0.968,0.20798,0.29674,-0.05705,0.18882
-0.13816,0.97139,0.19317,-0.2826,0.38283,-0.46642
-0.1286,0.98,0.15183,-0.19282,0.34397,-0.22652
-0.11625,0.98805,0.10121,0.05764,-0.17704,-0.12327
-0.10078,0.99373,0.0484,0.26986,-0.44786,-0.05191
-0.0893,0.99599,-0.00515,0.20372,-0.40062,0.24615
-0.08238,0.99496,-0.0572,0.1968,-0.39959,0.2982
-0.07641,0.99157,-0.1046,0.07608,-0.48469,-0.02513
-0.06697,0.98648,-0.14959,0.09884,-0.60202,0.00755
-0.05065,0.97993,-0.19281,0.04224,-0.57394,0.04959
-0.02611,0.972,-0.23351,-0.01006,-0.41889,0.02042
0.00444,0.96201,-0.27296,-0.03336,-0.28062,0.17007
0.03945,0.95006,-0.30955,-0.18419,-0.01465,0.41172
0.07723,0.939,-0.33514,-0.38954,0.42834,0.60049
0.11388,0.93049,-0.34818,-0.5225,0.41859,0.51355
0.14694,0.92455,-0.3516,-0.74261,0.00781,0.70525
0.17056,0.91857,-0.35657,-0.85493,0.49649,0.37775
0.18033,0.91529,-0.36017,-1.04427,0.56229,0.44821
0.17834,0.91472,-0.36261,-0.79687,0.48206,0.48718
0.1649,0.91833,-0.35981,-0.45722,0.53932,-0.03681
0.13507,0.92777,-0.34784,-0.1488,0.36045,-0.04689
0.09626,0.94236,-0.32046,0.238,0.527,0.10658
0.05332,0.95777,-0.28256,0.23351,0.79693,-0.25207
0.01032,0.97002,-0.24281,0.3227,1.07605,0.14015
-0.02874,0.98111,-0.19129,0.40483,1.12199,0.1498
-0.06514,0.98786,-0.14099,0.31343,0.73154,0.14043
-0.09175,0.99115,-0.09597,0.15681,0.47381,0.28026
-0.11281,0.99189,-0.05855,-0.24565,0.04141,0.15253
-0.13947,0.98999,-0.02136,-0.1958,-0.31693,0.06475
-0.16773,0.98569,0.01645,-0.09079,-0.47623,0.03947
-0.18888,0.98055,0.0533,0.02269,-0.86621,0.08289
-0.1984,0.97658,0.08318,0.1256,-1.15851,-0.05007
-0.19957,0.97413,0.10604,0.16305,-1.21149,-0.15465
-0.1951,0.97365,0.11806,0.26948,-1.21466,-0.2875
-0.18533,0.97559,0.11779,0.1952,-1.13861,-0.16282
-0.17446,0.97949,0.10078,0.0449,-0.74994,0.15042
-0.16783,0.98266,0.07882,-0.02515,-0.542,0.48117
-0.1714,0.98298,0.06612,0.11165,0.06513,0.52448
-0.17221,0.98254,0.07034,0.24509,1.00763,0.24596
-0.15985,0.9819,0.10152,0.2363,1.65784,0.8247
-0.15365,0.97949,0.13032,0.24906,0.28746,0.8978
-0.15456,0.98027,0.12318,0.55918,0.49888,0.18974
-0.15208,0.97825,0.14102,0.08187,0.89241,0.43494
-0.13827,0.97603,0.16804,0.07571,0.46405,0.19279
-0.12612,0.9747,0.18455,0.14521,-0.34002,-0.42481
-0.11909,0.97614,0.18154,0.2875,-0.29849,-0.24988
-0.11713,0.97813,0.17184,-0.32282,0.12518,-0.20359
-0.12222,0.98273,0.13891,-0.42096,0.38789,-0.08416
-0.12251,0.98854,0.08822,-0.36455,0.34861,0.06049
-0.11866,0.99242,0.03177,0.02043,-0.34969,-0.09747
-0.11805,0.99275,-0.02234,0.20376,-0.67368,0.09869
-0.11802,0.9904,-0.07192,0.29114,-0.73945,0.16958
-0.11059,0.98677,-0.11857,0.47865,-0.75738,-0.04704
-0.09452,0.9824,-0.16113,0.319,-0.47202,-0.03047
-0.07515,0.97673,-0.20087,0.18248,-0.33908,0.10013
-0.05235,0.97032,-0.2361,0.01541,-0.2364,0.23552
-0.02174,0.96314,-0.26812,-0.17474,-0.19371,0.23306
0.01661,0.95318,-0.30194,-0.32429,-0.24004,0.28818
0.0574,0.94273,-0.32858,-0.42579,0.03016,0.43207
0.09295,0.93492,-0.34247,-0.56841,0.16686,0.38121
0.1228,0.92879,-0.34968,-0.83843,0.13237,0.44042
0.14267,0.92136,-0.36156,-0.79714,0.53431,0.825
0.14943,0.91645,-0.3712,-0.59845,0.71244,0.40801
0.15433,0.9148,-0.37326,-0.72135,0.62194,0.46858
0.1561,0.91594,-0.36971,-0.67823,0.71654,0.23169
0.14615,0.9221,-0.3583,-0.05114,0.3525,-0.01792
0.12552,0.9344,-0.33338,0.09985,0.23284,0.16838
0.09411,0.94995,-0.29787,0.25161,0.35342,-0.32315
0.05001,0.96367,-0.26235,0.09303,1.17568,0.26099
0.00829,0.97844,-0.20636,0.21846,1.12428,0.01894
-0.02702,0.98886,-0.14633,0.47679,0.76758,0.26018
-0.05269,0.99476,-0.08754,0.06913,0.4325,0.24355
-0.06956,0.99683,-0.03851,-0.12905,0.1757,0.23863
-0.08425,0.99643,0.0059,-0.35981,-0.57212,0.01917
-0.10075,0.99389,0.04492,-0.16461,-1.05794,-0.049
-0.10813,0.99148,0.07262,0.0319,-0.98496,-0.09465
-0.10573,0.99011,0.09215,0.07767,-0.90628,-0.06934
-0.09949,0.98936,0.10615,0.12887,-0.94187,-0.07229
-0.08906,0.98909,0.11733,0.16409,-0.87929,-0.0211
-0.07597,0.9893,0.12453,0.16184,-0.8211,0.12109
-0.06756,0.99023,0.12196,0.12332,-0.72985,0.31675
-0.06704,0.99148,0.11168,-0.02058,-0.60871,0.63485
-0.07053,0.99208,0.10396,0.04772,-0.50057,0.61658
-0.06553,0.99299,0.09837,-0.05811,0.21293,0.33406
-0.04743,0.99273,0.11059,-0.20932,1.49798,0.5963
-0.03677,0.98991,0.13685,-0.08864,1.21098,1.11925
-0.0338,0.98846,0.14764,0.57362,0.31201,0.55828
-0.02909,0.98665,0.16023,0.44094,0.65137,0.12408
-0.0275,0.98147,0.18961,0.01613,0.57987,0.06455
-0.03347,0.97749,0.20831,-0.03791,0.08204,0.06224
-0.03646,0.97671,0.21143,0.15579,-0.45489,0.03697
-0.03538,0.97511,0.21885,-0.1226,0.22368,-0.0011
-0.04405,0.97745,0.20649,-0.4903,0.88835,-0.31238
-0.03834,0.98557,0.16488,-0.52313,0.31901,0.19386
-0.02708,0.99303,0.11471,-0.34409,-0.42082,0.01764
-0.01799,0.99806,0.05947,-0.06114,-0.89338,0.0214
-0.01047,0.99993,0.0046,0.11005,-0.77805,0.06263
-7e-05,0.9989,-0.0469,0.07525,-0.66581,0.0489
0.01013,0.99552,-0.09392,0.03187,-0.56964,0.07248
0.01845,0.99067,-0.13499,0.05259,-0.47482,0.08654
0.02791,0.98491,-0.17077,0.13723,-0.37523,0.15683
0.04348,0.97863,-0.20095,-0.02302,-0.3312,0.05592
0.06834,0.97027,-0.23218,-0.04788,-0.32284,0.08715
0.10115,0.95796,-0.26849,-0.42755,0.12664,0.32533
0.13755,0.94496,-0.29686,-0.45068,0.44826,0.13798
0.16697,0.93599,-0.30991,-0.48009,0.45723,0.15104
0.18997,0.92824,-0.3198,-0.72026,0.39594,0.73098
0.21147,0.92127,-0.32641,-0.83948,0.59976,0.48414
0.22539,0.91714,-0.32872,-1.03669,0.70037,0.35753
0.22825,0.91517,-0.33222,-1.01168,0.74937,0.39842
0.21688,0.91802,-0.33196,-0.58056,0.68342,0.25391
0.1927,0.92675,-0.32248,-0.16972,0.34105,0.19414
0.15864,0.94112,-0.29854,0.04676,0.27292,-0.27731
0.11643,0.95543,-0.27129,0.01959,0.7441,0.06105
0.06642,0.96916,-0.23729,0.24921,0.95796,0.35855
0.02556,0.98305,-0.18156,0.56293,1.11978,-0.08599
-0.00558,0.99286,-0.11913,0.67726,0.92561,0.27581
-0.02429,0.99754,-0.06565,0.38681,0.36461,0.18528
-0.03658,0.99904,-0.02401,-0.1917,-0.27039,0.14713
-0.05391,0.99849,0.01063,-0.31006,-0.49807,0.03788
-0.07435,0.9965,0.03806,-0.30973,-0.69911,0.06451
-0.08866,0.99445,0.05656,-0.09627,-1.00487,-0.04611
-0.09384,0.99322,0.06852,-0.03734,-1.06608,-0.08413
-0.09283,0.99264,0.07772,-0.02844,-1.11332,-0.12344
-0.08715,0.99246,0.08617,0.1692,-1.11343,-0.10601
-0.08143,0.99253,0.09079,0.17538,-0.99261,0.01983
-0.08226,0.99266,0.08862,0.18469,-0.83153,0.22579
-0.09264,0.99233,0.08174,0.06611,-0.50651,0.66561
-0.10274,0.99188,0.07491,0.0535,-0.22712,0.65759
-0.09637,0.99135,0.08899,-0.41939,1.81223,0.70679
-0.08085,0.98906,0.12333,-0.45911,1.47918,1.03001
-0.07713,0.98691,0.14162,0.1533,-0.37337,0.98114
-0.08118,0.9877,0.13357,0.52536,-0.13185,0.4336
-0.0825,0.98426,0.15626,0.17741,0.83897,0.28248
-0.09119,0.97802,0.1875,0.02506,0.36555,-0.47117
-0.10091,0.97593,0.19331,0.26127,-0.00692,-0.45859
-0.09568,0.97556,0.1978,-0.07585,0.28924,-0.0783
-0.09104,0.97925,0.18105,-0.2097,0.44107,-0.36201
-0.08073,0.98712,0.1381,-0.23238,0.29178,-0.20123
-0.06962,0.9939,0.08553,-0.03873,-0.37704,-0.07756
-0.06177,0.99764,0.03001,0.18428,-0.53406,0.07538
-0.05728,0.99807,-0.02391,0.20763,-0.5403,0.18407
-0.05148,0.99598,-0.07324,0.06431,-0.53628,-0.01362
-0.04284,0.99231,-0.11607,0.09808,-0.54048,0.04385
-0.03021,0.98773,-0.15318,0.13016,-0.55197,0.06323
-0.01179,0.98234,-0.18674,0.08737,-0.42009,0.1379
0.01232,0.97569,-0.21879,-0.11513,-0.27801,0.25653
0.0431,0.96698,-0.25116,-0.21735,-0.23103,0.23826
0.07979,0.95635,-0.28112,-0.40363,-0.019,0.33385
0.11708,0.94639,-0.30105,-0.46605,0.26246,0.44221
0.1515,0.93809,-0.3115,-0.42789,-0.01471,0.51021
0.1819,0.9303,-0.31853,-0.82922,0.02036,0.5468
0.20284,0.92205,-0.32967,-1.14406,0.61194,0.57817
0.20876,0.91852,-0.33576,-1.02828,0.87689,0.41732
0.20549,0.91712,-0.34156,-0.76286,0.82098,0.39648
0.19261,0.92007,-0.34112,-0.44345,0.84633,0.20762
0.16719,0.92879,-0.33073,-0.26806,0.56313,0.16149
0.13424,0.94321,-0.30386,0.02273,0.19281,0.03961
0.09512,0.95789,-0.27092,-0.00824,0.45971,0.01498
0.05651,0.97044,-0.23461,0.02294,0.86232,0.06897
0.01927,0.98329,-0.18101,0.3033,1.16956,0.12107
-0.01756,0.99234,-0.12226,0.66665,0.73067,0.27177
-0.04497,0.9964,-0.07181,0.53356,0.40175,0.21698
-0.06117,0.9975,-0.03514,-0.20027,-0.22468,0.1328
-0.0821,0.99661,-0.00423,-0.39143,-0.44339,0.05036
-0.10761,0.99391,0.02342,-0.39654,-0.61759,0.03346
-0.12433,0.99121,0.04511,-0.19828,-1.12367,-0.01147
-0.12945,0.98967,0.06157,0.06759,-1.2122,-0.04806
-0.12901,0.98889,0.07381,0.14973,-1.23127,-0.15508
-0.12589,0.98875,0.08079,0.23439,-1.23325,-0.15516
-0.12232,0.98916,0.08119,0.21094,-1.11999,-0.06813
-0.12344,0.98938,0.07666,0.16455,-0.79938,0.26722
-0.13476,0.98832,0.07111,0.0781,-0.24958,0.67791
-0.14377,0.98706,0.07087,0.18542,0.76219,0.50572
-0.12606,0.98758,0.09373,-0.13475,1.68088,0.70236
-0.11537,0.98477,0.13,-0.26882,0.54954,0.93742
-0.11687,0.98391,0.13507,0.49997,0.02367,0.4039
-0.11223,0.983,0.14529,0.4401,0.51844,0.15891
-0.10865,0.97753,0.18062,0.04433,1.0458,0.08774
-0.11437,0.97145,0.20783,0.30721,-0.14913,-0.45677
-0.11351,0.97229,0.20435,0.44002,-0.27504,-0.40526
-0.10616,0.97167,0.21112,-0.08774,0.20624,-0.46939
-0.10521,0.97644,0.18838,-0.16413,0.59836,-0.16795
-0.09553,0.98485,0.1447,-0.26217,0.22862,0.04457
-0.08891,0.99173,0.09248,-0.03858,-0.30193,-0.00663
-0.08865,0.99539,0.03645,-0.02328,-0.51942,0.03357
-0.09304,0.99545,-0.02044,0.04388,-0.56593,0.12953
-0.09421,0.99275,-0.07454,0.19251,-0.6299,0.03209
-0.08917,0.98852,-0.12192,0.2611,-0.59706,0.06812
-0.07705,0.98354,-0.16344,0.28531,-0.54012,0.10782
-0.05832,0.97778,-0.20135,0.142,-0.33232,0.12117
-0.03403,0.97085,-0.23723,-0.04064,-0.21707,0.18068
-0.00565,0.96198,-0.27304,-0.16224,-0.08334,0.35481
0.0273,0.95208,-0.30461,-0.3492,0.05109,0.48403
0.06041,0.94245,-0.32884,-0.49748,0.18656,0.5233
0.08744,0.93538,-0.34265,-0.50483,0.06051,0.37398
0.10884,0.9305,-0.34973,-0.59824,0.00704,0.52102
0.12433,0.9248,-0.35956,-0.64263,0.50956,0.75776
0.13213,0.92138,-0.36551,-0.69442,0.65197,0.42691
0.13512,0.92046,-0.36673,-0.77628,0.62551,0.54724
0.13119,0.92256,-0.36287,-0.69312,0.59493,0.22394
0.11524,0.92882,-0.35214,-0.2497,0.50179,0.24929
0.08749,0.94211,-0.32367,-0.0149,0.30088,0.12496
0.05568,0.95723,-0.28392,0.11425,0.22025,-0.06157
0.02244,0.96926,-0.24499,0.08962,0.51615,0.19243
-0.00934,0.98065,-0.19555,0.06964,0.99062,0.05312
-0.04097,0.98935,-0.13961,0.29998,0.67887,0.15411
-0.06541,0.99418,-0.08562,0.24682,0.50139,0.20802
-0.07818,0.99616,-0.03941,-0.01768,0.2549,0.21941
-0.09194,0.99576,-0.00135,-0.15332,-0.28011,0.09913
-0.1127,0.99311,0.03201,-0.12044,-0.46535,0.01725
-0.1314,0.98959,0.05865,-0.04995,-0.8235,-0.0686
-0.14277,0.98676,0.07688,0.129,-1.10241,-0.07839
-0.14709,0.98519,0.08808,0.13986,-1.00114,-0.15192
-0.14783,0.98422,0.09721,0.21323,-0.89613,-0.06756
-0.14639,0.98389,0.10255,0.24008,-0.88219,-0.02408
-0.14581,0.98423,0.10012,0.1943,-0.73214,0.23652
-0.1467,0.98506,0.0902,0.10754,-0.44853,0.39937
-0.15096,0.98514,0.0819,0.04062,-0.27161,0.55929
-0.15465,0.98502,0.07619,0.09474,0.23074,0.62786
-0.1426,0.9864,0.08165,-0.09348,1.25853,0.75239
-0.13447,0.98528,0.10549,0.01037,0.45641,1.03245
-0.13254,0.98471,0.11304,0.07726,0.36249,0.88668
-0.12737,0.98362,0.12752,0.09217,1.04125,0.42809
-0.12452,0.98059,0.15144,0.04769,0.62897,0.02019
-0.12474,0.97764,0.16929,0.11662,-0.0076,0.10965
-0.12376,0.97841,0.16547,0.31288,-0.66056,-0.15683
-0.11579,0.97938,0.16554,-0.12411,-0.10105,-0.30668
-0.11894,0.98175,0.14837,-0.09731,0.21262,-0.2889
-0.12115,0.98706,0.10502,-0.16167,0.76421,0.10856
-0.11542,0.99154,0.05926,-0.10623,0.2379,0.16051
-0.11072,0.99376,0.0131,0.0137,-0.48602,-0.0148
-0.10496,0.99393,-0.03277,0.32522,-0.59035,0.15594
-0.09198,0.99253,-0.0801,0.27237,-0.51381,0.18906
-0.0734,0.9896,-0.12371,0.15751,-0.4074,0.19398
-0.05494,0.98508,-0.16306,-0.17695,-0.22942,0.17793
-0.03861,0.97928,-0.19877,-0.23136,-0.36373,0.21438
-0.02028,0.97283,-0.23061,-0.24597,-0.41349,0.25524
0.00266,0.9655,-0.26037,-0.37162,-0.2755,0.21412
0.02825,0.95602,-0.29192,-0.331,-0.18257,0.4539
0.05266,0.94497,-0.32288,-0.32254,-0.16805,0.55604
0.07463,0.9352,-0.34616,-0.2287,0.25509,0.46536
0.09152,0.92912,-0.35828,-0.26638,0.23824,0.45654
0.10452,0.92452,-0.36652,-0.56117,0.48845,0.57089
0.11165,0.92146,-0.37208,-0.62063,0.61605,0.48229
0.11378,0.9216,-0.37109,-0.61439,0.57604,0.54969
0.11101,0.9253,-0.36263,-0.64481,0.56631,0.21924
0.09471,0.93285,-0.34759,-0.20412,0.29544,0.22915
0.06852,0.9462,-0.31622,-0.04749,0.20825,0.08539
0.03719,0.9606,-0.27541,0.1017,0.07754,-0.05649
0.00482,0.97183,-0.23563,0.00306,0.55404,0.25951
-0.02487,0.98252,-0.18448,0.03576,1.03624,0.13796
-0.05654,0.99004,-0.12888,0.20972,0.90342,0.12143
-0.0821,0.99367,-0.07664,0.1003,0.39581,0.34798
-0.09866,0.99453,-0.034,0.01789,0.19652,0.23534
-0.1168,0.99315,0.00016,-0.13612,-0.17372,0.14504
-0.13996,0.98974,0.02856,-0.08704,-0.56928,0.01814
-0.1595,0.98592,0.05015,0.1127,-0.98999,0.00698
-0.17101,0.98307,0.06573,0.1476,-1.02173,-0.02103
-0.17514,0.98149,0.07745,0.16743,-0.93139,-0.12291
-0.17506,0.9804,0.09034,0.24806,-0.80516,-0.13443
-0.17264,0.97957,0.10312,0.27374,-0.7637,-0.08075
-0.17103,0.97917,0.1094,0.36198,-0.69761,0.16498
-0.17152,0.97975,0.1032,0.23943,-0.36196,0.38384
-0.17525,0.9803,0.09098,0.11297,-0.31044,0.51871
-0.17605,0.98173,0.07212,0.10687,0.03208,0.5429
-0.16316,0.98396,0.07206,-0.15586,1.3241,0.7816
-0.15466,0.98317,0.0972,-0.21935,1.09821,1.06854
-0.15303,0.98262,0.10505,-0.06395,-0.28811,0.92158
-0.15002,0.98389,0.09717,0.24944,0.40533,0.3093
-0.14479,0.98272,0.11524,0.05814,0.61903,0.39872
-0.14186,0.98124,0.13052,0.15789,0.18109,-0.20935
-0.14035,0.98207,0.12578,0.37549,-0.09151,-0.28008
-0.13698,0.98332,0.11962,0.39921,-0.16461,-0.0642
-0.13981,0.98417,0.10883,0.03258,0.22236,-0.18273
-0.1497,0.98595,0.07399,-0.08987,0.36146,-0.15734
-0.15087,0.9882,0.0262,-0.10017,0.0348,-0.08616
-0.13931,0.99006,-0.01869,-0.05167,-0.30594,-0.05488
-0.12532,0.99016,-0.06223,0.01153,-0.39497,0.02626
-0.11017,0.98839,-0.10458,0.19709,-0.51389,0.16692
-0.0929,0.98469,-0.14747,0.10457,-0.47117,0.11209
-0.07531,0.97907,-0.18905,-0.02665,-0.37488,0.08645
-0.05648,0.97239,-0.22642,-0.08836,-0.35472,0.19954
-0.03372,0.96566,-0.2576,-0.16064,-0.22196,0.23307
-0.00556,0.95895,-0.28348,-0.23656,-0.18083,0.23533
0.0258,0.95052,-0.30959,-0.24994,-0.20354,0.30066
0.05906,0.9392,-0.33823,-0.30784,-0.22938,0.47501
0.09306,0.92845,-0.35961,-0.41549,0.23899,0.43444
0.12309,0.92119,-0.36912,-0.45384,0.35376,0.39007
0.14797,0.91466,-0.37615,-0.64419,0.26936,0.6348
0.16485,0.90776,-0.38573,-0.70898,0.55605,0.73204
0.17512,0.90454,-0.38876,-0.89902,0.67839,0.36703
0.17592,0.90386,-0.38998,-0.78124,0.92184,0.32622
0.15908,0.91023,-0.38232,-0.31085,0.74074,0.15626
0.12964,0.92274,-0.36296,-0.19716,0.29514,0.02053
0.09106,0.94032,-0.32788,0.03551,0.35541,-0.0602
0.04507,0.95652,-0.28815,0.28349,0.64529,0.07767
0.0049,0.97088,-0.2395,0.37388,0.9596,0.34194
-0.02283,0.98326,-0.18074,0.3943,0.81494,0.13762
-0.04004,0.99184,-0.12103,0.07373,0.30565,0.25311
-0.04836,0.99646,-0.06863,-0.08324,0.1732,0.10913
-0.05757,0.9981,-0.02161,-0.26086,-0.15801,0.09466
-0.0727,0.99718,0.01802,-0.31069,-0.51826,0.06273
-0.08515,0.99523,0.04741,-0.13406,-0.97892,0.03632
-0.08861,0.9938,0.06706,0.09994,-0.96374,-0.05569
-0.08772,0.99284,0.08097,0.08791,-0.96937,9e-05
-0.08427,0.99233,0.0904,0.0594,-0.9345,-0.00563
-0.07959,0.99233,0.09447,0.0534,-0.95193,0.00328
-0.07645,0.99301,0.08986,-0.00419,-0.88612,0.1956
-0.07712,0.99395,0.07815,-0.12026,-0.69266,0.45063
-0.08278,0.99421,0.06841,-0.27339,-0.44096,0.75495
-0.08538,0.99459,0.05909,-0.10065,0.45884,0.35883
-0.07746,0.99486,0.06508,0.05221,1.65539,0.83525
-0.07459,0.99308,0.09066,0.08365,0.8536,1.1339
-0.07545,0.99176,0.10342,0.39623,0.12631,0.64836
-0.07197,0.99091,0.1136,0.25449,0.51358,0.23046
-0.06667,0.98811,0.13848,-0.05469,0.54346,-0.1202
-0.06922,0.98566,0.15386,-0.02917,0.12565,-0.1496
-0.06934,0.98521,0.15663,0.34437,-0.45064,-0.14634
-0.06409,0.98444,0.16358,-0.12989,0.25784,-0.03556
-0.06571,0.98666,0.14889,-0.36915,0.50777,-0.39529
-0.06163,0.99229,0.10743,-0.3631,0.47394,-0.17597
-0.05078,0.99686,0.06065,-0.12678,-0.36505,0.02258
-0.03889,0.99916,0.01237,0.1053,-0.59396,0.092
-0.02716,0.99894,-0.03707,0.20665,-0.56751,0.22074
-0.01164,0.99639,-0.08406,0.16302,-0.4856,0.10965
0.00501,0.99193,-0.12666,0.03184,-0.40895,0.1097
0.01996,0.98592,-0.16601,-0.00801,-0.4274,0.14827
0.0359,0.9787,-0.20211,-0.0306,-0.47168,0.14536
0.05621,0.97019,-0.23574,-0.16316,-0.2939,0.12906
0.08099,0.95972,-0.26902,-0.2307,-0.18413,0.15205
0.11092,0.94725,-0.30068,-0.3995,-0.09669,0.37959
0.14308,0.93485,-0.32491,-0.39029,0.24166,0.49231
0.17166,0.92455,-0.34018,-0.33945,0.37157,0.58535
0.19837,0.91612,-0.34837,-0.58747,0.13214,0.58421
0.2213,0.908,-0.35575,-0.93148,0.40908,0.55928
0.23109,0.90369,-0.36047,-0.9236,0.46803,0.38869
0.23029,0.90183,-0.3656,-0.92607,0.70416,0.34897
0.21462,0.90522,-0.36674,-0.61813,0.6633,0.15794
0.18201,0.91487,-0.36038,-0.10796,0.44063,0.0626
0.13727,0.9312,-0.33767,0.02247,0.49045,0.16787
0.08999,0.9501,-0.29866,0.07976,0.56984,-0.13127
0.04643,0.96424,-0.26092,0.2512,0.82462,0.00167
0.0146,0.97708,-0.21236,0.31958,1.03899,0.13498
-0.01385,0.9879,-0.15445,0.36311,0.75981,0.20135
-0.03496,0.99402,-0.10338,0.20209,0.31047,0.17186
-0.04876,0.99687,-0.0622,-0.06508,-0.00675,0.17367
-0.06835,0.99724,-0.02869,-0.16982,-0.33878,0.1182
-0.09175,0.99577,-0.0025,-0.18982,-0.63992,0.08029
-0.1075,0.99406,0.01694,-0.07055,-1.04797,0.04384
-0.11259,0.99314,0.03149,0.04318,-1.00771,0.00589
-0.11366,0.99261,0.04238,0.05702,-0.99673,-0.03202
-0.11422,0.99215,0.05071,0.13813,-0.96145,-0.02518
-0.11661,0.99174,0.05334,0.2403,-0.87635,0.14457
-0.1224,0.99131,0.04798,0.23411,-0.83236,0.23136
-0.13081,0.99079,0.03477,0.14541,-0.74722,0.37749
-0.13685,0.99041,0.01875,0.01414,-0.09313,0.57529
-0.13445,0.99077,0.01702,-0.05063,0.23366,0.50076
-0.12398,0.9912,0.04627,-0.09178,1.90312,1.26687
-0.11518,0.98961,0.08593,-0.24169,0.68348,1.08859
-0.11235,0.9903,0.08162,-0.3641,-0.51809,1.30921
-0.11558,0.9911,0.06596,0.30606,0.21381,0.06336
-0.11478,0.98793,0.104,-0.07696,0.69002,0.29219
-0.12117,0.9841,0.12983,-0.11783,0.77751,-0.5104
-0.1245,0.98364,0.13016,0.50175,0.35997,0.06694
-0.12263,0.98472,0.12361,0.46889,-0.23318,0.12251
-0.1245,0.9858,0.11257,0.28333,-0.07611,0.02437
-0.12393,0.98906,0.07994,-0.18792,0.08942,-0.15707
-0.1156,0.9927,0.03434,-0.16517,-0.04755,-0.06169
-0.103,0.99453,-0.01725,-0.12161,-0.14627,-0.00813
-0.0941,0.99312,-0.06962,-0.02429,-0.3736,0.24322
-0.08765,0.98896,-0.11946,0.11992,-0.51171,0.28643
-0.07835,0.98352,-0.16291,0.22109,-0.64372,0.10306
-0.06424,0.97741,-0.20133,0.20773,-0.59701,0.05758
-0.04488,0.97023,-0.23798,0.10625,-0.40397,0.16292
-0.02137,0.96242,-0.27071,-0.01281,-0.23421,0.21024
0.00667,0.9535,-0.30129,-0.13826,-0.10884,0.31333
0.04032,0.94214,-0.33277,-0.22985,-0.23284,0.3492
0.07865,0.92992,-0.35923,-0.39799,-0.06637,0.4683
0.11607,0.91928,-0.37609,-0.5279,0.32593,0.50332
0.14738,0.91154,-0.38388,-0.52587,0.13585,0.36551
0.17198,0.90387,-0.39171,-0.68132,0.28447,0.69782
0.18996,0.89674,-0.3997,-0.72669,0.52754,0.64648
0.1994,0.89287,-0.40376,-0.98423,0.59065,0.46576
0.19976,0.89107,-0.40753,-0.88801,0.63707,0.48525
0.18632,0.89483,-0.40565,-0.50214,0.73144,0.30865
0.15743,0.90641,-0.39196,-0.16573,0.24343,0.17094
0.11842,0.9243,-0.36283,-0.01704,0.25591,0.0848
0.06934,0.94259,-0.32666,0.11424,0.44211,-0.1346
0.02364,0.95789,-0.28614,0.26516,1.16345,0.18724
-0.00925,0.97385,-0.22699,0.29805,1.14749,0.12808
-0.03698,0.98583,-0.16361,0.57595,0.97505,0.30914
-0.05632,0.99217,-0.1114,0.02368,0.18349,0.27471
-0.07016,0.9951,-0.06957,-0.15941,0.01518,0.21742
-0.0903,0.99539,-0.0323,-0.45272,-0.47604,0.06665
-0.11007,0.99392,-7e-05,-0.25092,-1.00983,0.04228
-0.12118,0.99236,0.02296,-0.06445,-1.08924,-0.01135
-0.12648,0.99126,0.03735,0.1512,-1.15412,0.0046
-0.1294,0.99054,0.04544,0.16611,-1.17641,-0.02306
-0.13001,0.99029,0.04908,0.18451,-1.22425,-0.01752
-0.12924,0.99052,0.04635,0.14042,-1.16682,0.08407
-0.12953,0.99079,0.0394,-0.04112,-0.47115,0.60981
-0.13583,0.98987,0.04116,-0.17577,-0.26869,0.75535
-0.14631,0.9882,0.04529,-0.03724,1.82331,0.68138
-0.14525,0.98747,0.06148,-0.03199,1.89279,0.9876
-0.14701,0.98504,0.0898,0.16784,1.1485,1.11647
-0.14924,0.98393,0.09795,0.19848,-0.56218,0.90752
-0.14426,0.98449,0.09978,0.41457,0.63165,0.17573
-0.13409,0.982,0.13294,0.00504,0.61341,0.04333
-0.13259,0.98055,0.14466,0.26734,0.48373,-0.40947
-0.12919,0.98077,0.14625,0.26095,0.48577,-0.16502
-0.13328,0.98084,0.14205,0.06597,0.37114,0.02111
-0.13861,0.98433,0.10894,-0.12709,0.17012,-0.13417
-0.13364,0.98917,0.06052,-0.1683,-0.27842,-0.2257
-0.12395,0.99226,0.00589,0.02364,-0.50444,-0.09506
-0.10805,0.99291,-0.04952,0.22374,-0.45917,-0.00269
-0.08933,0.9906,-0.10353,0.16079,-0.35814,0.29582
-0.0717,0.98602,-0.15035,0.09978,-0.37331,0.27985
-0.05534,0.98062,-0.18791,0.04306,-0.45979,0.05286
-0.03906,0.9745,-0.22094,0.0412,-0.44592,0.06051
-0.01997,0.96746,-0.2522,-0.07787,-0.13685,0.22894
0.00393,0.96016,-0.27941,-0.30053,0.00835,0.26173
0.0307,0.95184,-0.30504,-0.38175,-0.03004,0.32647
0.05875,0.9429,-0.32783,-0.35854,-0.15366,0.43965
0.08735,0.93312,-0.34879,-0.45243,0.18473,0.62294
0.11447,0.92381,-0.36531,-0.50018,0.14776,0.45116
0.1385,0.91643,-0.37544,-0.62872,0.06528,0.62056
0.15593,0.9091,-0.38629,-0.76824,0.41907,0.87111
0.16284,0.90498,-0.39304,-0.51586,0.65731,0.49047
0.16549,0.90507,-0.39174,-0.59706,0.52697,0.48759
0.16472,0.90878,-0.38337,-0.77677,0.42273,0.11332
0.14761,0.91673,-0.37122,-0.32202,0.11911,0.30272
0.11751,0.93167,-0.34377,-0.0866,0.25856,0.26449
0.07864,0.94797,-0.30847,0.1266,0.57713,0.05957
0.0399,0.96154,-0.27172,0.07299,0.8051,0.05807
0.00787,0.97442,-0.22455,0.06762,0.93683,0.04341
-0.02121,0.98506,-0.17088,0.35126,0.91553,0.22085
-0.04287,0.99209,-0.11795,0.34719,0.58801,0.23421
-0.05643,0.99557,-0.0751,0.0881,0.1576,0.25157
-0.07156,0.99665,-0.03934,-0.1989,-0.31655,0.08822
-0.09173,0.99574,-0.0083,-0.25065,-0.43461,0.05874
-0.10837,0.99392,0.01912,-0.20349,-0.82575,0.08583
-0.11428,0.99254,0.04226,-0.03982,-1.03745,-0.03375
-0.11304,0.99163,0.06223,0.05078,-1.06185,-0.10512
-0.10977,0.99103,0.07615,0.09835,-1.06244,-0.11236
-0.10503,0.9908,0.08518,0.16436,-1.08837,-0.05646
-0.10204,0.99105,0.08602,0.12927,-0.87752,0.02825
-0.10245,0.9918,0.07633,0.09635,-0.70519,0.17377
-0.10737,0.99222,0.06283,-0.24861,-0.01947,0.69097
-0.11402,0.99222,0.04989,-0.26673,0.3116,0.62259
-0.11267,0.99244,0.04842,-0.18866,0.87003,0.48265
-0.10927,0.99143,0.07149,-0.02033,0.88327,1.09117
-0.10902,0.99025,0.08656,-0.02499,-0.26807,1.03257
-0.10729,0.99097,0.08028,0.22973,-0.24433,0.68388
-0.10045,0.99003,0.09859,-0.01719,0.6669,0.01712
-0.097,0.98842,0.11664,0.15539,0.47309,-0.37327
-0.09557,0.98859,0.11634,0.5007,0.30493,-0.23141
-0.09166,0.98874,0.11818,0.10466,-0.14422,0.12316
-0.09429,0.98936,0.11068,-0.05341,0.22377,-0.05599
-0.09938,0.99169,0.08164,-0.29541,0.31538,-0.22264
-0.09595,0.9947,0.03668,-0.25681,0.00171,-0.0166
-0.08196,0.99657,-0.01054,-0.09813,-0.34563,-0.0282
-0.06818,0.996,-0.0577,0.14236,-0.47723,0.13572
-0.05698,0.99303,-0.10308,0.28299,-0.55549,0.26061
-0.04325,0.9884,-0.14553,0.19895,-0.53714,0.16442
-0.02671,0.98256,-0.18396,0.03406,-0.44658,0.06413
-0.00899,0.9758,-0.21843,-0.01663,-0.36379,0.15761
0.01107,0.96855,-0.24856,-0.07872,-0.24781,0.12632
0.03648,0.96071,-0.27513,-0.13846,-0.19156,0.12007
0.06803,0.95063,-0.30277,-0.21447,-0.24311,0.36571
0.10522,0.9385,-0.32884,-0.41684,-0.1579,0.47621
0.14345,0.92614,-0.34882,-0.62803,0.16511,0.57778
0.17614,0.91571,-0.36117,-0.59858,0.13048,0.40938
0.20286,0.90718,-0.3686,-0.67187,0.31165,0.68873
0.22009,0.8992,-0.37813,-0.56116,0.44473,0.79787
0.23053,0.89525,-0.38129,-0.74856,0.49769,0.36664
0.23668,0.89368,-0.38119,-0.8373,0.52847,0.46358
0.23559,0.89584,-0.37678,-0.72776,0.6365,0.22809
0.21913,0.90467,-0.36543,-0.28645,0.47352,0.25442
0.19103,0.92083,-0.33997,-0.02991,0.21116,0.08631
0.15327,0.94015,-0.30434,0.04885,0.2283,-0.07659
0.11233,0.95714,-0.26694,-0.02134,0.70973,-0.0198
0.07452,0.9727,-0.21974,0.07175,1.16611,0.06454
0.03896,0.98624,-0.16065,0.20901,1.20078,0.17165
0.00836,0.99416,-0.1075,0.2796,0.73351,0.30983
-0.0138,0.99771,-0.06604,-0.23579,-0.00916,0.24218
-0.03779,0.99886,-0.02883,-0.32662,-0.18436,0.16169
-0.06531,0.99785,0.00481,-0.39116,-0.51053,0.08749
-0.08547,0.99585,0.03099,-0.1141,-1.03752,0.00456
-0.09549,0.99418,0.04971,-0.02066,-1.01862,-0.03999
-0.10081,0.99288,0.06329,0.07423,-1.05618,-0.04562
-0.10444,0.99188,0.07248,0.22455,-0.99336,-0.10027
-0.10534,0.99155,0.07564,0.26269,-0.97607,0.04375
-0.10418,0.99222,0.0681,-0.00334,-0.58395,0.29833
-0.1038,0.99316,0.0533,-0.08314,-0.39538,0.40036
-0.10949,0.99319,0.03964,-0.11991,-0.24868,0.51202
-0.1147,0.99303,0.0268,0.18242,0.65533,0.4936
-0.10837,0.99348,0.03522,0.13327,1.28429,0.54574
-0.10604,0.9926,0.05899,-0.19308,0.3347,1.0155
-0.10756,0.99231,0.06103,-0.26959,-0.27508,0.81261
-0.10738,0.99164,0.07147,0.04348,0.29677,0.23564
-0.10962,0.98807,0.10806,0.09201,0.86837,0.3216
-0.11489,0.98493,0.12921,-0.01483,0.35028,-0.13583
-0.12189,0.98392,0.13051,0.41112,-0.26891,0.14767
-0.12174,0.98299,0.13741,0.17707,0.28523,0.0183
-0.12068,0.98493,0.12385,-0.15608,0.5645,-0.35499
-0.11105,0.99031,0.08329,-0.21108,0.24582,-0.05696
-0.1001,0.99433,0.03567,-0.08536,-0.18015,-0.02501
-0.0908,0.99575,-0.01517,0.0729,-0.49739,0.05122
-0.08084,0.9946,-0.06492,0.19099,-0.4551,0.22671
-0.06893,0.99125,-0.11254,0.15243,-0.50982,0.19904
-0.05339,0.98625,-0.15632,0.10448,-0.51245,0.07237
-0.03615,0.98005,-0.1954,0.00215,-0.46587,0.16214
-0.01726,0.97305,-0.22991,-0.07899,-0.41539,0.22009
0.00425,0.96559,-0.26001,-0.216,-0.32284,0.24247
0.02925,0.95716,-0.28805,-0.27019,-0.20686,0.31746
0.05727,0.94543,-0.32073,-0.32769,-0.18794,0.37864
0.08654,0.93166,-0.35286,-0.2057,-0.15204,0.38182
0.11567,0.91952,-0.37562,-0.22175,0.47405,0.49015
0.14247,0.91239,-0.3837,-0.23958,0.51137,0.45412
0.16634,0.90589,-0.38947,-0.67694,0.29456,0.77908
0.18162,0.90009,-0.39603,-0.76042,0.55101,0.54006
0.18946,0.89735,-0.39857,-0.9045,0.57384,0.4144
0.19153,0.89666,-0.39913,-0.74735,0.61661,0.53021
0.18403,0.90205,-0.39043,-0.34413,0.46041,0.3587
0.16127,0.91288,-0.37501,-0.26221,0.1688,0.24943
0.13395,0.92966,-0.34319,-0.13537,0.12265,0.11572
0.09906,0.94575,-0.30941,-0.1621,0.55439,0.05346
0.0614,0.96069,-0.27074,-0.07189,0.87346,0.13554
0.02392,0.9755,-0.21865,0.30865,1.0387,0.05016
-0.00678,0.987,-0.16052,0.46684,0.67559,0.35348
-0.02616,0.99347,-0.11096,0.3362,0.49582,0.31053
-0.04047,0.99658,-0.07191,-0.06767,0.11346,0.24602
-0.06038,0.99745,-0.03791,-0.39976,-0.33479,0.05854
-0.0846,0.99638,-0.00709,-0.37554,-0.33372,0.02772
-0.10222,0.99457,0.01893,-0.18499,-0.93911,0.03495
-0.10917,0.99327,0.03834,0.01588,-1.10543,-0.05921
-0.11105,0.99239,0.05308,0.09052,-1.10834,-0.01806
-0.11089,0.99185,0.06264,0.12865,-1.07814,-0.0923
-0.10922,0.99189,0.06493,0.18637,-1.06587,-0.03643
-0.108,0.99249,0.05724,0.11599,-0.8562,0.15209
-0.11061,0.99285,0.04476,0.01358,-0.49041,0.42977
-0.12159,0.99205,0.03231,-0.06297,0.03826,0.66544
-0.13069,0.99113,0.02367,0.06875,0.3756,0.65811
-0.12769,0.99093,0.04163,-0.02668,1.27213,0.994
-0.12748,0.98956,0.06707,-0.02227,0.37583,0.8956
-0.12499,0.98977,0.06869,0.04624,0.07226,0.88335
-0.11923,0.9897,0.07917,0.12537,0.94785,0.35578
-0.11206,0.98833,0.10312,0.09797,0.79486,0.05412
-0.10858,0.98614,0.12539,-0.05202,0.55944,-0.13291
-0.11135,0.98592,0.12468,0.38491,-0.54312,0.0255
-0.10855,0.98688,0.11946,0.27962,-0.31809,0.14669
-0.10919,0.98853,0.10424,-0.15262,0.08493,-0.28263
-0.10493,0.99255,0.06179,-0.24336,0.2172,-0.0694
-0.0905,0.99579,0.01431,-0.16661,-0.00921,0.1216
-0.07633,0.9965,-0.03388,0.03405,-0.42261,0.15511
-0.06606,0.99441,-0.08228,0.17058,-0.5557,0.22469
-0.05404,0.99016,-0.12902,0.16971,-0.59191,0.12032
-0.04081,0.98417,-0.17241,0.11921,-0.58879,0.1313
-0.02709,0.97682,-0.21231,0.07964,-0.49972,0.18874
-0.01151,0.96824,-0.24975,0.03223,-0.37906,0.30928
0.00912,0.95915,-0.28274,-0.08875,-0.18315,0.33575
0.03589,0.94865,-0.31427,-0.24603,-0.06516,0.35236
0.0673,0.93574,-0.34619,-0.38363,-0.16073,0.41569
0.09878,0.9233,-0.37115,-0.38427,0.03186,0.43063
0.12781,0.91391,-0.38525,-0.29,0.14615,0.48826
0.15507,0.90618,-0.39342,-0.4617,0.14344,0.58754
0.17661,0.89742,-0.40427,-0.65286,0.32523,0.68358
0.19152,0.8904,-0.41291,-0.927,0.69506,0.37748
0.20065,0.88413,-0.42196,-0.95024,0.61482,0.65516
0.20333,0.88015,-0.42894,-0.84641,0.74495,0.43735
0.19146,0.88236,-0.42985,-0.50156,0.67449,0.2991
0.16366,0.89297,-0.41929,-0.18525,0.15225,0.20069
0.12316,0.90892,-0.39835,0.15417,-0.02143,0.26585
0.07635,0.92789,-0.36493,-0.0086,0.3296,-0.31518
0.02517,0.94368,-0.32988,0.3467,1.1767,0.379
-0.01467,0.96054,-0.27773,0.38654,1.15984,0.32685
-0.04496,0.97401,-0.22198,0.65553,0.95304,0.10887
-0.06536,0.983,-0.17156,0.12623,0.13769,0.34824
-0.08004,0.98833,-0.12951,-0.07494,-0.04809,0.2149
-0.10082,0.99082,-0.09,-0.31178,-0.3497,0.14936
-0.1217,0.99096,-0.05631,-0.19156,-0.98278,0.14978
-0.13337,0.9905,-0.03335,-0.03574,-1.03638,0.05543
-0.13943,0.99007,-0.01725,0.141,-0.94341,0.06814
-0.14381,0.98959,-0.00463,0.14452,-0.90173,0.11722
-0.14573,0.9893,0.00635,0.13193,-0.9051,0.08375
-0.14534,0.98929,0.01289,0.1037,-0.88817,0.11179
-0.146,0.98922,0.01055,0.08037,-0.78385,0.23141
-0.14882,0.98885,0.00206,-0.04904,-0.58024,0.52612
-0.15429,0.98799,-0.00684,-0.34354,-0.31433,0.5799
-0.1605,0.98696,-0.01163,0.11978,0.76095,0.41237
-0.16301,0.9866,0.00606,0.25743,1.31621,0.63255
-0.16514,0.98572,0.03267,0.19743,0.17454,1.0638
-0.16318,0.98606,0.03222,0.18384,-0.42586,1.12688
-0.15773,0.98679,0.03678,0.54455,0.24441,0.22058
-0.14949,0.98608,0.07261,-0.03698,0.7486,-0.21958
-0.14459,0.98461,0.0981,0.08717,0.79219,-0.37068
-0.14026,0.98394,0.11031,0.18936,0.47794,0.07055
-0.14576,0.9826,0.11504,0.03034,0.21677,-0.2408
-0.14958,0.98499,0.08601,-0.09855,0.29872,-0.27741
-0.14538,0.98851,0.04105,-0.19151,0.10359,-0.0993
-0.13563,0.99067,-0.01268,0.24831,-0.31998,-0.04822
-0.12051,0.99033,-0.06862,0.28114,-0.28606,0.07382
-0.10673,0.98664,-0.12306,0.24168,-0.28182,0.26673
-0.09106,0.98073,-0.1728,0.1731,-0.51438,0.24133
-0.07134,0.97419,-0.21414,0.1249,-0.57364,0.18753
-0.04709,0.96703,-0.25023,0.08924,-0.66499,0.11528
-0.01802,0.95826,-0.28531,-0.02847,-0.40014,0.095
0.01238,0.94651,-0.3224,-0.12911,-0.31449,0.12239
0.04366,0.93143,-0.36128,-0.27277,-0.19121,0.41107
0.07682,0.91626,-0.39315,-0.35851,0.1221,0.54848
0.10956,0.90482,-0.41144,-0.46883,0.35231,0.63849
0.14104,0.89657,-0.41983,-0.5251,0.12534,0.52211
0.16969,0.88911,-0.42507,-0.6389,-0.01372,0.53536
0.19154,0.88031,-0.434,-0.90658,0.3658,0.68736
0.19937,0.87381,-0.44351,-0.88584,0.5096,0.70158
0.19784,0.87033,-0.45097,-0.71485,0.71761,0.48206
0.18815,0.87121,-0.45341,-0.60124,0.85839,0.30422
0.16756,0.87931,-0.44579,-0.23288,0.61236,0.14168
0.13548,0.89467,-0.42568,-0.06056,0.44087,0.12255
0.09118,0.91641,-0.38971,0.04621,0.35235,-0.06964
0.04302,0.93641,-0.34823,0.1585,0.65376,-0.06345
0.00597,0.95461,-0.29777,0.28343,1.11533,0.3401
-0.02009,0.97064,-0.23966,0.40525,1.21411,0.14588
-0.04052,0.98181,-0.18547,0.35347,0.71137,0.33351
-0.05432,0.98845,-0.1414,-0.11107,0.22575,0.23489
-0.07337,0.99237,-0.09903,-0.35299,-0.20485,0.19937
-0.09773,0.99325,-0.06237,-0.35265,-0.54729,0.14198
-0.11638,0.99255,-0.03577,-0.11526,-1.00381,0.0803
-0.12583,0.9919,-0.01666,0.12124,-1.03458,0.01322
-0.12922,0.99161,-0.0016,0.12227,-1.01329,-0.01729
-0.12876,0.99159,0.01247,0.11991,-0.99082,-0.05261
-0.12726,0.99155,0.02494,0.24434,-0.96631,-0.02287
-0.1284,0.9912,0.032,0.33705,-0.85025,0.19017
-0.1329,0.99069,0.02926,0.26385,-0.65449,0.33875
-0.14011,0.98993,0.01957,0.04231,-0.33008,0.6152
-0.14549,0.98934,0.0046,0.02469,-0.14248,0.66323
-0.14241,0.9898,-0.00146,0.01166,0.51959,0.50013
-0.13832,0.99023,0.01698,-0.05085,1.42577,0.99591
-0.13881,0.98958,0.03791,-0.10786,0.6067,1.13406
-0.13869,0.98978,0.03277,-0.07105,-0.56196,1.0213
-0.13759,0.98949,0.04424,-0.02798,0.69801,0.31925
-0.13787,0.98778,0.07249,-0.03525,0.72498,0.31405
-0.14369,0.9869,0.07316,0.07695,0.29541,-0.30099
-0.14334,0.98747,0.0658,0.4362,0.11522,0.05209
-0.14507,0.98726,0.06515,0.34755,-0.12058,0.36172
-0.14373,0.98882,0.03936,-0.23863,0.58565,-0.12661
-0.13621,0.99067,-0.00135,-0.1826,0.02184,-0.1473
-0.12219,0.99103,-0.05401,-0.19722,-0.35127,-0.05477
-0.10557,0.98849,-0.10832,0.03161,-0.42431,0.0952
-0.0913,0.98296,-0.1595,0.134,-0.38861,0.28011
-0.07766,0.97541,-0.20624,0.22317,-0.53368,0.21828
-0.06348,0.96622,-0.24975,0.26938,-0.51479,0.10447
-0.04601,0.95646,-0.28819,0.26438,-0.47941,0.17732
-0.02442,0.94652,-0.3217,0.14027,-0.37769,0.1654
0.00387,0.936,-0.35197,-0.11286,-0.13306,0.28691
0.03914,0.92446,-0.37925,-0.17517,-0.08468,0.38114
0.07835,0.91421,-0.39757,-0.37913,-0.02833,0.46869
0.11414,0.90435,-0.41124,-0.58724,0.09823,0.59442
0.14519,0.89437,-0.4231,-0.58169,0.09786,0.51372
0.17183,0.88524,-0.43222,-0.63776,0.3757,0.72979
0.19079,0.87769,-0.43959,-0.66314,0.55176,0.86588
0.19977,0.87249,-0.44592,-0.8137,0.70437,0.46667
0.19949,0.86963,-0.45159,-1.00126,0.88783,0.32029
0.18046,0.872,-0.45502,-0.5476,0.77215,0.28358
0.14931,0.88328,-0.44443,-0.36884,0.58691,-0.09726
0.10611,0.89928,-0.42429,-0.07268,0.65257,-0.07005
0.05225,0.9169,-0.39568,0.2913,0.92621,0.36226
0.00831,0.93759,-0.34762,0.52949,0.92418,0.14834
-0.02218,0.95535,-0.29463,0.49413,0.66854,-0.08543
-0.03835,0.9705,-0.23802,0.36576,0.45698,0.32429
-0.046,0.98187,-0.18384,0.08787,0.29509,0.18236
-0.05524,0.98921,-0.1356,-0.05063,-0.04282,0.23288
-0.07301,0.99288,-0.09402,-0.10808,-0.35702,0.11102
-0.09402,0.99372,-0.06052,-0.10882,-0.70402,0.14325
-0.1069,0.99359,-0.03643,-0.01018,-1.13498,0.07401
-0.11026,0.9937,-0.01961,0.08327,-1.16339,-0.01762
-0.10968,0.99393,-0.00698,0.05342,-1.05561,-0.02673
-0.1076,0.99418,0.00086,0.05367,-0.99791,0.03865
-0.10587,0.99436,0.00317,0.06856,-0.95567,0.11117
-0.10667,0.99429,2e-05,-0.00196,-0.687,0.53982
-0.11094,0.9938,-0.00607,-0.14949,-0.50819,0.68146
-0.11525,0.99324,-0.01344,-0.19518,-0.39279,0.66685
-0.11302,0.99355,-0.00764,-0.13837,0.678,0.4985
-0.11298,0.99338,0.02024,0.01793,1.28077,0.95623
-0.11365,0.99285,0.03621,0.00052,0.61295,1.05442
-0.11477,0.99278,0.03462,0.23511,0.04941,0.84829
-0.11377,0.99124,0.06699,-0.14056,1.01865,0.09353
-0.11468,0.98888,0.09456,-0.10347,1.05816,-0.15993
-0.11595,0.98881,0.09379,0.45196,-0.15371,-0.08586
-0.10821,0.98983,0.09221,0.30497,-0.74889,0.1754
-0.10695,0.99036,0.08788,-0.10391,0.11723,-0.3846
-0.10222,0.99335,0.05269,-0.21615,0.40427,-0.4353
-0.08557,0.99631,0.00374,-0.25003,0.23742,0.2671
-0.07257,0.9962,-0.04801,0.07849,-0.666,0.21287
-0.06621,0.99292,-0.09854,0.07213,-0.66272,0.26339
-0.05536,0.98767,-0.14635,0.2037,-0.65989,0.28331
-0.04025,0.98092,-0.19018,0.11148,-0.56041,0.1491
-0.02516,0.97265,-0.23087,0.02835,-0.54545,0.19099
-0.01025,0.96333,-0.26809,-0.06249,-0.44008,0.22419
0.00601,0.95318,-0.30233,-0.04259,-0.37008,0.17531
0.0276,0.94169,-0.33534,-0.06544,-0.29886,0.18223
0.05589,0.92765,-0.36922,-0.0894,-0.18667,0.32709
0.08915,0.91387,-0.39608,-0.35642,0.29894,0.57421
0.11939,0.90476,-0.40882,-0.34085,0.38541,0.56547
0.14586,0.8981,-0.41489,-0.30291,0.14704,0.49959
0.16897,0.89001,-0.42346,-0.80553,0.28339,0.69221
0.18296,0.88352,-0.43117,-0.82969,0.59737,0.4527
0.18608,0.88028,-0.43644,-0.92134,0.60625,0.44109
0.18495,0.88016,-0.43716,-0.69651,0.70352,0.47024
0.17386,0.88577,-0.43032,-0.40063,0.71436,0.33698
0.15115,0.89931,-0.41034,-0.11734,0.32318,0.1119
0.12065,0.92055,-0.37151,0.18648,0.16313,0.17441
0.08578,0.94137,-0.32628,0.10212,0.55632,-0.23651
0.04742,0.95873,-0.28032,0.23589,1.07956,0.25783
0.01821,0.97397,-0.22591,0.3658,1.06123,0.21811
-0.00903,0.98516,-0.17136,0.31618,0.70162,0.26888
-0.03081,0.99161,-0.1255,0.10023,0.40392,0.29051
-0.05216,0.99495,-0.08569,-0.33133,-0.19458,0.18306
-0.07894,0.99561,-0.05015,-0.39218,-0.3671,0.11506
-0.10293,0.99447,-0.02032,-0.26203,-0.7704,0.1033
-0.11541,0.99331,0.00085,-0.00473,-1.05991,0.07977
-0.12063,0.99256,0.01576,0.08259,-1.06184,0.09621
-0.1231,0.99205,0.0257,0.08019,-1.00034,0.07885
-0.12351,0.99186,0.0307,0.13187,-1.01165,0.07275
-0.12355,0.99191,0.02896,0.09682,-1.00008,0.13866
-0.12616,0.99181,0.01949,0.03229,-0.84612,0.28088
-0.13301,0.99108,0.00627,-0.01311,-0.56358,0.52312
-0.14251,0.98976,-0.00667,-0.12777,-0.31976,0.63793
-0.14736,0.98897,-0.01417,-0.21718,0.22526,0.49316
-0.14826,0.98894,-0.00061,-0.19952,0.79036,0.39741
-0.15515,0.98762,0.02267,0.00093,1.06151,1.12326
-0.15823,0.98702,0.02696,0.18289,-0.02549,1.01555
-0.15377,0.98742,0.03643,0.46247,0.46521,0.41039
-0.14498,0.98799,0.05332,0.08235,0.78676,0.38517
-0.139,0.98826,0.06329,0.2304,0.36804,0.05802
-0.13657,0.98854,0.06423,0.33229,-0.2463,-0.0791
-0.13536,0.98901,0.05921,0.27439,-0.16693,0.03485
-0.13411,0.99029,0.03638,-0.15232,0.16016,-0.21273
-0.12899,0.9916,-0.00851,-0.24594,0.20944,-0.0882
-0.11849,0.99125,-0.05805,-0.16691,-0.12542,0.00104
-0.10488,0.9887,-0.10698,0.0074,-0.32666,0.05103
-0.09404,0.98378,-0.15269,0.26837,-0.45679,0.27911
-0.08034,0.97745,-0.19524,0.31604,-0.54369,0.28753
-0.0611,0.9704,-0.23359,0.20926,-0.45197,0.20485
-0.03862,0.96294,-0.26691,0.02368,-0.36234,0.20778
-0.01443,0.95518,-0.29566,-0.07038,-0.29841,0.2708
0.0117,0.94721,-0.32039,-0.23913,-0.20566,0.30626
0.03985,0.93765,-0.34526,-0.35976,-0.24104,0.25254
0.06977,0.9241,-0.37572,-0.38977,-0.30459,0.44214
0.10135,0.90811,-0.40626,-0.40685,-0.25878,0.56762
0.13042,0.89541,-0.4257,-0.31847,0.47162,0.40568
0.15585,0.88809,-0.43243,-0.23798,0.46462,0.49452
0.17935,0.88092,-0.43795,-0.42244,0.25946,0.58318
0.19457,0.87538,-0.44254,-0.64988,0.54084,0.60987
0.20328,0.87336,-0.44261,-0.97991,0.66683,0.58304
0.2053,0.87382,-0.44077,-0.82427,0.6608,0.51437
0.1956,0.88022,-0.43236,-0.60612,0.67184,0.29318
0.17228,0.89354,-0.4146,-0.21751,0.38098,0.32947
0.142,0.91445,-0.37896,0.04035,0.26704,0.20458
0.10632,0.93401,-0.34104,0.02133,0.3296,-0.14556
0.07204,0.951,-0.30066,0.10091,0.92309,0.17348
0.04358,0.96849,-0.24518,0.26404,0.99451,0.20343
0.01873,0.98205,-0.18766,0.42305,0.79702,0.26035
0.00341,0.9906,-0.13669,0.20613,0.39742,0.31935
-0.00806,0.9955,-0.0943,-0.17167,0.05119,0.21454
-0.02764,0.99799,-0.05695,-0.3717,-0.25198,0.11893
-0.04993,0.99839,-0.02649,-0.3201,-0.63709,0.07614
-0.06357,0.99795,-0.00541,-0.21907,-0.90608,0.05561
-0.06774,0.99765,0.00942,0.08791,-1.13147,0.01811
-0.06851,0.99744,0.02002,0.05084,-1.06615,0.00583
-0.06707,0.99734,0.02828,0.06911,-1.01313,0.00115
-0.0652,0.9974,0.03053,0.12557,-0.9638,0.11103
-0.06419,0.99769,0.02199,0.04563,-0.66312,0.42517
-0.0662,0.99775,0.00968,-0.03397,-0.53544,0.55992
-0.07126,0.99745,-0.00135,-0.32938,-0.27398,0.65963
-0.07608,0.99707,-0.00724,-0.29719,0.88704,0.64382
-0.07833,0.99689,0.00759,-0.1436,1.41165,0.77382
-0.08221,0.99617,0.02939,-0.05246,0.79741,1.04291
-0.08156,0.99624,0.0289,0.02279,-0.19581,0.99577
-0.07562,0.99623,0.04216,0.23181,0.4922,0.39934
-0.06814,0.99553,0.06524,0.06334,0.6169,0.01453
-0.06237,0.99554,0.07066,0.27466,0.27389,-0.18502
-0.05314,0.99591,0.07298,0.39579,-0.1239,-0.03576
-0.04664,0.9959,0.07738,-0.10202,0.21131,0.13145
-0.04688,0.99719,0.05827,-0.20582,0.32888,-0.20356
-0.04243,0.99894,0.01728,-0.40192,0.34984,-0.01269
-0.03071,0.99912,-0.02826,-0.2752,-0.31865,0.02966
-0.01447,0.99713,-0.07422,-0.13925,-0.49112,0.065
-0.00119,0.99281,-0.11961,0.08798,-0.4552,0.18684
0.01218,0.9867,-0.16207,0.14493,-0.46756,0.23127
0.02743,0.97955,-0.1993,0.10206,-0.43803,0.20244
0.04315,0.97172,-0.23213,0.0105,-0.41554,0.17971
0.06127,0.96325,-0.26152,-0.07944,-0.34804,0.24461
0.08434,0.95403,-0.28756,-0.13117,-0.28385,0.26406
0.11412,0.94323,-0.3119,-0.26885,-0.19712,0.3249
0.14914,0.92946,-0.33742,-0.41185,-0.25818,0.39887
0.18507,0.91376,-0.36163,-0.50883,-0.1466,0.45871
0.21624,0.90075,-0.37667,-0.53722,0.29472,0.50545
0.24245,0.89129,-0.38315,-0.52205,0.10489,0.57901
0.26208,0.88256,-0.39037,-0.93318,0.46678,0.64672
0.26885,0.87742,-0.39729,-0.95352,0.74269,0.51594
0.27038,0.87549,-0.4005,-0.95355,0.82805,0.55161
0.26357,0.87787,-0.39982,-0.77899,0.92814,0.33361
0.24254,0.88976,-0.38665,-0.27471,0.66461,0.1586
0.21224,0.90854,-0.35987,-0.18145,0.23972,0.05056
0.17465,0.93169,-0.31849,0.01569,0.49562,-0.19462
0.13354,0.9506,-0.28019,0.13338,0.67655,-0.01703
0.103,0.96785,-0.22946,0.2693,0.96904,0.38494
0.08018,0.98278,-0.16643,0.3917,0.87605,0.26646
0.06271,0.99214,-0.10821,0.38646,0.66713,0.21543
0.05043,0.99674,-0.06287,-0.15353,0.1127,0.16111
0.03266,0.99916,-0.02442,-0.53161,-0.27733,0.12144
0.00938,0.99993,0.00563,-0.59631,-0.58774,0.03869
-0.00783,0.99965,0.02509,-0.49711,-0.88482,-0.01024
-0.01678,0.99915,0.03734,-0.07878,-1.03164,-0.05449
-0.02358,0.99865,0.04606,0.05679,-0.9792,0.02575
-0.03086,0.99812,0.05278,0.11415,-0.93249,0.05637
-0.03895,0.99772,0.05485,0.21125,-0.9246,0.03527
-0.04855,0.99767,0.04778,0.18579,-0.8963,0.21863
-0.05878,0.99776,0.03151,0.11786,-0.82029,0.3607
-0.06745,0.99763,0.01274,-0.07696,-0.39234,0.59836
-0.07049,0.9975,-0.00274,-0.15362,0.14328,0.58646
-0.0682,0.99766,-0.00265,-0.28858,0.9574,0.31895
-0.07322,0.99714,0.01817,-4e-05,0.88995,1.19032
-0.07832,0.99637,0.03305,0.15353,-0.01436,0.93069
-0.07884,0.99599,0.04211,0.03141,0.63867,0.31337
-0.07676,0.9951,0.06207,-0.08486,0.79281,0.28457
-0.079,0.9939,0.07678,0.11426,0.21682,-0.01957
-0.08588,0.99379,0.07063,0.39481,-0.49254,-0.18896
-0.08681,0.99408,0.06515,0.11922,-0.31883,0.16687
-0.08982,0.99447,0.0543,-0.09178,0.15338,-0.11445
-0.0905,0.99573,0.01761,-0.19812,0.51736,-0.19882
-0.07856,0.99661,-0.02402,-0.21926,0.06946,0.18048
-0.06302,0.99585,-0.06547,-0.16077,-0.36567,0.08243
-0.05136,0.99315,-0.10485,0.17584,-0.50312,0.20486
-0.03933,0.98846,-0.14621,0.11094,-0.48196,0.22132
-0.02392,0.98228,-0.18586,0.09553,-0.47578,0.26096
-0.00847,0.97506,-0.22175,-0.05701,-0.35395,0.2093
0.00695,0.96752,-0.25268,-0.05419,-0.34943,0.26411
0.02677,0.96019,-0.27803,-0.089,-0.31285,0.25872
0.05265,0.95212,-0.30114,-0.22521,-0.17636,0.31921
0.08261,0.94077,-0.32881,-0.27427,-0.19024,0.47208
0.11498,0.92534,-0.36127,-0.38735,-0.26772,0.47122
0.14809,0.90926,-0.38898,-0.38086,0.25502,0.35454
0.1758,0.89694,-0.40569,-0.33833,0.34066,0.36837
0.19924,0.88867,-0.41298,-0.45327,0.19577,0.56214
0.21616,0.88068,-0.4215,-0.93093,0.70582,0.63808
0.22296,0.8756,-0.42848,-0.77948,0.79866,0.70324
0.22694,0.87339,-0.4309,-0.84834,0.95129,0.49006
0.22651,0.87516,-0.42753,-0.6454,0.89942,0.37177
0.21142,0.8856,-0.41353,-0.42799,0.35806,0.16417
0.18492,0.90289,-0.38806,-0.19516,0.18046,0.28755
0.14757,0.92563,-0.34845,-0.17211,0.33392,-0.14649
0.102,0.94437,-0.31267,0.1368,0.8413,0.28499
0.06014,0.96168,-0.26746,0.32215,0.87303,0.24529
0.02837,0.97711,-0.21079,0.45011,0.60504,0.25089
0.00647,0.9881,-0.15365,0.23956,0.27452,0.25195
-0.0068,0.99427,-0.10662,-0.21243,-0.03213,0.17017
-0.02468,0.99745,-0.06678,-0.42509,-0.45795,0.0972
-0.04942,0.99814,-0.03551,-0.32346,-0.87953,0.06975
-0.06765,0.99761,-0.01332,-0.03229,-0.97117,-0.06203
-0.07829,0.99692,0.00197,0.09449,-0.87468,0.05197
-0.08617,0.99618,0.01369,0.12734,-0.78754,0.09852
-0.09327,0.99538,0.02245,0.18441,-0.79144,0.10731
-0.10026,0.99456,0.02785,0.19902,-0.81053,0.14389
-0.10694,0.99394,0.02527,0.13795,-0.77018,0.44911
-0.1124,0.99354,0.01477,-0.0103,-0.50876,0.46919
-0.11802,0.993,0.00199,-0.19378,-0.21747,0.58762
-0.12264,0.99238,-0.01104,-0.17469,0.346,0.53771
-0.11988,0.99276,-0.00666,-0.08629,1.19752,0.71892
-0.1191,0.99271,0.01779,0.01232,0.69329,0.95735
-0.11758,0.99269,0.02681,0.02235,-0.04607,0.98345
-0.11604,0.99283,0.02823,0.24103,0.22804,0.75933
-0.11229,0.99262,0.04561,-0.01273,0.80017,0.48769
-0.11087,0.99224,0.05623,0.05938,-0.23171,-0.1248
-0.11164,0.99268,0.04582,0.26875,-0.5217,-0.40632
-0.11191,0.99309,0.03513,0.40769,-0.49695,-0.17229
-0.11429,0.993,0.02967,-0.13444,0.78751,-0.46077
-0.11099,0.99376,-0.01043,-0.18634,0.86617,-0.24086
-0.09785,0.9936,-0.05622,-0.17205,-0.08536,0.17069
-0.08167,0.99162,-0.1,-0.0807,-0.50545,0.01932
-0.06357,0.98835,-0.13827,0.23857,-0.46105,0.20793
-0.04158,0.98393,-0.17363,0.28649,-0.50045,0.34404
-0.01713,0.97853,-0.20536,0.07633,-0.47983,0.26354
0.00343,0.97178,-0.23585,-0.0509,-0.36626,0.21062
0.02053,0.96421,-0.26432,-0.11616,-0.40798,0.32141
0.04089,0.95646,-0.28897,-0.24632,-0.30062,0.31157
0.06737,0.94782,-0.31159,-0.49633,0.01489,0.30762
0.09637,0.93683,-0.33624,-0.56411,-0.03903,0.46063
0.12402,0.92491,-0.35937,-0.54294,-0.24921,0.54721
0.14977,0.91265,-0.3803,-0.47908,-0.13285,0.48059
0.1712,0.90012,-0.40059,-0.35815,0.06912,0.51244
0.18793,0.88918,-0.41716,-0.43093,0.10313,0.5391
0.20008,0.87867,-0.43347,-0.75848,0.59191,0.53215
0.20255,0.87159,-0.44643,-0.8154,0.77108,0.54898
0.2039,0.86841,-0.45198,-0.60966,0.79155,0.50472
0.19723,0.86944,-0.45295,-0.61504,0.9807,0.38654
0.17618,0.87971,-0.44166,-0.31884,0.41581,0.10349
0.1399,0.89573,-0.42201,-0.26546,0.17027,0.13823
0.09379,0.91748,-0.38654,0.15774,0.29455,0.01661
0.04397,0.93598,-0.34929,0.34281,0.84712,0.28425
0.00775,0.95291,-0.30313,0.37981,1.03172,0.41478
-0.01726,0.96889,-0.24686,0.41844,0.73292,0.2349
-0.03405,0.98075,-0.19223,0.20391,0.1903,0.23787
-0.04322,0.98833,-0.14603,0.02781,0.11148,0.20085
-0.05648,0.99275,-0.10607,-0.2273,-0.1448,0.24604
-0.07891,0.99426,-0.0722,-0.30627,-0.57533,0.22787
-0.09983,0.99394,-0.04593,-0.1508,-0.92127,0.1393
-0.11021,0.99351,-0.02774,0.02558,-0.91833,0.14778
-0.11568,0.99317,-0.01464,0.11155,-0.8082,0.21596
-0.11876,0.9929,-0.00487,0.12134,-0.76207,0.19321
-0.12067,0.99268,0.00173,0.12089,-0.78313,0.19232
-0.12166,0.99256,0.00014,0.11533,-0.82498,0.26119
-0.12221,0.99243,-0.01165,-0.00634,-0.6183,0.42514
-0.12404,0.99195,-0.02509,-0.20728,-0.34588,0.64767
-0.13007,0.99085,-0.03564,-0.2549,0.01203,0.61555
-0.13626,0.98991,-0.03871,0.03016,0.76554,0.49383
-0.13858,0.99018,-0.01815,0.03584,1.11361,0.99388
-0.14332,0.98966,0.00315,0.11915,0.41305,1.05091
-0.14299,0.98967,0.00944,0.31986,0.48056,0.5914
-0.13343,0.99082,0.02121,0.02849,0.58425,0.44129
-0.12144,0.99209,0.03134,0.18638,0.17238,0.20406
-0.1131,0.99299,0.03414,0.28267,-0.11828,-0.10621
-0.11085,0.9933,0.03229,0.23677,-0.15587,-0.25564
-0.11374,0.99324,0.02273,-0.06317,0.13829,-0.00337
-0.1187,0.99289,-0.00837,-0.31742,0.39347,-0.03063
-0.12075,0.99132,-0.05188,-0.23196,0.03044,0.07782
-0.11331,0.98902,-0.09475,-0.08506,-0.37847,0.05985
-0.09871,0.98577,-0.13598,0.18555,-0.4562,0.14234
-0.0813,0.98082,-0.1771,0.32295,-0.44176,0.28044
-0.06149,0.97426,-0.21683,0.26516,-0.43149,0.29719
-0.04078,0.96642,-0.25367,0.16859,-0.35525,0.23856
-0.02028,0.95771,-0.28698,0.02865,-0.36203,0.25994
0.00285,0.94842,-0.31699,-0.0638,-0.2774,0.30673
