gravity.x,gravity.y,gravity.z,userAcceleration.x,userAcceleration.y,userAcceleration.z
0.22911,-0.95049,0.20988,-0.20711,0.1016,-0.46751
0.21987,-0.9557,0.19562,-0.24811,0.31961,-0.47144
0.20296,-0.96228,0.18108,-0.07137,0.12854,-0.4629
0.1776,-0.97044,0.16335,-0.04601,0.1367,-0.44517
0.15168,-0.97772,0.14502,-0.01853,-0.24985,-0.15433
0.14376,-0.98145,0.12679,-0.00229,0.10322,-0.16875
0.15062,-0.98322,0.10275,-0.00916,0.10501,-0.14471
0.15682,-0.98461,0.07699,-0.19432,0.36661,-0.11775
0.15567,-0.98646,0.05135,-0.18748,0.2521,-0.08585
0.14517,-0.9891,0.02415,-0.17783,0.03555,-0.12399
0.13135,-0.99132,-0.00313,-0.03017,-0.00651,-0.10567
0.11957,-0.99249,-0.02544,0.14098,0.13174,-0.05057
0.11037,-0.99288,-0.04452,0.10538,0.15644,-0.00893
0.1012,-0.99278,-0.06424,-0.04784,0.13357,0.0689
0.08924,-0.99248,-0.08368,-0.04738,0.10848,0.03535
0.07466,-0.99189,-0.10277,0.03246,0.08181,0.05606
0.06018,-0.99082,-0.12098,0.17306,0.03182,0.09098
0.0468,-0.98917,-0.13908,0.23698,0.03776,0.06417
0.0324,-0.98729,-0.15551,0.25975,0.01729,0.13365
0.01741,-0.98538,-0.16944,0.18624,0.02037,0.0853
0.00328,-0.98399,-0.17817,0.15073,-2e-05,-0.02508
-0.00923,-0.98312,-0.18269,0.21316,-0.02193,0.03523
-0.01918,-0.98232,-0.18617,0.52276,0.13674,0.01105
-0.02403,-0.98162,-0.18927,0.58657,0.12898,0.03685
-0.02293,-0.98119,-0.19165,0.64872,0.05274,0.05318
-0.01351,-0.98091,-0.19393,0.44715,-0.13585,-0.24067
0.00802,-0.98062,-0.19573,0.06819,-0.14541,-0.30345
0.03611,-0.98047,-0.19326,0.10066,-0.53379,-0.22414
0.0616,-0.98145,-0.18149,-0.27082,-0.30972,-0.26519
0.08599,-0.984,-0.15598,-0.51877,-0.40031,-0.16884
0.10591,-0.98724,-0.11881,-0.64767,-0.51669,-0.16886
0.12811,-0.98861,-0.07882,-0.69533,-0.55205,-0.02387
0.1566,-0.98663,-0.04496,-0.30379,-0.42815,0.09643
0.18299,-0.98301,-0.01353,-0.00916,-0.22689,0.09801
0.20623,-0.97831,0.019,0.20539,-0.1006,0.05982
0.23008,-0.97149,0.05705,0.22257,-0.00161,-0.00105
0.25373,-0.9622,0.09885,0.09032,0.15733,0.02831
0.27495,-0.95268,0.12953,0.13411,0.19017,-0.00399
0.29104,-0.94358,0.15791,-0.00139,0.23606,-0.09873
0.2998,-0.93499,0.18947,-0.11122,0.15277,-0.14805
0.30338,-0.92696,0.22065,-0.18031,0.12807,-0.27848
0.30462,-0.9196,0.24804,-0.21667,0.145,-0.29256
0.3053,-0.91363,0.26842,-0.30139,0.27979,-0.25643
0.30222,-0.90998,0.28384,-0.2934,0.41253,-0.21527
0.29431,-0.90935,0.294,-0.26359,0.45395,-0.20491
0.28345,-0.91139,0.29831,-0.25901,0.43392,-0.23191
0.27361,-0.91571,0.29426,-0.1786,0.27408,-0.1382
0.26454,-0.92183,0.28324,-0.08977,0.18779,-0.02971
0.25341,-0.92873,0.2706,-0.01174,0.16911,0.01776
0.23966,-0.93541,0.2599,0.14552,0.22104,0.19758
0.22395,-0.94084,0.25425,0.14073,0.11372,0.1813
0.21528,-0.94334,0.25248,0.1906,-0.34319,0.08846
0.22402,-0.93986,0.2578,0.24461,-0.89282,0.25311
0.23941,-0.93237,0.27084,0.08547,-0.44961,0.51611
0.24669,-0.92733,0.28139,-0.01349,0.12709,0.53971
0.24701,-0.92898,0.27559,-0.0396,0.23507,0.4349
0.24028,-0.93445,0.26274,0.1019,-0.62887,-0.17097
0.2302,-0.93646,0.26462,-0.10201,-0.68515,-0.26166
0.22641,-0.9386,0.26026,-0.20023,-0.45443,-0.08628
0.22636,-0.93946,0.25719,-0.19387,0.33001,-0.36671
0.22919,-0.94156,0.2468,-0.25234,0.31786,-0.3785
0.22337,-0.94676,0.23177,-0.18784,0.02353,-0.53269
0.20643,-0.95517,0.21217,-0.19394,0.11728,-0.52694
0.18193,-0.96485,0.1896,-0.10664,0.06247,-0.48672
0.15741,-0.97318,0.16771,-0.01721,-0.09001,-0.36064
0.14719,-0.97755,0.15072,-0.13999,0.02149,-0.16697
0.15398,-0.97936,0.13084,-0.13189,0.11013,-0.20718
0.16238,-0.98085,0.10747,-0.26281,0.26756,-0.22334
0.16641,-0.98239,0.08487,-0.24804,0.26478,-0.13893
0.16492,-0.98439,0.06133,-0.20212,0.1782,-0.05087
0.15957,-0.98655,0.03513,0.04145,-0.01208,-0.11366
0.15369,-0.98805,0.0105,0.04733,-0.01057,-0.08902
0.14668,-0.98914,-0.00777,0.1801,0.14372,0.01967
0.1381,-0.99014,-0.02301,0.14745,0.21242,0.08056
0.12929,-0.99077,-0.04058,0.16028,0.13612,0.10543
0.11951,-0.99105,-0.05932,0.18277,0.1085,0.09188
0.10837,-0.99115,-0.07654,0.16667,0.14085,0.13501
0.096,-0.99099,-0.09327,0.15488,0.16746,0.11593
0.08397,-0.99085,-0.1056,0.15519,0.12349,0.11195
0.06882,-0.99071,-0.11723,0.06256,0.12122,0.02084
0.05357,-0.99039,-0.12747,0.10216,0.0161,-0.02817
0.03776,-0.98936,-0.14046,0.05994,-0.07378,-0.00716
0.02162,-0.9879,-0.15352,0.15424,-0.07852,-0.00705
0.0066,-0.98632,-0.16467,0.29833,-0.05207,-0.0166
-0.00401,-0.98464,-0.17453,0.43899,-0.01671,0.02382
-0.00961,-0.98345,-0.1809,0.43268,-0.07608,-0.07989
-0.00775,-0.98267,-0.18517,0.40075,-0.28865,-0.02073
0.00433,-0.98266,-0.1853,0.06921,-0.32738,-0.12955
0.02133,-0.98351,-0.17953,0.19782,-0.24311,-0.1941
0.04284,-0.98603,-0.16089,-0.17605,-0.15398,-0.08512
0.06608,-0.99001,-0.12445,-0.28868,-0.17236,-0.12744
0.093,-0.99235,-0.08102,-0.39399,-0.43697,0.02891
0.12601,-0.99123,-0.03952,-0.44421,-0.75343,0.08499
0.16041,-0.98698,-0.01063,-0.47862,-0.75768,0.05611
0.1891,-0.98183,0.0154,0.12729,-0.21059,0.02697
0.21369,-0.97583,0.04561,0.24316,-0.07573,0.03419
0.23712,-0.96835,0.07778,0.22629,-0.02528,0.00445
0.25814,-0.9597,0.11093,0.12107,0.11399,-0.04917
0.27648,-0.95031,0.14297,-0.05621,0.23028,-0.04597
0.29145,-0.94067,0.17371,-0.11431,0.23853,-0.0876
0.29943,-0.93185,0.20487,-0.26425,0.26088,-0.17417
0.30059,-0.92381,0.23705,-0.17208,0.11166,-0.30111
0.30079,-0.91607,0.26517,-0.25181,0.14646,-0.34397
0.29934,-0.90993,0.28706,-0.25541,0.26558,-0.2942
0.29584,-0.90672,0.30052,-0.28361,0.38614,-0.25489
0.28677,-0.90737,0.30726,-0.29402,0.46737,-0.24898
0.27113,-0.91179,0.30839,-0.19306,0.39252,-0.24981
0.25496,-0.91925,0.29993,-0.11732,0.36659,-0.16721
0.24054,-0.92883,0.28176,-0.02007,0.32866,-0.01241
0.22451,-0.93902,0.2604,0.09199,0.22067,0.19031
0.20429,-0.94774,0.245,0.05254,-0.17364,0.1931
0.18434,-0.95202,0.24424,0.23058,-0.30883,0.07807
0.18241,-0.95116,0.24899,0.32717,-0.98515,0.22743
0.2011,-0.94407,0.26129,0.10489,-0.9192,0.50972
0.21665,-0.93551,0.27904,0.02696,-0.31492,0.57388
0.22267,-0.93263,0.28387,-0.17223,0.51143,0.43454
0.22643,-0.93543,0.27144,0.36813,-0.32698,-0.13325
0.22224,-0.9355,0.27464,-0.03853,-0.72464,-0.23436
0.22069,-0.93575,0.27504,-0.19424,-0.59114,-0.18796
0.22648,-0.93693,0.26617,-0.302,0.45402,-0.32496
0.23593,-0.93866,0.25145,-0.25194,0.27455,-0.44402
0.23571,-0.9438,0.23164,-0.23877,0.01283,-0.6337
0.2161,-0.95252,0.21443,-0.20258,0.03994,-0.58714
0.18314,-0.96349,0.19524,-0.01072,-0.0594,-0.41352
0.14925,-0.97362,0.17252,-0.09877,-0.19223,-0.2419
0.13042,-0.97955,0.15313,-0.15856,-0.12136,-0.15578
0.13199,-0.98193,0.13553,-0.17554,0.15387,-0.20139
0.1385,-0.98386,0.11318,-0.23982,0.40049,-0.30517
0.14031,-0.98641,0.08541,-0.22975,0.30976,-0.12666
0.13535,-0.98933,0.05375,-0.08926,0.01801,-0.15174
0.12501,-0.9919,0.02191,0.10291,-0.0377,-0.19497
0.11505,-0.99332,-0.00737,0.18389,0.11759,-0.06625
0.10447,-0.99405,-0.03039,0.14461,0.20543,0.03371
0.09143,-0.99456,-0.04976,0.11513,0.13848,0.0301
0.07893,-0.99448,-0.06905,0.11698,0.08272,0.03463
0.06833,-0.99399,-0.0854,0.20849,0.11394,0.0797
0.06015,-0.99343,-0.0973,0.23134,0.18045,0.04487
0.05349,-0.99247,-0.11007,0.20289,0.16534,0.06321
0.04621,-0.99115,-0.12441,0.14929,0.13142,0.10006
0.03771,-0.99009,-0.13519,0.0597,0.00474,0.06415
0.02709,-0.98924,-0.14374,0.05309,-0.15699,-0.00479
0.01597,-0.98828,-0.15174,0.10888,-0.17552,-0.03561
0.0032,-0.98743,-0.15795,0.28417,0.02219,-0.01321
-0.00859,-0.98661,-0.16282,0.53293,0.07819,0.02246
-0.01467,-0.98569,-0.16787,0.59351,0.01802,0.02829
-0.01575,-0.98486,-0.17259,0.58513,-0.19674,0.04416
-0.00392,-0.98365,-0.18001,0.41215,-0.16534,-0.29485
0.01353,-0.98249,-0.18576,0.03637,-0.40534,-0.23365
0.03566,-0.98232,-0.18373,-0.17944,-0.23435,-0.2197
0.05947,-0.9843,-0.16615,-0.41057,-0.25301,-0.17078
0.08008,-0.98826,-0.13007,-0.49928,-0.29255,-0.15857
0.09939,-0.99169,-0.08154,-0.56541,-0.33807,-0.05266
0.12451,-0.9915,-0.03745,-0.35025,-0.54094,0.13038
0.15548,-0.98782,-0.00486,-0.12654,-0.46648,0.11826
0.18379,-0.98252,0.02908,0.17771,-0.18793,0.04801
0.20944,-0.97575,0.06342,0.31168,-0.07947,0.04289
0.23365,-0.96741,0.09745,0.26572,-0.05839,0.01943
0.25554,-0.95766,0.13255,0.16121,0.10916,0.00058
0.27394,-0.9474,0.16542,0.08721,0.24631,-0.08197
0.28474,-0.93791,0.19803,-0.00828,0.25249,-0.09062
0.29269,-0.92917,0.2257,-0.17692,0.19065,-0.16567
0.29584,-0.92139,0.252,-0.23132,0.15921,-0.35985
0.29558,-0.91468,0.27563,-0.28524,0.21848,-0.35809
0.29365,-0.9094,0.2945,-0.2276,0.32626,-0.31612
0.29102,-0.90616,0.30684,-0.27283,0.48925,-0.24211
0.28396,-0.90604,0.31375,-0.26428,0.49765,-0.27304
0.27291,-0.90921,0.31438,-0.21219,0.41177,-0.21993
0.26123,-0.91545,0.30608,-0.16864,0.38553,-0.16434
0.24984,-0.92385,0.28992,0.01721,0.28217,0.03746
0.23662,-0.93288,0.27151,0.08127,0.0729,0.17286
0.2191,-0.94065,0.25914,0.13129,-0.02674,0.21467
0.20817,-0.94551,0.25032,0.36735,-0.16408,0.17212
0.20855,-0.94675,0.24525,0.29014,-1.00944,0.27304
0.22024,-0.94153,0.25493,0.19852,-0.88333,0.42242
0.22977,-0.93382,0.27413,-0.02615,-0.41717,0.56618
0.23428,-0.93207,0.27629,0.12108,-0.56558,-0.0797
0.23455,-0.93547,0.26432,-0.12983,-0.77053,-0.18514
0.22701,-0.93576,0.2698,0.0192,-0.87465,-0.31797
0.22376,-0.93619,0.27103,-0.18811,0.0526,-0.17766
0.23364,-0.93361,0.27159,-0.29151,0.44633,-0.37625
0.24727,-0.93421,0.25706,-0.34103,0.34,-0.29228
0.24038,-0.93968,0.24329,-0.31472,0.33758,-0.57033
0.21627,-0.94855,0.2312,-0.21612,0.18056,-0.5345
0.18009,-0.96044,0.21236,-0.03647,-0.00605,-0.49911
0.14355,-0.97175,0.18729,0.03635,-0.53947,-0.22038
0.12768,-0.97822,0.1636,-0.03705,-0.00358,-0.05942
0.13203,-0.98091,0.14269,-0.01658,0.2166,-0.09047
0.13467,-0.98317,0.12339,-0.10757,0.38234,-0.15972
0.13246,-0.98588,0.10236,-0.1198,0.34525,-0.06579
0.12482,-0.98926,0.07585,-0.09528,0.31873,-0.0506
0.1121,-0.99275,0.04317,0.14184,0.13342,-0.08478
0.10098,-0.9948,0.01242,0.23901,0.09626,-0.04958
0.09346,-0.99553,-0.01264,0.22435,0.11327,-0.05679
0.08378,-0.99585,-0.03539,0.03618,0.14032,0.02882
0.07238,-0.99572,-0.05732,0.07867,0.15279,0.1323
0.06021,-0.99533,-0.07539,0.19995,0.23727,0.06538
0.04899,-0.99483,-0.08885,0.238,0.19876,0.08402
0.03989,-0.99391,-0.10263,0.12677,0.02238,0.11206
0.0296,-0.99283,-0.11578,0.16968,-0.03269,0.08422
0.01629,-0.9917,-0.12748,0.2657,-0.06999,-0.06284
0.00225,-0.99028,-0.13898,0.25278,-0.05505,-0.02964
-0.01202,-0.98884,-0.14843,0.35667,-0.02614,-0.0312
-0.02298,-0.98749,-0.15597,0.52881,0.03062,-0.0375
-0.02878,-0.98633,-0.1622,0.53847,-0.05452,-0.00254
-0.03057,-0.98549,-0.16693,0.54035,-0.13961,0.00845
-0.02144,-0.98503,-0.17099,0.21865,-0.13893,-0.38486
7e-05,-0.98565,-0.16877,-0.06491,-0.41097,-0.19873
0.03186,-0.98737,-0.15516,-0.15533,-0.47903,-0.17368
0.06631,-0.98925,-0.13023,-0.44348,-0.50827,-0.26502
0.09607,-0.99096,-0.09357,-0.61642,-0.63761,-0.01174
0.12497,-0.99071,-0.0534,-0.53259,-0.61972,0.09959
0.15615,-0.9875,-0.02089,-0.00326,-0.27727,0.02368
0.1809,-0.9834,0.01304,0.07616,-0.21897,0.05657
0.20145,-0.97789,0.05598,0.15189,-0.14934,0.0875
0.22468,-0.96973,0.09546,0.02363,0.09121,-0.00589
0.25047,-0.95961,0.12802,0.11252,0.16516,-0.05803
0.27478,-0.94856,0.1572,0.13674,0.12701,-0.13381
0.29217,-0.9375,0.18897,-0.07535,0.06663,-0.11062
0.30544,-0.92646,0.21987,-0.10463,0.05616,-0.18211
0.31508,-0.91622,0.24747,-0.15396,0.08367,-0.27475
0.32201,-0.90708,0.27108,-0.34485,0.40452,-0.33648
0.32293,-0.90072,0.2905,-0.37255,0.50175,-0.30619
0.31696,-0.89793,0.30533,-0.35993,0.51793,-0.28997
0.30339,-0.89915,0.31536,-0.31432,0.52215,-0.2535
0.28389,-0.90492,0.317,-0.21648,0.46011,-0.19194
0.2631,-0.91464,0.30689,-0.13708,0.42473,-0.14646
0.24476,-0.92561,0.28863,0.0996,0.27389,0.0732
0.22897,-0.93512,0.27035,0.12186,0.12285,0.2456
0.21315,-0.94253,0.25726,0.07943,0.03521,0.29239
0.20238,-0.94652,0.25121,0.21506,-0.81985,0.26185
0.20457,-0.94501,0.25511,0.15846,-1.13454,0.32346
0.21581,-0.93867,0.26888,0.18685,-1.01365,0.352
0.22178,-0.93402,0.28,0.0828,0.56533,0.32982
0.22781,-0.93512,0.27134,0.43702,-0.19653,-0.23705
0.23021,-0.93365,0.27437,0.03088,-0.97479,-0.39857
0.22605,-0.93426,0.27574,-0.30459,-0.54391,-0.4595
0.22493,-0.93981,0.25718,-0.45242,0.13709,-0.21232
0.22643,-0.94227,0.24664,-0.34496,0.33116,-0.3498
0.21893,-0.94367,0.24807,-0.19532,-0.184,-0.50202
0.20501,-0.94795,0.24359,-0.05137,0.15506,-0.52134
0.18724,-0.95651,0.2236,-0.01486,0.18176,-0.44516
0.16946,-0.96674,0.19151,-0.04362,0.00484,-0.3585
0.15603,-0.97463,0.16038,-0.34968,-0.13525,-0.14308
0.15094,-0.97854,0.14018,-0.29274,-0.06528,-0.16896
0.15452,-0.98056,0.12086,-0.19308,0.17091,-0.23307
0.15755,-0.98298,0.09441,-0.03287,0.28011,-0.20713
0.16055,-0.98482,0.06579,-0.03621,0.23612,-0.09771
0.15705,-0.98698,0.03431,-0.03484,0.09901,-0.04702
0.14713,-0.9891,0.00393,0.01443,0.00768,-0.13631
0.13537,-0.9906,-0.01887,0.05062,0.05724,-0.06579
0.12209,-0.99177,-0.03831,0.11558,0.18626,0.04802
0.10583,-0.9927,-0.05778,0.16091,0.17469,0.10949
0.08692,-0.99333,-0.07569,0.17446,0.19975,0.0989
0.06796,-0.99364,-0.08964,0.21632,0.2015,0.13618
0.05096,-0.99331,-0.10353,0.14057,0.10973,0.13735
0.03539,-0.99264,-0.11571,0.11213,0.06442,0.11452
0.01963,-0.99193,-0.12515,0.24728,0.01861,0.01236
0.00426,-0.99087,-0.13465,0.30398,0.02618,0.05841
-0.00926,-0.98978,-0.14222,0.26306,-0.00816,0.08765
-0.02034,-0.98897,-0.14667,0.41486,0.09404,0.03464
-0.02593,-0.98829,-0.15032,0.48059,-0.0109,0.01207
-0.02573,-0.98808,-0.15172,0.60228,-0.10558,-0.00304
-0.0133,-0.9883,-0.15188,0.2662,-0.26152,-0.22054
0.0125,-0.98915,-0.14634,0.06044,-0.27837,-0.26029
0.04179,-0.99053,-0.13068,-0.0925,-0.29552,-0.18825
0.0714,-0.99269,-0.09717,-0.49452,-0.66407,-0.23155
0.09898,-0.99355,-0.05517,-0.58234,-0.84021,-0.07387
0.13011,-0.99129,-0.01992,-0.36865,-0.73735,0.04838
0.16323,-0.98653,0.00958,-0.06058,-0.31698,0.00886
0.19375,-0.98021,0.04043,0.03316,-0.19474,-0.0069
0.21913,-0.97308,0.07126,0.11662,-0.14975,0.05676
0.23975,-0.9655,0.1015,0.15809,-0.01396,0.00989
0.26037,-0.95628,0.13307,-0.02405,0.10747,-0.10565
0.27758,-0.94555,0.16988,-0.09596,0.23827,-0.14113
0.2877,-0.93513,0.20672,-0.1127,0.28564,-0.12278
0.29295,-0.92694,0.23439,0.02051,0.20036,-0.274
0.29582,-0.91909,0.26028,-0.15805,0.31618,-0.3965
0.29338,-0.91258,0.28479,-0.3125,0.48078,-0.39583
0.28551,-0.90885,0.30407,-0.32935,0.47771,-0.36744
0.27475,-0.9082,0.31568,-0.33759,0.4797,-0.30335
0.26036,-0.9114,0.31864,-0.34578,0.50126,-0.2072
0.24402,-0.9183,0.3117,-0.26,0.46543,-0.1453
0.22559,-0.928,0.29647,-0.02009,0.38729,-0.08245
0.20563,-0.93876,0.27645,0.10741,0.28684,0.09248
0.18753,-0.94819,0.25641,0.17656,-0.22416,0.3593
0.17384,-0.95412,0.24375,0.27493,-0.46329,0.30634
0.17026,-0.95421,0.24592,0.21622,-1.07233,0.31443
0.1805,-0.94828,0.26106,0.14659,-1.07189,0.30686
0.18768,-0.9408,0.28221,0.18701,0.07862,0.48206
0.19109,-0.93939,0.28462,0.00294,0.41447,0.21489
0.19843,-0.94052,0.27573,-0.01304,-0.90876,-0.46989
0.20068,-0.93733,0.2848,-0.22887,-0.8652,-0.5599
0.19992,-0.9403,0.27541,-0.41955,-0.17768,-0.26944
0.20545,-0.9433,0.26067,-0.25257,0.40424,-0.32034
0.20949,-0.94471,0.25219,-0.23008,0.23881,-0.40257
0.20454,-0.9457,0.25258,-0.1155,-0.10588,-0.50914
0.19039,-0.95091,0.2439,0.03933,0.15418,-0.44034
0.17341,-0.96016,0.21909,0.05976,0.14747,-0.38497
0.16137,-0.969,0.18704,-0.20732,-0.14198,-0.20518
0.15676,-0.97476,0.15887,-0.25649,-0.15405,-0.12986
0.15879,-0.9778,0.13663,-0.19915,0.00899,-0.21071
0.16169,-0.98055,0.11112,-0.02188,0.25346,-0.25316
0.1629,-0.98343,0.07935,-0.04642,0.25768,-0.14675
0.15975,-0.98603,0.04683,-0.06489,0.21116,-0.0752
0.1511,-0.98833,0.01902,-0.00304,0.06207,-0.08756
0.14223,-0.98981,-0.00398,0.00964,0.05158,-0.10245
0.13101,-0.991,-0.02705,-0.01964,0.16515,-0.06189
0.11435,-0.99227,-0.04798,0.09767,0.11593,0.05295
0.0955,-0.99323,-0.06604,0.17875,0.12477,0.0296
0.07755,-0.99364,-0.08151,0.22226,0.14246,0.02252
0.06019,-0.99367,-0.09471,0.15298,0.12687,0.13116
0.04194,-0.99343,-0.10641,0.16528,0.01581,0.18128
0.02302,-0.99276,-0.11781,0.19972,0.0129,0.10371
0.00524,-0.99171,-0.12831,0.30511,0.04907,0.05452
-0.0107,-0.99055,-0.13667,0.33919,0.07943,-0.00425
-0.02261,-0.98958,-0.14216,0.43432,0.17039,-0.02034
-0.02796,-0.98874,-0.14695,0.40523,0.03363,0.02286
-0.0258,-0.98787,-0.15307,0.54243,-0.11824,-0.0983
-0.01518,-0.9878,-0.15493,0.13153,-0.19209,-0.21625
0.00674,-0.98915,-0.14666,0.11495,-0.36407,-0.23994
0.03801,-0.99095,-0.12867,-0.10663,-0.35864,-0.23668
0.06821,-0.99258,-0.10054,-0.41414,-0.61589,-0.30537
0.09597,-0.99347,-0.06148,-0.54139,-0.88571,-0.14525
0.12863,-0.9914,-0.0238,-0.42727,-0.96917,0.07287
0.16174,-0.98681,0.00459,-0.07727,-0.46253,0.10211
0.19082,-0.98107,0.03269,0.09092,-0.20602,-0.0037
0.21688,-0.97412,0.06353,0.20064,-0.07418,0.03986
0.2405,-0.96584,0.09638,0.27743,0.07135,-0.02348
0.26403,-0.95556,0.13104,0.15804,0.14139,-0.12012
0.2805,-0.94508,0.16768,0.01129,0.28578,-0.21921
0.2875,-0.93514,0.20697,-0.00038,0.3096,-0.23184
0.29132,-0.92684,0.23682,-0.22897,0.36305,-0.31226
0.28722,-0.92093,0.26336,-0.29514,0.38741,-0.38164
0.27455,-0.91679,0.28997,-0.28235,0.30186,-0.38689
0.26397,-0.91341,0.3098,-0.28435,0.24242,-0.33286
0.25625,-0.91187,0.32064,-0.29302,0.29276,-0.25795
0.24959,-0.91244,0.32422,-0.28892,0.34584,-0.24314
0.23921,-0.91615,0.32158,-0.21266,0.45081,-0.20811
0.22385,-0.92429,0.30911,-0.02848,0.39443,-0.03337
0.20541,-0.93514,0.28861,0.04926,0.31475,0.08006
0.18754,-0.94499,0.26797,0.10389,0.07197,0.30657
0.17471,-0.95052,0.25683,0.30041,-0.41554,0.16367
0.1717,-0.95113,0.25661,0.38195,-0.67696,0.16767
0.18182,-0.94782,0.26181,0.18386,-0.89764,0.34573
0.19314,-0.94119,0.27718,0.13549,-0.59879,0.35946
0.19602,-0.93804,0.28571,-0.22908,0.18859,0.48549
0.19479,-0.94068,0.27777,-0.02554,-0.83151,-0.4458
0.19181,-0.93925,0.28458,-0.24401,-0.76563,-0.44454
0.19774,-0.93896,0.28148,-0.27053,-0.25715,-0.18826
0.20527,-0.93897,0.276,-0.27682,0.44277,-0.37233
0.20756,-0.94014,0.27024,-0.16366,0.06529,-0.53321
0.20051,-0.94312,0.26514,-0.13668,-0.09239,-0.61512
0.18291,-0.94975,0.25395,0.01909,0.08109,-0.46922
0.1615,-0.9602,0.22784,0.05014,0.0848,-0.40174
0.14722,-0.97012,0.19279,-0.04413,-0.06415,-0.2795
0.14404,-0.97555,0.1659,-0.17891,0.01871,-0.07352
0.15078,-0.97786,0.145,-0.18909,0.08986,-0.11538
0.15907,-0.98037,0.11635,-0.1039,0.28027,-0.2487
0.16172,-0.98352,0.08075,-0.08147,0.25885,-0.19926
0.15679,-0.98648,0.04737,-0.04086,0.12491,-0.10235
0.14501,-0.98923,0.01929,0.00068,0.05431,-0.07314
0.13228,-0.99117,-0.00743,0.01084,0.11468,-0.05993
0.11891,-0.9924,-0.03129,0.03125,0.22035,-0.03336
0.10266,-0.9934,-0.05103,0.08481,0.17371,0.06052
0.08384,-0.99396,-0.07066,0.15269,0.15384,0.09473
0.06413,-0.99378,-0.09093,0.23286,0.15929,0.05117
0.04473,-0.99322,-0.10718,0.26417,0.19108,0.12087
0.02636,-0.99241,-0.12003,0.28031,0.06843,0.23006
0.00956,-0.99103,-0.13322,0.24007,0.02584,0.0344
-0.00585,-0.989,-0.14773,0.25429,-0.01057,-0.01481
-0.01999,-0.9874,-0.15692,0.29304,-0.01652,0.00249
-0.03106,-0.98627,-0.16214,0.38235,0.04772,-0.02806
-0.03601,-0.98527,-0.16711,0.40471,0.02435,0.02189
-0.03385,-0.98481,-0.17024,0.58594,-0.17625,-0.0795
-0.02187,-0.98508,-0.17062,0.08202,-0.30444,-0.2799
0.00486,-0.98702,-0.16046,0.03301,-0.45178,-0.26082
0.03919,-0.99111,-0.12707,-0.22656,-0.56071,-0.12694
0.0705,-0.99435,-0.07917,-0.43735,-0.59584,-0.10125
0.09725,-0.99456,-0.03687,-0.49931,-0.73604,-0.08946
0.1271,-0.99187,-0.00284,-0.39067,-0.88952,0.08798
0.15906,-0.98685,0.02843,-0.01128,-0.36011,0.00037
0.18846,-0.98031,0.05878,0.08495,-0.14835,-0.05251
0.21387,-0.97247,0.09235,0.19473,-0.10353,0.03619
0.23553,-0.9636,0.12641,0.16761,0.02639,-0.01987
0.25552,-0.95342,0.16023,-0.03263,0.15398,-0.12907
0.2694,-0.94306,0.19503,-0.03211,0.20896,-0.18916
0.27991,-0.93254,0.22802,-0.0364,0.21425,-0.22491
0.28534,-0.92277,0.25892,-0.12575,0.20579,-0.30735
0.28605,-0.91361,0.28889,-0.19261,0.27724,-0.40002
0.28249,-0.90657,0.31352,-0.27942,0.36818,-0.43389
0.27487,-0.90252,0.33147,-0.41193,0.51074,-0.40961
0.25923,-0.90279,0.34314,-0.32583,0.56445,-0.3867
0.24108,-0.9072,0.34472,-0.26849,0.51136,-0.28083
0.22378,-0.91514,0.33527,-0.24089,0.49725,-0.21832
0.20763,-0.92519,0.31763,-0.0676,0.43274,-0.05896
0.19276,-0.93427,0.29994,0.02782,0.11288,0.21262
0.17734,-0.94037,0.29023,0.02142,-0.03589,0.28174
0.16884,-0.94237,0.28881,0.26007,-1.00858,0.26478
0.17428,-0.94003,0.29315,0.22374,-1.15347,0.30759
0.18578,-0.93371,0.30602,0.17029,-0.99957,0.3279
0.18801,-0.92819,0.32108,0.08536,0.79113,0.56074
0.18934,-0.9314,0.31084,0.1878,0.23573,-0.19118
0.19113,-0.9328,0.3055,0.44329,-0.52074,-0.3902
0.19094,-0.92806,0.31972,-0.35724,-1.12092,-0.63069
0.18642,-0.93458,0.30295,-0.51276,-0.04368,-0.09488
0.18371,-0.9369,0.29738,-0.4342,0.37071,-0.25614
0.18433,-0.936,0.29984,-0.09336,0.10888,-0.43712
0.18377,-0.93753,0.29535,0.11694,-0.10933,-0.57835
0.17573,-0.94551,0.27406,0.25773,0.11505,-0.44502
0.16056,-0.95669,0.24278,0.03707,-0.03901,-0.37824
0.14698,-0.96588,0.21318,-0.10598,-0.07436,-0.25743
0.14075,-0.97179,0.18915,-0.22636,-0.1106,-0.14241
0.14416,-0.9754,0.16672,-0.21844,0.12957,-0.24297
0.15187,-0.97902,0.13572,-0.16287,0.3855,-0.17713
0.15496,-0.983,0.09838,-0.13982,0.39376,-0.14106
0.14896,-0.98695,0.06092,-0.17141,0.15152,-0.12203
0.1368,-0.99017,0.0287,-0.11987,0.0596,-0.15936
0.12497,-0.99214,0.00325,-0.06274,0.04511,-0.12758
0.11184,-0.99354,-0.01852,0.01791,0.16644,-0.00715
0.09678,-0.99454,-0.03879,0.06528,0.14198,0.09496
0.08033,-0.99511,-0.05732,0.09771,0.08664,0.12516
0.0625,-0.99546,-0.07157,0.29978,0.16206,0.13621
0.04515,-0.99562,-0.08165,0.31198,0.0495,0.13574
0.02812,-0.99552,-0.09015,0.25499,0.04348,0.06583
0.012,-0.995,-0.09908,0.17907,0.08966,-0.02222
-0.00379,-0.99397,-0.10949,0.22187,0.04444,-0.03959
-0.01784,-0.99293,-0.11724,0.36559,0.12216,-0.11119
-0.02544,-0.99204,-0.12323,0.436,0.05292,0.04909
-0.02532,-0.99131,-0.12899,0.44119,-0.12708,-0.12509
-0.01704,-0.99102,-0.13256,0.35814,-0.36276,-0.15168
0.00452,-0.992,-0.12603,0.09942,-0.33426,-0.27135
0.03397,-0.99415,-0.10236,-0.03251,-0.44905,-0.10374
0.06361,-0.99589,-0.0643,-0.38408,-0.51903,-0.26587
0.09496,-0.9951,-0.02705,-0.39112,-0.68176,-0.23525
0.13154,-0.99128,0.00524,-0.32659,-0.95426,0.057
0.16777,-0.98524,0.03358,-0.27626,-0.85564,0.11395
0.19818,-0.97827,0.06072,-0.09279,-0.27761,-0.04251
0.2226,-0.9708,0.08929,0.04283,-0.15536,-0.00563
0.24198,-0.96288,0.11947,0.18106,0.06438,-0.04066
0.26295,-0.95271,0.15222,0.08453,0.1949,-0.14478
0.27998,-0.94182,0.18587,-0.08528,0.27546,-0.18376
0.28996,-0.93199,0.21744,-0.14199,0.28952,-0.19911
0.2942,-0.92315,0.24739,-0.31364,0.35574,-0.31482
0.29154,-0.91584,0.27607,-0.32492,0.35019,-0.36245
0.28421,-0.91027,0.301,-0.25125,0.41288,-0.36559
0.27659,-0.90614,0.31996,-0.24864,0.40722,-0.33113
0.26758,-0.9051,0.33041,-0.23874,0.42182,-0.31147
0.25644,-0.90806,0.33111,-0.17598,0.40337,-0.20634
0.24149,-0.91506,0.32298,-0.12257,0.43425,-0.08647
0.22299,-0.9258,0.30517,0.08997,0.41637,0.05766
0.20253,-0.93678,0.28528,0.22887,0.23518,0.20972
0.18076,-0.94543,0.27101,0.23813,-0.07851,0.14109
0.16601,-0.94999,0.26443,0.31174,-0.89683,0.19075
0.171,-0.94772,0.26933,0.10295,-1.37921,0.29712
0.18463,-0.93963,0.28804,0.19339,-0.66186,0.37545
0.19043,-0.9314,0.31016,-0.10741,0.43371,0.46587
0.19891,-0.92954,0.31041,0.12213,-0.06158,-0.17964
0.20112,-0.92499,0.32234,-0.3863,-0.75644,-0.3232
0.20017,-0.92553,0.3214,-0.39763,-0.05487,-0.11969
0.20017,-0.92693,0.31732,-0.25808,0.27187,-0.26889
0.19678,-0.92788,0.31667,-0.05986,0.30465,-0.37711
0.19523,-0.92877,0.31503,-0.00024,-0.22257,-0.59556
0.18985,-0.93461,0.3007,0.10094,-0.254,-0.62053
0.18198,-0.94489,0.27209,0.06611,-0.09509,-0.31472
0.17187,-0.95549,0.23971,-0.26761,0.06645,-0.25219
0.16426,-0.96311,0.2131,-0.25999,0.07407,-0.22558
0.16274,-0.96787,0.19162,-0.29015,0.1005,-0.21823
0.16485,-0.97287,0.1622,-0.1757,0.27617,-0.2459
0.16429,-0.97861,0.12372,-0.12346,0.32202,-0.24205
0.15662,-0.98399,0.08486,-0.07509,0.26196,-0.12616
0.14272,-0.98828,0.05386,0.05332,0.10043,-0.12064
0.1295,-0.99117,0.02789,0.11168,0.07275,-0.15001
0.1162,-0.9932,0.00379,-0.04041,0.2581,-0.01755
0.10204,-0.99461,-0.0178,-0.03595,0.24488,0.01258
0.08726,-0.99542,-0.03876,0.10081,0.13494,0.06476
0.07112,-0.99585,-0.05654,0.1881,0.17375,0.09347
0.05448,-0.99606,-0.06973,0.21919,0.15143,0.15033
0.03732,-0.99596,-0.08151,0.25054,-0.06953,0.15492
0.0188,-0.99558,-0.09191,0.15688,-0.09907,-0.04163
0.00086,-0.99487,-0.10102,0.20287,0.01422,-0.02135
-0.01517,-0.99395,-0.10868,0.36256,0.06525,-0.02755
-0.0255,-0.99288,-0.11623,0.58313,0.15725,-0.06823
-0.02783,-0.99232,-0.12046,0.60283,-0.11445,-0.15336
-0.02339,-0.9918,-0.12557,0.70239,-0.14201,-0.12137
-0.01,-0.99208,-0.12514,0.10423,-0.28659,-0.25582
0.01667,-0.99359,-0.11169,0.0715,-0.54793,-0.21214
0.04638,-0.99548,-0.08277,-0.34377,-0.53001,-0.37282
0.07091,-0.99656,-0.04266,-0.38188,-0.729,-0.25592
0.09927,-0.99505,-0.00201,-0.43843,-0.87632,-0.15211
0.13333,-0.99058,0.03071,-0.24946,-0.4899,0.07182
0.16557,-0.98441,0.05908,-0.10688,-0.25185,-0.04253
0.19446,-0.97684,0.08907,-0.06495,-0.22613,-0.06265
0.21726,-0.96862,0.12057,0.19585,-0.00637,-0.01201
0.23698,-0.95943,0.15264,0.16764,0.15253,-0.09768
0.2569,-0.94849,0.1853,0.06799,0.16884,-0.1355
0.27137,-0.9379,0.21601,-0.05511,0.24142,-0.15465
0.28031,-0.92847,0.24359,-0.10044,0.26265,-0.21961
0.28353,-0.92044,0.269,-0.13445,0.26125,-0.26761
0.2802,-0.91418,0.2928,-0.24478,0.39973,-0.40201
0.26918,-0.91047,0.31393,-0.29112,0.51057,-0.39286
0.25385,-0.91001,0.32772,-0.29453,0.53419,-0.37327
0.23638,-0.91297,0.33252,-0.29536,0.52921,-0.35394
0.21858,-0.91882,0.32858,-0.26272,0.44743,-0.19999
0.20112,-0.92697,0.31662,-0.18653,0.43444,-0.14619
0.18272,-0.93652,0.29919,-0.11081,0.41636,-0.09271
0.16639,-0.94526,0.28064,-0.02679,0.14648,0.09947
0.15199,-0.95053,0.27085,-0.05207,-0.1183,0.2877
0.14716,-0.95125,0.27097,0.0359,-0.36326,0.1376
0.15767,-0.94773,0.27732,0.34491,-1.40773,0.17762
0.176,-0.94001,0.29218,0.34561,-0.70278,0.41978
0.18286,-0.93457,0.30512,-0.08187,0.46369,0.4639
0.19135,-0.93506,0.29836,0.00473,-0.98334,-0.2555
0.19424,-0.93046,0.31062,-0.18412,-1.19218,-0.44801
0.2007,-0.92671,0.31765,-0.26223,-0.83841,-0.18512
0.2217,-0.92693,0.30269,-0.1796,0.58083,-0.41225
0.23101,-0.92829,0.29135,-0.32296,0.89594,-0.38104
0.22419,-0.92752,0.29902,-0.28165,0.42971,-0.44848
0.20924,-0.93361,0.29078,-0.17995,0.07225,-0.63379
0.17866,-0.94809,0.26299,0.15435,-0.59411,-0.54824
0.14414,-0.96236,0.23031,0.15766,-0.78429,-0.29165
0.13494,-0.96919,0.20597,-0.17385,-0.14357,-0.08108
0.14714,-0.97238,0.1811,-0.1281,0.14904,-0.11707
0.15611,-0.97632,0.14963,-0.21453,0.35181,-0.25713
0.15553,-0.98077,0.11779,-0.09062,0.4709,-0.33951
0.14899,-0.98513,0.08535,0.01568,0.24282,-0.09155
0.13528,-0.9895,0.05047,0.04416,0.15511,-0.03378
0.11935,-0.99265,0.01934,0.07457,0.06146,-0.10208
0.10727,-0.9942,-0.0056,6e-05,0.26423,-0.03245
0.09315,-0.99528,-0.02686,-0.03196,0.32128,0.04453
0.07512,-0.99608,-0.04639,0.00283,0.24002,0.0827
0.05617,-0.99615,-0.06705,0.14608,0.1971,0.07765
0.03611,-0.99572,-0.08492,0.22015,0.17899,0.12746
0.01785,-0.99493,-0.09885,0.27254,-0.01337,0.05913
0.00291,-0.99393,-0.10988,0.26599,-0.05574,0.02101
-0.01209,-0.99302,-0.11724,0.31577,-0.05091,0.05363
-0.0279,-0.99149,-0.12705,0.51109,0.10769,-0.02497
-0.03648,-0.99012,-0.13532,0.56288,0.09827,-0.02637
-0.03836,-0.98942,-0.13981,0.29872,-0.13727,0.0632
-0.03669,-0.98911,-0.14244,0.29963,-0.14285,-0.28467
-0.02966,-0.98997,-0.13806,0.35554,-0.169,-0.21462
-0.01056,-0.99327,-0.11519,0.1364,-0.13586,-0.27143
0.02577,-0.99583,-0.08736,-0.26306,-0.76886,-0.34781
0.06676,-0.99647,-0.0507,-0.87723,-1.24091,-0.19068
0.09836,-0.99511,-0.00737,-0.94008,-1.18288,-0.20332
0.13432,-0.9905,0.0289,-0.26593,-0.40058,-0.02019
0.16852,-0.98358,0.06431,-0.12232,-0.27634,-0.04929
0.19909,-0.97518,0.09675,-0.08978,-0.28692,-0.06099
0.22502,-0.96644,0.12382,0.15057,-0.05207,0.01976
0.24739,-0.95693,0.15181,0.23423,0.18107,-0.03411
0.26862,-0.94562,0.18332,0.13664,0.19817,-0.09732
0.28281,-0.93451,0.21601,-0.01449,0.19262,-0.13577
0.29117,-0.92449,0.24596,-0.0643,0.17254,-0.16801
0.29657,-0.91574,0.27097,-0.16292,0.18472,-0.27883
0.2979,-0.90853,0.29289,-0.22719,0.40502,-0.36958
0.29036,-0.90375,0.31447,-0.23122,0.66415,-0.35123
0.27563,-0.90228,0.33148,-0.22923,0.66214,-0.35948
0.25678,-0.90445,0.34058,-0.24868,0.65863,-0.3275
0.23504,-0.91065,0.33974,-0.22041,0.59818,-0.23057
0.21175,-0.92046,0.32844,-0.14626,0.55832,-0.1395
0.18836,-0.93193,0.30982,-0.0158,0.46585,0.03891
0.16628,-0.9413,0.29371,-0.00811,0.30367,0.10609
0.14988,-0.94507,0.29042,0.01852,-0.17983,-0.06471
0.15068,-0.94233,0.29879,0.3161,-1.46746,0.16804
0.17503,-0.93234,0.31635,0.23047,-1.74696,0.29933
0.19336,-0.92165,0.33636,0.10915,-0.1897,0.45924
0.2015,-0.91836,0.34053,-0.05926,0.85873,0.53861
0.20824,-0.92243,0.32514,0.36785,-0.97436,-0.45805
0.21057,-0.91868,0.33414,-0.08805,-1.06686,-0.32732
0.21404,-0.9221,0.32229,-0.26861,-0.76848,-0.28097
0.21646,-0.92774,0.304,-0.50044,0.43689,-0.29123
0.21665,-0.9289,0.30027,-0.35275,0.33991,-0.33715
0.21073,-0.93126,0.29716,-0.142,-0.14389,-0.52862
0.19535,-0.9394,0.28163,0.16656,0.06534,-0.49371
0.17253,-0.95148,0.25472,0.15838,0.06961,-0.39177
0.14965,-0.96283,0.22476,0.0513,-0.11848,-0.32799
0.13301,-0.97124,0.19738,-0.25753,-0.06936,-0.15874
0.12778,-0.97654,0.17321,-0.25777,0.0758,-0.16952
0.13211,-0.98079,0.14343,-0.10389,0.39753,-0.27968
0.13528,-0.98482,0.1086,-0.10722,0.42984,-0.22632
0.13315,-0.9882,0.07549,-0.1138,0.37605,-0.09278
0.12216,-0.99138,0.04699,-0.01753,0.04135,-0.13238
0.10899,-0.9938,0.0213,0.07553,-0.02228,-0.12967
0.09814,-0.99515,-0.00482,0.15428,0.11378,-0.04426
0.08415,-0.99611,-0.02535,0.15276,0.20145,0.10428
0.06792,-0.9968,-0.04183,0.17254,0.17203,0.10186
0.05087,-0.99667,-0.06344,0.20936,0.12663,0.09519
0.0348,-0.99595,-0.08274,0.28881,0.052,0.07937
0.02046,-0.99526,-0.09493,0.25846,0.02126,0.07855
0.00652,-0.9944,-0.10533,0.15566,0.09769,-0.08638
-0.00981,-0.99305,-0.11714,0.20193,0.05702,-0.04225
-0.02411,-0.99171,-0.12613,0.24358,0.00645,-0.02635
-0.03422,-0.9906,-0.13235,0.37176,0.00958,-0.02048
-0.03902,-0.9898,-0.13688,0.43123,0.03055,0.05558
-0.04027,-0.98945,-0.1391,0.59823,0.00481,-0.15498
-0.03415,-0.98995,-0.13712,0.38534,-0.07882,-0.23881
-0.01477,-0.99155,-0.12879,0.16307,-0.23334,-0.36324
0.01769,-0.99381,-0.10957,-0.06578,-0.51777,-0.30416
0.05094,-0.99609,-0.072,-0.60453,-0.82175,-0.27493
0.07922,-0.99647,-0.02724,-0.72386,-0.83886,-0.19969
0.11014,-0.99387,0.00753,-0.36898,-0.71888,0.04772
0.14552,-0.98862,0.03775,-0.26227,-0.59746,0.0326
0.17777,-0.98159,0.06959,-0.07019,-0.43432,-0.02032
0.2045,-0.97366,0.10062,0.12774,-0.17764,-0.00266
0.22803,-0.96464,0.13204,0.2202,0.09683,-0.03072
0.25295,-0.95297,0.16681,0.15634,0.21082,-0.12445
0.2746,-0.93977,0.20344,0.0675,0.29199,-0.16111
0.28769,-0.9279,0.23706,-0.07215,0.276,-0.18595
0.29456,-0.91765,0.26666,-0.19544,0.28818,-0.31445
0.29815,-0.90787,0.29468,-0.3246,0.3864,-0.40918
0.29647,-0.8993,0.32143,-0.43536,0.55389,-0.36704
0.28618,-0.89402,0.34467,-0.37594,0.59648,-0.37863
0.27095,-0.89343,0.35821,-0.23891,0.45923,-0.31616
0.25316,-0.89725,0.36169,-0.18599,0.39233,-0.26042
0.23498,-0.90449,0.35586,-0.20574,0.42355,-0.18066
0.21725,-0.91364,0.34355,0.07402,0.34386,0.04735
0.19975,-0.92296,0.32893,0.19416,0.27302,0.15309
0.18167,-0.92976,0.32016,0.17693,0.11488,0.19804
0.16976,-0.93309,0.317,0.38193,-0.98416,0.2663
0.17523,-0.93157,0.31849,0.37543,-1.45753,0.34577
0.18822,-0.92568,0.32808,0.27792,-0.54059,0.37072
0.19045,-0.9192,0.34462,-0.04847,0.68661,0.5717
0.18915,-0.92041,0.34208,-0.04776,0.0758,-0.23144
0.18937,-0.91707,0.35084,-0.42829,-0.66884,-0.42572
0.19038,-0.91961,0.34355,-0.41502,-0.1912,-0.04568
0.2052,-0.9243,0.32175,-0.2167,0.58171,-0.42762
0.22094,-0.9278,0.30056,-0.19556,0.659,-0.36102
0.21812,-0.92986,0.2962,-0.20027,0.34062,-0.39624
0.20403,-0.93156,0.30086,-0.00489,-0.23013,-0.59653
0.17484,-0.94337,0.28184,0.22683,-0.17802,-0.48388
0.14393,-0.95871,0.24519,0.05713,-0.24721,-0.36757
0.12614,-0.96813,0.21629,-0.2546,-0.01227,-0.11519
0.12384,-0.97238,0.19774,-0.14534,0.1833,-0.09076
0.12726,-0.97724,0.16965,-0.06068,0.33801,-0.29773
0.12903,-0.98292,0.13111,-0.03957,0.43885,-0.31645
0.12552,-0.98761,0.09404,-0.01052,0.33183,-0.19792
0.11747,-0.99103,0.06339,-0.09571,0.11921,-0.12041
0.10647,-0.99374,0.03325,-0.16644,0.0793,-0.13968
0.0938,-0.99556,0.00459,-0.12485,0.19913,-0.11928
0.07887,-0.99669,-0.0187,-0.01123,0.21238,0.05775
0.06263,-0.99725,-0.03918,0.06288,0.11832,0.09941
0.04593,-0.99703,-0.06162,0.15864,0.08216,0.00172
0.02921,-0.99639,-0.07958,0.27181,0.12346,-0.01103
0.01393,-0.99564,-0.09203,0.27635,0.07555,0.07178
-0.00019,-0.99468,-0.10286,0.24713,0.00527,-0.00151
-0.01386,-0.9933,-0.11461,0.35532,0.01967,-0.10122
-0.02609,-0.99185,-0.12457,0.43915,0.05878,-0.10486
-0.03394,-0.99075,-0.13128,0.49163,0.08137,-0.03534
-0.03564,-0.98996,-0.13668,0.26986,-0.07155,-0.18711
-0.03318,-0.98978,-0.1386,0.4132,-0.09354,-0.15225
-0.02304,-0.99074,-0.13373,0.13077,-0.20172,-0.22771
0.00262,-0.99271,-0.12035,0.18759,-0.23849,-0.46104
0.03835,-0.99456,-0.09669,-0.09618,-0.57532,-0.28558
0.06882,-0.99618,-0.05346,-0.62491,-0.971,-0.28316
0.09388,-0.99552,-0.00947,-0.80713,-0.9893,-0.12435
0.12699,-0.99164,0.02231,-0.49005,-0.74808,0.02663
0.16077,-0.98568,0.05047,-0.04473,-0.3776,-0.01143
0.19048,-0.97839,0.0802,0.11268,-0.21653,0.00882
0.21605,-0.97005,0.11082,0.15214,-0.08969,-0.02092
0.23925,-0.96028,0.14349,0.09257,0.23202,-0.14094
0.26183,-0.94878,0.1767,-0.03205,0.29622,-0.19111
0.28004,-0.93683,0.20951,-0.10238,0.29422,-0.21436
0.29376,-0.92538,0.23946,-0.18863,0.26054,-0.23519
0.30441,-0.91437,0.26685,-0.24985,0.30022,-0.33779
0.31162,-0.90356,0.29398,-0.2896,0.48724,-0.38316
0.31092,-0.89485,0.3202,-0.2832,0.60239,-0.3615
0.30225,-0.89033,0.34045,-0.2643,0.60338,-0.36027
0.28702,-0.89071,0.35243,-0.24628,0.51896,-0.33824
0.26738,-0.89587,0.35478,-0.22194,0.42084,-0.21859
0.24704,-0.90488,0.34658,-0.07282,0.37955,-0.0792
0.22889,-0.91464,0.33316,0.14057,0.26835,0.08217
0.21208,-0.92312,0.32067,0.13128,0.09353,0.22479
0.19532,-0.92971,0.31216,0.18168,-0.05154,0.2343
0.18733,-0.93271,0.30808,0.40505,-1.19623,0.30917
0.1921,-0.92956,0.31458,0.16093,-1.38559,0.25942
0.19688,-0.92263,0.33159,0.13311,-0.87799,0.26032
0.19741,-0.91734,0.34565,0.2774,-0.34163,-0.06422
0.20092,-0.9195,0.33779,-0.19462,-0.49919,-0.46026
0.19884,-0.92021,0.3371,-0.24602,-0.32389,-0.26712
0.20907,-0.92016,0.33098,-0.2005,-0.1736,-0.20899
0.22128,-0.92135,0.31954,-0.24803,0.33744,-0.30877
0.21988,-0.92427,0.31197,-0.17317,0.22281,-0.30747
0.20321,-0.92892,0.30948,-0.04913,-0.13662,-0.60998
0.17351,-0.9383,0.29906,-0.01068,0.04783,-0.56386
0.14376,-0.95207,0.26992,-0.04222,0.04168,-0.46649
0.12419,-0.96489,0.23134,-0.1488,0.0204,-0.37485
0.11653,-0.97171,0.20533,-0.30832,0.08516,-0.14396
0.11969,-0.97486,0.18785,-0.28201,0.15444,-0.1444
0.12838,-0.97817,0.16328,-0.27848,0.25931,-0.25163
0.13514,-0.98204,0.1315,-0.2474,0.32631,-0.21519
0.13507,-0.98571,0.10045,-0.02026,0.07862,-0.20054
0.13067,-0.98862,0.07424,0.09617,-0.00942,-0.15332
0.12824,-0.99042,0.05085,0.21995,0.06377,-0.12499
0.12379,-0.99186,0.02911,0.16302,0.25711,-0.11392
0.11451,-0.99334,0.0115,0.14134,0.2318,-0.02444
0.10282,-0.99466,-0.00626,0.20098,0.17121,0.05329
0.09047,-0.99559,-0.02415,0.27514,0.17944,0.05633
0.07879,-0.99616,-0.03779,0.27527,0.14191,0.09189
0.06619,-0.99651,-0.05048,0.18683,-0.01737,0.1363
0.05321,-0.99643,-0.06532,0.07866,-0.0351,-0.01027
0.03796,-0.99616,-0.07875,0.06581,-0.07205,-0.04521
0.02181,-0.99578,-0.08895,0.16823,0.01005,-0.06584
0.00946,-0.99529,-0.09629,0.35228,0.04191,-0.13569
0.00144,-0.99487,-0.10096,0.43852,-0.01162,0.0277
-0.00269,-0.99456,-0.104,0.4934,-0.03211,-0.07946
0.00137,-0.9946,-0.10361,0.42516,-0.15577,-0.13534
0.02101,-0.99461,-0.10142,0.11785,-0.41578,-0.23557
0.04934,-0.99481,-0.08879,0.03669,-0.47516,-0.29683
0.07331,-0.99556,-0.05877,-0.28667,-0.29358,-0.45907
0.09753,-0.99506,-0.01763,-0.33056,-0.40506,-0.285
0.1318,-0.99101,0.02208,-0.44942,-0.66188,0.02872
0.16792,-0.98448,0.05071,-0.39857,-0.46312,-0.03388
0.2006,-0.97632,0.08077,-0.34277,-0.37265,-0.05905
0.2259,-0.96758,0.11282,0.00595,-0.13272,0.01276
0.24616,-0.95864,0.14276,0.11968,-0.00277,-0.02381
0.26911,-0.9475,0.17256,0.18964,0.16321,-0.13921
0.29138,-0.93459,0.20395,0.11151,0.2334,-0.14829
0.30381,-0.92305,0.23586,0.05895,0.26112,-0.17481
0.30821,-0.91353,0.26536,-0.13373,0.2961,-0.29153
0.30835,-0.90537,0.29186,-0.28238,0.33191,-0.35776
0.30312,-0.89857,0.31723,-0.36449,0.40069,-0.34024
0.29327,-0.89415,0.33829,-0.32712,0.41189,-0.32223
0.28162,-0.89321,0.35046,-0.23328,0.40385,-0.28957
0.26841,-0.89596,0.35379,-0.16859,0.45074,-0.22331
0.25214,-0.90189,0.35067,-0.11009,0.47858,-0.14254
0.23176,-0.91086,0.34142,0.04377,0.43615,-0.08254
0.21092,-0.92185,0.32506,0.2262,0.33065,-0.02347
0.19197,-0.93205,0.30721,0.22878,0.11676,0.08932
0.17728,-0.93899,0.29468,0.19073,-0.35794,0.04774
0.17447,-0.93949,0.29476,0.19612,-1.25216,0.18249
0.19186,-0.93184,0.30793,0.20028,-1.46055,0.2027
0.20817,-0.92084,0.32964,0.03247,0.56921,0.52065
0.21822,-0.91657,0.33502,-0.00487,0.22394,-0.41886
0.22386,-0.92035,0.32061,0.28371,-0.68037,-0.62388
0.22129,-0.91654,0.33307,-0.38874,-1.07651,-0.4125
0.22154,-0.92206,0.31731,-0.39825,0.01256,-0.32845
0.22163,-0.9256,0.30677,-0.23607,0.37832,-0.37583
0.22424,-0.92709,0.3003,-0.23335,0.44741,-0.43911
0.22009,-0.92892,0.2977,-0.22612,-0.09144,-0.50795
0.20517,-0.93624,0.28515,-0.08954,-0.07775,-0.59849
0.18103,-0.95047,0.25256,0.04518,-0.09143,-0.48009
0.15571,-0.9633,0.21855,-0.01141,-0.26492,-0.35092
0.14014,-0.97043,0.19642,-0.18877,-0.14735,-0.14558
0.14046,-0.97422,0.17644,-0.11582,0.13153,-0.20246
0.14781,-0.97818,0.14586,-0.09538,0.34247,-0.29425
0.15214,-0.98205,0.11132,-0.10048,0.4421,-0.29293
0.1513,-0.98522,0.08006,-0.12667,0.37778,-0.11639
0.14071,-0.98866,0.05213,-0.09672,0.12771,-0.11742
0.12905,-0.9913,0.02516,0.05535,-0.05548,-0.18515
0.12004,-0.99275,-0.001,0.06183,0.1479,-0.10192
0.10588,-0.99413,-0.02167,0.05385,0.24568,0.06951
0.08915,-0.99521,-0.03961,0.12927,0.19178,0.11645
0.0737,-0.99545,-0.06018,0.22717,0.2214,0.00723
0.05952,-0.99533,-0.07575,0.29785,0.17031,0.02839
0.04549,-0.99516,-0.08692,0.26296,0.01852,0.13252
0.03174,-0.99465,-0.09813,0.16202,-0.04736,-0.04747
0.01602,-0.99393,-0.10867,0.19511,-0.04653,0.03494
7e-05,-0.99314,-0.1168,0.24203,-0.00338,0.04919
-0.01136,-0.99226,-0.12355,0.4997,0.01266,-0.01311
-0.01823,-0.99125,-0.1306,0.5304,-0.01171,0.01386
-0.02249,-0.99032,-0.13687,0.41272,-0.04563,-0.06038
-0.01957,-0.99013,-0.1387,0.36305,-0.11289,-0.30803
-0.00284,-0.99116,-0.13255,0.09571,-0.08875,-0.44524
0.02699,-0.99327,-0.11248,0.10095,-0.3419,-0.25972
0.05838,-0.99493,-0.08171,-0.45658,-0.59684,-0.27449
0.08697,-0.99552,-0.03656,-0.60113,-0.66544,-0.2731
0.11413,-0.99341,0.00921,-0.60313,-0.74806,-0.28004
0.1449,-0.98837,0.04569,-0.05568,-0.58209,0.05581
0.17732,-0.98066,0.0826,0.01377,-0.50164,0.02577
0.20201,-0.9719,0.1207,0.1322,-0.28021,0.05018
0.22241,-0.96208,0.15778,0.24617,0.04135,0.03989
0.24415,-0.94956,0.1967,0.21928,0.18186,-0.0732
0.26248,-0.93585,0.23504,0.14235,0.23845,-0.1622
0.27502,-0.92258,0.27051,-0.01545,0.35535,-0.23694
0.27895,-0.91085,0.30413,-0.13005,0.42014,-0.3309
0.27488,-0.90106,0.33539,-0.16097,0.44172,-0.48887
0.26718,-0.89318,0.36168,-0.26436,0.46883,-0.48341
0.25742,-0.88803,0.3809,-0.33004,0.51123,-0.45239
0.24499,-0.88659,0.3923,-0.32718,0.49454,-0.3817
0.2294,-0.88974,0.39459,-0.3217,0.50071,-0.27911
0.21223,-0.89733,0.38691,-0.31818,0.47886,-0.19778
0.19439,-0.90734,0.3727,-0.14282,0.41049,-0.06625
0.17829,-0.91685,0.35716,0.08166,0.23508,0.09891
0.16124,-0.92274,0.35,0.08593,-0.07753,0.08344
0.15068,-0.92475,0.3494,0.29601,-0.69996,0.15838
0.15709,-0.92399,0.34859,0.40276,-1.42339,0.29792
0.16961,-0.91862,0.35683,0.18229,-0.99247,0.38948
0.17139,-0.91375,0.3683,0.19003,0.32633,0.43009
0.17038,-0.91763,0.35899,-0.17682,0.40749,0.33368
0.16202,-0.92047,0.35559,0.49056,-1.12273,-0.80087
0.15318,-0.91642,0.36967,-0.27974,-1.10448,-0.62633
0.14904,-0.92162,0.35828,-0.48249,0.00727,-0.27696
0.15147,-0.92445,0.34986,-0.38764,0.58113,-0.45729
0.15313,-0.92621,0.34444,-0.1995,0.2112,-0.48242
0.14888,-0.93095,0.33336,0.02292,-0.18681,-0.66021
0.13319,-0.94078,0.31168,0.31078,0.03667,-0.56168
0.1115,-0.95366,0.27939,0.24283,0.07255,-0.44054
0.0949,-0.96515,0.24378,-0.01839,-0.04632,-0.3263
0.09058,-0.9723,0.21535,-0.28878,-0.01779,-0.07459
0.09904,-0.97681,0.18974,-0.25625,0.16074,-0.1667
0.10986,-0.98176,0.15507,-0.16281,0.43778,-0.29813
0.11144,-0.98685,0.11691,-0.15681,0.43299,-0.20847
0.103,-0.99105,0.08474,-0.03058,0.10529,-0.13839
0.09141,-0.9942,0.05635,0.08718,0.08209,-0.14411
0.08201,-0.9962,0.02872,0.099,0.13585,-0.10071
0.06897,-0.99758,0.00625,0.08495,0.19543,-0.0153
0.05273,-0.9985,-0.01344,0.18045,0.04124,0.14589
0.03589,-0.99878,-0.03345,0.25075,-0.01181,0.14001
0.01758,-0.99873,-0.04686,0.36649,-0.01422,0.08531
-0.00028,-0.99849,-0.05456,0.17562,0.12926,0.05238
-0.01521,-0.99794,-0.06205,0.21628,0.00502,0.00843
-0.02936,-0.99683,-0.0737,0.44167,-0.03549,-0.09061
-0.04163,-0.99552,-0.08466,0.65665,0.05033,-0.02203
-0.04638,-0.9946,-0.09269,0.53086,0.02322,0.01047
-0.0438,-0.99439,-0.09608,0.42783,0.02291,-0.20751
-0.03564,-0.9948,-0.0953,-0.0027,-0.12409,-0.36265
-0.0128,-0.99673,-0.0796,-0.02554,-0.12215,-0.37834
0.02284,-0.99843,-0.05088,-0.01985,-0.14618,-0.18122
0.06051,-0.99807,-0.01293,-0.37847,-0.7561,-0.36132
0.09517,-0.99511,0.02581,-0.48793,-1.19196,-0.26572
0.13371,-0.98915,0.0605,-0.51653,-1.19337,-0.07635
0.17411,-0.97991,0.09704,-0.22431,-0.74529,0.05135
0.20901,-0.96879,0.13312,-0.21351,-0.51012,0.02686
0.23291,-0.95856,0.16392,0.05461,-0.03222,0.00903
0.25354,-0.9467,0.19859,0.32867,0.29792,-0.10777
0.27705,-0.93057,0.23926,0.32743,0.37495,-0.21602
0.29215,-0.91588,0.27527,0.16173,0.25479,-0.26828
0.2938,-0.90516,0.30711,-0.07508,0.23747,-0.42762
0.29187,-0.89565,0.33551,-0.31098,0.39821,-0.47779
0.28103,-0.8894,0.36046,-0.40199,0.60347,-0.50754
0.26195,-0.88683,0.3806,-0.36797,0.67573,-0.44882
0.24039,-0.88774,0.39253,-0.26151,0.59988,-0.38667
0.21808,-0.8928,0.39409,-0.19164,0.52395,-0.28607
0.19609,-0.90104,0.38682,-0.15277,0.4818,-0.16133
0.17427,-0.90986,0.37648,0.09931,0.44464,-0.03074
0.15229,-0.91729,0.36788,0.13875,0.2673,0.06361
0.13057,-0.92108,0.36677,0.02363,-0.09861,-0.05239
0.12885,-0.9208,0.36806,0.14305,-1.43944,0.38522
0.1426,-0.91512,0.37705,0.17213,-1.42426,0.32541
0.1506,-0.91043,0.38521,0.1164,-0.46439,0.36349
0.14884,-0.90924,0.38869,-0.44367,0.33237,0.52165
0.14667,-0.91253,0.38174,0.57337,-0.83832,-0.42291
0.14161,-0.90856,0.39295,-0.15312,-1.05916,-0.69222
0.15217,-0.90655,0.39365,-0.13754,-0.12033,-0.424
0.16503,-0.91049,0.37912,-0.25547,0.48297,-0.61302
0.16652,-0.91308,0.37216,-0.34641,0.25355,-0.56108
0.15696,-0.91718,0.3662,-0.19106,-0.18458,-0.68384
0.13528,-0.92915,0.34399,0.30422,-0.2589,-0.57194
0.1077,-0.94502,0.30869,0.30891,-0.30321,-0.52262
0.09054,-0.95842,0.27052,0.02086,-0.04429,-0.29578
0.09333,-0.96562,0.24255,-0.20542,0.19718,-0.15601
0.11121,-0.96992,0.21642,-0.34751,0.31346,-0.22285
0.12616,-0.97477,0.184,-0.31318,0.38353,-0.32574
0.12877,-0.98062,0.14756,-0.17841,0.3334,-0.2759
0.12249,-0.98598,0.11314,0.01324,0.07351,-0.15302
0.11492,-0.98958,0.08652,0.14237,-0.02845,-0.12916
0.1144,-0.9915,0.06161,0.18065,0.12659,-0.15484
0.11153,-0.99298,0.03884,0.01105,0.29628,-0.0562
0.10093,-0.99465,0.02113,0.09113,0.18864,0.06133
0.08637,-0.99625,0.00181,0.22865,0.17087,0.03678
0.07113,-0.99732,-0.01617,0.4444,0.09853,0.04226
0.05588,-0.998,-0.02902,0.45966,0.09921,0.05511
0.03943,-0.9983,-0.0425,0.28387,0.04336,0.06928
0.02172,-0.99826,-0.05454,0.14207,-0.08826,-0.0751
0.00191,-0.99778,-0.06632,0.34524,-0.04032,-0.10656
-0.01468,-0.99689,-0.07728,0.40553,-0.00253,-0.06426
-0.02552,-0.9961,-0.08423,0.39042,-0.00484,0.00453
-0.03109,-0.99544,-0.09,0.3358,0.00032,0.03455
-0.03071,-0.99487,-0.09624,0.63408,-0.07238,-0.24122
-0.0191,-0.99544,-0.09328,0.00357,-0.14741,-0.29319
0.01049,-0.9967,-0.08033,0.14918,-0.28307,-0.32943
0.04794,-0.99746,-0.05232,-0.17858,-0.70906,-0.22593
0.08088,-0.99666,-0.00942,-0.39449,-0.78076,-0.3314
0.11212,-0.99325,0.02916,-0.44383,-0.8664,-0.17832
0.14518,-0.98742,0.0623,-0.37439,-0.83484,-0.11433
0.18041,-0.97869,0.0979,-0.26229,-0.49218,-0.01201
0.21256,-0.96801,0.13317,-0.18503,-0.34977,-0.00881
0.23496,-0.95784,0.16522,0.06281,0.02504,-0.04683
0.2529,-0.94624,0.20155,0.21981,0.30067,-0.15852
0.27312,-0.93108,0.24177,0.17916,0.28118,-0.17085
0.28853,-0.91653,0.2769,0.07506,0.21797,-0.20253
0.29707,-0.904,0.3074,-0.03616,0.14505,-0.2898
0.29782,-0.89293,0.33753,-0.18874,0.18021,-0.40174
0.29105,-0.8836,0.36673,-0.26495,0.33017,-0.49057
0.27928,-0.87737,0.39009,-0.38084,0.50599,-0.44603
0.26464,-0.87471,0.40596,-0.2986,0.49272,-0.42242
0.24985,-0.87639,0.41167,-0.28734,0.49984,-0.39554
0.23185,-0.88282,0.40844,-0.20356,0.52903,-0.2836
0.21213,-0.89266,0.39763,-0.0729,0.43691,-0.16453
0.19339,-0.90316,0.38322,0.12285,0.27579,0.07498
0.17283,-0.91064,0.37526,0.07924,0.07592,0.1288
0.15399,-0.91444,0.37421,0.20956,0.09518,0.12501
0.14662,-0.91799,0.36843,0.43068,-1.30451,0.16889
0.14938,-0.9168,0.3703,0.28007,-1.34598,-9e-05
0.15584,-0.91266,0.37778,0.09731,-0.7529,0.13143
0.1604,-0.91283,0.37544,-0.59783,0.51069,0.69267
0.1563,-0.91977,0.35993,0.34778,-0.67531,-0.27821
0.14592,-0.92186,0.35892,-0.1319,-0.87603,-0.7282
0.13793,-0.92296,0.35926,-0.2368,-0.39106,-0.33172
0.12935,-0.92723,0.35138,-0.30614,0.22082,-0.50633
0.12563,-0.92536,0.3576,-0.24483,0.31658,-0.64837
0.13304,-0.92659,0.35167,-0.09854,-0.25746,-0.80991
0.1373,-0.93501,0.32689,0.12116,-0.11858,-0.5206
0.12302,-0.94737,0.29548,0.20662,0.05417,-0.44752
0.09778,-0.95896,0.26605,0.14016,0.16914,-0.44964
0.07664,-0.9681,0.23848,-0.01921,0.01558,-0.28803
0.07132,-0.9738,0.21582,-0.10564,-0.05786,-0.21643
0.08047,-0.97875,0.18848,-0.27258,0.16813,-0.34524
0.09305,-0.98439,0.14926,-0.24629,0.34155,-0.34975
0.09724,-0.98911,0.11025,-0.23451,0.22093,-0.19137
0.0897,-0.99253,0.08249,-0.20542,0.0866,-0.14285
0.07725,-0.99535,0.05719,0.05458,0.00376,-0.21118
0.0668,-0.99732,0.02908,0.17287,0.21053,-0.13183
0.05457,-0.99845,0.00926,0.19231,0.27651,-0.0399
0.03876,-0.99922,-0.00476,0.18548,0.15484,0.03958
0.02187,-0.99944,-0.02464,0.26975,0.10378,0.01852
0.00825,-0.99914,-0.0403,0.43708,0.09675,0.0528
-0.00102,-0.99886,-0.04729,0.39068,0.02134,0.05296
-0.01272,-0.99836,-0.05557,0.26378,-0.06411,0.04358
-0.02584,-0.99771,-0.06225,0.29215,-0.0818,0.04431
-0.03744,-0.99728,-0.06328,0.34991,-0.06098,0.02216
-0.04812,-0.99665,-0.06584,0.7602,0.1072,-0.09147
-0.05502,-0.99587,-0.07206,0.8491,0.0739,-0.14061
-0.05511,-0.99514,-0.08141,0.86674,-0.02958,-0.06793
-0.0419,-0.99448,-0.09603,0.02167,-0.49228,-0.35066
-0.01361,-0.99503,-0.09846,-0.13846,-0.69857,-0.34832
0.02243,-0.99654,-0.07982,-0.39972,-0.59198,-0.32134
0.05795,-0.99748,-0.0405,-0.56294,-0.49044,-0.27648
0.08934,-0.99598,0.00116,-0.54088,-0.59223,-0.15509
0.11797,-0.99245,0.03307,-0.4957,-0.68924,-0.10448
0.14533,-0.98707,0.06729,-0.2491,-0.45354,-0.10795
0.17011,-0.97914,0.11097,-0.05527,-0.37278,-0.13331
0.19072,-0.96933,0.15488,0.24524,-0.07559,-0.09919
0.21046,-0.95769,0.19619,0.22335,0.14631,-0.15751
0.2304,-0.94385,0.23669,0.15742,0.1702,-0.18747
0.24403,-0.93045,0.27327,-0.02411,0.24136,-0.27874
0.24922,-0.91827,0.30762,-0.0761,0.24879,-0.37409
0.2473,-0.90698,0.34085,-0.12448,0.28638,-0.47399
0.24014,-0.89825,0.36802,-0.46042,0.37038,-0.39696
0.23224,-0.8921,0.38751,-0.39855,0.34135,-0.37276
0.22631,-0.88823,0.39972,-0.35521,0.32795,-0.37174
0.21819,-0.88739,0.40606,-0.30644,0.46881,-0.29559
0.20463,-0.89057,0.40615,-0.14856,0.58633,-0.21504
0.1874,-0.89743,0.39931,-0.03567,0.5596,-0.15192
0.1695,-0.90582,0.38821,0.15217,0.28023,0.1623
0.14911,-0.91189,0.38234,0.14944,0.1561,0.19626
0.13592,-0.91354,0.38331,0.63984,-0.52984,0.17905
0.14098,-0.91211,0.38488,0.49351,-1.22651,0.33919
0.14955,-0.9065,0.39477,0.14836,-0.74183,0.36289
0.15045,-0.90217,0.40424,-0.29464,0.16245,0.34342
0.14862,-0.90609,0.39608,-0.21213,-0.08838,0.07522
0.14659,-0.9101,0.38753,0.35996,-1.3095,-0.60773
0.14394,-0.90609,0.39779,-0.15235,-0.7869,-0.50028
0.15298,-0.90981,0.38573,-0.20582,0.0967,-0.42193
0.1604,-0.91125,0.37928,-0.25749,0.68119,-0.53972
0.16371,-0.91403,0.37109,-0.26683,0.57311,-0.48579
0.16031,-0.91913,0.3598,-0.13257,-0.16534,-0.57098
0.14652,-0.92967,0.33794,0.20719,-0.06867,-0.47155
0.12455,-0.944,0.30548,0.28509,-0.13302,-0.5085
0.10646,-0.95686,0.27027,0.05676,-0.16152,-0.36937
0.10088,-0.96509,0.24164,-0.17484,0.10261,-0.22165
0.1071,-0.97005,0.21794,-0.20673,0.23051,-0.25149
0.11338,-0.97531,0.18941,-0.17483,0.48022,-0.24302
0.1166,-0.98145,0.15205,-0.15489,0.38817,-0.2882
0.11267,-0.98722,0.11256,-0.10543,0.21508,-0.21574
0.10181,-0.99154,0.08032,0.04666,-1e-05,-0.23088
0.09402,-0.99406,0.05453,0.14716,0.03492,-0.17273
0.08601,-0.99581,0.03052,0.00948,0.28471,-0.12255
0.07032,-0.99746,0.00966,-0.01519,0.23585,-0.00804
0.04947,-0.99871,-0.01023,0.1477,0.08344,0.031
0.02664,-0.99924,-0.02796,0.29289,0.04842,0.05002
0.00604,-0.99909,-0.04188,0.32322,0.05173,0.05491
-0.01058,-0.99858,-0.05183,0.28168,-0.00689,0.05915
-0.02755,-0.99785,-0.05923,0.34076,-0.0253,0.03283
-0.04328,-0.99667,-0.06888,0.42454,-0.01403,-0.04029
-0.05406,-0.99576,-0.07423,0.69014,0.0112,-0.1029
-0.05822,-0.99513,-0.07934,0.69145,-0.0062,0.05042
-0.05589,-0.9948,-0.08492,0.54518,-0.10001,-0.23894
-0.04384,-0.99551,-0.08369,0.21344,-0.22183,-0.25747
-0.01311,-0.99761,-0.06763,0.0149,-0.29097,-0.33452
0.03298,-0.99874,-0.03753,-0.39527,-0.7782,-0.28027
0.075,-0.99715,0.00655,-0.63245,-0.94031,-0.24444
0.10498,-0.9933,0.04798,-0.6635,-1.05846,-0.30408
0.13716,-0.98715,0.08175,-0.17807,-0.50282,-0.06304
0.17444,-0.97666,0.12518,-0.16632,-0.44593,-0.0375
0.20771,-0.96417,0.16492,0.03383,-0.19193,0.01932
0.23283,-0.95265,0.19545,0.22278,0.16754,-0.05124
0.25708,-0.93925,0.22735,0.27646,0.24653,-0.10278
0.2806,-0.92315,0.26273,0.24744,0.2638,-0.22412
0.29589,-0.90801,0.29651,-0.01418,0.23208,-0.2801
0.30063,-0.89451,0.33081,-0.02612,0.17649,-0.33551
0.30238,-0.88345,0.35783,-0.34127,0.30105,-0.47234
0.29445,-0.87597,0.38201,-0.29086,0.43347,-0.49665
0.28114,-0.87288,0.39874,-0.33183,0.52825,-0.43512
0.26481,-0.8742,0.40695,-0.30957,0.57253,-0.38218
0.24429,-0.88021,0.40682,-0.25972,0.58866,-0.27857
0.22119,-0.89046,0.39763,-0.22617,0.57091,-0.24276
0.19833,-0.90228,0.38277,0.05966,0.36911,0.03406
0.17699,-0.91232,0.36919,0.02714,0.07168,0.11543
0.15771,-0.91709,0.36612,0.04117,-0.14897,0.05081
0.15421,-0.91795,0.36543,0.36869,-1.03187,0.23426
0.16285,-0.91461,0.37004,0.27363,-1.2164,0.24329
0.16636,-0.90881,0.38256,0.1469,0.40283,0.39732
0.16447,-0.90966,0.38136,-0.15492,0.64283,0.63926
0.16415,-0.91541,0.36747,0.28792,-0.5927,-0.53313
0.16775,-0.91044,0.37805,-0.10632,-1.27253,-0.78314
0.17093,-0.91632,0.36207,-0.40433,-0.30722,-0.34588
0.17362,-0.92285,0.34376,-0.42134,0.36441,-0.43209
0.17642,-0.92452,0.33779,-0.26375,0.37543,-0.41518
0.17424,-0.92615,0.33442,-0.17404,-0.20986,-0.54986
0.16856,-0.93266,0.3189,0.06065,-0.18578,-0.58174
0.15238,-0.94609,0.28575,0.16493,-0.03107,-0.48453
0.13138,-0.95973,0.24822,-0.01192,-0.14696,-0.49691
0.11491,-0.96992,0.21452,-0.2856,-0.04588,-0.29175
0.11318,-0.9756,0.18806,-0.25341,0.13655,-0.18308
0.11956,-0.98026,0.15733,-0.10418,0.33392,-0.29776
0.12462,-0.98507,0.11866,-0.08275,0.43093,-0.303
0.12637,-0.98875,0.07979,-0.10362,0.17052,-0.17092
0.11938,-0.99167,0.04797,-0.11592,0.03072,-0.16939
0.10761,-0.99393,0.0223,-0.1184,-0.05809,-0.19184
0.0935,-0.9956,-0.00185,0.02148,0.17096,-0.03002
0.07432,-0.99701,-0.0205,0.13096,0.16864,0.05502
0.05639,-0.99774,-0.03609,0.26816,0.15356,0.10056
0.04011,-0.99779,-0.05269,0.54839,0.12448,0.0565
0.02374,-0.99765,-0.064,0.3626,0.21535,0.10393
0.00928,-0.99753,-0.06941,0.36469,0.0089,-0.00998
-0.00318,-0.9968,-0.07974,0.37317,-0.15085,-0.01386
-0.01628,-0.99541,-0.09421,0.33242,-0.02742,-0.04583
-0.02619,-0.99444,-0.10188,0.39651,0.00509,0.04002
-0.03011,-0.99369,-0.10795,0.38419,0.01277,-0.07637
-0.02788,-0.99306,-0.1141,0.2352,-0.14846,-0.31625
-0.01194,-0.99317,-0.11597,0.10038,-0.14518,-0.47892
0.02221,-0.99425,-0.10467,-0.0093,-0.52851,-0.24829
0.06273,-0.99543,-0.07177,-0.47725,-0.75542,-0.26371
0.09995,-0.99462,-0.0266,-0.65761,-0.80535,-0.19027
0.13177,-0.99114,0.01555,-0.6948,-0.91303,-0.23948
0.16037,-0.98584,0.04866,-0.37828,-0.6046,-0.0412
0.19069,-0.97762,0.08874,-0.13036,-0.4017,-0.01539
0.21793,-0.96717,0.13057,0.11316,-0.1352,-0.00989
0.24205,-0.95535,0.16937,0.23177,0.14128,-0.09596
0.26477,-0.94047,0.21301,0.28987,0.28569,-0.18687
0.2852,-0.92265,0.25949,0.25641,0.27457,-0.17883
0.29811,-0.9067,0.29833,-0.05819,0.20323,-0.25794
0.304,-0.8926,0.33287,-0.17345,0.12715,-0.36827
0.30303,-0.88004,0.3656,-0.33797,0.2567,-0.5065
0.29402,-0.87082,0.39392,-0.40033,0.49032,-0.5007
0.27999,-0.8657,0.41487,-0.42331,0.61035,-0.44354
0.26101,-0.86612,0.42623,-0.20147,0.54312,-0.38666
0.24178,-0.87112,0.42738,-0.19226,0.51524,-0.32884
0.22382,-0.87951,0.41991,-0.19561,0.5032,-0.28686
0.20666,-0.8892,0.40814,0.11364,0.32397,0.07818
0.18757,-0.89803,0.39789,0.13844,0.25881,0.13821
0.16779,-0.90325,0.3949,0.19844,0.07092,-0.01385
0.16074,-0.90626,0.39092,0.41602,-1.02363,0.23527
0.1673,-0.90269,0.39638,0.34474,-1.66213,0.3195
0.17458,-0.897,0.40604,-0.1143,-0.62325,0.27804
0.17266,-0.89379,0.41386,-0.41633,0.13546,0.22545
0.16832,-0.89886,0.40457,0.38778,-0.53483,-0.17672
0.1569,-0.90025,0.40608,-0.0487,-1.00704,-0.6701
0.15844,-0.8977,0.41109,-0.10981,-0.34759,-0.32622
0.17008,-0.89955,0.4023,-0.14699,0.27739,-0.58551
0.17663,-0.90211,0.39366,-0.21959,0.55962,-0.53317
0.17577,-0.90526,0.38675,-0.2566,-0.01695,-0.62141
0.16557,-0.91493,0.36804,0.02984,-0.27954,-0.60894
0.14614,-0.93078,0.33505,0.31484,-0.13797,-0.46542
0.12587,-0.94472,0.3027,0.20004,-0.08142,-0.43402
0.1164,-0.95437,0.27494,-0.06371,0.07273,-0.26621
0.12129,-0.9607,0.24962,-0.25784,0.18546,-0.23378
0.13053,-0.96613,0.22252,-0.2636,0.25179,-0.27246
0.13244,-0.97273,0.19031,-0.14419,0.36378,-0.25968
0.12755,-0.9795,0.15579,-0.04708,0.24121,-0.16713
0.11804,-0.9853,0.12333,0.01073,0.17669,-0.17039
0.1105,-0.98951,0.09287,0.07474,0.11506,-0.20769
0.10361,-0.99244,0.06555,-0.09096,0.25158,-0.09305
0.09141,-0.99485,0.04342,-0.04472,0.2116,-0.0068
0.07598,-0.99683,0.02306,0.102,0.16927,0.01504
0.05906,-0.99823,0.00413,0.29476,0.17351,-0.01162
0.04099,-0.99909,-0.01076,0.35824,-0.005,0.07053
0.02347,-0.99944,-0.02325,0.34678,-0.12465,0.04667
0.0058,-0.99943,-0.0329,0.27374,-0.07696,0.00417
-0.01444,-0.99901,-0.04181,0.29299,0.07327,-0.06102
-0.03549,-0.99808,-0.05044,0.54661,0.154,-0.12493
-0.05107,-0.99707,-0.05668,0.67736,0.15961,-0.03106
-0.05832,-0.99612,-0.06574,0.45955,0.00657,-0.02451
-0.05641,-0.99562,-0.07441,0.41168,-0.06034,-0.30986
-0.04599,-0.9961,-0.07509,0.03092,-0.20803,-0.3835
-0.01616,-0.99785,-0.06336,-0.01471,-0.04694,-0.38807
0.02678,-0.99862,-0.04482,-0.1447,-0.48861,-0.31643
0.0728,-0.99721,-0.0153,-0.59123,-0.90076,-0.32079
0.1108,-0.99351,0.02525,-0.76601,-1.25744,-0.28967
0.14422,-0.98762,0.06143,-0.69559,-1.18608,-0.09303
0.18052,-0.97796,0.10475,-0.31311,-0.68569,0.03992
0.21514,-0.9651,0.14921,0.00111,-0.28072,0.01666
0.24166,-0.95345,0.18027,0.15484,-0.05805,-0.01256
0.26695,-0.94009,0.21196,0.32925,0.22038,-0.1371
0.29423,-0.92265,0.24922,0.20043,0.27997,-0.22343
0.31114,-0.90571,0.28783,0.27478,0.16162,-0.29588
0.32194,-0.89087,0.32043,-0.07838,0.08673,-0.36798
0.32925,-0.8764,0.35139,-0.23677,0.32612,-0.48164
0.32737,-0.86571,0.3786,-0.30387,0.45896,-0.44632
0.31465,-0.8618,0.39782,-0.31679,0.55535,-0.45382
0.29254,-0.86485,0.40794,-0.29007,0.82582,-0.33926
0.26314,-0.87498,0.40635,-0.208,0.77672,-0.27419
0.22782,-0.88942,0.39621,-0.14033,0.72461,-0.20877
0.19257,-0.90205,0.38625,0.26695,0.42848,0.0038
0.16217,-0.90996,0.38161,0.02387,0.16064,-0.14381
0.14865,-0.90927,0.38871,0.08778,-0.35726,0.18001
0.1624,-0.90047,0.40342,0.15879,-1.83684,0.44966
0.17808,-0.8903,0.41906,-0.01281,-1.39315,0.30989
0.17996,-0.88579,0.42772,-0.23651,0.38929,0.27437
0.17597,-0.89043,0.41967,-0.24741,0.14714,-0.08927
0.17117,-0.8875,0.42779,0.23736,-1.22865,-0.71931
0.18018,-0.88542,0.42841,-0.10202,-0.57252,-0.49361
0.18469,-0.8877,0.4217,-0.2016,0.0557,-0.54316
0.1843,-0.88803,0.42118,-0.25272,0.39269,-0.59208
0.18328,-0.8911,0.4151,-0.10044,-0.49275,-0.70588
0.17263,-0.90446,0.39002,0.07508,-0.39194,-0.57517
0.1541,-0.91986,0.36066,0.2906,-0.0324,-0.39349
0.13598,-0.93462,0.32856,0.04093,0.09255,-0.46125
0.12473,-0.9485,0.29113,-0.06719,0.07542,-0.38956
0.12287,-0.95845,0.25738,-0.26928,0.03543,-0.28213
0.12495,-0.96627,0.22512,-0.25863,0.31449,-0.25846
0.12707,-0.97433,0.18573,-0.14815,0.38685,-0.31963
0.13113,-0.98072,0.14475,-0.10232,0.42801,-0.18076
0.12836,-0.9856,0.10996,0.02946,0.23804,-0.17641
0.11751,-0.98976,0.08088,0.15245,0.00338,-0.19776
0.10431,-0.99304,0.05442,-0.14829,0.13859,-0.11506
0.0983,-0.99461,0.03252,-0.05259,0.18541,0.0209
0.08462,-0.99628,0.01548,0.06212,0.0643,0.08044
0.06787,-0.99768,0.00043,0.23042,0.10643,0.00301
0.05265,-0.99852,-0.01268,0.30013,0.08992,-0.06159
0.03791,-0.99904,-0.02113,0.34613,0.07215,0.0621
0.02274,-0.99944,-0.02413,0.50472,0.10176,0.12077
0.00692,-0.99946,-0.03176,0.59306,0.2084,-0.02874
-0.00473,-0.99917,-0.04014,0.68259,0.10854,-0.08674
-0.01314,-0.99878,-0.0473,0.48135,0.05828,-0.04826
-0.01885,-0.99829,-0.05517,0.40235,-0.05318,-0.28519
-0.02107,-0.99784,-0.06209,0.3983,-0.28041,-0.22319
-0.00611,-0.99812,-0.06072,-0.19932,-0.21257,-0.48166
0.02363,-0.99883,-0.04181,-0.30094,-0.34875,-0.21986
0.05799,-0.99828,-0.00664,-0.52181,-0.7718,-0.34192
0.09018,-0.99535,0.03342,-0.54376,-0.88981,-0.32539
0.12418,-0.98991,0.06804,-0.52169,-1.00507,-0.1157
0.15953,-0.98172,0.10362,-0.1574,-0.58162,0.01327
0.1942,-0.97064,0.14178,-0.15546,-0.54863,-0.03934
0.22121,-0.95937,0.17505,-0.09695,-0.43309,-0.05942
0.24228,-0.94742,0.20893,0.29768,0.18633,-0.05646
0.26333,-0.9325,0.24713,0.26072,0.19852,-0.08824
0.28074,-0.91716,0.28278,0.21628,0.15866,-0.15842
0.29019,-0.90317,0.31627,-0.03343,0.18979,-0.34111
0.29246,-0.89018,0.3493,-0.02697,0.19136,-0.37385
0.29233,-0.87906,0.37652,-0.14874,0.22093,-0.48789
0.27873,-0.87204,0.40227,-0.20262,0.63859,-0.56888
0.25866,-0.87077,0.41811,-0.23988,0.62863,-0.56049
0.23694,-0.87567,0.42075,-0.2695,0.65029,-0.50798
0.21229,-0.88662,0.41086,-0.22506,0.55623,-0.28236
0.18828,-0.90015,0.39273,-0.17215,0.52709,-0.17782
0.16498,-0.9118,0.37598,0.06586,0.22877,-0.001
0.14128,-0.91899,0.36804,0.0089,0.14146,0.12102
0.12678,-0.92047,0.36963,-0.01677,-0.18875,0.08778
0.13437,-0.91607,0.37777,0.25474,-1.63117,0.25922
0.15785,-0.90568,0.39343,0.06286,-0.84275,0.46349
0.1675,-0.89688,0.40928,0.12382,-0.10207,0.39205
0.17053,-0.89939,0.40247,0.27574,-0.08464,-0.57603
0.16749,-0.89265,0.41843,0.69562,-1.30179,-0.50156
0.17382,-0.8853,0.43126,-0.13476,-1.29031,-0.76048
0.18222,-0.89089,0.41603,-0.21683,0.48047,-0.67512
0.18394,-0.89344,0.40974,-0.31378,0.69994,-0.57616
0.18004,-0.89503,0.40801,-0.3723,0.28494,-0.4677
0.16887,-0.90549,0.38927,0.06627,-0.3354,-0.60799
0.1425,-0.92109,0.36229,0.24446,-0.26763,-0.5291
0.11455,-0.93675,0.33066,0.24322,-0.19801,-0.46676
0.09823,-0.95012,0.29596,-0.08803,0.04384,-0.34606
0.09668,-0.9594,0.2649,-0.20494,0.06124,-0.29395
0.10199,-0.96682,0.23413,-0.40493,0.13803,-0.29386
0.10422,-0.97501,0.19611,-0.25329,0.43641,-0.36951
0.10379,-0.98223,0.15627,-0.18499,0.42258,-0.35276
0.09974,-0.98768,0.12044,-0.0897,0.15124,-0.15877
0.0908,-0.99171,0.09077,0.05435,-0.01015,-0.21057
0.08439,-0.99434,0.06436,0.1486,0.02786,-0.15741
0.07603,-0.99625,0.04093,-0.00319,0.21962,-0.01093
0.06206,-0.99782,0.02186,0.13732,0.20435,0.07894
0.04353,-0.99903,0.00472,0.3132,0.14095,0.0546
0.02575,-0.99957,-0.01259,0.46909,0.12532,0.05254
0.01049,-0.99967,-0.02272,0.33749,0.17898,-0.04534
-0.00325,-0.99966,-0.02515,0.17112,0.08974,0.06589
-0.01754,-0.9994,-0.02929,0.39732,0.01657,-0.10014
-0.02993,-0.9988,-0.03834,0.58594,0.15019,-0.1048
-0.03755,-0.99828,-0.04471,0.52363,0.0696,0.06901
-0.04079,-0.99793,-0.04938,0.40343,-0.02257,-0.22803
-0.03924,-0.99773,-0.0545,0.57257,-0.14087,-0.37422
-0.02453,-0.99836,-0.05139,0.0039,-0.23059,-0.33008
0.00892,-0.99941,-0.03262,-0.07236,-0.35923,-0.31942
0.0487,-0.99879,0.00314,-0.58132,-0.83919,-0.38664
0.07711,-0.99598,0.04527,-0.58541,-1.00762,-0.36337
0.10889,-0.99098,0.07786,-0.26747,-0.9281,-0.17976
0.14621,-0.98273,0.11327,-0.1465,-0.54632,-0.00945
0.18081,-0.97186,0.1509,-0.20097,-0.51438,-0.04479
0.20805,-0.96089,0.18269,-0.06988,-0.29048,-0.08218
0.22685,-0.94947,0.21683,0.12537,0.10546,-0.13811
0.24579,-0.93515,0.25505,0.13263,0.28679,-0.15039
0.26216,-0.92052,0.28961,0.07806,0.23949,-0.22434
0.27036,-0.90743,0.32162,-0.0049,0.21338,-0.36786
0.27269,-0.89507,0.35277,-0.17922,0.27451,-0.49188
0.26753,-0.88507,0.38084,-0.25375,0.37907,-0.55635
0.25192,-0.87891,0.40498,-0.28854,0.50167,-0.61804
0.22912,-0.87781,0.42061,-0.33441,0.68222,-0.48088
0.20483,-0.88238,0.42356,-0.27856,0.62382,-0.41321
0.18311,-0.89174,0.41379,-0.22546,0.50787,-0.23971
0.15984,-0.90307,0.39859,-0.14659,0.43957,-0.04272
0.13628,-0.9113,0.38849,0.13651,0.19892,0.05063
0.11666,-0.91292,0.39105,0.16987,-0.01028,0.04109
0.11497,-0.91248,0.39258,0.19145,-0.41398,0.15722
0.12738,-0.90789,0.39933,0.21957,-1.67032,0.29182
0.13768,-0.90056,0.41231,0.3258,-0.3504,0.21689
0.14068,-0.89707,0.41884,-0.37631,0.63265,0.66201
0.14083,-0.89989,0.4127,0.68379,-1.12504,-0.68854
0.13863,-0.89,0.43433,0.18063,-1.65603,-0.80458
0.14169,-0.89269,0.42777,-0.2777,-0.09694,-0.4199
0.14523,-0.89692,0.41763,-0.26061,0.68459,-0.62862
0.14808,-0.89698,0.41649,-0.26476,0.41449,-0.52956
0.14397,-0.90079,0.40964,-0.21814,0.01517,-0.77041
0.12686,-0.91451,0.38411,0.15828,-0.1817,-0.64325
0.10112,-0.93217,0.34756,0.22553,-0.17199,-0.55176
0.07804,-0.94815,0.30805,-0.03832,-0.04178,-0.41485
0.06998,-0.95779,0.27876,-0.24424,0.06845,-0.20158
0.07869,-0.9639,0.25429,-0.32354,0.22944,-0.23764
0.09048,-0.97113,0.22064,-0.21699,0.40103,-0.38513
0.09411,-0.97905,0.18046,-0.18845,0.44803,-0.37709
0.08818,-0.9858,0.1428,-0.06677,0.26728,-0.19357
0.07816,-0.99042,0.11369,0.08748,-0.0679,-0.17857
0.0736,-0.99362,0.08525,0.05768,0.03304,-0.19068
0.06361,-0.99623,0.05877,0.0589,0.1575,-0.05289
0.04441,-0.99817,0.04076,0.23818,0.10992,0.00169
0.02965,-0.99925,0.02414,0.34665,0.11606,0.06524
0.01942,-0.99968,0.01535,0.45197,0.04207,0.08981
0.0077,-0.99989,0.01129,0.29709,0.06802,0.0173
-0.00701,-0.99994,0.00602,0.30756,0.11548,0.00614
-0.02347,-0.99971,-0.00156,0.39269,0.11174,-0.00257
-0.03536,-0.99934,-0.00678,0.63045,0.15389,-0.19774
-0.04264,-0.99901,-0.0117,0.63773,0.15357,-0.19283
-0.04447,-0.99882,-0.01879,0.34305,0.0169,-0.16873
-0.0432,-0.99875,-0.0245,0.1029,-0.35089,-0.17487
-0.02804,-0.99949,-0.01438,-0.22256,-0.31634,-0.37271
0.0043,-0.99992,0.01078,-0.30962,-0.21303,-0.40257
0.04223,-0.99795,0.0479,-0.35309,-0.5968,-0.41266
0.07648,-0.99364,0.08241,-0.34124,-0.72074,-0.39835
0.11162,-0.98712,0.11447,-0.2446,-1.00223,-0.22201
0.15044,-0.97728,0.14921,-0.18156,-0.6545,-0.0726
0.18748,-0.96441,0.18634,-0.26086,-0.58403,-0.08077
0.21739,-0.95161,0.21713,-0.20372,-0.48777,-0.05632
0.23726,-0.93993,0.24535,0.03398,-0.12034,-0.1469
0.25474,-0.92569,0.2796,0.16587,0.16819,-0.19545
0.27024,-0.91005,0.31424,0.05564,0.27012,-0.28035
0.27719,-0.89601,0.34683,-0.04207,0.25793,-0.3707
0.27795,-0.8828,0.37864,0.03472,0.22155,-0.41828
0.27666,-0.87063,0.40672,-0.12577,0.30862,-0.54061
0.26911,-0.86244,0.42865,-0.36189,0.51181,-0.54501
0.25535,-0.85815,0.44534,-0.47358,0.66733,-0.51112
0.23615,-0.8593,0.45364,-0.38051,0.64615,-0.44829
0.21132,-0.86745,0.45038,-0.25322,0.59281,-0.33416
0.18236,-0.88169,0.43513,-0.0529,0.53491,-0.1526
0.15368,-0.89714,0.41411,0.2221,0.34877,0.03923
0.13006,-0.90809,0.39802,0.0989,0.03759,0.13834
0.11378,-0.91057,0.39734,0.05607,-0.75053,0.24109
0.12341,-0.90704,0.4025,0.35023,-1.63101,0.34016
0.14004,-0.90085,0.41088,0.15525,-1.6473,0.2475
0.14356,-0.89451,0.42333,0.12607,0.31704,0.36956
0.14386,-0.89724,0.4174,0.07113,0.39132,-0.07567
0.14266,-0.89851,0.41509,0.38461,-1.10123,-0.61627
0.13816,-0.8922,0.42994,-0.19861,-0.79852,-0.75341
0.14335,-0.90038,0.41076,-0.27083,0.06324,-0.54516
0.14512,-0.9072,0.39483,-0.38593,0.60524,-0.51861
0.13881,-0.90818,0.39483,-0.41463,0.04187,-0.38681
0.12702,-0.90971,0.3953,-0.16252,-0.42521,-0.69361
0.11457,-0.922,0.3698,0.13805,-0.09515,-0.53849
0.10029,-0.9372,0.33401,0.16423,-0.05441,-0.55621
0.09327,-0.94937,0.29992,-0.06299,-0.00763,-0.41166
0.09864,-0.95652,0.27442,-0.2348,0.1105,-0.30753
0.11023,-0.96214,0.2492,-0.26192,0.2082,-0.36402
0.11629,-0.96936,0.21628,-0.22167,0.30052,-0.38801
0.1196,-0.97647,0.17935,-0.10583,0.30507,-0.19119
0.11812,-0.98249,0.14395,-0.10435,0.31109,-0.1558
0.11352,-0.98704,0.11327,-0.0189,0.04005,-0.23138
0.11072,-0.9899,0.08836,0.02143,0.00362,-0.28876
0.10225,-0.9925,0.06673,0.10526,0.15763,-0.15481
0.0847,-0.99513,0.05003,0.18387,0.15035,0.04202
0.06747,-0.99709,0.03503,0.29596,0.20714,0.01755
0.05183,-0.99838,0.02276,0.41103,0.22052,-0.00744
0.03257,-0.99936,0.01387,0.49259,0.09685,0.09915
0.01327,-0.99988,0.00623,0.30004,0.0686,0.01032
-0.00611,-0.99997,-0.00078,0.25658,0.12478,-0.04548
-0.02737,-0.99956,-0.01052,0.4266,0.14262,-0.07463
-0.04442,-0.99879,-0.02059,0.50553,0.11468,-0.1706
-0.05627,-0.99793,-0.03081,0.46308,0.01926,-0.02193
-0.06549,-0.99683,-0.04487,0.23825,-0.10994,-0.09381
-0.06771,-0.99627,-0.0532,0.56277,-0.11809,-0.28424
-0.05465,-0.99725,-0.04974,-0.00073,-0.18167,-0.42377
-0.02243,-0.99902,-0.03768,-0.03902,-0.31862,-0.41528
0.01704,-0.99979,-0.00997,-0.30277,-0.59609,-0.34097
0.05171,-0.99815,0.03138,-0.45715,-0.73007,-0.31234
0.08937,-0.99359,0.06902,-0.46446,-1.05234,-0.25459
0.12548,-0.98676,0.10264,-0.4227,-0.85944,-0.09015
0.15755,-0.97743,0.14061,-0.38068,-0.69241,-0.07828
0.18477,-0.96649,0.17813,-0.17131,-0.4442,-0.07086
0.20693,-0.95448,0.21474,0.25923,0.10595,-0.07929
0.22886,-0.93973,0.25396,0.28685,0.17676,-0.14252
0.24976,-0.92387,0.28992,0.15008,0.27494,-0.27202
0.26002,-0.90936,0.32468,0.00477,0.25296,-0.41828
0.26336,-0.89542,0.35893,-0.03193,0.24295,-0.40576
0.25777,-0.88389,0.39019,-0.04717,0.39924,-0.54902
0.24763,-0.87615,0.41353,-0.27615,0.50046,-0.56834
0.23167,-0.87343,0.42825,-0.35682,0.56847,-0.5511
0.21192,-0.87566,0.43389,-0.35561,0.64678,-0.43243
0.19055,-0.88352,0.42783,-0.25323,0.54574,-0.30456
0.16583,-0.89536,0.41326,-0.20922,0.5444,-0.22518
0.13986,-0.90627,0.39883,0.15718,0.37144,0.01691
0.11121,-0.91153,0.39586,0.06393,0.04629,-0.00154
0.09972,-0.91131,0.39941,0.1909,-0.00902,0.1084
0.11045,-0.90629,0.40793,0.37678,-1.81361,0.33983
0.12584,-0.89883,0.41979,0.16437,-0.97336,0.24723
0.13183,-0.89377,0.42866,-0.07322,0.37334,0.29256
0.13143,-0.89672,0.42259,-0.1192,0.06446,-0.04492
0.11883,-0.89504,0.42982,0.29745,-1.60122,-0.79812
0.1131,-0.88956,0.44255,-0.16356,-1.43715,-0.7125
0.11624,-0.89413,0.43241,-0.14247,0.31431,-0.63375
0.12164,-0.89493,0.42926,-0.16544,0.83144,-0.65151
0.12646,-0.8946,0.42855,-0.24267,0.37954,-0.60567
0.12527,-0.90208,0.41295,-0.11811,-0.39217,-0.75827
0.10758,-0.9173,0.38334,0.41239,-0.42705,-0.42362
0.08008,-0.93298,0.35084,0.29715,-0.29927,-0.49048
0.06681,-0.94529,0.31926,-0.00415,0.04687,-0.40594
0.07238,-0.95353,0.29242,-0.21024,0.10016,-0.30771
0.08573,-0.96074,0.26381,-0.34638,0.1102,-0.31331
0.09127,-0.96919,0.22871,-0.38359,0.34176,-0.33414
0.09009,-0.9779,0.18857,-0.24042,0.36883,-0.37021
0.08526,-0.98513,0.14907,-0.11271,0.19265,-0.24089
0.07745,-0.98987,0.11882,0.11396,-0.00997,-0.27109
0.07427,-0.99302,0.09142,0.13225,-0.06759,-0.21839
0.06278,-0.99582,0.06612,0.03787,0.04762,-0.17103
0.04081,-0.99799,0.04817,0.10804,0.1021,-0.00621
0.01931,-0.99925,0.03325,0.33797,0.22646,-0.0293
0.00392,-0.99977,0.0202,0.46251,0.24576,-0.04268
-0.01154,-0.99984,0.01273,0.50871,0.22001,0.01534
-0.0254,-0.99964,0.00692,0.36025,0.06855,-0.00877
-0.03938,-0.99921,0.00063,0.47571,0.09787,-0.0582
-0.0512,-0.99867,-0.0032,0.55799,0.12155,-0.0957
-0.05801,-0.99827,-0.00831,0.53341,0.13894,-0.05279
-0.05906,-0.99813,-0.01515,0.42066,0.05425,-0.04723
-0.05532,-0.9983,-0.01783,0.34589,0.02216,-0.33841
-0.04135,-0.9991,-0.00778,-0.15857,-0.12613,-0.31383
-0.00605,-0.99986,0.01464,-0.19213,-0.30025,-0.31293
0.04031,-0.99811,0.04593,-0.66075,-1.09997,-0.40015
0.0739,-0.9938,0.08282,-0.74387,-1.19023,-0.35202
0.10663,-0.98761,0.11499,-0.38932,-1.12973,-0.22736
0.14536,-0.97852,0.14609,-0.00446,-0.51935,-0.10683
0.18132,-0.96648,0.18167,-0.12306,-0.52217,-0.17419
0.21008,-0.95429,0.21251,-0.00877,-0.27269,-0.0624
0.23008,-0.9421,0.24389,0.15975,0.11298,-0.10209
0.24906,-0.92775,0.27786,0.18467,0.21472,-0.18814
0.26684,-0.91241,0.31025,0.14107,0.20306,-0.26598
0.27558,-0.8988,0.34085,-0.03434,0.20101,-0.42968
0.27598,-0.88665,0.37099,-0.09245,0.20201,-0.48809
0.27068,-0.8772,0.39651,-0.34395,0.43042,-0.5538
0.2551,-0.87109,0.41962,-0.37513,0.68748,-0.52691
0.23106,-0.87121,0.43308,-0.24932,0.74982,-0.52649
0.20698,-0.87603,0.43554,-0.25564,0.65024,-0.43805
0.18377,-0.88503,0.42767,-0.22442,0.56324,-0.3127
0.16102,-0.89625,0.41324,-0.05787,0.53126,-0.16854
0.13875,-0.90672,0.3982,0.08385,0.34233,-0.02197
0.11376,-0.91308,0.39153,0.01053,0.07854,0.1296
0.10186,-0.91248,0.39619,0.15002,-0.82024,0.20017
0.11135,-0.9049,0.41074,0.37545,-1.76415,0.23344
0.13057,-0.89659,0.42312,0.08182,-0.96916,0.37631
0.13882,-0.89141,0.43136,0.07231,0.33352,0.38793
0.13587,-0.89425,0.4264,-0.22482,0.37971,0.07243
0.12955,-0.89113,0.4348,0.65044,-1.29305,-0.67463
0.13196,-0.88958,0.43725,-0.24741,-0.42592,-0.59012
0.13109,-0.89695,0.42221,-0.23631,-0.35679,-0.26794
0.12608,-0.89825,0.42096,-0.19917,0.43141,-0.58032
0.12083,-0.89838,0.42222,-0.22011,0.06713,-0.51638
0.11249,-0.90679,0.40624,0.00406,-0.49023,-0.7053
0.09926,-0.92196,0.3743,0.31436,-0.24917,-0.47814
0.08657,-0.93756,0.33683,0.15497,-0.02324,-0.47915
0.07691,-0.95007,0.30236,-0.07405,0.16627,-0.43311
0.07741,-0.95845,0.27448,-0.2995,0.03325,-0.3492
0.08174,-0.9655,0.24715,-0.42545,0.06131,-0.4282
0.0858,-0.97416,0.20882,-0.22782,0.32498,-0.40277
0.08617,-0.98284,0.16299,-0.19573,0.37011,-0.30517
0.07718,-0.98877,0.12788,-0.09229,0.21028,-0.18471
0.06802,-0.9925,0.1014,0.0158,-0.01903,-0.27021
0.05936,-0.99561,0.07217,0.03114,-0.00186,-0.20237
0.0415,-0.998,0.04736,0.09287,0.10187,-0.05322
0.02164,-0.99929,0.03051,0.21473,0.14316,-0.01085
0.00487,-0.99984,0.01605,0.34272,0.18622,0.02644
-0.0103,-0.99992,0.0047,0.53377,0.18284,0.08792
-0.02344,-0.99971,-0.00273,0.31581,0.0845,0.10815
-0.03635,-0.99928,-0.00984,0.43921,0.01991,-0.01068
-0.04861,-0.99865,-0.01761,0.43584,0.14838,-0.14016
-0.05693,-0.99812,-0.02214,0.58919,0.19009,-0.1205
-0.06008,-0.99775,-0.02932,0.64942,0.0888,-0.23572
-0.05652,-0.99761,-0.03938,0.48303,-0.21984,-0.46524
-0.03927,-0.99814,-0.0463,-0.18767,-0.27182,-0.47496
-0.00536,-0.99953,-0.02969,-0.38165,-0.72975,-0.29026
0.03681,-0.99925,0.01066,-0.50854,-0.80632,-0.43688
0.06797,-0.99632,0.05186,-0.51964,-0.71394,-0.41893
0.09597,-0.99144,0.08831,-0.42012,-0.83226,-0.16863
0.12895,-0.98361,0.12592,-0.30305,-0.57833,-0.08517
0.16256,-0.97318,0.16266,-0.09507,-0.44666,-0.14155
0.1893,-0.96191,0.19713,0.13493,-0.24149,-0.08205
0.20995,-0.95,0.23108,0.27664,0.0121,-0.08366
0.2293,-0.93594,0.26721,0.30262,0.10008,-0.11825
0.24638,-0.92118,0.30115,0.12831,0.12931,-0.21078
0.25447,-0.90868,0.33091,-0.12322,0.21879,-0.33573
0.25405,-0.89696,0.36178,-0.26691,0.25627,-0.37487
0.24965,-0.88829,0.38547,-0.13266,0.35176,-0.54994
0.23411,-0.88261,0.40761,-0.45091,0.64018,-0.59301
0.21213,-0.87993,0.42506,-0.22197,0.66065,-0.56199
0.19453,-0.88038,0.43248,-0.30302,0.59645,-0.50102
0.17676,-0.88515,0.43038,-0.28827,0.58185,-0.40584
0.1591,-0.89367,0.41952,-0.26801,0.53938,-0.25589
0.14043,-0.90336,0.40519,-0.0839,0.42707,-0.10539
0.11813,-0.91125,0.3945,0.04758,0.19772,-0.06738
0.10336,-0.91533,0.38917,0.08721,-0.19005,0.10842
0.10412,-0.9148,0.3902,0.35655,-1.46014,0.29483
0.11769,-0.9089,0.40001,0.23305,-1.51383,0.26856
0.12771,-0.90148,0.41349,0.1397,-0.29149,0.4322
0.13276,-0.89946,0.41631,-0.28601,0.14855,0.22333
0.12622,-0.89707,0.42344,0.46763,-1.31175,-0.59017
0.11966,-0.89292,0.43397,-0.17292,-0.90986,-0.52179
0.13047,-0.89524,0.42601,-0.13176,0.25246,-0.57878
0.14313,-0.89883,0.41421,-0.1628,0.75369,-0.61892
0.14602,-0.90119,0.40804,-0.231,0.70989,-0.57559
0.13753,-0.90761,0.39659,-0.25794,-0.15609,-0.76597
0.1136,-0.9226,0.36859,0.20077,-0.35987,-0.56859
0.08709,-0.93896,0.33275,0.34757,-0.4175,-0.52574
0.07721,-0.95135,0.2982,0.03357,-0.05692,-0.37567
0.08611,-0.95847,0.27182,-0.20192,0.20328,-0.24124
0.10247,-0.96361,0.24683,-0.3078,0.22578,-0.2603
0.11377,-0.97035,0.21316,-0.35348,0.41119,-0.43372
0.11514,-0.97846,0.17121,-0.20927,0.3039,-0.3359
0.10732,-0.98515,0.13391,-0.11437,0.10037,-0.24389
0.10077,-0.98923,0.10604,0.1788,-0.10791,-0.28745
0.09656,-0.99192,0.08205,0.07847,0.20553,-0.18209
0.08186,-0.99451,0.06495,0.07869,0.14053,-0.02471
0.05983,-0.99697,0.0494,0.26626,0.10747,0.01714
0.03974,-0.99868,0.03213,0.44997,0.14045,0.00989
0.02231,-0.99955,0.01927,0.4555,0.14674,0.10745
0.00498,-0.99993,0.00911,0.30849,0.14654,0.12505
-0.01259,-0.9999,-0.00127,0.4763,0.02801,-0.04234
-0.02761,-0.99955,-0.01057,0.4484,-0.03268,-0.04523
-0.03988,-0.99905,-0.01694,0.42578,-0.01641,-0.13238
-0.04894,-0.99851,-0.0234,0.46316,0.12601,-0.21393
-0.05104,-0.99816,-0.03236,0.55262,0.079,-0.33577
-0.04337,-0.99841,-0.03544,0.63483,-0.10274,-0.26691
-0.02149,-0.99923,-0.03244,-0.17823,-0.27154,-0.32002
0.0172,-0.99982,-0.00647,-0.2735,-0.56583,-0.209
0.05908,-0.99768,0.03342,-0.43885,-0.77814,-0.30544
0.0906,-0.99363,0.0668,-0.62387,-1.03599,-0.44576
0.12266,-0.98752,0.09863,-0.59141,-1.07401,-0.33976
0.1605,-0.97726,0.13845,-0.26301,-0.60149,-0.01734
0.19455,-0.96486,0.17653,-0.09526,-0.31636,-0.06839
0.22027,-0.95282,0.20874,0.03624,-0.11273,-0.07378
0.24217,-0.9384,0.24641,0.34142,0.31014,-0.19557
0.26494,-0.91901,0.29186,0.28023,0.27686,-0.22686
0.27884,-0.90159,0.33068,0.15167,0.26291,-0.31096
0.28119,-0.88703,0.36615,-0.15958,0.23433,-0.42743
0.27571,-0.8735,0.40116,0.0839,0.21854,-0.41625
0.26786,-0.86523,0.42378,-0.40386,0.47459,-0.58166
0.25123,-0.86078,0.4426,-0.41286,0.69891,-0.50252
0.22963,-0.86089,0.45398,-0.25904,0.62695,-0.4861
0.20897,-0.86627,0.45373,-0.19978,0.57383,-0.322
0.18607,-0.87667,0.44361,-0.16647,0.58762,-0.15457
0.16114,-0.88825,0.43011,0.05874,0.40615,0.01617
0.13262,-0.89638,0.42294,0.12168,0.1718,0.14947
0.10876,-0.89791,0.42648,0.28556,-0.4055,0.05738
0.107,-0.89561,0.43173,0.45549,-2.05758,0.22546
0.1228,-0.88533,0.4484,0.10096,-1.29343,0.36767
0.13155,-0.87713,0.46182,-0.07911,0.30247,0.43474
0.13453,-0.87835,0.45864,-0.27481,0.30415,0.08163
0.1251,-0.87922,0.45964,0.48043,-1.2911,-0.88823
0.11433,-0.87218,0.47559,-0.25412,-0.53429,-0.60539
0.11593,-0.87846,0.46348,-0.22608,0.05312,-0.51
0.11382,-0.87984,0.46139,-0.18709,0.35266,-0.74797
0.11603,-0.88139,0.45786,-0.21479,-0.00322,-0.65907
0.11667,-0.88887,0.44301,-0.01523,-0.52704,-0.69076
0.10736,-0.90318,0.41557,0.21626,-0.37488,-0.53515
0.09463,-0.91732,0.38667,0.2692,0.03003,-0.48143
0.0826,-0.93084,0.35591,-0.09189,0.13662,-0.40958
0.07851,-0.94223,0.32556,-0.20414,0.05059,-0.36862
0.08482,-0.95066,0.29834,-0.39505,0.09745,-0.38407
0.09183,-0.95941,0.26658,-0.25006,0.3466,-0.42228
0.09545,-0.96897,0.22793,-0.24103,0.41315,-0.28692
0.09331,-0.97789,0.18703,-0.18753,0.36359,-0.18854
0.08508,-0.98442,0.15375,0.13509,0.02788,-0.35857
0.08088,-0.98874,0.12576,0.12948,0.04889,-0.27719
0.07217,-0.99238,0.09964,0.06087,0.1382,-0.19905
0.0544,-0.99549,0.07748,0.12045,0.02766,-0.04348
0.03586,-0.99762,0.05855,0.22978,0.03087,-0.0514
0.01959,-0.99887,0.04291,0.30724,0.03065,-0.03792
0.00356,-0.99946,0.03199,0.29412,0.07487,0.07511
-0.01117,-0.99959,0.02577,0.31345,0.10728,-0.0005
-0.0261,-0.99945,0.01962,0.55491,0.11372,-0.09305
-0.04002,-0.99913,0.01056,0.70393,0.14018,-0.19524
-0.04912,-0.99877,0.00264,0.7464,0.15205,-0.16063
-0.05239,-0.99859,-0.00661,0.51081,-0.047,-0.3217
-0.0503,-0.9986,-0.01554,0.21334,-0.33136,-0.46146
-0.03341,-0.99932,-0.01464,-0.07227,-0.25618,-0.60212
-0.00471,-0.99997,0.00301,-0.26658,-0.49962,-0.27363
0.02825,-0.99875,0.04069,-0.61093,-0.79371,-0.38569
0.05837,-0.99493,0.08161,-0.57246,-0.89563,-0.3791
0.09018,-0.98936,0.114,-0.28544,-0.82496,-0.15978
0.12566,-0.98085,0.14866,-0.21975,-0.50687,-0.08825
0.16106,-0.9689,0.18776,-0.19763,-0.43349,-0.14446
0.18926,-0.9553,0.22702,0.01233,-0.19074,-0.05713
0.20929,-0.94302,0.25857,0.26707,0.0773,-0.12085
0.22978,-0.92848,0.29167,0.28863,0.19507,-0.2053
0.24769,-0.91151,0.32826,0.14685,0.24282,-0.32451
0.2549,-0.89683,0.36149,0.02103,0.17356,-0.41718
0.2537,-0.88454,0.39137,-0.13662,0.17641,-0.47797
0.24468,-0.87513,0.41741,-0.1381,0.37154,-0.56452
0.2282,-0.87001,0.43699,-0.28888,0.54315,-0.60309
0.2103,-0.86904,0.44778,-0.38348,0.64606,-0.51467
0.19378,-0.87228,0.44893,-0.35866,0.66258,-0.43388
0.17479,-0.88048,0.44063,-0.24449,0.58618,-0.29405
0.15402,-0.89185,0.42525,-0.12374,0.51126,-0.14815
0.13203,-0.90263,0.40962,0.06004,0.43734,-0.06503
0.10888,-0.91002,0.39996,0.13799,-0.00911,0.18716
0.09669,-0.91153,0.39964,0.21627,-0.43368,0.15454
0.1007,-0.90912,0.40412,0.32489,-1.26215,0.21401
0.11054,-0.90158,0.41818,0.29284,-1.222,0.25464
0.11208,-0.89407,0.43362,0.30763,-0.38115,0.33645
0.11551,-0.89556,0.42963,0.25212,-0.46302,-0.2992
0.11342,-0.8901,0.44137,0.01779,-1.63982,-1.08337
0.11987,-0.88516,0.44953,-0.3795,-0.36416,-0.43591
0.12753,-0.89271,0.43214,-0.194,0.66466,-0.66786
0.13126,-0.89251,0.43144,-0.35013,0.68269,-0.44673
0.12884,-0.89131,0.43464,-0.23086,-0.03802,-0.77172
0.12106,-0.90167,0.41507,0.16185,-0.26816,-0.67519
0.09895,-0.91819,0.38351,0.27833,-0.37237,-0.53661
0.07634,-0.93507,0.34606,0.10846,-0.24827,-0.45681
0.07037,-0.94697,0.31346,-0.23976,0.03209,-0.29245
0.07948,-0.95412,0.2886,-0.36828,0.15307,-0.34123
0.09317,-0.96086,0.26082,-0.27347,0.3822,-0.30768
0.102,-0.96957,0.22248,-0.13635,0.39776,-0.4256
0.10609,-0.97858,0.17629,-0.10617,0.26177,-0.25763
0.10283,-0.98521,0.13694,0.03541,0.01604,-0.23577
0.09947,-0.9886,0.11285,0.03853,0.04748,-0.25808
0.09178,-0.99154,0.09154,-0.08875,0.18731,-0.13379
0.07174,-0.99477,0.07248,0.00134,0.08275,-0.04911
0.04619,-0.99731,0.0565,0.34321,0.11258,-0.08561
0.02523,-0.99863,0.04538,0.3893,0.21715,-0.0567
0.0105,-0.99922,0.03763,0.40061,0.18327,0.03967
-0.00159,-0.99948,0.03164,0.30597,0.15486,0.01319
-0.01502,-0.99954,0.02569,0.45082,0.12919,0.03525
-0.02729,-0.99943,0.01916,0.51548,0.17388,-0.1375
-0.03685,-0.99917,0.01609,0.81975,0.21446,-0.09641
-0.04254,-0.99905,0.00786,0.69322,0.16712,-0.14478
-0.04466,-0.99895,-0.00812,0.5563,-0.20385,-0.18277
-0.03012,-0.99939,-0.01663,-0.10629,-0.35451,-0.46041
-0.00165,-0.99998,-0.00219,-0.31289,-0.49197,-0.37771
0.03452,-0.99908,0.02489,-0.63367,-0.81163,-0.44907
0.06327,-0.99633,0.05731,-0.58621,-0.84943,-0.51553
0.09316,-0.99157,0.08977,-0.56208,-0.86131,-0.22627
0.12997,-0.9836,0.1249,-0.33923,-0.51564,-0.03872
0.16585,-0.97171,0.16803,-0.18718,-0.47804,-0.03572
0.19387,-0.95909,0.20622,0.05424,-0.27058,-0.06409
0.21421,-0.94792,0.23562,0.24049,0.02882,-0.11628
0.23611,-0.93295,0.27168,0.2653,0.17737,-0.23842
0.25884,-0.91396,0.31245,0.04476,0.27019,-0.23226
0.26913,-0.89777,0.34861,0.07587,0.24332,-0.36043
0.2712,-0.88383,0.38111,-0.12569,0.27488,-0.47382
0.26311,-0.87184,0.41305,-0.20822,0.39348,-0.53134
0.24607,-0.86379,0.43961,-0.23233,0.48887,-0.58686
0.22485,-0.86085,0.45642,-0.32135,0.52641,-0.5271
0.20412,-0.86271,0.46262,-0.295,0.49201,-0.43235
0.18359,-0.8692,0.45905,-0.26672,0.47786,-0.32834
0.16024,-0.88023,0.44662,-0.18319,0.50695,-0.22921
0.13488,-0.89274,0.42986,0.12894,0.30842,-0.02675
0.1104,-0.90319,0.41473,0.04893,0.14776,0.1469
0.09148,-0.90774,0.40938,-0.03832,-0.05093,0.23509
0.08888,-0.90558,0.41469,0.16332,-1.65379,0.20034
0.10007,-0.89986,0.42448,0.07402,-1.40449,0.19422
0.109,-0.8918,0.43903,0.09792,-0.13484,0.31069
0.11216,-0.8876,0.44669,-0.17677,0.01866,0.27432
0.11345,-0.8868,0.44796,0.38701,-1.1665,-0.65749
0.11642,-0.8815,0.45756,0.05416,-1.30423,-1.05546
0.13362,-0.8819,0.45204,-0.08099,0.56354,-0.5988
0.1438,-0.88378,0.4452,-0.17821,0.66248,-0.60183
0.14025,-0.88174,0.45034,-0.2912,0.54339,-0.4958
0.12976,-0.88633,0.44444,-0.15824,-0.30067,-0.76639
0.11196,-0.90097,0.41911,0.30944,-0.21667,-0.63796
0.09527,-0.91696,0.38737,0.38092,-0.23355,-0.55726
0.08579,-0.93125,0.35406,-0.06203,-0.0416,-0.33836
0.08794,-0.94097,0.32679,-0.19101,-0.02575,-0.28335
0.09717,-0.94837,0.30182,-0.28687,-0.00638,-0.31427
0.10414,-0.95683,0.27125,-0.22523,0.35427,-0.37754
0.10914,-0.96732,0.22875,-0.19379,0.27787,-0.36658
0.10892,-0.97668,0.18489,-0.15483,0.12433,-0.27519
0.10104,-0.98293,0.15364,-0.03515,-0.00038,-0.3083
0.09275,-0.98709,0.1304,0.08197,-0.06171,-0.27608
0.08138,-0.99081,0.10785,0.00292,0.23918,-0.14288
0.06217,-0.99406,0.08911,0.07128,0.16973,-0.00288
0.04061,-0.99646,0.07334,0.16704,0.17445,-0.01405
0.02268,-0.99798,0.05904,0.38843,0.29942,-0.00035
0.00759,-0.99875,0.04896,0.39433,0.14624,0.03922
-0.00632,-0.99921,0.03885,0.3208,0.07912,0.04619
-0.01974,-0.99932,0.03063,0.3078,0.02419,-0.07455
-0.03333,-0.99916,0.02283,0.5029,0.13324,-0.22105
-0.04324,-0.99888,0.01844,0.60765,0.19809,-0.12214
-0.04786,-0.99874,0.01359,0.54698,0.02639,-0.23296
-0.04805,-0.99881,0.00519,0.4943,-0.24923,-0.40396
-0.03463,-0.99937,0.00546,-0.17488,-0.29919,-0.38999
-0.00136,-0.99972,0.023,-0.30507,-0.67073,-0.29222
0.04191,-0.99764,0.05401,-0.56047,-0.81777,-0.57252
0.07282,-0.99325,0.0901,-0.54105,-0.96446,-0.46336
0.10163,-0.98692,0.125,-0.37191,-0.93676,-0.17654
0.13655,-0.97753,0.16047,-0.16906,-0.49826,-0.08068
0.1718,-0.96505,0.19776,-0.17357,-0.41405,-0.17631
0.20074,-0.95173,0.23208,0.03156,-0.20552,-0.11651
0.22034,-0.93773,0.26845,0.2402,0.09331,-0.14904
0.23932,-0.92063,0.30842,0.28285,0.21294,-0.20767
0.25456,-0.90368,0.34426,0.20662,0.20007,-0.28203
0.25602,-0.89024,0.37667,0.12843,0.2185,-0.46601
0.25356,-0.87889,0.40398,-0.12657,0.22646,-0.45243
0.24293,-0.87038,0.42821,-0.24022,0.31043,-0.55202
0.22177,-0.86573,0.44864,-0.37738,0.70028,-0.51127
0.20329,-0.86509,0.45853,-0.3589,0.69964,-0.52115
0.18968,-0.86812,0.45863,-0.27696,0.65488,-0.44041
0.1747,-0.87536,0.45075,-0.17314,0.46352,-0.23473
0.15534,-0.88608,0.43667,-0.07698,0.37813,-0.1413
0.13377,-0.89607,0.42322,0.07042,0.24066,-0.05249
0.11868,-0.90222,0.41458,-0.00337,-0.2087,0.09269
0.11241,-0.90491,0.41044,0.05101,-0.63313,0.19657
0.1115,-0.90067,0.41989,0.23892,-1.50574,0.1223
0.11755,-0.89407,0.43216,0.24922,-1.0667,0.25867
0.11642,-0.88935,0.4421,0.20116,-0.03863,0.47291
0.11552,-0.89268,0.43558,0.12519,-0.04652,0.06968
0.11417,-0.89138,0.43858,0.26874,-1.38376,-0.9326
0.11935,-0.88409,0.45176,-0.39569,-0.76111,-0.57965
0.12719,-0.89221,0.43328,-0.29723,0.28227,-0.59899
0.12989,-0.89769,0.42099,-0.36712,0.7032,-0.55692
0.12515,-0.89601,0.42597,-0.34604,0.40405,-0.46531
0.12052,-0.90126,0.41611,-0.10876,-0.03776,-0.75046
0.10658,-0.91539,0.38814,0.28576,-0.30174,-0.59539
0.08495,-0.9327,0.35045,0.38482,-0.47326,-0.53
0.07472,-0.94599,0.3154,-0.14074,0.05181,-0.31556
0.08469,-0.95307,0.29057,-0.18786,0.16056,-0.23439
0.10298,-0.95915,0.26339,-0.32719,0.30124,-0.30539
0.11342,-0.96646,0.23033,-0.24358,0.44729,-0.43059
0.11338,-0.97494,0.1913,-0.20712,0.41088,-0.35502
0.10385,-0.98254,0.15421,-0.01198,-0.05057,-0.24164
0.09631,-0.98728,0.12634,0.12426,-0.01191,-0.30596
0.09308,-0.99043,0.10169,0.0582,0.21623,-0.18507
0.07942,-0.99342,0.08233,0.0629,0.20413,-0.04473
0.05714,-0.99616,0.06606,0.23688,0.20458,-0.04129
0.03585,-0.99818,0.0482,0.39636,0.15989,-0.0469
0.01819,-0.99926,0.03326,0.37059,0.09361,-0.02862
0.00417,-0.99969,0.02375,0.35274,0.0251,0.00805
-0.01034,-0.99982,0.01473,0.53848,0.0073,-0.03137
-0.02345,-0.9997,0.00297,0.42164,0.00115,-0.15117
-0.03427,-0.99939,-0.00347,0.45009,-0.03906,-0.07322
-0.04038,-0.99913,-0.0091,0.28815,0.01876,-0.20963
-0.03887,-0.99914,-0.01307,0.55573,-0.19857,-0.366
-0.02774,-0.99955,-0.00961,-0.06152,-0.2168,-0.46576
-0.00263,-0.99995,0.00707,-0.10939,-0.31653,-0.31103
0.03235,-0.99879,0.03662,-0.3375,-0.5615,-0.44862
0.06435,-0.99507,0.07521,-0.4708,-0.65279,-0.41554
0.09367,-0.98869,0.11697,-0.54359,-1.07561,-0.32533
0.12696,-0.97983,0.15417,-0.50676,-0.90887,-0.25032
0.16123,-0.96728,0.19581,-0.21396,-0.45864,-0.13289
0.18759,-0.95313,0.23731,-0.00526,-0.24688,-0.1151
0.20823,-0.93977,0.27098,0.10459,-0.11843,-0.13657
0.22752,-0.92421,0.30665,0.33262,0.11662,-0.17634
0.24194,-0.90664,0.34557,0.21593,0.2238,-0.31277
0.24531,-0.89198,0.37966,0.03411,0.26694,-0.43255
0.2411,-0.87936,0.41054,-0.0288,0.23781,-0.52036
0.23305,-0.8683,0.43783,-0.21839,0.33485,-0.59426
0.21568,-0.86095,0.46065,-0.37694,0.57498,-0.62627
0.19625,-0.85855,0.47364,-0.27927,0.59376,-0.60347
0.17963,-0.86088,0.47599,-0.2995,0.55826,-0.51564
0.15902,-0.86845,0.46954,-0.21072,0.55503,-0.36765
0.13696,-0.87984,0.45506,-0.17005,0.52318,-0.24146
0.11436,-0.89094,0.43944,0.05156,0.32007,-0.06857
0.09165,-0.89811,0.43006,0.07322,0.09784,0.11191
0.07951,-0.89735,0.43405,0.13766,-0.24039,0.05078
0.08483,-0.89394,0.44002,0.37262,-1.60989,0.27012
0.09727,-0.88699,0.45137,0.34936,-1.74967,0.16884
0.09743,-0.88141,0.46214,0.01155,0.38359,0.56563
0.09207,-0.88508,0.45619,0.1543,-0.12319,-0.15799
0.08156,-0.88404,0.46019,0.40568,-1.65695,-1.10863
0.07453,-0.87365,0.48076,-0.39026,-0.53249,-0.54238
0.07422,-0.88376,0.46195,-0.42629,0.439,-0.5608
0.06978,-0.88652,0.45735,-0.39469,0.82115,-0.57559
0.07157,-0.8856,0.45885,-0.19502,0.19212,-0.70561
0.07725,-0.88975,0.44981,-0.06261,-0.15685,-0.8753
0.07476,-0.90353,0.42189,0.4576,-0.46592,-0.51374
0.05605,-0.92102,0.3854,0.25585,-0.17474,-0.53104
0.04201,-0.93572,0.35016,-0.1106,0.17194,-0.40479
0.04558,-0.94509,0.32355,-0.27764,0.1113,-0.3407
0.06045,-0.9525,0.29839,-0.35866,0.22832,-0.42299
0.07313,-0.9616,0.26443,-0.30946,0.35353,-0.48275
0.07758,-0.97262,0.21898,-0.22539,0.23892,-0.35174
0.07137,-0.98157,0.17713,-0.08549,0.02013,-0.25298
0.06509,-0.9865,0.15015,0.0657,-0.03979,-0.31302
0.06304,-0.98998,0.12617,0.09153,0.04498,-0.22111
0.05129,-0.99336,0.10277,0.10979,0.17265,-0.15385
0.03293,-0.99576,0.0857,0.2736,0.16933,-0.08962
0.01702,-0.99747,0.0687,0.42454,0.16807,-0.03513
0.00304,-0.99835,0.05704,0.51677,0.08465,0.05318
-0.00974,-0.99872,0.04918,0.2934,0.12491,0.04266
-0.02426,-0.99889,0.03998,0.29822,0.09311,0.00048
-0.03857,-0.99878,0.03018,0.40697,0.01245,-0.08489
-0.04985,-0.99848,0.02254,0.50856,0.1065,-0.24067
-0.05852,-0.99812,0.01733,0.6015,0.1119,-0.16665
-0.06274,-0.99797,0.00901,0.55857,0.03514,-0.30476
-0.05926,-0.99822,-0.00033,0.5321,-0.27169,-0.52408
-0.03864,-0.99923,-0.00085,-0.1829,-0.27049,-0.52398
-0.00091,-0.99979,0.01978,-0.30303,-0.67499,-0.29446
0.03705,-0.99781,0.0545,-0.55591,-0.75206,-0.51677
0.06548,-0.99339,0.09407,-0.59638,-0.68438,-0.47904
0.09498,-0.98629,0.13482,-0.46874,-0.81309,-0.2172
0.12943,-0.97584,0.17593,-0.35895,-0.57505,-0.12504
0.16228,-0.96245,0.21751,-0.20434,-0.45709,-0.21518
0.18719,-0.94772,0.25834,0.02469,-0.2463,-0.11387
0.20835,-0.93354,0.29164,0.2823,0.08384,-0.13164
0.23113,-0.91643,0.32663,0.30044,0.12932,-0.20116
0.24861,-0.89869,0.36123,0.24968,0.15227,-0.27182
0.25283,-0.88421,0.39269,-0.05782,0.23624,-0.43471
0.24833,-0.87189,0.42201,0.06538,0.19102,-0.47725
0.23774,-0.8619,0.44784,-0.10419,0.24057,-0.53829
0.21644,-0.85643,0.46865,-0.30652,0.64332,-0.56255
0.19519,-0.85585,0.47893,-0.24974,0.57097,-0.52452
0.17537,-0.86005,0.47907,-0.21221,0.56949,-0.39577
0.15433,-0.8696,0.46896,-0.19279,0.55235,-0.2725
0.13273,-0.88171,0.45267,-0.00068,0.42273,-0.10371
0.10807,-0.89167,0.43954,0.17921,0.22968,0.02478
0.08752,-0.89589,0.43552,0.1316,-0.0846,0.00235
0.08209,-0.89539,0.43758,0.34429,-1.48722,0.27436
0.0902,-0.89026,0.44636,0.16306,-1.58644,0.17752
0.09679,-0.8834,0.45847,0.09706,-0.40184,0.3562
0.09565,-0.87862,0.46779,-0.27026,-0.06427,0.23944
0.09456,-0.87878,0.46771,0.46135,-1.28348,-0.71655
0.08752,-0.8719,0.48174,-0.21646,-0.78964,-0.47255
0.09725,-0.86947,0.48426,-0.05947,0.29134,-0.69315
0.11291,-0.87578,0.46925,-0.20871,0.73273,-0.73915
0.11755,-0.87694,0.46594,-0.35909,0.29129,-0.49132
0.11071,-0.87981,0.46219,-0.3536,-0.12672,-0.73569
0.08616,-0.89398,0.4397,0.26292,-0.41439,-0.6118
0.05532,-0.91131,0.40791,0.34399,-0.3463,-0.56943
0.04008,-0.92736,0.37194,0.08758,0.02221,-0.44426
0.04472,-0.9381,0.34339,-0.1443,0.25487,-0.28991
0.06091,-0.94538,0.32016,-0.33458,0.28771,-0.35959
0.07522,-0.95277,0.29415,-0.29868,0.44745,-0.4054
0.08002,-0.96288,0.25772,-0.21332,0.41236,-0.38923
0.07795,-0.97338,0.21545,0.02966,0.03133,-0.33119
0.07329,-0.98027,0.18346,0.13611,-0.03777,-0.35328
0.07288,-0.98412,0.16171,0.22941,-0.03509,-0.31248
0.06829,-0.98792,0.13893,-0.00621,0.22308,-0.15627
0.05381,-0.99156,0.1178,0.00826,0.22671,-0.13513
0.03499,-0.99434,0.10016,0.17877,0.12346,-0.09302
0.01741,-0.99625,0.08447,0.25808,0.06333,-0.0771
0.00101,-0.99742,0.07155,0.31354,-0.04834,-0.0088
-0.01461,-0.99796,0.06178,0.24303,-0.01418,-0.03952
-0.03093,-0.99808,0.05327,0.25242,0.02486,-0.13842
-0.04893,-0.99777,0.04504,0.39872,0.05914,-0.21908
-0.06224,-0.9972,0.04111,0.56842,0.11368,-0.17597
-0.06894,-0.997,0.03475,0.47342,0.03392,-0.05976
-0.07188,-0.99704,0.02655,0.5274,-0.06109,-0.2955
-0.0698,-0.99735,0.01947,0.34323,-0.07169,-0.47362
-0.04888,-0.99862,0.01841,-0.04419,-0.14384,-0.45145
-0.01348,-0.99941,0.03106,-0.1731,-0.53004,-0.38163
0.02347,-0.99795,0.05917,-0.50403,-0.70552,-0.47633
0.0548,-0.99337,0.10088,-0.55674,-0.69088,-0.42977
0.08806,-0.98654,0.13762,-0.43442,-0.75247,-0.19341
0.12421,-0.97726,0.17174,-0.25074,-0.53443,-0.1167
0.15941,-0.96447,0.2106,-0.13141,-0.53334,-0.09784
0.18774,-0.95125,0.24459,0.07845,-0.23287,-0.0969
0.2096,-0.93888,0.27301,0.24223,0.01192,-0.18755
0.23254,-0.92263,0.30763,0.26323,0.10435,-0.23596
0.25174,-0.90426,0.34481,0.11779,0.12412,-0.30654
0.25973,-0.88872,0.37771,0.11521,0.09136,-0.41322
0.25851,-0.87575,0.40767,-0.14987,0.11999,-0.53172
0.25097,-0.8646,0.43523,-0.26361,0.32397,-0.5906
0.2362,-0.85727,0.45743,-0.33471,0.51113,-0.59529
0.22041,-0.85432,0.47064,-0.32675,0.62811,-0.54202
0.20384,-0.85536,0.47619,-0.3217,0.64793,-0.47655
0.1841,-0.86112,0.47384,-0.23554,0.58326,-0.34474
0.16204,-0.87103,0.46369,-0.15609,0.54905,-0.26811
0.13829,-0.88225,0.44995,0.13968,0.42765,-0.06506
0.11364,-0.89194,0.43758,0.09005,-0.01547,-0.07721
0.09083,-0.89617,0.43425,0.17687,-0.07725,0.05417
0.09052,-0.89467,0.43741,0.29296,-0.78034,0.23537
0.10291,-0.88819,0.44774,0.19938,-1.53249,0.28676
0.11041,-0.88083,0.46032,0.04208,-0.12681,0.47859
0.11236,-0.87842,0.46444,0.15858,-0.29659,-0.05675
0.10771,-0.87809,0.46616,0.14696,-1.27183,-0.79729
0.1025,-0.87106,0.48031,-0.23351,-0.40696,-0.40326
0.1161,-0.87358,0.47258,-0.07115,0.36218,-0.64514
0.12899,-0.87983,0.4574,-0.22692,0.76466,-0.57973
0.12947,-0.88202,0.45301,-0.29757,0.23409,-0.58857
0.12112,-0.88606,0.44741,-0.21632,-0.40523,-0.7916
0.09949,-0.90056,0.42313,0.06505,-0.39656,-0.68106
0.07277,-0.91917,0.38701,0.08255,-0.28461,-0.50687
0.06146,-0.93373,0.3526,0.09386,-0.27005,-0.47246
0.07052,-0.9422,0.32748,-0.21777,0.24443,-0.26595
0.08963,-0.94951,0.30057,-0.31963,0.45496,-0.37242
0.10307,-0.95772,0.26852,-0.2561,0.43995,-0.45866
0.10639,-0.96704,0.23123,-0.20404,0.40813,-0.45078
0.10028,-0.97546,0.19593,0.22465,-0.12235,-0.27977
0.08909,-0.98108,0.17177,0.28827,-0.13273,-0.25634
0.07149,-0.98607,0.15007,0.00872,0.15054,-0.25622
0.05041,-0.99039,0.12863,-0.24699,0.36071,-0.20177
0.03438,-0.99274,0.11513,-0.06853,0.1187,0.0009
0.02581,-0.9947,0.09932,0.29147,0.06906,-0.04062
0.01452,-0.99675,0.07905,0.55058,0.02357,-0.11985
0.0001,-0.99784,0.06543,0.37893,0.04041,0.02458
-0.0141,-0.99819,0.05812,0.15922,0.05436,-0.10684
-0.02954,-0.99836,0.04873,0.41055,-0.00791,-0.19335
-0.04425,-0.99818,0.04051,0.39455,0.02366,-0.1341
-0.05416,-0.99785,0.0363,0.38721,-0.00128,-0.11401
-0.05937,-0.99776,0.03013,0.45026,-0.04202,-0.18589
-0.05835,-0.99804,0.02178,0.66844,-0.19333,-0.33793
-0.04234,-0.99895,0.01679,-0.05356,-0.31746,-0.43825
-0.00926,-0.99961,0.02581,-0.19166,-0.53778,-0.38498
0.02733,-0.9983,0.05121,-0.55871,-0.63844,-0.46808
0.05865,-0.99374,0.09492,-0.52716,-0.58706,-0.39669
0.08684,-0.98636,0.13965,-0.4326,-0.67796,-0.17611
0.11743,-0.9773,0.17621,-0.30785,-0.50973,-0.07863
0.1521,-0.96491,0.21394,-0.10037,-0.38903,-0.12095
0.18283,-0.95065,0.25058,0.12144,-0.1541,-0.0683
0.20578,-0.93689,0.28258,0.27495,0.11094,-0.14022
0.22651,-0.92127,0.31607,0.30286,0.21047,-0.25156
0.24197,-0.90433,0.35156,0.17119,0.2428,-0.30807
0.24926,-0.88991,0.38195,-0.14133,0.2169,-0.36593
0.24922,-0.87693,0.41089,-0.01153,0.11982,-0.41571
0.247,-0.86581,0.4351,-0.29865,0.22456,-0.52225
0.23724,-0.85778,0.45593,-0.28672,0.33425,-0.5544
0.22711,-0.85246,0.47083,-0.25619,0.42511,-0.50966
0.21609,-0.85041,0.47964,-0.22387,0.43789,-0.48788
0.20136,-0.85236,0.48259,-0.16378,0.49455,-0.37706
0.18175,-0.85896,0.47865,-0.11473,0.52201,-0.34877
0.15886,-0.86949,0.46765,0.05595,0.41495,-0.20819
0.13382,-0.88119,0.45337,0.16258,0.20194,-0.02294
0.10902,-0.88847,0.44574,0.17209,-0.09986,-0.01358
0.09974,-0.88845,0.44795,0.42088,-1.38073,0.19129
0.10835,-0.88368,0.45533,0.32404,-1.53388,0.25089
0.11634,-0.87572,0.46853,0.17157,-0.62222,0.32813
0.11687,-0.87227,0.4748,-0.50922,0.1638,0.51526
0.11304,-0.87204,0.47614,0.72085,-1.34444,-0.78729
0.10608,-0.86272,0.49437,-0.33607,-1.04128,-0.72537
0.11532,-0.86686,0.48498,-0.24467,0.63303,-0.57568
0.12602,-0.87103,0.47473,-0.2541,0.86734,-0.65974
0.12863,-0.8711,0.47392,-0.28949,0.79457,-0.59245
0.1273,-0.87311,0.47056,-0.02664,-0.55021,-0.82511
0.11179,-0.88624,0.44948,0.27038,-0.58364,-0.71437
0.08694,-0.90576,0.41473,0.39219,-0.56489,-0.63306
0.07105,-0.92217,0.38013,-0.1013,0.04519,-0.33794
0.07194,-0.93194,0.35534,-0.18025,0.17291,-0.26029
0.08445,-0.94035,0.32949,-0.28707,0.18388,-0.29546
0.09548,-0.95029,0.29629,-0.20399,0.3967,-0.4692
0.09987,-0.96108,0.25751,-0.17052,0.3638,-0.46491
0.09738,-0.97059,0.22007,-0.11334,0.34149,-0.37394
0.09135,-0.977,0.19255,0.28867,-0.04996,-0.35226
0.08796,-0.98143,0.17037,0.23133,0.01153,-0.29311
0.08125,-0.98606,0.14504,-0.15411,0.34516,-0.21094
0.06943,-0.98993,0.12321,0.04147,0.14384,-0.0401
0.05026,-0.99357,0.10125,0.15586,0.04934,-0.01109
0.03058,-0.99642,0.07862,0.30899,-0.03579,-0.12953
0.01187,-0.99795,0.06264,0.34291,-0.08529,-0.0025
-0.00867,-0.99855,0.05276,0.28035,-0.02992,0.00576
-0.03047,-0.99848,0.04556,0.33863,0.206,-0.12752
-0.05413,-0.99787,0.03578,0.54291,0.08552,-0.13911
-0.07006,-0.9972,0.02562,0.65375,0.01537,-0.16114
-0.07964,-0.99668,0.01593,0.36937,-0.03513,-0.01433
-0.08603,-0.99626,0.00497,0.32025,-0.10415,-0.41343
-0.08947,-0.99595,-0.0071,0.64571,-0.2264,-0.43504
-0.07664,-0.997,-0.00953,-0.02245,-0.26912,-0.68215
-0.04922,-0.99876,-0.00381,-0.24913,-0.41444,-0.37006
-0.01289,-0.9997,0.0198,-0.52119,-0.63927,-0.3531
0.02521,-0.99754,0.06517,-0.53712,-0.5907,-0.42024
0.06173,-0.99181,0.11163,-0.47191,-0.7255,-0.31086
0.09096,-0.98441,0.1504,-0.4675,-0.58637,-0.10162
0.12213,-0.97412,0.19008,-0.30207,-0.42343,-0.23463
0.1542,-0.95993,0.23392,-0.09641,-0.28337,-0.22084
0.18085,-0.94485,0.27295,0.15043,-0.01848,-0.16686
0.20509,-0.9295,0.30648,0.25864,0.12533,-0.17238
0.22793,-0.91141,0.34255,0.21363,0.13941,-0.29375
0.24217,-0.89462,0.37544,0.11916,0.15674,-0.31854
0.2458,-0.88079,0.40464,-0.16487,0.11903,-0.42228
0.24072,-0.86824,0.43379,-0.08166,0.15706,-0.48385
0.23314,-0.85915,0.45548,-0.23952,0.23412,-0.56122
0.21966,-0.85391,0.47175,-0.40589,0.61088,-0.53231
0.20405,-0.85244,0.48131,-0.21022,0.55309,-0.48983
0.1867,-0.85525,0.48336,-0.12653,0.54036,-0.37735
0.16614,-0.86276,0.47749,-0.079,0.5478,-0.26387
0.14243,-0.87278,0.46683,0.1119,0.43004,-0.13182
0.11435,-0.88224,0.45665,0.2852,0.22839,-0.10049
0.09014,-0.88757,0.45171,0.26237,0.0551,-0.09364
0.08281,-0.88921,0.44989,0.28572,-1.52947,0.14406
0.09014,-0.88335,0.45992,0.18766,-1.66738,0.15731
0.09777,-0.87471,0.47464,0.17588,-0.88869,0.26723
0.09969,-0.87203,0.47915,-0.43019,0.46424,0.72587
0.09499,-0.87477,0.47508,0.39495,-0.7995,-0.65696
0.09066,-0.86335,0.49635,-0.12124,-1.32822,-1.02673
0.09988,-0.86659,0.48888,-0.19322,-0.21059,-0.36826
0.10456,-0.86985,0.48205,-0.16127,0.72006,-0.71824
0.10607,-0.86814,0.4848,-0.22123,0.10854,-0.63029
0.10718,-0.87042,0.48045,0.01373,-0.4787,-0.84329
0.09556,-0.88493,0.45576,0.3308,-0.41902,-0.61942
0.07194,-0.90315,0.42319,0.15627,-0.21464,-0.55266
0.05478,-0.91918,0.38995,-0.1154,0.03873,-0.43479
0.05619,-0.93084,0.36101,-0.26641,0.0234,-0.37785
0.07107,-0.94044,0.33237,-0.35789,0.14337,-0.45078
0.08414,-0.95034,0.29956,-0.2316,0.36539,-0.5364
0.09011,-0.96059,0.26286,-0.18278,0.37523,-0.4996
0.09041,-0.97008,0.22523,-0.06545,0.11077,-0.26741
0.08362,-0.9773,0.19457,0.02913,-0.03071,-0.37634
0.07747,-0.98212,0.17147,0.07483,-0.02528,-0.38093
0.06918,-0.98605,0.1513,-0.08686,0.21476,-0.2076
0.05466,-0.98923,0.13563,0.05476,0.21123,-0.06318
0.03903,-0.99196,0.12026,0.31697,0.22122,-0.03592
0.02432,-0.99411,0.1054,0.4386,0.2065,-0.0434
0.0126,-0.99548,0.09389,0.38979,0.18976,-0.01593
0.00378,-0.99625,0.08628,0.24822,0.03894,-0.04406
-0.00717,-0.99682,0.07908,0.34444,-0.08374,-0.13115
-0.0204,-0.99713,0.07262,0.45838,0.06752,-0.18887
-0.03061,-0.99702,0.07061,0.56174,0.09788,-0.09302
-0.03637,-0.99705,0.06732,0.50466,0.01309,-0.14463
-0.03881,-0.99746,0.05934,0.65069,-0.2045,-0.31717
-0.03024,-0.99787,0.05752,0.02941,-0.2059,-0.40709
-0.00693,-0.99775,0.06641,-0.13469,-0.24866,-0.42599
0.02528,-0.99573,0.08853,-0.34482,-0.55865,-0.49552
0.05537,-0.99017,0.12831,-0.4895,-0.67353,-0.59947
0.08396,-0.98263,0.16538,-0.50342,-0.96203,-0.37728
0.11871,-0.97341,0.19581,-0.32724,-0.65971,-0.20309
0.1575,-0.96011,0.23094,-0.2814,-0.60063,-0.17099
0.18916,-0.94567,0.26437,-0.16841,-0.41052,-0.17721
0.20978,-0.9315,0.29709,0.10665,-0.09342,-0.12545
0.22798,-0.91525,0.3321,0.29113,0.12891,-0.19299
0.24699,-0.89612,0.36867,0.26267,0.15601,-0.3239
0.25451,-0.8794,0.40228,-0.00889,0.22433,-0.42987
0.24919,-0.86605,0.43338,0.01468,0.22207,-0.50643
0.24025,-0.85513,0.45932,-0.33599,0.32288,-0.58016
0.21756,-0.84776,0.48366,-0.22334,0.47627,-0.67528
0.19433,-0.84433,0.4993,-0.27032,0.53111,-0.60848
0.17416,-0.84488,0.50577,-0.3139,0.50485,-0.53381
0.15348,-0.85047,0.50309,-0.23649,0.50035,-0.41777
0.13216,-0.8605,0.49195,-0.17835,0.50841,-0.31054
0.10812,-0.87263,0.47622,-0.00083,0.44268,-0.18479
0.0819,-0.88367,0.46084,0.05873,0.01785,-0.01158
0.0605,-0.88787,0.45604,0.06882,-0.07937,0.12401
0.05901,-0.88611,0.45965,0.12273,-0.44072,0.07659
0.07413,-0.88011,0.46889,0.26297,-1.71077,0.12801
0.08558,-0.87194,0.48202,0.13697,-0.06748,0.35929
0.08635,-0.8698,0.48575,-0.08241,0.31193,0.28255
0.08768,-0.87487,0.4763,0.51706,-0.25942,-0.29165
0.08038,-0.86861,0.48889,-0.13516,-0.96486,-0.76159
0.07998,-0.86626,0.4931,-0.20257,-0.20814,-0.71886
0.08362,-0.87175,0.4827,-0.27541,0.47501,-0.69521
0.08225,-0.87629,0.47466,-0.32743,0.56354,-0.6525
0.07804,-0.88029,0.46792,-0.25019,-0.12131,-0.78939
0.07148,-0.89241,0.44548,0.13439,-0.13207,-0.68241
0.05666,-0.91094,0.40858,0.28607,-0.11313,-0.59792
0.03925,-0.92727,0.37228,0.07043,-0.16336,-0.49627
0.03658,-0.93748,0.34605,-0.11691,0.04453,-0.32661
0.05398,-0.94442,0.3242,-0.17424,0.1436,-0.31304
0.07402,-0.95151,0.2985,-0.18402,0.3821,-0.46777
0.08665,-0.95962,0.26754,-0.13623,0.42545,-0.33409
0.0902,-0.96887,0.23045,-0.04318,0.1435,-0.30672
0.08526,-0.97642,0.19821,0.14933,-0.13187,-0.35062
0.08453,-0.98142,0.17211,0.18664,-0.10337,-0.32192
0.0808,-0.98555,0.14876,0.04989,0.1466,-0.18682
0.06721,-0.98924,0.12983,0.05059,0.14639,-0.05772
0.05136,-0.99229,0.11263,0.2402,0.10468,-0.08935
0.03712,-0.9946,0.09672,0.37029,0.04224,-0.06123
0.02147,-0.99612,0.08511,0.36478,0.05259,-0.0048
0.00437,-0.99708,0.07602,0.25401,0.15656,-0.03015
-0.0122,-0.99769,0.06656,0.31629,0.1289,-0.09506
-0.02674,-0.99822,0.05291,0.41804,-0.0223,-0.15712
-0.03798,-0.9984,0.04149,0.37216,-0.04915,-0.18284
-0.04628,-0.99834,0.03381,0.37872,-0.03396,-0.12965
-0.04966,-0.99837,0.02734,0.38012,-0.01768,-0.41482
-0.04868,-0.99849,0.0247,0.32807,-0.17993,-0.37042
-0.03218,-0.99892,0.03299,-0.10447,-0.10324,-0.50325
-0.00099,-0.99845,0.05524,-0.09238,-0.2945,-0.32706
0.03523,-0.9948,0.09538,-0.4815,-0.77531,-0.40538
0.06699,-0.98791,0.13964,-0.57416,-0.86406,-0.47398
0.09605,-0.97998,0.17427,-0.6094,-1.01565,-0.25854
0.12819,-0.9693,0.20972,-0.23251,-0.59224,-0.15349
0.16115,-0.95521,0.24809,-0.19222,-0.52475,-0.1752
0.18789,-0.94081,0.28201,-0.10778,-0.4108,-0.18085
0.20943,-0.9248,0.31755,0.25494,0.19959,-0.18642
0.22777,-0.90536,0.35832,0.26674,0.25557,-0.23922
0.24131,-0.88787,0.39166,0.20936,0.24595,-0.33026
0.2462,-0.8718,0.42343,-0.05779,0.22471,-0.48555
0.24459,-0.85692,0.45367,-0.16789,0.26161,-0.53306
0.23484,-0.84479,0.48076,-0.14036,0.29313,-0.58071
0.21913,-0.83732,0.50082,-0.29707,0.60964,-0.58744
0.196,-0.83668,0.51137,-0.32398,0.64489,-0.58119
0.16732,-0.84371,0.51,-0.17875,0.50771,-0.43313
0.13992,-0.85679,0.49626,-0.19592,0.46383,-0.24873
0.1125,-0.87056,0.47898,0.11093,0.34988,-0.02919
0.08659,-0.87968,0.46756,0.15358,0.1903,-0.0031
0.06565,-0.88185,0.46689,0.09082,-0.24012,-0.12308
0.05915,-0.88265,0.46624,0.20584,-0.91842,0.18853
0.06674,-0.8754,0.4787,0.03563,-1.53071,0.21015
0.0762,-0.86889,0.48905,0.06035,-0.15548,0.21671
0.07888,-0.86788,0.49042,-0.04404,0.44263,0.44229
0.07564,-0.87192,0.4837,0.65652,-0.74055,-0.59079
0.0694,-0.86492,0.49703,-0.12686,-1.04085,-0.78493
0.06784,-0.86241,0.50159,-0.21356,-0.33619,-0.57728
0.07022,-0.86655,0.49407,-0.11312,0.38762,-0.7995
0.07635,-0.86795,0.49069,-0.16047,0.39715,-0.64696
0.07909,-0.87055,0.48562,-0.15702,0.09467,-0.77811
0.07733,-0.88302,0.46286,0.26953,-0.27268,-0.65209
0.06461,-0.90047,0.43002,0.36761,-0.08689,-0.55438
0.04664,-0.91677,0.39662,0.10536,0.06773,-0.53419
0.0385,-0.92864,0.36891,-0.14852,0.05657,-0.36884
0.04968,-0.93713,0.34535,-0.35986,-0.03452,-0.42871
0.06917,-0.94544,0.31828,-0.35245,0.26916,-0.40219
0.08521,-0.95667,0.27833,-0.27862,0.32702,-0.44387
0.09072,-0.96744,0.23617,-0.0664,0.0017,-0.3433
0.08482,-0.97442,0.20801,0.04091,-0.03687,-0.3416
0.08048,-0.9788,0.18822,0.15007,-0.02047,-0.33901
0.07631,-0.98326,0.16535,0.01179,0.2362,-0.21211
0.06258,-0.98736,0.14544,0.05677,0.18803,-0.13004
0.04685,-0.99025,0.131,0.13493,0.15079,-0.11331
0.03374,-0.99243,0.11795,0.38657,0.05561,-0.02069
0.02043,-0.99409,0.10641,0.43732,-0.01369,-0.00833
0.00755,-0.99539,0.09545,0.41669,-0.01749,-0.00561
-0.00672,-0.99636,0.08472,0.40519,0.01118,-0.15463
-0.02276,-0.99697,0.07414,0.4316,0.04661,-0.18896
-0.03621,-0.99713,0.06626,0.46299,0.06193,-0.22411
-0.04342,-0.9974,0.05715,0.26843,-0.03425,-0.24056
-0.04579,-0.99771,0.04941,0.33435,-0.0349,-0.49877
-0.04396,-0.99776,0.05003,0.58593,-0.17201,-0.39694
-0.02411,-0.99793,0.0593,-0.12707,-0.24136,-0.36957
0.01046,-0.99666,0.0807,-0.16162,-0.40806,-0.2711
0.04446,-0.99198,0.11816,-0.34443,-0.60601,-0.41641
0.0746,-0.98518,0.15432,-0.38512,-0.85233,-0.39206
0.10593,-0.97688,0.18556,-0.25928,-0.78259,-0.27121
0.13968,-0.96458,0.22368,-0.22118,-0.59467,-0.11583
0.17301,-0.94987,0.26032,-0.17965,-0.48139,-0.19561
0.19807,-0.93554,0.29239,-0.09917,-0.32406,-0.2079
0.21383,-0.91988,0.3287,0.23419,0.16215,-0.20327
0.2301,-0.90234,0.3644,0.23962,0.17596,-0.26544
0.24179,-0.88538,0.39697,0.1147,0.15194,-0.38219
0.24279,-0.8704,0.42826,-0.01104,0.19137,-0.4967
0.23236,-0.85744,0.45907,0.0282,0.22979,-0.63644
0.21852,-0.84756,0.48356,-0.11636,0.3148,-0.68026
0.19568,-0.84176,0.50308,-0.36817,0.67311,-0.6176
0.16962,-0.84085,0.51395,-0.38628,0.67772,-0.56725
0.14507,-0.846,0.51302,-0.31748,0.61878,-0.52312
0.12201,-0.85565,0.50291,-0.22893,0.45091,-0.3117
0.09815,-0.86693,0.48861,0.0072,0.32788,-0.05382
0.07332,-0.87586,0.47689,0.15118,0.01942,0.16191
0.04922,-0.87538,0.48087,0.21805,-0.12143,-0.04649
0.04331,-0.86946,0.49204,0.37669,-0.94847,0.00946
0.05721,-0.86619,0.49638,0.3379,-1.38815,0.29449
0.06906,-0.8617,0.50264,0.1799,-0.75646,0.44841
0.0704,-0.85965,0.50596,-0.41791,-0.29195,0.23507
0.06922,-0.85904,0.50714,0.35181,-1.26051,-0.43361
0.05972,-0.84912,0.52475,-0.14842,-1.40184,-0.80451
0.06653,-0.83929,0.53954,0.03629,0.06856,-0.69132
0.09124,-0.84104,0.53317,0.00531,0.58739,-0.84538
0.10486,-0.84113,0.53051,-0.37334,0.71688,-0.66252
0.11108,-0.83986,0.53127,-0.1888,-0.21204,-0.9373
0.09633,-0.85457,0.51027,0.03301,-0.46915,-0.77194
0.05768,-0.8765,0.47788,0.29934,-0.80128,-0.61323
0.02751,-0.89468,0.4458,0.09484,-0.17966,-0.42804
0.03685,-0.90707,0.41929,0.08549,-0.16727,-0.40153
0.06268,-0.91926,0.38855,-0.19888,0.26883,-0.31124
0.08043,-0.92991,0.3588,-0.25108,0.47306,-0.43053
0.08294,-0.94124,0.32732,-0.25359,0.48439,-0.39905
0.08208,-0.95404,0.28812,-0.02959,0.22693,-0.34658
0.07928,-0.9647,0.25102,0.25588,-0.09435,-0.42145
0.08109,-0.97074,0.22594,0.27448,-0.07718,-0.34725
0.0838,-0.97531,0.20419,0.0093,0.24957,-0.17205
0.07928,-0.97996,0.1826,-0.09846,0.34205,-0.10604
0.06759,-0.98461,0.161,-0.01348,0.07308,-0.08243
0.05207,-0.98864,0.14085,0.21664,-0.00627,-0.17434
0.03895,-0.9911,0.1271,0.33175,0.03015,-0.17663
0.02816,-0.99229,0.12048,0.16636,0.05394,-0.06347
0.01819,-0.99279,0.11833,0.19163,-0.10344,-0.14973
0.00539,-0.99385,0.1104,0.37491,0.00711,-0.24385
-0.00587,-0.99451,0.10424,0.51188,-0.01898,-0.14341
-0.01358,-0.99486,0.1001,0.50325,-0.04202,-0.09785
-0.01914,-0.9952,0.0957,0.45446,-0.06902,-0.39967
-0.02355,-0.99525,0.09427,0.40789,-0.09438,-0.33739
-0.01865,-0.99507,0.09717,-0.1003,-0.02188,-0.51011
0.00142,-0.99378,0.11116,-0.13458,-0.26098,-0.34291
0.02944,-0.9892,0.14342,-0.36761,-0.58702,-0.48702
0.05765,-0.98207,0.17933,-0.54034,-0.69612,-0.40168
0.08659,-0.97399,0.20928,-0.37766,-0.77505,-0.26813
0.11807,-0.96445,0.23631,-0.30674,-0.7023,-0.22448
0.15081,-0.95186,0.26677,-0.28759,-0.59001,-0.22896
0.18055,-0.93731,0.298,-0.21237,-0.43179,-0.19815
0.1999,-0.92357,0.32711,-0.11375,-0.26292,-0.18911
0.21334,-0.91063,0.35381,0.14282,0.14368,-0.27232
0.22788,-0.89532,0.38264,0.15321,0.19505,-0.34178
0.23653,-0.88061,0.41051,0.13136,0.15794,-0.4112
0.23863,-0.86785,0.43569,-0.0085,0.1779,-0.46087
0.23486,-0.85638,0.45977,-0.05378,0.22647,-0.51112
0.22816,-0.84689,0.48028,-0.16349,0.33593,-0.61891
0.21601,-0.83943,0.49864,-0.25789,0.53123,-0.62948
0.19755,-0.83481,0.51381,-0.2384,0.55127,-0.64549
0.17424,-0.83516,0.52161,-0.23964,0.55745,-0.63579
0.1499,-0.84202,0.51815,-0.24099,0.56199,-0.56675
0.12727,-0.85491,0.50286,-0.1669,0.49142,-0.45536
0.10722,-0.87001,0.48117,-0.09858,0.42943,-0.29631
0.08548,-0.88179,0.46377,0.00044,-0.16139,0.31092
0.06553,-0.87992,0.47053,0.24156,-0.49481,-0.17158
0.0691,-0.87624,0.47683,0.40414,-1.13871,-0.0097
0.08893,-0.87272,0.47999,0.31131,-1.33547,0.1466
0.10024,-0.86787,0.48651,0.19302,-0.63219,0.43712
0.0953,-0.86869,0.48604,-0.08646,-0.01053,0.6555
0.09125,-0.87234,0.48025,0.809,-0.88718,-0.31666
0.0837,-0.86685,0.49144,-0.06163,-1.37577,-0.60171
0.09079,-0.86322,0.49654,-0.22286,-0.88483,-0.51927
0.10978,-0.86595,0.48787,-0.26109,0.50475,-0.6584
0.11513,-0.86907,0.48105,-0.43193,0.93299,-0.59208
0.10819,-0.86909,0.48262,-0.30462,0.59352,-0.68399
0.09703,-0.87525,0.47378,-0.1519,0.20989,-0.89645
0.06824,-0.8923,0.4462,0.28023,-0.71694,-0.62001
0.02917,-0.91136,0.41051,0.36049,-0.9456,-0.52159
0.01421,-0.92316,0.38409,0.25294,-0.82579,-0.44976
0.03132,-0.93184,0.36145,-0.25593,0.34088,-0.31222
0.05166,-0.94067,0.33528,-0.33417,0.51123,-0.37393
0.0647,-0.9489,0.3088,-0.21358,0.53854,-0.4777
0.0663,-0.95793,0.27916,-0.05744,0.34782,-0.44708
0.05948,-0.96702,0.24756,0.15642,0.1349,-0.2688
0.05251,-0.97414,0.21968,0.19369,-0.07071,-0.33897
0.05104,-0.97967,0.1939,0.01908,0.17756,-0.28332
0.05084,-0.98395,0.17092,-0.01152,0.21126,-0.08429
0.04286,-0.98752,0.15142,0.08803,0.06264,-0.08068
0.03065,-0.99068,0.13253,0.21944,0.05474,-0.15633
0.01802,-0.99286,0.1177,0.29933,0.0833,-0.15985
0.00391,-0.99405,0.10866,0.38841,0.1306,0.00228
-0.00929,-0.9946,0.10319,0.25395,0.11958,-0.10102
-0.02423,-0.99509,0.09579,0.25356,0.05598,-0.10282
-0.0403,-0.99548,0.0858,0.33885,0.13487,-0.21541
-0.05224,-0.99553,0.07846,0.4424,0.11229,-0.17586
-0.05813,-0.9956,0.07318,0.36904,0.11244,-0.12916
-0.05785,-0.99585,0.06999,0.46456,0.0081,-0.48788
-0.052,-0.99588,0.07406,0.08933,-0.09568,-0.43096
-0.02813,-0.99534,0.09206,-0.18186,-0.22448,-0.42504
0.01145,-0.99304,0.11707,-0.41141,-0.6706,-0.52436
0.04911,-0.98686,0.15378,-0.62188,-1.00659,-0.55598
0.07919,-0.97815,0.19212,-0.48848,-1.18787,-0.36053
0.11762,-0.96753,0.22363,-0.30553,-0.73053,-0.18243
0.15977,-0.95319,0.25661,-0.30486,-0.64762,-0.22536
0.19792,-0.93663,0.28898,-0.15916,-0.47286,-0.17328
0.22334,-0.9208,0.31969,0.14966,-0.09182,-0.17794
0.24339,-0.90354,0.35261,0.29424,0.11756,-0.2156
0.26247,-0.88423,0.38626,0.28363,0.10724,-0.28288
0.27304,-0.86728,0.4162,0.14457,0.06671,-0.39177
0.2749,-0.85222,0.44509,0.0013,0.06383,-0.46779
0.27158,-0.83833,0.47264,-0.09531,0.11627,-0.53064
0.25731,-0.82689,0.5,-0.2595,0.45993,-0.6945
0.23417,-0.8197,0.52269,-0.38639,0.73779,-0.6821
0.2022,-0.82042,0.53476,-0.35706,0.83989,-0.61063
0.1672,-0.83119,0.53019,-0.21457,0.71573,-0.50441
0.13182,-0.8491,0.51146,-0.09462,0.51374,-0.18268
0.09939,-0.86737,0.48759,0.08421,0.43466,0.02905
0.07183,-0.87804,0.47311,0.18866,0.1756,0.01748
0.05083,-0.87482,0.48172,0.39476,-1.01724,0.0688
0.05897,-0.871,0.48768,0.38871,-1.97107,0.14279
0.07778,-0.86231,0.50031,0.13768,-1.61199,0.24547
0.08054,-0.8538,0.51427,0.2123,-0.23869,0.35539
0.0785,-0.8582,0.50721,0.0054,0.85157,0.69538
0.07464,-0.86421,0.49751,0.55272,-0.40477,-0.71708
0.06868,-0.85592,0.51247,-0.08969,-1.16863,-0.92476
0.06607,-0.86438,0.49843,-0.50811,-0.67732,-0.60081
0.05265,-0.87164,0.48726,-0.64572,0.22507,-0.57271
0.05271,-0.87067,0.48897,-0.10424,0.07836,-0.65943
0.0646,-0.87311,0.48318,0.10406,-0.31143,-0.83413
0.07369,-0.88446,0.46071,0.36267,-0.15136,-0.55743
0.0664,-0.90112,0.42838,0.2106,0.04163,-0.53138
0.05327,-0.91615,0.39721,-0.04755,0.06468,-0.47145
0.04888,-0.92853,0.36796,-0.20577,3e-05,-0.42841
0.05494,-0.93873,0.34016,-0.21819,0.16668,-0.45559
0.06396,-0.94906,0.30845,-0.14671,0.26065,-0.43046
0.07314,-0.95949,0.27202,-0.10965,0.3872,-0.33246
0.08006,-0.96812,0.23724,-0.11178,0.21515,-0.29812
0.07746,-0.97449,0.21054,-0.11522,0.07121,-0.34153
0.07416,-0.97931,0.18819,-0.02548,-0.01329,-0.3266
0.06916,-0.98383,0.16507,-0.01061,0.15925,-0.20845
0.05557,-0.9874,0.14804,0.05923,0.1111,-0.11621
0.04225,-0.99001,0.13435,0.41484,0.08359,-0.08293
0.03146,-0.99207,0.12149,0.55019,0.10535,-0.07568
0.02029,-0.99343,0.11246,0.49815,0.11275,-0.04792
0.00839,-0.99418,0.10716,0.36086,0.046,-0.09935
-0.00562,-0.99533,0.09612,0.46683,-0.00859,-0.16657
-0.01766,-0.99617,0.08541,0.47336,0.01057,-0.22713
-0.02537,-0.99653,0.07899,0.4408,0.02098,-0.09875
-0.0297,-0.99679,0.07403,0.72287,-0.10127,-0.39535
-0.02952,-0.99711,0.0697,0.7227,-0.10096,-0.39102
-0.01633,-0.99712,0.07374,-0.13233,-0.06603,-0.49758
0.01507,-0.99573,0.09086,-0.24658,-0.57722,-0.39413
0.05215,-0.9909,0.12393,-0.47468,-0.8641,-0.49076
0.07883,-0.98308,0.16524,-0.68204,-0.97223,-0.56444
0.10499,-0.97408,0.20025,-0.37559,-0.75882,-0.31081
0.13652,-0.9616,0.23798,-0.22966,-0.62142,-0.20791
0.16834,-0.94606,0.27673,-0.18554,-0.60808,-0.18487
0.19469,-0.93108,0.30845,-0.02577,-0.32293,-0.20945
0.21113,-0.91494,0.34389,0.16035,0.04978,-0.24814
0.22384,-0.89516,0.3854,0.23247,0.17142,-0.28892
0.23469,-0.87567,0.42199,0.12932,0.16165,-0.42271
0.2383,-0.8584,0.45422,0.01985,0.1466,-0.503
0.23365,-0.84399,0.48274,-0.16983,0.22047,-0.60826
0.22002,-0.8322,0.5089,-0.2101,0.38862,-0.74827
0.20224,-0.8238,0.52953,-0.32861,0.64294,-0.70448
0.18103,-0.82103,0.54137,-0.40954,0.77467,-0.64512
0.15982,-0.82411,0.54337,-0.31337,0.58718,-0.58031
0.1388,-0.83256,0.5362,-0.23791,0.43347,-0.43253
0.11633,-0.84393,0.52363,-0.13959,0.38582,-0.29296
0.09262,-0.85437,0.5113,0.20266,0.11122,0.03327
0.06925,-0.85975,0.50594,0.11588,-0.11913,0.05026
0.0524,-0.8593,0.50873,0.06968,-0.20377,0.04656
0.05748,-0.85757,0.51109,0.41069,-1.54367,0.148
0.06761,-0.85374,0.51623,0.29451,-1.30377,0.22409
0.06446,-0.85074,0.52156,-0.3267,-0.21866,0.41456
0.05593,-0.8513,0.52164,0.58921,-0.85404,-0.20303
0.04751,-0.85327,0.51925,0.22222,-1.16667,-0.57476
0.04021,-0.84393,0.5349,-0.11095,-0.53397,-0.24803
0.05917,-0.84159,0.53681,-0.0383,0.56745,-0.78411
0.07979,-0.84583,0.52739,-0.17518,0.88552,-0.73351
0.08964,-0.84952,0.51983,-0.32731,0.41895,-0.67526
0.08924,-0.85195,0.5159,-0.14879,-0.11719,-0.92832
0.07061,-0.86536,0.49609,0.36772,-0.54139,-0.72682
0.03192,-0.88476,0.4649,0.41106,-0.77584,-0.66761
0.00816,-0.9001,0.43554,-0.03253,-0.17018,-0.42824
0.02083,-0.90951,0.4151,-0.13614,0.13342,-0.25344
0.04413,-0.91913,0.39141,-0.29639,0.36641,-0.44132
0.05834,-0.92868,0.36619,-0.27635,0.50299,-0.45456
0.06196,-0.93988,0.33577,-0.21672,0.41227,-0.45166
0.05906,-0.95255,0.29852,0.06872,-0.03225,-0.40663
0.05676,-0.96247,0.2653,0.2484,-0.07678,-0.40913
0.0612,-0.96806,0.24305,0.22268,0.01315,-0.34953
0.06177,-0.97238,0.22498,-0.07687,0.21393,-0.18675
0.05605,-0.97701,0.20556,0.01234,0.11109,-0.12298
0.04499,-0.98177,0.18455,0.09284,0.04529,-0.09648
0.03314,-0.98561,0.16563,0.42704,-0.01155,-0.09463
0.02201,-0.98806,0.15235,0.42773,0.01882,-0.09969
0.01057,-0.98957,0.14349,0.33004,0.0876,-0.10889
-0.00244,-0.99066,0.13617,0.20911,0.03124,-0.22815
-0.01738,-0.99165,0.12765,0.39157,0.06193,-0.29208
-0.02981,-0.99211,0.12159,0.58085,0.0761,-0.25655
-0.03821,-0.9924,0.11684,0.60413,0.03347,-0.11367
-0.04235,-0.99272,0.11258,0.67568,-0.07622,-0.35546
-0.03919,-0.9931,0.11037,0.33759,-0.02176,-0.56575
-0.02209,-0.99369,0.10975,0.01803,-0.00692,-0.62277
0.00887,-0.99238,0.12271,-0.51716,-0.94689,-0.52326
0.03964,-0.98789,0.14991,-0.75468,-0.99795,-0.60416
0.06073,-0.98151,0.18143,-0.47255,-0.66684,-0.41173
0.0919,-0.973,0.21161,-0.26763,-0.62372,-0.27451
0.12621,-0.96075,0.24697,-0.21278,-0.56831,-0.19198
0.15765,-0.94668,0.2809,-0.22627,-0.49903,-0.17015
0.18152,-0.9339,0.30794,-0.02147,-0.24439,-0.25001
0.19461,-0.91974,0.34082,0.07721,-0.07016,-0.30027
0.20781,-0.90259,0.37697,0.15255,0.19787,-0.24746
0.2225,-0.88642,0.40584,0.09351,0.14631,-0.2908
0.22851,-0.87216,0.43251,-0.04673,0.12778,-0.43041
0.22372,-0.85868,0.46105,-0.08629,0.18078,-0.51155
0.21238,-0.84691,0.48742,-0.1085,0.33794,-0.57708
0.1991,-0.83874,0.50677,-0.17632,0.41704,-0.60615
0.18182,-0.83415,0.52066,-0.20754,0.48484,-0.61878
0.15954,-0.83444,0.52745,-0.21543,0.57464,-0.51819
0.13335,-0.84074,0.5247,-0.17572,0.51272,-0.48457
0.10752,-0.85198,0.51237,-0.13872,0.45125,-0.41638
0.08514,-0.86427,0.49572,0.09839,0.17457,0.00294
0.06554,-0.87195,0.48513,0.11799,0.18225,0.01352
0.04588,-0.87163,0.48796,0.31898,-0.12532,-0.18593
0.03773,-0.86994,0.49166,0.44454,-0.97384,-0.05082
0.04344,-0.86455,0.50061,0.35863,-1.19137,0.04294
0.05343,-0.85724,0.51208,0.05645,-0.61273,0.4496
0.05472,-0.85629,0.51353,-0.12926,0.10698,0.42575
0.05161,-0.86246,0.50343,-0.46277,0.11759,0.47532
0.04366,-0.85668,0.51394,0.33619,-1.5721,-0.84406
0.03849,-0.84823,0.52817,-0.306,-0.80025,-0.76161
0.04523,-0.8536,0.51892,-0.20636,-0.23463,-0.58442
0.05484,-0.85196,0.52067,-0.28969,0.41349,-0.71879
0.06401,-0.85208,0.51943,-0.27786,0.05217,-0.80108
0.06899,-0.86218,0.50183,-0.18001,-0.32493,-0.87621
0.0548,-0.88083,0.47019,0.36595,-0.39807,-0.633
0.0314,-0.89799,0.43883,0.24935,-0.12438,-0.65663
0.02236,-0.91155,0.41051,0.11953,0.01766,-0.56563
0.03225,-0.9225,0.38459,-0.17721,0.02259,-0.38653
0.05045,-0.93237,0.35789,-0.3244,0.25024,-0.39278
0.06107,-0.94318,0.32655,-0.27509,0.35596,-0.36723
0.06594,-0.95395,0.29256,-0.12577,0.37166,-0.42177
0.06535,-0.96296,0.26151,0.02396,0.13091,-0.3003
0.06124,-0.96946,0.23739,0.14715,-0.00318,-0.3189
0.06326,-0.97511,0.21238,0.17838,0.09793,-0.2979
0.05777,-0.98088,0.18573,-0.00127,0.33642,-0.15786
0.04145,-0.98538,0.16515,0.02038,0.26304,-0.08261
0.02515,-0.98926,0.14383,0.29886,0.03568,-0.14466
0.01259,-0.99192,0.12609,0.43396,0.04654,-0.15696
0.00079,-0.99316,0.11654,0.46348,0.02245,-0.104
-0.01117,-0.99389,0.10965,0.15991,-0.02786,-0.15745
-0.02447,-0.99464,0.10028,0.3145,-0.07542,-0.22038
-0.03626,-0.99505,0.09233,0.46032,-0.02351,-0.19087
-0.04287,-0.99532,0.08635,0.54536,-0.06574,-0.13558
-0.04603,-0.99566,0.08061,0.40685,-0.05642,-0.18212
-0.04576,-0.99595,0.07716,0.33663,-0.03198,-0.35755
-0.03959,-0.99587,0.08146,0.25847,-0.16156,-0.33936
-0.01551,-0.99558,0.09241,-0.03072,-0.0418,-0.61249
0.01845,-0.9933,0.11388,-0.02135,-0.37421,-0.42152
0.05132,-0.98704,0.15193,-0.24779,-0.64347,-0.57385
0.07753,-0.97834,0.19182,-0.68605,-0.91174,-0.40693
0.10616,-0.96846,0.22533,-0.62165,-0.79334,-0.33236
0.1438,-0.95417,0.26237,-0.54762,-0.68199,-0.3126
0.18259,-0.93663,0.29889,-0.2161,-0.44943,-0.13542
0.20937,-0.92208,0.32541,-0.07097,-0.21264,-0.17549
0.22892,-0.90639,0.35498,0.06174,0.03136,-0.22102
0.24753,-0.88601,0.392,0.35284,0.3455,-0.34197
0.26279,-0.86684,0.42364,0.29277,0.29377,-0.41028
0.26806,-0.84996,0.4535,0.07417,0.19499,-0.4521
0.26162,-0.83702,0.48052,-0.11627,0.20923,-0.57981
0.24781,-0.82767,0.50348,-0.1936,0.27677,-0.6276
0.22815,-0.82094,0.5234,-0.38308,0.58583,-0.5245
0.20504,-0.81857,0.53651,-0.25067,0.57456,-0.51253
0.17904,-0.82252,0.53976,-0.18873,0.54117,-0.47991
0.15051,-0.83293,0.53246,-0.08545,0.38056,-0.34967
0.12069,-0.84693,0.51777,0.09291,0.23168,-0.13857
0.09194,-0.85874,0.50404,0.20234,0.11815,-0.01219
0.06603,-0.86248,0.50171,0.19318,-0.06147,-0.17775
0.05657,-0.85943,0.50806,0.25938,-0.95901,-0.03345
0.06192,-0.85454,0.51562,0.31138,-1.51573,0.077
0.06566,-0.84885,0.52449,0.19947,-0.85257,0.28277
0.06259,-0.84823,0.52586,-0.26619,0.26448,0.60671
0.05824,-0.8521,0.52007,-0.23568,0.12923,0.01899
0.05174,-0.84254,0.53609,-0.15154,-1.29967,-1.18024
0.05998,-0.84119,0.53736,-0.3937,-0.29091,-0.33719
0.06366,-0.84824,0.52572,-0.28234,0.59144,-0.71293
0.06704,-0.84731,0.5268,-0.25784,0.53059,-0.72637
0.07365,-0.84775,0.5252,-0.14892,-0.2434,-0.88355
0.07177,-0.86062,0.50411,0.1801,-0.55985,-0.70367
0.05598,-0.87874,0.47396,0.32148,-0.33419,-0.55173
0.04087,-0.89659,0.44091,0.10777,-0.0585,-0.52483
0.03784,-0.91163,0.4092,-0.00899,0.06578,-0.48021
0.04679,-0.92275,0.38249,-0.23441,0.15494,-0.42684
0.06087,-0.93289,0.35491,-0.27545,0.35454,-0.41147
0.0708,-0.94449,0.32074,-0.19659,0.39871,-0.39324
0.07725,-0.95573,0.28386,-0.11559,0.31242,-0.39154
0.07864,-0.9637,0.25505,0.10268,0.00652,-0.39908
0.08031,-0.96908,0.23322,0.10101,0.0119,-0.37725
0.08406,-0.97455,0.20769,0.04589,0.08451,-0.26633
0.07725,-0.97989,0.18385,0.0094,0.20124,-0.16745
0.06268,-0.98406,0.16629,0.09904,0.10668,-0.12795
0.04821,-0.98768,0.14876,0.32627,0.01246,-0.13806
0.03525,-0.99032,0.13407,0.43266,0.05356,-0.11748
0.02247,-0.99182,0.12548,0.35123,0.0318,-0.06254
0.00916,-0.99286,0.11879,0.22709,0.00631,-0.17034
-0.00684,-0.99416,0.10755,0.3373,-0.00597,-0.19931
-0.02048,-0.99503,0.09724,0.38348,0.01894,-0.21288
-0.02792,-0.99542,0.09118,0.42333,0.00795,-0.21752
-0.03275,-0.99564,0.08714,0.61092,-0.05659,-0.30073
-0.03534,-0.99578,0.08448,0.7489,-0.07511,-0.33669
-0.026,-0.99595,0.08586,0.46354,0.00755,-0.55115
-0.00171,-0.99488,0.10089,-0.2377,-0.63285,-0.34403
0.0304,-0.99101,0.13011,-0.43636,-0.88193,-0.39188
0.05817,-0.98415,0.1674,-0.5978,-0.86251,-0.45226
0.0841,-0.976,0.20079,-0.29612,-0.70859,-0.23384
0.1132,-0.96634,0.23095,-0.23481,-0.57189,-0.19445
0.14346,-0.95376,0.26403,-0.18311,-0.55936,-0.23802
0.17188,-0.93904,0.29768,-0.12067,-0.34811,-0.22175
0.18999,-0.92465,0.32998,0.05633,-0.02111,-0.27595
0.20233,-0.90843,0.36575,0.12295,0.11058,-0.29117
0.21762,-0.89045,0.39962,0.05872,0.09319,-0.34463
0.22888,-0.87328,0.43006,-0.01208,0.0995,-0.46623
0.23054,-0.85765,0.45961,-0.18092,0.14358,-0.59329
0.22047,-0.84359,0.48959,-0.1179,0.26018,-0.67058
0.20736,-0.83267,0.51343,-0.14022,0.32702,-0.68905
0.19073,-0.82507,0.53181,-0.34657,0.66,-0.64817
0.16849,-0.82303,0.54238,-0.32039,0.68415,-0.60847
0.14466,-0.82755,0.54239,-0.2771,0.61099,-0.56458
0.12162,-0.8373,0.533,-0.16578,0.36876,-0.39077
0.09924,-0.8494,0.51829,-0.06629,0.31813,-0.26006
0.07374,-0.85938,0.50595,0.13961,0.11078,0.01618
0.04894,-0.85962,0.50854,0.36425,-0.17206,-0.19627
