gravity.x,gravity.y,gravity.z,userAcceleration.x,userAcceleration.y,userAcceleration.z
-0.19379,0.90285,-0.3838,-0.57989,-0.52717,1.1576
-0.17481,0.90714,-0.3828,-0.3246,-0.43444,0.83722
-0.167,0.91892,-0.35734,-0.35128,-0.30636,0.80073
-0.18057,0.93357,-0.30959,-0.30723,-0.07611,0.82113
-0.2072,0.94643,-0.24766,-0.00084,0.48564,0.89196
-0.24213,0.95027,-0.19587,0.21658,0.49213,0.87929
-0.27509,0.94644,-0.16906,0.31687,0.43219,0.30686
-0.30861,0.94227,-0.12996,0.75388,0.1874,-0.5245
-0.3316,0.94239,-0.04414,0.65722,0.03284,-0.26132
-0.33815,0.94093,0.01771,0.50445,-0.15374,-0.21722
-0.33359,0.94151,0.04764,0.38045,-0.21298,-0.06642
-0.32344,0.94396,0.06573,0.20252,-0.01655,0.05398
-0.31787,0.94436,0.0845,0.07039,-0.07209,-0.00987
-0.31762,0.94243,0.10465,0.04624,-0.27508,0.30197
-0.32614,0.93868,0.11186,0.16579,-0.23107,0.32623
-0.34502,0.93139,0.1161,0.25247,-0.14173,-0.07626
-0.36848,0.92046,0.13027,0.27805,0.04043,-0.31651
-0.39072,0.90699,0.15717,0.2864,0.12995,-0.50022
-0.40503,0.89116,0.20441,0.26784,0.46971,-0.67654
-0.40543,0.87432,0.26683,0.26932,0.57666,-0.76495
-0.39736,0.86301,0.31195,0.58989,0.51696,-0.56618
-0.39671,0.86547,0.30592,0.81326,0.54244,-0.22376
-0.40075,0.87447,0.27331,0.85432,0.5255,-0.23614
-0.4016,0.88287,0.24341,0.78127,0.52212,-0.47725
-0.38865,0.89164,0.23221,0.54661,0.48191,-0.81849
-0.36623,0.90482,0.21721,0.37073,0.50091,-0.9661
-0.34461,0.924,0.1657,0.02117,0.63938,-0.53288
-0.32654,0.94109,0.08783,0.04654,0.7412,0.67202
-0.31148,0.95025,0.0009,-0.04474,0.78815,0.6627
-0.29494,0.95263,-0.07418,-0.24759,0.92283,0.74177
-0.29071,0.94673,-0.1385,-0.49031,0.77406,0.19931
-0.30245,0.93552,-0.18254,-0.74386,0.06643,-0.33039
-0.2957,0.93103,-0.21386,-0.35933,-0.01355,0.24217
-0.2659,0.92926,-0.25646,0.05063,-0.11925,0.35773
-0.24753,0.9149,-0.31889,0.17618,-0.25204,0.74967
-0.24897,0.89263,-0.3758,0.43078,-0.41817,0.79554
-0.26056,0.87449,-0.40912,0.58758,-0.53672,0.8037
-0.27644,0.85846,-0.43199,0.44357,-0.51294,0.77934
-0.28255,0.84591,-0.45232,0.32808,-0.54408,0.76185
-0.28222,0.83735,-0.46818,0.0133,-0.71244,0.74127
-0.28326,0.83515,-0.47147,-0.17768,-0.71989,0.75079
-0.28805,0.83937,-0.46096,-0.20189,-0.74349,0.7808
-0.29165,0.84991,-0.43885,-0.14496,-0.74177,0.64032
-0.29418,0.86581,-0.40475,0.1059,0.06587,-1.14413
-0.29856,0.883,-0.36216,0.26619,1.02671,-2.39641
-0.30239,0.88257,-0.36003,0.03484,2.04246,-1.25971
-0.30776,0.87771,-0.3673,0.03691,-0.09127,-0.69606
-0.30611,0.8731,-0.37948,-0.00014,-0.36234,-0.74867
-0.30279,0.87329,-0.38168,-0.4536,0.0374,-0.27347
-0.30046,0.87707,-0.37479,-0.30192,1.14896,-0.26286
-0.30249,0.87852,-0.36973,-0.25694,0.95583,0.78467
-0.29034,0.87257,-0.39284,-0.15153,-0.3516,0.77918
-0.26833,0.87231,-0.40875,-0.31359,-0.77483,1.05073
-0.24285,0.88621,-0.39453,-0.23623,-0.41549,1.07987
-0.22299,0.90798,-0.35475,-0.43769,-0.05605,0.91507
-0.22489,0.92792,-0.29731,-0.38022,0.11798,0.74692
-0.24665,0.941,-0.23169,-0.25508,0.54792,1.02336
-0.27371,0.94267,-0.19092,0.18322,0.50297,0.8714
-0.30614,0.93709,-0.16775,0.37488,0.35153,0.58127
-0.33602,0.93258,-0.13181,0.70164,0.15387,-0.7243
-0.35637,0.93393,-0.02781,0.70494,0.15152,-0.06135
-0.36295,0.9301,0.05641,0.40183,-0.21899,-0.30438
-0.35729,0.92926,0.09387,0.25736,-0.26131,-0.18714
-0.34551,0.93255,0.10468,0.12324,-0.0686,0.08953
-0.33919,0.93374,0.11432,0.11691,-0.06979,0.0799
-0.33971,0.93275,0.1207,0.21601,-0.24565,0.21373
-0.34981,0.92894,0.12123,0.32474,-0.20088,-0.12537
-0.36616,0.92147,0.12969,0.37259,-0.05652,-0.24056
-0.38754,0.90991,0.14792,0.30453,0.26357,-0.33114
-0.40522,0.89738,0.17462,0.24934,0.2986,-0.60036
-0.41081,0.88438,0.22159,0.19994,0.4252,-0.61031
-0.40773,0.87158,0.27222,0.57116,0.57679,-0.38341
-0.40878,0.86469,0.2919,0.78131,0.57869,-0.32553
-0.41365,0.86647,0.27949,0.73507,0.54752,-0.35646
-0.41399,0.87258,0.25925,0.63894,0.55821,-0.72296
-0.40361,0.88114,0.24634,0.40719,0.62272,-0.89912
-0.38531,0.89245,0.23464,0.43702,0.50647,-0.95842
-0.36795,0.90741,0.20299,0.26836,0.45451,-0.44397
-0.35178,0.92613,0.13613,0.18693,0.75699,0.58613
-0.33278,0.94181,0.04738,0.22246,0.67785,0.71334
-0.30968,0.94983,-0.04379,-0.13924,0.85153,0.48774
-0.28874,0.94987,-0.11986,-0.47279,1.4368,0.40573
-0.29197,0.94036,-0.17455,-0.62603,1.32755,0.32158
-0.30793,0.92759,-0.21154,-0.75972,0.27222,0.13287
-0.29881,0.92098,-0.25,-0.43481,-0.12978,0.412
-0.27389,0.91245,-0.304,-0.16022,-0.1021,0.49033
-0.25871,0.89311,-0.36799,0.11857,-0.31,0.81874
-0.25716,0.87095,-0.4187,0.60964,-0.47541,0.8929
-0.26969,0.85103,-0.45058,0.63776,-0.56412,0.80405
-0.28933,0.83213,-0.47313,0.65225,-0.46926,0.82672
-0.29113,0.81959,-0.49347,0.2116,-0.5814,0.70118
-0.29041,0.81343,-0.50398,-0.0133,-0.67175,0.73742
-0.29513,0.81206,-0.50344,-0.08242,-0.74092,0.82321
-0.2982,0.81757,-0.4926,-0.09987,-0.70144,0.76512
-0.29849,0.8289,-0.47311,0.1443,0.03933,-1.72983
-0.28929,0.84117,-0.45689,0.22302,1.06238,-2.73667
-0.28245,0.83408,-0.47384,0.20434,1.32076,-1.27694
-0.29428,0.82577,-0.48114,0.35685,0.24727,-0.48709
-0.30166,0.81801,-0.48975,0.16117,-0.45091,-0.25835
-0.30468,0.81666,-0.49013,0.33062,-0.48965,-0.39593
-0.30425,0.82159,-0.4821,-0.06881,-0.16285,0.75877
-0.29284,0.8318,-0.47155,-1.3264,0.58135,0.35287
-0.28385,0.85163,-0.44062,-1.07586,1.61385,-0.45042
-0.27494,0.8536,-0.44246,-0.42618,-0.60503,1.31455
-0.25539,0.85946,-0.44284,-0.39449,-0.66384,0.69423
-0.24045,0.88061,-0.40829,-0.42615,-0.24872,1.27428
-0.23286,0.90004,-0.36839,-0.32882,-0.07823,1.00956
-0.24089,0.91892,-0.31233,-0.23227,0.2728,0.97465
-0.26328,0.92906,-0.25987,0.23804,0.86965,1.09501
-0.28907,0.92871,-0.23223,0.43267,1.01195,0.51369
-0.32715,0.92857,-0.17528,0.89572,0.68309,-0.52891
-0.35978,0.92845,-0.09245,0.80184,-0.13425,-0.10236
-0.37156,0.92714,-0.04849,0.63317,-0.21791,-0.16809
-0.3702,0.92855,-0.02727,0.36985,-0.22477,0.0379
-0.36495,0.93098,-0.00948,0.01453,0.0057,-0.11067
-0.36212,0.93183,0.02377,0.00937,-0.1099,0.08424
-0.35978,0.93076,0.0652,0.03691,-0.27597,0.25841
-0.36202,0.92822,0.08569,0.26818,-0.34547,0.19651
-0.36925,0.92546,0.08469,0.33957,-0.30716,0.0789
-0.38146,0.9208,0.08126,0.2887,0.01996,-0.29014
-0.40057,0.91151,0.09314,0.239,0.16966,-0.42169
-0.42135,0.89853,0.12293,0.26019,0.33248,-0.52178
-0.43264,0.88538,0.17004,0.32978,0.61895,-0.51384
-0.43465,0.87252,0.22311,0.58759,0.63489,-0.45254
-0.43892,0.863,0.25013,0.74207,0.46848,-0.37803
-0.44552,0.86252,0.23992,0.75945,0.50611,-0.32717
-0.44729,0.8659,0.22394,0.66151,0.63775,-0.48694
-0.44033,0.87089,0.21828,0.55549,0.53835,-0.6773
-0.42356,0.88036,0.21346,0.59668,0.50242,-0.634
-0.40174,0.89582,0.19001,0.37657,0.56073,-0.61107
-0.37845,0.9147,0.1418,-0.01474,0.5617,0.14395
-0.35662,0.93147,0.07203,0.038,0.57543,0.8879
-0.33401,0.94246,-0.0142,-0.0942,0.64757,0.48785
-0.31135,0.9451,-0.09923,-0.45493,1.05547,0.24207
-0.30191,0.93925,-0.16327,-0.75028,1.07866,0.19053
-0.30783,0.92942,-0.20351,-0.86049,0.22169,-0.00717
-0.29889,0.92474,-0.23565,-0.56803,-0.12475,0.43304
-0.274,0.9208,-0.27758,-0.09,-0.24145,0.48842
-0.25218,0.90875,-0.33252,0.12786,-0.3039,0.66441
-0.24883,0.88575,-0.39183,0.41653,-0.48446,0.82259
-0.26647,0.86603,-0.42307,0.60498,-0.51326,0.9522
-0.2936,0.84776,-0.44169,0.76673,-0.63373,0.80737
-0.30264,0.83366,-0.46197,0.56086,-0.55672,0.72277
-0.30398,0.82349,-0.47901,0.1914,-0.67315,0.78741
-0.31001,0.81827,-0.48407,-0.0181,-0.74845,0.80485
-0.31876,0.81923,-0.47671,-0.0816,-0.80739,0.8364
-0.32509,0.82886,-0.45532,-0.08086,-0.73389,0.716
-0.33132,0.84409,-0.4216,-0.05848,-0.59145,0.45065
-0.34086,0.85813,-0.38396,0.13245,1.09579,-2.8352
-0.35519,0.85154,-0.38564,0.18523,2.04822,-0.96264
-0.3617,0.84572,-0.39233,-0.03737,-0.0785,-0.5238
-0.35876,0.83945,-0.40819,-0.07909,-0.46344,-0.52449
-0.35117,0.84,-0.41361,-0.17292,-0.53593,-0.24571
-0.34897,0.84619,-0.40273,-0.85736,0.56937,0.43135
-0.35474,0.84821,-0.39331,-0.91668,0.6009,0.61111
-0.35178,0.85159,-0.38865,-0.39343,0.80071,-0.17765
-0.34924,0.85288,-0.38812,-0.1086,-0.42958,1.43455
-0.32979,0.85641,-0.39723,-0.04896,-0.31665,1.09784
-0.31218,0.86867,-0.38464,-0.07339,-0.11227,0.9494
-0.3132,0.88437,-0.34612,0.03887,0.28467,1.06757
-0.32999,0.89775,-0.29181,0.2742,0.59975,1.18563
-0.35368,0.90189,-0.24799,0.34984,0.63378,1.07554
-0.37718,0.90011,-0.21804,0.60723,0.38612,-0.47546
-0.39905,0.90629,-0.13928,0.54303,0.19178,-0.19765
-0.40742,0.91263,-0.03345,0.50083,0.03864,-0.1771
-0.40282,0.91493,0.02537,0.12545,-0.21441,-0.30919
-0.38793,0.92032,0.05023,0.20367,-0.0108,-0.08674
-0.37543,0.92448,0.06621,0.07292,-0.07854,-0.01526
-0.36902,0.9252,0.08851,0.13105,-0.28449,0.39785
-0.37133,0.92394,0.09195,0.28408,-0.38783,0.2597
-0.38242,0.92067,0.07829,0.32382,-0.26123,-0.13929
-0.4017,0.91272,0.07467,0.2678,0.12787,-0.41242
-0.42574,0.89989,0.09458,0.20237,0.39366,-0.42115
-0.44294,0.88617,0.13604,0.20722,0.56462,-0.59246
-0.4429,0.87343,0.20237,0.28891,0.6884,-0.68586
-0.43268,0.85989,0.27088,0.80556,0.65776,-0.48416
-0.43672,0.85476,0.28046,0.8511,0.63366,-0.33053
-0.44897,0.8595,0.24432,0.7582,0.54758,-0.31535
-0.44878,0.86736,0.21514,0.61086,0.35701,-0.7968
-0.43559,0.8773,0.20152,0.37896,0.41299,-0.90866
-0.41868,0.88977,0.18172,0.39238,0.4026,-0.92284
-0.40542,0.90379,0.13709,0.33309,0.73694,-0.04502
-0.39375,0.91726,0.05991,0.29872,0.88869,0.90441
-0.3747,0.92656,-0.03299,0.1452,0.66322,0.64594
-0.34686,0.93059,-0.11703,-0.22102,0.91059,0.7336
-0.32693,0.92556,-0.19093,-0.56219,1.55106,0.47885
-0.3343,0.9127,-0.23499,-0.90509,0.48477,-0.13492
-0.33386,0.90811,-0.25274,-0.9422,-0.12062,0.09214
-0.31103,0.9059,-0.28741,-0.09855,-0.05524,0.38866
-0.29111,0.8921,-0.34558,0.05878,-0.06656,0.49977
-0.29267,0.86315,-0.41149,0.29546,-0.22964,0.96542
-0.31222,0.83566,-0.45187,0.62079,-0.37469,1.08322
-0.33391,0.81517,-0.47328,0.71499,-0.43147,0.98347
-0.33471,0.801,-0.49635,0.51302,-0.38218,0.85464
-0.33243,0.79082,-0.5139,0.1629,-0.66399,0.79564
-0.34099,0.78319,-0.51995,-0.04224,-0.76027,0.86237
-0.35387,0.78082,-0.51487,-0.06681,-0.7906,0.86568
-0.361,0.7882,-0.49842,-0.15457,-0.73502,0.31568
-0.36399,0.80521,-0.46813,-0.02462,-0.10383,-1.12718
-0.36305,0.82385,-0.43528,-0.0808,0.57953,-1.68711
-0.36504,0.82377,-0.43376,-0.02795,1.31952,-1.28887
-0.36906,0.82097,-0.43567,0.19488,0.41756,-0.54584
-0.36861,0.81955,-0.43871,0.17043,0.02223,-0.45289
-0.36482,0.82004,-0.44094,0.32291,-0.38404,-0.18299
-0.35884,0.82373,-0.43897,-0.34234,0.15573,0.56994
-0.35449,0.83128,-0.42815,-0.69028,0.16005,0.7572
-0.34728,0.84721,-0.40204,-1.04559,0.76331,-0.03374
-0.33415,0.8621,-0.38095,-0.50869,-0.02922,0.9725
-0.31789,0.86537,-0.38741,-0.28343,-0.42094,0.84588
-0.29598,0.87377,-0.3859,-0.29537,-0.35396,0.79925
-0.28729,0.88718,-0.36108,-0.11474,-0.14698,0.95845
-0.2967,0.9048,-0.30545,-0.10532,-0.1646,0.90282
-0.31746,0.91704,-0.24135,0.026,0.47824,1.37437
-0.34029,0.91584,-0.21318,0.34116,0.55504,0.87515
-0.36548,0.90866,-0.20188,0.4207,0.53535,0.35742
-0.39226,0.91104,-0.12706,0.63808,0.23557,-0.29136
-0.40803,0.91234,-0.03391,0.46319,-0.13254,-0.26898
-0.40882,0.91256,0.00947,0.3083,-0.19165,-0.18958
-0.39799,0.91684,0.03163,0.12995,-0.02266,0.09035
-0.38854,0.92017,0.04813,0.09113,-0.17652,0.1657
-0.37982,0.9232,0.05866,0.23004,-0.23071,0.35134
-0.38104,0.92286,0.05597,0.30392,-0.30469,0.22669
-0.39027,0.91928,0.05117,0.3409,-0.15774,-0.07333
-0.40584,0.91208,0.0584,0.30486,0.04189,-0.37673
-0.42435,0.90128,0.08729,0.30317,0.35171,-0.36347
-0.44174,0.88756,0.13076,0.24397,0.47636,-0.56673
-0.44709,0.87391,0.19074,0.25236,0.59981,-0.69211
-0.44052,0.86137,0.25293,0.66157,0.64108,-0.52596
-0.44416,0.8548,0.26841,0.71717,0.61804,-0.43644
-0.45476,0.85748,0.24067,0.76247,0.79489,-0.21825
-0.4547,0.8668,0.20471,0.81271,0.70255,-0.61175
-0.43698,0.8807,0.18279,0.65079,0.50912,-0.59627
-0.41141,0.89814,0.1552,0.34304,0.47662,-0.49816
-0.38667,0.91627,0.10455,0.13445,0.44407,-0.47224
-0.36592,0.92998,0.03511,-0.08632,0.64515,0.82851
-0.34697,0.93634,-0.05361,-0.41242,0.95906,0.56011
-0.32537,0.93398,-0.14769,-0.57046,1.19273,0.36006
-0.31752,0.92399,-0.21312,-0.87276,0.81922,0.03066
-0.3106,0.91778,-0.2474,-0.77073,-0.06394,0.21432
-0.29303,0.91409,-0.28032,-0.1553,-0.11237,0.38189
-0.27684,0.90102,-0.33393,0.1467,-0.04362,0.65632
-0.27315,0.87058,-0.40925,0.35852,-0.24854,0.74755
-0.29289,0.83421,-0.46724,0.56763,-0.38367,0.96977
-0.32287,0.80914,-0.49097,0.5882,-0.43107,0.82188
-0.33718,0.79288,-0.50759,0.49116,-0.40427,0.77666
-0.33237,0.78155,-0.52792,0.33095,-0.5522,0.75748
-0.32825,0.77304,-0.54283,0.08653,-0.69305,0.79776
-0.33351,0.76742,-0.54757,-0.04934,-0.76702,0.82708
-0.34461,0.76649,-0.54198,-0.04559,-0.78519,0.81142
-0.35455,0.7741,-0.52446,-0.01436,-0.68232,0.65068
-0.36312,0.78945,-0.49489,0.02833,-0.5069,0.22131
-0.37433,0.80834,-0.45439,0.0435,1.36671,-1.96083
-0.38181,0.8102,-0.44473,0.0118,1.70864,-1.26665
-0.38918,0.80253,-0.45221,0.09928,0.45513,-0.54309
-0.38776,0.7956,-0.46547,0.02155,-0.39042,-0.61652
-0.38218,0.79495,-0.47116,0.09469,-0.5029,-0.18149
-0.38039,0.80143,-0.46154,-0.01793,-0.23549,-0.00039
-0.38254,0.80892,-0.44645,-0.66542,0.6612,0.50118
-0.38507,0.81521,-0.43261,-0.55121,0.70922,-0.17495
-0.3672,0.82345,-0.43254,-0.43231,0.0165,0.64995
-0.35462,0.82912,-0.43221,-0.1882,-0.538,1.33884
-0.32679,0.84002,-0.43309,-0.09792,-0.371,0.86443
-0.30315,0.85998,-0.41053,-0.21557,-0.08311,0.89032
-0.30338,0.88497,-0.35324,-0.27048,0.16799,1.00315
-0.3188,0.90097,-0.29429,0.00139,0.56698,1.14865
-0.33972,0.90082,-0.27038,0.34201,0.51989,0.65513
-0.36625,0.89468,-0.25574,0.45499,0.46135,0.09805
-0.39122,0.89998,-0.1923,0.74956,0.23723,-0.54279
-0.40771,0.91097,-0.0624,0.6246,0.07326,-0.01246
-0.41084,0.91153,0.01755,0.20986,-0.33922,-0.17419
-0.39946,0.91629,0.02888,0.38303,-0.08292,-0.25729
-0.38668,0.92154,0.03529,0.2496,0.03315,-0.24937
-0.37648,0.92487,0.05356,0.14133,-0.22277,0.40484
-0.36973,0.92772,0.0513,0.23414,-0.25055,0.36261
-0.36995,0.9284,0.0348,0.26834,-0.21409,0.02451
-0.37944,0.92469,0.03119,0.19865,-0.03982,-0.23754
-0.39856,0.91572,0.05091,0.07154,0.20117,-0.32965
-0.41886,0.9038,0.08768,0.11624,0.26926,-0.34191
-0.42973,0.89238,0.13776,0.19718,0.37799,-0.49635
-0.42792,0.87912,0.20982,0.38188,0.51143,-0.61962
-0.42124,0.86698,0.26626,0.85292,0.60061,-0.40628
-0.42938,0.86522,0.2589,0.86628,0.56624,-0.31455
-0.43683,0.87213,0.22038,0.76325,0.64858,-0.33311
-0.43174,0.88053,0.19562,0.49839,0.54341,-0.62401
-0.41753,0.88863,0.18975,0.51697,0.42424,-0.88057
-0.40069,0.89926,0.17542,0.37106,0.52518,-0.58781
-0.38814,0.9127,0.12778,0.31059,0.64246,-0.08882
-0.37689,0.92496,0.04905,0.20205,0.59625,0.80239
-0.35866,0.9324,-0.04466,0.00076,0.64318,0.54733
-0.33681,0.93238,-0.1312,-0.21902,0.79087,0.57502
-0.32953,0.92268,-0.20016,-0.59614,0.76154,0.12341
-0.33712,0.91015,-0.24078,-0.85525,0.20463,-0.15076
-0.33479,0.90679,-0.25622,-0.90917,-0.01731,0.11395
-0.31215,0.90702,-0.28261,-0.06692,-0.1311,0.39093
-0.28462,0.90015,-0.32971,0.10587,-0.1527,0.47093
-0.28363,0.87606,-0.38995,0.31436,-0.40269,0.91527
-0.30226,0.84871,-0.43396,0.66391,-0.55057,0.92987
-0.32377,0.83175,-0.45096,0.70589,-0.48338,0.85912
-0.33056,0.82178,-0.46411,0.45089,-0.45168,0.72856
-0.33073,0.81506,-0.4757,0.28258,-0.61381,0.74074
-0.33611,0.81146,-0.47808,0.08698,-0.74481,0.74337
-0.34596,0.81238,-0.46942,0.03969,-0.82065,0.78697
-0.35404,0.82069,-0.44847,0.01562,-0.82319,0.82435
-0.36264,0.83452,-0.41481,-0.06792,-0.20861,-0.60794
-0.37566,0.84886,-0.3719,0.01172,1.74594,-2.92507
-0.38816,0.8438,-0.37057,0.14671,2.33947,-1.89667
-0.39314,0.83851,-0.37728,0.03082,0.27649,-0.57968
-0.39091,0.8337,-0.39004,-0.48858,0.22321,-0.29853
-0.38872,0.83401,-0.39157,-0.7841,0.51618,-0.13335
-0.38886,0.83504,-0.38921,-0.38639,1.58049,-0.19102
-0.38322,0.82597,-0.41342,-0.35491,-0.21177,1.17386
-0.35248,0.8125,-0.46432,-0.33669,-1.3264,1.40346
-0.3151,0.8233,-0.47211,-0.30962,-1.10734,1.1144
-0.2975,0.84956,-0.43559,-0.51162,0.10872,1.21676
-0.28121,0.87088,-0.40309,-0.45514,0.27357,0.81769
-0.28451,0.88419,-0.3705,-0.51506,0.38458,0.59285
-0.31306,0.89094,-0.32897,-0.0253,0.75962,0.91207
-0.3542,0.89035,-0.28604,0.40119,0.64502,0.87665
-0.39534,0.8894,-0.22951,0.82631,0.41352,-0.55667
-0.42764,0.89729,-0.10947,1.14219,0.1398,0.08546
-0.44273,0.89631,-0.02483,0.67227,-0.11481,-0.28062
-0.43467,0.90058,-0.0033,0.5474,-0.18056,-0.44616
-0.41561,0.90951,0.0073,0.28542,-0.04264,0.08778
-0.39701,0.91766,0.01695,0.07605,0.04017,0.17938
-0.38499,0.9225,0.02788,-0.02635,-0.15614,0.36465
-0.38266,0.92333,0.03214,0.09054,-0.30933,0.13374
-0.38828,0.92077,0.03764,0.12879,-0.16853,-0.11172
-0.40336,0.91366,0.05018,0.13684,0.0066,-0.20605
-0.426,0.9019,0.07134,0.18697,0.07338,-0.1381
-0.45025,0.8876,0.0971,0.26301,0.17029,-0.23362
-0.46639,0.87373,0.13807,0.41282,0.48064,-0.44783
-0.46742,0.86041,0.20297,0.46425,0.59694,-0.38039
-0.46635,0.84663,0.25639,0.6325,0.67239,-0.52954
-0.47345,0.83939,0.26694,0.84847,0.6143,-0.45154
-0.4801,0.84294,0.24278,0.87328,0.59237,-0.35552
-0.47486,0.85321,0.21573,0.68189,0.53446,-0.69357
-0.45689,0.8665,0.20105,0.39593,0.44817,-0.60225
-0.43576,0.88191,0.17984,0.20259,0.46588,-0.5903
-0.41807,0.89817,0.13602,0.14365,0.62914,-0.30759
-0.3986,0.91472,0.06631,-0.01254,0.62152,0.78553
-0.37421,0.9271,-0.0213,-0.15101,0.5668,0.5489
-0.35017,0.93062,-0.10643,-0.34793,0.78238,0.52886
-0.34097,0.92302,-0.17825,-0.78953,0.79559,-0.02352
-0.34173,0.91334,-0.22143,-0.99596,0.21989,-0.16312
-0.33998,0.90906,-0.24085,-0.73491,-0.30827,0.33665
-0.32325,0.90583,-0.27382,-0.00625,-0.15066,0.35892
-0.3073,0.89382,-0.32657,0.19355,-0.12577,0.55072
-0.31867,0.86325,-0.39146,0.39532,-0.29518,0.88765
-0.34595,0.83382,-0.43019,0.69182,-0.42343,0.96313
-0.36666,0.81585,-0.44715,0.70716,-0.33738,0.79063
-0.3711,0.8047,-0.4634,0.43957,-0.38426,0.67684
-0.36918,0.79807,-0.47622,0.20556,-0.50763,0.7315
-0.37221,0.79546,-0.47824,-0.01863,-0.74245,0.78776
-0.37685,0.79803,-0.47024,-0.01182,-0.79495,0.77307
-0.38008,0.80744,-0.45119,0.03501,-0.81281,0.67637
-0.38548,0.82286,-0.4175,0.04484,-0.31789,-0.08015
-0.39687,0.83893,-0.37241,0.07191,0.05025,-1.04706
-0.40478,0.85022,-0.33656,-0.21165,2.12976,-2.72735
-0.40528,0.84533,-0.34808,-0.15968,1.36077,-1.05541
-0.39878,0.84235,-0.36253,0.27064,0.00429,-0.6809
-0.39084,0.8384,-0.3799,0.28343,-0.38434,-0.45884
-0.38742,0.83676,-0.38695,-0.28197,0.32257,0.06582
-0.39385,0.83632,-0.38138,-0.71894,1.43414,-0.22943
-0.39585,0.83554,-0.38102,-0.61372,1.3,0.11677
-0.3708,0.82049,-0.43509,-0.44273,-1.05923,1.69152
-0.33284,0.82177,-0.4625,-0.50551,-1.21851,1.49877
-0.30199,0.8456,-0.44019,-0.25935,-0.57873,1.32834
-0.27903,0.87378,-0.39829,-0.3946,0.0063,0.84924
-0.27901,0.89547,-0.34681,-0.45536,0.14545,0.75019
-0.30234,0.90561,-0.29741,0.03391,0.75256,1.19465
-0.33556,0.90302,-0.26824,0.23127,0.781,1.0685
-0.37609,0.89421,-0.24276,0.5656,0.6199,-0.14062
-0.41556,0.89881,-0.13945,1.04254,0.19683,0.13754
-0.43192,0.90168,-0.02049,0.83841,-0.02368,0.01174
-0.4282,0.90347,0.0195,0.59284,-0.22767,-0.52751
-0.40837,0.91229,0.03071,0.41526,-0.01192,-0.08782
-0.38826,0.92043,0.04539,0.17454,0.00622,0.14713
-0.3742,0.92584,0.05282,-0.01384,-0.19077,0.33385
-0.36898,0.9281,0.04981,0.07017,-0.33171,0.24513
-0.37559,0.92572,0.0443,0.09335,-0.29512,0.0872
-0.39384,0.91779,0.05037,0.05072,-0.11533,-0.37378
-0.41798,0.90481,0.08127,0.15989,0.2149,-0.31293
-0.44105,0.8889,0.12382,0.29438,0.3591,-0.57664
-0.45128,0.87329,0.18359,0.38518,0.45386,-0.65966
-0.44554,0.85738,0.25765,0.67799,0.62744,-0.5032
-0.44183,0.84828,0.29188,0.88222,0.58269,-0.26458
-0.4524,0.8517,0.26446,0.87481,0.62456,-0.23243
-0.45389,0.86281,0.22258,0.80794,0.66881,-0.36044
-0.43716,0.87728,0.19817,0.57952,0.58265,-0.7301
-0.41113,0.89155,0.19004,0.25556,0.52374,-0.92802
-0.38563,0.90718,0.16823,-0.10824,0.61975,-0.65446
-0.3685,0.92306,0.11025,0.01323,0.70032,0.78381
-0.35539,0.93448,0.021,0.04013,0.59116,0.73755
-0.33583,0.93887,-0.07574,-0.25841,0.80249,0.52699
-0.31782,0.93495,-0.15766,-0.59145,1.10863,0.24481
-0.3105,0.92635,-0.21319,-0.71658,0.91506,0.05094
-0.3049,0.9215,-0.24056,-0.84296,-0.00213,0.0865
-0.28855,0.91883,-0.26923,-0.29802,-0.26293,0.4195
-0.26349,0.91055,-0.31855,-0.05203,-0.22738,0.42391
-0.25479,0.88382,-0.39235,0.23288,-0.19161,0.75688
-0.27418,0.84156,-0.46541,0.44839,-0.40563,0.959
-0.30711,0.81177,-0.49669,0.66101,-0.47114,0.92885
-0.33793,0.79569,-0.50267,0.58317,-0.46114,0.85884
-0.34852,0.78835,-0.50699,0.31638,-0.55304,0.77879
-0.3477,0.78607,-0.51108,0.11393,-0.64157,0.78269
-0.34763,0.79024,-0.50464,-0.05092,-0.67797,0.85521
-0.35005,0.80146,-0.4849,-0.07772,-0.77834,0.8491
-0.35041,0.82052,-0.45162,-0.02467,-0.65052,0.61929
-0.35652,0.8413,-0.40632,-0.0345,-0.39702,0.23594
-0.37365,0.85382,-0.36244,0.12918,1.77949,-3.50422
-0.38609,0.8452,-0.36954,-0.08936,1.79469,-0.55721
-0.38744,0.83933,-0.38132,0.01404,0.16698,-0.62846
-0.38148,0.83464,-0.39729,0.03368,-0.80207,-0.55548
-0.3721,0.83863,-0.39779,-0.46748,-0.2246,-0.02985
-0.37295,0.84162,-0.39061,-0.81568,0.7128,0.34547
-0.38036,0.84098,-0.38481,-0.59725,0.97029,0.5568
-0.37314,0.83789,-0.39838,-0.25096,0.88767,-0.26448
-0.36412,0.83494,-0.41266,-0.05736,-0.58351,1.39855
-0.33867,0.84318,-0.41754,0.02271,-0.24968,1.07106
-0.31546,0.86057,-0.39987,-0.03068,-0.17615,0.95282
-0.31076,0.88062,-0.35766,-0.10052,0.5138,1.07527
-0.32432,0.89168,-0.31577,0.00139,0.66307,1.08826
-0.34642,0.89172,-0.29124,0.2748,0.65142,0.86904
-0.37428,0.88872,-0.26472,0.55091,0.31892,-0.38333
-0.40345,0.89574,-0.18676,0.70166,0.12747,-0.57087
-0.41938,0.90564,-0.06277,0.57572,0.00043,-0.06785
-0.41806,0.90827,0.01645,0.13623,-0.23914,-0.24518
-0.40519,0.91325,0.04235,0.16577,-0.1135,-0.23409
-0.39042,0.91905,0.05405,0.12999,-0.08085,0.06128
-0.38041,0.92314,0.05565,0.29623,-0.30572,0.24956
-0.37897,0.92418,0.04751,0.24712,-0.25495,0.11779
-0.38712,0.92124,0.03796,0.22471,-0.22311,0.06162
-0.4043,0.91382,0.03835,0.16481,0.0408,-0.20506
-0.4239,0.90391,0.05705,0.18019,0.27949,-0.32856
-0.43977,0.89273,0.09813,0.21353,0.34436,-0.46828
-0.44343,0.88006,0.16991,0.27938,0.56709,-0.63232
-0.43197,0.86523,0.2545,0.65778,0.60256,-0.65895
-0.42582,0.85705,0.29008,0.79044,0.69322,-0.56238
-0.4341,0.86255,0.2599,0.7188,0.57882,-0.27583
-0.43816,0.87336,0.2127,0.60145,0.73922,-0.62533
-0.42882,0.88499,0.1814,0.53944,0.47656,-0.8196
-0.41062,0.89809,0.15753,0.41418,0.50773,-0.78538
-0.39388,0.91161,0.11751,0.07416,0.64854,-0.16216
-0.38443,0.92186,0.0489,0.1865,0.75266,0.89377
-0.37462,0.92619,-0.04266,0.06711,0.75249,0.64669
-0.35651,0.92446,-0.13513,-0.33716,1.03197,0.57528
-0.33801,0.91696,-0.21197,-0.59287,1.11742,0.29936
-0.32608,0.90906,-0.25938,-0.71298,0.34448,0.12488
-0.30349,0.90707,-0.29173,-0.55931,-0.03214,0.17499
-0.27552,0.90259,-0.33078,-0.10775,-0.13992,0.38927
-0.25503,0.88643,-0.38627,0.07034,-0.12188,0.60479
-0.25303,0.85602,-0.45078,0.34396,-0.23535,0.87471
-0.28107,0.82397,-0.49201,0.52953,-0.45848,1.11539
-0.31497,0.80258,-0.50661,0.64833,-0.4856,0.89101
-0.33423,0.78668,-0.51906,0.41828,-0.56426,0.80446
-0.33729,0.7745,-0.53514,0.26327,-0.64834,0.80689
-0.3401,0.76882,-0.54152,0.14976,-0.66689,0.85373
-0.34909,0.76938,-0.53496,-0.15037,-0.75737,0.9433
-0.35679,0.77955,-0.51477,-0.13677,-0.79451,0.84616
-0.36252,0.79895,-0.47984,-0.11216,-0.70949,0.60902
-0.3795,0.82008,-0.4283,-0.11912,1.0694,-2.06274
-0.39535,0.82879,-0.39598,-0.17646,2.06222,-1.8497
-0.40021,0.82249,-0.40415,-0.07904,1.17321,-0.97303
-0.39809,0.81805,-0.41512,0.08043,-0.17709,-0.6302
-0.39115,0.8181,-0.42157,0.14572,-0.68725,-0.47382
-0.38582,0.8233,-0.41632,-0.04216,0.15572,0.55544
-0.39126,0.82989,-0.39773,-0.23628,0.48871,0.91896
-0.39219,0.83697,-0.38166,-0.58478,1.42838,-0.78702
-0.37892,0.84948,-0.36715,-0.39227,0.39553,0.88784
-0.36407,0.84932,-0.38225,-0.01434,-0.54265,1.1423
-0.33099,0.84928,-0.41129,0.06,-0.58532,1.03203
-0.30124,0.86237,-0.40691,-0.09964,-0.39557,0.88871
-0.29589,0.88517,-0.35906,-0.14556,-0.20931,0.8861
-0.3091,0.90061,-0.30555,-0.17314,0.49346,1.17722
-0.32936,0.90215,-0.27865,0.22019,0.54552,0.79371
-0.35701,0.89891,-0.25397,0.41125,0.42395,-0.03671
-0.38806,0.90318,-0.18348,0.62337,0.30777,-0.71712
-0.40892,0.9107,-0.05838,0.46542,-0.1199,-0.12343
-0.40903,0.91234,0.01775,0.22909,-0.2423,-0.22963
-0.39702,0.91723,0.03258,0.12133,-0.22339,-0.07023
-0.3854,0.92203,0.03631,0.06502,0.02821,-0.1495
-0.37749,0.9245,0.05291,0.09396,-0.27309,0.40127
-0.37515,0.92522,0.05675,0.21887,-0.32128,0.34768
-0.381,0.92323,0.04984,0.16935,-0.23028,0.04627
-0.39936,0.91536,0.05122,0.15365,-0.06456,-0.26938
-0.42423,0.90259,0.0732,0.17663,0.24136,-0.40849
-0.44668,0.88725,0.11515,0.37334,0.40885,-0.52465
-0.45865,0.87105,0.17577,0.55863,0.5196,-0.69991
-0.45303,0.85819,0.24137,0.74107,0.63718,-0.43708
-0.44617,0.85556,0.26258,0.80066,0.65116,-0.25469
-0.44786,0.861,0.24102,0.79022,0.57721,-0.21476
-0.44614,0.87036,0.20836,0.66355,0.69137,-0.47755
-0.43441,0.88001,0.19198,0.47761,0.53451,-0.81028
-0.4147,0.89208,0.17944,0.35149,0.66184,-0.89526
-0.39558,0.90712,0.1437,0.04826,0.63343,-0.44969
-0.38217,0.92117,0.07336,0.0993,0.63116,0.69825
-0.36607,0.93033,-0.02171,0.06569,0.58975,0.71016
-0.34466,0.93119,-0.11872,-0.315,0.83265,0.68763
-0.32514,0.92436,-0.19957,-0.63511,1.19708,0.36415
-0.31698,0.91523,-0.24874,-0.80755,0.48937,-0.14633
-0.30538,0.91279,-0.27122,-0.75709,-0.12095,0.11036
-0.28477,0.90987,-0.30172,-0.12687,-0.14057,0.40677
-0.27058,0.8945,-0.35587,0.11245,-0.1191,0.51012
-0.28147,0.85842,-0.42882,0.37799,-0.18923,0.92386
-0.31105,0.81656,-0.48628,0.6203,-0.40329,0.97603
-0.34542,0.79131,-0.50449,0.66311,-0.2639,0.87902
-0.36284,0.77768,-0.51338,0.60132,-0.25383,0.87226
-0.36073,0.76736,-0.53012,0.18417,-0.56952,0.81196
-0.35498,0.76416,-0.53856,-0.09763,-0.64484,0.82501
-0.35568,0.76709,-0.53392,-0.19729,-0.7717,0.87665
-0.35915,0.77773,-0.51589,-0.10771,-0.85337,0.79588
-0.36275,0.7971,-0.48274,-0.03465,-0.50314,0.17671
-0.37433,0.81982,-0.43333,0.07769,0.29823,-1.35998
-0.38496,0.83956,-0.38332,0.05597,2.16352,-2.09335
-0.38982,0.83684,-0.38437,-0.04299,1.81717,-1.42555
-0.3884,0.83594,-0.38775,0.0293,-0.11095,-0.75033
-0.3818,0.83785,-0.39017,0.03758,-0.37519,-0.40464
-0.37569,0.84257,-0.38592,-0.06266,-0.15653,-0.12792
-0.37795,0.84525,-0.37776,-0.4631,0.49037,1.11825
-0.37665,0.84768,-0.3736,-0.50429,0.61296,0.24306
-0.36012,0.85783,-0.36665,-0.6259,0.62708,0.15597
-0.35142,0.86695,-0.35342,-0.14589,-0.28968,1.29588
-0.32671,0.86978,-0.36978,0.00634,-0.46902,0.87425
-0.30472,0.88196,-0.35956,-0.02391,-0.42132,0.71245
-0.30475,0.90106,-0.30856,-0.09431,0.04803,0.96371
-0.32008,0.91192,-0.2568,0.15629,0.40087,1.12352
-0.3416,0.91076,-0.23199,0.32844,0.47477,0.92181
-0.36927,0.90361,-0.21707,0.38996,0.33192,0.28168
-0.39622,0.90306,-0.16576,0.68036,0.14618,-0.73438
-0.41335,0.90927,-0.04856,0.43871,0.0135,-0.13206
-0.41398,0.90989,0.02655,0.22297,-0.29473,-0.26828
-0.40372,0.91385,0.04336,0.3091,-0.106,-0.1038
-0.39412,0.918,0.04399,0.08323,-0.11662,0.22182
-0.38718,0.9207,0.04891,0.13284,-0.14487,0.26489
-0.38681,0.92095,0.04713,0.16867,-0.17415,0.22025
-0.39405,0.91784,0.04789,0.24347,-0.12037,-0.05766
-0.41165,0.90951,0.05771,0.22682,-0.04518,-0.20238
-0.43301,0.89811,0.07681,0.24926,0.02162,-0.21464
-0.45162,0.88567,0.10782,0.35808,0.3484,-0.5458
-0.46108,0.87211,0.16379,0.39128,0.47201,-0.4015
-0.45821,0.8605,0.22266,0.56985,0.61034,-0.27876
-0.4575,0.85176,0.2553,0.76974,0.68519,-0.43143
-0.46171,0.84973,0.2545,0.75055,0.59603,-0.43588
-0.45935,0.85716,0.23293,0.68877,0.45827,-0.55074
-0.45061,0.8678,0.20943,0.23653,0.46416,-0.88405
-0.43741,0.87986,0.18577,0.31106,0.48444,-0.83528
-0.42551,0.89366,0.14248,0.30887,0.62609,-0.44244
-0.41684,0.9062,0.07095,0.30519,0.73003,0.41867
-0.40238,0.91527,-0.01898,0.20832,0.59713,0.66748
-0.37906,0.91923,-0.10636,-0.00485,0.68437,0.54618
-0.35266,0.9175,-0.1839,-0.45565,1.27893,0.71679
-0.34374,0.9059,-0.24736,-0.6994,1.09749,0.47545
-0.34037,0.89681,-0.28263,-0.96136,-0.14971,-0.10769
-0.32611,0.89476,-0.30503,-0.53108,-0.17518,0.27507
-0.30765,0.88391,-0.35221,0.02998,-0.14674,0.45455
-0.30008,0.85944,-0.41389,0.21811,-0.19179,0.90707
-0.31394,0.82753,-0.46544,0.46448,-0.39618,1.08555
-0.34188,0.79866,-0.49524,0.59459,-0.5231,0.90528
-0.3596,0.78254,-0.50824,0.51518,-0.49963,0.88472
-0.35817,0.77634,-0.51866,0.42151,-0.53766,0.81549
-0.35602,0.77699,-0.51916,0.07295,-0.70046,0.80326
-0.35862,0.78312,-0.50804,0.00294,-0.7257,0.83703
-0.36341,0.79539,-0.48506,0.01143,-0.75206,0.8586
-0.3652,0.81576,-0.4485,-0.00241,-0.42903,0.49695
-0.37542,0.83557,-0.4011,-0.00759,0.14954,-0.84008
-0.39273,0.85103,-0.34857,0.11302,2.60504,-3.79243
-0.39561,0.84511,-0.35955,-0.13722,2.48163,-1.21012
-0.38982,0.8423,-0.37225,0.19257,-0.12262,-0.62062
-0.38127,0.8402,-0.38561,0.37035,-0.71242,-0.38409
-0.37553,0.84048,-0.39059,0.00714,-0.41287,0.26643
-0.37869,0.84432,-0.37909,-0.38158,0.37435,1.20445
-0.38607,0.84705,-0.36531,-0.70803,0.74725,1.13999
-0.36958,0.85777,-0.35726,-0.62914,1.32667,-1.18685
-0.36537,0.86547,-0.34273,-0.25743,-0.17498,1.46817
-0.34193,0.86364,-0.37042,-0.06442,-0.39348,0.86276
-0.315,0.86994,-0.37943,-0.10059,-0.3581,0.75625
-0.30901,0.88577,-0.34628,-0.20734,-0.09874,0.92967
-0.32213,0.90248,-0.28592,-0.04758,0.28972,1.30252
-0.33879,0.90726,-0.24919,0.14343,0.43259,1.12267
-0.36234,0.90158,-0.23636,0.24488,0.44324,0.87663
-0.38725,0.89787,-0.20943,0.65274,0.21477,-0.53483
-0.40806,0.90735,-0.10097,0.67355,0.20529,-0.64329
-0.41585,0.90943,-0.00104,0.37229,-0.11878,-0.22131
-0.41007,0.91139,0.03468,0.27363,0.00232,-0.3038
-0.39915,0.91591,0.04213,0.25358,0.03599,-0.37825
-0.39283,0.91802,0.05401,0.13688,-0.02115,-0.2286
-0.38842,0.91989,0.05406,0.26905,-0.3163,0.28025
-0.39198,0.91901,0.04197,0.27687,-0.30022,0.14048
-0.4052,0.9135,0.03635,0.27251,-0.23961,-0.04437
-0.4253,0.90354,0.0522,0.20023,0.2797,-0.39889
-0.44582,0.89059,0.08991,0.24607,0.36705,-0.50156
-0.45667,0.87688,0.15007,0.43059,0.35941,-0.68559
-0.45116,0.86482,0.22028,0.66499,0.44706,-0.45103
-0.44477,0.8589,0.2539,0.79909,0.68981,-0.24631
-0.44732,0.85949,0.24731,0.72432,0.57656,-0.17837
-0.44746,0.86533,0.22578,0.7757,0.51234,-0.37564
-0.44238,0.87303,0.20519,0.27801,0.64941,-0.89791
-0.42793,0.8836,0.19004,0.35084,0.63735,-0.78839
-0.41351,0.89656,0.15866,0.20462,0.57568,-0.30057
-0.40305,0.91052,0.09218,0.25398,0.66735,0.23584
-0.38839,0.92149,0.00078,0.16304,0.61854,0.58556
-0.36539,0.92618,-0.09308,0.00988,0.63553,0.60041
-0.34091,0.92281,-0.17943,-0.49804,1.17332,0.63596
-0.33272,0.9104,-0.24587,-0.85219,0.54631,-0.12205
-0.32854,0.90299,-0.27689,-0.94668,0.18876,-0.29679
-0.31558,0.90338,-0.29035,-0.78606,-0.32179,0.16253
-0.29527,0.89797,-0.32627,0.08394,-0.20481,0.51499
-0.29148,0.8742,-0.38833,0.21747,-0.16726,0.7007
-0.31927,0.82391,-0.46823,0.42942,-0.32127,0.9779
-0.35893,0.78285,-0.50824,0.75386,-0.40706,1.03803
-0.38892,0.76444,-0.51416,0.73482,-0.39477,0.94548
-0.38887,0.75631,-0.52609,0.50734,-0.42091,0.75024
-0.38513,0.75213,-0.53477,0.17975,-0.55485,0.83125
-0.39077,0.75181,-0.53111,0.00441,-0.63525,0.91246
-0.39887,0.75874,-0.51499,0.01232,-0.76872,0.90514
-0.40223,0.77769,-0.48311,0.12242,-0.64422,0.5729
-0.40747,0.80253,-0.43577,-0.04829,-0.06215,-0.54763
-0.41466,0.82755,-0.37843,-0.26257,1.75793,-3.14095
-0.42026,0.82472,-0.37843,-0.29657,1.5976,-0.9623
-0.42632,0.81823,-0.38567,0.02709,-0.00382,-0.64076
-0.42442,0.81493,-0.39465,0.1509,-0.62903,-0.50844
-0.42048,0.81581,-0.39704,0.21491,-0.60871,0.06799
-0.42266,0.82179,-0.38211,-0.28418,0.29221,1.03064
-0.4229,0.82873,-0.36655,-0.42989,0.50271,1.33538
-0.40291,0.84265,-0.35721,-0.65062,1.47456,-1.55948
-0.39263,0.85678,-0.3343,-0.32902,0.16878,1.2503
-0.36998,0.8571,-0.35845,0.05058,-0.50174,0.99323
-0.33892,0.86489,-0.37027,0.05313,-0.41335,0.8277
-0.32804,0.88012,-0.34319,-0.03675,-0.25068,0.92257
-0.33631,0.89414,-0.29564,-0.02361,0.01704,1.02802
-0.35447,0.89729,-0.26307,0.19479,0.38666,1.05135
-0.37835,0.89358,-0.24158,0.32578,0.4406,0.75049
-0.40317,0.89211,-0.2039,0.49704,0.33948,-0.48898
-0.42465,0.90009,-0.09746,0.60681,0.23911,-0.64047
-0.42699,0.90425,-0.001,0.15611,-0.30715,-0.14589
-0.41493,0.90935,0.03011,0.14406,-0.31224,-0.177
-0.40044,0.91553,0.03795,0.21202,0.04966,-0.31679
-0.39152,0.91869,0.05201,0.06385,-0.24934,0.26595
-0.38686,0.92047,0.05531,0.17172,-0.29373,0.16804
-0.39198,0.91851,0.05166,0.2116,-0.3471,0.15748
-0.40816,0.91141,0.05222,0.16207,-0.16255,-0.1216
-0.43017,0.90048,0.06384,0.14508,0.0607,-0.17061
-0.45174,0.88767,0.08929,0.13908,0.28685,-0.27646
-0.46528,0.87406,0.13971,0.45481,0.49033,-0.49645
-0.46475,0.86067,0.20795,0.58667,0.58087,-0.35763
-0.45876,0.85166,0.2534,0.8471,0.72108,-0.45397
-0.45498,0.85048,0.26396,0.78339,0.62696,-0.48207
-0.4515,0.85768,0.24602,0.64971,0.76425,-0.42089
-0.445,0.86772,0.22143,0.41349,0.6832,-0.68148
-0.43058,0.88139,0.19429,0.36694,0.66013,-0.72771
-0.4141,0.8972,0.15346,0.11928,0.44472,-0.72877
-0.40287,0.91102,0.08788,-0.01069,0.59519,0.74037
-0.39084,0.92045,-0.00216,0.05783,0.5856,0.70699
-0.37056,0.92321,-0.10176,-0.11925,0.63724,0.68525
-0.344,0.91884,-0.19335,-0.81018,1.34674,0.24417
-0.32898,0.91038,-0.25094,-0.98895,0.46857,-0.14373
-0.31487,0.90809,-0.27609,-0.99795,0.10073,0.02905
-0.29457,0.9065,-0.30247,-0.19919,-0.23311,0.36817
-0.27834,0.89658,-0.34447,0.03446,-0.20708,0.55008
-0.28006,0.86805,-0.40994,0.32971,-0.18016,0.8375
-0.30884,0.82589,-0.47173,0.7173,-0.43844,0.96932
-0.35143,0.79466,-0.49499,0.82305,-0.45905,1.01792
-0.36993,0.77582,-0.51112,0.63882,-0.36941,0.8244
-0.36646,0.76276,-0.53282,0.36579,-0.49019,0.79532
-0.36692,0.75624,-0.54173,0.06272,-0.64537,0.84354
-0.3722,0.75709,-0.53692,-0.06012,-0.68772,0.87093
-0.37802,0.76727,-0.51806,-0.04594,-0.75769,0.82637
-0.38105,0.78812,-0.48339,0.08121,-0.64046,0.63348
-0.38917,0.81251,-0.43402,-0.0209,-0.11576,-0.27488
-0.40018,0.83607,-0.37528,-0.11613,1.45049,-2.87088
-0.40331,0.83498,-0.37436,0.00092,2.69061,-2.43246
-0.40269,0.83167,-0.38231,-0.0553,0.35668,-0.76091
-0.3985,0.82945,-0.39141,0.07702,-0.33734,-0.56463
-0.3972,0.83201,-0.38728,-0.42313,0.01007,0.04252
-0.39829,0.83451,-0.38072,-0.57171,0.80862,0.24817
-0.39817,0.84019,-0.36815,-0.24601,1.58358,0.46756
-0.36995,0.83462,-0.40809,-0.12913,-0.28808,0.81501
-0.32983,0.83201,-0.44605,-0.10403,-0.80719,1.25625
-0.28805,0.84605,-0.44857,-0.19027,-0.63743,0.93447
-0.27067,0.87164,-0.40862,-0.3817,-0.16856,0.89525
-0.27548,0.89579,-0.34882,-0.4386,0.03137,0.85469
-0.29204,0.90522,-0.30869,-0.37334,0.36726,0.89
-0.32327,0.89694,-0.30164,0.22015,0.52608,0.78303
-0.36331,0.8858,-0.28873,0.33731,0.45126,0.45122
-0.40231,0.89059,-0.21211,0.58726,0.38791,-0.59508
-0.42431,0.90227,-0.0765,0.66984,-0.04282,-0.02353
-0.4275,0.90401,-0.00216,0.45051,-0.23656,-0.23072
-0.41307,0.91066,0.00766,0.35108,-0.2222,-0.24256
-0.39774,0.91744,0.00976,0.11117,-0.02879,0.12028
-0.38448,0.92304,0.01293,0.03674,-0.11825,0.31062
-0.3781,0.92569,0.01116,0.05922,-0.16945,0.36059
-0.3824,0.92396,0.0083,0.09964,-0.25069,-0.01454
-0.39879,0.91689,0.0163,0.12553,-0.14349,-0.13718
-0.42158,0.90592,0.03973,0.20136,0.1969,-0.24223
-0.44227,0.89347,0.07813,0.34369,0.34871,-0.55161
-0.45279,0.87999,0.1435,0.42935,0.47301,-0.4592
-0.44633,0.86797,0.21773,0.58324,0.63841,-0.45706
-0.44064,0.86135,0.2528,0.7503,0.65391,-0.35918
-0.44572,0.86369,0.23531,0.72854,0.60607,-0.3194
-0.4476,0.87129,0.20124,0.71037,0.65593,-0.33238
-0.44103,0.87985,0.17708,0.40831,0.41642,-0.76414
-0.42428,0.89038,0.16492,0.38459,0.45245,-0.80948
-0.40739,0.9026,0.13909,0.14927,0.55483,-0.58118
-0.39664,0.91481,0.0761,0.18477,0.67019,0.58305
-0.38404,0.92321,-0.01359,0.12153,0.60959,0.90083
-0.36313,0.92533,-0.10906,-0.121,0.69645,0.6074
-0.33779,0.921,-0.19404,-0.53995,1.23408,0.53119
-0.32211,0.91069,-0.25862,-0.80025,0.73137,0.03392
-0.31093,0.90525,-0.28955,-0.96116,0.07685,-0.02796
-0.2938,0.9047,-0.30854,-0.50358,-0.24757,0.41311
-0.26886,0.89852,-0.34696,0.05903,-0.18671,0.4325
-0.26566,0.87418,-0.4065,0.20541,-0.23234,0.82047
-0.29423,0.83682,-0.4617,0.45747,-0.31976,1.00609
-0.33301,0.80546,-0.49024,0.77351,-0.42596,0.98325
-0.35176,0.7873,-0.50638,0.72656,-0.36073,0.84263
-0.34659,0.77629,-0.52654,0.25935,-0.56236,0.81533
-0.34387,0.77152,-0.53526,0.07787,-0.63413,0.81297
-0.34816,0.77333,-0.52985,-0.00092,-0.64125,0.8543
-0.35473,0.78245,-0.5118,-0.06054,-0.80882,0.88338
-0.35851,0.80064,-0.48004,0.05527,-0.69705,0.691
-0.37015,0.81958,-0.43735,0.06063,-0.42416,0.35578
-0.38407,0.83626,-0.39136,0.24982,2.74542,-2.59868
-0.39132,0.82741,-0.40281,-0.03504,2.03575,-1.05889
-0.38995,0.81922,-0.4205,0.01492,0.35479,-0.71829
-0.38422,0.81111,-0.44098,0.02427,-0.50058,-0.55017
-0.3764,0.81168,-0.44664,-0.10903,-0.60853,-0.37372
-0.37562,0.81889,-0.43396,-0.21701,0.1657,0.08861
-0.38196,0.82257,-0.42129,-0.56061,0.78978,1.00348
-0.37103,0.82265,-0.43079,-0.38899,0.91423,-0.38305
-0.35982,0.8253,-0.43521,-0.45906,-0.1515,1.31113
-0.3371,0.83157,-0.44143,-0.20016,-0.39509,1.25023
-0.30105,0.84641,-0.43927,-0.22097,-0.32018,1.15741
-0.27318,0.8674,-0.41591,-0.2489,-0.23556,1.00693
-0.28187,0.89248,-0.35218,-0.42362,0.53577,1.17731
-0.30342,0.90517,-0.29765,-0.18619,0.6368,1.20703
-0.3322,0.90296,-0.27258,0.18838,0.553,0.9799
-0.36693,0.89523,-0.25284,0.36235,0.37858,0.45635
-0.4014,0.8999,-0.17048,0.74745,0.23815,-0.85304
-0.4196,0.90656,-0.0455,0.56696,-0.00221,-0.03597
-0.42033,0.90728,0.01266,0.40251,-0.16778,-0.31283
-0.40876,0.91229,0.02538,0.39095,-0.08047,-0.20595
-0.39832,0.91661,0.03399,0.11392,-0.10623,0.08816
-0.38947,0.92006,0.04234,0.11974,-0.30964,0.34653
-0.38772,0.92097,0.03843,0.15954,-0.33089,0.26065
-0.3963,0.91742,0.03583,0.19538,-0.0882,-0.09801
-0.41705,0.9078,0.04437,0.16931,0.19729,-0.31853
-0.44183,0.89455,0.06759,0.20263,0.33086,-0.38177
-0.45928,0.88098,0.11374,0.4469,0.4331,-0.69443
-0.46048,0.86752,0.18805,0.49826,0.53185,-0.64433
-0.45236,0.85702,0.24674,0.78826,0.67753,-0.38522
-0.45334,0.85592,0.24876,0.74022,0.58628,-0.27927
-0.45509,0.86371,0.21656,0.8746,0.58699,-0.10716
-0.45307,0.87325,0.1793,0.5581,0.49192,-0.52889
-0.43779,0.88557,0.15523,0.29477,0.33881,-0.73215
-0.41504,0.89962,0.13569,0.13118,0.49349,-0.78419
-0.39475,0.91331,0.10019,-0.10459,0.63918,-0.21637
-0.3801,0.92432,0.03404,0.03609,0.62799,0.82739
-0.36636,0.92861,-0.05878,0.05286,0.54986,0.65601
-0.34704,0.92563,-0.15085,-0.34415,0.86843,0.64293
-0.32901,0.91567,-0.23085,-0.66351,1.21929,0.502
-0.32159,0.90412,-0.28133,-0.94999,0.08901,-0.0639
-0.31024,0.90063,-0.30434,-0.8721,-0.17397,0.17153
-0.2889,0.89661,-0.33559,-0.41302,-0.19808,0.39372
-0.26998,0.88279,-0.38443,0.4085,-0.14221,0.62926
-0.28401,0.84646,-0.45037,0.42253,-0.10588,0.6952
-0.32375,0.80684,-0.49417,0.74333,-0.42239,1.11552
-0.35593,0.78246,-0.51094,0.56307,-0.37,0.85773
-0.36498,0.76764,-0.52681,0.47898,-0.3693,0.7998
-0.36298,0.75792,-0.54204,0.28538,-0.53509,0.79287
-0.36519,0.75679,-0.54213,0.02877,-0.64431,0.83261
-0.37047,0.76458,-0.52742,0.00619,-0.67101,0.83403
-0.37627,0.7801,-0.49986,-0.03471,-0.7343,0.7958
-0.38222,0.80167,-0.4596,-0.04048,-0.4787,0.33432
-0.39743,0.82291,-0.40603,-0.00861,0.25063,-1.36396
-0.41141,0.8265,-0.38425,0.04411,2.69337,-2.46707
-0.41994,0.81774,-0.39362,-0.27391,1.26269,-0.704
-0.41863,0.8094,-0.41184,-0.00901,-0.1326,-0.48431
-0.40934,0.80789,-0.42397,-0.11706,-0.64099,-0.47542
-0.40099,0.8125,-0.42313,-0.48548,-0.07493,0.05214
-0.40571,0.81527,-0.4132,-0.39419,0.81914,0.27212
-0.4045,0.8099,-0.42478,-0.25414,0.45331,0.22139
-0.39899,0.80399,-0.44092,-0.22818,-0.18008,0.93116
-0.3838,0.80739,-0.44812,-0.06626,-0.551,1.53245
-0.35251,0.82203,-0.44722,-0.08463,-0.06237,1.09631
-0.32873,0.84269,-0.42639,-0.16277,0.06571,0.92424
-0.33127,0.86433,-0.37842,-0.09699,0.65148,1.0976
-0.34851,0.87551,-0.33468,0.26874,0.59809,0.97113
-0.37525,0.87654,-0.30144,0.35733,0.51122,0.83932
-0.40237,0.87693,-0.26284,0.61558,0.17548,-0.47652
-0.42448,0.89072,-0.16256,0.70451,0.14277,-0.09826
-0.43324,0.90002,-0.04759,0.34161,-0.07913,-0.12569
-0.42787,0.90383,0.0034,0.19435,-0.17179,-0.27601
-0.41393,0.91024,0.01086,0.31405,0.01032,-0.34892
-0.40263,0.91505,0.02366,0.16745,0.01808,0.05864
-0.3947,0.91817,0.0341,0.18976,-0.2459,0.29041
-0.39149,0.91971,0.02932,0.25326,-0.20037,0.23714
-0.39828,0.9169,0.02569,0.263,-0.11192,-0.13945
-0.41484,0.90904,0.03939,0.26654,0.148,-0.33808
-0.4344,0.89786,0.07164,0.30585,0.2384,-0.4054
-0.44688,0.88616,0.12248,0.31604,0.27881,-0.62677
-0.44369,0.87554,0.19121,0.35304,0.41084,-0.60741
-0.43529,0.86805,0.23875,0.56247,0.62377,-0.29632
-0.4421,0.86657,0.23152,0.7253,0.73963,-0.26448
-0.45157,0.86961,0.19964,0.78775,0.7041,-0.24157
-0.44913,0.87648,0.17338,0.81704,0.67288,-0.34821
-0.43425,0.88477,0.16911,0.43852,0.5017,-0.94356
-0.41613,0.89543,0.15825,0.26356,0.45783,-0.96431
-0.40771,0.9074,0.10197,0.19015,0.67853,-0.03638
-0.40383,0.91481,0.006,0.19998,0.74791,0.80865
-0.3885,0.91638,-0.0965,0.1285,0.68569,0.67991
-0.36621,0.91189,-0.18531,-0.3187,1.00936,0.88602
-0.35618,0.89715,-0.26123,-0.51689,1.19022,0.68289
-0.35543,0.88107,-0.31206,-0.58904,0.62354,0.54045
-0.3423,0.87935,-0.33101,-0.92095,-0.20873,-0.0739
-0.32059,0.88059,-0.34897,-0.09845,-0.11908,0.37617
-0.31574,0.86504,-0.38988,0.26374,-0.16634,0.63916
-0.338,0.83196,-0.43999,0.45258,-0.27482,0.84668
-0.36539,0.79623,-0.48219,0.66778,-0.35726,0.96165
-0.37858,0.77394,-0.50763,0.65099,-0.29883,0.92793
-0.37935,0.76036,-0.5272,0.46372,-0.37173,0.86816
-0.38169,0.7543,-0.53417,0.21741,-0.60939,0.92193
-0.38499,0.75776,-0.52687,-0.03291,-0.73913,0.9304
-0.38996,0.76815,-0.50781,-0.10043,-0.81246,0.89218
-0.39464,0.78685,-0.47447,-0.01229,-0.62349,0.53727
-0.40361,0.81031,-0.42485,0.0363,-0.04684,-0.28197
-0.41404,0.83366,-0.36549,-0.23126,1.67629,-2.85157
-0.41349,0.8366,-0.35935,-0.35241,2.49412,-2.03924
-0.41019,0.83106,-0.37561,0.15796,0.20172,-0.76877
-0.40596,0.82658,-0.38982,0.37221,-0.46952,-0.52304
-0.40388,0.82398,-0.39741,0.20709,-0.3346,-0.30241
-0.40944,0.82366,-0.39236,-0.30035,0.39799,0.4854
-0.42005,0.82955,-0.36799,-0.65921,1.83076,0.46897
-0.41161,0.83146,-0.37316,-0.62616,2.52436,-0.75896
-0.39668,0.82118,-0.41025,0.06205,-1.03214,2.35652
-0.34956,0.82232,-0.44899,0.11169,-0.8668,1.112
-0.30082,0.83985,-0.45184,-0.00628,-0.43537,0.65988
-0.29419,0.86573,-0.40491,-0.30499,-0.06137,0.83181
-0.31142,0.88328,-0.35048,-0.34768,0.48776,1.13834
-0.33343,0.88767,-0.31759,-0.01401,0.44482,1.046
-0.36072,0.88417,-0.29686,0.16487,0.45724,0.6746
-0.39084,0.88181,-0.26391,0.35379,0.2914,-0.20879
-0.41666,0.89434,-0.16293,0.67388,-0.00882,-0.69794
-0.42097,0.90707,0.00115,0.49914,-0.13029,0.07797
-0.41138,0.90714,0.08863,0.24726,-0.05231,-0.41974
-0.40506,0.90838,0.10379,0.22293,0.0631,-0.11078
-0.39935,0.91112,0.10186,0.1998,-0.00989,0.18736
-0.39936,0.9129,0.08435,0.27621,-0.00201,0.16738
-0.40642,0.91122,0.06708,0.31883,-0.20327,-0.22316
-0.41933,0.90576,0.06129,0.33173,-0.19781,-0.21737
-0.43611,0.89694,0.07285,0.23929,0.19004,-0.29955
-0.44931,0.88717,0.10506,0.26323,0.37065,-0.43228
-0.45204,0.87683,0.16379,0.31299,0.40524,-0.44695
-0.44322,0.86625,0.23058,0.37851,0.44259,-0.42011
-0.43648,0.85959,0.26569,0.60782,0.6164,-0.56183
-0.4369,0.86233,0.25594,0.56482,0.57392,-0.50075
-0.43382,0.87246,0.22497,0.54539,0.57745,-0.38983
-0.42233,0.88524,0.1949,0.28159,0.55234,-0.97586
-0.40468,0.89869,0.1691,0.26393,0.53889,-0.95006
-0.39561,0.91163,0.11146,-0.0349,0.54979,-0.28545
-0.39562,0.91827,0.01589,0.0514,0.67569,0.84665
-0.38593,0.91787,-0.09252,0.08936,0.62052,0.90647
-0.36563,0.91217,-0.18512,-0.36811,1.04879,0.73228
-0.34947,0.90084,-0.25759,-0.61931,1.20809,0.55102
-0.3421,0.89091,-0.29875,-0.71132,0.23811,0.00042
-0.32221,0.89193,-0.31724,-0.55409,-0.14097,0.23792
-0.29556,0.89062,-0.34559,-0.0306,-0.1228,0.39349
-0.27742,0.87711,-0.39206,0.12813,-0.18055,0.68666
-0.27733,0.85219,-0.44369,0.35358,-0.24666,0.83532
-0.30133,0.82656,-0.47539,0.5808,-0.47963,1.01502
-0.31651,0.80891,-0.49546,0.72161,-0.53816,0.85154
-0.31446,0.7966,-0.51627,0.50938,-0.4691,0.7665
-0.31319,0.78943,-0.52794,0.21901,-0.65916,0.78318
-0.31792,0.78921,-0.52543,0.01311,-0.68635,0.81565
-0.32943,0.79468,-0.50986,-0.04784,-0.7326,0.86996
-0.34159,0.8071,-0.48157,-0.02884,-0.70399,0.83988
-0.35369,0.82358,-0.4434,0.03682,-0.36875,0.40218
-0.36389,0.84029,-0.40186,0.06418,1.71652,-3.15666
-0.37254,0.84007,-0.39433,0.00665,1.84252,-0.98749
-0.37509,0.83773,-0.39688,-0.0145,0.24377,-0.62204
-0.37033,0.83488,-0.40722,0.10458,-0.60882,-0.28527
-0.36314,0.83703,-0.40928,-0.45076,-0.27319,0.37792
-0.35479,0.84064,-0.40921,-0.91322,0.67616,0.47506
-0.35878,0.84088,-0.40522,-1.03122,1.30814,-0.16746
-0.36644,0.83894,-0.40237,-0.44967,1.24126,-0.22782
-0.36381,0.82825,-0.42619,0.19311,-0.67953,1.52456
-0.33559,0.82845,-0.44838,0.16455,-0.40768,1.01895
-0.31406,0.84389,-0.43499,0.02508,-0.04712,0.9065
-0.31782,0.8645,-0.38939,0.06026,0.42329,1.11019
-0.33926,0.87466,-0.34622,0.25912,0.52703,1.08476
-0.36585,0.87476,-0.31771,0.35517,0.41401,0.7609
-0.38941,0.87715,-0.28101,0.5167,0.2867,-0.33831
-0.41124,0.89424,-0.17669,0.47483,0.08408,-0.26669
-0.41767,0.90733,-0.04801,0.15786,-0.21975,-0.09402
-0.40745,0.91307,0.01696,-0.03113,-0.16943,-0.15086
-0.3955,0.91783,0.03406,0.21062,0.08824,-0.49317
-0.38612,0.92107,0.0503,0.13238,-0.1992,0.33532
-0.3815,0.92328,0.04485,0.30852,-0.28307,0.38727
-0.38326,0.92339,0.02168,0.31954,-0.30562,0.11016
-0.39213,0.9199,0.0046,0.18211,0.06227,-0.48128
-0.4114,0.91124,0.01959,0.17983,0.24363,-0.40751
-0.43198,0.89991,0.05955,0.15021,0.29286,-0.2242
-0.44278,0.88961,0.11202,0.32959,0.38002,-0.49262
-0.44017,0.87811,0.18753,0.34579,0.54587,-0.48178
-0.43438,0.86647,0.24604,0.52497,0.62266,-0.50077
-0.44043,0.86521,0.23964,0.73192,0.48397,-0.40213
-0.44334,0.87403,0.1988,0.73483,0.47515,-0.36129
-0.44013,0.88354,0.1601,0.60708,0.74436,-0.46456
-0.42819,0.89348,0.13543,0.41255,0.29186,-0.72329
-0.41108,0.90492,0.11014,0.27578,0.26825,-0.71787
-0.39654,0.91569,0.06525,-0.0637,0.63129,0.09002
-0.38739,0.92188,-0.00811,0.11137,0.73211,0.92719
-0.37517,0.92151,-0.10037,0.06311,0.68372,0.5579
-0.35524,0.91631,-0.18486,-0.32464,1.01923,0.47508
-0.34228,0.9074,-0.24386,-0.56771,1.02424,0.38036
-0.33349,0.90084,-0.278,-0.66819,0.63954,0.3684
-0.31464,0.89979,-0.3023,-0.66454,-0.10497,0.25915
-0.28542,0.89949,-0.33083,-0.05796,-0.1644,0.43604
-0.26158,0.89116,-0.37068,0.0272,-0.14657,0.53793
-0.26519,0.87126,-0.41301,0.07019,-0.21076,0.68071
-0.28319,0.85091,-0.44245,0.59241,-0.60344,0.915
-0.2983,0.83607,-0.46043,0.6619,-0.56408,0.85278
-0.29846,0.82818,-0.47437,0.40901,-0.52807,0.66671
-0.2985,0.82144,-0.48593,0.40905,-0.52133,0.67826
-0.30782,0.81734,-0.48704,-0.06754,-0.77269,0.77114
-0.32209,0.8178,-0.47694,-0.07621,-0.79721,0.83983
-0.33618,0.82482,-0.45459,-0.02719,-0.54539,0.5711
-0.35331,0.83571,-0.42042,0.04615,-0.0512,-0.74912
-0.36514,0.84555,-0.38951,0.39633,2.35182,-3.63721
-0.37355,0.83831,-0.3971,0.01773,1.46668,-0.63134
-0.37072,0.83295,-0.41081,0.08243,0.67047,-0.83092
-0.36586,0.82665,-0.42753,0.24131,-0.72544,-0.12048
-0.35697,0.8276,-0.43318,-0.27638,-0.22946,0.22009
-0.35528,0.83303,-0.42408,-0.92161,0.51519,1.03912
-0.34993,0.83512,-0.42441,-0.95166,0.86045,0.09682
-0.34571,0.84404,-0.40998,-0.52231,0.76459,0.59685
-0.33502,0.84081,-0.42521,-0.08666,-0.40226,1.24039
-0.30318,0.84341,-0.44356,0.03574,-0.36169,0.9663
-0.28014,0.8575,-0.43152,-0.09155,-0.19273,0.92354
-0.2805,0.87751,-0.38898,-0.13576,0.1713,1.18468
-0.29441,0.8895,-0.34945,0.12411,0.5052,1.19327
-0.32093,0.89054,-0.3224,0.27805,0.5895,1.0172
-0.35207,0.88714,-0.29838,0.31662,0.42963,0.5075
-0.38217,0.89459,-0.23164,0.53046,0.3321,-0.49336
-0.40145,0.90985,-0.10488,0.30782,-0.12284,-0.08017
-0.40153,0.91569,-0.01694,0.30791,-0.12867,-0.16811
-0.39074,0.92048,0.00572,0.21909,-0.03399,-0.41311
-0.38076,0.92441,0.02221,0.14168,-0.12256,-0.0043
-0.37156,0.92807,0.02503,0.18335,-0.25977,0.33786
-0.36911,0.92932,0.01138,0.31756,-0.32864,0.20703
-0.37315,0.92776,-0.00461,0.25239,-0.18969,-0.01599
-0.38981,0.9209,-0.00081,0.16715,-0.00036,-0.28981
-0.41197,0.91068,0.03072,0.16379,0.26445,-0.30347
-0.42783,0.90041,0.07885,0.24387,0.50347,-0.4793
-0.43283,0.88856,0.15202,0.43442,0.66586,-0.6152
-0.43217,0.87617,0.21345,0.85139,0.63947,-0.49609
-0.43758,0.87211,0.21895,0.82431,0.64778,-0.55624
-0.43984,0.87821,0.18785,0.77047,0.7044,-0.30499
-0.43259,0.88917,0.14911,0.66419,0.68067,-0.6078
-0.41126,0.90344,0.1211,0.21364,0.41761,-0.78022
-0.3915,0.91626,0.08485,-0.01721,0.33992,-0.85049
-0.38011,0.92465,0.02307,-0.20236,0.39236,-0.53996
-0.36971,0.92678,-0.06635,0.10445,0.69217,0.79164
-0.34986,0.92192,-0.16633,-0.20208,0.86274,0.68262
-0.32201,0.91087,-0.25813,-0.51262,1.40241,0.47237
-0.30522,0.89675,-0.32043,-0.70448,0.61671,0.1568
-0.29219,0.89018,-0.34958,-0.78098,0.19553,0.10693
-0.26948,0.88865,-0.37105,-0.30866,-0.20866,0.4326
-0.24002,0.88177,-0.40605,0.04793,-0.22106,0.52086
-0.22006,0.86137,-0.45784,0.14717,-0.20982,0.70854
-0.23503,0.82038,-0.52128,0.346,-0.40072,1.05076
-0.28064,0.78631,-0.55041,0.65399,-0.59898,1.07629
-0.3168,0.76688,-0.55816,0.669,-0.51143,0.92858
-0.32601,0.7549,-0.56908,0.41959,-0.49135,0.77463
-0.33019,0.74871,-0.57481,0.05811,-0.62704,0.85223
-0.33979,0.74822,-0.56983,-0.09254,-0.67428,0.92365
-0.35104,0.7566,-0.55165,-0.0894,-0.74551,0.90474
-0.35916,0.77532,-0.5195,-0.0256,-0.5526,0.56898
-0.37041,0.79811,-0.47521,0.03173,0.09345,-0.81226
-0.38127,0.81406,-0.43811,-0.00449,2.07011,-2.60758
-0.38876,0.80659,-0.44529,-0.11775,1.36164,-0.78189
-0.38797,0.80135,-0.45532,0.00902,0.0641,-0.59552
-0.38344,0.79971,-0.46198,0.04876,-0.53668,-0.43804
-0.37785,0.80584,-0.45591,-0.36386,0.13818,0.08131
-0.37983,0.81215,-0.44287,-0.56862,1.05757,0.09621
-0.38381,0.81746,-0.42948,-0.331,1.43331,0.60334
-0.35993,0.81149,-0.46037,-0.25907,-0.14349,0.68327
-0.33125,0.80772,-0.4877,-0.17972,-0.85939,1.46925
-0.29113,0.81896,-0.49452,-0.09986,-0.61424,0.94162
-0.25831,0.84214,-0.47337,-0.21415,-0.23117,0.91159
-0.24911,0.86726,-0.43106,-0.26428,-0.11253,0.77899
-0.26819,0.88497,-0.38065,-0.18845,0.60615,1.00442
-0.30408,0.88759,-0.34601,0.23853,0.67109,1.0806
-0.34762,0.88182,-0.31868,0.37409,0.60887,0.97631
-0.38298,0.88759,-0.25595,0.70303,0.22787,-0.70291
-0.4058,0.90497,-0.12789,0.74909,0.16292,0.10323
-0.40954,0.91102,-0.04822,0.45667,-0.20983,-0.13969
-0.39632,0.91761,-0.03032,0.37194,-0.16087,-0.37398
-0.37891,0.92522,-0.01972,0.32185,0.04833,-0.20016
-0.36563,0.93075,-0.00456,0.12309,-0.10958,0.26926
-0.35378,0.93532,-0.00405,0.10549,-0.32535,0.48278
-0.34981,0.93673,-0.01295,0.09836,-0.2527,0.06966
-0.36122,0.93244,-0.00832,0.06917,-0.11175,-0.09283
-0.3821,0.92397,0.01643,0.04177,0.02215,-0.21312
-0.40212,0.91371,0.05857,0.19186,0.47153,-0.56385
-0.41115,0.90312,0.12381,0.2166,0.56156,-0.71175
-0.40377,0.89234,0.20173,0.31214,0.56194,-0.83848
-0.39936,0.8884,0.22641,0.86054,0.64757,-0.35402
-0.40567,0.89353,0.19244,0.8012,0.60621,-0.2606
-0.402,0.9033,0.14979,0.67666,0.60575,-0.45659
-0.38565,0.91405,0.12565,0.50221,0.52518,-0.67495
-0.3663,0.92463,0.10429,0.23222,0.59351,-0.81268
-0.34915,0.93517,0.05958,-0.08182,0.78381,0.13689
-0.33519,0.94202,-0.01576,0.00332,0.60377,0.97305
-0.31872,0.94162,-0.10847,-0.10675,0.66833,0.6869
-0.30147,0.9336,-0.19368,-0.44934,1.0144,0.4801
-0.29342,0.92023,-0.25899,-0.71015,0.90828,0.15929
-0.29244,0.90942,-0.29569,-0.85104,0.21234,0.05251
-0.28174,0.90467,-0.31967,-0.61639,-0.23256,0.42323
-0.25431,0.89905,-0.35641,-0.06115,-0.18255,0.47217
-0.23322,0.88298,-0.40737,0.1426,-0.16002,0.71705
-0.24277,0.84825,-0.47068,0.3869,-0.26663,0.84743
-0.2837,0.81393,-0.50699,0.64614,-0.51412,1.08346
-0.32029,0.79594,-0.51371,0.84772,-0.47288,0.95111
-0.32877,0.78531,-0.52458,0.54084,-0.42989,0.78467
-0.32931,0.7773,-0.53606,0.18604,-0.60958,0.82533
-0.33364,0.77369,-0.5386,-0.05396,-0.70231,0.88798
-0.34044,0.77788,-0.52821,-0.07861,-0.79302,0.9181
-0.34436,0.79304,-0.50249,-0.12819,-0.75245,0.99147
-0.34529,0.81537,-0.4647,-0.19898,-0.35546,0.18266
-0.35406,0.83881,-0.41358,-0.10976,0.92798,-2.53563
-0.365,0.83526,-0.41123,0.3686,2.64309,-1.28949
-0.3698,0.82964,-0.41827,0.1768,0.56279,-0.7716
-0.36762,0.82537,-0.42852,0.15133,-0.36022,-0.51731
-0.36423,0.82483,-0.43243,-0.31901,-0.10537,0.07097
-0.36362,0.82703,-0.42871,-0.68974,0.71446,0.30448
-0.36191,0.82927,-0.42584,-0.48492,1.1978,0.96681
-0.33509,0.82524,-0.45463,-0.11692,0.01111,0.34657
-0.30812,0.82536,-0.47313,-0.08158,-0.79504,1.51487
-0.26769,0.83821,-0.47513,-0.08831,-0.54577,1.08486
-0.23403,0.8629,-0.44791,-0.20083,-0.23415,0.85976
-0.22865,0.89141,-0.39129,-0.29384,0.11541,0.87432
-0.24574,0.9076,-0.34039,-0.09962,0.61914,1.10862
-0.28004,0.90794,-0.31181,0.18434,0.61465,1.0272
-0.32213,0.90076,-0.29131,0.28737,0.32228,0.62399
-0.36173,0.90541,-0.22221,0.61765,0.07034,-0.76499
-0.38537,0.91654,-0.10698,0.5431,0.06211,0.06869
-0.39279,0.91843,-0.04696,0.32248,-0.22011,-0.2618
-0.38496,0.92243,-0.03033,0.17838,-0.21705,0.02026
-0.37394,0.9272,-0.02149,0.31353,-0.03687,-0.04994
-0.36756,0.92999,-0.00294,0.30715,-0.03966,-0.06849
-0.36326,0.93165,0.00818,0.16906,-0.32668,0.56514
-0.36836,0.92966,0.00582,0.19862,-0.2315,0.17878
-0.38473,0.92298,0.00945,0.10186,0.15846,-0.35015
-0.40612,0.91298,0.0391,0.15494,0.37942,-0.48945
-0.41981,0.90302,0.09118,0.3091,0.5394,-0.61129
-0.42004,0.89402,0.15582,0.49185,0.58677,-0.64273
-0.41177,0.88811,0.2042,0.64373,0.61268,-0.25013
-0.4141,0.88839,0.19819,0.58548,0.4358,-0.08593
-0.41941,0.89195,0.16884,0.6957,0.62048,-0.288
-0.41423,0.89809,0.1478,0.67523,0.64274,-0.60829
-0.39974,0.90648,0.136,0.60376,0.56482,-0.48755
-0.38032,0.91763,0.11535,0.36047,0.5009,-0.66791
-0.36024,0.92981,0.07532,-0.09518,0.56147,-0.04919
-0.34545,0.93842,0.00479,0.01226,0.55105,0.97683
-0.32821,0.94041,-0.08887,-0.06794,0.59473,0.66211
-0.30779,0.93474,-0.17753,-0.4369,0.95704,0.31596
-0.29626,0.92468,-0.23917,-0.78034,1.09659,0.24791
-0.29544,0.91435,-0.27691,-0.83862,0.38616,0.19817
-0.28714,0.90791,-0.30536,-0.62221,-0.14193,0.43961
-0.26297,0.9014,-0.34398,-0.19429,-0.23741,0.48381
-0.23292,0.8888,-0.39469,-0.00221,-0.27813,0.64974
-0.22031,0.85659,-0.46659,0.24638,-0.29835,0.81919
-0.24627,0.8218,-0.51381,0.47828,-0.46643,1.09618
-0.28992,0.79973,-0.52572,0.67689,-0.67604,0.92019
-0.31963,0.78949,-0.52396,0.64654,-0.46958,0.93099
-0.32832,0.78256,-0.52897,0.44328,-0.4102,0.82381
-0.33548,0.7804,-0.52767,0.32431,-0.44879,0.84429
-0.3455,0.78405,-0.51564,0.02221,-0.64854,0.81262
-0.35247,0.79595,-0.49217,-0.07553,-0.59508,0.85806
-0.35491,0.81447,-0.45899,-0.29122,-0.2348,0.12803
-0.35914,0.83598,-0.41491,-0.26456,0.94751,-2.63047
-0.36653,0.83061,-0.41921,0.0826,1.8988,-1.23202
-0.37173,0.82366,-0.42825,0.23167,0.46157,-0.58358
-0.36799,0.82009,-0.43822,0.15438,-0.36115,-0.31276
-0.35992,0.82177,-0.44175,-0.06804,-0.14741,0.04544
-0.35894,0.82623,-0.43416,-0.6283,0.67001,0.55835
-0.35636,0.83119,-0.42677,-0.5875,1.27827,1.09129
-0.32488,0.83148,-0.45066,-0.06259,-0.42819,0.59024
-0.2907,0.83169,-0.47306,-0.14501,-0.74166,1.21787
-0.25175,0.84277,-0.47578,-0.14782,-0.73682,1.26662
-0.22903,0.86414,-0.44811,-0.33783,-0.00681,0.9615
-0.23243,0.88594,-0.40136,-0.36141,0.24628,0.9768
-0.25731,0.89257,-0.37027,-0.23712,0.46869,1.02669
-0.29551,0.88687,-0.35515,0.25741,0.47243,0.59845
-0.34001,0.88575,-0.31598,0.46897,0.41986,-0.14274
-0.37997,0.90152,-0.20708,0.9065,0.1077,0.19325
-0.40038,0.90994,-0.10814,0.43574,-0.23814,-0.11563
-0.39629,0.91607,-0.0614,0.10563,-0.23142,0.19111
-0.37696,0.92475,-0.05236,0.19689,0.06914,-0.26411
-0.36225,0.93146,-0.03395,0.00858,-0.11231,0.28844
-0.34948,0.93668,-0.0219,0.0546,-0.31594,0.55902
-0.34362,0.93851,-0.03327,0.12286,-0.42698,0.28322
-0.34656,0.93681,-0.04767,-0.04974,-0.17775,-0.43988
-0.36417,0.9311,-0.02055,-0.0976,0.16236,-0.25496
-0.39009,0.9204,0.02609,0.06861,0.36217,-0.11022
-0.41244,0.9081,0.07235,0.34298,0.50895,-0.73959
-0.41996,0.89508,0.14982,0.65316,0.58345,-0.59304
-0.41857,0.88599,0.19952,0.86577,0.55065,-0.3374
-0.42363,0.88849,0.17641,0.82716,0.52854,-0.21319
-0.42338,0.89665,0.12946,0.81183,0.55986,-0.05619
-0.41372,0.90534,0.09582,0.60325,0.52192,-0.59677
-0.39794,0.91329,0.08684,0.57885,0.33903,-0.65574
-0.38016,0.92204,0.07293,0.35853,0.39231,-0.7748
-0.36519,0.93039,0.03164,0.05554,0.73941,0.03945
-0.3525,0.93486,-0.04209,0.13449,0.70941,0.99074
-0.33557,0.93231,-0.13484,0.00218,0.67325,0.74611
-0.31495,0.92312,-0.22058,-0.41656,1.00395,0.67896
-0.30479,0.9086,-0.28557,-0.70612,1.12433,0.41276
-0.30575,0.897,-0.31922,-0.79977,0.71332,0.14573
-0.29833,0.89382,-0.33477,-0.79988,-0.26475,0.31094
-0.27524,0.89037,-0.36261,-0.09175,-0.1731,0.4539
-0.27148,0.87272,-0.40579,0.14253,-0.23345,0.77714
-0.29229,0.83884,-0.45924,0.36634,-0.38781,0.84646
-0.31874,0.81039,-0.4916,0.85333,-0.37315,1.07293
-0.33323,0.79209,-0.51142,0.81893,-0.38157,0.96229
-0.33092,0.77752,-0.53475,0.64145,-0.37421,0.78884
-0.33389,0.76939,-0.54457,0.09319,-0.62472,0.84864
-0.34163,0.76794,-0.54181,0.03093,-0.63087,0.86337
-0.35305,0.77268,-0.52756,-0.00889,-0.67435,0.86434
-0.36278,0.78589,-0.50076,-0.0114,-0.51476,0.64668
-0.372,0.80461,-0.46282,-0.01559,-0.30065,0.2498
-0.37973,0.82418,-0.42016,-0.02687,0.02627,-0.66287
-0.38818,0.8169,-0.4266,-0.09439,2.29188,-1.39142
-0.39086,0.81118,-0.43498,-0.07852,0.58082,-0.74086
-0.38792,0.80699,-0.44528,0.08808,-0.36835,-0.48085
-0.38649,0.80789,-0.44491,-0.09957,-0.27186,-0.07012
-0.38978,0.81136,-0.43561,-0.36823,0.43173,0.44652
-0.3864,0.81767,-0.42674,-0.41183,1.10262,1.33423
-0.35577,0.81844,-0.45121,-0.44593,0.67934,-0.30351
-0.3332,0.81887,-0.46736,-0.37318,-0.4676,1.25329
-0.30148,0.82438,-0.47906,-0.13242,-0.4504,1.04478
-0.27398,0.84202,-0.46468,-0.21006,-0.1333,0.86588
-0.27723,0.86604,-0.41607,-0.28801,0.01445,0.90786
-0.30003,0.87746,-0.37421,0.04516,0.56133,1.12595
-0.33509,0.87497,-0.34948,0.30962,0.51694,0.97583
-0.37331,0.86972,-0.32283,0.40726,0.46601,0.75578
-0.40505,0.87756,-0.25655,0.75144,0.14092,-0.57784
-0.42382,0.89702,-0.12537,0.73748,0.05792,0.15114
-0.42372,0.9046,-0.04643,0.31212,-0.28924,-0.06639
-0.40558,0.91346,-0.03307,0.35904,-0.01128,-0.45266
-0.38649,0.922,-0.02314,0.0873,-0.06609,0.08782
-0.36609,0.93027,-0.02362,0.15685,-0.24012,0.22536
-0.35352,0.93492,-0.03072,0.1195,-0.21211,0.09513
-0.35338,0.93501,-0.02954,0.11002,-0.08366,-0.13649
-0.36971,0.92902,-0.01538,0.11247,0.03142,-0.19298
-0.39208,0.91991,0.00599,0.17523,0.16191,-0.2114
-0.41131,0.91061,0.03998,0.28288,0.217,-0.49694
-0.41951,0.90257,0.09674,0.39405,0.43382,-0.23465
-0.42415,0.89435,0.1422,0.63819,0.62298,-0.20834
-0.43541,0.88676,0.15512,0.86167,0.67791,-0.28036
-0.4433,0.88471,0.14405,0.87336,0.58156,-0.29858
-0.43787,0.89034,0.12473,0.75417,0.59616,-0.55069
-0.42058,0.90066,0.10916,0.51641,0.50986,-0.7556
-0.40303,0.91137,0.08344,0.34536,0.44051,-0.70815
-0.39331,0.91887,0.03131,0.10142,0.49999,-0.227
-0.38767,0.92053,-0.0482,0.16219,0.72098,0.79444
-0.37336,0.9174,-0.13776,0.13106,0.64671,0.71636
-0.35188,0.91074,-0.21617,-0.26129,0.87395,0.77823
-0.33734,0.89813,-0.28207,-0.53006,1.2916,0.68674
-0.3364,0.88285,-0.32772,-0.63821,0.97358,0.56334
-0.32847,0.87747,-0.3495,-0.85735,-0.08462,0.09026
-0.30581,0.87317,-0.37954,-0.17836,-0.11667,0.44368
-0.28693,0.8567,-0.42864,0.13271,-0.20748,0.55252
-0.28972,0.82903,-0.4783,0.3474,-0.23375,0.79301
-0.3154,0.80262,-0.50628,0.64458,-0.47274,0.95378
-0.33478,0.78331,-0.52378,0.64024,-0.44952,0.84983
-0.33826,0.77099,-0.53958,0.57393,-0.39465,0.84626
-0.33993,0.76298,-0.54982,0.20913,-0.55779,0.84937
-0.34698,0.76049,-0.54887,0.10243,-0.63005,0.8194
-0.35561,0.76506,-0.53686,0.04813,-0.66307,0.80604
-0.36193,0.77767,-0.51402,-0.05568,-0.62982,0.68473
-0.36999,0.79541,-0.48001,-0.04428,-0.47803,0.45775
-0.38252,0.81515,-0.43497,0.0173,1.01925,-2.19043
-0.3925,0.81758,-0.42131,-0.0826,1.90874,-1.35625
-0.39601,0.81329,-0.42629,-0.0495,1.15265,-0.92322
-0.39311,0.81036,-0.43449,0.11608,-0.3185,-0.46047
-0.38799,0.81219,-0.43566,0.02712,-0.31738,-0.35418
-0.38614,0.81679,-0.42864,-0.68492,0.66517,0.44424
-0.38614,0.82178,-0.41901,-0.7554,1.44436,0.65468
-0.37193,0.81814,-0.43853,-0.35346,0.15342,0.42927
-0.35105,0.80966,-0.47033,-0.25656,-0.82944,1.42055
-0.31744,0.81634,-0.4825,-0.12321,-0.55174,1.11329
-0.28435,0.8378,-0.46609,-0.2099,-0.21881,1.00359
-0.2736,0.86583,-0.4189,-0.24901,0.02664,0.94153
-0.28669,0.88614,-0.36408,-0.06081,0.59227,1.2129
-0.31397,0.88807,-0.33577,0.29713,0.61104,1.09424
-0.35117,0.88103,-0.31696,0.46248,0.49052,0.76311
-0.38338,0.88143,-0.27584,0.70628,0.33521,-0.7093
-0.40395,0.90157,-0.15488,0.81663,0.27185,0.14055
-0.40986,0.9102,-0.05945,0.48733,-0.17409,-0.10466
-0.39921,0.91638,-0.02959,0.38806,-0.16993,-0.355
-0.37985,0.92491,-0.0157,0.2599,0.09082,-0.15435
-0.36136,0.93242,-0.0026,0.08005,-0.21623,0.33362
-0.3438,0.939,-0.00805,0.14701,-0.32002,0.34555
-0.33527,0.94192,-0.01937,0.07838,-0.31002,0.15795
-0.34448,0.93859,-0.0192,0.04121,-0.06224,-0.1238
-0.36595,0.93062,-0.00358,0.02449,0.06985,-0.23545
-0.3891,0.92079,0.02717,0.28986,0.44966,-0.5683
-0.40587,0.90998,0.08479,0.30663,0.46047,-0.62593
-0.40875,0.89795,0.1631,0.63258,0.47516,-0.64136
-0.40577,0.89004,0.20777,0.98039,0.59965,-0.39315
-0.41033,0.89267,0.18641,0.9228,0.63677,-0.35284
-0.40806,0.90163,0.14333,0.81645,0.46223,-0.24159
-0.39565,0.91181,0.10978,0.34325,0.56506,-0.72595
-0.37477,0.92314,0.08573,0.24365,0.36954,-1.08509
-0.36099,0.93191,0.03507,-0.04441,0.48405,-0.42716
-0.35507,0.9334,-0.05175,0.14828,0.82511,1.00474
-0.34045,0.92806,-0.15094,0.10325,0.7289,0.7547
-0.31721,0.91842,-0.23637,-0.16669,0.91701,0.70592
-0.29942,0.90402,-0.30511,-0.46005,1.36278,0.58009
-0.29641,0.88908,-0.34882,-0.67851,0.65839,0.1784
-0.28599,0.88269,-0.37291,-0.75411,0.05955,0.14114
-0.26574,0.87486,-0.40496,-0.13381,0.01543,0.48889
-0.2497,0.85146,-0.46114,0.05835,0.00605,0.56857
-0.248,0.81068,-0.53037,0.25544,-0.14198,0.83997
-0.27114,0.77896,-0.56543,0.51798,-0.33863,1.22148
-0.3059,0.76116,-0.57189,0.62728,-0.44208,1.0884
-0.32652,0.75029,-0.57484,0.52077,-0.46231,0.89418
-0.33012,0.74201,-0.58347,0.25148,-0.59771,0.91533
-0.33452,0.73843,-0.5855,0.08283,-0.7402,0.83805
-0.34578,0.74093,-0.57572,-0.02602,-0.77561,0.87986
-0.35648,0.75292,-0.5532,-0.03859,-0.68815,0.75142
-0.3691,0.77282,-0.51624,-0.05868,-0.20376,-0.01359
-0.37915,0.79529,-0.47302,-0.09688,1.06446,-2.08267
-0.38062,0.79539,-0.47167,-0.17706,1.79088,-1.37026
-0.38426,0.78816,-0.48077,0.22754,0.43706,-0.63497
-0.38189,0.78363,-0.48997,0.35489,-0.22295,-0.39418
-0.37755,0.78273,-0.49477,0.30129,-0.33103,-0.13075
-0.37734,0.78682,-0.48839,0.07442,0.10908,0.16338
-0.38384,0.79572,-0.4685,-0.48001,0.81651,0.73391
-0.37785,0.80868,-0.45084,-0.60725,0.96358,0.46088
-0.34651,0.82195,-0.45201,-0.71565,0.63161,-0.42105
-0.32476,0.82418,-0.46395,-0.2308,-0.59237,1.07965
-0.29093,0.82934,-0.47701,-0.08988,-0.46059,0.99262
-0.26143,0.84838,-0.46033,-0.17766,-0.28324,0.89496
-0.25405,0.874,-0.41421,-0.15696,0.23389,1.09532
-0.26852,0.89028,-0.36781,0.12523,0.51903,1.22364
-0.29639,0.88994,-0.34663,0.27776,0.60936,1.00593
-0.3316,0.883,-0.33219,0.52815,0.48733,-0.27494
-0.36903,0.88826,-0.2735,0.69824,0.24516,-0.14565
-0.39494,0.90531,-0.15626,0.65152,0.10173,0.04274
-0.40014,0.91243,-0.08568,0.2547,-0.26142,0.00166
-0.38756,0.91906,-0.07148,0.34432,-0.01324,-0.1639
-0.36994,0.92682,-0.06433,0.21048,0.12555,-0.06195
-0.35661,0.93293,-0.04959,0.07797,-0.21993,0.41636
-0.34773,0.93646,-0.04592,0.16371,-0.30559,0.22562
-0.34684,0.93683,-0.04523,0.14281,-0.24704,0.06794
-0.35748,0.9333,-0.03401,0.19432,-0.08018,-0.18348
-0.378,0.92576,-0.00838,0.24342,0.11898,-0.20869
-0.39968,0.91621,0.02838,0.30873,0.4173,-0.42167
-0.41372,0.9067,0.082,0.41095,0.59065,-0.55517
-0.41264,0.89794,0.15303,0.53573,0.59809,-0.46312
-0.41271,0.89184,0.18513,0.80082,0.63077,-0.48115
-0.42189,0.89238,0.16017,0.81998,0.53796,-0.3338
-0.42289,0.89809,0.12079,0.80638,0.53384,-0.31796
-0.41177,0.90677,0.09058,0.55153,0.46369,-0.72768
-0.39372,0.91678,0.06701,0.29872,0.38884,-0.92596
-0.37944,0.92474,0.02961,0.17372,0.69186,0.39971
-0.37292,0.92712,-0.03702,0.19073,0.75199,0.88488
-0.36302,0.92323,-0.12591,0.12228,0.71707,0.9107
-0.34128,0.91542,-0.21338,-0.40152,1.41054,0.61571
-0.31727,0.9031,-0.28937,-0.5111,1.38278,0.55544
-0.30724,0.89058,-0.33536,-0.73758,0.32253,0.05767
-0.29075,0.88756,-0.35735,-0.78379,-0.03954,0.13791
-0.26553,0.88548,-0.38133,-0.19838,-0.08894,0.40312
-0.24226,0.87385,-0.42153,-0.01603,-0.13665,0.43874
-0.2421,0.84998,-0.46789,0.3299,-0.3963,0.95559
-0.26795,0.82018,-0.50547,0.5077,-0.48591,1.06201
-0.2944,0.79777,-0.5262,0.63789,-0.52183,0.99469
-0.30857,0.78315,-0.53986,0.45458,-0.50286,0.8082
-0.31269,0.77272,-0.55238,0.35386,-0.54013,0.82967
-0.31916,0.76662,-0.55716,0.20339,-0.62953,0.80759
-0.32768,0.76761,-0.55081,-0.08346,-0.65744,0.85936
-0.3351,0.77653,-0.53357,-0.10403,-0.68077,0.83043
-0.34035,0.7939,-0.50387,-0.099,-0.64897,0.74815
-0.35142,0.81247,-0.46518,0.08761,0.69673,-1.55136
-0.36515,0.82776,-0.426,0.15786,1.71144,-2.49408
-0.37261,0.82199,-0.43068,0.10793,1.51759,-0.91325
-0.36805,0.81879,-0.44058,0.09895,0.18812,-0.63243
-0.35987,0.81772,-0.44924,0.111,-0.40941,-0.52084
-0.35424,0.82344,-0.44323,-0.39794,0.19929,0.34151
-0.3551,0.82965,-0.4308,-0.4751,0.51395,0.40554
-0.36055,0.83555,-0.41455,-0.54149,1.1266,1.04088
-0.34089,0.83399,-0.43387,-0.49634,0.02331,0.26678
-0.32188,0.8344,-0.4474,-0.27632,-0.53166,1.57295
-0.29281,0.84313,-0.45099,-0.20941,-0.35972,1.22091
-0.25378,0.85981,-0.44307,-0.16864,-0.29101,0.82328
-0.23608,0.88242,-0.40693,-0.22838,0.18095,0.94293
-0.25096,0.90045,-0.35526,-0.15613,0.47584,1.10144
-0.2808,0.90296,-0.32527,0.27755,0.52296,1.0754
-0.31813,0.89562,-0.31089,0.42255,0.34103,0.17591
-0.3542,0.89624,-0.267,0.78546,0.15933,-0.42101
-0.38071,0.91269,-0.14848,0.7273,-0.03166,0.05166
-0.38768,0.91993,-0.05857,0.29594,-0.26069,-0.15007
-0.37641,0.92595,-0.0304,0.36199,-0.06729,-0.19235
-0.35756,0.93359,-0.02356,0.07439,0.00394,0.18165
-0.34084,0.9399,-0.01979,0.10539,-0.2022,0.4084
-0.32942,0.94374,-0.02885,0.15606,-0.29333,0.14841
-0.32886,0.94379,-0.03304,0.14648,-0.19109,-0.06103
-0.34197,0.93946,-0.02144,0.12921,-0.00204,-0.18257
-0.36472,0.93111,0.00153,0.15971,0.16278,-0.30604
-0.38764,0.92097,0.03925,0.29999,0.32756,-0.46613
-0.40103,0.91045,0.10119,0.41987,0.58845,-0.37282
-0.40405,0.89966,0.16535,0.5365,0.59149,-0.3923
-0.41136,0.89219,0.18649,0.90513,0.52159,-0.33202
-0.42067,0.89283,0.16086,0.9068,0.58216,-0.1958
-0.41556,0.90089,0.12529,0.835,0.65571,-0.34819
-0.39786,0.91163,0.10304,0.55533,0.43323,-0.59904
-0.37326,0.924,0.083,0.06444,0.52658,-0.63597
-0.34943,0.93595,0.04354,-0.10878,0.61749,-0.30094
-0.33016,0.94368,-0.02106,-0.13267,0.67854,0.35561
-0.31154,0.9441,-0.10769,-0.15855,0.83919,0.56891
-0.29039,0.93639,-0.19705,-0.35802,1.11755,0.56282
-0.27548,0.92201,-0.27203,-0.66756,1.3071,0.38462
-0.27186,0.90807,-0.31857,-0.8892,0.37987,0.02009
-0.26132,0.90208,-0.34345,-0.86516,-0.17967,0.23195
-0.24018,0.89738,-0.37015,-0.27585,-0.21304,0.47309
-0.21965,0.88596,-0.40843,0.09874,0.03468,0.69211
-0.22601,0.85437,-0.46794,0.23185,-0.09029,0.77392
-0.25387,0.81476,-0.52126,0.52122,-0.50981,1.0255
-0.27963,0.78755,-0.54916,0.55169,-0.4327,0.8753
-0.29113,0.76985,-0.56794,0.50438,-0.42432,0.85473
-0.29318,0.75655,-0.58453,0.1549,-0.61145,0.85688
-0.30085,0.74854,-0.59091,-0.04652,-0.66825,0.91545
-0.31459,0.7473,-0.58529,-0.06761,-0.68688,0.94049
-0.33043,0.7538,-0.56798,0.05215,-0.658,0.75305
-0.34597,0.76761,-0.53951,0.20512,-0.14839,-0.06599
-0.35741,0.78522,-0.50564,0.19518,0.28363,-1.10828
-0.36589,0.79079,-0.49068,0.10443,2.20439,-0.97709
-0.38309,0.77921,-0.49606,-0.00537,0.53828,-0.46281
-0.38618,0.76694,-0.5125,-0.00838,-0.14922,-0.36287
-0.37868,0.7644,-0.5218,-0.47755,-0.28969,-0.24379
-0.37029,0.77457,-0.51276,-0.94406,0.92961,0.08269
-0.36757,0.78174,-0.50375,-0.65796,1.57025,0.051
-0.35599,0.77702,-0.51914,0.13523,-0.26259,0.88045
-0.32249,0.77406,-0.54482,-0.13022,-0.88945,1.30214
-0.28161,0.78798,-0.54752,-0.22679,-0.42947,1.21118
-0.2365,0.81824,-0.52397,-0.39823,0.0904,1.14279
-0.19714,0.84952,-0.48934,-0.44918,0.25421,0.70839
-0.19111,0.87583,-0.44317,-0.39968,0.66565,0.83858
-0.21831,0.88535,-0.41048,0.07286,0.73354,0.97364
-0.26981,0.87958,-0.39183,0.34684,0.50023,0.77568
-0.32615,0.87559,-0.35632,0.76818,0.22364,-0.5247
-0.37232,0.89706,-0.238,0.92897,0.18944,0.0243
-0.38993,0.91432,-0.10938,0.50872,-0.22193,0.46747
-0.38409,0.91988,-0.07926,0.43535,-0.3241,-0.49195
-0.35691,0.93083,-0.07854,0.24251,-0.00375,-0.11293
-0.33068,0.94092,-0.07283,0.05294,-0.10218,0.25212
-0.30752,0.9487,-0.0734,0.08563,-0.16446,0.35593
-0.29092,0.95349,-0.07878,0.09928,-0.21701,0.33067
-0.28626,0.95439,-0.08475,0.00368,-0.23527,-0.08038
-0.29873,0.9518,-0.0694,-0.0521,-0.00457,-0.38214
-0.32296,0.94588,-0.03137,0.04952,0.08816,-0.10951
-0.34557,0.93837,0.00609,0.24585,0.5174,-0.40887
-0.35761,0.93115,0.07119,0.38265,0.52369,-0.33297
-0.36016,0.9229,0.13611,0.55447,0.5564,-0.27746
-0.36895,0.91841,0.14276,0.83165,0.43155,-0.15192
-0.3737,0.92158,0.10496,0.82597,0.46396,-0.07111
-0.36619,0.92788,0.07017,0.76379,0.59789,-0.07023
-0.35354,0.93367,0.05704,0.53944,0.29283,-0.78027
-0.33649,0.94028,0.05128,0.45343,0.33265,-0.91677
-0.32227,0.94633,0.02427,0.30938,0.34659,-0.90389
-0.31382,0.94866,-0.03934,0.22233,0.75904,0.94911
-0.30455,0.94401,-0.12681,0.19266,0.773,0.95234
-0.2848,0.93231,-0.22289,0.00779,0.78342,0.62197
-0.25755,0.91745,-0.30322,-0.30716,1.10342,0.58096
-0.24155,0.90192,-0.35804,-0.5036,0.98723,0.44199
-0.23654,0.8909,-0.38773,-0.69933,0.20909,0.25192
-0.21809,0.88638,-0.40835,-0.29407,-0.08943,0.45912
-0.18807,0.87962,-0.43691,-0.10662,-0.13453,0.49372
-0.166,0.86202,-0.47892,0.12874,-0.25777,0.82591
-0.17805,0.83239,-0.5248,0.33736,-0.46615,1.02761
-0.20381,0.80583,-0.55597,0.4902,-0.59008,0.96701
-0.23108,0.78371,-0.57653,0.44789,-0.51192,0.8962
-0.25046,0.76785,-0.58964,0.23429,-0.5101,0.87253
-0.26251,0.75896,-0.59587,0.16639,-0.55318,0.82558
-0.27399,0.75679,-0.59345,-0.12029,-0.63968,0.85418
-0.28378,0.76239,-0.58157,-0.23549,-0.65025,0.8945
-0.28869,0.77666,-0.55987,-0.25208,-0.55293,0.58612
-0.29852,0.79678,-0.52538,-0.08343,-0.07652,-0.34178
-0.322,0.81604,-0.47999,0.22625,1.29764,-2.26854
-0.3404,0.81738,-0.46476,0.28452,1.88994,-0.90328
-0.34283,0.81118,-0.47375,0.21152,0.39431,-0.63399
-0.33698,0.80574,-0.48706,0.20825,-0.4168,-0.44301
-0.32798,0.80795,-0.48952,-0.04238,-0.02922,-0.08747
-0.32751,0.81387,-0.47994,-0.30369,0.53102,0.3175
-0.33292,0.82159,-0.46277,-0.05582,1.17265,0.45511
-0.32698,0.82425,-0.46227,-0.16588,0.61389,0.02797
-0.29761,0.81672,-0.49436,-0.51802,-0.55599,1.06028
-0.26926,0.81957,-0.50576,-0.28091,-0.61233,1.32847
-0.23299,0.83552,-0.49761,-0.30874,-0.41406,1.15825
-0.20848,0.85894,-0.4677,-0.33553,0.05846,0.88161
-0.20962,0.88187,-0.42232,-0.26955,0.53309,1.02327
-0.23297,0.89062,-0.39053,0.10057,0.60996,1.11471
-0.27476,0.88692,-0.3713,0.32281,0.50057,0.86139
-0.31995,0.88475,-0.33889,0.62253,0.27295,-0.38461
-0.36068,0.90243,-0.23564,0.77778,0.18,-0.41874
-0.38046,0.9161,-0.12646,0.37558,-0.14634,-0.08178
-0.37818,0.9223,-0.07948,0.16526,-0.18183,0.03551
-0.36314,0.92898,-0.07141,0.28407,-0.10359,-0.08746
-0.34884,0.93475,-0.06738,0.19392,0.08439,-0.07986
-0.33876,0.93905,-0.05844,0.16813,-0.2832,0.30781
-0.3338,0.94089,-0.05729,0.19829,-0.32197,0.16674
-0.33542,0.94041,-0.05579,0.18044,-0.21468,0.00913
-0.34705,0.93684,-0.04326,0.16396,-0.01915,-0.07565
-0.36696,0.93004,-0.01898,0.18118,0.06836,-0.09029
-0.38753,0.92173,0.01459,0.23641,0.25117,-0.27175
-0.40201,0.91317,0.06702,0.3619,0.46235,-0.44896
-0.40547,0.90427,0.13371,0.45461,0.54001,-0.44192
-0.40838,0.89657,0.17137,0.8128,0.59873,-0.5513
-0.41679,0.89509,0.15834,0.84676,0.59352,-0.58586
-0.41445,0.90096,0.12837,0.80579,0.42106,-0.60594
-0.40453,0.90939,0.0967,0.38477,0.55047,-0.81687
-0.39259,0.91777,0.05957,0.3627,0.45799,-0.47332
-0.38479,0.923,5e-05,0.42474,0.88093,0.53146
-0.37644,0.92176,-0.09295,0.11275,0.8762,0.80383
-0.35171,0.91666,-0.18981,-0.0387,0.86671,0.81976
-0.32043,0.90919,-0.26586,-0.38748,1.28501,0.69312
-0.29891,0.89545,-0.32987,-0.68647,1.03821,0.33462
-0.29526,0.88128,-0.36899,-0.98176,0.16834,-0.35746
-0.28376,0.87876,-0.38374,-0.97,-0.04192,0.01093
-0.25398,0.87395,-0.41437,0.03337,-0.15942,0.51119
-0.22777,0.85321,-0.4692,0.09766,-0.21496,0.75105
-0.23792,0.82131,-0.5185,0.19483,-0.22056,1.08014
-0.27193,0.7914,-0.54748,0.67862,-0.41846,1.05982
-0.30574,0.77007,-0.55991,0.64749,-0.44375,1.01058
-0.31358,0.75534,-0.57544,0.5267,-0.41847,0.89367
-0.32058,0.74303,-0.58748,0.09075,-0.71649,0.90889
-0.3351,0.73875,-0.58476,0.01402,-0.73266,0.9279
-0.35092,0.74505,-0.56723,-0.00336,-0.80935,0.98251
-0.36049,0.76404,-0.53506,-0.00853,-0.49339,0.60476
-0.36958,0.78641,-0.49494,-0.12919,0.10513,-0.67506
-0.37661,0.80549,-0.45753,-0.30895,0.86669,-2.03584
-0.38748,0.79761,-0.46225,-0.04167,1.37398,-0.93282
-0.38722,0.7931,-0.47015,0.31031,-0.2524,-0.53418
-0.3808,0.79036,-0.47992,0.24492,-0.35263,-0.41925
-0.37548,0.79067,-0.48357,0.13621,-0.1834,0.04401
-0.37706,0.79628,-0.47302,-0.10382,0.6593,0.3183
-0.38331,0.80794,-0.44754,-0.55815,1.25935,1.12579
-0.3624,0.81727,-0.44802,-0.49116,0.99114,-0.47863
-0.33815,0.81752,-0.46616,-0.28216,-0.57696,1.79445
-0.2985,0.82097,-0.48673,-0.16429,-0.57312,1.02703
-0.25883,0.83993,-0.47699,-0.19716,-0.44226,0.89514
-0.2459,0.86532,-0.43675,-0.34159,-0.09916,1.00106
-0.25865,0.88909,-0.37764,-0.35293,0.26106,1.17369
-0.27844,0.89983,-0.3358,-0.1527,0.50044,1.24707
-0.30988,0.89685,-0.31564,0.28482,0.4357,0.69738
-0.34864,0.89058,-0.29209,0.40636,0.32018,0.04238
-0.38256,0.9006,-0.20628,0.68588,0.18843,-0.92383
-0.39789,0.91317,-0.08824,0.36683,-0.17364,0.01774
-0.39371,0.91788,-0.04983,0.41397,-0.13776,-0.52001
-0.37577,0.92572,-0.04265,0.35137,0.03409,-0.19488
-0.36024,0.93201,-0.03955,0.16604,-0.17982,0.33896
-0.34732,0.93632,-0.05154,0.20904,-0.30327,0.25677
-0.34042,0.9382,-0.0622,0.18517,-0.12635,-0.08483
-0.34731,0.93585,-0.05955,0.15364,-0.02887,-0.03809
-0.36575,0.92962,-0.04491,0.14407,0.05881,-0.019
-0.38547,0.92247,-0.02119,0.12379,0.25122,-0.32726
-0.40006,0.91616,0.02404,0.28848,0.50821,-0.22382
-0.40875,0.90912,0.08009,0.6765,0.6765,-0.09982
-0.42131,0.90007,0.11113,0.89462,0.62257,-0.32762
-0.4326,0.89398,0.11684,0.91743,0.45974,-0.27301
-0.43036,0.89602,0.10917,0.87885,0.43618,-0.25248
-0.42008,0.90226,0.09719,0.36159,0.43381,-0.72852
-0.40444,0.91024,0.08872,0.27888,0.4161,-0.80836
-0.3905,0.91818,0.06659,0.09302,0.4492,-0.58653
-0.38314,0.92353,0.0165,0.26011,0.79194,0.7261
-0.3781,0.92271,-0.07507,0.16696,0.67963,0.79513
-0.35655,0.91737,-0.1769,0.01824,0.73344,0.54843
-0.32587,0.91067,-0.25394,-0.45622,1.28361,0.70354
-0.30562,0.89922,-0.31302,-0.76463,1.19446,0.6761
-0.30678,0.88534,-0.34934,-0.9911,0.03975,-0.17493
-0.29822,0.88088,-0.36756,-0.50705,-0.41276,0.44338
-0.27345,0.87404,-0.40158,0.02063,-0.20125,0.68431
-0.27302,0.85261,-0.44555,0.25112,-0.43389,0.79829
-0.28286,0.82835,-0.48355,0.54364,-0.48939,0.91862
-0.30552,0.80613,-0.50676,0.81441,-0.36513,1.07572
-0.31976,0.78851,-0.52535,0.75732,-0.39131,1.02715
-0.31486,0.77557,-0.54713,0.30915,-0.4337,0.7803
-0.32475,0.76393,-0.55762,0.00058,-0.61067,0.8416
-0.33911,0.7589,-0.55593,-0.16041,-0.67109,0.86787
-0.35113,0.76176,-0.54444,-0.21912,-0.66163,0.91004
-0.35664,0.77407,-0.52309,-0.10759,-0.16899,0.01541
-0.3569,0.79346,-0.49299,-0.04338,0.27876,-1.23322
-0.3596,0.80458,-0.47259,0.50696,2.47506,-2.36111
-0.36686,0.79449,-0.48393,0.05074,0.99292,-0.78376
-0.36825,0.7839,-0.49988,0.03775,-0.24147,-0.49008
-0.36601,0.78063,-0.5066,-0.31106,-0.07856,-0.32552
-0.3644,0.7851,-0.50082,-0.85169,0.65453,0.20692
-0.36181,0.78653,-0.50046,-0.34251,1.5358,-0.42382
-0.35979,0.76702,-0.53124,-0.21313,0.9952,0.86713
-0.34344,0.75285,-0.56147,-0.19513,-0.91212,1.14945
-0.31451,0.76624,-0.56031,-0.26375,-0.62478,0.71741
-0.29305,0.80097,-0.52207,-0.26106,-0.30584,0.96442
-0.27126,0.83362,-0.48114,-0.39843,0.60938,1.21894
-0.26233,0.86012,-0.43745,-0.22698,0.79926,1.22971
-0.27178,0.87355,-0.40378,0.06333,0.78414,1.13782
-0.30305,0.88049,-0.36455,0.80033,0.55277,-0.19554
-0.34172,0.89785,-0.27763,1.10308,0.02915,0.15136
-0.36348,0.9096,-0.20121,0.64397,-0.19345,-0.09251
-0.36273,0.9151,-0.17605,0.39163,-0.06888,-0.07173
-0.35557,0.92092,-0.15958,0.3062,-0.00914,0.0215
-0.35239,0.92636,-0.13289,0.01122,-0.01389,0.25817
-0.34344,0.9328,-0.10914,0.03723,-0.11656,0.08284
-0.33842,0.93771,-0.07849,-0.02302,-0.16883,0.26592
-0.33383,0.94113,-0.05315,0.15919,-0.33633,0.27376
-0.33358,0.94204,-0.03574,0.25691,-0.19959,0.02093
-0.33958,0.9404,-0.01806,0.29389,-0.12996,-0.06544
-0.35295,0.93563,0.00225,0.27893,0.10062,-0.16081
-0.37017,0.92848,0.02976,0.24251,0.22867,-0.34157
-0.38351,0.92065,0.07289,0.19403,0.50234,-0.36555
-0.38875,0.91288,0.1245,0.42284,0.56014,-0.41075
-0.39422,0.9062,0.15286,0.6641,0.54857,-0.32564
-0.40468,0.90278,0.14562,0.68149,0.54056,-0.27098
-0.40729,0.9047,0.12499,0.75656,0.62907,-0.30969
-0.39964,0.91001,0.11026,0.45026,0.40327,-0.72567
-0.38542,0.91709,0.10188,0.45221,0.39323,-0.77327
-0.37379,0.92467,0.07249,0.23305,0.51861,-0.36209
-0.36705,0.93017,0.00622,0.25232,0.76259,0.48168
-0.35342,0.93165,-0.08432,0.14082,0.66017,0.80498
-0.3299,0.92736,-0.17652,-0.19025,0.71728,0.86155
-0.30263,0.91669,-0.26092,-0.54094,1.32723,0.69671
-0.29162,0.90022,-0.32333,-0.75304,0.74678,0.24766
-0.2872,0.88951,-0.35535,-0.98923,0.02075,-0.19877
-0.27106,0.88759,-0.37243,-0.38186,-0.03932,0.44787
-0.24975,0.87672,-0.41106,-0.12826,-0.09656,0.49268
-0.23909,0.84839,-0.47229,0.19671,-0.17591,0.8421
-0.25215,0.80114,-0.54276,0.40638,-0.18725,0.92107
-0.29981,0.75933,-0.57751,0.51359,-0.28675,1.13211
-0.34015,0.73417,-0.58761,0.6705,-0.42766,1.01518
-0.35546,0.71705,-0.59957,0.43517,-0.39808,0.90856
-0.36239,0.70657,-0.6078,0.10484,-0.57786,0.90722
-0.36957,0.70491,-0.6054,-0.10394,-0.56923,0.92415
-0.37745,0.71237,-0.59165,-0.14467,-0.60392,0.92761
-0.38253,0.72934,-0.5672,-0.09877,-0.54406,0.77245
-0.38486,0.75354,-0.53296,-0.01507,-0.21006,-0.00357
-0.39243,0.77956,-0.48814,0.17016,2.19377,-2.5395
-0.40101,0.77733,-0.48471,0.10439,2.30335,-1.19938
-0.41082,0.76525,-0.49559,-0.18458,0.73884,-0.68927
-0.40998,0.75498,-0.51178,0.0053,-0.45307,-0.53411
-0.39927,0.75751,-0.51649,0.04558,-0.84079,-0.19239
-0.38969,0.77142,-0.50304,-0.35567,0.59751,0.74298
-0.39644,0.78226,-0.48052,-0.5392,0.8815,1.23571
-0.39211,0.788,-0.47466,-0.34786,1.05264,-0.43901
-0.37297,0.79747,-0.47426,-0.15829,-0.22407,1.32673
-0.34456,0.80526,-0.48252,0.07399,-0.4222,1.04135
-0.30221,0.81661,-0.49174,0.03094,-0.33353,0.95671
-0.27121,0.83426,-0.48005,-0.08946,-0.01766,0.87357
-0.26833,0.85332,-0.44702,-0.05297,0.4234,1.13558
-0.28535,0.86471,-0.41334,0.08454,0.54389,1.12834
-0.31496,0.86467,-0.39134,0.30382,0.42823,0.79817
-0.34754,0.86494,-0.36207,0.51093,0.2559,-0.16548
-0.37881,0.88261,-0.27836,0.69474,0.09286,-0.01329
-0.39675,0.90295,-0.16511,0.35314,-0.15038,-0.02406
-0.39584,0.91336,-0.09521,0.04991,-0.1982,0.02062
-0.38266,0.92104,-0.0724,0.08184,-0.08443,0.00484
-0.36903,0.92773,-0.05593,0.19052,-0.08507,0.21128
-0.35829,0.93275,-0.03979,0.14376,-0.23518,0.44284
-0.35461,0.93431,-0.03599,0.18684,-0.25122,0.25961
-0.35644,0.93381,-0.03056,0.25121,-0.14502,-0.03083
-0.36699,0.93013,-0.01227,0.25986,0.0619,-0.17297
-0.38522,0.92262,0.0191,0.2516,0.2835,-0.25814
-0.4015,0.9137,0.06272,0.21233,0.52347,-0.63021
-0.40619,0.9052,0.12493,0.46265,0.57631,-0.45455
-0.40618,0.89821,0.16798,0.77059,0.6089,-0.30326
-0.42179,0.89384,0.15209,0.85697,0.66866,-0.22982
-0.43359,0.89366,0.11551,0.9174,0.5693,-0.15831
-0.42773,0.89926,0.09146,0.8709,0.48628,-0.36683
-0.40948,0.90887,0.07916,0.51837,0.34217,-0.61845
-0.38902,0.91957,0.05514,0.22052,0.53246,-0.48494
-0.37295,0.92784,0.00314,0.04334,0.78768,0.32382
-0.35852,0.9305,-0.075,-0.026,0.64845,0.94151
-0.34136,0.92586,-0.162,-0.15444,0.66861,0.93575
-0.3201,0.91432,-0.24809,-0.46903,1.27939,0.64126
-0.30832,0.89811,-0.31356,-0.79643,1.01201,0.33206
-0.30025,0.88766,-0.34914,-0.94864,0.13944,0.06728
-0.27492,0.88277,-0.38094,-0.35727,0.05415,0.39027
-0.25993,0.86647,-0.42621,0.06562,0.02583,0.78141
-0.26881,0.8394,-0.47238,0.3199,-0.14305,0.892
-0.27951,0.81652,-0.50513,0.58765,-0.31032,0.94329
-0.27368,0.79993,-0.53404,0.57356,-0.33965,0.89667
-0.26244,0.78368,-0.563,0.50319,-0.36415,0.95048
-0.26533,0.7611,-0.59188,0.28106,-0.56932,0.97821
-0.27836,0.74332,-0.60827,0.02918,-0.69905,0.94439
-0.29897,0.73581,-0.60761,-0.11428,-0.74208,0.97443
-0.32014,0.73766,-0.59444,-0.11458,-0.73519,0.91557
-0.33619,0.74906,-0.57086,0.03397,-0.49915,0.70855
-0.34816,0.76938,-0.53556,0.22336,0.07501,-0.55682
-0.35872,0.79195,-0.49409,0.27964,2.08433,-2.68419
-0.37201,0.78452,-0.49611,-0.08413,1.62279,-0.87624
-0.384,0.7729,-0.50513,-0.10457,0.20205,-0.4156
-0.38541,0.76241,-0.5198,-0.15037,-0.50217,-0.4338
-0.37886,0.76254,-0.52439,-0.35367,-0.07541,-0.08504
-0.37456,0.77463,-0.50956,-0.6037,1.03781,0.16079
-0.37396,0.7827,-0.49751,-0.23923,1.34515,0.80493
-0.36135,0.78026,-0.5105,-0.07888,-0.26463,0.91988
-0.32684,0.77813,-0.53636,-0.41835,-0.81933,1.16811
-0.30072,0.79261,-0.53041,-0.29745,-0.65577,0.99212
-0.28021,0.818,-0.50235,-0.25412,-0.02924,1.35542
-0.25856,0.83859,-0.47948,-0.23269,0.20656,0.79767
-0.26264,0.85501,-0.44717,-0.06937,0.74327,1.108
-0.28938,0.86642,-0.40689,0.3567,0.82515,1.16853
-0.32843,0.86953,-0.36884,0.72266,0.62046,-0.02596
-0.37099,0.88257,-0.28884,1.04787,0.27325,-0.01754
-0.39832,0.89657,-0.19362,0.68531,-0.12536,-0.21097
-0.39865,0.90372,-0.15602,0.40991,-0.18821,-0.28281
-0.38467,0.9118,-0.14369,0.30041,-0.05292,0.06134
-0.37002,0.9199,-0.12985,0.06452,-0.07073,0.39816
-0.35344,0.92837,-0.11483,-0.02266,-0.15648,0.38723
-0.34658,0.93419,-0.08465,-0.02952,-0.16229,0.35705
-0.34443,0.93651,-0.06547,0.07849,-0.31927,0.60124
-0.34396,0.93725,-0.05684,0.21571,-0.08035,-0.14874
-0.3526,0.93502,-0.03727,0.21281,0.05872,-0.23443
-0.37128,0.92851,-0.00255,0.22243,0.18407,-0.26228
-0.39016,0.9199,0.03918,0.19721,0.45238,-0.58181
-0.39727,0.91328,0.08989,0.17855,0.44694,-0.58535
-0.39771,0.90795,0.13204,0.5378,0.55496,-0.37495
-0.41187,0.90181,0.13071,0.81508,0.66554,-0.0193
-0.43175,0.89657,0.09868,0.93635,0.7804,0.07552
-0.43719,0.89663,0.06995,0.99037,0.56279,-0.19179
-0.4221,0.90451,0.06055,0.84573,0.43817,-0.48542
-0.39818,0.91571,0.05384,0.37293,0.4037,-0.78165
-0.37523,0.92643,0.03012,-0.19371,0.56019,-0.76051
-0.36218,0.93171,-0.02705,-0.18507,0.67477,0.76775
-0.35211,0.92836,-0.11896,0.0679,0.60771,0.96326
-0.33581,0.91702,-0.21515,-0.22683,0.85565,0.74055
-0.32132,0.89978,-0.29518,-0.47235,1.17958,0.55264
-0.31797,0.88226,-0.34714,-0.70463,0.45177,0.23865
-0.30299,0.87483,-0.37796,-0.32932,0.06813,0.37793
-0.27631,0.86693,-0.41482,0.0558,-0.03134,0.80838
-0.27862,0.8435,-0.4592,0.4155,-0.31028,0.82462
-0.28238,0.81889,-0.49967,0.59651,-0.34494,0.82427
-0.27958,0.79865,-0.5329,0.63189,-0.2527,0.84315
-0.27728,0.77821,-0.56347,0.42148,-0.35889,0.87088
-0.27215,0.76008,-0.59009,0.23617,-0.47372,0.91333
-0.2733,0.74555,-0.60782,-0.05528,-0.62377,0.85123
-0.28208,0.73748,-0.61363,-0.1428,-0.65046,0.8792
-0.29473,0.73736,-0.60781,-0.17649,-0.74964,0.87977
-0.30784,0.74556,-0.59107,-0.05152,-0.71452,0.86662
-0.31903,0.76307,-0.56209,0.04524,-0.56356,0.70967
-0.32631,0.78744,-0.52292,0.33394,0.74202,-1.62494
-0.32908,0.80007,-0.50159,0.25301,2.39164,-1.77423
-0.33762,0.79216,-0.50842,0.13629,1.51769,-1.08142
-0.34161,0.78692,-0.51386,0.16435,-0.25205,-0.47655
-0.34132,0.78654,-0.51463,-0.03827,0.10358,-0.07106
-0.3397,0.79184,-0.50753,-0.34504,0.87115,0.27326
-0.33327,0.79855,-0.50124,-0.3372,1.14986,0.94904
-0.31759,0.79776,-0.51255,-0.32286,0.19354,0.25292
-0.2886,0.79473,-0.53395,-0.51247,-0.59573,1.38719
-0.25625,0.79991,-0.54265,-0.3222,-0.52721,1.13494
-0.21484,0.81982,-0.53078,-0.39754,-0.05273,0.9742
-0.188,0.8488,-0.49416,-0.44397,0.0239,0.84409
-0.19224,0.87862,-0.4371,-0.45995,0.02337,0.87418
-0.21313,0.89695,-0.38735,0.0754,0.5622,1.06629
-0.24477,0.8979,-0.36586,0.2208,0.59794,0.94265
-0.28911,0.89146,-0.34885,0.34742,0.541,0.67887
-0.3426,0.89883,-0.27332,0.82066,0.09367,0.10624
-0.37914,0.91077,-0.1635,0.6475,-0.04929,-0.06397
-0.38658,0.91523,-0.11352,0.525,-0.19277,-0.14972
-0.37472,0.92121,-0.10455,0.35571,-0.00808,-0.09117
-0.36134,0.92761,-0.09465,0.14868,0.05677,0.004
-0.35502,0.93241,-0.06749,0.12292,-0.07046,0.23389
-0.35208,0.9345,-0.05225,0.18221,-0.23107,0.33221
-0.35268,0.9346,-0.04608,0.22144,-0.14761,0.09608
-0.36145,0.93213,-0.02171,0.27159,-0.04564,-0.10927
-0.37689,0.92599,0.02203,0.25687,0.25653,-0.2333
-0.39029,0.918,0.07028,0.19684,0.34272,-0.49129
-0.39359,0.91108,0.12245,0.13106,0.5963,-0.69342
-0.3988,0.90576,0.14327,0.47029,0.58369,-0.28978
-0.41443,0.90227,0.11892,0.73221,0.64146,-0.10023
-0.42406,0.90127,0.08868,0.84848,0.52446,-0.02509
-0.4202,0.9044,0.07403,0.73302,0.45092,-0.41722
-0.40412,0.91158,0.07539,0.38526,0.26331,-0.76803
-0.3862,0.9196,0.07195,0.20683,0.46154,-0.67252
-0.37689,0.92577,0.02964,0.23484,0.69973,0.23758
-0.36887,0.92782,-0.05544,0.2215,0.74511,0.61899
-0.34869,0.92508,-0.15042,0.09009,0.64871,0.87755
-0.3225,0.917,-0.23472,-0.35839,1.12222,0.79032
-0.29829,0.90346,-0.30786,-0.49883,1.38013,0.65289
-0.29499,0.88785,-0.35312,-0.98574,0.18637,-0.12192
-0.2853,0.88133,-0.37662,-0.79749,-0.09131,0.22556
-0.25781,0.8761,-0.4074,-0.35517,-0.01212,0.40915
-0.2511,0.85171,-0.45992,0.13425,-0.26732,0.86988
-0.26158,0.8239,-0.50276,0.38658,-0.3912,0.99551
-0.26509,0.80586,-0.52945,0.62236,-0.29922,0.98376
-0.2661,0.78867,-0.55424,0.68242,-0.3416,0.91915
-0.26065,0.77099,-0.58107,0.38663,-0.43645,0.83285
-0.26413,0.75529,-0.5998,0.17914,-0.56921,0.88095
-0.27755,0.74637,-0.60489,-0.08692,-0.692,0.92308
-0.29428,0.74542,-0.59812,-0.08844,-0.71226,0.89083
-0.30999,0.75209,-0.5816,-0.00779,-0.61224,0.82835
-0.323,0.76851,-0.55232,0.14994,-0.27324,0.18413
-0.33187,0.79162,-0.51302,0.25544,1.07973,-2.35904
-0.34273,0.79187,-0.50545,0.22517,2.28078,-1.20074
-0.35959,0.78091,-0.51074,-0.00321,0.61206,-0.58319
-0.36291,0.77,-0.52477,-0.03597,-0.3278,-0.49162
-0.36096,0.76538,-0.53282,-0.06655,-0.61417,-0.0487
-0.35943,0.77244,-0.52358,-0.53273,0.42334,0.79231
-0.35485,0.77915,-0.51671,-0.66492,0.68917,1.16731
-0.33901,0.78662,-0.51603,-0.54404,0.38339,1.0525
-0.31404,0.79933,-0.51228,-0.56254,0.16804,0.38864
-0.30371,0.80718,-0.50616,-0.10879,-0.15867,1.13702
-0.27786,0.81669,-0.50577,-0.0757,-0.16313,1.0974
-0.25526,0.83469,-0.48799,-0.03745,-0.2061,1.03524
-0.25377,0.86009,-0.44252,0.16056,0.58835,1.3757
-0.26822,0.87267,-0.40803,0.299,0.59771,1.2674
-0.29277,0.87006,-0.39658,0.36162,0.65138,1.08261
-0.32291,0.87521,-0.36016,0.80124,0.32167,0.03098
-0.35413,0.89767,-0.26225,0.84425,0.13897,0.12235
-0.36969,0.91078,-0.18383,0.64478,-0.06393,-0.03915
-0.36711,0.91831,-0.14806,0.2313,-0.0647,-0.03607
-0.355,0.9263,-0.12619,0.12769,-0.0382,0.20404
-0.33645,0.93512,-0.11105,0.01855,-0.0305,0.39349
-0.31886,0.94242,-0.10083,0.07476,-0.34024,0.54459
-0.30483,0.94722,-0.0992,0.11286,-0.36325,0.44005
-0.29807,0.94936,-0.09928,0.07596,-0.11197,-0.13623
-0.30518,0.9485,-0.08486,0.04173,0.01688,-0.29226
-0.3244,0.94449,-0.05172,0.08658,0.21348,-0.08245
-0.34669,0.93784,-0.01547,0.2183,0.48122,-0.49956
-0.36354,0.93082,0.03742,0.35337,0.50923,-0.39059
-0.36996,0.92307,0.1051,0.57144,0.49671,-0.36823
-0.37737,0.91643,0.1331,0.91386,0.54046,-0.21527
-0.38789,0.91527,0.10861,0.79484,0.45928,-0.1835
-0.3844,0.92015,0.07445,0.77959,0.47709,-0.14576
-0.3698,0.92751,0.05435,0.51954,0.35325,-0.65786
-0.35349,0.93451,0.04133,0.42471,0.49542,-0.62214
-0.33776,0.9412,0.0065,0.2791,0.55024,-0.48527
-0.3252,0.94395,-0.05644,0.10326,0.61393,0.74145
-0.31329,0.9399,-0.13575,0.03628,0.65051,0.82855
-0.29881,0.92838,-0.22091,-0.09611,0.76693,0.86869
-0.28294,0.90995,-0.30317,-0.5445,1.2719,0.59851
-0.27948,0.88776,-0.36573,-0.81747,0.58163,-0.00274
-0.27847,0.87529,-0.39536,-0.8701,-0.00969,0.26766
-0.26438,0.86916,-0.41791,-0.2121,-0.05715,0.53796
-0.23689,0.85708,-0.45748,0.05416,-0.06506,0.61587
-0.22064,0.82785,-0.51573,0.138,-0.12401,0.78601
-0.22853,0.78005,-0.58249,0.35946,-0.31815,1.04015
-0.26005,0.74287,-0.61685,0.61684,-0.39005,1.13777
-0.30292,0.72249,-0.62148,0.72788,-0.41288,1.04927
-0.32249,0.71147,-0.62435,0.46183,-0.45804,0.86313
-0.32488,0.70559,-0.62975,0.20213,-0.52566,0.91499
-0.33199,0.70498,-0.62672,0.09212,-0.56583,0.9229
-0.34368,0.71058,-0.61396,0.00857,-0.66035,0.88135
-0.35583,0.72491,-0.58981,0.04558,-0.5336,0.71584
-0.37203,0.74563,-0.55282,0.04907,-0.07414,-0.38562
-0.38586,0.76829,-0.51072,-0.10651,2.00242,-3.05652
-0.39511,0.75891,-0.51763,-0.14465,1.73302,-0.66786
-0.40091,0.74781,-0.5292,0.052,0.85835,-0.72053
-0.39997,0.73852,-0.54278,0.10564,-0.35333,-0.41923
-0.39986,0.73889,-0.54236,-0.38407,0.17914,0.16046
-0.39774,0.74323,-0.53796,-0.48362,0.94216,-0.28434
-0.40024,0.74603,-0.5322,-0.267,1.05161,0.82068
-0.37917,0.73691,-0.55962,-0.2008,-0.49059,1.17158
-0.34464,0.73724,-0.58111,-0.39135,-0.76556,1.27022
-0.30584,0.75848,-0.57547,-0.33308,-0.54459,1.05069
-0.27296,0.79222,-0.54578,-0.34025,0.2544,1.13689
-0.24936,0.82244,-0.51128,-0.33719,0.30164,1.01457
-0.24881,0.84902,-0.46611,-0.27845,0.48063,1.06375
-0.27048,0.86338,-0.42593,0.35626,0.62999,0.95106
-0.30714,0.86897,-0.388,0.68363,0.49288,-0.31113
-0.34714,0.88672,-0.3053,0.94729,0.10501,0.16328
-0.3703,0.90328,-0.21668,0.61555,-0.16735,-0.13747
-0.36597,0.91191,-0.18566,0.52454,-0.19134,-0.29836
-0.35106,0.92041,-0.17198,0.11308,-0.08074,0.44124
-0.33616,0.92816,-0.15968,0.08035,0.16303,0.04392
-0.32693,0.935,-0.1374,0.08514,0.07903,0.12636
-0.3242,0.93989,-0.10713,0.00367,-0.2767,0.54125
-0.31928,0.94355,-0.08804,0.15531,-0.26566,0.41354
-0.31968,0.94434,-0.07749,0.23943,-0.13642,-0.05957
-0.32794,0.94305,-0.0557,0.26526,0.05726,-0.18238
-0.34403,0.93868,-0.02253,0.25315,0.13635,-0.19555
-0.36029,0.93263,0.01932,0.22248,0.25026,-0.34371
-0.36639,0.92749,0.0742,0.21536,0.51824,-0.39526
-0.36738,0.92305,0.11399,0.49705,0.58602,-0.29923
-0.37701,0.9198,0.10871,0.65933,0.59934,-0.16822
-0.38602,0.9191,0.07887,0.80174,0.42605,-0.07568
-0.38385,0.92176,0.0547,0.60986,0.43152,-0.32979
-0.37194,0.92701,0.04793,0.41274,0.40415,-0.40246
-0.35916,0.932,0.04863,0.30301,0.43403,-0.96225
-0.35024,0.93628,0.02623,0.04515,0.49337,-0.65129
-0.34812,0.93633,-0.04556,0.04302,0.58364,0.14683
-0.34318,0.92861,-0.14106,0.14231,0.62251,0.91174
-0.32769,0.91483,-0.23598,-0.36168,1.04312,0.82622
-0.30533,0.89777,-0.31743,-0.49905,1.23319,0.7122
-0.29447,0.87954,-0.37375,-0.72488,0.62182,0.30653
-0.28415,0.86986,-0.40323,-0.97057,-0.01778,-0.11436
-0.25915,0.86617,-0.42729,-0.65893,0.04177,0.18905
-0.24721,0.84557,-0.47318,0.06708,-0.06772,0.70273
-0.25448,0.80983,-0.52858,0.28552,-0.24352,0.8902
-0.26221,0.78014,-0.56799,0.48779,-0.36428,0.94826
-0.26899,0.76486,-0.58534,0.73462,-0.19789,0.97614
-0.27406,0.74555,-0.60748,0.50378,-0.32131,0.8403
-0.2741,0.73014,-0.62591,0.40743,-0.36072,0.84008
-0.27853,0.7222,-0.63313,-0.00543,-0.56286,0.86907
-0.28984,0.7217,-0.6286,-0.11299,-0.62236,0.88786
-0.30441,0.72847,-0.61373,-0.10297,-0.65111,0.86733
-0.31776,0.74203,-0.59026,-0.05194,-0.54907,0.76496
-0.32448,0.76263,-0.55956,0.08824,-0.07995,-0.11113
-0.32404,0.78243,-0.53179,0.0878,-0.09975,-0.1389
-0.33188,0.7737,-0.53966,0.17333,1.74316,-0.87159
-0.33786,0.76449,-0.54899,-0.01587,-0.18534,-0.3013
-0.33496,0.75706,-0.56094,-0.01877,-0.17791,-0.28936
-0.33065,0.76185,-0.557,-0.90382,0.669,0.17418
-0.32408,0.7706,-0.54877,-0.30071,1.46984,0.01306
-0.31774,0.76679,-0.55774,-0.12686,-0.19207,1.12869
-0.29891,0.75367,-0.58534,-0.37479,-0.86628,1.4017
-0.26952,0.76384,-0.58643,-0.43445,-0.40547,1.13488
-0.23853,0.79194,-0.56208,-0.38046,-0.01792,1.37685
-0.20207,0.82489,-0.52794,-0.38982,0.16086,1.0351
-0.18631,0.85779,-0.47903,-0.30116,0.6011,1.12804
-0.1982,0.87873,-0.43421,0.16908,0.75448,1.17903
-0.2334,0.88249,-0.40832,0.49211,0.73951,0.54147
-0.28047,0.88769,-0.36515,1.01634,0.49354,-0.03706
-0.31787,0.90805,-0.27275,1.08525,0.22711,0.07331
-0.32799,0.9186,-0.22039,0.67808,-0.22234,-0.29653
-0.31907,0.92543,-0.20435,0.39519,-0.11133,-0.05518
-0.31163,0.93115,-0.1893,0.1499,-0.135,0.30703
-0.30126,0.93647,-0.17961,0.08373,0.06063,0.00795
-0.29936,0.94209,-0.15111,-0.04107,-0.15332,0.41431
-0.29866,0.9469,-0.11898,-0.05565,-0.30523,0.55606
-0.29355,0.95017,-0.10482,0.12521,-0.26521,0.59531
-0.28925,0.95207,-0.09937,0.24187,-0.13905,0.06903
-0.29493,0.95195,-0.0824,0.22863,-0.00677,-0.10291
-0.31042,0.94931,-0.04935,0.13438,0.1924,-0.39274
-0.32335,0.94627,0.00121,0.09173,0.5055,-0.47461
-0.32648,0.94321,0.06124,0.09486,0.50856,-0.53464
-0.32735,0.9398,0.09791,0.48028,0.54266,-0.15704
-0.33939,0.93698,0.08285,0.7096,0.57321,0.03535
-0.349,0.93594,0.04682,0.71921,0.57425,0.07137
-0.34408,0.93875,0.01825,0.60664,0.37595,-0.47831
-0.33066,0.94366,0.01253,0.45212,0.41168,-0.65142
-0.32092,0.94704,0.01061,0.44238,0.40829,-0.6495
-0.31481,0.94895,-0.01904,0.13972,0.47947,-0.34775
-0.31051,0.94645,-0.0883,0.12342,0.58889,0.95359
-0.3024,0.93585,-0.18087,0.02429,0.6076,0.95539
-0.28579,0.91782,-0.27554,-0.27657,0.83443,0.84298
-0.26772,0.89764,-0.35009,-0.52267,0.77705,0.41912
-0.25589,0.88136,-0.39713,-0.5345,0.79332,0.46616
-0.23866,0.87359,-0.42411,-0.71378,0.03023,0.20806
-0.21226,0.86904,-0.44688,-0.24138,0.02618,0.60212
-0.19552,0.85265,-0.48451,0.01573,-0.14253,0.7029
-0.19496,0.82503,-0.53038,0.17569,-0.34588,0.81357
-0.20034,0.80539,-0.55785,0.43708,-0.30393,0.95088
-0.21027,0.78886,-0.57748,0.5474,-0.33398,0.92754
-0.21357,0.77273,-0.59772,0.35577,-0.419,0.8233
-0.21106,0.76014,-0.61452,0.07933,-0.55367,0.80138
-0.21382,0.75349,-0.62172,-0.13314,-0.63306,0.79642
-0.22554,0.75158,-0.61989,-0.19222,-0.72236,0.83687
-0.24095,0.75593,-0.60869,-0.10875,-0.64164,0.83174
-0.25623,0.76863,-0.58613,-0.01925,-0.54326,0.66479
-0.26649,0.79001,-0.55215,0.31002,1.01053,-2.18848
-0.26749,0.79478,-0.54476,0.54891,2.08871,-1.17149
-0.27292,0.78574,-0.55509,0.51219,1.26189,-0.77029
-0.27254,0.77615,-0.5686,0.14119,-0.0389,-0.45163
-0.27694,0.7651,-0.58131,-0.18649,0.21096,0.0975
-0.28492,0.76078,-0.58311,-0.4751,0.5111,0.53198
-0.27855,0.75768,-0.59019,-0.45109,1.37039,-0.23015
-0.2644,0.7437,-0.61399,-0.58418,-0.58848,1.25529
-0.23551,0.72465,-0.64761,-0.72378,-1.11635,1.58853
-0.20665,0.73703,-0.64349,-0.52734,-0.19101,1.8778
-0.19305,0.77346,-0.60372,-0.57697,0.00535,1.88695
-0.15455,0.80543,-0.57217,-0.6545,0.31778,1.34914
-0.1332,0.83561,-0.53292,-0.48446,0.88387,1.10685
-0.1503,0.85794,-0.49126,0.08392,1.0813,1.18301
-0.19532,0.8689,-0.45481,0.34736,1.05929,1.13055
-0.2462,0.88686,-0.39097,0.84155,0.65271,-0.01293
-0.27805,0.91909,-0.27919,0.96448,-0.09602,0.30623
-0.28315,0.93391,-0.21824,0.75612,-0.34751,0.09753
-0.26627,0.94103,-0.20869,0.46381,-0.18459,-0.29428
-0.25392,0.94778,-0.19294,-0.02855,-0.04022,0.39841
-0.25014,0.95407,-0.16484,-0.03233,-0.0465,0.37031
-0.24192,0.96077,-0.13554,0.02992,-0.31862,0.45798
-0.2325,0.96586,-0.11422,0.02861,-0.41434,0.44955
-0.22367,0.96845,-0.10985,0.01375,-0.46111,0.37736
-0.2192,0.97027,-0.10251,-0.03339,-0.08898,-0.05112
-0.22814,0.97056,-0.07712,0.01907,0.15096,-0.17229
-0.24933,0.96737,-0.04495,0.05232,0.17575,-0.21862
-0.269,0.96311,-0.00672,0.29877,0.47349,-0.54149
-0.28163,0.95849,0.04433,0.46073,0.48512,-0.27207
-0.29067,0.95366,0.07759,0.66739,0.50557,-0.25138
-0.29835,0.95138,0.07648,0.63218,0.46035,-0.1887
-0.2959,0.95341,0.05863,0.60599,0.53251,-0.32006
-0.28605,0.95735,0.04039,0.51499,0.56251,-0.459
-0.27193,0.96211,0.01922,0.45771,0.41765,-0.57946
-0.25911,0.96565,-0.01931,0.28628,0.39353,-0.36009
-0.24776,0.96545,-0.08066,0.21546,0.45202,-0.05829
-0.23318,0.95945,-0.15834,0.0647,0.6732,0.92917
-0.21577,0.94608,-0.24158,-0.26287,0.89933,0.81662
-0.1991,0.92776,-0.31559,-0.41076,1.14473,0.74522
-0.19733,0.9077,-0.37032,-0.66785,0.60694,0.31319
-0.20404,0.89135,-0.40478,-0.80479,0.00477,0.22446
-0.19311,0.87795,-0.43806,-0.40645,-0.0213,0.57561
-0.16715,0.86114,-0.48008,-0.01197,-0.08526,0.82643
-0.15918,0.83457,-0.5274,0.24055,-0.33322,0.9164
-0.16626,0.8073,-0.56623,0.40306,-0.39884,0.958
-0.18046,0.78254,-0.59586,0.50436,-0.40803,0.92513
-0.1932,0.75564,-0.62584,0.36981,-0.38159,0.92549
-0.20182,0.73238,-0.65029,0.1177,-0.57262,0.89181
-0.2104,0.7169,-0.66467,-0.10383,-0.62417,0.91084
-0.22777,0.70849,-0.66795,-0.20929,-0.66912,0.95615
-0.2463,0.70896,-0.66084,-0.21317,-0.68833,0.94715
-0.25773,0.72179,-0.64233,-0.1679,-0.42276,0.63876
-0.26595,0.74306,-0.6141,0.13157,0.26809,-0.90039
-0.27713,0.76214,-0.5851,0.30569,1.1441,-2.22527
-0.29614,0.74872,-0.59305,0.19191,1.44203,-0.71798
-0.30924,0.73356,-0.60519,-0.01018,0.19028,-0.27393
-0.31073,0.71673,-0.62429,-0.07373,-0.32203,-0.28292
-0.3073,0.71599,-0.62682,-0.21285,-0.51398,0.13825
-0.29996,0.72978,-0.61437,-0.58914,0.53611,0.63794
-0.29411,0.74029,-0.60454,-0.71298,0.77404,0.77379
-0.28643,0.74949,-0.59684,-0.29668,0.8319,-0.0886
-0.27941,0.75924,-0.58778,-0.19311,-0.32018,1.43159
-0.25608,0.76415,-0.59202,-0.21644,-0.3251,1.43583
-0.22197,0.78252,-0.58171,-0.16594,0.01889,1.10479
-0.20678,0.8111,-0.54714,-0.0583,0.30269,1.21529
-0.21152,0.83962,-0.50029,-0.05356,0.27417,1.16844
-0.23183,0.85497,-0.46398,0.36067,0.61711,1.03803
-0.26155,0.85991,-0.43834,0.58717,0.53733,-0.07788
-0.29159,0.87288,-0.39121,0.61721,0.52435,-0.12501
-0.31596,0.90089,-0.29758,0.54051,0.09775,-0.05899
-0.32176,0.91834,-0.23046,0.26524,-0.18915,-0.11749
-0.31292,0.92849,-0.19992,0.2564,-0.1993,-0.14802
-0.29626,0.93744,-0.18283,0.1873,0.02486,0.07562
-0.27642,0.94605,-0.16905,0.14095,-0.03325,0.06971
-0.26544,0.95295,-0.14633,0.06962,-0.1383,0.16603
-0.25584,0.95781,-0.13089,0.09152,-0.35028,0.58263
-0.24791,0.96009,-0.12942,0.13056,-0.059,0.12005
-0.24937,0.96055,-0.12305,0.12005,0.06017,-0.08186
-0.26111,0.9605,-0.09615,0.16473,0.1568,-0.30314
-0.27738,0.95949,-0.04919,0.11635,0.35014,-0.36958
-0.28584,0.95821,0.01072,0.10412,0.37765,-0.4157
-0.28536,0.95618,0.0654,0.38276,0.46719,-0.41367
-0.29225,0.9531,0.07862,0.63955,0.51793,-0.06625
-0.30478,0.95102,0.05155,0.61622,0.44426,-0.00201
-0.30322,0.95262,0.02342,0.39781,0.56447,-0.44304
-0.29373,0.95582,0.01071,0.39719,0.34383,-0.74837
-0.28588,0.95825,0.00425,0.44928,0.35025,-0.77052
-0.28125,0.95928,-0.02589,0.204,0.53772,0.07182
-0.27855,0.95542,-0.09782,0.22142,0.61102,0.85276
-0.26743,0.94555,-0.18549,0.11133,0.58816,0.82148
-0.24843,0.92872,-0.27522,-0.26227,0.88245,0.92012
-0.22633,0.90605,-0.35756,-0.45254,1.18967,0.59533
-0.22029,0.88216,-0.41625,-0.69557,0.36816,0.14862
-0.21672,0.86883,-0.44516,-0.90561,-0.03138,0.22276
-0.19992,0.86438,-0.46137,-0.30799,-0.0305,0.60108
-0.17763,0.85159,-0.49318,0.01951,-0.09822,0.69806
-0.17644,0.81797,-0.54753,0.16982,-0.21323,0.87755
-0.18856,0.77506,-0.60309,0.42142,-0.25275,1.00794
-0.2172,0.73964,-0.63699,0.4983,-0.25622,1.0857
-0.24129,0.71801,-0.65287,0.44499,-0.27817,0.92921
-0.24818,0.7028,-0.66669,0.21026,-0.39812,0.90173
-0.25317,0.69388,-0.67411,0.08086,-0.46342,0.92379
-0.26401,0.69134,-0.67257,-0.14136,-0.63552,0.96065
-0.27769,0.6963,-0.66185,-0.10742,-0.66907,0.89554
-0.29252,0.70993,-0.64064,-0.06438,-0.61344,0.78631
-0.3094,0.72985,-0.60958,0.15733,0.10027,-0.77069
-0.32177,0.75014,-0.57771,0.2092,2.07461,-2.28643
-0.33532,0.74018,-0.58282,0.0874,2.26844,-1.34134
-0.34279,0.72805,-0.59366,0.02375,0.14306,-0.35684
-0.34216,0.7177,-0.60649,-0.04284,-0.61173,-0.01967
-0.33638,0.71985,-0.60717,-0.04861,-0.61388,-0.01899
-0.32823,0.73029,-0.59911,-0.74358,0.60215,0.78902
-0.32546,0.73584,-0.5938,-0.58222,0.69177,0.09837
-0.31606,0.74346,-0.58938,-0.59162,0.68415,0.09394
-0.30864,0.75067,-0.58415,-0.18837,-0.25776,1.61956
-0.28162,0.76155,-0.58371,-0.17962,-0.11913,1.22373
-0.23601,0.783,-0.57551,-0.11079,-0.11759,1.23519
-0.19873,0.81166,-0.54927,-0.15281,0.21779,1.19341
-0.19273,0.84195,-0.50395,0.06193,0.69049,1.31775
-0.20583,0.85967,-0.46754,0.20209,0.73487,1.19299
-0.23617,0.86573,-0.44127,0.60048,0.53556,-0.17976
-0.27931,0.88252,-0.37832,0.84285,0.17503,0.02142
-0.3167,0.90715,-0.27709,0.66731,-0.03915,-0.06824
-0.32582,0.92084,-0.21419,0.32692,-0.21386,-0.02472
-0.31474,0.92913,-0.19402,0.25488,-0.16442,0.07516
-0.29401,0.93755,-0.18585,0.07358,0.01475,0.32042
-0.27567,0.94657,-0.16733,-0.01092,0.12553,0.18112
-0.26396,0.9543,-0.14006,-0.00313,-0.2332,0.50096
-0.25698,0.95856,-0.1229,0.05789,-0.33906,0.37183
-0.2562,0.96075,-0.10632,0.21564,-0.1602,-0.17654
-0.26373,0.96165,-0.07516,0.22868,0.07669,-0.08716
-0.27929,0.95939,-0.03938,0.21894,0.14217,-0.08655
-0.29483,0.95553,-0.00444,0.15533,0.46524,-0.35781
-0.30377,0.95175,0.04337,0.17127,0.53752,-0.30374
-0.31012,0.94733,0.07981,0.34604,0.52175,-0.32352
-0.3218,0.94385,0.07472,0.6067,0.45505,-0.19185
-0.32918,0.94331,0.04231,0.6221,0.39766,-0.16568
-0.32322,0.94624,0.01214,0.60682,0.47434,-0.22423
-0.3121,0.95003,-0.00431,0.27874,0.40573,-0.69554
-0.30435,0.95232,-0.02085,0.18878,0.42405,-0.76045
-0.30482,0.95,-0.06756,0.14021,0.50234,-0.4018
-0.30776,0.9396,-0.14975,0.24052,0.61791,0.96614
-0.30023,0.92371,-0.23793,0.19162,0.59906,0.96121
-0.2842,0.90593,-0.31385,-0.22335,1.07556,0.98152
-0.26456,0.88616,-0.38042,-0.54126,1.17574,0.58217
-0.25275,0.87187,-0.41947,-0.72871,0.2614,0.26151
-0.23029,0.86688,-0.44214,-0.59038,-0.02796,0.26004
-0.20038,0.861,-0.46746,-0.10611,-0.03213,0.62877
-0.18809,0.8425,-0.50479,0.06805,-0.23108,0.79999
-0.18683,0.81642,-0.5464,0.14252,-0.30142,0.85341
-0.18747,0.79131,-0.58196,0.44324,-0.323,0.99385
-0.19339,0.7652,-0.61405,0.41087,-0.41486,0.97379
-0.19666,0.74246,-0.64036,0.37862,-0.40039,0.91817
-0.20491,0.72408,-0.65857,0.00464,-0.57838,0.90083
-0.21968,0.71534,-0.66334,-0.15091,-0.57717,0.98171
-0.23736,0.71524,-0.65733,-0.18708,-0.59715,0.97629
-0.25318,0.724,-0.64165,-0.19043,-0.61761,0.94507
-0.2667,0.74245,-0.61451,0.0163,0.0026,-0.16503
-0.28167,0.7664,-0.57731,0.03127,-0.02134,-0.20223
-0.29666,0.77718,-0.55496,0.27929,2.32783,-1.79421
-0.30849,0.76752,-0.56191,0.19523,1.93628,-1.0243
-0.30824,0.76008,-0.57207,0.01423,0.52727,-0.51707
-0.30399,0.755,-0.581,-0.14458,-0.09792,0.08858
-0.30008,0.75902,-0.57779,-0.45117,0.1417,0.49115
-0.29484,0.76621,-0.57095,-0.57364,0.41554,0.58393
-0.29358,0.77398,-0.56103,-0.2427,0.66276,0.29009
-0.26897,0.77123,-0.57694,-0.46138,0.05446,0.57241
-0.24391,0.77429,-0.58393,-0.41603,-0.39454,1.24708
-0.20169,0.78905,-0.58026,-0.23703,-0.33367,1.17533
-0.16359,0.8162,-0.55412,-0.31216,-0.05375,1.07063
-0.14932,0.8477,-0.50902,-0.39325,0.33519,1.09218
-0.15942,0.8673,-0.47155,-0.09182,0.65081,1.25812
-0.18968,0.87029,-0.45454,0.16693,0.65366,1.01501
-0.23333,0.87047,-0.4334,0.43674,0.41332,0.06087
-0.28426,0.89206,-0.35131,0.81872,0.13695,-0.14892
-0.31923,0.91469,-0.24782,0.35598,-0.16706,0.01676
-0.32646,0.92516,-0.19362,0.2426,-0.25197,-0.03379
-0.31262,0.93339,-0.17621,0.07476,-0.05874,0.4039
-0.28889,0.9419,-0.17132,-0.00794,0.0514,0.34139
-0.2654,0.9508,-0.15975,0.03215,-0.16029,0.46352
-0.24682,0.95718,-0.15125,0.13305,-0.33415,0.25708
-0.23574,0.96181,-0.13904,0.15477,-0.25055,-0.01355
-0.2383,0.96405,-0.11748,0.12035,-0.02408,-0.05642
-0.25521,0.96283,-0.08835,0.08647,0.19012,-0.00511
-0.27863,0.95856,-0.05917,0.12593,0.17719,-0.21557
-0.29798,0.95452,-0.00845,0.15757,0.25585,-0.4288
-0.30729,0.95041,0.04776,0.45705,0.51526,-0.20111
-0.3183,0.94565,0.06636,0.72521,0.64514,-0.13774
-0.33044,0.9427,0.04597,0.72502,0.53607,-0.07512
-0.32962,0.94395,0.01716,0.66263,0.6292,-0.26518
-0.31949,0.94758,0.00032,0.43273,0.4347,-0.77409
-0.31155,0.95018,-0.00883,0.43024,0.33493,-0.7764
-0.30803,0.95068,-0.03624,0.35071,0.38192,-0.45226
-0.30539,0.94735,-0.09615,0.233,0.60059,0.53052
-0.29764,0.93787,-0.17832,0.26592,0.64584,1.06093
-0.28308,0.92212,-0.26373,-0.27935,0.99109,0.8869
-0.26082,0.90073,-0.34733,-0.42391,1.247,0.70106
-0.24531,0.87831,-0.41034,-0.63407,1.29582,0.58269
-0.23563,0.86653,-0.44,-1.03553,-0.13907,0.31086
-0.21506,0.86127,-0.46039,-0.61512,-0.1769,0.52919
-0.18341,0.84798,-0.49728,-0.26581,-0.09685,0.56759
-0.17114,0.81984,-0.54641,0.19769,-0.09588,0.89618
-0.19132,0.78228,-0.59281,0.57604,-0.39006,1.12827
-0.22296,0.74989,-0.62285,0.60768,-0.35766,1.15831
-0.23195,0.72759,-0.6456,0.36423,-0.29847,0.88975
-0.23149,0.70971,-0.66537,0.10067,-0.52646,0.9526
-0.23935,0.69937,-0.6735,0.10852,-0.51612,0.96073
-0.25464,0.69706,-0.67027,-0.12594,-0.63572,0.99237
-0.26935,0.70442,-0.65669,-0.09143,-0.61647,0.9794
-0.2797,0.72344,-0.63118,-0.08108,-0.63549,0.95389
-0.29241,0.75166,-0.59119,-0.02781,0.30216,-0.7281
-0.30595,0.78171,-0.54342,0.05092,2.64617,-3.08084
-0.3136,0.77958,-0.54212,0.05856,2.6483,-3.08214
-0.31756,0.7719,-0.55074,0.13241,-0.10415,-0.48852
-0.31759,0.76523,-0.55996,0.20023,-0.47405,-0.10179
-0.31517,0.76081,-0.5673,0.21184,-0.42484,0.19886
-0.31157,0.76462,-0.56416,-0.51944,0.57705,1.2756
-0.30379,0.77243,-0.55772,-0.76162,1.12936,0.7129
-0.28108,0.7896,-0.54545,-0.72002,1.54438,-0.97231
-0.26541,0.80291,-0.53374,-0.33986,0.12671,1.32314
-0.22589,0.80008,-0.55574,-0.07082,-0.44174,1.10115
-0.17557,0.81242,-0.55601,-0.1674,-0.33668,1.02811
-0.1515,0.83693,-0.52591,-0.29835,0.03785,1.15993
-0.16197,0.86217,-0.48001,-0.15158,0.47846,1.43779
-0.18397,0.87306,-0.45157,-0.00905,0.51184,1.34639
-0.21529,0.87302,-0.43758,0.33544,0.44258,-0.41461
-0.25583,0.876,-0.40887,0.54099,0.2574,-0.58366
-0.30285,0.90066,-0.31156,0.61611,0.15549,-0.20498
-0.32605,0.91894,-0.22188,0.29843,-0.2546,0.13115
-0.3205,0.92783,-0.19076,0.1018,-0.12794,0.27592
-0.2961,0.93692,-0.18571,0.11623,0.11963,-0.04786
-0.27901,0.94601,-0.16493,0.01039,-0.08033,0.31878
-0.26611,0.95298,-0.1449,0.13206,-0.34548,0.39306
-0.25708,0.95644,-0.13824,0.20384,-0.46479,0.2778
-0.25317,0.95788,-0.13547,0.12272,-0.29167,0.16522
-0.25899,0.9577,-0.12539,0.03435,-0.03121,0.03959
-0.27298,0.9568,-0.10004,0.04862,0.05708,-0.00159
-0.28902,0.9555,-0.05887,0.20896,0.37854,-0.37671
-0.30459,0.95247,0.00347,0.33111,0.40209,-0.27776
-0.31439,0.94706,0.06495,0.52536,0.49014,-0.25445
-0.32436,0.94177,0.08858,0.72403,0.52982,-0.42542
-0.32439,0.94275,0.0772,0.53466,0.52543,-0.15223
-0.31297,0.9484,0.05065,0.35052,0.74874,-0.36862
-0.30076,0.95332,0.02664,0.24366,0.4262,-0.65688
-0.28886,0.95735,-0.00387,0.24436,0.39656,-0.50615
-0.28132,0.95782,-0.05844,0.0668,0.45931,0.07379
-0.27319,0.9525,-0.13453,0.0374,0.58483,0.83526
-0.25861,0.9409,-0.21868,-0.2735,0.7476,0.88492
-0.23635,0.92357,-0.30189,-0.29576,0.76492,0.96814
-0.21531,0.90258,-0.37278,-0.77013,1.06434,0.39239
-0.2019,0.88844,-0.41219,-0.82456,0.07795,0.28074
-0.18068,0.88134,-0.43656,-0.84578,0.08505,0.30511
-0.15547,0.86819,-0.47124,-0.01835,0.03571,0.50005
-0.14711,0.84117,-0.52036,0.13482,-0.03206,1.01855
-0.16425,0.80001,-0.57705,0.3059,-0.13502,1.11961
-0.18718,0.76414,-0.61729,0.5018,-0.36238,1.02961
-0.20868,0.73606,-0.64394,0.39335,-0.30776,0.98214
-0.22081,0.71461,-0.66375,0.35355,-0.30336,0.98783
-0.23084,0.69862,-0.67723,0.1357,-0.42799,0.9929
-0.24122,0.69207,-0.68033,-0.0684,-0.54787,0.94641
-0.25207,0.6968,-0.67151,-0.18708,-0.55363,0.99377
-0.2608,0.71147,-0.65253,-0.20455,-0.5834,0.99821
-0.26592,0.73531,-0.62338,-0.07635,-0.38243,0.63563
-0.27223,0.76566,-0.58279,-0.02816,-0.14887,0.23111
-0.28798,0.79594,-0.53248,0.16823,2.56769,-3.36108
-0.30371,0.79035,-0.53207,0.00795,2.52929,-0.8491
-0.30468,0.78253,-0.54296,-0.01323,-0.01583,-0.48757
-0.30008,0.77639,-0.55422,-0.07156,-0.38888,-0.20004
-0.28849,0.7801,-0.55517,-0.4421,0.11948,0.45167
-0.28302,0.78463,-0.55158,-0.36787,0.45394,0.58046
-0.2821,0.79309,-0.53984,0.00183,1.11599,0.61082
-0.25571,0.78862,-0.55918,-0.22099,-0.14421,0.69578
-0.22503,0.78546,-0.57655,-0.24273,-0.51556,1.38376
-0.18025,0.7956,-0.57839,-0.29051,-0.39534,1.18718
-0.13263,0.81864,-0.55877,-0.34526,-0.06669,0.88221
-0.11585,0.84887,-0.51573,-0.43606,0.3486,1.00627
-0.12423,0.86946,-0.47811,-0.19195,0.41467,1.06071
-0.15167,0.87453,-0.46064,0.06923,0.42465,1.00343
-0.19324,0.87337,-0.44707,0.21593,0.30075,0.30876
-0.24205,0.88452,-0.39878,0.55217,0.1786,-0.32701
-0.28552,0.91262,-0.29256,0.50947,0.01347,0.12122
-0.30356,0.92752,-0.21804,0.12672,-0.22284,0.15011
-0.29378,0.93349,-0.20563,0.22379,0.11615,-0.04247
-0.27597,0.93883,-0.20598,0.17276,0.15871,0.12731
-0.26248,0.945,-0.19511,0.03877,0.05425,0.30343
-0.24998,0.95057,-0.18416,0.07743,-0.33738,0.52025
-0.23963,0.95524,-0.17345,0.13201,-0.33787,0.31988
-0.23575,0.95876,-0.15867,0.10184,-0.264,0.27598
-0.24415,0.95993,-0.13752,0.03393,-0.02981,0.15501
-0.26141,0.959,-0.10943,0.08103,0.17862,-0.10622
-0.28009,0.9572,-0.0728,0.09971,0.18042,-0.14286
-0.29312,0.95597,-0.01356,0.23603,0.45118,-0.25404
-0.29468,0.95462,0.04307,0.50895,0.55097,-0.44235
-0.30016,0.95244,0.05243,0.55291,0.51561,-0.39723
-0.30769,0.95128,0.01919,0.69214,0.62034,0.17349
-0.30825,0.95111,-0.01882,0.45732,0.58676,-0.20083
-0.29645,0.95413,-0.04177,0.44553,0.58375,-0.17788
-0.28417,0.95684,-0.06079,0.18639,0.26901,-0.53471
-0.27748,0.9567,-0.08786,-0.06155,0.23073,-0.40098
-0.27703,0.95182,-0.13147,-0.06201,0.23561,-0.35737
-0.27508,0.94027,-0.20052,-0.20929,0.53468,0.98987
-0.26021,0.92096,-0.29,-0.21618,0.5464,0.82001
-0.23073,0.89738,-0.37612,-0.48216,0.81594,0.69695
-0.20084,0.8768,-0.43689,-0.73955,0.74089,0.56976
-0.17596,0.8646,-0.47063,-0.65053,0.14191,0.35501
-0.14865,0.85809,-0.4915,-0.44714,0.08287,0.39431
-0.13294,0.84739,-0.51406,-0.07304,-0.03092,0.55229
-0.13745,0.82654,-0.54583,0.21843,-0.23603,0.80688
-0.14972,0.80102,-0.5796,0.25488,-0.28685,0.86868
-0.15311,0.77927,-0.6077,0.26017,-0.20851,0.83612
-0.15014,0.76245,-0.62938,0.13265,-0.29263,0.82762
-0.14987,0.74768,-0.64692,0.01622,-0.38472,0.84153
-0.15733,0.73675,-0.65761,-0.1126,-0.43432,0.83159
-0.16922,0.73311,-0.65872,-0.23738,-0.44101,0.76974
-0.18076,0.73521,-0.65329,-0.27192,-0.45626,0.77894
-0.19069,0.74477,-0.63949,-0.14199,-0.50475,0.76026
-0.19757,0.7618,-0.61694,-0.0316,-0.4788,0.70802
-0.20148,0.78236,-0.58934,0.15523,0.05588,-0.02951
-0.19934,0.79994,-0.566,0.1684,1.10008,-1.99403
-0.19095,0.8001,-0.56866,-0.06326,1.37829,-0.88845
-0.19003,0.79214,-0.57999,-0.00496,0.92137,-0.87885
-0.18783,0.7809,-0.59575,0.06568,-0.27348,-0.10799
-0.17921,0.77239,-0.60934,-0.01973,-0.37772,0.10533
-0.16595,0.77097,-0.61486,-0.22754,-0.19529,0.14526
-0.16285,0.77483,-0.61083,-1.27082,2.3536,0.09598
-0.15492,0.76467,-0.62552,-0.70421,1.10787,0.15636
-0.14237,0.73234,-0.66588,-0.39312,-0.61912,2.14119
-0.09407,0.7277,-0.67941,-0.44386,-1.17216,0.93529
-0.0371,0.75916,-0.64984,-0.43893,-0.41993,1.23781
0.00613,0.81535,-0.57893,-0.56629,-0.22728,1.87061
0.05444,0.86033,-0.50682,-0.71964,0.7581,1.18149
0.05973,0.88913,-0.45373,-0.43183,0.87791,1.24758
0.02831,0.89284,-0.44949,-0.40041,0.87421,1.24334
-0.02327,0.89584,-0.44376,0.24036,0.84673,-0.13294
-0.08724,0.92159,-0.37823,0.64231,0.20796,0.46391
-0.12412,0.94598,-0.29952,0.67919,0.18357,0.3852
-0.11868,0.95759,-0.26253,0.28094,-0.04683,0.06853
-0.09409,0.96235,-0.25499,0.10858,0.07546,-0.05005
-0.07357,0.96622,-0.24699,-0.07182,0.03062,0.14259
-0.06,0.97042,-0.23383,-0.10583,-0.03528,0.11488
-0.04876,0.97387,-0.22177,-0.01567,-0.20828,0.16213
-0.03644,0.9762,-0.21376,0.09187,-0.36054,0.12715
-0.02185,0.97771,-0.20879,0.14609,-0.29064,0.04232
-0.00666,0.97858,-0.20572,0.04526,-0.1751,0.26224
0.01044,0.97935,-0.20188,0.02091,-0.15449,0.4811
0.02817,0.98082,-0.19283,0.03962,-0.23293,0.37041
0.04197,0.98412,-0.17245,-0.23421,-0.17548,0.1304
0.04708,0.98813,-0.14619,-0.38956,-0.09699,-0.04073
0.04108,0.99228,-0.117,-0.53316,0.12838,-0.08648
0.02559,0.99604,-0.08506,-0.24556,0.215,0.12871
0.00654,0.99888,-0.04673,-0.0691,0.28338,-0.0204
-0.01558,0.99984,-0.00808,0.09987,0.44218,-0.23221
-0.03312,0.99925,0.01983,0.20969,0.51476,-0.15491
-0.04928,0.99799,0.03955,0.33314,0.51044,-0.20209
-0.06166,0.99683,0.0502,0.45493,0.54047,-0.24075
-0.06254,0.99687,0.04825,0.1692,0.44707,-0.31134
