gravity.x,gravity.y,gravity.z,userAcceleration.x,userAcceleration.y,userAcceleration.z
-0.49225,0.86498,0.0975,0.35071,-0.60217,-0.2704
-0.52936,0.83851,0.12913,0.48284,-0.62908,-0.3011
-0.55254,0.81616,0.16905,0.55731,-0.74857,-0.36331
-0.56014,0.80127,0.21026,0.69024,-0.9919,-0.42386
-0.55302,0.79625,0.24527,0.79756,-1.10634,-0.45778
-0.5326,0.80581,0.25884,0.79337,-1.15655,-0.38087
-0.49861,0.83207,0.24298,0.41385,-0.80164,0.06943
-0.46592,0.85714,0.21959,-0.6253,0.25988,0.89305
-0.4477,0.86342,0.23253,-0.98574,1.18358,1.22448
-0.44776,0.85528,0.26077,-0.78673,2.81078,1.42192
-0.46698,0.84346,0.26551,0.34488,-0.18215,0.25599
-0.48878,0.83049,0.26718,1.03996,-0.42637,0.61025
-0.50316,0.82914,0.24362,0.76229,0.87696,0.45537
-0.49927,0.84042,0.21076,1.31113,1.61118,-0.61803
-0.49013,0.84742,0.20407,0.62908,0.23116,0.23146
-0.48532,0.85728,0.17186,0.59667,-0.62566,-0.53795
-0.46762,0.87526,0.1235,0.30639,-0.18646,-1.10209
-0.42152,0.90473,0.0615,0.26029,-0.21594,-1.04009
-0.35811,0.93366,-0.00613,0.14447,0.64097,-0.41128
-0.29292,0.95436,-0.05821,-0.19777,0.37752,-0.16941
-0.23651,0.96406,-0.12106,-0.59518,0.1926,0.60229
-0.20087,0.96612,-0.16207,-0.08048,-0.52004,0.70601
-0.19089,0.96749,-0.16588,0.23192,-0.65849,0.27142
-0.18442,0.96606,-0.18088,0.50589,-0.55531,-0.17429
-0.16629,0.96146,-0.21896,0.50376,-0.33368,-0.13886
-0.13762,0.95679,-0.25614,0.35977,-0.05926,0.3561
-0.10268,0.95538,-0.27697,-0.31402,-0.00393,0.65476
-0.06605,0.95438,-0.29118,-0.68519,-0.17086,0.16231
-0.03829,0.95309,-0.30025,-0.4563,-0.11068,0.16876
-0.01656,0.95111,-0.30841,-0.4215,0.11321,0.39932
-0.00537,0.95064,-0.31024,-0.84722,0.12431,-0.02247
-0.01073,0.94825,-0.31735,-1.43762,-0.09778,-0.06508
-0.02587,0.94866,-0.31522,-0.89626,0.25893,0.62291
-0.04718,0.95411,-0.2957,-0.62085,0.25898,-0.0119
-0.08756,0.96045,-0.26433,-0.33919,-0.04697,0.52818
-0.14585,0.96456,-0.21987,-0.25583,0.64706,0.56478
-0.21677,0.95998,-0.17732,-0.16516,1.4306,-0.01947
-0.27633,0.95157,-0.13473,0.51414,1.56607,-0.05723
-0.31818,0.94328,-0.09481,0.61864,1.47153,0.24351
-0.35465,0.93315,-0.05869,0.63415,1.31351,0.30311
-0.3912,0.91991,-0.02704,0.44541,0.47151,0.36449
-0.42007,0.90748,0.00526,0.3128,-0.01537,-0.12396
-0.45779,0.88848,0.03217,-0.05826,-0.39258,-0.15743
-0.50879,0.85957,0.04761,0.14563,-0.54518,-0.25879
-0.55185,0.8308,0.07231,0.56019,-0.61979,-0.32526
-0.58031,0.80648,0.11327,0.75745,-0.79087,-0.42081
-0.59235,0.78876,0.16426,0.87631,-0.96141,-0.45186
-0.58811,0.78001,0.21379,0.92678,-0.94949,-0.47392
-0.56809,0.78622,0.24318,0.91567,-1.16908,-0.34184
-0.53205,0.81253,0.23813,0.45373,-0.95896,0.08778
-0.4926,0.84304,0.21594,-0.50877,-0.11167,0.91585
-0.46592,0.85709,0.21982,-0.9819,1.53545,0.68501
-0.46011,0.85285,0.24688,-1.07198,2.62999,1.21871
-0.4774,0.8406,0.25589,0.15204,1.66491,1.0387
-0.49604,0.82802,0.2614,0.79087,-0.50449,0.37672
-0.51042,0.82251,0.25087,0.18533,1.51911,0.36442
-0.51632,0.82903,0.21479,0.26795,2.13855,-0.65378
-0.51075,0.83506,0.20447,1.20098,0.52747,-0.40677
-0.5062,0.84327,0.18071,0.67372,-0.66623,-0.25323
-0.49399,0.85726,0.14518,0.60034,-0.5818,-0.525
-0.46072,0.88229,0.09646,0.15173,-0.01231,-1.09204
-0.40277,0.91457,0.03657,0.07037,0.80243,-0.58054
-0.33591,0.94161,-0.02299,-0.04183,0.5333,-0.28826
-0.27419,0.95883,-0.0739,-0.42767,0.23381,0.21508
-0.23258,0.96321,-0.13467,-0.12912,-0.53984,0.54522
-0.21509,0.96192,-0.16866,0.14696,-0.66599,0.34133
-0.20711,0.96078,-0.18443,0.35361,-0.66897,0.16315
-0.19163,0.95963,-0.20587,0.5014,-0.43432,-0.01513
-0.1627,0.95632,-0.24285,0.55717,-0.07624,0.11858
-0.12708,0.95494,-0.26821,0.33852,-0.05997,0.52686
-0.08843,0.95499,-0.28313,-0.60891,-0.10313,0.48086
-0.05784,0.95442,-0.29281,-0.71167,-0.25584,0.26114
-0.03881,0.95491,-0.29435,-0.35752,-0.14026,0.20913
-0.02299,0.95542,-0.29435,-0.33244,0.03081,0.13605
-0.01413,0.95364,-0.30061,-0.97035,0.01894,-0.27569
-0.02025,0.94754,-0.319,-1.44688,0.21608,0.22133
-0.03896,0.95009,-0.30953,-1.05835,0.28434,0.07129
-0.08437,0.94994,-0.30081,-0.45686,0.74828,0.11934
-0.15433,0.94978,-0.2722,-0.38722,1.0538,0.49726
-0.22493,0.94778,-0.22611,-0.16605,1.20997,0.75944
-0.28513,0.94216,-0.17618,0.45408,1.19537,-0.06771
-0.3263,0.93734,-0.12216,0.76003,0.87687,-0.07308
-0.35863,0.93064,-0.0728,0.89632,0.82615,0.306
-0.39084,0.92009,-0.02594,0.53536,0.53826,0.31106
-0.41994,0.90737,0.01793,0.35985,0.18511,0.11395
-0.45814,0.88754,0.04877,-0.14368,-0.14012,-0.1827
-0.51102,0.85685,0.06832,0.00513,-0.53522,-0.32733
-0.55487,0.82536,0.10443,0.25483,-0.68868,-0.42549
-0.58181,0.79959,0.14885,0.78161,-1.03318,-0.377
-0.5951,0.78015,0.19293,0.8883,-0.87017,-0.37309
-0.59631,0.76861,0.23163,0.8932,-0.77574,-0.36782
-0.58512,0.76943,0.25615,0.75205,-0.93581,-0.15576
-0.5635,0.78677,0.25191,0.5859,-0.91653,-0.0344
-0.53489,0.81539,0.22141,0.18429,-0.80279,0.34013
-0.5115,0.83452,0.20478,-0.95853,0.78955,0.74744
-0.49571,0.83825,0.22716,-0.78043,2.45578,1.01952
-0.49991,0.83051,0.24564,-0.30101,2.23039,1.04943
-0.51597,0.81912,0.25064,0.42109,-0.51165,0.3613
-0.5308,0.81113,0.24561,0.62693,-0.58478,0.52575
-0.53785,0.81884,0.20054,0.62586,1.06771,0.01366
-0.51864,0.8377,0.17108,1.64274,1.34421,-0.27792
-0.49815,0.8495,0.1738,0.09946,-0.13456,-0.36106
-0.49149,0.85833,0.14736,0.30783,-0.34764,-0.69384
-0.47766,0.87304,0.09816,0.23694,-0.3029,-0.98282
-0.43658,0.89889,0.03728,0.26014,0.21485,-0.66779
-0.37808,0.92545,-0.02443,0.2213,0.42679,-0.28909
-0.31691,0.94599,-0.06831,-0.15837,0.3324,-0.22539
-0.26509,0.95694,-0.11826,-0.56102,0.25067,0.5545
-0.22899,0.95843,-0.17025,-0.12816,-0.49316,0.62026
-0.21166,0.95914,-0.18773,0.19646,-0.67301,0.21393
-0.20286,0.95852,-0.2002,0.52479,-0.62226,0.09202
-0.18337,0.95474,-0.23418,0.54396,-0.30302,-0.06694
-0.15307,0.95146,-0.26702,0.27998,-0.08386,0.39191
-0.11901,0.95214,-0.28154,-0.41671,-0.14202,0.45513
-0.08345,0.95165,-0.29562,-0.66547,-0.05094,0.08338
-0.05869,0.95136,-0.30244,-0.59016,-0.05651,0.11248
-0.04328,0.95098,-0.30621,-0.45866,-0.14049,0.30687
-0.0348,0.95024,-0.30956,-0.52165,-0.08287,0.20165
-0.0351,0.94752,-0.31776,-0.78578,-0.01275,0.03795
-0.04726,0.94444,-0.32526,-1.09525,0.45367,0.63286
-0.06126,0.95035,-0.30509,-0.72751,0.3307,0.26145
-0.09059,0.95669,-0.27665,-0.56812,0.17397,0.02995
-0.14325,0.96116,-0.23589,-0.31853,0.69683,0.58317
-0.20701,0.95924,-0.19238,-0.1699,1.02566,0.29227
-0.27396,0.95026,-0.14814,0.29313,1.39962,-0.35692
-0.32287,0.94016,-0.10886,0.4958,1.28782,0.09041
-0.35973,0.93004,-0.07498,0.50952,1.1926,0.40138
-0.39807,0.91645,-0.0407,0.42294,0.70627,0.45815
-0.43008,0.90276,-0.00723,0.37916,0.14103,-0.00713
-0.46427,0.88528,0.0271,0.16129,-0.27668,-0.29007
-0.50685,0.86025,0.05543,0.27304,-0.72072,-0.2575
-0.5466,0.83269,0.08865,0.42673,-0.6626,-0.30943
-0.57431,0.80837,0.12926,0.74514,-0.91408,-0.28184
-0.58975,0.78967,0.16913,0.73401,-0.8965,-0.26036
-0.59305,0.77872,0.20463,0.73611,-0.89831,-0.33091
-0.58319,0.78075,0.22431,0.72151,-1.00205,-0.30005
-0.55762,0.80222,0.2133,0.61359,-0.95155,-0.04899
-0.51951,0.8346,0.18316,-0.06164,-0.37052,0.54976
-0.4922,0.85145,0.18105,-0.71232,0.43363,0.95805
-0.48879,0.84375,0.22175,-0.96504,3.12244,1.33565
-0.507,0.827,0.24293,-0.3647,1.65477,1.08823
-0.53584,0.80894,0.24185,0.36467,-0.61692,0.37798
-0.55265,0.80422,0.21863,1.37473,0.06916,0.20461
-0.54394,0.82161,0.17054,0.77269,1.0282,-0.28908
-0.51514,0.84422,0.14802,1.39861,1.68864,-0.71036
-0.50008,0.85561,0.13362,0.04355,0.03346,-0.78859
-0.49066,0.86519,0.1034,0.3991,-0.15921,-0.5277
-0.46863,0.88157,0.05661,0.29247,-0.2171,-0.71997
-0.41947,0.90776,0.00025,0.34756,0.34677,-0.61112
-0.35745,0.93242,-0.05305,0.2738,0.54475,-0.42701
-0.2982,0.94965,-0.09612,-0.18695,0.24992,-0.15063
-0.24644,0.95538,-0.16281,-0.34899,-0.06009,0.2973
-0.20622,0.95313,-0.22139,0.05684,-0.68412,0.67161
-0.18808,0.95381,-0.23424,0.27745,-0.72604,0.40429
-0.17701,0.95165,-0.25105,0.45443,-0.23157,-0.06099
-0.15458,0.94552,-0.28651,0.51617,-0.09237,-0.02627
-0.12659,0.94433,-0.30366,-0.08214,-0.12741,0.50373
-0.09783,0.94409,-0.31483,-0.52325,-0.2771,0.1206
-0.07254,0.94196,-0.32779,-0.53093,-0.1643,0.07985
-0.05138,0.94021,-0.33668,-0.70097,0.01543,0.29916
-0.03547,0.93841,-0.3437,-0.65502,0.13659,0.47906
-0.0263,0.93766,-0.34654,-0.76616,0.19912,0.11485
-0.03077,0.93394,-0.35609,-1.06742,0.13359,-0.12386
-0.0453,0.93323,-0.35641,-0.91068,0.26421,0.9295
-0.06492,0.94081,-0.33265,-0.71493,0.29135,0.15361
-0.10189,0.94826,-0.3007,-0.32302,-0.13788,0.38685
-0.15385,0.95406,-0.25708,-0.11016,0.36469,0.56645
-0.21973,0.9523,-0.21177,-0.06314,1.32295,0.20125
-0.28387,0.94406,-0.16783,0.33939,1.3822,-0.20002
-0.32945,0.93552,-0.12751,0.43953,1.45724,0.14817
-0.36453,0.92673,-0.091,0.50259,1.29641,0.41495
-0.40269,0.91347,-0.05846,0.38752,0.6696,0.48908
-0.43658,0.89928,-0.02626,0.29109,0.11355,-0.01452
-0.47763,0.87852,0.00855,-0.00794,-0.22334,-0.26921
-0.5256,0.84994,0.03671,0.22146,-0.56644,-0.1788
-0.56496,0.82206,0.07095,0.69237,-0.6444,-0.23892
-0.59331,0.79728,0.11097,0.85685,-0.77046,-0.32879
-0.60701,0.7796,0.15411,0.74088,-0.8884,-0.38795
-0.60681,0.77065,0.19462,0.79127,-1.04032,-0.44918
-0.59192,0.77564,0.21913,0.78431,-1.20644,-0.40716
-0.56123,0.79904,0.21577,0.68959,-1.01158,-0.0033
-0.52143,0.83192,0.18977,0.04199,-0.45805,0.50181
-0.48977,0.85136,0.18789,-0.41653,0.21327,1.0741
-0.47633,0.85081,0.22189,-0.93638,2.23391,0.87981
-0.49042,0.83757,0.24074,-0.01904,0.73252,0.55876
-0.51426,0.82383,0.23839,0.38941,-0.19143,0.24511
-0.52778,0.81693,0.23253,1.0709,0.0344,0.64719
-0.53158,0.82594,0.18776,0.37498,1.65402,-0.49052
-0.51129,0.84535,0.1548,1.08891,1.80148,-0.95535
-0.49388,0.85649,0.15002,-0.03192,-0.31852,-0.35827
-0.48638,0.86492,0.12386,0.36037,-0.45202,-0.50087
-0.47153,0.87783,0.08412,0.25757,-0.33826,-0.76323
-0.42788,0.90312,0.03588,0.25367,0.0569,-0.62918
-0.36398,0.9313,-0.01373,0.11285,0.47992,-0.41026
-0.3004,0.95239,-0.05208,-0.17651,0.43532,-0.29694
-0.24596,0.96423,-0.09878,-0.50523,0.24274,0.33982
-0.20539,0.96439,-0.16664,-0.31643,-0.47869,0.63533
-0.18144,0.96327,-0.19794,0.27027,-0.74816,0.426
-0.17233,0.96258,-0.20913,0.38539,-0.62355,0.08825
-0.15588,0.95993,-0.23288,0.28853,-0.3242,-0.06781
-0.13082,0.95308,-0.27299,0.22631,-0.11328,0.0301
-0.10506,0.94879,-0.29794,0.21493,-0.06532,0.37279
-0.07282,0.94704,-0.31273,-0.4806,-0.17548,0.35437
-0.04563,0.9467,-0.31886,-0.52563,-0.12721,0.03584
-0.0249,0.94559,-0.3244,-0.53542,0.04241,0.21978
-0.01279,0.94439,-0.32857,-0.53127,0.08211,0.40493
-0.00892,0.94672,-0.32194,-1.29441,-0.20552,-0.19015
-0.02191,0.94394,-0.32939,-1.38849,0.03348,-0.0016
-0.04578,0.94843,-0.31367,-1.07305,0.18648,0.49137
-0.086,0.95698,-0.2771,-0.60408,0.47666,0.48741
-0.1482,0.96283,-0.2258,-0.47118,0.75581,0.60777
-0.22223,0.95918,-0.17488,-0.12525,1.5801,0.24861
-0.28423,0.94953,-0.13266,0.43816,1.35375,-0.30906
-0.32235,0.94209,-0.09254,0.52202,1.09599,0.09187
-0.3602,0.93137,-0.05287,0.34156,1.03887,0.43214
-0.40033,0.91619,-0.01819,0.20837,0.63694,0.40832
-0.4406,0.89757,0.01535,0.15214,0.20544,-0.06165
-0.48725,0.87195,0.04776,0.10088,-0.35274,-0.13849
-0.53275,0.84293,0.07509,0.23791,-0.41214,-0.17667
-0.57021,0.81346,0.11465,0.73789,-0.703,-0.35794
-0.59179,0.79041,0.15817,0.81907,-0.97627,-0.41832
-0.59833,0.77539,0.20189,0.80836,-0.90712,-0.4245
-0.59387,0.76768,0.2408,0.74487,-0.89402,-0.43681
-0.57826,0.77099,0.26678,0.73128,-1.10634,-0.25483
-0.55282,0.79059,0.26334,0.54826,-1.01239,-0.01881
-0.52199,0.82012,0.23436,0.28426,-0.8313,0.21021
-0.49912,0.83815,0.21995,-0.86667,0.83597,0.90371
-0.48047,0.84436,0.23704,-0.50662,2.6575,1.2898
-0.48577,0.83804,0.24842,-0.50132,2.66383,1.27842
-0.50194,0.82817,0.24937,0.45688,-0.68135,0.24452
-0.51696,0.8191,0.24864,0.63494,-0.68273,0.44965
-0.52495,0.82949,0.1907,0.13442,1.05903,-0.08771
-0.51027,0.84745,0.14648,1.33955,1.15936,0.04416
-0.49534,0.85811,0.13515,0.36224,0.20884,0.31599
-0.48801,0.86603,0.10881,0.41139,-0.31767,-0.49941
-0.46651,0.88156,0.07226,0.31561,-0.2308,-0.75392
-0.41941,0.90754,0.02163,0.23995,-0.00542,-0.65565
-0.36161,0.93181,-0.03109,0.1137,0.36382,-0.3905
-0.30535,0.9495,-0.07217,-0.21987,0.31896,-0.16854
-0.25759,0.95776,-0.12785,-0.46563,0.12502,0.26815
-0.22203,0.9568,-0.18769,-0.12398,-0.54457,0.63
-0.20372,0.95703,-0.20637,0.30653,-0.68263,0.36532
-0.1963,0.9555,-0.22018,0.45869,-0.57002,0.08359
-0.17861,0.95001,-0.25609,0.4443,-0.2851,-0.14031
-0.15205,0.94333,-0.29497,0.41743,-0.03241,0.32885
-0.11605,0.94212,-0.31454,-0.40449,-0.09201,0.68445
-0.08359,0.94217,-0.32454,-0.57512,-0.15452,0.19799
-0.05932,0.94165,-0.33132,-0.66212,-0.03857,0.19991
-0.04559,0.94043,-0.33692,-0.63251,0.03981,0.29944
-0.0374,0.94056,-0.33756,-0.67705,0.06966,0.07594
-0.04229,0.93772,-0.34481,-1.25915,-0.01191,-0.05286
-0.05944,0.93674,-0.34494,-0.87299,0.22584,0.78388
-0.08831,0.942,-0.3238,-0.69796,0.16865,0.0611
-0.14153,0.94554,-0.29313,-0.66406,0.26186,0.19758
-0.20805,0.94596,-0.24876,-0.46091,1.21881,0.76696
-0.2749,0.93945,-0.20459,0.28958,1.45732,0.23991
-0.32756,0.93043,-0.16434,0.66914,1.3122,-0.14374
-0.36747,0.92182,-0.12334,0.71286,1.37614,0.31057
-0.40127,0.91185,-0.08659,0.52565,0.95329,0.49515
-0.42912,0.90187,-0.04981,0.19966,0.34131,0.27494
-0.46208,0.8868,-0.007,-0.08349,-0.01997,-0.25398
-0.51388,0.85737,0.02892,-0.14371,-0.42309,-0.26287
-0.56123,0.82504,0.06571,0.39265,-0.61676,-0.36634
-0.59415,0.79525,0.12069,0.77089,-0.81076,-0.48008
-0.61159,0.77032,0.18041,0.94254,-0.91928,-0.51226
-0.61679,0.75126,0.23488,0.9258,-0.80774,-0.38231
-0.61211,0.74178,0.27401,0.84508,-0.96743,-0.339
-0.59778,0.74935,0.2848,0.76612,-1.08784,-0.19914
-0.57118,0.77793,0.26186,0.20695,-0.78011,0.23282
-0.54855,0.80224,0.23559,-0.45354,-0.34661,0.56386
-0.53141,0.81293,0.2382,-1.13829,0.92295,1.01522
-0.51874,0.815,0.25821,-0.01816,1.944,0.95775
-0.52361,0.81038,0.26289,0.48896,0.10991,0.30068
-0.53297,0.80264,0.26779,0.9569,0.07552,0.69837
-0.54773,0.80342,0.23345,0.59624,2.12532,-0.55491
-0.54739,0.81107,0.20621,1.14256,0.41031,-0.11121
-0.53913,0.82016,0.19148,0.64361,-0.82174,-0.39703
-0.52751,0.83485,0.15732,0.61705,-0.59194,-0.64104
-0.50512,0.8558,0.1116,0.42921,-0.51994,-1.01362
-0.46158,0.88539,0.05501,0.22246,0.58234,-0.68583
-0.39874,0.917,-0.00983,0.00925,1.00385,-0.35547
-0.33376,0.94042,-0.06485,-0.32631,0.39844,-0.0791
-0.27839,0.95273,-0.12163,-0.53613,-0.03701,0.53651
-0.24801,0.95507,-0.16225,-0.04454,-0.58785,0.33571
-0.23362,0.9545,-0.18535,0.30311,-0.67158,0.26631
-0.21924,0.95328,-0.20783,0.39882,-0.63231,0.12467
-0.19381,0.95242,-0.23522,0.34045,-0.40046,0.16277
-0.15866,0.9508,-0.26609,0.28155,-0.13027,0.17987
-0.12212,0.94951,-0.28898,0.10259,0.02046,0.4269
-0.08468,0.9478,-0.30742,-0.6751,0.0073,0.52641
-0.05619,0.94628,-0.31841,-0.61552,-0.11837,0.15995
-0.03772,0.94575,-0.32268,-0.37792,-0.12791,0.25533
-0.02326,0.94499,-0.32626,-0.4853,-0.11496,0.334
-0.01798,0.94398,-0.32951,-0.72219,-0.15336,-0.11485
-0.02509,0.9392,-0.34245,-0.95862,-0.0147,-0.01149
-0.03626,0.93887,-0.34235,-0.74415,0.55837,0.90931
-0.04993,0.94638,-0.31917,-0.6566,0.3844,0.19193
-0.08202,0.95391,-0.28866,-0.65068,0.21034,0.6383
-0.1333,0.96092,-0.24259,-0.45738,0.2458,0.39467
-0.1938,0.9612,-0.19629,0.11973,1.23051,-0.06422
-0.25925,0.95308,-0.15629,0.33254,1.33924,-0.1704
-0.30762,0.94412,-0.1183,0.37957,1.22372,0.24959
-0.34743,0.93409,-0.08219,0.40175,1.01995,0.48805
-0.38778,0.92057,-0.04666,0.38534,0.67273,0.48052
-0.4252,0.90492,-0.01769,0.31178,0.18898,0.12943
-0.46519,0.8852,0.00426,0.11017,-0.16005,-0.10393
-0.51308,0.85808,0.02091,0.141,-0.51503,-0.21663
-0.55773,0.82868,0.04708,0.33484,-0.49809,-0.19905
-0.5891,0.80374,0.08336,0.47264,-0.66534,-0.2762
-0.60696,0.78464,0.12619,0.69018,-0.88001,-0.36299
-0.61154,0.77245,0.17127,0.75524,-0.83272,-0.46891
-0.60225,0.77117,0.20636,0.81984,-0.9304,-0.48496
-0.57786,0.78752,0.21419,0.78687,-0.98365,-0.1724
-0.53982,0.81909,0.19411,0.28774,-0.60519,0.38425
-0.50692,0.84328,0.17861,-0.2059,-0.09592,0.75306
-0.48894,0.8488,0.20116,-0.77245,2.73403,1.05555
-0.49814,0.83733,0.22521,-0.13061,1.31106,0.97828
-0.52565,0.81973,0.22742,0.54358,-0.59441,0.32707
-0.54487,0.807,0.22772,1.4472,-0.39219,0.49525
-0.54729,0.81473,0.1915,0.76529,1.36565,-0.26887
-0.52277,0.83601,0.1667,1.04791,1.72132,-0.63961
-0.50353,0.84792,0.16575,-0.3373,0.21151,-0.79673
-0.49957,0.85539,0.13687,0.30614,-0.20651,-0.64806
-0.48853,0.86841,0.08484,0.29783,-0.18399,-0.73122
-0.45194,0.89146,0.03223,0.22574,-0.10809,-0.61028
-0.39402,0.9189,-0.01918,0.0932,0.14923,-0.20217
-0.3313,0.94121,-0.066,-0.23422,0.50966,-0.28396
-0.28162,0.95201,-0.11985,-0.54536,0.62782,0.30251
-0.253,0.95015,-0.18223,-0.02378,-0.43638,0.52585
-0.23991,0.9472,-0.2127,0.52278,-0.64641,0.47981
-0.23152,0.94533,-0.22965,0.67697,-0.57517,0.22095
-0.21151,0.94242,-0.25904,0.65273,-0.35162,0.10547
-0.18057,0.94005,-0.28928,0.08955,-0.18932,0.26748
-0.14675,0.93796,-0.31416,-0.20689,-0.14603,0.47414
-0.11238,0.93677,-0.33141,-0.42751,-0.01302,0.51343
-0.07848,0.93913,-0.33448,-0.29403,-0.02284,0.39304
-0.04797,0.94266,-0.33028,-0.49598,-0.04324,0.21511
-0.02657,0.94295,-0.33188,-0.78536,0.11199,-0.1506
-0.02011,0.93855,-0.34454,-1.28028,0.06566,-0.27113
-0.02301,0.93862,-0.34418,-0.86871,0.24502,1.18017
-0.03759,0.944,-0.32779,-0.85081,0.4127,-0.18981
-0.08075,0.9467,-0.31183,-0.61829,0.38956,-0.00232
-0.14059,0.94958,-0.28021,-0.39385,0.67886,0.52394
-0.20143,0.9493,-0.24135,-0.06846,0.75645,0.72607
-0.25539,0.94575,-0.20083,0.3783,0.86128,0.22042
-0.30212,0.94008,-0.15799,0.56986,1.02476,-0.06305
-0.33986,0.93292,-0.11896,0.56779,1.06697,0.26926
-0.36857,0.92626,-0.07872,0.35369,0.65361,0.42685
-0.39714,0.91684,-0.041,0.24149,0.26107,0.25179
-0.42908,0.9032,-0.01044,0.11489,0.00221,-0.08822
-0.47437,0.8803,0.00605,-0.04532,-0.30858,-0.09121
-0.52072,0.85336,0.025,0.25923,-0.67884,-0.25365
-0.55892,0.82717,0.05809,0.3332,-0.66082,-0.18486
-0.58376,0.80601,0.09778,0.59605,-0.89575,-0.29523
-0.5968,0.79005,0.14014,0.67466,-0.86234,-0.3294
-0.59916,0.78065,0.17773,0.74555,-0.80936,-0.33053
-0.58937,0.78253,0.20068,0.71491,-0.80237,-0.19746
-0.56784,0.7993,0.19664,0.6501,-0.80388,-0.0739
-0.53662,0.82786,0.16334,0.13304,-0.59028,0.55716
-0.51047,0.85002,0.12988,-0.70304,0.4917,0.93935
-0.48863,0.86093,0.14154,-0.85303,2.30985,1.04102
-0.4939,0.854,0.16353,-0.30913,1.61355,1.05775
-0.51585,0.83951,0.17063,0.13448,-0.20857,0.55673
-0.53711,0.82675,0.16733,0.69937,-0.45358,0.543
-0.54295,0.83051,0.12433,0.48498,1.2037,-0.34866
-0.52552,0.84733,0.07653,1.11112,1.64893,-0.74084
-0.5004,0.8628,0.07196,0.47758,-0.2056,-0.00746
-0.4823,0.87448,0.0516,0.24054,-0.28976,-0.40632
-0.46115,0.88703,0.02268,0.23065,-0.07375,-0.71474
-0.42122,0.90687,-0.01204,0.19666,0.1995,-0.54126
-0.36405,0.93004,-0.04987,0.13895,0.3654,-0.29672
-0.30163,0.94962,-0.08501,-0.20351,0.32499,-0.0784
-0.24946,0.95945,-0.13122,-0.34525,0.11749,0.16926
-0.21138,0.95698,-0.19873,0.07203,-0.7659,0.35766
-0.18576,0.95115,-0.24659,0.4897,-0.66665,0.49438
-0.17192,0.95073,-0.25799,0.39599,-0.52616,0.31697
-0.15107,0.9479,-0.28044,0.09275,-0.04109,-0.00857
-0.12283,0.9419,-0.31262,-0.10914,-0.11721,0.50174
-0.09884,0.93992,-0.32675,-0.47414,-0.24522,0.35721
-0.07348,0.93846,-0.33747,-0.53736,0.01688,0.09935
-0.05417,0.93739,-0.34404,-0.57067,0.07313,0.27796
-0.04171,0.93622,-0.34893,-0.58076,0.01196,0.43034
-0.03301,0.93614,-0.35007,-0.63078,0.01235,0.14589
-0.02917,0.93669,-0.34894,-1.26031,0.00499,-0.21103
-0.04187,0.93162,-0.36099,-1.06068,0.11473,0.45398
-0.0711,0.935,-0.34744,-0.9623,0.49161,-0.01375
-0.1264,0.93656,-0.32691,-0.29314,0.94784,0.32043
-0.19507,0.93572,-0.29389,-0.04985,1.43074,0.95942
-0.25583,0.93429,-0.24829,0.38896,1.18967,0.11527
-0.30577,0.93069,-0.20078,0.61876,0.94161,-0.20927
-0.33911,0.92808,-0.15385,0.72577,0.74482,0.20077
-0.36225,0.92466,-0.11735,0.40775,0.52261,0.43292
-0.38657,0.91923,-0.07462,-0.00491,0.21315,0.29505
-0.41352,0.91007,-0.02767,-0.08553,0.0097,-0.07661
-0.45413,0.8909,0.00679,-0.0307,-0.26625,-0.18227
-0.49726,0.8669,0.03469,0.35817,-0.56923,-0.29394
-0.53404,0.84249,0.07075,0.50311,-0.67465,-0.26483
-0.55975,0.82097,0.11258,0.72466,-0.85438,-0.3407
-0.57364,0.80484,0.15217,0.80747,-0.92752,-0.35744
-0.57504,0.79678,0.18564,0.77128,-0.94604,-0.31934
-0.56347,0.79929,0.20884,0.68553,-0.93171,-0.21233
-0.5414,0.81402,0.21033,0.5809,-0.86325,0.02308
-0.51191,0.83839,0.18718,0.10238,-0.56364,0.54512
-0.49134,0.85529,0.16448,-0.6437,0.44976,1.01646
-0.4753,0.86212,0.17556,-0.64469,1.19801,0.49259
-0.48149,0.85331,0.20003,-0.22008,1.58158,0.97406
-0.49981,0.84029,0.20995,0.25239,-0.28211,0.41766
-0.51441,0.8299,0.21596,0.7215,-0.06081,0.7164
-0.52537,0.82918,0.19087,0.14025,1.8424,-0.07126
-0.52564,0.83793,0.14683,1.16695,0.109,0.21381
-0.51533,0.8454,0.14039,0.70511,-0.7181,0.12418
-0.50258,0.85747,0.11019,0.72474,-0.62574,-0.2404
-0.47911,0.87463,0.07389,0.43691,-0.03212,-1.02579
-0.43345,0.90042,0.03686,0.27979,0.34497,-0.88797
-0.37006,0.92896,0.00826,0.03612,0.68755,-0.49085
-0.30028,0.95357,-0.02306,-0.46085,0.27826,-0.00595
-0.23658,0.96914,-0.06918,-0.68178,-0.12417,0.32986
-0.19195,0.97206,-0.13508,-0.63329,-0.44696,0.41128
-0.16971,0.96731,-0.18839,0.1898,-0.75203,0.31095
-0.16708,0.96416,-0.20609,0.36461,-0.55966,0.15755
-0.16473,0.96095,-0.22231,0.41255,-0.38794,0.07718
-0.14347,0.95302,-0.26675,0.48074,0.17041,0.56468
-0.11862,0.9506,-0.28686,-0.37535,0.07501,0.77475
-0.09035,0.95069,-0.29667,-0.6817,-0.05001,0.47462
-0.06446,0.94834,-0.31062,-0.4759,-0.18339,-0.00615
-0.04921,0.94639,-0.31924,-0.35543,-0.10476,0.36226
-0.03479,0.94445,-0.3268,-0.30939,0.04914,0.31701
-0.02521,0.94335,-0.33083,-0.7156,0.15737,-0.1495
-0.02628,0.93992,-0.34038,-1.01765,0.25697,0.19725
-0.03548,0.93839,-0.34375,-0.74093,0.41987,0.68167
-0.049,0.94359,-0.32746,-0.60073,0.02606,-0.06299
-0.08113,0.94816,-0.30726,-0.57983,0.13671,0.3016
-0.13535,0.9529,-0.27141,-0.49595,0.5235,0.50933
-0.19918,0.95362,-0.22567,-0.10648,1.11753,0.32293
-0.2624,0.94813,-0.1794,0.53087,1.27652,-0.16356
-0.31068,0.94114,-0.13316,0.71868,1.15029,0.14738
-0.3453,0.93407,-0.09099,0.59327,0.84076,0.40479
-0.37812,0.92409,-0.05536,0.38078,0.38841,0.39797
-0.41117,0.91113,-0.02786,0.22398,-0.00149,0.06644
-0.44437,0.89583,-0.00432,-0.03432,-0.27191,-0.03136
-0.48783,0.87285,0.01186,-0.07941,-0.50539,-0.09486
-0.53348,0.84531,0.02912,0.18098,-0.52936,-0.14585
-0.56753,0.8215,0.05502,0.45864,-0.6993,-0.1575
-0.58916,0.80349,0.08538,0.67629,-0.86243,-0.22629
-0.60029,0.79094,0.11851,0.74635,-0.81019,-0.31341
-0.60113,0.78465,0.1515,0.77828,-0.86763,-0.40167
-0.58941,0.78919,0.1725,0.71584,-1.06242,-0.23566
-0.56304,0.80978,0.165,0.62658,-0.96376,0.04335
-0.52812,0.83801,0.13714,-0.16104,-0.3154,0.55347
-0.50195,0.85419,0.13563,-0.90856,1.45618,1.00099
-0.49491,0.85187,0.17138,-0.91244,2.63147,1.28318
-0.50611,0.84264,0.18384,-0.07079,0.0813,0.63226
-0.52294,0.83249,0.18298,0.27935,-0.74434,0.35209
-0.53659,0.82641,0.17062,1.092,0.7022,0.37145
-0.53602,0.83615,0.1163,1.78274,2.61208,-0.76347
-0.51197,0.8511,0.1162,0.20705,-0.29548,-0.11721
-0.49496,0.86077,0.11863,0.05028,-0.74054,-0.71302
-0.48829,0.86839,0.08635,0.43451,-0.4891,-0.93757
-0.46952,0.88221,0.0353,0.4459,0.13912,-0.8592
-0.42718,0.90399,-0.01771,0.35459,0.3687,-0.51755
-0.36378,0.92903,-0.06748,-0.02096,0.58,-0.37326
-0.30585,0.94643,-0.10351,-0.27702,0.43252,-0.05774
-0.25737,0.95105,-0.17102,-0.53962,-0.10254,0.54968
-0.2205,0.95022,-0.22012,0.20611,-0.73091,0.32055
-0.20982,0.94997,-0.23137,0.26474,-0.6749,0.26071
-0.20099,0.94585,-0.25486,0.43983,-0.25912,-0.11927
-0.17818,0.93783,-0.29785,0.25804,-0.02331,0.32178
-0.14874,0.93374,-0.32558,-0.285,0.0032,0.7817
-0.11255,0.93439,-0.338,-0.56388,-0.10683,0.24215
-0.0812,0.93499,-0.34524,-0.53572,-0.06946,0.12648
-0.05795,0.93537,-0.34889,-0.5921,-0.00664,0.39032
-0.04496,0.93493,-0.35197,-0.57466,0.03233,0.43368
-0.03889,0.93609,-0.3496,-0.92863,-0.11709,-0.16933
-0.04439,0.93379,-0.35503,-1.16047,0.0525,0.13249
-0.0589,0.93251,-0.35629,-0.74028,0.26655,0.58462
-0.07939,0.9392,-0.33406,-0.57605,0.38676,0.45558
-0.12129,0.94494,-0.30393,-0.41146,0.29263,0.35307
-0.17897,0.94865,-0.26083,-0.28908,0.93711,0.59234
-0.24188,0.94588,-0.21633,0.32545,1.27283,-0.07519
-0.29952,0.9377,-0.17607,0.47551,1.26927,-0.16823
-0.34081,0.92979,-0.13901,0.47068,1.23209,0.28181
-0.37464,0.92126,-0.10448,0.3371,0.72411,0.56876
-0.40741,0.91034,-0.07272,0.29156,0.27646,0.28435
-0.43934,0.89724,-0.04383,0.19198,-0.09381,-0.11883
-0.47847,0.87787,-0.02005,0.05635,-0.36166,-0.06428
-0.52397,0.85173,-0.00141,0.31478,-0.61611,-0.19105
-0.56572,0.82418,0.0259,0.5562,-0.56225,-0.13558
-0.59677,0.80017,0.05986,0.6333,-0.74852,-0.23074
-0.61394,0.78287,0.1009,0.62725,-0.75546,-0.30515
-0.61816,0.77262,0.14466,0.70986,-0.69805,-0.3955
-0.60905,0.77216,0.18118,0.77903,-0.83023,-0.25697
-0.58641,0.78773,0.18866,0.68324,-0.97729,0.04369
-0.55252,0.81793,0.16029,0.19564,-0.73766,0.44336
-0.52157,0.84278,0.13292,-0.68993,0.33875,1.09306
-0.49986,0.85284,0.15097,-0.92896,2.3583,1.09247
-0.50672,0.84275,0.18163,-0.10541,1.62775,1.22508
-0.52887,0.82638,0.19333,0.45575,-0.39607,0.36344
-0.55004,0.81261,0.19261,0.44144,0.85409,0.4281
-0.55862,0.81553,0.15111,0.74079,2.26697,-0.78929
-0.55811,0.8209,0.12093,0.84829,-0.11542,-0.05197
-0.54799,0.8308,0.09727,0.79387,-0.53908,-0.03616
-0.53013,0.84515,0.0684,0.63706,-0.38727,-0.37014
-0.49873,0.86616,0.03189,0.47432,-0.17219,-0.72073
-0.44536,0.89524,-0.01379,0.12897,0.76613,-0.4907
-0.38304,0.92209,-0.05489,0.00472,0.58874,-0.21297
-0.32223,0.94209,-0.09287,-0.26543,0.21616,0.01818
-0.27346,0.95095,-0.14457,-0.4346,-0.06527,0.32246
-0.24243,0.94859,-0.20344,-0.21602,-0.60246,0.45709
-0.22647,0.94543,-0.23423,0.30862,-0.54753,0.28695
-0.22071,0.94268,-0.25027,0.37996,-0.3305,0.1309
-0.20719,0.93792,-0.27816,0.37589,-0.13488,0.09142
-0.18516,0.92981,-0.31806,0.24258,-0.04688,0.47216
-0.15695,0.92801,-0.33787,-0.33537,-0.19348,0.58166
-0.12142,0.92991,-0.34716,-0.52454,-0.18403,0.28681
-0.09508,0.93095,-0.35254,-0.37574,-0.04843,0.20781
-0.07815,0.92999,-0.35918,-0.32232,-0.08851,0.36423
-0.06583,0.92909,-0.36394,-0.37564,-0.01906,0.42051
-0.05736,0.93071,-0.36121,-1.18553,-0.11567,-0.21814
-0.06298,0.92543,-0.37364,-1.37345,0.13687,-0.03063
-0.0784,0.92883,-0.36211,-0.77629,0.27047,0.44691
-0.10477,0.93702,-0.33317,-0.43336,0.17919,0.58015
-0.15244,0.94257,-0.29718,-0.37798,0.56414,0.59863
-0.20962,0.94495,-0.25121,-0.19393,1.14899,0.22209
-0.27439,0.93918,-0.20651,0.27593,1.38108,-0.36376
-0.32351,0.93158,-0.16579,0.38761,1.25276,0.17398
-0.35563,0.9251,-0.13308,0.29515,0.97082,0.56643
-0.39396,0.91331,-0.10315,0.33549,0.53159,0.54683
-0.43486,0.89725,-0.0763,0.33802,0.08136,0.08282
-0.47825,0.87694,-0.04742,0.14208,-0.31341,-0.08426
-0.52561,0.8504,-0.02307,0.15333,-0.43204,-0.03639
-0.57042,0.82131,0.00677,0.27434,-0.45802,-0.22548
-0.60368,0.79577,0.04808,0.61219,-0.81058,-0.29596
-0.62161,0.77788,0.09213,0.68647,-0.86623,-0.27318
-0.62582,0.76853,0.13301,0.77759,-0.77598,-0.33505
-0.61954,0.7674,0.16508,0.84245,-0.86723,-0.37267
-0.6013,0.77893,0.178,0.73775,-1.00387,-0.12538
-0.56942,0.80572,0.16299,0.57971,-0.87133,0.26623
-0.53323,0.83546,0.13289,-0.21538,-0.08655,0.98655
-0.50894,0.84985,0.13684,-1.07658,1.72897,0.82576
-0.50784,0.84402,0.17239,-0.71042,2.64557,1.19594
-0.52707,0.82895,0.18716,0.15109,0.09189,0.36824
-0.54675,0.81436,0.1946,0.69874,-1.09738,0.4407
-0.55499,0.81212,0.1801,0.87663,0.27951,0.28103
-0.54122,0.82973,0.13642,0.98365,1.65158,-0.7754
-0.50621,0.85127,0.13813,1.03895,1.79216,0.58034
-0.4906,0.85915,0.14547,-0.2495,-0.08503,-0.89825
-0.48779,0.86689,0.10272,0.39189,-0.49198,-0.80135
-0.47549,0.8793,0.02685,0.4157,-0.25583,-0.81001
-0.43289,0.90035,-0.04433,0.43579,0.04004,-0.19726
-0.36844,0.92451,-0.09763,0.23016,0.4952,-0.27688
-0.31363,0.94185,-0.12058,-0.09315,0.42387,-0.17721
-0.27212,0.94755,-0.16762,-0.34054,-0.0532,0.52775
-0.24109,0.94244,-0.23166,0.19858,-0.75618,0.36829
-0.22314,0.93625,-0.27135,0.62945,-0.44883,0.45383
-0.21057,0.93235,-0.29388,0.52739,-0.29512,0.26596
-0.18169,0.92801,-0.32525,0.42373,-0.1501,0.12818
-0.14882,0.92566,-0.34784,-0.46059,-0.14882,0.42239
-0.11389,0.9245,-0.36377,-0.61473,-0.09968,0.24053
-0.08357,0.92314,-0.37526,-0.49515,0.09871,0.18788
-0.06004,0.92221,-0.38199,-0.45612,0.03079,0.3967
-0.03814,0.92096,-0.38778,-0.611,0.05498,0.48389
-0.02438,0.92124,-0.38823,-1.01004,-0.00684,0.03479
-0.02495,0.91973,-0.39175,-1.30322,0.03857,0.00352
-0.04095,0.91567,-0.39982,-0.69123,0.26058,1.13351
-0.05906,0.92606,-0.3727,-0.60631,0.15703,0.05292
-0.09752,0.9336,-0.34478,-0.38223,0.40518,0.35583
-0.15574,0.93921,-0.30596,-0.38785,1.08627,0.65438
-0.21962,0.93979,-0.26184,0.1347,1.28702,0.00381
-0.27562,0.93637,-0.21732,0.39022,1.17688,-0.0771
-0.3162,0.93314,-0.17106,0.44281,1.12708,0.07134
-0.35154,0.9272,-0.12923,0.27125,0.84079,0.67087
-0.3879,0.91719,-0.09097,0.19664,0.31062,0.31352
-0.4191,0.90645,-0.052,0.12773,-0.11371,-0.20611
-0.4566,0.88952,-0.01598,-0.03077,-0.41029,-0.11518
-0.50135,0.86515,0.01255,0.25403,-0.49473,-0.24081
-0.5426,0.83866,0.04714,0.4789,-0.58573,-0.25788
-0.57236,0.81499,0.09047,0.65739,-0.74367,-0.32798
-0.58864,0.79633,0.1391,0.70466,-0.80851,-0.33226
-0.59075,0.78532,0.18514,0.75717,-0.92356,-0.43138
-0.57933,0.7867,0.21324,0.8015,-1.14085,-0.34331
-0.55539,0.80541,0.20696,0.73371,-1.05898,-0.06382
-0.52142,0.8341,0.17995,0.11525,-0.50469,0.59239
-0.4972,0.85008,0.17359,-0.75408,0.84235,1.04932
-0.48565,0.85166,0.19699,-0.71831,2.77456,1.30417
-0.49894,0.84105,0.20899,0.18347,1.08814,0.82412
-0.521,0.82741,0.20963,0.69599,-0.67866,0.4218
-0.53526,0.81737,0.21307,0.90472,0.67479,0.69678
-0.53911,0.82231,0.18209,0.48949,2.07596,-0.88721
-0.52811,0.8339,0.16029,0.96117,0.27561,-0.0861
-0.51877,0.84226,0.14652,0.2778,-0.42206,-0.48589
-0.5123,0.85197,0.10807,0.44649,-0.43058,-0.73015
-0.48694,0.87189,0.05186,0.37027,-0.1884,-0.91543
-0.43698,0.89945,-0.00522,0.21916,0.32707,-0.50546
-0.37375,0.92584,-0.0559,0.02162,0.48238,-0.26643
-0.31673,0.94437,-0.0885,-0.31002,0.46508,-0.19245
-0.2769,0.95062,-0.14016,-0.24085,-0.25442,0.35264
-0.25445,0.94522,-0.20445,0.37598,-0.70735,0.69011
-0.24057,0.9417,-0.23519,0.51659,-0.63248,0.56777
-0.23205,0.93949,-0.25201,0.48957,-0.31937,-0.02146
-0.21143,0.93546,-0.28319,0.38384,-0.14068,-0.09495
-0.18174,0.92951,-0.32089,0.23849,-0.06307,0.16066
-0.1484,0.92724,-0.34381,-0.55332,-0.05805,0.54301
-0.11303,0.92665,-0.35852,-0.5951,-0.0085,0.23991
-0.08991,0.92697,-0.36419,-0.556,-0.01774,0.28296
-0.07464,0.92603,-0.36999,-0.41109,0.0284,0.44893
-0.06243,0.92791,-0.36753,-0.78583,-0.01519,-0.00099
-0.05705,0.92859,-0.36668,-1.57803,0.11059,-0.19401
-0.07222,0.92203,-0.38031,-0.8816,0.21897,1.26054
-0.09368,0.93063,-0.35377,-0.65675,0.17121,0.11916
-0.13649,0.93488,-0.32767,-0.33986,0.42009,0.32642
-0.19642,0.93675,-0.28965,-0.35303,1.29373,0.73561
-0.26003,0.9326,-0.25027,0.30969,1.56923,0.04196
-0.31124,0.92656,-0.21118,0.59426,1.32589,-0.12602
-0.34192,0.924,-0.1712,0.58265,0.83366,0.39127
-0.36817,0.9205,-0.13085,0.40299,0.60907,0.47882
-0.39572,0.9136,-0.09347,0.20028,0.1979,0.28415
-0.42233,0.90472,-0.05581,0.11597,-0.17783,-0.12003
-0.45493,0.89028,-0.02063,-0.03716,-0.408,-0.11042
-0.49792,0.86722,0.00073,0.12972,-0.46461,-0.09971
-0.53682,0.84335,0.02403,0.3103,-0.50087,-0.17227
-0.56614,0.8223,0.05739,0.57671,-0.74215,-0.21523
-0.58482,0.80547,0.09585,0.64993,-0.81891,-0.25625
-0.59176,0.7948,0.1345,0.70515,-0.86304,-0.40301
-0.58555,0.79433,0.16173,0.76054,-1.07103,-0.41162
-0.56316,0.80984,0.16428,0.72899,-1.01802,-0.13009
-0.52868,0.83659,0.14355,0.53353,-0.88259,0.06463
-0.49985,0.85655,0.12827,-0.70042,1.25528,0.81518
-0.48441,0.8622,0.14815,-0.78817,2.22064,0.95835
-0.49353,0.85237,0.17284,-0.19315,1.51028,1.09153
-0.5179,0.83702,0.17652,0.33573,-0.21805,0.35153
-0.53761,0.82462,0.17597,0.96129,-0.57189,0.57649
-0.5459,0.82317,0.15612,0.71736,1.32687,0.38891
-0.5363,0.83574,0.11796,1.20027,1.86545,-0.77934
-0.51815,0.84902,0.10335,0.17136,0.19343,-0.08878
-0.5095,0.85827,0.06136,0.22758,-0.32736,-0.77888
-0.49468,0.86898,0.012,0.37338,-0.55714,-0.84301
-0.45831,0.888,-0.03752,0.32574,0.17788,-0.51964
-0.39803,0.91358,-0.08323,0.20561,0.58512,-0.1887
-0.33024,0.93687,-0.11488,-0.30898,0.62073,-0.09811
-0.27988,0.94811,-0.15082,-0.42387,0.34491,0.29036
-0.24816,0.94546,-0.21096,0.1431,-0.74449,0.31814
-0.2295,0.93969,-0.25359,0.51313,-0.63587,0.26436
-0.22385,0.93408,-0.27815,0.59943,-0.48479,0.25012
-0.21206,0.92797,-0.3064,0.35893,0.08796,0.28384
-0.18462,0.92268,-0.33848,-0.28306,-0.13842,0.40638
-0.1606,0.91996,-0.35759,-0.42618,-0.27464,0.41887
-0.13937,0.91912,-0.36849,-0.25492,-0.11964,0.21423
-0.11645,0.91811,-0.37883,-0.25545,-0.01273,0.20404
-0.09645,0.91822,-0.38412,-0.32816,-0.07266,0.48506
-0.07756,0.91838,-0.38801,-0.66868,0.12127,0.48
-0.06572,0.91983,-0.38676,-0.77601,0.12819,0.34326
-0.06178,0.92089,-0.38489,-1.13211,0.0914,-0.08958
-0.07206,0.91708,-0.39212,-0.84253,0.11104,0.59904
-0.08799,0.92433,-0.3713,-0.74083,0.1761,0.58071
-0.12062,0.93334,-0.33812,-0.57797,0.47459,0.39647
-0.16956,0.94067,-0.2939,-0.34525,0.92156,0.55533
-0.2241,0.94141,-0.25202,0.12728,1.15921,-0.1047
-0.27153,0.93815,-0.21479,0.36649,0.8648,0.07337
-0.30257,0.93714,-0.17381,0.23453,0.69725,0.21098
-0.33706,0.93239,-0.13045,0.14653,0.69355,0.32763
-0.37555,0.92235,-0.0906,0.22263,0.39529,0.39906
-0.41183,0.9095,-0.05652,0.26658,0.09065,0.03244
-0.45188,0.89153,-0.0312,0.10622,-0.20758,0.03064
-0.49558,0.86846,-0.01265,0.14405,-0.30421,0.02086
-0.53796,0.84281,0.01562,0.41049,-0.44924,-0.14085
-0.57084,0.81953,0.04995,0.48782,-0.6757,-0.22301
-0.59044,0.80235,0.08719,0.56051,-0.76504,-0.30127
-0.59941,0.79103,0.12231,0.65253,-0.74328,-0.34022
-0.59833,0.78697,0.15054,0.76082,-1.00438,-0.22778
-0.58453,0.7954,0.16018,0.72698,-1.105,-0.10726
-0.55532,0.81915,0.14356,0.70716,-1.04136,0.04912
-0.51979,0.84604,0.11839,-0.50245,0.40515,0.92222
-0.49292,0.86105,0.1249,-0.68901,1.23871,0.57087
-0.49101,0.85676,0.15767,-0.67011,2.64715,1.18136
-0.51269,0.84232,0.16621,0.33825,0.44044,0.66756
-0.53643,0.82699,0.16828,1.08223,-0.35529,0.81115
-0.55356,0.81903,0.15083,0.50115,1.90264,0.86503
-0.55265,0.82286,0.13216,0.9751,2.21334,-1.38634
-0.54925,0.82681,0.12122,0.3707,-0.86581,-0.43799
-0.54098,0.8374,0.07798,0.79475,-0.87004,-0.4007
-0.52104,0.8529,0.03254,0.44567,-0.6121,-0.97586
-0.474,0.88037,-0.01607,0.31831,0.31346,-0.54861
-0.40092,0.91399,-0.06217,-0.18088,1.23136,-0.44049
-0.33398,0.93713,-0.10112,-0.57248,0.49179,0.22361
-0.28398,0.94475,-0.16367,-0.49186,-0.37392,0.39521
-0.25265,0.9414,-0.22344,0.13572,-0.70399,0.36399
-0.24275,0.9357,-0.25599,0.47545,-0.67303,0.35193
-0.24194,0.92997,-0.27679,0.6085,-0.60584,0.29072
-0.23225,0.92522,-0.30002,0.56584,-0.02352,0.08531
-0.20705,0.92097,-0.33006,0.4798,0.08938,0.25707
-0.17343,0.92,-0.35143,0.13626,-0.00288,0.53222
-0.13627,0.92184,-0.36281,-0.49076,-0.16696,0.2541
-0.10171,0.9227,-0.37185,-0.55454,-0.02902,0.28982
-0.07364,0.92349,-0.37647,-0.58593,0.02547,0.51713
-0.05301,0.926,-0.37377,-0.57548,0.06356,0.2151
-0.04104,0.92967,-0.36609,-1.11501,-0.21162,-0.4632
-0.04483,0.92331,-0.38142,-1.27669,0.03197,0.38963
-0.05946,0.92409,-0.37752,-0.83518,0.25739,0.61901
-0.08114,0.93279,-0.35115,-0.54198,-0.03666,0.31438
-0.12421,0.93921,-0.32006,-0.47816,0.31274,0.47326
-0.18302,0.94306,-0.27772,-0.26052,1.11378,0.5409
-0.24967,0.93904,-0.23634,0.36979,1.49176,-0.09461
-0.30671,0.93123,-0.19678,0.47653,1.35846,-0.06576
-0.34169,0.92573,-0.16207,0.45422,1.16914,0.47651
-0.37217,0.9189,-0.13077,0.27949,0.73433,0.58983
-0.40332,0.90913,-0.10394,0.15112,0.17369,0.25172
-0.43391,0.89758,-0.07788,0.00129,-0.27325,-0.14575
-0.47851,0.87641,-0.05407,-0.127,-0.43227,-0.04768
-0.52644,0.84943,-0.03626,0.14853,-0.46416,-0.14414
-0.56668,0.82392,-0.00396,0.5329,-0.55018,-0.20439
-0.59504,0.80279,0.03786,0.77995,-0.83652,-0.34572
-0.60979,0.78793,0.08555,0.84465,-0.80509,-0.28393
-0.61345,0.77921,0.12847,0.89013,-0.79297,-0.30376
-0.60615,0.78053,0.15274,0.82454,-1.02525,-0.16474
-0.58333,0.79918,0.14501,0.69862,-0.97479,0.08703
-0.54832,0.82881,0.11136,0.06129,-0.53944,0.59342
-0.51772,0.84983,0.0987,-0.97227,0.87588,1.05966
-0.50796,0.85062,0.1357,-1.17108,3.07019,1.2596
-0.52461,0.83581,0.16186,-0.0757,0.94671,0.86321
-0.54644,0.82054,0.16763,0.58382,-0.70787,0.32221
-0.56014,0.81232,0.16234,1.07591,0.22559,0.47371
-0.55883,0.82014,0.12273,0.62287,1.77753,-0.40595
-0.53867,0.83672,0.09858,1.18221,0.94202,-0.24915
-0.52162,0.84847,0.08941,0.26114,-0.26349,-0.33952
-0.50943,0.85848,0.05893,0.43289,-0.39547,-0.49878
-0.48639,0.87361,0.01438,0.23778,-0.35688,-0.78618
-0.43702,0.89865,-0.03792,0.19413,0.22391,-0.55844
-0.37499,0.92304,-0.08581,0.06448,0.5133,-0.25825
-0.32081,0.93922,-0.1222,-0.15272,0.37872,-0.18724
-0.28123,0.94413,-0.17182,-0.26518,-0.16512,0.59649
-0.25144,0.93906,-0.23439,0.3074,-0.60429,0.65684
-0.23364,0.93808,-0.25575,0.36773,-0.59065,0.41884
-0.22487,0.93625,-0.26993,0.56763,-0.32953,0.05383
-0.20323,0.93101,-0.30316,0.45317,-0.10425,0.10082
-0.17435,0.92635,-0.33387,-0.08283,-0.12799,0.51561
-0.14252,0.92621,-0.34901,-0.62209,-0.16886,0.41259
-0.10849,0.92539,-0.36316,-0.73651,-0.06982,0.15193
-0.08729,0.92521,-0.36926,-0.57091,-0.04182,0.39269
-0.0742,0.92423,-0.37455,-0.43516,0.01889,0.46071
-0.06494,0.92537,-0.37344,-0.53086,0.05027,0.08514
-0.06043,0.92617,-0.37223,-1.29238,0.01666,-0.23536
-0.07272,0.91932,-0.38671,-1.00401,0.30959,1.05801
-0.09029,0.92537,-0.36814,-0.614,0.25036,0.21277
-0.11977,0.9333,-0.33851,-0.43437,0.12131,0.55845
-0.16736,0.94062,-0.29533,-0.31955,0.50283,0.66684
-0.22331,0.9431,-0.24634,-0.05445,1.31505,0.04378
-0.28473,0.93689,-0.20285,0.37595,1.31512,-0.16773
-0.32546,0.93088,-0.16592,0.41424,1.1561,0.10807
-0.35783,0.92454,-0.13105,0.41012,0.8398,0.55482
-0.39416,0.91365,-0.09929,0.36751,0.46287,0.50099
-0.42808,0.9008,-0.07282,0.22109,0.02666,0.05556
-0.46319,0.88484,-0.05009,-0.05755,-0.3122,-0.04008
-0.50924,0.86002,-0.0319,-0.06008,-0.56817,-0.10439
-0.55364,0.83272,-0.0066,0.28802,-0.42929,-0.15539
-0.58788,0.80849,0.02688,0.6307,-0.609,-0.22056
-0.61064,0.78927,0.06446,0.76695,-0.75749,-0.23464
-0.62268,0.77565,0.10301,0.77791,-0.67351,-0.24156
-0.62511,0.76859,0.136,0.81045,-0.79211,-0.24034
-0.61532,0.77443,0.14704,0.6616,-1.08484,-0.05312
-0.58919,0.79868,0.12229,0.63214,-0.93675,0.18713
-0.55348,0.82892,0.08084,-0.08668,-0.28939,0.72478
-0.52636,0.8465,0.07979,-0.96327,1.48046,0.78041
-0.52633,0.84231,0.11613,-0.81323,2.85899,1.25553
-0.54986,0.82495,0.13073,0.0975,0.33121,0.60728
-0.5734,0.80757,0.13797,0.81159,-0.71543,0.47734
-0.58583,0.80206,0.1161,0.7901,0.65242,0.31949
-0.57179,0.81799,0.06273,1.10869,1.64536,-0.78715
-0.54321,0.83817,0.04874,0.99451,0.40745,0.07795
-0.52374,0.8514,0.02827,0.25409,-0.12047,-0.4242
-0.51002,0.86004,-0.01416,0.29031,-0.00091,-0.69712
-0.48037,0.87409,-0.07204,0.29646,0.09373,-0.60214
-0.42439,0.89598,-0.13079,0.2518,0.35979,-0.19462
-0.35948,0.91645,-0.17573,-0.09915,0.36745,-0.18665
-0.30286,0.92987,-0.2088,-0.4235,0.18707,0.27226
-0.25886,0.92926,-0.26356,-0.29516,-0.49617,0.50288
-0.22817,0.92563,-0.30189,0.15438,-0.68126,0.49693
-0.21445,0.92377,-0.31727,0.32929,-0.60074,0.36414
-0.20279,0.91995,-0.33551,0.33978,-0.3132,0.20253
-0.1838,0.91388,-0.36199,0.33855,-0.10913,0.11165
-0.15831,0.9081,-0.38767,-0.07171,-0.05816,0.58763
-0.12742,0.90564,-0.40445,-0.3828,-0.06201,0.57741
-0.09572,0.90472,-0.4151,-0.4781,0.12479,0.24637
-0.06848,0.90628,-0.41708,-0.56781,0.07239,0.38766
-0.04933,0.90762,-0.41688,-0.61079,0.0689,0.40325
-0.04005,0.90845,-0.41606,-0.85886,0.00492,-0.02063
-0.0433,0.90438,-0.42452,-1.15932,0.04405,0.0894
-0.06136,0.89992,-0.43171,-0.65715,0.27928,0.96678
-0.08252,0.91073,-0.40466,-0.61149,0.22393,0.31651
-0.12117,0.92007,-0.37254,-0.30883,0.36553,0.45268
-0.1745,0.92847,-0.32784,-0.35704,0.97934,0.73696
-0.23717,0.92941,-0.28273,0.17037,1.18875,0.07608
-0.29312,0.92522,-0.24092,0.47205,1.04698,-0.06142
-0.33055,0.92191,-0.20202,0.54925,1.00996,0.07356
-0.36131,0.91817,-0.1625,0.30887,0.86888,0.70184
-0.39187,0.91161,-0.12404,0.10513,0.34544,0.30337
-0.42273,0.90221,-0.08554,0.07855,0.1337,0.00633
-0.46129,0.88555,-0.05486,-0.02367,-0.38634,0.05913
-0.50194,0.86415,-0.03584,0.24817,-0.57254,-0.10347
-0.54075,0.84114,-0.00821,0.56211,-0.48124,-0.21783
-0.57219,0.81955,0.03034,0.74465,-0.70026,-0.26009
-0.59116,0.8033,0.07225,0.714,-0.85146,-0.2204
-0.59655,0.79484,0.11109,0.76966,-0.90286,-0.26553
-0.58804,0.79681,0.1389,0.68083,-1.11247,-0.19972
-0.56493,0.81349,0.13812,0.62258,-1.00017,0.03331
-0.52951,0.84175,0.10518,0.21723,-0.66789,0.50879
-0.49473,0.86574,0.07566,-0.58156,0.44186,1.15453
-0.47678,0.87399,0.0939,-1.15188,2.68584,1.10164
-0.49608,0.8607,0.11438,-0.25865,1.58985,0.95651
-0.52707,0.84141,0.11919,0.25848,-0.35194,0.52624
-0.54949,0.8277,0.11391,0.96469,-0.55427,0.76175
-0.55034,0.83147,0.07599,0.51593,1.28171,0.0285
-0.52526,0.84985,0.04302,1.4821,1.54264,-0.70331
-0.49703,0.86655,0.04523,0.34879,-0.22249,0.00882
-0.48011,0.87692,0.02244,0.21067,-0.28342,-0.53113
-0.45967,0.88789,-0.0186,0.2213,-0.19921,-0.83047
-0.41981,0.90472,-0.07232,0.31382,0.26509,-0.43636
-0.36447,0.92343,-0.12015,0.26273,0.35808,-0.17673
-0.31002,0.93796,-0.15526,-0.11869,0.18858,-0.01079
-0.26629,0.94317,-0.19878,-0.27851,0.08219,0.30469
-0.2281,0.93692,-0.26485,0.05236,-0.53073,0.45608
-0.19657,0.93307,-0.30122,0.18489,-0.56225,0.42027
-0.17474,0.93313,-0.31421,0.27219,-0.34892,0.14531
-0.14965,0.92834,-0.34027,0.32684,-0.17164,0.1226
-0.12301,0.92067,-0.37045,0.0161,-0.17219,0.55243
-0.09395,0.91741,-0.38669,-0.60517,-0.09511,0.52408
-0.06142,0.91493,-0.39889,-0.68141,-0.0094,0.31534
-0.03878,0.91411,-0.40359,-0.61636,-0.0311,0.29567
-0.02462,0.91309,-0.40702,-0.57317,0.04236,0.5121
-0.01668,0.91281,-0.40803,-0.6037,0.03941,0.3186
-0.01372,0.91435,-0.40469,-1.26509,-0.04626,-0.12955
-0.0279,0.90901,-0.41583,-1.14298,0.26509,0.71112
-0.05004,0.91517,-0.39995,-0.6978,0.25186,0.18556
-0.08726,0.92378,-0.37283,-0.53973,0.44484,0.358
-0.14364,0.93285,-0.33036,-0.36268,0.8823,0.76719
-0.2037,0.93779,-0.28115,0.06978,1.41707,0.18147
-0.2626,0.93594,-0.23464,0.51492,1.1769,-0.21737
-0.29985,0.93422,-0.19319,0.55191,0.90584,0.31466
-0.32861,0.9321,-0.15231,0.39038,0.68994,0.56016
-0.3621,0.92514,-0.11397,0.20486,0.34379,0.45679
-0.39558,0.91467,-0.08299,-0.01306,-0.0012,-0.06484
-0.43909,0.89654,-0.0583,-0.18273,-0.31353,0.00183
-0.48911,0.8715,-0.03535,0.08417,-0.61235,-0.15022
-0.53262,0.84635,-0.0001,0.41749,-0.63829,-0.22585
-0.56287,0.82548,0.04184,0.63188,-0.80263,-0.30009
-0.5801,0.81021,0.08386,0.75088,-0.7581,-0.29878
-0.58804,0.79956,0.12206,0.79939,-0.66704,-0.28369
-0.58515,0.7968,0.15066,0.81141,-0.73526,-0.28233
-0.57042,0.80662,0.15483,0.59223,-0.99884,0.1
-0.54451,0.82958,0.12368,0.28447,-0.76256,0.47099
-0.51899,0.85028,0.08749,-0.5094,0.08685,0.97559
-0.49624,0.86345,0.09047,-0.76168,1.62443,0.65509
-0.49635,0.86106,0.1104,-0.35734,2.28778,1.27493
-0.51566,0.84885,0.11635,0.30149,0.11525,0.60679
-0.53697,0.83537,0.11752,1.00125,0.30942,0.69571
-0.54492,0.83382,0.08832,0.81923,1.8858,-0.14511
-0.53197,0.84433,0.06409,1.16164,0.9016,-0.75784
-0.51373,0.856,0.05781,0.37581,-0.61782,-0.30041
-0.4965,0.8678,0.02007,0.4898,-0.61699,-0.46477
-0.46658,0.88405,-0.02734,0.31311,-0.24773,-1.05829
-0.41511,0.90581,-0.08477,0.13597,0.69829,-0.37188
-0.34836,0.92707,-0.13847,-0.05766,0.42914,-0.12953
-0.2844,0.94207,-0.1778,-0.40429,0.20054,0.1738
-0.23516,0.94465,-0.22874,-0.43913,-0.35029,0.67369
-0.20088,0.93948,-0.27751,0.13831,-0.60716,0.43138
-0.18645,0.93739,-0.29417,0.39986,-0.57441,0.27946
-0.17483,0.93449,-0.31011,0.49442,-0.33043,0.07366
-0.14913,0.927,-0.34414,0.46527,0.07821,0.17478
-0.11861,0.92141,-0.37005,0.2968,0.04063,0.54891
-0.08609,0.9207,-0.38066,-0.61704,-0.242,0.37289
-0.05254,0.91898,-0.39078,-0.63658,-0.17259,0.08976
-0.03132,0.91737,-0.3968,-0.63074,-0.12945,0.20863
-0.01741,0.91486,-0.40338,-0.54689,0.06158,0.58172
-0.00752,0.91569,-0.40181,-0.72722,0.04291,0.14885
-0.00523,0.91607,-0.40097,-1.39714,0.05265,-0.1292
-0.0192,0.91275,-0.40806,-1.0677,0.1955,1.13675
-0.03869,0.92274,-0.38348,-0.64339,0.11521,0.19355
-0.07481,0.93273,-0.35272,-0.55225,0.19612,0.53285
-0.13299,0.94141,-0.30994,-0.42428,0.75459,0.61656
-0.20266,0.94286,-0.26443,0.15037,1.53614,-0.02042
-0.26825,0.93668,-0.2251,0.51617,1.31407,0.07139
-0.30756,0.93248,-0.18944,0.58484,1.13688,0.45981
-0.34029,0.92758,-0.15423,0.43302,0.74919,0.64898
-0.37521,0.91825,-0.12662,0.24986,0.36123,0.51523
-0.40854,0.90614,-0.1095,-0.07576,-0.01097,-0.02624
-0.4551,0.8853,-0.09543,-0.34215,-0.2773,0.09284
-0.50844,0.8574,-0.07965,0.01447,-0.53156,-0.07732
-0.55414,0.83113,-0.04619,0.43885,-0.61045,-0.15109
-0.58636,0.81,-0.00808,0.64006,-0.90587,-0.28443
-0.60339,0.79666,0.03521,0.73403,-0.83074,-0.27009
-0.60926,0.78904,0.07881,0.79911,-0.74764,-0.34811
-0.60419,0.78891,0.11206,0.77155,-0.91665,-0.29814
-0.58479,0.80256,0.11791,0.73353,-1.00198,-0.00101
-0.55011,0.83012,0.0909,0.51148,-0.77525,0.42459
-0.51438,0.85562,0.05748,-0.33371,0.226,1.10397
-0.49082,0.86846,0.06972,-0.83508,2.48512,0.95436
-0.50323,0.85815,0.10162,-0.4107,2.32758,1.39023
-0.53296,0.8389,0.11036,0.30473,-0.27325,0.50026
-0.55478,0.82566,0.10239,1.04573,0.43907,0.22609
-0.55023,0.83137,0.07782,1.22934,2.01067,-0.16151
-0.53661,0.84133,0.06478,0.46793,0.00494,-0.11603
-0.52085,0.85293,0.0347,0.26119,-0.63733,-0.69596
-0.49962,0.86613,-0.01383,0.38702,-0.45387,-0.71428
-0.46451,0.88279,-0.07005,0.32215,0.08308,-0.70253
-0.4052,0.90434,-0.13407,0.23839,0.635,-0.19652
-0.33875,0.92284,-0.18332,0.07418,0.46502,-0.07356
-0.28107,0.93408,-0.22021,-0.40419,0.07471,0.47321
-0.23676,0.9336,-0.26894,-0.41215,-0.18306,0.64506
-0.20556,0.9298,-0.30529,0.21304,-0.66683,0.3005
-0.18762,0.92741,-0.32356,0.44473,-0.55292,0.23183
-0.16971,0.92339,-0.3443,0.43883,-0.47004,0.22195
-0.14351,0.91607,-0.37444,0.16008,0.04738,0.37098
-0.11405,0.91179,-0.3945,-0.38864,-0.18414,0.44001
-0.08143,0.9098,-0.40697,-0.59981,-0.31128,0.33337
-0.05274,0.90729,-0.41719,-0.51938,0.04276,0.20149
-0.03269,0.90486,-0.42444,-0.37733,0.09061,0.46072
-0.01449,0.9041,-0.42706,-0.42473,0.05331,0.52142
0.00165,0.90535,-0.42465,-1.08615,0.07,-0.04746
0.00037,0.90331,-0.42897,-1.47621,0.12987,0.21625
-0.01667,0.90415,-0.42687,-0.94096,0.202,0.80846
-0.04326,0.9175,-0.39537,-0.73317,0.113,0.29434
-0.09116,0.92835,-0.36035,-0.52787,0.50297,0.51753
-0.15503,0.93729,-0.31218,-0.3309,1.49077,0.78207
-0.22312,0.93788,-0.26569,0.39887,1.44461,-0.14278
-0.2737,0.93479,-0.22638,0.55037,0.8827,0.20692
-0.30487,0.9341,-0.18576,0.43295,0.83447,0.48413
-0.34108,0.92909,-0.14301,0.17104,0.59556,0.65324
-0.37924,0.91888,-0.10876,0.06013,0.17443,0.24136
-0.42023,0.90354,-0.08375,-0.10366,-0.12245,0.12851
-0.46947,0.88041,-0.06675,-0.01475,-0.31106,0.07341
-0.51756,0.85447,-0.04477,0.23226,-0.44769,-0.1403
-0.55791,0.82983,-0.01009,0.54022,-0.70242,-0.1869
-0.58178,0.81285,0.02815,0.63264,-0.93978,-0.23598
-0.5915,0.80334,0.06894,0.71473,-0.84968,-0.31367
-0.59022,0.80047,0.10433,0.75323,-0.94767,-0.36988
-0.57646,0.80792,0.12227,0.75509,-1.19609,-0.18552
-0.5477,0.82942,0.1099,0.62058,-1.0635,0.15821
-0.51084,0.85626,0.0764,-0.20046,-0.39398,0.64389
-0.48114,0.87308,0.07886,-0.78022,1.2732,0.84585
-0.47592,0.87182,0.11587,-0.66588,3.07452,1.32242
-0.49914,0.85704,0.1278,0.19877,0.62726,0.81284
-0.52411,0.84134,0.13208,1.06351,-0.54109,0.7408
-0.53763,0.83503,0.11694,0.79272,1.21082,0.42045
-0.52624,0.84608,0.0849,1.14996,1.89777,-0.86844
-0.507,0.85813,0.08087,0.30092,-0.38697,-0.16583
-0.49082,0.86963,0.0532,0.36392,-0.57155,-0.62451
-0.46981,0.88271,0.00941,0.28785,-0.43799,-0.9667
-0.4304,0.90142,-0.04675,0.13921,0.14101,-0.51839
-0.36717,0.92364,-0.10986,0.0452,0.67904,-0.19565
-0.30942,0.93784,-0.15718,-0.26059,0.52951,-0.26372
-0.26783,0.94168,-0.20369,-0.38131,-0.1435,0.54521
-0.23199,0.93534,-0.26706,-0.14453,-0.32579,0.53785
-0.21198,0.9313,-0.29622,0.37162,-0.54888,0.42657
-0.19581,0.92964,-0.31214,0.50033,-0.44714,0.29143
-0.1706,0.92701,-0.33397,0.34104,-0.20138,0.08537
-0.13875,0.92278,-0.35947,0.31083,-0.09678,0.09138
-0.1024,0.9185,-0.38192,-0.14426,0.08271,0.62896
-0.05984,0.9162,-0.39623,-0.63273,-0.00512,0.41242
-0.02231,0.91655,-0.39929,-0.72746,-0.0722,0.38197
0.00232,0.91798,-0.39661,-0.80028,-0.06502,0.40856
0.01179,0.92038,-0.39085,-0.70321,0.03614,0.11949
0.01308,0.92148,-0.38819,-1.03841,-0.03911,-0.23439
-0.001,0.91669,-0.3996,-1.26444,0.1521,1.38108
-0.02181,0.92727,-0.37374,-0.89381,0.06595,0.20673
-0.0619,0.93719,-0.34327,-0.66786,0.29619,0.4575
-0.12494,0.94519,-0.30167,-0.51803,1.17539,0.69196
-0.19759,0.94578,-0.25776,0.11377,1.67821,-0.06704
-0.26032,0.94074,-0.21733,0.45424,1.40363,0.03215
-0.29623,0.93815,-0.17918,0.51588,1.15711,0.43765
-0.32739,0.93453,-0.13948,0.42945,0.67988,0.59468
-0.3609,0.92674,-0.10433,0.28133,0.18324,0.35241
-0.3922,0.91714,-0.07094,0.05197,-0.1872,-0.11872
-0.43498,0.89942,-0.04272,-0.1142,-0.45383,-0.06438
-0.48646,0.87352,-0.01755,0.13129,-0.65671,-0.32292
-0.53137,0.84686,0.02156,0.5941,-0.74893,-0.31461
-0.56085,0.82556,0.06231,0.82521,-0.92056,-0.32516
-0.57765,0.80972,0.1032,0.76459,-0.77184,-0.30411
-0.58321,0.80004,0.14065,0.79883,-0.81472,-0.29127
-0.57609,0.80086,0.16347,0.6721,-1.06012,-0.07413
-0.55772,0.81596,0.15215,0.35598,-1.00741,0.26158
-0.53925,0.83458,0.11255,-0.45596,-0.38451,0.90487
-0.5194,0.84951,0.09244,-0.68622,0.80192,0.7206
-0.49914,0.86002,0.10585,-0.2999,2.31855,1.08523
-0.50247,0.8564,0.11869,0.28296,1.01095,0.8137
-0.51437,0.84781,0.12892,0.34544,-0.51835,0.55141
-0.53057,0.83949,0.11723,0.2779,1.00535,0.4574
-0.53538,0.84261,0.05804,0.92867,2.13632,-1.21849
-0.52797,0.84872,0.03028,0.91096,-0.0702,0.23296
-0.51431,0.8576,0.00195,0.61343,-0.5653,0.00095
-0.49244,0.86989,-0.02788,0.45562,-0.56704,-0.68866
-0.44827,0.89089,-0.07316,0.30839,0.20353,-1.03089
-0.38372,0.91409,-0.13116,0.17244,0.73429,-0.36778
-0.31285,0.93256,-0.1801,-0.08749,0.39709,-0.08144
-0.25106,0.94252,-0.22047,-0.52552,0.21343,0.29561
-0.20666,0.94095,-0.26815,-0.60366,-0.3177,0.85464
-0.18474,0.93907,-0.28984,0.06874,-0.60983,0.41271
-0.17869,0.93727,-0.2993,0.49502,-0.62523,0.08173
-0.16737,0.93143,-0.32313,0.54892,-0.45939,0.03593
-0.14352,0.9201,-0.36444,0.57626,-0.22468,0.05493
-0.1134,0.91719,-0.38197,-0.5717,0.04285,0.78062
-0.07621,0.91693,-0.39168,-0.82534,-0.05016,0.49067
-0.04847,0.91755,-0.39463,-0.76412,-0.20601,0.27175
-0.03356,0.91661,-0.39836,-0.60018,-0.0782,0.39693
-0.02631,0.91486,-0.40291,-0.53481,-0.08275,0.10501
-0.02498,0.91243,-0.40846,-1.35311,0.02908,-0.1498
-0.04012,0.90321,-0.42731,-1.14267,0.4756,1.07946
-0.06241,0.90815,-0.41396,-0.79547,0.41798,0.77953
-0.09785,0.91584,-0.38942,-0.45085,0.25175,0.65003
-0.15146,0.92532,-0.34761,-0.3792,0.61325,0.69084
-0.20969,0.93211,-0.29528,-0.17305,0.98517,0.64387
-0.27309,0.9293,-0.24864,0.5235,1.51863,-0.13523
-0.31652,0.92543,-0.20828,0.52122,1.38582,0.18589
-0.34535,0.92288,-0.17033,0.57425,1.14857,0.55048
-0.37716,0.91582,-0.13787,0.33284,0.3876,0.49096
-0.40821,0.90591,-0.11257,0.03948,-0.08331,-0.04202
-0.44807,0.88936,-0.09089,-0.27576,-0.4563,0.0202
-0.50129,0.86196,-0.07564,-0.08967,-0.73394,-0.11293
-0.55051,0.83354,-0.04616,0.40165,-0.76785,-0.15454
-0.58602,0.81026,-0.00702,0.55752,-0.83752,-0.21688
-0.60697,0.79401,0.03357,0.71721,-0.79372,-0.23813
-0.6169,0.78341,0.07549,0.75842,-0.74224,-0.34771
-0.61537,0.78031,0.11146,0.74585,-0.9336,-0.33401
-0.59869,0.79173,0.12136,0.72715,-0.98231,-0.05045
-0.56674,0.81798,0.09852,0.34506,-0.68548,0.45687
-0.53702,0.84002,0.07725,-0.60527,0.58534,1.32264
-0.5166,0.85128,0.09181,-0.78785,2.48415,1.16382
-0.52455,0.8438,0.1133,-0.01727,1.93333,1.4244
-0.54663,0.82883,0.11928,0.69319,-0.18766,0.55567
-0.56228,0.8193,0.11215,0.61569,0.97694,0.39024
-0.5571,0.82654,0.08037,0.96159,2.1345,-0.71139
-0.54829,0.83424,0.05849,0.59608,-0.39641,0.01512
-0.53294,0.84575,0.02569,0.56826,-0.80677,-0.45832
-0.51081,0.8596,-0.01214,0.43743,-0.28607,-0.85281
-0.47103,0.88028,-0.05688,0.32494,-0.01971,-0.86585
-0.41002,0.90519,-0.11181,0.10654,0.77443,-0.4349
-0.34262,0.92528,-0.16267,-0.14222,0.54602,-0.02035
-0.28247,0.93687,-0.20612,-0.49947,0.21279,0.25496
-0.23629,0.93664,-0.25859,-0.53991,-0.26691,0.66146
-0.21389,0.93164,-0.29375,0.06741,-0.57166,0.42883
-0.2049,0.92782,-0.31169,0.41414,-0.62449,0.31926
-0.19172,0.92223,-0.33576,0.6381,-0.40236,0.19785
-0.16362,0.91493,-0.36894,0.56262,-0.0504,0.33858
-0.12883,0.9143,-0.38401,-0.12583,-0.14653,0.65088
-0.09364,0.9154,-0.39148,-0.62174,-0.23776,0.36582
-0.06375,0.91428,-0.40002,-0.56607,-0.11381,0.08255
-0.0418,0.91354,-0.40458,-0.52468,0.00949,0.20687
-0.02666,0.91072,-0.41216,-0.62175,0.17666,0.44547
-0.01786,0.90999,-0.41423,-1.03968,0.11717,-0.00206
-0.01936,0.90644,-0.42188,-1.30328,0.20403,-0.01158
-0.03021,0.90973,-0.41408,-0.92173,0.3753,0.60198
-0.0506,0.92226,-0.38324,-0.63943,0.17699,0.44212
-0.09238,0.93284,-0.34823,-0.4991,0.29638,0.46836
-0.1472,0.94119,-0.30412,-0.30975,0.93088,0.50323
-0.21258,0.9416,-0.26115,0.20069,1.31069,-0.15114
-0.2679,0.93782,-0.22071,0.34825,1.18616,-0.03191
-0.30298,0.93536,-0.18246,0.41926,0.8644,0.42112
-0.33919,0.92961,-0.14411,0.3308,0.55498,0.55448
-0.37695,0.91951,-0.1114,0.21432,0.14778,0.20472
-0.41711,0.90505,-0.08304,-0.00551,-0.28839,-0.0383
-0.46803,0.88166,-0.06013,0.00036,-0.57403,-0.08811
-0.52174,0.85251,-0.03157,0.23422,-0.50652,-0.175
-0.56637,0.82411,0.0078,0.47645,-0.74243,-0.2804
-0.5939,0.80288,0.05148,0.71642,-0.87899,-0.28199
-0.60591,0.78988,0.09464,0.71504,-0.77264,-0.29586
-0.60347,0.7866,0.13068,0.79996,-0.70031,-0.24113
-0.58826,0.79518,0.14705,0.61022,-0.78571,0.07542
-0.56456,0.81541,0.1279,0.33574,-0.65311,0.46727
-0.54169,0.83606,0.08698,-0.01588,-0.44862,0.71598
-0.52177,0.84966,0.07627,-0.56405,1.27367,0.62829
-0.51524,0.85138,0.09831,-0.48998,2.21498,0.95036
-0.53202,0.8391,0.11337,0.21616,0.18577,0.59875
-0.5535,0.82414,0.1201,0.83083,-0.31714,0.59166
-0.56741,0.8186,0.08903,0.75471,0.58069,0.42412
-0.5606,0.82733,0.03523,1.34054,1.45493,-0.83284
-0.54256,0.83971,0.02255,0.42415,-0.42571,0.14779
-0.5245,0.85139,-0.0049,0.46436,-0.43925,-0.13118
-0.49692,0.8667,-0.04351,0.28786,-0.30573,-0.92756
-0.44744,0.88871,-0.09987,0.24436,0.52831,-0.72915
-0.38813,0.90723,-0.16208,0.10007,0.59083,-0.19773
-0.32973,0.91972,-0.21304,-0.13289,0.20725,-0.0589
-0.27853,0.92449,-0.26026,-0.44046,0.01771,0.58114
-0.24174,0.9236,-0.29753,-0.50167,-0.145,0.90473
-0.22595,0.9235,-0.30997,0.21692,-0.55535,0.37557
-0.21326,0.92241,-0.32197,0.41751,-0.54497,0.15011
-0.19214,0.91645,-0.35099,0.43288,-0.24914,0.01003
-0.1627,0.90649,-0.38961,0.27501,-0.0272,0.31513
-0.12785,0.90475,-0.40629,-0.54343,-0.0404,0.5496
-0.09184,0.90532,-0.41468,-0.66506,-0.05354,0.30461
-0.06427,0.90669,-0.41687,-0.68889,-0.08828,0.15023
-0.04593,0.9062,-0.42035,-0.47393,0.12371,0.4527
-0.03462,0.90591,-0.42204,-0.74206,0.02552,0.17273
-0.03343,0.90593,-0.4221,-1.4438,0.03278,-0.00086
-0.04837,0.90107,-0.43096,-1.05487,0.31273,1.17616
-0.06646,0.91053,-0.40805,-0.70931,0.15273,0.31937
-0.09699,0.92118,-0.37684,-0.44811,0.03922,0.6672
-0.14567,0.9316,-0.33301,-0.30911,0.4978,0.69289
-0.20827,0.93493,-0.28725,-0.18327,0.93314,0.40642
-0.27821,0.928,-0.24782,0.30334,1.46744,-0.00624
-0.32137,0.92242,-0.21414,0.48051,1.27703,0.48015
-0.35314,0.91764,-0.18228,0.43124,1.08633,0.49554
-0.38972,0.90791,-0.15433,0.25754,0.37811,0.49462
-0.42378,0.89621,-0.13118,0.08044,-0.08375,-0.06272
-0.46938,0.87657,-0.10626,-0.11655,-0.52438,0.07619
-0.52028,0.85025,-0.07986,0.17634,-0.70819,-0.16747
-0.56661,0.82298,-0.04057,0.51098,-0.65347,-0.1845
-0.60036,0.79971,0.0045,0.74726,-0.76803,-0.25662
-0.61911,0.78375,0.04921,0.77214,-0.69336,-0.2225
-0.62532,0.77508,0.09064,0.78987,-0.65969,-0.26901
-0.61914,0.77599,0.12037,0.73491,-0.84267,-0.11413
-0.59893,0.79226,0.11657,0.59651,-0.928,0.17352
-0.56521,0.82137,0.07664,0.15188,-0.55781,0.70946
-0.53145,0.84529,0.05506,-0.7193,0.82863,1.07604
-0.51579,0.85294,0.08026,-0.90998,2.98876,1.21599
-0.53441,0.83894,0.10282,-0.08881,1.14435,0.96604
-0.56119,0.82041,0.10945,0.5411,-0.64658,0.42181
-0.57622,0.8118,0.09457,1.09308,0.29161,0.16593
-0.56439,0.82413,0.04762,1.21447,1.50137,-0.44485
-0.53395,0.84489,0.03241,0.82153,0.58488,0.35996
-0.51028,0.85978,0.01929,-0.04734,-0.25686,-0.5514
-0.49317,0.86973,-0.01833,0.16758,-0.32129,-0.5685
-0.46495,0.88291,-0.06536,0.12281,-0.10114,-0.69521
-0.41817,0.9004,-0.12003,0.22553,0.29081,-0.3725
-0.36422,0.91554,-0.17065,0.10836,0.24924,-0.06049
-0.31537,0.92554,-0.20953,-0.16779,0.17979,0.09656
-0.27698,0.92566,-0.25775,-0.31894,-0.05357,0.60866
-0.24999,0.92049,-0.30033,0.16897,-0.39421,0.4931
-0.23357,0.91804,-0.32038,0.28858,-0.50866,0.46153
-0.21524,0.91535,-0.34028,0.52676,-0.367,0.24104
-0.18692,0.90994,-0.37023,0.34843,-0.13186,0.11219
-0.1572,0.90535,-0.39449,0.04578,-0.0591,0.39607
-0.12374,0.90463,-0.40784,-0.45403,-0.09301,0.5804
-0.08725,0.90499,-0.41637,-0.61067,-0.0406,0.29548
-0.06255,0.90572,-0.41923,-0.50314,-0.09482,0.26277
-0.04536,0.90502,-0.42293,-0.49816,0.01214,0.42751
-0.03589,0.90564,-0.42252,-0.62057,0.10796,0.25391
-0.03717,0.90441,-0.42503,-1.31571,0.03106,-0.0619
-0.0515,0.90526,-0.42171,-1.22548,0.25627,1.07956
-0.07337,0.91762,-0.39062,-0.84782,0.09938,0.24368
-0.11654,0.9276,-0.35491,-0.54789,0.16006,0.61869
-0.17906,0.93368,-0.31011,-0.43451,0.7547,0.66052
-0.25,0.93046,-0.26783,0.01799,1.5676,-0.00686
-0.3025,0.92544,-0.22815,0.36441,1.29043,-0.0426
-0.33504,0.92318,-0.18836,0.28234,0.98046,0.43874
-0.37123,0.91653,-0.1488,0.24454,0.59352,0.56581
-0.41027,0.90449,-0.11652,0.19097,0.13734,0.2594
-0.45148,0.88792,-0.08802,0.09196,-0.24483,0.0014
-0.49943,0.86407,-0.06278,0.1395,-0.51474,-0.01507
-0.54885,0.8353,-0.03209,0.36507,-0.46624,-0.15215
-0.59082,0.80677,0.00618,0.53036,-0.59425,-0.1947
-0.61777,0.78491,0.04751,0.65262,-0.77956,-0.25068
-0.63083,0.77046,0.09184,0.67908,-0.70706,-0.2893
-0.6316,0.76418,0.13076,0.78285,-0.81064,-0.35015
-0.62036,0.76975,0.15041,0.79007,-1.03543,-0.14699
-0.59587,0.791,0.13877,0.66186,-0.8645,0.22523
-0.56479,0.81869,0.10364,-0.01793,-0.29378,0.86923
-0.54063,0.83619,0.09218,-0.74896,1.07023,0.74681
-0.52822,0.84118,0.11571,-0.62632,2.88931,1.07267
-0.54256,0.8304,0.1267,0.22727,0.99573,0.74724
-0.56381,0.81574,0.12912,0.5456,-0.60494,0.51266
-0.57403,0.81053,0.11628,0.92652,-0.7563,0.65651
-0.55968,0.82613,0.06518,0.82444,1.30503,-0.28391
-0.53034,0.84716,0.0325,1.01305,1.2304,-0.31538
-0.50528,0.86265,0.02267,-0.06862,-0.23898,-0.64622
-0.48965,0.87186,-0.00945,0.18168,-0.31055,-0.52027
-0.46434,0.88407,-0.05291,0.29889,-0.31672,-0.50773
-0.41812,0.90242,-0.10393,0.33166,0.12866,-0.36228
-0.36179,0.91948,-0.1538,0.22808,0.41664,-0.22001
-0.31303,0.92965,-0.19429,-0.12689,0.31272,-0.05998
-0.27591,0.92633,-0.25646,-0.19313,-0.06198,0.49943
-0.24357,0.91843,-0.3117,0.19378,-0.56656,0.76461
-0.22673,0.91801,-0.32533,0.35881,-0.53386,0.45906
-0.21232,0.91486,-0.34344,0.35856,-0.39172,0.14521
-0.18632,0.90656,-0.37871,0.19125,-0.12079,0.15749
-0.16094,0.90004,-0.40499,-0.17218,-0.10169,0.4898
-0.13178,0.89837,-0.41899,-0.383,-0.09652,0.62298
-0.10048,0.89781,-0.42876,-0.6938,0.10843,0.2491
-0.08053,0.8977,-0.43317,-0.54584,0.03169,0.35147
-0.06586,0.8966,-0.43791,-0.31982,-0.03576,0.53652
-0.05276,0.89763,-0.43757,-0.4417,0.09408,0.3045
-0.05075,0.89577,-0.4416,-1.33858,-0.01331,-0.12856
-0.06854,0.89244,-0.44593,-1.28574,0.17429,0.93764
-0.09577,0.9036,-0.41751,-0.71415,0.19001,0.23363
-0.14202,0.91039,-0.38861,-0.50865,0.42776,0.37466
-0.20031,0.91635,-0.34664,-0.40215,0.85199,0.76063
-0.2663,0.91519,-0.3025,0.03868,1.42183,0.14173
-0.31645,0.91253,-0.25912,0.46071,1.27723,0.00475
-0.34608,0.91291,-0.21637,0.47093,0.94212,0.3368
-0.37712,0.90912,-0.17682,0.37093,0.72673,0.52794
-0.41003,0.90073,-0.14338,0.22433,0.33804,0.50936
-0.44478,0.88828,-0.11456,0.08508,-0.00064,-0.01473
-0.49141,0.86627,-0.08992,-0.06755,-0.31518,-0.02985
-0.5414,0.83853,-0.06116,0.22734,-0.5067,-0.13304
-0.58255,0.81249,-0.02183,0.48106,-0.54019,-0.16399
-0.61013,0.79206,0.01921,0.74867,-0.81435,-0.23181
-0.62515,0.7783,0.0585,0.77705,-0.75198,-0.25978
-0.62817,0.77248,0.09311,0.78007,-0.74616,-0.29439
-0.61783,0.77912,0.10608,0.82558,-1.04178,-0.02818
-0.59205,0.80158,0.08324,0.53753,-0.77839,0.34594
-0.56011,0.82683,0.05121,0.13004,-0.47638,0.66775
-0.5396,0.83969,0.06113,-1.05832,2.07065,0.93953
-0.54461,0.83356,0.09254,-0.50428,2.25256,1.31912
-0.56459,0.8187,0.10467,0.2802,-0.0666,0.52338
-0.58122,0.80629,0.10983,1.13644,-0.47841,0.60184
-0.58426,0.80744,0.08161,0.80414,1.14515,0.10282
-0.56483,0.82471,0.02851,1.02145,1.55298,-0.54348
-0.53701,0.84335,0.01931,0.37985,0.0283,-0.05018
-0.51898,0.85472,-0.01006,0.17766,-0.20674,-0.50099
-0.49998,0.86435,-0.05391,0.26281,-0.16652,-0.5892
-0.45933,0.88162,-0.10837,0.22728,0.17281,-0.43548
-0.40108,0.90114,-0.16455,0.27764,0.43422,-0.14846
-0.34582,0.91518,-0.20698,0.12922,0.39271,-0.14246
-0.30003,0.9188,-0.25649,-0.27497,0.11195,0.34281
-0.25828,0.91267,-0.31674,-0.35206,-0.1009,0.60203
-0.23201,0.91052,-0.34221,-0.00787,-0.49262,0.57604
-0.21669,0.90854,-0.35719,0.36899,-0.51388,0.27539
-0.19486,0.9043,-0.37982,0.29022,-0.27149,0.20003
-0.165,0.89706,-0.40994,0.21416,-0.15274,0.20654
-0.13209,0.8942,-0.42773,-0.1603,-0.0465,0.58245
-0.09552,0.89316,-0.43948,-0.65137,-0.01494,0.40063
-0.06694,0.89318,-0.44469,-0.68728,0.05455,0.29709
-0.04936,0.89447,-0.44439,-0.50697,0.02739,0.49618
-0.03759,0.89652,-0.4414,-0.65883,0.07897,0.11596
-0.0361,0.8976,-0.43933,-1.0365,0.03153,-0.14519
-0.04825,0.88886,-0.45563,-1.39298,0.09793,-0.14351
-0.06821,0.89744,-0.43583,-0.87074,0.29713,0.3094
-0.10384,0.90592,-0.41051,-0.68193,0.35217,0.41556
-0.15635,0.91512,-0.37163,-0.44915,0.3298,0.38913
-0.21507,0.9193,-0.32956,-0.02075,1.1917,0.20874
-0.27697,0.91637,-0.28904,0.04114,1.19464,0.16822
-0.31965,0.91401,-0.24979,0.60264,1.08983,0.16078
-0.34821,0.91288,-0.21304,0.46274,0.79604,0.5744
-0.37758,0.90872,-0.17793,0.35333,0.56565,0.57737
-0.40995,0.90046,-0.14528,0.17472,0.08705,0.24567
-0.45255,0.8845,-0.11332,-0.00643,-0.23652,0.00773
-0.49934,0.86214,-0.08584,0.10023,-0.5751,-0.00279
-0.54236,0.83861,-0.05071,0.30214,-0.59453,-0.15777
-0.57603,0.81734,-0.0115,0.59668,-0.76337,-0.15735
-0.59862,0.80047,0.02962,0.61927,-0.7465,-0.19848
-0.60858,0.7906,0.06749,0.66228,-0.69067,-0.25822
-0.60623,0.78943,0.09628,0.68662,-0.81077,-0.21047
-0.59026,0.80075,0.10187,0.64081,-0.91593,-0.09175
-0.56108,0.8244,0.07445,0.28839,-0.75981,0.61878
-0.52993,0.84708,0.04022,-0.50365,0.22493,1.18051
-0.50473,0.86184,0.04962,-0.75005,1.04046,0.57525
-0.51215,0.85534,0.07799,-0.33362,2.12395,1.25238
-0.5379,0.83827,0.08919,0.31331,-0.18542,0.60957
-0.55868,0.82394,0.0948,0.56823,-0.73169,0.50993
-0.55994,0.82631,0.06048,1.0181,0.77017,-0.25064
-0.53234,0.8464,0.01472,1.31147,1.37379,-0.51789
-0.49394,0.86931,0.01723,1.20128,1.00985,0.16311
-0.47313,0.88099,-0.00078,-0.08728,0.02383,-0.65997
-0.45643,0.88849,-0.04743,0.14392,-0.27914,-0.6587
-0.41992,0.90108,-0.10823,0.14099,-0.30159,-0.55623
-0.35997,0.91805,-0.1661,0.12997,0.12455,-0.13045
-0.30277,0.92975,-0.20949,-0.0368,0.52327,-0.23102
-0.26757,0.92922,-0.25483,-0.21492,0.40906,0.01468
-0.23484,0.92073,-0.3116,0.03789,-0.48456,0.82345
-0.20906,0.92033,-0.33058,0.269,-0.54534,0.42641
-0.19284,0.91969,-0.34201,0.34246,-0.52052,0.29756
-0.16992,0.9119,-0.37358,0.43103,-0.17816,-0.0012
-0.14218,0.90076,-0.41038,0.26737,0.0431,0.51467
-0.10707,0.89796,-0.42685,-0.36639,-0.0088,0.73092
-0.07238,0.89752,-0.43499,-0.6138,-0.07833,0.27782
-0.04687,0.89798,-0.43753,-0.62534,-0.00088,0.27416
-0.02881,0.89712,-0.44085,-0.56585,0.13195,0.52156
-0.01799,0.89912,-0.43733,-0.64375,0.17692,0.44361
-0.01988,0.90098,-0.43339,-1.35154,-0.12086,-0.1662
-0.03853,0.89888,-0.43649,-1.26048,0.04541,0.74823
-0.06312,0.91164,-0.40611,-0.735,0.19238,0.31065
-0.10677,0.92236,-0.37128,-0.42204,0.2082,0.61903
-0.16689,0.9311,-0.32433,-0.36594,0.76675,0.74023
-0.23822,0.93042,-0.2785,-0.11184,1.4613,-0.09048
-0.29193,0.92689,-0.23588,0.28031,1.33262,-0.00164
-0.32652,0.92495,-0.19452,0.33669,1.26055,0.22393
-0.36403,0.91839,-0.15499,0.32465,0.76155,0.59314
-0.40272,0.90725,-0.12127,0.2187,0.36509,0.44385
-0.44441,0.89114,-0.09141,0.11813,-7e-05,-0.05825
-0.49669,0.86559,-0.06354,-0.06276,-0.26975,-0.10015
-0.55158,0.8336,-0.02918,0.2703,-0.42014,-0.23375
-0.59564,0.80314,0.01291,0.74225,-0.61622,-0.20055
-0.623,0.7802,0.05599,0.82185,-0.72733,-0.26606
-0.63636,0.76473,0.10111,0.74322,-0.74648,-0.31583
-0.63621,0.75879,0.13947,0.74307,-0.74054,-0.35419
-0.62232,0.76698,0.15633,0.77822,-1.09496,0.05572
-0.60073,0.78773,0.13636,0.41329,-0.78698,0.36276
-0.58118,0.8076,0.10003,0.00241,-0.51815,0.61479
-0.56405,0.8204,0.09372,-0.59967,1.20049,0.74168
-0.5552,0.82348,0.11672,-0.16283,2.86727,1.36501
-0.57006,0.81203,0.12497,0.31357,2.02537,1.17549
-0.58856,0.79705,0.13528,0.40704,-0.41408,0.50908
-0.60463,0.7885,0.11262,0.14779,1.36475,0.15897
-0.59842,0.80016,0.04028,0.36613,1.79827,-0.90591
-0.58497,0.81102,0.00627,1.22995,-0.18118,0.49554
-0.56639,0.82358,-0.03021,0.66267,-0.38016,0.02071
-0.54289,0.83671,-0.07189,0.55769,-0.40729,-0.29836
-0.49938,0.85669,-0.12921,0.30854,0.15538,-0.82523
-0.42575,0.8844,-0.19119,0.14775,0.703,-0.23804
-0.34715,0.9072,-0.23764,0.03767,0.67882,-0.09008
-0.29167,0.91562,-0.27669,-0.45313,0.15346,0.34831
-0.2506,0.91276,-0.32258,-0.40365,-0.44952,0.99772
-0.22642,0.91254,-0.34059,-0.06881,-0.54965,0.66497
-0.21581,0.91042,-0.35291,0.43775,-0.62591,0.16787
-0.19341,0.90049,-0.38948,0.56478,-0.32293,-0.11362
-0.16331,0.8899,-0.42592,0.52411,-0.09955,0.17448
-0.13139,0.88848,-0.4397,-0.56841,0.0102,0.64545
-0.0954,0.88538,-0.45497,-0.79411,-0.01927,0.23433
-0.07265,0.88302,-0.46367,-0.6004,0.06189,0.18922
-0.05023,0.88433,-0.46414,-0.26909,-0.13046,0.47857
-0.03226,0.88349,-0.46734,-0.7983,0.3047,0.33628
-0.02288,0.88074,-0.47305,-0.80769,0.30745,0.34199
-0.02406,0.8802,-0.47399,-1.15789,0.26952,0.34016
-0.03584,0.88234,-0.46924,-0.8993,0.34152,0.35694
-0.06678,0.88762,-0.4557,-0.94633,0.44307,0.09142
-0.12134,0.8919,-0.43565,-0.34128,0.64715,0.37417
-0.18069,0.89784,-0.40153,-0.17592,0.97789,0.81771
-0.23443,0.90297,-0.36012,0.05529,1.10276,0.83172
-0.27975,0.9062,-0.31706,0.64878,0.94698,0.06761
-0.31592,0.90995,-0.26865,0.68011,0.85749,0.24547
-0.34707,0.91208,-0.21826,0.6458,0.84971,0.33032
-0.37649,0.91044,-0.1713,0.35003,0.38476,0.45934
-0.41003,0.90206,-0.13471,0.1546,0.0687,0.19925
-0.45094,0.8861,-0.10706,0.09338,-0.02974,0.07186
-0.49631,0.86423,-0.08231,0.04778,-0.43184,-0.0709
-0.53816,0.84142,-0.04876,0.42439,-0.78771,-0.09786
-0.56992,0.82164,-0.00895,0.45362,-0.82065,-0.13288
-0.59311,0.80443,0.03302,0.65937,-0.83915,-0.23758
-0.60756,0.79102,0.07167,0.7597,-0.89612,-0.30968
-0.60888,0.78696,0.09976,0.73778,-0.95717,-0.30383
-0.59548,0.79661,0.10389,0.63517,-0.8741,0.01957
-0.57025,0.81764,0.07918,0.28031,-0.63278,0.49284
-0.547,0.83576,0.04786,-0.42279,0.26994,1.18052
-0.52733,0.84819,0.04996,-0.59357,1.65922,0.72162
-0.52892,0.84542,0.07411,-0.18076,2.28416,1.33719
-0.55195,0.82945,0.0857,0.11015,1.17744,0.89604
-0.57556,0.81229,0.09438,1.20269,0.2292,0.70449
-0.58298,0.80905,0.0746,0.68762,1.816,0.21025
-0.57378,0.81744,0.05067,1.05374,2.06539,-0.50605
-0.56517,0.82421,0.03543,0.45437,-0.61536,-0.29408
-0.54975,0.83529,-0.00651,0.57481,-0.78242,-0.34991
-0.5224,0.85086,-0.05586,0.38971,-0.44205,-0.73757
-0.47788,0.87134,-0.11129,0.21688,0.27969,-0.68836
-0.41372,0.89497,-0.16688,-0.02269,1.02916,-0.09615
-0.35464,0.91104,-0.21028,-0.24657,0.90948,0.00237
-0.30963,0.91674,-0.25239,-0.58905,0.06467,0.49704
-0.27806,0.911,-0.30455,-0.10657,-0.38666,0.37381
-0.26589,0.90152,-0.34139,0.12548,-0.4999,0.31644
-0.2554,0.89446,-0.36702,0.62594,-0.42881,0.41139
-0.23656,0.88904,-0.39197,0.54094,-0.30118,0.38233
-0.20438,0.88502,-0.41828,0.41748,-0.16984,0.32847
-0.16824,0.88419,-0.43576,0.12808,-0.02398,0.45703
-0.12356,0.88443,-0.45001,-0.49877,-0.11231,0.57963
-0.07953,0.88351,-0.46159,-0.60924,-0.11348,0.39638
-0.04682,0.88314,-0.46676,-0.62622,0.08172,0.64301
-0.0268,0.88578,-0.46332,-0.59253,0.06503,0.38854
-0.01849,0.89064,-0.45432,-0.60083,0.06017,0.37954
-0.02461,0.88496,-0.465,-1.14704,0.2092,0.44901
-0.03676,0.88976,-0.45494,-0.97075,0.30727,0.6698
-0.05609,0.90516,-0.42135,-0.95142,0.29186,0.63621
-0.10015,0.91902,-0.38127,-0.50297,0.44931,0.54502
-0.16385,0.92739,-0.33629,-0.3098,1.4297,0.42701
-0.23843,0.92439,-0.29774,0.04342,1.68483,0.08161
-0.28889,0.92047,-0.26319,0.38976,1.3792,0.1845
-0.31867,0.91971,-0.22929,0.37281,1.11957,0.46134
-0.35241,0.91522,-0.19535,0.32025,0.95731,0.58004
-0.39069,0.90534,-0.16644,0.08944,0.11071,0.15036
-0.43824,0.88778,-0.14062,-0.1366,-0.18165,0.11003
-0.4928,0.86182,-0.11997,-0.06153,-0.34042,0.05292
-0.54616,0.83325,-0.08598,0.48576,-0.44374,-0.24669
-0.58979,0.80658,-0.03955,0.72585,-0.78526,-0.24483
-0.61684,0.78701,0.01045,0.83819,-0.82718,-0.2412
-0.63164,0.77305,0.0584,0.82823,-0.73585,-0.20815
-0.63523,0.76641,0.09531,0.79221,-0.89385,-0.26387
-0.62564,0.7733,0.10272,0.82677,-0.99266,-0.01045
-0.60057,0.79611,0.07422,0.63126,-0.87855,0.28041
-0.56793,0.82244,0.03204,-0.26822,-0.12176,0.85619
-0.54614,0.83699,0.03414,-0.84859,0.78697,1.22055
-0.55066,0.8318,0.06968,-0.63284,2.92315,1.63634
-0.5747,0.81406,0.0837,0.18518,0.11801,0.58408
-0.59901,0.79585,0.08823,0.56094,-0.67062,0.42018
-0.60514,0.79437,0.05252,0.71458,0.95232,-0.14711
-0.5782,0.81586,0.00566,1.28117,1.27935,-0.46589
-0.54984,0.83525,0.00317,0.96774,0.61581,0.34392
-0.53465,0.84471,-0.02442,0.21631,-0.19597,-0.5489
-0.51969,0.85132,-0.07186,0.27054,-0.18578,-0.75726
-0.48544,0.86446,-0.13056,0.26429,0.09101,-0.66273
-0.42763,0.8844,-0.18696,0.08497,0.57295,-0.05239
-0.36882,0.90011,-0.23185,-0.15959,0.4578,0.10357
-0.32339,0.90629,-0.27211,-0.33735,0.36364,0.45497
-0.29083,0.9049,-0.31076,0.18555,-0.37908,0.43141
-0.26809,0.90346,-0.33449,0.36164,-0.54452,0.33001
-0.24695,0.90145,-0.35551,0.43941,-0.51257,0.32896
-0.22086,0.89742,-0.38189,0.39964,-0.06585,0.24848
-0.1887,0.88999,-0.41509,0.3782,-0.00103,0.41739
-0.15323,0.88738,-0.43481,0.23908,0.0003,0.60452
-0.10968,0.88742,-0.44771,-0.54879,-0.11554,0.39675
-0.06797,0.88825,-0.45428,-0.65553,-0.04098,0.36476
-0.03662,0.88897,-0.45648,-0.71697,0.03107,0.42236
-0.01914,0.8897,-0.45613,-0.82074,0.14587,0.26419
-0.01479,0.89012,-0.45547,-1.31751,0.15102,-0.18639
-0.0264,0.88269,-0.46921,-1.34085,0.32183,0.26368
-0.04021,0.8878,-0.45846,-0.85147,0.36684,0.10741
-0.07066,0.89504,-0.44034,-0.55431,0.26789,0.30759
-0.12137,0.90418,-0.40954,-0.38731,0.17982,0.46336
-0.17612,0.91246,-0.36931,-0.20697,0.94426,0.69056
-0.23471,0.91503,-0.32804,0.29411,1.16633,0.07327
-0.28748,0.9137,-0.28722,0.45423,1.16516,-0.02168
-0.32514,0.9126,-0.24784,0.52955,1.04995,0.43966
-0.35399,0.91159,-0.20899,0.33312,0.52565,0.58073
-0.384,0.90672,-0.17431,0.1123,0.13217,0.33401
-0.42241,0.89511,-0.1426,-0.09473,-0.10617,0.04611
-0.47356,0.87307,-0.1161,0.06112,-0.55816,-0.06986
-0.524,0.84718,-0.08769,0.23689,-0.63638,-0.22471
-0.56882,0.8213,-0.04359,0.57938,-0.74762,-0.17362
-0.60123,0.79906,0.00111,0.75158,-0.72001,-0.21841
-0.62165,0.78193,0.04605,0.772,-0.70287,-0.26335
-0.63016,0.77161,0.08653,0.81185,-0.75269,-0.24746
-0.62566,0.77208,0.11143,0.63788,-0.88013,0.10683
-0.6082,0.78674,0.10542,0.62042,-0.89479,0.11284
-0.58448,0.8082,0.07192,-0.15832,-0.38686,0.85418
-0.56308,0.82474,0.05217,-0.63275,1.29979,0.55003
-0.54276,0.83721,0.06685,-0.65307,1.28731,0.53535
-0.54916,0.83152,0.08355,0.20728,1.48139,1.08914
-0.56673,0.81857,0.09349,0.50188,-0.63527,0.53372
-0.58275,0.80681,0.09713,0.5179,-0.62351,0.53008
-0.58191,0.81233,0.0386,1.11673,1.31017,-0.85295
-0.55696,0.8303,-0.01952,1.00106,0.90782,0.70235
-0.53146,0.84675,-0.02349,0.1319,0.32632,0.09
-0.51524,0.85569,-0.04809,0.35359,-0.29136,-0.58519
-0.48979,0.86715,-0.09029,0.25547,-0.1707,-0.6902
-0.44086,0.88643,-0.14095,0.15868,0.00505,-0.47082
-0.37686,0.9068,-0.18891,0.13038,0.54918,-0.20813
-0.32335,0.91973,-0.22256,-0.22853,0.29353,0.11842
-0.28082,0.92039,-0.27203,-0.30784,0.11955,0.43187
-0.2423,0.91108,-0.33348,0.13619,-0.5514,0.70231
-0.21897,0.90842,-0.35612,0.3146,-0.53387,0.41311
-0.20692,0.90615,-0.36887,0.39494,-0.52408,0.28863
-0.18515,0.89762,-0.39998,0.32723,0.02896,0.53385
-0.15753,0.88849,-0.43101,-0.07453,0.07145,0.77891
-0.12419,0.88747,-0.4438,-0.5291,0.00211,0.72696
-0.08821,0.8856,-0.45599,-0.70982,-0.02981,0.22537
-0.06571,0.88457,-0.46175,-0.57162,0.03834,0.54279
-0.05269,0.88432,-0.46389,-0.42227,0.05756,0.52056
-0.04347,0.88736,-0.45901,-0.71077,0.00053,-0.02914
-0.04339,0.88599,-0.46167,-1.37927,0.1991,-0.08034
-0.05766,0.88036,-0.47079,-0.98393,0.40253,1.38062
-0.07468,0.89346,-0.44289,-0.6548,0.0928,0.43752
-0.1046,0.90817,-0.40532,-0.39429,-0.19155,0.76988
-0.15245,0.9211,-0.35823,-0.31047,0.63339,0.62822
-0.21498,0.92637,-0.30919,-0.04927,1.81566,-0.15278
-0.28196,0.92077,-0.26956,0.33546,1.47889,0.19637
-0.31807,0.91753,-0.23867,0.48912,1.30048,0.50982
-0.34971,0.91413,-0.20508,0.40147,0.72433,0.6686
-0.38586,0.90543,-0.17687,0.26451,0.33782,0.49599
-0.42413,0.89155,-0.15884,0.06253,-0.08098,0.00404
-0.4709,0.87033,-0.14413,-0.13326,-0.49348,0.15649
-0.52379,0.84231,-0.12708,0.05183,-0.52926,0.05782
-0.57323,0.81395,-0.09417,0.21128,-0.52285,-0.03918
-0.60869,0.79168,-0.05219,0.65202,-0.87934,-0.22607
-0.62869,0.77762,-0.00686,0.68137,-0.72508,-0.23338
-0.63845,0.76872,0.03781,0.70737,-0.65733,-0.28016
-0.63706,0.76748,0.07148,0.81266,-0.90351,-0.18781
-0.62149,0.77995,0.07358,0.69392,-0.86422,0.21136
-0.58929,0.80691,0.04004,0.66173,-0.89119,0.2449
-0.55132,0.83416,0.01394,-0.37868,0.36762,1.16969
-0.52852,0.84817,0.03538,-0.78476,2.46913,1.17975
-0.54523,0.83555,0.06761,-0.72102,3.23576,1.46738
-0.57341,0.81552,0.07813,1.0979,-0.65131,0.59251
-0.5924,0.80208,0.07556,0.7109,1.41293,0.65785
-0.58934,0.80674,0.0428,0.90101,2.30845,-0.05019
-0.57333,0.81899,0.02319,0.36483,-0.67131,-0.29241
-0.55744,0.8302,-0.00455,0.5441,-0.69276,-0.45431
-0.53978,0.84001,-0.05483,0.52057,-0.71611,-0.52069
-0.50839,0.85419,-0.109,0.31305,0.28248,-0.51993
-0.4487,0.87729,-0.17033,0.16343,0.81723,-0.37558
-0.38274,0.89628,-0.224,-0.0776,0.96859,-0.10809
-0.32824,0.90704,-0.26367,-0.46763,0.11023,0.50581
-0.28642,0.90536,-0.31348,-0.12114,-0.45981,0.62547
-0.26205,0.90032,-0.34749,0.12971,-0.49861,0.52718
-0.24916,0.89698,-0.36515,0.54602,-0.52238,0.43439
-0.23226,0.89172,-0.38842,0.53398,-0.29921,0.20452
-0.20563,0.88591,-0.41577,0.48621,-0.16345,0.18379
-0.17491,0.88118,-0.43922,0.0213,-0.07747,0.52181
-0.14008,0.87953,-0.45475,-0.48067,-0.08676,0.5232
-0.10032,0.87884,-0.46643,-0.61294,-0.01997,0.45685
-0.06631,0.87869,-0.47275,-0.65203,0.07799,0.53644
-0.04209,0.87903,-0.4749,-0.6949,0.13252,0.47353
-0.02972,0.88193,-0.47043,-0.71843,0.17295,0.22354
-0.033,0.8798,-0.47418,-1.38372,0.127,0.18947
-0.05106,0.87807,-0.47579,-0.85988,0.20339,0.9369
-0.07567,0.89249,-0.44466,-0.75557,0.09959,0.11032
-0.12243,0.90289,-0.41206,-0.44198,0.59575,0.57503
-0.18473,0.91178,-0.36678,-0.24399,1.46409,0.62024
-0.25003,0.91295,-0.32247,0.18415,1.6078,0.1377
-0.29712,0.9133,-0.27854,0.57209,1.15872,0.35146
-0.32968,0.914,-0.23643,0.44432,0.85533,0.48969
-0.36241,0.90992,-0.20173,0.4181,0.6538,0.59907
-0.39701,0.90028,-0.17854,0.01281,0.01044,0.32261
-0.43987,0.88391,-0.15877,-0.27576,-0.2693,0.18119
-0.49469,0.85718,-0.1432,-0.21745,-0.38056,0.1505
-0.54699,0.82904,-0.11615,0.17852,-0.62802,-0.0847
-0.58866,0.80503,-0.07342,0.62053,-0.88973,-0.23388
-0.61514,0.78794,-0.0272,0.77371,-0.94735,-0.2323
-0.62933,0.77688,0.01986,0.82375,-0.61118,-0.31543
-0.63283,0.77197,0.05974,0.8866,-0.80308,-0.17409
-0.62415,0.77809,0.07069,0.83462,-0.98068,-0.05833
-0.59826,0.80021,0.04162,0.48945,-0.86921,0.41957
-0.56387,0.82584,0.00539,-0.77368,0.94414,1.06368
-0.54071,0.84099,0.01864,-0.99274,2.22592,0.98275
-0.55322,0.83124,0.05447,-0.55721,2.32512,1.23401
-0.58167,0.81056,0.06807,0.60715,-0.71292,0.49735
-0.60443,0.79339,0.07195,0.86257,-0.98063,0.46979
-0.60863,0.79265,0.03536,1.39846,0.21385,-0.03924
-0.57784,0.81586,-0.02135,1.44514,1.88684,-0.11024
-0.53443,0.84504,-0.01695,0.54648,1.6559,0.55575
-0.51878,0.85464,-0.02131,0.12045,-0.30984,-0.57479
-0.51008,0.85757,-0.06615,0.25273,-0.60707,-0.63916
-0.48293,0.86594,-0.13006,0.2587,-0.44678,-0.57878
-0.42927,0.882,-0.1944,0.37464,0.52444,-0.14488
-0.3664,0.89694,-0.24748,0.08674,0.64332,-0.20916
-0.32074,0.90423,-0.28194,-0.27084,0.3067,0.59932
-0.28337,0.89792,-0.3368,-0.00558,-0.40657,0.84792
-0.24885,0.89747,-0.36417,0.18819,-0.52074,0.41172
-0.23273,0.89802,-0.37334,0.45693,-0.47324,0.27195
-0.21308,0.89394,-0.39428,0.55552,-0.06849,0.06251
-0.18357,0.88436,-0.42919,0.46181,-0.00051,0.4511
-0.14979,0.88024,-0.45026,0.14045,0.05209,0.73711
-0.10658,0.88005,-0.46275,-0.64878,0.07394,0.4246
-0.06893,0.88117,-0.46774,-0.70411,0.01141,0.41478
-0.0425,0.88224,-0.46887,-0.72885,0.02038,0.44454
-0.02793,0.88413,-0.46639,-0.82045,0.0243,0.1675
-0.02599,0.8853,-0.46429,-1.43161,0.01744,-0.09351
-0.04088,0.87866,-0.47569,-1.36998,0.26657,0.47256
-0.05994,0.8876,-0.45668,-0.7381,0.11902,0.10019
-0.09372,0.89795,-0.43,-0.51652,0.14363,0.576
-0.14501,0.90966,-0.38922,-0.38124,0.29152,0.64146
-0.20736,0.91629,-0.34265,-0.01678,1.3913,0.11731
-0.2723,0.91458,-0.29899,0.4542,1.45868,-0.00183
-0.31541,0.91294,-0.25893,0.521,1.39397,0.23592
-0.34727,0.91128,-0.22126,0.43092,0.85105,0.67695
-0.38041,0.90505,-0.19017,0.21902,0.30272,0.50565
-0.41606,0.89438,-0.1642,0.10939,0.0967,0.20812
-0.46502,0.8746,-0.13719,-0.15602,-0.46324,0.07308
-0.51934,0.84746,-0.10997,0.10366,-0.67607,-0.11991
-0.56836,0.81967,-0.07134,0.40463,-0.72272,-0.22332
-0.60508,0.79575,-0.02559,0.88192,-0.82456,-0.23718
-0.62833,0.77769,0.01971,0.85025,-0.64917,-0.1626
-0.64017,0.76577,0.06132,0.9009,-0.68244,-0.14556
-0.63948,0.76378,0.08767,0.73044,-0.93962,0.03643
-0.62561,0.77613,0.07883,0.42769,-0.82765,0.40225
-0.60016,0.79923,0.032,0.06804,-0.55851,0.67779
-0.57425,0.81867,0.00233,-0.78339,0.71246,0.87794
-0.56064,0.82761,0.02723,-0.85529,2.58713,1.06527
-0.57379,0.81724,0.05363,-0.50487,2.54601,1.42214
-0.59318,0.80263,0.06249,0.53259,-0.66273,0.54124
-0.60802,0.79162,0.06027,1.08742,0.60145,0.04831
-0.60407,0.79685,0.01086,0.83318,1.19029,-0.36718
-0.57035,0.82094,-0.02733,1.05564,1.22944,0.4614
-0.54231,0.84007,-0.01329,-0.09395,-0.23754,-0.45766
-0.52984,0.84705,-0.04191,0.12275,-0.34211,-0.50228
-0.51331,0.85275,-0.09656,0.37184,-0.11598,-0.74026
-0.47386,0.86567,-0.16143,0.42953,0.23272,-0.24484
-0.4132,0.88288,-0.2231,0.34357,0.47378,-0.08969
-0.35671,0.8947,-0.2688,-0.12416,0.3189,0.213
-0.30905,0.89522,-0.32104,-0.34551,-0.13042,0.93806
-0.27088,0.89337,-0.35848,-0.03489,-0.37802,0.69671
-0.25319,0.89584,-0.36517,0.34949,-0.53685,0.26006
-0.23631,0.89254,-0.38409,0.58494,-0.36518,-0.07883
-0.21102,0.88028,-0.42493,0.48861,-0.17092,0.37842
-0.18148,0.87321,-0.45228,-0.29751,-0.01099,0.86941
-0.14388,0.8733,-0.46545,-0.71247,0.05506,0.47625
-0.10852,0.87298,-0.47552,-0.55602,0.08739,0.34514
-0.08255,0.87364,-0.47951,-0.5108,0.02797,0.44146
-0.06388,0.87495,-0.47999,-0.5092,0.0834,0.39356
-0.05256,0.8765,-0.47851,-0.82275,0.02857,-0.15863
-0.05485,0.87087,-0.48845,-1.28365,0.3208,0.1649
-0.07045,0.8638,-0.49888,-0.7919,0.5146,1.25618
-0.08348,0.87235,-0.4817,-0.60746,0.23533,0.26488
-0.10792,0.88508,-0.45275,-0.58706,0.21695,0.69656
-0.1464,0.89817,-0.41454,-0.33598,0.82537,0.73246
-0.19354,0.90861,-0.37007,-0.15724,1.18172,0.32009
-0.25128,0.91021,-0.32919,0.37311,1.29539,0.09341
-0.2963,0.91006,-0.28979,0.43148,1.05409,0.37021
-0.32951,0.91015,-0.25109,0.35257,0.88502,0.54015
-0.3626,0.9066,-0.21582,0.25996,0.53001,0.62271
-0.39616,0.89891,-0.18711,0.11133,0.03222,0.07365
-0.43709,0.88488,-0.16104,-0.12657,-0.30149,0.04729
-0.48785,0.86228,-0.13587,-0.00574,-0.57794,0.00632
-0.5386,0.83628,-0.10266,0.52054,-0.67583,-0.194
-0.58138,0.81144,-0.0595,0.56332,-0.651,-0.23716
-0.61017,0.79212,-0.01492,0.73984,-0.68797,-0.18114
-0.62747,0.7781,0.02881,0.83743,-0.74178,-0.15193
-0.63187,0.77226,0.06597,0.84183,-0.73594,-0.18909
-0.62247,0.77853,0.08007,0.53313,-0.77576,0.3257
-0.60356,0.79556,0.05291,0.25675,-0.6074,0.55429
-0.58207,0.81305,0.01158,-0.27358,0.31232,1.09603
-0.56396,0.82572,0.01085,-0.60843,2.0965,1.03172
-0.56983,0.8209,0.03748,0.03251,1.8065,1.26974
-0.58893,0.80649,0.05227,0.29048,-0.33426,0.48483
-0.60754,0.79255,0.05239,0.47008,0.71323,0.17254
-0.6095,0.79278,-0.0019,1.00599,1.72206,-0.54493
-0.59019,0.80576,-0.04918,1.19975,1.40504,-0.18753
-0.5714,0.81799,-0.06629,0.47118,-0.35806,-0.14006
-0.55243,0.82783,-0.09754,0.40824,-0.49969,-0.55487
-0.52351,0.84124,-0.13504,0.36789,-0.40765,-0.74527
-0.47124,0.86252,-0.18437,0.34434,0.63289,-0.32227
-0.40971,0.8823,-0.23167,0.12032,0.55771,-0.13535
-0.35729,0.89386,-0.27084,-0.05202,0.35099,0.01597
-0.31161,0.89204,-0.32734,-0.09167,-0.38769,0.80979
-0.2693,0.88606,-0.37731,0.11803,-0.41991,0.57691
-0.24756,0.88572,-0.39269,0.19125,-0.48007,0.44304
-0.23184,0.8847,-0.40441,0.37445,-0.40373,0.15217
-0.20434,0.87678,-0.43532,0.2743,-0.17278,0.23052
-0.17206,0.86659,-0.46841,-0.16175,-0.05344,0.70254
-0.14414,0.86349,-0.48333,-0.50408,-0.07995,0.65481
-0.11469,0.86097,-0.49555,-0.51251,0.05843,0.40914
-0.09111,0.86152,-0.49947,-0.41594,0.10373,0.48172
-0.07454,0.86187,-0.50161,-0.47368,0.18642,0.38699
-0.06447,0.86296,-0.50113,-1.03056,0.13014,-0.05452
-0.06899,0.85656,-0.51141,-1.25912,0.28228,0.45422
-0.08548,0.8557,-0.51036,-0.69969,0.2604,0.67962
-0.10862,0.86853,-0.48359,-0.48141,0.14418,0.3274
-0.1524,0.878,-0.45374,-0.44814,0.52185,0.70181
-0.20836,0.88681,-0.41249,-0.41441,1.39709,0.75839
-0.27239,0.88799,-0.3705,-0.05419,1.54922,0.31912
-0.32459,0.88744,-0.32724,0.50574,1.33441,-0.02066
-0.35339,0.89081,-0.2856,0.54502,0.87288,0.49855
-0.37862,0.89299,-0.24334,0.27503,0.54993,0.73176
-0.40806,0.88929,-0.20651,0.03787,0.19952,0.19515
-0.44884,0.87713,-0.17083,-0.1658,-0.16944,0.09383
-0.49841,0.85603,-0.13707,0.14945,-0.55776,-0.16448
-0.54808,0.83093,-0.09564,0.41756,-0.54988,-0.23951
-0.58951,0.80677,-0.03981,0.72128,-0.7559,-0.31677
-0.61639,0.78728,0.01532,0.84756,-0.7647,-0.11808
-0.63139,0.77263,0.06618,0.8409,-0.74025,-0.13141
-0.63671,0.76403,0.10419,0.74038,-1.00426,-0.09301
-0.63355,0.76589,0.10962,0.70005,-0.94172,0.05725
-0.61654,0.78346,0.07782,0.57613,-0.81616,0.27526
-0.592,0.80528,0.03246,-0.58682,0.72863,1.37104
-0.57399,0.81841,0.02707,-0.8426,2.35444,0.98603
-0.57401,0.81726,0.0508,-0.52209,2.65451,1.2644
-0.59453,0.80182,0.06003,0.12688,0.28672,0.6546
-0.6156,0.78576,0.06002,1.31671,-0.29211,0.66302
-0.62008,0.78357,0.03879,1.03385,0.62859,0.31008
-0.59659,0.80247,-0.01022,1.3172,1.58446,-0.3318
-0.55805,0.82966,-0.01522,-0.09905,0.31367,-0.03903
-0.53595,0.8437,-0.03011,-0.17518,0.0052,-0.61796
-0.52062,0.85019,-0.07821,0.22602,-0.18425,-0.74311
-0.49486,0.85768,-0.13958,0.30016,-0.08884,-0.40993
-0.44521,0.87199,-0.20348,0.29601,-0.05948,-0.10883
-0.3824,0.88773,-0.25632,-0.20101,0.47015,0.07985
-0.33088,0.89897,-0.28699,-0.42344,0.46335,0.48505
-0.29352,0.89607,-0.33302,-0.49182,0.16735,0.77662
-0.26022,0.88731,-0.38073,0.21954,-0.59392,0.4448
-0.24261,0.88148,-0.40512,0.48429,-0.57097,0.40222
-0.22962,0.87487,-0.42646,0.54393,-0.48156,0.32271
-0.20341,0.86374,-0.46105,0.45263,-0.01889,0.36451
-0.17111,0.85691,-0.48624,-0.22585,0.04431,0.67344
-0.13236,0.85539,-0.50079,-0.57984,0.01243,0.6269
-0.09322,0.85317,-0.51324,-0.55801,0.13745,0.31771
-0.06702,0.85416,-0.51566,-0.55932,0.02399,0.40047
-0.05002,0.8559,-0.51471,-0.54469,0.04686,0.41148
-0.04173,0.85579,-0.51564,-1.07249,0.30149,-0.03959
-0.04661,0.84841,-0.52728,-1.14928,0.43267,0.40846
-0.06019,0.84693,-0.52829,-0.89923,0.37109,0.89921
-0.0763,0.86032,-0.504,-0.60882,0.06599,0.16162
-0.11266,0.87314,-0.47428,-0.4458,0.1295,0.67099
-0.16153,0.88821,-0.4301,-0.45222,0.73327,0.82445
-0.22097,0.89552,-0.38627,-0.14159,1.2542,0.28337
-0.28297,0.89604,-0.34212,0.26514,1.34232,0.03426
-0.3234,0.89751,-0.2998,0.4067,1.26862,0.09451
-0.349,0.89898,-0.26464,0.36455,0.90376,0.68338
-0.37775,0.89578,-0.23425,0.09923,0.35259,0.47695
-0.4162,0.88669,-0.20137,0.03501,0.16272,0.14348
-0.46594,0.86891,-0.16701,-0.05843,-0.41114,0.03513
-0.51531,0.84586,-0.13771,0.27662,-0.60173,-0.09256
-0.56162,0.82134,-0.0999,0.48678,-0.57852,-0.17178
-0.59668,0.80044,-0.05703,0.81122,-0.79522,-0.1849
-0.61908,0.78517,-0.01547,0.87563,-0.8462,-0.11502
-0.62954,0.77666,0.02161,0.88609,-0.83769,-0.1521
-0.62522,0.77901,0.04729,0.78678,-1.08218,0.03001
-0.60543,0.7947,0.04344,0.05902,-0.71391,0.55478
-0.57788,0.816,0.01377,0.03147,-0.7352,0.58445
-0.55265,0.83338,0.00681,-0.73387,1.27924,0.78907
-0.54692,0.83617,0.04094,-0.47958,2.9941,1.4195
-0.56406,0.8237,0.05789,0.29907,0.42707,0.73916
-0.58281,0.80982,0.06716,0.78236,-0.0048,0.50747
-0.59417,0.80315,0.04361,0.60896,1.67095,-0.62694
-0.5822,0.81279,-0.0202,0.59698,1.6613,-0.56313
-0.56416,0.82482,-0.03711,0.47504,-0.45594,-0.03995
-0.54319,0.83745,-0.06015,0.42505,-0.39311,-0.1915
-0.51558,0.85186,-0.09223,0.31688,-0.28063,-0.74991
-0.46917,0.87191,-0.14014,0.17754,0.47333,-0.55449
-0.40732,0.89222,-0.19499,0.00532,0.48691,-0.02248
-0.34561,0.90614,-0.24384,-0.15934,0.32811,0.03774
-0.29522,0.91152,-0.28631,-0.48886,-0.1021,0.67224
-0.25659,0.9083,-0.33037,-0.06154,-0.47007,0.59543
-0.2355,0.90343,-0.35824,0.14936,-0.51292,0.47879
-0.22457,0.89891,-0.37619,0.64769,-0.304,0.10803
-0.20546,0.89052,-0.40591,0.63188,-0.13853,0.29681
-0.17422,0.8806,-0.44067,0.45881,-0.02246,0.58009
-0.14049,0.87658,-0.46029,-0.52321,-0.0325,0.66826
-0.10157,0.87445,-0.47436,-0.66029,0.06693,0.31625
-0.07483,0.87383,-0.48043,-0.58154,0.02858,0.35505
-0.05575,0.87388,-0.48293,-0.49869,0.13135,0.47386
-0.04383,0.87434,-0.48333,-0.49904,0.19666,0.41605
-0.04221,0.87365,-0.48471,-1.06033,0.09751,-0.10498
-0.0574,0.8652,-0.49813,-0.84387,0.40738,0.62337
-0.07266,0.87196,-0.48415,-0.7305,0.31066,0.06884
-0.10175,0.88175,-0.46061,-0.46394,0.07745,0.57202
-0.14751,0.89228,-0.4267,-0.29676,0.40721,0.76028
-0.19806,0.90207,-0.38346,-0.17602,1.12244,0.50752
-0.25956,0.90287,-0.3427,0.12618,1.37135,0.11736
-0.3074,0.90259,-0.30137,0.53086,1.08201,0.29406
-0.3345,0.9041,-0.26591,0.42994,0.86096,0.44616
-0.36229,0.90226,-0.2338,0.36874,0.7174,0.54897
-0.3936,0.89544,-0.20798,0.10694,0.07258,0.22627
-0.43362,0.8826,-0.18158,-0.0972,-0.26838,0.03069
-0.48583,0.85979,-0.15719,-0.08536,-0.4739,0.05267
-0.53729,0.8324,-0.13573,0.33761,-0.55052,-0.04015
-0.58183,0.80638,-0.10584,0.63298,-0.56539,-0.08406
-0.61603,0.78459,-0.07019,0.71857,-0.63122,-0.16297
-0.63826,0.76912,-0.03262,0.81257,-0.73537,-0.10538
-0.6485,0.7612,0.00044,0.82635,-0.83066,-0.08058
-0.64339,0.76537,0.01595,0.79584,-0.88848,-0.00354
-0.62193,0.78307,0.00024,0.46513,-0.78766,0.37029
-0.59349,0.80438,-0.02695,-0.67331,0.73676,1.07015
-0.57412,0.81848,-0.02161,-0.77619,1.74583,1.08545
-0.58074,0.81378,0.02211,-0.42144,2.75154,1.59109
-0.60203,0.79741,0.04114,0.27897,-0.70211,0.30534
-0.62289,0.78101,0.04503,0.55709,-0.74036,0.31685
-0.62718,0.77885,0.00617,0.67848,1.42561,-0.57939
-0.60269,0.79589,-0.05755,1.21927,1.56513,-0.71704
-0.57886,0.81238,-0.07036,0.7739,0.2688,0.68669
-0.55714,0.8255,-0.09021,0.47812,-0.30679,0.1124
-0.53573,0.83616,-0.11753,0.38371,-0.17387,-0.63164
-0.49832,0.85142,-0.16352,0.35864,-0.02365,-0.70165
-0.44261,0.87088,-0.21366,0.27963,0.48192,-0.36205
-0.38648,0.88549,-0.25793,-0.04231,0.21173,-0.02182
-0.33502,0.89345,-0.29916,-0.19333,0.09423,0.19144
-0.2872,0.89024,-0.35353,-0.42032,-0.11434,0.72058
-0.25263,0.88689,-0.38679,0.10163,-0.49269,0.39869
-0.24163,0.88504,-0.39788,0.3367,-0.43614,0.19704
-0.22832,0.87938,-0.41781,0.39098,-0.07071,0.04732
-0.20554,0.86407,-0.45949,0.37383,0.00971,0.33585
-0.18762,0.85193,-0.48888,0.31296,0.09135,0.86055
-0.15302,0.85146,-0.5016,-0.42585,0.12032,0.49375
-0.11448,0.85093,-0.51265,-0.30601,0.0763,0.2633
-0.08324,0.85071,-0.51899,-0.39433,0.08892,0.43499
-0.05891,0.85111,-0.52166,-0.77695,0.26687,0.54754
-0.04709,0.85431,-0.51762,-1.26256,0.10885,0.02389
-0.05575,0.85057,-0.52289,-1.43528,0.25032,0.02486
-0.07861,0.84952,-0.52167,-0.74028,0.2957,0.62771
-0.10753,0.86018,-0.49851,-0.49713,0.17665,0.37931
-0.15187,0.87123,-0.46679,-0.30326,0.28128,0.53545
-0.20094,0.88347,-0.42319,-0.2118,1.13229,0.74697
-0.26011,0.88673,-0.38216,0.29972,1.25382,0.0292
-0.31401,0.88628,-0.34044,0.52455,1.2673,-0.01769
-0.3486,0.8884,-0.2987,0.56123,1.13742,0.45524
-0.37602,0.88952,-0.25952,0.34973,0.69805,0.6189
-0.40627,0.88497,-0.22753,0.26756,0.43979,0.55399
-0.44447,0.87322,-0.19981,-0.04603,-0.10898,0.14961
-0.49147,0.85395,-0.17093,0.00895,-0.44553,0.06703
-0.53918,0.82985,-0.14363,0.15853,-0.50003,0.01651
-0.58224,0.80604,-0.10622,0.64074,-0.79285,-0.1378
-0.61523,0.78563,-0.0653,0.76411,-0.83597,-0.14692
-0.63633,0.77101,-0.02481,0.8144,-0.80914,-0.19905
-0.64728,0.76215,0.01178,0.93404,-0.82697,-0.22587
-0.64641,0.76213,0.0362,0.83173,-0.95921,-0.04839
-0.63036,0.77564,0.03195,0.77817,-0.96143,0.11431
-0.60235,0.79823,-0.0001,-0.07572,-0.30554,0.73946
-0.57779,0.81606,-0.01382,-0.87448,1.23953,0.9329
-0.57605,0.81714,0.02109,-0.95621,2.47318,1.07277
-0.59769,0.80092,0.03584,0.1622,0.62938,0.93747
-0.62147,0.78259,0.03627,0.73256,-0.98307,0.47873
-0.63044,0.77611,0.01377,1.06514,-0.44411,0.1616
-0.60518,0.7944,-0.05173,0.88661,1.09334,-0.33663
