gravity.x,gravity.y,gravity.z,userAcceleration.x,userAcceleration.y,userAcceleration.z
-0.06366,0.99347,0.0946,0.2096,-0.95707,-0.0413
-0.06587,0.99497,0.0754,0.31471,-0.15464,1.18392
-0.06966,0.99707,0.03153,0.03319,0.74068,0.82412
-0.06586,0.99782,-0.00427,-0.53846,2.82001,0.09854
-0.0716,0.99683,-0.0346,-0.63711,1.09938,-0.1979
-0.07137,0.99487,-0.07168,-0.57552,0.97826,-0.01221
-0.07625,0.99146,-0.10576,-0.15895,1.03304,-0.0931
-0.09174,0.98655,-0.13528,0.24395,0.64159,-0.4187
-0.10962,0.97964,-0.16819,0.10788,0.47223,-0.19184
-0.11997,0.97394,-0.19246,0.03198,-0.03942,-0.02724
-0.12728,0.9722,-0.19652,0.17484,-0.58544,0.11763
-0.12976,0.97658,-0.17162,0.48765,-1.11852,0.16573
-0.12823,0.98293,-0.13192,0.49536,-1.64319,0.13197
-0.12031,0.98676,-0.10873,0.07815,-1.72373,-0.03158
-0.10229,0.98845,-0.11178,-0.216,-1.1548,0.10984
-0.07861,0.98896,-0.12558,-0.16573,-0.82284,0.17838
-0.05479,0.98853,-0.14073,-0.00806,-0.53779,0.15463
-0.03542,0.9866,-0.15923,-0.16023,-0.26808,0.43075
-0.01993,0.97814,-0.20699,-0.59976,2.24473,0.25654
-0.02817,0.96435,-0.26312,-0.16075,3.02468,-0.36136
-0.05291,0.96871,-0.24249,0.11268,0.21788,-0.09083
-0.06015,0.9743,-0.21707,0.44524,0.54801,0.14206
-0.06933,0.98253,-0.17272,0.01905,0.49248,-0.2715
-0.06587,0.98943,-0.12918,-0.16623,0.6323,0.19116
-0.05902,0.99607,-0.06598,0.02562,0.85525,-0.15063
-0.04626,0.99891,0.0059,0.35539,0.86295,-0.34007
-0.03207,0.99762,0.06095,0.25566,0.18498,-0.17938
-0.02005,0.9942,0.10561,-0.3035,-0.66791,0.03707
-0.01896,0.98972,0.14177,-0.21392,-0.74339,0.0163
-0.02623,0.98689,0.15922,-0.30715,-0.7839,-0.08256
-0.03637,0.98712,0.15579,-0.00539,-0.80299,-0.11235
-0.04443,0.98967,0.13628,0.13701,-0.80632,-0.07598
-0.04691,0.99286,0.10968,0.32358,-0.9087,-0.12354
-0.04649,0.99587,0.07795,0.26558,-0.73523,0.42512
-0.04659,0.99822,0.03709,0.16816,-0.17696,1.10643
-0.04606,0.99891,-0.00735,-0.13153,1.56638,0.0632
-0.0526,0.99783,-0.03958,-0.86986,2.04807,0.16949
-0.05781,0.99512,-0.07997,-0.99829,1.1481,0.14952
-0.06202,0.98963,-0.12957,-0.66433,1.24341,0.06222
-0.07272,0.98326,-0.16707,0.11172,1.10381,-0.3498
-0.08984,0.97537,-0.20143,0.28065,0.90196,-0.3365
-0.10149,0.96668,-0.235,0.10898,0.24961,0.00331
-0.10577,0.96272,-0.24897,0.15987,-0.54478,0.14708
-0.10454,0.96709,-0.23196,0.42446,-1.11144,0.03794
-0.10694,0.97353,-0.20198,0.52371,-1.83985,0.10156
-0.1081,0.97667,-0.18555,0.31966,-1.78563,0.17485
-0.09803,0.97713,-0.18868,-0.20657,-1.28583,0.2246
-0.07794,0.97712,-0.19789,-0.46274,-0.97164,0.1011
-0.05867,0.97655,-0.20712,-0.16278,-0.65989,0.03647
-0.04114,0.97442,-0.2209,-0.04232,-0.34193,0.50536
-0.02228,0.96644,-0.2559,-0.43141,0.30091,1.1846
0.00204,0.95338,-0.30176,-0.39754,2.30413,-0.3423
-0.01481,0.96129,-0.27512,-0.08506,0.37124,0.20635
-0.03036,0.96971,-0.24237,0.11041,0.51325,-0.0199
-0.04983,0.97878,-0.19875,0.28685,0.67265,-0.12453
-0.05742,0.98755,-0.1464,0.12566,0.56608,-0.22871
-0.06123,0.99379,-0.09287,0.10943,0.64967,0.00998
-0.05887,0.99774,-0.03235,0.24892,0.80437,-0.06601
-0.04408,0.99864,0.02779,0.15948,0.33271,-0.2189
-0.02682,0.99685,0.07455,-0.07589,-0.34939,-0.23643
-0.01354,0.9935,0.11295,-0.2935,-0.71265,-0.02538
-0.01227,0.99052,0.13682,-0.43208,-0.84499,0.00579
-0.02297,0.98867,0.14835,-0.25988,-0.72817,0.07922
-0.03424,0.98896,0.14413,0.0377,-0.76022,-0.06323
-0.04348,0.99102,0.12642,0.06479,-0.82053,-0.1172
-0.05034,0.99375,0.09963,0.15133,-0.94068,-0.14516
-0.05624,0.99604,0.06887,0.06129,-0.7087,0.34642
-0.06525,0.99723,0.03574,0.04224,-0.43033,1.25665
-0.06589,0.99782,-0.00207,-0.10466,2.72201,0.0943
-0.08015,0.99618,-0.03467,-0.60504,2.18022,-0.07505
-0.08871,0.99289,-0.07934,-0.69819,1.13208,-0.02099
-0.09135,0.98783,-0.12587,-0.46045,1.02726,-0.01111
-0.09732,0.98229,-0.16008,0.28932,0.46638,-0.33937
-0.10305,0.97707,-0.18631,0.19777,0.30662,-0.33252
-0.11925,0.96809,-0.22041,0.17098,0.02566,0.18479
-0.12926,0.9622,-0.23968,0.24064,-0.67821,0.22677
-0.13017,0.96678,-0.21999,0.36732,-1.43232,0.29674
-0.13258,0.97483,-0.17924,0.42314,-1.68352,0.3245
-0.127,0.97969,-0.15516,0.01309,-1.41971,-0.06639
-0.10608,0.98196,-0.15652,-0.40158,-1.02842,-0.01009
-0.08023,0.98161,-0.17321,-0.49814,-0.88215,-0.07722
-0.06244,0.97864,-0.19585,0.18086,-0.71053,0.17624
-0.04789,0.9758,-0.21335,0.21244,-0.49821,0.03624
-0.03162,0.97121,-0.2361,-0.72441,-0.37694,1.8344
-0.00958,0.95694,-0.29013,-0.65746,4.39607,-0.00077
-0.04069,0.96152,-0.2717,-0.05889,0.6177,-0.19045
-0.05843,0.97049,-0.23394,0.31795,-0.17593,-0.38747
-0.07045,0.97726,-0.19998,0.42697,0.07611,-0.24075
-0.06695,0.98465,-0.16121,0.0151,0.48118,0.18762
-0.06296,0.99315,-0.09841,0.01111,0.47267,0.12482
-0.0584,0.99797,-0.02545,0.31209,0.79526,-0.25976
-0.04527,0.99818,0.03982,0.25473,0.33362,-0.26514
-0.03378,0.9957,0.08624,0.08484,-0.0007,-0.17006
-0.03096,0.99237,0.1193,-0.47949,-0.83672,-0.0837
-0.03951,0.98969,0.13768,-0.30703,-0.79224,-0.11325
-0.05077,0.98827,0.14404,0.04926,-0.82472,-0.01141
-0.05669,0.98955,0.13256,0.19078,-0.92984,0.03951
-0.05869,0.99186,0.11294,0.19261,-0.96772,-0.12592
-0.06024,0.99456,0.0849,0.11418,-0.89483,-0.22265
-0.06335,0.99653,0.054,-0.03396,-0.65079,0.25551
-0.06622,0.99773,0.01198,0.1207,1.1529,0.53848
-0.06269,0.99761,-0.02888,-0.09194,3.0107,0.43292
-0.07352,0.99505,-0.06685,-0.50471,2.1074,-0.18213
-0.0747,0.99116,-0.10966,-0.4396,0.97494,-0.11538
-0.07811,0.98601,-0.14723,-0.12479,0.92147,-0.03078
-0.08988,0.98066,-0.17384,0.1224,0.60442,-0.44116
-0.10796,0.97253,-0.20622,0.18965,0.40012,-0.15754
-0.11305,0.9646,-0.23826,-0.05666,-0.45289,0.28666
-0.10632,0.9624,-0.24995,0.27809,-1.10736,0.38973
-0.10076,0.96921,-0.22464,0.5407,-1.78907,0.50959
-0.09582,0.97635,-0.1938,0.41669,-1.80627,0.427
-0.08089,0.97912,-0.1865,-0.31285,-1.12891,0.01168
-0.05848,0.97939,-0.19333,-0.33832,-0.87065,-0.11634
-0.04192,0.97708,-0.20868,-0.05532,-0.82761,-0.03956
-0.0247,0.97363,-0.22678,0.2611,-0.57078,0.11635
-0.006,0.96989,-0.24347,-0.00975,-0.46073,0.51905
0.02163,0.95918,-0.28195,-1.41382,0.88277,1.16061
-0.01759,0.96111,-0.2756,0.32379,1.37042,-0.30971
-0.0201,0.97062,-0.23977,0.43698,0.39703,-0.19039
-0.01582,0.98039,-0.19643,0.44066,0.39954,-0.33531
-0.01616,0.98762,-0.15602,0.21149,0.04848,0.24736
-0.01882,0.99451,-0.10295,-0.03707,0.45792,0.31194
-0.01533,0.99943,-0.02984,0.10126,0.50937,-0.12196
-0.00131,0.99878,0.04932,-0.0209,0.19515,-0.31663
0.00636,0.99558,0.09363,-0.42503,-0.56611,0.40562
-0.00069,0.99266,0.12092,-0.51324,-0.8735,0.1773
-0.01238,0.99083,0.1345,-0.22253,-0.66544,-0.1586
-0.02271,0.99151,0.12802,-0.02776,-0.8955,0.00842
-0.02594,0.99378,0.1083,0.2126,-1.01506,-0.0816
-0.02262,0.99651,0.08027,0.05952,-0.82242,0.0632
-0.01792,0.99903,0.0402,-0.10687,-0.33815,0.89987
-0.01903,0.9997,-0.01543,-0.02045,0.11413,0.60022
-0.02726,0.99851,-0.04713,-0.72256,2.43226,-0.14246
-0.03994,0.99612,-0.07839,-0.82241,1.28611,0.14129
-0.04675,0.99058,-0.1287,-0.64873,1.18655,-0.02902
-0.05724,0.98398,-0.16881,0.21931,1.05006,-0.34866
-0.0705,0.97662,-0.20309,0.1445,0.59304,-0.28309
-0.07956,0.96862,-0.23545,0.08526,0.43796,0.31995
-0.08431,0.96418,-0.25148,-0.05374,-0.52604,0.51506
-0.08715,0.96793,-0.23559,0.11211,-1.23714,0.3623
-0.09748,0.97569,-0.19627,0.36917,-1.53413,0.1204
-0.10615,0.98051,-0.16529,0.11372,-1.74957,-0.04809
-0.10079,0.98126,-0.16418,-0.14933,-1.16368,0.07623
-0.08406,0.97952,-0.18294,-0.18784,-1.02281,-0.00518
-0.05892,0.97612,-0.20907,-0.04673,-0.8037,0.21028
-0.02352,0.9727,-0.23084,-0.31898,-0.2686,0.59067
0.02554,0.95685,-0.28946,-1.00106,1.41887,0.21479
0.02291,0.94985,-0.31187,0.1336,1.62863,-0.19799
0.00239,0.96066,-0.27772,0.5439,-0.05537,-0.01801
-0.00456,0.97063,-0.24051,0.50677,0.39753,0.1476
-0.0145,0.98188,-0.18892,0.04926,0.5716,-0.0897
-0.02302,0.98944,-0.14307,-0.29752,0.9219,0.13692
-0.02245,0.99645,-0.08116,-0.2042,1.27037,-0.25527
-0.00951,0.99987,-0.01298,0.17183,0.12829,-0.34051
0.00526,0.99926,0.03791,-0.05926,-0.59628,-0.23078
0.01873,0.99689,0.07647,-0.19569,-0.87871,-0.064
0.02295,0.995,0.09713,-0.42438,-0.97314,0.25695
0.00928,0.99344,0.11393,-0.34029,-0.74523,0.26043
-0.00348,0.99322,0.11613,-0.07258,-0.76924,0.01969
-0.01311,0.99518,0.09718,0.01002,-0.78297,0.07265
-0.01749,0.99752,0.06808,0.01299,-0.81986,0.06508
-0.01987,0.99904,0.03893,-0.0206,-0.70496,0.52843
-0.02165,0.99976,0.00133,-0.55417,0.29881,1.14951
-0.01171,0.99894,-0.04447,-0.24272,1.35742,0.39525
-0.01809,0.99592,-0.0884,-0.47852,2.81841,0.23197
-0.01633,0.99034,-0.13765,-0.42893,1.23619,0.24782
-0.01851,0.98428,-0.1756,-0.30397,1.12825,-0.25578
-0.03424,0.97706,-0.21018,0.36397,1.10573,-0.46422
-0.05118,0.9676,-0.24725,0.18705,0.50114,-0.03624
-0.06409,0.95952,-0.27424,0.02896,-0.38414,0.39219
-0.06686,0.96136,-0.26706,0.24406,-1.07056,0.24418
-0.06979,0.96961,-0.23447,0.38378,-1.82703,0.14265
-0.06808,0.9753,-0.21013,0.15791,-1.872,0.0607
-0.0546,0.97621,-0.20984,-0.36483,-1.30564,0.18182
-0.0317,0.97401,-0.22424,-0.31506,-0.91994,-0.03514
-0.01064,0.96891,-0.24716,0.00135,-0.64094,0.08726
0.01202,0.96171,-0.27378,-0.01771,0.01166,0.34646
0.03912,0.94645,-0.32046,-0.58405,0.07216,1.01929
0.0597,0.93141,-0.35902,-0.51714,1.89569,-0.23351
0.03841,0.93861,-0.34283,0.03886,0.5915,0.34854
0.02659,0.94777,-0.31784,-0.00409,0.51152,0.32103
0.01441,0.96059,-0.27757,0.02317,0.65847,0.11784
0.0079,0.97271,-0.23189,-0.18393,0.60566,-0.27386
0.00726,0.98253,-0.18596,-0.02382,0.99721,-0.08411
0.01127,0.99148,-0.12974,0.18957,1.08316,-0.11579
0.02676,0.99704,-0.0721,0.01516,0.32044,-0.28372
0.04206,0.99884,-0.02349,-0.18989,-0.46606,-0.1525
0.05316,0.99843,0.01751,-0.29622,-0.81311,0.09791
0.05475,0.99726,0.0496,-0.44008,-0.88867,0.17333
0.04287,0.99661,0.07021,-0.18036,-0.68646,0.24056
0.02905,0.99686,0.07357,0.04509,-0.72576,0.00378
0.01588,0.99817,0.05822,0.05498,-0.78408,0.03866
0.00492,0.99945,0.03253,0.08741,-0.87244,0.09396
-0.00511,0.99998,0.00315,0.0622,-0.98354,0.04946
-0.01457,0.99963,-0.02269,-0.05459,-0.78618,0.326
-0.02219,0.99785,-0.06163,-0.09519,0.56542,0.47356
-0.02843,0.99237,-0.11992,0.11084,1.56319,0.33164
-0.04021,0.98556,-0.16445,0.05399,2.08687,0.19545
-0.03178,0.97945,-0.19913,-0.66429,1.06875,-0.23881
-0.022,0.97262,-0.23136,-0.36075,1.17253,-0.26882
-0.0285,0.96636,-0.2556,-0.01431,1.11201,-0.35287
-0.04275,0.95824,-0.28276,0.05523,0.77176,-0.23993
-0.04528,0.95019,-0.30837,0.14307,-0.12568,0.31224
-0.02885,0.95069,-0.30878,-0.03884,-0.31428,0.27377
-0.03853,0.95976,-0.27815,0.4059,-1.24809,0.26781
-0.05504,0.97036,-0.23529,0.22588,-1.6087,0.33339
-0.05633,0.97512,-0.21437,-0.21395,-1.23419,0.04301
-0.04113,0.97504,-0.21818,-0.35823,-0.88968,0.23112
-0.0176,0.97217,-0.23359,-0.37272,-0.79232,0.43909
0.00396,0.96834,-0.24961,-0.49032,-0.79767,0.48937
0.01603,0.965,-0.26174,-0.79244,-0.01709,0.8378
0.02306,0.94714,-0.31997,-0.76053,0.65549,1.1806
0.00548,0.93417,-0.35677,0.28753,2.30855,0.24886
0.00291,0.94677,-0.32188,0.41924,-0.17387,-0.43563
0.00098,0.95615,-0.29288,0.55775,-0.11848,-0.13191
0.00104,0.96568,-0.25973,0.04633,0.46006,-0.15762
0.00027,0.97515,-0.22154,-0.03769,0.94557,0.08295
-0.00165,0.98697,-0.16084,-0.02809,1.00859,-0.05124
0.00812,0.99548,-0.09457,0.07773,0.74594,-0.28757
0.02148,0.99909,-0.03677,0.07558,0.08052,-0.16213
0.03213,0.99942,0.0112,-0.30367,-0.11293,-0.07659
0.0323,0.99847,0.04481,-0.41863,-0.53689,-0.04847
0.02203,0.99767,0.06456,-0.30296,-0.75385,0.13941
0.00614,0.99756,0.06946,0.00763,-0.89913,0.26907
-0.00914,0.99836,0.05633,0.05025,-0.93287,0.24854
-0.0185,0.99931,0.03199,0.16567,-0.94061,0.02716
-0.0228,0.99973,0.00236,0.17172,-0.75822,0.40744
-0.02491,0.99882,-0.04156,-0.39166,-0.03115,0.85939
-0.02184,0.99618,-0.08445,-0.19662,1.39456,0.17688
-0.03137,0.99303,-0.11354,-0.38312,2.07639,0.08347
-0.03781,0.9878,-0.15102,-0.35987,0.85073,0.12762
-0.04208,0.98086,-0.19008,0.18977,0.99445,-0.0101
-0.05328,0.97431,-0.21879,0.19545,0.99117,-0.2295
-0.06542,0.96671,-0.24734,0.16907,0.67721,-0.30545
-0.07924,0.95836,-0.27432,0.1001,0.30622,0.11226
-0.09435,0.95301,-0.28787,0.03649,-0.36451,0.17732
-0.1007,0.95507,-0.27874,0.31773,-0.94788,0.07757
-0.10421,0.9636,-0.24619,0.31032,-1.18502,-1e-05
-0.10319,0.97035,-0.21855,0.0203,-1.59244,0.20045
-0.0845,0.97222,-0.21826,-0.14977,-1.33791,0.20578
-0.05416,0.97131,-0.23153,-0.3122,-1.13091,0.22442
-0.02518,0.96879,-0.24659,-0.053,-0.7654,0.28666
-0.00377,0.96726,-0.25373,-0.06728,-0.5825,0.3807
0.01364,0.96022,-0.2789,-0.33974,-0.21973,0.60208
0.0099,0.9441,-0.32951,-0.07227,3.49847,-0.67462
-0.01418,0.95234,-0.30471,0.47181,1.54388,0.05965
-0.01953,0.96284,-0.26935,0.47491,0.40275,-0.17347
-0.02463,0.97292,-0.22983,0.36105,0.4749,-0.08663
-0.02057,0.98089,-0.19345,0.02167,0.266,0.10496
-0.01135,0.99023,-0.13897,-0.12971,0.39842,0.24977
-0.00189,0.99744,-0.07136,-0.11464,0.44396,-0.21695
0.00877,0.99988,-0.0124,-0.098,0.22722,-0.2331
0.01554,0.9994,0.03074,-0.19982,-0.11177,-0.21507
0.01323,0.99803,0.0613,-0.37544,-0.5505,-0.12984
0.00101,0.99705,0.07671,-0.16554,-0.72462,0.13061
-0.0134,0.99666,0.08051,-0.01217,-0.85197,0.04376
-0.02587,0.99721,0.06997,0.13653,-0.96208,0.00675
-0.03259,0.99833,0.04762,0.22898,-0.97942,-0.00393
-0.0327,0.99926,0.01984,0.15396,-0.96037,-0.00179
-0.03269,0.99941,-0.0103,-0.07289,-0.32739,1.1308
-0.02801,0.99802,-0.05627,-0.28779,0.89728,0.56843
-0.02759,0.99515,-0.09438,-0.37667,2.16629,0.2959
-0.04077,0.99171,-0.12183,-0.65366,1.93027,0.13825
-0.03896,0.98722,-0.15449,-0.4947,0.92856,-0.01951
-0.04514,0.9814,-0.1866,0.12402,1.05861,-0.13483
-0.06432,0.97448,-0.21503,0.33172,0.73829,-0.3051
-0.08446,0.96569,-0.24557,0.26993,0.69595,-0.12446
-0.09753,0.95873,-0.26707,-0.0981,-0.13718,0.15283
-0.10453,0.9597,-0.26083,0.04006,-0.75199,0.1795
-0.10866,0.96886,-0.22246,0.24707,-1.342,0.1322
-0.11362,0.9766,-0.18257,0.23647,-1.70242,0.06259
-0.1083,0.9795,-0.16982,0.04387,-1.28071,0.00782
-0.09076,0.97964,-0.17903,-0.17299,-0.94737,0.00497
-0.06618,0.97688,-0.20328,-0.10236,-0.88467,-0.09488
-0.04055,0.97237,-0.22989,0.1264,-0.70239,0.25925
-0.00643,0.96379,-0.26659,-0.33939,-0.17115,1.06845
0.01969,0.95055,-0.30994,-0.24346,2.45366,-0.21804
-0.00939,0.95394,-0.29985,0.25208,0.89965,0.07695
-0.02664,0.96081,-0.27591,0.2712,0.13393,0.05831
-0.03025,0.97238,-0.2314,0.03629,0.6103,-0.03898
-0.03385,0.98218,-0.18484,0.12765,0.50758,-0.25231
-0.03134,0.99,-0.13751,0.10788,0.60235,0.15193
-0.02432,0.99665,-0.07805,0.10122,0.95823,0.01306
-0.01001,0.99973,-0.02087,-0.06299,0.51985,-0.09567
0.00474,0.99968,0.02455,-0.27909,-0.2545,-0.05109
0.01693,0.99786,0.06311,-0.53699,-0.68234,0.03244
0.01877,0.99544,0.09348,-0.4781,-0.89232,0.07309
0.00826,0.99375,0.11128,-0.22631,-0.70304,0.02566
-0.0043,0.9938,0.11107,-0.04053,-0.73937,0.05266
-0.01431,0.99576,0.09081,0.10167,-0.84107,0.126
-0.01929,0.9978,0.06327,0.08156,-0.98165,-0.03034
-0.02408,0.99914,0.03363,0.01921,-0.9481,-0.20331
-0.03243,0.99947,0.00077,0.00683,-0.44216,0.81285
-0.03765,0.99793,-0.05209,0.02656,0.356,1.19567
-0.04642,0.9956,-0.08136,-0.44096,2.92068,0.06688
-0.05543,0.99221,-0.11152,-0.36249,1.4134,0.06947
-0.05209,0.98765,-0.1477,-0.34688,0.85176,-0.06359
-0.05647,0.98253,-0.17733,0.03426,0.9588,-0.13407
-0.07267,0.97644,-0.20318,0.28284,0.64609,-0.29906
-0.08425,0.96974,-0.22913,0.04478,0.54999,-0.12617
-0.08856,0.96575,-0.24388,-0.08994,-0.04757,0.08322
-0.08682,0.96788,-0.23591,0.0955,-0.75104,0.16802
-0.08675,0.97503,-0.20438,0.4555,-1.34765,0.1962
-0.09274,0.9793,-0.17989,0.37234,-1.77448,0.16877
-0.08661,0.97939,-0.18245,-0.14175,-1.14417,-0.03036
-0.06716,0.97809,-0.19701,-0.37342,-0.97771,0.00757
-0.04431,0.97587,-0.21378,-0.02403,-0.84825,0.21206
-0.02389,0.97393,-0.22556,0.03189,-0.49893,0.52761
-0.00607,0.96687,-0.25519,-0.55985,0.35373,1.30532
0.0011,0.94516,-0.3266,-0.43503,4.2874,-0.65169
-0.04364,0.94342,-0.3287,0.27162,0.28754,-0.01857
-0.048,0.95532,-0.29163,0.2682,-0.05881,-0.39844
-0.05398,0.96664,-0.25037,0.31386,0.12363,-0.0924
-0.05603,0.97475,-0.21615,0.08661,0.15599,-0.02152
-0.05507,0.98404,-0.16919,-0.00672,0.51265,0.07809
-0.05194,0.99359,-0.10036,0.06958,0.9961,-0.22793
-0.03719,0.99873,-0.03395,0.07095,0.44271,-0.25893
-0.01775,0.99974,0.01365,-0.08321,-0.30521,0.01791
-0.00581,0.99874,0.04971,-0.3168,-0.74688,0.229
-0.00822,0.99726,0.0734,-0.38203,-0.69874,0.04099
-0.01995,0.99658,0.08015,-0.01011,-0.59083,0.00221
-0.02973,0.99718,0.06875,-0.07664,-0.85853,0.10692
-0.03783,0.99838,0.04242,0.03712,-0.99127,0.02113
-0.04299,0.99903,0.00945,0.05088,-1.05379,-0.04687
-0.04912,0.99849,-0.02437,-0.02418,-0.71835,0.39894
-0.05345,0.99644,-0.06512,0.03148,0.79796,0.63382
-0.05164,0.99398,-0.09661,-0.1938,2.72146,0.12663
-0.06992,0.98942,-0.12704,-0.4916,2.26131,-0.1823
-0.06271,0.984,-0.16675,-0.62568,0.75303,-0.27466
-0.05768,0.97713,-0.20466,-0.30534,0.66307,-0.03379
-0.06429,0.97054,-0.23219,0.26563,0.35443,-0.14879
-0.07273,0.96387,-0.25625,0.33653,0.08696,0.0998
-0.07693,0.95889,-0.27315,0.12276,-0.31558,0.31395
-0.08137,0.9604,-0.26646,0.2931,-0.89721,0.15908
-0.08457,0.97058,-0.22541,0.28608,-1.39737,0.20525
-0.08035,0.97893,-0.18769,0.24538,-1.6,0.23069
-0.06325,0.98135,-0.18151,-0.06297,-1.18504,0.03428
-0.03695,0.98051,-0.19293,-0.24605,-0.97589,0.11845
-0.01536,0.97772,-0.20933,-0.05938,-0.98359,0.15352
0.00107,0.9758,-0.21863,0.15657,-0.6942,0.37837
0.02168,0.96593,-0.25786,-0.59684,0.2057,1.13719
0.01034,0.94249,-0.33406,-0.65388,4.53073,-0.9641
-0.02022,0.94751,-0.31908,0.89731,0.79618,0.19466
-0.01717,0.96056,-0.27754,0.42113,-0.26791,-0.20743
-0.01742,0.97135,-0.23698,0.239,-0.06345,-0.1647
-0.0119,0.97981,-0.19955,-0.27106,0.74213,0.11726
-0.01267,0.98871,-0.14929,-0.28183,1.35614,0.3011
-0.00692,0.99685,-0.07899,0.14622,0.5227,-0.32352
0.00913,0.99972,-0.02136,0.05851,0.00263,-0.06853
0.023,0.99943,0.02433,-0.38483,-0.55482,0.04193
0.0245,0.99792,0.05946,-0.58362,-0.78735,-0.0769
0.01202,0.99685,0.07832,-0.2881,-0.77349,0.14867
-0.00458,0.99625,0.08636,-0.02811,-0.89375,0.19814
-0.0174,0.99665,0.07979,0.03231,-0.88044,0.12643
-0.02357,0.99779,0.06199,0.11471,-0.95635,0.00076
-0.02503,0.99898,0.03741,-0.01661,-0.9255,-0.09396
-0.02757,0.99956,0.01013,0.03409,-0.37221,0.68082
-0.02731,0.99911,-0.03186,-0.08472,0.44017,1.24707
-0.02565,0.99689,-0.07449,-0.4472,2.84485,0.48299
-0.02845,0.99339,-0.11115,-0.65394,2.44138,0.00245
-0.02111,0.98869,-0.14849,-0.61839,1.0344,-0.08245
-0.01875,0.98295,-0.18292,-0.07988,0.89959,-0.07274
-0.02919,0.97764,-0.20821,0.35225,0.69882,-0.35507
-0.04392,0.97001,-0.23903,0.21766,0.43849,-0.09862
-0.04903,0.96189,-0.26899,0.0909,-0.045,0.15156
-0.04769,0.95827,-0.28184,0.23339,-0.60851,0.27455
-0.04542,0.96502,-0.2582,0.37208,-1.46311,0.22718
-0.04519,0.97668,-0.20986,0.298,-1.84112,0.344
-0.03832,0.98236,-0.18302,-0.01733,-1.67553,0.05402
-0.01922,0.98352,-0.17974,-0.24371,-0.99246,0.0712
0.00276,0.98274,-0.18496,-0.2603,-0.69764,0.04891
0.01564,0.98092,-0.19378,0.00482,-0.59623,0.14672
0.02289,0.97818,-0.20649,0.07007,-0.406,0.34467
0.03815,0.96782,-0.24872,-0.77435,0.1499,1.74631
0.02454,0.95583,-0.29288,0.08793,3.55069,-0.61534
0.00652,0.96144,-0.27493,0.59417,0.9924,0.10475
0.00691,0.97099,-0.23901,0.30301,0.18877,-0.07969
0.00855,0.97932,-0.20212,-0.03772,0.01909,-0.26223
0.01452,0.98605,-0.16581,-0.30946,0.17176,0.08866
0.01564,0.99333,-0.11418,-0.32741,0.86435,0.1453
0.0158,0.99862,-0.04993,0.19339,0.86322,-0.3802
0.02566,0.99966,-0.00084,0.17082,0.16431,-0.18742
0.03215,0.99873,0.03871,-0.18556,-0.51916,0.04517
0.02626,0.99752,0.06517,-0.46675,-0.87948,-0.03247
0.00975,0.99679,0.0794,0.13184,-0.81097,0.17072
-0.00494,0.99651,0.0832,-0.02649,-0.99809,0.1008
-0.01658,0.99723,0.07244,-0.02244,-0.97161,0.05555
-0.02119,0.99832,0.05375,0.05608,-0.96826,0.02993
-0.02264,0.99924,0.0315,-0.11138,-0.7587,-0.00814
-0.02512,0.99965,0.00733,-0.03526,-0.43688,0.39622
-0.0227,0.99912,-0.03514,-0.08585,1.70312,0.72541
-0.02102,0.99708,-0.07327,-0.4018,3.01492,0.48712
-0.02035,0.99372,-0.11001,-0.60302,1.6679,0.01352
-0.0152,0.98824,-0.15211,-0.5251,0.89083,-0.01448
-0.02058,0.98144,-0.19065,-0.17875,0.8019,0.03497
-0.03619,0.97615,-0.21403,0.2858,0.6707,-0.38978
-0.05314,0.96741,-0.24754,0.16195,0.51052,-0.10269
-0.05712,0.95844,-0.27951,0.06893,-0.02896,0.22463
-0.05699,0.95451,-0.29266,0.1566,-0.39252,0.3477
-0.06051,0.96038,-0.27204,0.40725,-1.41397,0.24572
-0.06661,0.96888,-0.23836,0.39317,-1.66363,0.25877
-0.06275,0.9728,-0.22294,0.22167,-1.77156,0.22646
-0.04569,0.97312,-0.22571,-0.25299,-1.08513,0.06518
-0.0234,0.97248,-0.23179,-0.13817,-0.91535,-0.05089
-0.00382,0.97122,-0.23814,0.14971,-0.57721,0.04441
0.02044,0.96797,-0.25023,-0.03858,-0.23797,0.74884
0.05634,0.95513,-0.29076,-1.28418,1.40983,0.83677
0.02432,0.95,-0.31128,0.41883,2.69457,-0.15198
0.00528,0.95587,-0.29374,0.26199,-0.01333,0.13143
-0.00115,0.96684,-0.25536,0.56257,0.31533,-0.06361
-0.0097,0.97604,-0.21734,0.17828,0.29938,-0.05669
-0.01363,0.98336,-0.18112,-0.20747,0.58179,0.06535
-0.01766,0.9913,-0.13037,-0.22236,1.26396,0.0319
-0.00982,0.99756,-0.06903,0.05807,0.63614,-0.32187
0.005,0.99972,-0.02289,0.00539,-0.01452,-0.19531
0.01617,0.99978,0.01261,-0.22624,-0.63354,0.09762
0.01832,0.99887,0.04379,-0.32108,-0.8766,0.10109
0.00743,0.99811,0.0609,-0.15252,-0.87464,0.16226
-0.00497,0.99776,0.06666,-0.04974,-0.93876,0.17194
-0.01341,0.99815,0.05927,-0.12705,-0.8975,0.05082
-0.01676,0.99906,0.03971,-0.00592,-0.90312,0.04286
-0.01483,0.99979,0.01394,-0.35761,-0.73582,0.12566
-0.01157,0.99981,-0.01528,-0.29643,-0.52561,0.72569
-0.01086,0.99788,-0.0641,-0.26888,-0.14114,1.18385
-0.01142,0.99482,-0.10099,-0.40369,2.7604,0.33194
-0.01308,0.99112,-0.13227,-0.53776,2.47699,0.12748
-0.00573,0.98573,-0.16823,-0.40681,0.91264,-0.0724
-0.00688,0.98012,-0.19827,0.19245,0.87448,-0.148
-0.01815,0.97569,-0.21837,0.27496,0.72055,-0.32114
-0.03213,0.96955,-0.24275,0.11344,0.42184,-0.17934
-0.04047,0.96417,-0.26217,-0.03326,0.02543,0.20384
-0.04263,0.9639,-0.26281,0.07098,-0.54334,0.26431
-0.044,0.97138,-0.2334,0.25074,-1.31015,0.07538
-0.04679,0.98011,-0.19282,0.23647,-1.61193,0.11858
-0.04133,0.98332,-0.1771,0.10602,-1.61024,-0.03721
-0.02392,0.983,-0.18198,-0.12417,-0.96599,0.19242
0.00164,0.98006,-0.19869,-0.16893,-0.84477,0.23268
0.02425,0.97663,-0.21352,-0.15863,-0.74461,0.18618
0.03911,0.9736,-0.22484,-0.08616,-0.45857,0.53966
0.05593,0.96337,-0.26227,-1.16493,0.8378,1.39599
0.02712,0.94868,-0.31507,0.28338,3.16926,0.04917
0.00195,0.95315,-0.30247,0.09683,0.55526,-0.19547
0.00226,0.96555,-0.26018,0.28589,0.28222,-0.26486
0.00324,0.97433,-0.22507,0.27143,0.10967,-0.14815
0.00915,0.98189,-0.18921,-0.10928,0.34712,0.13933
0.01434,0.98977,-0.1419,-0.14817,0.81676,0.21296
0.02276,0.9967,-0.07783,0.07869,0.61005,-0.35419
0.03477,0.99903,-0.02676,0.15875,0.18226,0.02827
0.04266,0.99898,0.01431,-0.47679,-0.43093,0.16885
0.03607,0.9986,0.0386,-0.45465,-0.80368,0.16711
0.01795,0.99862,0.04921,-0.26771,-0.78565,0.0097
0.00237,0.99888,0.04716,-0.03516,-0.91584,-0.01891
-0.00758,0.99949,0.03087,0.06342,-1.02615,0.04318
-0.0117,0.99991,0.00482,0.14669,-1.09214,0.05502
-0.01335,0.99959,-0.02503,-0.02893,-1.05057,0.06385
-0.01541,0.99843,-0.05382,-0.00385,-0.33102,0.92686
-0.01125,0.99503,-0.09887,-0.15069,0.96983,0.72801
-0.01652,0.99024,-0.13838,-0.42726,3.46783,0.22947
-0.01492,0.98616,-0.16511,-0.33057,1.1007,-0.08814
-0.00444,0.98013,-0.19831,-0.44559,0.8607,-0.06291
-0.00413,0.9737,-0.22776,0.03698,0.88718,-0.00638
-0.01067,0.96968,-0.24413,0.08068,0.66399,-0.43803
-0.02124,0.96482,-0.26205,-0.06711,0.32824,-0.09469
-0.02388,0.95999,-0.27902,-0.17947,-0.07409,0.23547
-0.02101,0.95914,-0.28213,0.09134,-0.60631,0.32751
-0.01883,0.96701,-0.25403,0.34886,-1.25444,0.32551
-0.01992,0.97688,-0.21283,0.26223,-1.4677,0.34845
-0.01631,0.98138,-0.19134,-0.03314,-1.4467,0.04779
-0.0038,0.98186,-0.18956,-0.23299,-0.99907,-0.10259
0.01278,0.98032,-0.19698,-0.05807,-0.80136,0.27902
0.02857,0.97792,-0.20698,-0.09827,-0.68082,0.18968
0.03838,0.9742,-0.22238,-0.16613,-0.60542,0.29408
0.05291,0.9573,-0.2842,-0.88475,1.45272,0.1464
0.03154,0.94224,-0.33344,-0.3233,2.72727,-0.55534
0.01273,0.94699,-0.32101,0.63323,0.84072,0.37876
0.01116,0.95623,-0.29239,0.37157,0.61285,0.21919
0.00514,0.96664,-0.25606,0.27426,0.45662,-0.15113
0.00022,0.97407,-0.22623,-0.03329,0.3332,-0.42007
-0.00353,0.98272,-0.18503,0.08302,0.89333,0.10364
0.00422,0.99062,-0.13658,0.14868,0.68788,-0.02777
0.01997,0.99493,-0.09852,-0.09385,-0.13302,0.00055
0.03066,0.99726,-0.06731,-0.35732,-0.63903,0.18684
0.03052,0.9986,-0.04298,-0.49794,-0.81646,0.22622
0.01951,0.99947,-0.02603,-0.26289,-0.85402,0.20491
0.00413,0.99979,-0.01978,-0.1703,-0.90538,0.15837
-0.00969,0.9996,-0.02632,-0.1284,-0.95872,0.14901
-0.02092,0.99881,-0.04389,0.12341,-1.06235,0.1426
-0.02776,0.99725,-0.06872,0.1665,-0.98054,0.21327
-0.03083,0.99476,-0.09748,0.10996,-0.83828,0.37595
-0.02777,0.99074,-0.1329,0.15569,0.30773,0.94516
-0.02026,0.98591,-0.16602,-0.38773,2.59434,0.28559
-0.01678,0.98124,-0.19204,-0.86107,2.69315,0.06276
-0.00325,0.97575,-0.21886,-0.37935,0.65581,-0.00829
0.00417,0.96908,-0.24671,-0.21383,0.81709,0.01893
-0.0049,0.96302,-0.26936,0.15598,0.70284,-0.08129
-0.01723,0.95656,-0.29102,0.00636,0.46625,-0.17697
-0.02249,0.94877,-0.31517,-0.21422,0.1573,-0.04512
-0.01857,0.94243,-0.33388,-0.052,-0.17891,0.1902
-0.0151,0.94068,-0.33895,0.26681,-0.50869,0.37504
-0.01666,0.94317,-0.33188,0.36784,-0.96368,0.3439
-0.02286,0.94602,-0.3233,0.3332,-1.10845,0.26417
-0.02506,0.94696,-0.32037,0.11449,-1.18776,0.1476
-0.01765,0.94523,-0.32591,-0.09406,-1.07206,0.15669
-0.00709,0.94165,-0.3365,-0.14242,-0.96174,0.30058
-3e-05,0.93918,-0.34342,-0.07764,-0.88083,0.25034
0.00086,0.937,-0.34932,-0.08134,-0.64847,0.27828
0.00719,0.92114,-0.38915,-0.36544,-0.18193,0.5972
-0.04352,0.89501,-0.4439,0.03258,4.34952,0.23352
-0.06091,0.89597,-0.43991,0.52232,-0.26493,-0.14119
-0.05818,0.90546,-0.42042,0.56163,-0.40422,0.13125
-0.05622,0.91595,-0.39732,0.66905,0.053,-0.00479
-0.06546,0.92261,-0.38012,0.19521,0.58906,-0.21952
-0.08459,0.93108,-0.35486,-0.0072,1.53715,0.20164
-0.09274,0.94473,-0.31444,0.03973,0.51628,-0.20808
-0.09398,0.95492,-0.28158,0.20082,0.12307,0.00204
-0.08652,0.96263,-0.25663,0.06197,-0.04597,0.21641
-0.08226,0.96939,-0.23132,-0.18267,-0.3268,0.30233
-0.0889,0.97335,-0.21136,-0.2746,-0.64604,0.39942
-0.10311,0.97356,-0.20383,-0.14291,-0.77185,0.46787
-0.12343,0.97133,-0.20315,-0.07684,-0.84147,0.48166
-0.14637,0.96613,-0.21253,-0.0142,-0.99709,0.31909
-0.16609,0.95932,-0.22826,0.10583,-1.00692,0.3522
-0.17839,0.95293,-0.24516,0.25543,-0.30174,1.04085
-0.17911,0.94461,-0.27498,-0.03643,1.01597,0.54178
-0.18648,0.93626,-0.29771,0.10581,1.97499,0.29887
-0.18277,0.93106,-0.31579,-0.23811,0.87851,0.05335
-0.16892,0.92584,-0.33804,0.18365,0.50035,-0.0737
-0.16475,0.92063,-0.35397,0.41106,0.6371,0.09823
-0.17197,0.9177,-0.35812,0.31652,0.52264,-0.01478
-0.1852,0.91335,-0.36261,0.08228,0.27595,0.03014
-0.19733,0.90865,-0.36797,-0.01409,0.1372,0.0414
-0.20506,0.90539,-0.37177,0.14283,-0.21646,0.21708
-0.20525,0.90689,-0.36798,0.30051,-0.54743,0.23961
-0.21055,0.91212,-0.35171,0.3617,-0.67224,0.23332
-0.22188,0.91601,-0.3342,0.48097,-0.77276,0.39014
-0.22753,0.9188,-0.32253,0.25443,-0.77479,0.46764
-0.2243,0.92051,-0.31992,0.09374,-0.72564,0.50579
-0.22448,0.92137,-0.31729,-0.0986,-0.42418,0.284
-0.24608,0.92003,-0.30494,0.16536,-0.36356,0.37527
-0.27322,0.91384,-0.30039,0.38981,-0.28297,0.14246
-0.28799,0.89968,-0.32807,0.43732,0.35658,1.38169
-0.29984,0.88751,-0.34987,0.87608,3.03441,0.27247
-0.33673,0.88113,-0.332,0.54001,2.69053,-0.33099
-0.34861,0.8861,-0.30544,0.32649,0.17485,-0.07714
-0.3483,0.89356,-0.28324,0.15195,0.24699,-0.1324
-0.35043,0.9011,-0.25538,0.16623,0.99164,-0.07834
-0.35594,0.9078,-0.22179,0.51193,0.75508,0.09585
-0.35624,0.91599,-0.18451,0.66718,0.2969,0.07476
-0.35533,0.92276,-0.14914,0.70472,0.26162,0.15355
-0.35549,0.92714,-0.1185,0.68554,0.17707,0.21556
-0.35766,0.92907,-0.09436,0.33769,-0.29802,0.37399
-0.36586,0.92769,-0.07433,0.20585,-0.3956,0.31563
-0.37813,0.92406,-0.05589,0.07471,-0.58586,-0.06028
-0.39375,0.91823,-0.04252,0.26295,-0.60889,-0.12231
-0.41267,0.91,-0.04001,0.37681,-0.60317,-0.06369
-0.43263,0.90043,-0.04531,0.56803,-0.88584,0.17551
-0.45256,0.89041,-0.04844,0.81671,-0.77959,0.2927
-0.47064,0.88079,-0.05188,0.874,-0.56104,0.49062
-0.47963,0.87491,-0.06698,0.64117,-0.11999,0.65559
-0.4746,0.87755,-0.06829,-0.56222,3.26136,0.21467
-0.46721,0.88166,-0.06625,-0.2924,0.75485,-0.11872
-0.46169,0.88395,-0.07393,0.36874,0.29462,-0.20654
-0.46213,0.88353,-0.07617,0.67281,0.61823,-0.16529
-0.46754,0.88108,-0.07141,0.68582,0.55209,-0.08689
-0.47134,0.87988,-0.06036,0.45766,0.34377,-0.07689
-0.4727,0.87995,-0.04736,0.33221,0.10373,0.15097
-0.47168,0.88117,-0.03226,0.34172,-0.04745,0.15578
-0.47052,0.88237,-0.00397,0.44065,-0.32894,0.1347
-0.46767,0.88329,0.03279,0.43963,-0.48532,0.08565
-0.46396,0.88344,0.06541,0.40753,-0.50494,0.06687
-0.46001,0.88402,0.08295,0.18081,-0.48079,-0.11483
-0.45466,0.88651,0.0859,0.12451,-0.41812,-0.23989
-0.4483,0.89047,0.07802,0.14073,-0.41685,-0.25038
-0.44208,0.89407,0.07202,0.30887,-0.69276,-0.04465
-0.43526,0.89772,0.06807,0.42095,-0.53751,-0.08311
-0.42539,0.90338,0.05419,0.43198,-0.34614,-0.17047
-0.41689,0.90829,0.03475,0.54813,0.73988,0.44249
-0.41981,0.90632,0.04837,0.79397,1.19287,-0.22912
-0.41472,0.90729,0.0694,0.72687,1.26229,-0.02257
-0.40056,0.91003,0.10669,0.15303,0.98577,-0.77999
-0.38502,0.91373,0.12983,0.36318,0.78853,-0.24557
-0.36633,0.91684,0.15876,0.38091,0.48325,-0.13082
-0.344,0.91584,0.20711,0.44228,0.37646,-0.34073
-0.32251,0.9125,0.25162,0.39771,0.36148,-0.26321
-0.30527,0.90764,0.28808,0.39167,0.14316,-0.19347
-0.29083,0.90241,0.31791,0.39162,0.03203,-0.18685
-0.28147,0.89712,0.34051,0.27697,-0.156,-0.33201
-0.27627,0.89411,0.35246,0.1683,-0.38827,-0.50183
-0.27446,0.89356,0.35526,0.12854,-0.58443,-0.50387
-0.27816,0.89597,0.34619,0.26946,-0.72978,-0.4159
-0.28686,0.90036,0.32719,0.26105,-0.80215,-0.36072
-0.29697,0.90501,0.30454,0.46976,-0.92659,-0.15071
-0.30871,0.90914,0.27956,0.24183,-0.42144,0.66803
-0.31987,0.9176,0.23596,-0.06123,-0.03641,0.39949
-0.30518,0.92678,0.21893,-0.0091,2.48496,-0.53883
-0.30135,0.9315,0.20368,-0.01992,1.6572,-0.54107
-0.3019,0.93735,0.17381,0.21133,0.60415,-0.25247
-0.30672,0.9407,0.14488,0.14783,0.73335,-0.2887
-0.31715,0.94066,0.12067,-0.00099,0.70527,-0.50484
-0.33117,0.93857,0.09697,0.01545,0.50689,-0.42218
-0.34466,0.93575,0.07473,0.12945,0.16583,-0.23867
-0.35216,0.93378,0.06353,0.3185,-0.21382,-0.27917
-0.35525,0.93203,0.07147,0.43571,-0.26309,-0.36134
-0.35439,0.93028,0.09471,0.59052,-0.58956,-0.33287
-0.35123,0.92929,0.11423,0.4659,-0.90779,-0.32428
-0.34679,0.93107,0.11329,0.23877,-0.76379,-0.328
-0.33709,0.93591,0.10214,0.17331,-0.77761,-0.31506
-0.32091,0.94296,0.08847,0.20595,-0.94316,-0.29425
-0.30105,0.95062,0.07541,0.19944,-0.96559,-0.2213
-0.28016,0.95838,0.0548,-0.00023,-0.4996,0.31046
-0.25941,0.96571,0.01018,-0.04923,0.13065,0.35862
-0.24578,0.96925,-0.01231,-0.01524,1.26109,0.03174
-0.25571,0.96673,0.00566,0.32578,0.39176,-0.22108
-0.25966,0.96531,0.02728,0.31357,0.22555,-0.21338
-0.25367,0.96525,0.06276,0.19945,0.29214,-0.37486
-0.24366,0.9639,0.10735,0.44619,0.76865,-0.74654
-0.22735,0.96186,0.1521,0.4721,0.88317,-0.5277
-0.20697,0.95626,0.20667,0.39526,0.50295,-0.50542
-0.18738,0.94627,0.26352,0.39899,0.29748,-0.45667
-0.17146,0.93242,0.3181,0.32748,0.203,-0.38356
-0.15501,0.91553,0.37116,0.14692,0.20207,-0.52596
-0.14267,0.89964,0.41266,0.04766,-0.01554,-0.67432
-0.13617,0.88997,0.43519,0.04377,-0.56647,-0.36628
-0.13995,0.88597,0.44211,-0.04199,-0.69646,-0.15723
-0.14682,0.88668,0.43844,0.10542,-0.69727,-0.25966
-0.15294,0.89299,0.42328,0.32652,-0.72356,-0.31158
-0.15542,0.90331,0.39983,0.45574,-0.71138,-0.36713
-0.16093,0.91511,0.36967,0.12408,0.01349,0.37952
-0.16844,0.9316,0.3221,0.04625,0.37392,0.14575
-0.15941,0.94335,0.29096,-0.3625,1.50286,-0.03951
-0.1594,0.95132,0.26376,-0.48674,1.2955,0.08364
-0.16784,0.95901,0.22829,0.20222,1.09345,-0.21274
-0.18052,0.96543,0.18799,0.19031,1.29319,-0.36088
-0.19777,0.96915,0.14705,-0.19383,0.89895,-0.60967
-0.21888,0.96927,0.11226,-0.13465,0.6013,-0.50872
-0.23867,0.96775,0.08054,-0.20677,0.00385,-0.49537
-0.25124,0.96599,0.06109,0.23806,-0.19792,-0.24832
-0.25994,0.96345,0.06477,0.6063,-0.69002,-0.16623
-0.26377,0.96116,0.08112,0.56272,-1.52208,-0.10909
-0.26689,0.95911,0.09415,0.27616,-1.66837,-0.18771
-0.26567,0.95967,0.09191,0.0777,-1.26619,-0.28376
-0.2544,0.96367,0.08131,-3e-05,-1.09946,-0.22909
-0.23403,0.97016,0.06339,0.049,-0.98185,-0.25713
-0.20765,0.97727,0.04258,0.3913,-0.78048,-0.28249
-0.17954,0.98335,0.02781,0.28303,-0.83678,0.21702
-0.15048,0.98854,0.01197,-0.93732,0.36757,1.43633
-0.14782,0.98815,-0.04135,0.26432,4.37919,-0.62923
-0.16838,0.98566,-0.01071,0.67403,1.2283,-0.00053
-0.16561,0.98591,0.02326,0.24121,-0.16496,-0.38508
-0.15692,0.9857,0.06131,0.29303,0.13748,-0.53794
-0.14668,0.98443,0.09685,0.48577,0.33411,-0.23216
-0.13549,0.98103,0.13861,0.08091,0.96967,0.01455
-0.11566,0.97168,0.20604,0.25265,0.55344,-0.45769
-0.09061,0.95751,0.27377,0.25243,0.32201,-0.58292
-0.06958,0.94376,0.32322,-0.18615,0.06038,-0.56936
-0.05642,0.93394,0.35294,-0.5664,-0.50805,-0.3778
-0.05569,0.92671,0.3716,-0.59625,-0.66341,-0.37284
-0.07001,0.92443,0.37484,0.04888,-0.86152,-0.2211
-0.08629,0.92667,0.36582,0.40144,-0.9289,-0.13305
-0.0991,0.93349,0.34463,0.35843,-0.80357,-0.22529
-0.10214,0.94268,0.31766,0.27447,-0.83248,-0.43559
-0.10703,0.95113,0.28963,0.24523,-0.37496,0.64068
-0.12016,0.96398,0.23727,-0.19886,0.66676,0.45194
-0.10502,0.97543,0.19365,-0.37524,2.30655,-0.11113
-0.11212,0.9806,0.16078,-0.46598,1.22636,-0.32364
-0.12118,0.9854,0.11955,-0.04865,1.00764,-0.21958
-0.13032,0.98815,0.08105,0.19369,0.98742,-0.32957
-0.14872,0.98749,0.05239,0.22239,0.78346,-0.71768
-0.17077,0.98506,0.02183,0.05827,0.61787,-0.45701
-0.18793,0.98218,0.00042,-0.08098,-0.09264,-0.25998
-0.19718,0.98036,0.0033,0.07093,-0.6569,-0.10237
-0.19655,0.98012,0.02682,0.40799,-1.1225,-0.1974
-0.19533,0.97877,0.06199,0.36849,-1.62448,-0.11857
-0.19257,0.97797,0.08054,0.21456,-1.41074,-0.21587
-0.18029,0.98055,0.07752,-0.15222,-1.07837,-0.15607
-0.16014,0.98525,0.06027,-0.18675,-0.9742,-0.18388
-0.13903,0.98938,0.04224,0.18913,-0.77004,-0.09691
-0.12203,0.99197,0.0332,0.18463,-0.59753,0.01237
-0.10555,0.99441,-0.00103,-0.83879,1.34606,0.30889
-0.10814,0.99221,-0.06172,0.52291,2.36049,-0.46934
-0.12567,0.9917,-0.02709,0.61078,0.88303,-0.15953
-0.13026,0.99141,0.0113,0.35542,0.38589,-0.51384
-0.13093,0.98998,0.05278,0.27681,0.16038,-0.46284
-0.1239,0.98812,0.09091,0.28184,0.17112,-0.26556
-0.11322,0.98291,0.14512,-0.07947,0.72675,-0.19243
-0.09927,0.97144,0.2155,0.23367,0.65669,-0.5349
-0.08223,0.95644,0.2801,0.21008,0.56915,-0.54245
-0.06691,0.94338,0.32487,-0.19014,-0.08518,-0.45722
-0.05811,0.93453,0.3511,-0.36937,-0.7245,-0.29785
-0.05711,0.92901,0.3656,-0.17302,-0.86155,-0.14901
-0.06616,0.92683,0.3696,0.16493,-0.92039,-0.11311
-0.07962,0.92997,0.3589,0.17455,-0.84246,-0.19293
-0.09069,0.93724,0.33667,0.22067,-0.75224,-0.31044
-0.09619,0.94664,0.30759,0.17378,-0.56891,0.06692
-0.10461,0.95801,0.26696,-0.07973,0.36854,0.22851
-0.1066,0.96989,0.21897,0.02493,1.16148,0.00405
-0.10124,0.9766,0.18969,-0.49926,1.85341,-0.11736
-0.11102,0.98175,0.15438,-0.33278,1.03217,-0.08944
-0.12103,0.98634,0.11166,0.07549,1.19974,-0.33888
-0.13528,0.98777,0.07751,0.12074,1.05964,-0.63507
-0.15681,0.98645,0.04825,0.11669,0.78623,-0.55258
-0.17812,0.98378,0.02105,0.06216,0.64983,-0.36892
-0.19498,0.9808,0.00316,0.14747,-0.29169,-0.09256
-0.2022,0.97931,0.0077,0.18383,-0.72406,-0.21159
-0.20133,0.97889,0.03508,0.36031,-1.36607,-0.15271
-0.20166,0.97741,0.06316,0.35686,-1.80158,-0.04789
-0.19793,0.97759,0.07168,0.03721,-1.364,-0.09753
-0.18538,0.98061,0.06345,-0.20924,-1.02865,-0.13314
-0.16801,0.98476,0.04496,-0.2011,-0.96324,-0.20297
-0.14999,0.98829,0.02779,0.09546,-0.79799,-0.06066
-0.13228,0.9911,0.0144,0.08243,-0.2675,0.26046
-0.11276,0.99308,-0.03269,-0.54578,0.41901,0.901
-0.11657,0.99069,-0.07026,0.10027,2.41278,-0.42141
-0.13531,0.99024,-0.0333,0.36994,0.15798,-0.19291
-0.14373,0.98961,-0.0006,0.24812,0.30413,-0.479
-0.14789,0.98818,0.04024,0.22695,0.40512,-0.49883
-0.14442,0.98536,0.09061,0.38342,0.6342,-0.49867
-0.13657,0.97897,0.15151,0.31933,0.86386,-0.39632
-0.12176,0.96784,0.22011,0.38043,0.55801,-0.41782
-0.10394,0.95443,0.27973,0.26818,0.31963,-0.40009
-0.08475,0.94031,0.32958,-0.30638,-0.13987,-0.52981
-0.06976,0.92841,0.36494,-0.34029,-0.55271,-0.31521
-0.06711,0.92145,0.38266,-0.23992,-0.69613,-0.2013
-0.07427,0.91913,0.38688,0.07262,-0.96234,-0.05133
-0.08372,0.92222,0.37747,0.15705,-0.79707,-0.16606
-0.0912,0.9297,0.35685,0.15205,-0.72988,-0.21931
-0.09332,0.94001,0.32813,0.01596,-0.75666,-0.47237
-0.09832,0.9494,0.29828,0.04313,-0.4389,0.6518
-0.11692,0.96114,0.25007,-0.19342,-0.08353,1.06616
-0.11843,0.97193,0.20328,-0.32384,2.59466,-0.16606
-0.12666,0.97537,0.18056,-0.21889,1.48638,-0.28853
-0.13967,0.97993,0.14223,-0.00956,0.94584,-0.33149
-0.15256,0.98335,0.0987,0.25536,1.00103,-0.315
-0.17116,0.98303,0.06603,0.24095,0.70499,-0.56931
-0.19502,0.98014,0.03573,0.02382,0.51119,-0.41807
-0.21463,0.97666,0.00786,-0.00085,0.07952,-0.12116
-0.2235,0.97468,-0.0069,0.21144,-0.56437,-0.03622
-0.21742,0.97606,0.0053,0.42228,-1.08251,0.09909
-0.21528,0.97586,0.03663,0.5789,-1.57576,0.12646
-0.21767,0.97414,0.06047,0.20499,-1.65063,-0.23108
-0.21175,0.97565,0.05714,-0.16429,-1.15412,-0.29724
-0.19445,0.98018,0.03785,-0.21595,-0.98862,-0.23834
-0.17318,0.98479,0.01414,-0.04201,-0.86635,0.01049
-0.15098,0.98851,-0.00679,-0.29079,-0.18956,0.34131
-0.12803,0.98954,-0.06643,-0.40172,1.3726,-0.24851
-0.12885,0.98706,-0.09544,0.3994,1.6908,-0.08143
-0.14192,0.98784,-0.06347,0.30084,0.15849,-0.13719
-0.14944,0.98836,-0.02844,0.3403,0.42058,-0.16513
-0.15419,0.98781,0.02123,0.10782,0.6195,-0.44309
-0.15512,0.98532,0.07122,0.21068,0.65123,-0.25656
-0.14898,0.98039,0.12899,0.07992,0.87421,-0.39076
-0.13563,0.97173,0.19325,0.15849,0.48073,-0.43546
-0.11956,0.95994,0.25342,0.17048,0.11831,-0.44348
-0.10381,0.94711,0.30363,0.01618,-0.18291,-0.59452
-0.08958,0.93522,0.34255,-0.08017,-0.50293,-0.35558
-0.08526,0.92721,0.36471,-0.07081,-0.65903,-0.25301
-0.0905,0.92389,0.37179,-0.12122,-0.81223,-0.1237
-0.09802,0.9248,0.3676,0.15075,-0.76309,-0.14013
-0.10576,0.93026,0.35131,0.13064,-0.73269,-0.21927
-0.11027,0.93859,0.32692,0.2077,-0.69129,-0.3293
-0.11662,0.94677,0.30004,0.02361,-0.26836,0.84212
-0.13126,0.95951,0.24922,-0.11792,-0.03719,0.73347
-0.12143,0.97042,0.20865,-0.5112,2.39489,-0.18075
-0.12785,0.97512,0.18105,-0.5661,1.97651,-0.12085
-0.1429,0.97934,0.14309,-0.34519,1.03457,-0.17946
-0.16071,0.98215,0.0977,0.08618,1.16978,-0.4121
-0.182,0.98117,0.06464,0.28164,0.68073,-0.69426
-0.20649,0.97778,0.03596,0.22212,0.41255,-0.4633
-0.225,0.97427,0.01309,0.16389,-0.06172,-0.31323
-0.23479,0.97201,0.00746,0.22943,-0.69687,-0.18762
-0.23773,0.97104,0.02361,0.37412,-1.21506,-0.07962
-0.2383,0.96968,0.05405,0.30039,-1.7207,-0.03925
-0.23692,0.96869,0.07417,0.0874,-1.48274,-0.13122
-0.22883,0.97016,0.08014,-0.07478,-1.26484,-0.13818
-0.21248,0.97455,0.07143,-0.16353,-0.97667,-0.15881
-0.19101,0.98038,0.0485,-0.02324,-0.83472,-0.08716
-0.16953,0.98528,0.02189,0.15102,-0.60481,0.00713
-0.15195,0.9883,-0.01293,-0.27304,0.14607,0.9646
-0.13613,0.98745,-0.08007,-0.20265,1.99903,-0.41299
-0.14324,0.98545,-0.09146,0.21779,1.7777,-0.39217
-0.14586,0.98767,-0.05685,0.27971,0.17409,-0.43535
-0.1542,0.98754,-0.0312,0.42024,0.36248,-0.18862
-0.15965,0.9871,0.01208,0.15907,0.6929,-0.51616
-0.1562,0.98599,0.05841,0.25924,1.00415,-0.23912
-0.14608,0.98203,0.11947,0.15584,0.93504,-0.45864
-0.12884,0.97461,0.1831,0.34637,0.55951,-0.50193
-0.11407,0.96328,0.24306,0.19852,0.1808,-0.44144
-0.0997,0.95056,0.2941,-0.01439,-0.07551,-0.45029
-0.08819,0.93802,0.33516,-0.25368,-0.36177,-0.52339
-0.08404,0.9291,0.36013,-0.17748,-0.73712,-0.31959
-0.09212,0.92456,0.36972,-0.07074,-0.96158,-0.01641
-0.10314,0.92394,0.36835,0.26213,-0.90307,-0.02092
-0.11301,0.92784,0.35543,0.15828,-0.73874,-0.17142
-0.11713,0.9352,0.33417,0.22144,-0.66448,-0.33655
-0.1215,0.9433,0.30889,0.10722,-0.39281,0.30796
-0.12937,0.95587,0.26374,0.01144,0.02003,0.57153
-0.12,0.96595,0.2292,-0.08339,1.39222,0.01459
-0.11703,0.972,0.20373,-0.39316,1.9281,0.02365
-0.12378,0.97833,0.16593,-0.32098,1.23248,-0.0292
-0.13645,0.98322,0.12102,-0.01208,1.22573,-0.31476
-0.15671,0.98405,0.0841,-0.0068,1.12517,-0.45641
-0.18435,0.98162,0.04935,0.05622,0.70135,-0.52993
-0.20895,0.97784,0.01241,0.09869,0.29514,-0.28075
-0.22413,0.97448,-0.01217,0.32528,-0.31696,-0.07827
-0.22468,0.97437,-0.01057,0.42148,-0.78414,-0.21058
-0.21739,0.97597,0.01468,0.33729,-1.59552,-0.06145
-0.21902,0.97503,0.03648,0.31802,-1.80717,0.00429
-0.21733,0.97527,0.04018,-0.00222,-1.25755,-0.01052
-0.20719,0.97781,0.0308,-0.1267,-1.05758,-0.01469
-0.1922,0.98127,0.01276,-0.0692,-0.93396,-0.10091
-0.17656,0.98428,-0.0034,0.08952,-0.80555,0.03859
-0.15999,0.98678,-0.02563,-0.0633,-0.44561,0.44146
-0.14113,0.98724,-0.07378,-0.33293,3.19245,-0.60492
-0.15968,0.98397,-0.07934,0.63795,0.84107,0.08749
-0.17363,0.98353,-0.05008,0.60384,0.19762,-0.34554
-0.18391,0.98285,-0.01298,0.47546,0.47331,-0.44413
-0.1912,0.98099,0.03307,0.41999,0.30572,-0.44717
-0.19265,0.9784,0.07495,0.3113,0.52745,-0.12816
-0.18929,0.97338,0.12922,0.14287,0.89076,-0.3097
-0.17775,0.9639,0.19824,0.25011,0.50855,-0.53458
-0.15965,0.9533,0.25638,0.10708,-0.06713,-0.4241
-0.14005,0.94523,0.29483,-0.06071,-0.34467,-0.36997
-0.12342,0.93742,0.32558,-0.25442,-0.7035,-0.20569
-0.12188,0.9326,0.33969,-0.01248,-0.79322,-0.05719
-0.13098,0.93161,0.33903,0.12884,-0.80046,-0.06607
-0.14008,0.93541,0.32461,0.16504,-0.82663,-0.21279
-0.14735,0.94301,0.29833,0.26257,-0.69886,-0.05373
-0.15208,0.953,0.26201,0.03386,-0.39754,0.5295
-0.15117,0.96438,0.21705,0.22868,-0.05343,0.21625
-0.14449,0.97059,0.19253,-0.01742,1.42083,-0.5299
-0.15387,0.97408,0.16578,-0.7234,2.01429,0.10944
-0.16448,0.9784,0.12518,-0.24107,1.15414,-0.27218
-0.17543,0.98069,0.08645,0.31448,1.33609,-0.25728
-0.19141,0.97979,0.05799,0.30251,1.20795,-0.43573
-0.21024,0.97706,0.03387,0.01754,0.38259,-0.42982
-0.22909,0.97333,0.01193,0.05166,0.01219,-0.26779
-0.24038,0.97068,0.00046,0.08088,-0.5084,0.01301
-0.24286,0.96991,0.01686,0.10696,-0.89943,-0.1425
-0.24869,0.96678,0.05902,0.48455,-1.64184,-0.10114
-0.25513,0.96273,0.08975,0.483,-1.51552,-0.11279
-0.25142,0.96265,0.10048,0.21689,-1.21179,-0.12423
-0.23663,0.96723,0.09199,0.00036,-1.03004,-0.20558
-0.21737,0.97331,0.0736,-0.02369,-0.92404,-0.27254
-0.19736,0.97885,0.05391,0.13095,-0.65907,-0.02871
-0.18009,0.98319,0.0301,-0.24505,-0.02513,0.56548
-0.16636,0.9853,-0.03863,-0.79011,2.01558,-0.06574
-0.1825,0.98185,-0.05163,0.21062,1.44361,-0.42871
-0.18906,0.98171,-0.02238,0.4389,-0.01679,-0.36975
-0.19035,0.98166,0.01,0.62082,0.298,-0.37175
-0.1862,0.98096,0.05505,0.31671,0.37252,-0.47939
-0.17909,0.97925,0.09481,0.17943,0.498,-0.09782
-0.17011,0.97386,0.15052,-0.02252,0.97847,-0.09256
-0.15107,0.96394,0.21907,0.05605,0.64458,-0.42299
-0.12755,0.9515,0.27994,-0.04544,-0.03208,-0.54797
-0.10708,0.93992,0.32415,-0.19789,-0.51448,-0.32844
-0.09839,0.92996,0.35423,-0.07817,-0.88632,0.0361
-0.10508,0.92261,0.37112,-0.07892,-0.799,-0.07896
-0.12029,0.91888,0.37574,0.09244,-0.77894,-0.15973
-0.13329,0.92172,0.36422,0.08434,-0.80676,-0.28203
-0.14139,0.92922,0.3414,0.24999,-0.90436,-0.32272
-0.14395,0.93885,0.31279,0.24107,-0.8318,-0.29024
-0.14951,0.94745,0.2828,0.25942,-0.32269,0.73192
-0.16374,0.95753,0.23733,-0.00974,0.78164,0.28849
-0.15186,0.96759,0.20176,-0.19266,2.40596,0.06316
-0.16242,0.97138,0.1733,-0.43009,1.33872,-0.30429
-0.17602,0.97559,0.13127,-0.27136,1.10735,-0.32438
-0.18926,0.97766,0.09138,-0.01674,1.14007,-0.23394
-0.20712,0.97617,0.0647,0.28409,0.73548,-0.64325
-0.22612,0.9736,0.03116,0.10759,0.13826,-0.40638
-0.23458,0.97206,0.00807,-0.04662,-0.3101,-0.1551
-0.24539,0.96936,0.0105,0.40916,-0.87642,-0.01358
-0.24806,0.96784,0.04187,0.76051,-1.4695,0.08279
-0.2493,0.96525,0.0783,0.74036,-1.79515,0.01426
-0.24376,0.96596,0.08659,0.12475,-1.34249,-0.47969
-0.22639,0.97122,0.07395,-0.16223,-1.07211,-0.27287
-0.20209,0.97814,0.04904,-0.20045,-0.91712,-0.21333
-0.17961,0.98336,0.02723,0.12914,-0.81771,-0.17451
-0.16126,0.98679,0.01512,0.09703,-0.22311,0.28795
-0.14492,0.98881,-0.03522,-0.75828,1.21968,0.98588
-0.1585,0.98387,-0.08285,0.19274,3.01262,-0.56398
-0.1736,0.98372,-0.04638,0.22025,-0.24855,-0.42719
-0.17895,0.98378,-0.01214,0.30422,-0.24834,-0.45684
-0.1781,0.98373,0.02333,0.16705,0.2385,-0.45301
-0.17528,0.98299,0.05476,0.07715,1.07488,0.11365
-0.17318,0.97889,0.10856,0.05555,1.29387,-0.35096
-0.15899,0.97062,0.18059,0.5098,0.68479,-0.62067
-0.13817,0.96136,0.23811,0.25967,0.05802,-0.5803
-0.1199,0.95346,0.27665,-0.11689,-0.5099,-0.30555
-0.10652,0.9445,0.31075,-0.40167,-0.86315,-0.2313
-0.10775,0.93637,0.33406,-0.25377,-0.81413,-0.18394
-0.12099,0.93048,0.34577,0.07453,-0.71718,-0.05146
-0.13297,0.93202,0.33713,0.16288,-0.7854,-0.0385
-0.14095,0.93853,0.31511,0.20493,-0.78133,-0.23485
-0.14387,0.94601,0.29044,0.09564,-0.69464,-0.35528
-0.15332,0.95416,0.25701,0.04026,-0.27763,0.63511
-0.16094,0.96573,0.20363,0.25138,1.98714,0.07085
-0.16003,0.97223,0.17074,-0.31497,2.75389,-0.07932
-0.17262,0.97524,0.13824,-0.22863,1.07899,-0.16775
-0.18474,0.97784,0.09846,0.1453,0.97014,-0.23242
-0.1968,0.97816,0.0669,0.12173,0.97712,-0.29675
-0.21635,0.97553,0.03912,0.02543,0.4933,-0.53642
-0.23499,0.97195,0.00961,-0.09424,0.13701,-0.21628
-0.24798,0.96867,-0.01349,-0.02965,-0.14187,-0.09219
-0.25008,0.96813,-0.01332,0.5284,-1.04287,-0.04052
-0.24291,0.96996,0.01317,0.6222,-1.68167,0.09674
-0.23588,0.97121,0.03334,0.56523,-1.86128,0.09849
-0.22058,0.97503,0.02543,-0.06258,-1.36394,-0.12368
-0.197,0.98036,0.00844,-0.31288,-1.03118,-0.19957
-0.17526,0.9845,-0.00656,-0.1965,-0.80147,-0.28672
-0.1609,0.98685,-0.01518,0.44923,-0.33432,-0.06888
-0.1501,0.98815,-0.03205,-0.12975,0.15269,1.22211
-0.13752,0.98566,-0.09775,-0.40828,3.71655,-0.53341
-0.16371,0.98241,-0.08983,0.37376,0.72409,-0.2928
-0.17141,0.98381,-0.05227,0.39153,-0.1915,-0.59576
-0.17333,0.9847,-0.01793,0.31594,0.05037,-0.29574
-0.16615,0.986,0.01416,0.16505,0.31706,-0.04095
-0.1565,0.98534,0.06791,0.00457,0.88443,0.01
-0.14516,0.9795,0.13963,0.10766,0.93506,-0.19996
-0.12086,0.96947,0.21333,0.21868,0.4407,-0.55234
-0.09557,0.95811,0.26998,-0.06882,-0.04156,-0.44834
-0.07855,0.94718,0.31092,-0.28471,-0.21125,-0.43566
-0.07644,0.93839,0.337,-0.2985,-0.71633,-0.14592
-0.08584,0.93337,0.34849,0.11721,-0.86802,-0.09191
-0.09647,0.93339,0.34564,0.12784,-0.86804,-0.08907
-0.1055,0.93836,0.32915,0.3381,-0.85322,-0.19929
-0.10592,0.94621,0.30571,0.24504,-0.85779,-0.41533
-0.10399,0.95489,0.27814,0.24311,-0.86647,-0.38776
-0.10928,0.96387,0.24292,-0.00305,-0.03796,0.92883
-0.11027,0.97497,0.19306,-0.36174,2.99532,0.22259
-0.10179,0.98271,0.15465,-0.37023,2.98758,0.261
-0.11471,0.9867,0.11517,-0.43774,0.88165,-0.42838
-0.12503,0.98952,0.07217,-0.12114,0.79176,-0.24278
-0.13913,0.98942,0.04107,-0.10704,0.79186,-0.21168
-0.16197,0.98656,0.02155,0.44203,0.46747,-0.4531
-0.18161,0.98337,-0.0018,0.20192,0.21648,-0.21214
-0.19228,0.98119,-0.01681,0.1551,-0.38497,-0.14575
-0.1962,0.98055,0.00416,0.42923,-0.91415,-0.24462
-0.19232,0.98,0.05115,0.50681,-1.43648,-0.16912
-0.18464,0.97927,0.08327,0.35354,-1.88444,-0.01549
-0.16775,0.98253,0.08059,-0.00591,-1.28435,-0.15303
-0.14568,0.98707,0.06683,-0.19862,-0.83097,-0.1186
-0.12502,0.99076,0.05248,-0.16298,-0.64494,-0.21626
-0.1078,0.99319,0.04411,0.24472,-0.38499,-0.22269
-0.09158,0.99538,0.02887,-0.39921,-0.34717,1.05309
-0.08204,0.99651,-0.01492,-0.98755,0.14972,1.70427
-0.10904,0.99315,-0.04204,0.74463,1.97327,-0.53126
-0.12016,0.99262,-0.01599,0.36762,0.31776,-0.5757
-0.11988,0.99264,0.01703,0.41028,0.2401,-0.62486
-0.11825,0.99145,0.05518,0.53115,0.19216,-0.55157
-0.11635,0.98887,0.09272,0.35907,0.36208,-0.07554
-0.11159,0.98256,0.14874,0.20459,0.85886,-0.17033
-0.09584,0.97062,0.2207,0.33952,0.48435,-0.67493
-0.07087,0.9574,0.27991,0.0605,-0.24579,-0.32082
-0.05166,0.94718,0.3165,-0.35576,-0.5433,-0.06026
-0.04468,0.93784,0.34417,-0.7144,-0.85866,0.05602
-0.05504,0.93124,0.36022,-0.18875,-0.47724,-0.22312
-0.07485,0.93055,0.35841,0.01881,-0.61477,-0.16954
-0.09164,0.9365,0.33849,0.24493,-0.87044,-0.1252
-0.10039,0.94514,0.31086,0.16642,-0.91139,-0.37886
-0.10832,0.95451,0.2778,0.07369,-0.93165,-0.38777
-0.12191,0.96224,0.24339,-0.0431,-0.58438,-0.02535
-0.13865,0.97035,0.19796,0.01527,0.47829,1.1056
-0.13866,0.98055,0.1389,0.01528,0.46809,1.16466
-0.14056,0.98514,0.09867,-0.15822,1.68214,-0.33061
-0.14683,0.98799,0.04803,-0.19218,0.4089,-0.73732
-0.15519,0.98788,0.00345,-0.18291,0.6962,-0.46314
-0.17213,0.98462,-0.02978,0.55189,0.49359,-0.60496
-0.18726,0.98052,-0.05922,-0.0043,0.36698,-0.3723
-0.20181,0.97604,-0.08134,-0.0716,0.07996,-0.16767
-0.20443,0.9758,-0.07763,0.26499,-0.79353,0.11619
-0.20705,0.9776,-0.03778,0.53922,-1.75078,-0.06455
-0.21468,0.97667,0.00487,0.54685,-1.74985,-0.10719
-0.21284,0.97692,0.01778,-0.07858,-1.2422,-0.25164
-0.19941,0.97986,0.01013,0.0293,-0.98311,-0.25568
-0.17666,0.98426,-0.00336,0.16714,-0.91171,-0.15032
-0.14885,0.98873,-0.01606,0.07094,-0.30843,-0.03493
-0.11907,0.99045,-0.06949,-0.86093,3.49571,-0.31355
-0.12722,0.98578,-0.10978,0.45194,3.87639,-0.37932
-0.14862,0.98628,-0.07187,0.29267,-0.26405,-0.3342
-0.15835,0.98642,-0.04353,0.65197,0.15613,-0.00188
-0.16094,0.98696,0.00143,0.63462,0.28951,-0.21449
-0.15903,0.98604,0.04937,0.44489,0.32886,-0.41566
-0.1525,0.98236,0.1082,0.11039,1.436,-0.06942
-0.13604,0.97301,0.18639,-0.08518,1.44768,-0.37707
-0.11141,0.96181,0.25,0.06054,-0.17782,-0.44749
-0.0916,0.95131,0.29429,-0.18831,-0.65645,-0.28624
-0.07833,0.94119,0.32868,-0.23609,-0.73165,-0.23482
-0.0811,0.93347,0.34935,-0.04797,-0.72731,-0.12052
-0.08966,0.93031,0.35563,0.19487,-0.83116,-0.21435
-0.09894,0.9326,0.34709,0.2014,-0.80787,-0.19804
-0.10605,0.93917,0.32667,0.10799,-0.78034,-0.22396
-0.10878,0.94776,0.29986,-0.03318,-0.8615,-0.38751
-0.11408,0.95613,0.2698,-0.12322,-0.88036,-0.40327
-0.12696,0.96186,0.24227,0.23953,-0.27386,1.19828
-0.14676,0.97041,0.19175,0.07408,1.18545,0.65008
-0.13615,0.97955,0.14814,-0.25083,3.58046,0.50617
-0.15352,0.98123,0.11667,-0.28953,1.0764,-0.59424
-0.1657,0.98292,0.08006,-0.24654,0.93531,-0.35978
-0.17784,0.98321,0.04089,-0.10806,0.90765,-0.33048
-0.20228,0.9793,0.00728,0.5109,0.43197,-0.40078
-0.22444,0.97419,-0.02401,0.21687,0.38146,-0.21314
-0.22972,0.97192,-0.05092,0.24761,-0.67613,0.147
-0.22562,0.97351,-0.03712,0.63614,-1.49371,0.12622
-0.2315,0.97278,0.0098,0.67254,-1.54259,-0.0037
-0.23714,0.97063,0.04052,0.5709,-1.53365,-0.08456
-0.22949,0.97265,0.03592,-0.23941,-1.1494,-0.12479
-0.21084,0.9774,0.01528,-0.35063,-0.96466,-0.16276
-0.19198,0.98136,-0.00882,-0.11562,-0.85987,-0.19742
-0.17668,0.98379,-0.03052,0.19148,-0.34335,0.05096
-0.16051,0.98379,-0.07995,-0.88484,0.60517,1.40461
-0.17076,0.97724,-0.12583,0.6456,3.06151,-0.66512
-0.18717,0.97793,-0.09284,0.46722,0.10413,-0.29217
-0.1885,0.98051,-0.05538,0.63619,0.14635,-0.36612
-0.18619,0.98249,-0.00731,0.52672,0.36523,-0.53839
-0.17921,0.98323,0.03368,0.26874,0.38649,0.00605
-0.17108,0.98054,0.09631,-0.12491,1.10842,-0.24145
-0.1599,0.97082,0.17873,0.25548,0.65406,-0.64153
-0.14233,0.95878,0.24592,0.3743,0.19048,-0.47889
-0.12302,0.94744,0.29534,-0.08618,-0.46209,-0.30845
-0.11624,0.93817,0.32608,-0.2457,-0.80693,-0.15227
-0.12198,0.93073,0.34477,-0.218,-0.74252,-0.05705
-0.12755,0.92835,0.34913,0.10585,-0.67767,-0.21464
-0.13282,0.93368,0.33256,0.11112,-0.683,-0.19807
-0.13443,0.94308,0.30418,0.22539,-0.7037,-0.20926
-0.13487,0.95341,0.26984,0.26806,-0.28653,0.70324
-0.13921,0.96519,0.22143,0.33452,-0.04698,0.64719
-0.13224,0.97239,0.19229,-0.00405,1.29887,-0.23514
-0.13325,0.9775,0.16352,-0.79422,2.19045,0.12071
-0.14282,0.98278,0.11721,-0.42975,1.32978,-0.07008
-0.15671,0.98533,0.06759,0.17514,1.3726,-0.34409
-0.17388,0.98436,0.02838,0.0711,0.72063,-0.61754
-0.19391,0.98098,-0.00877,0.16054,0.91479,-0.32407
-0.20397,0.97798,-0.04422,-0.20669,-0.56684,-0.62758
-0.198,0.97911,-0.04615,0.16967,-0.88198,-0.00076
-0.20575,0.97834,-0.02273,0.50182,-0.96803,-0.02707
-0.21564,0.97647,-0.00142,0.45032,-1.72261,-0.08993
-0.22186,0.97503,0.0097,0.1934,-1.53509,0.00259
-0.21367,0.97689,0.00584,-0.00437,-1.37067,0.00512
-0.19535,0.98066,-0.01159,-0.20124,-1.06331,-0.23069
-0.17428,0.98421,-0.03088,0.04127,-0.69327,-0.00308
-0.15573,0.98656,-0.04946,-0.01786,-0.43398,0.17763
-0.14271,0.9849,-0.09803,-0.66781,0.86961,0.99599
-0.143,0.97768,-0.15392,0.11788,2.24488,-0.37043
-0.1628,0.97823,-0.12868,0.28742,0.61926,-0.17312
-0.1656,0.98079,-0.10308,0.80599,-0.05138,-0.23033
-0.16265,0.98443,-0.0666,0.68606,0.35901,-0.21261
-0.15898,0.98703,-0.02244,0.54374,0.44136,-0.3158
-0.15838,0.9869,0.03057,0.12233,1.43399,-0.02569
-0.14989,0.98343,0.10196,-0.04492,1.04195,-0.26784
-0.12937,0.97638,0.17306,-0.0602,0.66815,-0.38263
-0.1064,0.96809,0.22688,-0.23721,-0.32454,-0.43133
-0.09008,0.96025,0.26422,-0.22769,-0.72401,-0.23008
-0.08767,0.95229,0.29233,-0.23009,-0.71605,-0.2582
-0.09724,0.94634,0.30818,0.1679,-0.81668,-0.03128
-0.11393,0.94511,0.30624,0.17853,-0.82026,-0.04178
-0.1293,0.9477,0.29179,0.15855,-0.80558,-0.11402
-0.14155,0.95243,0.2699,0.14566,-0.75133,-0.39921
-0.15038,0.95824,0.24322,0.09743,-0.41775,0.43097
-0.16023,0.96625,0.20169,-0.07078,-0.09391,0.77618
-0.1557,0.97486,0.15937,0.18744,0.76832,0.16647
-0.14809,0.97978,0.13454,-0.14965,1.82096,-0.17845
-0.15057,0.98357,0.0996,-0.33557,1.71234,-0.05012
-0.15324,0.98638,0.05981,0.00192,1.12996,-0.21023
-0.1603,0.98663,0.02942,0.08271,0.78815,-0.82962
-0.1753,0.98451,0.00311,0.09771,0.79027,-0.80331
-0.19278,0.98084,-0.02827,0.16421,0.50989,-0.30288
-0.20414,0.97763,-0.0507,0.20144,-0.50927,0.074
-0.20641,0.97764,-0.0401,0.2037,-0.50929,0.0634
-0.20876,0.97797,-0.00072,0.40563,-1.88762,-0.13467
-0.21194,0.97668,0.03438,0.13818,-1.51946,-0.09612
-0.20353,0.978,0.04577,-0.18852,-1.11931,0.04124
-0.18658,0.98164,0.03952,-0.28341,-0.98642,0.00261
-0.16747,0.98555,0.02551,0.03238,-0.7882,-0.00369
-0.1489,0.98875,0.01409,0.14605,-0.62463,0.09469
-0.13205,0.99118,-0.01148,-0.19913,0.04392,0.99127
-0.10829,0.99064,-0.08313,-0.34635,2.19813,-0.24127
-0.11129,0.98904,-0.09698,0.02805,1.90189,-0.02205
-0.11463,0.99187,-0.05515,0.24095,0.13798,-0.44038
-0.11988,0.99252,-0.02285,0.23699,0.30257,-0.36805
-0.11777,0.99293,0.01501,0.02745,0.36723,-0.51109
-0.11349,0.99154,0.06296,0.17153,0.76786,-0.35163
-0.1108,0.98652,0.12043,0.4026,0.745,-0.26485
-0.09846,0.97767,0.18564,0.42837,0.57481,-0.41002
-0.07802,0.96497,0.25048,0.18655,-0.2072,-0.42578
-0.05973,0.95155,0.30162,-0.15951,-0.37108,-0.23328
-0.0501,0.93799,0.34301,-0.40316,-0.47762,-0.20708
-0.04911,0.92672,0.37253,-0.21966,-0.61361,-0.40706
-0.06557,0.92185,0.38195,-0.00673,-0.67143,-0.15441
-0.08147,0.92192,0.37871,0.07073,-0.76021,-0.07588
-0.08847,0.92721,0.36393,0.26432,-0.82364,-0.30242
-0.08975,0.93645,0.33912,0.33568,-0.81772,-0.47906
-0.08864,0.94545,0.31348,0.23778,-0.54225,0.00324
-0.093,0.95631,0.27716,0.08627,0.12069,0.96913
-0.08114,0.96792,0.23779,0.03936,1.8367,-0.02213
-0.07497,0.9769,0.2001,-0.2728,2.23526,-0.1349
-0.08126,0.98424,0.15708,-0.68486,1.19683,-0.20234
-0.08715,0.98984,0.11238,-0.32297,1.10355,-0.24637
-0.10095,0.99206,0.07505,-0.18047,1.09008,-0.50646
-0.12336,0.99165,0.03755,0.27283,0.7975,-0.62939
-0.14298,0.98972,-3e-05,0.10835,0.50733,-0.35599
-0.15792,0.98721,-0.022,0.11916,0.28036,-0.28769
-0.15813,0.98734,-0.01231,0.29264,-0.87668,-0.15315
-0.1647,0.98594,0.02809,0.52464,-1.3975,-0.1064
-0.17433,0.98247,0.06602,0.59504,-1.80503,-0.14339
-0.1727,0.98191,0.07765,-0.09359,-1.38865,-0.071
-0.15804,0.98509,0.06801,-0.2579,-1.03913,0.25044
-0.13769,0.98954,0.04292,-0.26386,-0.98707,0.24847
-0.11278,0.99344,0.01888,-0.06375,-0.36531,-0.05118
-0.09549,0.99542,0.00516,0.01436,-0.38004,-0.02828
-0.08707,0.9961,-0.0141,-0.39366,-0.35401,0.8734
-0.08316,0.99336,-0.07949,0.32359,4.07428,-0.6378
-0.10855,0.98789,-0.11086,0.55305,0.2913,0.49129
-0.10877,0.99093,-0.07887,0.55327,0.28826,0.4593
-0.11487,0.99286,-0.03202,0.55548,-0.21241,-0.62791
-0.11305,0.99352,0.01128,0.15979,0.49519,-0.72001
-0.10436,0.99276,0.05941,0.0196,1.56733,-0.01667
-0.09319,0.98782,0.12455,0.22169,0.82197,-0.36085
-0.07157,0.97876,0.19209,0.14959,0.12959,-0.37524
-0.04613,0.96903,0.24261,-0.01222,0.01128,-0.3368
-0.02926,0.95911,0.28151,-0.6806,-0.54674,-0.07903
-0.031,0.94984,0.3112,-0.24981,-0.84832,-0.08107
-0.0475,0.94467,0.32457,0.09687,-0.86868,-0.03514
-0.06666,0.9447,0.32109,0.23086,-0.85938,-0.15426
-0.08017,0.94949,0.30338,0.27704,-0.74571,-0.24056
-0.08296,0.95676,0.2788,0.30188,-0.80203,-0.34546
-0.0866,0.9647,0.24869,0.21345,-0.3433,0.76083
-0.09414,0.97592,0.19674,-0.12491,0.39252,0.34791
-0.09038,0.9828,0.16103,-0.2644,1.12067,0.07939
-0.09805,0.98597,0.13507,-0.58886,1.39625,-0.00662
-0.10684,0.9899,0.0932,-0.41381,1.05423,0.01841
-0.11789,0.99184,0.04851,0.08217,1.12166,-0.2121
-0.1346,0.9908,0.01428,0.25676,0.99427,-0.56753
-0.15593,0.98761,-0.01783,0.11405,0.69011,-0.44743
-0.17355,0.9838,-0.04492,0.05729,0.45114,-0.30723
-0.17304,0.98314,-0.059,-0.03373,-1.08068,-0.10726
-0.16746,0.98491,-0.04368,0.37146,-1.06407,0.03857
-0.18211,0.98315,-0.01584,0.64677,-1.20935,0.09874
-0.19682,0.98044,0.00244,0.37928,-1.5778,0.05735
-0.19787,0.9802,0.00764,-0.18628,-1.19368,-0.11443
-0.18545,0.98265,-0.00088,-0.1987,-1.19614,-0.10591
-0.16761,0.98573,-0.01566,0.0008,-0.80421,-0.04193
-0.15054,0.98815,-0.03,-0.0097,-0.54213,0.24522
-0.13466,0.98841,-0.07003,-0.44434,0.52155,0.99985
-0.11799,0.98254,-0.14385,0.13373,2.64223,-0.39167
-0.13247,0.98186,-0.13563,0.43674,0.42253,0.04461
-0.13885,0.98412,-0.11054,0.50552,-0.05764,-0.13487
-0.14728,0.98599,-0.07827,0.30388,0.30811,-0.16175
-0.15155,0.98777,-0.03664,-0.09268,0.45237,-0.39849
-0.15025,0.98862,0.00732,-0.06475,0.56025,-0.37767
-0.14791,0.98684,0.06525,0.19341,1.06938,-0.35691
-0.13527,0.98208,0.13124,0.31338,0.55634,-0.58427
-0.12153,0.97446,0.18883,0.446,0.27166,-0.51671
-0.10801,0.96588,0.23539,-0.07759,-0.32522,-0.36269
-0.09612,0.95696,0.27382,-0.31331,-0.56338,-0.36994
-0.09351,0.95014,0.29748,-0.16661,-0.64316,-0.30598
-0.10365,0.94643,0.30582,0.08961,-0.89934,0.02998
-0.11627,0.94616,0.30209,0.15773,-0.86752,-0.05041
-0.12703,0.94996,0.28536,0.19631,-0.75033,-0.24784
-0.1324,0.95555,0.26343,0.24599,-0.64659,-0.33031
-0.13778,0.96154,0.23761,0.0485,-0.20141,0.83654
-0.14357,0.97148,0.18873,0.09576,0.75971,0.42501
-0.13352,0.9783,0.15842,-0.45713,2.45619,0.11566
-0.14103,0.98178,0.12731,-0.37853,1.17451,-0.01795
-0.14731,0.98531,0.08632,-0.3443,0.89061,-0.0605
-0.15624,0.98657,0.0477,0.07671,1.03301,-0.28647
-0.17043,0.98522,0.01735,0.14908,0.81178,-0.63775
-0.18742,0.98217,-0.01439,0.16789,0.82334,-0.50428
-0.19153,0.98044,-0.04521,0.11361,-0.20696,-0.23127
-0.18919,0.98053,-0.05265,0.32395,-0.80052,-0.09292
-0.18724,0.98172,-0.03423,0.49204,-0.92866,-0.06231
-0.18722,0.98231,-0.0039,0.46458,-1.81736,0.09411
-0.17862,0.98385,0.01159,0.00406,-1.45048,-0.05068
-0.15913,0.98724,0.00539,-0.26809,-1.33881,-0.06668
-0.13615,0.99067,-0.00586,-0.44663,-0.99808,-0.22342
-0.1202,0.99263,-0.01521,0.11593,-0.81839,-0.09364
-0.11142,0.99353,-0.02202,0.27025,-0.65016,0.05291
-0.10315,0.99346,-0.04886,-0.24788,0.15548,1.26153
-0.09147,0.98837,-0.12149,-0.49564,3.35541,-0.24876
-0.11518,0.9867,-0.1147,0.26582,2.52145,-0.38834
-0.11973,0.98983,-0.07682,0.2825,0.00701,-0.54415
-0.12234,0.99112,-0.05202,0.19311,0.05374,-0.12517
-0.1203,0.99252,-0.02067,0.10096,0.21884,-0.3267
-0.11515,0.99305,0.0241,0.16093,0.76754,-0.04643
-0.11326,0.99007,0.08325,0.39455,0.7915,-0.39872
-0.09847,0.98478,0.1432,0.37977,0.79679,-0.45867
-0.08082,0.978,0.19229,-0.08296,-0.2107,-0.29553
-0.06528,0.97113,0.22945,-0.43739,-0.61366,-0.16985
-0.05871,0.96517,0.25496,-0.44396,-0.6077,-0.19536
-0.06734,0.96123,0.2674,0.07416,-0.81789,0.03178
-0.08017,0.96093,0.26493,0.17892,-0.96192,-0.03437
-0.0921,0.96463,0.24698,0.19085,-0.96563,-0.01642
-0.09752,0.97048,0.2206,0.14943,-0.95047,-0.27283
-0.0995,0.97674,0.18993,-0.0042,-0.74597,-0.27631
-0.106,0.9819,0.15693,0.06565,-0.46939,0.2907
-0.11312,0.9878,0.107,0.0035,0.36372,0.8415
-0.10809,0.992,0.06516,-0.25872,2.77242,0.07699
-0.12045,0.99211,0.03482,-0.44557,2.36338,-0.22864
-0.12154,0.99258,-0.00185,-0.25959,0.63237,-0.46246
-0.12793,0.99111,-0.03637,0.09862,0.79328,-0.46905
-0.14302,0.98797,-0.0589,0.58165,0.95762,0.43809
-0.14284,0.98687,-0.07543,-0.11344,0.12451,-0.36924
-0.16112,0.98262,-0.09221,0.1147,-0.07579,-0.16242
-0.17147,0.97919,-0.10856,0.25826,-0.30167,0.03643
-0.16966,0.98055,-0.09869,0.46587,-1.60955,0.30638
-0.16891,0.98347,-0.0652,0.38334,-1.58693,0.19166
-0.16735,0.9848,-0.0464,0.16379,-1.35211,-0.01209
-0.15729,0.98638,-0.04821,-0.28916,-0.85822,-0.09397
-0.14069,0.98839,-0.05745,-0.27264,-0.88125,-0.11367
-0.1242,0.99038,-0.06097,0.19382,-0.96101,0.18618
-0.10767,0.99208,-0.06465,-0.05656,-0.52644,0.7716
-0.08744,0.99116,-0.09979,-0.45769,-0.18012,1.42759
-0.10442,0.98663,-0.12517,-0.22116,3.59591,-0.6668
-0.12236,0.98747,-0.09967,0.24089,-0.0305,-0.49888
-0.1278,0.98872,-0.0781,0.32484,0.11519,-0.41138
-0.12447,0.99106,-0.04792,0.30403,0.07619,-0.35579
-0.12116,0.99263,-0.00288,0.11785,0.5515,-0.19988
-0.12306,0.99103,0.05202,0.30228,0.90429,-0.19132
-0.11453,0.9865,0.117,0.31004,0.59131,-0.5178
-0.10311,0.97949,0.17312,0.15999,0.04429,-0.35124
-0.09416,0.97091,0.22014,-0.16588,-0.32431,-0.61524
-0.08097,0.96173,0.26174,-0.28242,-0.6178,-0.38061
-0.08308,0.95638,0.28005,-0.0564,-0.53533,-0.16332
-0.09003,0.95331,0.28826,0.03824,-0.83121,-0.00279
-0.09598,0.9551,0.2803,0.04419,-0.833,0.00517
-0.1009,0.96044,0.25956,0.08608,-0.91758,-0.19956
-0.10353,0.96677,0.23373,0.00194,-0.64376,-0.17248
-0.10927,0.97248,0.20575,0.00768,-0.64947,-0.1445
-0.12172,0.98022,0.15605,0.16058,0.52393,0.50199
-0.11769,0.98675,0.11168,-0.23968,2.72349,0.17072
-0.12188,0.98945,0.07833,-0.50655,2.18841,-0.07437
-0.12694,0.99111,0.03978,-0.27562,0.64574,-0.41449
-0.13453,0.9909,0.00249,0.24635,0.67206,-0.33897
-0.148,0.98873,-0.02271,0.25982,0.67424,-0.31376
-0.16662,0.98494,-0.04616,0.19671,0.35922,-0.42819
-0.18448,0.9805,-0.06765,0.05224,-0.29055,-0.03804
-0.19825,0.97711,-0.07709,0.11126,-0.6003,0.00349
-0.20277,0.97749,-0.0583,0.32461,-1.43635,-0.01933
-0.20108,0.9794,-0.01852,0.2919,-1.68904,0.03498
-0.19372,0.98105,0.00348,0.1419,-1.47092,-0.05043
-0.17771,0.98408,0.00169,-0.16826,-1.12074,-0.03956
-0.15613,0.9877,-0.00879,-0.18632,-1.00146,-0.12198
-0.13879,0.99017,-0.0173,0.03741,-0.91539,-0.01683
-0.12565,0.99178,-0.02424,-0.03072,-0.19167,0.2568
-0.12052,0.98928,-0.08242,-0.46699,3.19146,-0.74874
-0.15067,0.98165,-0.11691,0.03295,2.55224,-0.36789
-0.16365,0.98227,-0.09149,0.32417,0.20404,-0.35779
-0.16735,0.98406,-0.06009,0.41721,0.24329,-0.52443
-0.16457,0.98608,-0.02358,0.40429,0.17307,-0.44505
-0.15258,0.98808,0.02021,0.26833,0.83315,-0.0555
-0.14008,0.98682,0.08101,0.15576,0.82551,-0.15341
-0.12192,0.98111,0.15018,0.16141,0.68227,-0.38377
-0.10324,0.97099,0.21569,-0.00207,0.05091,-0.42373
-0.08865,0.95966,0.26681,-0.11922,-0.08315,-0.41433
-0.0857,0.95007,0.30002,-0.26679,-0.27547,-0.36295
-0.08959,0.94392,0.31778,-0.00121,-0.83605,-0.10027
-0.09671,0.94169,0.32228,0.112,-0.8839,-0.13089
-0.10532,0.94438,0.31152,0.13553,-0.84791,-0.22534
-0.11179,0.95065,0.28942,0.20842,-0.7716,-0.38713
-0.11418,0.95856,0.26101,0.2726,-0.4855,0.17819
-0.11952,0.96889,0.21672,0.25013,0.14529,0.76338
-0.1128,0.97819,0.17443,-0.05307,1.48081,-0.05309
-0.1023,0.98395,0.14623,-0.8057,1.92656,0.1587
