gravity.x,gravity.y,gravity.z,userAcceleration.x,userAcceleration.y,userAcceleration.z
0.27898,0.85579,-0.43566,-0.46734,-1.02714,0.54731
0.27146,0.86654,-0.41883,-0.58037,-1.38526,0.81336
0.26623,0.88642,-0.37865,-0.61879,-1.07925,0.87597
0.25522,0.90838,-0.33121,-0.53634,-1.06924,0.78626
0.24237,0.92456,-0.294,-0.44105,-1.08509,0.4414
0.23131,0.936,-0.26532,-0.56831,-1.0493,0.15993
0.22823,0.94236,-0.24467,-1.06075,-0.61066,-0.7679
0.24695,0.945,-0.21444,-1.67769,3.09673,1.41717
0.24266,0.94878,-0.2023,-0.45149,5.68927,0.38254
0.25079,0.94123,-0.22623,0.38944,-0.69517,0.73403
0.26546,0.9353,-0.23396,0.46397,-1.66701,0.99218
0.26394,0.94909,-0.17188,0.61336,-0.5986,0.20835
0.22761,0.96742,-0.11081,0.27004,-0.43079,-0.27677
0.17877,0.98186,-0.06308,0.17018,0.70361,-0.25757
0.11651,0.99317,-0.00481,0.42776,1.69065,-0.10826
0.0511,0.99711,0.05613,0.76921,0.48864,-0.30975
-0.00029,0.99224,0.12428,1.26819,0.94784,-0.11965
-0.02648,0.98546,0.16778,0.54086,0.09446,-0.5964
-0.03747,0.98437,0.17206,0.30301,0.26052,-0.54053
-0.05035,0.98601,0.15885,-0.37663,0.4602,-0.19955
-0.07036,0.98774,0.13933,-0.24255,-0.53142,-0.23751
-0.08538,0.98986,0.11348,-0.20646,-0.76819,-0.19483
-0.08922,0.99274,0.08055,0.25392,-1.63183,-0.17157
-0.06974,0.99635,0.04902,0.27719,-1.35298,-0.08177
-0.03678,0.99932,0.00119,0.09737,-0.9417,0.36055
0.00463,0.99784,-0.06542,0.15534,-0.22999,-0.88809
0.05947,0.98286,-0.1745,1.75545,1.87737,0.10101
0.15292,0.94883,-0.27628,0.59424,2.56232,0.40102
0.22489,0.90605,-0.35846,-1.12781,1.47135,0.05024
0.25271,0.86932,-0.42474,-0.65954,1.03499,0.01332
0.28221,0.83335,-0.47527,-0.4126,0.91725,0.38672
0.30969,0.79681,-0.51882,0.46007,0.08919,-0.48554
0.31835,0.77082,-0.5518,0.34839,0.12817,-0.66694
0.31967,0.76362,-0.56097,0.46069,0.57224,-0.77677
0.31163,0.77267,-0.55305,0.53173,-0.38453,-0.00341
0.3072,0.78445,-0.53876,0.48856,-0.46531,-0.18642
0.29963,0.78769,-0.5383,0.1412,-0.66504,0.30824
0.28108,0.79821,-0.53277,-0.51511,-1.8646,0.98985
0.27582,0.82292,-0.49671,-0.68893,-1.37251,0.78797
0.28231,0.85256,-0.43982,-0.70986,-1.0636,0.69429
0.29144,0.87468,-0.38728,-0.61229,-0.98685,0.53645
0.29438,0.89022,-0.34762,-0.66186,-1.0035,0.32281
0.29499,0.90088,-0.31842,-0.85082,-0.84901,0.21546
0.30466,0.90542,-0.29562,-1.94052,5.44492,1.70122
0.31587,0.91275,-0.25904,-1.95174,5.43759,1.66463
0.32704,0.90723,-0.26451,0.66672,-0.81106,0.33448
0.34367,0.89735,-0.27683,0.59339,-1.27833,0.75344
0.34236,0.90903,-0.23757,0.53829,-1.39872,0.52051
0.31898,0.92907,-0.18726,0.14834,-0.93777,0.48004
0.27427,0.95147,-0.13952,0.1838,0.14052,-0.13714
0.22638,0.97001,-0.08838,0.58441,1.4787,0.23849
0.15707,0.98745,-0.01599,0.45817,1.22306,0.03589
0.10007,0.99297,0.06307,0.95138,0.86121,-0.20977
0.06137,0.99106,0.11838,1.56588,0.97953,-0.85379
0.03562,0.98973,0.13838,0.58232,0.34663,-0.83023
0.01853,0.99011,0.13903,-0.30057,0.22893,-0.12621
-0.0102,0.9899,0.14133,-0.29565,0.19012,-0.06735
-0.04092,0.98935,0.13963,-0.24597,-0.25062,-0.39421
-0.06284,0.99066,0.12093,-0.01985,-0.64012,-0.19215
-0.07306,0.99339,0.08847,0.22893,-1.39208,-0.11643
-0.06049,0.99629,0.06104,0.49657,-1.51004,0.09108
-0.02682,0.99925,0.02746,0.12811,-1.10311,0.04824
0.01517,0.99949,-0.02784,-0.13537,-0.87919,-0.19049
0.06769,0.99269,-0.09991,0.18261,-0.40241,-0.99698
0.14814,0.96474,-0.21754,1.11657,1.93712,0.10787
0.2367,0.92392,-0.30055,-0.19088,1.89285,0.61317
0.29097,0.87705,-0.38225,-0.5894,1.69432,-0.03452
0.31726,0.84107,-0.43811,-0.67582,0.52249,0.37557
0.34876,0.80688,-0.47676,-0.10436,0.13903,0.16686
0.37125,0.77401,-0.51291,0.62487,0.17553,-0.60638
0.37562,0.75635,-0.53558,0.8145,0.52841,-0.43162
0.38129,0.7537,-0.5353,1.01263,0.52981,-0.19863
0.38187,0.75982,-0.52616,0.35704,-0.16905,-0.1149
0.3821,0.76458,-0.51905,0.06663,-0.58022,-0.00332
0.36808,0.77056,-0.52034,-0.50533,-0.77367,0.41914
0.34204,0.7878,-0.51221,-0.65448,-1.36936,0.61984
0.33578,0.81679,-0.46914,-0.78605,-1.34091,1.0189
0.34371,0.85355,-0.39154,-0.78634,-1.06548,0.97376
0.3437,0.87897,-0.33056,-0.66067,-1.02755,0.72897
0.33685,0.89458,-0.2937,-0.76043,-0.84155,0.1094
0.33166,0.90217,-0.27581,-1.186,-0.40596,-0.58832
0.3411,0.90165,-0.26582,-1.41864,3.45143,1.3927
0.3615,0.90205,-0.23583,-0.1065,6.18365,0.22448
0.37721,0.89268,-0.24661,0.18854,-1.0874,0.53511
0.38451,0.88074,-0.27648,-0.50363,-0.96974,0.62316
0.37889,0.89239,-0.24509,0.81889,-1.76181,0.41392
0.3429,0.91791,-0.19962,0.65238,-0.88135,0.41724
0.29902,0.94286,-0.1469,0.02091,0.00809,-0.17749
0.24893,0.96411,-0.09229,0.7838,1.52132,0.05979
0.18027,0.98349,-0.01552,0.76891,1.63697,-0.07613
0.12497,0.99001,0.06517,0.80616,0.71281,-0.42749
0.08366,0.98885,0.1231,1.15332,0.26866,-0.46104
0.05822,0.98709,0.14912,0.31475,0.33046,-0.69221
0.03884,0.98717,0.15482,-0.23931,0.52346,-0.08116
0.01404,0.98711,0.15937,-0.38007,0.18155,-0.19469
-0.0103,0.98831,0.15207,-0.22011,-0.3751,-0.15052
-0.02955,0.99095,0.13085,-0.09202,-0.63755,-0.27629
-0.04068,0.99439,0.09758,0.1109,-1.3105,-0.23581
-0.03291,0.99723,0.06665,0.22829,-1.11612,-0.06683
-0.00911,0.99945,0.0317,0.03854,-1.01666,-0.04824
0.02104,0.99947,-0.02443,-0.09564,-0.99325,0.19583
0.05761,0.99424,-0.09031,-0.26665,-0.57368,-0.13729
0.10426,0.97617,-0.19029,0.89411,0.9852,-1.41562
0.18615,0.94382,-0.27302,-0.31346,1.78006,0.3733
0.25362,0.90837,-0.33245,-0.51269,1.9574,0.11678
0.27096,0.88117,-0.38744,-0.78916,1.28193,0.08257
0.2841,0.85332,-0.43717,0.04845,0.02423,-0.02212
0.29369,0.82604,-0.48104,0.32593,-0.04979,-0.54269
0.29362,0.81678,-0.49664,0.17605,0.10674,-0.5091
0.30001,0.81604,-0.49403,0.42862,0.39374,-0.1173
0.30883,0.82106,-0.48007,0.77546,-0.44712,0.27748
0.32211,0.82379,-0.46648,0.33592,-0.6657,0.17806
0.33712,0.82141,-0.46002,0.06975,-0.68903,0.18129
0.3457,0.82692,-0.4435,-0.58746,-1.18345,0.45424
0.3507,0.84147,-0.41102,-0.85041,-1.32462,0.61541
0.35339,0.86115,-0.36541,-0.62007,-0.99642,0.58121
0.35398,0.88013,-0.31633,-0.60305,-0.96518,0.48328
0.34846,0.89411,-0.28129,-0.62506,-1.0019,-0.02603
0.33911,0.90435,-0.25911,-0.80741,-0.78849,-0.1952
0.33965,0.91005,-0.23754,-0.83901,-0.40746,-1.34327
0.3485,0.91952,-0.18169,-2.44788,4.6788,4.99674
0.31797,0.92985,-0.18511,1.15354,0.14855,0.61527
0.32334,0.91735,-0.23216,0.15348,-1.2599,1.55417
0.3394,0.91293,-0.22662,1.01843,-1.8478,0.51463
0.32075,0.93281,-0.16423,0.33153,-0.94975,0.31282
0.28993,0.95092,-0.1081,-0.14767,-0.88668,0.04591
0.2487,0.96715,-0.05253,0.3857,1.9156,-0.03395
0.17925,0.98312,0.03644,0.60657,1.5866,-0.36618
0.11394,0.98744,0.10942,0.26544,0.77145,-0.43784
0.06675,0.98503,0.15885,1.14831,0.41044,-0.67066
0.04467,0.98496,0.16683,0.4542,-0.00193,-0.4123
0.0339,0.98716,0.15604,0.04727,0.023,-0.42606
0.02558,0.99093,0.13189,-0.07268,-0.2417,-0.42115
0.01943,0.99447,0.1031,-0.12342,-1.10737,-0.19471
0.01969,0.99714,0.07279,-0.00225,-1.26973,-0.26411
0.03333,0.99866,0.03927,0.12375,-1.13496,-0.24367
0.05952,0.99822,-0.00167,0.00343,-1.01927,0.07314
0.09488,0.99378,-0.05821,-0.19815,-0.64556,-0.19952
0.13787,0.98314,-0.12008,0.16655,-0.35768,-0.75395
0.18843,0.95472,-0.23019,2.12738,1.97559,0.71194
0.27594,0.91148,-0.30505,0.03998,2.00617,0.58132
0.33595,0.86875,-0.36387,-0.89451,2.34005,-0.14844
0.36877,0.83263,-0.41319,-0.94802,0.92749,0.32596
0.40644,0.79599,-0.44854,-0.05301,-0.15543,-0.0867
0.43469,0.76301,-0.47839,0.24359,-0.10817,-0.41068
0.44608,0.74306,-0.49886,0.06608,-0.12279,-0.29769
0.45165,0.74068,-0.49739,1.0888,0.27403,-0.07352
0.44857,0.7553,-0.4778,1.04316,-0.43291,-0.14079
0.44012,0.76735,-0.46632,0.34423,-0.52251,-0.09128
0.42043,0.77996,-0.46355,-0.38593,-0.94325,0.37664
0.39792,0.80327,-0.44318,-0.78331,-1.573,0.5622
0.38738,0.8344,-0.39206,-0.93425,-1.29611,0.81487
0.38514,0.86261,-0.32795,-0.82934,-0.95165,0.61637
0.38122,0.8816,-0.27829,-0.63262,-0.91218,0.29674
0.37582,0.89136,-0.25341,-0.81525,-1.04719,-0.03019
0.37595,0.89038,-0.25664,-1.0718,-0.54877,-1.83146
0.38602,0.89359,-0.22907,-2.6014,5.04075,4.15711
0.39241,0.89349,-0.21835,0.92998,4.54898,-0.096
0.40704,0.87479,-0.26277,0.04879,-0.96852,1.41096
0.40966,0.87544,-0.25646,0.67331,-2.49302,1.19431
0.39214,0.90154,-0.18285,0.28689,-0.46862,-0.01938
0.35001,0.92934,-0.11755,0.03952,-0.44054,-0.29464
0.28972,0.95574,-0.05105,0.40556,1.08511,-0.39025
0.20702,0.97809,0.02159,0.71725,0.81482,-0.04904
0.14829,0.98472,0.09121,0.78469,0.38006,-0.40377
0.11202,0.98245,0.14908,1.59199,0.32322,-0.33947
0.09634,0.98216,0.16143,0.05448,-0.65039,-0.87641
0.09039,0.98564,0.14259,-0.26338,-0.28982,-0.57101
0.08388,0.98904,0.12144,-0.47455,0.04914,-0.00796
0.07321,0.992,0.10275,-0.34669,-0.5229,-0.01234
0.06297,0.99475,0.0805,-0.21214,-1.11127,-0.14955
0.0624,0.99658,0.05399,-0.09515,-1.29484,-0.12186
0.08064,0.99659,0.01718,0.04559,-0.72368,0.05814
0.11435,0.99292,-0.03201,0.05796,-0.2772,-0.68979
0.16767,0.98,-0.10706,1.77952,0.95162,-0.00018
0.25789,0.94221,-0.21382,0.08558,1.43497,0.17633
0.33233,0.89284,-0.30395,-0.14959,1.31433,0.14794
0.3601,0.86155,-0.35785,-0.68267,1.82123,0.09426
0.38407,0.83061,-0.40319,-0.38481,0.67389,0.35926
0.40496,0.79955,-0.44353,0.41031,-0.02697,-0.16488
0.41757,0.77616,-0.47244,0.30251,-0.00828,-0.41347
0.42463,0.75956,-0.49268,0.18286,0.4802,-0.26128
0.4265,0.75259,-0.50169,0.46316,0.12962,0.08807
0.42753,0.75639,-0.49505,0.49771,-0.53831,0.00508
0.43166,0.76584,-0.47661,0.03921,-0.63829,-0.08708
0.42635,0.78055,-0.45712,-0.50186,-1.41878,0.68016
0.40673,0.80111,-0.43908,-0.58733,-1.54628,0.83254
0.38876,0.8298,-0.40036,-0.72821,-1.34118,1.06443
0.37756,0.85786,-0.34858,-0.65677,-1.15991,0.69059
0.37326,0.87765,-0.30066,-0.5504,-1.12321,0.28772
0.37426,0.88576,-0.2745,-0.72515,-1.06023,-0.07741
0.38142,0.88447,-0.26874,-1.12201,-0.68839,-0.43841
0.39772,0.87525,-0.27522,-1.42514,1.17246,-1.70789
0.40706,0.88002,-0.24466,0.51985,7.04926,0.57013
0.42954,0.86084,-0.27284,0.18711,-0.29355,1.21704
0.44201,0.83854,-0.31854,-0.44411,-3.00474,1.54666
0.45341,0.85012,-0.26777,0.38552,-2.15028,0.30036
0.425,0.88464,-0.19177,0.32241,-0.25271,-0.62115
0.37695,0.91507,-0.14336,-0.12818,0.44788,0.16466
0.31883,0.94519,-0.07034,0.50197,1.70152,0.25929
0.24726,0.96891,-0.00803,0.1711,0.94902,-0.10023
0.19767,0.97881,0.05317,0.77983,0.3588,-0.05904
0.16907,0.98002,0.1047,1.27759,0.27442,-0.30244
0.15274,0.98055,0.12315,0.62168,-0.38723,-0.80498
0.14546,0.98226,0.11824,-0.1951,-0.06793,-0.46624
0.1356,0.98489,0.10763,-0.37237,-0.13687,-0.17883
0.12212,0.98847,0.08938,-0.35271,-0.37804,-0.11062
0.10841,0.99204,0.06398,-0.30694,-0.86081,-0.05289
0.10346,0.99405,0.03378,0.01077,-1.25934,-0.14129
0.11087,0.99383,0.00119,0.10539,-1.18474,-0.13588
0.12937,0.99089,-0.03726,0.12325,-0.9498,0.27176
0.15921,0.98381,-0.0822,0.18424,-0.47005,-0.495
0.20338,0.96853,-0.14345,0.91312,-0.11301,-0.63391
0.28882,0.92693,-0.23952,0.71768,1.83325,0.44994
0.36852,0.87599,-0.31115,-0.45519,2.28639,-0.23795
0.40312,0.84213,-0.35818,-0.79625,1.43761,0.26709
0.4344,0.81084,-0.39221,-0.7147,0.98153,0.25859
0.45628,0.78125,-0.42597,0.39612,-0.04378,-0.19444
0.46753,0.75671,-0.45693,0.54178,-0.05428,-0.30965
0.4714,0.73908,-0.48119,0.75013,0.23448,-0.26169
0.46999,0.73422,-0.48992,0.90083,-0.12459,-0.04679
0.46543,0.74384,-0.47965,0.67306,-0.35576,-0.18526
0.46468,0.75581,-0.46132,0.1609,-0.47354,0.02378
0.46226,0.76884,-0.44181,-0.49945,-0.78606,0.17725
0.4515,0.78616,-0.42201,-0.697,-1.22103,0.50311
0.44177,0.80905,-0.38764,-0.78991,-1.1334,0.76986
0.43462,0.83507,-0.33727,-0.70434,-0.92809,0.57677
0.4278,0.85697,-0.28738,-0.57222,-0.80217,0.30871
0.42212,0.87098,-0.2514,-0.56597,-0.83143,-0.03571
0.41639,0.87761,-0.23752,-0.83902,-0.73695,-0.23028
0.41846,0.87583,-0.24041,-0.77085,-0.2935,-2.16969
0.41651,0.88256,-0.21816,-1.33743,5.33398,3.27619
0.41441,0.88364,-0.21779,1.24035,4.10547,-0.11568
0.43265,0.86217,-0.26357,-0.21593,-0.96396,1.46085
0.45191,0.84652,-0.28135,-0.01072,-2.59254,1.18073
0.44973,0.86359,-0.22791,0.36045,-0.78943,0.15763
0.4318,0.88538,-0.17217,0.25727,-0.14513,-0.41449
0.40494,0.90794,-0.10796,-0.07824,0.7783,0.16889
0.35232,0.93517,-0.03624,0.28685,1.54171,-0.18887
0.28926,0.95706,0.01849,0.22719,0.18551,-0.34883
0.24422,0.96764,0.06341,0.75294,0.4494,-0.04751
0.21884,0.97062,0.09994,0.98135,0.19361,-0.4983
0.20874,0.97147,0.11251,0.46206,-0.09803,-0.68433
0.20538,0.97336,0.1018,-0.2265,0.00845,-0.30908
0.192,0.97825,0.07845,-0.21219,-0.28791,-0.16778
0.17451,0.98326,0.0523,-0.34518,-0.6678,-0.15601
0.15832,0.98707,0.02485,-0.29104,-1.06727,-0.10131
0.15133,0.98846,-0.00536,-0.03269,-1.33229,-0.1079
0.15876,0.98651,-0.03974,0.17568,-1.12881,0.14681
0.17764,0.98052,-0.08373,0.05893,-0.73928,0.12722
0.20671,0.96911,-0.13444,1.37442,0.28513,-0.55274
0.26167,0.93868,-0.22449,2.23275,1.78849,0.10596
0.3462,0.88816,-0.30217,0.84871,2.29433,0.53369
0.38833,0.84565,-0.36614,-1.25625,1.12337,0.22569
0.42317,0.8136,-0.39871,-0.64514,0.70747,0.30664
0.45556,0.78099,-0.4272,-0.29941,0.35856,0.28166
0.48096,0.752,-0.45074,0.4584,0.1447,-0.04526
0.49626,0.73211,-0.46662,0.3214,0.33626,-0.20667
0.4985,0.72224,-0.47943,0.6518,0.48102,-0.3344
0.49006,0.72995,-0.47644,0.69402,-0.44194,-0.08124
0.47995,0.74585,-0.4619,0.56709,-0.37256,0.00065
0.47077,0.76311,-0.44276,0.10637,-0.45065,0.1085
0.4609,0.78191,-0.41974,-0.65212,-1.00655,0.29849
0.44952,0.80307,-0.39116,-0.68941,-1.12046,0.29162
0.4395,0.82373,-0.35817,-0.71205,-0.97647,0.40169
0.43079,0.84169,-0.32554,-0.59465,-0.87977,0.19305
0.42,0.85441,-0.3059,-0.58256,-0.86908,0.11242
0.40638,0.86107,-0.30561,-0.66949,-0.44661,-0.24486
0.39484,0.86146,-0.31934,-0.57679,1.29484,-0.33639
0.38247,0.86846,-0.3154,0.24996,4.17707,0.55655
0.38254,0.86341,-0.32889,0.15096,0.82299,0.34006
0.39141,0.85243,-0.34663,-0.55741,-0.5154,0.74583
0.40226,0.84848,-0.34389,0.10296,-1.2682,0.46474
0.39202,0.86467,-0.3141,0.55939,-0.28323,-0.06511
0.38033,0.88325,-0.27424,0.10373,0.4538,0.42801
0.36733,0.90248,-0.22492,0.03723,0.76059,0.41171
0.32839,0.93049,-0.16232,0.06213,0.97865,0.19575
0.26915,0.95738,-0.1047,0.39021,0.06778,-0.23526
0.21905,0.9739,-0.05937,0.81324,0.36322,-0.10112
0.18313,0.98301,-0.01172,1.24602,0.25373,-0.21649
0.16737,0.98553,0.02664,0.79282,0.13227,-0.54991
0.15247,0.98731,0.04414,0.24532,0.12716,-0.43966
0.12942,0.99048,0.04676,0.25656,-0.244,-0.2282
0.10177,0.99379,0.04491,-0.06086,-0.15129,-0.09574
0.07439,0.9966,0.03519,-0.07879,-0.52429,-0.16894
0.0534,0.99847,0.01366,0.02979,-0.81985,-0.20837
0.04289,0.99894,-0.01619,0.08998,-1.02268,-0.10481
0.0424,0.99791,-0.0487,0.0668,-1.24081,0.03495
0.05207,0.99488,-0.08653,0.00748,-1.13013,0.0787
0.06733,0.98868,-0.13403,-0.05464,-0.95151,0.16908
0.0847,0.97725,-0.19441,0.11141,-0.54096,-0.39956
0.11197,0.95136,-0.28698,1.69519,1.262,-0.44997
0.18838,0.92298,-0.33557,0.44039,2.61635,0.45805
0.22566,0.89083,-0.39432,-0.61237,1.51917,0.16501
0.24467,0.86516,-0.43774,-0.49136,0.83785,0.46616
0.26817,0.83613,-0.4785,0.36604,0.31966,0.22586
0.29974,0.80802,-0.5072,0.74601,0.23977,0.05196
0.33207,0.78859,-0.51753,0.5555,0.4062,-0.51883
0.34897,0.7802,-0.51913,1.00564,-0.10743,-0.05297
0.35886,0.77843,-0.51504,0.84757,-0.13385,-0.02033
0.3582,0.7848,-0.50574,0.32614,-0.52483,-0.07809
0.34803,0.79691,-0.49376,-0.14985,-0.59206,0.30811
0.33125,0.81065,-0.48282,-0.35272,-0.77886,0.4751
0.31151,0.82631,-0.46922,-0.66771,-1.07691,0.84161
0.30094,0.84512,-0.44182,-0.77687,-0.92688,0.62321
0.29865,0.86241,-0.40871,-0.68123,-0.99907,0.43024
0.3054,0.87498,-0.37567,-0.66859,-0.96162,0.23961
0.31718,0.88193,-0.34869,-0.86738,-0.88524,0.1347
0.33296,0.88406,-0.32796,-1.06155,-0.62953,0.0749
0.35146,0.88498,-0.30541,-0.78199,-0.09732,0.05882
0.34276,0.89216,-0.29421,1.03972,4.31598,0.73541
0.34249,0.89115,-0.29756,0.92325,1.81925,0.52516
0.34516,0.89254,-0.29023,0.66638,-0.36452,0.41103
0.34874,0.89884,-0.26543,0.58762,-1.29021,0.23546
0.33537,0.91376,-0.22925,0.47783,-0.76766,-0.01764
0.31739,0.92748,-0.19754,0.41876,-0.12573,-0.1447
0.28918,0.9467,-0.14181,0.56226,0.97667,0.24666
0.24318,0.96736,-0.07117,0.72713,1.0029,0.20336
0.19999,0.97977,0.00568,0.75016,0.44805,0.08305
0.16778,0.98274,0.07785,0.87428,0.74424,-0.36512
0.15227,0.98044,0.1246,0.41851,0.65979,-0.73388
0.13633,0.98057,0.14096,0.33245,0.76621,-0.24217
0.11397,0.98255,0.14694,-0.05789,0.37718,-0.25706
0.0876,0.98593,0.14233,-0.05452,-0.2734,-0.4342
0.06322,0.99086,0.11911,-0.03686,-0.67473,-0.28237
0.0453,0.99567,0.08102,-0.04384,-1.00465,-0.09764
0.03652,0.99849,0.04082,0.05327,-1.41901,-0.08534
0.04133,0.99913,0.00355,0.0582,-1.48554,0.21186
0.05974,0.99747,-0.03833,0.02353,-1.01189,0.25856
0.09098,0.99205,-0.08681,0.21432,-0.71085,-0.28995
0.13808,0.97716,-0.16152,0.8597,-0.00699,-0.53561
0.22275,0.9369,-0.26944,0.87226,2.13485,0.03334
0.30319,0.88653,-0.34946,-0.26532,1.95136,-0.01485
0.34579,0.84162,-0.41485,-0.42524,1.2289,-0.05735
0.38233,0.80357,-0.45616,-0.77875,1.10745,0.50461
0.40209,0.76147,-0.50841,0.08589,0.5174,0.07163
0.41344,0.73158,-0.54208,0.83155,0.33254,-0.15656
0.4305,0.7158,-0.54981,0.70155,0.18658,-0.39351
0.43838,0.71257,-0.54778,0.99745,0.37196,-0.55043
0.42495,0.72193,-0.54611,0.51575,-0.25449,-0.55514
0.40109,0.73391,-0.54818,0.66291,-0.85546,-0.10735
0.39154,0.73724,-0.5506,0.10182,-0.97389,0.36643
0.38494,0.74083,-0.55044,-0.63413,-1.11376,0.8265
0.3866,0.75448,-0.53037,-0.93304,-1.42823,0.92678
0.40141,0.77912,-0.48149,-0.83372,-1.01113,0.86915
0.41766,0.80386,-0.42351,-0.75395,-0.7649,0.75861
0.42705,0.82348,-0.37348,-0.83942,-0.74473,0.55903
0.4314,0.83953,-0.33027,-1.06824,-0.66706,0.16528
0.43828,0.85069,-0.2902,-0.91202,-0.19931,-0.3848
0.4581,0.85524,-0.24227,-0.54605,4.99232,-0.12899
0.4515,0.8631,-0.22627,0.6649,0.53719,0.22662
0.45433,0.86231,-0.22359,0.01903,0.03962,0.56926
0.44945,0.8678,-0.21191,0.1618,-1.1184,0.47337
0.43217,0.88276,-0.18428,0.43372,-1.31513,0.30077
0.40198,0.90452,-0.14229,0.28163,-0.46349,0.21176
0.36462,0.92644,-0.09354,-0.02377,0.4901,0.12569
0.31021,0.95026,-0.02771,0.05994,0.77888,-0.02724
0.23939,0.96984,0.04565,0.98073,1.06747,-0.19954
0.19868,0.97282,0.1189,1.20302,0.40017,-0.28478
0.17283,0.97145,0.16245,1.28471,0.23851,-0.62929
0.15922,0.97144,0.17591,0.51461,0.29288,-0.68859
0.13948,0.97351,0.18109,0.0717,0.47299,-0.22882
0.11617,0.97519,0.18839,-0.1212,0.25516,-0.36057
0.09209,0.97843,0.18486,-0.22111,-0.45122,-0.52975
0.07446,0.98372,0.16353,-0.06072,-0.8177,-0.1375
0.067,0.98881,0.13321,0.08513,-1.19805,-0.11293
0.07606,0.99144,0.10606,0.11811,-1.34698,-0.04647
0.10184,0.99202,0.07416,-0.10037,-0.82721,-0.09128
0.14151,0.98942,0.03166,-0.08987,-0.53955,-0.72753
0.20295,0.97797,-0.04865,1.13714,0.93916,-0.27857
0.28643,0.94573,-0.15346,0.45748,1.60667,0.52123
0.35252,0.90729,-0.22922,-0.00317,1.75592,0.26221
0.37661,0.87562,-0.30239,-0.43615,1.16918,0.05457
0.40041,0.83996,-0.36623,-0.6336,0.90202,0.38659
0.42708,0.80824,-0.40539,0.13692,0.01151,-0.28092
0.44823,0.77729,-0.44148,0.22451,-0.02741,-0.39136
0.46042,0.75837,-0.4614,0.20612,0.3845,-0.23381
0.47283,0.75226,-0.45884,0.87876,0.01554,-0.18689
0.48443,0.74823,-0.45329,0.34491,-0.30389,-0.16966
0.48839,0.74709,-0.45091,0.18863,-0.54162,-0.05734
0.49257,0.74702,-0.44645,-0.37058,-0.7668,0.12616
0.48409,0.7536,-0.44468,-0.86847,-1.48176,0.64216
0.47869,0.77361,-0.41518,-0.92672,-1.66846,0.98556
0.48415,0.80515,-0.34253,-0.96498,-1.15026,0.9358
0.48808,0.82976,-0.27067,-0.86555,-0.83489,0.51113
0.48689,0.84436,-0.22356,-0.6807,-0.93293,0.09661
0.48653,0.84976,-0.20293,-1.10476,-0.4707,-0.35522
0.50451,0.84191,-0.19142,-0.38366,0.6868,-1.0902
0.55217,0.81744,-0.164,0.99834,7.11416,0.57791
0.58197,0.79514,-0.17047,-0.14561,0.0733,0.12141
0.58273,0.78807,-0.19841,-1.03368,-0.71039,0.78156
0.5581,0.81272,-0.16736,0.23219,-2.25089,0.5268
0.50867,0.85419,-0.10773,-0.1017,-0.0811,0.79677
0.44659,0.89317,-0.05288,-0.01127,0.50998,0.23572
0.38112,0.92449,0.00757,0.50377,1.51843,0.23503
0.30595,0.94758,0.09207,0.93276,0.37626,-0.37127
0.26199,0.94955,0.17233,1.58806,0.42395,-0.72725
0.23315,0.94827,0.21542,1.14434,0.2446,-1.26669
0.21938,0.95121,0.21694,-0.09929,0.36058,-0.62409
0.20404,0.95723,0.20507,-0.38844,0.53021,-0.01832
0.17826,0.96408,0.19685,-0.25137,-0.1119,-0.09091
0.15086,0.97205,0.17986,-0.17467,-0.39354,-0.21997
0.12815,0.97904,0.15827,-0.07424,-0.83216,-0.24103
0.11978,0.9832,0.13768,0.28523,-1.62469,-0.17052
0.13756,0.9836,0.11656,0.29363,-1.10542,-0.23494
0.16959,0.98251,0.07674,-0.22153,-0.76294,-0.01376
0.21198,0.97696,0.02452,-0.29334,-0.70123,-0.66722
0.26689,0.96233,-0.05178,0.91886,1.08928,-1.1844
0.34341,0.92506,-0.16222,0.46131,2.22348,0.80937
0.42094,0.87797,-0.22794,-0.24591,2.32283,-0.06731
0.44853,0.84186,-0.30014,-0.36545,0.7068,0.38473
0.46717,0.81073,-0.3528,-0.35874,0.21019,0.22266
0.48356,0.7856,-0.38599,0.33526,-0.03077,-0.42561
0.49394,0.76054,-0.42143,0.60045,0.08698,-0.54555
0.50633,0.73462,-0.45161,0.48775,0.29054,-0.45286
0.51539,0.72492,-0.45701,0.77628,-0.29717,-0.10279
0.51019,0.72995,-0.45483,0.4149,-0.55258,-0.24955
0.5025,0.73936,-0.44815,-0.31364,-0.66058,0.03517
0.4805,0.75567,-0.44506,-0.88149,-1.16472,0.64199
0.45477,0.77859,-0.43241,-0.91095,-1.35564,0.66875
0.44917,0.8058,-0.38591,-0.823,-0.96977,0.84641
0.45956,0.83147,-0.31218,-0.79101,-0.79359,0.46235
0.46829,0.84796,-0.24831,-0.62951,-0.8429,0.03678
0.47258,0.85599,-0.20961,-1.01483,-0.28368,-0.24106
0.48236,0.85288,-0.19979,-0.33704,0.30241,-0.54827
0.51937,0.83719,-0.17135,0.16584,6.10608,0.50502
0.55851,0.81626,-0.14759,-0.16043,3.84706,0.32232
0.57434,0.80246,-0.16177,-0.60606,0.07783,0.31478
0.55684,0.81702,-0.14964,0.498,-2.04314,0.26177
0.51789,0.84862,-0.10783,-0.12092,-0.446,0.53635
0.46108,0.88542,-0.05846,0.02651,0.09761,0.092
0.39688,0.91784,-0.00581,1.15375,1.4496,0.18103
0.32048,0.94512,0.06336,1.2025,1.23822,0.08537
0.25552,0.95614,0.14316,0.87571,0.09806,-0.29083
0.22187,0.95185,0.21153,0.9108,0.49383,-0.85428
0.2003,0.94907,0.24318,0.63021,0.30206,-1.00445
0.18129,0.95234,0.2453,0.25461,0.28619,-0.70029
0.15631,0.95661,0.24586,-0.4969,-0.01178,-0.47949
0.12032,0.96222,0.24421,-0.52584,-0.21403,-0.5231
0.08546,0.96915,0.23112,-0.40965,-0.29995,-0.30923
0.05814,0.97685,0.20582,0.10552,-1.44939,-0.19743
0.04557,0.98332,0.17603,0.35798,-1.58908,-0.0872
0.06094,0.98682,0.14982,0.33799,-1.13683,-0.19741
0.09256,0.98972,0.10899,-0.11318,-0.92882,0.11153
0.13479,0.98955,0.05096,0.14417,-0.58556,-0.85992
0.19445,0.98016,-0.0381,1.91689,1.47168,-0.49984
0.29705,0.94287,-0.15083,-0.13865,2.50026,0.45985
0.36923,0.89855,-0.23722,-0.40468,1.88367,-0.34881
0.39186,0.86491,-0.31362,-0.53506,1.10666,0.38375
0.4269,0.82901,-0.36122,-0.46101,0.99711,0.26875
0.45311,0.79191,-0.40934,0.43486,-0.02126,-0.32171
0.47052,0.76177,-0.44532,0.42319,0.37379,-0.47481
0.4848,0.743,-0.46143,0.69904,0.38185,-0.06947
0.49948,0.73302,-0.46172,0.69143,0.10185,0.02908
0.50883,0.72579,-0.46294,-0.01074,-0.69959,-0.38634
0.51905,0.72045,-0.45992,-0.24229,-0.73122,-0.23267
0.51047,0.7274,-0.45859,-0.88561,-1.72945,0.847
0.49231,0.74812,-0.44491,-1.01326,-1.54064,1.23953
0.48403,0.78397,-0.38872,-1.02671,-1.40216,1.1006
0.47607,0.82067,-0.31599,-0.7111,-0.92829,0.53696
0.46572,0.84308,-0.2689,-0.60111,-0.84306,0.15126
0.4596,0.85337,-0.246,-1.0686,-0.41135,-0.0693
0.46562,0.85384,-0.2327,-1.04417,1.26687,-1.18316
0.49479,0.84599,-0.19869,1.04762,7.04165,0.59788
0.51949,0.83252,-0.19242,-0.56598,-1.57503,0.58491
0.54908,0.79784,-0.2489,-1.01185,-1.68512,1.15651
0.55482,0.79309,-0.25135,0.5538,-2.25146,0.77187
0.53629,0.8239,-0.18322,0.46421,-0.97487,0.5639
0.48241,0.86809,-0.117,0.10669,0.69943,-0.63699
0.41284,0.90814,-0.06946,0.87094,2.07658,0.55838
0.32869,0.94438,-0.00923,0.53801,1.9593,-0.11266
0.27509,0.96057,0.04006,0.32522,-0.10944,-0.09073
0.24298,0.96594,0.08895,1.57299,0.04505,-0.46036
0.22355,0.96582,0.13112,1.02635,-0.02906,-0.69309
0.20963,0.96557,0.15399,-0.17438,-0.07055,-0.54506
0.19392,0.96602,0.17082,-0.26788,0.06332,-0.31499
0.17166,0.96826,0.18161,-0.7325,0.22191,-0.1665
0.14414,0.97314,0.17947,-0.40398,-0.21113,-0.23866
0.12283,0.97974,0.15814,-0.19001,-0.68288,-0.19728
0.11192,0.9857,0.12592,0.15553,-1.1528,-0.01888
0.11784,0.98828,0.09695,0.34676,-1.10007,-0.03666
0.14332,0.98767,0.06283,-0.05116,-0.86716,0.11326
0.17941,0.9837,0.01118,-0.10785,-0.62128,-0.51338
0.2301,0.97143,-0.05807,1.78038,0.80802,-0.56214
0.32201,0.93147,-0.16931,0.17865,1.99459,0.14258
0.40732,0.87545,-0.26013,-0.16306,1.86674,-0.1373
0.43531,0.83766,-0.32988,-0.75722,1.22064,0.17078
0.45255,0.8084,-0.3764,-0.41476,0.31954,0.16586
0.46745,0.77474,-0.42574,0.23418,0.03758,-0.06266
0.47884,0.74233,-0.46867,0.29448,-0.2047,-0.34603
0.48194,0.72752,-0.48831,0.1567,0.18994,-0.21152
0.48569,0.72458,-0.48896,0.80456,0.02538,0.19305
0.49561,0.72433,-0.47928,0.27151,-0.23875,-0.13307
0.50306,0.73103,-0.461,-0.21658,-0.52043,0.01897
0.51279,0.7424,-0.43115,-0.6763,-0.78074,0.03222
0.51482,0.76046,-0.39579,-0.8317,-1.28575,0.41442
0.51322,0.77983,-0.3584,-0.95042,-1.25466,0.78702
0.51431,0.80052,-0.30764,-0.84268,-0.93617,0.61128
0.51173,0.81919,-0.25893,-0.66084,-0.89224,0.19681
0.50102,0.83328,-0.23367,-0.95505,-0.63585,-0.22346
0.48676,0.83972,-0.24066,-0.41099,-0.09532,-1.75845
0.48312,0.83753,-0.25519,-0.96309,3.05604,2.07909
0.49291,0.84478,-0.20825,0.35368,1.96149,0.04726
0.50912,0.83169,-0.22156,-0.4033,-1.01757,1.06935
0.51357,0.82198,-0.24613,-0.4933,-1.36459,1.18501
0.50306,0.83874,-0.20841,0.62593,-0.53461,0.37197
0.47349,0.86877,-0.14502,0.52692,-0.34236,0.16881
0.4344,0.89752,-0.07571,0.02856,0.35148,0.09967
0.384,0.92332,-0.00321,0.08786,1.23972,-0.20157
0.32296,0.94421,0.06446,0.35812,0.61257,-0.37626
0.27562,0.95387,0.11893,0.87184,0.4512,-0.32274
0.24144,0.95576,0.16796,0.85457,0.01314,-0.79427
0.22388,0.95639,0.18758,-0.05582,-0.12551,-0.66481
0.21186,0.95988,0.18364,-0.29061,0.29332,-0.19804
0.19172,0.96556,0.17583,-0.25591,-0.2648,-0.18593
0.16892,0.97252,0.16016,-0.2366,-0.64729,-0.3117
0.15039,0.979,0.13753,-0.14578,-1.14575,-0.2312
0.14279,0.98347,0.11123,0.16413,-1.34158,-0.19796
0.15249,0.98476,0.08354,0.17764,-0.98136,-0.03506
0.17727,0.98323,0.04266,-0.00556,-0.77954,0.20897
0.21246,0.97713,-0.00784,0.48838,-0.33495,-1.2095
0.26222,0.96124,-0.08509,1.48135,2.08812,0.38309
0.3484,0.91953,-0.18183,0.32534,2.07384,0.42454
0.40544,0.87558,-0.26262,-0.79289,1.83684,0.11777
0.42944,0.84722,-0.31271,-0.62962,1.26823,0.49861
0.45587,0.81645,-0.35437,-0.45375,1.07532,0.31964
0.47633,0.78731,-0.39146,0.61602,-0.15795,-0.14867
0.49114,0.76176,-0.42248,0.36175,0.07174,-0.49391
0.49527,0.74428,-0.44806,0.5877,0.44237,0.06167
0.49,0.7463,-0.45048,1.06306,-0.26247,-0.25742
0.49003,0.75006,-0.44414,0.27487,-0.59984,-0.14045
0.49755,0.75633,-0.42473,-0.15296,-0.62311,-0.04471
0.50125,0.76604,-0.40239,-0.62347,-1.02252,0.3154
0.49084,0.78201,-0.3841,-0.8613,-1.26156,0.7835
0.47567,0.80459,-0.35546,-0.887,-1.07147,0.8435
0.46202,0.82836,-0.31679,-0.79548,-1.04228,0.57526
0.45392,0.84596,-0.2798,-0.76102,-0.99173,0.35722
0.4524,0.85383,-0.25749,-0.90491,-0.95701,-0.00919
0.45746,0.85009,-0.2609,-1.0123,-0.49752,-1.89866
0.47412,0.842,-0.25737,-0.58051,5.85939,3.11335
0.49927,0.83583,-0.22827,0.90254,3.91665,-0.20234
0.53061,0.80132,-0.27629,-0.99368,-2.21329,1.54272
0.53457,0.78902,-0.30277,0.40122,-1.75475,0.61787
0.52885,0.81808,-0.22596,0.56437,-0.44219,0.36552
0.49556,0.85507,-0.15252,0.15032,0.54323,-0.44637
0.4523,0.88551,-0.10619,0.28887,1.85171,0.4776
0.39899,0.91608,-0.03972,-0.0384,1.45023,-0.0712
0.35172,0.93605,0.00906,0.34536,-0.13703,0.13402
0.31268,0.94756,0.06582,1.32892,0.41073,-0.28109
0.2833,0.95028,0.12915,1.16781,0.27481,-0.7278
0.26583,0.95119,0.1567,-0.00041,0.50322,-0.63092
0.25881,0.9507,0.17078,-0.40093,0.47925,-0.13182
0.23994,0.95507,0.1739,-0.28403,-0.12882,-0.26266
0.21484,0.96323,0.16131,-0.23159,-0.59859,-0.48694
0.19377,0.97188,0.1337,-0.19288,-0.79024,-0.35031
0.18209,0.97808,0.10094,-0.03628,-1.22406,-0.06992
0.18412,0.98018,0.07307,0.28287,-1.10818,-0.18226
0.20185,0.97842,0.04395,0.13498,-0.97021,-0.12845
0.22723,0.97383,-0.00226,-0.1312,-0.6091,-0.12827
0.25911,0.9641,-0.05794,0.73192,-0.0176,-1.52647
0.30086,0.94123,-0.1535,1.54497,2.75589,0.67671
0.37984,0.89467,-0.23512,-0.52699,1.81146,0.08682
0.43166,0.84919,-0.3042,-1.0832,1.6128,0.29709
0.46201,0.81878,-0.3408,-0.46599,1.12913,0.25245
0.48655,0.79037,-0.37225,0.29307,-0.05205,0.07965
0.50254,0.76309,-0.40638,0.695,-0.10296,-0.22694
0.50896,0.73926,-0.44096,0.14433,0.27911,-0.14504
0.51539,0.72835,-0.45151,0.84969,-0.46105,0.09895
0.51361,0.73612,-0.44083,0.4455,-0.45102,-0.22621
0.50508,0.74947,-0.42799,-0.14716,-0.7067,-0.12462
0.4977,0.76843,-0.40224,-0.54616,-0.70905,-0.09794
0.49278,0.78636,-0.37255,-0.70828,-0.76729,0.15462
0.48543,0.80097,-0.35042,-0.79524,-0.93444,0.48911
0.47514,0.81578,-0.32973,-0.77437,-1.00232,0.62704
0.46042,0.83178,-0.31007,-0.61455,-0.9904,0.59102
0.4488,0.84398,-0.2937,-0.52028,-0.97594,0.3363
0.44195,0.84945,-0.28827,-0.78114,-0.80042,0.22715
0.44699,0.84878,-0.28242,-0.31971,-0.66868,-1.84237
0.47256,0.85288,-0.22198,0.55614,6.93532,0.71304
0.49998,0.84095,-0.20689,-0.10011,1.38227,0.03838
0.51451,0.81776,-0.25792,-0.70075,-1.43611,1.38988
0.50424,0.81588,-0.28298,0.11002,-2.48357,0.92297
0.4797,0.84687,-0.22956,0.77488,-0.32598,0.53659
0.45184,0.87641,-0.16654,0.11387,0.27673,-0.22781
0.41529,0.90385,-0.10278,0.31266,1.41597,0.62053
0.36415,0.93107,-0.02181,-0.02403,0.87396,-0.38479
0.31791,0.94773,0.02679,-0.13678,-0.04156,-0.17948
0.2778,0.9573,0.07988,1.32155,0.59145,-0.18935
0.25298,0.95797,0.13516,1.12945,0.25135,-0.45534
0.23833,0.95815,0.15853,0.80154,-0.02948,-0.55413
0.22222,0.95988,0.17095,-0.32875,0.26784,-0.38995
0.19881,0.96437,0.17449,-0.40586,0.05757,-0.38537
0.16958,0.97221,0.16135,-0.31521,-0.20396,-0.39856
0.1463,0.98045,0.1315,-0.07024,-1.04149,-0.15852
0.13246,0.98635,0.09774,0.05639,-1.23871,-0.08097
0.13155,0.98877,0.07085,0.36514,-1.19116,0.05029
0.14899,0.98788,0.0433,-0.03898,-0.79498,0.04491
0.17774,0.98406,0.00347,0.61657,-0.54989,-1.06916
0.21744,0.97463,-0.05292,2.03256,2.0343,0.13668
0.29713,0.9427,-0.15172,0.6234,2.26337,0.49998
0.35801,0.90527,-0.2287,-0.51073,1.9135,0.21891
0.37605,0.87909,-0.29288,-0.59279,0.96106,0.32216
0.40291,0.84841,-0.34329,-0.48407,1.15346,0.34536
0.43039,0.8195,-0.37838,0.37825,0.11144,0.09111
0.45928,0.79213,-0.40198,0.33465,0.12961,-0.32954
0.47303,0.77117,-0.42607,0.27189,0.41755,-0.4555
0.47436,0.75755,-0.44844,0.97324,0.04385,0.02158
0.47491,0.75464,-0.45273,-0.037,-0.65026,-0.05435
0.48024,0.75792,-0.44149,0.02862,-0.51651,-0.0045
0.48563,0.76392,-0.42495,-0.37771,-0.76894,0.21184
0.48774,0.77529,-0.40127,-0.686,-1.14012,0.42448
0.48703,0.79357,-0.36475,-0.84526,-1.04958,0.64052
0.48165,0.81666,-0.31792,-0.94232,-1.1146,0.59376
0.47364,0.83797,-0.27103,-0.80886,-1.11971,0.41645
0.46583,0.85312,-0.2349,-0.71693,-1.05185,0.04532
0.45878,0.85928,-0.22618,-0.9726,-0.5078,-0.59572
0.46152,0.85337,-0.24237,-0.66327,0.97222,-1.53295
0.48488,0.84336,-0.23156,2.2334,7.08776,0.14431
0.52133,0.813,-0.2593,-0.65723,-0.22654,0.84516
0.53827,0.77785,-0.32436,-0.90402,-2.638,1.71774
0.54625,0.77507,-0.31759,-0.22482,-2.03989,0.98645
0.53088,0.81436,-0.23446,0.44201,-0.02032,0.22435
0.49624,0.85201,-0.16679,0.12179,0.26115,-0.41366
0.45913,0.8805,-0.11797,0.31907,2.00511,0.66294
0.40439,0.91339,-0.04655,-0.3163,0.49193,-0.20272
0.35546,0.93468,-0.0033,0.17518,-0.17413,-0.22883
0.31561,0.94751,0.05096,1.53842,0.52644,0.00558
0.29208,0.95023,0.10829,1.27461,0.35867,-0.41897
0.27974,0.95052,0.13505,0.08329,0.23173,-0.62736
0.26219,0.95298,0.15186,-0.0338,0.53566,-0.09139
0.23388,0.95901,0.15993,-0.11274,0.15834,-0.21452
0.19955,0.96795,0.15242,0.00498,-0.37817,-0.3939
0.17178,0.97667,0.12881,-0.01254,-0.79701,-0.39518
0.15597,0.98291,0.09772,0.00624,-1.08354,-0.09891
0.15248,0.98595,0.06803,0.14318,-1.30837,-0.08242
0.16354,0.98576,0.039,0.08396,-1.09548,0.21822
0.18653,0.98244,-0.00147,-0.18175,-0.71508,-0.10791
0.22211,0.97384,-0.04791,1.04699,-0.50028,-0.92307
0.29256,0.94676,-0.13433,1.18164,2.44507,0.48126
0.37141,0.90296,-0.21613,-0.1999,1.91604,0.39272
0.40333,0.86855,-0.28796,-0.73932,1.02535,0.35086
0.42081,0.83875,-0.34554,-0.43406,0.5243,0.20248
0.44274,0.80816,-0.38839,0.13207,0.00147,0.04541
0.47118,0.77691,-0.41759,0.21881,0.24561,-0.27287
0.49351,0.74786,-0.44401,0.00753,0.58857,-0.35376
0.49895,0.72763,-0.47074,1.28839,-0.37657,0.30228
0.50706,0.72775,-0.4618,0.71052,-0.17183,-0.37145
0.51069,0.73406,-0.44759,0.37406,-0.23267,-0.24519
0.50387,0.74499,-0.43715,-0.2799,-0.77946,0.23079
0.49495,0.75826,-0.42433,-0.58445,-1.22556,0.32291
0.49005,0.77362,-0.40169,-0.65536,-1.14221,0.37615
0.48778,0.7933,-0.36433,-0.89405,-0.90894,0.48796
0.48016,0.8134,-0.32836,-0.73241,-0.84576,0.46026
0.468,0.8303,-0.30261,-0.50109,-0.84705,0.23477
0.45918,0.84032,-0.28812,-0.65148,-0.75612,0.02492
0.45491,0.84166,-0.29095,-0.65104,-0.39752,-1.00962
0.46847,0.83869,-0.27771,-0.11267,3.61749,1.664
0.49211,0.83472,-0.2471,1.24063,6.43384,0.09108
0.5128,0.81449,-0.27136,-0.50693,-0.21378,0.78593
0.51632,0.79892,-0.30843,-0.47036,-1.51842,1.29358
0.49654,0.81687,-0.29352,0.29971,-1.08042,0.8204
0.47029,0.84738,-0.24649,0.13914,-0.27535,0.40898
0.44244,0.87653,-0.18957,0.3277,1.39128,0.24316
0.40641,0.9045,-0.12924,0.15538,1.22918,0.28514
0.36228,0.92968,-0.06655,-0.07175,0.42125,-0.16844
0.31945,0.94737,-0.02092,1.31267,0.39539,0.01949
0.28594,0.95778,0.02978,1.34618,0.38498,-0.03121
0.26849,0.96089,0.06776,0.62277,-0.09361,-0.46841
0.25705,0.96304,0.08038,0.00267,-0.00771,-0.27798
0.24314,0.96639,0.08341,-0.14716,0.03039,-0.20106
0.2278,0.97041,0.07998,-0.28179,-0.08006,-0.20974
0.21254,0.97503,0.0643,-0.23946,-0.62601,-0.31236
0.20327,0.97834,0.03894,-0.25202,-0.95243,-0.16882
0.20269,0.9792,0.0086,-0.18805,-1.11256,-0.08007
0.21226,0.97687,-0.02586,0.00992,-0.92285,0.22184
0.23402,0.97027,-0.06159,-0.03222,-0.68909,-0.15118
0.27248,0.95578,-0.11061,2.02566,0.66594,0.34501
0.34531,0.91774,-0.1962,0.25349,1.28618,0.19493
0.40474,0.87122,-0.27778,-0.1286,1.69812,0.20045
0.42068,0.84038,-0.34173,-0.85889,0.951,0.27051
0.4447,0.8065,-0.38959,-0.53586,1.01451,0.34255
0.4765,0.77308,-0.41867,-0.19226,0.46481,0.24318
0.51016,0.74286,-0.43346,0.385,0.24972,-0.11211
0.5322,0.71688,-0.45038,0.33706,0.6826,-0.45114
0.53742,0.70037,-0.46974,0.88249,0.62892,-0.23286
0.53666,0.69949,-0.47193,0.67204,-0.34744,0.02921
0.53813,0.70565,-0.46094,0.16079,-0.30559,-0.07147
0.53581,0.71408,-0.45055,0.00088,-0.5139,0.19544
0.53023,0.72645,-0.43717,-0.43802,-1.05319,0.39838
0.52365,0.74759,-0.40851,-0.63985,-1.12061,0.36364
0.51772,0.77362,-0.36533,-0.7166,-0.91084,0.48753
0.51129,0.79662,-0.32243,-0.69044,-0.72984,0.36939
0.50272,0.81388,-0.29131,-0.55117,-0.7629,0.10886
0.49586,0.82503,-0.27101,-0.55947,-0.8147,-0.01065
0.48861,0.82795,-0.27522,-0.78016,-0.31799,-0.91788
0.48946,0.82353,-0.28674,-0.64917,2.42061,1.1728
0.49536,0.82585,-0.26939,0.3956,4.74042,1.26483
0.51793,0.80595,-0.2867,-0.25702,0.7483,0.53334
0.52704,0.785,-0.32558,-0.3107,-0.10064,1.11939
0.52627,0.7861,-0.32417,0.12699,-1.35203,0.75821
0.5096,0.80843,-0.29452,0.19408,-0.42233,0.27313
0.49562,0.82925,-0.25825,0.00798,-0.1113,0.01311
0.47791,0.85222,-0.21285,0.23914,1.07803,0.38436
0.44914,0.88011,-0.15384,-0.21988,0.39546,-0.13127
0.41369,0.90363,-0.11092,-0.12546,0.21067,-0.19283
0.37505,0.92373,-0.07784,0.64697,0.0854,0.03513
0.34984,0.93603,-0.03816,0.77101,-0.10178,-0.14422
0.33711,0.94141,-0.00977,0.23657,-0.20966,-0.35046
0.32897,0.94433,0.00237,-0.124,0.00141,-0.28823
0.31891,0.94778,-0.00027,-0.24845,-0.11492,-0.08308
0.30552,0.95205,-0.01598,-0.24935,-0.4845,-0.02052
0.29184,0.95561,-0.04029,-0.27922,-0.80368,-0.12878
0.28304,0.95656,-0.06973,-0.23319,-1.06093,0.09497
0.28385,0.95335,-0.10266,-0.14828,-0.90295,0.0688
0.29558,0.94587,-0.13401,0.4247,-0.55288,-0.64154
0.32396,0.9289,-0.17939,2.01593,1.09305,0.44986
0.38754,0.88653,-0.25273,0.3277,1.29067,0.32922
0.43849,0.83814,-0.32441,-0.06099,1.6895,0.09924
0.44969,0.80792,-0.38084,-0.83747,0.92156,0.50081
0.4709,0.77712,-0.41752,-0.5556,0.736,0.30253
0.49318,0.75149,-0.43821,-0.10082,0.27002,0.32049
0.51694,0.7292,-0.44837,0.30441,0.20463,0.19666
0.53359,0.70741,-0.46351,0.2373,0.34752,-0.03676
0.54225,0.69592,-0.4708,0.27417,0.29808,-0.14965
0.54895,0.69312,-0.46715,0.44195,-0.16193,0.0692
0.55053,0.69881,-0.45669,0.07554,-0.31336,0.06723
0.53875,0.71432,-0.44664,-0.12074,-0.33377,0.27661
0.52326,0.73463,-0.43186,-0.39209,-0.64915,0.29901
0.50879,0.759,-0.40626,-0.62838,-0.92096,0.24523
0.49426,0.78635,-0.37062,-0.49551,-0.86234,0.21469
0.48075,0.80844,-0.33954,-0.34335,-0.70108,0.2701
0.46885,0.82177,-0.32385,-0.20441,-0.34485,-0.10474
0.45662,0.82403,-0.33535,-0.22052,-0.25304,-0.22698
0.44618,0.81433,-0.37119,-0.09654,-0.15401,-0.1135
0.45006,0.7984,-0.39998,1.62556,2.16484,1.32012
0.47706,0.80124,-0.36114,1.29997,2.8593,2.11343
0.48616,0.80694,-0.3354,-0.39369,0.73762,0.63732
0.47596,0.80284,-0.35905,-0.39124,-0.70791,0.52075
0.45188,0.80877,-0.37642,0.16296,-0.22062,0.10387
0.43531,0.82473,-0.361,0.04654,0.65075,-0.084
0.41864,0.8362,-0.35428,0.01448,0.52951,0.01336
0.40627,0.84769,-0.34112,0.20185,-0.01723,0.5893
0.39458,0.86829,-0.30062,0.12545,-0.02896,0.45387
0.37842,0.88795,-0.26139,-0.07963,0.04346,0.4159
0.35634,0.90651,-0.22641,0.05496,0.13745,0.42112
0.33553,0.92186,-0.19387,0.21794,0.05795,0.0818
0.31982,0.93305,-0.16472,0.21762,0.05182,-0.06566
0.30801,0.94055,-0.14315,0.23371,0.02503,-0.07263
0.29758,0.94547,-0.13235,0.22746,-0.15328,-0.09525
0.28767,0.94871,-0.1311,0.11597,-0.19906,-0.07785
0.27548,0.95141,-0.13758,0.04627,-0.22191,0.01584
0.26147,0.95337,-0.15073,0.02477,-0.28363,0.1388
0.24643,0.95453,-0.16771,0.01348,-0.24285,0.24124
0.2315,0.95447,-0.18809,0.02226,-0.23029,0.28398
0.21914,0.95198,-0.21381,0.06277,-0.37141,0.21959
0.21187,0.9463,-0.24417,0.09442,-0.42004,0.15911
0.21237,0.93714,-0.27689,0.12764,-0.39075,0.24906
0.21897,0.92399,-0.31351,0.0966,-0.32456,0.12225
0.23238,0.90619,-0.35328,0.24638,0.10887,-0.15743
0.25681,0.88491,-0.38855,0.86461,0.42644,0.2023
0.29318,0.86465,-0.40795,0.35303,0.68284,0.02718
0.31783,0.84919,-0.42172,0.05801,0.60269,0.0884
0.33109,0.83966,-0.43051,0.26363,0.41153,0.05211
0.33289,0.83736,-0.43358,0.45776,0.24874,0.15702
0.32776,0.84217,-0.42816,0.46721,0.18408,0.21045
0.32943,0.84854,-0.41406,0.46554,0.1777,0.19634
0.33887,0.85497,-0.39267,0.25945,-0.0701,0.13123
0.35094,0.8621,-0.36555,0.17162,-0.16416,0.2517
0.36056,0.87069,-0.33449,0.09844,-0.221,0.21926
0.36358,0.88116,-0.30224,0.03612,-0.2608,0.2681
0.35928,0.89394,-0.26791,-0.16321,-0.49381,0.27861
0.34757,0.90814,-0.23338,-0.18987,-0.52621,0.21789
0.33068,0.92164,-0.20302,-0.20241,-0.56993,0.16419
0.31059,0.93317,-0.18085,-0.24196,-0.45693,0.05716
0.29071,0.94196,-0.16791,-0.17697,-0.42464,0.02247
0.27623,0.94713,-0.1632,-0.1073,-0.32605,-0.03364
0.27251,0.94655,-0.17254,0.61922,1.11052,-0.03887
0.28059,0.94233,-0.1824,0.75871,1.6258,0.86138
0.3041,0.93671,-0.17348,-0.03559,0.5148,0.51941
0.32463,0.93148,-0.16414,-0.47974,-0.2308,0.62662
0.32154,0.93535,-0.14742,-0.30263,-0.2584,0.26464
0.29862,0.94522,-0.13179,-0.14028,-0.26802,0.02451
0.26892,0.95611,-0.1163,0.39757,0.4338,-0.30755
0.24362,0.96473,-0.09967,0.62862,0.33318,-0.0204
0.23358,0.96958,-0.07304,0.55125,-0.09921,0.18512
0.23275,0.97147,-0.04537,0.39239,-0.27311,0.16675
0.23395,0.97202,-0.02073,0.32313,-0.14727,0.23179
0.23406,0.97218,0.00848,0.07342,0.2045,0.10405
0.22978,0.97244,0.03948,0.0125,0.32282,-0.03464
0.2192,0.97347,0.0655,0.08052,0.27578,-0.07778
0.20586,0.97492,0.08453,0.20929,-0.04503,-0.1914
0.19144,0.9769,0.09495,0.31763,-0.142,-0.13832
0.17956,0.97857,0.10073,0.31237,-0.17976,-0.08499
0.16963,0.97979,0.10592,0.27517,-0.15356,-0.10362
0.16017,0.98079,0.11132,0.26329,-0.16231,-0.18091
0.15108,0.98187,0.11441,0.2002,-0.21233,-0.30153
0.14427,0.98345,0.10959,0.19702,-0.28488,-0.22244
0.14154,0.9855,0.09355,0.19926,-0.31139,-0.15181
0.1437,0.98733,0.06728,0.25361,-0.40452,-0.04281
0.15241,0.98775,0.03341,0.25109,-0.40669,0.00159
0.16935,0.98553,-0.00626,0.27212,-0.30586,-0.02456
0.19546,0.97934,-0.0517,0.39939,0.10083,-0.0722
0.23132,0.96731,-0.10384,0.35909,0.64812,-0.08437
0.27081,0.94879,-0.16265,0.1231,0.59613,-0.0061
0.30628,0.92744,-0.21459,-0.06441,0.74717,0.01511
0.33564,0.90624,-0.25705,-0.06835,0.75365,0.0396
0.35513,0.88756,-0.29343,0.0041,0.5395,0.24207
0.36672,0.87345,-0.3203,0.23028,0.34795,0.21204
0.38011,0.85988,-0.34075,0.36929,0.26942,0.01132
0.39755,0.84622,-0.35476,0.31979,0.10622,-0.19773
0.42037,0.83252,-0.36082,0.37658,0.03223,-0.28598
0.44262,0.82114,-0.36029,0.40392,-0.04965,-0.23417
0.45684,0.8152,-0.35601,0.24842,-0.21747,-0.07455
0.46549,0.81437,-0.34657,0.00512,-0.43379,0.00649
0.46953,0.81885,-0.33017,-0.17037,-0.60879,0.0585
0.46909,0.82615,-0.31212,-0.27518,-0.69757,0.23867
0.4655,0.83388,-0.29654,-0.32803,-0.69311,0.35849
0.4609,0.84216,-0.27989,-0.36687,-0.63575,0.40139
0.45675,0.84981,-0.26303,-0.54295,-0.68584,0.22182
0.45695,0.85478,-0.24604,-0.50646,-0.69432,0.16663
0.46182,0.85774,-0.22584,-0.48315,-0.71711,0.17566
0.47129,0.85916,-0.19931,-0.55115,-0.40382,-0.41201
0.48595,0.86188,-0.14496,-0.72182,0.11528,-0.01875
0.47747,0.87298,-0.09956,1.34732,3.90127,-0.1033
0.47225,0.87507,-0.10589,0.15765,0.54013,0.20715
0.46941,0.87511,-0.11756,-0.44571,-0.43861,0.38582
0.45461,0.88018,-0.13637,-0.32163,-0.5153,0.39391
0.43893,0.88676,-0.14485,0.20074,0.2009,0.29123
0.43651,0.88992,-0.13226,0.01018,0.1831,0.23625
0.4367,0.89383,-0.10174,-0.24424,0.203,0.27754
0.42621,0.90277,-0.05781,-0.07753,0.13701,0.0356
0.40323,0.91487,-0.02025,0.1806,0.36826,-0.05974
0.37428,0.92726,0.00955,0.34613,0.33565,-0.05171
0.34668,0.93708,0.04101,0.29433,0.06266,-0.16781
0.32548,0.94314,0.0673,0.30318,0.02684,-0.20419
0.31069,0.9466,0.086,0.03503,0.0356,-0.23897
0.29918,0.94914,0.09805,0.09438,0.0089,-0.33435
0.29075,0.95155,0.10004,0.10273,-0.02406,-0.3122
0.28386,0.95418,0.09459,0.18777,-0.27077,-0.30153
0.27966,0.95643,0.08379,0.12987,-0.48489,-0.26087
0.28092,0.95752,0.06502,0.04943,-0.67647,-0.18149
0.28965,0.95646,0.03574,-0.02452,-0.7598,-0.08124
0.30614,0.95196,-0.005,-0.0262,-0.78838,-0.0856
0.32849,0.94286,-0.05564,-0.01805,-0.72149,-0.17736
0.35469,0.92806,-0.11351,0.00545,-0.29642,-0.31352
0.38108,0.9062,-0.18319,0.3274,0.47102,-0.30506
0.41381,0.87471,-0.25228,0.5251,1.05686,0.08272
0.45332,0.8433,-0.28868,0.28127,1.22675,0.1293
0.46858,0.82711,-0.31034,-0.06127,0.75089,0.04285
0.4699,0.8179,-0.33201,0.01481,0.4337,-0.07569
0.46334,0.81174,-0.3555,0.22236,0.21497,-0.09196
0.45755,0.8078,-0.3716,0.41348,0.26826,-0.2099
0.45721,0.80691,-0.37396,0.19756,0.35318,-0.18413
0.46364,0.80861,-0.36218,0.13273,0.06728,-0.2457
0.46747,0.81329,-0.34643,0.21174,-0.096,-0.04712
0.46616,0.82158,-0.32816,0.29255,-0.15117,0.02007
0.46079,0.83322,-0.30563,0.07074,-0.40699,0.11736
0.45223,0.84839,-0.27515,-0.31473,-0.77242,0.09067
0.44163,0.86516,-0.23758,-0.30413,-0.78919,0.0531
0.42927,0.8803,-0.20195,-0.47505,-0.63757,-0.02214
0.4175,0.89168,-0.17491,-0.46329,-0.70273,-0.07054
0.40877,0.89837,-0.16071,-0.46637,-0.72001,-0.06799
0.40267,0.90175,-0.15714,-0.46213,-0.70983,-0.05409
0.39713,0.90451,-0.15537,-0.48356,-0.68843,0.21315
0.3903,0.90874,-0.14781,-0.44501,-0.55526,0.09967
0.38027,0.91454,-0.13786,-0.27854,-0.11697,-0.08112
0.36332,0.92541,-0.10774,0.30508,1.49122,0.49237
0.34548,0.9357,-0.07135,0.38923,0.77553,0.22907
0.34172,0.93855,-0.04842,0.11815,0.33977,0.03153
0.32751,0.94357,-0.04892,0.46976,-0.30403,0.16371
0.32638,0.94445,-0.03833,0.42392,-0.19206,-0.11685
0.32924,0.94381,-0.02843,0.38373,0.11593,-0.25852
0.329,0.94422,-0.0137,0.52592,0.24265,0.08732
0.32296,0.94623,0.01798,0.13691,0.31004,0.19482
0.30172,0.95159,0.05853,0.12612,0.25601,-0.00607
0.27633,0.95624,0.09611,0.41674,0.29739,-0.01014
0.25455,0.95842,0.12892,0.33696,0.37393,-0.16681
0.23422,0.96063,0.14936,0.45205,-0.11612,-0.50068
0.21639,0.96354,0.1573,0.34443,-0.31494,-0.47337
0.20206,0.9671,0.15452,0.25807,-0.32333,-0.45228
0.1934,0.97054,0.14365,-0.02358,-0.51792,-0.31645
0.19066,0.9734,0.12695,-0.07112,-0.61162,-0.26257
0.19425,0.97558,0.10242,-0.18638,-0.7899,0.02456
0.2044,0.97642,0.06932,-0.1343,-0.83644,-0.2332
0.22328,0.97408,0.03608,-0.0322,-0.74334,-0.21992
0.2537,0.96725,-0.00642,0.69583,0.73445,-0.09364
0.30407,0.95013,-0.06913,0.11017,1.05343,0.15392
0.35391,0.92671,-0.12625,0.02629,1.09245,0.13546
0.38503,0.9062,-0.17476,-0.48067,0.9382,-0.00235
0.40514,0.88739,-0.21996,-0.32213,0.87597,0.13221
0.42182,0.86964,-0.25648,-0.01703,0.40805,0.12318
0.43868,0.85468,-0.27762,0.41312,0.14071,0.02769
0.45623,0.83921,-0.29593,0.36509,0.26452,-0.1418
0.47187,0.82494,-0.31113,0.30751,0.15269,-0.2572
0.48652,0.8134,-0.31886,0.44393,-0.11293,-0.28539
0.49807,0.80617,-0.31938,0.23265,-0.20481,-0.17328
0.50782,0.80242,-0.31342,0.09447,-0.30561,-0.09338
0.5156,0.80063,-0.30517,-0.15127,-0.54847,0.06853
0.52056,0.80251,-0.29151,-0.34628,-0.81912,0.1249
0.52146,0.80771,-0.27508,-0.38301,-0.76371,0.20379
0.5185,0.8161,-0.2552,-0.39636,-0.72909,0.23809
0.5114,0.82631,-0.23594,-0.43826,-0.59696,0.26768
0.50507,0.835,-0.21835,-0.34763,-0.53148,0.1343
0.5058,0.83938,-0.19896,-0.24886,-0.51115,-0.04356
0.51246,0.84083,-0.17427,-0.24295,-0.4468,-0.14201
0.52363,0.83964,-0.14423,-0.51345,-0.3396,-0.16945
0.53538,0.83771,-0.10768,-0.65526,-0.17296,-0.43805
0.53816,0.83997,-0.06948,0.30448,2.00252,0.1363
0.5164,0.85503,-0.04732,0.33568,2.63708,0.17366
0.51075,0.8575,-0.06176,-0.86166,-0.08787,0.44547
0.50589,0.85982,-0.069,-0.28392,-0.30312,0.45481
0.49515,0.86648,-0.06347,0.02821,-0.64501,0.37728
0.48615,0.87273,-0.04458,0.04374,-0.22214,0.16321
0.47633,0.87887,-0.02588,0.13274,0.44568,0.01961
0.46231,0.88664,0.01084,0.07025,0.21899,0.14611
0.44091,0.8959,0.05422,-0.05399,0.19658,-0.04098
0.41428,0.90628,0.08375,-0.00551,0.25841,0.23837
0.38584,0.91569,0.11232,0.37319,0.11574,0.19997
0.36521,0.91887,0.14926,0.44929,-0.00963,-0.05297
0.35053,0.91833,0.18378,0.31233,0.11576,-0.56371
0.33413,0.91933,0.20776,0.33453,0.087,-0.60156
0.31563,0.92156,0.22603,0.1757,0.0464,-0.52369
0.29455,0.92548,0.23812,0.13029,-0.07508,-0.42596
0.2679,0.93163,0.24551,0.15548,-0.02516,-0.39587
0.24093,0.93814,0.24864,0.35765,0.0023,-0.24511
0.22148,0.94284,0.24896,0.30672,-0.19705,-0.23107
0.21304,0.94654,0.24218,0.1443,-0.39776,-0.28774
0.21413,0.95083,0.22372,0.0212,-0.54629,-0.14012
0.22326,0.95559,0.19231,-0.01966,-0.58361,-0.31517
0.2409,0.9574,0.15917,0.06318,-0.66435,-0.33303
0.27136,0.95435,0.12475,0.18603,-0.34821,-0.23657
0.31949,0.94474,0.07325,0.32084,0.42334,-0.46607
0.38068,0.92467,-0.00715,0.53288,0.73666,-0.52517
0.44487,0.89126,-0.08795,0.53495,1.73712,-0.19924
0.49073,0.85794,-0.15202,-0.16256,1.16496,0.10982
0.5175,0.8294,-0.21041,-0.16818,0.57973,0.08512
0.53495,0.80339,-0.2615,0.18268,0.11949,-0.03048
0.55335,0.77333,-0.30944,0.42089,0.20221,-0.17535
0.57356,0.73867,-0.35409,0.29374,-0.08752,-0.24502
0.58639,0.71012,-0.3897,0.36555,-0.12528,-0.40736
0.58173,0.69929,-0.41541,0.26536,-0.13719,-0.32482
0.56434,0.70164,-0.43498,0.14246,-0.27542,-0.19944
0.53964,0.7148,-0.4448,-0.07678,-0.40068,-0.07643
0.51683,0.73298,-0.44229,-0.31163,-0.62008,0.10365
0.50092,0.75062,-0.43085,-0.56199,-0.69232,0.33513
0.49563,0.7669,-0.40768,-0.69801,-0.91344,0.38916
0.50214,0.78252,-0.36812,-0.80626,-0.91541,0.44379
0.51402,0.79827,-0.3139,-0.94269,-0.8283,0.41046
0.52189,0.81468,-0.25279,-0.88366,-0.78142,0.30979
0.52183,0.83044,-0.19505,-0.95016,-0.63673,0.22948
0.51632,0.84336,-0.14877,-1.0092,-0.18258,-0.35214
0.50725,0.85475,-0.10995,-0.24424,1.66176,0.99735
0.48754,0.86916,-0.08275,0.54292,3.14179,-0.11749
0.48425,0.87072,-0.08564,0.63897,0.15547,0.05996
0.4946,0.86467,-0.08773,0.46187,-0.24331,0.19706
0.50106,0.86206,-0.07595,0.38378,-0.29854,0.30979
0.49094,0.86881,-0.06435,0.2703,-0.62486,-0.3816
0.47543,0.87788,-0.05723,0.0356,-0.0811,0.29588
0.45289,0.89125,-0.02311,-0.05906,0.27444,0.3269
0.41247,0.9106,0.02581,0.00705,0.40728,-0.00798
0.36379,0.92825,0.07741,0.58125,0.54955,-0.20783
0.32228,0.93611,0.14075,1.20392,0.59149,-0.44589
0.2945,0.93502,0.19745,1.18408,0.32791,-0.72764
0.27869,0.93389,0.22397,0.74589,0.1293,-0.90923
0.26202,0.93757,0.22866,0.24864,0.54871,-0.42525
0.24029,0.94277,0.23114,-0.11236,0.23341,-0.31283
0.21792,0.94937,0.22623,-0.08979,-0.0497,-0.34839
0.2014,0.95781,0.20496,-0.05151,-0.30774,-0.31947
0.19372,0.96573,0.17269,-0.08427,-1.04609,-0.12224
0.19479,0.97152,0.13481,-0.10159,-1.14396,0.14388
0.20883,0.97333,0.09485,-0.116,-1.07546,0.04829
0.23852,0.96981,0.05058,0.3349,-0.31267,-0.24642
0.28725,0.95752,-0.02512,0.62545,0.10294,-0.22576
0.3565,0.92529,-0.12931,0.66041,0.75258,-0.13206
0.41808,0.88252,-0.2153,0.34396,1.21132,-0.0222
0.45151,0.8431,-0.29207,-0.3646,1.22805,0.13019
0.47578,0.80811,-0.34724,-0.43501,0.87336,0.33347
0.50255,0.77259,-0.38799,0.05915,0.53382,0.13323
0.52405,0.73469,-0.4308,0.55976,0.41363,-0.23732
0.53013,0.70404,-0.47252,0.65395,0.1984,-0.25589
0.5259,0.68777,-0.50039,0.69799,0.02713,-0.26963
0.51205,0.68626,-0.51656,0.45998,0.01065,-0.15626
0.4946,0.69979,-0.51541,0.17118,-0.28175,-0.15706
0.4818,0.71829,-0.50191,0.06596,-0.73088,-0.01344
0.47356,0.73367,-0.4873,-0.51569,-0.91111,0.33221
0.46679,0.74796,-0.47187,-0.88041,-1.09006,0.62458
0.47073,0.76298,-0.44302,-0.80105,-1.10825,0.77109
0.48651,0.78159,-0.3904,-0.82028,-0.92012,0.72248
0.49971,0.80118,-0.32922,-0.77198,-0.70373,0.44021
0.50535,0.81705,-0.27755,-0.84367,-0.66108,0.21949
0.50436,0.82907,-0.24135,-1.12589,-0.3338,0.00437
0.50175,0.83709,-0.21798,-0.41598,0.2526,-0.05183
0.50381,0.84556,-0.17662,0.13911,4.00414,0.04518
0.49835,0.84909,-0.17512,0.85777,3.7297,0.07055
0.50338,0.84376,-0.18615,0.38292,-0.26857,0.21424
0.50573,0.84426,-0.17732,0.35198,-0.4278,0.54953
0.49651,0.8534,-0.15863,0.281,-1.27183,0.08133
0.4782,0.86739,-0.13762,0.04426,-0.27242,0.02135
0.45857,0.88281,-0.10165,0.00484,0.19812,0.20782
0.42376,0.90505,-0.03587,0.30742,1.02683,-0.03712
0.37382,0.92695,0.03177,0.90148,0.73884,-0.17608
0.33078,0.93855,0.09843,1.3913,0.63341,-0.35879
0.29715,0.94219,0.15476,1.27463,0.16312,-0.64945
0.27841,0.94247,0.18497,0.51441,-0.015,-0.79942
0.26762,0.94521,0.18689,0.25655,0.43844,-0.27155
0.25333,0.9495,0.18508,-0.2077,0.29293,-0.11795
0.23426,0.95589,0.17715,-0.24091,-0.23355,-0.34507
0.21765,0.96352,0.15566,-0.13457,-0.82071,-0.27398
0.20725,0.97056,0.12262,-0.11147,-1.08085,-0.18361
0.20641,0.97443,0.0887,-0.07068,-1.34195,-0.15709
0.22041,0.97419,0.04852,-0.10238,-0.87285,-0.0115
0.24675,0.96905,-0.00575,-0.12873,-0.86772,0.04277
0.28566,0.95543,-0.07433,0.35823,-0.24321,-0.64554
0.35056,0.91771,-0.18679,0.69262,1.55758,0.30929
0.43094,0.86056,-0.2715,0.09009,1.69523,0.4549
0.47776,0.8066,-0.34804,-0.06991,1.83037,-0.36242
0.49121,0.77238,-0.40264,-0.68352,1.03571,0.29815
0.50838,0.73719,-0.44507,0.35048,0.25045,-0.06456
0.51257,0.70067,-0.49631,0.57712,0.09782,-0.24108
0.51302,0.67521,-0.52999,0.73392,-0.21703,-0.51345
0.51961,0.66695,-0.53401,0.74469,0.168,-0.30086
0.52232,0.67257,-0.52423,0.4968,-0.22781,-0.39375
0.51215,0.68942,-0.51224,0.38934,-0.7269,-0.29295
0.49969,0.70316,-0.50584,-0.27604,-0.79309,0.43719
0.48194,0.7162,-0.50476,-0.89668,-1.20071,0.74634
0.47334,0.73308,-0.48839,-1.02977,-1.30193,0.78904
0.48391,0.75544,-0.44174,-0.91313,-0.93253,0.78652
0.4995,0.78079,-0.3753,-0.84887,-0.64804,0.55661
0.50735,0.80177,-0.31582,-0.86949,-0.64418,0.33577
0.50655,0.818,-0.27252,-0.97549,-0.51789,0.13191
0.50107,0.82908,-0.24806,-1.049,-0.18094,-0.62698
0.50466,0.83304,-0.2266,-0.00196,2.7738,1.52549
0.51117,0.8379,-0.19134,0.83031,3.57012,0.1833
0.51769,0.83237,-0.19787,0.41101,-0.29333,0.12353
0.52759,0.8273,-0.19291,0.11184,-0.43354,0.34449
0.52337,0.83509,-0.16939,0.18368,-1.57812,0.34439
0.50052,0.85468,-0.13779,-0.00657,-0.48387,0.10602
0.46412,0.87975,-0.103,0.20063,0.43035,0.29329
0.42244,0.90521,-0.04593,0.08666,1.12149,0.19399
0.36191,0.93195,0.0219,1.21306,0.73227,-0.22997
0.31415,0.94521,0.08865,1.60063,0.42518,-0.27201
0.28496,0.94646,0.15161,1.36284,0.14434,-0.78668
0.27234,0.94296,0.19139,0.2202,0.04761,-0.83079
0.26184,0.94397,0.20084,0.03186,0.44203,-0.1334
0.2396,0.94878,0.20588,-0.40072,0.25344,-0.28505
0.20992,0.9541,0.21355,-0.43781,-0.196,-0.57732
0.18152,0.96201,0.20386,-0.15113,-0.54331,-0.18812
0.16258,0.97096,0.17543,0.00083,-1.08136,-0.20376
0.15228,0.97823,0.14089,0.10196,-1.47774,-0.12643
0.15737,0.9811,0.11251,-0.04696,-1.05312,0.12847
0.1813,0.9806,0.07432,-0.08059,-0.69308,-0.5602
0.21916,0.97536,0.02481,1.27638,0.16798,-0.62395
0.2835,0.95625,-0.07204,0.9485,1.60243,0.14316
0.36766,0.91299,-0.17678,0.6045,1.76598,0.08486
0.41966,0.86595,-0.27204,-0.63703,1.25289,-0.04358
0.43259,0.83556,-0.33866,-0.55902,1.10403,0.51249
0.45451,0.80219,-0.38718,-0.03067,0.53061,0.15848
0.47164,0.76861,-0.43218,0.29797,0.3886,-0.11723
0.47764,0.73635,-0.47921,0.37641,-0.25072,-0.68171
0.47807,0.72485,-0.49601,0.87206,0.01433,-0.51014
0.48596,0.71895,-0.49694,0.86144,-0.0486,-0.21194
0.48843,0.72184,-0.49028,0.20194,-0.72722,-0.25139
0.48458,0.72781,-0.48526,0.00525,-0.83544,0.13199
0.47718,0.73217,-0.48603,-0.78708,-1.17304,0.73934
0.46091,0.74195,-0.48689,-1.07644,-1.62389,1.13757
0.45887,0.76348,-0.45445,-0.9012,-1.06689,1.13065
0.47141,0.79189,-0.38817,-0.86466,-0.76369,0.79327
0.47959,0.8143,-0.32695,-0.74164,-0.82429,0.42946
0.47949,0.82889,-0.28812,-0.99213,-0.59952,0.06406
0.47475,0.8371,-0.27178,-0.63398,-0.34125,-1.53535
0.48676,0.83718,-0.24935,-0.0999,5.41262,0.46556
0.50317,0.83361,-0.22782,0.5768,1.23007,0.31066
0.51265,0.82327,-0.24371,-0.29321,-0.49614,0.50508
0.50601,0.82556,-0.24977,0.05057,-0.95343,0.69916
0.48673,0.84471,-0.2226,0.35977,-1.88627,0.42286
0.45122,0.87486,-0.17608,0.33299,-0.25598,0.2024
0.40739,0.90585,-0.11604,0.63064,1.0386,-0.18428
0.35822,0.93261,-0.04358,1.03546,1.41198,-0.24476
0.30392,0.95212,0.03281,0.90545,0.71609,-0.34507
0.26767,0.95803,0.10252,1.15526,0.56911,-0.3278
0.24123,0.95886,0.14955,1.43569,-0.02387,-0.65736
0.2261,0.95865,0.17278,0.24032,-0.1517,-0.63567
0.21092,0.96242,0.17096,-0.30472,-0.18172,-0.23509
0.19235,0.96735,0.16494,-0.28076,0.13294,-0.33017
0.17538,0.97139,0.16006,-0.3012,-0.13519,-0.13525
0.15966,0.97644,0.1451,-0.0965,-0.69052,-0.14931
0.15002,0.9818,0.11639,0.02672,-1.35069,-0.09735
0.15877,0.98373,0.08391,0.16026,-1.21815,0.15359
0.19209,0.98054,0.04026,-0.03601,-0.78744,-0.50344
0.24442,0.96941,-0.02192,0.99117,-0.18209,-0.30989
0.32729,0.93581,-0.13086,0.8067,0.96652,-0.09218
0.40913,0.87933,-0.24369,0.08793,2.02041,0.30366
0.45926,0.82937,-0.31814,0.08182,1.9249,0.22741
0.46959,0.79983,-0.37384,-0.33775,1.08704,0.52732
0.4803,0.76384,-0.43111,-0.02904,0.78522,0.30841
0.48705,0.73003,-0.47941,0.28435,0.00798,-0.07477
0.49042,0.70691,-0.50967,0.63719,0.00942,-0.36393
0.48848,0.69692,-0.52506,0.4003,-0.02449,-0.36277
0.49657,0.69372,-0.5217,0.54524,0.05923,-0.13003
0.5018,0.69645,-0.51298,0.22784,-0.57021,-0.17751
0.50328,0.70184,-0.5041,-0.11597,-0.71505,-0.02428
0.4954,0.71376,-0.49509,-0.71058,-1.12384,0.51518
0.47769,0.73583,-0.47996,-0.91481,-1.37091,0.96024
0.47135,0.76659,-0.43608,-0.76654,-0.9381,0.87358
0.4713,0.79612,-0.37955,-0.71905,-0.75788,0.5579
0.47256,0.8162,-0.33241,-0.83508,-0.64353,0.19691
0.47177,0.82564,-0.30941,-0.87892,-0.0199,-0.62847
0.47757,0.82064,-0.31378,0.28264,3.51362,1.07428
0.51338,0.80538,-0.29629,0.04808,3.40885,0.41451
0.54037,0.78751,-0.29633,-0.41362,-0.41779,0.13482
0.54955,0.77895,-0.30202,-0.33878,-0.11441,0.75237
0.53586,0.79746,-0.27733,0.36859,-2.07838,0.56482
0.50278,0.83429,-0.22619,0.46409,-0.29387,0.65142
0.44794,0.87913,-0.16268,0.90678,0.58983,-0.23179
0.3992,0.91052,-0.10757,0.96334,0.98041,0.00623
0.35413,0.9345,-0.03585,0.22089,0.66552,-0.37077
0.30378,0.95221,0.03146,1.1998,0.24769,-0.44915
0.26716,0.9596,0.08817,1.37414,0.30049,-0.62725
0.24543,0.96168,0.1221,0.24825,0.10581,-0.75645
0.22886,0.96423,0.13362,-0.28352,0.02865,-0.12891
0.20574,0.96905,0.13637,-0.20063,0.23966,-0.03223
0.18104,0.97411,0.13533,-0.10819,-0.12482,-0.02683
0.15682,0.98031,0.11989,0.05242,-0.63716,-0.17304
0.14021,0.98593,0.09095,0.09201,-1.32417,-0.13053
0.14004,0.9883,0.06032,0.32781,-1.31316,-0.01048
0.16404,0.98617,0.02322,-0.08289,-0.78492,0.00501
0.20289,0.97886,-0.02551,-0.03057,-0.5494,-0.67811
0.25767,0.96062,-0.1039,1.4892,0.50967,-0.2796
0.33901,0.91353,-0.22478,0.87794,1.19675,0.36763
0.40394,0.8577,-0.31809,-0.00648,1.37599,0.28357
0.43915,0.80941,-0.38987,-0.16471,1.26084,-0.13096
0.45474,0.77401,-0.44057,-0.25513,0.90207,0.22764
0.47529,0.73821,-0.47869,0.46697,0.2848,-0.01934
0.48373,0.71313,-0.5074,0.55706,-0.12501,-0.64051
0.48272,0.70549,-0.5189,0.66474,0.1942,-0.33317
0.49673,0.70016,-0.51286,0.8551,0.25573,-0.05226
0.51635,0.69919,-0.49448,0.4584,-0.32101,-0.2816
0.52769,0.69827,-0.48369,0.14841,-0.53129,-0.14226
0.52316,0.70228,-0.4828,-0.5003,-1.07798,0.3959
0.49977,0.71962,-0.48205,-1.11455,-1.79779,0.8963
0.48748,0.74796,-0.45046,-1.03803,-1.31659,1.11435
0.49186,0.78081,-0.38524,-0.88145,-0.87196,0.90083
0.50049,0.80394,-0.32121,-0.82786,-0.86603,0.57825
0.5038,0.81714,-0.2801,-0.85974,-0.86055,0.10281
0.50287,0.82192,-0.2675,-0.80498,-0.38564,-2.07048
0.50978,0.81729,-0.26861,-0.68798,5.99747,1.02593
0.53078,0.81513,-0.23198,1.25337,7.0245,0.47126
0.54946,0.80092,-0.23793,0.22725,-0.57831,0.39939
0.54871,0.79944,-0.24456,-0.42641,-0.98427,0.89359
0.53572,0.82131,-0.19607,0.59523,-0.80752,0.45322
0.49869,0.85658,-0.13253,0.02849,-0.43631,0.0762
0.44777,0.89084,-0.0768,0.54906,0.8615,0.07793
0.3953,0.91851,-0.00778,0.66275,1.35244,-0.17825
0.33901,0.93888,0.0596,0.63858,0.38067,-0.20001
0.29458,0.94739,0.12512,1.43934,0.37344,-0.40866
0.26258,0.94934,0.17259,1.4062,0.11797,-0.62686
0.2496,0.95068,0.18406,-0.10559,-0.38312,-0.57327
0.24307,0.95387,0.17613,-0.31947,0.23056,-0.29433
0.23398,0.95857,0.16244,-0.36863,0.1644,-0.35533
0.2225,0.96473,0.14061,-0.37028,-0.49802,-0.10821
0.21273,0.97086,0.11026,-0.22237,-1.19498,-0.25509
0.21253,0.97405,0.07771,0.08639,-1.24599,-0.15666
0.23084,0.9721,0.0415,0.0633,-0.80114,0.25814
0.26338,0.96461,-0.01165,0.10389,-0.40623,-0.8841
0.30896,0.94709,-0.08685,2.14243,0.77405,-0.32534
0.38206,0.90146,-0.20345,0.70406,1.66486,0.43414
0.45314,0.84144,-0.29435,0.08435,1.77772,0.05329
0.47541,0.80475,-0.35546,-0.4706,1.39161,0.31652
0.49192,0.77412,-0.39843,-0.23586,0.76468,0.3095
0.50049,0.74716,-0.43731,0.37802,-0.02819,0.03302
0.50389,0.71934,-0.47816,0.24299,-0.22534,-0.27011
0.50371,0.70098,-0.50488,0.26843,-0.14281,-0.47649
0.51173,0.69927,-0.49914,0.7523,-0.23152,0.13415
0.52676,0.70438,-0.47578,0.25438,-0.69479,-0.06718
0.53748,0.70875,-0.45692,-0.24333,-0.62826,-0.16389
0.53658,0.71931,-0.44122,-0.79457,-1.01887,0.3047
0.52051,0.74029,-0.42547,-0.99633,-1.56724,0.74201
0.51105,0.76475,-0.39239,-0.85301,-1.00985,1.061
0.51198,0.78775,-0.34253,-0.72651,-0.81231,0.73903
0.51449,0.80311,-0.30052,-0.62101,-0.84568,0.28647
0.51435,0.81096,-0.27887,-0.9369,-0.50246,-0.1369
0.52047,0.80764,-0.27716,-0.45193,-0.27318,-2.47008
0.54627,0.80368,-0.23596,0.63277,7.15178,0.65026
0.56293,0.79377,-0.23028,-0.13077,-0.20298,0.25373
0.56956,0.77248,-0.28084,-1.03002,-1.06823,1.14409
0.56472,0.77829,-0.2745,-0.02827,-2.44633,0.76494
0.54146,0.81354,-0.21202,0.5478,-0.44265,0.55814
0.50104,0.85358,-0.14265,0.18734,-0.0641,0.37827
0.45414,0.88795,-0.07261,0.79674,1.2354,0.01114
0.40148,0.91585,0.00329,0.39788,1.21168,-0.25325
0.35385,0.93237,0.07389,0.77849,0.38483,-0.48947
0.31431,0.93893,0.13998,1.79508,-0.00995,-0.56164
0.29528,0.94093,0.16566,0.69432,-0.38716,-1.09365
0.2932,0.94307,0.15695,-0.39206,-0.03759,-0.42584
0.28693,0.94643,0.14807,-0.32751,0.29774,0.08303
0.27617,0.95108,0.13843,-0.28151,-0.42569,-0.16595
0.26395,0.95711,0.11937,-0.31485,-0.66573,-0.12704
0.25656,0.96198,0.09357,-0.22699,-1.26877,-0.16489
0.26364,0.96268,0.06106,0.13605,-1.00282,-0.09852
0.28506,0.95839,0.01499,-0.10336,-0.56573,-0.10206
0.3206,0.94659,-0.03423,0.28973,-0.25601,-0.72016
0.37207,0.92222,-0.10518,1.95539,1.33797,0.04866
0.45566,0.86679,-0.20257,0.7803,1.47017,0.51919
0.51802,0.80624,-0.2857,0.33597,2.17419,-0.30588
0.53722,0.77514,-0.33248,-0.5832,0.90296,0.34687
0.55342,0.7498,-0.36266,-0.15591,-0.17281,0.07352
0.55927,0.72681,-0.39868,0.28843,-0.11933,-0.15632
0.55823,0.70813,-0.43234,-0.17533,0.15297,-0.1381
0.55333,0.69651,-0.45683,0.0999,-0.17144,-0.23261
0.55273,0.69656,-0.45748,0.42931,-0.6464,0.1256
0.55652,0.70977,-0.43186,0.09277,-0.57244,-0.02489
0.55312,0.72468,-0.41096,-0.43094,-0.59345,-0.19339
0.54348,0.74066,-0.39502,-0.62368,-0.73434,-0.08104
0.53259,0.7582,-0.37613,-0.75932,-0.86683,0.55577
0.52754,0.77417,-0.34978,-0.61746,-0.73973,0.71486
0.52732,0.78796,-0.31787,-0.44466,-0.64294,0.43121
0.52974,0.79822,-0.28673,-0.5904,-0.60479,0.14453
0.53151,0.80356,-0.26793,-1.03892,-0.11424,-0.48497
0.54667,0.80136,-0.24282,-0.22551,2.04482,1.34568
0.56102,0.80405,-0.19685,0.17955,3.85266,-0.14191
0.57653,0.78859,-0.21384,0.11911,0.31316,0.05132
0.57579,0.78278,-0.23603,0.34532,-0.02591,0.67178
0.55473,0.79924,-0.23125,0.53191,-1.87233,0.3566
0.52827,0.82567,-0.19798,-0.11883,-0.27643,0.30512
0.5038,0.85116,-0.14731,-0.26355,-0.20265,0.45804
0.46993,0.8796,-0.07383,0.5098,0.92234,-0.04318
0.42499,0.90519,0.00313,0.9791,1.18475,-0.396
0.38286,0.92086,0.07356,0.91822,0.64736,-0.57115
0.34664,0.9282,0.13518,1.54122,0.03872,-0.63232
0.32696,0.92923,0.17205,0.51218,-0.34104,-0.81954
0.3107,0.93492,0.17139,0.21452,0.16234,-0.2269
0.29363,0.94138,0.16603,-0.18454,0.21347,-0.05192
0.27123,0.94926,0.15911,-0.25106,-0.24505,-0.35273
0.24698,0.95875,0.14062,-0.20435,-0.70337,-0.29396
0.22708,0.96746,0.1115,-0.16386,-1.19923,-0.31313
0.21842,0.97259,0.07961,0.00086,-1.39387,-0.29163
0.22685,0.97297,0.04306,0.05994,-1.0908,-0.10875
0.24538,0.96938,-0.00837,-0.23572,-0.80032,0.14434
0.27327,0.95981,-0.0638,-0.0647,-0.53879,-0.82001
0.32419,0.93383,-0.15117,2.68236,1.54919,0.16595
0.40316,0.8841,-0.23628,0.30339,1.701,0.66041
0.43868,0.8397,-0.32009,-0.60004,2.46967,0.20357
0.46017,0.80522,-0.37397,-0.44903,0.30856,0.35279
0.48694,0.77052,-0.41132,0.37331,0.05505,-0.15893
0.49901,0.74071,-0.44981,0.41611,-0.08893,-0.31839
0.50131,0.71865,-0.48189,0.41591,-0.07932,-0.43931
0.50629,0.70528,-0.49623,1.06734,-0.10484,-0.18849
0.51659,0.70319,-0.48852,0.4397,-0.45055,-0.1917
0.51878,0.71179,-0.47352,0.1135,-0.57015,0.12362
0.51228,0.72011,-0.46797,-0.41869,-0.98006,0.44802
0.4943,0.73694,-0.46105,-0.86336,-1.2783,0.77839
0.47984,0.7624,-0.43416,-0.93736,-1.11594,0.80685
0.47839,0.7884,-0.38672,-0.72287,-0.72258,0.58301
0.48726,0.80882,-0.32921,-0.62855,-0.58846,0.35391
0.50052,0.82094,-0.27481,-0.79181,-0.48722,-0.14955
0.51072,0.82534,-0.24076,-0.89009,-0.29444,-0.55514
0.51911,0.81682,-0.25162,-1.07207,0.28941,-2.94755
0.53762,0.81128,-0.22972,-0.29421,6.51354,2.13923
0.54968,0.81135,-0.19886,1.00752,0.62571,0.68702
0.57126,0.78707,-0.23276,-0.80933,-1.29871,1.32795
0.57639,0.78015,-0.24316,-0.13321,-2.25884,0.57246
0.57489,0.80027,-0.17046,0.47069,-0.74989,-0.15499
0.53712,0.83706,-0.104,0.69805,0.10703,-0.8132
0.47517,0.87739,-0.06621,0.87926,1.27767,0.73294
0.39972,0.91661,0.00468,1.56797,1.85345,-0.17636
0.34226,0.93649,0.07629,-0.00623,0.00865,-0.16708
0.30615,0.94051,0.14729,1.39654,0.26259,-0.4232
0.28207,0.93791,0.20183,1.02533,0.09991,-0.98267
0.2725,0.93697,0.21867,-0.03363,-0.1725,-1.0315
0.26725,0.94117,0.20676,-0.30862,0.08776,-0.58425
0.24834,0.94956,0.19144,-0.47206,-0.06363,-0.21894
0.22248,0.95984,0.17083,-0.36191,-0.75764,-0.05561
0.19745,0.96963,0.14426,-0.32617,-1.07257,-0.13535
0.18329,0.97649,0.11337,-0.24888,-1.37491,-0.16801
0.19204,0.97783,0.08338,0.06153,-1.08365,-0.19306
0.21724,0.97541,0.03688,-0.08851,-0.94935,0.24297
0.25092,0.9676,-0.0278,-0.06753,-0.66023,-0.09954
0.29542,0.9493,-0.10746,1.37678,0.13624,-1.27027
0.38832,0.89662,-0.21276,1.50759,2.30238,0.62245
0.46843,0.83286,-0.29481,0.31235,2.47249,-0.43792
0.48393,0.79874,-0.35751,-0.22249,2.68237,0.21493
0.5003,0.76405,-0.40734,-0.22628,0.88561,0.24865
0.5059,0.73469,-0.45197,0.27866,0.00018,0.01244
0.51233,0.71141,-0.48104,0.33966,-0.1938,-0.08483
0.52144,0.69476,-0.49539,0.04423,-0.08112,-0.41401
0.53806,0.68861,-0.48611,0.9225,-0.51418,-0.07459
0.55726,0.69142,-0.45977,0.18286,-0.69251,-0.13616
0.56729,0.69664,-0.43916,-0.21799,-0.71339,-0.15114
0.56073,0.71072,-0.42479,-0.92943,-1.28166,0.51589
0.54915,0.73249,-0.40235,-1.00168,-1.11878,0.87788
0.54492,0.75868,-0.35702,-0.8779,-0.72142,0.68812
0.54516,0.78198,-0.30216,-0.69221,-0.73085,0.41135
0.54369,0.79848,-0.25848,-0.67406,-0.72098,0.11815
0.53925,0.80791,-0.23767,-1.0338,-0.14401,-0.47182
0.53948,0.80763,-0.23809,-0.07906,2.67528,0.53884
0.55533,0.80685,-0.20145,0.39696,6.60283,1.53382
0.5593,0.80018,-0.21652,-0.343,-1.05819,0.5344
0.56335,0.78524,-0.25697,-0.67159,-1.0896,1.17338
0.5578,0.79395,-0.24187,0.19177,-1.70463,0.68747
0.53996,0.82122,-0.18447,0.30525,-0.81606,0.86352
0.5142,0.85035,-0.11176,-0.09386,-0.08885,0.07476
0.48343,0.87409,-0.04733,0.37823,1.18549,0.2131
0.44451,0.89491,0.03898,0.25477,1.14738,-0.13594
0.40071,0.90904,0.11429,0.70032,0.6286,-0.49669
0.36155,0.91627,0.1724,1.37285,0.71519,-0.65336
0.32804,0.92085,0.21073,0.51916,0.04548,-0.63699
0.3032,0.92584,0.22554,-0.04918,0.58537,-0.14043
0.27699,0.93155,0.23554,-0.07287,0.33377,-0.33881
0.24886,0.9397,0.23456,0.18324,-0.16017,-0.75109
0.22823,0.95031,0.21168,0.12098,-0.7325,-0.47259
0.22063,0.95995,0.17262,0.14145,-1.4823,-0.21706
0.23374,0.96302,0.13394,0.09015,-1.36367,0.21378
0.27002,0.95815,0.09496,-0.11674,-0.75401,-0.47652
0.32336,0.94528,0.04321,0.89809,-0.35016,-0.59887
0.40848,0.91072,-0.06093,1.3327,0.78747,-0.36357
0.48387,0.85815,-0.17155,0.76371,1.79427,0.18092
0.52269,0.81081,-0.26339,0.03719,1.87475,0.27904
0.52829,0.77906,-0.33758,-0.33194,1.04824,0.33587
0.54252,0.73838,-0.40057,-0.22376,0.76049,0.35234
0.55806,0.69428,-0.45446,-0.00519,0.10452,0.1809
0.57621,0.64406,-0.50314,0.11483,0.16039,-0.04184
0.58579,0.61138,-0.53203,0.10444,0.16224,-0.41434
0.59842,0.60067,-0.53017,0.84785,-0.01182,-0.49046
0.60379,0.61079,-0.51221,0.32312,-0.33291,-0.46974
0.5979,0.62768,-0.49853,0.12984,-0.79232,-0.17458
0.57626,0.64444,-0.5026,-0.68551,-1.19584,0.59539
0.5474,0.66744,-0.50485,-1.00476,-1.57933,0.90014
0.53561,0.69875,-0.4742,-0.97474,-1.40866,1.03134
0.54006,0.73157,-0.41609,-0.91071,-0.74875,0.74014
0.54346,0.75449,-0.36795,-0.80138,-0.61806,0.47333
0.53938,0.76944,-0.34208,-0.94303,-0.12287,0.18873
0.5353,0.77468,-0.33663,-0.25288,0.32288,-0.36815
0.56953,0.76492,-0.30086,1.50153,5.01132,1.07168
0.60354,0.74856,-0.27455,-0.87602,-1.18075,-0.02384
0.62641,0.7263,-0.283,-1.12409,-0.07273,0.46972
0.63063,0.72418,-0.27904,-0.24654,-1.51818,0.78241
0.61423,0.74844,-0.25009,0.16594,-1.09976,0.52847
0.57305,0.79388,-0.20335,0.5482,0.26668,0.75237
0.52467,0.84086,-0.13292,0.69025,0.64984,0.28188
0.48057,0.8744,-0.06675,0.58666,1.08298,0.15898
0.42501,0.90504,0.01598,0.81495,0.26925,-0.33061
0.37622,0.92181,0.09325,1.4333,0.00987,-0.39827
0.33985,0.92795,0.15294,1.23647,-0.02439,-0.79305
0.31907,0.93014,0.18172,0.44219,0.21485,-0.67264
0.30309,0.93125,0.20223,-0.46529,0.46077,-0.06185
0.2791,0.93398,0.22307,-0.19257,0.31919,-0.14953
0.25655,0.93766,0.23442,-0.28411,0.00958,-0.49305
0.23531,0.94551,0.22497,-0.08727,-0.4272,-0.39318
0.22145,0.95526,0.19599,-0.01703,-1.03171,-0.31466
0.21885,0.96277,0.15863,0.10847,-1.38994,-0.1324
0.23527,0.96377,0.1256,0.10264,-1.27215,0.06751
0.26786,0.95998,0.08164,-0.23458,-0.59907,-0.60611
0.31689,0.94822,0.02083,1.55191,0.18624,-0.50754
0.39943,0.91261,-0.08706,1.17763,1.12283,0.23051
0.47004,0.86251,-0.18743,0.17617,1.36168,0.23793
0.50189,0.82089,-0.27247,-0.2669,1.5555,0.29347
0.50872,0.79112,-0.33959,-0.32123,1.11914,0.32082
0.5187,0.75597,-0.3993,-0.14176,0.46012,0.07263
0.52795,0.72642,-0.43997,0.38874,0.14211,-0.21919
0.53827,0.6937,-0.47858,0.36168,0.06805,-0.25789
0.54234,0.66804,-0.5095,0.51624,0.24477,-0.24058
0.55368,0.6535,-0.51611,0.69686,-0.0493,-0.03368
0.56805,0.65354,-0.5002,0.05753,-0.56223,-0.37027
0.58137,0.65941,-0.47663,-0.21225,-0.69449,-0.19733
0.58766,0.66783,-0.45679,-0.85316,-1.05719,0.28608
0.58251,0.68087,-0.44395,-1.1075,-1.46502,0.77989
0.57987,0.70416,-0.40975,-0.90189,-1.21297,1.04675
0.57981,0.7329,-0.35591,-0.80016,-0.78731,0.68254
0.57642,0.75527,-0.31193,-0.63248,-0.73583,0.36338
0.56835,0.77053,-0.28855,-0.7191,-0.73004,0.08309
0.56249,0.77818,-0.27935,-1.19077,-0.05526,-0.33439
0.58036,0.77525,-0.24933,0.48896,2.53638,1.64429
0.59835,0.77329,-0.20972,0.97843,6.21134,0.30836
0.6117,0.76015,-0.21905,-0.88521,-0.7607,0.18806
0.61439,0.75172,-0.23965,-1.0854,-0.6067,0.96041
0.60633,0.76772,-0.20727,-0.22052,-1.99079,0.73891
0.57233,0.80576,-0.15222,0.64218,0.06146,0.14279
0.51883,0.84931,-0.09732,0.69289,0.45225,0.21208
0.46158,0.88673,-0.0251,1.04455,1.12425,0.23744
0.40685,0.91202,0.05175,0.4562,0.23417,-0.32763
0.36627,0.92308,0.11725,0.55211,0.14311,-0.29242
0.33339,0.92705,0.17147,1.64272,0.162,-0.56924
0.31368,0.92844,0.19895,1.03136,0.13919,-0.83393
0.29937,0.93109,0.2084,-0.30817,0.21823,-0.51382
0.27469,0.93737,0.21416,-0.28534,0.2093,-0.4678
0.24659,0.94526,0.21367,-0.16286,-0.16018,-0.54899
0.22319,0.9558,0.19136,-0.08985,-0.46332,-0.37672
0.21016,0.96568,0.15256,0.13334,-1.35689,-0.15248
0.21611,0.96982,0.11282,0.2852,-1.22672,-0.09066
0.23994,0.96813,0.0717,-0.00328,-1.11814,-0.00455
0.2739,0.96166,0.01319,-0.01981,-0.55726,-0.72402
0.32279,0.94431,-0.06377,2.37746,1.08508,-0.22132
0.41114,0.89564,-0.16964,1.29755,2.04245,0.93255
0.48012,0.83752,-0.26082,0.35792,1.99595,0.10442
0.50051,0.79665,-0.33887,-0.3237,1.23382,0.41913
0.51997,0.75478,-0.3999,-0.17658,0.91209,0.35983
0.53448,0.71399,-0.45227,0.38129,-0.02307,-0.07917
0.54171,0.67669,-0.49863,0.21946,-0.17852,-0.2556
0.53663,0.64578,-0.54312,0.06009,-0.07811,-0.12035
0.53853,0.62683,-0.56308,0.94095,-0.26181,0.05011
0.5502,0.63062,-0.54734,0.24919,-0.37841,-0.08828
0.55292,0.64521,-0.52723,-0.07444,-0.66844,-0.2221
0.54517,0.66343,-0.51249,-0.54492,-0.95572,0.24372
0.5287,0.68597,-0.49992,-0.9969,-1.27194,0.66276
0.51861,0.71245,-0.4727,-1.10038,-1.28852,0.94336
0.52388,0.7399,-0.422,-0.91475,-0.83788,0.77086
0.53686,0.7588,-0.36877,-0.69912,-0.63376,0.3673
0.54474,0.76784,-0.33714,-0.71828,-0.6675,0.03171
0.54784,0.76758,-0.33268,-1.1975,-0.00412,-0.81312
0.56696,0.76177,-0.31345,0.23421,3.98156,3.49478
0.59142,0.76335,-0.25982,1.59115,5.19048,0.08389
0.60608,0.74648,-0.27463,-0.65359,-0.74204,0.42669
0.605,0.74313,-0.28587,-0.57499,-0.62776,0.8436
0.59953,0.76176,-0.24551,0.04663,-1.73846,0.44308
0.57448,0.79377,-0.19972,0.12437,-0.48803,0.39655
0.53756,0.82928,-0.15269,0.07793,0.15797,0.39345
0.50068,0.86158,-0.08358,0.45718,0.98625,0.28809
0.45654,0.88969,-0.00281,0.44725,0.92186,-0.15963
0.41512,0.90672,0.07426,1.30174,0.47357,-0.28351
0.38045,0.91314,0.14632,2.03473,-0.01966,-0.64255
0.36616,0.91282,0.18073,0.88085,-0.18412,-1.25852
0.36434,0.91236,0.18666,-0.02596,0.46208,-0.3925
0.35231,0.91565,0.19349,-0.36059,0.61583,0.09981
0.33073,0.92379,0.19289,-0.40559,0.27463,0.03973
0.30874,0.93462,0.17648,-0.29984,-0.71077,-0.2998
0.29151,0.94487,0.1491,-0.21926,-0.97688,-0.24171
0.28518,0.95092,0.12004,-0.15229,-1.2529,-0.17375
0.29517,0.95149,0.08677,-0.09214,-0.725,0.2497
0.31905,0.94712,0.03409,-0.20158,-0.51772,-0.27564
0.35595,0.93385,-0.03481,1.75269,0.53872,-0.53345
0.42718,0.89205,-0.1475,1.75068,1.27925,0.33068
0.50656,0.82742,-0.2424,0.11943,1.4282,0.35879
0.54042,0.77818,-0.31996,-0.59789,1.61886,0.41145
0.55727,0.74446,-0.36772,-0.70031,1.06834,0.5576
0.57453,0.71186,-0.40393,-0.25118,0.33898,0.32275
0.58236,0.68194,-0.4425,0.62971,-0.05518,-0.2517
0.5946,0.65048,-0.47256,0.39902,-0.25309,-0.57008
0.61193,0.63051,-0.47749,0.65992,-0.30931,-0.33877
0.63081,0.62471,-0.46021,0.54172,-0.53496,-0.50112
0.63225,0.62857,-0.45293,0.163,-0.70655,-0.30403
0.6275,0.63667,-0.44821,-0.56861,-0.79343,0.31862
0.60963,0.65394,-0.44801,-1.22906,-1.53095,0.75112
0.59894,0.68011,-0.42274,-1.32048,-1.31239,1.0994
0.60139,0.71495,-0.35661,-1.1179,-0.76334,0.81841
0.60182,0.74279,-0.29336,-0.81354,-0.73898,0.3906
0.59866,0.75709,-0.26155,-0.81619,-0.48957,0.03191
0.59472,0.76,-0.2621,-0.80241,-0.21274,-1.46101
0.60823,0.75247,-0.25264,1.66918,6.8024,0.39656
0.62603,0.74001,-0.24589,0.0553,0.67969,0.11092
0.64414,0.71669,-0.26726,-1.11156,-0.70177,0.54906
0.64946,0.7058,-0.28291,-0.8634,-1.45923,0.90149
0.64069,0.72848,-0.24253,0.14369,-1.4414,0.84777
0.60728,0.77639,-0.16853,0.24464,0.00478,0.57548
0.56226,0.81956,-0.11033,0.57884,0.77374,-0.34353
0.51387,0.85659,-0.04671,0.76338,1.4105,0.26583
0.46187,0.88649,0.0281,0.54416,0.19259,-0.36329
0.42552,0.9006,0.08854,1.29688,-0.03225,-0.25137
0.39568,0.9078,0.13901,1.47779,0.02641,-0.88568
0.38039,0.91097,0.15944,0.54177,-0.00775,-0.47287
0.36931,0.91283,0.17417,-0.38409,0.46443,-0.07247
0.34733,0.91805,0.19111,-0.30234,0.30166,-0.30291
0.32261,0.92558,0.19803,-0.33733,0.10365,-0.57567
0.30281,0.93585,0.1802,-0.18842,-0.42448,-0.44834
0.29023,0.94578,0.14576,-0.0368,-1.24925,-0.19715
0.29018,0.95095,0.1071,0.06259,-1.3296,-0.11308
0.30784,0.94891,0.06913,0.07711,-1.2088,0.01511
0.33839,0.94081,0.01876,0.18017,-0.45245,-0.9621
0.38364,0.9219,-0.05398,1.21965,0.23033,-0.86074
0.46021,0.87283,-0.16237,0.76733,1.6971,0.72546
0.52369,0.8127,-0.25546,0.12941,1.3482,0.31328
0.54825,0.76474,-0.3385,-0.34518,1.43759,0.22539
0.56047,0.7259,-0.39867,-0.39331,1.02665,0.54204
0.5753,0.68585,-0.44567,0.05318,0.30085,0.23837
0.58269,0.64607,-0.49301,0.27175,-0.04599,-0.07697
0.58181,0.60995,-0.538,0.33602,-0.31694,-0.52917
0.58376,0.58935,-0.55846,0.74464,-0.03849,-0.1721
0.59637,0.59055,-0.54368,0.47325,-0.18787,-0.11169
0.5972,0.60999,-0.52082,0.08772,-0.55175,-0.36082
0.58958,0.63301,-0.50169,-0.34934,-0.76653,0.10469
0.57131,0.6586,-0.48974,-0.86379,-1.08272,0.54844
0.54961,0.68874,-0.47282,-0.94251,-1.35109,0.8156
0.54244,0.72013,-0.43263,-0.87822,-0.89835,0.83795
0.54636,0.74638,-0.38,-0.79031,-0.71338,0.64682
0.55189,0.76526,-0.33133,-0.76911,-0.57352,0.19162
0.55285,0.77699,-0.30104,-1.13423,-0.02385,-0.17227
0.55635,0.77955,-0.28768,-0.80332,-0.09858,-1.36881
0.57464,0.78085,-0.24507,0.81597,5.79289,0.36841
0.58779,0.77253,-0.24018,-0.32514,-0.66532,0.21853
0.5968,0.75988,-0.2577,-0.40359,-0.15668,0.69584
0.59312,0.76903,-0.23833,0.18859,-0.99563,0.71834
0.57965,0.79192,-0.19195,0.2476,-1.04482,0.36703
0.54543,0.8256,-0.1445,0.09138,-0.20578,0.45286
0.50434,0.85914,-0.0867,0.33034,0.45031,0.01271
0.46073,0.88742,-0.0137,0.47044,1.25729,-0.07456
0.41253,0.90838,0.06808,1.09769,0.36588,-0.30735
0.37653,0.9155,0.14164,1.7454,0.17598,-0.33531
0.34899,0.91733,0.19154,1.11496,-0.06974,-1.21625
0.33293,0.92154,0.19977,0.07716,-0.30415,-0.76592
0.31911,0.92725,0.19587,-0.06096,0.44244,-0.02566
0.30171,0.93273,0.19742,-0.31498,0.15577,-0.18323
0.28473,0.94026,0.18657,-0.28013,-0.06708,-0.29494
0.27402,0.94836,0.15968,-0.27449,-0.80872,-0.23718
0.27275,0.95395,0.12478,-0.0735,-1.18967,-0.19361
0.28595,0.95433,0.0864,-0.10528,-0.97386,0.25517
0.31309,0.949,0.03672,-0.2406,-0.72613,0.24233
0.3555,0.93434,-0.02475,2.01688,0.50414,0.10492
0.4309,0.89371,-0.12491,0.97639,1.14607,0.43761
0.50296,0.83619,-0.21865,-0.03369,1.33601,0.16045
0.5354,0.79196,-0.2935,-0.09169,2.17403,0.20471
0.55125,0.7591,-0.34624,-0.3182,1.33143,0.41977
0.57067,0.72325,-0.3889,-0.174,0.38351,0.14313
0.58136,0.69107,-0.42946,0.39232,0.00688,-0.18849
0.58335,0.66177,-0.47092,0.17634,0.15009,-0.31329
0.58031,0.64922,-0.49167,0.65964,-0.16336,-0.27482
0.592,0.64514,-0.48304,0.81045,-0.44871,-0.05464
0.59881,0.64939,-0.46873,0.14861,-0.77037,-0.25847
0.60108,0.65409,-0.4592,-0.30285,-0.74466,-0.07915
0.58919,0.66544,-0.4583,-0.95472,-1.23909,0.58599
0.58022,0.68526,-0.44018,-1.18715,-1.52846,0.98412
0.58324,0.71445,-0.3865,-1.08836,-1.07056,0.97866
0.58752,0.73933,-0.32894,-0.77669,-0.8259,0.40598
0.58942,0.75245,-0.29392,-0.70047,-0.93345,0.23059
0.58851,0.75957,-0.27692,-1.16752,-0.32824,-0.09469
0.59296,0.7616,-0.26143,0.25389,1.23653,0.30916
0.61146,0.76195,-0.21339,2.51306,7.12212,0.33853
0.62809,0.74988,-0.20778,-0.63961,-0.83963,0.59162
0.63961,0.72913,-0.24343,-1.26705,-1.68901,1.19506
0.64148,0.72772,-0.24275,-0.18868,-1.94398,0.51544
0.62851,0.75707,-0.17837,0.47414,-0.33026,0.23002
0.59145,0.79654,-0.12528,0.06482,0.54455,0.25009
0.54298,0.83775,-0.05772,0.91577,1.89423,0.29375
0.48625,0.87358,0.02006,0.11486,0.6712,-0.26649
0.44564,0.89137,0.0827,0.46882,0.31548,-0.31283
0.41289,0.89907,0.14549,1.79574,-0.0093,-0.48925
0.39226,0.89986,0.19068,0.86872,-0.49947,-0.76591
0.38235,0.9007,0.20621,-0.14538,0.02909,-0.65932
0.37113,0.90198,0.22062,-0.29276,0.55292,-0.30023
0.35215,0.90715,0.23032,-0.37902,0.13022,-0.53
0.3331,0.9174,0.21771,-0.32132,-0.33969,-0.33925
0.32277,0.9283,0.18458,-0.14933,-1.01669,-0.1708
0.32645,0.93401,0.14505,0.13841,-1.30106,-0.07324
0.34773,0.93122,0.10904,-0.0359,-0.96695,0.19383
0.38156,0.92258,0.05702,-0.25192,-0.53348,-0.48107
0.42531,0.905,-0.00821,1.69157,0.2489,-0.71402
0.49251,0.86227,-0.11795,2.38908,1.22278,0.15758
0.55474,0.80345,-0.21613,0.62196,1.40701,0.28055
0.57166,0.76646,-0.29281,-0.62885,1.76113,0.4499
0.5855,0.73002,-0.3525,-0.2829,1.14542,0.30022
0.59942,0.68855,-0.40814,-0.03214,0.32541,0.1044
0.61711,0.64331,-0.45311,0.29203,0.10948,-0.15592
0.6286,0.5974,-0.49797,0.2753,0.56581,-0.38396
0.63536,0.56505,-0.52633,0.84529,-0.23337,-0.11812
0.64474,0.55217,-0.52859,0.90538,-0.47185,-0.10494
0.64192,0.55941,-0.52439,-0.07895,-0.49609,-0.32376
0.63066,0.57338,-0.52297,-0.2281,-0.60973,-0.02005
0.60388,0.59565,-0.52964,-0.7796,-0.96249,0.52749
0.57548,0.6251,-0.52732,-1.01147,-1.36022,1.0873
0.56883,0.6615,-0.48872,-1.03261,-1.19998,1.04045
0.57856,0.69841,-0.42128,-0.9929,-0.81161,0.65028
0.58744,0.72311,-0.36334,-0.90478,-0.72886,0.14813
0.58935,0.73482,-0.3357,-0.93694,-0.82039,0.02986
0.58705,0.73438,-0.34066,-1.44066,-0.19863,-0.94537
0.60416,0.72985,-0.31983,0.50471,3.35882,2.47385
0.63264,0.72093,-0.28287,2.66976,6.36493,0.34845
0.64962,0.69817,-0.30089,-0.99586,-1.20177,0.939
0.64896,0.6873,-0.32628,-0.42697,-2.30703,0.67313
0.66125,0.70094,-0.26726,0.42055,-0.54902,0.23002
0.65131,0.73535,-0.18718,0.24243,-0.12888,-0.5377
0.61563,0.7748,-0.14378,0.44766,1.20474,0.60476
0.56976,0.81803,-0.07865,0.92029,1.55613,0.39082
0.51804,0.85488,-0.02821,-0.15953,-0.41094,0.1378
0.47788,0.87822,0.01857,0.74006,-0.14569,0.10787
0.44476,0.89221,0.07834,1.25484,-0.02481,0.04296
0.42516,0.8958,0.12943,0.83982,0.05106,-0.52049
0.41462,0.89539,0.16229,-0.03614,0.41521,-0.6071
0.4012,0.89761,0.18252,-0.18148,0.35176,-0.35163
0.37871,0.90619,0.18812,-0.39267,0.06456,-0.40724
0.35439,0.91801,0.17787,-0.38972,-0.4436,-0.50029
0.33797,0.92873,0.15234,-0.34859,-0.6513,-0.38966
0.33123,0.93594,0.11954,-0.15983,-1.12495,-0.08309
0.33597,0.9379,0.08629,0.01344,-1.02451,0.04976
0.35203,0.93489,0.04509,-0.08097,-0.90865,0.32587
0.37644,0.9264,-0.00708,-0.03275,-0.54882,-0.84163
0.41678,0.90584,-0.07569,2.80673,1.16348,0.01818
0.49647,0.85051,-0.17357,0.19753,1.57066,0.35047
0.55538,0.78954,-0.26109,-0.29029,1.86862,0.04986
0.57426,0.75237,-0.32273,-0.60113,1.28965,0.41514
0.5935,0.71681,-0.36596,-0.37516,0.56905,0.2061
0.60987,0.6806,-0.40598,0.27794,0.10594,-0.00219
0.62308,0.6437,-0.44431,0.2789,0.08959,-0.28148
0.63108,0.61416,-0.47385,0.28861,0.12868,-0.35638
0.63951,0.5976,-0.48363,0.97408,-0.36254,0.42089
0.65256,0.59401,-0.47042,0.65273,-0.54976,-0.30056
0.64843,0.60328,-0.4643,0.09632,-0.47451,-0.17759
0.63999,0.61803,-0.45655,-0.32582,-0.62897,0.13262
0.63626,0.63298,-0.44101,-0.79543,-0.94605,0.30874
0.63881,0.64913,-0.41296,-0.99596,-0.9961,0.68606
0.64686,0.67214,-0.36025,-1.09611,-0.86291,0.74569
0.64908,0.69681,-0.30519,-0.92303,-0.67351,0.35308
0.64745,0.71412,-0.26613,-0.7726,-0.70925,0.12887
0.6416,0.72265,-0.25715,-0.9492,-0.57087,-0.10713
0.63567,0.72159,-0.27426,-0.50626,1.68037,-0.01157
0.64614,0.72473,-0.23926,0.19577,5.36493,1.97167
0.67801,0.70412,-0.21095,1.62509,3.83593,-0.0826
0.69232,0.68016,-0.24095,-0.46062,-0.52721,0.9857
0.68431,0.67846,-0.26721,-0.4521,-1.78121,0.85121
0.66487,0.70443,-0.24842,0.54305,-0.91245,0.36315
0.64529,0.73488,-0.20864,0.31098,0.00792,0.11225
0.62326,0.76544,-0.16012,0.10582,0.60628,0.2125
0.58709,0.80309,-0.10172,0.31466,0.9156,0.06886
0.54151,0.83934,-0.04754,-0.01386,-0.01546,-0.13619
0.50841,0.86107,-0.008,0.09428,0.07193,-0.17258
0.48749,0.87243,0.03455,0.99737,-0.20263,-0.22359
0.47604,0.8761,0.07623,0.42038,-0.44968,-0.82547
0.46983,0.8781,0.09037,0.16223,-0.4129,-0.85424
0.46601,0.88031,0.08867,-0.30701,0.07427,-0.09247
0.45809,0.88538,0.07894,-0.46821,-0.10489,-0.12543
0.44813,0.89233,0.05391,-0.546,-0.221,-0.09845
0.4384,0.89863,0.0158,-0.46673,-0.82927,0.07641
0.43353,0.90072,-0.02712,-0.28474,-1.16139,0.25803
0.43721,0.89655,-0.07086,-0.21495,-1.08895,0.38707
0.4518,0.88551,-0.10828,0.26519,-0.49881,-0.6028
0.48273,0.8615,-0.15739,2.53815,0.61976,0.19165
0.55743,0.7973,-0.23146,0.03708,0.64577,-0.22377
0.62082,0.72074,-0.3084,0.00171,1.61079,-0.62185
0.64829,0.66989,-0.36187,-0.43931,1.96724,0.53792
0.68315,0.62966,-0.3699,-0.69003,0.52937,0.2674
0.69795,0.59946,-0.39179,0.37497,-0.0164,0.05909
0.70152,0.57167,-0.42549,0.69756,-0.06076,-0.25734
0.6986,0.54677,-0.46151,0.53745,0.38714,-0.38479
0.70246,0.53591,-0.46833,0.6576,-0.20616,0.2671
0.70683,0.54762,-0.44776,0.31755,-0.48849,-0.10595
0.70468,0.57322,-0.41812,-0.1853,-0.46483,-0.13772
0.69513,0.60739,-0.38452,-0.33833,-0.63518,-0.06623
0.68356,0.63558,-0.35885,-0.72314,-0.85605,0.14255
0.67563,0.65794,-0.3326,-0.83499,-0.7875,0.23519
0.67026,0.67658,-0.30493,-0.79881,-0.37639,0.0663
0.66206,0.6922,-0.28727,-0.60249,-0.3569,0.15395
0.65637,0.70143,-0.27777,-0.4803,-0.24477,0.25966
0.6535,0.70769,-0.2685,-0.46264,-0.06545,0.21004
0.65047,0.71228,-0.26369,-0.70372,0.28615,-1.07152
0.65949,0.72298,-0.20581,0.30807,2.67497,2.75327
0.65579,0.73291,-0.18104,0.178,1.24819,-0.28661
0.65999,0.72006,-0.21425,0.05546,0.0894,-0.24039
0.66676,0.70733,-0.23475,0.41059,0.38334,0.06772
0.66532,0.70606,-0.2425,0.29043,-0.51399,0.69367
0.65442,0.71966,-0.23198,-0.14871,-0.25149,0.29573
0.64854,0.73065,-0.21335,-0.20843,-0.17902,0.38741
0.64267,0.74747,-0.16808,-0.15266,0.09129,0.4202
0.62723,0.77005,-0.1166,-0.35051,0.47235,-0.10927
0.60011,0.79561,-0.08284,-0.22434,0.38823,-0.1413
0.56808,0.82128,-0.05261,0.61807,0.01383,-0.05832
0.54523,0.83794,-0.02359,0.6479,-0.17385,-0.05523
0.53426,0.8453,-0.00293,0.302,-0.23864,-0.16543
0.52826,0.84904,0.00698,-0.00467,-0.08916,-0.24175
0.52026,0.85395,0.00805,-0.23943,-0.14401,-0.10314
0.50882,0.86086,9e-05,-0.32103,-0.22976,-0.0643
0.49509,0.86869,-0.01581,-0.39336,-0.6297,-0.16122
0.48362,0.87441,-0.0387,-0.38323,-0.84021,-0.13113
0.47786,0.87606,-0.0644,-0.3413,-0.89857,-0.07944
0.47923,0.87265,-0.09381,-0.22691,-0.90717,0.35718
0.48525,0.8643,-0.13226,-0.02546,-0.68497,-0.35619
0.49287,0.85137,-0.17955,0.33463,-0.63731,-0.95343
0.53383,0.81316,-0.23191,1.33365,1.70796,0.57294
0.59669,0.75151,-0.28137,-0.12353,1.642,-0.26591
0.6275,0.705,-0.33047,-0.40441,2.20859,0.03985
0.65232,0.67056,-0.35328,-0.64695,0.96254,0.27631
0.66434,0.64825,-0.37204,-0.15645,0.02996,0.50098
0.67471,0.63262,-0.38021,0.15525,-0.13895,0.44678
0.69088,0.61247,-0.38413,0.25897,-0.06056,-0.33554
0.70315,0.59469,-0.38975,0.35823,0.2309,-0.29081
0.71351,0.58625,-0.38367,0.63661,-0.08947,0.08364
0.7137,0.59209,-0.37422,0.19044,-0.27415,0.06704
0.70003,0.61405,-0.36454,-0.16797,-0.31231,0.14894
0.68428,0.64233,-0.34519,-0.30441,-0.41479,0.17345
0.67064,0.67004,-0.31824,-0.807,-0.66503,-0.02001
0.6563,0.6958,-0.29175,-0.85894,-0.5101,-0.02953
0.64131,0.71816,-0.27011,-0.75474,-0.36699,-0.03205
0.6291,0.73347,-0.25737,-0.37362,-0.1443,-0.02216
0.62286,0.73894,-0.25691,-0.20375,-0.04909,0.12976
0.62031,0.73919,-0.26229,-0.1916,0.07842,0.12167
0.62626,0.7381,-0.25098,0.05047,0.192,0.41996
0.63641,0.73932,-0.21996,0.28371,0.83733,-0.28973
0.64426,0.74198,-0.18541,0.79312,1.41444,0.60187
0.64359,0.74051,-0.19346,0.05915,0.41289,0.1074
0.63507,0.73961,-0.22281,-0.11073,-0.2038,0.42873
0.61851,0.74813,-0.24028,-0.10726,-0.2842,0.44908
0.61165,0.75614,-0.23266,-0.0071,-0.22853,0.13262
0.60993,0.76019,-0.22378,0.13897,0.30667,-0.06196
0.6072,0.76658,-0.20891,0.20695,0.44158,0.3508
0.60039,0.77697,-0.18932,-0.22269,0.03692,0.2607
0.58465,0.79209,-0.17541,-0.18566,-0.06592,0.314
0.56694,0.80888,-0.15581,-0.01401,0.03809,0.31507
0.55321,0.8229,-0.12953,0.11251,0.13406,0.16869
0.54343,0.83229,-0.10933,0.02145,-0.00243,-0.02009
0.53578,0.83885,-0.0962,0.02429,-0.07716,-0.06632
0.52922,0.84378,-0.08914,0.02029,-0.1514,-0.08192
0.52427,0.8473,-0.08496,-0.0915,-0.39673,-0.04252
0.51941,0.85037,-0.08406,-0.15039,-0.46153,-0.03606
