gravity.x,gravity.y,gravity.z,userAcceleration.x,userAcceleration.y,userAcceleration.z
0.24596,0.95047,-0.19005,-0.54147,-0.91166,1.4407
0.25385,0.94309,-0.21483,-1.86435,3.71188,1.18271
0.20345,0.95539,-0.21411,-1.20663,0.37671,0.4317
0.17137,0.96483,-0.19932,-0.68112,-0.30881,0.68199
0.14293,0.97183,-0.18741,-0.41338,-0.81428,0.9287
0.09547,0.98049,-0.17182,-0.19337,1.31554,1.83293
0.0501,0.98996,-0.13217,0.14086,1.41907,1.62566
0.01717,0.99697,-0.07582,0.42155,1.52082,1.0147
0.0114,0.99993,0.0024,0.39665,1.61478,0.15819
0.02936,0.9914,0.12749,0.01734,1.63245,-0.83511
0.00874,0.97514,0.22141,-0.90948,0.71135,-2.60415
0.00021,0.96557,0.26013,0.05098,0.54863,-0.84047
-0.01381,0.95714,0.28928,0.22982,0.17744,-0.55445
-0.04076,0.95151,0.30491,0.79762,-0.76724,-1.26209
-0.07107,0.95453,0.28951,0.79258,-0.62477,-1.09628
-0.08327,0.96638,0.24325,0.65447,-0.58693,-0.83877
-0.0758,0.97985,0.18481,0.378,-0.94765,-0.27273
-0.06228,0.99061,0.12167,0.20814,-1.08088,-0.25155
-0.0488,0.99682,0.06291,0.02341,-0.93878,-0.26816
-0.0385,0.99923,0.00725,-0.32044,-0.736,-0.22014
-0.0395,0.99751,-0.05844,-0.28131,-0.51556,0.3217
-0.04609,0.99039,-0.13042,-0.11494,-0.17111,0.73682
-0.04649,0.97743,-0.20608,0.06695,1.79009,0.47717
-0.04522,0.96083,-0.27343,-0.31248,3.44559,0.4451
-0.02375,0.94647,-0.32193,-0.34179,2.40133,0.72027
0.04148,0.93118,-0.3622,-0.79816,1.96828,-0.08426
0.11604,0.92108,-0.37169,-0.19081,0.86431,-0.05198
0.14426,0.91544,-0.3757,0.31251,0.64684,0.40782
0.14581,0.90656,-0.3961,0.66999,-0.05364,0.66485
0.12472,0.90064,-0.41628,-0.01601,-0.48212,0.85083
0.10079,0.89904,-0.4261,-0.2831,-0.65824,0.88447
0.0895,0.90439,-0.41722,-0.73711,-1.24945,0.85694
0.0969,0.9167,-0.38766,-0.56312,-1.31204,0.80013
0.10826,0.93237,-0.34492,-0.57448,-1.32771,0.7574
0.11129,0.94717,-0.3008,-0.20683,-1.45701,0.6765
0.12262,0.95684,-0.26348,0.00392,-1.56302,-0.08161
0.15409,0.9552,-0.2527,0.24363,-0.57911,-1.45961
0.19867,0.94184,-0.27104,0.41693,0.50825,-1.39075
0.24719,0.93566,-0.25186,0.45034,0.33204,-1.16232
0.29348,0.93228,-0.21146,-0.3897,-0.9213,1.39272
0.31256,0.92877,-0.19923,-1.19359,0.24091,1.56709
0.27716,0.93466,-0.22268,-1.36749,1.54713,1.08741
0.2142,0.95262,-0.21594,-1.49308,1.23059,1.06598
0.16244,0.96656,-0.19844,-0.56318,-0.40406,0.68754
0.11343,0.97342,-0.19896,-0.27949,0.27643,1.35032
0.0588,0.98147,-0.18234,-0.20423,1.13762,1.42375
0.02069,0.99011,-0.13876,0.28954,1.97051,0.71864
0.01567,0.99833,-0.05551,0.57879,2.24343,-0.10988
0.03399,0.99305,0.11272,0.14882,1.7164,0.06191
0.01398,0.97844,0.20605,-0.32724,1.04424,-3.05012
-0.00125,0.96937,0.24559,0.05926,0.22431,-0.82712
-0.00881,0.96258,0.27087,0.1729,-0.19031,-0.57194
-0.03015,0.96114,0.27439,0.42444,-0.64758,-1.00823
-0.05269,0.96797,0.24548,0.6391,-0.61161,-1.35561
-0.05046,0.97895,0.19777,0.38692,-0.55111,-0.84033
-0.02956,0.99053,0.13406,0.09981,-0.86598,0.03975
-0.01408,0.99789,0.06341,0.00428,-1.06773,0.14707
-0.0066,0.99998,-0.00071,-0.04855,-1.12766,0.1802
-0.00407,0.99799,-0.06319,-0.41574,-0.8428,-0.00837
-0.00156,0.99128,-0.13174,-0.51044,-0.57736,0.06413
0.00029,0.97962,-0.20085,-0.44729,-0.30555,0.24605
0.00082,0.96647,-0.25678,-0.47099,1.86451,0.65423
0.01587,0.95087,-0.30918,-0.36119,3.40043,0.09841
0.07772,0.93019,-0.35875,-0.07032,1.64923,0.07585
0.1502,0.91372,-0.37757,0.03991,2.43737,0.14642
0.20503,0.89885,-0.38733,0.70974,1.15649,0.08554
0.2276,0.88267,-0.4112,0.65132,0.85578,0.10802
0.20543,0.86487,-0.45804,0.5641,0.06873,0.82169
0.14519,0.84836,-0.50912,-0.04231,-0.68682,1.29394
0.11317,0.84565,-0.52161,-0.54054,-1.15018,1.17886
0.10492,0.85783,-0.50311,-1.03555,-1.39993,0.86613
0.10045,0.88065,-0.46299,-0.65495,-1.4451,0.7325
0.09441,0.9067,-0.41109,-0.28867,-1.53089,0.70376
0.0874,0.93175,-0.35242,0.07227,-1.63816,0.31965
0.09988,0.94845,-0.30076,0.51512,-0.8624,-0.72309
0.13323,0.94946,-0.28421,0.6871,0.13535,-1.64066
0.17406,0.94721,-0.26926,0.59863,0.31535,-0.90915
0.22716,0.94017,-0.25392,0.14526,-0.04097,-0.54917
0.26711,0.93071,-0.24986,-0.75383,-0.66193,1.61832
0.23769,0.93714,-0.25549,-3.01463,2.16313,-0.92213
0.19285,0.94427,-0.26675,-1.288,0.28436,1.7186
0.18914,0.95455,-0.23034,-1.08402,0.08147,1.32692
0.16901,0.96944,-0.17785,-0.6924,-0.52559,0.86872
0.1262,0.98396,-0.12608,-0.35081,1.71367,1.82012
0.05577,0.99589,-0.07141,-0.28038,1.70175,1.76546
-0.0284,0.99959,-0.00387,0.7366,0.39606,0.48633
-0.0504,0.99627,0.07005,0.65073,2.69059,-0.50311
-0.05602,0.98841,0.14111,0.70324,2.02504,-1.13029
-0.08608,0.97556,0.20217,0.10824,0.71147,-2.62659
-0.09456,0.96644,0.23887,0.21712,-0.10813,-1.02096
-0.07948,0.96092,0.26516,0.24997,-0.21292,-0.66874
-0.07554,0.95469,0.28785,0.05591,-0.64541,-1.03669
-0.07939,0.95742,0.27758,0.41748,-0.48227,-0.71745
-0.07919,0.96748,0.24021,0.36433,-0.51547,-0.42245
-0.07604,0.97735,0.19752,0.32555,-0.8322,-0.16773
-0.07326,0.9851,0.15557,0.3403,-1.18094,-0.40446
-0.07585,0.9911,0.10937,0.31434,-1.11574,-0.51207
-0.06984,0.99606,0.05457,-0.00705,-0.64333,-0.56136
-0.06359,0.99797,-0.00264,0.00049,-0.27121,-0.07414
-0.06517,0.9952,-0.07302,0.17591,-0.03811,0.26707
-0.0665,0.98588,-0.15368,0.22807,2.5707,0.33471
-0.0431,0.97291,-0.22713,-0.16068,4.00132,0.65523
-0.01044,0.96035,-0.27861,-0.45741,2.72372,1.11222
0.0341,0.94992,-0.31063,-0.67694,1.16969,0.45664
0.11928,0.94507,-0.30431,-0.39646,0.7297,-0.19239
0.18528,0.94022,-0.28575,-0.2319,0.567,-0.119
0.18865,0.93223,-0.3088,0.42202,-0.05873,0.59926
0.1654,0.92494,-0.34224,0.1368,-0.509,0.69896
0.1409,0.92174,-0.36131,-0.07763,-0.76964,0.80133
0.1223,0.92427,-0.3616,-0.72856,-1.44159,1.06096
0.11297,0.93076,-0.34775,-0.64242,-1.28073,1.27997
0.10431,0.94034,-0.32384,-0.55409,-1.45316,1.18765
0.10803,0.95294,-0.28325,-0.38516,-1.39954,0.31077
0.12527,0.96279,-0.23945,0.01255,-1.22499,-2.87835
0.16654,0.95371,-0.25041,0.53824,-0.04228,-2.21428
0.22959,0.94628,-0.22767,0.6724,0.37115,-0.87938
0.27935,0.9409,-0.19148,-0.218,-0.87727,1.09742
0.28499,0.93498,-0.21117,-0.50587,-0.99592,1.37684
0.25875,0.92938,-0.26326,-1.54664,3.49317,1.72545
0.18529,0.94091,-0.28347,-1.13625,0.81391,1.02731
0.14267,0.94817,-0.28392,-0.88243,0.18503,0.8661
0.10698,0.95627,-0.27223,-0.25531,-0.62442,1.07833
0.06265,0.97029,-0.23367,-0.27046,0.61345,1.87459
0.03174,0.98453,-0.17231,-0.12901,0.9792,1.74222
0.00812,0.99306,-0.11736,0.01342,1.75209,1.0842
-0.0037,0.99795,-0.06395,-0.02714,1.86471,0.15789
0.00838,0.99749,0.07026,-0.81532,1.37101,-1.43017
0.00286,0.98824,0.15288,-0.78369,0.54533,-2.44119
0.00035,0.98479,0.17374,0.22447,0.22813,-0.47087
-0.01209,0.97525,0.22078,0.28476,-0.14191,-0.2914
-0.04199,0.96384,0.26316,0.41254,-0.79367,-0.2713
-0.07159,0.96077,0.26793,1.01237,-0.98034,-1.83359
-0.09378,0.96586,0.24149,0.91731,-0.77519,-1.36506
-0.09069,0.97457,0.20491,0.43109,-0.66032,-0.46257
-0.06658,0.98609,0.15231,0.06298,-1.07001,-0.30694
-0.04194,0.99547,0.08528,-0.0914,-1.02901,-0.22951
-0.02466,0.99955,0.01732,-0.22372,-0.91945,-0.09093
-0.02073,0.9985,-0.05071,-0.25022,0.07891,0.63941
-0.03069,0.99218,-0.12102,-0.20619,0.51466,0.73225
-0.03917,0.98301,-0.17932,-0.82785,3.53802,0.37133
-0.03602,0.97255,-0.22987,-0.60993,2.39472,0.54018
-0.01528,0.9569,-0.29,-0.62196,1.61246,0.52001
0.02709,0.94159,-0.33567,-0.89396,1.69703,0.27532
0.08106,0.93163,-0.35426,-0.38817,0.56988,0.48728
0.09618,0.93018,-0.35427,0.01319,0.42754,0.62746
0.0926,0.92594,-0.36615,0.89924,0.29603,0.49726
0.09605,0.923,-0.37263,0.7271,-0.18394,0.34245
0.07956,0.92495,-0.37166,-0.11812,-0.75407,0.66181
0.06812,0.92905,-0.36363,-0.56034,-1.20407,1.05079
0.07787,0.93661,-0.3416,-0.51207,-1.23294,1.04364
0.09386,0.94959,-0.29911,-0.46627,-1.32935,0.9576
0.11136,0.96219,-0.24857,-0.25343,-1.25783,0.39474
0.12609,0.97241,-0.19628,-0.0727,-1.36105,-0.45165
0.15405,0.96813,-0.19745,0.94191,-1.03425,-3.36668
0.1936,0.95262,-0.2346,0.39893,-0.16584,-0.35161
0.24671,0.9492,-0.19534,0.29117,-0.4102,-0.21895
0.27976,0.94773,-0.15345,-0.17763,-0.93393,0.56309
0.28229,0.94116,-0.18581,-0.89761,-0.26861,1.20086
0.26088,0.93795,-0.22844,-1.37976,3.45052,1.51833
0.16437,0.96363,-0.21071,-1.56198,2.49587,1.32656
0.10677,0.97233,-0.20779,-0.4552,-0.49569,0.57761
0.05654,0.97773,-0.20211,-0.09481,-0.45725,0.98254
0.01898,0.98525,-0.17008,-0.02506,0.38151,1.35839
0.00274,0.99372,-0.11182,0.36428,1.70273,0.88616
0.00558,0.99955,-0.02937,0.34325,1.71621,0.36464
0.02284,0.99486,0.09867,0.36116,1.69203,-0.1354
0.01578,0.97691,0.21304,-0.9334,0.98491,-2.95483
-0.00345,0.96955,0.24485,-0.09673,0.55837,-1.56895
-0.00963,0.9632,0.26862,0.34968,-0.04576,-0.54795
-0.02534,0.95887,0.28272,0.61222,-0.6023,-0.83336
-0.04486,0.96252,0.26748,0.72447,-0.78881,-1.09031
-0.04836,0.97274,0.2268,0.67252,-0.74779,-1.16932
-0.02787,0.98479,0.17151,0.08662,-0.79361,-0.0302
-0.01095,0.99422,0.10676,-0.00421,-1.02354,-0.00951
-0.00265,0.99908,0.04279,-0.07992,-1.11784,-0.07272
-0.0005,0.9999,-0.01381,-0.42418,-0.73574,-0.27032
-0.00497,0.99737,-0.07236,-0.19761,-0.18923,0.17558
-0.01897,0.99037,-0.13711,-0.06289,0.16208,0.36131
-0.0297,0.9773,-0.20975,0.02849,1.75349,0.37902
-0.01857,0.95795,-0.28633,-0.37567,3.16746,0.41734
0.00739,0.93748,-0.34796,-0.46153,1.23496,0.75317
0.06677,0.92105,-0.38369,-0.78027,2.1751,0.4699
0.15626,0.90879,-0.38689,-0.57526,1.33961,-0.19543
0.20243,0.89475,-0.39805,0.36006,0.97109,0.41348
0.20258,0.87714,-0.43541,0.8613,0.4047,0.71622
0.17272,0.86625,-0.46881,0.07125,-0.60534,0.69789
0.13858,0.86573,-0.48095,-0.30002,-0.76886,0.81193
0.11512,0.87323,-0.47351,-0.69803,-1.08323,0.87882
0.09997,0.88625,-0.4523,-0.50558,-1.33685,1.0711
0.09905,0.90418,-0.41551,-0.40147,-1.4289,1.08557
0.09764,0.92492,-0.36741,-0.19929,-1.56712,0.96239
0.09865,0.9437,-0.31574,-0.02832,-1.57673,0.13623
0.12043,0.95277,-0.2788,0.15028,-1.17982,-0.77192
0.16058,0.94444,-0.2868,0.4533,0.50313,-1.84733
0.21084,0.93978,-0.269,0.034,-0.17919,-1.13005
0.25363,0.94006,-0.22794,-0.50152,-0.89755,0.71563
0.26917,0.94225,-0.19929,-1.8887,3.69377,1.27975
0.22878,0.94978,-0.21349,-0.98011,1.11027,1.13015
0.18996,0.95589,-0.22404,-0.84448,0.85055,1.03096
0.14274,0.96304,-0.22842,-0.16665,-0.48959,0.8699
0.0852,0.97017,-0.22696,0.13081,0.38272,1.71205
0.04193,0.98149,-0.18685,0.31348,1.39314,1.83714
0.00768,0.99228,-0.12376,0.43797,1.72819,0.98776
-0.00681,0.99898,-0.0447,0.19976,1.18152,-0.56904
0.01127,0.99641,0.0839,-0.39722,1.60428,-1.69625
0.01251,0.9917,0.12796,-0.49636,0.6441,-1.82346
0.01418,0.98891,0.14784,0.03939,0.05301,-0.57982
0.01231,0.98738,0.15786,0.16071,-0.2238,-0.31347
0.00038,0.98683,0.16177,0.28923,-0.97554,-1.10707
-0.00535,0.99004,0.14071,0.38578,-0.64186,-0.63148
-0.00523,0.99554,0.09418,0.29835,-0.56424,-0.18381
-0.00654,0.99891,0.0462,0.09433,-1.00524,-0.07025
-0.00874,0.99996,0.00154,0.0633,-1.12594,-0.11892
-0.01247,0.99907,-0.0413,0.02524,-1.3176,-0.14577
-0.00918,0.9959,-0.08993,-0.37441,-0.58943,-0.40005
-0.00216,0.9889,-0.14858,-0.49931,-0.60758,-0.16035
0.0017,0.97696,-0.2134,-0.14515,0.01588,0.39213
0.0016,0.96144,-0.27502,0.12248,1.19535,0.61625
0.00806,0.93717,-0.34878,-0.03458,4.99754,0.58154
0.03706,0.91558,-0.40043,-0.27919,1.80908,0.80204
0.10628,0.90197,-0.41851,-0.4799,1.2705,0.32458
0.18635,0.88978,-0.41661,-0.2257,0.71137,0.13912
0.22794,0.8827,-0.41095,0.03674,0.58759,0.42526
0.22582,0.87641,-0.42532,0.50436,-0.01725,0.87669
0.19592,0.86898,-0.45442,0.31721,-0.40261,0.84193
0.16283,0.87061,-0.46424,-0.38124,-1.00652,0.68386
0.13649,0.88341,-0.44829,-0.92655,-1.23137,0.79977
0.12264,0.90236,-0.41316,-0.65415,-1.29605,0.91894
0.12043,0.92446,-0.36175,-0.55894,-1.4314,0.74093
0.12772,0.94591,-0.29823,-0.25662,-1.5014,0.09964
0.14116,0.95917,-0.24508,0.21163,-0.79125,-1.15379
0.15978,0.95813,-0.2376,0.34782,-0.32892,-1.16619
0.19267,0.95787,-0.21297,0.49028,-0.07413,-0.6739
0.22724,0.95873,-0.17086,0.04085,-0.13166,-0.33204
0.24565,0.95597,-0.16056,-0.27075,-0.38308,0.0019
0.23846,0.95097,-0.19695,-1.25377,2.5322,0.12319
0.19968,0.94965,-0.24143,-0.47478,0.18745,1.81227
0.19882,0.94397,-0.26343,-0.3453,-0.58716,1.23699
0.16625,0.94092,-0.29502,-0.19605,-1.22276,1.59309
0.11422,0.94948,-0.29229,-0.01663,0.39402,2.52517
0.06653,0.96786,-0.24252,0.01633,2.33391,2.73989
0.00913,0.97969,-0.20033,0.44955,0.44855,0.86801
-0.0213,0.98747,-0.15635,-0.08553,1.86519,0.48831
-0.00976,0.99887,-0.04641,-0.42921,1.65845,-0.97248
0.0074,0.99892,0.04586,-1.10882,0.54201,-1.74894
0.01829,0.9969,0.07652,-0.55632,0.39379,-0.87358
0.01627,0.99387,0.10936,-0.30728,0.09926,-0.89247
0.00525,0.99245,0.12255,0.29562,-0.43158,-0.56702
-0.0114,0.9926,0.1209,0.53171,-0.61908,-0.81193
-0.0235,0.99388,0.10792,0.65439,-0.67842,-1.07497
-0.02167,0.99713,0.07259,0.3486,-0.7183,-0.46677
-0.01597,0.9998,0.01169,0.10949,-0.91789,0.09721
-0.02087,0.99859,-0.04872,0.0989,-1.00976,0.29052
-0.0351,0.99391,-0.10444,-0.32145,-0.85562,-0.06361
-0.04843,0.9855,-0.16258,-0.40575,-0.78018,0.11093
-0.05371,0.97452,-0.21778,-0.32843,-0.66507,0.27721
-0.05115,0.96149,-0.27003,0.00629,0.43791,0.58012
-0.03227,0.94811,-0.31631,-0.35352,3.71611,0.69122
0.01686,0.93881,-0.34403,-0.33564,3.26606,0.53316
0.09889,0.92648,-0.36311,-0.64117,1.62669,0.30948
0.18653,0.91508,-0.35753,-0.60206,1.33727,0.08315
0.23426,0.9068,-0.35048,-0.14634,0.68985,0.02188
0.23155,0.90221,-0.36386,0.51858,0.42483,0.5401
0.20809,0.8995,-0.38418,0.32199,-0.2736,0.49547
0.16405,0.9008,-0.40205,0.18102,-0.51313,0.54164
0.12458,0.90774,-0.40061,-0.40044,-0.96945,0.73884
0.10875,0.92031,-0.37577,-0.82096,-1.11597,0.80629
0.10645,0.93497,-0.33838,-0.61449,-1.2303,0.94636
0.1067,0.95278,-0.28427,-0.26683,-1.2801,0.66351
0.11568,0.97011,-0.21329,-0.21766,-1.26536,0.20268
0.13556,0.97565,-0.17244,0.57102,-0.45421,-2.24607
0.17554,0.97271,-0.15168,0.72692,0.47124,-1.13287
0.22373,0.96789,-0.11457,0.60496,0.07884,-0.78778
0.26574,0.95898,-0.09869,-0.11108,-0.77132,-0.2337
0.28502,0.94713,-0.14733,-0.75881,-1.0711,0.98003
0.2794,0.93615,-0.21343,-1.76766,4.39452,1.61063
0.19695,0.95555,-0.21941,-1.79305,4.27517,1.57238
0.12826,0.972,-0.19689,-0.3041,-0.58659,0.47466
0.09537,0.97864,-0.18211,-0.00246,-0.9177,0.56797
0.05935,0.98298,-0.17384,0.09159,-0.3636,1.14635
0.02369,0.98585,-0.16596,0.12118,1.65211,1.21508
0.00849,0.99213,-0.12487,0.15867,0.45067,0.53177
0.03192,0.99784,-0.05737,0.02155,1.11172,0.36547
0.06061,0.99684,0.05133,-0.93088,0.82857,-1.25182
0.06943,0.98674,0.14669,-0.96951,0.10098,-1.85584
0.05425,0.98416,0.16878,-0.36746,0.1324,-1.47382
0.04332,0.98299,0.17845,0.49718,-0.07268,-0.61487
0.03175,0.98464,0.17166,0.72433,-0.47175,-0.74718
0.01719,0.98867,0.14908,0.75031,-0.60714,-0.87802
0.01238,0.99379,0.11059,0.29097,-0.84007,-0.23997
0.01651,0.99813,0.05888,0.26826,-1.07192,-0.06819
0.01087,0.99992,0.00674,0.19904,-1.25104,-0.09364
0.00654,0.99863,-0.05186,-0.18475,-0.72265,-0.06681
0.00435,0.99346,-0.11408,-0.28395,-0.60325,0.18119
-0.00732,0.98422,-0.17679,-0.28357,-0.49154,0.36556
-0.02567,0.97139,-0.23609,-0.28384,1.70329,0.86446
-0.04677,0.95554,-0.29112,-1.1123,3.15159,0.62965
-0.0423,0.94303,-0.33002,-0.97442,1.53952,0.21453
0.01787,0.93381,-0.35732,-0.75556,1.30879,0.21171
0.09507,0.92609,-0.36512,-0.78933,0.96603,0.29585
0.14814,0.91696,-0.37046,-0.61999,0.49961,0.23066
0.15043,0.912,-0.38161,0.07815,0.10582,0.46368
0.11215,0.90953,-0.40021,0.8079,0.07892,0.67475
0.08511,0.90577,-0.41514,0.79498,-0.09602,0.65662
0.05119,0.90637,-0.41937,0.3772,-0.806,0.68989
0.0281,0.9099,-0.41386,-0.13313,-0.92205,0.86348
0.02875,0.92239,-0.38519,-0.45058,-1.04833,0.62976
0.03017,0.94004,-0.33972,-0.40134,-0.87801,0.56998
0.028,0.95647,-0.29047,-0.35285,-0.75754,-0.3683
0.03859,0.96343,-0.26517,-0.11012,-0.17615,-1.69905
0.065,0.94853,-0.30995,0.37954,0.53247,-2.3093
0.08626,0.9431,-0.32111,0.38582,-0.6406,0.39983
0.13581,0.94417,-0.30017,-0.19141,-1.17666,1.96057
0.18369,0.93617,-0.29974,-0.89334,-0.90971,1.5919
0.18695,0.92354,-0.33485,-0.98998,0.66615,0.65376
0.12734,0.92303,-0.36305,-0.68969,0.51835,1.03651
0.08223,0.92317,-0.37549,-0.21257,0.39614,1.03418
0.04169,0.92351,-0.38129,0.09767,0.32671,0.9465
-0.00951,0.92427,-0.38162,0.6136,1.35616,1.18092
-0.04603,0.93595,-0.34911,1.09435,1.09188,1.03734
-0.06771,0.95583,-0.286,0.54636,0.76304,0.39256
-0.05948,0.97976,-0.19113,0.30934,0.91494,0.33346
-0.02956,0.99533,-0.09186,-0.87138,1.15613,-0.69574
-0.01621,0.99859,-0.05056,-1.3547,0.34326,-1.19152
-0.01933,0.99955,-0.02299,-1.22544,0.1484,-0.77664
-0.03479,0.99937,-0.00722,-0.82655,-0.3048,-0.65762
-0.05782,0.99823,-0.01342,-0.1475,-0.58771,-0.85611
-0.08393,0.99597,-0.03164,0.17268,-0.41125,-0.91433
-0.10734,0.99135,-0.07548,0.53005,-0.31154,-0.41261
-0.1201,0.98486,-0.125,0.54494,-0.59758,0.06321
-0.13175,0.97638,-0.17124,0.6486,-0.8172,0.29873
-0.13901,0.96353,-0.22867,1.10016,-0.87466,-0.16251
-0.14682,0.94814,-0.28192,1.01462,-0.77327,-0.33411
-0.17587,0.92805,-0.32832,0.28176,-0.33923,0.21233
-0.22084,0.90146,-0.37228,0.57067,1.35315,0.77512
-0.28163,0.86334,-0.41871,0.50151,2.28189,0.859
-0.30235,0.82647,-0.4749,0.56651,2.7766,0.90417
-0.25195,0.80567,-0.53611,0.75725,1.9876,0.79069
-0.17731,0.7999,-0.57334,0.53844,1.5787,0.55784
-0.13594,0.80403,-0.57884,0.37117,1.3864,0.46768
-0.12678,0.79337,-0.59539,-0.28809,0.79478,0.16756
-0.15015,0.78125,-0.60589,-0.10726,0.28606,0.89912
-0.18898,0.77821,-0.59889,0.04138,-0.02316,0.79811
-0.24358,0.77994,-0.57651,0.22557,-0.47078,0.88055
-0.29234,0.78889,-0.54055,0.18916,-0.66665,0.85264
-0.32714,0.80214,-0.49955,0.16877,-0.80563,0.89033
-0.34123,0.82098,-0.45777,0.51828,-0.94822,1.01962
-0.3508,0.84402,-0.40567,0.52724,-0.9682,1.0519
-0.35768,0.86423,-0.3538,0.45872,-0.9841,0.83482
-0.3671,0.87911,-0.30397,0.46416,-0.58746,-0.97556
-0.38112,0.87798,-0.28965,0.55608,0.32521,-2.66849
-0.41673,0.85106,-0.31942,0.41348,0.26692,-2.9044
-0.46508,0.84263,-0.27143,0.80177,-1.00358,2.63108
-0.47572,0.83944,-0.26273,0.74503,-0.04726,1.56919
-0.49125,0.83277,-0.25527,0.64164,0.43368,1.53051
-0.49463,0.83565,-0.2388,0.70364,1.38653,2.19356
-0.50732,0.82835,-0.23763,-0.21668,4.20696,1.54117
-0.52582,0.82526,-0.20604,0.18483,0.72126,0.05428
-0.52899,0.84302,-0.09741,0.76094,0.08145,-0.61613
-0.50833,0.85936,0.05557,0.64496,0.54724,0.40303
-0.46024,0.87525,0.1487,0.3256,1.23587,0.68157
-0.4229,0.88576,0.19123,0.18748,1.37182,0.73633
-0.40598,0.8877,0.21717,-0.03805,1.14944,0.02154
-0.38223,0.88277,0.27314,-0.39283,0.61179,-2.06713
-0.34338,0.86822,0.35817,-0.3115,-0.23067,-1.13101
-0.31378,0.85121,0.42069,-0.11809,-0.34391,-0.80816
-0.34015,0.84058,0.42157,0.19707,-0.25897,-0.8531
-0.39095,0.84004,0.37614,0.61623,-0.35838,-1.25961
-0.43013,0.84455,0.31893,0.73819,-0.19693,-0.85503
-0.46489,0.84891,0.25144,0.68059,-0.25954,-0.38935
-0.49156,0.84935,0.19226,0.60463,-0.77867,-0.04404
-0.50093,0.84663,0.17969,0.67636,-0.88216,0.1768
-0.49753,0.84115,0.21194,0.77002,-0.84304,0.28104
-0.49935,0.8416,0.20582,0.46418,0.20001,-0.43596
-0.51364,0.84495,0.14913,0.43812,1.10771,-0.03053
-0.52994,0.84197,0.10122,0.43443,1.83956,0.29102
-0.54608,0.83657,0.04414,1.04055,2.08041,-0.15038
-0.54321,0.83898,-0.03221,1.3166,2.13868,-0.22397
-0.52303,0.8489,-0.07621,1.37303,2.06228,-0.22619
-0.50341,0.85798,-0.10219,0.32882,1.29272,0.2284
-0.48571,0.86508,-0.12539,0.2583,0.6935,0.62056
-0.46836,0.87346,-0.13303,0.20556,0.25738,0.54493
-0.45172,0.88375,-0.12219,0.17247,-0.36524,0.26993
-0.44091,0.89187,-0.10078,0.21307,-0.66246,0.23369
-0.43308,0.89838,-0.0731,0.18562,-0.80288,0.2345
-0.42675,0.90306,-0.04855,0.29128,-1.21031,0.24804
-0.42061,0.90683,-0.02722,0.58651,-1.44025,0.37298
-0.41041,0.9119,-0.00069,0.50584,-1.50835,0.46945
-0.39437,0.91871,0.02098,0.29794,-1.51711,-0.52504
-0.37193,0.92795,0.02405,0.45756,-1.34491,-1.37625
-0.34245,0.93951,0.00573,0.63066,-0.6591,-2.11787
-0.32795,0.94469,9e-05,0.27316,-1.01549,1.57483
-0.32042,0.94725,0.00697,0.00593,0.62439,1.8016
-0.3138,0.94944,0.00959,-0.41087,2.23623,1.97032
-0.34867,0.93655,0.03603,-0.83616,2.40337,1.66841
-0.38805,0.91917,0.06745,0.16982,0.14816,0.09833
-0.40404,0.909,0.10225,0.30762,0.78319,0.0526
-0.40746,0.90106,0.14851,0.602,1.0941,-0.15145
-0.38795,0.88985,0.24013,0.51221,0.98239,0.13789
-0.33553,0.86449,0.37427,0.39572,1.29779,0.25819
-0.28772,0.82231,0.49094,0.27003,1.71575,0.34581
-0.27683,0.78904,0.54843,-0.58044,1.25193,-2.68065
-0.2751,0.7773,0.56579,-0.33243,0.54645,-1.49589
-0.28823,0.76305,0.57852,-0.01242,0.07878,-1.0341
-0.32303,0.74628,0.582,0.56093,-0.41785,-1.14305
-0.35569,0.73537,0.57682,0.76138,-0.44362,-1.38231
-0.36358,0.74771,0.55564,1.04397,-0.15582,-1.58392
-0.37127,0.77446,0.51222,0.68528,-0.36413,-0.81506
-0.39274,0.8026,0.44899,0.55005,-0.51584,-0.61201
-0.39924,0.83185,0.38553,0.38375,-0.72571,-0.64288
-0.38332,0.85633,0.34607,0.18999,-0.4956,-0.55605
-0.36078,0.87707,0.31714,0.25746,-0.13302,-0.17646
-0.34606,0.89703,0.27491,0.42321,0.48039,0.41027
-0.3403,0.91574,0.21356,-0.0627,3.63559,0.60301
-0.34554,0.92687,0.14667,0.02447,3.09848,0.23567
-0.34036,0.93861,0.05619,0.31523,1.95943,-0.01464
-0.31548,0.94827,-0.03537,0.40108,1.62071,-0.08394
-0.27908,0.9574,-0.07407,0.9482,1.2129,-0.04164
-0.25542,0.96222,-0.0943,0.92733,0.38611,0.42919
-0.23673,0.96635,-0.10065,0.89984,0.08729,0.50063
-0.22257,0.97002,-0.09761,0.72014,-0.05837,0.51462
-0.21896,0.971,-0.09603,-0.21064,-0.83899,1.00242
-0.21199,0.97266,-0.09482,-0.43989,-1.3276,0.97731
-0.19791,0.97598,-0.09106,-0.4676,-1.46637,0.88879
-0.18091,0.9806,-0.07547,-0.49746,-1.89626,0.63617
-0.15943,0.9863,-0.04244,-0.57456,-2.08635,0.23838
-0.12749,0.99184,-0.00167,-0.61783,-2.10291,-0.2774
-0.09807,0.99511,0.01207,0.34358,-0.43104,-2.59331
-0.07542,0.99708,-0.01228,0.51977,0.1515,-2.42459
-0.06888,0.99762,-0.00352,0.49067,-0.33308,-2.40896
-0.06811,0.99595,0.0587,0.22935,-1.18186,2.1333
-0.07828,0.99237,0.09529,-0.06455,1.99617,1.95069
-0.13672,0.98352,0.11831,-0.58697,3.85031,2.50867
-0.19962,0.97424,0.1049,-0.21177,0.97598,0.14077
-0.2278,0.96843,0.10129,0.38348,-0.48582,-0.15041
-0.24144,0.96235,0.12483,0.53321,-0.42631,-0.25153
-0.24089,0.9538,0.17957,0.28818,1.03551,0.77253
-0.22995,0.93942,0.25418,-0.15315,1.06195,0.74043
-0.21265,0.91744,0.33627,-0.1651,1.14079,0.71292
-0.20303,0.89395,0.39954,-0.01558,1.17366,0.6164
-0.22237,0.86289,0.45384,0.20577,1.039,-4.12542
-0.22121,0.81707,0.53242,0.27094,0.78523,-2.65705
-0.21766,0.79096,0.57185,0.77333,0.44064,-1.20239
-0.24606,0.77356,0.584,0.82127,-0.04285,-1.35532
-0.27739,0.76513,0.58105,0.856,-0.41888,-1.66406
-0.2924,0.77862,0.5552,1.05397,-0.42637,-1.71434
-0.30223,0.81121,0.5006,0.49547,-0.42118,-0.98734
-0.30172,0.84607,0.43946,0.30669,-0.56995,-0.79063
-0.27971,0.87996,0.38396,0.00645,-0.75225,-0.57163
-0.24729,0.90747,0.33962,-0.11886,-0.9005,-0.21524
-0.21794,0.93081,0.29341,-0.17053,-0.35192,-0.17606
-0.20379,0.95031,0.23531,0.07528,0.48526,-0.19089
-0.19956,0.96301,0.18108,0.07337,1.25586,0.03027
-0.19754,0.97326,0.1172,0.01204,2.59279,0.28701
-0.19503,0.98022,0.03375,0.41218,1.92431,0.21209
-0.17198,0.98466,-0.02945,0.82113,1.89219,0.1137
-0.11381,0.9916,-0.06147,0.98842,1.75982,-0.65275
-0.06134,0.99467,-0.08291,0.80181,0.91065,-0.01606
-0.03979,0.9929,-0.11212,0.54696,-0.0216,0.50147
-0.04412,0.9893,-0.13908,0.14533,-0.39744,0.65646
-0.06145,0.98685,-0.14951,-0.69856,-1.56076,0.94877
-0.07353,0.98728,-0.14095,-0.62073,-1.667,0.80032
-0.08411,0.9901,-0.1124,-0.51273,-1.54091,0.69267
-0.09878,0.99207,-0.07765,-0.41101,-1.62101,0.56676
-0.11117,0.99288,-0.04274,-0.26254,-1.72712,0.27629
-0.11797,0.993,-0.00541,-0.116,-1.7896,-0.15963
-0.10726,0.99407,0.01809,0.70354,-1.01225,-0.94081
-0.06774,0.99756,0.01677,1.1049,0.63742,-2.43726
-0.03123,0.99948,0.0077,0.5413,-0.04121,-1.99935
-0.00911,0.99944,0.03206,-0.52902,-1.20782,1.75552
-0.01012,0.99801,0.06225,-0.82628,1.55851,1.12788
-0.03426,0.99624,0.07954,-0.92619,2.56964,0.43139
-0.0523,0.99218,0.11333,-0.04672,0.9645,-0.10106
-0.08157,0.99149,0.1015,-0.12337,-0.17062,0.1574
-0.11324,0.98941,0.09078,0.03127,-0.42712,0.3357
-0.14199,0.98447,0.10322,-0.11104,0.6168,1.06911
-0.16747,0.97622,0.13763,0.11118,1.11336,1.01126
-0.18564,0.96444,0.18812,0.08735,1.41932,0.88419
-0.18321,0.94355,0.27596,0.33623,1.73948,0.06467
-0.14653,0.9016,0.40699,0.27478,1.73152,-1.11951
-0.18645,0.85295,0.48756,0.07265,1.40502,-2.36724
-0.24485,0.83134,0.49892,0.3364,0.75681,-1.17798
-0.25094,0.80558,0.53671,0.20631,-0.09172,-1.01898
-0.26787,0.78396,0.56004,0.39486,-0.31295,-1.20628
-0.28986,0.77597,0.56023,0.98317,-0.36625,-1.18956
-0.30702,0.78101,0.54383,0.9791,-0.57749,-1.24944
-0.31586,0.79729,0.51435,1.05482,-0.68993,-1.53799
-0.31549,0.82388,0.47083,0.56455,-0.61892,-1.30069
-0.29442,0.85536,0.42623,0.12459,-0.6264,-0.65026
-0.25977,0.88476,0.38692,0.01492,-0.47372,-0.37549
-0.22421,0.90905,0.35122,0.06198,-0.20119,0.03899
-0.20342,0.92791,0.31242,0.47315,0.88829,0.06247
-0.19414,0.94866,0.2497,0.50151,1.80352,-0.1214
-0.1669,0.97032,0.17498,0.12886,2.38531,0.22094
-0.14106,0.98652,0.0829,-0.30497,1.76859,0.26992
-0.12258,0.99246,-0.0015,-0.55569,2.12488,0.24803
-0.10879,0.99157,-0.07038,-0.91534,0.92422,-0.01722
-0.07687,0.98961,-0.12148,0.25938,0.45619,0.95263
-0.04226,0.98786,-0.14947,1.27658,-0.04227,0.79184
-0.01817,0.98446,-0.17468,0.91782,-0.92426,0.49518
-0.02514,0.98281,-0.18291,-0.45191,-1.30939,0.92584
-0.03878,0.98395,-0.17416,-0.606,-1.51076,0.80823
-0.04466,0.98865,-0.14347,-0.60929,-1.72841,0.66259
-0.04583,0.99518,-0.08671,-0.41151,-1.80858,0.87956
-0.05238,0.99857,-0.0103,-0.41101,-1.708,0.08186
-0.07158,0.99576,0.05776,-0.25316,-1.09705,-0.58079
-0.08421,0.99303,0.08246,0.50487,0.47249,-2.33317
-0.07362,0.99652,0.039,0.72317,0.836,-1.81213
-0.05161,0.99814,0.03251,0.37116,-0.03023,-0.60162
-0.03267,0.99801,0.05383,0.08557,-0.13183,1.16161
-0.0314,0.99779,0.05858,-0.35849,1.5015,1.37647
-0.07056,0.99598,0.05526,-0.4683,-0.31017,0.55442
-0.08523,0.99583,0.03246,-0.44045,-0.1114,0.82075
-0.11327,0.99301,0.03313,-0.39388,-0.19963,0.88925
-0.15186,0.98679,0.05645,-0.15895,0.62573,1.3694
-0.18769,0.97526,0.11676,0.02056,1.0996,1.32466
-0.21361,0.95959,0.18318,0.40243,1.42968,0.90163
-0.22357,0.94123,0.25319,0.90463,2.05789,-1.36598
-0.22432,0.9053,0.36071,0.60431,1.8421,-1.94162
-0.26414,0.87187,0.4124,0.04308,1.1632,-1.39948
-0.26978,0.85963,0.43389,0.15731,0.17742,-0.98788
-0.24638,0.83932,0.48461,0.03394,-0.13438,-0.79605
-0.24908,0.81434,0.52422,0.24222,-0.64863,-0.85923
-0.28619,0.79692,0.53198,0.75475,-0.60149,-1.20051
-0.32552,0.78075,0.53335,1.01363,-0.54938,-1.45479
-0.33453,0.77456,0.53679,1.14487,-0.45311,-1.59378
-0.31881,0.78842,0.52607,0.69301,-0.51213,-0.71935
-0.30365,0.81225,0.49804,0.37088,-0.69981,-0.70163
-0.28195,0.83927,0.46489,0.05504,-0.61129,-1.03264
-0.24775,0.86717,0.43201,-0.22071,-0.35121,-0.14903
-0.2307,0.88708,0.39983,0.20006,0.40829,0.36059
-0.23715,0.90861,0.34377,0.45181,0.86575,0.14025
-0.22543,0.93644,0.26881,0.24539,2.80822,-0.2286
-0.1898,0.96301,0.19127,-0.18169,1.00228,-0.04762
-0.15502,0.98008,0.12412,-0.44884,1.16266,0.11005
-0.13915,0.98978,0.03105,-0.8527,2.17158,0.21843
-0.13391,0.98861,-0.06867,-0.78606,1.70303,0.27048
-0.10708,0.98827,-0.10887,0.5039,0.54357,0.74572
-0.04104,0.99373,-0.104,1.61392,0.41348,0.42438
0.02438,0.99138,-0.12869,0.38401,-1.07648,0.57411
0.02286,0.99035,-0.13665,-0.03241,-1.30388,1.1024
-0.00264,0.99103,-0.13358,-0.48243,-1.72225,0.81811
-0.0035,0.99547,-0.09502,-0.76976,-1.82814,0.37443
0.00293,0.99946,-0.03257,-0.6911,-1.66725,0.10952
-0.00802,0.99968,0.02401,-0.56854,-1.1395,-0.8001
-0.02299,0.99915,0.0341,0.0679,-0.35868,-1.25935
-0.01718,0.99984,0.00529,0.32257,-0.49877,-0.8712
0.00776,0.99995,0.00548,0.3957,-0.7717,-0.1931
0.03457,0.99888,0.03229,0.08963,-1.02203,0.64547
0.05043,0.99683,0.06149,-0.05175,-1.14544,0.83741
0.04561,0.99538,0.08454,-0.6387,-0.28297,1.04553
0.00656,0.99601,0.08898,-0.90951,2.65672,1.95998
-0.03993,0.9949,0.09258,-0.22243,1.26991,0.65585
-0.08227,0.99344,0.07945,0.14958,-0.68492,0.26952
-0.1077,0.98923,0.09909,0.45432,-0.88387,0.68975
-0.10845,0.9815,0.15779,0.83773,0.50393,1.45705
-0.1077,0.96546,0.23726,1.20595,1.91194,1.15259
-0.09574,0.9429,0.31901,0.84679,1.9905,0.37288
-0.05501,0.90741,0.41662,0.24767,1.75561,-0.38632
-0.05818,0.8489,0.52534,-1.14537,0.74154,-3.12594
-0.11004,0.82281,0.55756,-1.00323,0.44911,-2.44231
-0.11105,0.79801,0.59232,-0.34038,0.12352,-1.11188
-0.12368,0.77559,0.61899,0.50048,-0.56484,-1.24287
-0.16624,0.77104,0.6147,0.76974,-0.65041,-1.56132
-0.20677,0.78861,0.57908,0.96362,-0.52859,-1.44651
-0.23688,0.81125,0.53457,0.68602,-0.55986,-0.70606
-0.24686,0.8327,0.49564,0.5927,-0.70069,-0.54426
-0.23131,0.8557,0.4629,0.43658,-0.90851,-0.34936
-0.19775,0.87842,0.43505,0.01888,-0.6926,-0.77068
-0.15598,0.90102,0.40475,0.09882,-0.2841,-0.23225
-0.13016,0.92489,0.35727,0.21083,-0.07351,0.0791
-0.11672,0.94727,0.29841,0.3668,1.71803,-0.19621
-0.08713,0.96888,0.23167,0.07585,3.12647,-0.0636
-0.05304,0.98376,0.17143,-0.08758,2.18327,0.04944
-0.03444,0.99254,0.11696,-0.52457,2.46405,-0.00522
-0.01794,0.99825,0.05632,-0.60005,1.61741,-0.5908
0.00375,0.99995,0.00844,-0.54934,0.85068,-0.33638
0.02899,0.99935,-0.02111,1.32921,0.53312,0.54856
0.05895,0.99592,-0.06832,1.01115,-0.38943,0.173
0.06322,0.99317,-0.09808,0.45817,-0.69295,0.17834
0.04082,0.99241,-0.11595,-0.52196,-1.13357,0.96373
0.02276,0.99341,-0.11233,-0.6111,-1.31319,0.99515
0.01593,0.99581,-0.09003,-0.67153,-1.51818,0.8865
0.01064,0.99882,-0.04723,-0.32957,-1.79392,0.81123
0.00295,0.99992,0.01202,-0.2405,-1.74327,0.41222
-0.00245,0.99737,0.07234,0.14689,-1.77669,-0.54687
-0.00227,0.99466,0.10312,0.47195,0.25441,-3.5527
0.02223,0.99883,0.04291,0.40068,0.76405,-1.93439
0.03479,0.99923,0.01812,0.34813,-0.00884,-1.76887
0.03835,0.99756,0.05836,-0.12865,-0.95587,2.30871
0.01754,0.99721,0.07248,-1.12086,3.71286,1.57333
-0.02583,0.99853,0.04763,-0.4591,-0.08752,0.50605
-0.04432,0.99863,0.02782,-0.2136,-0.31825,0.62006
-0.07212,0.99611,0.05052,0.06395,-0.15442,1.17524
-0.09462,0.98906,0.11313,0.23237,0.61461,1.57306
-0.11831,0.97397,0.19333,0.53494,1.28328,1.44267
-0.1549,0.95682,0.24597,0.61488,1.70816,0.7961
-0.16438,0.93825,0.30439,0.58861,1.83856,0.12646
-0.12218,0.9064,0.40434,0.40277,1.84442,-0.61246
-0.08979,0.8337,0.54486,-1.1494,1.53934,-2.74824
-0.13618,0.80351,0.5795,-0.66258,0.68751,-2.13796
-0.1511,0.78662,0.59866,-0.14393,0.22104,-0.81677
-0.18772,0.77111,0.60839,0.53653,-0.84698,-1.88242
-0.21627,0.77282,0.59663,0.94242,-0.73042,-2.10991
-0.22452,0.7979,0.55941,0.60692,-0.36528,-0.7746
-0.23337,0.82891,0.50836,0.44746,-0.53039,-0.50676
-0.23433,0.85771,0.45763,0.38973,-0.75491,-0.46907
-0.22238,0.8825,0.41442,0.36441,-0.73276,-1.05716
-0.20826,0.90751,0.36476,0.03405,-0.55787,-1.0256
-0.19472,0.93051,0.31022,0.04856,-0.48736,-0.70025
-0.19034,0.94911,0.2509,0.44172,0.26362,0.0251
-0.19156,0.96463,0.18108,0.70575,3.1098,0.01971
-0.1687,0.97969,0.10835,0.748,3.7888,0.21025
-0.14379,0.9889,0.03735,0.03456,1.38932,0.60109
-0.1158,0.99294,-0.0256,-0.40727,2.05566,0.72489
-0.08216,0.99455,-0.06417,-0.41622,2.07494,0.34667
-0.03118,0.99553,-0.08908,0.76862,0.64414,0.17688
-0.01037,0.9918,-0.12736,1.01116,0.34046,0.66943
-0.0126,0.98809,-0.15337,0.02217,-1.00135,0.55995
-0.02348,0.98749,-0.15591,-0.59346,-1.38989,0.95152
-0.0392,0.98982,-0.13683,-0.63354,-1.52122,1.00442
-0.04869,0.99369,-0.10107,-0.49701,-1.50348,0.88462
-0.05739,0.99714,-0.04907,-0.29441,-1.65889,0.85701
-0.06441,0.99775,0.01835,-0.25188,-1.63206,0.41228
-0.07257,0.99398,0.08205,0.30864,-1.61396,-1.50963
-0.07381,0.99363,0.08513,0.57114,0.26269,-3.34992
-0.04505,0.99838,0.03471,0.52292,0.4614,-1.28504
-0.02708,0.9986,0.04534,0.36312,0.00875,-0.7844
-0.0145,0.99604,0.08765,-0.09597,-0.46392,1.02517
-0.02349,0.99396,0.10719,-0.9837,4.36067,1.99686
-0.06808,0.99416,0.08366,-0.65652,1.16103,0.86469
-0.09342,0.99399,0.05704,-0.11332,-0.59358,0.52827
-0.11824,0.9907,0.06723,0.1139,-0.75494,1.05781
-0.1404,0.98361,0.11311,0.24547,-0.22668,1.22777
-0.16656,0.9698,0.17818,0.45486,1.56875,1.34802
-0.17531,0.95323,0.24618,0.45711,1.36989,0.93494
-0.16023,0.92936,0.33258,0.21567,1.77531,0.24727
-0.13318,0.88741,0.44132,-0.76399,1.6117,-2.40615
-0.18051,0.85331,0.48916,-0.35156,0.94134,-1.97084
-0.21875,0.83232,0.5093,0.17621,0.7589,-1.83242
-0.21685,0.81009,0.54473,0.56211,-0.27214,-0.7527
-0.22885,0.78423,0.57672,0.75627,-0.89936,-1.30838
-0.25351,0.77035,0.58506,0.89187,-0.84214,-1.59079
-0.27472,0.77508,0.56901,0.69149,-0.25378,-1.18151
-0.26874,0.79648,0.54166,0.58046,-0.30254,-0.7769
-0.25125,0.81969,0.51476,0.37088,-0.62702,-0.50439
-0.2266,0.84395,0.4862,0.21318,-0.84881,-0.52687
-0.19177,0.86854,0.45702,-0.06243,-0.83953,-0.86118
-0.15292,0.88945,0.43069,-0.4263,-0.60059,-0.9522
-0.1335,0.9102,0.39207,0.0767,0.31273,0.3471
-0.14435,0.93237,0.33143,0.33416,2.68001,0.44732
-0.13381,0.9611,0.24162,-0.11656,3.65999,0.1567
-0.11103,0.97984,0.16609,-0.28191,1.01674,0.04698
-0.106,0.98809,0.11155,-0.82001,2.06285,-0.06151
-0.11887,0.99257,0.02601,-0.57633,1.32799,0.37193
-0.11041,0.99268,-0.04901,0.01355,0.45358,0.29979
-0.0776,0.99532,-0.0575,1.39686,0.39249,0.64394
-0.02343,0.99672,-0.07739,1.46001,0.19105,0.02447
-0.00155,0.99623,-0.08675,0.71087,-0.57942,0.45461
-0.01142,0.9959,-0.08975,-0.15307,-1.04535,1.31663
-0.0188,0.99564,-0.0914,-0.45559,-1.83946,1.226
-0.02207,0.99663,-0.07895,-0.6982,-1.75106,1.25655
-0.02507,0.99905,-0.03568,-0.67304,-1.70992,0.75282
-0.02292,0.99942,0.02505,-0.5137,-1.67285,-0.14047
-0.0222,0.99679,0.07692,0.64328,-0.29127,-3.45657
-0.0039,0.99934,0.03599,0.53048,0.32828,-3.0091
0.01761,0.99975,-0.01388,0.30513,-0.06809,-0.78904
0.0388,0.99924,0.00455,0.08731,-1.04349,0.6001
0.0452,0.99852,0.03022,-0.15573,-1.36371,1.81202
0.01777,0.99935,0.03138,-0.58844,2.38433,1.788
-0.03663,0.99922,0.01478,-0.15139,0.57392,0.40892
-0.05546,0.99846,-0.00042,-0.00333,0.28828,0.40683
-0.0848,0.99634,0.01024,0.28461,-0.43818,0.76053
-0.11381,0.99246,0.04542,0.56887,1.10196,1.33245
-0.12746,0.98584,0.10895,0.48319,1.09025,1.19238
-0.13585,0.97339,0.18455,0.3747,0.59383,0.76048
-0.11332,0.95686,0.26754,0.03718,1.47472,0.46936
-0.07963,0.92907,0.36123,-0.04862,1.76129,0.43078
-0.06268,0.88667,0.45813,-0.04912,1.60785,0.12054
-0.0553,0.82938,0.55594,-0.60711,0.82496,-2.27077
-0.04927,0.79053,0.61044,-0.58161,0.79132,-1.4116
-0.08703,0.76014,0.6439,0.13685,-0.04421,-1.59585
-0.14217,0.73782,0.65985,0.66407,-0.48907,-2.13854
-0.17857,0.73865,0.65001,0.96284,-0.14737,-1.49744
-0.1997,0.76368,0.61393,0.82287,-0.25414,-1.07039
-0.22127,0.79361,0.56677,0.45104,-0.58374,-0.73319
-0.22951,0.82292,0.51973,0.28044,-0.7498,-0.70934
-0.21966,0.85251,0.47431,-0.1139,-0.68796,-0.73783
-0.18676,0.87502,0.44661,-0.01428,-0.72718,0.01515
-0.15373,0.89349,0.42195,0.15814,-0.33882,0.2527
-0.15446,0.91308,0.37738,0.52223,0.19928,0.00772
-0.17109,0.934,0.31365,0.90182,3.41692,-0.43356
-0.17929,0.95577,0.23316,0.46457,2.76282,-0.19925
-0.16294,0.974,0.15737,-0.05775,2.22328,0.07039
-0.14154,0.98451,0.10349,-0.33113,1.65534,-0.26133
-0.11562,0.99171,0.05609,-0.42703,0.98359,-0.26985
-0.07614,0.99687,0.02101,0.13013,0.30049,0.3152
-0.04951,0.99865,-0.01597,0.76167,-0.40076,0.59459
-0.03983,0.9984,-0.04011,0.46948,-1.0073,0.60524
-0.03331,0.99838,-0.04613,-0.11253,-1.28177,1.00209
-0.02812,0.99879,-0.04026,-0.49933,-1.47253,1.06348
-0.02364,0.99954,-0.01899,-0.66545,-1.72281,0.68329
-0.02859,0.99948,0.01477,-0.52296,-1.57974,0.85126
-0.0441,0.9976,0.0533,-0.43495,-1.77673,0.16279
-0.04366,0.99452,0.095,0.01064,-1.0288,-1.39796
-0.03424,0.99772,0.05812,0.60589,1.06235,-3.6712
-0.01792,0.99983,0.00404,0.77421,-0.11438,-1.27031
0.00495,0.99964,0.02617,0.31047,-0.7666,-0.3873
0.00713,0.99877,0.04912,-0.44714,-1.19522,2.33481
-0.01306,0.99919,0.038,-2.02387,3.12051,-1.47318
-0.05189,0.99838,0.02323,-0.93949,2.1982,-0.54036
-0.08406,0.99603,0.02918,-0.34714,1.08601,0.98891
-0.11371,0.99199,0.05503,0.10023,-0.72876,0.6087
-0.13287,0.98579,0.1028,0.22077,-0.29614,0.96351
-0.15598,0.97529,0.15643,0.86077,1.55438,1.35366
-0.17625,0.96052,0.21527,0.84444,1.5555,0.76741
-0.15345,0.93869,0.30872,0.80249,1.68007,0.42989
-0.09762,0.89683,0.43147,0.4062,1.75869,-0.66387
-0.15108,0.84354,0.51537,-0.53651,1.08471,-3.50196
-0.18428,0.82334,0.5368,0.08162,0.91373,-1.2971
-0.1657,0.80234,0.5734,0.14215,0.0053,-0.58083
-0.17943,0.77462,0.60643,0.33282,-0.78506,-1.2446
-0.21499,0.76031,0.61295,0.79907,-0.98339,-1.98163
-0.23336,0.77315,0.58973,1.00655,-0.70598,-1.96496
-0.23347,0.79888,0.55433,0.72569,-0.46471,-0.99848
-0.23,0.82603,0.51456,0.47141,-0.66974,-0.72655
-0.21844,0.85336,0.47335,-0.16981,-0.81703,-0.84818
-0.19175,0.87743,0.43972,-0.40757,-0.64813,-0.56366
-0.16081,0.89757,0.4105,0.17766,0.00345,0.45214
-0.14911,0.9187,0.36573,0.40346,0.23436,0.30699
-0.15568,0.93959,0.30485,0.74763,3.00327,-0.33393
-0.13724,0.96437,0.22617,0.65351,3.11011,-0.30913
-0.10909,0.98336,0.14524,0.02683,1.69072,-0.04311
-0.07741,0.99443,0.07156,-0.55908,2.6064,0.38226
-0.05817,0.9983,-0.0027,-0.684,1.49221,0.25585
-0.038,0.99782,-0.05399,-0.45451,0.14186,0.17173
-0.001,0.99702,-0.07717,0.86277,0.09618,0.67181
0.01924,0.99314,-0.1153,1.07149,-0.479,0.50562
0.02815,0.99087,-0.13186,0.24739,-0.90464,0.5626
0.01711,0.99105,-0.13235,-0.45234,-1.31382,1.14032
0.00913,0.99295,-0.11822,-0.67255,-1.58694,0.96155
0.00434,0.99619,-0.08705,-0.65786,-1.60894,1.11672
-0.00931,0.99934,-0.035,-0.50973,-1.75671,0.83064
-0.0231,0.99942,0.02511,-0.43187,-1.802,-0.23188
-0.03221,0.99754,0.06222,0.05101,-1.07449,-1.63364
-0.02143,0.99943,0.0262,0.5671,0.77725,-3.23297
-0.00582,0.99967,-0.02501,0.51093,0.28993,-1.20166
0.01077,0.99992,0.00558,0.46416,-0.71068,-0.23715
0.02682,0.99789,0.05912,-0.09141,-1.63087,1.89777
0.02031,0.99679,0.07737,-0.51836,2.28792,1.71349
-0.04055,0.99751,0.05775,-0.97969,1.88309,0.79508
-0.08695,0.9952,0.04494,0.03774,-0.59678,0.40129
-0.10387,0.99288,0.05825,0.23169,-0.82102,0.47178
-0.11203,0.98905,0.09603,0.50605,0.13837,0.90926
-0.11977,0.97938,0.1627,0.96571,1.75758,1.12243
-0.11252,0.96136,0.25125,0.74348,1.77747,0.63498
-0.07181,0.93568,0.34546,0.3151,1.75296,0.25307
-0.03001,0.8886,0.4577,-0.54143,1.50468,-1.21521
-0.06688,0.85199,0.51926,-0.85353,0.90864,-2.92722
-0.06446,0.83503,0.54642,-0.21909,0.21823,-1.04221
-0.08025,0.81209,0.57798,0.09902,-0.26857,-1.34564
-0.11932,0.79942,0.58881,0.39122,-0.42098,-1.49911
-0.16283,0.80871,0.56521,0.83997,-0.6671,-1.58827
-0.194,0.83533,0.51438,0.582,-0.61861,-0.92471
-0.20557,0.86057,0.46601,0.51572,-0.71509,-0.77838
-0.18694,0.88472,0.42699,0.5709,-0.98945,-0.78484
-0.15587,0.90856,0.38758,0.08351,-0.65701,-0.41775
-0.12493,0.93158,0.3414,-0.07641,-0.40529,-0.20259
-0.10645,0.953,0.28366,0.27143,0.15606,0.19273
-0.1152,0.96996,0.21424,0.42059,1.68392,-0.0379
-0.12605,0.9818,0.14207,0.30352,3.58688,0.04124
-0.11494,0.99151,0.06082,0.06582,2.21351,-0.06454
-0.09246,0.99556,-0.01749,-0.49552,2.12213,-0.21492
-0.05582,0.99507,-0.08194,-0.50414,1.66638,-0.14181
-0.01374,0.99364,-0.1118,0.39296,0.37062,0.6708
0.01797,0.98855,-0.14981,1.65843,0.00065,0.73799
0.03878,0.98215,-0.18404,0.47011,-0.76818,0.69446
0.02898,0.97995,-0.19714,0.05854,-0.95263,1.04502
0.01137,0.98129,-0.19219,-0.57818,-1.33156,1.1589
0.00693,0.98541,-0.17007,-0.73262,-1.42336,0.83393
0.00393,0.99098,-0.13398,-0.63835,-1.51061,1.03801
-0.00489,0.9966,-0.0823,-0.47432,-1.60614,0.81725
-0.01179,0.99974,-0.01949,-0.28287,-1.63168,-0.57284
-0.01368,0.99906,0.04116,0.03025,-1.25478,-1.903
6e-05,0.99984,0.01793,0.17216,0.26266,-2.85173
0.01131,0.99944,-0.0315,0.17671,0.43023,-1.98372
0.01934,0.99975,-0.01116,0.07763,-0.5128,-0.27983
0.02987,0.99858,0.04414,0.09244,1.4265,2.03559
-0.00207,0.99871,0.05067,-0.247,0.59498,0.96152
-0.01407,0.99982,0.01295,0.05786,-0.29448,0.70107
-0.04458,0.99897,0.00875,0.17643,-0.569,1.15548
-0.08765,0.99493,0.04935,0.32009,0.51787,1.67263
-0.11782,0.98689,0.11029,0.39275,1.58794,1.67928
-0.14175,0.97627,0.16369,0.41827,1.37834,0.75546
-0.137,0.9615,0.2382,0.43122,1.61931,0.30444
-0.10222,0.93321,0.34448,0.25578,1.57127,-0.03312
-0.05455,0.88533,0.46175,-1.16615,1.14053,-2.77646
-0.07264,0.85703,0.51012,-0.95067,0.76168,-2.43623
-0.0735,0.83811,0.54053,-0.32297,0.41835,-1.0636
-0.10084,0.81623,0.56885,0.14383,-0.36701,-0.99262
-0.15602,0.8041,0.57365,0.35835,-0.55209,-1.29234
-0.19172,0.80627,0.55962,0.84375,-0.57294,-1.9485
-0.19372,0.82632,0.52883,0.72838,-0.46361,-0.8216
-0.19853,0.85052,0.48703,0.58421,-0.54039,-0.51924
-0.20245,0.87205,0.44557,0.32214,-0.76809,-0.48505
-0.19261,0.89141,0.41021,-0.01204,-0.6799,-0.973
-0.17924,0.91254,0.36762,-0.18023,-0.66178,-1.01383
-0.17482,0.93303,0.31446,-0.05444,-0.46491,-0.25594
-0.185,0.9466,0.26405,0.38939,0.24239,0.2272
-0.20878,0.95773,0.19789,0.64366,0.71277,0.22969
-0.20915,0.97104,0.1155,0.80085,4.05014,0.00544
-0.17359,0.98415,0.03624,0.16902,0.9268,0.16048
-0.13512,0.99035,-0.03072,-0.28564,1.50515,0.22989
-0.09032,0.99092,-0.09955,-0.33404,1.88896,-0.07091
-0.0378,0.98898,-0.14313,0.36901,0.61072,0.05671
-0.00216,0.98852,-0.15108,0.87188,0.69454,0.36074
0.03518,0.9834,-0.178,1.29964,0.28017,0.2297
0.05162,0.98185,-0.18251,0.39558,-0.37566,0.6839
0.03769,0.98289,-0.18029,-0.07907,-0.77079,1.21934
0.02747,0.98288,-0.18218,-0.93657,-1.63098,0.8995
0.02547,0.98559,-0.16721,-1.01064,-1.65318,1.29072
0.02271,0.99154,-0.1278,-0.85057,-1.78001,0.26998
0.02456,0.99759,-0.06489,-0.75811,-1.72467,0.06965
0.02643,0.99964,0.00335,-0.01792,-1.14254,-1.81946
0.02731,0.99939,0.02176,0.18662,-0.04619,-2.35015
0.03832,0.99908,0.01942,0.19583,-0.09002,-1.19628
0.05504,0.99725,0.04963,0.23588,-0.52926,-0.00834
0.06482,0.99329,0.09579,0.23285,-0.7816,1.00752
0.05641,0.99142,0.11793,0.1188,-0.53863,1.13764
0.03498,0.99589,0.08352,-0.18305,3.33497,1.57088
-0.03982,0.99648,0.0737,-0.05977,2.55505,-0.1152
-0.0889,0.99235,0.08566,0.21256,-0.25131,-0.31221
-0.09952,0.98825,0.11603,0.35748,-0.64092,0.5423
-0.10753,0.98427,0.14016,0.67306,0.3542,1.10751
-0.11064,0.9768,0.18332,0.76637,1.05573,1.09805
-0.08317,0.96218,0.2594,0.55931,1.5111,0.98228
-0.04458,0.93612,0.34882,0.08749,1.793,0.89237
-0.03469,0.89454,0.44563,-0.39322,1.39173,-1.76553
0.01674,0.85266,0.52219,-1.11934,0.71817,-2.42237
0.05033,0.83364,0.55,-0.72464,0.43786,-0.63884
-0.01276,0.82141,0.57019,0.16291,-0.13927,-1.1475
-0.1001,0.8197,0.56397,0.64057,-0.50335,-1.21482
-0.1577,0.83288,0.53051,0.71721,-0.59981,-1.36602
-0.16912,0.8563,0.48801,0.72428,-0.63062,-1.25064
-0.15516,0.88058,0.44777,0.5684,-0.86585,-1.04324
-0.13352,0.90637,0.40083,0.46178,-0.91485,-0.87102
-0.11541,0.92671,0.35761,-0.01035,-0.7984,-0.27099
-0.09502,0.94312,0.31859,-0.00666,-0.56622,-0.06709
-0.08601,0.95934,0.26882,0.16389,-0.09841,0.16305
-0.11121,0.97292,0.20263,0.82644,1.73207,-0.23688
-0.14378,0.98107,0.12972,0.9452,3.39182,-0.22072
-0.12005,0.99161,0.04778,0.76924,1.65932,-0.21173
-0.07318,0.99681,-0.03173,0.02405,1.51945,0.14385
-0.0208,0.99508,-0.09683,-0.42819,2.06405,-0.14888
0.02804,0.99017,-0.13701,-0.62522,1.19791,-0.13824
0.06919,0.98396,-0.1644,0.2659,0.65112,1.00141
0.1007,0.9694,-0.22385,0.89495,-0.13296,0.13033
0.10636,0.96472,-0.24084,0.41078,-0.39169,0.12971
0.08299,0.96859,-0.23439,-0.61828,-1.05638,1.25177
0.06203,0.97501,-0.21331,-0.74159,-1.48726,0.84362
0.05387,0.98373,-0.17138,-0.70617,-1.48774,0.83481
0.04465,0.993,-0.10929,-0.61223,-1.59847,0.99283
0.03235,0.99913,-0.02633,-0.58399,-1.6736,0.22419
0.0174,0.99824,0.05666,0.20007,-0.17196,-3.25268
0.01263,0.99773,0.06607,0.33516,0.33648,-3.0342
0.01583,0.99982,0.01054,0.56896,0.09509,-1.16662
0.03341,0.99944,0.0008,0.4104,-0.69936,-0.30425
0.06107,0.99708,0.04578,0.20645,-1.15164,0.79281
0.0693,0.99518,0.06937,-0.22836,-0.38297,1.37022
0.04075,0.99746,0.05842,-1.96415,4.61796,0.25139
0.00707,0.99997,0.00314,-0.11577,0.47032,0.08875
-0.02385,0.99957,-0.01694,0.00813,-0.70506,0.55811
-0.04811,0.99875,0.01309,0.25401,-0.51417,0.91417
-0.07072,0.99591,0.05626,0.7162,0.77848,1.97567
-0.10727,0.98975,0.09429,1.08059,1.28433,1.34985
-0.12143,0.97981,0.15882,0.85148,1.1221,0.68299
-0.10408,0.96361,0.2462,0.50166,1.32818,0.16362
-0.06801,0.9337,0.35154,-0.25449,0.98934,-1.07974
-0.08695,0.89325,0.44107,-0.95641,1.19937,-2.35963
-0.11864,0.87574,0.46797,-0.39637,0.87426,-1.47489
-0.11103,0.85782,0.50181,-0.069,-0.02258,-0.63026
-0.13446,0.84195,0.52254,0.32844,-0.63697,-0.92425
-0.18331,0.83564,0.51778,0.73179,-0.41296,-1.18616
-0.22562,0.83788,0.49704,0.9828,-0.22023,-1.39605
-0.2415,0.85248,0.46362,1.0006,-0.33306,-1.02378
-0.23715,0.87565,0.42071,0.9678,-0.43447,-0.85705
-0.22679,0.89741,0.37844,0.56087,-1.10159,-0.95412
-0.2076,0.91394,0.34872,0.28098,-1.09583,-0.82888
-0.16571,0.9292,0.33032,0.22698,-0.45124,0.05777
-0.1339,0.94412,0.30118,0.43624,0.09353,0.50204
-0.1242,0.96114,0.24656,0.5758,0.58573,0.30988
-0.10569,0.97917,0.17336,0.52909,3.51606,0.13577
-0.07272,0.99211,0.10206,-0.01295,1.45367,-0.04757
-0.04946,0.99777,0.04485,-0.20115,1.75121,0.14505
-0.03526,0.99913,-0.02195,-0.46888,2.1327,0.24572
-0.02313,0.99452,-0.10194,-0.92017,0.76804,0.10549
-0.00247,0.98975,-0.14282,0.22429,0.66565,0.44422
0.01693,0.98587,-0.16662,0.87451,0.46685,0.54456
0.03535,0.98005,-0.19557,0.5938,-0.36701,0.17583
0.02642,0.97856,-0.20427,0.20797,-0.61645,0.47641
0.00083,0.97987,-0.19962,-0.42933,-1.43188,0.91175
-0.01077,0.98396,-0.17806,-0.57523,-1.67013,0.7515
-0.01283,0.98956,-0.1435,-0.54131,-1.70685,1.19773
-0.0143,0.99534,-0.0954,-0.4246,-1.77423,0.60498
-0.01403,0.99941,-0.03125,-0.20465,-1.67818,0.18147
-0.01683,0.99922,0.0356,0.54404,-0.52603,-2.86195
-0.01236,0.99859,0.05159,0.84781,0.40151,-3.38068
-0.00521,0.99836,0.05703,0.53668,0.33605,-0.68419
0.00784,0.9962,0.08671,0.2517,-0.76659,0.18142
0.02973,0.99485,0.09689,-0.101,-1.42176,0.9314
0.051,0.99489,0.08708,-0.82465,-1.08317,1.0098
0.07408,0.99527,0.06285,-1.29288,4.19,-0.66033
0.03803,0.99633,0.07671,-0.23192,1.49134,-0.12632
0.00383,0.9978,0.06622,0.12218,-0.50233,0.23733
-0.02956,0.99629,0.08085,0.39301,-0.95182,0.75621
-0.05654,0.99135,0.11838,0.91456,0.27108,1.39867
-0.0815,0.98308,0.16401,1.27753,1.5118,1.3133
-0.09478,0.97091,0.21986,0.97825,1.3263,0.43384
-0.07239,0.9504,0.30249,0.57385,1.22813,0.02
-0.04704,0.91064,0.41051,-0.24043,1.65363,-0.41281
-0.07941,0.86544,0.49468,-0.67889,1.7257,-1.98351
