gravity.x,gravity.y,gravity.z,userAcceleration.x,userAcceleration.y,userAcceleration.z
0.21103,0.97481,-0.07215,-0.24257,0.09168,0.17751
0.21722,0.96463,-0.14932,0.92535,1.89057,0.25783
0.26097,0.94047,-0.21769,0.88161,1.91472,0.3262
0.27994,0.9304,-0.23661,-0.03599,2.63521,-1.64587
0.26153,0.93947,-0.22131,0.01634,0.4891,-0.85744
0.24029,0.94648,-0.21547,0.28684,0.30442,-0.37032
0.21231,0.95163,-0.22209,0.70815,0.23874,-0.53795
0.19827,0.95228,-0.23203,0.45264,-0.02751,-0.16807
0.19076,0.95371,-0.23246,0.1432,-0.36465,0.18289
0.19662,0.95402,-0.22622,-0.24551,-0.82017,0.34516
0.20237,0.95243,-0.22783,-0.32299,-1.77877,0.45883
0.20279,0.9513,-0.23213,-0.38884,-1.86795,0.48236
0.2101,0.95184,-0.22328,-0.53373,-1.54021,0.70699
0.22242,0.95511,-0.19563,-0.5232,-0.97474,0.3976
0.22435,0.9603,-0.16577,-0.34218,-0.11002,-0.1253
0.22716,0.9619,-0.1521,0.0379,0.41258,0.00645
0.24449,0.95342,-0.17662,-1.06774,0.65982,0.11503
0.25006,0.92854,-0.27434,-0.0932,4.30395,1.24843
0.21648,0.93927,-0.26625,0.62237,-0.71787,0.27989
0.21424,0.95441,-0.20781,0.17249,-1.20132,-0.88202
0.21999,0.9594,-0.17648,0.78562,0.70361,-0.37514
0.21817,0.9639,-0.15257,1.87778,1.62585,0.28038
0.21537,0.97106,-0.10314,0.12567,0.43699,-0.05862
0.20199,0.97878,-0.03415,-0.15188,-0.01464,-0.23407
0.19071,0.98134,0.02406,-0.06111,0.3449,-0.06749
0.18573,0.98065,0.06177,-0.52667,0.15825,-0.12294
0.17414,0.98105,0.08486,-0.51509,0.15785,-0.14603
0.15563,0.98297,0.09765,-0.39609,-0.47445,-0.08994
0.14047,0.98533,0.09685,0.10023,-1.25767,0.1516
0.13535,0.98653,0.09177,0.21597,-1.43556,0.08521
0.14515,0.98633,0.07788,0.1774,-1.38097,0.03507
0.16056,0.98575,0.0501,-0.28846,-0.93821,0.03852
0.17248,0.98492,0.01262,-0.31161,-0.86084,0.1097
0.1757,0.98399,-0.02973,-0.33089,-0.77619,0.17763
0.17178,0.98275,-0.06841,-0.13342,-0.50045,0.82334
0.17203,0.97948,-0.10494,-0.09929,-0.12699,0.37476
0.18992,0.96571,-0.177,-0.15264,0.81205,-0.286
0.22929,0.94361,-0.23877,0.13631,4.29049,-0.60476
0.22848,0.94056,-0.25125,0.16297,1.88088,-0.42099
0.22381,0.94509,-0.23812,-0.12301,0.55412,-0.55621
0.21997,0.94683,-0.23473,0.12518,0.26782,-0.49912
0.20835,0.94766,-0.24189,0.57433,0.20551,-0.30088
0.19368,0.94835,-0.2512,0.45143,0.20294,-0.39643
0.19182,0.94952,-0.24821,-0.16108,-0.18546,0.24838
0.19631,0.95199,-0.23487,-0.28821,-0.52398,0.30283
0.19517,0.95355,-0.22942,-0.25234,-1.39821,0.40756
0.18622,0.95475,-0.23185,-0.12086,-1.88496,0.51021
0.19007,0.95637,-0.22184,-0.23075,-1.5814,0.67181
0.20713,0.95903,-0.19326,-0.47396,-1.15757,0.4575
0.22472,0.96051,-0.16404,-0.45255,-0.75351,-0.04691
0.24248,0.95807,-0.15262,-0.26204,0.06091,-0.20883
0.2591,0.94916,-0.17871,-0.41131,0.07951,0.40343
0.27101,0.92038,-0.28185,-1.23071,2.37225,-0.11563
0.23742,0.9269,-0.29064,0.84968,1.8775,1.71276
0.23473,0.93947,-0.24955,0.06993,-1.43836,-0.78353
0.24455,0.94274,-0.22675,0.30849,0.52047,-0.3466
0.24361,0.94544,-0.21631,1.88154,1.81852,0.09651
0.23482,0.95521,-0.18007,0.35475,0.59403,-0.3414
0.21738,0.96853,-0.12118,0.1702,-0.03068,-0.41327
0.20308,0.9769,-0.0664,0.37688,0.01335,0.00343
0.19863,0.97992,-0.01665,0.0377,0.20902,-0.1203
0.19024,0.98141,0.02486,-0.35681,0.38867,-0.06575
0.17192,0.9835,0.05623,-0.49179,0.30632,-0.07251
0.14993,0.98588,0.07444,-0.35684,-0.59518,0.1782
0.13153,0.98816,0.0789,0.02167,-1.11278,0.19295
0.125,0.98916,0.07688,0.16437,-1.40283,0.17167
0.1313,0.9894,0.06193,-0.12692,-1.19809,-0.0345
0.1409,0.98948,0.03246,-0.29368,-1.02822,0.03793
0.1483,0.98893,-0.00383,-0.39911,-0.87314,0.15063
0.14944,0.98773,-0.04525,-0.39092,-0.63746,0.08673
0.14534,0.98566,-0.08566,-0.23283,-0.48459,0.53944
0.14249,0.98283,-0.11715,0.12597,-0.19909,0.3941
0.15322,0.97114,-0.18274,0.92546,1.54724,-0.30634
0.18991,0.95024,-0.24692,0.19137,3.89582,-0.4069
0.18715,0.9464,-0.26323,0.22296,1.92364,-0.38028
0.17386,0.95204,-0.25174,-0.33226,0.52539,-0.4639
0.16854,0.95455,-0.2458,0.16055,0.1087,-0.46227
0.16618,0.95417,-0.24887,0.44797,0.2524,-0.34144
0.15904,0.95475,-0.25128,0.42476,0.34204,-0.47799
0.14798,0.95938,-0.24015,-0.00382,0.14754,0.14167
0.15132,0.96386,-0.21924,-0.20434,-0.46349,0.39475
0.15671,0.96542,-0.20829,-0.13758,-1.28525,0.37058
0.15431,0.96637,-0.2057,-0.19862,-1.68738,0.34599
0.16332,0.96595,-0.20062,-0.32183,-1.72442,0.44032
0.18679,0.96475,-0.18536,-0.57499,-1.13342,0.48716
0.20828,0.96445,-0.16261,-0.38183,-0.72539,0.04373
0.22691,0.96288,-0.14612,-0.23666,-0.00121,-0.10773
0.24512,0.95756,-0.15157,-0.35687,-0.13072,0.37501
0.26314,0.93818,-0.22488,-0.85237,1.16709,-0.20801
0.23719,0.93778,-0.25359,0.8147,2.07857,1.50253
0.21325,0.95215,-0.21892,0.189,-0.68207,-0.58258
0.2092,0.96101,-0.18077,0.05274,0.12908,-0.40082
0.20405,0.96617,-0.1577,1.19288,1.26529,-0.32734
0.19932,0.97271,-0.11868,0.90887,0.81849,-0.21101
0.19068,0.97963,-0.0628,0.18528,0.09747,-0.35443
0.17962,0.98369,-0.00848,0.28019,-0.05272,-0.12706
0.17714,0.98346,0.03763,0.01908,0.31565,-0.14693
0.17523,0.98179,0.07329,-0.33528,0.15573,-0.1951
0.16472,0.9813,0.09952,-0.45428,-0.0188,-0.20473
0.15081,0.98189,0.11462,-0.29046,-0.69838,0.02764
0.14029,0.98285,0.11958,0.01607,-1.14946,0.14913
0.1396,0.98306,0.11863,0.06247,-1.27973,0.06412
0.14855,0.98316,0.10636,-0.17113,-1.06635,0.01324
0.15845,0.98394,0.08212,-0.27786,-0.98021,-0.013
0.165,0.98511,0.04817,-0.33791,-0.80197,0.06691
0.16569,0.98609,0.01213,-0.11957,-0.41978,0.61742
0.16814,0.98479,-0.04354,-0.22945,0.78851,0.01403
0.18883,0.97498,-0.11726,0.2616,1.40799,0.47819
0.2216,0.95926,-0.1752,-0.3499,2.25361,-0.35403
0.22518,0.95134,-0.21033,0.13174,1.55445,-0.22035
0.21411,0.95028,-0.22606,0.38751,0.82692,-0.19132
0.21445,0.94745,-0.23735,0.27445,0.42564,-0.3273
0.211,0.94484,-0.25048,0.29641,0.45785,-0.49493
0.19879,0.94471,-0.26073,-0.10592,0.54473,-0.33659
0.18702,0.94737,-0.2598,-0.23896,0.33962,-0.2368
0.18456,0.95171,-0.24531,-0.15465,-0.103,0.08155
0.18754,0.95636,-0.22401,-0.05879,-0.43552,0.26606
0.18085,0.96114,-0.20853,0.15507,-1.38784,0.2712
0.1677,0.96494,-0.20186,-0.0774,-1.56844,0.15451
0.16925,0.96555,-0.19762,-0.32957,-1.48818,0.35088
0.18835,0.96351,-0.19014,-0.54658,-1.26901,0.42405
0.21372,0.96158,-0.17224,-0.35523,-0.80355,0.164
0.23623,0.95994,-0.15064,-0.15032,-0.08251,0.14632
0.25307,0.95437,-0.15845,-0.71349,0.67763,0.43215
0.25651,0.93934,-0.22767,-0.21933,3.04432,0.39059
0.22534,0.94657,-0.23067,0.55736,-0.01058,0.76354
0.20768,0.9565,-0.20486,0.13099,-1.03203,-0.37758
0.20184,0.96392,-0.17351,0.08901,0.40327,-0.05002
0.20025,0.96981,-0.13912,0.96103,1.23324,-0.25228
0.19006,0.97759,-0.09044,0.48158,0.63611,-0.39308
0.17924,0.98315,-0.03554,0.27244,0.09773,-0.33334
0.17577,0.98426,0.0177,0.28781,-0.23443,0.012
0.17453,0.98207,0.07116,0.20792,0.16294,-0.06234
0.16633,0.97969,0.11186,-0.24434,0.46286,-0.20207
0.14878,0.9793,0.13717,-0.59345,0.11135,-0.32367
0.12434,0.98131,0.14682,-0.3599,-0.49008,-0.12899
0.10691,0.98321,0.14783,-0.00356,-0.86214,0.124
0.10482,0.984,0.14403,0.17792,-1.40482,0.14837
0.11659,0.98473,0.1292,0.0459,-1.3792,0.02729
0.13338,0.98564,0.10343,-0.27136,-1.06897,-0.09241
0.14876,0.98675,0.06469,-0.35657,-0.77167,-0.09029
0.15635,0.98736,0.02564,-0.28991,-0.55007,0.46925
0.16293,0.98615,-0.03062,-0.34975,1.17637,-0.0616
0.19293,0.97476,-0.11228,0.30529,1.77806,0.56364
0.2303,0.95813,-0.17009,-0.10323,2.55237,-0.12213
0.22611,0.95555,-0.18914,0.16334,1.27978,-0.23805
0.21138,0.95876,-0.18995,0.08514,0.71237,-0.53301
0.19779,0.95866,-0.20452,-0.07554,0.72225,-0.45661
0.17849,0.95622,-0.23187,0.384,0.81515,-0.32569
0.16552,0.95439,-0.24847,0.23225,0.58512,-0.33392
0.16235,0.95465,-0.24956,-0.09681,0.35251,-0.06683
0.17056,0.9572,-0.2338,-0.16035,0.06583,0.04643
0.18075,0.96071,-0.21057,-0.1746,-0.84357,0.28386
0.17294,0.96531,-0.19556,0.09221,-1.58505,0.24224
0.1531,0.9695,-0.19138,-0.08325,-1.66615,0.26022
0.14359,0.97095,-0.19137,-0.15074,-1.63991,0.35833
0.15307,0.97026,-0.18751,-0.45311,-1.09725,0.40171
0.17469,0.96799,-0.18017,-0.2822,-0.23452,0.21993
0.21048,0.96118,-0.17836,-0.23122,0.63884,0.28466
0.25201,0.94348,-0.21524,-0.83469,1.38749,0.10083
0.26642,0.93015,-0.25265,-0.00034,1.20492,0.59933
0.2369,0.93828,-0.25198,-0.1496,-0.59833,0.31889
0.19645,0.95327,-0.22949,0.67688,-0.28512,0.03033
0.16617,0.96805,-0.18774,0.56085,0.67028,-0.19912
0.14911,0.97879,-0.14041,0.51969,1.27063,-0.54227
0.14259,0.98542,-0.09273,0.61288,0.26923,-0.47108
0.13408,0.99023,-0.03813,0.62496,-0.24375,-0.18114
0.12429,0.9921,0.01674,0.47184,-0.04982,0.00926
0.11693,0.99096,0.06564,-0.15622,0.2494,-0.07547
0.10559,0.989,0.1035,-0.61383,0.42545,-0.17035
0.08428,0.98775,0.13124,-0.71038,0.27029,-0.12097
0.05606,0.98749,0.14728,-0.26715,-0.55111,0.11783
0.03628,0.98814,0.14912,-0.08368,-0.95265,0.08914
0.03163,0.98938,0.14182,0.1165,-1.35343,-0.00033
0.04227,0.99126,0.12484,0.27909,-1.24038,-0.02821
0.06195,0.99318,0.09863,0.08068,-1.15789,-0.07428
0.08253,0.99436,0.06641,-0.087,-0.99931,0.17406
0.1039,0.99424,0.0258,-0.12212,-0.40226,0.42809
0.12649,0.99058,-0.05234,0.27895,1.40003,0.36353
0.15595,0.97968,-0.12604,0.01465,2.53724,0.31211
0.16652,0.97227,-0.16412,-0.32665,1.39446,-0.01102
0.16614,0.97001,-0.17739,-0.23625,1.17146,-0.15968
0.17017,0.96807,-0.18404,-0.06206,0.67131,-0.21003
0.18297,0.96287,-0.19845,0.11975,0.77523,-0.61089
0.17379,0.96021,-0.21857,0.35133,0.48617,-0.23644
0.15249,0.96099,-0.23071,0.26815,0.40314,-0.2192
0.13844,0.96377,-0.22796,0.00551,-0.11016,0.07115
0.13909,0.96761,-0.21063,0.09114,-0.76238,0.12057
0.13927,0.97065,-0.19601,0.16971,-1.28041,0.2391
0.13199,0.97161,-0.19631,0.02765,-1.46662,0.29709
0.13978,0.96951,-0.20125,-0.30244,-1.44828,0.22829
0.16765,0.96478,-0.20268,-0.56343,-1.28143,0.31936
0.20584,0.95786,-0.2003,-0.31646,-0.78075,0.28134
0.24066,0.9514,-0.19208,-0.23232,-0.2262,0.18311
0.25652,0.9479,-0.18887,-0.75652,-0.00803,0.55402
0.25764,0.9316,-0.25639,-0.99027,3.09764,-0.26678
0.20761,0.93425,-0.28995,0.71023,0.76394,1.38916
0.18295,0.94671,-0.26505,0.44377,-0.61947,0.23572
0.1889,0.95653,-0.22214,-0.1711,-0.08493,-0.49884
0.18973,0.96217,-0.19548,0.23154,0.59458,-0.53093
0.17387,0.97226,-0.15641,1.07697,1.2713,-0.09935
0.14964,0.9837,-0.09958,0.50136,-0.04082,-0.31453
0.13384,0.99041,-0.03391,0.56614,-0.21462,0.01592
0.13352,0.99064,0.02816,0.10806,-0.07163,-0.00622
0.12541,0.98905,0.07769,-0.33711,0.57037,-0.0764
0.11022,0.98752,0.11242,-0.4783,0.39829,-0.17136
0.09185,0.98722,0.13011,-0.251,-0.19268,-0.00489
0.08081,0.98781,0.13292,0.0043,-0.75526,0.10524
0.08493,0.98808,0.12833,0.11321,-1.34423,0.06857
0.10302,0.98847,0.11088,-0.12409,-1.24703,-0.02896
0.12257,0.98932,0.07874,-0.44406,-1.01419,-0.03071
0.13603,0.99015,0.03267,-0.52317,-0.78476,-0.00864
0.13795,0.99032,-0.01471,-0.36535,-0.52366,0.58006
0.13162,0.98872,-0.07133,0.02507,0.01364,0.36491
0.13599,0.97974,-0.14695,0.62797,1.41365,0.52946
0.16097,0.96455,-0.2091,-0.02996,2.76817,-0.15633
0.16351,0.95762,-0.2371,-0.119,1.82172,-0.19625
0.16124,0.95983,-0.22958,-0.19055,1.09776,-0.10031
0.16364,0.96079,-0.2238,0.00057,0.65568,-0.74674
0.15334,0.96055,-0.23199,0.44119,0.5933,-0.54867
0.14108,0.96116,-0.23716,0.52189,0.56108,-0.27576
0.13354,0.96352,-0.23192,0.30643,0.10411,-0.14074
0.13387,0.96764,-0.21387,0.13915,-0.37463,0.09337
0.13384,0.97257,-0.19021,0.17341,-1.03427,0.12697
0.11798,0.97777,-0.17328,0.09465,-1.51004,0.20657
0.09992,0.9809,-0.1668,-0.05678,-1.72523,0.18598
0.10178,0.9803,-0.1692,-0.34872,-1.60604,0.44754
0.12225,0.97733,-0.17281,-0.6498,-1.15409,0.53927
0.15421,0.97323,-0.17036,-0.53515,-0.66719,0.35523
0.18899,0.96801,-0.16496,-0.54454,0.30666,0.4179
0.22169,0.95472,-0.19837,-0.76562,1.96571,0.24871
0.23451,0.94525,-0.22689,0.42228,0.26262,0.56372
0.21205,0.95164,-0.22226,0.02993,-0.27211,0.07061
0.17458,0.96345,-0.20312,0.61687,0.13788,0.11413
0.14491,0.97506,-0.16803,0.47298,0.75893,-0.13769
0.1264,0.98501,-0.11731,0.5269,0.93575,-0.54681
0.11734,0.99121,-0.06097,0.53626,0.19886,-0.48691
0.11206,0.99368,-0.00531,0.56857,-0.03764,-0.13015
0.10641,0.99314,0.04822,0.3808,0.09057,-0.11115
0.0955,0.99089,0.09479,0.1992,0.26697,-0.20278
0.08472,0.98835,0.12635,-0.32758,0.23382,-0.30711
0.07201,0.98733,0.14128,-0.24783,-0.32023,-0.13461
0.05982,0.98785,0.14332,-0.11483,-0.62981,0.0304
0.05856,0.98894,0.13619,0.07228,-1.40053,0.15069
0.07207,0.98997,0.12141,0.01773,-1.29089,0.00301
0.09312,0.99104,0.09565,-0.11377,-1.11315,-0.08425
0.11291,0.99191,0.05775,-0.28878,-0.69324,0.26732
0.12833,0.99167,0.01003,-0.16615,-0.19434,0.41565
0.14628,0.9872,-0.06339,0.1513,1.10422,0.50659
0.18068,0.97446,-0.13326,0.11151,1.66508,0.20731
0.20589,0.96186,-0.18002,-0.04752,1.78049,-0.08862
0.20202,0.95886,-0.19938,0.0306,1.46613,-0.10433
0.19187,0.95922,-0.2075,0.13184,0.91558,-0.37746
0.18822,0.95565,-0.22648,0.21311,0.77328,-0.29102
0.17938,0.95115,-0.25122,0.13532,0.83704,-0.37038
0.1652,0.95111,-0.26091,0.09151,0.57095,-0.23462
0.1528,0.95482,-0.25486,-0.01765,-0.21301,0.14158
0.1503,0.9593,-0.23902,0.06854,-0.56276,0.24349
0.14972,0.96324,-0.22299,0.1049,-1.1657,0.33336
0.13447,0.9669,-0.21679,0.02281,-1.45712,0.24418
0.1221,0.96846,-0.21716,-0.06125,-1.4942,0.20239
0.12831,0.96742,-0.21823,-0.45541,-1.5066,0.36638
0.15097,0.96487,-0.21499,-0.54109,-1.20474,0.43481
0.18046,0.96226,-0.20365,-0.27134,-0.54481,0.29091
0.20074,0.96116,-0.18937,-0.18823,0.12844,0.20338
0.22171,0.95405,-0.20153,-0.64197,0.29636,0.34508
0.2281,0.93279,-0.27903,-0.68945,2.4729,-0.10905
0.19035,0.93675,-0.29368,0.32052,0.50655,1.34311
0.17526,0.94819,-0.26495,0.13164,-1.01545,-0.29764
0.17513,0.95854,-0.22473,0.06661,0.07905,-0.17605
0.16884,0.96785,-0.18636,0.76917,0.94592,-0.42255
0.15506,0.97819,-0.13814,0.64465,0.7687,-0.40123
0.13798,0.98723,-0.07952,0.65255,0.19623,-0.38024
0.13101,0.99128,-0.01324,0.75167,-0.08131,-0.00933
0.13072,0.99013,0.05029,0.09084,0.23726,-0.16484
0.11852,0.98822,0.09669,-0.23421,0.51263,-0.21287
0.10054,0.98683,0.12665,-0.56134,0.12678,-0.16919
0.07334,0.98702,0.14277,-0.36509,-0.26745,-0.08521
0.05252,0.98736,0.14942,0.0571,-0.7888,0.08419
0.04692,0.98784,0.14812,0.24896,-1.38802,0.06958
0.05656,0.98902,0.13645,-0.13941,-1.24091,-0.04138
0.07289,0.9908,0.11394,-0.26729,-1.13309,-0.16617
0.08845,0.99281,0.08055,-0.31858,-0.7761,-0.02707
0.09757,0.99435,0.04146,-0.13819,-0.58192,0.76638
0.10154,0.99472,-0.01414,-0.02306,-0.30167,0.5949
0.12227,0.98747,-0.09963,0.48432,1.80076,0.63642
0.17147,0.97074,-0.16807,-0.305,2.94096,-1.48676
0.17101,0.96393,-0.20392,-0.28344,2.30103,0.16297
0.14897,0.96523,-0.21476,0.24567,0.7264,-0.22605
0.13881,0.96443,-0.22492,0.08664,0.42308,-0.52143
0.12594,0.96044,-0.24837,0.4036,0.75426,-0.40956
0.11011,0.95731,-0.26724,0.35547,0.67907,-0.33586
0.09415,0.95808,-0.27057,0.05035,0.22208,-0.16638
0.08711,0.96149,-0.26065,-0.02824,-0.16966,0.02246
0.0857,0.966,-0.24389,-0.0838,-0.7222,0.28703
0.07496,0.96944,-0.23356,0.17156,-1.33474,0.29191
0.04889,0.97086,-0.23458,0.00101,-1.58621,0.24467
0.03927,0.96907,-0.24359,-0.17706,-1.26285,0.31699
0.06031,0.9643,-0.25782,-0.35369,-1.20443,0.32962
0.11072,0.95668,-0.26926,-0.1235,-0.82283,0.24011
0.17284,0.94882,-0.2643,-0.01287,-0.32025,0.15349
0.21684,0.94193,-0.25639,-0.78809,-0.28267,0.978
0.22141,0.92043,-0.32213,-1.22953,3.12443,-0.59459
0.15717,0.93134,-0.32848,0.9376,1.23569,1.59407
0.1434,0.94652,-0.28899,-0.33187,-1.45116,-0.69467
0.15945,0.95376,-0.25476,-0.37469,-0.40479,-0.35086
0.17163,0.95699,-0.2339,1.07145,0.91338,-0.56734
0.14993,0.96952,-0.19373,1.64046,1.33573,0.14005
0.1295,0.98436,-0.11936,0.87329,0.12122,-0.42438
0.129,0.99064,-0.04436,0.81315,-0.30635,-0.08335
0.13994,0.99001,0.0164,0.16098,-0.3036,-0.01026
0.12885,0.98976,0.06121,-0.46405,0.74866,-0.12545
0.1152,0.9888,0.09479,-0.52058,0.65187,-0.1648
0.09452,0.9887,0.11621,-0.47846,-0.46386,-0.17832
0.07564,0.98931,0.1246,-0.16568,-0.84224,0.10758
0.07263,0.98951,0.12476,0.14148,-1.33714,0.22392
0.0828,0.99037,0.11085,-0.10637,-1.1563,0.07033
0.09871,0.99139,0.08589,-0.25803,-1.04641,0.01274
0.11567,0.99197,0.05093,-0.39887,-0.80554,-0.07721
0.13048,0.99139,0.01034,-0.2943,-0.66703,0.60769
0.14414,0.9888,-0.03846,-0.21221,-0.43604,0.68428
0.1656,0.97866,-0.12162,0.63179,1.43432,0.5449
0.20658,0.9589,-0.19449,0.18031,2.61552,-0.29286
0.21333,0.9479,-0.23657,0.14475,2.58172,-0.32661
0.19744,0.94918,-0.24507,0.17366,1.13938,-0.21332
0.1858,0.95212,-0.24276,-0.28863,0.72523,-0.52993
0.16788,0.9536,-0.24991,0.23045,0.37061,-0.42713
0.14284,0.95532,-0.25875,-0.08206,0.5528,-0.23493
0.12066,0.95795,-0.2603,-0.08796,0.33441,-0.32214
0.11802,0.96156,-0.2479,0.01008,0.03072,-0.09609
0.1133,0.96703,-0.22804,0.10374,-0.82831,0.44379
0.09629,0.97254,-0.21186,0.20278,-1.30239,0.37671
0.07398,0.9769,-0.20042,0.17312,-1.50547,0.30793
0.06799,0.97863,-0.19403,-0.28941,-1.56712,0.33589
0.08561,0.97707,-0.19491,-0.58003,-1.23702,0.40742
0.11696,0.97383,-0.19483,-0.50186,-1.05879,0.3358
0.1543,0.96916,-0.19212,-0.37849,0.23172,0.35422
0.18435,0.96087,-0.20673,-0.76943,0.62352,0.49431
0.20201,0.93965,-0.27611,-1.26114,1.47347,0.30746
0.17474,0.94459,-0.27786,0.57256,-0.29809,0.83337
0.15389,0.95559,-0.25132,0.12671,-0.91201,-0.60443
0.14735,0.96379,-0.22223,0.46945,-0.23754,-0.15312
0.14199,0.97268,-0.18362,0.9888,1.01644,-0.29929
0.13583,0.98182,-0.13253,0.95493,0.8209,-0.41379
0.12386,0.98981,-0.07007,0.50804,0.1627,-0.31966
0.11329,0.99352,-0.00814,0.36802,0.00728,-0.01742
0.10944,0.99277,0.04906,-0.10532,0.14572,-0.03189
0.09853,0.99037,0.09717,-0.21718,0.22565,-0.15171
0.07789,0.98884,0.12695,-0.43337,0.15251,-0.31585
0.05681,0.98858,0.13948,-0.10579,-0.63726,0.18422
0.04728,0.98906,0.13967,-0.00355,-0.98718,0.34892
0.05185,0.98972,0.13322,0.04213,-1.39206,0.14808
0.06711,0.99105,0.11533,-0.09343,-1.21381,-0.02236
0.08504,0.99269,0.08557,-0.35022,-0.92033,-0.17554
0.10051,0.99398,0.04345,-0.36771,-0.67049,-0.04325
0.10722,0.99422,-0.00257,-0.02173,-0.33242,0.61846
0.10952,0.99123,-0.07379,-0.06047,0.3713,0.10708
0.13542,0.97865,-0.15454,0.85625,1.59593,0.80638
0.1638,0.96426,-0.20823,-0.22439,2.85715,-0.1355
0.15183,0.96175,-0.22794,0.01251,1.63323,-0.35483
0.13679,0.96363,-0.22953,-0.02061,0.89986,-0.37962
0.1279,0.9615,-0.24319,-0.00257,0.6589,-0.43078
0.11738,0.9572,-0.26453,-0.21571,0.9332,-0.25204
0.11148,0.95513,-0.27437,0.69047,0.38151,-0.70776
0.11653,0.95585,-0.26972,-0.14035,-0.01723,0.05782
0.12072,0.96118,-0.24809,-0.02121,-0.80352,0.25636
0.11923,0.96575,-0.23044,0.15599,-1.44861,0.4211
0.0955,0.96972,-0.22473,0.00759,-1.67282,0.31406
0.07451,0.97257,-0.22034,-0.09807,-1.68208,0.35531
0.07539,0.97371,-0.21492,-0.43213,-1.34464,0.53943
0.09895,0.97284,-0.20925,-0.4152,-0.82806,0.39885
0.13498,0.96961,-0.20404,-0.26184,-0.39398,0.14453
0.16662,0.96609,-0.19722,-0.28215,-0.01175,0.33554
0.19729,0.95609,-0.2167,-0.99991,0.53329,0.4291
0.21047,0.93172,-0.29596,-1.16541,1.81555,-0.26416
0.17966,0.93924,-0.29247,0.15466,-0.47251,0.6669
0.17117,0.95117,-0.25683,-0.22952,-1.0202,-0.65318
0.16993,0.96043,-0.22064,0.29745,-0.04593,-0.17462
0.15885,0.96944,-0.18693,1.2064,1.33354,-0.24923
0.14447,0.97934,-0.14148,0.85756,0.75112,-0.47682
0.12889,0.98807,-0.08424,0.65172,-0.00415,-0.33251
0.12435,0.99189,-0.02606,0.47359,-0.25376,-0.0453
0.12747,0.99156,0.02332,-0.10678,0.16878,-0.17294
0.11872,0.99113,0.0595,-0.38168,0.39049,-0.04342
0.10352,0.99118,0.08266,-0.54824,-0.07585,0.05438
0.08305,0.99186,0.09647,-0.25348,-0.68917,0.19218
0.0691,0.99261,0.09961,-0.09583,-0.83525,0.19148
0.06918,0.99326,0.09287,0.10706,-1.35711,0.12937
0.08218,0.99401,0.07186,-0.35818,-1.01387,-0.03526
0.09799,0.99452,0.0362,-0.37399,-1.01437,0.00039
0.11072,0.99381,-0.00835,-0.38556,-0.76159,0.42989
0.11752,0.99138,-0.05777,-0.18777,-0.388,0.42646
0.12821,0.98296,-0.13164,-0.23549,0.18858,0.05465
0.15833,0.96737,-0.19776,0.25868,1.67008,0.00445
0.17113,0.95516,-0.24161,0.2336,2.50486,-0.47809
0.1644,0.95199,-0.25822,0.19373,2.10888,-0.44715
0.16502,0.95048,-0.26332,0.11578,0.87265,-0.53354
0.16762,0.94684,-0.27457,0.10606,0.69676,-0.37506
0.16031,0.94619,-0.28111,0.26682,0.60228,-0.32834
0.15252,0.95019,-0.27178,0.21952,0.08074,-0.14277
0.14774,0.95612,-0.25297,0.18915,-0.54801,0.19589
0.14,0.96121,-0.23763,0.11817,-1.16366,0.27871
0.12396,0.96476,-0.23208,-0.16261,-1.48499,0.2324
0.11369,0.96596,-0.23233,-0.51005,-1.59112,0.36266
0.12204,0.96522,-0.23117,-0.57261,-1.47471,0.53287
0.14421,0.96404,-0.22321,-0.57019,-1.06378,0.51909
0.16789,0.96302,-0.21068,-0.30569,-0.08129,0.31536
0.18431,0.96205,-0.20119,-0.32211,-0.08032,0.30587
0.20881,0.94715,-0.2435,-0.95492,1.68371,-0.19065
0.21855,0.92761,-0.30293,0.78926,1.3576,1.11319
0.19866,0.93486,-0.2942,0.34847,-0.42818,0.92226
0.18595,0.94706,-0.2617,0.37131,-0.05692,-0.09084
0.16689,0.96066,-0.22194,0.81401,0.82843,-0.28256
0.14528,0.97296,-0.17954,0.93258,1.16431,-0.12659
0.13285,0.98337,-0.12381,0.43827,0.16994,-0.29897
0.12095,0.9908,-0.06052,0.30386,-0.185,-0.09561
0.11147,0.99376,-0.00081,0.32536,-0.06987,-0.05517
0.10195,0.99353,0.04993,0.13699,0.20984,-0.08466
0.08762,0.9921,0.08962,-0.35729,0.16477,-0.25549
0.06889,0.99116,0.11333,-0.40527,-0.01414,-0.27735
0.05405,0.9911,0.12154,-0.03232,-0.76898,0.29173
0.05148,0.99136,0.12054,0.1065,-1.39763,0.23838
0.06313,0.99186,0.11048,0.1046,-1.46478,0.13225
0.08192,0.99279,0.08743,-0.25642,-0.96666,-0.21121
0.09931,0.99377,0.05038,-0.33008,-0.63485,0.11426
0.11139,0.99375,0.00659,-0.29946,-0.47412,0.47898
0.12092,0.99075,-0.06152,-0.4225,0.98548,0.15457
0.14464,0.97957,-0.13965,0.32893,1.48623,0.50627
0.16438,0.96624,-0.19835,0.12611,1.80727,0.05944
0.15769,0.9603,-0.23011,0.06006,1.58592,-0.1975
0.15007,0.95834,-0.24299,0.06214,1.0165,-0.2887
0.15259,0.95346,-0.26005,-0.02368,0.8057,-0.51265
0.14513,0.94907,-0.27964,0.26346,0.70003,-0.32148
0.13447,0.94916,-0.28461,0.03999,0.46898,-0.13691
0.12815,0.9523,-0.27695,0.19763,0.15002,-0.22349
0.12937,0.95683,-0.26025,0.01049,-0.30906,0.02392
0.12764,0.9619,-0.24173,0.10182,-0.85453,0.22946
0.11274,0.96526,-0.23567,0.17901,-1.11303,0.36879
0.09489,0.96525,-0.24346,-0.17086,-1.56991,0.25572
0.09902,0.96289,-0.25106,-0.33668,-1.5306,0.33688
0.12904,0.95812,-0.25561,-0.52551,-1.44761,0.44604
0.17022,0.95373,-0.24781,-0.23299,-0.73336,0.39064
0.20098,0.95216,-0.23017,-0.50645,0.21213,0.66064
0.2159,0.94687,-0.23836,-0.52136,0.21742,0.66882
0.20433,0.92802,-0.31149,-1.06708,4.03991,0.36172
0.16796,0.93998,-0.29701,0.57932,-0.32928,0.91733
0.17174,0.95247,-0.25161,0.00197,-1.44157,-0.62451
0.18438,0.95831,-0.21823,0.22493,0.14996,-0.30392
0.18101,0.96475,-0.19099,1.78557,1.54505,-0.39568
0.16857,0.97503,-0.14449,0.59229,0.327,-0.32429
0.15135,0.98529,-0.07925,0.52074,-0.01529,-0.3237
0.14105,0.98985,-0.01688,0.36196,-0.17735,0.08247
0.1328,0.99058,0.03304,0.3702,-0.17808,0.03256
0.11951,0.99053,0.06744,-0.79561,0.56881,-0.15586
0.10228,0.99072,0.08941,-0.69337,-0.28557,-0.0016
0.07742,0.992,0.09964,-0.41321,-0.60813,0.05667
0.06094,0.9932,0.09906,0.29605,-1.42469,0.27186
0.06213,0.99383,0.09174,0.32052,-1.43634,0.07344
0.0781,0.9945,0.06965,0.1025,-1.23463,0.03763
0.09537,0.99484,0.03438,-0.38553,-0.85347,-0.05582
0.10831,0.99406,-0.00983,-0.32555,-0.676,0.58033
0.11373,0.99171,-0.05958,-0.20266,-0.49498,0.75058
0.12228,0.98321,-0.1354,0.41093,1.3038,0.52133
0.1513,0.96674,-0.2062,0.19011,2.39136,-0.31185
0.16619,0.95319,-0.25256,-0.00711,2.87971,-0.35026
0.15813,0.95203,-0.26195,0.17793,1.30992,-0.23713
0.15529,0.95305,-0.25994,-0.45824,0.72778,-0.39398
0.15207,0.95077,-0.27001,-0.0336,0.44776,-0.5608
0.14658,0.94925,-0.27825,0.09205,0.5169,-0.36302
0.13366,0.9507,-0.27981,0.14699,0.14711,-0.19534
0.12335,0.95452,-0.27142,0.12841,-0.07419,0.08887
0.1195,0.95686,-0.2648,0.06371,-1.12436,0.46364
0.1122,0.95709,-0.26717,-0.09044,-1.51707,0.34129
0.10917,0.95757,-0.26669,-0.16617,-1.59913,0.27626
0.12292,0.95813,-0.25859,-0.4952,-1.50967,0.55615
0.14851,0.9585,-0.24334,-0.27048,-0.89684,0.3027
0.17273,0.95886,-0.22525,-0.19954,-0.44299,0.18242
0.18915,0.9597,-0.20783,-0.05087,0.09937,0.07855
0.20834,0.95408,-0.2152,-1.105,1.13085,-0.03631
0.2115,0.9309,-0.29781,-0.44638,3.2464,0.15971
0.17305,0.9358,-0.3071,0.39934,0.29773,1.2956
0.16432,0.95031,-0.26438,-0.18257,-0.98162,-0.3955
0.17324,0.95932,-0.22287,-0.19149,-0.99063,-0.43701
0.17029,0.96662,-0.19142,1.54556,1.34891,-0.34752
0.1581,0.97723,-0.14145,0.47815,0.34183,-0.34782
0.14346,0.98694,-0.07314,0.49279,0.33212,-0.41613
0.13717,0.99054,-0.0026,0.59654,-0.17997,0.05596
0.13392,0.98932,0.0574,0.0441,0.23561,-0.04143
0.1236,0.98743,0.09846,-0.30589,0.56686,-0.1609
0.10541,0.98679,0.12297,-0.75833,0.27985,-0.21074
0.0811,0.98782,0.13275,-0.34499,-0.55199,-0.02749
0.06897,0.98885,0.13191,0.1558,-1.13408,0.28823
0.07787,0.98939,0.12254,0.23484,-1.3965,0.01943
0.09987,0.99,0.09952,-0.27237,-0.9831,-0.15198
0.11963,0.9908,0.06309,-0.3831,-0.69698,0.00323
0.13166,0.99112,0.01807,-0.36771,-0.56636,0.44067
0.13608,0.98968,-0.04462,-0.35681,0.75813,-0.04341
0.15114,0.98033,-0.1269,0.15898,1.35363,0.59129
0.17642,0.96549,-0.19152,-0.09615,2.01273,-0.31057
0.17684,0.95661,-0.23154,0.07086,1.80605,-0.30943
0.18606,0.95348,-0.23715,0.08832,1.34554,-1.28081
0.18533,0.95447,-0.23372,0.33839,0.51149,-0.55963
0.17085,0.95073,-0.25867,0.20336,0.51245,-0.34214
0.14376,0.94931,-0.27952,0.23877,0.4773,-0.20577
0.12412,0.95007,-0.28627,0.09036,0.07827,0.05359
0.11464,0.9535,-0.27871,0.03769,-0.44326,0.25633
0.10842,0.95815,-0.26491,0.11162,-0.80741,0.35143
0.09259,0.96082,-0.26123,0.09596,-1.49645,0.40327
0.07313,0.96169,-0.26417,-0.1912,-1.56826,0.28901
0.07409,0.9613,-0.26532,-0.3816,-1.54262,0.41809
0.09937,0.95839,-0.26757,-0.5969,-1.1509,0.45339
0.1386,0.95551,-0.26033,-0.22643,-0.4305,0.25368
0.17495,0.95304,-0.24716,-0.12083,0.06925,0.23413
0.19938,0.93608,-0.28981,-1.61151,2.14016,0.10268
0.18795,0.922,-0.33849,0.95719,1.9374,1.28116
0.16502,0.93605,-0.31074,0.57875,-0.48752,0.87598
0.16455,0.94863,-0.2702,0.27486,-0.55436,-0.26476
0.1712,0.95611,-0.23777,0.85273,0.83759,-0.34676
0.164,0.96501,-0.20456,1.49047,1.64198,-0.24365
0.15128,0.97755,-0.14659,0.52125,0.36133,-0.36266
0.13331,0.98744,-0.08475,0.38662,-0.19035,-0.18948
0.12099,0.99213,-0.03206,0.41899,-0.18997,0.00441
0.11199,0.99364,0.01082,-0.24439,0.37028,-0.10992
0.09602,0.9946,0.03901,-0.59315,-0.14753,-0.04449
0.07336,0.99586,0.05347,-0.5705,-0.14878,-0.05895
0.05297,0.99699,0.05649,-0.04141,-0.97419,0.3992
0.04667,0.9974,0.05477,0.16046,-1.52659,0.16882
0.05564,0.9976,0.04097,0.15149,-1.52679,0.18261
0.06995,0.99749,0.0099,-0.21796,-0.95754,-0.00445
0.08333,0.99597,-0.03297,-0.3212,-0.69108,0.16822
0.08931,0.99286,-0.0789,-0.32718,-0.68798,0.21416
0.09163,0.98795,-0.12464,-0.12441,-0.27107,0.65282
0.10806,0.97528,-0.19272,0.57291,1.37712,0.24402
0.14845,0.95678,-0.25005,0.53252,1.39562,0.30135
0.15848,0.94568,-0.28382,0.18247,2.05034,-0.37928
0.16294,0.94299,-0.29018,-0.27783,1.62189,-0.52056
0.14677,0.94833,-0.28129,-0.26165,1.61655,-0.52946
0.12725,0.94794,-0.29191,0.30391,0.27278,-0.42916
0.1067,0.94732,-0.30198,0.28976,0.31913,-0.21509
0.09173,0.94985,-0.29893,0.10312,0.20956,-0.109
0.08508,0.95459,-0.28551,-0.06858,-0.06451,0.04618
0.08508,0.95986,-0.26723,0.02333,-0.8366,0.46538
0.07662,0.96394,-0.25484,0.21161,-1.26548,0.55921
0.06142,0.96614,-0.25058,-0.09498,-1.31908,0.34225
0.06454,0.96731,-0.24523,-0.50233,-1.22532,0.21555
0.08921,0.96632,-0.24136,-0.65173,-1.24691,0.23047
0.13062,0.9617,-0.24094,-0.13593,-0.65328,0.32979
0.17821,0.95377,-0.24196,-0.46742,0.11135,0.63037
0.20901,0.93327,-0.29209,-0.9232,0.73813,0.64005
0.20387,0.92244,-0.32791,0.63169,1.26858,0.92284
0.17437,0.93803,-0.29947,0.10372,-0.75419,-0.57185
0.16075,0.94954,-0.26928,0.60486,-0.41652,-0.39318
0.15647,0.95839,-0.23873,0.9795,1.01758,-0.39861
0.15058,0.96785,-0.20144,0.95664,0.97557,-0.15599
0.14322,0.97894,-0.14541,0.72224,0.43915,-0.23815
0.12698,0.98824,-0.08513,0.51661,-0.33145,0.03229
0.11208,0.9932,-0.03128,0.16769,0.24298,0.19254
0.10406,0.99451,0.00996,-0.10809,0.47305,0.07638
0.09455,0.99463,0.04176,-0.76613,-0.03037,-0.05491
0.07551,0.99525,0.06133,-0.43581,-0.48599,0.08253
0.05601,0.99629,0.06512,-0.14249,-0.63758,0.2026
0.04942,0.99694,0.06049,0.16737,-1.38698,0.14638
0.05916,0.9972,0.04551,0.1201,-1.29461,0.14751
0.07828,0.99681,0.01486,-0.05105,-1.13713,0.10569
0.09654,0.99494,-0.02749,-0.35182,-0.906,0.16863
0.10573,0.99159,-0.07453,-0.41511,-0.74205,0.25846
0.10586,0.98715,-0.11964,-0.33082,-0.62805,0.50677
0.10935,0.97711,-0.18242,-0.29722,0.73671,-0.03775
0.14033,0.95699,-0.25391,0.42593,1.71419,-0.24299
0.16601,0.9375,-0.30581,0.32552,2.78518,-0.49302
0.16399,0.93192,-0.32345,0.37643,1.323,-0.32231
0.16927,0.92993,-0.32644,0.03452,0.7366,-0.42829
0.17623,0.92801,-0.32822,0.02756,0.73852,-0.42651
0.1709,0.9282,-0.33049,0.47894,0.15478,-0.30206
0.15046,0.93107,-0.33234,0.10724,0.21918,-0.18479
0.13207,0.93654,-0.32472,0.12564,0.21372,-0.19242
0.12865,0.94298,-0.30696,-0.08394,-0.24015,0.3083
0.12561,0.94858,-0.29054,0.07582,-1.31674,0.41302
0.10916,0.95197,-0.28605,0.09227,-1.32013,0.40853
0.09861,0.9532,-0.2858,-0.24137,-1.54571,0.41651
0.10948,0.95179,-0.28652,-0.5444,-1.19912,0.57982
0.1355,0.95006,-0.2811,-0.57042,-1.19739,0.57441
0.17137,0.947,-0.27166,-0.53222,0.61383,0.49098
0.20919,0.92612,-0.31388,-1.55746,3.90838,0.35265
0.22503,0.91496,-0.33496,-1.5733,3.91954,0.37373
0.21831,0.92254,-0.31818,-0.09546,-0.86477,-0.11819
0.19661,0.93325,-0.30063,0.69498,-0.06344,0.28082
0.17885,0.94596,-0.27048,0.69397,0.41665,0.14448
0.16296,0.96157,-0.22092,0.42693,1.26528,-0.44937
0.15062,0.97496,-0.16353,0.56639,0.15478,-0.59119
0.13797,0.98377,-0.11462,0.67619,-0.11883,-0.37037
0.13112,0.98917,-0.06578,0.50972,-0.22468,0.07434
0.12724,0.99174,-0.0158,0.17563,0.04076,-0.19177
0.11885,0.99276,0.01699,-0.41913,0.60664,-0.24468
0.10471,0.99393,0.03353,-0.21573,-0.67189,0.163
0.08657,0.99544,0.0398,-0.05118,-0.81505,0.22708
0.07899,0.99622,0.03598,0.11764,-1.18925,0.24655
0.08609,0.99598,0.02436,0.11494,-1.44242,0.04682
0.1022,0.99475,-0.00159,-0.2111,-1.02661,0.03298
0.11905,0.99205,-0.04059,-0.26918,-0.94496,0.15409
0.12968,0.98772,-0.08707,-0.36659,-0.765,0.37876
0.13544,0.98224,-0.12978,-0.27997,-0.50656,0.77488
0.14585,0.97046,-0.19212,-0.33518,-0.05707,0.35514
0.18372,0.94725,-0.2626,0.07603,1.82401,0.15466
0.22308,0.92617,-0.30403,0.30498,2.52861,-0.64839
0.22199,0.92323,-0.31362,0.36773,1.66864,-0.33323
0.21897,0.92469,-0.31142,0.0901,0.6632,-0.54204
0.21315,0.923,-0.32036,0.46222,0.57829,-0.39726
0.1923,0.92425,-0.32982,0.54771,0.52775,-0.31253
0.16506,0.92931,-0.33034,0.01576,0.28778,-0.46863
0.15526,0.93369,-0.32265,-0.09036,0.04614,0.18337
0.15263,0.94192,-0.29913,-0.06753,-0.13798,0.39415
0.13837,0.95044,-0.2784,-0.0481,-1.01352,0.34389
0.11429,0.95488,-0.27409,0.00802,-1.32883,0.262
0.1042,0.95537,-0.2764,-0.0499,-1.40404,0.29675
0.11962,0.95335,-0.27713,-0.47356,-1.16693,0.47852
0.14945,0.951,-0.27066,-0.39013,-0.86085,0.41454
0.18532,0.94865,-0.25633,-0.25138,-0.57928,0.42387
0.2177,0.94157,-0.25699,-0.67615,0.19743,0.49024
0.23426,0.92182,-0.30878,-1.01472,2.60737,0.04439
0.20805,0.92753,-0.31047,0.16111,2.64182,0.77602
0.18936,0.93781,-0.29093,0.54378,-0.25322,0.00564
0.18038,0.94902,-0.25847,0.61232,0.57408,-0.15327
0.17051,0.96039,-0.22038,0.68998,0.87381,-0.13544
0.15608,0.97265,-0.17196,0.46617,0.73528,-0.33955
0.14207,0.98292,-0.1169,0.59745,-0.07894,-0.13009
0.13615,0.98873,-0.06212,0.68448,-0.11254,0.0007
0.1362,0.99061,-0.01078,0.25734,0.15938,-0.06327
0.13069,0.99103,0.02769,-0.60521,0.51241,-0.13578
0.11772,0.99173,0.05091,-0.59224,0.5117,-0.15901
0.09962,0.99316,0.06069,-0.49111,-0.06883,-0.10509
0.08718,0.99442,0.05926,0.60512,-1.27768,0.47305
0.08659,0.9949,0.05162,0.04166,-1.48057,-0.11132
0.10053,0.99429,0.03545,-0.17157,-1.22032,0.09023
0.11639,0.99318,0.00552,-0.33163,-0.92868,0.01188
0.12875,0.99102,-0.03576,-0.32272,-0.63975,0.17025
0.1335,0.9879,-0.07876,-0.19786,0.007,0.31907
0.13462,0.98137,-0.13701,-0.26506,0.90111,-0.04117
0.15723,0.96366,-0.2159,0.10702,1.63254,0.49529
0.1972,0.94235,-0.27033,-0.1647,2.74733,-0.37278
0.1938,0.93752,-0.28892,0.15943,1.35081,-0.27884
0.18096,0.94039,-0.28794,0.24122,1.09553,-0.27146
0.1764,0.94104,-0.28864,0.18707,0.32581,-0.33361
0.16988,0.93963,-0.29703,0.17747,0.43876,-0.32866
0.15265,0.94119,-0.30141,0.16351,0.39869,-0.264
0.14186,0.94281,-0.3016,-0.15407,0.17567,-0.18599
0.13907,0.9467,-0.29051,-0.08853,-0.35915,0.32077
0.13801,0.95079,-0.27738,-0.02992,-0.754,0.40484
0.12502,0.95378,-0.27325,0.02391,-1.52752,0.3874
0.11711,0.95523,-0.27168,-0.29836,-1.5247,0.37346
0.12857,0.95477,-0.26809,-0.43477,-1.41715,0.40794
0.15345,0.95313,-0.26074,-0.42231,-1.08239,0.30996
0.18426,0.95005,-0.25185,-0.0951,-0.28559,0.29643
0.21013,0.9451,-0.25023,-0.12902,0.004,0.33131
0.23025,0.92186,-0.31168,-1.12516,2.1255,0.08695
0.20393,0.91586,-0.34582,0.66548,1.5166,1.35848
0.17889,0.9284,-0.32566,0.35024,-0.42694,0.80603
0.18069,0.93768,-0.2968,0.28618,0.58635,-0.17035
0.18449,0.94584,-0.26709,1.11985,1.46636,0.02614
0.17683,0.95802,-0.22565,0.77309,1.17008,-0.2341
0.16063,0.97237,-0.16937,0.66782,0.14008,-0.34079
0.14463,0.98301,-0.11291,0.87708,-0.03392,0.00975
0.14025,0.98843,-0.0576,0.67054,0.01021,0.00326
0.13047,0.99137,-0.01168,-0.49076,0.56072,-0.12986
0.11089,0.99365,0.01846,-0.66865,0.20804,-0.09117
0.08584,0.99577,0.03242,-0.52301,-0.24608,-0.13282
0.06283,0.99723,0.03961,0.03452,-1.08207,0.22138
0.05358,0.99779,0.03907,0.35751,-1.43855,0.22004
0.05878,0.99781,0.03,0.12704,-1.26914,0.09045
0.07281,0.99729,0.00952,-0.24275,-1.05492,0.02618
0.08509,0.99613,-0.02133,-0.36661,-0.90219,0.10122
0.09226,0.99399,-0.05874,-0.22772,-0.70763,0.63109
0.09461,0.99058,-0.09889,-0.19993,-0.12826,0.22666
0.1015,0.98072,-0.16694,0.4701,1.43809,0.52006
0.1379,0.96119,-0.23894,0.18768,1.75277,0.22949
0.15937,0.94412,-0.28849,0.0608,1.99808,-0.25114
0.1495,0.94184,-0.30097,0.18136,1.42756,-0.32626
0.14925,0.94186,-0.30103,0.1451,0.71661,-0.38377
0.15169,0.93874,-0.30943,0.16157,0.5072,-0.26577
0.14533,0.93665,-0.31867,-0.03506,0.40929,-0.22445
0.13895,0.93837,-0.31646,-0.10759,0.28154,-0.16227
0.13622,0.94209,-0.30644,-0.18918,-0.48977,0.03558
0.13607,0.94607,-0.29398,0.02809,-1.08666,0.43245
0.12597,0.95048,-0.2841,0.03819,-1.09107,0.42257
0.10884,0.95325,-0.2819,-0.30856,-1.58334,0.40206
0.10915,0.95446,-0.27764,-0.46599,-1.49005,0.54302
0.12846,0.95519,-0.26666,-0.40619,-1.13287,0.4392
0.15419,0.95588,-0.25002,-0.23306,-0.43894,0.18849
0.17512,0.9563,-0.23411,-0.17276,-0.01218,0.21528
0.18974,0.95446,-0.23021,-0.32893,0.12339,0.37106
0.20867,0.93127,-0.29863,0.00634,4.43084,0.83167
0.19547,0.91981,-0.3402,0.39784,-0.53837,0.57021
0.19553,0.93079,-0.30884,-0.16392,-1.25612,-0.45924
0.19763,0.9382,-0.28411,0.47527,0.46181,0.00733
0.1869,0.94507,-0.26812,1.24885,1.54942,0.22064
0.16602,0.9573,-0.23662,0.65004,1.27129,0.04145
0.15233,0.97199,-0.17893,0.24649,-0.29389,-0.23454
0.14382,0.98204,-0.12206,0.41797,-0.09742,0.23472
0.14669,0.98637,-0.07437,0.2005,0.02493,-0.04484
0.14785,0.98837,-0.03516,-0.55568,0.67021,-0.01895
0.13674,0.99053,-0.01156,-0.48562,0.10739,-0.10125
0.12164,0.99256,-0.00158,-0.28439,-0.34264,-0.05808
0.11359,0.99351,-0.00336,0.20908,-1.2619,0.29089
0.12116,0.99256,-0.01137,0.34855,-1.51354,0.26386
0.14078,0.98958,-0.02979,-0.08335,-1.251,0.13436
0.16162,0.98502,-0.05997,-0.35835,-0.95372,0.11824
0.17569,0.97927,-0.10072,-0.46007,-0.70763,0.24264
0.18002,0.97282,-0.14556,-0.36557,-0.37247,0.53396
0.18108,0.9636,-0.19665,-0.5826,0.77677,-0.16336
0.1971,0.94174,-0.27252,-0.20992,2.08408,0.1554
0.24112,0.914,-0.32626,-0.06732,2.7868,-0.36017
0.24651,0.90632,-0.34324,0.43174,1.21908,-0.40742
0.24196,0.90901,-0.33933,0.09858,0.93105,-0.53462
0.23819,0.91118,-0.33617,0.28484,0.71574,-0.44264
0.22999,0.91424,-0.33356,0.24089,0.32382,-0.55787
0.21364,0.91951,-0.32992,0.08927,0.25755,-0.27392
0.19279,0.92706,-0.32154,-0.2167,-0.11591,0.09871
0.18523,0.93517,-0.30189,-0.16731,-0.58882,0.29439
0.18533,0.94273,-0.2773,-0.15226,-1.35564,0.35709
0.1793,0.94772,-0.26394,-0.20452,-1.4495,0.3314
0.17507,0.94973,-0.25951,-0.32424,-1.43424,0.56774
0.18363,0.94937,-0.25487,-0.44388,-0.94049,0.405
0.20117,0.94839,-0.24511,-0.46143,-0.9395,0.39524
0.22183,0.94663,-0.23381,-0.15341,-0.30904,0.20658
0.24453,0.942,-0.22984,-1.11582,1.06922,0.28976
0.26858,0.91722,-0.2942,-1.13987,1.09399,0.35412
0.25762,0.90466,-0.33942,0.59614,1.01973,1.27805
0.24457,0.91793,-0.31238,-0.12837,-0.883,-0.35593
0.24146,0.92441,-0.29521,-0.12527,-0.88948,-0.3731
0.24051,0.92925,-0.28041,1.09817,1.69639,0.24141
0.22782,0.93945,-0.25594,0.18122,0.52579,-0.21531
0.22068,0.95249,-0.20989,0.16052,0.05943,-0.27535
0.21249,0.96324,-0.16432,0.22493,-0.1578,0.18732
0.21474,0.96908,-0.12143,-0.02439,0.13973,0.17891
0.22447,0.97094,-0.08289,-0.23544,0.35293,0.06698
0.22841,0.972,-0.05496,-0.93296,0.29591,0.03918
0.22432,0.97369,-0.03994,-0.75052,-0.41958,0.15851
0.21725,0.97551,-0.03415,-0.46546,-0.88742,0.19687
0.21636,0.97565,-0.03581,-0.00036,-1.43494,0.14689
0.22415,0.97345,-0.04606,0.03984,-1.2726,0.09004
0.24043,0.96825,-0.06833,-0.03875,-1.12335,0.16251
0.25854,0.96082,-0.09981,-0.24731,-0.83457,0.23993
0.27442,0.95183,-0.13669,-0.2911,-0.71909,0.26639
0.28749,0.94177,-0.17438,-0.29822,-0.65611,0.32759
0.30463,0.92988,-0.20616,-0.55796,0.48738,-0.09145
0.33324,0.90165,-0.27562,0.15421,2.25939,-0.27474
0.38833,0.85816,-0.33577,0.05056,3.36321,-0.46443
0.40703,0.8423,-0.35333,0.19597,1.03809,-0.4677
0.41662,0.83789,-0.35264,-0.09555,0.34606,-0.40033
0.42654,0.83013,-0.35907,-0.07305,0.46854,-0.42384
0.42863,0.82343,-0.37179,0.1042,0.50842,-0.40964
0.42139,0.82138,-0.38439,-0.1599,0.75073,-0.27427
0.40656,0.8287,-0.38465,-0.35948,0.62731,-0.28445
0.3894,0.84341,-0.37017,-0.25315,-0.14672,0.0819
0.38336,0.85996,-0.33688,-0.20375,-0.43204,0.14028
0.38769,0.87319,-0.29534,-0.38502,-0.84915,0.10056
0.3915,0.88338,-0.25759,-0.50344,-1.03045,0.18053
0.39768,0.88832,-0.22961,-0.48215,-1.16412,0.47324
0.41071,0.88768,-0.20814,-0.49518,-1.16349,0.45177
0.42202,0.88689,-0.1879,-0.37011,-0.74065,0.261
0.43071,0.88811,-0.1604,-0.4259,-0.50184,0.31422
0.44293,0.88627,-0.13533,-0.43812,-0.5,0.28915
0.46561,0.87164,-0.1531,-0.78583,3.4466,0.10163
0.4851,0.84949,-0.20744,0.21659,3.07774,0.78412
0.47866,0.85247,-0.21015,-0.05979,-0.28913,0.12014
0.4942,0.84638,-0.19847,-0.00414,0.40819,0.22609
0.49424,0.84894,-0.18712,-0.03524,1.52182,0.07484
0.47672,0.86217,-0.1714,-0.53498,1.12624,-0.00423
0.45674,0.87804,-0.1429,-0.041,0.35036,0.04422
0.4426,0.89033,-0.10677,0.44809,0.43422,0.2083
0.44122,0.89499,-0.06551,0.65451,0.49704,0.05377
0.44218,0.89665,-0.02189,-0.41517,-0.23288,0.2524
0.44567,0.89481,0.02593,-0.67043,0.0294,0.01522
0.43108,0.90034,0.05953,-0.6454,0.29179,0.06858
0.42036,0.90306,0.08812,-0.71781,0.36029,0.11495
0.41527,0.90179,0.11963,-0.49016,-0.47394,0.06521
0.4072,0.90286,0.13791,-0.05835,-0.68203,0.02802
0.38749,0.91064,0.14341,-0.08178,-0.93916,-0.04391
0.39455,0.90774,0.14255,0.04324,-1.02024,0.09513
0.41219,0.90175,0.13011,0.00127,-1.11453,0.13861
0.42534,0.89783,0.11387,-0.32482,-1.0004,-0.00353
0.43591,0.89488,0.09566,-0.40487,-0.95763,-0.03084
0.44774,0.89084,0.07687,-0.57025,-0.63654,0.01633
0.46608,0.88368,0.0431,-0.45145,0.7775,-0.1269
0.49533,0.86869,-0.00391,-0.09219,1.30674,-0.15053
0.5294,0.84761,-0.03565,0.39875,2.09184,-0.77841
0.53885,0.84078,-0.05203,0.16046,1.46273,-1.06844
0.53784,0.83926,-0.07969,-0.08726,1.32701,-0.86006
0.53997,0.83524,-0.10382,0.12735,0.94511,-0.6584
0.53969,0.83468,-0.1097,0.15715,0.33399,-0.90249
0.53187,0.83964,-0.11002,-0.08654,0.29066,-0.97395
0.50916,0.85309,-0.11389,-0.11321,0.10336,-0.77775
0.48016,0.87001,-0.11185,-0.33013,0.31651,-0.62997
0.45514,0.88531,-0.09521,-0.4149,0.07139,-0.50941
0.43181,0.89981,-0.06218,-0.40182,-0.09508,-0.54814
0.40865,0.91233,-0.02521,-0.37922,-0.61132,-0.15302
0.38712,0.92195,0.01081,-0.30983,-0.87883,-0.0264
0.36888,0.92829,0.04677,-0.30575,-0.97751,-0.07082
0.35744,0.93058,0.07902,-0.42762,-0.98554,-0.03762
0.34978,0.93109,0.10345,-0.48892,-0.83034,0.05748
0.34248,0.93122,0.12453,-0.48079,-0.72007,0.09094
0.33503,0.93101,0.14472,-0.4663,-0.42751,0.22982
0.32748,0.93263,0.15144,-0.81165,0.12173,-0.12529
0.3225,0.93831,0.12469,-0.70289,0.65714,-0.20095
0.30637,0.94624,0.10366,0.1831,0.49079,0.31229
0.29631,0.94883,0.10907,0.14528,-0.37146,-0.04832
0.28983,0.94876,0.12584,0.29857,-0.54179,-0.48864
0.26883,0.95295,0.13999,0.01628,0.66772,-0.4072
0.24155,0.95716,0.15958,0.26293,1.02488,-0.57215
0.2201,0.95661,0.19088,0.64165,0.85252,-0.6715
0.21123,0.94913,0.23348,0.99165,0.47096,-0.61356
0.21457,0.9357,0.27998,0.69142,-0.01797,-0.47829
0.21887,0.91924,0.3272,0.37814,-0.17547,-0.41011
0.2116,0.90615,0.36619,-0.38967,0.40243,-0.37594
0.19725,0.89737,0.39469,-0.56023,0.63354,-0.7069
0.18426,0.88954,0.41802,-0.75294,0.27712,-0.58629
0.16581,0.88768,0.42954,-0.34129,-0.04773,-0.6723
0.14119,0.89615,0.42065,0.23339,-0.84011,-0.20559
0.12714,0.90482,0.40633,0.24744,-0.84878,-0.19127
0.13042,0.90963,0.39438,0.20947,-1.22609,-0.1607
0.1458,0.91535,0.3753,-0.4309,-1.09055,-0.24261
0.16318,0.92356,0.34697,-0.44827,-1.09876,-0.21427
0.1782,0.93511,0.30624,-0.36906,-0.40253,-0.22603
0.18946,0.94999,0.2482,-0.30442,0.9748,-0.20216
0.19415,0.96429,0.1801,-0.30911,0.9605,-0.13406
0.194,0.97419,0.11528,0.14908,1.99736,-0.55782
0.17388,0.98247,0.06707,0.38213,1.21637,-0.41807
0.1575,0.9869,0.03481,0.20528,1.17055,-0.65368
0.15608,0.98765,0.01329,0.18427,0.94476,-0.77941
0.15252,0.98828,-0.00523,0.29135,0.72103,-0.69575
0.13921,0.99018,-0.01204,0.22847,0.45501,-0.58828
0.12195,0.99251,-0.00498,-0.16205,-0.10515,-0.46731
0.10491,0.99442,0.01049,-0.15029,-0.30948,-0.3477
0.08986,0.99539,0.0331,-0.0595,-0.48714,-0.21641
0.07489,0.9953,0.06122,0.04779,-1.1557,-0.13181
0.05192,0.99524,0.08233,-0.12857,-1.37081,-0.17676
0.02975,0.99585,0.08583,-0.17633,-1.40743,-0.13141
0.02144,0.99703,0.07389,-0.34913,-1.22977,-0.00068
0.02978,0.99792,0.05691,-0.30438,-1.13298,0.08801
0.05363,0.9973,0.04988,-0.12482,-1.04325,0.10248
0.08325,0.99488,0.05713,0.12185,-0.36144,0.16136
0.11407,0.99164,0.06008,-0.8381,0.54929,-0.06995
0.14531,0.9893,0.01208,-0.79763,1.73673,-0.39527
0.13204,0.99123,0.00068,-0.04112,0.0368,-0.08973
0.10254,0.99469,0.00776,0.36504,-0.26834,-0.56948
0.07974,0.9966,0.02051,0.47944,0.36412,-0.22193
0.06812,0.99664,0.04523,0.56365,1.18382,-0.30081
0.0551,0.99489,0.08447,0.45445,0.7176,-0.62199
0.04442,0.99033,0.13137,0.6022,0.43628,-0.60051
0.0378,0.98338,0.17753,0.72521,0.02395,-0.19188
0.04004,0.97373,0.22411,0.3131,0.04715,-0.18552
0.04098,0.96298,0.2664,-0.01094,0.20177,-0.29052
0.03256,0.95456,0.29618,-0.54219,0.35749,-0.47747
0.0162,0.9514,0.30748,-0.24415,-0.23686,-0.35951
0.0021,0.9516,0.3073,-0.01904,-0.61624,-0.28643
-0.0028,0.95352,0.30126,0.29362,-1.29869,-0.04354
0.0039,0.95668,0.29108,0.04377,-1.3397,-0.06835
0.02086,0.96118,0.27509,0.02681,-1.34421,-0.05236
0.03973,0.96775,0.24872,-0.31527,-0.93957,-0.22722
0.05608,0.97574,0.21156,-0.17327,-0.55524,0.19945
0.06523,0.98307,0.17114,-0.18241,-0.56257,0.23987
0.0726,0.99125,0.11017,-0.00796,1.41639,-0.11262
0.0934,0.99504,0.03384,-0.22585,1.8072,-0.14491
0.11531,0.99288,-0.02955,-0.1028,2.47672,-0.67101
0.1016,0.99313,-0.05793,0.64292,1.26594,-0.52564
0.08978,0.99402,-0.06202,0.2365,0.39288,-0.61532
0.08826,0.99399,-0.06456,0.16166,0.40878,-0.69772
0.08066,0.99417,-0.07143,0.07984,0.5863,-0.62695
0.06552,0.99532,-0.07096,0.00523,0.25644,-0.36657
0.05202,0.99687,-0.05945,0.01033,0.13238,-0.19181
0.0444,0.99824,-0.03907,0.06368,-0.87182,0.14566
0.03761,0.99919,-0.01343,0.11625,-1.28983,0.06939
0.02337,0.99967,0.00997,0.05992,-1.3877,-0.04714
0.01099,0.99965,0.02382,-0.26922,-1.28611,-0.08545
0.01419,0.99957,0.02543,-0.32692,-1.12457,-0.02256
0.03011,0.9994,0.01648,-0.24535,-1.0807,-0.00951
0.06088,0.99806,0.0126,0.08413,-0.49107,0.10838
0.0988,0.99497,0.01592,-0.59035,0.24189,0.32208
0.13528,0.99045,-0.02648,-1.25215,1.3014,-0.02075
0.1323,0.9894,-0.05981,0.63233,-0.00674,0.38961
0.10011,0.99428,-0.03702,0.25963,-0.98985,-0.7973
0.08366,0.99638,-0.01453,0.29299,-0.36193,-0.38981
0.07852,0.99688,0.00703,1.30919,1.8178,-0.21161
0.06155,0.99712,0.04407,0.68209,0.94882,-0.66963
0.04323,0.99403,0.10005,0.68333,0.36571,-0.71832
0.02958,0.98764,0.15389,0.69718,-0.26156,-0.14212
0.02941,0.97805,0.20625,0.50439,-0.19899,-0.08221
0.0312,0.9666,0.25436,-0.33528,0.27509,-0.26918
0.02197,0.95682,0.28982,-0.57836,0.31,-0.41341
0.00365,0.95147,0.3077,-0.34653,-0.29868,-0.33101
-0.01404,0.94929,0.31407,-0.16456,-0.52419,-0.25958
-0.02182,0.95026,0.31066,0.2638,-1.24269,0.0645
-0.01601,0.95332,0.30149,0.15311,-1.27905,-0.12503
0.00198,0.95894,0.28355,-0.14918,-1.09745,-0.15297
0.02119,0.96685,0.25441,-0.38998,-0.76908,-0.38948
0.03535,0.9763,0.21346,-0.29012,-0.51422,0.00634
0.03623,0.98468,0.1705,-0.03833,-0.17635,0.15247
0.03586,0.99389,0.10432,0.16211,1.51515,0.00755
0.0553,0.99804,0.02891,0.43178,2.66634,-0.34877
0.0625,0.99785,-0.01926,0.13185,2.74763,-0.50882
0.05008,0.99833,-0.02862,0.24058,1.12686,-0.42483
0.04481,0.99881,-0.01874,-0.04594,0.4248,-0.68463
0.04128,0.99895,-0.01952,0.01762,0.4172,-0.59045
0.02862,0.99923,-0.02661,0.06774,0.42265,-0.52233
0.01706,0.99939,-0.03036,0.0632,0.0006,0.08376
0.02536,0.99939,-0.02376,0.0549,0.0006,0.07715
0.03469,0.99935,-0.00916,0.15122,-1.52742,0.0566
0.03185,0.99948,-0.0024,-0.07607,-1.53807,0.12162
0.02863,0.99956,0.00597,-0.07285,-1.53815,0.11325
0.03098,0.99944,0.01181,-0.41124,-1.48537,0.2291
0.04315,0.99889,0.01835,-0.40568,-1.31409,0.17374
0.05547,0.99803,0.02916,-0.16298,-0.84814,-0.11384
0.06973,0.99699,0.03361,0.12805,0.10091,-0.27768
0.0879,0.99586,0.02282,-1.04623,0.74848,-0.17498
0.113,0.99176,-0.06021,-0.96314,2.59918,-0.43806
0.09095,0.99117,-0.09642,0.38494,-0.91451,0.075
0.07115,0.99591,-0.05547,-0.02638,-1.11321,-0.94266
0.07503,0.99695,-0.02122,-0.11473,-0.14796,-0.65324
0.07059,0.9975,-0.00144,1.54172,1.95844,0.01459
0.04759,0.99817,0.03719,0.55748,0.40285,-0.49199
0.02756,0.99448,0.10118,0.53004,-0.1116,-0.57365
0.01648,0.98628,0.16417,0.4333,-0.03276,-0.15667
0.02068,0.97531,0.21983,-0.07987,0.33481,-0.37141
0.02379,0.96545,0.25947,-0.40631,0.48333,-0.36599
0.00895,0.95896,0.28337,-0.49122,-0.13628,-0.34334
-0.01541,0.95609,0.29264,-0.03971,-0.58229,-0.17514
-0.0363,0.95623,0.29032,0.38756,-1.18536,0.06425
-0.04372,0.95797,0.28347,0.34498,-1.36833,-0.13044
-0.03595,0.96301,0.26702,0.0011,-1.20634,-0.16712
-0.02354,0.97012,0.24145,-0.19979,-0.94409,-0.27187
-0.01398,0.9782,0.20713,-0.13417,-0.70071,0.16535
-0.01162,0.98537,0.16996,0.0096,-0.22666,0.05304
-0.00838,0.99334,0.11482,0.32856,1.38839,0.13089
0.01512,0.99879,0.04661,-0.11557,2.47263,-0.35168
0.03191,0.99947,-0.00565,0.01952,1.91794,-0.45685
0.02461,0.99952,-0.01823,0.22353,1.53698,-0.48281
0.01929,0.99977,-0.00784,0.24229,0.73465,-0.69152
0.01864,0.99981,-0.0041,0.33891,0.59933,-0.59785
0.00966,0.9999,-0.00903,0.29837,0.5167,-0.51885
0.00623,0.99993,-0.0091,-0.01682,0.13471,-0.2889
0.01142,0.99992,-0.00248,-0.04346,-0.34019,0.07437
0.01832,0.99981,0.00447,0.0453,-0.67578,0.17831
0.01985,0.99978,0.00617,0.06867,-1.53663,0.25825
0.01148,0.99991,0.00619,-0.12043,-1.77444,0.12728
0.00997,0.99991,0.00794,-0.43717,-1.56909,0.33434
0.02118,0.9996,0.0185,-0.44936,-1.30509,0.33098
0.03514,0.99875,0.03526,-0.13887,-0.34043,-0.26191
0.05194,0.99775,0.0423,-0.15567,-0.33942,-0.26895
0.07094,0.99701,0.03043,-0.0997,0.07962,0.21341
0.10175,0.99436,-0.02982,-0.10998,3.7988,0.23508
0.11076,0.98965,-0.09119,-0.11899,3.8035,0.29645
0.07802,0.99515,-0.05981,0.18455,-1.41173,-0.7661
0.06926,0.99748,-0.01486,0.22969,0.64713,-0.4955
0.06475,0.99784,0.01025,0.23421,0.64677,-0.52061
0.05035,0.99774,0.04431,1.33371,1.494,-0.33413
0.03707,0.99401,0.10276,0.4627,-0.0853,-0.57392
0.02491,0.98642,0.16232,0.47486,-0.07771,-0.63348
0.02309,0.97695,0.21216,0.05495,0.16898,-0.35392
0.02701,0.96692,0.25361,0.45912,0.58221,0.30806
-0.00806,0.96563,0.25977,-0.62095,0.04546,-1.63455
-0.01543,0.95825,0.28548,-0.11321,-0.81729,-0.01971
-0.01986,0.95602,0.29259,0.47362,-1.05023,0.21591
-0.02328,0.95614,0.29195,0.37996,-1.28686,0.03167
-0.01313,0.95915,0.28256,-0.08372,-1.03969,-0.15885
0.0034,0.96564,0.25985,-0.26922,-0.80334,-0.24972
0.0191,0.97403,0.22557,-0.31285,-0.7237,-0.18719
0.02722,0.98202,0.18675,-0.03119,-0.41841,0.46497
0.02756,0.98966,0.14071,-0.07906,-0.01496,0.06312
0.04071,0.99708,0.06444,0.32394,1.58983,0.3262
0.0718,0.99741,-0.00292,-0.1475,2.49164,-0.54836
0.07018,0.99682,-0.03742,0.11163,1.30478,-0.44634
0.05812,0.99746,-0.04086,0.16777,0.97521,-0.38473
0.05505,0.99773,-0.03866,0.16914,0.38737,-0.61265
0.04936,0.99769,-0.04654,0.23261,0.46958,-0.48278
0.03454,0.99791,-0.05453,0.10419,0.4661,-0.46213
0.02209,0.99835,-0.05291,-0.05158,0.17199,-0.14747
0.02113,0.99887,-0.04242,0.06543,-0.52122,0.22306
0.02356,0.9993,-0.02876,0.15036,-0.91658,0.30542
0.01477,0.99967,-0.0204,0.24276,-1.58377,0.10547
-0.00374,0.99988,-0.01454,-0.07115,-1.61156,0.03556
-0.00528,0.99992,-0.01039,-0.24874,-1.49805,0.07449
0.00997,0.99992,-0.00688,-0.4094,-1.22145,0.08548
0.03554,0.99936,-0.00112,0.0064,-0.57939,0.01066
0.06786,0.99769,0.0016,0.02345,-0.0998,0.02457
0.10043,0.9938,-0.04759,-1.27662,2.44053,-0.31385
0.10685,0.98853,-0.10667,0.93551,1.40718,0.98945
0.06759,0.99343,-0.09223,0.55127,-0.63891,0.42612
0.05106,0.99682,-0.061,0.20367,-0.25581,-0.23928
0.04896,0.99842,-0.02721,0.86618,0.99231,-0.5794
0.03818,0.99922,0.00959,1.3278,1.70058,-0.4036
0.02221,0.99766,0.0645,0.65096,0.18801,-0.59537
0.00805,0.99237,0.12298,0.71612,-0.20857,-0.2427
0.00363,0.98343,0.18119,0.35723,0.03128,-0.12922
0.00293,0.97269,0.23205,-0.21406,0.30162,-0.30339
-0.00558,0.96311,0.26903,-0.52812,-0.06223,-0.43159
-0.0255,0.95721,0.28824,-0.50821,-0.05633,-0.45081
-0.04676,0.95544,0.29142,0.14716,-0.7885,-0.02323
-0.05654,0.95633,0.28673,0.33023,-1.39826,-0.00345
-0.05093,0.95918,0.27815,0.21842,-1.34608,-0.07896
-0.03455,0.9654,0.25846,-0.23466,-0.95046,-0.24488
-0.0176,0.97364,0.22738,-0.19623,-0.71268,-0.00637
-0.00398,0.9821,0.18825,-0.11388,-0.58725,0.33559
0.00508,0.99025,0.13917,-0.25804,0.10318,-0.06025
0.02261,0.9977,0.06385,0.03313,1.55623,0.40133
0.0538,0.99853,-0.00581,-0.29584,1.75864,0.26491
0.05696,0.99727,-0.04686,0.34024,1.44772,-0.44437
0.04589,0.99729,-0.05736,0.39108,1.21351,-0.55203
0.04805,0.99705,-0.05979,0.30689,0.57697,-0.65149
0.0515,0.9961,-0.07155,0.28724,0.50468,-0.48277
0.04161,0.99575,-0.08211,0.0657,0.39843,-0.41196
0.03083,0.99623,-0.08098,0.0719,0.21451,-0.37899
0.03037,0.99683,-0.07341,0.13815,-0.52776,0.20353
0.03341,0.99768,-0.0592,0.08083,-1.19052,0.22271
0.02112,0.99857,-0.04901,0.06113,-1.48097,0.18344
0.00448,0.99901,-0.04415,-0.3435,-1.67483,0.02969
0.00659,0.99908,-0.04227,-0.43907,-1.50021,0.28223
0.02451,0.99882,-0.04182,-0.39258,-1.34502,0.28709
0.04999,0.99825,-0.03137,0.0526,-0.48412,0.11158
0.07746,0.99683,-0.01785,-0.45261,0.58554,0.12647
0.11075,0.9912,-0.07235,-1.00515,1.82165,-0.53768
0.1086,0.98867,-0.1036,0.64234,0.13411,0.42325
0.0737,0.99396,-0.08127,0.38992,-0.93431,-0.69426
0.05202,0.99723,-0.05299,0.54139,-0.21557,-0.39299
0.04076,0.99893,-0.02131,1.20751,1.29246,-0.22294
0.03356,0.99915,0.02344,0.56561,0.66524,-0.44092
0.03016,0.9959,0.08522,0.30407,0.17662,-0.48639
0.02084,0.9891,0.14567,0.22917,-0.0265,-0.0937
0.01046,0.98012,0.19807,-0.07548,0.20883,-0.23551
0.00275,0.97026,0.24202,-0.31693,0.07123,-0.35396
-0.01376,0.96192,0.27296,-0.33345,-0.161,-0.45147
-0.03429,0.95715,0.28751,0.04646,-0.64644,-0.17037
-0.04725,0.95589,0.28985,0.29954,-1.1137,0.06691
-0.04626,0.95699,0.28637,0.22039,-1.32143,-0.05717
-0.0308,0.96134,0.27361,-0.04348,-1.09675,-0.23447
-0.01082,0.96885,0.24737,-0.19176,-0.78736,-0.3502
0.00534,0.9778,0.20944,-0.06766,-0.47882,0.21729
0.01648,0.9864,0.16346,-0.05815,1.15592,-0.10472
0.03332,0.99568,0.08654,0.24536,1.75256,0.61532
0.06419,0.99782,0.01475,-0.0944,2.06947,-0.25845
0.06991,0.99724,-0.02473,-0.22697,1.69313,-0.328
0.06395,0.99724,-0.03747,0.04265,1.32393,-0.52303
0.06472,0.99692,-0.04411,0.18833,0.61145,-0.53165
0.06991,0.99588,-0.05762,0.28968,0.29469,-0.39249
0.0621,0.99533,-0.07386,0.17326,0.26848,-0.31771
0.04965,0.9955,-0.08057,-0.07686,0.30093,-0.2276
0.04426,0.99634,-0.07303,0.0753,-0.39801,0.08483
0.04433,0.99731,-0.05817,0.19015,-0.84753,0.16677
0.037,0.99801,-0.05083,0.14526,-1.68165,0.14025
0.02149,0.99837,-0.05277,-0.20369,-1.717,0.11618
0.0251,0.99826,-0.05314,-0.3522,-1.64899,0.1817
0.04675,0.99768,-0.04935,-0.5295,-1.41171,0.17499
0.07475,0.99644,-0.03875,-0.00757,-0.31576,-0.09304
0.10036,0.99467,-0.02304,-0.02234,-0.04714,-0.04089
0.12058,0.9921,-0.03431,-1.33756,2.33634,-0.41615
0.12725,0.98413,-0.12359,0.92827,2.50226,1.53441
0.07748,0.98997,-0.11803,0.53565,-0.66963,0.53999
0.07098,0.9947,-0.07424,-0.00669,-0.64279,-0.78407
0.07929,0.99588,-0.04378,1.22993,1.03577,-0.72803
0.07605,0.99689,-0.02014,2.09838,1.84266,-0.24627
0.0605,0.99783,0.02573,0.39286,0.25818,-0.41613
0.04414,0.99457,0.09409,0.46369,-0.09151,-0.19343
0.0377,0.98706,0.15579,0.34862,0.09691,-0.16704
0.0363,0.97874,0.20181,-0.46945,0.30875,-0.31535
0.02472,0.97158,0.23536,-0.57948,0.27689,-0.39487
0.00093,0.96694,0.25496,-0.4832,-0.21073,-0.34496
-0.02536,0.96567,0.25848,0.37244,-1.20807,0.05062
-0.03849,0.96606,0.25538,0.49199,-1.3565,0.02772
-0.03462,0.96837,0.24705,0.43812,-1.38877,-0.03084
-0.01974,0.97375,0.22672,-0.1506,-1.05373,-0.2075
-0.00446,0.98069,0.19548,-0.27386,-0.77813,-0.26484
0.00725,0.98788,0.15496,-0.25123,-0.67258,-0.07362
0.01027,0.99324,0.11553,0.06198,-0.26546,0.44755
0.01527,0.99829,0.05625,-0.21785,0.38391,-0.09871
0.05113,0.99852,-0.0182,0.4536,1.96625,0.20097
0.07745,0.99425,-0.07383,-0.0303,2.15568,-0.46147
0.06886,0.99373,-0.08798,0.01245,1.0115,-0.37784
0.06533,0.99456,-0.08101,-0.06862,0.66344,-0.49452
0.07007,0.99405,-0.08328,0.45086,0.36712,-0.51342
0.06356,0.9936,-0.09326,0.32788,0.50515,-0.62192
0.05223,0.99412,-0.09478,0.29068,0.4013,-0.56237
0.04627,0.99507,-0.08766,0.06944,-0.0888,0.00364
0.04759,0.99629,-0.07152,0.09853,-0.79407,0.29676
0.0446,0.99737,-0.05704,0.11263,-1.21003,0.35722
0.02809,0.99847,-0.04744,-0.05769,-1.75834,0.06191
0.02126,0.99905,-0.0378,-0.37288,-1.59716,0.21407
0.03092,0.9991,-0.02866,-0.48119,-1.48915,0.28904
0.04774,0.9987,-0.01744,-0.32696,-0.86923,0.06544
0.07104,0.99746,-0.00406,0.05377,0.04244,-0.112
0.09372,0.99559,0.00228,0.10788,-0.01539,0.00569
0.12266,0.99088,-0.05564,-1.48868,2.09686,-0.48575
0.11479,0.9875,-0.10796,0.90671,2.03425,1.48374
0.08331,0.99351,-0.07734,0.3759,-1.55886,-0.79431
0.08011,0.99608,-0.03712,0.17883,-0.09395,-0.63287
0.08307,0.99648,-0.00995,1.41316,1.31617,-0.62636
0.07609,0.99679,0.02448,1.80576,1.78344,-0.251
0.06621,0.99431,0.08337,0.50901,-0.2382,-0.38531
0.05676,0.98749,0.14705,0.47101,0.03429,-0.07124
0.05786,0.97736,0.20346,0.22083,0.1517,-0.29802
0.05971,0.96849,0.24173,-0.49411,0.30453,-0.2705
0.04884,0.96355,0.26299,-0.62636,-0.3842,-0.26131
0.02778,0.96192,0.27188,-0.37026,-0.59221,-0.25197
0.00883,0.96288,0.26973,0.21912,-1.03562,0.0421
0.00478,0.96475,0.26309,0.23701,-1.34008,-0.08211
0.01792,0.96919,0.24561,0.06141,-1.22053,-0.12513
0.03628,0.97594,0.21493,-0.25659,-0.95022,-0.12724
0.05372,0.98315,0.17465,-0.32825,-0.65314,-0.02678
0.06282,0.98945,0.13048,-0.25012,-0.58269,0.30618
0.06413,0.99464,0.08094,-0.20651,0.80519,-0.1919
0.0805,0.99675,0.00072,0.37694,1.60914,0.22793
0.11779,0.9911,-0.06182,0.00198,2.9978,-0.58021
0.11634,0.98945,-0.08619,0.2486,1.26734,-0.4714
0.10284,0.99149,-0.07975,0.1765,0.73968,-0.46938
0.09822,0.99224,-0.07613,-0.06268,0.27247,-0.64659
0.08695,0.99232,-0.08787,0.18864,0.53652,-0.4643
0.07171,0.99289,-0.09491,-0.04455,0.5231,-0.39716
0.06336,0.99396,-0.08955,0.06001,0.23673,-0.17325
0.0686,0.99508,-0.07137,-0.10664,-0.52079,0.20143
0.07243,0.99597,-0.05272,0.09807,-1.31256,0.33233
0.06318,0.99685,-0.04765,0.17273,-1.55055,0.23137
0.05335,0.99764,-0.04305,-0.3254,-1.63082,0.0691
0.05966,0.99755,-0.0364,-0.53768,-1.43471,0.20626
0.07538,0.99682,-0.0255,-0.56061,-1.29031,0.17878
0.0964,0.9953,-0.00775,0.0654,-0.27976,0.11269
0.11829,0.99296,0.00341,-0.44382,0.48142,0.27155
0.14547,0.98742,-0.06184,-1.08466,1.31873,-0.27052
0.1335,0.98733,-0.08565,0.68671,0.39166,0.53023
0.09464,0.9938,-0.0582,0.4064,-1.06375,-0.81866
0.08027,0.99642,-0.0261,0.4593,-0.41666,-0.53986
0.07641,0.99706,0.00474,1.39662,1.43684,-0.31241
0.07321,0.99619,0.04726,0.73905,0.67891,-0.42307
0.06705,0.99215,0.10548,0.42278,0.12916,-0.51059
0.05458,0.98534,0.1616,0.19944,-0.05916,-0.13738
0.0447,0.97634,0.21152,-0.30152,0.15867,-0.25819
0.03727,0.96713,0.25149,-0.29409,0.16788,-0.29815
0.01907,0.96091,0.27614,-0.39134,-0.22221,-0.41434
-0.00112,0.95827,0.28583,-0.08267,-0.58044,-0.20953
-0.01282,0.95869,0.28414,0.16395,-0.81263,0.05776
-0.01202,0.96046,0.27813,0.22867,-1.32415,-0.0561
0.00078,0.96524,0.26131,-0.21909,-1.0544,-0.23276
0.0161,0.97268,0.23156,-0.29813,-0.88492,-0.30709
0.02802,0.98129,0.19042,-0.24289,-0.57054,-0.11465
0.0273,0.98887,0.14617,0.14689,0.02465,0.04053
0.02117,0.99655,0.08011,-0.07638,1.0555,-0.17631
0.04627,0.99892,-0.00048,0.22078,2.27636,0.11717
0.06961,0.99616,-0.05296,-0.27427,2.92875,-0.40747
0.06097,0.9962,-0.06213,0.04108,1.65021,-0.47886
0.05432,0.99721,-0.05105,0.18933,0.4667,-0.49085
0.05292,0.99744,-0.04788,0.26243,0.20402,-0.56685
0.03997,0.99775,-0.05364,0.23032,0.29621,-0.47956
0.02697,0.99827,-0.05206,0.24034,0.23002,-0.30679
0.02294,0.9988,-0.04305,0.17309,-0.59926,0.1219
0.02187,0.99912,-0.03566,0.06771,-0.87151,0.11385
0.0192,0.99928,-0.03254,-0.04163,-1.7498,0.16722
0.01801,0.99936,-0.03074,-0.21376,-1.80079,0.11791
0.03195,0.99918,-0.02461,-0.47485,-1.59946,0.29124
0.05572,0.9984,-0.00815,-0.28517,-1.1818,0.04118
0.07491,0.99711,0.0117,-0.0593,-0.23581,-0.19558
0.08815,0.9959,0.01983,-0.16198,0.05897,-0.11834
0.11062,0.99326,-0.03426,-1.06063,2.1323,-0.6061
0.12856,0.98571,-0.10877,1.06809,1.56547,1.12575
0.09867,0.99083,-0.09221,0.55776,-0.56311,0.25178
0.08606,0.99473,-0.05563,0.47859,0.45623,-0.46605
0.07706,0.99673,-0.02397,1.24693,1.37037,-0.27141
0.06664,0.99766,0.01461,1.23006,1.37296,-0.1565
0.06062,0.99551,0.07255,0.33106,-0.10405,-0.50069
0.04781,0.98999,0.1327,0.42823,-0.01961,-0.13975
0.03516,0.98236,0.18358,0.26684,0.20741,-0.24302
0.02693,0.97495,0.22073,-0.41067,0.21949,-0.28763
0.00949,0.96966,0.24421,-0.45988,-0.00554,-0.3279
-0.01329,0.96678,0.25521,-0.07407,-0.68428,-0.20543
-0.02933,0.96681,0.25375,0.29528,-1.12601,0.03815
-0.03111,0.96818,0.24826,0.28853,-1.35496,-0.05029
-0.01748,0.97244,0.23245,0.13775,-1.29619,-0.08981
0.00101,0.97888,0.20438,-0.23506,-0.92042,-0.20937
0.01658,0.98598,0.16599,-0.12233,-0.56529,0.21011
0.02345,0.99182,0.12541,0.06014,-0.41375,0.4055
0.02603,0.99746,0.0662,-0.00343,1.12376,-0.06662
0.04571,0.99889,-0.01073,0.30326,2.23778,0.03173
0.06234,0.99626,-0.0597,0.10638,2.88658,-0.51397
0.0616,0.99534,-0.07411,0.04908,1.34579,-0.47742
0.06291,0.99567,-0.06827,0.07521,0.38296,-0.52754
0.06925,0.99534,-0.0669,0.06887,0.38329,-0.52891
0.06243,0.9953,-0.07393,0.19892,0.24001,-0.43594
0.04538,0.99598,-0.07708,-0.06437,0.24634,-0.46715
0.03846,0.99619,-0.07817,0.36834,-0.30491,0.5001
0.04204,0.99655,-0.07143,-0.1738,-0.8677,0.26127
0.0381,0.9976,-0.05767,0.04879,-1.56355,0.07655
0.025,0.99832,-0.05204,0.06189,-1.56427,0.07092
0.02756,0.9983,-0.05121,-0.36072,-1.47616,0.32982
0.04651,0.9979,-0.04495,-0.30663,-1.2051,0.13745
0.07035,0.99714,-0.02717,-0.14053,-1.0206,-0.01861
0.09481,0.99547,-0.00623,-0.09427,-0.07933,0.17293
0.1176,0.99291,-0.01654,-1.45183,1.92066,-0.66897
0.13605,0.98486,-0.10734,-0.05521,4.58908,0.04029
0.0954,0.99046,-0.09931,0.63064,-0.41799,0.40021
0.07874,0.99527,-0.05674,0.14371,-0.39079,-0.66622
0.08104,0.99638,-0.02526,0.455,0.4204,-0.51287
0.07793,0.99695,0.00225,1.18594,1.43448,-0.0814
0.07362,0.99575,0.05512,0.20601,-0.07249,-0.42208
0.06038,0.9907,0.12186,0.19778,-0.39124,-0.33237
0.04675,0.98188,0.1836,-0.1162,0.19239,-0.19675
0.03847,0.97205,0.23157,-0.26958,0.22986,-0.25365
0.02617,0.96354,0.26624,-0.41423,0.18314,-0.34397
0.00519,0.95835,0.28551,-0.25958,-0.39722,-0.29424
-0.01445,0.95712,0.2893,0.20369,-0.92925,0.04585
-0.02151,0.95745,0.28776,0.34034,-1.21781,0.09429
-0.01233,0.96052,0.27789,0.07399,-1.22427,-0.12529
0.00531,0.96699,0.25471,-0.18567,-1.09895,-0.18912
0.02149,0.97568,0.21807,-0.34722,-0.65122,-0.23808
0.02904,0.98457,0.17248,-0.01141,-0.37538,0.55547
0.02675,0.99316,0.11351,-0.12284,0.88542,-0.23942
0.03797,0.99881,0.03012,0.27831,1.73156,0.44949
0.06201,0.99751,-0.03336,-0.2677,2.15757,-0.4853
0.06005,0.996,-0.06609,-0.02331,1.20586,-0.50836
0.05135,0.99596,-0.07346,0.10186,1.00269,-0.43632
0.05437,0.99545,-0.07807,0.1643,0.4508,-0.57139
