gravity.x,gravity.y,gravity.z,userAcceleration.x,userAcceleration.y,userAcceleration.z
-0.13388,0.97275,0.18929,-0.68337,-0.08336,0.09387
-0.14764,0.95755,0.24757,0.61706,-1.70285,-1.62051
-0.15603,0.95179,0.2641,1.11828,-0.76128,-1.887
-0.15941,0.9498,0.26921,1.09537,-0.41267,-1.29156
-0.17231,0.95508,0.24112,0.47326,-0.73481,-0.43037
-0.18407,0.96463,0.18868,0.17224,-0.99507,-0.78591
-0.17764,0.97231,0.15183,-0.12602,-0.67095,-0.58374
-0.1708,0.97786,0.12085,0.16467,-0.37937,-0.97648
-0.17869,0.98211,0.05945,0.41649,0.09609,-0.02923
-0.20349,0.97852,-0.03294,0.5101,0.47164,0.0698
-0.20627,0.96951,-0.13229,0.71725,1.81738,-0.04045
-0.17558,0.9581,-0.22633,0.812,2.8808,0.04073
-0.13632,0.93223,-0.3352,-0.46349,3.47278,0.43183
-0.08711,0.89608,-0.43526,-1.35106,2.53564,0.48307
-0.04095,0.8651,-0.49993,-0.03609,0.78694,0.79256
-0.01439,0.83488,-0.55024,0.85849,0.80115,1.20249
-0.05764,0.78895,-0.61174,1.00709,0.05907,1.12291
-0.09941,0.75131,-0.65243,-0.69371,-1.19291,1.59331
-0.14228,0.73791,-0.65973,-0.51414,-1.47255,1.81471
-0.18233,0.74284,-0.64417,-0.18752,-2.16621,2.29018
-0.19965,0.76361,-0.61403,-0.15087,-2.1533,2.40021
-0.17791,0.79592,-0.57867,-0.31606,-1.70748,1.94198
-0.12686,0.8429,-0.52291,-0.01146,-0.422,0.62111
-0.08786,0.89754,-0.43208,1.17792,1.32053,-2.72534
-0.02198,0.92139,-0.38801,1.54919,3.33055,-3.80995
-0.01732,0.92504,-0.37947,0.74815,-0.25816,0.88596
0.00355,0.92446,-0.38127,0.28294,-2.137,2.34396
0.08685,0.90121,-0.42458,-0.27393,-1.37357,1.75145
0.1324,0.90001,-0.41528,-1.67165,1.64611,2.15562
0.0976,0.93528,-0.34017,-1.70167,-0.10528,1.29963
0.06156,0.95243,-0.29847,-1.18491,-0.33685,1.10267
-0.01979,0.96705,-0.25383,-0.3434,0.56391,2.1737
-0.09835,0.97841,-0.18176,0.11492,2.42827,2.00715
-0.14843,0.98416,-0.09691,0.39186,3.6346,1.54317
-0.14796,0.98511,0.0875,-0.40398,2.55177,-4.77754
-0.14639,0.96595,0.21332,-0.39681,1.01316,-1.79174
-0.1229,0.97158,0.20231,-0.26788,0.23507,-0.02901
-0.14747,0.95463,0.2587,-0.55652,-1.93238,-1.28495
-0.16201,0.93698,0.30956,1.04353,-0.97393,-2.15942
-0.1682,0.93214,0.32066,1.29059,-0.49704,-1.83857
-0.20532,0.93432,0.29135,0.8055,-0.76435,-0.81203
-0.23374,0.94283,0.23756,0.38213,-0.99907,-0.78981
-0.23397,0.95193,0.19772,0.2531,-0.7795,-0.55056
-0.22402,0.95977,0.16928,0.58631,-0.3453,-0.91197
-0.22134,0.96979,0.10255,0.60583,-0.27078,-0.18693
-0.22198,0.97501,0.00824,0.5331,0.07506,0.08493
-0.20088,0.97578,-0.08655,0.70865,2.53334,-0.34655
-0.16571,0.96813,-0.18781,0.87955,3.92238,-0.55324
-0.12661,0.93974,-0.31757,-0.45511,3.99614,0.19579
-0.09754,0.8964,-0.43237,-1.45585,1.96939,0.74626
-0.05209,0.85588,-0.51454,-0.41649,0.94505,0.97405
-0.02062,0.82331,-0.56721,1.25763,1.09592,1.55989
-0.09674,0.75452,-0.64911,1.18843,0.92512,1.47884
-0.16578,0.69786,-0.69678,-1.12062,-0.94657,1.754
-0.21053,0.67938,-0.70294,-0.79175,-1.93809,2.13763
-0.22579,0.68992,-0.68777,-0.22048,-2.84532,2.71528
-0.21174,0.72684,-0.65335,-0.1889,-2.41155,2.59896
-0.17047,0.77775,-0.60501,-0.38342,-1.49719,1.72852
-0.11966,0.83311,-0.54001,-0.09863,-0.42782,0.75563
-0.07498,0.88966,-0.45043,1.68203,2.55608,-3.72108
-0.00152,0.90946,-0.41578,1.42288,3.20919,-2.93924
0.00792,0.91405,-0.40553,0.99412,0.35332,0.23166
0.04428,0.91315,-0.4052,-0.13377,-0.24641,1.52799
0.12402,0.89159,-0.43554,-1.03297,1.21341,-0.28213
0.14333,0.90446,-0.40174,-1.37389,0.81917,1.5787
0.12877,0.93127,-0.3408,-1.56416,-0.85628,2.04533
0.06156,0.96168,-0.26718,-1.22249,-0.45193,2.02461
-0.01457,0.97474,-0.22288,-0.65212,0.76321,1.8051
-0.10079,0.97938,-0.17509,-0.46032,2.93273,1.90264
-0.1506,0.98812,-0.0307,1.53013,5.16813,-2.56891
-0.15542,0.9715,0.17895,-0.17463,2.30293,-4.88865
-0.11957,0.9755,0.18468,-0.13575,0.16096,0.10695
-0.11225,0.96518,0.23628,-0.30001,-0.7249,-0.15192
-0.12655,0.94821,0.29134,0.97841,-1.4819,-1.87104
-0.11756,0.94446,0.30687,1.40415,-0.86838,-2.12792
-0.10784,0.94757,0.30079,1.25862,-0.69963,-1.68318
-0.1103,0.9613,0.25247,-0.17548,-0.79821,-0.54043
-0.11321,0.97367,0.19785,-0.53915,-0.67799,-0.50126
-0.11079,0.98399,0.13962,-0.61809,-0.40803,-0.83208
-0.11324,0.9915,0.06414,0.08057,0.24341,-0.06334
-0.14338,0.9892,-0.03029,0.4961,1.4444,-0.19594
-0.16867,0.97662,-0.13326,0.63689,2.28876,-0.22474
-0.15622,0.95929,-0.23528,-0.14009,2.70724,0.32256
-0.12389,0.92711,-0.35372,-1.2641,3.68672,0.47375
-0.09243,0.88761,-0.45123,-1.31055,2.44415,0.54045
-0.04754,0.85448,-0.51731,0.25639,0.85964,1.08855
-0.04144,0.82144,-0.56879,2.08487,1.13216,1.12159
-0.12083,0.7507,-0.6495,1.88078,0.90559,1.18056
-0.18598,0.70084,-0.68864,-0.42727,-1.29095,1.74145
-0.23458,0.68553,-0.68921,-0.21175,-1.99297,2.14609
-0.24644,0.69597,-0.67446,-0.16018,-2.31882,2.35761
-0.21643,0.73317,-0.64469,-0.41014,-1.99426,2.16825
-0.15566,0.78449,-0.60029,-0.37502,-1.66485,1.96815
-0.09467,0.83901,-0.53582,-0.05618,-0.34837,0.55785
-0.0516,0.89019,-0.45266,0.65729,0.78253,-1.5028
-0.00198,0.89857,-0.43882,1.44878,2.68691,-2.84713
0.00377,0.8982,-0.43958,0.80981,-0.22977,1.23929
0.05669,0.89567,-0.44109,-0.61145,-0.0437,1.33594
0.14404,0.87873,-0.45507,-1.25796,0.86762,0.20765
0.16,0.89172,-0.42335,-1.99525,0.61671,1.27865
0.13444,0.92667,-0.351,-2.19162,-0.11338,2.0882
0.08129,0.95941,-0.27004,-1.2064,-0.01959,1.54455
-0.00415,0.97464,-0.22375,-0.60889,1.09732,1.70123
-0.09547,0.97745,-0.18836,-0.05327,3.63197,1.57191
-0.15472,0.98756,-0.02808,1.7329,4.44773,-1.7592
-0.14575,0.97369,0.17519,0.00348,1.84268,-4.87119
-0.10042,0.97815,0.18201,-0.0164,0.54602,-0.3429
-0.0943,0.96746,0.23479,-0.32682,-1.48487,-1.11489
-0.09945,0.95173,0.29036,0.38607,-1.42741,-1.7642
-0.08441,0.95006,0.30043,1.06193,-0.57988,-2.04126
-0.08353,0.95284,0.29173,0.87214,-0.56921,-1.22673
-0.0932,0.96494,0.24537,0.15715,-0.71491,-0.67516
-0.09146,0.97683,0.19347,-0.33997,-0.85733,-0.46137
-0.08927,0.9852,0.14631,-0.04263,-0.47239,-0.62144
-0.09355,0.99228,0.0814,0.16934,-0.37979,-0.58332
-0.11022,0.9939,-0.00245,0.44314,0.31387,-0.22063
-0.13811,0.98572,-0.0964,0.54042,1.58808,-0.14217
-0.14505,0.9699,-0.1956,0.57287,2.45295,-0.12859
-0.12883,0.94618,-0.2969,-0.46113,3.50788,0.36744
-0.09938,0.90998,-0.40258,-0.7182,3.09512,0.41463
-0.06167,0.87169,-0.48616,-0.93884,2.15096,0.54113
-0.03017,0.83512,-0.54924,0.4728,0.8647,1.04547
-0.08483,0.77848,-0.62192,1.66259,1.00375,1.30463
-0.15981,0.71285,-0.68287,0.46188,0.20569,1.36068
-0.2042,0.68138,-0.70286,-0.523,-1.17996,1.78455
-0.23863,0.67725,-0.69598,-0.21608,-2.00392,2.31168
-0.24107,0.70116,-0.67101,-0.16858,-2.27126,2.39163
-0.20862,0.74547,-0.63304,-0.21857,-2.04877,2.2992
-0.15485,0.79426,-0.58751,-0.25161,-1.56555,1.68277
-0.11126,0.85052,-0.51404,-0.22252,-0.45138,0.66449
-0.06865,0.90553,-0.41869,1.87274,2.40708,-3.94015
-0.01316,0.91538,-0.40238,1.03279,1.29304,-1.16895
0.00741,0.92395,-0.38243,0.56685,0.14268,0.55713
0.08284,0.91171,-0.40241,-0.82817,0.72749,1.21398
0.13228,0.89392,-0.42826,-0.88533,0.23099,1.26788
0.15331,0.89358,-0.42191,-1.30743,-0.62887,1.63059
0.10522,0.93225,-0.34618,-1.85963,-0.20102,2.91356
0.05356,0.95652,-0.28671,-0.96542,0.23412,1.62541
-0.01534,0.96701,-0.25427,-0.80752,1.15823,1.70677
-0.08659,0.9722,-0.21753,-0.1976,4.47007,-0.51101
-0.1514,0.98845,-0.00614,0.99172,3.6827,-3.16551
-0.13198,0.97919,0.1542,-0.06895,2.77202,-4.83332
-0.10819,0.97647,0.18655,0.00918,0.23984,-0.37942
-0.12697,0.95865,0.25469,0.57382,-1.2518,-0.94094
-0.14433,0.94672,0.28789,0.94272,-1.1039,-1.66112
-0.12108,0.9411,0.31571,1.33658,-0.70143,-2.25513
-0.08634,0.94684,0.30991,0.37523,-0.60223,-1.15038
-0.09393,0.9611,0.25975,-0.49105,-0.91135,-0.72308
-0.10875,0.97269,0.20506,-0.47661,-0.77823,-0.46139
-0.12018,0.98178,0.14722,-0.317,-0.61787,-0.45891
-0.132,0.98845,0.07449,-0.01731,-0.19675,-0.24374
-0.16185,0.98677,-0.009,0.19969,0.44415,-0.22134
-0.20031,0.97473,-0.09891,0.61586,2.09662,-0.13732
-0.21691,0.95483,-0.20308,0.51311,2.84149,-0.11487
-0.20261,0.92657,-0.3169,-0.63429,3.06588,0.41581
-0.17762,0.88884,-0.42239,-1.27951,2.37778,0.21107
-0.14653,0.84951,-0.50681,-0.44823,1.04485,0.40975
-0.14128,0.81149,-0.56704,1.17456,1.05993,1.35012
-0.18442,0.75617,-0.62785,2.01666,0.95145,0.78227
-0.25762,0.70028,-0.66576,-0.08868,-0.2411,1.4737
-0.3099,0.67504,-0.66954,-0.28437,-1.05567,1.76108
-0.33835,0.67339,-0.65732,0.12446,-2.46922,2.58208
-0.31855,0.7026,-0.63631,0.16469,-2.43502,2.42273
-0.26807,0.75238,-0.60171,0.11025,-1.92876,2.02958
-0.19894,0.80796,-0.55463,0.0307,-0.84694,1.24639
-0.14086,0.8644,-0.48267,0.07044,-0.21226,0.29221
-0.08545,0.90711,-0.41214,1.1068,2.79614,-3.24263
-0.05909,0.90799,-0.41482,0.62029,0.57519,-0.805
-0.04491,0.91149,-0.40886,0.3529,-0.26227,0.89498
0.02789,0.89231,-0.45056,-1.01167,0.76552,-0.12774
0.06261,0.87854,-0.47354,-1.10932,0.54809,1.52401
0.08233,0.89332,-0.44181,-0.97597,-0.39573,1.68008
0.05012,0.94662,-0.31843,-1.14535,-0.16296,2.69329
0.0116,0.9736,-0.22799,-0.84012,0.43796,2.09723
-0.06351,0.97886,-0.19444,-0.52125,1.28872,1.72538
-0.13861,0.97825,-0.15434,0.00418,5.14573,0.23413
-0.16248,0.98568,0.0452,1.10968,4.15086,-3.90372
-0.15034,0.9736,0.17173,-0.77091,1.63599,-4.50848
-0.13359,0.97676,0.16758,0.18401,-0.36753,0.16994
-0.14848,0.96801,0.20227,0.44688,-0.95066,0.26475
-0.17984,0.95583,0.23247,0.59771,-1.65627,-0.79469
-0.18945,0.94675,0.26032,0.99962,-1.03164,-1.2974
-0.17124,0.94054,0.29337,0.96694,-0.8226,-1.38947
-0.13752,0.94759,0.28839,0.37676,-0.55452,-1.24626
-0.13858,0.95976,0.24426,-0.31895,-0.9353,-0.33119
-0.15497,0.96823,0.19625,-0.23045,-0.49245,-0.57926
-0.16391,0.9765,0.13994,0.05423,-0.08267,-0.61542
-0.17682,0.98207,0.06542,0.37728,0.56823,-0.10828
-0.20062,0.97937,-0.02432,0.50705,1.07975,0.05512
-0.19738,0.97274,-0.12173,0.59544,1.86492,0.05226
-0.17611,0.95895,-0.22224,-0.20317,3.04581,0.33861
-0.14553,0.93189,-0.33228,-1.38076,3.69162,0.41492
-0.12498,0.89996,-0.41767,-1.38215,1.05432,0.59376
-0.07687,0.87406,-0.47969,0.25213,0.59186,1.18323
-0.05411,0.84369,-0.5341,1.30041,0.80022,1.38231
-0.08579,0.79744,-0.59727,0.68915,-0.087,0.97059
-0.11815,0.76131,-0.63753,-0.66949,-1.02712,1.30165
-0.15129,0.74916,-0.64487,-0.28789,-1.66625,1.59789
-0.17246,0.76067,-0.62581,0.0004,-2.1784,2.00546
-0.17406,0.79023,-0.58757,0.04079,-2.15292,2.18104
-0.15433,0.82686,-0.54082,-0.24938,-1.94356,1.78014
-0.12818,0.86395,-0.48699,-0.18155,-0.74322,0.83758
-0.1015,0.90043,-0.42301,0.08932,0.26931,-0.53152
-0.04334,0.90437,-0.42455,1.40182,3.13683,-3.43559
-0.02289,0.89991,-0.43548,0.41088,0.3794,-0.94743
0.00645,0.90051,-0.43478,0.50918,-1.71054,2.10606
0.08186,0.8779,-0.4718,-0.9593,0.05173,0.68991
0.07365,0.90414,-0.42084,-1.63795,1.28582,3.27375
0.10305,0.91145,-0.39831,-1.01841,0.3214,1.63712
0.08519,0.93016,-0.35712,-0.87706,-0.40343,1.26065
0.018,0.96084,-0.27651,-0.73636,0.57859,2.30578
-0.04963,0.97227,-0.22855,0.17637,1.2799,2.0132
-0.1231,0.97415,-0.18944,0.26812,1.98185,1.70683
-0.15912,0.98467,-0.07139,1.2772,4.78115,-2.11611
-0.14863,0.97831,0.14429,-0.42069,1.5263,-4.10698
-0.11653,0.98223,0.14713,-0.23279,1.0343,-1.31537
-0.10126,0.98286,0.15403,0.15732,-0.93216,-0.27032
-0.12049,0.97053,0.20869,0.46093,-1.61311,-1.15888
-0.13192,0.95852,0.25265,0.68219,-1.76013,-1.82342
-0.11864,0.95377,0.27613,0.989,-1.15195,-1.48669
-0.12313,0.95888,0.25572,0.23024,-0.93729,-0.39427
-0.13351,0.96324,0.23312,0.0814,-0.88806,-0.45376
-0.12862,0.96857,0.21288,-0.21736,-0.55633,-0.96841
-0.12286,0.97886,0.16351,0.02419,-0.32014,-0.30839
-0.13165,0.98718,0.0902,0.12722,-0.28874,-0.0098
-0.14815,0.98894,0.00767,0.28367,0.4879,0.25649
-0.14685,0.98546,-0.0855,0.51013,2.77348,-0.1484
-0.13103,0.97596,-0.17418,0.31531,2.63633,-0.27731
-0.11156,0.96051,-0.25491,-0.74915,3.74184,0.40109
-0.09392,0.93522,-0.34138,-1.12056,0.9546,0.48668
-0.05614,0.90619,-0.41912,-0.91295,0.63038,0.76077
-0.04416,0.8779,-0.4768,0.04392,0.55937,1.13636
-0.07183,0.83757,-0.54158,1.02858,0.64572,1.02384
-0.10823,0.79388,-0.59836,0.0534,-0.0106,1.00344
-0.15156,0.76929,-0.62066,-0.38587,-0.90075,1.55013
-0.18245,0.76697,-0.6152,-0.02954,-2.08836,1.96831
-0.19765,0.78265,-0.59025,0.07204,-2.34739,2.33608
-0.17828,0.81384,-0.55306,-0.05431,-2.27857,1.94583
-0.13775,0.85373,-0.50217,-0.11121,-0.48849,0.36963
-0.10039,0.89832,-0.42772,-0.14858,-0.53308,0.29518
-0.04427,0.91783,-0.39451,1.58618,2.71487,-3.81518
-0.02521,0.92166,-0.38719,1.07425,0.71744,-0.1375
-0.00196,0.91866,-0.39505,-0.40077,-1.22441,2.24695
0.05914,0.88872,-0.45462,-0.95761,0.15778,0.67914
0.04508,0.90965,-0.41292,-1.55973,1.01758,2.38213
0.05542,0.92285,-0.38115,-0.98191,-0.16679,1.57448
0.03992,0.93919,-0.34106,-0.87989,-0.18675,1.30448
-0.01818,0.95865,-0.28401,-0.51714,0.41966,1.74974
-0.0879,0.96841,-0.23335,-0.06711,1.17389,1.91034
-0.14906,0.97458,-0.16724,0.20809,2.36497,1.48765
-0.1593,0.98708,-0.01711,1.20186,3.82499,-1.80615
-0.16157,0.97479,0.15389,-0.22733,2.114,-5.9352
-0.14125,0.97994,0.14057,-0.0279,0.86018,-0.89055
-0.13006,0.98272,0.13169,0.15927,-0.65376,0.03188
-0.14883,0.97398,0.17091,0.19921,-1.31155,-0.0763
-0.17343,0.95986,0.22042,0.4398,-1.81559,-1.68111
-0.17935,0.95069,0.25302,0.95527,-0.91989,-1.58778
-0.18547,0.95668,0.22442,0.75579,-0.87215,-0.93609
-0.19159,0.96533,0.17727,0.14559,-0.66669,-0.7479
-0.19115,0.97278,0.131,-0.17511,-0.66643,-0.38762
-0.19304,0.97833,0.07481,-0.14985,-0.29509,-0.43698
-0.20957,0.97778,-0.00556,0.24841,0.23275,0.00449
-0.21679,0.97165,-0.09436,0.80031,2.2056,0.17514
-0.19277,0.96345,-0.18604,0.78522,2.7839,-0.09492
-0.14873,0.94912,-0.27759,-0.18803,3.108,0.30312
-0.10072,0.92566,-0.3647,-1.43601,1.86535,0.26486
-0.06384,0.89804,-0.43525,-1.37341,1.01161,0.55753
-0.0427,0.86302,-0.50337,-0.29931,0.50712,1.00201
-0.05182,0.8352,-0.5475,1.47415,0.54998,1.25346
-0.08366,0.79138,-0.60557,0.46275,0.07523,1.11494
-0.11845,0.76021,-0.63878,-0.6797,-0.75582,1.4782
-0.15122,0.75285,-0.64058,-0.35796,-1.98688,1.81825
-0.17097,0.76712,-0.6183,-0.07137,-2.26979,2.12053
-0.16478,0.79858,-0.5789,-0.08053,-2.24853,2.12725
-0.12566,0.83851,-0.5302,-0.19237,-1.5479,0.99877
-0.09331,0.88426,-0.45757,-0.22067,-0.9043,0.63729
-0.06664,0.92122,-0.38328,1.62105,2.24531,-4.41022
-0.01993,0.9192,-0.39327,1.03742,2.01785,-2.03857
-0.01593,0.92296,-0.38458,0.67467,-0.52295,1.44293
0.0342,0.90468,-0.42471,0.12756,-0.6886,2.20673
0.08246,0.88107,-0.46575,-1.12062,0.43189,1.42585
0.10675,0.8786,-0.46547,-1.14491,0.43435,1.42556
0.08398,0.89866,-0.43054,-1.43501,-0.27939,1.82067
0.01062,0.93506,-0.35433,-1.29245,0.27817,2.18543
-0.03974,0.95394,-0.29735,-0.56437,0.56468,1.43016
-0.09485,0.96183,-0.25667,-0.45894,1.11663,1.4901
-0.15736,0.96658,-0.20237,-0.1754,3.15297,0.95074
-0.19255,0.98127,-0.00487,1.53789,3.94025,-1.35243
-0.19973,0.9719,0.12458,0.08159,1.46081,-4.69488
-0.16599,0.98121,0.09832,0.26746,0.47727,-0.55888
-0.1564,0.98273,0.09885,0.42465,-0.65377,0.12032
-0.17269,0.97615,0.13159,0.43854,-1.33808,-0.09287
-0.19059,0.96715,0.16823,0.50794,-1.78703,-1.5325
-0.19475,0.9587,0.2073,0.88202,-0.91324,-1.4383
-0.19882,0.95829,0.20531,0.67116,-0.78812,-0.93342
-0.19955,0.96514,0.16934,0.24272,-0.73815,-0.49858
-0.19423,0.973,0.12463,-0.03341,-0.54915,-0.69678
-0.19069,0.97889,0.07358,0.11206,-0.0698,-0.47337
-0.19645,0.9805,-0.00499,0.66928,0.6245,0.21428
-0.18199,0.97854,-0.09663,0.82353,1.57422,-0.16526
-0.1429,0.97298,-0.18138,0.62631,1.8636,-0.14423
-0.09119,0.95686,-0.27587,-0.55194,3.15619,0.43114
-0.04478,0.93453,-0.35306,-1.9408,3.74794,0.38519
-0.00622,0.90738,-0.42026,-1.81552,1.08781,0.32932
0.02863,0.8703,-0.49169,-0.6044,0.68134,1.07801
0.01786,0.83745,-0.54622,0.62811,0.69786,1.24172
-0.01787,0.79261,-0.60946,0.96853,0.69941,1.14448
-0.08351,0.74515,-0.66165,-0.51671,-1.16097,1.48265
-0.14126,0.72401,-0.67517,-0.43811,-1.45985,1.61392
-0.17972,0.72703,-0.66266,0.09709,-2.15179,1.92795
-0.18947,0.75394,-0.62903,0.26495,-2.20757,2.21707
-0.16194,0.80097,-0.57639,0.05511,-2.19298,1.57274
-0.1246,0.854,-0.50512,-0.13988,-0.56714,0.39988
-0.08798,0.90155,-0.42364,0.81104,1.69555,-3.47844
-0.0304,0.90686,-0.42034,0.90089,2.83416,-3.78089
-0.02888,0.91447,-0.40363,0.43023,-0.40984,1.06767
0.00169,0.90854,-0.4178,-0.46489,-0.64933,1.76297
0.04932,0.8938,-0.44574,-1.31371,2.25294,1.14664
0.0732,0.89531,-0.43938,-1.17377,0.48948,1.56525
0.08027,0.89888,-0.43077,-0.9998,-0.23003,1.78599
0.02766,0.92446,-0.38027,-0.93757,0.2457,2.09111
-0.022,0.94191,-0.33515,-0.46078,0.61221,1.79087
-0.07331,0.95231,-0.29618,-0.12374,1.77925,1.29907
-0.12266,0.96432,-0.23461,0.12369,2.34258,0.84282
-0.14399,0.98744,-0.06496,1.23288,3.11244,-0.64049
-0.13958,0.98749,0.07333,0.09631,0.81315,-2.50013
-0.11986,0.99006,0.07352,0.11618,0.56508,-0.74079
-0.10297,0.99294,0.05883,0.09767,-0.94393,0.16657
-0.10916,0.99034,0.0855,0.08014,-1.34494,-0.47773
-0.133,0.98321,0.12492,0.07088,-1.62641,-1.3054
-0.1511,0.97486,0.16376,0.786,-0.92791,-0.96761
-0.16643,0.9766,0.13619,0.58463,-0.9777,-0.14567
-0.17638,0.98003,0.09183,0.30741,-0.67519,-0.42184
-0.17515,0.9831,0.05327,0.05967,-0.53147,-0.66953
-0.18045,0.98358,-0.00255,0.03609,-0.1577,-0.00134
-0.1947,0.97776,-0.07789,0.41058,0.96038,0.33394
-0.18798,0.96947,-0.15741,0.61435,1.93209,0.43289
-0.15048,0.95769,-0.24534,-0.06845,2.54819,0.50768
-0.09704,0.94025,-0.32636,-1.13839,2.65074,0.37603
-0.06082,0.92501,-0.37505,-1.2078,0.9994,0.26708
-0.02921,0.91005,-0.41347,-0.2866,0.34419,0.43535
0.00441,0.89182,-0.45236,0.47788,0.53053,0.7852
-0.00124,0.87038,-0.49238,0.56394,0.29724,1.09231
-0.01398,0.84585,-0.53323,-0.14892,-0.37749,0.9044
-0.04044,0.82264,-0.56713,-0.43031,-1.04612,1.33857
-0.06722,0.81395,-0.57704,-0.23306,-1.67468,1.49066
-0.07772,0.8207,-0.56604,-0.07953,-1.9744,1.74187
-0.07052,0.83978,-0.53832,-0.1898,-1.73964,1.35813
-0.05783,0.86565,-0.4973,-0.08705,-1.30357,0.59708
-0.04745,0.8921,-0.44933,0.09563,-0.72188,-0.4353
-0.03585,0.90644,-0.4208,0.88834,1.79322,-3.89779
-0.00412,0.89374,-0.44857,0.69278,0.81007,-0.15919
-0.00278,0.88908,-0.45774,-0.00517,-0.01147,2.21571
0.02581,0.85323,-0.52089,-1.37975,4.24424,-0.75171
0.05249,0.8466,-0.52963,-0.75377,0.37103,1.91421
0.11837,0.83125,-0.54314,-0.68157,-0.74545,1.6246
0.12419,0.85588,-0.50204,-1.02252,-0.32043,1.7451
0.10296,0.87936,-0.46488,-0.72775,0.4637,1.57224
0.07276,0.8905,-0.44913,-0.59678,1.20598,1.11772
0.02136,0.90188,-0.43145,-0.40992,1.39939,0.48747
-0.0493,0.93846,-0.34185,0.40596,1.20114,-0.3001
-0.07376,0.97547,-0.20742,0.78653,1.19253,-1.17611
-0.06425,0.98205,-0.17731,0.46793,1.28304,-1.09034
-0.06024,0.9879,-0.14292,-0.10764,0.44463,-0.50877
-0.07141,0.99346,-0.08914,-0.34647,-0.54621,-0.76203
-0.08989,0.99467,-0.05049,-0.27841,-0.8428,-0.59795
-0.11213,0.99298,-0.03759,0.08378,-1.15596,-0.35067
-0.13496,0.99021,-0.03565,0.13328,-1.28077,-0.35163
-0.15456,0.98719,-0.03971,0.13498,-1.15521,-0.33869
-0.16433,0.98469,-0.05819,0.04496,-0.75922,-0.32349
-0.17288,0.98044,-0.09407,-0.26182,-0.51424,-0.26965
-0.18813,0.97225,-0.13904,-0.11671,-0.23635,0.02207
-0.20632,0.95896,-0.19451,0.61052,1.5735,0.46038
-0.20613,0.9396,-0.27326,0.80645,2.4553,-0.0261
-0.17185,0.92254,-0.34554,0.29724,1.49084,0.42529
-0.1299,0.90342,-0.40861,-0.32455,1.45362,0.4834
-0.10371,0.88797,-0.44805,-1.0418,0.78016,0.50507
-0.07882,0.87655,-0.47482,-1.01586,0.53518,0.54525
-0.0356,0.86475,-0.50094,-0.08104,0.43687,0.51151
-0.01154,0.84822,-0.52951,0.36558,0.22717,0.9101
-0.02064,0.83333,-0.55239,0.48327,0.204,1.05868
-0.02114,0.82789,-0.5605,0.21082,-0.30532,0.9275
-0.0255,0.82081,-0.57063,-0.02714,-0.81309,1.09045
-0.04542,0.81565,-0.57677,-0.0523,-1.14112,1.11945
-0.05859,0.81476,-0.57683,-0.03239,-1.19051,1.09016
-0.05487,0.8213,-0.56786,-0.1085,-1.16318,0.87886
-0.05504,0.83409,-0.54888,-0.23092,-1.05008,0.44765
-0.07733,0.85244,-0.51708,-0.12649,-0.63341,-0.5555
-0.15696,0.88083,-0.44666,0.38786,-0.09987,-2.73656
-0.24689,0.86483,-0.43717,-0.2536,1.66271,-0.90812
-0.24254,0.8444,-0.47767,-0.34192,1.61611,1.1571
-0.24034,0.79626,-0.55517,-0.88516,1.33361,0.70502
-0.2771,0.75839,-0.58997,0.84674,-0.00076,3.05732
-0.29601,0.73559,-0.60933,0.95592,0.38802,2.31819
-0.29389,0.73197,-0.61469,0.91972,0.55492,0.98462
-0.30678,0.74615,-0.59089,0.65462,1.09757,0.54116
-0.31763,0.76509,-0.56013,0.24247,0.88239,0.62694
-0.32585,0.77923,-0.53537,0.03784,0.4912,0.79781
-0.33415,0.79791,-0.50168,-0.0319,0.41544,0.5609
-0.34624,0.82056,-0.45475,0.01454,0.37502,0.41681
-0.35439,0.84317,-0.40431,0.11008,0.33006,0.19796
-0.3585,0.8638,-0.35402,0.15866,0.148,0.12775
-0.36368,0.88017,-0.30502,0.33208,-0.11726,0.19472
-0.37075,0.89203,-0.2585,0.34076,-0.19762,0.14305
-0.37732,0.90065,-0.21553,0.32472,-0.21529,0.09628
-0.38342,0.90774,-0.17028,0.25627,-0.22641,0.03274
-0.39002,0.91306,-0.11918,0.19965,-0.26246,-0.11039
-0.39752,0.91517,-0.06667,0.2337,-0.22944,-0.22418
-0.40583,0.91369,-0.02158,0.29975,-0.10197,-0.33744
-0.41378,0.91029,0.01264,0.29039,0.14034,-0.42064
-0.42113,0.90638,0.03368,0.26817,0.22897,-0.42076
-0.42933,0.90206,0.04418,0.11162,0.23952,-0.29483
-0.43782,0.89776,0.04838,0.00554,0.10476,-0.31419
-0.44579,0.89383,0.04835,0.02549,-0.01796,-0.31715
-0.45964,0.88754,0.03163,-0.46453,0.1674,-0.9068
-0.48931,0.8721,-0.00227,-0.29755,0.29616,-0.30699
-0.52832,0.84858,-0.02799,0.06548,0.33881,-0.0896
-0.56166,0.82316,-0.0833,1.07107,1.28113,0.45286
-0.56909,0.80763,-0.1545,1.86103,1.92151,0.65119
-0.54704,0.81436,-0.1938,2.09971,1.39979,0.63595
-0.51226,0.82835,-0.22674,2.039,-0.07665,0.43608
-0.46207,0.84788,-0.25998,0.97738,0.5004,0.38891
-0.42062,0.86458,-0.27493,0.5369,0.73178,0.56436
-0.39407,0.87578,-0.27876,0.37518,0.68096,0.45563
-0.37484,0.89112,-0.25573,0.52271,0.36684,0.30833
-0.35429,0.90784,-0.22429,0.35855,0.19782,0.34991
-0.33184,0.9223,-0.19812,0.39727,0.15237,0.40967
-0.31012,0.93598,-0.16663,0.55958,0.07411,0.47176
-0.29647,0.94385,-0.14578,0.50583,-0.05236,0.30744
-0.2929,0.94541,-0.14284,0.16546,-0.15693,0.18653
-0.29371,0.94446,-0.14741,0.09156,-0.17262,0.22245
-0.29909,0.942,-0.15225,-0.05209,0.02367,0.39626
-0.30005,0.94085,-0.15737,-0.18224,0.028,0.23028
-0.29427,0.94165,-0.16337,-0.19338,-0.12038,0.08311
-0.28486,0.94387,-0.16723,-0.06974,-0.23719,0.02967
-0.27171,0.9473,-0.16969,0.05487,-0.21938,0.00409
-0.2558,0.95156,-0.17057,0.25251,-0.19877,-0.08611
-0.23711,0.95654,-0.16976,0.43419,-0.25245,-0.22018
-0.2173,0.96161,-0.1676,0.51776,-0.23923,-0.49878
-0.20297,0.96541,-0.16368,0.6768,-0.36967,-0.81736
-0.19464,0.9679,-0.15899,0.31527,-0.67541,-0.30525
-0.19074,0.97064,-0.14651,-0.24744,-1.07465,0.01848
-0.18218,0.9763,-0.11684,-0.27229,0.018,0.12252
-0.17066,0.98373,-0.05605,0.1386,1.84824,0.59133
-0.17889,0.98309,-0.03923,0.23727,0.13783,0.67123
-0.19417,0.98053,-0.02941,-0.05539,0.45496,0.67335
-0.2236,0.97463,-0.00937,-0.16907,0.61471,0.66162
-0.25988,0.96561,0.00786,-0.24128,0.59628,0.33658
-0.28945,0.95671,0.03038,0.05695,0.44614,0.09088
-0.30769,0.94895,0.06939,0.19735,0.42486,0.07888
-0.30867,0.94184,0.13285,0.44421,0.10698,0.10308
-0.2881,0.93247,0.21794,0.30345,-0.19936,-0.0187
-0.25284,0.92238,0.29204,0.31259,-0.19188,-0.4782
-0.23127,0.90678,0.35251,-0.06373,-0.16593,-0.95445
-0.2188,0.88867,0.40297,-0.16463,-0.41576,-1.10506
-0.20553,0.87713,0.43405,0.14276,-0.38019,-0.75919
-0.20037,0.87327,0.44412,0.19425,-0.20686,-0.33411
-0.21012,0.87525,0.43565,0.05579,-0.1484,-0.01218
-0.24647,0.87238,0.42213,-0.06572,-0.12527,0.02417
-0.29984,0.8601,0.41268,-0.3762,-0.01452,-0.2445
-0.33518,0.8455,0.41566,0.28118,0.23625,-0.28901
-0.32325,0.82723,0.45956,0.58312,0.4621,-0.24198
-0.26973,0.79882,0.53771,0.25907,0.87321,-1.0658
-0.18785,0.76413,0.6171,-0.04507,1.42842,-1.93191
-0.11657,0.75265,0.64801,-0.37715,1.29634,-1.57597
-0.13986,0.76108,0.6334,-0.07972,1.31717,-1.38319
-0.18166,0.78408,0.59348,0.5647,0.87074,-0.64199
-0.20826,0.81711,0.53755,0.59127,0.76657,-0.47209
-0.21227,0.84965,0.48274,0.63004,0.74436,-0.11043
-0.21547,0.88255,0.41794,0.61566,0.6951,0.06549
-0.22319,0.913,0.3415,0.47364,0.7971,-0.13318
-0.22901,0.93414,0.27375,0.26347,0.86283,-0.01132
-0.23399,0.94583,0.22503,0.19608,0.83412,0.13387
-0.24051,0.95266,0.18599,0.23853,0.08405,0.0613
-0.24651,0.95807,0.14604,0.24452,0.07864,0.10125
-0.24377,0.96478,0.09886,0.53213,-0.5166,0.22942
-0.23056,0.97201,0.04506,0.39313,-0.54608,-0.05632
-0.20594,0.97853,-0.00805,0.41623,-0.59416,-0.19737
-0.20058,0.97515,-0.09404,0.45293,-0.63462,0.15292
-0.20309,0.96155,-0.18488,0.23616,-0.20936,0.41791
-0.20567,0.94096,-0.26888,-0.09188,-0.05314,0.70467
-0.21082,0.91428,-0.3459,-0.25383,-0.02207,0.78842
-0.21484,0.88543,-0.41215,-0.53427,-0.39948,0.48254
-0.22303,0.85659,-0.4653,0.32571,-0.23214,0.06639
-0.22912,0.83539,-0.49964,0.08462,-0.33145,-0.27249
-0.22989,0.82246,-0.5203,-0.03461,-0.48535,-0.64033
-0.23079,0.81667,-0.52896,-0.00043,-1.12019,-0.50301
-0.22603,0.82478,-0.51831,-0.21948,-1.52621,0.94746
-0.20198,0.8528,-0.48159,-1.0936,-1.31891,0.24903
-0.14424,0.8787,-0.45506,0.07576,2.00981,-2.4081
-0.12354,0.9047,-0.40775,0.08211,-0.95209,1.64371
-0.0828,0.92546,-0.3697,-0.58954,-1.07968,-0.1944
-0.0405,0.95639,-0.28928,-0.18919,-0.8105,1.06403
-0.01473,0.98254,-0.18544,-0.18347,0.56892,0.98125
-0.01587,0.99755,-0.06804,-0.23816,0.88361,0.5954
-0.04649,0.99786,0.04591,-0.11774,1.11971,0.34072
-0.08083,0.98545,0.14951,0.61707,1.90525,0.188
-0.12063,0.96721,0.22347,1.08587,2.00951,-0.39802
-0.15617,0.94529,0.2864,1.25602,1.81568,-0.52253
-0.16787,0.92031,0.35335,1.01217,1.94995,-1.17593
-0.14617,0.89078,0.43028,-0.15172,1.33424,-1.49012
-0.11846,0.86733,0.48342,-0.3572,0.32146,-1.6874
-0.11049,0.84905,0.51662,0.24519,-0.44143,-1.26214
-0.11964,0.82341,0.55469,0.39461,-1.00654,-1.44355
-0.13496,0.80639,0.57578,0.69881,-0.92208,-1.15895
-0.15013,0.80924,0.56797,0.61032,-0.74326,-1.10222
-0.16016,0.81856,0.55164,0.58017,-0.64603,-1.12415
-0.14668,0.83332,0.53297,0.26806,-0.41525,-1.07428
-0.1211,0.85407,0.50587,-0.28277,-0.5665,-0.99521
-0.08631,0.8833,0.4608,-0.43931,-0.67283,-0.80699
-0.05779,0.9143,0.40088,-0.48954,-0.37413,-0.79445
-0.04377,0.93964,0.33936,0.08638,0.04088,-0.47263
-0.0627,0.95917,0.27578,0.91237,2.98103,-0.28744
-0.10564,0.97523,0.19431,0.8953,3.84596,-0.48316
-0.10651,0.99055,0.08639,0.28705,2.23514,-0.02681
-0.07488,0.99705,-0.01686,-0.62054,1.9679,-0.17822
-0.03887,0.99477,-0.09443,-0.84198,1.51075,-0.53635
-0.01501,0.98597,-0.16622,0.38096,1.15896,0.25501
-0.02161,0.9675,-0.25193,1.0541,1.00323,0.65048
-0.05957,0.93724,-0.34355,-0.22348,0.21686,0.86914
-0.08961,0.90976,-0.40534,-0.81319,-0.90989,1.06101
-0.11658,0.89116,-0.43845,-0.53891,-1.7334,1.29885
-0.13045,0.88685,-0.44326,-0.35263,-2.19682,1.58986
-0.1387,0.90013,-0.41295,-0.4312,-2.0676,1.54007
-0.13843,0.92199,-0.36163,-0.30165,-1.78135,1.35614
-0.11794,0.94351,-0.30962,0.19853,-0.94332,0.80759
-0.08627,0.96302,-0.25523,0.37573,-0.45844,-0.0821
-0.05343,0.97899,-0.19679,1.11129,0.38707,-2.21941
-0.02123,0.98695,-0.15963,0.79624,0.19591,0.17056
-0.00809,0.99123,-0.13192,-0.03444,-1.17094,1.23295
0.01993,0.9916,-0.1278,-0.82923,-0.14684,-1.20791
0.03294,0.99775,-0.05838,-1.03169,2.04504,2.07304
-0.0288,0.99957,0.00573,-0.90409,0.49355,0.31091
-0.10401,0.99431,0.02302,-0.72073,0.14566,-0.01029
-0.15471,0.9846,0.08135,0.31376,0.87062,0.6903
-0.16815,0.97121,0.1687,1.66319,2.45719,0.02937
-0.16955,0.94539,0.27836,2.5389,3.04705,0.18061
-0.19699,0.90091,0.38671,0.84976,2.36867,-2.45855
-0.16674,0.87152,0.46114,-0.336,0.67853,-1.62511
-0.11426,0.86524,0.48816,-0.35086,0.22654,-0.70917
-0.11536,0.84121,0.52825,-0.19712,-1.12361,-1.35898
-0.12292,0.81247,0.56989,0.65855,-1.1454,-2.01917
-0.11592,0.80988,0.57503,0.86848,-0.84806,-2.05211
-0.12168,0.81534,0.56605,0.51491,-0.40487,-0.71268
-0.13695,0.83708,0.52966,0.34961,-0.66497,-0.91108
-0.14042,0.86279,0.48567,0.13994,-0.6446,-1.09185
-0.11337,0.88604,0.44953,-0.18432,-0.38788,-1.31011
-0.07631,0.91574,0.39446,0.13154,-0.03262,-0.501
-0.06486,0.9485,0.31005,0.26838,0.35883,-0.29624
-0.06173,0.97367,0.21945,0.5839,1.61783,-0.13556
-0.045,0.99065,0.12876,-0.23538,3.41017,-0.10102
-0.02397,0.99877,0.04325,-0.89781,2.48464,-0.05717
-0.01503,0.99946,-0.02918,-0.80018,1.79314,-0.23407
0.01796,0.99589,-0.08872,0.20487,1.0013,0.25361
0.04438,0.98851,-0.14448,0.79827,0.49759,0.51763
0.03838,0.97232,-0.23047,0.90651,0.35472,0.80594
0.00313,0.9488,-0.31586,-0.70262,-0.91578,0.94942
-0.01916,0.93245,-0.36078,-0.87909,-1.50151,1.33356
-0.03396,0.92949,-0.36729,-0.65538,-2.13287,1.63795
-0.03612,0.94004,-0.33916,-0.48274,-2.31001,1.72221
-0.02783,0.95985,-0.27911,-0.38385,-1.8054,1.41996
-0.01379,0.97788,-0.20869,0.13533,-0.74741,0.71046
0.00345,0.99165,-0.12893,0.34213,-0.05705,-0.50391
0.02985,0.99748,-0.06432,1.29243,1.30995,-3.20265
0.05917,0.99614,-0.06484,1.04324,0.3776,-0.55935
0.07109,0.9965,-0.04386,0.25327,-0.96072,0.8825
0.09186,0.99466,-0.04701,-0.6264,-0.18175,0.87645
0.09781,0.99334,-0.06082,-1.09497,0.73478,0.63643
0.05723,0.99787,-0.03124,-1.77156,0.48188,0.92476
0.00019,0.99923,0.03914,-1.75533,-0.2958,1.29202
-0.03925,0.99369,0.10501,-1.04357,0.28208,0.84444
-0.08637,0.98527,0.1476,-0.63677,1.47589,0.80194
-0.12552,0.97394,0.18889,0.8264,4.15159,-1.62926
-0.13709,0.91548,0.37828,2.0402,3.16876,-1.86143
-0.1708,0.85364,0.49206,0.22651,1.3258,-3.37682
-0.13423,0.86235,0.48819,0.16293,0.48715,-0.81705
-0.12082,0.85594,0.50276,0.27639,-0.60454,-0.01463
-0.14816,0.81691,0.5574,0.59618,-1.01589,-2.07232
-0.09966,0.79567,0.59748,0.80487,-0.65417,-2.24491
-0.0156,0.80332,0.59535,0.78382,-0.5192,-1.83431
0.01376,0.82528,0.56455,-0.73836,-0.72735,-0.67914
0.00308,0.85619,0.51665,-0.73742,-0.65146,-0.59093
-0.00347,0.88551,0.46461,-0.69056,-0.17422,-1.26253
0.01801,0.91446,0.40427,-0.05769,0.05915,-0.84995
0.02142,0.94902,0.31448,0.15683,0.5795,-0.50768
-0.00238,0.97485,0.22284,0.23354,1.49483,-0.30557
-0.01767,0.9912,0.13117,0.3215,3.378,-0.12646
-0.01497,0.99943,0.0302,-0.40072,3.07229,0.14188
0.00793,0.99867,-0.05094,-0.74365,1.73917,0.08849
0.03644,0.99184,-0.12219,-0.40364,1.25421,0.05254
0.04954,0.97838,-0.2008,1.06048,0.72436,0.63488
0.01541,0.94789,-0.31823,0.59377,0.14261,1.10858
-0.04442,0.91186,-0.40808,-0.86866,-1.11392,1.30965
-0.07302,0.89565,-0.43872,-0.61266,-1.87552,1.46653
-0.08423,0.89639,-0.43519,-0.32266,-2.53094,1.79406
-0.07741,0.9147,-0.39665,-0.29703,-2.38403,1.69785
-0.05739,0.94564,-0.32012,-0.15304,-1.42826,1.41284
-0.03657,0.97214,-0.23153,0.12396,-0.56438,0.53074
-0.01543,0.9894,-0.14441,0.35656,0.15678,-0.62778
0.02024,0.99646,-0.08158,1.41642,2.4211,-3.97386
0.05109,0.99449,-0.09155,0.95799,0.40085,0.25325
0.06101,0.99559,-0.07123,-0.39141,-0.34279,1.40366
0.08098,0.99071,-0.10923,-1.15749,0.36792,0.78244
0.07105,0.98895,-0.13014,-1.46964,-0.07479,0.879
0.03962,0.99582,-0.08235,-1.72862,-0.48182,1.29586
0.00617,0.99975,0.02131,-1.32598,0.4135,0.96575
-0.04291,0.9927,0.11267,-1.01415,0.86452,0.96121
-0.10245,0.97981,0.1717,-0.33936,2.73463,1.2434
-0.1383,0.96493,0.22312,1.316,4.92714,-0.61927
-0.1366,0.8967,0.42103,1.62799,3.27051,-3.08463
-0.22583,0.8167,0.53104,0.2675,0.95278,-3.71288
-0.17969,0.83174,0.52527,0.3854,-0.0731,-0.8891
-0.15318,0.83438,0.52948,0.36117,-0.83235,0.05809
-0.19192,0.81452,0.54746,0.32818,-1.44482,-1.63291
-0.19009,0.78268,0.59269,1.01539,-1.00759,-2.45188
-0.14575,0.78282,0.60493,0.52099,-0.52489,-1.14863
-0.13437,0.81931,0.55738,-0.00179,-0.67458,-0.85954
-0.13885,0.85028,0.50769,-0.20325,-0.58618,-0.83368
-0.13309,0.87405,0.46725,-0.04585,-0.29102,-0.93301
-0.11657,0.90121,0.41739,0.12542,0.09732,-0.56219
-0.10738,0.93506,0.33782,0.08724,0.58271,-0.30402
-0.11094,0.96447,0.23974,0.26147,1.38388,-0.20806
-0.10231,0.98481,0.14027,-0.18926,2.7638,-0.49775
-0.08257,0.99554,0.04553,-0.59067,3.01566,-0.20654
-0.07284,0.99681,-0.03251,-0.90897,3.3049,0.06148
-0.06026,0.99229,-0.10833,-0.61965,1.12609,0.05556
-0.04892,0.98146,-0.18531,0.67815,0.89652,0.85956
-0.05091,0.96474,-0.25823,2.42269,1.15404,0.77942
-0.07715,0.93467,-0.34704,-0.9292,-0.99534,1.18569
-0.1036,0.9112,-0.39873,-0.88069,-1.44175,1.35349
-0.12741,0.90112,-0.41442,-0.49138,-2.25603,1.79057
-0.13049,0.91091,-0.39143,-0.24741,-2.3547,1.60703
-0.12154,0.93525,-0.33247,-0.22324,-2.2008,1.50172
-0.10805,0.96022,-0.2575,0.05525,-1.3388,1.03934
-0.09239,0.98029,-0.17464,0.27517,-0.29585,-0.31875
-0.07047,0.99318,-0.09287,1.57927,1.6978,-4.33216
-0.0329,0.99538,-0.09018,1.51195,2.08758,-2.6538
-0.0209,0.99677,-0.07747,-0.09658,-0.66923,0.98951
0.00829,0.99454,-0.10398,-1.2566,0.12324,-1.12176
0.02758,0.99183,-0.12451,-0.79206,0.26618,1.52658
0.01659,0.99388,-0.10918,-1.27944,0.43162,1.7847
-0.04736,0.99874,-0.01657,-1.43137,0.46867,2.18783
-0.09305,0.99395,0.0584,-0.42848,0.5851,1.56479
-0.13542,0.98545,0.10274,-0.19145,1.48413,1.34988
-0.17058,0.97201,0.16155,-0.09152,3.51253,0.5337
-0.1652,0.94642,0.27749,1.17439,3.41564,-2.52468
-0.164,0.85365,0.49434,-0.39913,1.32066,-4.67198
-0.17096,0.85296,0.49318,-0.19536,0.56067,-1.02118
-0.15373,0.85998,0.48662,0.21362,-0.66064,-0.53809
-0.18085,0.83542,0.51901,0.40804,-1.25483,-0.99301
-0.19848,0.80846,0.55407,0.85137,-1.26848,-2.0093
-0.15008,0.79865,0.58278,0.9936,-0.64591,-1.77654
-0.08882,0.81053,0.57891,0.45709,-0.50022,-0.80427
-0.0728,0.83041,0.55238,-0.2005,-0.74676,-0.92239
-0.06665,0.85076,0.52131,-0.52388,-0.4735,-1.38663
-0.04827,0.88306,0.46677,-0.25999,-0.12184,-0.87134
-0.04359,0.91918,0.39142,0.15869,0.41265,-0.27408
-0.06328,0.95055,0.30404,0.24559,1.74368,-0.24748
-0.07757,0.9748,0.20915,0.02503,2.91173,-0.51422
-0.072,0.99035,0.1184,-0.66404,2.9092,0.07087
-0.07495,0.99656,0.0354,-1.0467,1.73879,0.24521
-0.06704,0.99747,-0.02356,-0.71544,1.00682,0.18705
-0.02784,0.99792,-0.05811,0.20628,0.59471,0.708
-0.00272,0.99345,-0.1142,1.66195,0.56,0.95119
-0.01376,0.97753,-0.21035,-0.41288,-0.76493,0.79454
-0.0314,0.96309,-0.26734,-0.60127,-1.01604,0.96293
-0.05318,0.95547,-0.29026,-0.42432,-1.80492,1.16345
-0.07539,0.95596,-0.28365,-0.26154,-2.2767,1.68493
-0.08568,0.9657,-0.24513,-0.18585,-2.30661,1.79034
-0.07493,0.97926,-0.18826,-0.21274,-2.0899,1.04701
-0.05522,0.99151,-0.11775,-0.09148,-0.52154,-0.12825
-0.04128,0.99852,-0.03546,1.25917,1.66945,-4.18432
-0.00902,0.99939,-0.03369,1.22691,1.66858,-4.18609
0.01384,0.99953,-0.02749,0.27056,-0.01221,1.0819
0.03413,0.997,-0.06951,-0.67614,-0.13216,1.12717
0.04052,0.99116,-0.12636,-0.7585,-0.24146,0.88255
0.03786,0.99353,-0.10704,-1.15871,-0.55634,1.83213
0.00719,0.99964,0.02582,-1.54842,-0.10775,2.4976
-0.04866,0.98977,0.13414,-1.25843,0.51518,1.37608
-0.10825,0.98084,0.16198,-0.55239,1.32516,0.7423
-0.15262,0.97167,0.18047,-0.37021,2.19771,0.81871
-0.15425,0.95051,0.26968,0.80051,4.40492,-2.63217
-0.14639,0.86415,0.48146,-0.18043,1.45769,-3.84303
-0.16809,0.85228,0.49535,0.17027,0.44631,-0.83658
-0.1628,0.85269,0.4964,0.33506,-0.27955,-0.24668
-0.19947,0.82908,0.52233,0.54736,-1.23193,-0.90587
-0.23028,0.80086,0.5528,0.67757,-1.26496,-1.57575
-0.19005,0.77804,0.59878,0.98021,-0.8875,-1.97659
-0.08869,0.78778,0.60954,0.41763,-0.31723,-1.41676
-0.03137,0.81929,0.57252,-0.38367,-0.74457,-0.58906
-0.03984,0.8519,0.52218,-0.45336,-0.72332,-0.53833
-0.06142,0.88141,0.46835,-0.55049,-0.18036,-1.08268
-0.06581,0.91545,0.397,0.15939,1.03311,-0.3009
-0.07335,0.94828,0.30885,0.34926,1.58283,-0.46346
-0.07007,0.97362,0.21713,0.21979,1.79723,-0.29364
-0.0615,0.99087,0.11994,-0.85723,2.99289,0.00733
-0.06178,0.99785,0.02182,-1.37992,3.17181,0.09218
-0.05751,0.99637,-0.06269,-0.73009,0.91851,0.17284
-0.04943,0.98959,-0.13514,0.38639,0.80278,0.68427
-0.05839,0.97734,-0.20348,1.64581,1.2123,0.77646
-0.07534,0.9541,-0.28985,0.12935,0.00969,1.01692
-0.11447,0.9273,-0.3564,-0.75074,-1.10047,1.08949
-0.13453,0.91651,-0.37672,-0.41622,-2.04987,1.38821
-0.13863,0.92257,-0.36005,0.08155,-2.71383,1.96928
-0.13162,0.94229,-0.30784,0.02779,-2.55719,1.91703
-0.10804,0.96505,-0.23874,0.02643,-1.61609,1.05775
-0.08222,0.98322,-0.16281,0.08492,-0.54757,0.08405
-0.04661,0.99494,-0.08897,0.83096,1.37017,-3.92005
-0.00224,0.99529,-0.0969,1.34805,1.97695,-1.95656
0.00784,0.99605,-0.08842,0.34395,-0.85453,1.38596
0.0298,0.99266,-0.11722,-0.52992,-0.49044,1.14136
0.05276,0.98951,-0.1345,-1.28212,0.86024,0.72088
0.04153,0.99518,-0.08889,-1.43968,-0.01092,1.23612
0.01647,0.99965,-0.02064,-1.33387,-0.45989,1.03027
-0.03628,0.99791,0.05339,-1.47681,-0.1135,0.77085
-0.10311,0.98643,0.12774,-1.12752,1.38074,1.16427
-0.16169,0.97,0.18155,-0.28565,2.92762,1.56773
-0.16308,0.94861,0.27119,0.85444,4.42302,0.47531
-0.13302,0.85538,0.50063,0.97223,2.94264,-3.42074
-0.2609,0.78565,0.56097,0.38131,0.83974,-4.64534
-0.22959,0.80586,0.54577,0.6545,0.05284,-0.24704
-0.26117,0.79271,0.55082,0.59049,-1.15466,-0.33239
-0.28698,0.77295,0.56585,0.71123,-1.60514,-1.63184
-0.26176,0.76767,0.58494,0.92471,-0.674,-1.15796
-0.2532,0.78628,0.56361,0.51985,-0.59777,-0.93699
-0.2578,0.81068,0.52568,0.31261,-0.69065,-1.03656
-0.23472,0.83369,0.49986,0.12545,-0.44322,-0.92773
-0.20503,0.86274,0.46221,0.14013,-0.09358,-0.90382
-0.18954,0.89917,0.39442,0.58743,0.55721,0.00734
-0.18605,0.93633,0.29776,0.56946,1.20483,-0.18523
-0.15011,0.96621,0.20952,0.378,2.12391,-0.40833
-0.10155,0.98661,0.12758,-0.00973,2.14685,-0.06996
-0.06795,0.99716,0.03254,-0.62203,2.7927,0.09322
-0.07218,0.99665,-0.03849,-1.04211,0.85925,0.33953
-0.0451,0.99527,-0.08604,-0.28295,0.6037,0.43809
-0.02515,0.99007,-0.1383,0.82004,0.71225,0.70275
-0.03359,0.97561,-0.2169,-0.15342,-0.15219,0.82155
-0.05116,0.95932,-0.27764,-0.87103,-1.08926,1.22815
-0.07219,0.95226,-0.29663,-0.5468,-2.11994,1.58725
-0.08424,0.95653,-0.2792,-0.2355,-2.66307,1.89612
-0.08601,0.96972,-0.22858,-0.1044,-2.6213,1.90948
-0.07494,0.98428,-0.15994,-0.42372,-1.27244,0.16052
-0.06842,0.99417,-0.08334,-0.13054,-0.30066,-1.12006
-0.05169,0.99795,-0.03756,1.84818,2.48766,-3.43344
-0.02379,0.99894,-0.03943,1.03896,0.90968,-1.18605
-0.01656,0.99926,-0.03473,0.65363,-1.30517,1.45709
-0.00208,0.99716,-0.07528,-0.47503,-0.40153,1.36059
0.02754,0.99422,-0.10374,-1.46649,1.4546,0.8173
0.01856,0.99665,-0.07963,-1.11294,-0.10993,1.13067
-0.00687,0.99893,-0.04566,-1.28129,-0.61732,1.31075
-0.05746,0.99812,0.02134,-1.10028,0.14382,1.46696
-0.09795,0.99205,0.07899,-0.54301,0.90146,1.33518
-0.14142,0.9817,0.1275,-0.25615,2.28778,1.05855
-0.16134,0.95767,0.23841,1.34978,3.82569,-1.84947
-0.20117,0.87658,0.43719,0.2875,2.27468,-4.47572
-0.21168,0.86795,0.44928,0.18302,1.09395,-1.30269
-0.18654,0.87557,0.44561,0.19133,-0.33263,-0.13955
-0.22575,0.84486,0.48501,0.43469,-0.90718,-0.64503
-0.26159,0.80989,0.52502,0.65602,-1.48951,-1.79983
-0.24135,0.77875,0.57905,1.0014,-0.99793,-1.80802
-0.2015,0.7759,0.59781,0.95434,-0.78763,-1.75975
-0.17816,0.79851,0.57501,0.04714,-0.31046,-1.39334
-0.17371,0.82719,0.53439,-0.29449,-0.09478,-1.12517
-0.1756,0.85814,0.48244,-0.20428,-0.07761,-1.03321
-0.16711,0.89302,0.41784,0.04485,-0.12879,-0.78825
-0.16679,0.92685,0.33634,0.45733,0.4794,0.05988
-0.17154,0.95677,0.23485,1.00211,2.98544,-0.46095
-0.14135,0.98318,0.11561,1.0657,3.24204,-0.78593
-0.08383,0.99647,0.00321,0.4696,2.92521,-0.16034
-0.03782,0.9943,-0.09961,-1.70618,1.94498,0.1916
-0.02539,0.98315,-0.18099,-0.47342,0.87743,0.53795
-0.01085,0.96694,-0.25476,0.69823,0.77183,1.17007
-0.01792,0.94621,-0.32303,0.02368,-0.3991,0.8702
-0.03728,0.92214,-0.38505,-1.09574,-1.00515,1.11063
-0.05161,0.91328,-0.40405,-1.08017,-1.49468,1.46014
-0.06498,0.92096,-0.38419,-0.25314,-2.38928,1.90128
-0.07803,0.94027,-0.33136,-0.15427,-2.41842,2.08954
-0.07584,0.96063,-0.26727,-0.37355,-2.17512,1.7186
-0.06038,0.97836,-0.19787,-0.36,-0.69094,-0.00927
-0.0473,0.99247,-0.11297,1.28065,1.14405,-3.67251
0.01021,0.99222,-0.12408,1.95151,3.06613,-4.28568
0.03798,0.99405,-0.1021,0.66504,-1.30822,1.30824
0.05486,0.99399,-0.09473,-0.39643,-1.32452,1.75762
0.07864,0.99071,-0.1109,-1.4551,1.92913,-1.05324
0.05219,0.99667,-0.06257,-1.50355,0.91469,1.37503
0.01355,0.99984,-0.01176,-1.08673,-0.40787,1.09499
-0.03346,0.99746,0.06283,-0.89095,0.38215,1.42152
-0.07968,0.99115,0.10614,-0.45661,1.18007,1.10042
-0.12371,0.98141,0.14672,-0.11889,2.51478,0.17373
-0.13246,0.95296,0.2726,1.17436,3.40946,-1.57126
-0.14453,0.89597,0.41993,-0.02936,1.91149,-3.09095
-0.15201,0.89006,0.42974,0.09648,1.09163,-1.20101
-0.1664,0.87472,0.45515,0.20032,0.286,-0.61503
-0.20495,0.83829,0.50523,0.42892,-1.21007,-1.03892
-0.2115,0.8082,0.54961,1.21345,-0.92786,-1.86878
-0.18733,0.7912,0.58216,1.34892,-0.5135,-1.91231
-0.15956,0.80144,0.57639,0.83224,-0.53035,-1.47906
-0.14521,0.8312,0.53668,-0.30469,-0.61167,-1.07778
-0.12633,0.86833,0.47962,-0.54226,-0.5365,-0.92043
-0.09697,0.90297,0.41862,-0.54858,-0.17313,-0.79041
-0.07162,0.93348,0.35141,-0.00024,0.42459,-0.40884
-0.08349,0.96038,0.26587,0.5954,1.53301,-0.18412
-0.10559,0.98028,0.16705,0.54842,2.72937,-0.45436
-0.08852,0.9943,0.05944,-0.42127,3.20057,-0.01539
-0.06497,0.9971,-0.03953,-1.02165,2.76649,0.15946
-0.04609,0.99198,-0.11765,-0.69682,1.0607,0.20397
-0.012,0.98285,-0.18404,0.46246,0.91181,0.79776
-0.0126,0.96449,-0.26382,1.50634,0.65485,0.8224
-0.04292,0.93521,-0.35148,0.0087,-0.39128,0.90655
-0.07471,0.91278,-0.40155,-0.79376,-1.10646,1.3687
-0.09864,0.90702,-0.40937,-0.6679,-2.07311,1.55885
-0.10582,0.91819,-0.38174,-0.28348,-2.55678,1.99582
-0.09526,0.94324,-0.31816,-0.34685,-2.31572,1.80293
-0.07792,0.9667,-0.24378,-0.23751,-1.24196,1.02608
-0.05946,0.98521,-0.16067,0.28585,0.16187,-0.86129
-0.02688,0.99454,-0.10083,0.8447,1.31061,-3.64061
0.00815,0.99233,-0.12332,1.22157,1.58204,-2.10545
0.02517,0.99396,-0.10681,0.30698,-1.97486,2.06619
0.05761,0.99183,-0.11383,-1.0298,0.07853,0.81015
0.07057,0.99138,-0.11041,-1.66235,1.60091,1.78944
0.01866,0.99875,-0.04625,-1.63365,-0.22385,1.19789
-0.02487,0.99941,0.02344,-1.2754,0.03075,1.00275
-0.07298,0.99252,0.09789,-0.57482,0.67965,1.03743
-0.11607,0.98188,0.14979,0.12779,2.08337,1.23391
-0.14452,0.96829,0.20377,0.53382,3.00507,0.90253
-0.17593,0.90948,0.37668,2.4337,3.76198,-0.99478
-0.20521,0.8621,0.46332,0.00961,1.36181,-2.93397
-0.15194,0.86933,0.4703,-0.16862,0.08271,-0.3919
-0.14582,0.84199,0.51941,-0.52571,-0.89355,-0.98047
-0.15049,0.81554,0.55878,0.44082,-1.21789,-1.75254
-0.15158,0.82079,0.55074,0.95835,-0.76278,-1.79168
-0.16686,0.82943,0.5331,1.10388,-0.51162,-1.67641
-0.17912,0.84909,0.49696,0.52004,-0.53803,-0.63127
-0.17069,0.87935,0.44454,0.01766,-0.75989,-0.57444
-0.1321,0.91023,0.39247,-0.43957,-0.39138,-1.386
-0.08626,0.93803,0.33565,-0.18703,0.27283,-0.71502
-0.0825,0.96345,0.25487,0.19862,1.18346,-0.18768
-0.08351,0.98274,0.16507,0.45758,2.33287,-0.17846
-0.06637,0.99596,0.06053,-0.40809,2.57034,-0.00397
-0.03961,0.9984,-0.04026,-1.35558,3.07044,0.04428
-0.02477,0.99336,-0.11238,-1.1058,1.43595,-0.18381
-0.00779,0.98361,-0.18012,0.01147,0.96176,0.48564
0.00636,0.97044,-0.24127,1.28115,0.77503,0.78666
-0.01903,0.94254,-0.33356,0.75617,0.21652,0.93243
-0.04603,0.91556,-0.39954,-0.88037,-1.24414,1.18163
-0.06494,0.90277,-0.42519,-0.59291,-1.87352,1.42025
-0.08524,0.90428,-0.41835,-0.20025,-2.45718,1.92781
-0.09208,0.92123,-0.37797,-0.25869,-2.34306,1.83558
-0.08488,0.94464,-0.31695,-0.30696,-1.67073,1.51323
-0.06874,0.96791,-0.2417,0.05311,-0.65959,0.69041
-0.04638,0.98738,-0.15141,0.29333,-0.00546,-0.48416
-0.00851,0.99382,-0.11063,1.5357,1.96406,-3.31682
0.01402,0.99566,-0.09196,0.98161,0.19823,0.20491
0.02809,0.99654,-0.07828,-0.37622,-1.39545,1.32521
0.05941,0.9938,-0.09396,-1.38253,1.3146,-1.24786
0.04891,0.99759,-0.04915,-1.14717,0.839,1.35723
0.00489,0.99992,-0.01148,-0.86279,-0.11105,0.95766
-0.04077,0.99888,0.02384,-0.61536,0.46721,1.02971
-0.08513,0.99471,0.05752,-0.37231,0.9434,1.1879
-0.12308,0.98725,0.10094,-0.20936,1.77047,0.74029
-0.13384,0.97391,0.18326,0.15809,2.43576,-0.25277
-0.1362,0.9226,0.36091,0.85527,3.07622,-1.48218
-0.16152,0.86976,0.46629,-0.24137,1.07473,-2.10627
-0.14785,0.87381,0.46324,0.28907,0.10684,-0.71507
-0.15894,0.8645,0.47684,0.50011,-0.80801,-0.51535
-0.19803,0.84026,0.50471,0.63244,-1.35485,-1.71619
-0.20422,0.8173,0.5388,1.00248,-1.06553,-2.12848
-0.16934,0.81757,0.55037,0.84837,-0.81844,-1.33823
-0.14165,0.84318,0.51863,0.18933,-0.69065,-0.64162
-0.12961,0.87017,0.47539,-0.37575,-0.54721,-0.9943
-0.12034,0.89475,0.43004,-0.54705,-0.17757,-1.21802
-0.11618,0.92244,0.36823,0.00678,0.12637,-0.26122
-0.1262,0.94842,0.29081,0.53851,1.28295,0.01419
-0.13243,0.97073,0.20035,0.75651,2.06691,-0.05545
-0.11103,0.98852,0.10247,-0.00234,1.9936,-0.21147
-0.07117,0.99742,0.00956,-0.923,2.9827,0.08245
-0.04127,0.99723,-0.06184,-1.16323,1.49653,-0.08274
-0.00665,0.9918,-0.12758,-0.04315,0.89282,0.4131
0.03208,0.98344,-0.17835,1.0527,0.80888,0.78854
0.03793,0.96499,-0.25952,0.98333,0.28145,0.70406
0.00757,0.94071,-0.33913,-1.02679,-0.91989,0.98548
-0.01976,0.92588,-0.3773,-0.90721,-1.51174,1.1505
-0.03373,0.92631,-0.37526,-0.47668,-2.27935,1.59381
-0.04019,0.9408,-0.33657,-0.2255,-2.47019,2.02478
-0.03969,0.96077,-0.27448,-0.36099,-2.18494,1.51616
-0.0324,0.97848,-0.20377,-0.27137,-0.80223,0.5367
-0.01756,0.99189,-0.12585,0.04118,0.35342,-1.50696
0.0216,0.99399,-0.10733,1.59946,2.45314,-3.27857
0.0472,0.99417,-0.09689,0.49445,0.45561,-0.29968
0.06775,0.99099,-0.11557,-1.18956,1.08018,0.29046
0.07218,0.98228,-0.17298,-1.04186,0.26042,1.46082
0.0552,0.98127,-0.18454,-1.64352,-0.44445,1.72434
0.00289,0.99571,-0.09244,-1.65833,-0.78665,2.23751
-0.04749,0.99873,0.01649,-0.99766,0.5376,1.17064
-0.10352,0.99146,0.07931,-0.48454,1.28923,1.2433
-0.15742,0.97992,0.12237,0.07903,3.14209,0.9189
-0.1578,0.94817,0.2758,2.89823,4.64669,-1.5134
-0.22675,0.8664,0.44489,0.46444,2.18507,-5.76098
-0.19404,0.87564,0.44226,0.3166,-0.09418,-0.55821
-0.1451,0.88503,0.44233,0.34447,-0.43606,0.21883
-0.18108,0.85242,0.4905,0.01758,-1.16806,-0.76481
-0.17921,0.82537,0.53539,1.00735,-0.76258,-2.33425
-0.12712,0.82915,0.54438,1.01654,-0.4966,-2.32342
-0.11445,0.8461,0.52058,0.48356,-0.49176,-1.14244
-0.13254,0.87444,0.46667,-0.25906,-0.67715,-0.6791
-0.13737,0.90646,0.39932,-0.28909,-0.49896,-0.90019
-0.11613,0.92909,0.35114,-0.10857,-0.1149,-0.54648
-0.09477,0.94929,0.29978,0.25576,1.21664,-0.41406
-0.09961,0.96868,0.22744,0.52816,1.92594,-0.33512
-0.0998,0.98617,0.13228,0.49759,1.88144,-0.31299
-0.07578,0.9966,0.0324,-0.88129,3.15469,0.18619
-0.06207,0.99687,-0.04898,-1.32776,2.96131,0.27226
-0.04179,0.99298,-0.11061,-0.30699,0.73481,0.23139
-0.0156,0.98566,-0.16804,0.74648,0.59523,0.80393
0.00735,0.9769,-0.21355,1.75273,0.83464,0.73656
0.00153,0.95537,-0.29542,-0.50317,-0.4284,0.90664
-0.02543,0.93302,-0.35891,-0.93998,-1.17599,1.24888
-0.04874,0.92206,-0.38397,-0.65556,-2.08461,1.42393
-0.06378,0.92493,-0.37474,-0.28125,-2.61407,1.91649
-0.05897,0.94222,-0.32975,-0.38783,-2.52267,1.50695
-0.04246,0.9628,-0.26687,-0.01511,-0.7158,0.40029
-0.02358,0.98126,-0.19124,0.06659,-0.32722,-0.29938
0.00623,0.99116,-0.13253,0.20428,0.22932,-1.82957
0.05086,0.99042,-0.12836,1.1072,0.58004,-0.43843
0.06994,0.99158,-0.10897,-0.38081,-1.11594,1.13547
0.09084,0.98846,-0.1212,-1.61519,0.94638,-0.94094
0.07181,0.99105,-0.11252,-1.24761,1.28414,1.83359
0.01976,0.99523,-0.09557,-1.28125,0.7445,1.67027
-0.02871,0.99937,-0.02094,-1.07055,0.27991,1.27503
-0.06625,0.99637,0.05339,-0.16952,0.95533,1.15119
-0.10682,0.98808,0.1108,0.01232,1.26857,0.81062
-0.12915,0.97436,0.18425,0.96013,2.53764,-1.24312
-0.12882,0.92736,0.3513,1.6103,2.88523,-1.68071
-0.15135,0.88722,0.43581,-0.37651,1.38199,-3.23042
-0.11853,0.88556,0.44915,-0.28106,0.54209,-1.05097
-0.11298,0.87388,0.47284,0.05921,-0.40578,-0.51017
-0.14731,0.84016,0.52194,0.14496,-1.09256,-1.03893
-0.16199,0.8181,0.55179,0.76932,-1.27954,-1.75473
-0.15497,0.80846,0.56778,0.96602,-0.54627,-1.73687
-0.15038,0.81135,0.56488,0.74085,-0.60887,-1.11785
-0.15094,0.83116,0.53516,0.43521,-0.70031,-1.09039
-0.13603,0.85877,0.49396,-0.10909,-0.46273,-1.2865
-0.1026,0.88985,0.44456,-0.20834,-0.10532,-0.49028
-0.08543,0.92433,0.3719,0.30426,1.22159,-0.02112
-0.07661,0.95559,0.28456,0.48553,1.85454,-0.17967
-0.05568,0.97834,0.19938,0.15901,1.80174,-0.39159
-0.03056,0.99255,0.11793,-1.09676,3.33515,0.0046
-0.0308,0.99904,0.03117,-1.40526,2.78815,0.04026
-0.02937,0.99842,-0.04791,-0.92553,1.09146,0.21102
-0.02014,0.99213,-0.12356,0.15011,0.60764,0.75245
-0.00903,0.98457,-0.17474,0.43774,0.50343,0.86815
-0.01448,0.96939,-0.24508,0.92205,0.24853,0.60409
-0.03595,0.95062,-0.30826,-0.70697,-1.4024,1.10132
-0.05112,0.94092,-0.33475,-0.54155,-1.64115,1.31943
-0.05679,0.94593,-0.31936,-0.18014,-2.58718,2.11756
-0.04803,0.96206,-0.26856,-0.22831,-2.40243,1.42089
-0.04275,0.97817,-0.20335,-0.21442,-1.16532,0.59657
-0.04307,0.99056,-0.13011,-0.01073,-0.39047,-0.25388
-0.02919,0.99792,-0.05749,1.26654,1.25738,-3.87199
0.01481,0.99823,-0.05766,1.5273,2.29676,-3.4693
