gravity.x,gravity.y,gravity.z,userAcceleration.x,userAcceleration.y,userAcceleration.z
-0.06291,0.9721,-0.22595,-0.43486,0.96379,1.22013
-0.13096,0.97361,-0.1869,-0.36681,0.96229,1.18109
-0.1861,0.97626,-0.11085,-0.19589,1.78624,0.67283
-0.19609,0.98058,-0.00121,0.88744,1.40046,-0.64361
-0.16993,0.98269,0.07374,-0.47007,1.23641,-1.13319
-0.13998,0.98001,0.14138,-0.70191,0.82576,-1.31362
-0.12093,0.973,0.1966,-0.97577,-0.50875,-0.73478
-0.13267,0.96488,0.22671,-0.03652,-0.77935,-0.62858
-0.15523,0.95591,0.24926,0.36045,-1.04315,-0.35855
-0.16342,0.95057,0.26403,0.50903,-0.93282,-0.69912
-0.15836,0.95279,0.25906,0.50397,-0.93504,-0.69414
-0.14312,0.95963,0.24212,0.18441,-0.52881,-1.12968
-0.13525,0.9709,0.19761,-0.60603,-0.95577,-0.70622
-0.13872,0.981,0.13559,-0.69481,-0.52182,-0.0452
-0.15277,0.98491,0.0813,-0.53244,-0.25021,-0.11557
-0.16572,0.98617,0.00312,0.24931,1.2341,0.25724
-0.1617,0.98095,-0.10768,0.54685,2.26025,0.38078
-0.15776,0.96767,-0.1968,-0.01993,2.325,0.2929
-0.134,0.95688,-0.25774,-1.41773,1.93222,0.26531
-0.08638,0.94316,-0.32092,-0.63508,1.6314,0.04718
-0.05873,0.92878,-0.36594,0.84229,0.86271,0.50095
-0.04838,0.91181,-0.40774,0.7962,0.67762,0.6051
-0.0642,0.88812,-0.45511,0.15592,0.02772,0.86665
-0.08538,0.86945,-0.48659,-0.53559,-1.04744,1.07127
-0.09691,0.8671,-0.48862,-0.20453,-1.70032,1.05486
-0.10138,0.87995,-0.46412,0.00322,-1.64153,1.05613
-0.09626,0.90275,-0.41925,0.15754,-1.70152,0.99202
-0.08525,0.93005,-0.35739,0.45149,-1.3822,0.82298
-0.07483,0.95529,-0.28604,0.06438,-0.96525,0.51084
-0.05548,0.96918,-0.24004,0.34859,0.14554,-0.99113
-0.02482,0.96329,-0.26731,0.19842,0.9973,-1.90613
-0.0141,0.95095,-0.30902,0.26485,0.33047,-2.29853
-0.01058,0.93944,-0.34256,0.0643,-1.40092,3.91721
0.00424,0.93312,-0.35955,-0.83941,0.68146,1.17777
-0.00899,0.93241,-0.36128,-0.06223,-0.23298,0.85327
-0.02381,0.9436,-0.33022,-0.55914,0.06722,1.28209
-0.0704,0.95925,-0.27363,-0.76911,0.7896,1.23545
-0.14024,0.96613,-0.2166,-0.48084,1.22205,1.1422
-0.20003,0.97227,-0.12111,0.26174,2.50107,-0.21148
-0.201,0.97933,0.02239,0.42569,1.54867,-0.75701
-0.15969,0.98293,0.09135,-0.04129,1.2888,-0.80295
-0.11906,0.9781,0.17071,-1.17226,0.06888,-1.10181
-0.10699,0.96825,0.22591,-1.05744,-0.59928,-0.7499
-0.12702,0.95769,0.25824,-0.23341,-0.57851,-0.65118
-0.14939,0.94656,0.28584,0.60103,-0.78927,-0.44465
-0.16219,0.94301,0.29055,0.63335,-0.98033,-0.97473
-0.15463,0.94855,0.2763,0.45232,-0.767,-0.98451
-0.13756,0.95812,0.25116,0.26456,-0.57335,-0.93735
-0.13388,0.97024,0.20174,-0.55669,-0.90545,-0.64896
-0.14041,0.98,0.14102,-0.49632,-0.32387,-0.4461
-0.1507,0.98568,0.07567,-0.31927,-0.11573,-0.30951
-0.15191,0.98813,-0.02268,0.82974,2.77456,0.37105
-0.14606,0.97815,-0.14794,0.19291,2.77159,0.79476
-0.15654,0.95869,-0.23751,-0.36738,2.39284,0.79875
-0.09988,0.94905,-0.29886,-0.87334,1.91363,0.54898
-0.03592,0.92925,-0.36769,0.6083,1.48898,0.29645
-0.00109,0.9,-0.43589,0.92169,1.42193,0.6988
-0.00311,0.86326,-0.50475,0.36306,0.60987,0.79439
-0.04184,0.82592,-0.56223,-0.79247,-1.38036,1.28648
-0.06494,0.81043,-0.58223,-0.86667,-1.97898,1.28924
-0.06789,0.8215,-0.56616,-0.25562,-1.91569,1.19116
-0.07269,0.84668,-0.52711,0.04967,-1.64252,1.22924
-0.06895,0.87804,-0.47359,0.20062,-1.6415,1.15347
-0.05683,0.91036,-0.40989,0.16912,-1.69929,0.94317
-0.0468,0.93847,-0.34216,-0.24516,-1.10942,-0.20073
-0.03754,0.95169,-0.30476,0.58981,0.63459,-1.41662
-0.02236,0.95161,-0.30649,0.92097,1.14002,-0.91487
-0.01776,0.94792,-0.31801,0.73187,-0.12248,-0.7172
0.00336,0.93739,-0.34826,0.07235,-1.20198,3.46879
0.0282,0.93298,-0.35881,-2.23167,2.26826,-0.98694
0.01228,0.94209,-0.33512,-0.66434,0.09668,1.32168
-0.00859,0.95735,-0.2888,-0.702,-0.17228,1.24955
-0.0726,0.96763,-0.24171,-0.7256,0.75683,1.21867
-0.16418,0.9686,-0.18669,-0.16573,2.41537,0.87969
-0.20055,0.97925,-0.0292,1.57329,2.28569,-0.32159
-0.16625,0.98329,0.07407,0.43702,1.60852,-0.97568
-0.11515,0.98451,0.1322,-0.59684,1.07352,-1.37792
-0.09284,0.97576,0.19817,-1.27316,0.32356,-1.38222
-0.09214,0.96655,0.23933,-0.1632,-0.62573,-0.80017
-0.11423,0.96032,0.25443,0.43851,-0.70634,-0.76029
-0.12763,0.95771,0.25787,0.63631,-0.85433,-0.32406
-0.12652,0.96005,0.24958,0.33693,-0.9823,-0.38302
-0.11248,0.9673,0.22732,0.3107,-0.96133,-0.5882
-0.08807,0.97774,0.19044,0.09797,-0.498,-2.04778
-0.08203,0.98769,0.13315,-0.7548,-0.77253,-0.02902
-0.09897,0.99245,0.07235,-0.68574,-0.57717,0.06124
-0.11672,0.99312,0.00885,0.10255,0.79075,0.17957
-0.12387,0.98813,-0.09083,0.88346,2.90036,0.33515
-0.1203,0.97198,-0.20192,0.64479,2.28722,0.41559
-0.10464,0.95819,-0.26632,-0.73244,2.10427,0.65183
-0.03253,0.94978,-0.31121,-1.14749,1.82622,0.36895
0.02653,0.93255,-0.36006,0.37476,1.39994,-0.00059
0.04165,0.90663,-0.41986,1.18305,0.66728,0.4669
0.00134,0.87168,-0.49007,0.15608,-0.02759,0.99934
-0.05607,0.83894,-0.54132,-0.82671,-1.01424,1.43442
-0.09166,0.82216,-0.56183,-0.83256,-1.38367,1.50435
-0.11017,0.82794,-0.54988,-0.02507,-1.66274,1.16083
-0.12272,0.84775,-0.516,0.07168,-1.51963,1.10105
-0.11989,0.87544,-0.46821,0.1243,-1.5496,0.97291
-0.10362,0.90847,-0.4049,0.18308,-1.48168,0.68627
-0.07556,0.9375,-0.33967,0.47859,0.19694,-1.49979
-0.04671,0.94638,-0.31964,0.72242,0.93965,-1.66148
-0.03956,0.94439,-0.32643,0.64846,0.51133,-1.34715
-0.04808,0.9372,-0.34546,-0.25227,-0.32313,3.13678
-0.03418,0.92554,-0.37711,-1.92363,2.55403,-1.57079
-0.05522,0.92783,-0.3689,-0.04064,-0.41594,1.32208
-0.06847,0.93785,-0.3402,-0.37043,-0.35367,1.50579
-0.09488,0.95968,-0.26459,-0.52443,0.10296,1.5967
-0.15842,0.96852,-0.19199,-0.79591,2.00706,1.56101
-0.20793,0.97146,-0.11414,0.69159,2.62269,-0.5865
-0.21321,0.97643,0.03349,0.91116,1.85691,-1.2766
-0.18377,0.97831,0.09559,-0.2851,0.99664,-0.88044
-0.14796,0.97566,0.16183,-0.60067,0.34219,-1.1436
-0.12078,0.9681,0.21955,-0.87562,-0.52135,-0.86272
-0.12847,0.9582,0.25562,-0.52579,-0.8029,-0.87266
-0.14952,0.95004,0.27398,0.56602,-1.16311,-0.35477
-0.15879,0.94399,0.28926,0.61835,-1.00427,-0.22063
-0.15657,0.94377,0.29116,0.31934,-0.79965,-0.41711
-0.14207,0.94729,0.28714,0.56529,-0.62487,-1.59288
-0.12847,0.96032,0.24754,-0.61471,-0.8534,-1.3218
-0.13202,0.97372,0.18557,-0.48514,-0.53753,-0.18011
-0.14023,0.9824,0.12337,-0.25463,-0.20507,0.2635
-0.14738,0.98822,0.04119,0.29704,0.87459,0.32127
-0.15444,0.98593,-0.064,-0.06897,2.66643,0.01493
-0.1656,0.97488,-0.14892,-0.54315,1.84049,0.40612
-0.14856,0.96498,-0.21618,-1.09138,2.09271,0.71502
-0.10103,0.95373,-0.2832,0.43933,1.36659,0.10758
-0.06071,0.94137,-0.33188,0.70119,1.10874,0.49711
-0.04752,0.92073,-0.38729,0.93337,0.77395,0.70154
-0.07569,0.89191,-0.44584,-0.34599,-0.34416,1.41345
-0.1047,0.86874,-0.48408,-0.63609,-0.91227,1.39909
-0.11911,0.86177,-0.49312,-0.57309,-1.74595,1.31548
-0.12679,0.87118,-0.4743,0.10752,-1.73091,1.13801
-0.12446,0.89179,-0.43499,0.1662,-1.79191,1.08271
-0.11103,0.92057,-0.37447,0.45522,-1.87195,1.08475
-0.08184,0.95019,-0.30073,0.23035,-0.83126,0.02177
-0.04296,0.95643,-0.28879,0.23647,-0.04209,-1.50365
-0.02543,0.94632,-0.32222,0.62308,1.56259,-2.13333
-0.03525,0.93963,-0.34036,0.38857,0.10057,-0.48267
-0.02373,0.9135,-0.40614,-0.09497,0.78689,3.85326
-0.05718,0.89494,-0.44251,-0.14747,-1.85374,1.72518
-0.06882,0.9026,-0.42495,-0.32531,-0.63862,2.51873
-0.07873,0.92757,-0.36525,-0.73696,0.55921,1.47385
-0.13903,0.94857,-0.28442,-1.02072,2.52479,1.15826
-0.21826,0.95696,-0.19127,1.25409,2.92285,-0.17485
-0.23623,0.97,-0.05736,1.06016,1.92725,-0.75402
-0.18767,0.98184,0.02786,0.10628,1.2551,-0.75326
-0.13139,0.98318,0.12688,-1.23214,0.23313,-1.16302
-0.09205,0.97562,0.19923,-1.41745,-0.08675,-1.16448
-0.09241,0.96605,0.24125,-0.75602,-0.56166,-0.80982
-0.11817,0.9583,0.26018,0.21572,-0.97524,-0.64614
-0.14226,0.95436,0.2626,0.45473,-0.99307,-0.40163
-0.14897,0.95561,0.25417,0.36888,-0.91226,-0.76628
-0.13661,0.96071,0.2416,0.45436,-0.69882,-1.43067
-0.12183,0.97241,0.1989,-0.48797,-0.89807,-0.70623
-0.12844,0.98261,0.13409,-0.39567,-0.7724,0.28354
-0.14529,0.98654,0.07503,-0.37358,-0.43815,-0.26702
-0.16256,0.9867,-0.00061,0.05709,0.42402,0.0381
-0.16826,0.97935,-0.1121,0.58744,2.87367,0.45571
-0.15895,0.96165,-0.22352,-0.18654,2.46218,0.59292
-0.11066,0.95139,-0.28741,-1.43495,2.13303,0.33909
-0.03965,0.93511,-0.35212,-0.07424,1.67941,0.02319
0.0121,0.90931,-0.41594,0.93542,1.32988,0.39162
0.03393,0.88003,-0.4737,0.77226,0.8032,0.55815
0.00446,0.84588,-0.53336,0.2451,0.11311,0.91256
-0.03197,0.82357,-0.56632,-0.75156,-1.40137,1.21471
-0.0536,0.82321,-0.5652,-0.58336,-1.27785,1.3375
-0.06296,0.83879,-0.5408,-0.13984,-1.50522,1.1349
-0.06319,0.86261,-0.5019,0.04792,-1.51288,0.97776
-0.05326,0.89148,-0.44991,0.20112,-1.66071,0.9442
-0.03384,0.92555,-0.37711,0.162,-1.57756,0.70632
-0.00166,0.94683,-0.32172,0.94942,0.80094,-1.78587
0.03082,0.94775,-0.31751,0.3802,0.7117,-1.03745
0.04847,0.94116,-0.33445,-0.08884,-0.66631,-0.55509
0.02858,0.93697,-0.34825,-0.14876,-2.03059,3.04997
0.04563,0.93681,-0.34685,-0.81666,-1.87884,3.3261
0.036,0.95681,-0.28846,-1.9686,6.71956,-5.635
0.01064,0.95367,-0.30067,-0.11576,-1.24513,1.37476
-0.03826,0.96036,-0.27611,-0.13051,-0.91459,1.57206
-0.11564,0.9673,-0.22572,-0.17771,2.46762,2.08035
-0.16707,0.9737,-0.15489,0.9472,2.06289,-1.2681
-0.16853,0.98569,0.00255,1.11349,1.93386,-1.22139
-0.12487,0.99052,0.05723,-0.21404,1.3667,-1.13321
-0.07845,0.99048,0.11314,-0.93085,0.31511,-0.82753
-0.04605,0.98132,0.18678,-1.02874,-0.02696,-0.87193
-0.04897,0.97346,0.22356,-0.84288,-0.89986,-1.08096
-0.07421,0.97176,0.22398,0.4349,-0.82923,-0.47752
-0.08662,0.97037,0.22557,0.24523,-0.97655,-0.36939
-0.084,0.97232,0.21804,0.26808,-0.97465,-0.57912
-0.06888,0.9787,0.19336,0.32503,-0.60091,-1.78804
-0.05884,0.99071,0.12258,-0.57631,-1.02892,-0.23814
-0.06716,0.99663,0.04698,-0.70212,-0.55138,0.04111
-0.08882,0.99597,-0.01206,-0.93895,-0.22691,-0.35383
-0.12372,0.98853,-0.08657,-0.11317,0.96986,0.25985
-0.14735,0.96814,-0.20245,0.71457,4.50375,0.89092
-0.13577,0.94145,-0.30862,-0.07712,2.29673,0.95687
-0.06782,0.92671,-0.3696,-1.38288,1.16652,0.50075
-0.01202,0.90031,-0.43508,-0.05794,0.97191,-0.06461
0.01802,0.86544,-0.50068,0.73099,0.89846,0.30125
0.01958,0.832,-0.55442,0.67264,0.46957,0.73063
-0.00975,0.80082,-0.59883,0.01887,-0.09889,0.93289
-0.0523,0.78146,-0.62176,-0.26275,-0.69107,1.26202
-0.07921,0.78546,-0.61382,-0.11932,-1.46818,1.32149
-0.0811,0.81178,-0.57831,-0.19803,-1.47905,1.20266
-0.06407,0.85158,-0.5203,-0.16005,-1.49541,1.11598
-0.0444,0.89311,-0.44763,0.09643,-1.2349,0.68343
-0.01423,0.92147,-0.38818,0.36817,-0.51956,-0.20827
0.02886,0.92565,-0.37727,0.8649,0.76464,-1.51709
0.05417,0.91955,-0.38921,0.40316,0.0927,-1.31087
0.07425,0.91451,-0.39769,0.64882,-0.30027,1.21454
0.10034,0.90035,-0.42343,-1.69203,0.11126,1.77725
0.08168,0.88926,-0.45004,-1.33869,-0.34245,0.13657
0.04491,0.91297,-0.40555,-1.16967,0.01708,1.75349
0.00075,0.93932,-0.34304,-0.92624,0.80857,0.37333
-0.10962,0.95605,-0.27194,-0.41057,1.35326,0.78499
-0.20279,0.96292,-0.17793,1.73943,3.48573,-0.34949
-0.18583,0.97872,-0.08706,1.92876,1.63336,-0.67942
-0.13146,0.99113,-0.01918,0.42617,1.12199,-0.59728
-0.08334,0.99527,0.04986,-0.66329,0.50738,-1.02591
-0.05234,0.9928,0.10771,-1.30954,-0.23603,-0.80405
-0.04394,0.98692,0.15509,-1.28095,-0.52412,-0.75597
-0.06274,0.98221,0.17697,0.18455,-0.86283,-0.52606
-0.07802,0.97943,0.18606,0.36506,-0.92682,-0.05439
-0.08274,0.97996,0.18117,0.23658,-1.04181,-0.10336
-0.08034,0.98143,0.17416,0.5846,-0.95333,-1.54841
-0.06763,0.98731,0.1437,-0.37608,-0.99268,-0.45763
-0.07505,0.9939,0.08083,-0.41477,-1.09842,0.50222
-0.09648,0.99484,0.03122,-0.72547,-0.43476,-0.362
-0.11268,0.99336,-0.02317,0.17036,1.52213,0.2135
-0.11883,0.98702,-0.10805,0.29049,2.26783,0.30015
-0.11945,0.97007,-0.21139,0.02252,2.21076,0.44201
-0.10984,0.95467,-0.27667,-1.17761,2.10141,0.47991
-0.05779,0.9443,-0.32395,0.0723,1.60809,-0.06296
-0.00297,0.92949,-0.36883,0.60072,1.42669,-0.04621
0.0293,0.91417,-0.40427,0.58951,0.78207,0.45967
0.02172,0.89328,-0.44896,0.47184,0.23909,0.84997
-0.0083,0.87133,-0.49063,-0.29795,-0.54136,1.17229
-0.03117,0.85875,-0.51145,-0.65822,-1.35062,1.15569
-0.04042,0.8633,-0.50306,-0.40058,-1.5463,0.96
-0.04707,0.88052,-0.47166,0.00077,-1.40927,0.78991
-0.04939,0.90262,-0.4276,0.29548,-1.57359,0.70049
-0.03664,0.92655,-0.37438,0.29025,-1.27848,0.51397
-0.00178,0.94194,-0.33577,0.22966,-0.46369,-0.84644
0.03094,0.94095,-0.33714,0.40463,0.50789,-1.51481
0.03188,0.93704,-0.34775,0.3825,0.04959,-1.17181
0.04383,0.92845,-0.36886,0.46964,0.30623,2.88634
0.05076,0.91105,-0.40917,-2.11075,1.41154,0.19219
0.02011,0.90912,-0.41604,-0.89361,-1.0069,1.03808
-0.00299,0.92694,-0.37519,-0.7238,0.04636,1.82635
-0.05809,0.95332,-0.29633,-0.9639,1.12322,1.40933
-0.14288,0.9615,-0.23473,0.03634,2.51616,1.77834
-0.19339,0.97482,-0.11097,1.35611,2.09909,-1.32957
-0.17369,0.98462,0.01858,0.86185,1.33464,-0.74206
-0.11785,0.9899,0.07871,-0.08962,0.91143,-1.10363
-0.07261,0.98608,0.14954,-0.58114,0.35243,-1.04569
-0.04613,0.97921,0.19753,-0.93547,-0.50626,-1.03572
-0.0623,0.97455,0.21532,-0.56767,-0.68074,-0.91925
-0.08708,0.97225,0.21712,0.10033,-0.74598,-0.60538
-0.10244,0.97342,0.20481,0.21177,-0.92043,-0.29958
-0.10928,0.97654,0.18554,0.22589,-0.98334,-0.32522
-0.1063,0.98039,0.16594,0.54848,-0.99372,-0.76741
-0.09863,0.98877,0.11222,-0.36646,-0.98998,-0.5549
-0.10278,0.99386,0.04084,-0.42434,-0.87619,-0.05335
-0.11193,0.9935,-0.02067,-0.29377,-0.30598,0.34402
-0.11697,0.98819,-0.09899,-0.01757,2.5152,0.32568
-0.10978,0.97547,-0.19081,-0.23562,2.61039,0.22035
-0.08471,0.96911,-0.2316,-0.8956,1.7096,0.07364
-0.0309,0.96023,-0.27749,-0.63507,1.47343,0.31196
0.00946,0.94549,-0.3255,0.51803,1.48047,0.36609
0.04409,0.92913,-0.3671,0.90435,1.16984,0.29513
0.03914,0.90688,-0.41957,0.30974,0.31846,0.59882
0.01793,0.8867,-0.46199,-0.40979,-0.44502,0.97371
-0.0035,0.87512,-0.48389,-0.5818,-1.32025,1.20097
-0.01733,0.8778,-0.47871,-0.35906,-1.68728,1.06519
-0.02413,0.89508,-0.44526,-0.29977,-1.5811,0.85675
-0.02926,0.92056,-0.38949,0.00456,-1.69074,0.8028
-0.02442,0.94604,-0.32313,0.43034,-1.02993,0.15658
0.00234,0.953,-0.30296,0.85921,0.37819,-2.02671
0.02762,0.94741,-0.31883,1.08144,0.19542,-0.65793
0.05096,0.93993,-0.33754,-0.00633,-0.25432,-0.23733
0.04873,0.92783,-0.3698,0.22524,-0.3906,1.15756
0.06446,0.9032,-0.42436,-0.9915,2.4215,-0.50413
0.02304,0.88625,-0.46263,-1.41973,-1.33971,0.99084
-0.00026,0.90523,-0.42492,-0.66328,0.24217,1.86763
-0.02471,0.92981,-0.3672,-0.87513,0.70227,1.35457
-0.10188,0.94903,-0.29826,-0.51862,1.97887,1.17853
-0.20034,0.95478,-0.21966,1.48363,2.61046,-0.05059
-0.22572,0.96825,-0.10745,1.48092,1.71471,-0.43468
-0.17796,0.98335,-0.03684,0.13081,1.22614,-0.37095
-0.12372,0.99148,0.04068,-0.66799,0.78481,-1.09387
-0.07748,0.99052,0.1134,-1.1559,0.06461,-1.21443
-0.06502,0.98458,0.16241,-1.21975,-0.51152,-1.04563
-0.08656,0.97867,0.1863,-0.07274,-0.76097,-0.77076
-0.10909,0.97476,0.19478,0.44332,-0.77043,-0.4316
-0.11785,0.97414,0.19278,0.30044,-0.85939,-0.31746
-0.11959,0.97637,0.17998,0.22802,-1.0084,-0.45081
-0.1095,0.98038,0.1639,0.74218,-0.92856,-1.51441
-0.09158,0.99067,0.10095,-0.43073,-0.96993,-0.43422
-0.09263,0.99543,0.02314,-0.59886,-0.46606,-0.03538
-0.10009,0.99342,-0.05555,-0.10989,1.95077,0.45695
-0.10677,0.98388,-0.14347,-0.00922,2.33598,0.31896
-0.09765,0.96993,-0.22291,-0.41019,2.04825,0.28702
-0.05264,0.95688,-0.28565,-0.8353,1.98002,0.66679
-0.00394,0.9375,-0.34795,0.5222,1.52516,0.26156
0.0372,0.9164,-0.39853,0.81407,1.27301,0.30504
0.05591,0.89332,-0.44593,0.57762,0.86715,0.44453
0.03271,0.86385,-0.50268,-0.10397,-0.19541,1.14761
-0.00535,0.83976,-0.54293,-0.49391,-0.7339,1.33481
-0.02735,0.83579,-0.54836,-0.67805,-1.64793,1.16639
-0.04063,0.85179,-0.5223,-0.08946,-1.55154,0.98074
-0.05081,0.87748,-0.47692,0.08444,-1.65516,0.91139
-0.04966,0.90969,-0.4123,0.26082,-1.95653,1.03327
-0.03145,0.9428,-0.33186,0.18512,-0.91865,0.40773
0.00047,0.95883,-0.28398,0.61052,0.53965,-1.66993
0.02573,0.95277,-0.30259,0.6485,1.39254,-2.20333
0.03026,0.94435,-0.32755,0.20399,0.21432,-0.38613
0.01721,0.93421,-0.35631,0.25928,-0.96952,1.74977
0.04298,0.9189,-0.39215,-1.41969,0.55295,1.17636
0.03578,0.92435,-0.37987,-0.42143,0.64209,1.01041
0.01774,0.92816,-0.37176,-0.44393,-0.25721,1.40493
-0.01426,0.94143,-0.3369,-0.45515,-0.04544,1.40669
-0.0779,0.95229,-0.29507,-0.4917,2.25657,1.11039
-0.15281,0.95857,-0.2404,0.45085,2.28246,-0.03651
-0.18348,0.97754,-0.10369,1.38824,1.44315,-0.14851
-0.14728,0.98905,-0.00874,0.12842,1.196,-0.58509
-0.09599,0.99358,0.05979,-0.76189,0.81239,-1.13396
-0.0523,0.99071,0.12552,-1.07166,-0.06062,-0.90726
-0.03792,0.98343,0.17728,-1.04919,-0.53866,-0.93862
-0.05541,0.97766,0.20273,0.07231,-0.83707,-0.61308
-0.07387,0.97415,0.21348,0.28661,-0.81073,-0.37665
-0.08551,0.97234,0.21733,0.28113,-0.98135,-0.49455
-0.08672,0.97263,0.21556,0.39647,-1.06964,-0.78772
-0.07091,0.97774,0.19748,0.29641,-0.78425,-1.08687
-0.06137,0.9875,0.14514,-0.40602,-0.96632,-0.61478
-0.06498,0.99391,0.08898,-0.57186,-0.42994,-0.12048
-0.07834,0.99644,0.03093,-0.4464,-0.02678,0.29379
-0.09606,0.9942,-0.04827,0.21967,1.80402,0.68036
-0.10235,0.9821,-0.15813,-0.10806,2.98079,0.37233
-0.10001,0.96665,-0.23576,-0.96589,1.22548,0.4747
-0.07099,0.95527,-0.28706,-1.18339,1.71492,0.13112
-0.02712,0.9408,-0.33786,0.00259,1.40064,-0.13026
-0.0022,0.92552,-0.37869,0.94049,1.04837,0.46481
0.00257,0.90573,-0.42384,0.48504,0.3953,0.65552
-0.01787,0.88176,-0.47136,0.0369,0.12387,0.97613
-0.04062,0.86449,-0.50101,-0.59957,-1.22516,1.18445
-0.051,0.86084,-0.50632,-0.42483,-1.67952,1.05583
-0.05483,0.87382,-0.48315,-0.31289,-1.69532,0.99307
-0.05962,0.89597,-0.44008,-0.08586,-1.70359,0.92879
-0.06067,0.92282,-0.38042,0.40902,-1.61325,0.89436
-0.04832,0.94858,-0.31281,0.61501,-0.65877,0.2224
-0.00864,0.95698,-0.29001,0.72138,0.05513,-0.9489
0.02982,0.94836,-0.31579,0.35025,0.41988,-1.11471
0.0416,0.94005,-0.33848,-0.17318,-0.08738,-0.9611
0.04812,0.92161,-0.38512,-0.3658,1.23571,1.97906
0.04209,0.90531,-0.42266,-0.475,-0.70302,0.23551
0.02582,0.91188,-0.40965,-0.76105,0.34587,1.90066
0.01075,0.92981,-0.36787,-0.66295,0.19781,1.14198
-0.02582,0.95614,-0.29175,-0.81961,0.81149,1.08435
-0.10098,0.97031,-0.21978,-0.65956,1.7305,1.00866
-0.16144,0.97711,-0.13851,0.79286,2.56633,0.19188
-0.16313,0.98604,-0.03326,0.80058,1.47886,-0.75294
-0.12649,0.99149,0.03067,0.16905,1.27821,-0.60167
-0.08839,0.99126,0.09787,-0.68003,0.18551,-1.05583
-0.05381,0.98529,0.16216,-1.2672,-0.50127,-0.77683
-0.05101,0.97931,0.19583,-0.74404,-0.78877,-0.78819
-0.07248,0.97559,0.20726,0.12971,-1.12304,-0.3417
-0.09083,0.97048,0.22342,0.2705,-0.99024,-0.1064
-0.1016,0.96618,0.23701,0.07211,-0.97266,-0.29319
-0.10158,0.96625,0.2367,0.60817,-0.86985,-1.50379
-0.08974,0.97859,0.18519,-0.46026,-0.67789,-1.73412
-0.0929,0.98878,0.11692,-0.19004,-0.31647,0.10992
-0.10583,0.99286,0.05494,-0.21444,0.0027,0.26652
-0.11228,0.99345,-0.02094,-0.21037,0.50913,0.33483
-0.11404,0.98481,-0.13091,0.24772,3.02257,0.32328
-0.11828,0.96596,-0.23007,-0.08175,2.59061,0.33925
-0.0941,0.95021,-0.29706,-1.42515,1.83792,0.54085
-0.05079,0.93572,-0.34907,-0.49572,1.51623,-0.13009
-0.02814,0.9181,-0.39534,0.09902,1.25367,0.08638
-0.01759,0.90348,-0.42827,1.54843,0.92851,0.65399
-0.03361,0.88081,-0.47228,0.49714,0.38387,0.9131
-0.06893,0.85787,-0.50922,-0.46457,-0.68653,1.40555
-0.08998,0.84997,-0.51909,-0.61751,-1.63333,1.3623
-0.09256,0.86052,-0.50094,-0.21127,-1.85088,1.16187
-0.07983,0.88562,-0.45749,-0.08681,-1.90278,1.05867
-0.06434,0.92364,-0.37781,0.38631,-1.87133,1.25451
-0.04267,0.9577,-0.28459,0.1669,-0.96777,0.45199
-0.00767,0.96527,-0.26113,0.55958,0.4187,-1.63369
0.0143,0.95275,-0.30342,0.39249,0.51109,-1.07435
0.01897,0.94864,-0.31577,0.37296,-0.2425,-0.0615
0.01273,0.93895,-0.3438,0.39188,-0.59275,-0.29798
0.04445,0.92081,-0.38746,-1.10468,2.80691,-0.21761
0.0525,0.90982,-0.41166,-0.93844,1.65103,0.92342
0.05411,0.90414,-0.4238,-0.61918,-0.46319,1.34354
0.05397,0.92089,-0.38605,-0.9959,0.12062,1.37851
0.01664,0.94224,-0.33452,-1.24232,0.9573,1.12551
-0.06797,0.95595,-0.28556,-0.62488,1.76949,0.80801
-0.13767,0.97613,-0.16797,1.55075,2.0619,-0.57367
-0.13801,0.9896,-0.04049,1.65354,1.78622,-0.94891
-0.10093,0.99484,0.01001,-0.16441,0.98892,-1.2816
-0.07181,0.99467,0.07394,-0.51581,0.00284,-0.80985
-0.04924,0.98979,0.13374,-0.67267,-0.45614,-0.58807
-0.04821,0.98383,0.17248,-0.65131,-0.81224,-0.69801
-0.06648,0.97888,0.19329,0.10114,-0.95232,-0.28785
-0.08199,0.97603,0.20159,0.18997,-0.92194,-0.60818
-0.08568,0.97567,0.20181,0.48011,-0.66715,-1.35391
-0.07599,0.98121,0.17731,-0.17517,-0.72745,-0.72406
-0.076,0.9904,0.11546,-0.36523,-0.90686,-0.37052
-0.0824,0.99498,0.05677,-0.33682,-0.52205,-0.19074
-0.08919,0.99601,-0.00207,-0.17954,-0.10137,-0.07203
-0.09213,0.99254,-0.07976,0.27045,1.3587,0.30292
-0.08673,0.97814,-0.18896,0.5748,2.95202,0.47958
-0.07678,0.95665,-0.28092,-0.47302,1.67752,0.73313
-0.04149,0.94455,-0.32572,-1.24315,1.66423,0.11013
0.01111,0.92807,-0.37225,-0.08606,1.3084,-0.13981
0.05122,0.90938,-0.41279,0.76227,0.97835,0.28963
0.0571,0.88511,-0.46187,1.03497,0.88175,0.69756
0.01793,0.85397,-0.52002,0.09366,0.07119,1.12716
-0.02938,0.83105,-0.55542,-0.70577,-0.90962,1.3088
-0.05812,0.82536,-0.5616,-0.5903,-1.51831,1.27004
-0.06782,0.83966,-0.53885,-0.20852,-1.49785,1.07404
-0.06931,0.86594,-0.49531,-0.07673,-1.5538,0.88603
-0.05734,0.8983,-0.43561,0.18648,-1.75336,0.72097
-0.03268,0.93298,-0.35844,0.65006,-1.19378,0.48494
0.00706,0.95109,-0.30881,0.50672,-0.0462,-1.15257
0.03845,0.94869,-0.31385,0.8205,1.03837,-1.22892
0.045,0.93891,-0.34121,0.04142,0.35765,-1.43747
0.03373,0.92466,-0.37929,-0.24673,-1.00143,3.06812
0.0323,0.91398,-0.40447,-2.86747,3.94827,-3.51134
0.00473,0.90894,-0.4169,0.32996,-0.98183,1.50537
0.00015,0.9247,-0.3807,0.10131,-0.483,1.76735
-0.02297,0.95182,-0.30579,-0.44635,1.03446,1.93448
-0.0778,0.96113,-0.26489,-0.24735,2.12659,1.52336
-0.13269,0.97597,-0.17282,1.05566,1.71711,-0.9263
-0.14176,0.98786,-0.06344,0.67516,1.5322,-0.70251
-0.11153,0.99373,-0.00788,-0.42674,1.13089,-0.41926
-0.0774,0.99502,0.06278,-0.79165,0.04647,-0.79651
-0.05246,0.99023,0.12917,-0.86673,-0.36325,-0.88492
-0.05711,0.98425,0.1673,-0.4843,-0.64044,-0.7554
-0.07542,0.97804,0.19428,0.29577,-0.88789,-0.19668
-0.09128,0.97119,0.22011,0.19989,-0.78821,-0.5541
-0.09875,0.96881,0.22724,0.25664,-0.77184,-0.91896
-0.09406,0.97208,0.21498,0.23397,-0.71983,-1.15855
-0.08234,0.98204,0.16971,-0.29473,-0.84421,-0.79065
-0.08197,0.99165,0.09951,-0.35561,-0.7153,-0.36982
-0.0849,0.99609,0.02424,-0.09656,0.47746,0.41874
-0.0871,0.99323,-0.07683,0.13884,1.08053,0.79674
-0.0983,0.9784,-0.18184,-0.36926,2.76287,0.21163
-0.09947,0.96384,-0.2472,-0.96378,2.09576,0.23005
-0.06403,0.94781,-0.31234,-0.93992,1.86146,0.32508
-0.02279,0.92734,-0.37352,0.11495,1.42584,0.19637
-0.00375,0.90608,-0.42308,1.72228,1.10909,0.50677
-0.01018,0.87736,-0.47972,0.37656,0.48885,0.72655
-0.04667,0.84527,-0.53229,-0.43951,-0.52069,1.27791
-0.07638,0.82394,-0.5615,-0.61367,-1.33711,1.30723
-0.09218,0.82239,-0.5614,-0.31323,-1.7569,1.22305
-0.09787,0.83875,-0.53564,0.02942,-1.73652,1.15527
-0.09015,0.86637,-0.49119,0.25751,-1.8812,1.12666
-0.06858,0.90125,-0.42782,0.32834,-1.55511,0.96257
-0.03253,0.93196,-0.36109,0.19117,-0.7543,-0.19809
0.0045,0.93568,-0.35282,0.64162,0.81784,-2.1109
0.01715,0.93054,-0.36578,0.24994,0.39645,-0.80321
0.00606,0.92633,-0.37667,0.37972,-0.53958,0.02464
0.01144,0.91864,-0.39492,0.05354,-1.68584,3.36186
0.0229,0.91667,-0.39899,-3.40226,5.93685,-5.17338
0.01064,0.92023,-0.39123,0.06643,-0.25225,1.84611
0.00714,0.92714,-0.37464,0.23836,-1.08847,1.29093
-0.02317,0.93877,-0.34377,0.05652,0.79913,2.09957
-0.06968,0.94132,-0.33023,-0.33153,2.27041,1.51803
-0.12113,0.9693,-0.21394,0.64594,1.59477,0.16328
-0.13482,0.98785,-0.07729,0.77747,1.25963,-0.91399
-0.1112,0.99358,-0.02057,-0.58866,1.14376,-0.75546
-0.08027,0.99596,0.04015,-0.71192,0.7207,-0.70082
-0.05932,0.99278,0.10421,-1.11444,-0.11745,-1.01478
-0.06439,0.98818,0.1391,-0.41192,-0.60261,-0.89302
-0.0758,0.98402,0.16108,0.58666,-1.03609,-0.28035
-0.08393,0.98122,0.17368,0.54529,-1.04504,-0.243
-0.08449,0.98146,0.17202,0.37488,-0.9888,-0.78964
-0.06759,0.98433,0.16287,-0.17373,-0.5402,-1.1214
-0.05513,0.99129,0.11958,-0.67485,-0.89035,-0.85697
-0.06187,0.99595,0.06513,-0.80416,-0.56831,-0.29958
-0.07732,0.99695,0.00989,-0.35293,-0.41158,-0.1303
-0.09503,0.9939,-0.05601,-0.04766,-0.09901,0.02985
-0.10347,0.9832,-0.15037,0.76086,3.10749,0.46142
-0.09037,0.95681,-0.2763,0.14598,2.2454,0.77758
-0.06466,0.92933,-0.36355,-0.50107,1.35137,0.9419
-0.00046,0.91824,-0.39602,-1.74661,1.73024,0.15554
0.04719,0.89315,-0.44728,0.72467,1.42485,-0.16651
0.07044,0.86104,-0.50363,1.60441,1.04062,0.46632
0.03526,0.82431,-0.56504,0.64022,0.39827,0.98357
-0.03006,0.79383,-0.60739,-0.36678,-0.58412,1.31157
-0.07129,0.78094,-0.62053,-0.78392,-1.28641,1.35116
-0.08162,0.787,-0.61153,-0.51834,-1.38539,1.25283
-0.07966,0.80817,-0.58354,-0.21251,-1.36221,1.15957
-0.06848,0.83982,-0.53853,-0.09581,-1.65795,1.05054
-0.04452,0.88001,-0.47286,0.35829,-1.55788,0.92987
-0.01709,0.91626,-0.40022,0.50679,-0.73593,0.25111
0.02538,0.92812,-0.37141,0.81349,0.77855,-1.70291
0.05963,0.91972,-0.38801,0.30545,0.71068,-1.21471
0.06469,0.90965,-0.41031,-0.08053,0.47739,-0.69593
0.0708,0.88475,-0.46066,-0.10133,3.47416,0.86268
0.05564,0.85748,-0.5115,-0.35078,-1.23918,1.0404
0.05598,0.85849,-0.50977,-0.65766,-1.10165,1.89797
0.07849,0.88716,-0.45474,-0.87257,0.08933,1.67337
0.05164,0.92419,-0.37843,-1.2935,1.43735,0.33146
-0.04218,0.94629,-0.32054,-0.07089,1.81669,0.5256
-0.12528,0.9586,-0.25569,1.43583,1.78904,-0.3721
-0.15309,0.97459,-0.16353,1.35984,1.25729,-0.33903
-0.13094,0.98718,-0.09128,0.23132,0.79754,-0.36889
-0.09707,0.99493,-0.02631,-0.36983,0.46487,-0.72671
-0.07601,0.99684,0.02284,-0.70951,-0.22308,-0.76128
-0.06755,0.99616,0.0557,-0.74223,-0.61164,-0.63211
-0.07418,0.99406,0.07959,-0.03682,-0.95804,-0.53778
-0.08272,0.99225,0.09272,0.28937,-0.91859,-0.36213
-0.09118,0.99149,0.09292,0.26239,-0.98345,-0.38645
-0.0915,0.99252,0.08077,0.42612,-0.87959,-0.66133
-0.08656,0.99532,0.04283,-0.20371,-0.67368,-1.03844
-0.08965,0.99594,-0.00847,-0.55075,-0.85235,-0.3448
-0.0994,0.99283,-0.06636,-0.22898,-0.29856,0.32884
-0.10504,0.98488,-0.13773,0.44322,1.86891,0.50759
-0.10576,0.96609,-0.23553,0.48404,2.88271,0.2091
-0.09986,0.94544,-0.31011,-0.76007,0.82415,0.17984
-0.06723,0.92968,-0.36219,-1.10866,1.73794,0.22023
-0.01863,0.90801,-0.41852,-0.0722,1.40076,0.30585
0.01932,0.88904,-0.45741,0.53125,1.24711,0.45819
0.0429,0.87203,-0.48756,1.27792,1.05486,0.56526
0.03474,0.848,-0.52886,0.49555,0.66189,0.64557
0.00629,0.82363,-0.5671,-0.18446,-0.0745,1.00678
-0.01291,0.81337,-0.5816,-0.62445,-1.04495,1.05656
-0.02045,0.82095,-0.57063,-0.42966,-1.37967,1.02928
-0.0229,0.8429,-0.53757,-0.24913,-1.47271,0.93603
-0.02154,0.87267,-0.48783,-0.15932,-1.67028,0.87544
-0.01807,0.90508,-0.42484,0.14605,-1.42568,0.81411
-0.00383,0.93118,-0.36453,0.27809,-0.48636,-0.33269
0.01959,0.92747,-0.37337,0.61482,0.45275,-1.70948
0.03465,0.90876,-0.41586,0.49982,0.39903,-1.94296
0.02353,0.90043,-0.43437,0.38242,-0.79142,1.89981
0.02903,0.88033,-0.47346,0.36817,-1.57537,3.69995
0.01524,0.8819,-0.47119,-1.96753,5.44348,-2.74647
0.02338,0.87742,-0.47914,0.58396,-0.03148,1.71468
0.01491,0.8573,-0.51459,-0.12862,-0.86405,1.44991
0.01848,0.86315,-0.5046,-0.13294,-0.79078,1.31704
-0.02224,0.88418,-0.46662,-1.1683,2.64605,1.44788
-0.09789,0.89803,-0.42891,-0.92167,2.3475,1.02464
-0.18479,0.92817,-0.32302,1.01178,1.15989,-0.02447
-0.198,0.9468,-0.25371,0.69012,0.94413,-0.25601
-0.17237,0.96687,-0.18828,0.02379,0.60468,-0.37074
-0.14504,0.98251,-0.11676,-0.57962,0.15908,-0.68138
-0.12669,0.98947,-0.06996,-0.68911,-0.31935,-0.53736
-0.12067,0.99156,-0.04728,-0.45968,-0.55098,-0.30302
-0.12564,0.99161,-0.03031,-0.29524,-0.84285,-0.25648
-0.14143,0.98958,-0.0267,0.04189,-0.79146,-0.48111
-0.15665,0.98665,-0.04449,0.1683,-0.80846,-0.40653
-0.16644,0.98365,-0.0688,0.08783,-0.87261,-0.2435
-0.17548,0.97976,-0.09625,0.24781,-0.82045,-0.02167
-0.18645,0.97289,-0.13684,0.16296,-0.73975,-0.08829
-0.20527,0.96048,-0.18798,0.11667,-0.60161,-0.17613
-0.21646,0.94371,-0.25012,0.7294,2.53398,0.75042
-0.20785,0.92014,-0.33187,0.85804,2.89044,0.88759
-0.18783,0.89871,-0.39628,-0.17862,0.75569,0.66382
-0.16896,0.88032,-0.44327,-0.42331,1.09498,0.32766
-0.14453,0.85909,-0.49099,-0.45813,2.09291,0.20411
-0.10091,0.84391,-0.52691,0.34721,1.28102,0.36801
-0.06293,0.83539,-0.54604,0.46789,0.89209,0.63504
-0.04722,0.82818,-0.55847,0.32968,0.49693,0.80541
-0.05249,0.82065,-0.56901,-0.1198,-0.11634,1.06225
-0.0685,0.81828,-0.57072,-0.11543,-0.64821,1.07015
-0.09119,0.82307,-0.56057,0.04553,-0.98137,1.02056
-0.12001,0.83429,-0.53811,0.0863,-1.11722,1.07987
-0.15089,0.85174,-0.50177,0.04217,-1.33874,1.09794
-0.18602,0.87229,-0.45222,-0.00737,-1.25419,0.74432
-0.22848,0.88983,-0.39496,0.29324,-0.54083,-0.1573
-0.26599,0.89239,-0.36453,0.36068,0.48042,-1.59553
-0.3115,0.87476,-0.37116,0.55182,0.57943,-1.44941
-0.34893,0.85622,-0.38095,0.23007,-0.28532,-0.39537
-0.34803,0.83855,-0.41917,-0.28702,-1.71071,3.19483
-0.32394,0.82998,-0.45409,-0.58152,-1.61248,2.14105
-0.3524,0.83025,-0.43186,-1.40152,6.25688,-1.72464
-0.40369,0.81194,-0.42165,1.30742,4.9851,-2.04165
-0.42551,0.7652,-0.48312,1.10724,-0.31106,1.72945
-0.48568,0.74589,-0.45581,0.91335,0.33269,1.50004
-0.52413,0.76071,-0.38289,0.78798,1.02052,1.27884
-0.52868,0.79696,-0.29214,0.47474,1.58051,0.26643
-0.52221,0.81831,-0.24014,0.62563,0.94459,-0.15517
-0.52073,0.83452,-0.18005,0.35998,0.84181,0.15804
-0.51622,0.84941,-0.10957,0.02541,0.37181,-0.00576
-0.50623,0.8612,-0.04546,0.12069,0.05607,-0.23348
-0.49787,0.86724,0.00304,0.2022,-0.19618,-0.27752
-0.49338,0.86907,0.03581,0.29013,-0.37954,-0.27252
-0.49224,0.86829,0.06135,0.39499,-0.44918,-0.26068
-0.49233,0.86695,0.07746,0.63366,-0.49609,-0.24384
-0.49027,0.86713,0.08782,0.72216,-0.53901,-0.23133
-0.48536,0.86868,0.09911,0.73745,-0.63599,-0.24328
-0.47941,0.87123,0.10544,0.71683,-0.69335,-0.24689
-0.47388,0.875,0.09907,0.61783,-0.65541,-0.17861
-0.46721,0.88011,0.08433,0.55406,0.0009,0.2513
-0.45181,0.88953,0.06784,0.63934,0.71233,0.44508
-0.42855,0.90152,0.06001,0.57601,1.34299,0.51884
-0.40651,0.91174,0.05896,0.07846,0.80608,-0.23753
-0.39056,0.91964,0.04152,-0.06472,1.1301,-0.51192
-0.37681,0.92622,0.01085,0.06834,1.51221,-0.44499
-0.35299,0.93552,-0.01413,0.37862,1.06247,-0.18533
-0.32813,0.94411,-0.03132,0.3427,0.69519,-0.0615
-0.30646,0.95106,-0.0396,0.33811,0.42906,0.00119
-0.29144,0.95534,-0.0489,0.37162,0.18115,0.05196
-0.28131,0.95789,-0.05754,0.30295,-0.08954,0.11152
-0.27566,0.95904,-0.0652,0.19935,-0.50199,0.14807
-0.27367,0.95911,-0.0721,0.05035,-0.75066,0.2579
-0.27368,0.9588,-0.07616,0.01378,-0.80848,0.25094
-0.27537,0.95839,-0.07518,0.1235,-0.75939,0.13707
-0.27571,0.95876,-0.06898,0.23132,-0.671,-0.10683
-0.27176,0.96036,-0.06204,0.36139,-0.59594,-0.48133
-0.26535,0.96239,-0.05822,0.33405,-0.48017,-0.66199
-0.25986,0.96404,-0.05561,0.30615,-0.4132,-0.62452
-0.25608,0.96476,-0.06047,0.30311,-0.32844,-0.55919
-0.25124,0.96463,-0.07974,0.28821,-0.42256,-0.43363
-0.24431,0.96204,-0.12159,0.38859,-0.58878,-0.1189
-0.23019,0.96752,-0.10446,0.02365,-1.16874,2.11958
-0.21671,0.97171,-0.09386,-1.19211,0.61949,-0.85718
-0.23328,0.96997,-0.0688,-0.28299,1.37935,0.66916
-0.26693,0.9627,-0.04431,0.09809,0.69044,0.15042
-0.30296,0.953,-0.00367,0.06924,0.44503,-0.13252
-0.34389,0.93754,0.05251,0.39458,1.02438,0.2969
-0.36715,0.92049,0.13375,0.70625,1.68348,0.17979
-0.33967,0.9118,0.23072,1.22985,2.14908,0.01929
-0.28622,0.90713,0.30853,0.44726,1.24296,-0.70989
-0.22762,0.90256,0.36547,-0.52476,0.9924,-1.15023
-0.16872,0.89788,0.40662,-0.98329,0.36422,-1.09128
-0.13958,0.89245,0.42901,-1.08235,-0.20708,-1.3322
-0.14229,0.88716,0.43897,-0.45981,-0.51713,-1.25582
-0.1569,0.88443,0.4395,0.21314,-0.82961,-1.01341
-0.16794,0.88469,0.43487,0.5479,-1.00803,-0.71107
-0.17287,0.89074,0.42036,0.66335,-0.88054,-0.45356
-0.17501,0.89911,0.40121,0.39156,-0.96826,-0.11829
-0.17007,0.90452,0.39105,0.12035,-1.05124,-0.06422
-0.14846,0.90799,0.39181,0.14066,-0.82057,-0.55777
-0.10876,0.91663,0.38465,-0.3668,-0.15769,-1.70167
-0.09306,0.93912,0.33074,-0.55947,0.95769,-0.58894
-0.10697,0.96018,0.25807,-0.02244,1.7147,0.16501
-0.11349,0.97496,0.19122,-0.35728,2.30994,0.54688
-0.11633,0.98308,0.14148,-0.11896,1.5242,0.34496
-0.11784,0.98848,0.09497,0.07176,1.63434,-0.02663
-0.10651,0.99396,0.02623,0.9192,1.78645,-0.85643
-0.08749,0.99554,-0.0351,0.51114,1.19736,-0.30444
-0.07766,0.99274,-0.09184,0.21635,0.49464,0.21969
-0.07826,0.98655,-0.14352,0.0334,-0.12041,0.52479
-0.09096,0.97982,-0.17799,-0.28117,-0.79477,0.59434
-0.10803,0.97477,-0.19532,-0.24541,-1.17599,0.79377
-0.1235,0.9737,-0.19144,-0.23545,-1.54247,0.75682
-0.1342,0.97646,-0.16883,-0.01146,-1.67751,0.67674
-0.13348,0.98213,-0.13266,0.21583,-1.76167,0.47136
-0.12119,0.98934,-0.08074,0.39354,-1.62326,0.22887
-0.09814,0.99494,-0.02161,0.47236,-1.00295,-0.34418
-0.06922,0.99754,0.01093,0.66948,-0.01455,-1.54018
-0.04633,0.99872,0.01992,0.62193,0.21639,-0.91985
-0.03322,0.99941,0.00818,0.32083,-0.57099,-0.09285
-0.02759,0.99939,-0.02151,-0.63591,-0.93359,2.12849
-0.03938,0.9991,-0.01586,-2.40671,2.60038,-1.34107
-0.0868,0.99618,-0.00925,-0.20284,-0.25611,0.936
-0.13653,0.9902,0.02935,-0.12804,-0.03019,1.05661
-0.20052,0.97615,0.08321,0.1705,1.97046,1.20637
-0.23531,0.9595,0.15488,1.54163,2.40729,-1.34439
-0.19564,0.93036,0.31008,1.6204,1.84628,-1.20809
-0.14996,0.91043,0.38551,0.66859,1.35138,-1.03656
-0.10292,0.89347,0.43717,-0.3595,0.79557,-1.31815
-0.06569,0.86762,0.49285,-0.67693,0.35122,-1.2519
-0.03058,0.8518,0.52297,-1.38831,-0.3057,-1.27134
-0.03667,0.84532,0.53299,-0.07616,-0.7826,-0.9305
-0.05394,0.84696,0.5289,0.49355,-0.73647,-0.85424
-0.05865,0.85496,0.51536,0.35585,-0.86253,-0.7071
-0.0541,0.86742,0.49462,0.33202,-0.84747,-1.09556
-0.03863,0.88253,0.46865,0.07492,-0.56657,-1.26205
-0.02847,0.90544,0.42351,-0.40227,-0.82489,-0.85221
-0.02779,0.92818,0.37108,-0.77096,-0.32572,-0.66895
-0.04887,0.95275,0.2998,-0.60332,1.42702,-0.18957
-0.07926,0.97903,0.18766,0.14055,2.34194,0.44584
-0.09551,0.9921,0.08134,-0.29654,1.52054,0.57969
-0.10778,0.99409,0.01271,-0.70198,1.49395,0.74029
-0.11993,0.99158,-0.04877,-0.54686,1.54135,0.19688
-0.12087,0.98566,-0.11775,1.32187,1.39362,-0.22078
-0.10411,0.98024,-0.16821,1.15436,1.04921,-0.06718
-0.09201,0.97301,-0.2116,0.33182,0.26293,0.47055
-0.09561,0.96476,-0.24514,-0.35039,-0.83189,0.82789
-0.10194,0.96054,-0.25879,-0.38556,-1.50804,0.91866
-0.10379,0.96283,-0.24936,-0.28288,-1.78618,0.86698
-0.1071,0.96997,-0.21836,-0.1158,-1.63403,0.68356
-0.11345,0.97864,-0.1714,-0.07614,-1.40443,0.30167
-0.1186,0.98588,-0.1182,0.03882,-1.17689,0.09489
-0.10825,0.98955,-0.09527,0.16416,-0.35736,-1.10729
-0.08423,0.9885,-0.12559,0.53188,0.30403,-1.95412
-0.06447,0.98811,-0.13956,0.63708,-0.34388,-1.16579
-0.04983,0.99254,-0.11122,0.83944,-1.97895,1.80953
-0.02097,0.99491,-0.09851,-0.07182,-1.50799,2.55998
-0.04348,0.99574,-0.08129,-1.47804,5.56984,-1.41307
-0.07809,0.99442,-0.07093,-0.10861,-0.77544,1.00063
-0.11091,0.99331,-0.03202,-0.02981,-0.17503,1.40737
-0.17284,0.98478,0.01792,-0.21165,1.75177,1.38656
-0.17824,0.97892,0.09974,0.55927,2.5845,-0.70402
-0.12539,0.95832,0.25671,1.13706,1.64757,-0.61745
-0.07115,0.94073,0.33159,-0.47333,1.31498,-1.22571
-0.02881,0.92557,0.37746,-0.83798,0.89639,-1.60998
0.00295,0.90102,0.43375,-1.12854,0.21857,-1.14606
0.00478,0.87722,0.48005,-0.95012,-0.45122,-1.45234
-0.03,0.86882,0.49421,0.2479,-0.75816,-0.8418
-0.07278,0.86813,0.49096,0.41252,-0.76771,-0.5579
-0.10143,0.87261,0.47776,0.28619,-0.88007,-0.69625
-0.10012,0.87766,0.46871,0.43657,-0.8511,-1.41695
-0.06941,0.88883,0.45293,0.08511,-0.68134,-1.77363
-0.04683,0.9191,0.39122,-0.3842,-0.72315,-0.58905
-0.05383,0.94934,0.30958,-0.36182,-0.5352,-0.16523
-0.06417,0.97375,0.21837,-0.38027,1.38256,0.27937
-0.07406,0.98969,0.12254,-0.00798,2.32073,0.00473
-0.08673,0.9946,0.05696,-0.78865,1.91531,0.30101
-0.07428,0.99718,-0.01006,-0.03251,1.60435,-0.08382
-0.04699,0.99625,-0.07266,0.45891,1.46771,-0.17
-0.01539,0.9913,-0.13071,1.15353,1.2808,0.06925
0.00349,0.97981,-0.19987,0.39588,0.52713,0.34105
-0.00417,0.96393,-0.26611,-0.66966,-0.77934,0.92216
-0.02,0.95299,-0.30234,-0.82705,-1.61912,1.11693
-0.0325,0.95409,-0.29775,-0.62852,-1.85596,0.96545
-0.04706,0.96324,-0.26447,-0.11467,-1.49905,0.79499
-0.05947,0.97422,-0.21762,0.01911,-1.42646,0.56432
-0.06574,0.98453,-0.1624,0.1813,-1.6337,0.36838
-0.06171,0.99258,-0.10477,0.05791,-1.2275,-0.30131
-0.03701,0.99649,-0.07501,0.99179,0.52453,-1.57116
-0.01335,0.99751,-0.06915,0.8493,-0.10562,-0.95856
-0.00133,0.9976,-0.06923,0.78183,-0.75822,0.67937
0.02608,0.99603,-0.08511,-2.52058,3.68766,-3.90323
0.02903,0.99526,-0.09273,-0.64669,-0.23017,1.36716
0.01182,0.99633,-0.08478,-0.42399,-0.76775,1.15294
-0.01755,0.99952,-0.0253,-0.64055,0.12128,1.10406
-0.08706,0.99479,0.05306,-0.38712,2.64901,1.43945
-0.14415,0.98584,0.08558,-0.33003,2.65795,1.40693
-0.11586,0.96615,0.23048,1.07039,1.8008,-0.8992
-0.07042,0.94054,0.33229,0.1536,1.40972,-1.10168
-0.03089,0.9244,0.38015,-0.49812,0.96424,-1.68331
-6e-05,0.89769,0.44062,-1.19975,-0.08043,-1.50196
0.01659,0.87752,0.47923,-0.67832,-0.85212,-1.04332
-0.00968,0.86774,0.49691,0.26337,-0.80068,-1.02672
-0.03334,0.85943,0.51016,0.38697,-0.79874,-0.68405
-0.0535,0.85872,0.50963,0.24752,-0.87041,-0.68617
-0.06148,0.86801,0.49272,0.40656,-0.80587,-1.269
-0.05036,0.8819,0.46873,-0.32065,-0.57276,-1.84788
-0.02005,0.90352,0.42806,-0.38189,-0.65677,-0.77152
-0.00091,0.937,0.34931,-0.65122,-0.12926,0.13694
-0.01598,0.96543,0.26015,-0.7732,1.64336,-0.17895
-0.04466,0.98433,0.17055,0.20582,3.34924,-0.06403
-0.07155,0.99528,0.06555,-0.2408,1.87472,0.28658
-0.0845,0.99631,-0.01476,-0.76615,1.87457,0.24427
-0.07235,0.99467,-0.07337,0.183,1.52184,-0.32104
-0.0599,0.98881,-0.13663,1.23016,1.21807,0.16823
-0.04266,0.97961,-0.1963,0.89387,0.8521,0.23269
-0.04328,0.96472,-0.2597,-0.00407,0.04947,0.84326
-0.06205,0.94821,-0.31151,-0.5387,-1.0873,1.11959
-0.08233,0.9388,-0.33447,-0.56842,-1.87336,1.16432
-0.09637,0.94103,-0.3243,-0.17115,-2.02382,1.02536
-0.10633,0.95266,-0.28481,0.16726,-1.68919,0.73124
-0.11155,0.96876,-0.22149,0.31729,-1.76199,0.62907
-0.1092,0.98292,-0.14812,0.18985,-1.26841,-0.20557
-0.09261,0.98877,-0.11724,0.26607,0.03682,-1.81921
-0.07769,0.99005,-0.11733,0.35058,0.37736,-1.39255
-0.07711,0.98987,-0.11917,0.52091,-0.16614,-0.57485
-0.07107,0.98791,-0.13772,0.35127,-0.25465,2.687
-0.0551,0.984,-0.1694,-1.33961,1.09804,-0.16892
-0.06596,0.98527,-0.15778,-0.538,-0.38032,1.0254
-0.08101,0.98944,-0.12017,-0.41977,0.12297,1.44686
-0.1289,0.98942,-0.06652,-0.46518,1.54021,0.65178
-0.19068,0.98165,0.00082,0.07482,2.41101,0.32584
-0.19227,0.97173,0.137,0.8601,2.5076,-0.11136
-0.15261,0.9548,0.25506,-0.08273,1.3245,-1.18383
-0.10918,0.94396,0.31145,-0.35525,1.12719,-1.43979
-0.0754,0.92338,0.37639,-1.03614,0.45887,-1.4744
-0.05144,0.89798,0.43701,-0.68243,-0.4261,-1.2677
-0.06485,0.88323,0.46441,0.01523,-0.50378,-1.23738
-0.09573,0.86967,0.48425,0.49044,-0.80891,-0.96118
-0.1184,0.86172,0.49337,0.43754,-0.81052,-0.63781
-0.12421,0.86732,0.482,0.27497,-0.8864,-0.92395
-0.10347,0.88475,0.45441,0.28142,-0.49471,-1.91553
-0.0571,0.90589,0.41963,-0.56191,-0.8323,-0.43059
-0.04092,0.93654,0.34815,-0.63328,-0.36409,-0.26807
-0.05634,0.96141,0.26928,-0.16999,1.10657,-0.00564
-0.07389,0.98119,0.17834,0.3237,2.29984,-0.02932
-0.08713,0.99316,0.07767,0.12508,2.58193,-0.14554
-0.09898,0.99497,0.01493,-0.42209,2.21297,0.18075
-0.08238,0.99593,-0.03655,0.32267,1.45732,-0.23817
-0.04599,0.99543,-0.08359,1.29967,1.16719,-0.06237
-0.01085,0.99075,-0.13522,1.11557,0.85786,0.02955
-0.00111,0.97844,-0.20651,-0.0972,0.1089,0.74005
-0.01094,0.96371,-0.26671,-0.81668,-1.00233,1.15803
-0.02414,0.95501,-0.29558,-0.77909,-1.73353,1.10163
-0.03632,0.95747,-0.28622,-0.32686,-1.84041,0.94059
-0.05037,0.96721,-0.24893,-0.1901,-1.56699,0.95611
-0.06048,0.97885,-0.19539,-0.11008,-1.65987,0.70847
-0.06723,0.98925,-0.12983,0.06328,-1.58065,0.46595
-0.06532,0.99575,-0.06494,0.22985,-0.70954,-0.76756
-0.04092,0.99716,-0.06314,0.88322,1.0202,-2.16687
-0.01721,0.99684,-0.07749,1.00035,0.25957,-1.74056
-0.00442,0.99495,-0.10025,0.04112,0.65123,1.95619
-0.00231,0.98841,-0.15173,-1.07197,0.00827,1.34528
-0.01425,0.98897,-0.14743,-0.97867,-0.46831,0.84805
-0.0491,0.99568,-0.07873,-0.93814,0.24281,1.25011
-0.12335,0.99216,-0.02003,-0.84095,0.94763,0.69818
-0.19951,0.9796,0.02383,0.42185,2.75365,0.47898
-0.19337,0.96462,0.17919,1.91004,2.26829,-0.77094
-0.15055,0.93593,0.31836,0.49442,1.45034,-1.2808
-0.11344,0.92332,0.36687,-0.30259,0.93189,-2.21528
-0.07256,0.90433,0.4206,-0.74364,0.212,-1.34504
-0.04828,0.88136,0.46995,-1.16854,-0.68286,-0.87914
-0.06086,0.86898,0.49107,0.34399,-0.86999,-0.75317
-0.07781,0.8645,0.49657,0.40626,-0.8639,-0.85835
-0.079,0.86694,0.49209,0.35966,-0.82844,-1.04062
-0.05911,0.87775,0.47544,-0.16535,-0.4325,-1.32055
-0.03662,0.89833,0.43778,-0.685,-0.82515,-0.48438
-0.03845,0.9221,0.38501,-0.6738,-0.71873,-0.37059
-0.06192,0.94301,0.32693,-0.37285,-0.35671,-0.65278
-0.083,0.96578,0.24568,0.27024,1.16736,0.10333
-0.0991,0.98641,0.13097,0.52419,2.80268,0.20698
-0.10999,0.99386,0.01114,-0.26749,1.90396,0.49694
-0.11141,0.99149,-0.06728,-0.91283,1.86131,0.40715
-0.07895,0.98921,-0.12336,-1.02447,1.84998,0.24442
-0.04224,0.98315,-0.17783,1.37639,1.25063,0.19673
-0.01651,0.97156,-0.23621,0.97411,0.60613,0.33001
-0.01597,0.95689,-0.29001,-0.12123,-0.54713,0.92296
-0.03569,0.94459,-0.32628,-0.74421,-1.49242,1.25333
-0.04532,0.94481,-0.32445,-0.67749,-1.9892,1.19565
-0.04329,0.9565,-0.28849,-0.52385,-2.02557,1.09988
-0.03484,0.97536,-0.2178,0.15607,-2.0164,1.07664
-0.02854,0.99181,-0.12441,0.19493,-1.19999,0.33247
-0.01956,0.9986,-0.04907,0.29503,0.10655,-1.55869
-0.00032,0.99821,-0.05974,0.40659,1.12309,-2.49198
0.01403,0.99652,-0.08211,0.54449,0.16898,-0.3955
0.02303,0.99534,-0.09358,0.78144,-0.91389,0.89366
0.03153,0.99286,-0.11498,-0.07266,-1.76482,2.1862
0.06517,0.98691,-0.14751,-2.20263,1.31461,-1.50647
0.05453,0.99368,-0.0981,-1.32389,1.54517,1.72661
0.01543,0.99769,-0.06608,-0.63492,-0.09619,0.32763
-0.03473,0.9988,-0.0342,-0.3494,0.44368,1.06759
-0.10925,0.99398,-0.00809,-0.0775,0.97781,1.01204
-0.14082,0.9872,0.07475,1.35287,2.06254,-0.10016
-0.09715,0.96199,0.2552,1.62153,1.96375,-0.09471
-0.06107,0.93161,0.35826,0.52131,1.29089,-1.90936
-0.01157,0.91902,0.39403,-0.68583,0.61754,-1.25902
-0.00596,0.89082,0.45429,-1.09629,-0.174,-1.15023
-0.02384,0.87111,0.49049,-0.43449,-0.64366,-1.27383
-0.05376,0.8645,0.49974,0.49908,-0.7928,-0.96187
-0.07965,0.8682,0.48976,0.45976,-0.89515,-0.59395
-0.08802,0.88131,0.46426,0.29769,-0.88741,-0.84299
-0.07261,0.89525,0.43959,0.39402,-0.65609,-1.60842
-0.03702,0.91175,0.40906,-0.41203,-0.67502,-1.01556
-0.02826,0.94199,0.33442,-0.4535,-0.62412,-0.06161
-0.03234,0.96617,0.25583,-0.61233,0.15918,-0.05119
-0.04027,0.98449,0.17071,-0.26674,2.00742,-0.09286
-0.04332,0.99656,0.07053,-0.15384,2.11043,-0.19649
-0.05023,0.9986,-0.01647,-0.68813,1.90482,0.0611
-0.04639,0.99502,-0.08812,-0.58115,1.90399,0.14622
-0.02211,0.98866,-0.1485,0.48366,1.45523,-0.31812
-0.00669,0.97789,-0.209,1.11713,0.78436,0.19771
-0.00823,0.96154,-0.27452,-0.0376,-0.00282,0.79834
-0.02752,0.94391,-0.32905,-0.37156,-0.59559,1.04797
-0.04267,0.93328,-0.35661,-0.7612,-1.77649,1.17748
-0.04362,0.93666,-0.34751,-0.53749,-1.87886,1.12621
-0.04262,0.9504,-0.30808,0.02863,-1.6938,0.92289
-0.03603,0.96947,-0.24251,0.13504,-1.77128,0.79165
-0.02846,0.98643,-0.16166,0.09558,-1.21447,0.24743
-0.01777,0.99592,-0.08837,0.40264,-0.21797,-1.60312
0.00605,0.99693,-0.07801,0.58338,0.67092,-1.49169
0.02085,0.99654,-0.08039,0.43663,-0.21836,-0.74657
0.02113,0.99634,-0.08271,-0.24577,-0.78443,2.70396
0.02991,0.99301,-0.11411,-1.93818,2.76309,-0.94958
0.0068,0.99339,-0.11458,-0.02644,-0.62803,1.04916
-0.01702,0.99629,-0.08427,-0.00259,-0.15665,1.50265
-0.05234,0.99862,-0.00376,-0.60759,1.17497,1.18061
-0.10634,0.9928,0.05495,-0.17834,2.05366,1.03744
-0.11892,0.9863,0.11429,0.34765,2.03977,0.17293
-0.06815,0.9621,0.26402,0.39705,1.66769,-0.81398
-0.02077,0.93675,0.34937,-0.55622,1.2643,-1.28264
0.01535,0.91109,0.41189,-1.12399,0.45919,-1.71357
0.03964,0.88252,0.46858,-1.36248,-0.28934,-1.52066
0.02917,0.86529,0.5004,-0.55871,-0.90896,-1.08193
-0.0246,0.85545,0.51729,0.50776,-0.64489,-1.04352
-0.07865,0.84762,0.52472,0.43623,-0.73907,-0.45149
-0.11077,0.85272,0.51047,0.24271,-0.90222,-0.75562
-0.10573,0.86432,0.49169,0.32701,-0.86391,-0.96097
-0.08495,0.87225,0.48161,-0.04074,-0.5198,-2.23747
-0.08424,0.90439,0.41829,-0.23293,-0.61724,-1.12142
-0.06385,0.94169,0.33034,-0.3052,-0.18664,0.54883
-0.07617,0.96573,0.24808,-0.3527,2.31637,0.20072
-0.08107,0.9875,0.13516,-0.13152,3.96148,-0.34128
-0.10743,0.99291,0.05081,-0.75178,1.68359,-0.02972
-0.1059,0.99419,-0.01883,-0.8434,1.76203,0.58718
-0.08285,0.9927,-0.08757,0.32815,1.2433,-0.07479
-0.06356,0.98742,-0.14472,0.97728,0.9124,0.31899
-0.0496,0.97896,-0.19791,0.86211,0.45531,0.5789
-0.05967,0.96483,-0.25601,-0.37943,-0.62764,1.04994
-0.08042,0.95294,-0.29228,-0.63427,-1.56557,1.14215
-0.09724,0.9527,-0.28792,-0.18103,-2.09747,1.03771
-0.10943,0.96295,-0.24646,0.06765,-1.9592,0.94506
-0.11488,0.97769,-0.17585,0.11837,-2.10053,0.77183
-0.12277,0.98897,-0.08275,0.26238,-0.88953,0.21941
-0.11535,0.99329,-0.00794,0.56179,-0.32703,-0.71799
-0.08494,0.99558,-0.03995,0.7655,1.63128,-2.92506
-0.06294,0.99641,-0.05651,0.48031,0.00901,-0.8465
-0.0539,0.99591,-0.07237,0.52826,-0.69747,-0.29117
-0.04457,0.99092,-0.12684,-0.31909,-0.86453,3.31267
-0.04053,0.98938,-0.13957,-0.27461,-0.15135,0.75292
-0.06653,0.98917,-0.13079,-0.28719,-0.27733,1.27139
-0.08971,0.99147,-0.09446,-0.44177,0.42054,1.07776
-0.14523,0.98863,-0.03874,-0.62591,2.11455,0.94186
-0.19157,0.98136,0.01489,-0.01496,2.25736,-0.21296
-0.18361,0.96965,0.1614,1.14263,1.48555,0.09266
-0.12624,0.93963,0.31803,-0.04721,1.39931,-1.24125
-0.08848,0.9231,0.37422,-0.78808,0.80697,-1.88728
-0.06489,0.90012,0.43076,-1.43438,0.20094,-1.37024
-0.06903,0.87841,0.47288,-0.71077,-0.8735,-0.83827
-0.10494,0.86772,0.48583,0.54034,-0.90622,-0.67907
-0.13059,0.85956,0.49406,0.53397,-0.85803,-0.80534
-0.13897,0.86333,0.48512,0.55005,-0.7606,-1.33455
-0.13199,0.8759,0.46407,0.38203,-0.6136,-1.35117
-0.11071,0.89279,0.43664,-0.32285,-0.82319,-1.02737
-0.09949,0.91527,0.39034,-0.44151,-0.59734,-0.4145
-0.10702,0.93723,0.33187,-0.44077,-0.21112,-0.54644
-0.11465,0.95728,0.26544,0.2592,1.23436,0.12706
-0.10602,0.98217,0.15519,0.65996,2.94514,0.26219
-0.09951,0.99379,0.04971,-0.27626,1.621,0.26223
-0.11191,0.99329,-0.02885,-1.19789,1.89805,-0.02202
-0.10967,0.99091,-0.07789,-0.55934,1.25185,-0.1986
-0.08894,0.98739,-0.13094,1.11166,1.22839,-0.03657
-0.05369,0.98383,-0.17084,1.15384,1.00494,0.26366
-0.04031,0.97189,-0.23193,0.16858,0.30521,0.65287
-0.0532,0.95601,-0.28846,-0.70266,-1.02374,1.06542
-0.06838,0.947,-0.31386,-0.66877,-1.83889,1.10626
-0.0756,0.9498,-0.30359,-0.18827,-1.7623,0.91705
-0.08332,0.95911,-0.27048,-0.01229,-1.56983,0.84795
-0.08686,0.9714,-0.22096,0.01509,-1.67369,0.67222
-0.08679,0.98401,-0.15548,0.20929,-1.71715,0.56015
-0.08781,0.99283,-0.08108,-0.00012,-1.02482,0.03112
-0.07879,0.99597,-0.04276,0.2841,0.50104,-2.14982
-0.06108,0.9964,-0.05874,0.73669,0.74086,-1.53272
-0.05868,0.99608,-0.06613,0.53564,-0.55675,-0.32109
-0.06196,0.9927,-0.10343,-0.51153,-0.96069,2.90873
-0.07726,0.99304,-0.08879,-1.27552,3.89268,0.81175
-0.11418,0.98798,-0.1042,0.33905,-0.90675,0.89292
-0.13345,0.98782,-0.0799,0.38553,-0.43671,1.36824
-0.1775,0.98386,-0.02262,-0.36164,1.94327,1.32647
-0.20263,0.97924,0.00484,0.0209,1.64355,0.73503
-0.19662,0.97197,0.12883,0.61184,1.90417,-0.9846
-0.13258,0.94711,0.29223,-0.33678,1.08043,-1.10645
-0.0871,0.93053,0.35568,-0.97696,0.38879,-1.31516
-0.06204,0.90889,0.41237,-1.12328,0.08999,-1.39089
-0.06299,0.88163,0.46769,-0.65328,-0.88086,-1.0767
-0.09156,0.86613,0.49135,0.49401,-0.8736,-0.68494
-0.12399,0.85809,0.49829,0.49444,-0.72068,-0.85711
-0.13794,0.85776,0.49519,0.33211,-0.76744,-0.95683
-0.13358,0.86708,0.47991,0.48697,-0.70428,-1.46165
-0.11351,0.87872,0.46363,-0.12013,-0.69139,-1.52483
-0.09476,0.90293,0.4192,-0.14426,-0.70259,-0.28779
-0.09386,0.93131,0.3519,-0.4108,-0.39002,-0.17972
-0.09614,0.9528,0.28795,-0.30702,0.81458,-0.23923
-0.10524,0.9737,0.20202,0.52586,3.45391,-0.05349
-0.10727,0.99086,0.08177,0.3714,3.22822,-0.19845
-0.10864,0.99408,0.00113,-0.82959,1.29992,0.17556
-0.077,0.99583,-0.04885,-0.65968,1.55031,-0.28227
-0.04479,0.99362,-0.1034,0.66374,1.08368,0.02427
-0.01852,0.98944,-0.14375,1.40623,0.82972,0.45411
0.00061,0.98011,-0.19842,0.53044,0.20972,0.53538
-0.01204,0.96529,-0.2609,-0.47824,-0.86479,1.00063
-0.03809,0.95611,-0.29052,-0.76842,-1.7938,1.24403
-0.05993,0.95982,-0.27414,-0.42788,-1.89596,1.1072
-0.07459,0.97199,-0.22285,-0.15778,-1.96074,0.93847
-0.08246,0.98602,-0.14475,0.27357,-2.00796,0.99055
-0.08422,0.99508,-0.05205,0.42222,-0.82656,0.11597
-0.07002,0.9975,-0.00861,0.92266,0.77494,-2.19499
-0.04241,0.99852,-0.03383,0.79482,0.9881,-2.11895
-0.02771,0.9982,-0.05309,0.18726,0.54703,-1.22345
-0.02786,0.99692,-0.07317,-0.54746,-0.59928,3.34334
-0.02337,0.99187,-0.12506,-1.92152,1.51059,-0.61038
-0.03269,0.99275,-0.11558,-1.44625,1.72113,-1.02988
-0.05641,0.99359,-0.09788,-0.23693,0.04724,1.11166
-0.10227,0.99378,-0.04385,-0.26072,0.07703,0.85132
-0.17395,0.98464,-0.01489,-0.38536,1.20761,0.94654
-0.21062,0.9767,0.0411,0.71681,2.15755,-0.60464
-0.18204,0.95957,0.21463,1.16753,2.09856,-0.40675
-0.13226,0.93572,0.32699,-0.20017,1.10504,-1.39067
-0.09196,0.91991,0.38117,-0.78984,0.61851,-1.76046
-0.07034,0.89473,0.44101,-1.4236,0.1221,-1.35319
-0.0765,0.87618,0.47586,0.34216,-0.89386,-0.98375
-0.10552,0.86548,0.48968,0.73433,-0.91169,-0.88883
-0.12791,0.8624,0.48977,0.56077,-0.91486,-0.54357
-0.13967,0.8704,0.4721,0.40444,-0.83521,-1.25004
-0.12084,0.88563,0.44836,-0.09722,-0.30485,-2.22176
-0.06844,0.90487,0.42012,-0.44255,-0.68165,-1.83294
-0.04582,0.93339,0.3559,-0.66875,-0.54853,0.22634
-0.0541,0.95703,0.28485,-0.50369,1.33908,-0.5257
-0.07057,0.97706,0.20088,0.11729,2.09345,-0.16146
-0.08703,0.99204,0.09096,-0.41404,1.70598,-0.00963
-0.1053,0.99443,4e-05,-0.90774,1.70827,0.19484
-0.10899,0.99073,-0.08105,-0.83518,1.74772,-0.03192
-0.10581,0.98194,-0.15681,0.78007,1.13526,0.29062
-0.09823,0.97275,-0.20998,1.36744,0.82122,0.42339
-0.08198,0.96272,-0.25777,0.56007,0.35406,0.50899
-0.08417,0.94712,-0.30963,-0.17352,-0.8535,0.99865
-0.1036,0.93316,-0.34421,-0.57075,-1.69938,1.1824
-0.11871,0.93161,-0.34351,-0.40224,-1.92449,1.16196
-0.12355,0.94268,-0.30997,-0.10141,-1.97817,0.99095
-0.1178,0.96062,-0.25163,0.3837,-1.70945,1.08996
-0.11152,0.97805,-0.17597,0.10056,-1.03246,0.29594
-0.09428,0.98774,-0.12435,0.89126,0.1518,-2.20653
-0.06691,0.98888,-0.1328,0.51637,0.43025,-1.95885
-0.0608,0.98789,-0.14268,0.45361,-0.57545,0.39895
-0.05675,0.98506,-0.16253,-0.55213,-0.79775,2.97977
-0.04786,0.98378,-0.17282,-1.72385,2.89529,-0.52431
-0.07756,0.98315,-0.1655,0.02806,-0.91366,1.13369
-0.10264,0.98335,-0.14992,-0.07636,0.07857,1.28255
-0.15579,0.98313,-0.0958,-0.47481,2.06719,1.32152
-0.20756,0.97723,-0.0439,0.72541,2.13983,-0.42427
-0.20419,0.9703,0.12968,1.31614,1.71153,-0.24714
-0.1599,0.95112,0.26416,-0.17102,1.39284,-1.3325
-0.11188,0.94041,0.32108,-0.644,1.07234,-1.57044
-0.08134,0.91577,0.39336,-1.24369,0.08535,-1.23173
-0.06833,0.8933,0.44422,-0.60855,-0.65564,-0.99011
-0.08655,0.87747,0.47173,0.50126,-0.80741,-1.07204
-0.10692,0.86744,0.4859,0.43558,-0.68516,-0.85558
-0.11562,0.86871,0.48162,0.36273,-0.75885,-1.06779
-0.10036,0.88028,0.4637,0.37873,-0.79335,-1.37025
-0.0644,0.89993,0.43123,-0.41447,-0.74623,-1.48053
-0.03976,0.92413,0.37998,-0.50356,-0.69131,-0.11978
-0.04701,0.94432,0.32561,-0.40522,-0.19654,-0.45366
-0.06087,0.96437,0.25741,0.09745,1.01799,0.02759
-0.0766,0.98539,0.15207,0.46303,2.92315,0.32842
-0.08268,0.99529,0.05044,-0.15198,2.48675,0.15359
-0.0731,0.99732,0.00036,-1.00653,1.5484,0.0262
-0.03202,0.99864,-0.041,-0.04235,1.20415,-0.11965
0.01338,0.99658,-0.08145,0.98822,0.95543,0.0902
0.05305,0.99004,-0.13035,0.9159,0.59673,0.18174
0.05693,0.9766,-0.20738,-0.29274,-0.33257,0.83482
0.03623,0.96133,-0.27298,-0.64602,-0.90514,1.12203
0.01359,0.9554,-0.295,-0.65257,-1.9732,1.11236
-0.00556,0.9608,-0.27718,-0.55557,-1.83612,1.1109
-0.01778,0.97147,-0.23649,-0.42454,-1.92673,0.90655
-0.02187,0.9832,-0.18117,-0.14599,-1.66848,0.62209
-0.02569,0.99234,-0.12076,0.1542,-0.88401,-0.06232
-0.01735,0.99665,-0.07992,0.94766,0.83757,-2.35684
0.01614,0.99526,-0.09586,0.96657,0.68261,-1.52772
0.02921,0.99299,-0.11448,0.04597,-0.29686,0.30312
0.02779,0.98933,-0.14302,-0.97705,1.5978,0.77708
0.01982,0.98262,-0.18454,-0.85711,-0.27942,0.75697
0.00306,0.98459,-0.17481,-0.80152,-0.21438,1.71898
-0.02154,0.99379,-0.1091,-0.97713,0.16539,1.03365
-0.08274,0.99577,-0.03976,-1.23275,1.47478,0.18566
-0.17021,0.9854,0.00189,0.05832,2.80207,0.07204
-0.21249,0.97041,0.1146,1.80555,1.87556,-0.92251
-0.18015,0.94121,0.28577,1.22089,1.33837,-1.09612
-0.15465,0.92795,0.33908,0.12822,0.499,-1.7364
-0.11379,0.91609,0.38446,-0.6619,0.21892,-1.13968
-0.10072,0.89209,0.44047,-1.06142,-0.64644,-1.07191
-0.09964,0.87489,0.47394,0.03921,-0.99594,-0.86118
-0.12078,0.86298,0.49058,0.52742,-0.68105,-0.77084
-0.13029,0.8575,0.49769,0.34704,-0.70014,-0.77822
-0.12297,0.86231,0.4912,0.45004,-0.81565,-1.29416
-0.09802,0.87651,0.47129,0.06883,-0.46697,-2.03889
-0.06478,0.89941,0.43226,-0.34547,-0.87004,-0.56138
-0.05558,0.9249,0.3761,-0.38349,-0.49311,-0.00084
-0.0629,0.94893,0.30913,-0.2395,0.51891,-0.01359
-0.08855,0.97315,0.21243,0.35296,3.22947,0.30445
-0.09295,0.99109,0.09535,-0.13722,2.12384,-0.15148
-0.09035,0.99577,0.01667,-1.2116,1.5803,0.42336
-0.07256,0.99639,-0.04398,-0.92196,1.67074,-0.17366
-0.0547,0.99227,-0.11137,-0.45817,1.38452,-0.40079
-0.02812,0.98865,-0.14758,0.72757,0.96433,0.32182
0.01023,0.97974,-0.19997,1.43111,0.68403,0.38454
0.00725,0.96307,-0.26915,-0.12706,-0.30088,1.00221
-0.01192,0.94942,-0.31376,-0.4998,-0.85459,1.15825
-0.02741,0.94878,-0.31473,-0.67074,-2.05481,1.24494
-0.02856,0.95958,-0.27996,-0.50448,-1.93343,1.18254
-0.01916,0.97575,-0.21801,-0.43558,-1.99152,1.08611
-0.01623,0.99054,-0.13624,-0.14231,-1.42664,0.81319
-0.01463,0.99817,-0.05855,0.08023,-0.68561,-0.35101
0.00473,0.99824,-0.05898,0.92697,1.04825,-2.57664
0.02655,0.99654,-0.07868,0.44882,0.5043,-1.42068
0.0312,0.99455,-0.09947,0.21268,-0.7405,0.06271
0.0185,0.99201,-0.12478,0.34913,-1.4317,1.67099
0.02733,0.98826,-0.15031,-2.68999,5.16899,-2.82737
0.00567,0.99699,-0.0772,-1.22767,2.39552,1.42672
-0.01099,0.99805,-0.06142,-0.0652,-0.42999,0.48933
-0.03913,0.99825,-0.04425,-0.15391,0.42987,1.13004
-0.10495,0.99413,-0.02616,-0.46186,2.09311,1.24642
-0.14258,0.98977,0.00329,-0.01347,2.14553,0.96658
-0.12726,0.9782,0.16406,1.05553,1.60971,-0.95091
-0.0734,0.94773,0.31049,-0.42092,0.82432,-1.74028
-0.04727,0.93324,0.35612,-0.5618,0.2589,-1.22093
-0.04587,0.90887,0.41454,-0.95558,-0.22527,-1.13194
-0.06205,0.88642,0.45869,-0.25795,-0.91117,-0.87677
-0.0867,0.87337,0.47926,0.57094,-0.8543,-0.74849
-0.10542,0.86429,0.49181,0.49185,-0.74704,-0.98707
-0.1099,0.86514,0.48933,0.56854,-0.64367,-1.4062
-0.09368,0.87946,0.46665,0.55529,-0.29819,-1.64507
-0.07275,0.90215,0.42523,-0.15926,-0.62443,-1.0008
-0.04438,0.92731,0.37163,-0.26442,-0.58879,-0.39013
-0.02802,0.95116,0.3074,-0.48196,-0.4554,-0.26185
-0.03563,0.97119,0.2356,0.18768,1.19705,0.13641
-0.04325,0.9918,0.12022,0.91366,4.45534,0.47044
-0.04066,0.99915,-0.00663,0.44603,3.46291,0.32308
-0.04503,0.99576,-0.08015,-1.34281,1.8085,-0.02179
-0.02056,0.99045,-0.13626,-0.84012,1.49619,-0.19029
0.01971,0.97973,-0.19933,-0.05877,1.44561,-0.23449
0.04008,0.96377,-0.26368,1.19886,0.74369,0.72116
0.02742,0.94493,-0.32611,-0.50507,-0.81454,1.14203
-0.00823,0.92933,-0.36915,-0.71771,-1.32223,1.22001
-0.03537,0.9264,-0.37487,-0.75799,-2.1502,1.29641
-0.04242,0.9397,-0.33936,-0.42108,-1.98154,1.18529
-0.03793,0.96129,-0.27291,-0.24462,-2.10292,1.11363
-0.03955,0.98348,-0.17659,0.06127,-1.68464,0.89575
-0.0483,0.99535,-0.08332,0.11132,-0.74271,-0.16526
-0.04257,0.99701,-0.06446,0.26847,0.82819,-2.34238
-0.01889,0.99502,-0.09784,0.4969,1.19656,-1.43634
0.0006,0.99508,-0.09906,0.57459,-0.04787,-0.60296
-0.00121,0.9939,-0.11018,0.72359,-1.13148,1.01883
-0.00122,0.98885,-0.14885,-0.09651,-0.39158,2.68976
0.0053,0.99055,-0.13699,-2.05994,2.88608,-1.55129
0.00353,0.99247,-0.12242,-0.57317,0.04875,0.83322
-0.00733,0.99364,-0.11233,-0.62127,-0.35103,0.97819
-0.04873,0.99665,-0.06566,-0.9198,0.43692,0.79683
-0.12243,0.99228,-0.0194,-0.59221,1.88061,0.88798
-0.16358,0.98487,0.05704,0.897,2.22362,-0.48985
-0.14628,0.96045,0.23689,2.00029,1.88443,-1.33592
-0.13067,0.94634,0.29557,0.55479,0.83551,-2.06786
-0.10377,0.93583,0.33679,-0.18541,0.60714,-1.47524
-0.08704,0.91737,0.38839,-0.45032,-0.0592,-1.04011
-0.09334,0.89909,0.42769,-0.61258,-0.63181,-1.18033
-0.11847,0.88747,0.44536,0.55797,-0.689,-0.83294
-0.14623,0.88173,0.4485,0.59835,-0.68247,-0.79649
-0.16117,0.88306,0.44069,0.3082,-0.90011,-0.66902
-0.15695,0.89055,0.42694,0.65822,-0.83154,-1.67535
-0.14131,0.90447,0.40244,-0.23619,-0.60803,-1.552
-0.12517,0.92774,0.3516,-0.12981,-0.60375,-0.40001
-0.1164,0.9491,0.29264,0.01056,0.43362,0.46003
-0.12111,0.96818,0.21898,0.47146,1.85513,0.44084
-0.10414,0.9878,0.11577,0.46078,2.09181,0.09565
-0.09782,0.99384,0.05206,-0.49459,1.92683,-0.13576
-0.10589,0.99437,-0.00339,-0.63172,2.11031,0.00413
-0.08861,0.99327,-0.07449,-0.78198,1.52837,-0.03192
-0.05314,0.99252,-0.10981,1.34732,1.00925,0.2326
-0.01564,0.98735,-0.15777,0.61377,0.6187,0.24298
-0.01045,0.97557,-0.2194,-0.27017,-0.04508,0.93387
-0.02149,0.96385,-0.26555,-0.77937,-1.04852,0.99742
-0.03343,0.95729,-0.28717,-0.69524,-1.59164,0.98639
-0.04099,0.96029,-0.27597,-0.48459,-1.84013,0.92417
-0.04926,0.96931,-0.24083,-0.37156,-1.92804,0.93371
-0.05844,0.98101,-0.1849,-0.26596,-1.88577,0.81858
-0.07617,0.98981,-0.12029,-0.04241,-1.27771,0.35025
-0.08812,0.99352,-0.07171,0.20736,-0.34163,-1.08632
-0.0723,0.99265,-0.09699,0.62024,1.11555,-2.39067
-0.04586,0.99273,-0.11126,0.77777,0.27659,-0.91759
-0.04043,0.9927,-0.11359,0.1673,-0.05315,1.75228
-0.02451,0.98402,-0.17635,-0.92182,2.76839,0.87255
-0.02883,0.97296,-0.22917,-0.59194,-1.0825,0.983
-0.01225,0.97648,-0.21525,-0.81452,-0.73783,1.71355
-0.005,0.98985,-0.14203,-1.15041,0.49419,1.09686
-0.06314,0.99667,-0.05154,-1.32744,1.44687,-0.17467
-0.14651,0.9892,-0.00413,-0.08159,2.07204,0.97843
-0.20393,0.97683,0.06484,1.3596,2.13991,-1.20505
-0.19607,0.95661,0.21551,2.08332,1.51495,-0.9277
-0.17442,0.94484,0.27719,0.75684,0.675,-1.16494
-0.13647,0.93576,0.32513,-0.08025,0.35132,-1.19702
-0.11454,0.91821,0.37916,-0.52172,-0.2385,-0.98002
-0.11906,0.89817,0.4232,-0.66559,-0.55993,-1.24232
-0.1348,0.88654,0.44257,0.00066,-0.78813,-0.82929
-0.15676,0.87704,0.4541,0.52479,-0.59527,-0.78363
-0.16504,0.876,0.45319,0.34212,-0.8161,-0.65419
-0.15894,0.88238,0.44286,0.53493,-0.80992,-1.37018
-0.14152,0.8955,0.42195,0.01449,-0.63454,-1.67599
-0.11918,0.91669,0.38139,-0.07236,-0.55683,-0.05621
-0.11189,0.94188,0.31675,0.02199,-0.5399,0.04926
-0.11162,0.96323,0.24438,0.1731,0.64092,0.15065
-0.09669,0.98447,0.14651,0.46041,2.29082,0.23411
-0.08442,0.99435,0.06425,-0.39518,1.80912,-0.27111
-0.08873,0.99605,-0.00111,-0.81963,1.71655,-0.03921
-0.08682,0.99345,-0.07419,-1.09923,1.82611,-0.15159
-0.08281,0.98545,-0.14837,-0.00062,1.4143,-0.0096
-0.06132,0.98098,-0.18415,1.45635,1.17786,0.50382
-0.03691,0.97225,-0.23101,0.42555,0.41881,0.39031
-0.0429,0.95901,-0.28008,-0.35041,-0.56707,0.89115
-0.05664,0.9499,-0.30737,-0.54976,-1.3274,1.01742
-0.0656,0.94989,-0.30561,-0.51511,-1.66254,0.9705
-0.06753,0.95924,-0.27438,-0.28689,-1.70402,0.89393
-0.07074,0.97279,-0.2206,-0.09821,-1.89134,0.84547
-0.07431,0.98669,-0.14463,0.17837,-1.46615,0.68102
-0.08047,0.99451,-0.06681,-0.05743,-0.80413,0.03184
-0.07565,0.99633,-0.03981,0.30164,0.66396,-2.42835
-0.05103,0.99439,-0.09256,0.50017,0.82584,-1.9269
-0.03344,0.99298,-0.11341,0.48707,-0.39073,-0.71731
-0.0285,0.99084,-0.13197,0.16278,-0.49296,2.96576
-0.01295,0.9846,-0.17432,-0.86597,2.70006,-0.75557
-0.01606,0.97787,-0.20859,-0.19139,-0.81974,0.70235
-0.01499,0.97944,-0.20116,-0.52275,-0.32113,1.4856
-0.03021,0.9897,-0.13991,-0.81236,0.43354,0.94843
-0.07673,0.994,-0.07783,-1.05988,1.60941,0.4197
-0.12581,0.99158,-0.03035,-0.02096,1.56521,0.42944
-0.15619,0.98666,0.04574,0.7301,1.28743,-0.60591
-0.14035,0.97259,0.18536,1.14461,1.09052,-0.9274
-0.10822,0.95531,0.27506,0.18711,0.69768,-1.01
-0.08572,0.94326,0.32078,-0.14375,0.45085,-1.19869
-0.07949,0.92709,0.36628,-0.2345,-0.42809,-0.84619
-0.09459,0.91205,0.39899,-0.1745,-0.65928,-0.83049
-0.10347,0.90391,0.41501,0.03585,-0.8667,-0.74159
-0.10303,0.89906,0.42551,0.33121,-0.78305,-0.90512
-0.09291,0.90163,0.42239,0.31129,-0.82738,-0.8593
-0.07459,0.91035,0.40704,0.34001,-0.85356,-0.92573
-0.05778,0.92702,0.37051,-0.42486,-0.78256,-1.08679
-0.04276,0.95147,0.30475,-0.49496,-0.59815,-0.65336
-0.04222,0.96994,0.23964,-0.5826,0.28389,0.15069
-0.04414,0.9879,0.1486,0.12758,2.06399,0.53224
-0.02678,0.99932,0.02505,0.16478,2.73217,0.44501
-0.02299,0.99872,-0.0449,-0.42334,0.73955,0.19069
-0.01798,0.99595,-0.08807,-1.03898,1.33653,-0.21054
-0.01265,0.98993,-0.14096,-0.35078,1.36591,-0.39743
-0.02536,0.97768,-0.20854,1.2418,1.19986,0.2867
-0.00984,0.96973,-0.24395,0.64418,0.70406,0.22241
-0.00895,0.95758,-0.28802,-0.0086,-0.04435,0.8664
-0.02661,0.94556,-0.32433,-0.38974,-1.04415,0.90888
-0.04373,0.94295,-0.33002,-0.44963,-1.51432,0.99544
-0.05365,0.95113,-0.30407,-0.46779,-1.61178,0.91056
-0.05438,0.96678,-0.24975,-0.53645,-2.07002,0.80856
-0.06184,0.98442,-0.16459,0.22462,-1.53007,0.67841
-0.06862,0.99497,-0.07295,0.30049,-0.55876,0.03614
-0.06018,0.99775,-0.02919,0.26889,0.36811,-2.05653
-0.03636,0.99727,-0.06414,0.19937,0.6396,-1.80255
-0.01515,0.99633,-0.08423,0.12096,-0.36043,-0.52353
-0.00843,0.99545,-0.09483,0.31636,-0.78886,0.04423
-0.01182,0.99185,-0.12684,-0.23911,-0.09745,1.87836
-0.01023,0.98725,-0.15882,-0.97903,0.90577,-0.00379
-0.03169,0.98577,-0.16507,-0.58056,0.51399,1.04015
-0.04847,0.98718,-0.15201,-0.42443,0.08407,1.04241
-0.07312,0.99258,-0.09714,-0.45233,0.83637,0.65738
-0.1143,0.99248,-0.0436,-0.32435,1.14071,0.64067
-0.15378,0.98805,-0.00956,0.22829,1.70908,-0.08191
-0.17439,0.9809,0.08611,0.6844,0.98425,-0.61114
-0.14593,0.96174,0.23184,0.92125,0.83866,-0.97832
-0.12375,0.9393,0.31998,-0.0727,0.67455,-1.25612
-0.11081,0.92855,0.35427,-0.29528,0.30522,-1.34556
-0.10929,0.91443,0.38968,-0.03765,-0.04149,-0.79967
-0.12118,0.90057,0.41746,0.1071,-0.54041,-0.66243
-0.13554,0.89558,0.42373,0.34513,-0.66032,-1.0742
-0.13987,0.89624,0.42093,0.34041,-0.71566,-0.9949
-0.1349,0.90022,0.41398,0.34219,-0.91184,-0.88806
