gravity.x,gravity.y,gravity.z,userAcceleration.x,userAcceleration.y,userAcceleration.z
0.29492,0.90279,-0.31303,-1.32608,0.07728,0.75371
0.29532,0.90377,-0.30982,-1.57105,-0.85595,0.72837
0.26664,0.91216,-0.31123,-1.49395,-1.25858,1.14053
0.24004,0.93191,-0.27188,-1.08747,-1.87901,0.69637
0.20034,0.9508,-0.2363,0.69131,-0.64589,0.19979
0.13592,0.97341,-0.18438,0.65798,-0.58575,0.38227
0.04798,0.993,-0.10792,-0.08953,-0.37067,0.80462
-0.03805,0.99872,-0.03323,-0.67111,1.6506,-0.43457
-0.15369,0.98681,0.05086,-0.80135,1.5225,-0.5849
-0.30068,0.94389,0.1366,-2.74454,4.12026,0.66571
-0.43685,0.87106,0.22455,-2.50303,5.39544,0.09429
-0.52945,0.80273,0.27441,-0.07007,3.54488,-0.97275
-0.61281,0.73761,0.28353,1.27781,0.61165,-0.89085
-0.67292,0.68446,0.28051,1.31634,0.39347,-0.73063
-0.71435,0.65053,0.2579,1.54997,-0.44539,-0.64803
-0.72521,0.64654,0.23675,1.93508,-1.6301,-0.91044
-0.69974,0.67856,0.22341,2.3966,-1.94152,-0.81756
-0.64032,0.74029,0.20483,2.44613,-2.17834,-0.85713
-0.56624,0.80528,0.17578,2.57076,-1.24534,-0.18896
-0.50812,0.84783,0.15166,0.95657,-0.72089,-0.19138
-0.44755,0.87993,0.15947,0.47749,-0.52566,-0.02909
-0.41879,0.88627,0.19782,-1.38454,2.33216,2.67487
-0.46501,0.88362,0.05459,-0.78591,1.81267,-1.20004
-0.48951,0.86669,-0.0961,-0.11993,0.74599,-1.81843
-0.46233,0.88656,0.01612,2.75652,0.69725,5.54413
-0.38383,0.92324,0.01729,0.86842,2.19831,-3.41336
-0.35584,0.93394,0.03376,0.32172,1.78884,-2.31025
-0.3561,0.93363,-0.03919,-0.52624,-0.42833,-0.7749
-0.27786,0.95339,-0.11765,0.12549,-1.54409,-0.41559
-0.11452,0.98683,-0.11428,-0.04072,-0.75695,-0.48697
0.03121,0.99274,-0.11621,-2.54091,5.54201,0.74759
0.09333,0.98279,-0.15942,-2.80463,1.59518,0.84281
0.13735,0.96952,-0.20289,-0.9502,0.26404,1.03309
0.15913,0.95531,-0.24911,-0.18228,-0.2342,-0.03197
0.16437,0.94096,-0.29594,-0.37421,-0.50579,0.45535
0.15834,0.94009,-0.30194,-1.19752,-1.47729,0.83978
0.12365,0.95327,-0.27566,-1.62885,-1.92847,1.2247
0.06401,0.97391,-0.2177,-0.94228,-1.09281,1.15407
-0.00794,0.98801,-0.1542,0.73571,0.04626,0.64059
-0.09837,0.99213,-0.07749,0.50818,-0.4857,0.37011
-0.20339,0.97903,0.01169,0.25829,-0.38223,0.00142
-0.31678,0.94156,0.11456,-0.56193,1.18085,-0.76933
-0.44168,0.87387,0.20318,-2.3954,6.43819,0.15815
-0.55616,0.79806,0.23194,-2.08511,6.77482,-0.13043
-0.65772,0.71573,0.23482,-0.0729,2.04697,-0.47186
-0.73208,0.64128,0.22983,1.22243,0.73076,-0.68657
-0.77375,0.59701,0.21186,1.53642,0.25822,-0.65678
-0.78888,0.5801,0.20288,1.32712,-1.22585,-0.74049
-0.77292,0.59424,0.22241,1.60922,-1.90438,-0.81482
-0.73024,0.64113,0.23601,1.78263,-2.10869,-0.68403
-0.66485,0.71448,0.21795,2.12387,-2.41512,-0.63803
-0.58666,0.78815,0.18615,2.86942,-1.38358,-0.03875
-0.52705,0.83617,0.15179,1.1605,-0.49407,-0.00026
-0.4685,0.87097,0.14807,0.83201,-0.12652,0.19301
-0.42516,0.88924,0.16881,-0.51482,1.95314,2.56864
-0.44309,0.88905,0.11517,-0.54975,1.51946,-0.57939
-0.47179,0.8799,-0.05644,-0.32419,0.87925,-0.85272
-0.45655,0.87873,-0.13928,1.24355,1.13604,-1.34164
-0.44486,0.88829,-0.11415,0.8523,0.78024,-0.45841
-0.43588,0.89643,-0.0801,0.74344,-0.01704,0.39114
-0.41697,0.90427,-0.09179,0.28399,-0.82372,-0.54639
-0.32461,0.93469,-0.14487,0.27381,-1.11131,-0.86536
-0.14489,0.97441,-0.17184,0.04678,-0.35434,-0.93841
0.02823,0.98642,-0.1618,-0.31621,5.33597,0.66014
0.12796,0.96683,-0.22106,-1.09871,2.50066,0.90652
0.19101,0.94019,-0.28205,-1.15712,1.22392,0.83025
0.24432,0.91584,-0.31867,-0.28467,0.20886,1.40433
0.28417,0.89714,-0.3382,-1.25996,0.15519,0.21651
0.29441,0.88639,-0.35726,-1.5698,0.03029,0.41936
0.27349,0.8905,-0.36361,-2.07152,-1.53561,1.21168
0.23286,0.90807,-0.34812,-1.65095,-1.88345,1.33889
0.19955,0.93332,-0.29847,0.09331,-0.9302,0.04586
0.16401,0.9531,-0.25435,0.82278,-0.674,0.6872
0.10206,0.97644,-0.19013,0.29194,-0.77165,0.68366
0.02431,0.99304,-0.11527,-0.50369,0.21219,-0.1753
-0.06643,0.9973,-0.03132,-1.14606,1.97688,-0.09473
-0.20173,0.97793,0.05431,-2.17977,3.55161,0.52279
-0.3404,0.92812,0.15074,-1.39285,4.46461,-0.23681
-0.44396,0.86382,0.23816,-0.00088,3.68037,-0.75937
-0.53511,0.79827,0.27644,1.16448,1.99887,-0.86707
-0.61343,0.73782,0.28163,1.52357,0.93993,-1.00644
-0.66831,0.68717,0.28488,1.37745,-0.32653,-0.53921
-0.70442,0.65613,0.2707,1.4265,-1.66025,-0.5133
-0.70799,0.65975,0.25194,1.42282,-1.85405,-0.59072
-0.67884,0.70139,0.21732,2.07208,-1.9512,-0.3786
-0.62154,0.77154,0.13571,2.82803,-1.67658,-1.16298
-0.54936,0.83033,0.09356,2.68625,-1.62917,-0.54763
-0.47998,0.87175,0.09836,1.24351,-1.11934,-0.21112
-0.41073,0.90326,0.12421,-0.51845,-0.05488,2.54939
-0.37576,0.91713,0.13294,-2.4138,1.35553,0.82594
-0.41891,0.90785,0.01763,-0.955,1.81291,-1.05652
-0.45518,0.88663,-0.08186,-0.16973,0.67432,-0.58959
-0.43701,0.89844,0.04275,2.38044,0.63754,6.19149
-0.38465,0.92288,0.01822,1.09865,1.62472,-3.84353
-0.35542,0.9322,0.06838,0.52733,0.02591,-1.9934
-0.33352,0.9415,0.04845,0.28554,-1.13365,-0.83529
-0.25436,0.96521,-0.06056,-0.33321,-0.46958,0.06457
-0.06452,0.99627,-0.05728,-0.83937,3.56136,-0.71456
0.08901,0.99272,-0.08116,-1.35363,6.26711,0.24606
0.17239,0.97269,-0.15544,-0.8017,0.30353,1.0671
0.23939,0.9462,-0.21773,0.07259,-0.10789,1.18237
0.28062,0.924,-0.25975,-0.48465,-0.17054,0.98645
0.30053,0.90746,-0.2936,-1.74348,-0.08235,0.54903
0.28423,0.9074,-0.30957,-1.86827,-1.12037,1.15538
0.24347,0.92257,-0.29931,-1.71342,-1.60205,1.35175
0.21274,0.94565,-0.24593,0.31541,-1.21825,0.25616
0.17036,0.96467,-0.20096,0.91633,-0.66107,0.41558
0.11518,0.98261,-0.14562,0.75983,-0.68504,0.62546
0.03191,0.99665,-0.07531,-0.37485,-0.31629,-0.27106
-0.06173,0.99809,-0.00146,-0.85962,1.17578,-0.64581
-0.18695,0.97916,0.07929,-1.26979,2.171,0.11456
-0.35495,0.92413,0.14141,-2.69588,5.47115,0.15773
-0.47641,0.8563,0.19944,-0.68825,2.99984,-0.96067
-0.56027,0.79419,0.23526,-0.00599,2.52287,-0.78233
-0.62733,0.74186,0.23684,1.63823,0.68029,-0.82366
-0.67722,0.69634,0.23765,1.32522,-0.73798,-0.53317
-0.70079,0.67139,0.24109,1.4141,-0.87837,-0.55248
-0.69684,0.67479,0.24307,1.88234,-1.57096,-0.74554
-0.66101,0.71332,0.23291,2.71168,-2.03649,-0.72208
-0.59217,0.78366,0.18767,2.93068,-2.34416,-1.09358
-0.50244,0.85078,0.15403,2.50969,-2.42282,0.03015
-0.43384,0.89301,0.11966,1.17833,-1.26953,0.09045
-0.38374,0.91812,0.09895,0.28459,-0.37773,0.58786
-0.35074,0.9256,0.14229,-1.30925,1.81921,2.43748
-0.3933,0.91876,0.03468,-0.89052,2.42952,-1.10406
-0.42757,0.89761,-0.10718,-0.32325,0.68345,-1.96056
-0.416,0.90663,-0.07041,1.38018,1.46316,0.99143
-0.38588,0.9225,-0.0093,0.70671,0.89862,-1.11838
-0.3832,0.92365,0.00588,0.54881,0.26182,-0.44701
-0.38153,0.92327,-0.04473,0.12995,-0.615,0.00618
-0.29176,0.94688,-0.13527,0.91507,-0.19877,-0.87175
-0.10948,0.98297,-0.14759,0.65668,1.04678,-1.44311
0.03375,0.99103,-0.1293,-0.13917,4.31063,-0.81266
0.12567,0.97095,-0.20364,-1.71234,0.98087,1.15549
0.18602,0.95028,-0.24974,-0.76175,0.25247,1.51894
0.23935,0.93242,-0.27076,-0.00028,-0.09286,0.98858
0.26991,0.91997,-0.28425,-1.38091,-0.54587,0.75359
0.26715,0.92123,-0.28278,-1.6059,-0.86517,0.84909
0.23603,0.93334,-0.2705,-1.82754,-1.50804,0.63955
0.1991,0.95341,-0.22666,-0.59865,-1.41561,0.40687
0.16297,0.96874,-0.18705,0.10947,-0.87767,0.20272
0.11314,0.98337,-0.14203,0.53709,-0.66376,0.33431
0.04069,0.99602,-0.07934,-0.0639,-0.14816,0.04782
-0.03416,0.99941,-0.00384,-0.20702,0.32579,0.13826
-0.1156,0.99073,0.07137,-0.41452,0.42513,-0.55787
-0.20136,0.96919,0.14187,-0.85236,1.12673,-0.33449
-0.31229,0.92545,0.21451,-1.55656,2.9109,0.66616
-0.4409,0.86575,0.23681,-1.23611,5.08252,-0.36102
-0.53364,0.81356,0.23098,1.01655,1.09205,-0.77551
-0.60389,0.76429,0.22622,1.53859,0.56788,-0.67138
-0.656,0.72545,0.2083,1.3405,-0.72609,-0.53557
-0.67554,0.71249,0.18976,1.06421,-1.40452,-0.64385
-0.65475,0.73024,0.19507,1.1353,-1.62504,-0.70184
-0.59874,0.77954,0.18395,2.00373,-1.96014,-1.026
-0.5107,0.84603,0.15303,2.2608,-2.4175,-0.69729
-0.39562,0.90543,0.15391,2.42849,-2.55894,-0.10343
-0.31451,0.9401,0.13152,1.26062,-0.83429,0.25522
-0.27457,0.95284,0.12927,-0.03442,0.42738,1.73712
-0.28179,0.95118,0.12591,-0.89325,2.13767,2.69118
-0.36338,0.93145,-0.01901,-1.06559,1.41068,-1.82378
-0.38823,0.91273,-0.12729,1.4735,-1.65835,0.01566
-0.34593,0.93648,-0.05779,1.95897,-1.47147,4.06421
-0.27552,0.96126,-0.00811,0.64875,1.47705,-2.512
-0.24259,0.97012,0.00333,-0.02941,3.22945,-1.34616
-0.21709,0.97527,-0.04145,-0.86394,2.58964,2.30198
-0.13972,0.98354,-0.1146,0.14582,-0.04965,-0.89403
0.0004,0.98611,-0.16607,0.60521,1.23996,-1.30605
0.10634,0.97216,-0.20882,0.51538,3.26997,2.76555
0.17388,0.94808,-0.26629,-2.04052,0.78236,1.1094
0.2145,0.92987,-0.29888,-0.53532,0.42003,1.40347
0.24337,0.91812,-0.31278,-1.07391,0.26606,0.78115
0.26025,0.91408,-0.311,-1.1837,-0.22637,0.61177
0.25033,0.91764,-0.30867,-1.15706,-1.16936,0.70178
0.21861,0.92975,-0.29628,-1.07163,-1.54825,0.66161
0.18925,0.94645,-0.26155,-0.54809,-2.13263,0.67506
0.16336,0.96276,-0.21543,0.71869,-0.92958,0.31934
0.10378,0.98172,-0.15958,0.68527,-0.71728,0.5365
0.03381,0.995,-0.09396,0.04399,-0.02183,0.29364
-0.03159,0.99939,-0.01499,-0.43075,0.78882,-0.83171
-0.10846,0.99186,0.06676,-0.61545,0.94154,-0.3377
-0.21968,0.96727,0.12703,-2.04978,3.12729,0.9841
-0.36374,0.91542,0.17232,-2.67984,5.94909,0.02781
-0.45457,0.86647,0.20638,-0.59725,2.53872,-0.87776
-0.52414,0.82117,0.22575,1.43169,0.44843,-0.52871
-0.5813,0.78339,0.21998,1.36006,-0.20293,-0.55513
-0.60656,0.76577,0.21374,1.12743,-0.97389,-0.4138
-0.60728,0.76629,0.20978,1.12248,-1.30387,-0.68604
-0.57983,0.78761,0.20848,1.41643,-1.68422,-0.69491
-0.52585,0.83111,0.18093,1.69167,-1.98509,-0.52283
-0.43941,0.88977,0.1234,2.33298,-2.67432,-0.5769
-0.34106,0.93614,0.08557,1.57667,-1.6865,-0.12734
-0.27973,0.95778,0.0664,1.04268,-1.10355,-0.34223
-0.23762,0.96245,0.13122,-0.32295,1.99464,3.92319
-0.26938,0.95068,0.15378,-1.52269,3.04665,-0.17802
-0.39103,0.92037,0.005,-1.21405,1.2944,-1.56417
-0.43689,0.89677,-0.07026,1.61249,-0.5975,1.15442
-0.40409,0.9144,-0.02398,1.38105,1.93258,-0.38764
-0.36137,0.93045,-0.06056,1.124,1.31231,-1.77124
-0.34956,0.93632,-0.03337,0.2456,0.07345,0.82994
-0.29423,0.9531,-0.07096,0.08396,-0.29914,-1.12926
-0.14195,0.98404,-0.10734,-0.04467,0.42627,-1.02022
0.01855,0.99187,-0.12586,-0.84064,4.34087,0.83644
0.11393,0.97265,-0.20242,-1.25806,1.05753,0.87511
0.16636,0.94922,-0.26704,-1.02082,0.09171,1.1346
0.20881,0.93404,-0.28976,-0.4349,-0.03433,1.0528
0.23776,0.92304,-0.30244,-0.9463,-0.26543,0.91461
0.24074,0.92311,-0.29985,-1.28231,-0.49982,0.80391
0.21379,0.93538,-0.28171,-0.98211,-1.55066,0.96854
0.17894,0.95483,-0.23723,0.04886,-1.60655,0.06219
0.14788,0.969,-0.19792,0.55227,-1.04075,-0.00204
0.10902,0.98369,-0.14311,0.75426,-0.72772,0.51515
0.05321,0.99542,-0.0794,-0.03548,-0.18211,0.08288
-0.01289,0.99979,-0.01602,0.03062,-0.18648,0.0195
-0.09077,0.99461,0.05006,-0.53218,0.6593,-0.78444
-0.18413,0.9771,0.10668,-1.40112,2.09656,0.54939
-0.31079,0.94029,0.13881,-2.28277,4.10735,0.2751
-0.4176,0.89203,0.17289,-0.68387,3.10132,-0.45435
-0.48777,0.84715,0.21075,-0.20396,2.12651,-0.72784
-0.54771,0.80627,0.22348,1.17599,0.79163,-0.37293
-0.58517,0.78086,0.21871,1.10974,-0.37566,-0.4495
-0.58955,0.7774,0.21927,0.98064,-0.93157,-0.38875
-0.56976,0.79214,0.21885,1.01069,-1.02117,-0.4521
-0.52799,0.82619,0.19657,1.63068,-1.43829,-0.42739
-0.46649,0.87562,0.12523,2.52221,-2.58099,-0.806
-0.37064,0.92756,0.04748,2.46024,-2.68975,-0.39143
-0.29033,0.9568,0.01562,0.35498,-1.20144,-0.05304
-0.24638,0.96843,0.03789,-0.3167,-0.14391,1.25182
-0.24173,0.96399,0.11088,-1.33417,0.67293,2.55251
-0.31886,0.94646,0.05034,-1.48764,1.93936,-0.90801
-0.39304,0.91882,-0.03593,-0.00308,2.2751,0.2021
-0.42878,0.90283,-0.03227,0.2186,2.94198,-1.04671
-0.45029,0.89102,-0.05759,1.03376,-0.55777,-2.01224
-0.46051,0.88765,0.00386,1.32924,-1.15275,-1.13324
-0.42833,0.90362,0.00185,1.23305,-1.66137,-0.84475
-0.32638,0.94379,-0.05227,0.65057,-0.00211,-0.56103
-0.18275,0.98215,-0.04452,-0.27607,4.25654,1.28207
-0.12902,0.98987,-0.05932,-1.18171,5.7117,2.29753
-0.15151,0.98511,-0.0812,-1.51988,-0.59022,0.6757
-0.13403,0.98821,-0.07403,0.08499,-0.12284,-0.4776
-0.11103,0.99155,-0.06701,0.12884,-0.53318,-0.47843
-0.08467,0.99257,-0.08742,-0.16637,-1.42001,0.56596
-0.07206,0.99162,-0.10724,-0.59652,-1.81825,1.45887
-0.09867,0.99222,-0.07591,-0.9021,-1.5764,0.39552
-0.16555,0.98601,-0.01931,-0.66556,-0.23711,0.68052
-0.23472,0.97111,0.04303,0.60188,0.11152,0.67989
-0.28657,0.9523,0.10493,0.86358,0.11668,0.23161
-0.33325,0.92783,0.16756,0.22729,0.40707,-0.88828
-0.392,0.88592,0.24797,-0.70312,1.95242,0.36589
-0.49279,0.82277,0.28319,-1.28934,3.43069,0.28904
-0.58452,0.76979,0.25643,0.03577,1.77257,-0.63474
-0.62907,0.73042,0.266,1.56689,0.76563,-0.05735
-0.65304,0.70717,0.27101,1.33564,0.30676,-0.37482
-0.66716,0.70805,0.23144,0.90619,-0.80783,-0.10976
-0.648,0.73796,0.18846,0.64838,-0.96782,-0.37854
-0.59906,0.78174,0.17321,0.46463,-1.1478,-0.30747
-0.53518,0.8298,0.15819,0.78784,-1.6944,-0.11098
-0.45479,0.88207,0.12297,1.31395,-1.3618,-0.0414
-0.37538,0.92075,0.10632,1.07877,-0.9715,0.28326
-0.33054,0.9385,0.09982,0.22913,0.0661,-0.31411
-0.34257,0.93411,0.10041,-0.86358,0.10617,0.57519
-0.40347,0.91058,0.08974,-1.09863,0.12111,0.29606
-0.4585,0.88747,0.04653,-0.92684,-0.41315,-0.30961
-0.47526,0.87856,0.04748,-0.01652,1.48943,-0.28636
-0.49386,0.86474,0.09125,0.36687,2.28805,-1.77665
-0.50621,0.85425,0.11841,0.99703,1.06342,-1.72046
-0.50048,0.85575,0.13122,0.93357,-0.91135,-0.57412
-0.44777,0.89043,0.08142,1.2094,-1.08799,0.17134
-0.34087,0.9391,0.04358,1.07265,0.78212,-0.69536
-0.23904,0.97001,0.04397,-0.41248,2.33544,0.50718
-0.19489,0.98066,0.01794,-0.94914,1.16524,0.53353
-0.18352,0.98271,-0.02461,-1.68367,-0.16767,1.34737
-0.17768,0.98383,-0.02273,-0.26269,0.32509,1.24342
-0.17833,0.98387,-0.01413,0.32465,0.0743,0.64679
-0.17577,0.9843,0.01599,0.76121,-0.97298,0.03101
-0.17151,0.98427,0.04244,0.31966,-1.1669,-0.16315
-0.17907,0.98098,0.0749,0.0767,-1.29188,-0.00799
-0.20806,0.97079,0.11947,-0.57026,-1.12596,0.15412
-0.24896,0.95337,0.17059,-0.25788,-0.37659,0.03786
-0.29817,0.92711,0.22705,0.03116,-0.17914,-0.29428
-0.34348,0.89367,0.28874,0.10277,0.55692,-0.92305
-0.3772,0.85565,0.35436,-1.09031,2.96602,-0.11518
-0.42803,0.81779,0.38471,-1.38897,3.96752,0.02198
-0.49293,0.79309,0.3578,0.1402,0.89775,-0.46947
-0.52801,0.77233,0.35315,1.06733,0.51246,-0.27883
-0.54101,0.75629,0.36788,1.38404,0.54937,-0.52842
-0.55615,0.74972,0.35863,0.78094,-0.56642,-0.38667
-0.54574,0.77954,0.30738,0.69082,-0.63579,-0.25754
-0.51544,0.81678,0.25921,0.43427,-0.6724,-0.25088
-0.46673,0.85545,0.22442,-0.05207,-1.14304,-0.07666
-0.38731,0.89572,0.21834,0.29613,-0.62311,-0.0163
-0.28441,0.92297,0.25931,0.46878,-0.50181,0.06574
-0.19965,0.93315,0.29896,0.01182,0.00683,0.08114
-0.21596,0.93075,0.29506,-0.67621,-0.65892,-0.10654
-0.27368,0.92028,0.27961,-0.70351,-0.79563,0.01725
-0.32439,0.9108,0.25536,0.25641,0.10203,1.34094
-0.30783,0.89873,0.31229,-0.28774,2.34313,2.21318
-0.32049,0.89446,0.31181,-0.39866,1.66671,-3.69895
-0.29882,0.88619,0.35408,0.77282,0.77204,-1.87826
-0.28653,0.89713,0.33625,-0.07151,-0.83875,-0.1433
-0.23168,0.91958,0.31732,-0.53985,-0.38923,-1.10917
-0.14679,0.94135,0.30383,-0.82021,0.18245,-0.093
-0.10195,0.95791,0.26836,-1.73263,0.86101,-0.03168
-0.08496,0.96185,0.26005,-1.27571,0.03563,0.1979
-0.08171,0.9624,0.25904,-0.31488,-0.29407,0.52562
-0.08081,0.96,0.26808,0.15593,-0.18018,0.08064
-0.06828,0.95665,0.28311,0.93876,-0.14702,-0.24321
-0.05819,0.94894,0.31005,1.09362,-0.61582,0.02643
-0.03773,0.93944,0.34063,0.67578,-1.02326,-0.2141
-0.01623,0.93034,0.36634,0.3236,-1.01983,-0.12594
-0.01616,0.91757,0.39725,-0.4175,-0.47921,-0.81233
-0.01501,0.90093,0.4337,-1.23484,1.64156,-0.57107
-0.03751,0.88719,0.45989,-1.63887,2.55103,-0.46779
-0.1193,0.87427,0.47055,-1.06664,3.15408,-0.96037
-0.19463,0.85865,0.47417,0.5539,0.23243,-0.9025
-0.22632,0.85229,0.47157,0.67217,-0.01255,-0.5818
-0.2286,0.85538,0.46483,0.26356,0.34408,-0.12802
-0.22358,0.86466,0.44986,-0.18171,0.03689,-0.38826
-0.20753,0.87635,0.43468,-0.09559,-0.10569,-0.45383
-0.18321,0.89118,0.41502,0.13618,-0.47115,-0.52972
-0.15012,0.90994,0.38663,0.19312,-0.75248,-0.73845
-0.11171,0.92787,0.35578,0.10297,-0.78956,-0.78834
-0.06803,0.94396,0.32297,0.31543,-0.47721,-0.58711
-0.01987,0.95747,0.28785,0.49013,-0.66123,0.42852
0.04489,0.96077,0.27368,0.24833,-0.49376,1.16406
0.05334,0.95962,0.27621,-1.03975,0.15539,0.47292
-0.01278,0.95461,0.29759,-0.92647,-0.32232,-0.38141
-0.10047,0.9473,0.30418,-0.39769,-0.8293,-1.1771
-0.10157,0.94523,0.3102,1.75775,0.4322,0.48887
0.02237,0.94512,0.32596,0.83437,2.13896,-0.69364
0.06177,0.94054,0.33402,0.63095,3.12074,-1.98579
0.04911,0.93094,0.36186,-0.05,-0.02102,-1.66474
0.06327,0.94608,0.3177,-0.55457,-0.64185,0.08721
0.10969,0.95836,0.26367,-0.91993,-0.06874,0.03652
0.1711,0.96122,0.2163,-1.41744,1.37533,-0.67913
0.21529,0.96409,0.15552,-0.9865,0.60664,-0.33443
0.23357,0.96655,0.10598,-0.62394,0.24791,-0.19585
0.24962,0.9663,0.06287,0.06745,0.25895,0.03222
0.26784,0.96335,0.0146,-0.24202,0.06835,0.48008
0.28138,0.95914,-0.02949,-0.41868,-0.0653,0.71711
0.28734,0.95684,-0.04344,-0.94895,-0.29884,0.72476
0.28175,0.95879,-0.03651,-1.07284,-0.47494,0.42319
0.26236,0.96477,-0.01956,-1.01033,-0.66278,0.45199
0.22753,0.97355,0.02068,-0.0203,-0.8986,0.21609
0.18871,0.97994,0.06406,0.59093,-0.72294,-0.08213
0.15157,0.98397,0.09395,0.49937,-0.60673,-0.24529
0.11299,0.9859,0.12347,-0.48785,0.09345,-0.37916
0.057,0.98462,0.16517,-1.21132,2.10394,0.07015
-0.04881,0.97434,0.21973,-1.38339,2.44706,-0.14408
-0.15927,0.94747,0.27738,-0.48144,1.74277,-0.86951
-0.25376,0.91021,0.3273,0.02825,0.99705,-0.61537
-0.33626,0.8692,0.36252,-1.29683,1.29929,-0.0572
-0.40229,0.83517,0.37504,-0.9102,1.16902,-0.35281
-0.43415,0.81351,0.38694,0.09756,-0.06859,-0.48168
-0.43586,0.80461,0.40328,0.35972,-0.45006,-0.53897
-0.41711,0.80843,0.41529,0.57173,-1.00533,-0.31394
-0.38686,0.82642,0.40911,0.86842,-1.11963,-0.45948
-0.36443,0.8531,0.37337,1.14505,-1.3393,-0.59081
-0.34993,0.87828,0.32583,1.39781,-1.7571,-0.92405
-0.31192,0.8985,0.30889,1.26289,-1.52797,-0.42494
-0.28111,0.90979,0.30538,0.91189,-1.15721,0.20716
-0.26109,0.91505,0.30745,0.37454,-0.71039,0.86159
-0.26349,0.91494,0.30572,-0.25224,-0.24236,1.16697
-0.29008,0.92432,0.24796,0.50013,-0.09731,-1.10583
-0.2859,0.94177,0.17702,1.05395,-0.41697,-1.45155
-0.24458,0.96373,0.10678,0.07358,0.65256,-1.06212
-0.20183,0.97016,0.13437,-0.64532,2.75889,0.16268
-0.18068,0.97447,0.13331,-0.9661,1.83255,-0.52055
-0.14703,0.97837,0.14552,0.14373,-0.72043,-0.97914
-0.07342,0.98469,0.15811,0.37975,-1.01428,-0.18942
0.00894,0.99425,0.10671,0.16095,0.93324,-0.88317
0.09113,0.9951,0.03833,-0.65783,2.77515,-0.68659
0.1591,0.98662,-0.03551,-1.34245,2.45047,0.18524
0.22037,0.97148,-0.08757,-2.51337,0.7367,0.72349
0.25562,0.95459,-0.15302,-1.06759,0.55661,0.61373
0.27253,0.93748,-0.21645,-0.43902,0.55132,0.48481
0.27754,0.92635,-0.25464,-0.39699,-0.11535,1.03247
0.27355,0.92591,-0.2605,-0.97526,-0.53344,0.50101
0.25233,0.93215,-0.25966,-1.11701,-0.83894,0.53633
0.21336,0.94605,-0.24388,-1.09576,-1.33762,1.00491
0.16003,0.96593,-0.2034,-0.40514,-0.87513,0.48462
0.1089,0.98286,-0.14876,0.06253,-0.79366,0.30495
0.05956,0.99361,-0.09588,0.59797,-0.55004,0.04327
-0.00632,0.99925,-0.0383,0.03067,-0.14243,-0.03294
-0.08566,0.9962,0.01587,-0.28339,0.77533,0.02034
-0.19557,0.97763,0.07739,-1.24828,3.3687,-0.05633
-0.30544,0.94121,0.14433,-1.05188,2.80832,-0.55003
-0.40011,0.89345,0.20411,-0.80578,1.69516,-0.74671
-0.48339,0.83899,0.24988,-0.2796,1.57825,-0.31201
-0.55537,0.78679,0.2693,-0.04225,0.81293,-0.44529
-0.59862,0.74909,0.28376,0.11411,0.40361,-0.4978
-0.61349,0.72951,0.30242,0.86307,-0.60684,-0.50732
-0.60263,0.72954,0.32342,0.98038,-1.03718,-0.50922
-0.57579,0.75094,0.32334,1.08543,-1.18786,-0.40444
-0.55338,0.78422,0.28068,1.59448,-1.44047,-0.85867
-0.52311,0.8245,0.21579,1.90925,-2.25621,-1.14359
-0.46163,0.86928,0.17677,1.99888,-2.25855,-0.68448
-0.40446,0.90034,0.16064,1.12715,-1.00294,0.0714
-0.35307,0.91991,0.1706,-0.6311,0.18733,1.9073
-0.34331,0.92001,0.18901,-1.4957,1.0135,2.13687
-0.38422,0.92101,0.06408,-0.16665,0.75928,-1.44816
-0.37679,0.92613,-0.01785,1.2082,0.74966,-0.76468
-0.34139,0.93975,-0.01792,0.65557,1.40238,-1.1888
-0.30836,0.95123,-0.00909,0.18262,0.40642,-0.28784
-0.28738,0.9578,0.00505,-0.34847,-0.32273,1.10452
-0.2255,0.97424,-0.001,0.27877,-0.39465,-0.46389
-0.127,0.99121,-0.0371,0.4523,0.24553,-0.74087
-0.01754,0.99789,-0.06246,0.0665,1.16228,-0.48011
0.09135,0.9908,-0.09985,-0.89595,3.89314,-0.04902
0.18258,0.9693,-0.16466,-2.22233,2.27554,0.99127
0.24314,0.94776,-0.20648,-2.0569,0.16313,0.60938
0.27832,0.92705,-0.25122,-1.12791,0.02647,0.69771
0.29529,0.90955,-0.29246,-0.77071,-0.43834,0.4916
0.30248,0.88958,-0.34229,-0.8562,-0.97333,0.6682
0.29413,0.88195,-0.36832,-1.03599,-1.36676,1.06739
0.26414,0.89557,-0.35802,-1.45487,-1.37458,0.95254
0.23059,0.91756,-0.32389,0.06497,0.2443,1.30903
0.19023,0.94313,-0.27262,0.71309,0.20096,0.99243
0.13145,0.96804,-0.2136,0.56721,-0.14977,0.29294
0.05296,0.98684,-0.15281,-0.37628,0.319,-0.26101
-0.05413,0.99487,-0.08549,-0.82494,1.19454,0.01069
-0.19854,0.98009,0.00196,-2.28931,3.72113,-0.17229
-0.32238,0.94206,0.09272,-1.30505,3.36565,-0.75365
-0.42758,0.88898,0.164,-0.67791,2.60486,-0.84074
-0.51831,0.829,0.21004,0.50152,1.52177,-0.65032
-0.58872,0.77344,0.23495,0.5827,0.45276,-0.69912
-0.63004,0.7347,0.25154,0.77053,0.07003,-0.55303
-0.64695,0.71441,0.2666,1.19466,-1.00634,-0.71612
-0.63357,0.71898,0.28577,1.58249,-1.53456,-0.79886
-0.59802,0.75146,0.2787,1.94469,-1.80688,-0.6838
-0.5466,0.80768,0.22108,2.62883,-2.65268,-1.69273
-0.48587,0.85446,0.18396,1.9419,-1.22619,-0.36514
-0.42899,0.88524,0.17979,1.33797,-0.94051,-0.0724
-0.38219,0.89966,0.21104,-0.67758,0.12126,2.55185
-0.41801,0.88455,0.20696,-1.07168,2.28888,1.39963
-0.47969,0.87656,0.03918,-0.55391,1.72856,-0.93004
-0.47452,0.87745,-0.07013,2.08446,-0.79487,-0.77881
-0.36866,0.92489,0.0931,2.35177,-0.91404,1.73402
-0.26239,0.96439,0.03332,0.3936,-0.02554,-2.32324
-0.23947,0.97089,0.00458,-0.60112,3.18424,3.16717
-0.26112,0.96473,-0.03323,-0.75235,0.53847,-1.58388
-0.20171,0.97896,-0.03093,-0.67674,-0.14938,-1.4394
-0.07403,0.99596,-0.05086,-0.38393,0.74702,-0.63251
0.06578,0.99242,-0.1038,-1.83962,4.55188,-0.55222
0.15093,0.97827,-0.14218,-2.44195,3.16678,1.50519
0.19935,0.96064,-0.19348,-0.30955,-0.18453,0.70897
0.22885,0.94102,-0.24922,-0.67548,-0.19969,0.46155
0.23953,0.92384,-0.29856,-1.0047,-0.21945,0.25546
0.22164,0.91424,-0.33919,-1.80761,-1.3939,1.55092
0.17803,0.92436,-0.33744,-1.85058,-1.71428,1.72754
0.13039,0.94523,-0.29923,-0.78644,-1.26428,0.66962
0.09992,0.96351,-0.24834,0.6047,-0.30646,0.09259
0.06722,0.97919,-0.19149,1.02156,-0.27787,0.7028
0.01211,0.99282,-0.119,0.44426,-0.59304,0.50855
-0.07343,0.99596,-0.05165,-0.18275,0.24983,-0.51938
-0.19139,0.98141,0.01397,-1.83471,2.64633,-0.02728
-0.33041,0.93995,0.08561,-2.1591,4.10949,-0.03186
-0.43874,0.88571,0.15176,-1.09149,3.40142,-0.35934
-0.52035,0.82652,0.21471,0.16756,2.07346,-0.56914
-0.58615,0.77094,0.24918,0.49142,1.27997,-0.52792
-0.63612,0.72889,0.25312,0.75289,0.37255,-0.58475
-0.66217,0.70421,0.25615,1.2551,-0.95751,-0.46423
-0.66535,0.69973,0.26017,1.26075,-1.2569,-0.51778
-0.6421,0.72285,0.25534,1.6688,-1.50213,-0.48459
-0.60274,0.76755,0.2181,1.82593,-1.67958,-0.90597
-0.55452,0.81668,0.15982,1.92385,-2.1919,-1.24618
-0.49126,0.86007,0.13761,1.6635,-1.31718,0.02468
-0.43014,0.89274,0.13413,0.65585,-0.78582,0.23405
-0.37084,0.91385,0.16541,0.21352,-0.52412,0.91323
-0.38929,0.90942,0.14632,-1.22215,1.9802,-0.10319
-0.44221,0.89691,-0.00335,-0.50117,1.49695,-1.19137
-0.44549,0.89499,-0.02316,1.27474,1.31886,0.53368
-0.40607,0.91359,-0.02131,0.66677,0.38681,-1.21569
-0.36566,0.93043,-0.02439,0.13963,-0.64834,-1.26757
-0.32561,0.94544,-0.01112,-0.1668,-0.6805,-0.63791
-0.24861,0.96766,-0.04274,-0.19882,-0.58041,-0.53592
-0.09306,0.99098,-0.09645,0.16194,1.02762,-0.5397
0.06701,0.98928,-0.12976,0.05921,2.5982,-0.74272
0.15056,0.9707,-0.18728,-0.8704,2.32401,1.66976
0.20943,0.94437,-0.25359,-1.65195,0.71162,0.76145
0.25434,0.92101,-0.29505,-1.32633,0.19662,0.80432
0.28465,0.9027,-0.32266,-0.73134,-0.22724,0.55168
0.28653,0.88999,-0.35472,-1.20477,-0.27171,0.83206
0.26377,0.88792,-0.37685,-1.44202,-0.57423,1.3315
0.21864,0.90597,-0.36252,-1.24619,-1.10365,0.8089
0.17907,0.93067,-0.31905,0.03141,-0.82435,0.32019
0.14825,0.95309,-0.26389,0.50768,-0.54526,0.51394
0.08775,0.9772,-0.19331,0.32317,-0.209,0.80141
0.00715,0.99086,-0.13472,-0.34593,0.91126,-0.57836
-0.11795,0.99062,-0.06905,-0.75321,1.89365,-0.39075
-0.28026,0.95973,0.01921,-2.2237,4.12373,-0.0719
-0.39318,0.91304,0.10848,-0.8303,3.04311,-0.8216
-0.49562,0.85383,0.15916,-0.04838,2.78355,-0.59567
-0.60126,0.7746,0.19614,1.57125,0.54771,-1.02585
-0.65517,0.72477,0.21321,0.07952,0.53291,-0.33912
-0.67968,0.70106,0.21576,0.75687,-0.20193,-0.39585
-0.68088,0.69702,0.22487,1.49512,-1.48425,-0.49998
-0.65425,0.71944,0.23315,1.78201,-1.71954,-0.63523
-0.60725,0.76532,0.21338,2.16823,-1.63295,-0.73752
-0.56233,0.81166,0.15807,2.67401,-2.23931,-1.46748
-0.50283,0.85453,0.13017,1.65729,-1.04407,0.02392
-0.43452,0.89171,0.12669,0.98715,-0.86343,0.10602
-0.37267,0.91829,0.13366,-0.09806,-0.41247,1.32964
-0.38087,0.91872,0.10435,-1.96968,2.69265,1.63169
-0.41855,0.90639,-0.05713,-0.89089,1.9813,-1.64959
-0.41709,0.90135,-0.11669,2.31275,-0.28297,1.50329
-0.35138,0.93619,0.00942,1.26909,0.91596,-2.89228
-0.28051,0.95953,-0.02468,0.73449,0.65622,-2.88192
-0.27018,0.9626,-0.01988,0.02006,0.11436,-1.11785
-0.25682,0.96274,-0.08477,-0.12593,-0.44749,-1.30768
-0.15187,0.97744,-0.14681,-0.1826,-0.39098,-0.95921
0.02509,0.98439,-0.17421,-0.41103,2.74864,-1.52905
0.15516,0.96167,-0.2261,-0.84007,4.44307,-0.56864
0.23821,0.9213,-0.30735,-1.72071,1.79882,1.5394
0.26343,0.89425,-0.36183,-0.04468,0.20928,2.32904
0.29594,0.87796,-0.37631,-1.146,0.23434,0.35006
0.31713,0.8709,-0.37546,-1.37134,0.28314,-0.02536
0.30833,0.87105,-0.38238,-1.64651,-1.24869,1.12094
0.28184,0.8799,-0.38254,-1.51588,-2.0604,1.77492
0.24854,0.90756,-0.33847,-1.07946,-1.97891,1.20385
0.20069,0.93262,-0.29989,0.41119,-0.61619,0.39618
0.13955,0.95794,-0.25077,0.23912,-0.78216,0.76668
0.06188,0.98133,-0.18212,0.03265,-0.4798,0.52661
-0.01875,0.99368,-0.11064,-0.65706,1.58543,-0.75526
-0.14567,0.98896,-0.02712,-1.80942,3.49134,1.07331
-0.31346,0.94799,0.05532,-2.42757,5.18589,0.84972
-0.44142,0.88874,0.12369,-0.48493,3.06752,-0.99904
-0.54029,0.82865,0.14637,1.94831,2.57174,-0.60816
-0.6378,0.75407,0.15682,2.27934,1.46538,-1.69551
-0.69293,0.70066,0.17005,0.18197,-0.70271,-0.54379
-0.7018,0.68793,0.18501,0.82173,-1.01343,-0.46207
-0.68406,0.70413,0.19043,0.98246,-1.54539,-0.27113
-0.64129,0.74431,0.1864,2.10214,-1.81859,-0.66283
-0.58118,0.79671,0.16579,2.2054,-1.70764,-0.6666
-0.51573,0.84632,0.13327,2.66021,-2.4172,-0.73689
-0.43096,0.89528,0.11297,2.46662,-1.80355,0.16015
-0.35721,0.92867,0.09985,0.22118,-0.35944,0.43636
-0.29874,0.94734,0.11533,-0.71438,0.29685,2.3517
-0.3241,0.94104,0.097,-1.35716,3.48632,0.48824
-0.3788,0.92381,-0.05563,-0.92221,1.21908,-1.36958
-0.38656,0.91018,-0.14882,0.76915,-0.48115,-0.38602
-0.34863,0.93713,-0.01547,1.45097,1.7954,0.71175
-0.30604,0.952,-0.00647,0.34259,0.65265,-1.63182
-0.31069,0.95047,-0.00829,-0.34554,-0.28148,1.02242
-0.31155,0.94705,-0.07762,0.21576,-1.49309,-0.94488
-0.21268,0.96573,-0.14879,0.40704,-1.25783,-0.45881
-0.02552,0.98395,-0.17658,0.30568,0.96124,-0.91515
0.10112,0.96856,-0.22728,-0.58443,4.67418,1.7616
0.15305,0.93995,-0.30509,-1.46073,1.99598,1.74495
0.19615,0.91507,-0.35239,-0.28092,0.36476,1.05655
0.23737,0.89032,-0.38857,0.18274,-0.00853,1.43248
0.2679,0.87426,-0.40483,-1.12696,-0.04908,0.88637
0.27787,0.87345,-0.39985,-1.40396,-0.31825,0.81132
0.24915,0.88714,-0.38848,-2.03003,-1.44478,1.20771
0.21351,0.91439,-0.34395,-0.94379,-1.82327,0.71155
0.18425,0.93813,-0.29319,0.01175,-1.33069,0.41989
0.13221,0.9611,-0.24248,0.68822,-0.64892,0.70039
0.05453,0.98268,-0.17711,-0.37257,0.01535,0.11131
-0.02893,0.99423,-0.10327,-0.54686,0.69177,-0.34519
-0.12827,0.99125,-0.03121,-1.44353,2.69936,0.49003
-0.25853,0.96538,0.03466,-2.31602,4.96335,0.30862
-0.37853,0.92,0.10157,-1.37287,3.59642,-0.32772
-0.47354,0.86762,0.15163,0.38246,2.17321,-0.54731
-0.5544,0.81549,0.16619,1.32737,1.13106,-0.62197
-0.62251,0.76649,0.15803,1.31034,0.25391,-0.73664
-0.65448,0.7391,0.15934,1.15731,-1.05272,-0.37048
-0.65485,0.73851,0.16052,1.20504,-1.48537,-0.56
-0.62501,0.7657,0.15186,1.39177,-1.6288,-0.59084
-0.57053,0.81344,0.1132,2.17224,-2.01139,-0.94384
-0.50194,0.86281,0.06007,2.60138,-2.11152,-0.73436
-0.42649,0.90396,0.03084,2.53569,-1.92957,0.01411
-0.36146,0.93193,0.02943,0.66575,-0.62036,0.48928
-0.30823,0.94657,0.09488,-1.92501,0.86868,3.1379
-0.33467,0.94187,0.0295,-1.84085,2.50965,1.71597
-0.37558,0.92028,-0.10964,-0.08632,0.7231,-0.84295
-0.37033,0.92629,-0.06963,1.52833,2.58808,0.31264
-0.32967,0.94163,-0.06814,1.15846,2.22286,-1.48546
-0.29652,0.95189,-0.0774,0.31161,-0.84823,-1.80384
-0.27437,0.95532,-0.10991,0.28617,-1.50137,-0.60382
-0.1993,0.96556,-0.16726,-0.31151,-1.49278,0.04444
-0.03791,0.98317,-0.17871,-0.5841,1.16221,-0.59639
0.0888,0.97196,-0.21772,-0.49368,5.52378,0.54693
0.13153,0.94852,-0.2881,-0.60202,3.85201,1.14189
0.17924,0.92523,-0.3344,-0.36235,0.47121,0.91326
0.21409,0.90624,-0.36455,-0.50069,-0.10343,0.79199
0.23044,0.88483,-0.40494,-0.82704,-0.25507,0.59603
0.22201,0.87324,-0.43377,-1.53158,-1.19407,1.3225
0.18802,0.88316,-0.42975,-1.76572,-1.43249,1.14375
0.14424,0.91385,-0.37956,-0.56248,-0.85105,0.99454
0.11385,0.9388,-0.32512,1.28445,-0.26157,0.75088
0.07415,0.96166,-0.26404,0.97317,-0.12105,0.50751
0.01433,0.98141,-0.19139,0.31857,-0.07731,-0.25935
-0.07604,0.99096,-0.11048,-1.01098,1.63823,0.17167
-0.20303,0.97874,-0.02927,-1.37813,2.35551,0.68257
-0.33982,0.93976,0.03692,-1.64475,3.0425,0.59193
-0.45096,0.886,0.10791,-0.5403,2.60784,-0.60231
-0.54196,0.82652,0.15212,0.30907,2.23087,-0.41898
-0.61459,0.77314,0.15663,0.76881,1.22505,-0.58793
-0.65743,0.73675,0.15808,0.63077,0.19971,-0.38955
-0.67899,0.7154,0.16487,0.92493,-0.63129,-0.21998
-0.67495,0.71737,0.17267,1.0281,-1.19839,-0.43668
-0.64447,0.74647,0.16566,1.32281,-1.58386,-0.62092
-0.59039,0.79811,0.12026,1.8945,-1.95248,-0.66404
-0.51633,0.85511,0.04673,2.44169,-2.66933,-1.2419
-0.43156,0.90208,0.00268,2.34605,-1.72699,-0.13523
-0.3647,0.93096,-0.01727,0.54422,-0.73832,0.28343
-0.30834,0.95053,0.03761,0.21502,-0.29802,1.33931
-0.32149,0.94645,0.02965,-1.53262,3.11131,-0.53037
-0.37023,0.9251,-0.08439,-0.69985,0.64076,-0.20951
-0.37351,0.9131,-0.1635,0.32363,-0.25502,-0.42294
-0.32408,0.9424,-0.08284,1.82871,1.65686,-0.21666
-0.27259,0.95544,-0.11329,0.66819,0.21299,-1.83807
-0.25518,0.96134,-0.10354,0.56995,-0.12091,-1.54975
-0.1964,0.97008,-0.14276,-0.31272,-0.2214,-0.40347
-0.05926,0.98521,-0.16075,-0.92705,1.17209,-0.46221
0.09235,0.98174,-0.16634,-1.33354,2.47018,0.28504
0.17316,0.95612,-0.23634,-0.66795,1.08362,1.4429
0.23729,0.92161,-0.30711,-0.37504,0.76477,1.15044
0.26962,0.89997,-0.34258,0.09045,0.70242,0.97749
0.32198,0.88236,-0.34317,-0.65566,0.25152,0.42816
0.35863,0.86747,-0.34478,-1.12636,0.17928,-0.21233
0.34897,0.86538,-0.35965,-1.78878,-0.74576,0.57066
0.30923,0.88403,-0.35054,-2.56161,-1.50814,0.77116
0.26552,0.91784,-0.29508,-1.99484,-1.77788,1.12952
0.22875,0.9433,-0.24053,0.55662,-0.74027,-0.05923
0.18028,0.96361,-0.19735,0.71388,-0.79642,0.58178
0.11188,0.98474,-0.13329,-0.14917,-0.61887,-0.09316
0.03003,0.99785,-0.05828,-0.50138,-0.0694,-0.78482
-0.0983,0.99491,0.02196,-2.10888,3.44374,1.22564
-0.28621,0.95542,0.07249,-3.12513,6.06854,-0.06484
-0.41847,0.89773,0.13769,-2.11533,5.07297,-0.73405
-0.51877,0.83668,0.17564,0.76237,2.72909,-0.53683
-0.60346,0.77822,0.1738,1.30771,0.19114,-0.53685
-0.66104,0.72914,0.17715,1.10274,-0.54919,-0.35939
-0.68532,0.70492,0.18284,1.28651,-1.4875,-0.55956
-0.67471,0.7131,0.19041,1.49102,-1.54414,-0.67796
-0.63829,0.74875,0.17877,2.19707,-1.59029,-0.91188
-0.57008,0.81095,0.13182,2.93653,-1.98742,-1.17306
-0.46772,0.87786,0.10298,2.95925,-2.1473,-1.16429
-0.37701,0.92189,0.08932,2.13249,-1.22403,0.00365
-0.31062,0.9457,0.09573,-0.0394,-0.31393,1.97683
-0.27118,0.95024,0.15329,-1.78363,0.91981,3.66213
-0.32175,0.94515,0.05625,-0.8743,2.11457,-0.84176
-0.36346,0.92798,-0.08217,0.61688,-0.1015,-1.38362
-0.3458,0.93657,-0.05713,2.20277,0.2497,0.42207
-0.26441,0.96436,-0.00953,1.39431,2.97273,-2.393
-0.24328,0.96992,0.00839,0.24601,1.54265,-1.92902
-0.26526,0.96396,-0.02046,-0.29384,-1.07985,-0.5465
-0.24405,0.96454,-0.10056,-0.12195,-1.34295,-1.62514
-0.1154,0.98183,-0.15063,-0.25162,0.37838,-1.53023
0.06892,0.98089,-0.18197,-0.66267,4.99293,0.27325
0.16562,0.94563,-0.27991,-0.91637,4.95549,2.87821
0.19156,0.91715,-0.34949,-0.25226,0.8804,1.1065
0.21948,0.89736,-0.38284,-0.45992,0.18409,1.42934
0.26214,0.88702,-0.38011,-0.95296,0.30202,0.70236
0.27353,0.88959,-0.36581,-1.35091,-0.27132,0.32251
0.24401,0.89807,-0.36597,-1.70567,-1.74798,1.44274
0.20993,0.92245,-0.32406,-1.62838,-1.95124,1.31132
0.17075,0.94865,-0.26628,0.22839,-0.78296,0.21649
0.12255,0.96914,-0.21389,0.63131,-0.68546,0.60285
0.05213,0.98853,-0.14176,0.51775,-0.82025,0.47078
-0.02179,0.99762,-0.06542,-0.70912,1.05995,-0.50619
-0.11807,0.99289,0.01527,-1.21654,1.62663,-0.15905
-0.26386,0.96098,0.08301,-1.90183,2.72658,0.57216
-0.41431,0.8977,0.14993,-1.94779,5.00991,-0.52488
-0.50592,0.83754,0.20633,0.12336,2.43912,-0.82059
-0.58508,0.77837,0.22765,0.93397,1.81056,-0.68549
-0.64897,0.72779,0.22172,1.29193,-0.01162,-0.63734
-0.68402,0.69585,0.21889,1.23637,-0.45011,-0.45001
-0.68904,0.6911,0.21819,1.37072,-1.2003,-0.55726
-0.66321,0.71709,0.21432,1.58844,-1.38745,-0.67671
-0.61235,0.76789,0.18809,1.83894,-1.52947,-0.70795
-0.53285,0.83695,0.12483,1.98723,-1.82995,-0.79292
-0.43586,0.89672,0.07689,2.78826,-1.75438,0.00288
-0.36362,0.92838,0.07677,0.93772,-1.00951,0.23399
-0.29343,0.94485,0.14546,0.31355,-0.65039,0.63184
-0.31081,0.94073,0.13575,-1.68328,2.65704,1.25801
-0.3797,0.92507,-0.00833,0.06351,0.20919,-1.82887
-0.40157,0.90988,-0.10422,1.01714,-0.2382,-0.67983
-0.35812,0.93344,0.0209,1.08566,0.94209,-1.67863
-0.31036,0.95026,0.02606,0.53108,0.20904,-1.12216
-0.29476,0.95494,0.03461,0.20833,0.03018,0.55159
-0.26585,0.96366,-0.02602,0.03587,-0.43421,-1.04343
-0.13444,0.98735,-0.084,0.04391,0.75944,-0.92228
0.04938,0.99361,-0.10145,-0.19846,2.22851,-1.11614
0.16323,0.97647,-0.14091,-0.69853,4.03715,1.67953
0.23097,0.95079,-0.20651,-1.23744,1.03792,0.97478
0.27449,0.92647,-0.25752,0.20555,0.19571,1.0052
0.31348,0.90313,-0.29341,-0.31044,-0.2096,0.83168
0.34391,0.88363,-0.31768,-1.21001,-0.09886,0.43271
0.34627,0.87765,-0.33139,-1.69244,-0.65143,0.89934
0.31632,0.88955,-0.32961,-2.05616,-1.40585,1.26244
0.27894,0.91605,-0.28816,-1.42469,-1.55761,1.2443
0.25079,0.93893,-0.23563,0.314,-0.70339,0.31304
0.21949,0.9559,-0.19514,0.87382,-0.77694,0.43864
0.1672,0.97635,-0.13708,0.23661,-0.97886,0.4113
0.09653,0.99267,-0.07272,-0.51088,-0.27033,-0.48633
0.00914,0.99994,-0.00666,-0.91818,1.11954,-0.19199
-0.13343,0.98973,0.05125,-2.05215,3.22932,0.64872
-0.27164,0.95535,0.11627,-2.07171,4.26192,-0.17598
-0.36344,0.91412,0.1797,-0.37496,3.31793,-0.88893
-0.43851,0.8727,0.21471,0.7412,1.94456,-0.37807
-0.50529,0.83521,0.21702,1.44011,1.1426,-0.58372
-0.55485,0.8038,0.21462,1.0582,-0.70029,-0.31015
-0.57992,0.78771,0.20785,1.02575,-1.2065,-0.42289
-0.57689,0.79399,0.19179,1.03244,-1.37604,-0.47287
-0.54683,0.82365,0.15026,1.78281,-2.04691,-0.56412
-0.4792,0.87397,0.08085,2.23073,-2.42097,-0.96284
-0.3957,0.91756,0.03886,2.24395,-2.1933,-0.60887
-0.33075,0.94312,0.03346,1.06947,-1.12692,-0.08505
-0.27502,0.95867,0.07285,0.0691,-0.54025,1.76023
-0.2606,0.96038,0.09874,-1.33184,0.74785,2.93023
-0.3146,0.94904,-0.01883,-0.82079,1.73598,-1.35523
-0.34016,0.93125,-0.13068,0.91628,-0.45438,-0.73773
-0.28452,0.95862,0.00941,2.66562,-0.81492,2.13506
-0.22061,0.97515,-0.02049,0.5587,2.60716,-4.10457
-0.21066,0.97749,0.0116,0.04411,1.91701,-3.1622
-0.1994,0.97893,-0.04395,-1.12589,-0.36629,2.17675
-0.10313,0.99028,-0.09333,-0.62976,-0.36476,-0.57977
0.03147,0.99559,-0.08839,-0.82884,2.17711,0.43121
0.1249,0.98408,-0.12643,-1.43304,4.16915,-0.60244
0.18682,0.96513,-0.18335,-1.04197,0.38289,0.56931
0.23241,0.94173,-0.24317,-0.15939,-0.44895,1.10421
0.27648,0.91418,-0.29636,-0.39984,-0.28816,0.58288
0.28121,0.89115,-0.35605,-1.20507,-0.63784,0.95496
0.24736,0.8983,-0.36313,-1.93976,-1.50626,0.96272
0.1945,0.92019,-0.33974,-1.74061,-1.54581,0.90525
0.17218,0.94506,-0.27789,-0.04741,-0.71923,1.0994
0.1429,0.96318,-0.22774,1.08996,-0.51475,0.45365
0.10816,0.98002,-0.16695,1.03991,-0.55033,0.62103
0.04255,0.99457,-0.09498,-0.03001,-0.58661,-0.8328
-0.0615,0.9978,-0.02457,-0.86271,0.85132,-0.48242
-0.20518,0.97808,0.03538,-2.11136,3.93386,0.26875
-0.34949,0.93333,0.08215,-2.42998,5.02779,-0.23288
-0.44487,0.88519,0.13614,-0.52768,2.025,-0.46924
-0.51576,0.83962,0.17038,0.81937,2.04196,-0.38774
-0.57105,0.80035,0.1826,1.32843,1.15088,-0.48147
-0.60851,0.77039,0.1903,1.1905,-0.67501,-0.28901
-0.6235,0.75782,0.19223,1.32347,-0.84893,-0.22255
-0.61456,0.76598,0.18866,1.36557,-1.07428,-0.29995
-0.58066,0.797,0.1662,1.52216,-1.1173,-0.39575
-0.51754,0.84918,0.1051,2.60672,-1.96251,-0.50723
-0.42158,0.90422,0.06823,2.58457,-2.74591,-0.51389
-0.34675,0.93602,0.06025,0.397,-1.45552,-0.10538
-0.2849,0.95446,0.08855,0.17829,-1.16341,0.56385
-0.28864,0.95335,0.08844,-2.46838,1.30654,2.18652
-0.3554,0.93435,-0.02621,-1.36155,2.31323,-1.65102
-0.39884,0.911,-0.10491,-0.36308,0.29661,-1.40538
-0.37311,0.9277,0.01274,2.35849,1.54282,5.19759
-0.30613,0.9514,0.03341,0.92851,2.5171,-2.65507
-0.29913,0.9513,0.07447,0.45425,1.36925,-1.79058
-0.31052,0.94979,0.03848,0.43301,-1.29935,-0.03514
-0.24821,0.96597,-0.07281,0.88221,-1.44076,-0.4498
-0.09113,0.99208,-0.08643,0.74477,-0.43257,-0.96107
0.0389,0.99412,-0.10103,-0.65127,5.10889,0.53189
0.1093,0.98207,-0.15357,-2.21205,4.40524,2.38934
0.16114,0.96338,-0.21432,-1.69794,0.33246,0.87216
0.19843,0.94317,-0.26656,0.20735,-0.15899,1.02615
0.22331,0.92521,-0.30679,-0.38096,-0.27316,0.54919
0.2299,0.9137,-0.33511,-0.76286,-0.41216,0.5791
0.21646,0.9171,-0.33477,-1.49685,-1.31873,1.29977
0.18022,0.93358,-0.30976,-1.56761,-1.55051,0.97046
0.14695,0.95572,-0.25497,-1.00837,-1.37372,1.07157
0.11791,0.97227,-0.20195,0.89948,-0.62774,0.2143
0.08396,0.98504,-0.15047,0.98146,-0.62109,0.5515
0.02603,0.99596,-0.08594,0.75998,-0.6863,0.48554
-0.04987,0.99863,-0.01589,-0.36681,0.37727,-0.76854
-0.14064,0.98877,0.05057,-0.99564,1.65192,-0.13115
-0.25467,0.96199,0.09853,-1.30813,2.54875,0.30264
-0.37007,0.91848,0.13947,-1.1673,3.56201,-0.18624
-0.45357,0.87269,0.18081,-0.19769,1.69561,-0.4776
-0.5216,0.82817,0.20512,0.41231,1.6666,-0.36606
-0.57728,0.79093,0.20291,0.98572,0.24087,-0.60992
-0.60133,0.77226,0.20498,0.91355,-0.64038,-0.41498
-0.60181,0.77072,0.20931,0.96295,-1.01271,-0.43789
-0.57739,0.78941,0.20846,0.97964,-1.34956,-0.43669
-0.53296,0.82741,0.17708,1.13143,-1.55579,-0.46072
-0.47414,0.8748,0.09959,1.44107,-2.44191,-0.6589
-0.39693,0.91693,0.0411,2.01767,-2.75509,-0.60203
-0.3284,0.94439,0.01682,1.30868,-1.53707,-0.0275
-0.27741,0.95782,0.07499,0.69129,-0.11993,0.74154
-0.29287,0.94956,0.1121,-1.61112,2.14105,3.04742
-0.38439,0.92299,-0.01819,-0.51504,0.74901,-0.61305
-0.41293,0.903,-0.11864,0.47161,-0.24392,-1.15381
-0.38958,0.91779,-0.0767,1.03692,0.36387,-0.11676
-0.35325,0.93474,-0.03841,0.13343,0.77432,0.61934
-0.35575,0.93456,-0.0061,-0.09036,0.36463,1.41884
-0.32129,0.94691,-0.01185,0.77509,-0.70487,-1.3841
-0.19922,0.97841,-0.05497,0.86265,0.05403,-1.18814
-0.04212,0.99646,-0.07274,0.6607,0.97742,-1.3829
0.08546,0.9908,-0.10493,0.04305,3.97731,0.17419
