gravity.x,gravity.y,gravity.z,userAcceleration.x,userAcceleration.y,userAcceleration.z
0.3404,0.93466,-0.10259,0.47892,0.70684,-0.25604
0.33606,0.93749,-0.09047,0.35771,0.48418,-0.09064
0.32957,0.94129,-0.07322,0.28193,0.58217,-0.01867
0.31721,0.94673,-0.05543,0.10927,0.74573,0.00336
0.30114,0.95264,-0.0423,-0.14113,0.67773,0.0067
0.2846,0.95795,-0.03637,-0.15606,0.31827,0.13762
0.26711,0.96293,-0.03751,-0.04342,0.05198,0.12428
0.25351,0.96602,-0.0503,0.14072,-0.06052,0.1285
0.24651,0.96655,-0.07074,0.30229,-0.21535,0.11664
0.24683,0.96444,-0.09452,0.24661,-0.09675,0.01838
0.25717,0.9578,-0.12841,0.19094,0.03676,0.0646
0.27255,0.94666,-0.17189,-0.14595,0.19552,0.04352
0.28171,0.93423,-0.21874,-0.37309,0.09403,0.16926
0.27955,0.92323,-0.26362,-0.26477,-0.10412,0.30653
0.26964,0.91523,-0.29942,-0.09724,-0.04529,0.26657
0.26477,0.90755,-0.32597,-0.05109,0.02248,0.23121
0.27258,0.89671,-0.34873,-0.11218,-0.16073,0.18149
0.28133,0.88444,-0.3723,-0.18241,-0.40452,0.1366
0.28167,0.87287,-0.39845,-0.16525,-0.35584,0.14577
0.27794,0.86041,-0.42714,-0.14506,-0.34931,0.14458
0.27329,0.8478,-0.45448,-0.01858,-0.46084,0.22633
0.26843,0.83618,-0.47827,-0.0322,-0.42444,0.22316
0.26196,0.82698,-0.49748,-0.13615,-0.42099,0.09861
0.25374,0.82034,-0.5125,-0.18379,-0.44231,0.08081
0.2464,0.8153,-0.52399,-0.15997,-0.43533,0.05781
0.24547,0.80993,-0.53269,-0.0706,-0.16656,-0.12825
0.25067,0.80387,-0.53941,0.02668,0.10968,-0.2768
0.25756,0.7996,-0.54249,0.12304,0.26192,-0.34063
0.26184,0.80006,-0.53977,0.41797,0.63424,-0.38633
0.26401,0.80184,-0.53606,0.44452,0.86792,-0.51248
0.26436,0.80271,-0.53458,0.31805,0.80893,-0.34671
0.25865,0.81345,-0.52095,0.20054,0.70815,-0.0504
0.25422,0.83382,-0.49002,-0.10334,0.15605,0.01942
0.25067,0.85439,-0.45517,-0.04981,-0.02907,0.19375
0.24598,0.87363,-0.41983,-0.01958,-0.11845,0.33017
0.24137,0.89027,-0.38622,-0.11785,-0.02749,0.21329
0.23928,0.90344,-0.35572,-0.18604,0.03533,0.16848
0.24186,0.9134,-0.32743,-0.1905,0.13458,0.2087
0.24673,0.92217,-0.29788,-0.10037,0.00107,0.21479
0.25307,0.92985,-0.26707,-0.08379,-0.11386,0.17307
0.26198,0.93556,-0.23685,0.01108,-0.32034,0.13812
0.27219,0.93904,-0.21003,0.01846,-0.29872,0.0902
0.28246,0.94128,-0.18493,0.03764,-0.2679,0.17167
0.29131,0.94309,-0.16039,-0.10788,-0.31119,0.20189
0.29651,0.94514,-0.1371,-0.11488,-0.31612,0.17887
0.29762,0.94752,-0.11674,-0.11396,-0.31721,0.16694
0.29607,0.94978,-0.10128,-0.07095,-0.16639,0.10895
0.29567,0.95079,-0.09263,-0.02833,-0.06007,0.11172
0.30012,0.94971,-0.08934,-0.01771,-0.10722,0.1297
0.30785,0.94733,-0.08824,0.0005,-0.41793,0.11491
0.31479,0.94554,-0.0828,0.00859,-0.46127,0.0344
0.31708,0.9453,-0.07657,0.10696,-0.15978,-0.08922
0.31363,0.94654,-0.07548,0.29712,0.01866,-0.14176
0.30778,0.94863,-0.07336,0.45152,0.1581,-0.24361
0.30342,0.95029,-0.06989,0.54787,0.49779,-0.28991
0.30303,0.95066,-0.06636,0.43932,0.62653,-0.13644
0.30341,0.95114,-0.0572,0.197,0.49951,0.02046
0.29826,0.9537,-0.03859,0.04468,0.47509,0.09884
0.28677,0.95788,-0.0152,0.05999,0.70756,0.02204
0.26974,0.96293,0.00372,0.1441,0.80095,0.09028
0.25214,0.96758,0.01423,-0.0465,0.47063,-0.00858
0.23549,0.97177,0.01427,-0.07749,0.17423,-0.02551
0.21989,0.97552,0.0034,-0.14316,0.02221,-0.02243
0.2126,0.97696,-0.01853,-0.02881,-0.0696,0.12939
0.21399,0.97572,-0.04663,0.13537,-0.24215,-0.04136
0.22381,0.97102,-0.08385,0.25041,0.10956,0.04319
0.24241,0.96178,-0.12731,0.18617,0.14785,-0.09158
0.26505,0.94831,-0.17448,-0.13938,0.23028,0.16993
0.2786,0.93517,-0.2187,-0.37957,0.00141,0.17965
0.27832,0.9251,-0.25831,-0.37146,0.05735,0.2192
0.27003,0.91735,-0.29251,-0.3383,-0.00705,0.31382
0.26432,0.91046,-0.3181,-0.13913,0.03996,0.1718
0.2695,0.90087,-0.3403,-0.14432,0.04956,0.194
0.27891,0.88855,-0.36427,-0.08183,-0.38043,0.19152
0.28045,0.87667,-0.39089,-0.04701,-0.33195,0.20752
0.27286,0.8649,-0.4213,-0.02158,-0.31758,0.26787
0.26467,0.85152,-0.45261,0.01194,-0.32891,0.27178
0.25918,0.83714,-0.48168,-0.19535,-0.3936,0.2783
0.25213,0.82477,-0.50614,-0.23593,-0.40867,0.28385
0.24683,0.81493,-0.52437,-0.29027,-0.41573,0.20324
0.24469,0.80598,-0.53901,-0.36612,-0.38915,0.13666
0.24608,0.79882,-0.54894,-0.32055,-0.35044,0.11676
0.25295,0.79694,-0.54855,-0.11646,-0.30159,-0.03438
0.26416,0.80161,-0.53632,0.17507,0.13525,-0.48713
0.27292,0.80679,-0.52402,0.30675,0.34302,-0.66901
0.27129,0.81147,-0.5176,0.76454,0.54617,-0.82064
0.26577,0.81257,-0.51875,0.93476,0.60679,-0.60648
0.27724,0.80434,-0.52551,0.81246,0.36313,-0.41066
0.28921,0.80616,-0.5162,-0.03064,0.56254,-0.42412
0.2738,0.82675,-0.49144,-0.47259,-0.10606,0.21936
0.26216,0.85148,-0.45414,-0.40775,-0.15614,0.31086
0.26176,0.87189,-0.41386,-0.23931,0.05581,0.46194
0.26657,0.88699,-0.37707,-0.23986,0.10045,0.35056
0.27431,0.8975,-0.34532,-0.24209,0.12118,0.24913
0.28496,0.90547,-0.31451,-0.36914,0.17935,0.16126
0.29766,0.91212,-0.28183,-0.35368,0.15331,0.15658
0.30962,0.91693,-0.25176,-0.32159,0.04703,0.1203
0.3203,0.92104,-0.22159,0.03473,-0.12483,0.13912
0.32849,0.92442,-0.19377,0.11409,-0.11915,0.14845
0.33329,0.92801,-0.16647,0.20806,-0.04385,0.14935
0.33379,0.93243,-0.1384,0.12005,-0.07679,0.13378
0.33216,0.93673,-0.11047,0.01732,-0.13218,0.10892
0.32916,0.94039,-0.08556,-0.03212,-0.15848,0.08039
0.32697,0.9429,-0.06344,-0.03782,-0.20015,0.06452
0.32892,0.94338,-0.043,-0.08519,-0.2247,0.05736
0.33503,0.94186,-0.02544,-0.15549,-0.21117,-0.01181
0.34372,0.93897,-0.01384,-0.1967,-0.26332,-0.04192
0.35218,0.93588,-0.00992,-0.22306,-0.29068,0.00251
0.35767,0.93378,-0.01101,-0.20386,-0.4096,0.11797
0.35711,0.93402,-0.00836,-0.05116,-0.14255,-0.01939
0.35147,0.93619,-0.0031,-0.00617,-0.06777,-0.07137
0.34374,0.93906,0.00166,0.0323,-0.0199,-0.12217
0.33463,0.94234,0.00485,0.113,0.04113,-0.10774
0.32555,0.94548,0.00933,-0.07608,-0.15034,-0.08196
0.31726,0.94821,0.01563,-0.0207,-0.18895,-0.06336
0.3081,0.95105,0.02416,0.2608,-0.10196,-0.03501
0.30048,0.95313,0.03528,0.27374,-0.0351,-0.04621
0.29612,0.95381,0.05063,0.06863,0.04845,-0.06153
0.29639,0.95284,0.06512,-0.21192,0.39761,0.20679
0.30234,0.95019,0.07568,-0.14193,0.51871,0.27747
0.31417,0.94603,0.07957,-0.07152,0.54145,0.28608
0.33117,0.94063,0.07438,-0.05937,0.47691,0.22306
0.35141,0.9344,0.05837,-0.20829,0.37358,0.09077
0.37174,0.92763,0.03616,-0.22863,0.38035,0.11298
0.38721,0.92191,0.01211,-0.45534,0.52571,0.07259
0.39463,0.91878,-0.01014,-0.38447,0.39923,0.12675
0.39423,0.91849,-0.03083,-0.38407,0.39952,0.14744
0.38708,0.92052,-0.05291,0.03246,0.01745,0.12946
0.37906,0.92221,-0.07646,-0.02698,0.01142,-0.01219
0.37654,0.92093,-0.10051,-0.05525,0.03397,0.03528
0.38176,0.91589,-0.12408,-0.09195,0.18411,-0.0528
0.3897,0.90937,-0.14551,-0.20174,-0.24394,0.03912
0.39301,0.90493,-0.1632,-0.21064,-0.27377,0.05821
0.39136,0.90296,-0.17746,-0.22557,-0.28231,0.06963
0.38662,0.90309,-0.18696,-0.27935,-0.42975,0.05624
0.37803,0.90601,-0.19035,-0.25162,-0.48483,0.03521
0.36759,0.91105,-0.18673,-0.09668,-0.38007,-0.07093
0.35691,0.91713,-0.17742,-0.06902,-0.38347,-0.09096
0.34701,0.92342,-0.16392,-0.059,-0.39364,-0.11873
0.33891,0.92925,-0.14708,-0.0662,-0.40773,-0.20196
0.33256,0.93431,-0.12834,-0.05216,-0.40103,-0.23638
0.32744,0.93814,-0.11257,-0.01106,-0.34975,-0.32759
0.32084,0.94068,-0.11037,0.0812,0.45821,-0.43448
0.31869,0.93999,-0.12183,0.11081,0.60757,-0.4473
0.32885,0.93461,-0.13548,-0.02824,0.49807,-0.29702
0.34758,0.92687,-0.14173,-0.13951,0.61613,-0.28953
0.36948,0.91683,-0.15133,-0.29192,0.67572,-0.31409
0.38257,0.908,-0.1708,-0.50783,0.78167,-0.22721
0.3781,0.90683,-0.18627,-0.65038,0.6604,-0.02718
0.36652,0.91228,-0.18276,-0.50415,0.18901,0.00625
0.35893,0.91687,-0.17466,-0.39702,-0.18498,0.3039
0.35685,0.91888,-0.16825,-0.22978,-0.24298,0.43386
0.3578,0.9195,-0.1628,-0.19777,-0.22366,0.44051
0.36391,0.91908,-0.15122,-0.1888,-0.13551,0.44151
0.37469,0.91786,-0.13093,-0.26298,0.21779,0.25436
0.38561,0.91657,-0.10585,-0.33582,0.4116,0.06165
0.39398,0.91522,-0.08449,-0.33417,0.39955,0.02606
0.40174,0.91326,-0.06744,-0.17013,0.08298,0.21441
0.40927,0.91097,-0.05123,-0.09825,-0.00426,0.22079
0.41462,0.90941,-0.03251,-0.1036,-0.0027,0.20207
0.41679,0.90894,-0.01095,-0.0502,-0.1328,0.1407
0.41637,0.90912,0.01168,0.06892,-0.00102,0.09372
0.41599,0.90872,0.03418,0.0693,-0.00063,0.07123
0.41821,0.90669,0.05482,-0.12133,-0.16209,-0.05068
0.42183,0.90375,0.07274,-0.18748,-0.18523,-0.06116
0.42189,0.90237,0.08792,-0.16442,-0.10997,-0.08829
0.41847,0.90254,0.10148,-0.0334,-0.08815,-0.12354
0.41323,0.9036,0.1129,0.06853,-0.12016,-0.18133
0.40687,0.90538,0.12144,0.10001,-0.13784,-0.25584
0.39889,0.90809,0.12752,0.07993,-0.08251,-0.29392
0.38807,0.91203,0.13262,0.08104,-0.08232,-0.29337
0.37253,0.91781,0.13724,0.12058,-0.07797,-0.29418
0.35634,0.92339,0.1427,0.12384,-0.01726,-0.34985
0.34388,0.92695,0.14998,0.18386,-0.00139,-0.23519
0.33287,0.92987,0.15661,0.20268,0.03236,-0.2662
0.32257,0.93226,0.1638,0.15645,0.13457,-0.30647
0.31269,0.93417,0.1719,-0.16228,0.33021,-0.17129
0.30413,0.93562,0.17919,-0.23828,0.46069,-0.13231
0.3,0.93684,0.17977,-0.20233,0.41963,0.09909
0.30097,0.93859,0.1687,-0.2452,0.42449,0.20137
0.315,0.93889,0.13875,-0.2545,0.38647,0.169
0.3361,0.93702,0.095,-0.27255,0.5855,0.15044
0.34636,0.93655,0.05392,-0.33852,0.54908,0.09024
0.34294,0.93905,0.02398,-0.28718,0.47842,0.01428
0.34138,0.93991,-0.00586,0.02235,0.50284,-0.11703
0.34497,0.93752,-0.04531,0.10799,0.46656,-0.1035
0.35476,0.93058,-0.09038,0.20268,0.14096,-0.0769
0.36365,0.9217,-0.13502,-0.08146,-0.09429,-0.04105
0.37143,0.91115,-0.17844,-0.13433,0.05429,0.02639
0.38227,0.89777,-0.21881,-0.15343,-0.08968,0.03316
0.39038,0.88534,-0.25256,-0.12597,-0.19942,0.0006
0.39245,0.87652,-0.27875,-0.08924,-0.40156,-0.00543
0.38906,0.86999,-0.3029,-0.05976,-0.48386,-0.03873
0.38452,0.86186,-0.33067,-0.16379,-0.47265,0.01466
0.38006,0.85163,-0.36094,-0.18761,-0.48465,0.05868
0.37485,0.84179,-0.38843,-0.2621,-0.51684,0.0567
0.37003,0.83587,-0.40545,-0.23925,-0.53428,-0.0407
0.36577,0.8324,-0.41631,-0.13137,-0.4842,-0.16462
0.36229,0.82858,-0.42684,-0.12839,-0.3477,-0.29177
0.35764,0.82299,-0.44133,-0.03579,-0.07417,-0.41275
0.35506,0.81667,-0.45494,0.06329,0.04118,-0.46431
0.35382,0.81099,-0.46594,0.16777,0.14869,-0.50081
0.35374,0.80808,-0.47103,0.37519,0.37254,-0.35005
0.34915,0.81352,-0.46506,0.34064,0.3807,-0.33269
0.33499,0.8311,-0.44391,0.18783,0.14458,-0.25265
0.32154,0.85089,-0.41546,-0.23806,0.56048,-0.23147
0.31598,0.85725,-0.40655,-0.0494,0.7197,0.10883
0.32175,0.86658,-0.38146,-0.26375,0.43751,0.1134
0.32372,0.88054,-0.34621,-0.49295,-0.2424,0.09984
0.31785,0.89307,-0.31842,-0.34018,-0.039,0.04389
0.30996,0.90288,-0.29788,-0.25696,0.1063,0.1239
0.31034,0.90938,-0.27698,-0.1114,0.26256,0.26739
0.31451,0.91561,-0.25046,-0.16914,0.16555,0.15046
0.31433,0.9232,-0.2211,-0.19681,0.03421,0.12665
0.31151,0.93056,-0.19238,-0.12917,-0.1762,0.07599
0.3093,0.93615,-0.1672,-0.09675,-0.0775,0.11339
0.31057,0.9395,-0.14447,-0.09802,-0.08086,0.09067
0.31742,0.9405,-0.1212,-0.03136,-0.01872,0.14818
0.32532,0.94048,-0.09824,-0.09456,-0.28541,0.16549
0.32907,0.94121,-0.07631,-0.13309,-0.29493,0.14481
0.32861,0.94278,-0.05627,-0.17822,-0.22158,0.09171
0.32805,0.94383,-0.03949,-0.16839,-0.10271,0.08105
0.33025,0.94354,-0.02593,-0.16055,-0.19792,0.07972
0.33262,0.94289,-0.01783,-0.14483,-0.30467,0.04769
0.33366,0.94255,-0.01645,-0.00945,-0.17772,0.01886
0.33563,0.94178,-0.01972,0.02898,-0.13646,0.01929
0.34004,0.94015,-0.02186,0.07915,-0.26762,-0.08082
0.34445,0.9386,-0.01972,0.22042,-0.26034,-0.32795
0.34405,0.93881,-0.01629,0.22472,-0.14839,-0.42269
0.3383,0.94092,-0.01464,0.28238,0.43986,-0.4667
0.33037,0.94374,-0.01417,0.30978,0.65184,-0.4225
0.32206,0.94668,-0.0084,0.34632,0.92605,-0.24198
0.31498,0.94909,0.00306,0.24828,0.52785,-0.20949
0.30904,0.95079,0.02177,0.14695,0.69143,-0.21883
0.2961,0.95434,0.03947,0.05549,0.91541,-0.1649
0.27978,0.95875,0.0501,-0.2432,0.47231,0.05818
0.26233,0.9636,0.05144,-0.2102,0.04273,-0.00216
0.24505,0.96871,0.03935,-0.00015,-0.07555,0.03319
0.23611,0.97151,0.02041,0.19118,-0.21513,0.08859
0.23824,0.9712,0.00059,0.17008,-0.21574,-0.06916
0.24993,0.96787,-0.02761,0.0888,-0.0455,-0.08227
0.26526,0.96184,-0.067,-0.11955,0.06005,0.0335
0.27642,0.95464,-0.11069,-0.28683,0.04088,0.1279
0.27963,0.94773,-0.15364,-0.33273,-0.04887,0.15181
0.27662,0.94155,-0.19227,-0.26342,-0.11657,0.23305
0.27427,0.93549,-0.22275,-0.16525,-0.11111,0.16709
0.28024,0.92732,-0.24807,-0.12422,-0.13526,0.1053
0.28977,0.91739,-0.2728,-0.19855,-0.32796,0.03258
0.29613,0.90726,-0.29863,-0.13314,-0.32135,0.06769
0.29742,0.89779,-0.32482,-0.09744,-0.35212,0.05999
0.29631,0.88828,-0.35094,-0.0171,-0.38385,0.13379
0.29711,0.87767,-0.37606,-0.09246,-0.36926,0.09925
0.29954,0.86616,-0.40004,-0.09489,-0.35776,0.12323
0.29778,0.85608,-0.42243,-0.30496,-0.4372,0.09261
0.29335,0.84868,-0.44009,-0.28486,-0.45582,-0.01698
0.29193,0.84301,-0.45179,-0.24615,-0.40572,-0.05409
0.29545,0.83777,-0.45918,-0.16062,-0.35791,-0.16344
0.30199,0.83395,-0.46187,0.0143,-0.14333,-0.35718
0.30815,0.83251,-0.46039,0.19501,0.22527,-0.53266
0.30818,0.83548,-0.45496,0.48223,0.50955,-0.61805
0.30307,0.84396,-0.44258,0.58915,0.62647,-0.48523
0.29958,0.85306,-0.42724,0.51106,0.69326,-0.49447
0.30191,0.85677,-0.41808,0.29364,0.81551,-0.64323
0.30169,0.86511,-0.40069,-0.15774,0.20123,-0.08917
0.29442,0.88338,-0.36464,-0.25673,-0.10884,-0.01776
0.28407,0.9012,-0.32734,-0.26466,-0.28274,0.23765
0.27482,0.91423,-0.29776,-0.26012,-0.24305,0.28584
0.27196,0.9232,-0.27155,-0.23894,-0.07617,0.20531
0.27851,0.92863,-0.24509,-0.2327,0.24974,0.1428
0.29029,0.93256,-0.21461,-0.26554,0.18156,0.10108
0.29694,0.93719,-0.18305,-0.23172,0.06521,0.04945
0.2962,0.94215,-0.15685,-0.00592,-0.34723,0.05011
0.29465,0.94552,-0.13844,0.0352,-0.3155,0.0816
0.29629,0.94719,-0.12261,0.03362,-0.19164,0.14341
0.30054,0.94817,-0.10312,-0.06725,-0.17791,0.11109
0.30354,0.94942,-0.08032,-0.13832,-0.19715,0.0387
0.30276,0.95128,-0.05834,-0.0989,-0.18306,0.01223
0.29969,0.95319,-0.04018,-0.02112,-0.14624,0.01934
0.29824,0.95415,-0.02552,-0.00307,-0.14334,0.02477
0.3002,0.95377,-0.01387,-0.04008,-0.20376,-0.00075
0.30429,0.95256,-0.00513,-0.08689,-0.23537,-0.03286
0.3082,0.95132,-0.00042,-0.09026,-0.17973,-0.03383
0.31054,0.95056,0.00033,-0.08101,-0.20837,0.00243
0.31093,0.95043,-0.00027,-0.00556,-0.23836,-0.0375
0.30967,0.95084,-0.00321,0.0792,-0.19748,-0.10444
0.30765,0.95147,-0.00702,0.13968,-0.1992,-0.16406
0.30613,0.95194,-0.00958,0.21268,-0.20407,-0.24137
0.30588,0.95202,-0.00932,0.29359,-0.06343,-0.42264
0.30508,0.95229,-0.00798,0.31418,0.26817,-0.48097
0.30336,0.95285,-0.00612,0.31612,0.5966,-0.29124
0.30037,0.95382,-0.00036,0.45935,0.75176,-0.14794
0.29586,0.9551,0.01543,0.35585,0.47078,-0.09258
0.28962,0.95635,0.0388,0.02671,0.64304,0.00205
0.27752,0.95874,0.06157,-0.03985,0.8025,0.03303
0.26046,0.96225,0.07891,-0.11822,0.90628,0.05318
0.24152,0.96646,0.08725,-0.21274,0.37067,0.01796
0.22117,0.97187,0.08095,0.03794,0.0422,-0.05443
0.20755,0.97625,0.06203,0.09657,-0.05737,0.03789
0.20292,0.97849,0.03715,0.02044,-0.20246,-0.04949
0.20697,0.9783,0.00947,0.13139,0.01555,-0.18623
0.22083,0.9749,-0.02847,0.06302,0.14218,-0.12905
0.24043,0.96787,-0.07364,-0.24417,0.12756,-0.04036
0.2561,0.95902,-0.12121,-0.32009,-0.02624,0.07588
0.26115,0.95132,-0.16367,-0.32515,-0.01853,0.11833
0.25539,0.94663,-0.19663,-0.19657,-0.39306,0.18949
0.24842,0.94307,-0.22114,-0.01368,-0.15753,0.0473
0.24985,0.93665,-0.2455,-0.01511,-0.15111,0.07165
0.25399,0.92835,-0.2714,-0.12687,-0.32286,0.06425
0.25442,0.91938,-0.30002,-0.10951,-0.34026,0.06396
0.25051,0.90933,-0.33221,-0.06912,-0.31599,0.13016
0.24766,0.89767,-0.36449,-0.03965,-0.3538,0.1657
0.24644,0.88558,-0.39371,-0.14522,-0.3406,0.08582
0.24486,0.87443,-0.41881,-0.19945,-0.32196,0.09125
0.24194,0.86501,-0.43957,-0.23596,-0.31015,-0.02746
0.23693,0.85856,-0.45467,-0.08112,-0.33778,-0.21975
0.23109,0.85686,-0.46086,0.0181,-0.29825,-0.27004
0.22742,0.86021,-0.45641,0.27845,0.26827,-0.73185
0.22648,0.86583,-0.44615,0.40793,0.37741,-0.7804
0.22266,0.87043,-0.43905,0.51188,0.3778,-0.70681
0.21971,0.87604,-0.42929,0.14208,0.23599,-0.22939
0.21679,0.88188,-0.41867,-0.03669,0.51544,-0.29356
0.20931,0.88916,-0.40691,0.0067,0.74759,-0.03884
0.20391,0.90394,-0.37591,-0.2504,-0.13429,0.30271
0.20752,0.92077,-0.33033,-0.21684,-0.26193,0.24352
0.21399,0.93344,-0.28793,-0.16098,-0.29218,0.16346
0.22152,0.94122,-0.25499,-0.108,-0.03824,0.08313
0.23104,0.94548,-0.22954,-0.07029,0.19483,0.15274
0.24456,0.9477,-0.20506,-0.06429,0.20652,0.18335
0.25692,0.95022,-0.17628,-0.13769,0.00713,0.10254
0.26364,0.95345,-0.14638,-0.11722,-0.18572,0.03418
0.26651,0.95627,-0.1205,-0.05261,-0.2625,0.06259
0.27036,0.95764,-0.09911,-0.03189,-0.28256,0.111
0.27621,0.95791,-0.07821,-0.07144,-0.26429,0.12837
0.28241,0.95755,-0.05775,-0.13188,-0.24301,0.10904
0.28555,0.95754,-0.03973,-0.09893,-0.23908,0.07859
0.28532,0.95808,-0.02596,-0.05738,-0.20538,0.05756
0.28609,0.95805,-0.017,-0.06856,-0.1681,0.05146
0.29153,0.95649,-0.01143,-0.1052,-0.24101,0.06796
0.29962,0.95402,-0.00772,-0.11234,-0.28384,0.03842
0.30645,0.95187,-0.00591,-0.05544,-0.21532,0.00414
0.30962,0.95085,-0.0053,-0.0059,-0.11415,-0.05876
0.30852,0.95121,-0.00196,0.19942,0.01273,-0.31954
0.3035,0.95283,0.00277,0.28853,0.1115,-0.33796
0.29659,0.95498,0.00654,0.45992,0.32241,-0.35539
0.29075,0.95673,0.01127,0.47944,0.50244,-0.28048
0.28699,0.95771,0.02047,0.45725,0.5086,-0.2438
0.28291,0.95848,0.03586,0.25225,0.4208,-0.10379
0.27497,0.96001,0.05257,0.18931,0.58186,0.01086
0.26258,0.96253,0.06774,0.1362,0.65774,0.04696
0.24933,0.9652,0.07889,-0.08052,0.65715,0.04391
0.23733,0.96781,0.08375,-0.22665,0.29731,-0.06574
0.22535,0.97119,0.07754,-0.17177,0.18276,-0.07221
0.21543,0.9748,0.05792,-0.00611,0.04685,-0.10504
0.2096,0.97739,0.02785,0.0271,-0.06285,0.03399
0.20937,0.97782,-0.0057,0.13657,-0.05523,-0.03077
0.21646,0.97534,-0.04312,0.16154,0.03519,-0.02054
0.23128,0.96926,-0.08394,-0.12979,-0.0123,-0.02115
0.24512,0.96122,-0.1264,-0.21217,-0.05704,0.01665
0.2514,0.95335,-0.1671,-0.27267,-0.00263,0.13433
0.24921,0.94715,-0.20197,-0.20478,-0.24633,0.12501
0.24442,0.94121,-0.23318,-0.1606,-0.23048,0.13936
0.24241,0.93397,-0.26256,-0.14666,-0.40159,0.09572
0.24388,0.92571,-0.2891,-0.1471,-0.38294,0.11753
0.2449,0.91692,-0.31509,-0.12251,-0.4162,0.12184
0.24428,0.90802,-0.34033,-0.08747,-0.43465,0.15209
0.24402,0.89843,-0.36509,-0.06425,-0.47725,0.15963
0.24451,0.88769,-0.39016,-0.10876,-0.36626,0.0556
0.24389,0.87648,-0.41509,-0.17008,-0.38244,0.08703
0.24218,0.86696,-0.43558,-0.20116,-0.43149,0.00345
0.24279,0.85922,-0.45033,-0.18626,-0.39212,-0.11834
0.24715,0.85233,-0.46092,-0.10241,-0.29177,-0.18591
0.25395,0.84704,-0.46695,-0.02786,-0.10822,-0.35326
0.26107,0.8446,-0.46742,0.14385,0.12688,-0.4899
0.26615,0.84575,-0.46247,0.38034,0.28532,-0.4411
0.26852,0.85157,-0.45024,0.41824,0.5389,-0.46902
0.27131,0.85623,-0.43962,0.31577,0.86091,-0.60886
0.27319,0.85884,-0.43332,0.25358,0.86206,-0.30277
0.26847,0.86929,-0.41504,-0.04352,0.46729,-0.0735
0.26316,0.88686,-0.37978,-0.194,0.02452,-0.08415
0.25652,0.90361,-0.34306,-0.16382,-0.16835,0.10749
0.24971,0.91734,-0.31005,-0.10614,-0.23857,0.16665
0.24431,0.92857,-0.27941,-0.09799,-0.09193,0.09858
0.24329,0.93681,-0.2514,-0.15721,0.17959,0.09643
0.24647,0.9429,-0.22402,-0.14135,0.16505,0.09084
0.24987,0.94842,-0.19512,-0.0976,0.08473,0.03951
0.25282,0.95291,-0.16747,-0.03512,-0.23932,0.05191
0.25711,0.95581,-0.14253,0.03629,-0.31963,0.08296
0.26189,0.95768,-0.11941,0.05603,-0.2703,0.10566
0.26702,0.95889,-0.09607,-0.04679,-0.21595,0.13812
0.2709,0.95997,-0.07115,-0.12794,-0.22969,0.11424
0.27219,0.96111,-0.04656,-0.16093,-0.2223,0.08539
0.27156,0.96209,-0.02515,-0.15535,-0.21339,0.0521
0.27117,0.96248,-0.00929,-0.12437,-0.20336,0.04124
0.2731,0.96198,0.00036,-0.09877,-0.18853,0.03997
0.27853,0.96041,0.00525,-0.05108,-0.15373,0.04361
0.28607,0.95817,0.00828,-0.01899,-0.23486,0.05997
0.29261,0.95618,0.01018,-0.02553,-0.23286,0.05808
0.2959,0.95516,0.01041,-0.02387,-0.21796,-0.01671
0.29563,0.95525,0.00978,0.15113,-0.17887,-0.19014
0.29224,0.95627,0.01142,0.2224,-0.13506,-0.24888
0.28693,0.95784,0.01459,0.371,0.07048,-0.30365
0.28294,0.95896,0.01827,0.39001,0.40728,-0.37386
0.2804,0.9596,0.02318,0.34419,0.51873,-0.3401
0.27695,0.96038,0.03097,0.20844,0.62735,-0.17648
0.2697,0.96193,0.04402,0.20866,0.55421,0.00364
0.25851,0.96407,0.06112,0.22161,0.52786,-0.01548
0.24336,0.96681,0.0778,-0.02483,0.69115,-0.02569
0.22711,0.96958,0.09125,-0.08102,0.57328,-0.02808
0.21038,0.97272,0.09768,-0.1192,0.39732,-0.07464
0.19517,0.9763,0.09355,-0.06592,0.01061,-0.11216
0.18513,0.97965,0.07747,0.00022,-0.01955,-0.09353
0.18184,0.98199,0.0513,0.02541,-0.08656,0.00673
0.18535,0.98245,0.02094,0.13873,0.01235,-0.09862
0.19538,0.98062,-0.01431,0.06861,0.10973,-0.06379
0.21034,0.97606,-0.0553,-0.09169,0.15579,0.02017
0.22344,0.96966,-0.09913,-0.27528,-0.0511,0.10905
0.22723,0.9639,-0.13877,-0.30636,-0.04987,0.12811
0.22516,0.95888,-0.1728,-0.25703,-0.07072,0.0973
0.22536,0.95258,-0.20447,-0.25783,-0.14954,0.12251
0.22939,0.94461,-0.23471,-0.21544,-0.29846,0.17317
0.2358,0.93578,-0.26213,-0.17172,-0.45131,0.14972
0.23996,0.92714,-0.28779,-0.08276,-0.43165,0.13961
0.24117,0.9183,-0.31396,-0.01684,-0.34321,0.11341
0.24191,0.90817,-0.34162,-0.03671,-0.34685,0.11993
0.24338,0.89635,-0.37058,-0.07365,-0.35385,0.14553
0.2443,0.88401,-0.39855,-0.13785,-0.35766,0.12042
0.2451,0.87319,-0.42125,-0.20487,-0.42527,0.05816
0.24527,0.86479,-0.43815,-0.24256,-0.45003,-0.02621
0.24489,0.85697,-0.45346,-0.22098,-0.30953,-0.12378
0.24785,0.84911,-0.46646,-0.11072,-0.19586,-0.18697
0.25451,0.84332,-0.47332,0.0143,-0.05104,-0.26022
0.26195,0.84267,-0.47042,0.20177,0.05518,-0.42857
0.26666,0.84771,-0.45856,0.33352,0.19043,-0.47444
0.2736,0.85545,-0.43972,0.38111,0.34746,-0.44215
0.28306,0.8599,-0.4248,0.34576,0.84469,-0.69282
0.28783,0.86288,-0.41544,0.37054,0.96657,-0.40431
0.28393,0.87423,-0.39382,-0.0569,0.30011,-0.12336
0.28111,0.89103,-0.35644,-0.12456,0.07167,-0.08836
0.27751,0.90685,-0.3172,-0.14964,-0.11577,-0.01411
0.27182,0.92011,-0.28196,-0.11335,-0.32108,0.18084
0.26626,0.93095,-0.24986,-0.22887,-0.07562,0.12342
0.26373,0.93907,-0.22044,-0.26567,0.04709,0.07227
0.26554,0.94498,-0.19102,-0.20886,0.15536,0.06451
0.2686,0.94962,-0.16147,-0.18817,-0.07355,0.05016
0.2695,0.95363,-0.13402,-0.12976,-0.18605,0.0076
0.26979,0.95645,-0.11145,-0.0565,-0.33464,-0.00238
0.27126,0.95806,-0.09241,0.02734,-0.25861,0.05506
0.27559,0.95847,-0.07335,0.08669,-0.10987,0.10323
0.28152,0.95814,-0.05216,0.02573,-0.10454,0.03327
0.28514,0.95803,-0.0295,-0.04074,-0.14226,0.01515
0.28503,0.95848,-0.00901,-0.0682,-0.12364,0.00056
0.28329,0.95899,0.00915,-0.07875,-0.12087,-0.00111
0.28244,0.95896,0.02508,-0.09187,-0.11342,-0.02789
0.28431,0.95794,0.03882,-0.08466,-0.12265,-0.04488
0.28821,0.95624,0.05037,-0.03268,-0.15816,-0.03778
0.29229,0.95454,0.05846,-0.02352,-0.22949,-0.03507
0.29555,0.95327,0.06269,-0.02136,-0.24652,-0.025
0.29673,0.95274,0.06511,-0.01197,-0.28903,-0.0427
0.2961,0.95281,0.06684,0.04207,-0.23261,-0.04068
0.29427,0.95349,0.06519,0.06661,-0.19022,-0.04818
0.29116,0.95466,0.06201,0.15706,-0.18861,-0.1679
0.28812,0.9555,0.06322,0.19746,-0.14518,-0.23952
0.28448,0.95637,0.06652,0.25405,-0.05216,-0.29379
0.27938,0.95753,0.07127,0.37768,0.23868,-0.34674
0.2736,0.95852,0.07987,0.31384,0.34734,-0.33372
0.26628,0.95943,0.09268,0.18366,0.58023,-0.29452
0.25437,0.96102,0.1083,0.43287,0.71409,-0.01419
0.24295,0.9618,0.12613,0.41801,0.60502,-0.06669
0.23173,0.96185,0.14542,0.32287,0.60051,-0.15847
0.21612,0.96289,0.16163,0.09551,0.46919,-0.03936
0.19841,0.96469,0.17323,-0.18212,0.22445,-0.138
0.18222,0.96701,0.178,-0.24989,0.1472,-0.10085
0.17232,0.96979,0.17262,-0.11652,0.00481,-0.09195
0.16898,0.97245,0.16054,3e-05,-0.10977,-0.04539
0.17356,0.97351,0.14882,0.04442,-0.15625,-0.07039
0.18652,0.97307,0.13543,0.07348,-0.14972,-0.12548
0.20609,0.97183,0.11433,-0.01913,0.02859,-0.21812
0.22785,0.97045,0.07938,-0.21108,0.19437,-0.27684
0.24171,0.96963,0.03734,-0.43948,0.01833,0.17146
0.24272,0.97007,0.00751,-0.40112,-0.14308,0.20315
0.23726,0.97138,-0.01081,-0.24486,-0.07467,0.10493
0.23408,0.97185,-0.0265,-0.16761,0.06109,-0.00563
0.23482,0.9709,-0.04699,-0.17409,0.08002,-0.0108
0.23856,0.96853,-0.07096,-0.20529,-0.08047,0.07751
0.24152,0.96584,-0.09386,-0.23079,-0.15238,0.09352
0.24413,0.96292,-0.11486,-0.19318,-0.17156,0.09482
0.24592,0.95984,-0.13502,-0.13058,-0.30975,0.10082
0.2438,0.95782,-0.1521,-0.0695,-0.44839,0.05173
0.23786,0.95744,-0.16352,-0.02114,-0.46941,-0.01262
0.2304,0.95842,-0.16838,-0.02532,-0.49269,-0.044
0.22301,0.96049,-0.16648,-0.07659,-0.56824,-0.107
0.21615,0.96349,-0.15798,-0.07742,-0.46062,-0.17049
0.2095,0.9675,-0.14164,-0.02197,-0.45976,-0.20791
0.20277,0.9715,-0.12272,0.05908,-0.34927,-0.40459
0.19599,0.97442,-0.10996,0.18527,-0.2017,-0.39587
0.19154,0.97563,-0.10704,0.26152,-0.11773,-0.38579
0.19288,0.97467,-0.11317,0.32,0.16066,-0.35556
0.20371,0.97146,-0.12147,0.18035,0.27797,-0.3353
0.22261,0.96724,-0.12207,0.0824,0.19222,-0.39828
0.24246,0.96308,-0.11701,0.02771,0.0915,-0.53654
0.25175,0.95991,-0.12327,-0.12059,0.31718,-0.38639
0.24574,0.95973,-0.13613,0.01204,0.46155,-0.2647
0.23399,0.96193,-0.14121,-0.3377,0.54584,-0.11895
0.22334,0.96366,-0.14656,-0.49905,0.81762,0.09753
0.21922,0.96422,-0.14908,-0.41392,0.73316,0.10807
0.21869,0.96507,-0.14427,-0.37352,-0.43872,0.2182
0.22166,0.96537,-0.13754,-0.31661,-0.44177,0.25409
0.22374,0.9652,-0.1354,-0.14804,-0.29782,0.332
0.2272,0.96497,-0.1312,0.00696,-0.08736,0.33924
0.23065,0.96556,-0.1204,0.01654,0.08998,0.28963
0.23685,0.96611,-0.10262,-0.09952,0.27589,0.15079
0.24714,0.9655,-0.08205,-0.19597,0.03259,0.03851
0.25678,0.96419,-0.06631,-0.19225,-0.02751,0.03945
0.26424,0.96283,-0.056,-0.16721,-0.11134,0.15918
0.27001,0.96178,-0.04546,-0.08857,-0.17144,0.23958
0.27393,0.96127,-0.03036,0.0233,-0.06616,0.24845
0.27829,0.96044,-0.00992,0.05742,-0.02139,0.10497
0.28561,0.95828,0.01151,-0.00297,-0.07414,0.00818
0.29417,0.95534,0.02801,-0.03484,-0.11162,0.03826
0.29968,0.95322,0.03958,-0.04044,-0.08293,0.03469
0.29886,0.953,0.04965,0.01364,-0.06125,-0.01913
0.29388,0.95404,0.05866,0.06918,-0.10648,-0.10256
0.28517,0.95618,0.06628,0.10143,-0.1328,-0.12338
0.27288,0.95941,0.07123,0.16697,-0.11547,-0.17688
0.25705,0.96351,0.0746,0.17881,-0.17245,-0.24657
0.2391,0.96769,0.08,0.13672,-0.18975,-0.32361
0.22159,0.97119,0.08772,0.08421,-0.07571,-0.24412
0.20665,0.9737,0.09591,0.17534,-0.00577,-0.16868
0.19296,0.97566,0.10416,0.25388,-0.00165,-0.16939
0.17874,0.97726,0.11403,0.20862,0.20476,-0.22737
0.16947,0.97755,0.12521,0.09904,0.34182,-0.02318
0.1697,0.97606,0.13606,0.08976,0.38904,0.04292
0.17924,0.97342,0.14258,0.17056,0.4464,0.26727
0.19418,0.971,0.13949,0.02226,0.38237,0.17489
0.21138,0.96937,0.12501,-0.14289,0.31453,0.09259
0.22818,0.9685,0.09974,-0.42616,0.3175,-0.0458
0.23936,0.96863,0.06678,-0.42452,0.35783,0.02054
0.24305,0.96942,0.03377,-0.37218,0.28645,0.0848
0.24129,0.97045,0.00335,0.1818,-0.01514,-0.11007
0.23193,0.9724,-0.02522,0.10839,0.14652,-0.01001
0.2275,0.9723,-0.05354,0.1744,0.13368,0.01007
0.22623,0.97055,-0.08279,0.07053,0.06292,-0.02994
0.22898,0.96732,-0.1089,-0.03701,-0.02599,-0.08586
0.23371,0.96336,-0.13156,-0.1068,-0.06482,-0.08622
0.23911,0.95877,-0.15358,-0.09374,-0.38391,0.00163
0.2418,0.95466,-0.17365,-0.09044,-0.36454,0.01298
0.24098,0.95176,-0.18994,-0.08961,-0.36164,0.02926
0.23851,0.95015,-0.20081,-0.07112,-0.41362,-0.00518
0.23169,0.95092,-0.2051,-0.07641,-0.57279,-0.04749
0.2204,0.95425,-0.20207,-0.05605,-0.50588,-0.04733
0.20988,0.95886,-0.19112,0.01144,-0.47933,-0.06452
0.20313,0.96338,-0.17501,0.02851,-0.39972,-0.23533
0.19893,0.9666,-0.16154,0.0437,-0.30341,-0.28752
0.19472,0.96848,-0.15532,0.14381,0.03236,-0.27831
0.1962,0.96787,-0.15726,0.13139,0.30224,-0.19064
0.20756,0.96447,-0.16342,0.18565,0.29404,-0.23372
0.22468,0.95985,-0.1679,0.05022,0.41908,-0.40083
0.24036,0.95464,-0.17573,-0.02239,0.37353,-0.11883
0.2503,0.94899,-0.19174,0.01716,0.48282,0.02834
0.25955,0.94281,-0.20912,-0.24561,0.87535,0.16385
0.27078,0.93762,-0.21806,-0.32099,0.7707,0.18354
0.27766,0.93825,-0.20637,-0.57811,-0.18504,0.10381
0.27276,0.94104,-0.20008,-0.26043,-0.14292,0.27737
0.26212,0.94346,-0.20289,-0.11944,-0.08468,0.37108
0.25224,0.94624,-0.20251,0.07828,0.19302,0.49636
0.25062,0.94911,-0.19072,-0.05049,0.16762,0.19911
0.26008,0.95105,-0.16689,-0.13871,0.13704,0.1207
0.27178,0.9518,-0.14212,-0.12919,0.0877,0.11538
0.28443,0.95076,-0.12306,0.06869,-0.07419,0.19237
0.29525,0.94933,-0.10766,0.04969,-0.1018,0.17883
0.30311,0.94838,-0.09327,0.0453,-0.11516,0.16605
0.30869,0.94798,-0.07772,0.06118,-0.11392,0.09192
0.31424,0.94748,-0.0594,0.04622,-0.17462,0.00344
0.32163,0.94584,-0.04388,0.02619,-0.2337,-0.04338
0.33057,0.94302,-0.03779,-0.02834,-0.27623,-0.07704
0.33981,0.93957,-0.04167,0.03611,-0.16688,-0.09211
0.34996,0.93533,-0.05169,0.10292,-0.11029,-0.0539
0.36139,0.93036,-0.06178,0.19113,-0.19768,-0.03736
0.37279,0.92553,-0.06651,0.14254,-0.26059,-0.12871
0.37912,0.92281,-0.06847,0.11774,-0.20425,-0.20851
0.37654,0.9237,-0.07057,0.06392,0.1403,-0.2192
0.36617,0.92792,-0.06985,0.03741,0.38527,-0.16571
0.35001,0.93453,-0.06436,0.03436,0.5538,-0.10778
0.33166,0.94192,-0.05265,0.04572,0.69174,0.05416
0.31254,0.94914,-0.03805,0.21967,0.59366,0.06801
0.29425,0.95548,-0.02155,0.19482,0.72729,-0.12209
0.27731,0.96074,-0.00813,-0.04259,0.80058,0.01855
0.26121,0.96528,-0.00227,-0.25826,0.64623,0.20262
0.24604,0.96925,-0.00408,-0.20968,0.24053,0.20417
0.23034,0.97303,-0.0126,0.03887,-0.05635,0.12046
0.21925,0.97529,-0.02712,0.18376,-0.17849,0.05061
0.2185,0.97464,-0.04822,0.18018,-0.05441,-0.05203
0.22924,0.97003,-0.0805,0.12789,0.04085,-0.01154
0.24734,0.96115,-0.1225,-0.15379,0.10747,0.06546
0.26145,0.9502,-0.16958,-0.22343,0.18035,0.12679
0.26579,0.93927,-0.21707,-0.33637,-0.13259,0.22332
0.25954,0.93115,-0.2561,-0.1327,-0.08322,0.25144
0.2537,0.92466,-0.28398,-0.04976,0.02949,0.2234
0.25794,0.91636,-0.30618,-0.05636,-0.12197,0.13417
0.26452,0.90671,-0.32849,-0.03788,-0.2076,0.09768
0.26959,0.89632,-0.35202,-0.01228,-0.28002,0.08982
0.27098,0.88546,-0.37753,0.02634,-0.43249,0.15654
0.26877,0.87418,-0.40444,0.00268,-0.56636,0.18897
0.26615,0.86167,-0.43206,-0.06039,-0.4951,0.18955
0.26362,0.84872,-0.45844,-0.30081,-0.51527,0.14703
0.26011,0.83851,-0.47879,-0.3694,-0.55723,0.13764
0.25703,0.83251,-0.49077,-0.38331,-0.51718,0.01366
0.25808,0.8286,-0.49681,-0.08849,-0.22555,-0.17671
0.26359,0.82514,-0.49966,0.19073,0.07845,-0.3538
0.27093,0.82247,-0.50013,0.39815,0.45006,-0.53598
0.27766,0.82212,-0.49701,0.57703,0.57233,-0.35497
0.28431,0.82525,-0.48798,0.56111,0.72974,-0.41848
0.29199,0.82806,-0.47859,0.33534,1.06386,-0.50736
0.29648,0.83154,-0.46971,0.17915,0.67571,-0.11037
0.29448,0.84672,-0.4431,-0.07516,-0.02218,0.0186
0.29243,0.86702,-0.40343,-0.26388,-0.33461,0.28571
0.28604,0.88443,-0.36874,-0.35215,-0.42361,0.36181
0.27582,0.89833,-0.34194,-0.39609,-0.14094,0.31382
0.26891,0.90799,-0.32131,-0.32274,0.28978,0.26591
0.26993,0.91465,-0.3009,-0.23938,0.41036,0.22731
0.27652,0.92137,-0.27315,-0.19241,0.24643,0.17418
0.28088,0.9285,-0.24288,-0.1147,0.06042,0.12586
0.28276,0.93437,-0.21679,0.06314,-0.33575,0.15756
0.28471,0.9385,-0.1953,0.12457,-0.30114,0.22077
0.28719,0.94168,-0.17536,0.09989,-0.26431,0.21075
0.29062,0.9445,-0.15314,-0.08008,-0.25271,0.20759
0.29202,0.94742,-0.1308,-0.15748,-0.23417,0.16364
0.28971,0.95072,-0.1104,-0.14356,-0.2454,0.12706
0.28588,0.9536,-0.0944,-0.11133,-0.22689,0.11312
0.28401,0.95505,-0.08491,-0.06857,-0.19525,0.09576
0.28648,0.95461,-0.08146,-0.04597,-0.19367,0.09996
0.29298,0.9526,-0.08188,-0.02491,-0.28003,0.16205
0.3009,0.95,-0.08332,-0.03366,-0.32188,0.1492
0.30688,0.94823,-0.08174,-0.0235,-0.31445,0.084
0.30811,0.94827,-0.07646,0.22233,0.08144,-0.34391
0.30294,0.95027,-0.07222,0.49563,0.46679,-0.29134
0.29398,0.95322,-0.07025,0.50459,0.46383,-0.2933
0.28756,0.95547,-0.06617,0.50891,0.64637,-0.22744
0.2843,0.95714,-0.05522,0.19269,0.45541,-0.08176
0.28036,0.95912,-0.03845,0.10565,0.42435,0.02706
0.27154,0.96223,-0.01932,0.06362,0.49541,0.09277
0.25677,0.96646,-0.00347,-0.10566,0.65651,0.11771
0.24019,0.9707,0.00633,-0.15122,0.43974,0.053
0.22612,0.97405,0.00934,-0.09395,0.09495,-0.03963
0.21377,0.97688,-0.00046,-0.00914,0.05097,0.00435
0.20763,0.97786,-0.0261,-0.02951,0.01457,0.0907
0.20593,0.97688,-0.05744,0.11086,-0.02978,0.06453
0.20954,0.97357,-0.09085,0.1065,0.13982,0.03032
0.21979,0.96727,-0.12681,0.00619,0.0996,0.02856
0.22987,0.959,-0.16576,-0.18975,0.00727,0.15405
0.23378,0.95049,-0.20472,-0.1677,0.00065,0.1983
0.23452,0.9425,-0.23811,-0.12937,0.00432,0.19813
0.23671,0.9341,-0.26727,-0.14503,-0.02479,0.1271
0.24169,0.92384,-0.29681,-0.19437,-0.14615,0.23733
0.24613,0.91246,-0.32686,-0.21152,-0.41102,0.26884
0.24796,0.9021,-0.35317,-0.13744,-0.44104,0.2304
0.24743,0.89192,-0.37848,-0.09699,-0.30447,0.21669
0.24698,0.88063,-0.40434,-0.12976,-0.29588,0.24286
0.24976,0.86779,-0.42961,-0.12852,-0.35764,0.25622
0.25393,0.85403,-0.45403,-0.14187,-0.42166,0.25222
0.25585,0.84066,-0.47731,-0.20829,-0.43339,0.19233
0.25414,0.8283,-0.49932,-0.22862,-0.40606,0.08401
0.25268,0.81696,-0.51839,-0.16055,-0.24559,-0.0355
0.25504,0.80607,-0.53405,-0.05256,-0.1021,-0.10313
0.26144,0.79661,-0.54503,0.19188,-0.01681,-0.2357
0.26858,0.79252,-0.54752,0.27101,0.27723,-0.46059
0.27138,0.79443,-0.54336,0.43074,0.35019,-0.4096
0.27186,0.80145,-0.53269,0.39652,0.39351,-0.34507
0.27485,0.81246,-0.51416,0.26692,0.67106,-0.42464
0.27835,0.82032,-0.4996,0.29921,1.10948,-0.43424
0.27524,0.82828,-0.48804,0.12146,0.60644,-0.03475
0.26953,0.84532,-0.46128,-0.10674,-0.2428,0.22306
0.26664,0.86631,-0.42237,-0.18573,-0.35871,0.25631
0.26026,0.88489,-0.3863,-0.16613,-0.45917,0.26995
0.25262,0.89909,-0.35751,-0.12923,0.01483,0.18641
0.25017,0.908,-0.33606,-0.11704,0.20419,0.20056
0.25695,0.91346,-0.31554,-0.13877,0.23417,0.22833
0.26671,0.91971,-0.28808,-0.12124,0.04539,0.17182
0.27113,0.92715,-0.25859,-0.03304,-0.23077,0.09991
0.27283,0.93314,-0.23412,0.08479,-0.23801,0.14551
0.27598,0.93689,-0.21461,0.03434,-0.13973,0.23194
0.28171,0.93952,-0.19477,-0.02394,-0.14248,0.23886
0.28882,0.94167,-0.1727,-0.15961,-0.19624,0.20321
0.29309,0.94412,-0.15072,-0.19574,-0.27413,0.15678
0.29249,0.94719,-0.13143,-0.1728,-0.27902,0.14228
0.29016,0.94981,-0.11686,-0.0988,-0.2035,0.13373
0.29119,0.9506,-0.10753,-0.03705,-0.1916,0.14487
0.29761,0.94921,-0.10205,-0.04351,-0.25185,0.13504
0.30527,0.94705,-0.09947,-0.05904,-0.32335,0.1665
0.31194,0.94497,-0.09857,0.01082,-0.24929,0.02112
0.31654,0.94311,-0.10165,0.08126,-0.19426,-0.06034
0.31888,0.94187,-0.10578,0.19247,-0.09942,-0.18472
0.31983,0.94133,-0.10772,0.42872,0.15045,-0.26239
0.32113,0.94059,-0.11028,0.46499,0.31878,-0.30824
0.32272,0.93971,-0.11304,0.32007,0.80954,-0.10467
0.32234,0.94016,-0.11041,0.28361,0.72842,-0.00955
0.31761,0.94294,-0.09984,0.27563,0.63211,0.05465
0.30479,0.94873,-0.08368,0.24913,0.64128,0.08675
0.2845,0.95632,-0.06708,0.19461,0.74285,0.10128
0.26445,0.9628,-0.05543,-0.10529,0.7223,0.13958
0.24857,0.9673,-0.05039,-0.31074,0.12133,0.06444
0.2325,0.97111,-0.05369,-0.21434,-0.00877,-0.00411
0.21977,0.97312,-0.06877,-0.01062,-0.09533,-0.01407
0.21424,0.9721,-0.09548,0.20741,-0.25698,0.03011
0.21742,0.96779,-0.1269,0.25048,-0.13849,-0.04159
0.22966,0.95966,-0.16217,0.06836,0.06132,-0.00892
0.24497,0.94792,-0.20354,-0.13545,-0.01651,0.05859
0.2522,0.93551,-0.24741,-0.22055,0.01681,0.20761
0.24604,0.9257,-0.28731,-0.19561,-0.10004,0.29515
0.23363,0.91877,-0.31824,-0.16234,-0.12739,0.21259
0.22518,0.91207,-0.34266,-0.13216,-0.09118,0.1507
0.22515,0.9025,-0.36715,-0.23212,-0.20023,0.1333
0.22755,0.89067,-0.39361,-0.19755,-0.27725,0.22592
0.22838,0.8787,-0.4192,-0.15459,-0.30942,0.25008
0.22745,0.867,-0.44337,-0.1006,-0.30686,0.26765
0.22501,0.85525,-0.46681,-0.08565,-0.34425,0.2518
0.22123,0.84394,-0.4887,-0.09613,-0.32463,0.17463
0.21841,0.83333,-0.50779,-0.13543,-0.33992,0.1428
0.21577,0.82457,-0.523,-0.12578,-0.41456,0.06472
0.21476,0.81806,-0.53353,-0.04167,-0.36977,-0.08209
0.21656,0.81367,-0.53949,0.02517,-0.15778,-0.31349
0.21929,0.8103,-0.54344,0.14811,0.1458,-0.3934
0.22102,0.80819,-0.54587,0.49999,0.57337,-0.32684
0.22344,0.80997,-0.54223,0.44016,0.6054,-0.30722
0.22755,0.81423,-0.53408,0.23079,0.69094,-0.35775
0.22721,0.82286,-0.52085,0.00956,0.6819,-0.12198
0.22001,0.83897,-0.49772,-0.02141,0.44322,-0.0062
0.2169,0.85915,-0.46348,-0.08737,0.15767,0.1317
0.21562,0.87798,-0.42738,-0.11123,-0.15877,0.32931
0.21419,0.8944,-0.39264,-0.11025,-0.15252,0.28303
0.21447,0.90762,-0.36087,-0.14857,-0.01655,0.18997
0.21856,0.91729,-0.33287,-0.15415,0.16706,0.23424
0.22574,0.92532,-0.30467,-0.13084,0.14574,0.2156
0.23364,0.93279,-0.27441,-0.07377,-0.01376,0.18466
0.24033,0.93941,-0.24445,0.02591,-0.33043,0.13594
0.24549,0.94492,-0.21646,0.05034,-0.35126,0.11536
0.25007,0.9492,-0.19097,0.04059,-0.33571,0.11343
0.25494,0.95249,-0.16664,-0.02856,-0.27742,0.13904
0.25989,0.95489,-0.14362,-0.02507,-0.22359,0.11785
0.26347,0.95671,-0.12358,-0.02979,-0.22651,0.12669
0.26521,0.95819,-0.10739,-0.03264,-0.21356,0.12674
0.26599,0.95915,-0.09631,-0.03326,-0.19037,0.12784
0.26867,0.95911,-0.089,-0.03257,-0.16498,0.08848
0.27466,0.95793,-0.08319,-0.05328,-0.19628,0.05464
0.28037,0.95651,-0.08046,-0.03488,-0.185,0.0488
0.28361,0.95538,-0.08246,0.04813,-0.1141,-0.00669
0.28425,0.95472,-0.08776,0.17726,-0.15611,-0.05189
0.28323,0.95481,-0.09004,0.22008,-0.16819,-0.1336
0.28073,0.95556,-0.08996,0.30983,0.24262,-0.25623
0.27773,0.95643,-0.09003,0.32306,0.45449,-0.16409
0.27494,0.95748,-0.08733,0.29101,0.4914,-0.12929
0.26885,0.96002,-0.07793,0.17332,0.48763,0.02107
0.25718,0.96428,-0.06342,0.21241,0.52495,0.08817
0.23943,0.9697,-0.04851,0.30603,0.61107,0.13152
0.22007,0.97482,-0.03597,0.05632,0.71771,0.17269
0.20665,0.97812,-0.02384,-0.23305,0.49779,0.1365
0.19496,0.98063,-0.01862,-0.36662,0.25484,0.11776
0.18374,0.98261,-0.02652,-0.21236,0.04745,0.08312
0.17585,0.98334,-0.04603,-0.11146,-0.20727,0.10944
0.17201,0.98256,-0.07057,0.09387,-0.31146,-0.01578
0.176,0.97901,-0.10276,0.22408,-0.11376,-0.03458
0.19034,0.97131,-0.14255,0.06204,-0.06869,0.05042
0.20789,0.96004,-0.18736,-0.03612,-0.17186,0.14524
0.21607,0.94901,-0.22952,-0.10379,-0.04615,0.22318
0.21453,0.94033,-0.26409,-0.05001,0.01305,0.18139
0.2107,0.93294,-0.29194,-0.05048,0.04247,0.09883
0.21325,0.92405,-0.31727,-0.17255,-0.03337,0.0492
0.22097,0.91272,-0.34366,-0.19884,-0.16795,0.09113
0.22852,0.90037,-0.37028,-0.14588,-0.21009,0.17369
0.23222,0.88821,-0.39641,-0.05957,-0.20459,0.23006
0.23365,0.87629,-0.42133,-0.05971,-0.2992,0.20795
0.23397,0.86451,-0.44483,-0.08962,-0.28942,0.21152
0.23343,0.85339,-0.46608,-0.12179,-0.28901,0.21351
0.23425,0.8431,-0.48405,-0.21546,-0.36768,0.15961
0.23616,0.83273,-0.50079,-0.21738,-0.35731,0.17634
0.23846,0.82236,-0.51657,-0.17541,-0.32435,0.09688
0.24186,0.81323,-0.5293,-0.0464,-0.11311,-0.10055
0.24754,0.80708,-0.53604,0.01088,-0.02614,-0.16456
0.25426,0.80645,-0.53384,0.22537,0.21058,-0.32621
0.25789,0.81049,-0.52592,0.49601,0.53817,-0.49183
0.25684,0.81796,-0.51476,0.5258,0.52959,-0.46977
0.25535,0.82588,-0.50271,0.30738,0.55581,-0.39209
0.25251,0.83137,-0.49504,0.21863,0.66041,0.08517
0.24418,0.8439,-0.4777,0.19862,0.52656,0.16236
0.23976,0.86395,-0.44283,-0.25822,-0.28383,0.37557
0.23303,0.88537,-0.40226,-0.22354,-0.30305,0.31591
0.22362,0.90344,-0.36576,-0.18505,-0.24786,0.22182
0.21588,0.91494,-0.34098,-0.24487,0.22063,0.23718
0.21514,0.92212,-0.32157,-0.21605,0.26437,0.26657
0.22129,0.92846,-0.29829,-0.22753,0.15831,0.30075
0.22887,0.93548,-0.26924,-0.13245,-0.20754,0.19147
0.23444,0.94223,-0.23924,-0.02274,-0.32646,0.12903
0.23832,0.94751,-0.21311,0.04642,-0.32708,0.12492
0.24237,0.95138,-0.19008,0.10681,-0.1935,0.1661
0.24765,0.95419,-0.16788,0.06789,-0.17073,0.12839
0.25395,0.95586,-0.14774,-0.03398,-0.18218,0.1105
0.25854,0.95695,-0.13186,-0.10621,-0.22557,0.12236
0.26077,0.9579,-0.12009,-0.0829,-0.22941,0.13132
0.26386,0.95803,-0.11205,-0.05646,-0.19103,0.14832
0.27027,0.95699,-0.10547,-0.0942,-0.21353,0.12688
0.27846,0.95516,-0.1006,-0.09085,-0.23792,0.09479
0.28546,0.95336,-0.09806,-0.05124,-0.24144,0.07254
0.28912,0.95224,-0.09824,-0.00715,-0.18368,0.0261
0.2899,0.95178,-0.10029,0.08199,-0.17665,-0.06148
0.28882,0.95198,-0.10151,0.27104,-0.107,-0.1853
0.28517,0.95307,-0.1016,0.43256,0.30283,-0.24948
0.28124,0.95429,-0.10114,0.43408,0.5252,-0.20876
0.27996,0.95493,-0.09858,0.43536,0.52456,-0.21133
0.27887,0.95595,-0.09153,0.24348,0.55905,-0.11463
0.27525,0.95819,-0.07805,0.12798,0.50431,0.1175
0.26696,0.9618,-0.0606,0.13557,0.56396,0.12317
0.25314,0.96649,-0.04257,0.03931,0.82691,0.13899
0.23703,0.9711,-0.02792,-0.13709,0.6601,0.05867
0.22196,0.97487,-0.0189,-0.19797,0.51536,0.01025
0.2096,0.97758,-0.02014,-0.22826,0.08228,-0.03431
0.20185,0.97876,-0.03558,-0.04159,-0.11844,0.03834
0.19845,0.97809,-0.06286,0.16567,-0.26311,0.02572
0.20129,0.97487,-0.09542,0.28821,-0.08359,-0.05327
0.21432,0.96752,-0.13401,0.05962,0.23853,-0.00402
0.23432,0.95542,-0.17963,-0.10525,0.1094,0.09508
0.24944,0.94159,-0.22623,-0.29075,0.07086,0.1513
0.25351,0.92931,-0.26853,-0.29553,-0.04319,0.15023
0.24948,0.91876,-0.306,-0.28893,-0.09045,0.18894
0.24414,0.90905,-0.33766,-0.2796,-0.08021,0.14179
0.24451,0.89807,-0.36562,-0.16475,-0.16303,0.14379
0.25051,0.88486,-0.39276,-0.1563,-0.24213,0.1802
0.25511,0.87087,-0.42013,-0.09162,-0.24582,0.17529
0.25563,0.85658,-0.44825,-0.04167,-0.21444,0.15973
0.25371,0.84245,-0.47529,-0.0051,-0.24242,0.16761
0.25189,0.82895,-0.49939,0.03434,-0.31432,0.21321
0.24985,0.81531,-0.52234,-0.03038,-0.38153,0.23275
0.24335,0.80122,-0.54665,-0.17459,-0.44919,0.28316
0.23177,0.78848,-0.56972,-0.20223,-0.44462,0.31378
0.22187,0.77751,-0.58843,-0.23003,-0.43371,0.30772
0.21688,0.76811,-0.60247,-0.23416,-0.36358,0.06382
0.21877,0.7598,-0.61224,-0.09454,-0.23049,-0.12555
0.22618,0.75354,-0.61727,0.07235,0.02337,-0.31333
0.23736,0.75072,-0.6165,0.27669,0.3197,-0.4389
0.24316,0.75477,-0.60925,0.43335,0.27251,-0.50609
0.2404,0.76751,-0.59425,0.41527,0.37336,-0.40077
0.23515,0.78287,-0.57603,0.22067,0.86698,-0.6562
0.23016,0.79532,-0.56079,0.21477,0.79925,-0.27106
0.22829,0.81345,-0.53495,-0.12572,0.29916,-0.12473
0.22286,0.83872,-0.49687,-0.21597,-0.02428,0.07883
0.21793,0.86253,-0.45666,-0.20151,-0.15144,0.26782
0.21396,0.88311,-0.41753,-0.23329,-0.1663,0.32584
0.21547,0.89922,-0.38076,-0.17064,-0.06094,0.36502
0.22276,0.91112,-0.34674,-0.20855,0.0593,0.23242
0.2322,0.92055,-0.31411,-0.2331,0.03379,0.16016
0.24235,0.92849,-0.28137,-0.18759,-0.05271,0.14332
0.25083,0.93429,-0.25335,-0.11585,-0.15304,0.12545
0.2588,0.93843,-0.22885,-0.02148,-0.18254,0.19467
0.26655,0.94169,-0.20535,0.00091,-0.15479,0.1913
0.27163,0.94512,-0.18154,0.03814,-0.10015,0.16351
0.27347,0.94896,-0.15713,0.0294,-0.07559,0.12527
0.27248,0.95294,-0.13285,0.00515,-0.06775,0.10789
0.27035,0.95646,-0.10995,-0.04201,-0.07916,0.11107
0.26972,0.95881,-0.08908,-0.05442,-0.11898,0.11199
0.27153,0.95981,-0.07091,-0.0177,-0.09448,0.08284
0.27603,0.95962,-0.05412,-0.03432,-0.13848,0.05432
0.28459,0.95787,-0.0387,-0.10859,-0.22259,0.02202
0.29367,0.95552,-0.02711,-0.12904,-0.2372,0.00455
0.29991,0.95377,-0.01929,-0.11029,-0.25189,0.02475
0.30084,0.9536,-0.01188,-0.05816,-0.16811,-0.01576
0.29666,0.95497,-0.00393,-0.04205,-0.15927,-0.05721
0.29133,0.95661,0.00305,-0.04068,-0.124,-0.0978
0.28644,0.95805,0.00896,-0.0297,-0.07497,-0.1422
0.28155,0.95943,0.01443,0.00501,-0.03484,-0.16768
0.27469,0.96134,0.01929,0.05754,0.01991,-0.19687
0.26728,0.96324,0.02689,0.04583,-0.02325,-0.14434
0.25946,0.96512,0.03483,0.11196,-0.01128,-0.08412
0.25133,0.9669,0.04396,0.22077,0.02445,-0.07491
0.24392,0.96816,0.05619,0.04423,0.16177,-0.1308
0.23723,0.96886,0.07093,-0.02364,0.29384,-0.13981
0.2335,0.96864,0.08493,-0.0094,0.39135,0.12219
0.23487,0.96719,0.09686,0.02845,0.37078,0.13819
0.24246,0.96459,0.10378,0.04001,0.34853,0.1782
0.25416,0.96168,0.10279,-0.07316,0.26244,0.17621
0.26942,0.95867,0.0914,-0.16981,0.20978,0.15211
0.28738,0.95527,0.0697,-0.32811,0.15032,0.04183
0.30269,0.95229,0.03908,-0.45043,0.31557,0.03304
0.31121,0.95032,0.00633,-0.34597,0.3055,0.12552
0.31378,0.94923,-0.0222,-0.23948,0.2612,0.15583
0.31226,0.94887,-0.04626,-0.02426,0.15138,0.05151
0.30863,0.94862,-0.06974,-0.01951,0.08797,0.03156
0.30577,0.94742,-0.09426,-0.03475,-0.03208,-0.029
0.30738,0.94412,-0.11896,-0.1277,-0.08946,-0.04237
0.31262,0.93915,-0.14233,-0.17047,-0.04822,-0.0134
0.31923,0.93356,-0.16295,-0.17699,-0.17224,0.01814
0.32427,0.92861,-0.18036,-0.18432,-0.35431,0.04496
0.32638,0.92496,-0.19474,-0.17132,-0.38088,0.03704
0.32575,0.92309,-0.20442,-0.12346,-0.44967,0.00323
0.32097,0.92408,-0.20747,-0.12248,-0.54084,-0.041
0.31233,0.92796,-0.2033,-0.12213,-0.46059,-0.0582
0.30449,0.93309,-0.19139,-0.06631,-0.40008,-0.10356
0.29939,0.93819,-0.17365,-0.04428,-0.31727,-0.27012
0.2959,0.94165,-0.16039,0.04258,-0.15468,-0.38206
0.29065,0.94328,-0.16044,0.28538,0.23017,-0.31389
0.29071,0.94211,-0.16708,0.1225,0.33698,-0.2881
0.30073,0.93819,-0.17132,0.01068,0.22497,-0.32015
0.31655,0.93275,-0.17251,0.01713,0.24666,-0.37161
0.33076,0.92593,-0.18236,-0.06448,0.39976,-0.32053
0.33748,0.91945,-0.20178,-0.38244,0.60382,-0.03188
0.33734,0.91691,-0.21323,-0.6069,0.63817,-0.02708
0.33531,0.916,-0.22022,-0.5733,0.67617,0.19318
0.33276,0.91627,-0.22295,-0.38408,0.05681,0.26705
0.32834,0.91913,-0.21768,-0.36596,-0.05587,0.26461
0.3229,0.92221,-0.21274,-0.28514,-0.09093,0.34512
0.32149,0.92396,-0.20724,-0.10397,0.01415,0.39803
0.32518,0.92513,-0.19594,-0.12353,0.09706,0.33742
0.33184,0.92653,-0.17728,-0.17115,0.19059,0.2216
0.34026,0.92778,-0.1531,-0.22859,0.0663,0.10781
0.34852,0.92816,-0.13055,-0.22996,0.02922,0.10293
0.35585,0.92773,-0.11259,-0.20912,-0.07786,0.13319
0.36259,0.92687,-0.09714,-0.14299,-0.13968,0.20019
0.3685,0.9261,-0.08092,-0.11937,-0.13908,0.18935
0.37288,0.92588,-0.06074,-0.0571,-0.10643,0.13004
0.37626,0.92575,-0.03751,-0.08077,-0.09575,-0.04202
0.37899,0.92524,-0.01706,-0.11213,-0.1097,-0.06737
0.37949,0.92519,-0.00259,-0.13029,-0.07643,-0.02348
0.3775,0.92596,0.00957,-0.12968,-0.08863,-0.04532
0.37263,0.92774,0.02112,-0.0973,-0.07047,-0.09775
0.36539,0.93033,0.0311,-0.03795,-0.05481,-0.17319
0.35669,0.93341,0.03878,0.00832,-0.0734,-0.19044
0.34653,0.93696,0.04489,0.05646,-0.11818,-0.17668
0.3343,0.94107,0.05117,0.1183,-0.12755,-0.19723
0.32373,0.94428,0.05942,0.1387,-0.02303,-0.15172
0.31733,0.94575,0.06966,0.15648,0.00426,-0.12555
0.31209,0.94656,0.08131,0.05267,-0.01507,-0.13155
0.30686,0.94706,0.09433,-0.0803,0.19628,-0.17387
0.30577,0.9461,0.10677,-0.09027,0.29007,-0.09176
0.30951,0.94363,0.11736,0.00329,0.42768,0.09026
0.3192,0.93997,0.12064,0.0443,0.52301,0.16288
0.33453,0.93565,0.11246,-0.04083,0.55491,0.17851
0.35106,0.93168,0.0934,-0.39596,0.3539,0.05465
0.36397,0.92881,0.06953,-0.54205,0.36948,-0.05752
0.36936,0.92815,0.04593,-0.55334,0.39224,-0.01235
0.36458,0.93083,0.02506,-0.32259,0.16152,-0.07375
0.35189,0.93602,0.00533,-0.01077,0.15893,0.0126
0.33918,0.94059,-0.0155,0.05895,0.17065,-0.06107
0.33039,0.94309,-0.03779,-0.04389,0.08008,-0.09186
0.32864,0.9427,-0.05744,-0.1382,0.04373,-0.14103
0.33157,0.94046,-0.07482,-0.13035,0.04528,-0.09959
0.33681,0.93718,-0.09076,-0.11864,-0.34166,-0.07729
0.33826,0.93515,-0.10519,-0.14465,-0.32427,-0.04187
0.33667,0.93428,-0.11736,-0.16622,-0.31299,-0.02967
0.3345,0.93402,-0.12534,-0.23819,-0.36624,-0.05113
0.33013,0.93521,-0.12802,-0.23536,-0.4662,-0.09166
0.32171,0.93852,-0.12522,-0.17989,-0.39433,-0.13169
0.31125,0.94318,-0.11634,-0.07841,-0.36872,-0.16747
0.30117,0.94803,-0.1026,0.03341,-0.27634,-0.33525
0.29228,0.95183,-0.09261,0.04121,-0.22811,-0.39429
0.28257,0.95465,-0.09379,0.14507,0.08156,-0.34951
0.27911,0.95469,-0.1032,0.10666,0.18782,-0.2398
0.28787,0.9512,-0.11112,0.05902,0.10471,-0.25781
0.30773,0.94508,-0.11009,-0.02513,0.01909,-0.31696
0.33331,0.93693,-0.1052,-0.20726,0.14355,-0.34017
0.3532,0.92974,-0.10405,-0.19448,0.23118,-0.19074
0.36352,0.92525,-0.10839,-0.46144,0.74587,0.05174
0.36493,0.92273,-0.12408,-0.37697,0.47264,0.41392
0.35603,0.92622,-0.12393,-0.34062,0.09905,0.24121
0.34628,0.93085,-0.11666,-0.27185,-0.08536,0.08088
0.34081,0.93305,-0.11516,-0.13128,0.03709,0.22759
0.34165,0.93299,-0.11313,-0.12237,0.32159,0.22006
0.34561,0.93259,-0.10402,-0.19314,0.34741,0.12955
0.3515,0.9323,-0.08524,-0.15375,0.23366,0.07568
0.35794,0.93168,-0.06202,-0.08402,0.12754,0.04812
0.36364,0.93069,-0.03972,-0.04088,-0.02757,0.0432
0.36773,0.92971,-0.02008,-0.0821,-0.08076,0.03403
0.36997,0.92904,-0.00266,-0.0369,-0.15213,0.04235
0.37074,0.92861,0.01506,0.02255,-0.12478,0.01937
0.37136,0.92787,0.03386,-0.01154,-0.13082,-0.04979
0.37405,0.92606,0.04996,-0.11328,-0.16768,-0.11738
0.37809,0.92401,0.05693,-0.1418,-0.23716,-0.05202
0.38171,0.9225,0.05729,-0.12974,-0.25627,-0.05855
0.38538,0.92095,0.0576,-0.0805,-0.27227,-0.09796
0.38754,0.92001,0.05824,0.1307,-0.16988,-0.35843
0.38587,0.92081,0.05663,0.25293,-0.01667,-0.41378
0.38054,0.92309,0.05556,0.3102,0.05588,-0.42881
0.37382,0.92576,0.05674,0.23079,0.45075,-0.32035
0.36742,0.92795,0.06241,0.0926,0.49009,-0.1644
0.35807,0.93067,0.07503,0.09588,0.51945,-0.17114
0.34362,0.93479,0.08995,0.17885,0.79715,-0.19676
0.32579,0.93972,0.10381,0.13454,0.80935,-0.11957
0.30733,0.94483,0.11327,0.10954,0.80509,-0.05364
0.28948,0.95002,0.11683,-0.08259,0.45785,0.09791
0.27301,0.95522,0.11407,-0.17294,0.08934,0.02511
0.25829,0.96066,0.10199,-0.15822,0.08389,0.03719
0.24746,0.96562,0.07958,0.05044,-0.15012,-0.01701
0.24223,0.9688,0.05227,0.16107,-0.11715,-0.12624
0.24532,0.96925,0.01908,0.10552,0.02585,-0.15403
0.25801,0.9659,-0.02149,-0.12274,0.18129,-0.03977
0.27565,0.95914,-0.06369,-0.23807,0.1473,0.04532
0.28632,0.95261,-0.10266,-0.3476,-0.21343,0.00458
0.28519,0.9482,-0.13989,-0.2652,-0.18977,0.24011
0.27532,0.94651,-0.16827,-0.04909,-0.29767,0.17866
0.26947,0.94385,-0.19109,-0.07376,-0.19324,-0.00588
0.26968,0.9376,-0.21948,-0.14494,-0.07585,0.01333
0.27477,0.9279,-0.252,-0.24534,-0.38549,0.04404
0.27846,0.91617,-0.28824,-0.19516,-0.43148,0.08588
0.27945,0.90243,-0.3279,-0.26238,-0.31634,0.18254
0.27741,0.88812,-0.36643,-0.25913,-0.41472,0.23695
0.2744,0.87648,-0.39558,-0.25959,-0.4248,0.2163
0.27523,0.86861,-0.41203,-0.15326,-0.61264,0.0491
0.27787,0.86229,-0.42337,-0.09971,-0.49791,-0.20158
0.28252,0.85612,-0.43271,-0.0264,-0.4053,-0.19475
0.28685,0.85109,-0.43973,0.08396,-0.11288,-0.3419
0.28924,0.84924,-0.44174,0.34434,0.16167,-0.45752
0.29267,0.85091,-0.43622,0.35638,0.47549,-0.52755
0.29928,0.85217,-0.42922,0.17853,0.81195,-0.62041
0.31003,0.84759,-0.43065,0.19151,0.96929,-0.54594
0.31279,0.84873,-0.42639,0.18512,0.9414,-0.25504
0.31035,0.86191,-0.40097,0.047,0.1925,-0.17737
0.30978,0.87915,-0.36211,-0.03761,-0.10983,0.07657
0.30583,0.89507,-0.3245,-0.05887,-0.21584,0.16422
0.29792,0.90976,-0.28908,-0.22249,-0.1436,0.21894
0.28877,0.92167,-0.25909,-0.22343,-0.01538,0.16958
0.28114,0.93102,-0.23271,-0.21236,0.03338,0.14806
0.27379,0.93992,-0.20392,-0.19929,0.02588,0.06972
0.26762,0.9478,-0.17334,-0.09797,-0.04262,0.01358
0.26499,0.95338,-0.14437,-0.03183,-0.11943,0.0107
0.26613,0.95684,-0.11671,0.08519,-0.22416,0.00498
0.26868,0.95894,-0.09077,0.09222,-0.26662,0.00131
0.27133,0.96016,-0.06688,0.05169,-0.3242,0.02031
0.27433,0.96065,-0.04331,-0.05642,-0.38891,0.04387
0.27684,0.96067,-0.02127,-0.07468,-0.4089,0.03186
0.27761,0.96069,-0.00178,-0.11422,-0.33068,0.00506
0.27792,0.9605,0.01381,-0.18711,-0.2047,-0.05507
0.28088,0.95945,0.02371,-0.14367,-0.22184,-0.05066
0.28748,0.95739,0.02746,-0.11465,-0.28666,-0.00472
0.29493,0.95512,0.02742,0.0328,-0.32223,-0.00489
0.3,0.95359,0.02585,0.13146,-0.19948,-0.12545
0.3016,0.95313,0.02408,0.25903,-0.06386,-0.23132
0.30019,0.9536,0.02295,0.32168,0.08769,-0.27747
0.29768,0.95434,0.02477,0.39916,0.49842,-0.38055
0.29527,0.95503,0.02691,0.35441,0.71314,-0.20688
0.29104,0.95609,0.03428,0.21625,0.6528,-0.08171
0.2817,0.95819,0.05013,0.18398,0.56879,0.00267
0.26599,0.96139,0.07047,0.24812,0.49076,0.01803
0.24456,0.96548,0.08956,0.1569,0.68536,0.06479
0.22298,0.96959,0.10083,-0.17919,0.81186,0.00093
0.20861,0.97265,0.10215,-0.26939,0.40077,-0.02347
0.19298,0.97657,0.09518,-0.19591,0.09107,-0.05786
0.18054,0.98049,0.0777,-0.10585,-0.09206,-0.02494
0.1743,0.98328,0.05264,0.06474,-0.23689,-0.0627
0.17655,0.98398,0.02466,0.25816,-0.19408,-0.1841
0.19241,0.98125,-0.01089,0.2125,-0.00049,-0.15435
0.21895,0.97423,-0.05415,-0.02469,0.06036,-0.06508
0.24346,0.96475,-0.09992,-0.21038,0.02741,0.03931
0.25376,0.95655,-0.14357,-0.2221,-0.2737,0.17949
0.2501,0.95125,-0.18045,-0.17753,-0.27158,0.17572
0.24304,0.94677,-0.21107,-0.13919,-0.13224,0.06242
0.24421,0.93956,-0.23995,-0.28303,-0.28936,0.04067
0.24754,0.93073,-0.26919,-0.31283,-0.3115,0.08027
0.25037,0.92206,-0.29514,-0.31897,-0.34092,0.09603
0.25414,0.91365,-0.31727,-0.17503,-0.51414,0.07303
0.2612,0.90445,-0.33724,-0.17934,-0.51438,0.02927
0.2684,0.89467,-0.35711,-0.12533,-0.31424,0.01901
0.27177,0.8856,-0.37662,-0.00419,-0.2937,-0.00847
0.26915,0.88014,-0.39104,0.01573,-0.30265,-0.01291
0.26522,0.877,-0.40065,0.07817,-0.33316,-0.12673
0.26592,0.87406,-0.40658,0.03703,-0.18764,-0.32354
0.27021,0.8708,-0.41071,0.02793,-0.09355,-0.38451
0.27297,0.86955,-0.41155,0.42755,0.34048,-0.49562
0.27323,0.87198,-0.40619,0.51566,0.37692,-0.4446
0.27712,0.87649,-0.39367,0.50136,0.36084,-0.42512
0.2812,0.8802,-0.38231,0.05802,0.92917,-0.35989
0.27678,0.88302,-0.37902,0.08198,1.15276,-0.18237
0.26781,0.89372,-0.35991,0.00937,0.61569,0.13391
0.26505,0.90992,-0.31904,-0.18747,-0.41039,0.15722
0.26294,0.92367,-0.27874,-0.15801,-0.42557,0.15152
0.25659,0.93424,-0.2477,-0.1633,-0.26694,0.08477
0.25167,0.94121,-0.22536,-0.1806,0.00192,0.13498
0.2506,0.94575,-0.20674,-0.08364,0.26785,0.20755
0.2514,0.95069,-0.18162,-0.06181,0.16461,0.11128
0.25027,0.95628,-0.15129,-0.0831,-0.16828,0.05113
0.24871,0.9607,-0.12323,-0.03638,-0.28431,-0.00887
0.24914,0.96321,-0.10074,-0.06047,-0.25148,0.07246
0.25375,0.96396,-0.07982,-0.08795,-0.21062,0.10136
0.26071,0.96367,-0.05805,-0.14224,-0.26803,0.09454
0.26475,0.96359,-0.03733,-0.10734,-0.28306,0.07613
0.26316,0.96455,-0.01968,-0.01876,-0.22422,0.04357
0.25894,0.96587,-0.0062,-0.00495,-0.14547,0.02337
0.25876,0.96594,0.00144,-0.03279,-0.128,0.0445
0.26481,0.96429,0.00433,-0.07261,-0.25562,0.0501
0.27175,0.96235,0.00435,-0.06339,-0.29658,0.04757
0.27607,0.96113,0.0035,-0.00699,-0.29619,-0.02873
0.27715,0.96082,0.00208,0.11134,-0.25893,-0.15186
0.27624,0.96108,0.00376,0.20536,-0.13376,-0.28624
0.27482,0.96148,0.00518,0.31513,0.15902,-0.33853
0.27421,0.96165,0.00476,0.35086,0.39795,-0.33081
0.27427,0.96163,0.00622,0.25108,0.60072,-0.29768
0.27191,0.96226,0.01064,0.18334,0.64597,-0.19668
0.26581,0.96382,0.01959,0.18251,0.44673,-0.0164
0.25567,0.9662,0.03288,0.23865,0.49426,0.04622
0.24158,0.96921,0.04758,0.25098,0.59372,0.05603
0.22617,0.97229,0.05914,0.02827,0.62525,0.04682
0.21346,0.97476,0.06535,-0.29065,0.25875,-0.00297
0.20157,0.97752,0.06182,-0.31293,0.16054,-0.02602
0.19237,0.98015,0.04779,-0.04511,-0.09861,-0.02891
0.18573,0.98227,0.02515,0.0218,-0.21833,-0.03057
0.1835,0.98301,-0.00156,0.16062,-0.22358,-0.11437
0.19032,0.98115,-0.03341,0.26493,-0.00634,-0.0841
0.20621,0.97606,-0.06915,-0.01848,0.11066,-0.09985
0.22346,0.96862,-0.1088,-0.13467,-0.05182,-0.04591
0.23035,0.9617,-0.14855,-0.17662,-0.0874,0.03321
0.22797,0.95607,-0.18428,-0.1055,-0.13992,0.08621
0.22433,0.95057,-0.21466,-0.0345,-0.18354,0.0831
0.22489,0.94393,-0.24168,-0.03541,-0.13914,0.03431
0.2288,0.93526,-0.27006,-0.17128,-0.21956,0.00405
0.23201,0.92565,-0.29888,-0.19067,-0.2035,0.09085
0.23353,0.91611,-0.32589,-0.18778,-0.23654,0.10535
0.23294,0.90679,-0.35138,-0.11449,-0.31389,0.12009
0.23319,0.89706,-0.37538,-0.11316,-0.32093,0.13076
0.23401,0.88719,-0.39766,-0.19932,-0.37002,0.06844
0.23539,0.87714,-0.41858,-0.22619,-0.42169,0.05732
0.23489,0.86821,-0.43706,-0.23547,-0.44327,0.04577
0.2353,0.86112,-0.45067,-0.05928,-0.40001,-0.11478
0.23905,0.85652,-0.45741,-0.00887,-0.29727,-0.16984
0.24488,0.85499,-0.45719,0.03034,-0.16334,-0.24796
0.25013,0.85679,-0.45093,0.33393,0.28932,-0.38548
0.2548,0.86227,-0.43768,0.43845,0.33164,-0.39267
0.26175,0.86771,-0.42257,0.35622,0.58228,-0.44028
0.27063,0.86917,-0.41388,0.12725,1.01271,-0.21093
0.27278,0.87418,-0.40175,0.06321,0.74491,-0.08643
0.26982,0.88801,-0.37232,0.03056,0.34165,-0.09391
0.26685,0.90362,-0.33505,-0.09189,-0.23188,0.11261
0.26044,0.91765,-0.30013,-0.08718,-0.29288,0.14153
0.25311,0.92906,-0.26977,-0.16261,-0.17642,0.10907
0.24938,0.93702,-0.24453,-0.24935,0.00857,0.10038
0.2499,0.94277,-0.22075,-0.22686,0.09469,0.12073
0.252,0.94802,-0.19429,-0.12947,0.04035,0.05705
0.25364,0.95276,-0.16705,-0.04715,-0.13727,0.01692
0.25542,0.95615,-0.14331,0.03315,-0.28937,0.01419
0.25842,0.95805,-0.12385,0.06789,-0.26602,0.06752
0.26344,0.95875,-0.10671,0.04187,-0.18427,0.07748
0.27044,0.95872,-0.08779,-0.02378,-0.19569,0.06558
0.27631,0.95864,-0.06824,-0.10099,-0.20202,0.0542
0.2793,0.95886,-0.0506,-0.10718,-0.19441,0.05754
0.28066,0.95915,-0.03548,-0.09494,-0.18179,0.03975
0.2826,0.95893,-0.02414,-0.09058,-0.15186,0.0218
0.28659,0.95791,-0.01651,-0.08516,-0.18178,0.02206
0.2925,0.9562,-0.01105,-0.08847,-0.21183,0.04441
0.29877,0.95428,-0.00852,-0.06865,-0.20184,0.07009
0.30404,0.95261,-0.00956,-0.0109,-0.22713,0.02666
0.30746,0.95148,-0.01168,0.1142,-0.21171,-0.14158
0.30823,0.95122,-0.01265,0.1761,-0.16178,-0.21738
0.30631,0.95183,-0.01343,0.27297,-0.05468,-0.28416
0.30374,0.95267,-0.01263,0.34358,0.29617,-0.42081
0.30091,0.95358,-0.01119,0.36065,0.46051,-0.40588
0.29701,0.95483,-0.0084,0.36461,0.67308,-0.30911
0.29215,0.95637,0.00146,0.27887,0.59788,-0.04545
0.28685,0.95782,0.01697,0.27812,0.59041,-0.03036
0.27761,0.96004,0.03537,0.18226,0.54701,0.00805
0.26191,0.96381,0.0496,-0.13361,0.81782,0.01207
0.24495,0.96777,0.05835,-0.23296,0.72047,-0.01964
0.22827,0.97162,0.06197,-0.21315,0.20674,-0.05523
0.21262,0.9756,0.05475,0.04997,-0.13334,-0.07786
0.20315,0.97855,0.03408,0.13794,-0.18872,-0.00544
0.2006,0.97964,0.00709,0.11059,-0.27893,0.0179
0.20551,0.97837,-0.02362,0.18425,-0.02793,-0.09976
0.2178,0.97407,-0.06119,-0.03656,0.11852,-0.03439
0.23059,0.96756,-0.10315,-0.19498,-0.001,-0.02966
0.23689,0.96057,-0.14556,-0.23154,0.09151,0.03616
0.23572,0.95393,-0.1856,-0.21318,0.00274,0.1344
0.23294,0.94727,-0.22002,-0.17499,-0.20891,0.11873
0.23273,0.94019,-0.24872,-0.14502,-0.17187,0.05257
0.23617,0.93178,-0.27569,-0.15684,-0.22508,0.0888
0.23925,0.9225,-0.30288,-0.156,-0.26746,0.09333
0.24031,0.91299,-0.32969,-0.1169,-0.26943,0.09057
0.23952,0.90302,-0.3566,-0.10432,-0.28175,0.10004
0.23773,0.89216,-0.38409,-0.05256,-0.36274,0.13314
0.2365,0.88126,-0.40919,-0.07107,-0.35811,0.11621
0.23544,0.87106,-0.43107,-0.12419,-0.35319,0.0906
0.23413,0.86113,-0.45126,-0.25237,-0.3665,0.01618
0.23415,0.85162,-0.46895,-0.20799,-0.41825,-0.02258
0.23636,0.84402,-0.48141,-0.15587,-0.41639,-0.0417
0.24019,0.84156,-0.48382,0.02562,-0.23431,-0.28315
0.24644,0.84438,-0.47569,0.16618,0.08546,-0.40488
0.25065,0.85078,-0.46188,0.24012,0.32666,-0.52389
0.2514,0.85709,-0.44965,0.36337,0.92663,-0.53621
0.25391,0.8589,-0.44476,0.29044,0.86321,-0.31656
0.25628,0.86532,-0.43073,0.08545,0.86495,-0.14848
0.25406,0.88097,-0.39917,-0.06485,0.24252,-0.10407
0.25177,0.89878,-0.35889,-0.15802,-0.09113,-0.00333
0.24521,0.91413,-0.32284,-0.13051,-0.24453,0.1513
0.23588,0.92705,-0.29143,-0.10735,-0.21856,0.17802
0.22977,0.93736,-0.26183,-0.19527,-0.03565,0.11272
0.22934,0.94478,-0.23407,-0.19646,0.08661,0.12027
0.23284,0.95055,-0.20552,-0.13135,0.0714,0.08804
0.23709,0.95555,-0.17523,-0.01617,-0.2156,0.04902
0.23958,0.95978,-0.14635,0.00952,-0.33002,0.02301
0.24128,0.96269,-0.12245,0.06506,-0.41204,0.0268
0.24433,0.9643,-0.10202,0.0585,-0.29327,0.07698
0.24963,0.96481,-0.08253,0.00718,-0.25346,0.03783
0.25614,0.96461,-0.06247,-0.04369,-0.1864,0.01426
0.26146,0.96418,-0.04443,-0.07727,-0.13578,0.01057
0.26578,0.96355,-0.03032,-0.08457,-0.14537,0.02661
0.27025,0.96258,-0.01994,-0.09282,-0.16235,0.02
0.27491,0.96137,-0.01301,-0.0853,-0.13519,0.02163
0.27967,0.96005,-0.00873,-0.07761,-0.13963,0.02511
0.28432,0.9587,-0.0069,-0.04136,-0.14975,0.03835
0.28869,0.95739,-0.00671,0.00228,-0.24416,0.03626
0.29255,0.95622,-0.00608,0.02246,-0.2486,-0.0102
0.29386,0.95583,-0.00546,0.08425,-0.21663,-0.11986
0.29092,0.95673,-0.00503,0.21358,-0.13237,-0.21831
0.28629,0.95813,-0.00344,0.29615,0.01019,-0.31834
0.28301,0.95911,-0.00027,0.33905,0.24929,-0.3362
0.28052,0.95983,0.00409,0.37714,0.46514,-0.31499
0.27629,0.961,0.01161,0.3095,0.52063,-0.22455
0.26761,0.9632,0.0247,0.15591,0.50625,-0.14905
0.25382,0.96642,0.03988,0.10909,0.59388,-0.0426
