gravity.x,gravity.y,gravity.z,userAcceleration.x,userAcceleration.y,userAcceleration.z
-0.08982,0.99241,0.08401,0.10852,0.36627,-0.20306
-0.10536,0.98967,0.09715,0.45061,0.68862,-0.10977
-0.11618,0.98794,0.10231,0.33525,0.56725,-0.17822
-0.11774,0.98831,0.09685,0.21286,0.38774,-0.29908
-0.11245,0.99039,0.08044,-0.01841,0.22883,-0.54292
-0.10784,0.99266,0.05469,-0.00043,0.27122,-0.59036
-0.10242,0.9946,0.017,0.19728,0.30374,-0.59852
-0.09343,0.99496,-0.03642,0.25312,0.35119,-0.38738
-0.0858,0.99087,-0.10401,0.25333,0.35751,0.00781
-0.08149,0.98071,-0.17765,0.446,0.18883,0.76266
-0.07341,0.96758,-0.24167,0.22673,0.2688,0.77493
-0.05244,0.95897,-0.27862,-0.11633,0.28907,0.53643
-0.02259,0.95494,-0.29594,-0.47311,-0.0461,0.28417
0.0041,0.94811,-0.31791,-0.5848,-0.16541,0.22274
0.01394,0.9345,-0.3557,-0.32946,-0.12773,0.15054
0.01983,0.91546,-0.40191,0.09621,0.16298,-0.13691
0.03558,0.89222,-0.4502,0.06395,0.21547,0.07604
0.0537,0.86626,-0.4967,0.04583,0.24142,0.12253
0.06016,0.83694,-0.54398,0.13124,0.12969,0.58954
0.05618,0.80479,-0.5909,0.00699,0.03108,0.56807
0.04432,0.77199,-0.63409,-0.07001,0.01371,0.60233
0.02243,0.73923,-0.67308,-0.28708,-0.16748,0.57697
-0.00519,0.71006,-0.70412,-0.28245,-0.36671,0.45122
-0.03486,0.68956,-0.72339,-0.21545,-0.38676,0.47535
-0.06153,0.68128,-0.72943,-0.1737,-0.40511,0.4807
-0.0816,0.68746,-0.72162,-0.22811,-0.59029,0.26259
-0.09066,0.71028,-0.69806,-0.06406,-0.54915,-0.49854
-0.08485,0.74478,-0.66189,-0.00616,-0.30262,-0.34818
-0.05081,0.77362,-0.63161,-0.46542,0.03791,0.27991
-0.05397,0.80987,-0.58412,0.30484,0.71452,1.01534
-0.01327,0.84683,-0.5317,0.3011,1.40453,-0.29757
-0.00015,0.86575,-0.50048,-0.03455,0.51415,-0.08937
-0.00321,0.88495,-0.46566,0.05863,-0.21453,0.34149
0.00179,0.90147,-0.43284,-0.02941,-0.38659,0.21781
0.00278,0.91642,-0.40021,-0.29391,-0.18616,0.12978
-0.0016,0.93223,-0.36187,-0.28995,0.0797,0.46108
-0.00831,0.94731,-0.32021,-0.12659,0.31165,0.38836
-0.0186,0.95861,-0.28411,0.19002,0.38117,0.26886
-0.0304,0.96554,-0.25848,0.43664,0.33108,0.21325
-0.0388,0.97077,-0.23684,0.31238,0.12565,0.24283
-0.0391,0.97673,-0.21089,0.08843,-0.0344,0.23514
-0.03735,0.98328,-0.17822,-0.01334,-0.10448,0.1205
-0.03906,0.98835,-0.1471,-0.07766,-0.15987,0.10421
-0.04626,0.99123,-0.12379,0.02224,-0.10912,0.14686
-0.05656,0.99269,-0.10666,0.16715,-0.14712,0.07637
-0.06624,0.9939,-0.0882,0.25729,-0.16982,0.06485
-0.06711,0.99572,-0.06358,0.25785,-0.098,-0.05594
-0.06283,0.99736,-0.03635,-0.01209,0.04358,-0.02664
-0.06074,0.998,-0.01748,-0.04039,0.05609,-0.01347
-0.05906,0.99825,-0.00352,0.1215,0.14735,-0.10553
-0.0553,0.99842,0.00957,0.20367,0.10639,-0.06928
-0.05258,0.99824,0.02751,0.3116,-0.02341,0.00902
-0.05548,0.99723,0.04958,0.29208,-0.03546,0.09037
-0.0642,0.99541,0.07099,0.24744,-0.02275,0.04213
-0.07765,0.9927,0.09226,0.0364,0.14437,-0.12411
-0.09363,0.98938,0.11113,0.17631,0.40028,-0.0867
-0.10912,0.98596,0.12641,0.24753,0.47176,-0.08367
-0.12075,0.98354,0.13438,0.31882,0.64983,-0.16925
-0.12242,0.98365,0.13209,0.22793,0.54716,-0.32986
-0.11735,0.98605,0.11807,0.08145,0.45347,-0.37146
-0.11523,0.98915,0.09116,-0.25783,0.31743,-0.52185
-0.11408,0.9922,0.05013,-0.14312,0.28932,-0.57305
-0.10867,0.99408,-0.00218,0.06191,0.38968,-0.56336
-0.10099,0.99305,-0.06049,0.23247,0.50151,-0.45593
-0.09437,0.98762,-0.1253,0.41909,0.5441,-0.02701
-0.08534,0.97621,-0.19931,0.40352,0.4458,0.56453
-0.06826,0.9592,-0.27436,0.3071,0.33581,0.61436
-0.04618,0.94438,-0.3256,-0.34188,0.19475,0.81866
-0.0255,0.9367,-0.34921,-0.22618,0.06283,0.8316
-0.0146,0.92785,-0.37266,-0.28473,-0.06153,0.70193
-0.00897,0.91234,-0.40934,-0.02012,0.15314,-0.30987
0.00147,0.88837,-0.45913,-0.11798,0.22641,-0.48462
0.00459,0.85811,-0.51345,-0.21754,0.17803,-0.22826
-0.00199,0.82293,-0.56814,0.05191,0.05252,0.70184
-0.01126,0.78502,-0.61936,0.19998,-0.01067,0.70151
-0.02197,0.74802,-0.66331,0.12935,-0.04674,0.65319
-0.03564,0.71102,-0.70226,-0.15364,-0.1545,0.64331
-0.05683,0.67417,-0.73639,-0.2043,-0.21045,0.64235
-0.08353,0.64149,-0.76257,-0.16389,-0.2707,0.62514
-0.10907,0.61845,-0.77822,-0.05963,-0.48553,0.52344
-0.12875,0.60915,-0.78253,-0.10079,-0.58395,0.36218
-0.13868,0.61491,-0.77631,-0.14877,-0.66019,0.18483
-0.13419,0.63767,-0.75853,-0.06799,-0.62911,-0.21896
-0.12211,0.67385,-0.72871,0.07229,-0.40704,-0.68243
-0.10958,0.70452,-0.70118,0.23609,0.35386,-0.37094
-0.09085,0.72972,-0.67768,-0.49885,0.75613,0.16544
-0.06728,0.76334,-0.64248,0.6068,1.1602,0.64001
-0.0521,0.79043,-0.61033,-0.27935,0.34964,-0.09775
-0.05243,0.81336,-0.57939,-0.01501,-0.50989,0.44817
-0.03202,0.83829,-0.54428,-0.12197,-0.68676,0.31926
-0.01266,0.86157,-0.50747,-0.32445,-0.40529,0.21731
0.00278,0.8836,-0.46823,-0.38004,0.03988,0.33017
0.01196,0.90379,-0.42782,-0.28954,0.47816,0.32061
0.01432,0.92212,-0.38664,-0.02506,0.49496,0.29114
0.02081,0.93928,-0.34253,0.20683,0.25004,0.24414
0.03544,0.95498,-0.29455,0.38935,0.02482,0.19767
0.05003,0.96799,-0.24593,0.3677,-0.03252,0.19107
0.05612,0.97722,-0.20469,0.21959,-0.09356,0.19192
0.05476,0.98464,-0.16578,-0.01295,-0.0609,0.11398
0.04734,0.9913,-0.12283,-0.05136,-0.07438,0.09018
0.03087,0.99632,-0.07992,-0.08721,-0.15045,0.11883
0.00785,0.99891,-0.04589,-0.07223,-0.08221,0.04792
-0.01273,0.99969,-0.02133,-0.02782,0.02439,0.01516
-0.02465,0.9997,-0.0008,-0.00791,-0.05203,0.06798
-0.03245,0.99929,0.01894,-0.01418,-0.07986,0.07514
-0.04021,0.99827,0.04296,-0.00411,0.00247,-0.09262
-0.04137,0.99722,0.06193,-0.03819,0.01607,-0.12212
-0.0404,0.99619,0.07727,-0.04313,-0.06821,-0.16257
-0.04351,0.9945,0.0953,0.0099,-0.08169,-0.04608
-0.04951,0.99229,0.11363,0.06064,-0.09783,0.07159
-0.05645,0.98951,0.13294,0.09166,-0.09694,0.04539
-0.06494,0.98619,0.15233,0.1351,-0.10306,-0.05395
-0.07233,0.98283,0.16976,0.24071,-0.05691,-0.03651
-0.07977,0.97908,0.18716,0.33522,0.03053,-0.16941
-0.08884,0.97465,0.20533,0.2042,-0.08468,-0.22797
-0.09676,0.97061,0.22034,0.01917,0.02399,-0.07245
-0.10444,0.96728,0.23122,0.08614,0.01891,0.01854
-0.11463,0.96553,0.2337,0.18494,-0.01138,0.10856
-0.12182,0.96518,0.2315,0.5178,0.05103,0.13437
-0.11855,0.96582,0.23052,0.63619,0.30185,0.05255
-0.10239,0.96756,0.23095,0.52566,0.46016,0.0333
-0.07711,0.97104,0.22614,0.01225,0.90358,-0.2345
-0.04735,0.97694,0.20819,-0.11973,0.75224,-0.35615
-0.01835,0.98437,0.17517,-0.16812,0.62063,-0.38792
0.0057,0.99225,0.1241,-0.19418,0.16162,-0.34689
0.02736,0.99792,0.0583,-0.51137,0.08795,-0.02838
0.0437,0.99902,-0.00717,-0.7092,0.20534,-0.00953
0.05,0.99623,-0.07096,-1.05583,0.23173,0.04727
0.04775,0.99001,-0.13265,-1.1425,0.24992,0.20774
0.04283,0.98025,-0.19308,-0.67357,0.25475,0.39454
0.03467,0.96696,-0.25256,-0.0842,0.14774,0.47888
0.03296,0.95198,-0.30439,0.16519,0.03792,0.51884
0.04555,0.9369,-0.34662,0.11605,0.0478,0.46166
0.06481,0.92206,-0.38159,0.02377,0.09729,0.38429
0.07914,0.90638,-0.41497,-0.12,0.01305,0.29828
0.08504,0.88904,-0.44987,-0.10671,-0.04153,0.3216
0.08134,0.8706,-0.48523,-0.05394,-0.14374,0.37988
0.0728,0.85362,-0.51578,-0.02155,-0.15552,0.40831
0.06454,0.84031,-0.53825,-0.04888,-0.22125,0.49945
0.06071,0.83228,-0.55103,-0.18707,-0.3696,0.54703
0.0611,0.83161,-0.55198,-0.28458,-0.45695,0.494
0.06393,0.83887,-0.54056,-0.29335,-0.51255,0.41169
0.06948,0.85343,-0.51656,-0.26243,-0.49436,0.39092
0.07907,0.87278,-0.48167,-0.26414,-0.44046,0.38232
0.09285,0.89454,-0.43723,-0.30994,-0.3752,0.31292
0.10982,0.91671,-0.38416,-0.355,-0.27613,0.14223
0.12634,0.93641,-0.32737,-0.29777,-0.26866,-0.02396
0.13524,0.9527,-0.27215,-0.16174,-0.18694,-0.18949
0.13342,0.96393,-0.23031,0.94153,1.78009,-1.07845
0.13348,0.96946,-0.20574,1.34976,1.52914,-0.54159
0.1545,0.97024,-0.18645,0.84222,0.40346,-0.55414
0.16684,0.96933,-0.18047,0.10408,0.25182,-0.2823
0.17316,0.96997,-0.17082,-0.27296,0.29741,0.09648
0.17724,0.97057,-0.16302,-1.3159,0.95893,0.48218
0.17089,0.97154,-0.16406,-0.91498,-0.33088,0.22312
0.17259,0.97146,-0.16273,-0.36863,-0.49685,0.2812
0.19306,0.97052,-0.14428,-0.16602,-0.70464,0.44158
0.21122,0.97046,-0.1166,-0.66881,-0.70932,0.08842
0.21408,0.97283,-0.08816,-0.88637,-0.62774,0.02946
0.20445,0.97772,-0.04751,-0.65647,-0.23555,0.66238
0.18524,0.98269,0.00148,-0.2247,0.40703,0.70994
0.17421,0.98359,0.04688,0.0191,0.51469,0.65566
0.1745,0.98128,0.08148,0.66211,0.53999,0.36609
0.1741,0.97897,0.10631,0.42987,0.02031,-0.06873
0.17451,0.97581,0.13171,0.02267,-0.07769,-0.01036
0.18105,0.97008,0.16179,-0.50716,-0.21759,0.05916
0.18256,0.96381,0.19428,-0.60694,-0.09014,-0.01371
0.17314,0.95795,0.22883,-0.34804,0.09096,-0.11701
0.16225,0.95227,0.25855,-0.17791,0.22773,-0.18106
0.15896,0.94655,0.28068,0.15542,0.2779,-0.14592
0.15786,0.9426,0.29425,0.25518,0.08247,0.0119
0.15286,0.94001,0.30498,0.29556,-0.03716,-0.0221
0.14815,0.93763,0.31448,0.45926,-0.1972,-0.19824
0.14381,0.93596,0.32139,0.26159,-0.0918,-0.17714
0.14143,0.93398,0.32815,0.06436,-0.07152,-0.17754
0.13834,0.93147,0.33649,-0.05534,-0.05459,-0.21036
0.13531,0.92876,0.34511,-0.09887,0.00107,-0.21968
0.13059,0.92616,0.3538,-0.09588,0.03505,-0.25222
0.12244,0.92359,0.36331,-0.09674,0.104,-0.27
0.10909,0.92177,0.37207,-0.09246,0.03364,-0.19748
0.09473,0.92016,0.3799,-0.06749,-0.04854,-0.13959
0.08275,0.91701,0.39018,-0.0424,0.0976,-0.1484
0.07288,0.91395,0.39923,-0.00639,0.28689,-0.20476
0.06894,0.91183,0.40473,0.0233,0.31853,-0.31202
0.07086,0.91074,0.40685,0.0774,0.34721,-0.42574
0.07245,0.91334,0.40069,-0.02347,0.59811,-0.59719
0.08001,0.92127,0.3806,-0.32548,0.54867,-0.9582
0.0851,0.93741,0.33767,-0.23102,0.49461,-0.98641
0.09459,0.95893,0.26741,-0.11863,0.61857,-0.47368
0.10846,0.97737,0.18161,-0.33748,0.66287,-0.07597
0.11722,0.98887,0.09167,-0.62137,0.74867,0.06242
0.1199,0.99277,0.00516,-0.90853,0.88183,0.25549
0.12466,0.98947,-0.07358,-0.98805,0.75289,0.4305
0.13466,0.98185,-0.13356,-0.14273,0.22456,0.35693
0.1607,0.97129,-0.17543,0.53574,0.23178,0.21003
0.20141,0.95616,-0.21256,0.3585,0.27885,-0.03825
0.23982,0.93435,-0.2636,0.09725,0.43725,-0.12834
0.26498,0.90424,-0.33487,0.04654,0.50024,0.07263
0.26949,0.86646,-0.42025,-0.01624,0.30299,0.27012
0.25434,0.82574,-0.50345,-0.23714,-0.08557,0.52765
0.22653,0.78649,-0.57456,-0.23386,-0.29947,0.71219
0.19349,0.74978,-0.63277,-0.27523,-0.51079,0.70232
0.1625,0.71801,-0.6768,-0.25168,-0.72081,0.47967
0.13659,0.69769,-0.70326,-0.18546,-0.6965,0.46016
0.11775,0.6884,-0.71571,-0.17382,-0.54355,0.34465
0.10838,0.68693,-0.7186,-0.26936,-0.43981,0.05945
0.11043,0.69222,-0.71319,-0.23967,-0.35221,-0.00834
0.1174,0.70206,-0.70237,-0.31542,-0.2163,0.0178
0.12207,0.71722,-0.68607,-0.19826,-0.16054,0.1798
0.12677,0.73722,-0.66366,-0.18042,-0.12517,0.09699
0.12878,0.76234,-0.63423,-0.20042,-0.0235,-0.33377
0.12645,0.7945,-0.59396,-0.69444,0.11567,-0.36078
0.14161,0.81896,-0.55611,-0.7096,0.09121,-0.39864
0.1553,0.8385,-0.52231,0.46395,1.30985,-0.28871
0.1847,0.86489,-0.46675,-0.40168,0.22213,0.28865
0.18905,0.88277,-0.43009,-0.60754,-0.12688,-0.50578
0.19214,0.90027,-0.39064,-0.08917,-0.35988,0.63778
0.2025,0.922,-0.33001,-0.33022,-0.19788,0.33697
0.19434,0.94022,-0.27968,-0.344,0.15468,0.14637
0.17969,0.95548,-0.23402,-0.14142,0.43531,0.34113
0.16597,0.96861,-0.18505,-0.03363,0.4751,0.19057
0.15104,0.97805,-0.14356,0.03277,0.35725,0.13654
0.13585,0.9846,-0.10999,0.17483,-0.06914,0.08747
0.12251,0.98916,-0.08091,0.1265,-0.17593,0.11249
0.11093,0.99264,-0.0485,-0.01039,-0.04805,0.01563
0.09509,0.99539,-0.01207,-0.02801,-0.04054,-0.01003
0.07575,0.99694,0.01947,-0.06309,0.01167,-0.1148
0.06231,0.9971,0.04374,-0.03628,0.03833,-0.09067
0.05388,0.99638,0.06571,-0.03375,-0.05629,-0.09011
0.0494,0.99499,0.08692,-0.11832,-0.07397,-0.22378
0.04587,0.99309,0.108,0.03076,-0.09181,-0.19279
0.04484,0.99045,0.13038,0.10675,-0.06685,-0.19579
0.04289,0.98758,0.15111,0.18628,0.01574,-0.20277
0.04177,0.9856,0.16387,0.25083,-0.01434,-0.19321
0.04222,0.98371,0.17475,0.31976,-0.06832,-0.26358
0.03993,0.98161,0.18665,0.28423,0.02252,-0.1641
0.03654,0.9796,0.1976,0.25217,0.08632,-0.12594
0.03254,0.97755,0.20818,0.19058,0.11127,-0.18914
0.0268,0.97505,0.22035,0.12524,0.1319,-0.2186
0.01915,0.97186,0.23477,-0.02164,0.10848,-0.19023
0.00754,0.96758,0.25244,-0.13905,0.24476,-0.27256
-0.00857,0.96206,0.27269,-0.17552,0.60671,-0.20305
-0.02332,0.95812,0.2854,0.11017,0.95118,-0.42451
-0.03035,0.95791,0.28546,0.10074,0.8469,-0.54089
-0.03119,0.96225,0.27037,0.11173,0.48312,-0.65854
-0.02797,0.9704,0.23986,0.12091,0.2857,-0.66757
-0.02157,0.98132,0.19116,0.15176,0.21436,-0.5809
-0.01441,0.99177,0.12719,0.16174,0.31993,-0.28116
-0.00833,0.99811,0.06089,0.19358,0.35741,-0.00081
-0.00058,0.99999,0.0037,0.22192,0.15756,0.2763
0.01367,0.99896,-0.04336,0.07006,0.01137,0.24316
0.03385,0.9963,-0.07899,0.02177,0.04203,0.24342
0.0594,0.99285,-0.10356,-0.00845,0.06349,0.1794
0.08732,0.98815,-0.12623,-0.31714,-0.04801,-0.06234
0.11063,0.98156,-0.15587,-0.46362,-0.11907,-0.05029
0.12772,0.97205,-0.19701,-0.37769,-0.11171,0.02539
0.14435,0.95916,-0.24326,0.02446,0.05033,0.24103
0.16944,0.9427,-0.28739,0.22753,0.16359,0.08366
0.20186,0.9241,-0.32448,0.1259,0.19209,-0.04074
0.2238,0.90237,-0.3683,-0.25227,0.08654,0.26631
0.23279,0.87767,-0.41894,-0.36005,-0.08128,0.3778
0.2333,0.85265,-0.46751,-0.36622,-0.12746,0.42899
0.22794,0.82957,-0.50976,-0.37458,-0.29791,0.38987
0.2171,0.81008,-0.54464,-0.44246,-0.40582,0.31613
0.20231,0.79653,-0.56975,-0.38976,-0.42357,0.26751
0.18493,0.79083,-0.58342,-0.34243,-0.38911,0.25428
0.16662,0.79242,-0.58678,-0.35925,-0.42517,0.21206
0.15134,0.80258,-0.57703,-0.35545,-0.46379,0.16051
0.14304,0.82263,-0.55029,-0.19666,-0.53288,-0.14355
0.14375,0.85018,-0.50649,-0.00452,-0.18207,-0.28594
0.15639,0.8684,-0.47057,-0.46623,0.2866,-0.28914
0.15074,0.88755,-0.43536,0.47672,1.18371,1.35763
0.14389,0.90503,-0.40026,0.05742,1.0317,-0.31246
0.13348,0.91798,-0.37349,-0.10867,-0.2779,0.26734
0.13331,0.93156,-0.33825,-0.16652,-0.50864,0.15284
0.13498,0.94442,-0.29975,-0.24414,-0.42539,-0.01917
0.13007,0.95779,-0.25636,-0.19888,-0.14953,0.06731
0.12248,0.97046,-0.20783,-0.04057,0.24102,0.21813
0.11177,0.98032,-0.1627,0.11973,0.46668,0.17232
0.10237,0.98717,-0.12252,0.32067,0.34313,0.06916
0.09686,0.99149,-0.08702,0.45026,0.18132,-0.00601
0.09034,0.99423,-0.05785,0.34446,-0.05139,-0.01435
0.08103,0.996,-0.03748,0.10061,-0.19091,-0.02597
0.06836,0.99748,-0.01886,-0.09802,-0.19861,-0.03376
0.05319,0.99857,0.00444,-0.15394,-0.12846,-0.01306
0.03522,0.999,0.02752,-0.1442,-0.10247,-0.02506
0.01927,0.99864,0.04839,-0.06593,0.07129,-0.07109
0.00875,0.99795,0.06339,0.04686,0.01342,-0.10152
0.00278,0.99678,0.08009,0.09062,-0.01338,-0.10125
0.00017,0.99472,0.10266,0.09866,-0.17132,-0.19455
-0.00195,0.99244,0.12267,0.03976,-0.09463,-0.25129
-0.00209,0.99037,0.1384,0.05353,-0.07147,-0.17363
-0.00175,0.98825,0.15285,0.184,0.0943,-0.20502
-0.00196,0.98665,0.16283,0.14118,0.10595,-0.17793
-0.00055,0.98599,0.16679,0.14615,0.05327,-0.09559
0.00667,0.98531,0.17061,0.16492,0.03983,-0.05153
0.01544,0.98525,0.17044,0.06015,0.032,-0.04039
0.0163,0.98506,0.1714,-0.04288,-0.01931,-0.05064
0.01624,0.98417,0.17649,-0.03488,0.04278,-0.08973
0.00698,0.98113,0.19323,0.00316,0.1738,-0.11847
-0.00715,0.97757,0.21047,0.15685,0.53112,-0.14773
-0.01854,0.97525,0.22034,0.19235,0.71499,-0.21081
-0.02185,0.97484,0.22182,0.16472,0.61305,-0.29864
-0.02194,0.97653,0.21426,-0.07085,0.39427,-0.47532
-0.02431,0.97982,0.19841,-0.1184,0.33424,-0.57354
-0.02662,0.98509,0.16997,0.02849,0.28089,-0.57971
-0.02435,0.99143,0.12838,0.16271,0.30992,-0.56272
-0.0151,0.99671,0.07962,0.30719,0.36108,-0.54056
-0.00024,0.99966,0.02603,0.49576,0.32155,-0.31738
0.01707,0.99932,-0.0327,0.449,0.32945,-0.00592
0.03409,0.99564,-0.08678,0.15784,0.10668,0.50487
0.05657,0.98998,-0.12936,-0.06583,0.09892,0.52907
0.08091,0.98418,-0.1576,-0.56121,0.03358,0.51621
0.10538,0.97847,-0.17747,-0.52863,-0.1157,0.3395
0.12666,0.97207,-0.19759,-0.52295,-0.15436,0.00199
0.14683,0.96341,-0.22424,-0.40473,-0.08316,-0.08217
0.16808,0.95063,-0.26087,-0.1975,0.10151,-0.04985
0.19465,0.93101,-0.30875,0.03253,0.14551,0.00077
0.22351,0.90753,-0.35559,0.2107,0.06657,0.14265
0.24734,0.88423,-0.39619,0.01473,0.0017,0.29297
0.25384,0.85857,-0.44544,-0.14875,0.00072,0.51858
0.24608,0.83005,-0.50046,-0.24668,-0.08643,0.49437
0.22983,0.80182,-0.5516,-0.31024,-0.16737,0.47062
0.20807,0.77694,-0.5942,-0.39048,-0.24474,0.41579
0.18433,0.75816,-0.62547,-0.37357,-0.28622,0.35403
0.16147,0.74835,-0.64334,-0.32782,-0.35842,0.33174
0.14241,0.74857,-0.64759,-0.34964,-0.50697,0.26729
0.13114,0.76043,-0.63604,-0.28694,-0.55824,0.02016
0.13098,0.78384,-0.607,-0.14333,-0.53237,-0.33108
0.1469,0.80779,-0.57087,0.05444,-0.09975,-0.13511
0.15466,0.83391,-0.52978,-0.27447,-0.13093,0.48388
0.15773,0.86738,-0.47198,0.33761,0.61721,0.18654
0.18172,0.88508,-0.4285,0.6369,1.72936,0.19069
0.17982,0.89934,-0.39857,-0.21081,0.29517,-0.43773
0.17486,0.91261,-0.36953,-0.05789,-0.50963,0.50808
0.18496,0.92625,-0.3284,-0.18493,-0.43431,0.16605
0.18323,0.93837,-0.29306,-0.45036,-0.21189,-0.07541
0.17668,0.95179,-0.25076,-0.36565,0.1654,0.21047
0.16584,0.96498,-0.20327,-0.28921,0.27857,0.19028
0.15313,0.97547,-0.15816,0.0564,0.36079,0.12241
0.14281,0.9823,-0.12124,0.20909,0.19013,0.11393
0.13131,0.98659,-0.09689,0.24663,0.08067,0.10619
0.11735,0.98978,-0.08106,0.03933,-0.09152,0.08066
0.10487,0.99267,-0.06003,-0.05183,-0.06666,0.11197
0.09214,0.99521,-0.03254,-0.13092,-0.06524,0.09826
0.07708,0.99702,-0.0038,-0.07592,-0.01101,-0.04908
0.06473,0.99768,0.02101,-0.00188,-0.04541,0.02443
0.0561,0.99774,0.0371,0.01383,-0.10951,0.00348
0.05114,0.99741,0.05049,0.03925,-0.1563,-0.03662
0.05141,0.99603,0.07274,-0.05805,-0.06785,-0.136
0.05385,0.99384,0.09686,-0.13016,0.03283,-0.14447
0.05513,0.99179,0.11535,-0.06711,-0.01415,-0.07989
0.05348,0.98992,0.13115,0.06481,0.10585,-0.11453
0.05283,0.98798,0.14526,0.11805,0.06398,-0.15085
0.05306,0.98603,0.15789,0.11578,-0.09215,-0.10492
0.04894,0.98403,0.17112,0.14653,0.02064,-0.07441
0.04059,0.98199,0.18453,0.10862,0.13328,-0.03334
0.02967,0.9798,0.19774,0.01077,0.11283,-0.1376
0.02174,0.97833,0.2059,0.08582,0.12302,-0.15863
0.00959,0.97618,0.21676,0.1087,0.27701,-0.23246
-0.00083,0.97354,0.22852,0.15462,0.53771,-0.25208
-0.00792,0.97227,0.23374,0.31397,0.5424,-0.29578
-0.00933,0.97388,0.22686,0.10955,0.40959,-0.39588
-0.00702,0.97783,0.20929,-0.03984,0.31569,-0.47839
-0.00447,0.98314,0.18279,-0.02747,0.24893,-0.5266
0.00015,0.98944,0.14497,0.03923,0.22847,-0.60479
0.01027,0.99536,0.09567,0.20937,0.37894,-0.67009
0.02513,0.99895,0.03817,0.41842,0.48313,-0.54853
0.04433,0.99868,-0.02581,0.5242,0.4645,0.19256
0.06235,0.99411,-0.08859,0.34516,0.13565,0.62854
0.08443,0.98697,-0.13698,-0.1034,0.04771,0.6001
0.10938,0.98008,-0.16575,-0.45931,0.05542,0.51383
0.13699,0.97358,-0.18268,-0.49111,0.05672,0.22197
0.15933,0.9649,-0.20876,-0.61264,-0.04077,-0.05284
0.1732,0.9521,-0.252,-0.48104,-0.09898,0.05332
0.18569,0.93716,-0.29537,-0.29848,-0.07614,0.18494
0.2102,0.9167,-0.33981,0.20845,0.20186,-0.06575
0.23568,0.89323,-0.38289,-0.03598,0.0864,0.25011
0.24907,0.86759,-0.43041,-0.10928,0.06486,0.44646
0.25209,0.84101,-0.47869,-0.14553,0.01625,0.51804
0.24683,0.81472,-0.5247,-0.27104,-0.11672,0.53509
0.23759,0.78945,-0.56597,-0.32004,-0.11909,0.5073
0.22507,0.76695,-0.60094,-0.41159,-0.23855,0.35264
0.20831,0.74929,-0.62863,-0.38487,-0.27547,0.32692
0.18943,0.73918,-0.64632,-0.30246,-0.39467,0.24808
0.17175,0.73817,-0.65238,-0.27408,-0.50444,0.17776
0.16011,0.74836,-0.64368,-0.21305,-0.49188,-0.01248
0.15695,0.76947,-0.61909,-0.14694,-0.51566,-0.18819
0.16132,0.79759,-0.58123,-0.02048,0.04033,-0.31183
0.17456,0.81392,-0.55414,-0.17227,0.35405,-0.16147
0.1665,0.83854,-0.51877,0.68942,0.87021,1.01798
0.17648,0.8613,-0.47646,0.05207,0.96531,-0.28976
0.16887,0.87572,-0.45233,-0.08037,0.28398,0.11284
0.16879,0.89133,-0.42076,-0.23178,-0.35669,0.32788
0.17679,0.90647,-0.38349,-0.36148,-0.22292,-0.0355
0.18021,0.92204,-0.3426,-0.36986,-0.03734,0.19185
0.18118,0.93798,-0.29558,-0.25898,0.18528,0.24803
0.17812,0.95241,-0.24736,-0.11723,0.26257,0.21471
0.17235,0.96444,-0.20036,0.06957,0.25641,0.1374
0.1668,0.97316,-0.15856,0.232,0.22397,0.1294
0.15842,0.979,-0.12828,0.26093,0.13388,0.13134
0.14556,0.98296,-0.11228,0.20378,0.07199,0.09611
0.13344,0.98651,-0.09485,-0.09488,-0.03682,0.09425
0.12225,0.9902,-0.0675,-0.10387,-0.10707,0.14295
0.10472,0.99373,-0.03918,-0.11859,-0.11987,0.09087
0.08724,0.99605,-0.01633,-0.0614,-0.02161,0.05393
0.07493,0.99719,0.00127,0.06487,-0.08728,0.01173
0.06557,0.99767,0.01877,0.1433,-0.10839,-0.03571
0.0637,0.99713,0.04095,0.09832,-0.07119,-0.08495
0.06355,0.99599,0.06296,0.00291,0.0235,-0.19167
0.06437,0.99497,0.07675,-0.04026,0.05821,-0.11499
0.06486,0.99428,0.08481,0.02389,0.12461,-0.15946
0.06421,0.99356,0.09336,0.00324,0.01256,-0.20854
0.06403,0.99256,0.10354,0.10529,-0.19535,-0.01497
0.06057,0.99142,0.11585,0.12027,-0.11755,0.00954
0.05161,0.99051,0.12739,0.14116,-0.02719,0.03272
0.04021,0.98877,0.14394,0.10673,0.07592,-0.03791
0.02797,0.98672,0.15997,0.12237,0.13732,-0.09355
0.01176,0.98359,0.18,0.08737,0.26688,-0.12206
-0.00235,0.98057,0.19613,0.20825,0.70313,-0.12708
-0.00958,0.97886,0.2043,0.14838,0.78974,-0.2091
-0.00861,0.97922,0.20262,0.0163,0.57816,-0.34829
-0.00813,0.98138,0.19187,-0.21096,0.16513,-0.56265
-0.00936,0.98511,0.17168,-0.07147,0.20641,-0.61489
-0.00808,0.99038,0.13811,-0.00325,0.20958,-0.58869
-0.00141,0.99576,0.09194,0.21395,0.37808,-0.61974
0.00975,0.9992,0.03862,0.52348,0.43135,-0.202
0.02388,0.99955,-0.01813,0.53704,0.29186,0.47495
0.04056,0.9964,-0.07437,0.42184,0.19923,0.59066
0.06431,0.99067,-0.12015,-0.26362,0.10769,0.48175
0.09422,0.98454,-0.14765,-0.5596,0.0165,0.43009
0.12353,0.97856,-0.16479,-0.55005,-0.10705,0.25759
0.1477,0.97107,-0.18763,-0.53138,-0.13578,0.11499
0.16858,0.96032,-0.22218,-0.26672,-0.09031,-0.09008
0.19176,0.94561,-0.26278,-0.11,0.03097,0.00325
0.2241,0.92479,-0.30747,0.11533,0.20463,-0.07058
0.25442,0.89868,-0.35726,0.04385,0.10019,0.2028
0.27469,0.87047,-0.40844,-0.07198,0.09048,0.40305
0.2804,0.83977,-0.46493,-0.14616,0.01501,0.59164
0.27492,0.80679,-0.52298,-0.27181,-0.10316,0.45024
0.26036,0.77415,-0.57698,-0.41052,-0.15762,0.3986
0.23718,0.74495,-0.62353,-0.45743,-0.17182,0.43081
0.2088,0.72193,-0.65971,-0.42632,-0.22257,0.39386
0.1799,0.70822,-0.68268,-0.28974,-0.28017,0.35296
0.15543,0.70733,-0.68958,-0.22641,-0.43751,0.35545
0.14139,0.7204,-0.679,-0.28698,-0.51121,0.25222
0.14256,0.74716,-0.64917,-0.31638,-0.5513,0.03389
0.15276,0.78557,-0.59961,-0.41592,-0.5412,0.38416
0.16883,0.82064,-0.54594,-0.67327,0.1715,-0.473
0.17223,0.85101,-0.4961,0.08174,0.8259,-0.08955
0.22183,0.87729,-0.42561,0.66907,1.74296,0.62677
0.22528,0.88858,-0.39959,-0.02106,0.64345,-0.77127
0.22335,0.89932,-0.37594,-0.13271,-0.42537,0.47469
0.23362,0.91076,-0.34049,-0.2947,-0.68573,-0.04391
0.23834,0.92277,-0.3028,-0.4631,-0.42946,-0.09341
0.23089,0.93911,-0.2545,-0.3571,0.21737,0.29064
0.21272,0.95605,-0.20179,-0.24632,0.41196,0.20475
0.19386,0.96922,-0.15174,-0.08537,0.53731,0.12984
0.18068,0.97695,-0.11372,0.38352,0.32869,0.1664
0.16691,0.98184,-0.09015,0.34586,0.13522,0.13208
0.15275,0.98575,-0.07048,0.16666,0.0166,0.11934
0.13997,0.9892,-0.04359,-0.11255,-0.07103,0.12519
0.12547,0.992,-0.01392,-0.14133,-0.06549,0.11603
0.10842,0.99402,0.01268,-0.12093,-0.0815,0.08291
0.09678,0.99471,0.03447,-0.05645,-0.08156,0.08961
0.09121,0.99457,0.05012,0.05123,-0.18813,0.03986
0.08714,0.99374,0.06996,0.04337,-0.23901,0.01987
0.08605,0.99152,0.09737,-0.02962,-0.234,-0.19629
0.0871,0.98903,0.11929,-0.15713,-0.13738,-0.1385
0.08782,0.98673,0.13658,-0.06047,-0.09906,-0.11768
0.0879,0.9839,0.1556,0.09714,-0.02843,-0.17462
0.08584,0.98137,0.17187,0.16974,0.06639,-0.16825
0.08263,0.97948,0.18381,0.2051,0.02282,-0.05111
0.07853,0.97833,0.19157,0.22907,0.11508,-0.09779
0.07477,0.97759,0.19679,0.2093,0.18182,-0.14311
0.07046,0.97741,0.19924,0.07485,0.19928,-0.12715
0.06636,0.97712,0.20208,0.06646,0.17838,-0.17201
0.06098,0.97629,0.2077,0.01421,0.15716,-0.19076
0.05278,0.97463,0.2175,-0.07068,0.61181,-0.0681
0.04343,0.97249,0.22886,-0.01821,0.64889,-0.01454
0.03549,0.97169,0.2336,0.13294,0.71397,-0.0437
0.03548,0.97256,0.22994,-0.05274,0.53895,-0.28655
0.0349,0.97488,0.21996,-0.06416,0.41557,-0.34788
0.03043,0.97909,0.20113,-0.06603,0.07466,-0.43175
0.02531,0.98532,0.16885,0.09612,0.05887,-0.61779
0.02451,0.99197,0.12409,0.17838,0.23334,-0.68937
0.03151,0.99681,0.0733,0.29218,0.35893,-0.64595
0.04472,0.99878,0.02085,0.39904,0.21602,-0.26712
0.06317,0.99764,-0.02704,0.37325,0.01843,0.36812
0.087,0.99413,-0.06428,0.115,-0.10258,0.46609
0.11406,0.98912,-0.09291,-0.33021,-0.14084,0.23648
0.13646,0.98377,-0.1165,-0.68643,-0.20924,0.28739
0.14988,0.97783,-0.14621,-0.70495,-0.25316,0.36127
0.14887,0.97226,-0.18042,-0.43418,-0.36055,0.34432
0.14033,0.96701,-0.21259,-0.17412,-0.32268,-0.00184
0.13808,0.95858,-0.24911,-0.08383,-0.1668,-0.04483
0.14154,0.94714,-0.28792,-0.1189,-0.03191,-0.01328
0.14758,0.93517,-0.32198,-0.12834,0.0579,0.17161
0.15283,0.92294,-0.35331,-0.14821,-0.0216,0.40369
0.15923,0.91117,-0.38001,-0.18562,-0.17736,0.42513
0.16952,0.90242,-0.3961,-0.20054,-0.26132,0.34347
0.1793,0.89697,-0.40411,-0.22451,-0.27169,0.34561
0.18421,0.89434,-0.4077,-0.24323,-0.31427,0.27211
0.18201,0.89403,-0.40937,-0.25818,-0.43226,0.26204
0.17455,0.89624,-0.40779,-0.28144,-0.47889,0.25132
0.16517,0.90206,-0.39876,-0.30403,-0.5154,0.23845
0.15551,0.91175,-0.38017,-0.41106,-0.5299,0.21698
0.14329,0.92412,-0.3542,-0.44049,-0.42492,0.0455
0.1292,0.93751,-0.32308,-0.40797,-0.38322,-0.08155
0.11548,0.95159,-0.28486,0.0592,0.0377,-0.37772
0.10122,0.96456,-0.24369,0.11324,0.32377,-0.49064
0.0878,0.97261,-0.21521,0.20929,0.75682,-0.60306
0.08442,0.97452,-0.2078,0.71033,0.89737,-0.60006
0.10051,0.97309,-0.20735,0.35574,0.12901,-0.48276
0.11776,0.97056,-0.21011,0.06121,0.14255,-0.47652
0.12219,0.9692,-0.21383,-0.50528,-0.14887,-0.12976
0.11677,0.9706,-0.21047,-0.49012,-0.10946,0.16199
0.10637,0.97447,-0.19773,-0.33908,0.34701,0.19619
0.09905,0.98005,-0.17234,-0.34747,0.59884,0.2235
0.10169,0.98536,-0.13682,-0.60903,0.89153,-0.14128
0.11133,0.987,-0.11587,-0.14762,0.27336,-0.10853
0.12906,0.98726,-0.09307,0.01788,-0.15782,0.11239
0.15249,0.98654,-0.05905,-0.15283,-0.38913,0.39969
0.16343,0.98639,-0.01816,-0.65863,-0.45819,0.44425
0.16061,0.98691,0.01486,-0.72314,-0.2363,0.15038
0.15483,0.9874,0.03257,-0.40346,-0.08944,0.05621
0.14716,0.98815,0.04375,0.07295,0.05572,0.14041
0.1393,0.98857,0.05764,0.41575,0.11934,0.19012
0.13364,0.98789,0.07885,0.48511,0.10513,0.17646
0.12824,0.98597,0.10687,0.16184,0.03353,0.08445
0.12563,0.98231,0.13883,-0.06238,0.02676,-0.02802
0.12688,0.97762,0.16779,-0.17463,0.03222,-0.07798
0.12788,0.97303,0.19199,-0.25414,0.00895,-0.11257
0.12747,0.96931,0.21021,-0.24945,0.01891,-0.15277
0.1231,0.96595,0.22754,-0.19818,0.07135,-0.17923
0.11611,0.96242,0.24548,-0.15348,0.018,-0.10765
0.10947,0.95853,0.26311,-0.05321,-0.01948,-0.0289
0.10398,0.9553,0.27676,0.04711,-0.02051,-0.00645
0.09844,0.95259,0.2879,0.14277,-0.06236,-0.04548
0.09403,0.94927,0.30009,0.26167,-0.0981,-0.11448
0.08675,0.94593,0.31256,0.22114,-0.07183,-0.15807
0.07737,0.94222,0.32592,0.02619,-0.02163,-0.18499
0.06774,0.93796,0.34005,-0.00058,-0.00968,-0.22613
0.0589,0.93372,0.35312,0.05005,0.01666,-0.30425
0.05138,0.92974,0.36461,0.11294,-0.01105,-0.3721
0.04226,0.92707,0.37249,0.24497,0.08995,-0.24788
0.03122,0.92654,0.37491,0.32605,-0.05019,-0.01846
0.02476,0.9262,0.37623,0.39605,0.02476,-0.01244
0.02443,0.92455,0.38027,0.42218,0.12193,-0.08773
0.03303,0.92338,0.38246,0.21743,0.08312,-0.24529
0.04974,0.92367,0.37994,-0.19473,0.47527,-0.45016
0.06473,0.9256,0.37294,-0.5186,0.61539,-0.65364
0.07378,0.93377,0.35019,-0.30092,0.52439,-0.60243
0.08835,0.9468,0.30947,0.04768,0.45733,-0.4625
0.10955,0.96064,0.25528,0.08169,0.58277,-0.35887
0.12894,0.9738,0.18729,-0.16179,0.56178,-0.22489
0.13986,0.98393,0.11104,-0.57769,0.54064,-0.20877
0.13696,0.99003,0.03279,-1.26623,0.55321,0.23102
0.12218,0.99154,-0.04389,-1.36394,0.38388,0.50649
0.10514,0.98775,-0.11529,-1.22811,0.22422,0.64549
0.08451,0.98139,-0.17241,0.29441,0.09502,0.15782
0.07424,0.97307,-0.21823,0.27677,0.08591,0.15862
0.07302,0.96224,-0.26221,-0.10174,0.06896,0.17484
0.0739,0.95052,-0.30174,-0.08206,-0.06591,0.34602
0.07713,0.93968,-0.33325,-0.07652,-0.23611,0.36786
0.07935,0.92852,-0.36269,0.01949,-0.29373,0.37244
0.07677,0.91722,-0.39091,0.04461,-0.39186,0.43328
0.06931,0.90701,-0.41537,0.02578,-0.47428,0.48668
0.06011,0.90004,-0.43164,-0.07267,-0.51392,0.48047
0.05015,0.89795,-0.43724,-0.14562,-0.55394,0.44735
0.03951,0.90187,-0.43019,-0.24443,-0.54787,0.32167
0.03083,0.91264,-0.40761,-0.21437,-0.39585,0.22644
0.02643,0.92915,-0.36875,-0.1569,-0.19066,0.08286
0.02975,0.9481,-0.31657,-0.13428,-0.08564,-0.07628
0.04389,0.96591,-0.25513,-0.17838,-0.03473,-0.58078
0.06087,0.9791,-0.19405,-0.16211,3e-05,-0.7295
0.06934,0.98719,-0.14367,0.50868,0.58332,-0.69179
0.0683,0.99157,-0.11006,0.86879,0.72759,-0.39169
0.06145,0.99393,-0.09123,0.5818,0.72795,-0.39063
0.05775,0.99545,-0.07574,0.10988,0.79941,-0.2932
0.05915,0.99624,-0.06332,-0.26739,0.32873,0.15279
0.06546,0.99631,-0.05552,-0.60486,0.10075,-0.09671
0.07084,0.99655,-0.04317,-0.28554,-0.29553,0.03198
0.07904,0.99638,-0.03129,-0.11548,-0.59578,0.39225
0.08568,0.99615,-0.01857,-0.26665,-0.36392,0.10828
0.08443,0.99643,0.00026,-0.30874,-0.24071,0.20566
0.07025,0.9973,0.02141,-0.2145,0.2034,0.43654
0.05066,0.9977,0.04509,0.18268,0.29564,0.16155
0.03621,0.99701,0.06832,0.47855,0.32309,0.03992
0.02976,0.99632,0.08038,0.64953,0.22895,-0.00564
0.03358,0.9956,0.0875,0.18671,0.08324,0.13665
0.04357,0.99374,0.10285,-0.16071,-0.12405,-0.23984
0.05507,0.99095,0.12243,-0.32138,-0.08062,-0.29188
0.05877,0.98825,0.14112,-0.20767,-0.0332,-0.19044
0.05627,0.98678,0.15201,0.18488,-0.07743,0.00174
0.05114,0.9857,0.16057,0.4301,-0.01951,-0.03064
0.04805,0.98462,0.16797,0.41646,0.02475,-0.1173
0.04982,0.98323,0.17542,0.25818,0.03012,-0.18279
0.05539,0.98172,0.18209,0.21512,-0.03911,-0.0593
0.05864,0.98059,0.1871,0.24699,-0.07309,-0.07967
0.06087,0.97966,0.19119,0.28119,-0.09154,-0.06544
0.06276,0.97855,0.19622,0.19005,-0.03139,-0.05515
0.06067,0.97697,0.20458,0.22231,0.01206,-0.10531
0.05688,0.97509,0.21441,0.14884,0.07841,-0.16041
0.04941,0.9722,0.22887,0.10165,0.09529,-0.21288
0.03981,0.969,0.24383,0.00595,0.12405,-0.09039
0.02884,0.96669,0.25433,0.00284,0.20816,-0.04115
0.01642,0.96489,0.26212,0.0608,0.31114,0.00518
0.00606,0.96435,0.26458,0.32839,0.5354,-0.10314
0.00081,0.96684,0.25539,0.35791,0.56261,-0.19008
0.00204,0.97101,0.23901,0.32616,0.60496,-0.20601
0.00615,0.97644,0.21571,0.12248,0.38208,-0.4663
0.01247,0.98355,0.18019,0.11546,0.30034,-0.43878
0.02381,0.99088,0.1326,0.00836,0.15363,-0.37191
0.04034,0.99631,0.07572,-0.07179,0.31315,-0.2242
0.05685,0.99824,0.01688,-0.11658,0.45495,-0.17495
0.07084,0.9964,-0.0466,-0.42318,0.59149,-0.19571
0.08238,0.98954,-0.11842,-0.52521,0.47921,0.03853
0.09985,0.97921,-0.17657,-0.48456,0.08271,0.18465
0.12087,0.96862,-0.21719,-0.39446,-0.02341,0.34808
0.12978,0.95891,-0.25229,-0.37584,0.03015,0.44127
0.13635,0.94908,-0.28401,-0.08348,0.04696,0.35478
0.15663,0.93722,-0.31158,0.39821,0.24131,-0.06104
0.18994,0.91994,-0.34297,0.31007,0.19259,-0.10758
0.2138,0.89803,-0.3845,0.29628,-0.08106,0.12551
0.2309,0.87495,-0.42562,0.06456,-0.11732,0.2395
0.23781,0.84936,-0.47121,-0.11502,-0.2539,0.44304
0.22802,0.82081,-0.52372,-0.18635,-0.28524,0.48929
0.20584,0.79217,-0.57453,-0.35835,-0.41023,0.42016
0.17815,0.76538,-0.61843,-0.38032,-0.48082,0.37196
0.14937,0.7433,-0.65206,-0.31454,-0.49903,0.36045
0.1205,0.72931,-0.67349,-0.27508,-0.61521,0.30499
0.09518,0.72585,-0.68124,-0.27876,-0.63672,0.18525
0.07867,0.73512,-0.67336,-0.253,-0.49737,-0.00467
0.07449,0.75609,-0.65022,-0.21176,-0.43983,-0.318
0.07457,0.78623,-0.61342,-0.30258,0.08007,-0.66072
0.0739,0.80564,-0.58777,-0.28768,0.50173,-0.08847
0.06161,0.83098,-0.55288,1.54497,0.91847,1.80015
0.09539,0.86397,-0.49442,-0.10525,1.0561,-0.7682
0.09249,0.87448,-0.47616,-0.31318,0.00539,-0.12658
0.08084,0.8912,-0.44636,-0.11765,-0.36193,0.57206
0.08932,0.90864,-0.40791,-0.37791,-0.2463,0.12367
0.09375,0.92497,-0.3683,-0.44807,-0.13131,0.08759
0.08959,0.94131,-0.32544,-0.37406,0.24582,0.37969
0.07861,0.9566,-0.28062,-0.19632,0.34373,0.3057
0.06525,0.9689,-0.23868,-0.08775,0.33015,0.24486
0.05644,0.97816,-0.20005,0.16176,0.16096,0.24469
0.04857,0.9844,-0.16908,0.27658,0.00928,0.2168
0.03694,0.98794,-0.15038,0.20847,-0.05994,0.13368
0.02683,0.9909,-0.13194,0.17244,-0.05753,0.18999
0.01869,0.99405,-0.10735,0.14476,-0.08752,0.11852
0.00707,0.99663,-0.08167,0.15638,-0.09011,0.09284
-0.00531,0.99815,-0.06062,0.27563,-0.096,0.09944
-0.01578,0.99893,-0.0435,0.2637,-0.16398,0.04249
-0.01808,0.99964,-0.01962,0.20215,-0.09457,-0.12685
-0.01655,0.99981,0.01047,0.14246,-0.05154,-0.22213
-0.01616,0.99932,0.03303,0.11889,0.07189,-0.13667
-0.01551,0.99862,0.05019,0.10746,0.09341,-0.15468
-0.01676,0.99789,0.06269,0.15431,0.06452,-0.22217
-0.01771,0.997,0.0754,0.17975,-0.10008,-0.03255
-0.01987,0.99563,0.09123,0.21253,-0.13859,-0.01076
-0.02671,0.99389,0.10712,0.15092,0.05767,0.00843
-0.03886,0.99139,0.12504,0.1518,0.08901,-0.01934
-0.05431,0.98829,0.14263,0.10334,0.14514,-0.09999
-0.07215,0.98476,0.15824,0.11923,0.47538,-0.07207
-0.09022,0.98117,0.17077,0.18638,0.53226,-0.09977
-0.10541,0.97905,0.1742,0.29707,0.70866,-0.18281
-0.11333,0.97951,0.16647,0.16878,0.58206,-0.35395
-0.11578,0.98201,0.14914,0.10016,0.51971,-0.41333
-0.11833,0.9853,0.12318,0.01873,0.33861,-0.58456
-0.12067,0.98874,0.08854,0.26099,0.25003,-0.82486
-0.1177,0.99213,0.04279,0.4759,0.31416,-0.75141
-0.10836,0.99399,-0.0159,0.58648,0.32936,-0.29229
-0.09471,0.99191,-0.08453,0.45245,0.30605,0.38178
-0.07913,0.98562,-0.14932,0.22017,0.06655,0.66037
-0.05933,0.97876,-0.19622,0.15652,-0.00274,0.70635
-0.03246,0.97452,-0.22193,-0.11189,0.01948,0.50459
-0.00885,0.97046,-0.24111,-0.24832,-0.08835,0.24413
0.00343,0.96277,-0.27031,-0.27214,-0.24368,0.13908
0.00604,0.95014,-0.31175,-0.03834,-0.02513,-0.01842
0.01317,0.93486,-0.35476,0.03016,0.17196,-0.06254
0.02827,0.91489,-0.4027,0.01416,0.19393,0.22288
0.04281,0.89198,-0.45004,0.06144,0.12018,0.4375
0.05329,0.86723,-0.49505,-0.07627,-0.08311,0.51452
0.05834,0.84183,-0.53658,-0.15011,-0.11085,0.50074
0.05658,0.81517,-0.57646,-0.2212,-0.15008,0.38297
0.04708,0.78796,-0.61393,-0.22727,-0.29835,0.40569
0.03214,0.76392,-0.64452,-0.20385,-0.40716,0.39424
0.01424,0.74514,-0.66676,-0.19068,-0.43424,0.30593
-0.00283,0.73228,-0.68099,-0.15342,-0.40332,0.24426
-0.01579,0.72611,-0.68739,-0.16199,-0.41351,0.2011
-0.02494,0.72783,-0.68531,-0.14053,-0.41952,0.07996
-0.02938,0.73872,-0.67338,-0.07345,-0.36271,0.03393
-0.02779,0.75884,-0.65068,0.02016,-0.28138,-0.09232
-0.02327,0.78756,-0.6158,0.11156,-0.06963,-0.53798
-0.01476,0.81421,-0.58038,0.13471,0.5978,-0.06858
0.00249,0.8328,-0.55357,0.10672,0.57425,0.16751
0.00419,0.86188,-0.5071,0.32462,0.49408,0.04406
0.02076,0.88005,-0.47442,-0.09359,0.13455,-0.04439
0.02454,0.89812,-0.43905,-0.04387,-0.24522,0.10864
0.03753,0.91598,-0.39946,-0.10269,-0.28274,0.23655
0.04879,0.93211,-0.35886,-0.19003,-0.08612,0.08192
0.0517,0.94719,-0.31649,-0.13598,0.15741,0.32573
0.04758,0.96095,-0.27261,-0.08443,0.38428,0.28542
0.03737,0.97253,-0.22974,0.07806,0.33092,0.21486
0.02827,0.98153,-0.1892,0.10359,0.24926,0.20589
0.02265,0.988,-0.15275,0.04916,-0.03547,0.23614
0.01683,0.99239,-0.12196,-0.07055,-0.11123,0.13429
0.00884,0.99546,-0.09474,-0.10555,-0.03626,0.11429
-0.00189,0.99776,-0.06683,-0.1034,0.01628,0.10937
-0.01613,0.999,-0.04158,-0.00932,0.03301,0.04134
-0.03039,0.99932,-0.02095,0.09697,0.02049,0.01542
-0.04051,0.99917,-0.00351,0.18656,-0.17425,-0.05115
-0.04788,0.99876,0.01386,0.23364,-0.17486,-0.04171
-0.04866,0.99824,0.03392,0.17837,-0.04415,-0.10479
-0.04645,0.99729,0.05704,0.08681,-0.02503,-0.11347
-0.04276,0.99637,0.07365,0.14085,-0.02049,-0.06529
-0.0403,0.99584,0.08176,0.21813,0.06613,-0.13408
-0.04026,0.99524,0.08877,0.17944,0.05667,-0.13285
-0.03863,0.99459,0.09642,0.18003,-0.06739,-0.00736
-0.03923,0.99372,0.10477,0.16466,0.03982,0.01354
-0.0431,0.99237,0.1155,0.08326,0.08614,-0.0191
-0.04981,0.99048,0.12831,0.05786,0.0384,-0.01348
-0.05454,0.98869,0.13971,-0.03909,0.086,-0.11551
-0.05944,0.98668,0.15142,-0.12494,0.377,-0.20947
-0.071,0.98395,0.16369,0.00763,0.69146,-0.31164
-0.08252,0.98162,0.17208,0.28032,0.85757,-0.32925
-0.09475,0.98086,0.17012,0.30622,0.51516,-0.34282
-0.10385,0.98213,0.15695,0.27531,0.27078,-0.52556
-0.10866,0.98494,0.13447,0.30739,0.21577,-0.54531
-0.10797,0.98907,0.1004,0.33549,0.1839,-0.53563
-0.10079,0.99352,0.05246,0.40018,0.27357,-0.55927
-0.08715,0.99617,-0.0067,0.39788,0.35708,-0.37256
-0.06675,0.99545,-0.06796,0.41941,0.23799,0.44513
-0.04727,0.99136,-0.12232,0.18741,0.11498,0.58247
-0.02947,0.98523,-0.16865,0.0517,0.15516,0.59703
-0.00568,0.98025,-0.19768,-0.04868,0.19326,0.19992
0.02704,0.97706,-0.21124,-0.26377,0.08816,-0.12802
0.05493,0.96999,-0.23686,-0.42604,-0.08655,0.11481
0.06749,0.95702,-0.28207,-0.09029,-0.06668,0.35537
0.07338,0.93989,-0.33349,0.34507,0.16162,0.17358
0.09838,0.91953,-0.3805,0.36669,0.18929,0.03367
0.12434,0.89793,-0.4222,0.00736,0.21005,0.24618
0.13319,0.87146,-0.47204,-0.08027,0.0194,0.50828
0.12849,0.84115,-0.52531,-0.15908,-0.16812,0.5749
0.11428,0.81123,-0.57345,-0.2512,-0.26053,0.55723
0.09247,0.78398,-0.61386,-0.31026,-0.33535,0.56333
0.06567,0.76181,-0.64446,-0.26765,-0.43919,0.49061
0.03771,0.74701,-0.66374,-0.17741,-0.50049,0.42823
0.01208,0.74193,-0.67037,-0.18807,-0.56651,0.34429
-0.00738,0.74829,-0.66333,-0.18004,-0.61601,0.09413
-0.01558,0.76791,-0.64036,0.00369,-0.57191,0.21447
-0.00687,0.8,-0.59996,0.00416,-0.36093,0.46578
0.02094,0.82734,-0.56131,-0.51983,0.24427,-0.21373
0.03281,0.85213,-0.52229,0.78044,1.67874,0.3427
0.06477,0.87679,-0.47649,0.0428,0.40869,-0.05156
0.06417,0.89011,-0.45121,-0.29313,-0.19214,-0.26255
0.06059,0.90321,-0.42489,-0.14665,-0.54794,0.48668
0.06853,0.91748,-0.39183,-0.3996,-0.2115,-0.08195
0.06494,0.93123,-0.35861,-0.43057,-0.0628,0.05598
0.05583,0.9454,-0.32109,-0.16992,0.4408,0.30753
0.04353,0.95737,-0.28555,-0.02743,0.49444,0.23492
0.03153,0.9661,-0.25621,0.25533,0.38567,0.23957
0.026,0.9735,-0.22719,0.39299,0.08961,0.24739
0.02263,0.97986,-0.19837,0.31567,-0.03657,0.19924
0.01718,0.98458,-0.17407,0.1635,-0.09661,0.14198
0.01073,0.98848,-0.15097,0.0976,-0.09811,0.12729
0.00238,0.9922,-0.12459,0.02885,-0.08553,0.13095
-0.00939,0.99513,-0.09812,0.03179,0.00699,0.0761
-0.02245,0.99695,-0.07468,0.08156,-0.04368,0.06513
-0.03445,0.99781,-0.05647,0.08125,-0.12437,0.14287
-0.04172,0.9982,-0.04299,0.05164,-0.09238,0.07803
-0.04262,0.99884,-0.02227,0.06207,-0.08208,-0.09742
-0.03875,0.99925,0.00235,0.03083,-0.00417,-0.15059
-0.03439,0.99914,0.02298,0.03554,0.06498,-0.08443
-0.02916,0.99884,0.03823,0.10782,0.04393,-0.05565
-0.02465,0.99846,0.04973,0.18759,0.04648,-0.19431
-0.02162,0.99798,0.05976,0.22108,-0.02225,-0.17416
-0.02126,0.99731,0.07006,0.19675,0.01636,0.04128
-0.02166,0.99673,0.07785,0.0951,0.08646,-0.00017
-0.02686,0.99592,0.08615,0.03728,0.07165,-0.03816
-0.02558,0.9958,0.0879,0.10781,0.15294,-0.12414
-0.04147,0.99421,0.09914,0.09229,0.29108,-0.15294
-0.05635,0.9923,0.11027,0.16673,0.52789,-0.12951
-0.06867,0.9905,0.11915,0.45095,0.83558,-0.10006
-0.07638,0.98972,0.12087,0.2414,0.46828,-0.25726
-0.08091,0.99016,0.11412,0.18702,0.27837,-0.49166
-0.08263,0.99176,0.0979,0.14442,0.24094,-0.54632
-0.08237,0.99413,0.07013,0.22304,0.25038,-0.59332
-0.07771,0.9966,0.02746,0.29126,0.3401,-0.59794
-0.06658,0.99739,-0.02785,0.36041,0.4969,-0.33147
-0.05001,0.99482,-0.08854,0.44382,0.3621,0.38372
-0.0338,0.98772,-0.15249,0.33274,0.10778,0.67334
-0.01437,0.97767,-0.20967,0.00186,0.11335,0.7477
0.01426,0.97041,-0.24102,-0.26989,0.03721,0.3577
0.05144,0.96598,-0.25344,-0.35654,-0.03019,0.09765
0.08232,0.95822,-0.27391,-0.51395,-0.12816,0.07849
0.0986,0.94585,-0.30926,-0.17289,-0.0947,0.19287
0.11123,0.92803,-0.3555,0.18332,0.05042,0.23232
0.12911,0.90449,-0.40649,0.23046,0.06823,0.08795
0.15245,0.87944,-0.45094,-0.05107,0.05165,0.30467
0.16366,0.85266,-0.49617,-0.09905,0.04668,0.49894
0.15978,0.82244,-0.54594,-0.09182,-0.04626,0.5081
0.14981,0.79092,-0.5933,-0.19984,-0.13384,0.46043
0.13454,0.76135,-0.63423,-0.3187,-0.23948,0.46132
0.11532,0.73562,-0.6675,-0.34199,-0.33523,0.41521
0.09366,0.71628,-0.6915,-0.3195,-0.36272,0.388
0.07318,0.70596,-0.70446,-0.30531,-0.37911,0.37013
0.05525,0.70512,-0.70694,-0.23494,-0.52679,0.24197
0.04099,0.71415,-0.69879,-0.11046,-0.44489,0.1465
0.03391,0.73298,-0.67941,-0.08073,-0.44754,0.04621
0.03501,0.7609,-0.64792,0.25793,-0.11974,-0.39497
0.04841,0.78769,-0.61417,0.03012,0.38609,0.26331
0.06736,0.80877,-0.58426,-0.6802,0.86615,-0.49713
0.06671,0.83519,-0.54589,0.69647,1.15693,-0.32189
0.08357,0.855,-0.51185,0.00752,0.08299,0.24019
0.08477,0.87252,-0.48116,-0.26944,-0.43823,-0.11417
0.09234,0.88937,-0.44776,-0.22467,-0.59802,0.22394
0.10517,0.9069,-0.40802,-0.37181,-0.19089,0.03727
0.10963,0.92411,-0.36606,-0.33694,0.18169,0.2182
0.10535,0.94134,-0.3206,-0.17399,0.44355,0.27292
0.0943,0.95628,-0.27684,0.05085,0.4842,0.2502
0.08254,0.96803,-0.23688,0.19501,0.32626,0.19272
0.07329,0.97668,-0.20181,0.22575,0.11861,0.22357
0.06318,0.98317,-0.17144,0.22002,-0.0995,0.25737
0.04729,0.98732,-0.15154,0.07553,-0.14648,0.1734
0.03182,0.99056,-0.1333,0.02189,-0.1126,0.1969
0.02008,0.99411,-0.10645,-0.01893,-0.10741,0.21537
0.01024,0.99691,-0.07784,-0.04871,-0.06849,0.00284
-0.00073,0.99853,-0.05411,-0.01444,-0.0641,0.06651
-0.00935,0.99928,-0.03674,0.09418,-0.10951,0.08949
-0.01794,0.99957,-0.0231,0.15607,-0.13934,0.07706
-0.02151,0.99977,-0.00038,0.18773,-0.13284,-0.15824
-0.02005,0.99954,0.02247,0.13607,-0.00978,-0.1204
-0.01726,0.99912,0.03806,0.1064,0.03744,0.00206
-0.01543,0.99864,0.04984,0.25849,0.05659,-0.05837
-0.01464,0.99827,0.05695,0.29383,0.13084,-0.05981
-0.0127,0.99801,0.06168,0.25596,-0.00402,-0.07173
-0.0106,0.99768,0.06715,0.21925,-0.02423,-0.05698
-0.00206,0.99741,0.07191,0.16548,0.05234,-0.06724
0.00096,0.99672,0.08086,0.15131,0.04919,-0.04263
-1e-05,0.99591,0.09033,0.16098,0.0448,-0.05091
-0.00235,0.99494,0.10045,0.07765,0.33185,-0.03146
-0.01521,0.99318,0.11558,0.15327,0.43137,-0.05954
-0.02722,0.99175,0.12521,0.26179,0.55034,-0.06129
-0.03342,0.99118,0.12826,0.12999,0.49644,-0.29013
-0.03387,0.99165,0.12442,0.03029,0.3863,-0.34027
-0.03254,0.99305,0.11305,-0.07778,0.29634,-0.39437
-0.03063,0.99552,0.08942,0.00524,0.28576,-0.54566
-0.02392,0.9985,0.04922,0.05893,0.2916,-0.50927
-0.01206,0.99991,-0.0045,0.13519,0.34246,-0.44663
0.00299,0.99769,-0.06785,0.39661,0.35729,0.31086
0.0197,0.99068,-0.13479,0.33044,0.27135,0.47964
0.03557,0.98025,-0.19451,0.17689,0.19354,0.50968
0.05676,0.97027,-0.23529,-0.24493,0.29618,0.38964
0.09136,0.9624,-0.25579,-0.30089,0.18866,0.31559
0.12484,0.95259,-0.27746,-0.52285,-0.09012,0.18732
0.14633,0.93878,-0.3119,-0.57246,-0.10333,0.26203
0.15912,0.92261,-0.35137,-0.38701,0.00632,0.17077
0.16956,0.90167,-0.3978,0.06703,0.14634,0.0422
0.18684,0.87648,-0.44371,0.16588,0.19982,0.05242
0.20681,0.85043,-0.48373,0.08181,0.18129,0.26776
0.2132,0.8221,-0.52792,-0.11193,-0.05525,0.65241
0.20275,0.78963,-0.57911,-0.24884,-0.19532,0.56659
0.18221,0.75825,-0.62599,-0.28656,-0.20661,0.53634
0.15713,0.73,-0.66514,-0.34745,-0.30431,0.37304
0.1296,0.70575,-0.69651,-0.26961,-0.37028,0.35261
0.10193,0.68813,-0.71839,-0.21317,-0.37589,0.36533
0.0772,0.67893,-0.73013,-0.18506,-0.44668,0.35496
0.05931,0.67848,-0.73222,-0.18774,-0.4407,0.33368
0.05117,0.68688,-0.72497,-0.16427,-0.37822,0.20031
0.05507,0.70323,-0.70882,-0.09348,-0.25592,-0.0283
0.06511,0.7269,-0.68365,0.02077,-0.0736,-0.34689
0.07524,0.75214,-0.65469,0.08387,0.33271,-0.02094
0.0947,0.77563,-0.62404,0.30212,0.54406,-0.19712
0.10035,0.8059,-0.58348,1.04076,0.81748,0.26642
0.12264,0.82757,-0.5478,-0.28664,0.34115,-0.20191
0.11175,0.84488,-0.52315,-0.16692,-0.16592,-0.33351
0.11122,0.86392,-0.4912,0.00165,-0.52313,0.70316
0.12577,0.88327,-0.45167,-0.19717,-0.36099,0.07123
0.13064,0.89921,-0.41756,-0.26754,-0.13337,0.19586
0.13511,0.9161,-0.37749,-0.19726,0.17627,0.40494
0.13759,0.93288,-0.33287,-0.1654,0.32031,0.33973
0.13735,0.94801,-0.28708,0.12471,0.34138,0.1704
0.13918,0.95981,-0.24371,0.22672,0.20398,0.20085
0.14005,0.96828,-0.20694,0.20454,0.11217,0.19159
0.13586,0.97465,-0.17777,0.01044,0.01737,0.13003
0.12682,0.98096,-0.14711,-0.08429,-0.02933,0.07818
0.11237,0.98735,-0.11183,-0.10161,-0.08509,0.05705
0.09097,0.99266,-0.07965,-0.0405,-0.107,0.02194
0.06685,0.99641,-0.05194,-0.02701,-0.11158,0.03461
0.04617,0.99847,-0.03032,0.01328,-0.12576,0.03832
0.02607,0.99955,-0.01475,0.06464,-0.11204,0.03337
0.01031,0.99991,0.00861,0.16382,-0.08151,-0.1706
0.00231,0.99928,0.03791,0.09896,-0.06997,-0.22312
-0.00443,0.99805,0.06217,0.02503,-0.08819,-0.25295
-0.0124,0.99633,0.08467,-0.03912,-0.18022,-0.12035
-0.02332,0.99349,0.11153,-0.02508,-0.16602,-0.13187
-0.0387,0.98938,0.14009,-0.00147,-0.11699,-0.17415
-0.05721,0.98486,0.16362,0.21877,-0.01004,-0.09433
-0.075,0.97995,0.1846,0.25094,-0.05772,-0.07148
-0.0899,0.97447,0.20574,0.25297,-0.10665,-0.10758
-0.10245,0.97012,0.21993,0.3992,0.04605,-0.06923
-0.1136,0.96832,0.22238,0.47214,0.07695,-0.07469
-0.11785,0.96905,0.21693,0.6116,0.223,-0.05297
-0.10926,0.97242,0.20606,0.60125,0.21566,0.03081
-0.08671,0.97775,0.19101,0.36527,0.47337,0.00099
-0.05589,0.98337,0.1728,-0.33915,0.90005,-0.41653
-0.02907,0.98908,0.14446,-0.19366,0.51118,-0.43347
-0.0074,0.99501,0.09948,0.01456,0.30253,-0.17307
0.01546,0.99891,0.04399,-0.13042,0.17766,-0.05006
0.04125,0.99907,-0.01259,-0.47001,0.34055,-0.33281
0.06638,0.99494,-0.07542,-0.8608,0.31913,-0.10585
0.07927,0.98792,-0.13313,-0.95467,0.20774,0.24706
0.08503,0.97846,-0.1881,-0.71652,0.11675,0.52256
0.08318,0.96559,-0.24641,-0.42632,-0.02728,0.46136
0.07366,0.95096,-0.30041,-0.06021,0.02841,0.29759
0.07006,0.93604,-0.34484,0.06553,0.02495,0.26048
0.08051,0.92129,-0.38045,0.07261,0.04389,0.25892
0.09575,0.90615,-0.41198,-0.06183,-0.0757,0.35839
0.10898,0.89055,-0.44164,-0.22104,-0.19174,0.40156
0.11821,0.87693,-0.46586,-0.2818,-0.31461,0.40533
0.1229,0.86663,-0.48357,-0.22353,-0.28534,0.36567
0.12169,0.85993,-0.49569,-0.22822,-0.28608,0.39133
0.11691,0.85796,-0.50024,-0.20584,-0.3225,0.38169
0.10989,0.86153,-0.49567,-0.20529,-0.41333,0.38512
0.10439,0.87078,-0.48046,-0.25593,-0.46841,0.3588
0.10252,0.88554,-0.45311,-0.30079,-0.4324,0.29326
0.10533,0.90477,-0.41267,-0.2796,-0.33063,0.18065
0.1124,0.9257,-0.36117,-0.15293,-0.012,-0.1583
0.12083,0.94458,-0.30523,-0.09966,0.11077,-0.37388
0.12682,0.95849,-0.25538,-0.02792,0.30873,-0.58696
0.12732,0.96585,-0.22567,0.76031,0.89195,-0.28544
0.13292,0.96732,-0.21591,0.72986,0.75143,-0.27335
0.14496,0.96531,-0.21717,0.34531,0.51015,-0.48878
0.14793,0.96197,-0.22963,-0.20054,-0.20007,-0.07589
0.14803,0.9627,-0.22649,-0.21123,-0.34374,0.09195
0.14695,0.96683,-0.20891,-0.24338,-0.46619,0.25818
0.1431,0.97395,-0.17588,-0.65996,0.36873,0.55529
0.13355,0.98236,-0.13092,-0.67197,0.77304,0.40976
0.12449,0.98778,-0.09377,-0.73981,1.03329,0.08806
0.13225,0.9889,-0.06778,0.31939,-0.10573,-0.17962
0.1464,0.9882,-0.04502,0.09087,-0.28733,0.01654
0.15345,0.98776,-0.028,-0.27697,-0.46347,0.35608
0.15179,0.98841,-0.00202,-0.79881,-0.38053,0.6568
0.13989,0.98965,0.03179,-0.66741,-0.25435,0.48943
0.12302,0.99037,0.06353,-0.22221,0.07743,0.35127
0.11085,0.98967,0.09092,0.11011,0.30217,0.24645
0.10912,0.98752,0.11355,0.63528,0.47793,-0.03173
0.11535,0.98456,0.13167,0.0248,0.06891,-0.25925
0.12544,0.98047,0.15145,-0.44322,-0.04011,-0.08812
0.13634,0.97671,0.1657,-0.47279,-0.03133,0.00917
0.13929,0.97327,0.18261,-0.30705,-0.1364,0.12215
0.13621,0.97019,0.20047,-0.12467,-0.05193,-0.02124
0.13413,0.96788,0.21263,-0.02945,-0.01006,-0.0069
0.13429,0.96611,0.22043,0.15448,0.03805,0.04553
0.13323,0.96476,0.22691,0.22569,-0.11857,-0.04041
0.12925,0.96297,0.23662,0.14379,-0.13298,-0.11341
0.12408,0.96118,0.24645,0.06206,-0.06875,-0.13205
0.11598,0.95979,0.25566,0.1131,-0.05599,-0.14605
0.10586,0.95858,0.26442,0.17348,-0.01482,-0.15866
0.09461,0.95712,0.2738,0.19549,0.0035,-0.23047
0.0843,0.9556,0.28234,0.20901,-0.04392,-0.29661
0.07671,0.95452,0.2881,0.14486,-0.02777,-0.26805
0.07013,0.95382,0.29206,0.15715,-0.11586,-0.13157
0.06409,0.95408,0.29263,0.23057,0.00321,0.0185
0.06267,0.95518,0.28932,0.32623,0.1103,0.08295
0.06983,0.95665,0.28273,0.42752,0.23101,-0.00088
0.08076,0.95703,0.27851,0.18108,0.35304,-0.30873
0.09408,0.95734,0.27324,-0.1268,0.41023,-0.60452
0.10693,0.9617,0.25238,-0.14848,0.6685,-0.47113
0.12429,0.9699,0.20938,-0.22222,0.75858,-0.50347
0.14689,0.97706,0.15418,-0.19783,0.32442,-0.47763
0.1631,0.98288,0.08565,-0.28104,0.111,-0.30849
0.17612,0.98429,0.01231,-0.93492,0.52846,-0.01287
0.17627,0.98274,-0.05616,-1.32563,0.46627,0.13186
0.16604,0.97908,-0.11758,-1.40679,0.26768,0.25088
0.1605,0.9722,-0.1705,-0.11207,-0.00189,0.42533
0.16045,0.96475,-0.20861,-0.11202,0.00556,0.46344
0.1732,0.9572,-0.23187,0.38925,-0.00483,0.18875
0.1937,0.94785,-0.25309,0.13148,0.02239,0.17593
0.20699,0.93696,-0.28154,-0.01479,-0.09989,0.2477
0.21288,0.92585,-0.31224,-0.10007,-0.16533,0.29909
0.21302,0.91565,-0.34089,-0.05287,-0.30939,0.21282
0.20827,0.90643,-0.36743,-0.05777,-0.33054,0.26614
0.2034,0.89915,-0.38749,-0.16458,-0.36697,0.31567
0.20148,0.89553,-0.39678,-0.30748,-0.36852,0.28126
0.20187,0.89675,-0.3938,-0.34503,-0.36085,0.22707
0.2022,0.90305,-0.37896,-0.33437,-0.38834,0.20539
0.19998,0.91387,-0.35335,-0.32977,-0.39434,0.16896
0.19654,0.92787,-0.31692,-0.33605,-0.40467,0.14147
0.19486,0.94373,-0.26722,-0.31942,-0.37473,0.05061
0.1959,0.95866,-0.2064,-0.28472,-0.26847,-0.13085
0.19625,0.97004,-0.14318,-0.27612,-0.22723,-0.34246
0.1898,0.97818,-0.08454,-0.11329,0.36295,-0.58515
0.17648,0.98373,-0.03349,0.41844,0.87569,-0.49997
0.16367,0.98651,-0.00132,1.1047,1.37991,-0.68925
0.16153,0.98686,0.00328,0.3936,0.72855,-0.29667
0.16573,0.98615,0.00606,0.05902,0.44027,-0.09719
0.16815,0.98562,0.01649,-0.63206,0.48346,0.34397
0.15643,0.98728,0.0284,-1.2808,0.15603,-0.23198
0.13789,0.98998,0.03057,-1.19279,-0.26286,-0.13394
0.13472,0.9899,0.04424,-0.49019,-0.63655,0.41304
0.12894,0.9886,0.07777,-0.37912,-0.51136,0.45403
0.11243,0.98719,0.1132,-0.32922,-0.17327,0.39616
0.08757,0.98687,0.13575,-0.05051,0.12112,0.25967
0.06717,0.98624,0.15108,0.3479,0.43228,0.25439
0.06202,0.98379,0.16823,0.847,0.2832,0.18353
0.06526,0.98204,0.17702,0.6706,0.02737,0.20498
0.07043,0.98074,0.18215,0.13649,0.15988,-0.62496
0.08548,0.97674,0.19667,-0.20987,0.21482,-0.33563
0.09656,0.9735,0.20731,-0.28673,-0.01319,-0.21831
0.10006,0.97127,0.21594,-0.19236,-0.05081,-0.12319
0.10225,0.96961,0.22228,0.02891,0.03451,-0.14861
0.10641,0.9687,0.22425,0.10491,0.20842,-0.09338
0.11361,0.96696,0.22819,0.07889,0.09015,-0.06621
0.1218,0.96491,0.23262,0.10601,-0.15448,-0.03778
0.12903,0.96336,0.23512,0.13851,-0.16717,-0.06171
0.13377,0.96183,0.23872,0.18816,-0.16703,-0.10293
0.13513,0.96027,0.24418,0.20581,-0.06908,-0.1841
0.13401,0.95865,0.25107,0.09856,0.00609,-0.28348
0.12986,0.95729,0.25832,0.09575,0.01974,-0.33704
0.12165,0.95631,0.26583,0.03146,0.26342,-0.31982
0.10967,0.95534,0.27442,0.04377,0.36473,-0.28952
0.09558,0.95394,0.28437,0.08803,0.52368,-0.24819
0.08373,0.95347,0.28961,0.23711,0.64994,-0.25633
0.08156,0.95561,0.28314,0.10691,0.6693,-0.24571
0.08572,0.95934,0.26891,-0.00613,0.69319,-0.29557
0.0931,0.96538,0.24366,0.13598,0.35606,-0.60243
0.10562,0.97392,0.20083,0.15601,0.24683,-0.59156
0.12297,0.98227,0.14148,0.17328,0.25535,-0.53
0.13953,0.98727,0.07632,0.05891,0.55452,-0.11199
0.15193,0.98833,0.01075,0.02023,0.55639,0.0252
0.1661,0.98474,-0.05187,-0.05001,0.32963,0.12781
0.18858,0.97622,-0.10695,-0.20887,0.11068,0.15814
0.21005,0.96534,-0.15491,-0.45814,-0.04122,0.4249
0.22588,0.9536,-0.19906,-0.52491,-0.14174,0.54247
0.23846,0.94178,-0.23703,-0.45342,-0.15899,0.51869
0.25222,0.92904,-0.27069,-0.3039,0.00567,0.09241
0.26697,0.90895,-0.32021,0.0366,0.07132,-0.01299
0.28285,0.88218,-0.37649,0.10334,-0.0049,0.10004
0.29906,0.85397,-0.42578,0.04306,0.07721,0.23502
0.29979,0.82482,-0.47938,-0.2814,-0.10353,0.57261
0.28889,0.79471,-0.53383,-0.35916,-0.2065,0.51071
0.27284,0.76763,-0.57991,-0.38788,-0.1944,0.49262
0.25184,0.7451,-0.61758,-0.48876,-0.38135,0.34921
0.22716,0.72997,-0.64463,-0.5138,-0.46581,0.32985
0.19992,0.72584,-0.65817,-0.50004,-0.54025,0.35287
0.17445,0.73313,-0.65733,-0.40997,-0.65957,0.2404
0.16186,0.7534,-0.63733,-0.33604,-0.69353,0.08409
0.16245,0.78632,-0.59608,-0.08631,-0.41074,-0.39823
0.17604,0.81841,-0.54701,-0.49832,0.02769,0.70874
0.17393,0.85086,-0.49577,-1.02184,0.49178,0.2102
0.1943,0.87498,-0.44347,1.0266,2.60447,-0.31945
0.18769,0.89124,-0.41287,0.02548,0.11694,-0.21049
0.17201,0.90253,-0.39477,-0.19582,-0.66968,0.35882
0.17094,0.91607,-0.36277,-0.59231,-0.58239,-0.14482
0.16509,0.93103,-0.32547,-0.56213,-0.42038,0.28167
0.15449,0.94755,-0.27978,-0.36868,-0.10748,0.39284
0.1409,0.9628,-0.23055,-0.1938,0.22637,0.30567
0.12629,0.9754,-0.1807,0.07397,0.40735,0.26183
0.11485,0.98447,-0.13274,0.41962,0.3357,0.21985
0.10979,0.98982,-0.09061,0.7227,0.15783,0.02417
0.10374,0.99276,-0.06054,0.63585,-0.04945,-0.02839
0.09498,0.99455,-0.0429,0.16784,-0.157,-0.01389
0.08936,0.99587,-0.01625,0.05568,-0.17653,-0.04805
0.08069,0.99653,0.02022,-0.18632,-0.21592,-0.09857
0.0674,0.99646,0.05023,-0.15527,-0.15831,-0.21432
0.05127,0.99653,0.0656,-0.07235,-0.1379,-0.14966
0.03643,0.99648,0.07549,0.25128,-0.05506,0.00962
0.02622,0.99577,0.08805,0.31639,-0.10283,-0.081
0.022,0.9936,0.11082,0.29478,-0.03185,-0.20651
0.02068,0.99114,0.13119,0.21423,0.03336,-0.19673
0.01998,0.98896,0.1468,0.06248,0.01168,-0.12298
0.01991,0.98673,0.16112,0.10715,0.02355,-0.15658
0.01828,0.98544,0.16903,0.11614,0.07535,-0.15665
0.01652,0.98485,0.17261,0.03888,0.11372,-0.1509
0.01273,0.98405,0.17741,0.06604,0.11968,-0.09854
0.0083,0.98279,0.18457,0.05252,0.12143,-0.05842
0.00814,0.98199,0.18874,-0.04622,0.1151,-0.14565
0.0003,0.97947,0.20159,0.00782,0.19677,-0.20046
-0.01047,0.9766,0.21479,0.09821,0.29644,-0.25257
-0.02383,0.97379,0.22619,0.68904,0.69091,-0.28036
-0.0382,0.97311,0.22717,0.70839,0.70905,-0.19482
-0.04701,0.97503,0.21702,0.26836,0.42894,-0.34719
-0.05019,0.979,0.19756,0.16352,0.40037,-0.46897
-0.04489,0.98453,0.16938,0.02685,0.25172,-0.60441
-0.03376,0.99059,0.13267,0.01225,0.23903,-0.7477
-0.01883,0.99596,0.08782,0.19066,0.31238,-0.76177
-0.00264,0.99944,0.03331,0.30744,0.35543,-0.56303
0.01299,0.99941,-0.03181,0.45205,0.2194,0.27186
0.03058,0.99426,-0.10252,0.16563,0.09552,0.42955
0.0492,0.98653,-0.156,-0.01119,0.16185,0.5688
0.07133,0.97931,-0.18937,-0.34085,0.06885,0.53546
0.09366,0.97209,-0.2151,-0.34308,-0.08945,0.44427
0.11225,0.96401,-0.24099,-0.29691,-0.09425,0.37408
0.13494,0.95352,-0.26941,-0.07294,0.08758,-0.07626
0.16278,0.9369,-0.30939,0.07869,0.26314,-0.33343
0.19217,0.91372,-0.35804,0.07338,0.15721,-0.17057
0.21364,0.88913,-0.40473,-0.01236,-0.00728,0.43498
0.21661,0.86322,-0.45599,-0.04298,-0.13215,0.67321
0.20283,0.8349,-0.51167,-0.17227,-0.2926,0.62304
0.17862,0.80663,-0.56341,-0.2845,-0.37045,0.5518
0.14803,0.78079,-0.607,-0.39016,-0.51492,0.48653
0.11621,0.76085,-0.63844,-0.37254,-0.5041,0.40989
0.08765,0.74877,-0.65701,-0.37587,-0.51682,0.42454
0.06735,0.74599,-0.66254,-0.47417,-0.53249,0.32987
0.05843,0.75395,-0.65433,-0.46342,-0.52301,0.1041
0.06135,0.7735,-0.63082,-0.35577,-0.46636,-0.16837
0.07623,0.80028,-0.59476,-0.19298,-0.08579,-0.49522
0.11217,0.81994,-0.56135,-0.20969,0.03637,0.04223
0.11503,0.85124,-0.51201,0.37701,0.75124,1.07144
0.15409,0.87312,-0.46251,0.35386,1.25389,-0.89324
0.16409,0.88911,-0.42726,0.31298,0.94728,-0.23157
0.16425,0.90181,-0.39971,0.07104,-0.14865,0.04909
0.1685,0.91342,-0.3705,-0.17078,-0.2621,0.00278
0.16793,0.92557,-0.33928,-0.39939,-0.06295,0.08055
0.16234,0.93838,-0.30512,-0.30708,0.07235,0.20992
0.15271,0.95077,-0.26967,-0.19061,0.26089,0.16748
0.14051,0.96201,-0.23408,-0.02681,0.35649,0.27109
0.12989,0.9718,-0.1968,0.15476,0.33158,0.15597
0.12208,0.97967,-0.15918,0.26388,0.21114,0.17719
0.11612,0.98576,-0.12164,0.1662,0.09135,0.17063
0.10775,0.9908,-0.08182,0.05989,0.03465,0.06981
0.09476,0.99473,-0.03902,0.01805,0.05142,0.0588
0.0755,0.99714,-0.00144,0.05399,0.03736,0.01546
0.0542,0.99815,0.02756,0.05292,0.04691,0.04441
0.03604,0.99798,0.05224,0.13381,-0.12806,-0.04928
0.02476,0.99684,0.07552,0.1297,-0.1853,-0.11014
0.0183,0.99516,0.09656,0.06789,-0.22505,-0.1531
0.01041,0.99291,0.11842,0.17203,-0.16561,-0.07615
0.00556,0.98983,0.14212,0.17396,-0.07115,-0.09016
0.00404,0.98673,0.16231,0.14548,-0.11889,-0.05423
0.00163,0.98306,0.18329,0.14964,0.04743,-0.13194
-0.00377,0.97889,0.20437,0.23005,0.10723,-0.09719
-0.00919,0.97559,0.21939,0.0633,0.1506,-0.11718
-0.01697,0.97253,0.23217,0.13185,0.25773,-0.26189
-0.02701,0.9699,0.24201,0.27468,0.19931,-0.36213
-0.0389,0.96728,0.25069,0.33486,0.28871,-0.36249
-0.05215,0.96513,0.25654,0.44726,0.40737,-0.36172
-0.06344,0.96504,0.2543,0.37333,0.54564,-0.24333
-0.06699,0.96745,0.24404,0.19234,0.4652,-0.35137
-0.06309,0.97188,0.22684,0.06124,0.38232,-0.44986
-0.054,0.97775,0.20272,-0.04962,0.30263,-0.51306
-0.04437,0.98436,0.17047,0.02252,0.29899,-0.58094
-0.03213,0.99092,0.13054,0.15267,0.34142,-0.62551
-0.01804,0.9962,0.08523,0.29198,0.28806,-0.52447
-0.00307,0.99946,0.03275,0.41718,0.2777,-0.00043
0.01342,0.99962,-0.02403,0.4445,0.15312,0.49835
0.03499,0.99678,-0.07209,0.16933,0.05348,0.66453
0.06029,0.99249,-0.10644,-0.11788,0.10682,0.55937
0.08745,0.98809,-0.12659,-0.31563,0.05883,0.25811
0.11378,0.98262,-0.14664,-0.37197,-0.08915,0.06296
0.13317,0.97466,-0.17973,-0.342,-0.10551,0.04702
0.15505,0.96322,-0.21945,0.01784,0.18181,-0.1157
0.18281,0.94731,-0.26303,-0.00991,0.19773,-0.07211
0.21089,0.92596,-0.31326,0.10354,0.20142,0.16236
0.23308,0.90202,-0.36336,-0.04941,0.01933,0.40403
0.24363,0.8763,-0.41562,-0.1595,-0.04055,0.43941
0.2427,0.84919,-0.46901,-0.36601,-0.14675,0.40681
0.23009,0.82167,-0.52146,-0.46031,-0.27403,0.4087
0.21007,0.79619,-0.56741,-0.43045,-0.30898,0.42077
0.18805,0.77677,-0.60106,-0.29707,-0.40128,0.3563
0.16747,0.7659,-0.62077,-0.24687,-0.35353,0.30067
0.1467,0.76395,-0.62837,-0.22823,-0.38033,0.24501
0.12815,0.77268,-0.62173,-0.19744,-0.41716,0.14033
0.11713,0.79418,-0.59629,-0.21679,-0.51624,0.08181
0.11854,0.82499,-0.55258,-0.26351,-0.33791,0.27412
0.13827,0.84769,-0.51216,-0.37701,-0.19142,0.08688
0.14225,0.87475,-0.46323,0.07503,0.76154,-0.2672
0.18896,0.89693,-0.39976,0.86898,1.69673,0.83694
0.19606,0.91006,-0.36517,-0.05861,0.35399,-0.78299
0.1946,0.92023,-0.33956,0.0551,-0.42531,0.47043
0.20571,0.93094,-0.30173,-0.21125,-0.51373,-0.06548
0.20321,0.94148,-0.26893,-0.50562,-0.31091,-0.12948
0.19099,0.95422,-0.23019,-0.49931,0.2882,0.21243
0.17093,0.96699,-0.18897,-0.22466,0.44423,0.12746
0.15111,0.97671,-0.1523,0.12878,0.33084,0.08375
0.13577,0.98293,-0.12414,0.21323,0.07347,0.1008
0.12423,0.98732,-0.0988,0.05903,-0.06333,0.10655
0.11577,0.99081,-0.06998,-0.03221,-0.13052,0.09259
0.10765,0.99348,-0.03756,-0.05976,-0.14082,0.09612
0.09736,0.99524,-0.00446,-0.02431,-0.12779,0.06692
