gravity.x,gravity.y,gravity.z,userAcceleration.x,userAcceleration.y,userAcceleration.z
-0.22333,0.74092,0.63337,0.27384,0.14663,-0.05419
-0.21445,0.76768,0.60388,0.21007,-0.0981,0.06023
-0.20713,0.79371,0.57194,0.43806,0.14457,0.04688
-0.20372,0.81836,0.53738,0.47245,0.28331,-0.18489
-0.20401,0.83961,0.50341,0.48552,0.16415,0.00227
-0.20568,0.86167,0.46391,0.30483,0.07219,-0.07197
-0.20838,0.88533,0.41564,0.30753,0.04854,-0.0237
-0.20594,0.90645,0.36868,0.07458,0.23761,-0.19978
-0.19724,0.92419,0.32704,-0.08357,0.31909,-0.23064
-0.18402,0.93847,0.29225,-0.12259,0.19592,-0.1725
-0.16905,0.94966,0.26374,-0.05871,-0.0577,-0.12411
-0.15286,0.95917,0.23796,0.02253,-0.26825,-0.04346
-0.1332,0.96781,0.21351,0.10696,-0.37481,-0.01371
-0.112,0.97504,0.19168,0.20077,-0.33762,0.00955
-0.09186,0.98118,0.16986,0.12842,-0.16695,-0.03894
-0.07204,0.98642,0.14761,0.05507,-0.09216,-0.03504
-0.05462,0.99044,0.12667,-0.0003,-0.04514,-0.02236
-0.03888,0.9933,0.10884,-0.10793,-0.02409,0.00954
-0.02429,0.99506,0.09625,-0.1606,-0.0409,-0.08955
-0.01154,0.99638,0.08426,-0.13409,-0.01481,-0.0394
-0.00071,0.99745,0.07131,-0.02903,0.03833,-0.05823
0.00988,0.99817,0.05957,-0.01388,0.07809,0.02196
0.02128,0.99882,0.04358,0.07677,0.09079,0.25379
0.03561,0.999,0.0268,0.14561,0.0477,0.11871
0.0539,0.99849,0.01066,-0.00494,0.11139,0.14669
0.0724,0.99737,-0.00288,-0.14164,0.39701,0.29234
0.0887,0.996,-0.01073,-0.05023,0.44963,0.30736
0.10264,0.99471,-0.00444,-0.05656,0.47078,0.15312
0.11106,0.9937,0.01463,-0.39887,0.59582,-0.09381
0.11313,0.99272,0.04136,-0.4179,0.56489,-0.03475
0.10703,0.99182,0.06945,-0.02956,0.4862,0.24211
0.09284,0.99077,0.09878,0.26823,0.39255,0.53827
0.06415,0.989,0.13325,0.1983,0.34799,0.4598
0.01927,0.98474,0.17293,-0.20688,0.22119,0.05235
-0.02954,0.97663,0.21288,-0.25909,0.24764,-0.24507
-0.06775,0.96392,0.2574,0.20818,0.03083,-0.01753
-0.09998,0.94733,0.30423,0.34339,0.18346,-0.12711
-0.12228,0.92539,0.35873,0.54744,0.13287,-0.09755
-0.14027,0.89908,0.4147,0.59487,-0.08665,-0.00363
-0.15161,0.8686,0.47174,0.50861,-0.03782,-0.23148
-0.17306,0.83472,0.52277,0.12559,0.32667,-0.0102
-0.1987,0.79945,0.56691,0.03807,0.1396,-0.1411
-0.20463,0.76085,0.61582,0.15706,-0.04938,-0.4208
-0.19738,0.7262,0.65853,0.12505,-0.64965,-0.34169
-0.17918,0.69706,0.69426,0.04899,-0.43276,-0.31133
-0.15551,0.67616,0.72015,0.1273,-0.35659,-0.35727
-0.13501,0.66615,0.73349,0.20897,-0.35505,-0.30804
-0.11773,0.6684,0.73442,0.12287,-0.27607,-0.2902
-0.1,0.68025,0.72612,0.05788,-0.31417,-0.26058
-0.08646,0.69803,0.71082,-0.12104,-0.42818,-0.24656
-0.09054,0.71671,0.69146,-0.22689,-0.30758,-0.20994
-0.09839,0.73542,0.67043,0.10636,-0.41893,-0.07639
-0.10215,0.76316,0.63807,0.38569,-0.37943,-0.29701
-0.12096,0.79631,0.59267,-0.07231,0.28138,-0.13339
-0.12407,0.81643,0.56395,0.81192,1.61636,0.37106
-0.12309,0.83694,0.53327,0.31677,0.7783,-0.39501
-0.12997,0.85636,0.49975,0.23771,-0.1957,0.39043
-0.13361,0.87892,0.45787,0.38264,-0.36706,0.00264
-0.13831,0.90107,0.41101,0.37704,-0.04782,-0.04485
-0.14092,0.92099,0.3632,0.34351,0.44269,-0.03103
-0.1366,0.93856,0.31694,0.28452,0.43657,0.02112
-0.12776,0.95441,0.26978,0.17765,0.18359,-0.02317
-0.11738,0.96765,0.22332,0.10879,-0.0488,-0.01395
-0.09825,0.97884,0.17952,0.11603,-0.12273,-0.09126
-0.07344,0.98787,0.13684,0.08832,-0.19467,-0.00831
-0.04484,0.99434,0.09627,0.07313,-0.2607,-0.06287
-0.01656,0.99806,0.06005,0.03483,-0.22654,-0.0198
0.00826,0.99956,0.02831,-0.09043,-0.25506,-0.031
0.0301,0.99954,-0.00264,-0.14379,-0.27786,0.03218
0.04846,0.99826,-0.03367,-0.07412,-0.31556,-0.0825
0.06651,0.99587,-0.0618,0.08849,-0.2687,0.13223
0.08272,0.99297,-0.08465,0.07005,-0.18207,0.19177
0.0984,0.98974,-0.10354,-0.13031,0.03308,0.22357
0.11143,0.98658,-0.11929,-0.2003,-0.00798,0.09984
0.12081,0.98358,-0.13408,-0.20948,-0.04274,0.01219
0.12814,0.98061,-0.14824,-0.1436,-0.02193,0.11316
0.13665,0.97756,-0.1603,-0.10128,-0.0152,0.17011
0.14817,0.97407,-0.17097,-0.13821,0.018,0.2354
0.1632,0.96967,-0.18191,-0.24803,0.08073,0.1434
0.17966,0.96453,-0.19338,-0.30458,0.11765,0.01256
0.1932,0.959,-0.20735,-0.24796,0.15914,0.13649
0.19937,0.95765,-0.20776,-0.14202,0.19151,0.2194
0.20331,0.95794,-0.2025,-0.23024,0.25226,0.04396
0.21229,0.95633,-0.20088,-0.28187,0.3453,0.00844
0.21324,0.95678,-0.19771,-0.26782,0.49071,0.04883
0.20095,0.96145,-0.18772,0.02155,0.71504,0.23496
0.17518,0.96954,-0.17115,0.22299,0.66051,0.36426
0.14629,0.97917,-0.14081,0.46206,0.4106,0.42994
0.12303,0.98785,-0.09489,0.54039,0.12157,0.40621
0.10618,0.99332,-0.04502,0.60086,0.04089,0.32655
0.09953,0.99502,0.00479,0.66286,-0.02227,0.08851
0.10111,0.99353,0.05174,0.71029,0.09551,0.03687
0.09568,0.99027,0.101,0.75093,0.13861,0.08674
0.06975,0.98654,0.14789,0.78851,0.22011,0.07195
0.03852,0.9817,0.18648,0.01196,-0.193,-0.19284
0.01172,0.97495,0.22208,0.0043,-0.22869,-0.25063
-0.00706,0.96641,0.25688,0.03693,-0.23721,-0.32389
-0.0149,0.95606,0.29278,0.14155,-0.25341,-0.22892
-0.01745,0.94454,0.32793,0.30206,-0.24488,-0.05613
-0.01969,0.93466,0.35499,0.41087,-0.34361,-0.07822
-0.02162,0.92805,0.37183,0.436,-0.3978,-0.16083
-0.021,0.9251,0.37914,0.31886,-0.47142,-0.20754
-0.01717,0.9263,0.37638,0.09129,-0.5405,-0.15686
-0.00963,0.93133,0.36405,-0.00349,-0.48971,-0.05928
0.00034,0.93895,0.34404,-0.09241,-0.38127,0.00015
0.01238,0.94744,0.31968,-0.12392,-0.28726,0.10323
0.02342,0.9556,0.29373,-0.14446,-0.1572,0.25513
0.03132,0.96235,0.26999,-0.17138,0.06071,0.42575
0.0351,0.96743,0.25069,-0.07013,0.23646,0.48126
0.03422,0.97142,0.23487,0.03776,0.29489,0.4668
0.02965,0.97421,0.22368,0.10031,0.23397,0.50595
0.02189,0.97564,0.21825,0.1383,0.09355,0.53816
0.01227,0.97612,0.21688,0.38003,0.15291,0.42224
0.00809,0.97623,0.21656,0.77371,0.48348,0.52083
0.01505,0.97606,0.21696,0.95809,0.66504,0.49729
0.02158,0.97544,0.2192,0.46331,0.39399,0.09276
0.01654,0.97614,0.21651,-0.13262,-0.51219,-0.14667
0.00238,0.98206,0.18855,0.03358,-1.02193,-0.58106
-0.00558,0.99089,0.13456,0.55694,-1.15393,-0.52117
0.00526,0.9954,0.09568,0.60506,-0.3156,-0.22853
0.01726,0.99705,0.07476,0.15908,0.84124,-0.18472
0.01488,0.99883,0.04593,0.00935,0.58248,0.00107
0.0053,0.99995,0.00857,0.14387,0.10925,0.1746
0.00527,0.99968,-0.02476,0.50924,-0.64551,0.19561
0.02083,0.99841,-0.05228,0.60232,-0.43823,-0.0069
0.03816,0.99569,-0.0845,0.31069,-0.13621,-0.05225
0.05513,0.99186,-0.11477,-0.06004,0.23469,-0.26107
0.06923,0.98833,-0.13564,-0.07422,0.23231,-0.10737
0.07964,0.98472,-0.15487,-0.08254,0.12167,-0.00127
0.08876,0.98049,-0.1754,-0.031,-0.02477,0.06334
0.09746,0.97584,-0.19552,-0.03512,-0.08622,0.03302
0.10682,0.97141,-0.21203,-0.01069,-0.02304,0.11188
0.11547,0.96707,-0.22682,-0.05039,0.05623,0.351
0.12618,0.96267,-0.23945,-0.0121,-0.0359,0.21914
0.13779,0.95831,-0.25032,-0.00261,-0.05549,0.24048
0.14995,0.95386,-0.26011,-0.09442,-0.00969,0.22613
0.16049,0.94899,-0.27141,-0.17489,0.08408,0.23552
0.16894,0.9437,-0.28439,-0.1907,0.11254,0.2442
0.17712,0.93839,-0.29672,-0.21111,-0.01167,0.36973
0.18454,0.93419,-0.30535,-0.12298,0.0904,0.35604
0.19121,0.93105,-0.31077,-0.04947,0.19015,0.18183
0.19844,0.92859,-0.31358,-0.08377,0.2411,0.13681
0.20663,0.92595,-0.31611,-0.23089,0.35663,0.40559
0.21385,0.92446,-0.31567,0.03696,0.36127,0.27528
0.21671,0.92479,-0.31273,0.16138,0.41843,0.42116
0.21508,0.92927,-0.30034,0.06303,0.3858,0.2178
0.20711,0.93841,-0.27656,0.32484,0.37162,0.3422
0.19722,0.95065,-0.23952,0.46824,0.3536,0.6098
0.18802,0.96542,-0.18055,0.48387,0.25957,0.45638
0.18081,0.97782,-0.10568,0.64803,-0.01809,0.38496
0.1744,0.98418,-0.03122,0.66419,0.05127,0.109
0.16363,0.9856,0.04254,0.48717,0.41723,-0.32773
0.14108,0.98346,0.11353,0.24111,0.60751,-0.14376
0.10862,0.97847,0.17548,-0.05169,0.5423,-0.01511
0.07794,0.96974,0.23136,0.03443,0.32679,-0.12912
0.04925,0.9554,0.29118,0.15246,0.13915,-0.22627
0.02769,0.93025,0.36586,0.08188,-0.06435,-0.31465
0.01608,0.89675,0.44224,-0.05953,-0.30205,-0.06369
0.01352,0.86018,0.5098,0.23932,-0.42622,-0.25458
0.01936,0.82182,0.5694,0.2975,-0.33167,-0.26527
0.02933,0.78413,0.61989,0.21723,-0.21822,-0.09001
0.03426,0.75329,0.65679,0.02339,-0.27342,-0.03778
0.03761,0.72836,0.68416,-0.1758,-0.26818,-0.10695
0.04312,0.70626,0.70663,-0.21463,-0.26959,-0.15348
0.05132,0.68717,0.72467,-0.23462,-0.3256,-0.14981
0.06125,0.67155,0.73842,-0.22294,-0.38296,-0.16144
0.07224,0.65997,0.7478,-0.21723,-0.38263,-0.02951
0.07977,0.65492,0.75147,-0.21365,-0.40916,0.05876
0.08381,0.65417,0.75168,-0.12747,-0.3815,0.12891
0.08663,0.65638,0.74943,-0.10116,-0.32203,0.05906
0.09284,0.66139,0.74426,-0.10822,-0.29404,0.09331
0.10116,0.6698,0.73561,-0.15875,-0.2104,0.31897
0.10638,0.67937,0.72603,-0.01771,-0.02412,0.52035
0.10692,0.68381,0.72177,0.12034,0.13011,0.53309
0.10724,0.67633,0.72875,0.49029,0.47496,0.93669
0.12126,0.68717,0.7163,0.52345,-0.46773,0.01461
0.12764,0.71697,0.68531,0.31028,-0.50204,-0.15201
0.11686,0.75157,0.64921,0.19433,0.17109,-0.30452
0.0984,0.7838,0.61316,0.42757,0.40284,-0.25912
0.08895,0.80849,0.58174,0.43702,0.37816,-0.22771
0.08902,0.83105,0.54901,0.34341,0.37236,0.00253
0.0858,0.85653,0.5089,0.08636,-0.12864,0.02042
0.07919,0.88314,0.46237,0.07895,-0.08332,-0.04568
0.07378,0.90757,0.41335,0.03563,0.00998,-0.13389
0.07251,0.92751,0.36668,-0.03667,0.32766,-0.14879
0.07473,0.94239,0.32605,-0.08218,0.20928,-0.12908
0.07939,0.9536,0.2904,-0.20259,-0.0934,-0.18058
0.08662,0.96137,0.26127,-0.2401,-0.23536,-0.10699
0.09787,0.96633,0.23794,-0.12823,-0.15316,0.1045
0.11285,0.9704,0.21352,-0.07983,-0.13058,0.15927
0.13034,0.97386,0.18603,-0.06385,-0.03826,0.1841
0.14709,0.97675,0.15598,-0.08828,0.04492,0.0898
0.16158,0.97863,0.12715,-0.06382,-0.00153,0.00113
0.17639,0.97877,0.10434,-0.05269,-0.03045,-0.00185
0.19403,0.97727,0.08536,-0.13692,-0.01511,0.02849
0.21454,0.97447,0.06609,-0.17316,0.01726,0.08133
0.23446,0.97102,0.04628,-0.16833,0.20647,0.04829
0.25227,0.96723,0.02865,-0.26566,0.23116,0.33753
0.2699,0.96284,0.00941,-0.25449,0.14762,0.54426
0.28973,0.95704,-0.01088,-0.2147,0.10112,0.49574
0.31095,0.95003,-0.02718,-0.02769,0.15438,0.1926
0.32902,0.94355,-0.03804,0.08137,0.34522,0.36546
0.34359,0.93845,-0.03547,-0.17844,0.56576,0.1608
0.35323,0.93535,-0.01863,-0.2423,0.64407,0.18246
0.35227,0.93584,0.01019,-0.07826,0.37593,0.14429
0.34132,0.93869,0.04858,0.0016,0.2069,0.31919
0.31955,0.94299,0.09306,-0.26716,0.21963,0.26976
0.28458,0.94768,0.14458,-0.23219,0.21493,0.21824
0.24741,0.94916,0.19462,-0.18747,0.30145,-0.1262
0.21591,0.94703,0.23771,0.22764,0.11088,-0.22327
0.18047,0.94319,0.27896,0.13062,0.30997,0.0165
0.14557,0.93392,0.32649,0.21202,0.04919,0.1115
0.11644,0.91995,0.37433,0.27307,0.00763,-0.09395
0.08837,0.90259,0.42131,0.14652,0.14564,-0.34221
0.05617,0.87869,0.47408,0.04536,0.08202,0.01529
0.02724,0.85181,0.52313,0.07537,-0.02407,-0.06746
0.00695,0.82245,0.56878,0.12165,-0.24384,-0.24066
-0.00092,0.78968,0.61352,-0.10115,-0.34482,-0.29653
0.00302,0.75695,0.65345,-0.05088,-0.33513,-0.36763
0.01615,0.72691,0.68654,-0.0371,-0.3791,-0.3033
0.03649,0.70413,0.70913,0.04881,-0.2915,-0.25458
0.05894,0.69261,0.71889,0.07275,-0.31863,-0.21076
0.0771,0.69522,0.71464,0.0527,-0.47573,-0.20458
0.0864,0.70903,0.69986,-0.21213,-0.53096,-0.21942
0.08615,0.73381,0.67386,-0.25379,-0.73111,-0.40392
0.08813,0.76745,0.63501,-0.26653,-0.91118,-0.39285
0.07799,0.78588,0.61343,-0.05689,0.53426,1.65398
0.05735,0.79635,0.6021,-0.5827,1.06633,-0.90782
0.06358,0.8277,0.55756,0.17185,0.44336,-0.99025
0.08085,0.83708,0.54107,0.03986,-0.42297,0.0002
0.08669,0.85461,0.51198,-0.13326,-0.53126,-0.48321
0.08564,0.87063,0.48442,0.52506,0.24335,0.12575
0.08445,0.88614,0.45565,0.28752,0.50094,0.09461
0.08008,0.90414,0.41966,0.04274,0.34757,0.08796
0.07473,0.92263,0.37838,-0.11624,0.13052,-0.09624
0.07413,0.9377,0.33943,-0.18357,0.12672,-0.18968
0.0815,0.94799,0.30768,-0.14136,0.09069,-0.10318
0.09175,0.95501,0.28202,-0.04956,0.02325,-0.0677
0.10593,0.96005,0.259,-0.02103,0.00016,-0.01729
0.12522,0.96327,0.23754,-0.05155,-0.01321,-0.01493
0.1479,0.96515,0.21588,-0.13242,-0.03762,-0.03766
0.16836,0.96624,0.19502,-0.14446,-0.04299,0.00496
0.18446,0.96722,0.17451,-0.08941,-0.12873,0.08753
0.19763,0.96817,0.15357,-0.09948,-0.15288,0.08133
0.21058,0.96824,0.13479,-0.15241,-0.18566,0.01971
0.22286,0.96764,0.11832,-0.2147,-0.13903,0.14883
0.23627,0.96646,0.10059,-0.21759,0.00352,0.07202
0.25029,0.96413,0.08831,-0.22824,0.07165,-0.17995
0.26572,0.96092,0.07761,-0.20766,0.10483,0.16226
0.28053,0.95804,0.05881,-0.20297,0.12096,0.33958
0.2975,0.95396,0.03807,-0.20888,0.116,0.01796
0.31645,0.94846,0.01677,-0.1785,0.24605,0.22584
0.33546,0.94204,-0.00444,-0.13891,0.27437,0.29361
0.35288,0.93542,-0.02145,-0.10442,0.41471,0.15703
0.36718,0.92973,-0.02771,-0.18947,0.48883,0.05995
0.37787,0.92555,-0.02366,-0.27564,0.53833,0.03969
0.38239,0.92394,-0.01057,0.08164,0.37973,0.21689
0.37977,0.92501,0.01093,0.20329,0.28556,0.27661
0.37083,0.92792,0.03797,0.11632,0.23742,0.37442
0.35136,0.93346,0.0721,-0.41798,0.35928,0.29677
0.31494,0.94248,0.11196,-0.5515,0.40434,0.11634
0.27597,0.94937,0.15012,-0.41691,0.37597,-0.30417
0.25054,0.94925,0.19013,0.18895,0.01969,-0.1061
0.22705,0.94552,0.23331,0.34111,0.01014,0.25153
0.20079,0.93885,0.2797,0.42639,0.0558,0.34008
0.17953,0.92784,0.32691,0.24082,0.08519,-0.0645
0.15574,0.9156,0.37069,0.03594,0.36936,-0.2047
0.12652,0.89869,0.41992,0.02243,0.36855,-0.23199
0.09525,0.8774,0.47021,0.04712,0.05464,-0.10448
0.0696,0.85315,0.51699,0.00724,-0.10046,-0.2683
0.05347,0.82354,0.56473,0.03052,-0.2661,-0.34357
0.04816,0.78983,0.61142,-0.11543,-0.46253,-0.27115
0.04966,0.75571,0.65302,-0.08962,-0.42113,-0.30171
0.05784,0.72676,0.68444,-0.09207,-0.37982,-0.25576
0.07056,0.70619,0.70449,-0.04432,-0.37265,-0.23069
0.08544,0.69566,0.71326,-0.03489,-0.47893,-0.29618
0.10012,0.69603,0.71099,-0.12981,-0.52132,-0.29146
0.11132,0.70394,0.70147,-0.2693,-0.41631,-0.18519
0.11623,0.71744,0.68685,-0.36842,-0.41992,-0.09158
0.11661,0.73842,0.66417,-0.22741,-0.5612,-0.1148
0.1176,0.76312,0.63545,0.20886,-0.34642,0.30661
0.10997,0.78156,0.61405,0.00459,1.22457,1.10203
0.09216,0.81899,0.56635,0.41976,1.16254,-1.15
0.09862,0.83322,0.54407,0.16349,0.02582,0.62468
0.09515,0.85493,0.50993,-0.13371,-0.69725,-0.13407
0.08688,0.87353,0.47894,0.17952,-0.64419,0.17088
0.09266,0.88883,0.44876,0.36874,-0.01439,-0.0119
0.10176,0.90398,0.41527,0.22887,0.38488,-0.10306
0.11059,0.91561,0.38654,-0.02063,0.42081,-0.09287
0.11623,0.92698,0.35664,-0.15034,0.32197,-0.07443
0.118,0.93781,0.32645,-0.14724,0.14008,-0.09966
0.12163,0.94692,0.29757,-0.10049,-0.01882,-0.08997
0.12788,0.95393,0.27139,0.04161,-0.17866,0.00024
0.13646,0.95991,0.24484,-0.01074,-0.18702,-0.0283
0.15123,0.96353,0.22073,-0.08934,-0.1642,-0.05096
0.16931,0.96521,0.19923,-0.0877,-0.09267,-0.01876
0.18647,0.96637,0.17704,-0.03039,-0.02222,0.04853
0.19827,0.96785,0.15474,-0.02872,-0.08801,0.03145
0.20877,0.96865,0.13463,-0.10056,-0.13753,0.11896
0.21845,0.96931,0.11273,-0.15795,-0.1309,0.16612
0.22714,0.96935,0.09365,-0.25623,-0.0367,-0.00169
0.23683,0.96845,0.07743,-0.3351,-0.01406,0.07464
0.24753,0.96699,0.06049,-0.33579,0.00781,0.061
0.25924,0.96474,0.04542,-0.31666,0.04243,0.10222
0.27086,0.96216,0.02967,-0.21491,0.04645,0.23876
0.28261,0.95915,0.01207,-0.20346,0.03009,0.21877
0.29582,0.95522,-0.0057,-0.17679,0.04727,0.18836
0.31062,0.95023,-0.02405,-0.08639,0.11449,0.13088
0.3258,0.94448,-0.04257,-0.05372,0.11427,0.13258
0.34096,0.93811,-0.06067,0.07685,0.31561,0.09636
0.35629,0.93141,-0.07427,-0.19969,0.81186,-0.03053
0.36751,0.92696,-0.07535,-0.21091,0.81631,-0.02944
0.37265,0.92578,-0.06373,-0.07281,0.58669,0.11548
0.37287,0.92674,-0.04604,0.25436,0.44645,0.4498
0.36866,0.92919,-0.02622,-0.12192,0.30468,0.62941
0.35843,0.93353,0.00657,-0.34944,0.27948,0.53753
0.33261,0.94171,0.05037,-0.66194,0.16336,0.09584
0.29865,0.94966,0.0946,-0.48439,0.10628,0.00711
0.26362,0.95505,0.13556,-0.21001,0.18432,-0.15344
0.23493,0.95666,0.17205,0.06896,0.23061,-0.2536
0.21265,0.95383,0.2121,0.17254,-0.07216,-0.25782
0.19411,0.94659,0.25743,0.32158,-0.24969,-0.0736
0.1742,0.93806,0.29947,0.31593,-0.08739,0.15398
0.15046,0.92828,0.34008,0.28031,0.19627,0.08146
0.12095,0.91569,0.38325,0.22376,0.24371,-0.01909
0.08875,0.9002,0.42633,0.19531,0.23379,-0.12908
0.05786,0.87864,0.47396,0.11442,0.01778,-0.32724
0.03844,0.84874,0.52739,0.02098,-0.11391,-0.22116
0.02951,0.81349,0.58082,-0.02527,-0.19746,-0.14753
0.0324,0.77431,0.63197,-0.23514,-0.55088,-0.26244
0.04519,0.73567,0.67582,-0.08828,-0.51531,-0.29313
0.06086,0.70274,0.70883,-0.09148,-0.4193,-0.3281
0.08014,0.67838,0.73032,-0.10499,-0.33179,-0.26465
0.10117,0.66479,0.74014,-0.1424,-0.43667,-0.22148
0.12054,0.66547,0.73662,-0.2612,-0.59108,-0.19789
0.13577,0.67844,0.72199,-0.37586,-0.55958,-0.16491
0.14229,0.69912,0.70069,-0.3821,-0.50294,-0.13462
0.13913,0.72248,0.67724,-0.35016,-0.45934,-0.11057
0.12726,0.74047,0.65992,0.36138,0.53095,0.68531
0.11523,0.75274,0.64815,0.54174,0.80795,0.74724
0.10875,0.78198,0.61374,-0.0089,1.00937,0.35731
0.10925,0.80448,0.58383,0.21661,0.12359,0.17313
0.10795,0.82692,0.55185,-0.07531,-0.33899,-0.1195
0.10592,0.84815,0.51905,0.13828,-0.17507,0.07543
0.11063,0.8656,0.48835,0.29237,0.24853,0.06908
0.11849,0.88169,0.45669,0.23548,0.29812,0.01497
0.12157,0.89714,0.42469,0.18823,0.05163,-0.04708
0.12403,0.91164,0.39182,0.11108,0.00848,-0.02999
0.12814,0.92508,0.35748,0.00429,0.06637,-0.08282
0.13365,0.93651,0.32416,-0.10675,0.21701,-0.1392
0.14104,0.94534,0.29399,-0.23407,0.20771,-0.18587
0.14982,0.95193,0.26718,-0.18354,0.01362,-0.07759
0.15928,0.95737,0.24097,-0.12524,-0.12444,-0.01209
0.17255,0.96137,0.21445,-0.0929,-0.16628,-0.0041
0.18934,0.96358,0.18882,-0.07616,-0.19329,0.02292
0.2071,0.96429,0.16507,-0.1513,-0.09784,0.08732
0.22363,0.96441,0.14104,-0.20448,-0.05929,0.1372
0.23609,0.96494,0.11464,-0.23671,-0.0107,0.08923
0.24452,0.96571,0.08723,-0.23707,-0.09967,0.03968
0.25364,0.96513,0.06468,-0.20408,-0.16197,0.08616
0.26661,0.96271,0.04591,-0.21418,-0.11792,0.17075
0.28108,0.9592,0.03036,-0.29668,0.14805,0.0916
0.29421,0.95561,0.01533,-0.32612,0.15654,0.12095
0.30524,0.95227,-0.00139,-0.28128,0.06682,0.14524
0.315,0.94885,-0.02115,-0.23524,0.04656,0.16332
0.32597,0.9445,-0.04074,-0.22777,0.14379,0.20441
0.33674,0.93976,-0.05875,-0.12515,0.20433,0.21655
0.34525,0.93562,-0.07358,0.10183,0.32839,0.2614
0.35273,0.93226,-0.08039,0.09628,0.43617,0.15082
0.36105,0.92965,-0.07343,-0.08524,0.59057,0.00081
0.36597,0.92887,-0.05718,-0.10406,0.53283,0.14949
0.36482,0.9305,-0.03288,0.03713,0.37999,0.2154
0.3588,0.93341,-0.00109,0.08098,0.28568,0.36622
0.35016,0.93588,0.03889,-0.07245,0.32224,0.39061
0.33678,0.93762,0.08621,-0.35384,0.37292,0.12948
0.31274,0.94017,0.13512,-0.38274,0.35272,0.09543
0.28227,0.94268,0.17795,-0.33902,0.26998,0.02477
0.25144,0.94407,0.2133,-0.02149,0.20937,-0.35269
0.22298,0.94192,0.25111,0.07506,0.16309,-0.39038
0.19454,0.93541,0.2952,0.09797,0.05337,-0.23171
0.16433,0.925,0.34257,0.06419,0.16453,0.05747
0.12826,0.91144,0.39092,0.17669,0.14224,0.35244
0.09152,0.89512,0.43631,0.27601,-0.01287,-0.10335
0.05988,0.87404,0.48214,0.25741,-0.05426,-0.48142
0.03669,0.84755,0.52944,0.0453,-0.07123,-0.46782
0.02629,0.81527,0.57847,-0.08031,-0.15827,-0.41029
0.03225,0.77901,0.62617,-0.085,-0.34465,-0.25041
0.048,0.74182,0.66887,-0.14465,-0.7242,-0.23779
0.0632,0.7096,0.70175,-0.03067,-0.60891,-0.17445
0.0766,0.68418,0.72526,0.05353,-0.37528,-0.3145
0.08854,0.6674,0.7394,0.0791,-0.35678,-0.30712
0.09757,0.6599,0.74498,0.02142,-0.37032,-0.25638
0.10364,0.66134,0.74288,-0.1616,-0.49202,-0.13549
0.10662,0.66938,0.73522,-0.16457,-0.50007,-0.12782
0.10938,0.68148,0.72361,-0.29917,-0.22086,-0.127
0.10995,0.69697,0.70861,-0.26444,-0.10661,-0.07021
0.10527,0.7119,0.69433,-0.17208,-0.04637,0.13104
0.08404,0.72051,0.68832,0.00854,0.5313,1.1668
0.08285,0.73933,0.66822,-0.15786,0.39297,-0.2992
0.08646,0.76853,0.63394,0.19444,0.20886,-0.0771
0.09493,0.78849,0.60767,0.05591,-0.01378,-0.12657
0.09896,0.81617,0.56926,0.00095,-0.14118,-0.08046
0.09591,0.84347,0.52853,0.25115,-0.02506,0.02683
0.0997,0.86445,0.49273,0.34844,0.19452,0.08783
0.10393,0.88592,0.45203,0.35191,0.15616,-0.02782
0.10593,0.90512,0.41172,0.22005,0.12074,-0.06947
0.10745,0.92231,0.3712,0.04813,0.06751,-0.13981
0.11103,0.93704,0.33109,-0.16457,0.12107,-0.19724
0.11892,0.94775,0.29599,-0.2514,0.16339,-0.15579
0.12908,0.95554,0.26508,-0.27929,0.03932,-0.16102
0.14179,0.96147,0.2355,-0.12809,-0.14576,-0.052
0.15695,0.96582,0.20627,-0.03693,-0.22964,-0.05802
0.17487,0.96819,0.17894,-0.14174,-0.18184,-0.06212
0.19511,0.9685,0.15472,-0.14603,-0.20168,0.00544
0.21218,0.96806,0.1335,-0.15337,-0.18404,0.06693
0.22538,0.96747,0.11487,-0.07645,-0.13933,0.13574
0.2371,0.96648,0.0984,-0.1042,-0.0581,0.09929
0.24846,0.965,0.08386,-0.15752,-0.02794,0.15407
0.25864,0.96341,0.07027,-0.21329,-0.03314,0.16069
0.26925,0.96129,0.0584,-0.29785,-0.0175,0.05236
0.28178,0.9582,0.04947,-0.32263,0.04423,0.08575
0.29428,0.9548,0.04183,-0.34873,0.20089,0.10389
0.30607,0.95145,0.03254,-0.34632,0.26938,0.09359
0.31804,0.94786,0.02006,-0.34953,0.15482,0.11651
0.33127,0.9435,0.00702,-0.29253,0.1387,0.0908
0.34599,0.9382,-0.00722,-0.12318,0.17908,0.1073
0.36214,0.93184,-0.02283,0.07903,0.24911,0.13441
0.37999,0.92427,-0.03633,0.15025,0.41789,0.15268
0.39733,0.9167,-0.04211,-0.14278,0.67519,-0.05969
0.41176,0.91051,-0.03761,-0.28708,0.75513,-0.11325
0.42089,0.9066,-0.03029,0.06007,0.52753,0.22301
0.42555,0.90472,-0.01959,0.15322,0.23666,0.31809
0.42636,0.90455,0.00099,0.01306,0.12837,0.32309
0.42331,0.9055,0.02924,-0.19387,0.12806,0.35462
0.41461,0.90824,0.05646,-0.33845,0.15936,0.30668
0.39829,0.91316,0.08653,-0.3835,0.19409,0.23783
0.36858,0.9216,0.12156,-0.35105,0.30952,0.06618
0.3285,0.933,0.14695,-0.16895,0.30596,-0.14509
0.28917,0.94253,0.16735,-0.0661,0.18578,-0.31017
0.25236,0.94767,0.19548,0.04654,-0.2528,-0.0629
0.22169,0.95014,0.21927,0.11527,-0.3004,-0.03879
0.19659,0.95028,0.24145,0.34386,-0.39247,-0.1858
0.17295,0.94774,0.26806,0.13779,-0.42183,-0.22223
0.15202,0.94157,0.30054,0.05509,-0.45315,-0.12813
0.13361,0.93481,0.32902,-0.0763,-0.37987,-0.03103
0.11857,0.92871,0.35131,-0.13057,-0.41928,-0.23782
0.11242,0.92171,0.37122,-0.11571,-0.41632,-0.23469
0.11093,0.91509,0.38768,0.00966,-0.41974,-0.17966
0.11437,0.90911,0.40054,0.11693,-0.44441,-0.16805
0.12301,0.90516,0.40686,0.14216,-0.45074,-0.08501
0.13409,0.90416,0.40558,0.10771,-0.38753,0.01476
0.14572,0.90587,0.39767,0.09796,-0.31863,0.07674
0.15814,0.90914,0.38529,0.05306,-0.28644,0.08988
0.1711,0.91281,0.37079,-0.06892,-0.24526,0.13469
0.18305,0.91671,0.35512,-0.22225,-0.16115,0.14169
0.19391,0.92121,0.33726,-0.30172,-0.11491,0.18694
0.20377,0.92672,0.31568,-0.36153,-0.04324,0.28959
0.21236,0.93256,0.29191,-0.34369,0.07098,0.32035
0.21752,0.93727,0.27238,-0.32408,0.16925,0.29874
0.2181,0.93969,0.26344,-0.25348,0.31034,0.32738
0.21339,0.94011,0.26579,-0.22458,0.17767,0.4682
0.20566,0.93905,0.27545,-0.24022,0.12025,0.52457
0.19789,0.939,0.28125,0.02055,-0.0661,0.44818
0.19581,0.94151,0.27422,0.40127,-0.09416,0.27845
0.19795,0.94434,0.26271,0.65867,0.30282,0.17372
0.19695,0.94605,0.25725,0.58544,1.06904,-0.07103
0.18714,0.94557,0.26619,0.1187,0.67824,0.14698
0.16746,0.94874,0.26803,-0.08929,-0.74087,-0.08658
0.1545,0.95639,0.24787,0.24962,-1.41643,-0.35431
0.15982,0.96258,0.21882,0.07692,0.06447,-0.16706
0.16185,0.96862,0.18861,-0.12805,0.71782,-0.13415
0.15886,0.97306,0.16707,-0.25365,1.06582,-0.36308
0.15166,0.97691,0.15046,0.00865,0.30353,-0.20519
0.147,0.98056,0.12993,0.17282,-0.40147,0.18768
0.15154,0.98349,0.09889,0.21522,-0.49349,0.20927
0.15796,0.98529,0.06506,0.26667,-0.09767,-0.08073
0.16365,0.98582,0.03686,0.20247,-0.01834,-0.2386
0.16981,0.98534,0.01621,0.10324,0.03036,-0.30766
0.17586,0.98441,-0.00137,-0.12585,0.06933,-0.15277
0.18041,0.9834,-0.01882,-0.17744,0.03069,-0.10622
0.18373,0.98235,-0.0349,-0.18214,0.01501,-0.11764
0.18602,0.98129,-0.04951,-0.1743,0.01678,-0.14504
0.18885,0.98007,-0.06157,-0.22478,0.03688,0.00457
0.19261,0.97867,-0.07138,-0.2087,0.0399,0.07403
0.19692,0.97712,-0.08035,-0.12902,0.03924,0.06369
0.20139,0.97542,-0.08934,-0.14435,-0.0415,-0.00539
0.20695,0.97342,-0.09809,-0.13325,-0.0789,0.09717
0.21355,0.97095,-0.10789,-0.1169,-0.04456,0.10473
0.22097,0.96812,-0.11795,-0.13218,-0.00097,0.12964
0.22889,0.96507,-0.12745,-0.14231,0.07488,0.11819
0.23715,0.96183,-0.13648,-0.14353,0.0551,0.09606
0.24556,0.95907,-0.141,-0.14607,0.02529,0.10426
0.25317,0.95639,-0.14565,-0.14486,0.02904,0.22039
0.25972,0.95392,-0.15027,-0.20419,0.04839,0.13727
0.2652,0.95188,-0.15359,-0.22931,0.10826,0.00175
0.27032,0.94981,-0.15743,-0.20643,0.20048,0.17671
0.27431,0.94842,-0.15888,-0.16172,0.20081,0.22549
0.27601,0.94826,-0.15686,-0.11054,0.32491,0.18578
0.27497,0.94954,-0.15087,-0.21159,0.31214,0.21411
0.26933,0.95334,-0.13635,-0.17364,0.37341,0.08185
0.25709,0.95977,-0.11283,0.11219,0.40461,0.22586
0.24059,0.96738,-0.07924,0.11723,0.38514,0.22316
0.22332,0.97443,-0.0247,0.17973,0.21489,0.30711
0.20754,0.9771,0.04677,0.49716,-0.01066,0.27749
0.19281,0.97433,0.11619,0.65245,-0.07214,0.1233
0.17677,0.96764,0.18002,0.65395,0.21296,-0.75018
0.15818,0.95702,0.24305,0.22408,0.34898,-0.43991
0.13064,0.9458,0.29729,-0.04855,0.56413,-0.12159
0.10429,0.93571,0.33699,0.00933,0.29838,-0.15945
0.08444,0.92402,0.37289,0.12572,0.11088,-0.3645
0.06805,0.90789,0.41364,0.12029,-0.08068,-0.49868
0.05751,0.89102,0.4503,-0.10461,-0.31509,-0.34205
0.05498,0.87571,0.47969,-0.12312,-0.39373,-0.40878
0.06352,0.86063,0.50524,-0.00628,-0.39179,-0.39116
0.07584,0.84792,0.52466,0.15147,-0.42736,-0.28126
0.08908,0.83958,0.53587,0.16988,-0.40146,-0.27027
0.10356,0.8377,0.53622,0.14963,-0.40006,-0.2732
0.11887,0.84199,0.52622,0.00409,-0.39258,-0.18648
0.1333,0.85134,0.50738,-0.11118,-0.40575,-0.14979
0.14781,0.86369,0.48186,-0.16307,-0.40281,-0.13316
0.16195,0.87767,0.45106,-0.27027,-0.20436,-0.02382
0.17201,0.89138,0.41933,-0.34945,0.06098,0.16511
0.17139,0.9037,0.39235,-0.44886,0.41788,0.38043
0.16456,0.91232,0.37495,-0.56747,0.5963,0.43047
0.14893,0.91815,0.36715,-0.12478,0.33006,0.6035
0.12802,0.92382,0.36077,0.03171,0.16542,0.49309
0.11545,0.92714,0.35647,0.21936,0.02013,0.17127
0.1105,0.9287,0.35398,0.37782,0.09694,0.03802
0.1099,0.9324,0.3443,0.48709,0.02613,0.06595
0.11631,0.93889,0.32396,0.59669,0.45894,-0.12182
0.1181,0.94225,0.31337,0.87509,1.06265,-0.33122
0.10351,0.944,0.31328,0.21528,0.22351,-0.00812
0.07904,0.9517,0.29665,0.15513,-1.0529,-0.57943
0.07177,0.95772,0.27859,0.87501,-1.01955,-0.34831
0.08499,0.96197,0.25959,0.55284,-0.3661,-0.23372
0.08201,0.9719,0.2206,-0.33376,0.88009,-0.60493
0.06808,0.97965,0.18879,-0.42987,1.27458,-0.8091
0.05303,0.98401,0.16999,-0.13436,0.36512,-0.22703
0.05591,0.9862,0.15583,0.16891,-0.58797,0.08162
0.06899,0.98834,0.1357,0.29589,-0.33375,-0.27482
0.07969,0.99005,0.11595,0.14495,-0.11514,-0.25258
0.0899,0.99073,0.10178,0.00489,0.37575,-0.28076
0.09691,0.99099,0.09241,-0.03905,0.38634,-0.1946
0.09907,0.99169,0.08207,-0.12266,0.16827,0.12864
0.09939,0.99242,0.07227,-0.08355,-0.05667,-0.03499
0.10128,0.99271,0.06533,-0.10485,-0.08208,-0.16712
0.10581,0.99262,0.05923,-0.16135,-0.0848,-0.1997
0.10957,0.99259,0.05241,-0.18244,-0.0089,-0.03218
0.11138,0.99273,0.04553,-0.1498,0.03298,0.04593
0.11249,0.99292,0.03799,-0.02259,-0.01373,0.02972
0.11596,0.99278,0.03057,-0.07768,-0.13394,0.09196
0.122,0.99221,0.02515,-0.10106,-0.03121,0.08162
0.12885,0.99146,0.01973,-0.08074,-0.00153,0.08156
0.13632,0.99057,0.01367,0.04438,0.09709,0.04547
0.1445,0.98947,0.00792,0.14563,0.17734,0.09445
0.15418,0.98803,0.00334,0.22266,0.34639,0.17412
0.16528,0.98624,0.00274,0.01366,0.36091,0.07859
0.17564,0.98441,0.00855,-0.06445,0.40073,0.03789
0.18206,0.98307,0.02051,-0.30031,0.48776,-0.30729
0.18091,0.98308,0.02873,0.4801,0.46433,0.28729
0.17492,0.98389,0.0367,0.51328,0.27093,0.34546
0.17013,0.98386,0.05545,0.43018,0.14642,0.32961
0.16308,0.98316,0.08244,0.07126,0.11483,0.08226
0.15061,0.9822,0.11218,0.03102,0.23233,-0.08436
0.12947,0.9804,0.14845,-0.00108,0.24114,-0.06797
0.10453,0.97562,0.19296,-0.03561,0.18783,-0.17253
0.07736,0.96849,0.23671,0.03885,0.146,-0.04768
0.04992,0.95875,0.27983,0.22408,0.16876,-0.0261
0.01904,0.9463,0.32271,0.37778,0.2273,-0.14571
-0.01494,0.93104,0.36459,0.37648,0.16672,-0.1358
-0.05252,0.91542,0.39904,0.3138,0.15129,-0.21173
-0.0904,0.89555,0.43566,0.24442,0.16798,-0.37594
-0.12626,0.86741,0.4813,0.17936,0.23046,-0.306
-0.15002,0.83106,0.53555,0.26103,0.01609,-0.34814
-0.15575,0.78969,0.59341,0.29058,-0.17467,-0.35601
-0.15077,0.74652,0.64805,0.27822,-0.29043,-0.36778
-0.144,0.70459,0.69484,0.25385,-0.31427,-0.31972
-0.13535,0.66608,0.73349,0.15612,-0.32897,-0.31073
-0.12537,0.63428,0.76286,0.13581,-0.3534,-0.22984
-0.11365,0.6131,0.78178,0.1738,-0.22812,-0.25366
-0.09651,0.60223,0.79246,0.16621,-0.1126,-0.29217
-0.07587,0.60193,0.79493,0.05887,-0.14964,-0.29526
-0.05875,0.61128,0.78922,-0.07974,-0.29992,-0.23248
-0.05108,0.62916,0.77559,-0.07985,-0.35317,-0.18269
-0.04958,0.65332,0.75545,-0.07182,-0.3649,-0.26494
-0.05152,0.68017,0.73123,-0.10003,-0.30146,-0.35355
-0.05785,0.70098,0.71082,0.05148,-0.17045,-0.03568
-0.08104,0.70278,0.70677,0.05777,1.16226,0.6454
-0.07653,0.72965,0.67952,-0.18563,0.91765,-0.48035
-0.07021,0.75281,0.65448,0.41428,-0.01822,-0.0112
-0.06387,0.77243,0.63187,0.16173,-0.23475,-0.35053
-0.06424,0.79557,0.60244,0.27193,-0.10984,-0.26029
-0.06008,0.8145,0.57704,0.67194,0.38433,-0.01181
-0.05571,0.83556,0.54656,0.54479,0.29872,-0.08624
-0.06048,0.86088,0.50518,0.47291,0.13137,-0.12951
-0.06551,0.88487,0.4612,0.27199,-0.00244,-0.24699
-0.06759,0.90543,0.41906,0.02337,0.28434,-0.30938
-0.06496,0.92139,0.38316,-0.05017,0.36187,-0.28663
-0.06021,0.93274,0.35547,-0.09895,0.18748,-0.29951
-0.05202,0.94104,0.33427,-0.07168,0.04038,-0.22904
-0.03846,0.94922,0.31223,0.11121,-0.28214,-0.05021
-0.0207,0.95723,0.28857,0.20433,-0.21715,-0.09137
-0.00321,0.96416,0.26529,0.19242,-0.14195,-0.07933
0.01418,0.96989,0.24312,0.10667,-0.03562,-0.08766
0.02952,0.97494,0.22048,0.05083,-0.00438,-0.0757
0.04406,0.97899,0.19908,0.02034,-0.0663,-0.08105
0.05835,0.98187,0.18033,0.03789,-0.08407,-0.05184
0.07174,0.98425,0.16156,-0.0174,-0.10934,0.05549
0.08493,0.98603,0.14323,-0.07137,-0.06256,0.00596
0.09866,0.98709,0.12614,-0.10984,-0.0267,0.01676
0.11337,0.9876,0.10856,-0.24916,0.12904,-0.00743
0.12809,0.98776,0.089,-0.24765,0.12841,0.01769
0.14205,0.98751,0.06803,-0.19964,0.09343,0.03229
0.15632,0.98658,0.04718,-0.06579,0.03917,0.14795
0.17249,0.98466,0.02619,-0.12401,0.00911,0.19535
0.18774,0.9822,0.00554,-0.13353,-0.00352,0.17585
0.2013,0.97947,-0.01025,0.14469,0.07749,0.06588
0.21327,0.97689,-0.014,-0.04836,0.39602,-0.08571
0.2226,0.97489,-0.00586,-0.08364,0.41261,-0.06936
0.22572,0.97415,0.00879,0.20371,0.3636,0.0997
0.22421,0.97406,0.03062,0.36291,0.37192,0.18847
0.22015,0.9739,0.0552,0.22963,0.27781,0.26045
0.21029,0.97415,0.08248,-0.01675,0.32032,0.22947
0.18757,0.97495,0.11947,-0.40923,0.54026,0.23093
0.14655,0.97563,0.16326,-0.44914,0.66476,-0.03574
0.10266,0.97474,0.19836,-0.06814,0.5077,-0.18959
0.07396,0.97131,0.22602,0.35634,0.14072,-0.19187
0.04822,0.96328,0.26413,0.60841,-0.04049,-0.22749
0.02241,0.95115,0.30789,0.50508,-0.00802,-0.31337
-0.00545,0.93549,0.3533,0.33273,0.40448,0.01332
-0.04385,0.9159,0.39898,0.21012,0.43325,0.13311
-0.07938,0.8901,0.44878,0.46643,0.26663,-0.24138
-0.1094,0.85959,0.49913,0.45134,-0.005,-0.40803
-0.13036,0.82492,0.55,0.24862,-0.16621,-0.32445
-0.13758,0.78381,0.60556,0.14588,-0.1196,-0.40021
-0.13382,0.73939,0.65984,0.08357,-0.09856,-0.33282
-0.1238,0.69482,0.70844,0.06353,-0.33331,-0.43376
-0.1111,0.65384,0.74843,0.18842,-0.41908,-0.45216
-0.09346,0.61956,0.77936,0.24745,-0.36649,-0.46777
-0.07025,0.59203,0.80284,0.20133,-0.27974,-0.50514
-0.04581,0.57529,0.81666,0.11326,-0.26048,-0.43063
-0.02738,0.5733,0.81888,0.00871,-0.38523,-0.21715
-0.01626,0.58227,0.81282,-0.07008,-0.37936,-0.14249
-0.01154,0.60016,0.79979,-0.17416,-0.30962,-0.09132
-0.01859,0.62655,0.77916,-0.24531,-0.28629,-0.07087
-0.02751,0.65271,0.7571,0.03049,-0.22609,0.29625
-0.03388,0.67152,0.74021,0.48076,0.75562,0.51225
-0.04078,0.70544,0.70759,-0.00643,1.20043,0.56482
-0.03207,0.73482,0.67749,0.27017,0.5752,-0.19959
-0.02257,0.75816,0.65167,0.10414,-0.33139,-0.07423
-0.02502,0.7865,0.61707,0.04914,-0.46124,-0.31501
-0.0268,0.81044,0.58521,0.4632,0.04049,0.05255
-0.02329,0.83567,0.54873,0.4071,0.44204,-0.25231
-0.02254,0.86038,0.50915,0.30357,0.37644,-0.26826
-0.02395,0.88225,0.47016,0.14063,0.22896,-0.29013
-0.02372,0.90086,0.43346,0.00176,0.06897,-0.25091
-0.01911,0.91553,0.40178,-0.0276,0.03625,-0.22614
-0.00842,0.92616,0.37703,-0.00991,-0.01516,-0.23273
0.0061,0.93414,0.35684,0.0767,-0.16202,-0.06079
0.02129,0.94127,0.33698,0.12201,-0.20425,-0.01505
0.03653,0.94853,0.31457,0.08197,-0.21516,-0.00567
0.05112,0.95595,0.28904,-0.10521,-0.12611,-0.06904
0.06394,0.96217,0.26484,-0.19402,-0.03385,-0.14662
0.075,0.96653,0.24534,-0.16299,0.00968,-0.14082
0.08359,0.9695,0.23038,-0.05137,-0.071,-0.01469
0.0892,0.97184,0.21811,0.08143,-0.13794,0.09145
0.09585,0.9737,0.20668,0.06499,-0.08089,0.1482
0.10316,0.97569,0.19334,-0.0469,0.02434,0.01849
0.11106,0.97739,0.17993,-0.06422,0.12556,-0.07191
0.12018,0.97844,0.16794,-0.01692,0.15707,-0.05531
0.13016,0.97946,0.15398,0.0258,0.18271,0.01425
0.14068,0.98049,0.13725,-0.00268,0.22973,0.01099
0.15265,0.98109,0.119,-0.01334,0.17892,0.00832
0.16663,0.9809,0.1003,0.09295,0.121,0.09094
0.18162,0.97983,0.08333,0.12806,0.24841,0.20367
0.19535,0.97808,0.07204,0.13477,0.3919,0.19111
0.20551,0.9759,0.0733,-0.06757,0.46523,-0.02369
0.21217,0.97291,0.09182,-0.39399,0.605,-0.20356
0.21071,0.97013,0.1202,-0.07498,0.35229,-0.0976
0.20128,0.96842,0.14709,0.43794,0.20808,0.26445
0.19257,0.96631,0.17075,0.1379,0.09138,0.28219
0.17872,0.96377,0.198,-0.08715,0.09174,0.20697
0.15055,0.9613,0.23072,-0.39899,0.20986,0.05953
0.11452,0.95803,0.2628,-0.44976,0.24758,-0.18747
0.08443,0.95361,0.28893,-0.04245,0.34329,-0.41155
0.05959,0.94689,0.31598,0.36673,0.2393,-0.71154
0.03737,0.93484,0.35308,0.52744,-0.00963,-0.55417
0.017,0.91635,0.4,0.45606,-0.07877,0.01512
-0.00456,0.897,0.44199,0.53202,0.07428,0.56114
-0.03829,0.87808,0.47697,0.42941,0.2102,-0.30924
-0.07459,0.85421,0.51455,0.40291,0.21708,-0.45829
-0.108,0.82283,0.55793,0.19203,-0.01075,-0.49279
-0.12929,0.78614,0.60436,-0.07106,-0.31785,-0.26161
-0.13625,0.74639,0.6514,-0.05872,-0.33483,-0.2455
-0.13009,0.70517,0.69699,0.02965,-0.43163,-0.31557
-0.11663,0.66479,0.73786,0.08319,-0.50442,-0.36789
-0.10094,0.62966,0.77028,0.24575,-0.41769,-0.39573
-0.08366,0.59991,0.79567,0.36087,-0.2032,-0.35967
-0.06758,0.57699,0.81394,0.25184,-0.11752,-0.41529
-0.05132,0.56336,0.82461,0.18879,-0.12322,-0.3538
-0.03693,0.56137,0.82674,-0.15471,-0.20132,-0.09731
-0.02919,0.57068,0.82065,-0.20288,-0.19081,-0.02031
-0.02398,0.58715,0.80911,-0.22121,-0.12579,-0.05301
-0.02772,0.60813,0.79335,-0.13639,0.16563,0.17508
-0.0417,0.62702,0.77788,0.03389,0.34884,0.61619
-0.05592,0.63982,0.76648,0.09052,0.55851,0.36183
-0.04996,0.66028,0.74935,0.02896,0.42257,-0.23411
-0.03608,0.68324,0.7293,0.24377,0.03701,0.1031
-0.02158,0.70711,0.70676,0.06932,-0.23219,-0.2037
-0.02364,0.73706,0.67541,0.38111,0.0473,-0.02125
-0.02859,0.76289,0.64588,0.49048,0.32756,0.04859
-0.02962,0.79062,0.61158,0.38287,0.24798,-0.02517
-0.03238,0.82009,0.57132,0.27321,0.11328,-0.08076
-0.03677,0.8471,0.53016,0.21413,0.11425,-0.20238
-0.03775,0.87147,0.48899,0.14135,0.12456,-0.24376
-0.03375,0.89144,0.45187,0.06531,0.16691,-0.257
-0.02467,0.90701,0.42038,0.06755,0.0629,-0.23398
-0.0119,0.91931,0.39334,0.07944,0.00593,-0.16062
0.00226,0.93019,0.36707,0.08734,-0.12953,-0.15719
0.01982,0.9398,0.34114,-0.00064,-0.20812,-0.13631
0.03726,0.94769,0.31699,-0.0585,-0.20137,-0.10879
0.05159,0.95435,0.2942,-0.08896,-0.18655,-0.13658
0.06535,0.95972,0.27325,-0.06409,-0.12826,-0.11948
0.07963,0.96332,0.25626,-0.02125,-0.1108,-0.04813
0.09174,0.96641,0.24003,0.0595,-0.03369,0.1059
0.10226,0.96969,0.22189,0.06266,0.00613,0.03335
0.11572,0.97182,0.20536,0.01929,-0.04004,0.01043
0.13289,0.97269,0.1903,-0.05182,-0.01396,0.15981
0.14878,0.97406,0.17048,-0.25733,0.23685,0.05513
0.1621,0.97593,0.14586,-0.45127,0.42064,-0.16751
0.17295,0.97728,0.12248,-0.33369,0.30223,-0.12829
0.18224,0.97781,0.10328,-0.17481,0.09744,-0.002
0.19213,0.97737,0.08853,0.06263,0.15316,0.17108
0.20044,0.97634,0.08115,0.24388,0.31132,0.33706
0.20386,0.97519,0.08625,0.27348,0.4768,0.26628
0.20294,0.97316,0.10847,0.0099,0.51938,-0.05555
0.1962,0.97062,0.1393,0.2128,0.3307,0.0282
0.18502,0.96798,0.16961,0.47018,0.24916,0.39624
0.17278,0.96468,0.19882,0.35844,0.18769,0.44353
0.15292,0.95948,0.23665,-0.33905,0.26674,0.18163
0.10853,0.95408,0.2792,-0.48335,0.43963,-0.16157
0.05307,0.95124,0.30385,-0.41513,0.58509,-0.4546
0.01205,0.94788,0.31839,0.26678,0.22262,-0.93635
-0.01829,0.93863,0.34442,0.37249,0.03625,-0.73041
-0.04698,0.91794,0.39392,0.41771,0.02194,-0.03242
-0.07336,0.88863,0.45271,0.94783,-0.18878,0.49129
-0.10101,0.86143,0.49772,0.71359,-0.1355,-0.4427
-0.13052,0.83143,0.54007,0.52284,0.01245,-0.63501
-0.15899,0.7935,0.58743,-0.05534,-0.00297,-0.3412
-0.17613,0.75222,0.63493,-0.16124,-0.05416,-0.29066
-0.17543,0.70758,0.68451,0.06688,-0.15976,-0.45889
-0.15942,0.65987,0.73426,0.20955,-0.37675,-0.50851
-0.14071,0.6151,0.77579,0.34774,-0.55341,-0.46753
-0.12379,0.57805,0.80655,0.35155,-0.42238,-0.28221
-0.11205,0.55141,0.82667,0.16071,-0.17234,-0.35392
-0.10514,0.53432,0.83871,0.12081,-0.17325,-0.42586
-0.09758,0.52495,0.84552,0.08058,-0.26024,-0.45976
-0.09023,0.52681,0.84518,-0.08867,-0.33333,-0.17536
-0.08543,0.53984,0.83742,-0.16528,-0.22444,-0.09607
-0.0863,0.56071,0.8235,-0.1826,-0.20975,-0.11342
-0.09087,0.58652,0.80481,-0.10332,-0.17188,-0.01658
-0.10219,0.60893,0.78661,0.1212,1.20088,1.12796
-0.12223,0.61749,0.77702,0.14125,1.19233,1.13755
-0.10563,0.64127,0.76,0.08658,0.71403,-0.08289
-0.09581,0.66912,0.73695,0.44661,-0.26601,0.12201
-0.08747,0.7022,0.70658,0.09744,-0.43318,-0.19123
-0.09645,0.73957,0.66613,0.18603,0.01116,0.06515
-0.10202,0.7709,0.62872,0.48976,0.45482,0.1198
-0.09951,0.79932,0.5926,0.41143,0.37725,0.00193
-0.10121,0.82741,0.55239,0.27954,-0.03636,-0.14076
-0.10368,0.85383,0.51012,0.17814,-0.18253,-0.23131
-0.10159,0.87818,0.46742,0.13758,0.033,-0.29029
-0.09582,0.89915,0.42702,0.11101,0.32221,-0.29596
-0.08529,0.9161,0.39177,0.03555,0.36038,-0.38264
-0.07328,0.92893,0.36292,0.01426,0.13972,-0.16841
-0.06147,0.94017,0.33512,0.09443,-0.22305,-0.07575
-0.04487,0.95075,0.30668,0.21273,-0.37217,-0.11236
-0.02407,0.9591,0.28202,0.16892,-0.29731,-0.14547
-0.00283,0.96557,0.2601,0.06858,-0.15697,-0.06396
0.01594,0.97112,0.23804,-0.04197,0.02383,-0.14429
0.03209,0.97529,0.21857,-0.06166,0.02195,-0.08837
0.04291,0.97918,0.19842,-0.07245,-0.01712,-0.07774
0.04935,0.983,0.17682,-0.05852,-0.09209,0.00285
0.05447,0.98613,0.15678,-0.06597,-0.09041,0.01595
0.06119,0.98802,0.14169,-0.0627,-0.02546,-0.03544
0.06976,0.9888,0.13194,-0.05341,-0.01484,0.00817
0.07867,0.98918,0.12378,-0.01439,-0.00615,0.00353
0.08436,0.9898,0.11478,-0.03637,0.00202,0.05905
0.08956,0.99067,0.10267,-0.02097,0.03414,0.03083
0.09359,0.99137,0.09178,0.00054,0.03156,0.12146
0.10392,0.99122,0.08175,-0.12585,0.09028,0.10676
0.11605,0.99059,0.07251,-0.13436,0.13015,0.05127
0.12848,0.98989,0.06013,-0.00769,0.16441,0.05682
0.13998,0.98914,0.0448,0.11003,0.25476,0.10097
0.14908,0.98835,0.03062,-0.03073,0.45756,-0.03891
0.15507,0.98756,0.02598,-0.17337,0.63109,-0.19435
0.15597,0.98729,0.03055,0.14127,0.79199,-0.08603
0.14941,0.98815,0.03502,0.60456,0.38472,0.23583
0.14455,0.9883,0.0487,0.50131,0.26588,0.31518
0.13938,0.98711,0.07867,0.04473,0.27942,0.47153
0.12532,0.9854,0.11526,-0.08072,0.39171,0.38821
0.09642,0.98281,0.1574,-0.38003,0.45018,0.08369
0.05502,0.97704,0.20581,-0.30958,0.37879,-0.38944
0.00775,0.96815,0.25024,0.07569,0.2314,-0.48356
-0.02874,0.95691,0.28895,0.50463,-0.07806,-0.43435
-0.05112,0.94232,0.33077,0.74605,-0.15947,-0.29849
-0.07478,0.92256,0.37854,0.61935,0.10285,-0.03839
-0.10048,0.89548,0.43361,0.53182,0.14155,-0.01939
-0.12792,0.86408,0.48681,0.37958,0.17359,-0.04224
-0.16094,0.83148,0.53172,0.26947,0.17814,-0.40553
-0.19047,0.7919,0.58018,0.24516,0.08746,-0.53901
-0.20429,0.74693,0.63274,0.26696,-0.13931,-0.51689
-0.20582,0.69997,0.68387,0.09033,-0.27503,-0.38795
-0.19949,0.65389,0.72981,0.19294,-0.20896,-0.31752
-0.19273,0.61023,0.76842,0.15958,-0.33058,-0.33898
-0.1844,0.5742,0.79767,0.15364,-0.41071,-0.34232
-0.1749,0.54796,0.81801,0.15656,-0.36977,-0.35878
-0.16298,0.52999,0.83219,0.14522,-0.31018,-0.40707
-0.14906,0.51849,0.84199,0.12845,-0.2649,-0.34092
-0.13695,0.51404,0.84676,0.0893,-0.24186,-0.26083
-0.13001,0.51801,0.84544,-0.00299,-0.2401,-0.0694
-0.1265,0.52938,0.8389,-0.03279,-0.18903,-0.12522
-0.1222,0.5471,0.8281,-0.04513,-0.17526,-0.22162
-0.11928,0.57189,0.81161,-0.08934,-0.12731,-0.09137
-0.12931,0.59806,0.79095,-0.1613,0.35192,1.15603
-0.15849,0.60743,0.7784,-0.01839,1.07343,0.94739
-0.15267,0.62229,0.76775,0.26121,0.79968,-0.45171
-0.12356,0.64063,0.75784,0.56083,0.11693,0.82453
-0.10108,0.66514,0.73985,0.0228,-0.41384,-0.46008
-0.09897,0.69937,0.70787,0.16285,0.20061,0.05716
-0.10192,0.72932,0.67653,0.37232,0.41617,0.01756
-0.09687,0.75672,0.64652,0.44488,0.50833,0.02294
-0.09094,0.78406,0.61399,0.21721,0.04831,-0.03406
-0.09103,0.81271,0.5755,0.21394,-0.12157,-0.05948
-0.09657,0.84262,0.52978,0.2415,-0.23037,-0.13546
-0.10147,0.87082,0.48101,0.28061,0.19392,-0.21529
-0.10394,0.89495,0.43387,0.11673,0.3254,-0.20493
-0.10254,0.91388,0.39281,0.04509,0.2948,-0.14715
-0.09877,0.92964,0.35498,-0.05835,-0.16703,-0.05542
-0.09029,0.94418,0.31681,-0.07565,-0.24798,-0.07155
-0.07671,0.95776,0.27713,-0.06227,-0.19548,-0.12551
-0.06094,0.96924,0.23846,-0.08675,-0.04826,-0.20732
-0.04396,0.97835,0.20222,-0.06053,-0.0367,-0.23527
-0.02767,0.98459,0.17267,0.02244,-0.13989,-0.15542
-0.01373,0.9887,0.14922,0.14284,-0.20024,0.00495
-0.00117,0.99205,0.12583,0.23466,-0.27122,0.15039
0.00798,0.99485,0.10106,0.2005,-0.28736,0.13137
0.01623,0.99687,0.07735,0.1048,-0.17047,0.00687
0.02331,0.99806,0.05761,0.02488,-0.07555,-0.05322
0.02712,0.99875,0.042,-0.14945,0.07353,-0.04896
0.02844,0.9992,0.02791,-0.08779,-0.03199,0.04022
0.02961,0.99944,0.01527,0.05447,-0.05239,0.12841
0.03256,0.99946,0.00367,0.06851,-0.0173,0.1648
0.03679,0.99929,-0.00772,0.03801,-0.05593,0.02794
0.04034,0.99899,-0.01958,0.02524,-0.03647,0.04238
0.04646,0.99851,-0.02858,0.01096,-0.0214,0.08363
0.05749,0.99776,-0.03415,-0.02194,0.04162,0.08554
0.06908,0.99666,-0.0434,-0.04023,0.08329,0.01845
0.08046,0.99507,-0.058,-0.06076,0.064,0.00256
0.09299,0.99314,-0.07086,-0.04928,0.02854,0.00311
0.10475,0.99094,-0.08403,-0.00428,0.04751,0.08987
0.11601,0.98857,-0.09621,-0.01582,0.08593,0.0827
0.12445,0.98647,-0.10668,-0.10304,0.21247,0.01238
0.12995,0.98509,-0.11273,-0.22628,0.43659,0.11812
0.12983,0.98507,-0.113,-0.27799,0.40259,0.14254
0.12358,0.98671,-0.1055,-0.21133,0.45648,0.15826
0.10916,0.98985,-0.09096,0.17083,0.33902,0.2824
0.09005,0.99361,-0.06805,0.26793,0.24976,0.37361
0.07103,0.99694,-0.03254,0.34619,0.03625,0.35836
0.05295,0.99852,0.01199,0.43124,-0.00957,-0.03756
0.03338,0.99759,0.06079,0.51673,0.10458,-0.14731
0.01565,0.99387,0.10941,0.70913,0.29809,-0.03166
-0.00471,0.98818,0.15323,0.68059,0.35974,-0.03701
-0.02904,0.9806,0.19382,0.51159,0.24049,-0.12503
-0.05341,0.97114,0.23243,0.38569,0.21293,-0.1126
-0.07459,0.95994,0.27007,0.36843,-0.04237,-0.18029
-0.09514,0.94744,0.30547,0.30583,-0.10884,-0.18455
-0.11236,0.93502,0.33632,0.16938,-0.22039,-0.2466
-0.11912,0.92296,0.36597,0.2386,-0.22987,-0.28866
-0.11579,0.91026,0.3975,0.34297,-0.23892,-0.31704
-0.10701,0.89745,0.42792,0.54971,-0.25736,-0.26033
-0.09634,0.88649,0.4526,0.54437,-0.26396,-0.26116
-0.08703,0.8791,0.4686,0.49693,-0.28226,-0.28616
-0.07955,0.87545,0.4767,0.2632,-0.33339,-0.26127
-0.07054,0.87519,0.47859,0.13934,-0.3105,-0.22049
-0.05893,0.87829,0.47447,-0.06555,-0.30364,-0.14056
-0.04459,0.88488,0.46367,-0.18133,-0.31169,-0.04565
-0.03255,0.89494,0.44499,-0.18579,-0.19659,0.07326
-0.02689,0.90631,0.42176,-0.2351,-0.10162,0.13368
-0.02449,0.91674,0.39872,-0.29163,0.06331,0.28889
-0.02503,0.92505,0.379,-0.23309,0.07376,0.34387
-0.03431,0.93153,0.36202,-0.08694,0.09995,0.37394
-0.04866,0.93567,0.3495,0.13779,0.0825,0.53256
-0.06262,0.93854,0.33944,0.30222,-0.08398,0.46351
-0.06992,0.94088,0.33144,0.44681,-0.16863,0.22715
-0.06941,0.94487,0.32,0.56938,-0.11398,0.11873
-0.06648,0.95068,0.30295,0.88606,0.07976,0.06428
-0.05982,0.95756,0.28193,0.98781,0.93514,-0.16695
-0.05076,0.96018,0.27472,0.9964,1.45472,-0.04034
-0.05524,0.95656,0.28625,0.00211,-0.23071,-0.03913
-0.06789,0.95939,0.27378,0.2658,-1.38604,-0.59011
-0.07152,0.9656,0.25,0.62789,-0.89991,-0.58308
-0.07132,0.97282,0.22031,0.11466,0.46593,-0.04057
-0.08394,0.98009,0.17993,0.08811,1.05534,-0.50876
-0.09526,0.98444,0.14767,0.21924,0.59579,-0.42529
-0.09894,0.98693,0.12723,0.31433,-0.27558,0.22417
-0.09188,0.99121,0.09512,0.48717,-0.50193,0.26751
-0.08546,0.99523,0.04696,0.47085,-0.26594,-0.07906
-0.07727,0.99701,0.00149,0.30604,-0.03728,-0.23328
-0.06734,0.99712,-0.03478,0.06636,0.12095,-0.24505
-0.0582,0.99595,-0.06844,-0.05688,0.18442,-0.03245
-0.05146,0.99352,-0.10131,0.00492,0.09004,-0.00045
-0.04536,0.99031,-0.13122,0.11818,-0.0892,0.00872
-0.0378,0.98726,-0.15454,0.15601,-0.10384,-0.02234
-0.02815,0.98419,-0.17484,0.14926,-0.07718,0.0945
-0.01651,0.98064,-0.19512,0.11433,-0.0027,0.22626
-0.00338,0.97695,-0.21345,-0.00478,0.07263,0.15046
0.00759,0.97381,-0.22721,-0.03474,0.05336,0.08919
0.01696,0.9709,-0.23886,-0.01427,-0.0073,0.12656
0.0253,0.96773,-0.2507,0.0456,0.00215,0.27348
0.03466,0.96402,-0.26356,-0.00698,0.04244,0.21818
0.04601,0.96024,-0.27536,-0.06403,0.02737,0.15966
0.05802,0.9567,-0.28521,-0.06913,0.08459,0.15809
0.07058,0.95329,-0.29371,-0.00408,0.04972,0.20339
0.0839,0.9495,-0.30233,0.04749,0.06971,0.23585
0.09864,0.94514,-0.31142,0.10283,0.07057,0.32212
0.11438,0.94148,-0.31708,0.03638,0.05218,0.29816
0.12755,0.9388,-0.31997,-0.159,0.13537,0.27428
0.13909,0.93622,-0.32271,-0.16164,0.13998,0.37755
0.15041,0.93357,-0.3253,-0.12139,0.14687,0.41363
0.16086,0.93208,-0.32458,-0.10186,0.20383,0.34315
0.16668,0.93249,-0.32042,-0.23378,0.36401,0.2742
0.16557,0.93648,-0.30916,-0.14609,0.54597,0.24572
0.15725,0.94427,-0.28917,0.01842,0.58019,0.37224
0.14661,0.95529,-0.25677,0.25216,0.40656,0.57891
0.14118,0.96896,-0.20292,0.37469,0.19597,0.62554
0.1427,0.98103,-0.13123,0.49428,0.03709,0.52129
0.1418,0.98821,-0.05779,0.49777,0.17007,0.03823
0.12824,0.99167,0.0122,0.42582,0.34008,-0.19692
0.0987,0.99247,0.07251,0.19702,0.61939,-0.23035
0.05921,0.99103,0.11981,0.13357,0.60805,-0.12585
0.01478,0.98553,0.16887,0.28797,0.38337,-0.14439
-0.02769,0.97188,0.23382,0.27215,0.27032,-0.20116
-0.06189,0.94856,0.31049,0.01259,-0.08666,0.12348
-0.09074,0.92104,0.37874,0.04973,-0.35242,-0.0051
-0.10564,0.88787,0.44779,0.16808,-0.30439,-0.17421
-0.11182,0.84927,0.51597,0.19036,0.00903,-0.18707
-0.11233,0.80948,0.5763,0.12033,0.05345,-0.1592
-0.10503,0.77007,0.62925,0.02976,-0.07816,-0.16697
-0.09563,0.7331,0.67336,0.11536,-0.51096,-0.1927
-0.08729,0.70155,0.70725,-0.00361,-0.46588,-0.25895
-0.0755,0.67398,0.73488,-0.06,-0.28758,-0.20522
-0.06443,0.65397,0.75377,0.0526,-0.38335,-0.19138
-0.0579,0.64391,0.76291,0.02456,-0.44371,-0.08783
-0.0548,0.63979,0.76659,0.11334,-0.39403,-0.1535
-0.04774,0.63846,0.76817,0.02642,-0.41445,-0.19013
-0.03878,0.64296,0.76491,-0.15177,-0.3416,0.03803
-0.03103,0.65201,0.75757,-0.11963,-0.35197,0.02662
-0.02475,0.66436,0.747,-0.14935,-0.29323,0.0154
-0.02318,0.68341,0.72967,-0.04663,-0.26583,-0.00991
-0.02602,0.70824,0.70549,0.05656,-0.29079,0.0885
-0.03771,0.72069,0.69223,0.30332,0.33006,1.03542
-0.0468,0.70983,0.70281,-0.22126,0.70812,0.08482
-0.02406,0.73184,0.68105,0.06793,-0.33567,-0.52407
-0.01848,0.76107,0.6484,0.23775,-0.76312,0.36652
-0.02351,0.78987,0.61282,0.12789,-0.41239,-0.20899
-0.03467,0.8187,0.57318,0.2692,0.24165,-0.16037
-0.03562,0.84144,0.53917,0.52874,0.47169,0.11564
-0.03056,0.86217,0.50569,0.26831,0.22068,0.05541
-0.03048,0.88509,0.46441,0.08461,-0.20795,-0.06875
-0.03254,0.90751,0.41876,0.04786,-0.1662,-0.07521
-0.03295,0.92707,0.37344,-0.01539,0.0979,-0.04451
-0.03171,0.943,0.33128,-0.10915,0.32601,-0.15907
-0.02925,0.95434,0.29728,-0.12648,0.2237,-0.14363
-0.02558,0.96273,0.26924,-0.11931,-0.25188,-0.03252
-0.0174,0.96966,0.24382,-0.13175,-0.34723,0.05923
-0.00407,0.97524,0.22111,-0.04174,-0.33632,0.0937
0.01021,0.97979,0.19978,0.02275,-0.11545,0.17846
0.0236,0.98384,0.17748,0.00302,-0.07042,0.17168
0.0357,0.98724,0.15515,-0.01087,0.01312,0.07188
0.04669,0.99001,0.13306,-0.03792,-0.01285,0.06303
0.05878,0.99174,0.11403,-0.1055,-0.064,0.06935
0.07379,0.99248,0.09761,-0.26065,-0.1881,0.14458
0.09081,0.9926,0.08061,-0.29412,-0.13866,0.12034
0.10912,0.99179,0.06664,-0.34603,-0.00247,0.0507
0.12704,0.9906,0.0506,-0.26997,0.197,0.21729
0.14476,0.98905,0.02875,-0.17582,0.1358,0.20399
0.16589,0.98612,0.00673,-0.15234,0.05162,0.14346
0.18825,0.98199,-0.01576,-0.03021,0.0972,0.22824
0.20977,0.97697,-0.03897,0.02706,0.16205,0.2816
0.22953,0.97156,-0.05821,0.11329,0.44072,0.12327
0.247,0.96659,-0.06859,-0.18103,0.65373,-0.01095
0.26143,0.96269,-0.06994,-0.20207,0.61831,0.20913
0.26871,0.96106,-0.06452,-0.06205,0.51505,0.36953
0.27249,0.96076,-0.05183,0.1433,0.22144,0.6144
0.27153,0.96207,-0.02623,-0.1841,0.11201,0.52731
0.26078,0.96538,0.00548,-0.40331,0.12751,0.31112
0.23613,0.9709,0.03982,-0.47023,0.18471,0.08147
0.20331,0.97645,0.0721,-0.32734,0.35651,-0.15029
0.17102,0.98012,0.10055,0.06397,0.3941,-0.25393
0.1462,0.97988,0.13586,0.36076,0.08254,-0.30983
0.12827,0.97483,0.18235,0.42261,0.06026,0.18127
0.10504,0.9663,0.23501,0.64517,-0.09476,0.59541
0.08225,0.95464,0.28618,0.38948,0.0193,0.18472
0.06015,0.93706,0.34393,0.24192,0.16221,-0.16946
0.03198,0.9154,0.40128,0.31992,0.22828,-0.24622
0.00282,0.8865,0.46271,0.23418,-0.06158,-0.23311
-0.01599,0.84903,0.5281,-0.17034,-0.19739,-0.26609
-0.02248,0.80686,0.59031,-0.23005,-0.18251,-0.33293
-0.01458,0.76396,0.6451,-0.34388,-0.57063,-0.32286
-0.00737,0.7293,0.68416,-0.03688,-0.74701,-0.16278
0.00172,0.70457,0.70963,0.03624,-0.58264,-0.18375
0.01209,0.69158,0.7222,-0.0508,-0.44142,-0.21451
0.02094,0.68982,0.72367,-0.13253,-0.35976,-0.26148
0.02857,0.69641,0.71708,-0.18987,-0.51991,-0.2071
0.03314,0.71139,0.70201,-0.19908,-0.59879,-0.03135
0.02331,0.73564,0.67696,-0.12858,-0.60317,0.00936
0.00957,0.76823,0.64009,0.04313,-0.80583,-0.08838
0.00371,0.79272,0.60957,0.53329,0.05355,0.65952
-0.01294,0.82863,0.55964,-0.37869,1.57562,-0.53035
-0.02184,0.85408,0.51968,0.18311,1.47153,-0.3732
-0.01015,0.87247,0.48856,0.09233,-0.26238,0.2703
-0.00552,0.89431,0.44742,0.29518,-0.5833,0.09247
0.00203,0.9126,0.40884,0.36372,-0.35506,0.19762
0.0154,0.93062,0.36567,0.26368,0.40016,-0.06022
0.02709,0.94589,0.32336,0.10475,0.32955,-0.1224
0.0368,0.95822,0.28363,-0.05605,0.28341,-0.14869
0.04595,0.96829,0.24555,-0.32069,-0.03789,-0.0327
0.05795,0.97593,0.21024,-0.292,-0.16796,-0.07479
0.0747,0.98093,0.17942,-0.26862,-0.2152,-0.05346
0.09432,0.98407,0.15067,-0.09357,-0.28044,0.0417
0.11547,0.98553,0.12405,-0.01624,-0.28969,0.05793
0.13544,0.9858,0.09925,-0.07122,-0.27773,0.06878
0.15411,0.98529,0.07387,-0.18182,-0.26271,0.14005
0.17089,0.98396,0.05122,-0.19882,-0.21711,0.11766
0.18591,0.982,0.03331,-0.15867,-0.13302,0.11428
0.19772,0.98009,0.01805,-0.1848,0.041,0.22909
0.20789,0.97814,0.00382,-0.20962,0.03385,0.22272
0.21751,0.976,-0.01038,-0.24288,0.02851,0.24741
0.22779,0.97338,-0.02521,-0.3514,0.11037,0.1154
0.23987,0.97001,-0.03916,-0.33796,0.16756,0.06852
0.25299,0.966,-0.05324,-0.29832,0.18745,0.10905
0.26625,0.96134,-0.07028,-0.19929,0.22776,0.23383
0.27861,0.95629,-0.08874,-0.21401,0.24723,0.29117
0.29022,0.95097,-0.10691,-0.20836,0.33599,0.29698
0.30081,0.94598,-0.12102,-0.11021,0.48785,0.30769
0.30822,0.94317,-0.1242,-0.14477,0.57738,0.23737
0.31202,0.94367,-0.11017,-0.32935,0.7693,0.09424
0.31024,0.94668,-0.08692,-0.11477,0.48077,0.22956
0.30037,0.95189,-0.06064,0.27504,0.36044,0.44481
0.28756,0.95727,-0.03061,0.2011,0.18181,0.57329
0.27232,0.96218,0.00765,-0.14468,0.17817,0.48745
0.24655,0.96792,0.04835,-0.46898,0.25213,0.14266
0.21416,0.97359,0.07905,-0.48593,0.22283,-0.29005
0.18644,0.97685,0.10485,-0.0932,0.24329,-0.3847
0.16194,0.97777,0.13316,0.23184,0.14047,-0.49841
0.14283,0.97464,0.17226,0.31398,-0.0667,-0.30228
0.12424,0.96667,0.22386,0.35766,-0.07418,0.1673
0.10289,0.95716,0.27067,0.52791,-0.04558,0.49269
0.07735,0.94567,0.31578,0.39183,-0.04664,0.01677
0.04771,0.93093,0.36207,0.189,0.0485,-0.36912
0.01657,0.91025,0.41372,0.10219,-0.01345,-0.46647
-0.00553,0.88173,0.47173,0.0062,-0.09256,-0.37891
-0.01565,0.84785,0.52999,-0.06767,-0.27661,-0.25039
-0.01308,0.81063,0.58541,-0.0694,-0.44781,-0.24024
-0.00296,0.77362,0.63364,0.00434,-0.45489,-0.25469
0.00936,0.74184,0.6705,-0.05585,-0.5955,-0.21743
0.02438,0.71933,0.69424,-0.11466,-0.46629,-0.17567
0.04387,0.70581,0.70704,-0.15465,-0.39008,-0.21217
0.06473,0.70262,0.70861,-0.13924,-0.43713,-0.18715
0.07694,0.71066,0.69932,-0.16796,-0.43703,-0.07758
0.07384,0.72623,0.68347,-0.157,-0.44991,0.1921
0.06283,0.7506,0.65776,0.10996,-0.68616,0.05662
0.06204,0.78025,0.62238,0.27649,-0.29098,0.10277
0.03362,0.82049,0.57067,-0.21548,0.80057,0.55105
0.01135,0.8476,0.5305,0.41287,1.91747,0.3743
0.01914,0.86238,0.5059,0.42271,1.11376,0.17159
0.01931,0.88325,0.4685,0.26748,-0.68037,0.17839
0.02806,0.9028,0.42914,0.28326,-0.37443,0.18797
0.03955,0.92261,0.38369,0.23476,0.14056,0.0826
0.05153,0.9396,0.33836,0.20702,0.40625,0.02101
0.0619,0.95347,0.29507,0.00626,0.37647,-0.11168
0.06849,0.96532,0.25193,-0.16346,0.0679,-0.12752
0.07483,0.97427,0.21261,-0.24248,-0.1257,-0.13041
0.08707,0.9803,0.17727,-0.25661,-0.31383,-0.05937
0.1061,0.98406,0.14272,-0.09901,-0.31476,0.03972
0.12807,0.98588,0.10786,-0.02013,-0.26612,0.04235
0.15009,0.98572,0.07628,-0.04022,-0.18796,-0.03018
0.17075,0.98403,0.05029,-0.12794,-0.16661,0.04211
0.18874,0.98158,0.0295,-0.21344,-0.12518,0.05345
0.20305,0.9791,0.01183,-0.19014,-0.14705,0.08291
0.21442,0.97672,-0.00679,-0.18256,-0.11627,0.1418
0.22454,0.97412,-0.02597,-0.17287,-0.00828,0.14703
0.23462,0.97117,-0.0421,-0.22063,0.08614,0.21447
0.24427,0.96814,-0.05507,-0.26281,0.10303,0.19004
0.2537,0.96497,-0.06681,-0.29054,0.12297,0.15771
0.26376,0.96139,-0.07853,-0.39397,0.18643,0.20086
0.27314,0.95765,-0.09108,-0.42444,0.23914,0.20256
0.2803,0.95418,-0.10469,-0.33176,0.29118,0.18018
0.28766,0.9504,-0.11828,-0.29712,0.23425,0.232
0.29718,0.94587,-0.13044,-0.26849,0.22968,0.30723
0.30748,0.94134,-0.13906,-0.1586,0.30967,0.27078
0.31598,0.93831,-0.14047,0.02916,0.43298,0.20862
0.32098,0.93829,-0.12874,-0.06892,0.48386,-0.03631
0.32161,0.94024,-0.11186,0.04968,0.33578,0.04187
0.31825,0.94288,-0.09843,0.24019,0.38555,0.27699
0.31422,0.94558,-0.08456,0.03304,0.2732,0.33935
0.3095,0.94907,-0.0589,-0.07214,0.27816,0.33765
0.2984,0.95419,-0.02173,-0.35907,0.41203,0.39469
0.27256,0.96205,0.01313,-0.64556,0.45958,0.18645
0.24002,0.96952,0.04914,-0.44285,0.34459,0.17571
0.2113,0.97386,0.08334,0.15505,0.03975,-0.30587
0.18441,0.9753,0.12155,0.23682,0.10856,-0.23373
0.15512,0.97426,0.16355,0.22463,0.10122,-0.22607
0.12464,0.97023,0.20763,0.20834,-0.07381,0.15034
0.09425,0.96307,0.2522,0.22341,-0.08357,0.17321
0.06313,0.95124,0.30192,0.21855,-0.05291,-0.22788
0.03124,0.93332,0.35769,0.21334,-0.10161,-0.24766
0.00396,0.90969,0.41527,0.18695,-0.07024,-0.34975
-0.01277,0.88041,0.47404,0.04674,-0.14199,-0.33163
-0.02112,0.84651,0.53195,-0.20927,-0.2731,-0.10372
-0.02192,0.81019,0.58576,-0.14192,-0.25561,-0.13111
-0.01894,0.77475,0.63198,0.0815,-0.57665,-0.21764
-0.01177,0.74316,0.66901,0.08113,-0.49008,-0.3159
-0.00153,0.71664,0.69744,0.04454,-0.40899,-0.32804
0.00913,0.69829,0.71576,0.04477,-0.28091,-0.23385
0.01867,0.69076,0.72284,0.01171,-0.29158,-0.20863
0.02791,0.69524,0.71823,-0.06258,-0.37707,-0.14403
0.03423,0.71185,0.70149,-0.1241,-0.50387,-0.00151
0.03312,0.73547,0.67675,-0.20144,-0.59409,0.28388
0.01458,0.75001,0.66126,-0.16881,-0.00482,0.78696
0.01141,0.76821,0.6401,0.17237,0.41902,-0.39561
0.00612,0.79265,0.60964,-0.22125,0.79449,0.87969
0.01145,0.81034,0.58585,0.43061,0.34929,-0.19961
0.02267,0.8306,0.55641,-0.11172,-0.24886,0.03728
0.02045,0.85351,0.52067,0.06949,-0.18867,0.03853
0.02577,0.87163,0.48949,0.27661,0.28415,0.04144
0.03026,0.89076,0.45346,0.1822,0.22972,0.02491
0.03047,0.90949,0.41462,0.12898,0.06785,0.0697
0.03009,0.92752,0.37257,0.0095,-0.00689,-0.02801
0.03023,0.94371,0.32939,-0.02634,0.00951,-0.03529
0.03315,0.95665,0.28933,-0.13329,0.09722,-0.05723
0.04028,0.96635,0.25405,-0.20901,0.06243,-0.10399
0.05269,0.97331,0.22334,-0.18638,-0.06748,0.0014
0.07045,0.97838,0.19442,-0.13978,-0.18006,0.04319
0.08856,0.98215,0.16591,-0.03372,-0.21369,0.10211
0.10587,0.98492,0.13687,-0.0033,-0.21148,0.08318
0.12365,0.98616,0.11047,0.00456,-0.19353,0.01872
0.1402,0.98639,0.08591,-0.04445,-0.1879,0.06079
