gravity.x,gravity.y,gravity.z,userAcceleration.x,userAcceleration.y,userAcceleration.z
0.15625,0.96403,-0.21501,-0.34621,-0.56617,-0.12541
0.1427,0.97298,-0.1815,-0.32139,-0.21309,0.23608
0.12273,0.98115,-0.14926,-0.2372,0.14321,0.17587
0.10038,0.98704,-0.12518,-0.11077,0.31603,0.05058
0.08003,0.99059,-0.11099,0.04445,0.30402,-0.0004
0.06661,0.99282,-0.09938,0.23468,0.09231,-0.01409
0.05874,0.99425,-0.08955,0.39305,-0.05832,-0.12462
0.05174,0.99542,-0.08037,0.45485,-0.096,-0.11697
0.04914,0.99625,-0.07115,0.30074,-0.11208,-0.09594
0.04932,0.99654,-0.06692,0.13611,-0.09569,-0.01878
0.05098,0.99672,-0.06281,0.04857,-0.13367,-0.03109
0.05422,0.99699,-0.05547,0.04283,-0.15482,0.10672
0.0595,0.9972,-0.04531,-0.05196,-0.14417,0.14312
0.06696,0.9974,-0.02654,-0.21535,0.05109,0.01495
0.06603,0.99782,0.00041,-0.30506,0.12892,0.13846
0.05504,0.99817,0.02505,0.01623,0.26366,0.20216
0.03955,0.9978,0.05319,0.45329,0.43917,0.1713
0.02395,0.99569,0.08954,0.52805,0.49721,-0.07867
0.01577,0.99086,0.13395,0.50556,0.48572,-0.29767
0.0168,0.98335,0.18095,0.31398,0.54458,-0.93544
0.0253,0.97509,0.22035,-0.20627,0.87626,-1.00808
0.02759,0.97047,0.23964,-0.15725,0.80636,-0.93199
0.02271,0.972,0.23385,0.08331,0.39135,-0.90624
0.01658,0.97798,0.20804,0.09462,0.37559,-0.69414
0.01527,0.98593,0.16644,0.01853,0.39479,-0.67957
0.0184,0.99377,0.10991,-0.11376,0.46293,-0.70175
0.02352,0.99893,0.03978,-0.01792,0.43265,-0.45882
0.03201,0.9988,-0.03707,0.05289,0.35995,0.08933
0.04735,0.99317,-0.10664,0.05897,0.37124,0.64575
0.06608,0.98396,-0.16566,0.01134,0.39458,0.84312
0.08309,0.97447,-0.20856,0.00829,0.13812,0.74674
0.09901,0.96289,-0.25108,-0.17281,0.07155,0.3301
0.10902,0.93946,-0.32485,0.01309,0.11935,-0.6432
0.10991,0.9039,-0.41339,-0.03441,0.15659,-0.4144
0.11525,0.8762,-0.46797,-0.01247,0.15853,0.16647
0.10925,0.84462,-0.5241,0.15784,0.11815,0.61301
0.08089,0.80166,-0.59228,0.11003,0.0161,0.69485
0.04551,0.75876,-0.64978,-0.0831,-0.26405,0.77328
0.00345,0.71613,-0.69795,-0.1413,-0.41433,0.85788
-0.04829,0.67459,-0.73661,0.00637,-0.4745,0.88882
-0.10007,0.6382,-0.76333,-0.05483,-0.63579,0.89528
-0.14417,0.61035,-0.7789,-0.09422,-0.59692,0.72203
-0.17866,0.5945,-0.78399,0.08392,-0.57041,0.47685
-0.19737,0.5925,-0.78102,-0.08878,-0.35251,0.43425
-0.19504,0.60021,-0.7757,-0.13942,-0.24688,0.26311
-0.17354,0.61089,-0.77246,-0.08484,-0.22155,0.18945
-0.13827,0.62336,-0.76961,-0.12228,-0.22848,-0.49322
-0.09817,0.63568,-0.76568,-0.19668,-0.19084,-0.89928
-0.06009,0.64263,-0.76382,-0.22092,-0.0873,-1.0891
-0.02377,0.65737,-0.75319,0.04054,0.00738,-0.80766
-0.0246,0.69021,-0.72319,0.65136,0.52662,-0.29382
-0.01179,0.72938,-0.684,0.29658,0.25191,0.98303
0.01724,0.76437,-0.64454,-1.20793,-0.13234,0.04345
0.03643,0.79134,-0.61029,-0.93035,-0.13567,-0.00482
0.05055,0.82147,-0.56801,-0.32151,-0.01577,0.59604
0.08645,0.85058,-0.51869,-0.42159,0.08057,0.17518
0.11238,0.87655,-0.46801,-0.35856,0.00033,0.06344
0.12931,0.90176,-0.41244,-0.21285,0.03464,0.18732
0.14465,0.92608,-0.3485,-0.03425,0.2472,0.2251
0.15326,0.94731,-0.28126,-0.03595,0.22365,0.20702
0.1495,0.96534,-0.21393,-0.00148,0.20544,0.22168
0.13593,0.98001,-0.14522,0.10267,0.20796,0.35184
0.12348,0.98922,-0.07874,0.12855,0.1335,0.31229
0.11703,0.99285,-0.02339,0.13871,0.10587,0.27745
0.10925,0.99374,0.02315,0.09257,0.13466,0.20933
0.09199,0.99394,0.06016,0.15584,0.07963,0.10351
0.07207,0.9936,0.08692,0.2152,0.05434,0.06083
0.05659,0.99243,0.10894,0.27253,-0.03938,0.02419
0.04619,0.99026,0.13132,0.326,-0.16273,-0.00629
0.04381,0.98561,0.16325,0.27248,-0.15582,0.05071
0.03796,0.97934,0.19862,0.24758,-0.04445,0.00425
0.03186,0.97295,0.22878,0.17931,-0.05419,0.1014
0.02909,0.96536,0.25929,0.1956,-0.0299,-0.31874
0.02756,0.95291,0.30198,0.15995,-0.0089,-0.43043
0.02449,0.93765,0.34671,0.11052,-0.21344,-0.38461
0.01788,0.92463,0.38043,-0.0787,-0.14155,-0.55017
0.0116,0.91731,0.39799,-0.20022,-0.11485,-0.50132
0.00726,0.91348,0.40681,-0.21841,-0.06235,-0.29935
-0.00186,0.90559,0.42414,-0.0507,-0.01464,-0.31826
-0.01611,0.89315,0.44945,0.36705,0.05779,-0.47104
-0.02717,0.8825,0.46952,0.44804,0.27752,-0.65326
-0.03339,0.87546,0.48213,0.26475,0.4091,-0.58609
-0.04203,0.87165,0.48831,0.2667,0.70774,-0.44566
-0.06083,0.87458,0.48104,0.66224,0.49284,-0.40928
-0.07475,0.88329,0.46282,0.67112,0.33407,-0.43168
-0.06363,0.89528,0.44092,0.10761,0.68925,-0.7479
-0.0343,0.90947,0.41434,-0.13125,0.7794,-0.80368
-0.01246,0.93198,0.36227,-0.34705,0.50994,-0.71154
-0.00473,0.9591,0.28302,-0.14015,0.63433,0.10901
0.00292,0.98153,0.19128,-0.18205,0.61724,0.42354
0.02684,0.99364,0.10934,-0.18416,0.57663,0.74361
0.05263,0.99775,0.04145,-0.4142,0.64265,0.64795
0.06149,0.99795,-0.01766,-0.81338,0.46426,0.34287
0.07536,0.99498,-0.06588,-0.87584,0.57325,-0.7488
0.11205,0.98987,-0.08718,-0.38282,0.21143,-0.10592
0.1323,0.98095,-0.14223,-0.27442,-0.11449,0.64497
0.13118,0.96569,-0.22415,-0.14977,-0.39202,0.52415
0.13047,0.95147,-0.27871,0.03791,-0.43276,0.41985
0.12643,0.94268,-0.3088,0.24213,-0.36611,0.40806
0.11538,0.93311,-0.34056,0.19677,-0.34501,0.4559
0.11101,0.921,-0.37342,-0.06947,-0.33167,0.48717
0.10912,0.9094,-0.40134,-0.20047,-0.43602,0.5358
0.10009,0.90043,-0.42334,-0.25004,-0.54288,0.54863
0.08569,0.89645,-0.43477,-0.13693,-0.75679,0.5085
0.0708,0.89818,-0.43389,-0.02983,-0.67254,0.48518
0.05989,0.904,-0.42331,-0.0168,-0.62396,0.40877
0.05585,0.91341,-0.40318,0.15383,-0.42533,0.36549
0.06068,0.92592,-0.3728,0.12213,0.22143,-0.18297
0.09793,0.9318,-0.3495,-0.18221,0.53443,-1.12299
0.16304,0.92727,-0.33702,-0.37146,0.89916,-2.49368
0.18683,0.93154,-0.31196,-0.21817,0.05729,-1.0126
0.18658,0.94216,-0.27843,-0.26378,0.13321,-0.66644
0.17128,0.94593,-0.27546,-0.30709,1.21121,0.464
0.14365,0.95625,-0.25483,-0.16608,1.40997,1.37864
0.13572,0.96303,-0.23269,-0.60688,0.26175,0.26692
0.17142,0.96018,-0.22058,-0.40883,-0.52972,0.58281
0.20467,0.95989,-0.19162,-0.50653,-0.76032,0.66551
0.22598,0.96355,-0.14319,-0.44995,-0.51909,0.72119
0.22386,0.97074,-0.08689,-0.35329,-0.17096,0.492
0.19841,0.97959,-0.03222,-0.23704,0.10756,0.3684
0.16726,0.98552,0.02749,-0.1562,0.32498,0.31301
0.15155,0.98481,0.08466,0.17041,0.41724,0.34361
0.15069,0.98057,0.12557,0.36163,0.23502,0.31219
0.14955,0.97777,0.14696,0.40379,0.07405,0.20218
0.15523,0.97509,0.15841,0.28711,-0.22648,-0.05322
0.17369,0.96958,0.17246,0.20422,-0.3218,-0.0295
0.19431,0.96238,0.18991,0.13594,-0.31461,-0.03142
0.20276,0.95648,0.20983,-0.00157,-0.1089,0.03786
0.1981,0.95232,0.23201,0.04878,0.30538,-0.01213
0.18501,0.95035,0.25019,0.04183,0.28018,-0.08875
0.17197,0.94855,0.26586,0.11944,0.09085,-0.14923
0.15828,0.94634,0.28174,0.18857,-0.00576,-0.16838
0.1384,0.94541,0.29502,0.21072,-0.05831,-0.14949
0.11435,0.94566,0.30436,0.21299,-0.09198,-0.11326
0.0925,0.94536,0.31261,0.19623,-0.11509,-0.0761
0.07422,0.94394,0.32166,0.07692,-0.01193,-0.05061
0.05822,0.9418,0.33109,-0.01873,0.00791,-0.05714
0.04571,0.9384,0.34251,-0.04704,0.08652,-0.1262
0.03695,0.9326,0.359,0.0037,0.18627,-0.25547
0.03184,0.92384,0.38145,0.16909,0.00899,-0.44441
0.0316,0.9118,0.4094,0.35006,0.079,-0.55749
0.03202,0.89547,0.44396,0.46935,0.35102,-0.79549
0.02417,0.88433,0.46622,0.38576,0.40276,-0.93616
0.01583,0.89237,0.45102,0.22699,0.43003,-0.63504
0.01703,0.90276,0.4298,0.16362,0.49968,-0.57956
0.01972,0.91614,0.40036,0.1419,0.65219,-0.82954
0.03075,0.93737,0.34697,-0.06481,0.54696,-0.93038
0.03908,0.96309,0.2663,0.01416,0.48817,-0.33998
0.03692,0.98521,0.16733,0.1286,0.77071,0.31221
0.04241,0.99656,0.0711,-0.04925,0.92048,0.6241
0.05147,0.99856,-0.01481,-0.17742,0.97519,0.6945
0.05381,0.99515,-0.08229,-0.50387,0.89587,0.58631
0.05395,0.98865,-0.14016,-0.72608,0.44265,-0.09663
0.08701,0.97931,-0.18267,-0.56932,0.36718,-0.47285
0.12049,0.96654,-0.22644,-0.23805,0.18707,0.41438
0.12642,0.94313,-0.30744,-0.00453,0.05644,0.65026
0.09845,0.90909,-0.40479,0.17926,0.10562,0.66531
0.06174,0.86664,-0.49511,0.35644,0.14089,0.42345
0.03637,0.81865,-0.57314,0.39687,0.34558,0.38272
-0.00309,0.76456,-0.64454,0.19215,0.22441,0.72749
-0.06415,0.70878,-0.7025,0.01401,-0.03627,0.77082
-0.12577,0.65874,-0.74179,-0.07534,-0.35799,0.55848
-0.17418,0.61779,-0.76681,0.03055,-0.55643,0.65298
-0.195,0.58661,-0.78604,0.05399,-0.5905,0.58874
-0.19706,0.56652,-0.80014,0.14049,-0.39322,0.38705
-0.19205,0.55563,-0.80894,0.1008,-0.35151,0.27928
-0.18125,0.55241,-0.81363,-0.02669,-0.43276,0.2397
-0.17603,0.55299,-0.81438,0.16833,-0.37583,0.12877
-0.18278,0.55764,-0.80971,0.17121,-0.36895,0.04647
-0.18969,0.57175,-0.7982,0.09275,-0.44846,0.01721
-0.181,0.5979,-0.78087,-0.18436,-0.46253,0.28959
-0.15575,0.64433,-0.74871,-0.4638,-0.43856,0.46003
-0.11775,0.68464,-0.7193,-1.12467,0.7163,-0.59657
-0.07693,0.71054,-0.69944,0.30157,2.20279,0.0076
-0.04626,0.74159,-0.66925,1.02702,1.34492,1.01379
-0.00015,0.78063,-0.62499,-0.24163,-0.05655,0.58716
0.04981,0.80993,-0.58441,-0.36662,-0.48446,0.48163
0.10029,0.83612,-0.5393,-0.41797,-0.4575,0.39184
0.14133,0.86473,-0.48194,-0.02932,0.45632,0.46152
0.16831,0.89353,-0.41625,0.09594,0.6023,0.47137
0.18217,0.91929,-0.34887,0.16733,0.58838,0.49773
0.19257,0.9381,-0.28787,0.33858,0.04493,0.35472
0.20324,0.95133,-0.23166,0.22901,0.02893,0.22528
0.20495,0.9634,-0.17275,0.08758,0.09638,0.15299
0.18878,0.97465,-0.12005,0.0843,0.10633,0.10665
0.16657,0.98212,-0.08766,0.25016,0.1293,0.04722
0.14685,0.98602,-0.07866,0.47816,0.05022,-0.19584
0.12535,0.98893,-0.07939,0.52724,-0.08365,-0.18256
0.10405,0.99174,-0.07502,0.30403,0.01356,0.15226
0.09048,0.99367,-0.0666,0.26633,-0.0276,0.19312
0.0857,0.99503,-0.05062,0.21017,-0.06592,0.08314
0.08311,0.99579,-0.03871,0.16218,-0.11241,0.03801
0.08835,0.99589,-0.01995,0.16517,-0.03887,0.09989
0.09786,0.99503,0.01852,-0.02659,0.21179,-0.04208
0.09557,0.99382,0.05647,-0.06939,0.19901,0.07065
0.07619,0.99354,0.08403,0.29436,0.10352,0.03126
0.05118,0.99211,0.11444,0.44026,0.16043,-0.27014
0.03519,0.98797,0.15059,0.29294,0.44045,-0.63089
0.02622,0.98372,0.17776,-0.169,0.43727,-0.72226
0.02148,0.9808,0.1938,-0.30415,0.54236,-0.63616
0.01833,0.97938,0.20119,0.12675,0.47318,-0.64321
0.01038,0.98201,0.18852,0.31834,0.3558,-0.59124
0.00641,0.98719,0.15943,0.33385,0.37243,-0.58272
0.0107,0.99301,0.1175,0.14184,0.41357,-0.4892
0.02118,0.99788,0.06146,0.08908,0.4266,-0.53961
0.03747,0.99919,-0.01417,0.04902,0.43739,-0.41184
0.05886,0.99295,-0.10287,-0.14777,0.66303,0.53533
0.07847,0.97912,-0.18749,-0.21929,0.80243,0.7889
0.09035,0.96269,-0.25506,-0.29286,0.62353,0.88653
0.09719,0.94835,-0.30197,-0.3382,0.05803,0.91305
0.1082,0.9359,-0.33523,-0.36211,-0.02596,0.66825
0.12424,0.91033,-0.39479,-0.05927,0.22714,-0.53142
0.13222,0.87582,-0.46418,0.28128,0.18699,0.30823
0.13427,0.84402,-0.51923,0.24467,0.11033,0.36236
0.12262,0.80856,-0.57549,0.15855,0.0714,0.62933
0.08419,0.76946,-0.63312,-0.00234,-0.25273,0.88294
0.0448,0.73251,-0.67928,-0.08466,-0.42011,0.92239
0.00462,0.70032,-0.71381,-0.22968,-0.59914,0.87482
-0.03313,0.67343,-0.73851,-0.08292,-0.56967,0.67682
-0.0719,0.65698,-0.75047,-0.03454,-0.64069,0.75337
-0.09859,0.6526,-0.75126,-0.1136,-0.7073,0.63931
-0.10465,0.65736,-0.74627,-0.17086,-0.72996,0.27745
-0.09068,0.67224,-0.73475,-0.07367,-0.66127,0.08752
-0.05439,0.69843,-0.71361,0.08385,-0.36229,-0.39827
-0.01563,0.73474,-0.67817,0.16074,-0.14131,-0.37671
0.00713,0.77069,-0.63717,0.1085,0.53127,0.31416
0.05567,0.79834,-0.59962,0.24406,1.96498,-1.07738
0.0744,0.82189,-0.56476,0.08687,1.09231,-0.01901
0.07974,0.84305,-0.53188,-0.32054,-0.39683,0.65749
0.09542,0.86683,-0.48939,-0.61319,-0.56191,0.04414
0.10458,0.89179,-0.44019,-0.4988,0.04876,0.1216
0.10579,0.91494,-0.38949,-0.34966,0.21232,0.24355
0.10466,0.93578,-0.33669,-0.20832,0.49087,0.30618
0.09453,0.95478,-0.28188,-0.21063,0.55355,0.37389
0.07272,0.97086,-0.22835,-0.18612,0.49852,0.3004
0.05415,0.98158,-0.18318,-0.00297,0.18063,0.20082
0.04617,0.9877,-0.14936,0.10405,-0.09172,0.22888
0.04305,0.99187,-0.1197,0.12301,-0.15107,0.23057
0.04201,0.99469,-0.09398,0.19469,-0.12829,0.20369
0.03986,0.99611,-0.07852,0.27625,-0.05532,0.1048
0.03451,0.9967,-0.07346,0.39274,0.00326,-0.21324
0.02528,0.99756,-0.06501,0.20601,-0.05385,-0.21318
0.01713,0.99834,-0.05504,0.08567,-0.12622,-0.02429
0.0095,0.9985,-0.05389,0.11457,-0.08058,-0.00707
6e-05,0.99845,-0.0557,0.15795,-0.10552,0.13384
-0.00725,0.99869,-0.05064,0.25564,0.04497,0.28837
-0.00728,0.99909,-0.04191,0.25047,0.03889,0.37916
0.00147,0.99977,-0.02133,0.17315,0.09394,0.18447
0.00913,0.99988,0.01261,0.05185,0.14612,0.09753
0.01098,0.9989,0.04551,0.08921,0.28058,0.13386
0.00725,0.99673,0.08047,0.16521,0.34226,-0.04453
0.00507,0.9926,0.1213,0.29115,0.33639,-0.69666
0.00883,0.98773,0.15589,0.29734,0.22975,-0.83628
0.01351,0.98403,0.17749,0.05957,0.31202,-0.81152
0.01426,0.98082,0.19437,-0.02419,0.59767,-0.70099
0.01021,0.98072,0.19512,0.07834,0.48162,-0.68583
0.00631,0.98469,0.17417,0.1319,0.3114,-0.65088
0.0062,0.99005,0.14055,0.05251,0.47652,-0.85561
0.01002,0.99613,0.08724,0.0116,0.53803,-0.93706
0.01603,0.99987,0.00189,-0.04211,0.54924,-0.62581
0.02897,0.99515,-0.09399,-0.06307,0.62988,0.24168
0.05392,0.98406,-0.16944,-0.09503,0.62081,0.86449
0.08288,0.97095,-0.22446,-0.14325,0.4086,1.22844
0.1055,0.958,-0.26665,-0.0961,0.01504,1.00095
0.12732,0.94095,-0.31369,0.02722,0.07384,0.12812
0.15493,0.90927,-0.38629,0.5167,0.55263,-1.39995
0.18173,0.8658,-0.46623,0.23299,0.58138,-0.77057
0.19293,0.8335,-0.51774,0.076,0.48561,0.69273
0.18226,0.79192,-0.58279,0.05442,0.1864,0.80326
0.16298,0.74775,-0.64367,0.0567,-0.03948,0.63477
0.14387,0.71013,-0.68922,-0.02179,-0.12181,0.6417
0.11784,0.67575,-0.72765,-0.33127,-0.38359,0.74386
0.08186,0.64967,-0.75579,-0.28311,-0.55778,0.80241
0.0443,0.63518,-0.77109,-0.19534,-0.57585,0.79932
0.01122,0.63422,-0.77307,0.0191,-0.57862,0.74989
-0.01575,0.64571,-0.76342,-0.10098,-0.74506,0.6065
-0.02855,0.66726,-0.74428,-0.10951,-0.78843,0.50722
-0.0215,0.70138,-0.71246,-0.23465,-0.73485,0.12225
0.00619,0.74988,-0.66155,-0.25126,-0.45853,-0.46324
0.03442,0.79168,-0.60996,-0.06384,-0.23741,-0.58172
0.04833,0.83139,-0.55358,0.14982,1.23605,0.63561
0.09075,0.8584,-0.50489,0.38722,2.56085,-0.5626
0.10478,0.88284,-0.45783,0.55274,1.24789,0.62615
0.11779,0.90073,-0.4181,-0.18825,-0.4814,0.11833
0.13094,0.91611,-0.37895,-0.3731,-0.45042,0.34724
0.14083,0.93306,-0.33099,-0.38299,-0.46738,0.29928
0.13604,0.95069,-0.2787,-0.34573,0.57137,0.49254
0.11436,0.96833,-0.22196,-0.31756,0.51205,0.3875
0.09517,0.98077,-0.17038,-0.05829,0.20348,0.10388
0.08607,0.98705,-0.13533,0.07851,-0.00318,-0.04866
0.07677,0.99073,-0.11204,0.08543,-0.00157,-0.0724
0.06204,0.9936,-0.09435,0.11258,0.05945,-0.08235
0.0443,0.99544,-0.08452,0.28653,0.05832,-0.11188
0.02705,0.99654,-0.07855,0.29398,-0.07647,-0.09149
0.016,0.99732,-0.07144,0.20963,-0.24719,-0.02521
0.01088,0.99715,-0.07472,0.12067,-0.31753,-0.08641
0.00766,0.99618,-0.08698,0.16802,-0.16351,0.07938
0.00524,0.99592,-0.09006,0.29573,-0.05146,0.22489
0.00329,0.99646,-0.08401,0.33657,-0.0448,0.40777
0.00967,0.99751,-0.06979,0.33467,0.12063,0.43797
0.02467,0.99918,-0.03204,0.12254,0.22433,0.54447
0.0362,0.99901,0.02599,-0.28914,0.29706,0.22302
0.03174,0.99628,0.08018,-0.00432,0.51006,0.05912
0.01761,0.99252,0.1208,0.10107,0.5604,-0.23811
0.0117,0.98664,0.16248,0.25152,0.62555,-0.86123
0.00958,0.98127,0.19241,0.18208,0.43717,-1.08998
0.00516,0.97793,0.20889,0.08781,0.2806,-0.96875
0.00239,0.97566,0.21927,0.19364,0.49388,-0.69898
0.00252,0.97646,0.2157,0.23176,0.23285,-0.62046
0.0072,0.98001,0.19881,0.20061,0.23024,-0.70229
0.0173,0.98533,0.16976,0.02103,0.45204,-1.08823
0.02738,0.99412,0.10473,-0.04941,0.40653,-0.95898
0.03404,0.9994,-0.00592,-0.06801,0.34697,-0.50759
0.04354,0.99283,-0.11135,-0.23348,0.40323,0.63898
0.05986,0.98095,-0.18482,-0.23453,0.44846,0.94008
0.0819,0.96669,-0.24249,-0.1523,0.43465,1.11761
0.09716,0.95208,-0.29002,-0.11659,0.06453,1.00943
0.11502,0.93537,-0.33445,-0.09169,0.03875,0.73837
0.14423,0.90049,-0.41026,0.26788,0.42022,-0.22263
0.17992,0.85363,-0.48881,-0.18497,0.56835,-0.1845
0.18574,0.81796,-0.54446,-0.13747,0.46065,0.82117
0.18694,0.77333,-0.60582,-0.15239,0.36597,0.81266
0.18294,0.7218,-0.66748,0.22026,-0.10634,0.57358
0.16551,0.67466,-0.71933,0.22629,-0.09362,0.44605
0.14355,0.64163,-0.75346,0.14298,-0.11989,0.41961
0.10532,0.6175,-0.77949,-0.22721,-0.36675,0.67759
0.05951,0.60169,-0.79651,-0.16405,-0.48396,0.64076
0.0163,0.60001,-0.79983,0.06515,-0.61829,0.65196
-0.0152,0.61694,-0.78686,0.01633,-0.78101,0.51798
-0.01955,0.65366,-0.75654,-0.05089,-0.73253,0.35258
0.00977,0.71067,-0.70346,-0.32158,-0.59185,0.09247
0.03438,0.77363,-0.6327,-0.35223,-0.56637,0.02874
0.0524,0.8199,-0.5701,0.1118,-0.59996,0.47714
0.09057,0.86096,-0.50055,-0.11644,1.10389,-0.50888
0.12335,0.88641,-0.44616,0.31082,2.20397,0.07318
0.13305,0.9111,-0.39011,0.13238,0.54014,0.2441
0.13858,0.92551,-0.35246,-0.08615,-0.1725,0.16304
0.14619,0.9374,-0.31607,-0.30948,-0.61587,0.22564
0.15019,0.95137,-0.26895,-0.39164,-0.27916,0.3328
0.14475,0.96585,-0.21488,-0.35324,-0.04609,0.36498
0.12763,0.97777,-0.16634,-0.16626,0.35601,0.38876
0.10426,0.98506,-0.13705,0.05515,0.15436,0.29196
0.07965,0.98922,-0.12287,0.22482,0.06847,0.15603
0.05583,0.99198,-0.11337,0.35636,0.1021,0.03302
0.03467,0.99449,-0.09897,0.35008,0.07539,0.02864
0.02306,0.9961,-0.08513,0.23972,0.00758,-0.01198
0.02408,0.99668,-0.07772,0.01737,-0.0294,-0.14724
0.03069,0.9964,-0.07902,-0.14489,-0.1003,-0.22985
0.03881,0.99494,-0.09267,-0.2472,-0.11509,-0.44572
0.04431,0.99316,-0.10803,-0.09255,0.01043,-0.22144
0.04741,0.99202,-0.11684,0.17048,-0.2455,0.49713
0.05225,0.99094,-0.12375,0.13986,-0.37099,0.4469
0.05859,0.99092,-0.12101,-0.10972,-0.28876,0.08582
0.05496,0.99328,-0.10187,0.00362,-0.02463,0.48287
0.03948,0.99609,-0.07898,0.1582,0.03001,0.40237
0.02154,0.99877,-0.04459,0.44371,0.19897,0.24943
0.00981,0.99995,0.00154,0.42571,0.50493,-0.05986
0.00259,0.99874,0.05,0.27413,0.64252,-0.27724
-0.00424,0.9953,0.09671,0.10434,0.68608,-0.49898
-0.00919,0.99082,0.13488,-0.06198,0.82243,-0.63251
-0.01148,0.98726,0.15866,0.05143,0.69007,-0.70789
-0.01095,0.9868,0.16156,0.06722,0.46764,-0.71581
-0.01035,0.988,0.1541,0.08513,0.38512,-0.613
-0.00722,0.99092,0.13426,0.04149,0.17429,-0.45689
-0.00126,0.99491,0.10078,0.05497,0.25209,-0.40812
0.00844,0.9986,0.05208,0.07412,0.35802,-0.56216
0.0205,0.99964,-0.01743,0.08096,0.38035,-0.42293
0.03379,0.9947,-0.09706,0.00263,0.44208,0.02859
0.05375,0.9841,-0.16926,-0.13083,0.48312,0.47741
0.08065,0.97082,-0.22583,-0.18981,0.48618,0.6336
0.10138,0.95595,-0.27545,-0.10338,0.27038,0.54979
0.10948,0.93502,-0.33726,-0.42915,0.10903,0.59301
0.11074,0.90332,-0.41443,-0.0901,0.18734,0.4924
0.11497,0.86051,-0.4963,0.22069,0.02083,-0.18126
0.13189,0.82425,-0.55065,0.11262,-0.04154,-0.2026
0.1123,0.79309,-0.59866,0.26645,-0.14926,0.85701
0.06366,0.75569,-0.65183,0.04342,-0.43249,0.87432
0.01863,0.71919,-0.69457,-0.00524,-0.55747,0.85224
-0.02496,0.68874,-0.72458,0.04243,-0.50498,0.63191
-0.06713,0.66278,-0.7458,0.04794,-0.35823,0.57388
-0.11342,0.64295,-0.75747,-0.03703,-0.33087,0.64138
-0.15269,0.62932,-0.762,0.01922,-0.23041,0.65068
-0.17669,0.62357,-0.76154,0.07046,-0.26741,0.62348
-0.18088,0.62535,-0.75909,-0.05827,-0.29681,0.48924
-0.16677,0.63252,-0.75638,-0.05113,-0.28549,0.23105
-0.13149,0.64833,-0.74991,-0.14085,-0.34118,-0.1725
-0.08643,0.68394,-0.7244,-0.362,-0.16857,-0.75373
-0.0498,0.71476,-0.69759,-0.41083,-0.04089,-0.59451
-0.03866,0.75692,-0.65236,0.21702,1.18775,0.05686
0.02552,0.7881,-0.61501,0.56411,1.18147,-0.06328
0.06697,0.812,-0.5798,0.49321,0.95242,-0.72133
0.07759,0.83564,-0.54378,-0.12473,-0.01894,0.14876
0.08121,0.86008,-0.50365,-0.34767,-0.23309,0.25411
0.0817,0.88458,-0.45918,-0.34855,-0.23176,0.20668
0.08675,0.907,-0.4121,-0.28142,-0.03606,0.28283
0.0925,0.92816,-0.36051,-0.1201,0.3196,0.44017
0.08815,0.94888,-0.30309,-0.11576,0.29888,0.38276
0.07255,0.96761,-0.24179,0.05107,0.45982,0.41422
0.05969,0.98051,-0.18717,0.21212,0.1792,0.27484
0.05443,0.98825,-0.1428,0.25049,0.09437,0.21603
0.04998,0.99306,-0.10647,0.2928,0.12628,0.17703
0.03556,0.99603,-0.08158,0.28718,0.04988,0.1159
0.01754,0.99768,-0.06571,0.28508,0.00013,0.0208
0.00646,0.99889,-0.0466,0.12826,-0.05431,-0.14492
0.00885,0.99975,-0.02039,0.03562,-0.07298,-0.13619
0.01749,0.99984,0.0026,0.03477,-0.16214,-0.08368
0.02313,0.9996,0.01614,0.02441,-0.3296,-0.30654
0.02442,0.9995,0.01979,0.11346,-0.25382,-0.39932
0.01867,0.99975,0.01251,0.24518,-0.05617,-0.36814
0.01385,0.99988,-0.0063,0.39427,-0.03925,-0.20622
0.02003,0.99963,-0.0182,0.26169,-0.04996,0.19783
0.02968,0.99933,-0.02146,-0.05359,-0.25995,0.26215
0.03164,0.99905,-0.02979,-0.37739,-0.22897,0.16754
0.02131,0.99935,-0.02906,0.0017,0.05689,0.49141
0.00272,0.99982,-0.01864,0.21501,0.01635,0.50838
-0.01618,0.99987,-0.00169,0.32331,-0.06115,0.10551
-0.03274,0.99923,0.02139,0.52633,0.29421,0.16763
-0.04496,0.99743,0.05573,0.18203,0.62679,0.09532
-0.05737,0.99361,0.09715,-0.19975,0.52531,-0.08602
-0.06802,0.98781,0.14003,-0.15727,0.6189,-0.19851
-0.07604,0.98159,0.17522,0.25503,0.66482,-0.20225
-0.08664,0.97623,0.19869,0.26706,0.43579,-0.1317
-0.09558,0.97303,0.20996,0.14732,0.36332,-0.16753
-0.09839,0.9716,0.21521,-0.09118,0.16416,-0.35975
-0.09877,0.97095,0.21792,-0.1038,0.15197,-0.58733
-0.10159,0.97215,0.21122,0.21226,0.21621,-0.86483
-0.09953,0.97652,0.19103,0.4423,0.21816,-0.95252
-0.09233,0.9838,0.15369,0.46127,0.03819,-0.7061
-0.08058,0.99167,0.10052,0.31417,-0.04248,-0.13384
-0.0635,0.99698,0.04461,0.04252,-0.06238,0.42221
-0.03567,0.99929,-0.01245,-0.1722,-0.05768,0.46947
0.00569,0.99763,-0.06857,-0.33052,-0.13368,0.47367
0.04154,0.99345,-0.10642,-0.53792,-0.05029,0.50031
0.0627,0.99013,-0.1253,-0.53449,-0.10314,0.5626
0.08062,0.98743,-0.13595,-0.44548,-0.23683,0.63497
0.09543,0.98417,-0.14935,-0.30208,-0.17324,-0.13633
0.09199,0.97896,-0.18214,-0.3029,0.32467,-0.89247
0.06713,0.9673,-0.2446,-0.25178,0.11554,0.17304
0.05337,0.9534,-0.29696,-0.15731,-0.00355,0.38272
0.05986,0.94228,-0.32943,-0.15951,0.01036,0.29598
0.05291,0.92777,-0.36937,0.04627,-0.10478,0.29789
0.03321,0.91137,-0.41024,0.08163,-0.08428,0.26353
0.02137,0.89593,-0.44368,0.0752,-0.03549,0.23213
0.00755,0.88003,-0.47486,-0.12625,-0.14907,0.41474
-0.00784,0.86646,-0.49919,-0.13142,-0.20633,0.45004
-0.02717,0.85657,-0.51532,-0.18877,-0.37848,0.63633
-0.04413,0.85066,-0.52386,-0.16734,-0.47424,0.58227
-0.05867,0.8489,-0.52528,-0.05829,-0.45846,0.59431
-0.06495,0.85157,-0.5202,-0.00746,-0.47431,0.45655
-0.06383,0.85848,-0.50887,0.21008,-0.30701,0.17108
-0.05081,0.86739,-0.49503,0.21017,-0.21875,-0.11764
-0.01771,0.87895,-0.47658,0.15222,-0.13968,-0.69302
0.01128,0.89426,-0.4474,-0.02079,-0.05111,-0.99427
0.02683,0.90536,-0.4238,-0.24711,0.23162,-0.65951
0.032,0.90624,-0.42155,-0.11919,0.33958,-0.69676
0.03039,0.90674,-0.4206,-0.0741,0.83885,0.2239
0.02881,0.91821,-0.39504,-0.03345,1.01976,0.53472
0.04598,0.92478,-0.37772,-0.42401,0.58607,0.38718
0.06947,0.92806,-0.36589,-0.86996,-0.27335,0.3599
0.08624,0.93617,-0.3408,-0.76691,-0.31361,0.31767
0.09773,0.94917,-0.29922,-0.39668,-0.30398,0.54574
0.10668,0.96392,-0.24388,-0.05541,-0.07029,0.64965
0.10455,0.97706,-0.18553,-0.02037,0.20072,0.5327
0.09766,0.98651,-0.13139,0.09741,0.18199,0.43777
0.09829,0.99175,-0.08228,0.20425,0.15319,0.41373
0.10072,0.99421,-0.03746,0.39821,0.08048,0.36176
0.09947,0.99504,0.00179,0.35793,0.0329,0.25892
0.09951,0.99449,0.03299,0.31434,0.01581,0.17754
0.1057,0.99288,0.05483,0.08563,0.02172,0.02353
0.11834,0.99042,0.07117,-0.00507,0.02623,0.00044
0.13625,0.98653,0.09051,-0.05839,0.00564,-0.01269
0.15554,0.981,0.11597,-0.06531,-0.05896,0.08845
0.16917,0.976,0.13714,-0.10941,-0.05374,0.09934
0.17628,0.97309,0.14838,-0.09484,0.01887,0.08029
0.17922,0.97095,0.15851,-0.01656,0.06237,0.06917
0.17843,0.96863,0.17298,0.0145,-0.05119,0.04536
0.17218,0.96588,0.19346,0.04091,-0.07477,0.00938
0.16055,0.9628,0.21735,0.06853,-0.09624,-0.04372
0.14582,0.95958,0.2407,0.13589,-0.08188,-0.21598
0.12968,0.95533,0.26556,0.10407,-0.0314,-0.27296
0.12114,0.9496,0.2891,0.07738,-0.02257,-0.30842
0.12261,0.9429,0.30967,0.10658,0.12451,-0.29258
0.12897,0.93547,0.32901,0.13965,0.106,-0.29544
0.13488,0.92724,0.34933,0.24043,0.09875,-0.53494
0.13202,0.91962,0.36996,0.18669,0.19575,-0.60994
0.12032,0.92335,0.36462,0.18872,0.25109,-0.25894
0.11403,0.931,0.34674,0.17036,0.25327,-0.17112
0.1133,0.93811,0.32726,0.03573,0.20198,-0.08025
0.12709,0.94264,0.30865,-0.0949,0.59315,-0.21725
0.15437,0.94533,0.28727,-0.34277,1.00019,-0.97184
0.17009,0.95841,0.22917,-0.57619,0.71701,-1.05008
0.16604,0.97685,0.13489,-0.43572,0.39478,-0.20925
0.15111,0.98751,0.04449,-0.26538,0.25522,0.39052
0.14123,0.98909,-0.04174,-0.195,0.22027,0.83314
0.14495,0.98169,-0.12354,-0.30152,0.62651,0.83044
0.15039,0.97067,-0.18758,-0.49164,1.00907,0.85053
0.15608,0.96261,-0.22141,-0.87874,0.43072,0.51726
0.16965,0.95676,-0.23629,-0.36802,0.01398,-0.72478
0.14772,0.94723,-0.28448,-0.02563,-0.1528,0.30496
0.10992,0.92667,-0.35945,0.187,-0.34688,0.53804
0.09757,0.91031,-0.40226,0.25653,-0.385,0.66331
0.10097,0.89949,-0.42511,0.1315,-0.34256,0.53657
0.09673,0.88825,-0.44906,0.07081,-0.31754,0.54009
0.08809,0.87796,-0.47056,-0.04768,-0.35045,0.50869
0.07816,0.87066,-0.48564,-0.0954,-0.37519,0.5094
0.06644,0.86783,-0.4924,-0.14347,-0.47786,0.45415
0.05614,0.87015,-0.48957,-0.10578,-0.4961,0.41664
0.05169,0.87727,-0.47721,-0.05553,-0.55186,0.44459
0.06041,0.88972,-0.45249,0.01283,-0.45007,0.40927
0.08065,0.90668,-0.41404,-0.09534,-0.1509,0.12083
0.1287,0.91903,-0.37259,-0.23888,0.41343,-0.71306
0.19987,0.92444,-0.32476,-0.49424,0.79692,-1.82737
0.23072,0.92837,-0.29136,-0.12275,0.45154,-1.66703
0.22799,0.93232,-0.28069,0.16095,0.22791,-1.19877
0.21318,0.94096,-0.26294,0.05144,0.24359,0.88582
0.19491,0.95776,-0.21141,-0.06199,1.07883,1.68971
0.18424,0.96699,-0.17602,-0.23461,1.24428,1.00107
0.20688,0.95997,-0.18881,-0.62945,-0.55235,0.59485
0.21698,0.96032,-0.1752,-0.56467,-0.56581,0.82507
0.22967,0.96452,-0.13016,-0.48579,-0.45369,0.73568
0.23777,0.96832,-0.07628,-0.43582,-0.18441,0.437
0.23903,0.97079,-0.02075,-0.36591,-0.03639,0.41017
0.23546,0.97132,0.0331,-0.31774,0.05809,0.35458
0.23418,0.96931,0.07482,-0.11335,0.16018,0.40209
0.23278,0.96667,0.10655,0.07847,0.21858,0.37843
0.22697,0.96562,0.12672,0.15489,0.18378,0.33367
0.22293,0.9646,0.1409,0.23792,-0.04141,0.15127
0.2272,0.96129,0.15589,0.26726,-0.08296,0.10373
0.23091,0.95606,0.1806,0.23297,-0.14138,-0.0843
0.22512,0.94912,0.22019,0.09662,0.07813,-0.1076
0.22091,0.94423,0.2442,0.00065,0.1375,-0.09025
0.21604,0.94199,0.25685,0.04197,0.12344,-0.08413
0.20647,0.93993,0.27184,0.08598,0.13595,-0.2116
0.1936,0.93756,0.28894,0.13146,0.10995,-0.27934
0.17937,0.93559,0.30414,0.20785,0.01917,-0.32461
0.16545,0.93232,0.32157,0.23856,-0.08019,-0.22462
0.15029,0.92686,0.34401,0.23249,-0.08399,-0.21486
0.13717,0.9204,0.36613,0.14343,-0.09619,-0.30051
0.13152,0.91307,0.38601,0.09558,0.07199,-0.40256
0.13208,0.90429,0.40597,0.08833,0.14154,-0.48912
0.13665,0.89341,0.42796,0.13152,0.18017,-0.69308
0.12812,0.8861,0.44543,0.0949,0.24369,-0.84743
0.11151,0.89076,0.44058,0.12376,0.39516,-0.47073
0.10599,0.89767,0.42773,0.12929,0.38825,-0.45789
0.10579,0.90438,0.41339,0.07579,0.25271,-0.27159
0.11695,0.9108,0.39593,-0.11668,0.69543,-0.77442
0.13165,0.92447,0.35781,-0.22067,0.79149,-0.90618
0.1375,0.94607,0.29334,-0.21816,0.68098,-0.77382
0.13273,0.96953,0.20587,-0.2138,0.41865,-0.32617
0.12337,0.98611,0.11114,-0.14943,0.50708,0.21914
0.11984,0.99259,0.0198,-0.20438,0.90945,0.58272
0.11805,0.99079,-0.06624,-0.2895,1.02106,0.69261
0.10771,0.9845,-0.13841,-0.66238,0.5045,0.73386
0.11436,0.97553,-0.18776,-0.16774,0.23318,-0.36733
0.13129,0.9663,-0.22142,-0.08454,0.27549,-0.2249
0.13045,0.94473,-0.30079,-0.02585,0.27734,0.05384
0.11527,0.91077,-0.39649,0.06337,0.2564,0.50252
0.10456,0.8738,-0.47491,0.09591,0.14954,0.4292
0.08929,0.83454,-0.54365,0.16997,0.14507,0.50308
0.06368,0.79184,-0.60739,0.1529,0.01068,0.52991
0.02739,0.748,-0.66313,-0.08154,-0.19856,0.62334
-0.00558,0.70651,-0.70768,-0.10597,-0.26635,0.61916
-0.03832,0.67334,-0.73834,0.06182,-0.44337,0.66506
-0.06076,0.65012,-0.7574,-0.05429,-0.61202,0.61915
-0.07491,0.63489,-0.76896,-0.08682,-0.56161,0.56421
-0.07969,0.62806,-0.77408,-0.10793,-0.52228,0.48124
-0.07199,0.628,-0.77487,-0.1488,-0.47146,0.39713
-0.05279,0.63469,-0.77096,-0.17803,-0.38042,0.21903
-0.02658,0.6479,-0.76126,-0.1,-0.32458,-0.02821
-0.00228,0.66865,-0.74357,-0.04624,-0.34453,0.11419
0.02233,0.70398,-0.70987,-0.15048,-0.3578,0.23331
0.04985,0.73894,-0.67193,-0.42977,0.55686,-0.99522
0.08549,0.75724,-0.64752,-0.14512,1.50718,-0.81583
0.1125,0.78239,-0.61255,0.63648,1.36156,0.52714
0.14402,0.80722,-0.57241,-0.72086,-0.27464,0.13386
0.17147,0.83006,-0.53065,-0.6179,-0.53524,0.4016
0.19325,0.85697,-0.47776,-0.41679,-0.2952,0.63378
0.21427,0.88551,-0.41225,-0.29958,0.32146,0.31497
0.21979,0.9106,-0.34999,-0.05572,0.61557,0.09373
0.21904,0.93174,-0.28961,-0.03689,0.3545,0.31919
0.21799,0.94919,-0.22695,0.02214,0.05528,0.2828
0.21603,0.96167,-0.16886,0.09252,-0.02652,0.13994
0.20899,0.97126,-0.11384,0.02809,-0.03976,0.05186
0.18872,0.98041,-0.05638,-0.06459,-0.00207,0.07309
0.16323,0.98649,-0.01378,-0.04343,-0.0192,0.08401
0.14089,0.99002,-4e-05,0.18992,0.09302,-0.08202
0.12062,0.99266,0.008,0.54645,0.13026,-0.29587
0.10587,0.994,0.02741,0.74083,-0.0084,-0.26261
0.09508,0.99448,0.04436,0.4581,-0.12695,-0.19327
0.09312,0.9943,0.05189,0.26953,-0.05216,-0.11055
0.09744,0.99374,0.05464,0.13548,-0.08527,-0.03191
0.10381,0.99284,0.05901,0.06105,-0.09883,-0.10673
0.10992,0.99221,0.05858,-0.0704,-0.09231,-0.47013
0.11466,0.99213,0.05027,-0.3309,0.07059,-0.546
0.1158,0.99211,0.04791,-0.28121,0.10741,0.16518
0.10545,0.99304,0.05236,0.08914,-0.45786,0.77255
0.08424,0.99417,0.06732,0.05067,-0.47688,0.59513
0.05848,0.99282,0.10435,0.46488,0.40571,0.40941
0.03561,0.98873,0.1454,0.48269,0.71011,-0.02379
0.02781,0.97983,0.19787,0.41587,0.89276,-0.75843
0.035,0.96658,0.25395,-0.09645,1.00704,-0.77977
0.03828,0.95856,0.28229,-0.26838,0.87294,-0.71285
0.03599,0.95605,0.29097,0.03495,0.73893,-0.95302
0.03464,0.95897,0.28136,0.17602,0.50651,-0.75312
0.03947,0.96599,0.25555,-0.13413,0.31864,-0.72628
0.04791,0.97571,0.21373,-0.24848,0.34837,-0.77394
0.05367,0.98752,0.14806,-0.34728,0.38919,-0.80623
0.05267,0.99683,0.05964,-0.1074,0.36951,-0.49752
0.04837,0.99828,-0.03313,-0.02391,0.31442,0.11792
0.05289,0.992,-0.11459,-0.03576,0.31824,0.45036
0.0729,0.9809,-0.18032,0.10853,0.3296,0.89767
0.09559,0.96966,-0.22499,0.03573,0.01855,1.07239
0.11645,0.95708,-0.2654,-0.09599,-0.01529,1.07695
0.1354,0.9368,-0.3226,-0.25928,-0.1252,0.11934
0.16352,0.89633,-0.41214,0.08106,0.4193,-1.25821
0.17254,0.87328,-0.45564,-0.13342,0.34239,-0.60019
0.1683,0.84626,-0.50548,0.48872,0.30117,1.49228
0.16232,0.79174,-0.5889,-0.39598,-0.08725,0.313
0.14012,0.74653,-0.65043,-0.3674,-0.29874,0.31961
0.11949,0.71039,-0.69359,-0.17192,-0.34378,0.60644
0.08689,0.68051,-0.72757,-0.09893,-0.48482,0.75644
0.04836,0.66287,-0.74717,-0.05344,-0.66133,0.75716
0.01649,0.6587,-0.75222,-0.09118,-0.69099,0.74035
0.0006,0.66874,-0.7435,-0.10429,-0.71726,0.67851
0.00388,0.69322,-0.72071,-0.2624,-0.79767,0.38119
0.02145,0.73373,-0.67911,-0.50494,-0.66248,-0.26288
0.06055,0.76901,-0.63637,-0.22942,-0.26325,-0.82416
0.07802,0.82089,-0.56573,0.16893,0.37772,-0.02915
0.14379,0.8466,-0.51244,0.62145,1.67997,0.48631
0.18385,0.86589,-0.46522,-0.1752,1.41239,-0.61129
0.19452,0.88408,-0.42493,-0.58264,-0.28406,0.23954
0.20552,0.9035,-0.3761,-0.4501,-0.7447,0.1675
0.20773,0.92357,-0.32229,-0.3219,-0.0373,0.10497
0.19778,0.94349,-0.2659,-0.2169,0.22815,0.26326
0.18115,0.96206,-0.204,-0.10954,0.5649,0.31993
0.16417,0.97502,-0.14958,-0.04431,0.26767,0.08363
0.14864,0.98284,-0.10923,-0.01137,0.17294,0.02646
0.13318,0.98807,-0.07731,-0.01316,-0.02257,0.0056
0.11653,0.99178,-0.05276,-0.01197,-0.03779,-0.03399
0.097,0.99462,-0.03632,0.11524,-0.07499,-0.12351
0.07823,0.99648,-0.03001,0.25213,-0.08588,-0.08644
0.06354,0.99757,-0.02842,0.3031,-0.13997,-0.06916
0.05476,0.99816,-0.02582,0.20735,-0.34933,-0.06555
0.05267,0.99827,-0.0259,0.17387,-0.39078,0.02172
0.05492,0.99816,-0.02547,0.11141,-0.30163,0.04575
0.05856,0.99813,-0.01741,0.07027,-0.08097,-0.2052
0.06027,0.99811,-0.01163,0.06174,0.14689,-0.08183
0.06287,0.998,-0.00628,0.18141,0.12476,0.27152
0.06837,0.99761,0.00976,0.12512,-0.07895,0.36114
0.07069,0.99673,0.03906,-0.15248,0.04743,0.19281
0.06192,0.99475,0.08145,-0.2006,0.45891,0.19614
0.03974,0.99199,0.11988,0.33984,0.61038,0.12495
0.01895,0.98769,0.15526,0.47296,0.59918,-0.12604
0.01155,0.97951,0.20106,0.42412,0.65088,-0.48172
0.01571,0.96829,0.24933,0.28211,0.66774,-0.76694
0.02063,0.95975,0.2801,-0.18192,0.75049,-0.9306
0.01831,0.95469,0.29704,0.04339,0.58461,-0.93975
0.0107,0.95577,0.29392,0.21996,0.49489,-0.98522
0.00609,0.96252,0.27114,0.18337,0.26211,-0.85283
0.01356,0.97396,0.22632,-0.1356,0.20288,-1.15666
0.02786,0.98751,0.15504,-0.15428,0.20345,-1.06684
0.03968,0.99733,0.06125,-0.009,0.12117,-0.38856
0.05219,0.99808,-0.03315,-0.00492,0.06625,0.16742
0.07821,0.99096,-0.10902,-0.16357,0.07496,0.74154
0.11359,0.97903,-0.16911,-0.15046,0.28632,0.97505
0.14232,0.96577,-0.21685,-0.15938,0.3519,0.98699
0.16926,0.95029,-0.26135,-0.07803,0.3183,0.36418
0.21368,0.91209,-0.34991,0.31462,0.7019,-0.86104
0.25487,0.86579,-0.43064,-0.40279,0.68591,-0.87589
0.26996,0.8269,-0.4933,-0.34287,0.61655,0.53696
0.28318,0.77883,-0.55967,0.07566,0.60224,0.61364
0.2886,0.73143,-0.61783,0.28108,0.36409,0.23268
0.2692,0.69556,-0.66612,0.19084,0.19521,0.23103
0.2223,0.67117,-0.70719,-0.12156,-0.11791,0.59963
0.16597,0.66023,-0.73249,-0.25725,-0.54514,0.69987
0.11057,0.66691,-0.73689,-0.23968,-0.88157,0.80553
0.07456,0.69304,-0.71703,-0.27936,-1.1088,0.82108
0.06578,0.73658,-0.67314,-0.59169,-0.87629,0.68966
0.07912,0.78716,-0.61165,-0.63181,-0.88166,0.75309
0.101,0.83265,-0.5445,-0.83506,-0.97288,0.19526
0.13461,0.87333,-0.46816,0.16045,-0.3883,0.68127
0.15864,0.91062,-0.38158,0.59705,-0.17458,1.04315
0.19307,0.93042,-0.3115,0.87874,1.32965,-0.62207
0.17157,0.95364,-0.24725,0.13846,1.94506,0.48492
0.13044,0.97027,-0.20387,-0.57991,0.86915,0.15618
0.13323,0.97436,-0.18126,-0.27957,-0.26021,-0.03872
0.13053,0.98105,-0.14316,-0.20377,-0.32384,0.15514
0.1195,0.9876,-0.10185,-0.06721,0.05672,0.32204
0.10345,0.99215,-0.07016,0.00074,0.29532,0.26074
0.08309,0.99513,-0.05307,0.05628,0.37099,0.20885
0.06188,0.99704,-0.04561,0.19103,0.30141,-0.01364
0.0452,0.99864,-0.02579,0.27185,-0.02722,-0.19807
0.03744,0.99929,0.00334,0.26328,-0.01518,-0.09634
0.03507,0.99918,0.02031,0.28248,-0.01326,0.07518
0.0389,0.9987,0.03274,0.2725,-0.22296,0.08351
0.04969,0.99734,0.0533,0.12814,-0.3527,-0.07954
0.06482,0.99439,0.08351,-0.06477,-0.31922,-0.24858
0.08091,0.99087,0.1078,-0.2416,-0.22467,-0.25859
0.09096,0.98828,0.12257,-0.35248,-0.20064,-0.24609
0.09087,0.98705,0.13217,-0.25807,-0.0763,-0.10247
0.0837,0.98616,0.14313,-0.03356,-0.05835,-0.03343
0.07028,0.98463,0.15987,0.0851,-0.06634,0.03708
0.05184,0.98294,0.17645,0.29307,0.05229,0.09088
0.03338,0.97947,0.1988,0.36775,0.15493,0.07342
0.01926,0.97286,0.23059,0.3721,0.15506,0.02839
0.01396,0.96185,0.2732,0.204,0.36626,-0.06765
0.01718,0.94652,0.32216,-0.00123,0.81481,-0.0708
0.02181,0.93241,0.36073,-0.10012,1.2476,-0.32373
0.02654,0.92431,0.3807,-0.16192,1.26094,-0.66845
0.03274,0.92737,0.3727,-0.21839,0.84659,-0.90802
0.03711,0.93745,0.34613,-0.17598,0.48574,-1.05388
0.04033,0.94997,0.30971,-0.11554,0.48771,-1.03755
0.04066,0.96556,0.25697,0.12542,0.50706,-1.00356
0.02992,0.98364,0.17763,0.33063,0.45166,-0.82553
0.01035,0.997,0.07673,0.30233,0.4232,-0.40874
0.00626,0.99961,-0.02709,0.19775,0.42205,0.43882
0.02448,0.99491,-0.09768,0.0634,0.37708,1.1148
0.05008,0.98742,-0.14993,0.01208,0.01461,1.23486
0.0668,0.97881,-0.19355,-0.14932,-0.25129,1.11556
0.07626,0.96813,-0.23856,-0.3843,-0.22559,-0.13444
0.08817,0.94486,-0.31538,-0.13597,-0.05085,-0.45362
0.10146,0.91656,-0.38681,0.12672,0.0974,-0.20259
0.10106,0.88876,-0.44709,0.20937,0.03876,0.47477
0.07488,0.85613,-0.5113,0.27461,-0.02796,0.66584
0.0432,0.81589,-0.57659,0.15011,-0.24548,0.67514
0.0107,0.77518,-0.63165,-0.05756,-0.27974,0.5811
-0.0276,0.73607,-0.67634,-0.03551,-0.1275,0.6398
-0.06361,0.69922,-0.71207,-0.09994,-0.15355,0.64428
-0.08948,0.66822,-0.73856,-0.18325,-0.28903,0.53881
-0.10609,0.64793,-0.75427,-0.29206,-0.4227,0.53453
-0.10905,0.63879,-0.76161,-0.19503,-0.33799,0.61568
-0.09702,0.63817,-0.76376,-0.15671,-0.36207,0.57948
-0.07359,0.64476,-0.76084,-0.08138,-0.40583,0.49491
-0.03879,0.6607,-0.74965,-0.06564,-0.53405,0.09821
0.00556,0.69325,-0.72068,-0.16663,-0.51721,-1.17832
0.04654,0.73568,-0.67573,-0.08989,-0.48887,-1.53724
0.06536,0.78168,-0.62025,0.10667,1.04433,0.52609
0.10211,0.81154,-0.57531,0.00132,1.59232,0.33877
0.11132,0.83428,-0.53999,-0.08275,1.5851,-1.02125
0.12814,0.85613,-0.50061,-0.30317,-0.39237,0.03833
0.15307,0.87681,-0.45582,-0.48938,-0.39417,-0.26032
0.16442,0.89738,-0.40947,-0.5162,-0.24659,0.15851
0.1705,0.91828,-0.35733,-0.18178,0.16724,0.33062
0.17081,0.93708,-0.30448,0.01965,0.28713,0.17482
0.16471,0.95532,-0.2454,-0.01455,0.29449,0.37478
0.15317,0.97118,-0.18259,0.01881,0.26358,0.33936
0.13705,0.98211,-0.1291,0.12476,0.27695,0.21039
0.12422,0.98792,-0.0926,0.24364,0.09458,0.10678
0.11079,0.99151,-0.06799,0.24904,-0.09198,0.01944
0.09353,0.99482,-0.03983,0.24163,-0.13491,0.00448
0.07499,0.99713,-0.01022,0.18497,-0.09105,0.06009
0.05747,0.99828,0.01122,0.27012,-0.03345,-0.05266
0.04044,0.99879,0.02782,0.27928,-0.03433,-0.28546
0.02757,0.99872,0.04234,0.21623,-0.07596,-0.45672
0.02241,0.99846,0.05058,0.18392,-0.1148,-0.38799
0.01967,0.99854,0.0502,0.16429,-0.25649,-0.56059
0.01865,0.99928,0.03281,0.05345,-0.06952,-0.67946
0.02359,0.99972,0.00048,0.06107,0.03634,-0.20992
0.03574,0.99912,-0.02194,0.15974,-0.16751,0.45842
0.05517,0.99808,-0.02819,0.04378,-0.35402,0.68893
0.07012,0.9975,-0.00809,-0.31042,-0.38214,0.41043
0.06528,0.99746,0.02822,-0.52997,-0.10867,0.63689
0.0343,0.9976,0.06,0.06957,0.43123,0.50907
-0.00081,0.9951,0.09887,0.5501,0.87173,0.24346
-0.01566,0.98737,0.15762,0.62705,1.00032,-0.23321
-0.00735,0.97311,0.23019,0.37581,1.06793,-1.17453
0.00464,0.96196,0.27313,-0.29561,0.91773,-0.81961
-0.00057,0.95546,0.29511,-0.14108,0.79238,-0.74664
-0.01218,0.9547,0.29732,0.20797,0.53749,-0.8685
-0.01881,0.95905,0.28259,0.2711,0.33058,-0.69023
-0.01705,0.96616,0.25737,0.20167,0.13692,-0.60653
-0.00767,0.97508,0.22169,0.06631,0.258,-0.7066
0.0065,0.98567,0.16856,0.12747,0.28584,-0.64859
0.0204,0.99549,0.09264,0.13523,0.24952,-0.35735
0.0373,0.99927,0.00745,-0.05458,0.36906,0.19749
0.06311,0.99594,-0.06407,-0.25252,0.6076,0.78134
0.09145,0.98968,-0.11029,-0.27957,0.57604,0.82193
0.11226,0.9837,-0.14043,-0.26316,0.11759,0.85509
0.13065,0.97728,-0.16689,0.02331,-0.12745,0.04107
0.15656,0.96316,-0.21862,-0.05827,0.07041,-0.41823
0.17098,0.93795,-0.30168,-0.0631,0.12739,-0.24606
0.17321,0.90701,-0.38383,-0.05532,0.03412,0.31253
0.17004,0.87764,-0.44814,-0.05215,0.06349,0.37683
0.14805,0.84235,-0.5182,-0.07294,-0.12523,0.76951
0.12514,0.80263,-0.5832,-0.13858,-0.56295,0.59447
0.09902,0.76625,-0.63487,0.01019,-0.46246,0.58387
0.06516,0.73252,-0.67762,0.04046,-0.40412,0.6379
0.03307,0.70716,-0.70627,0.01311,-0.47045,0.78429
0.01044,0.69451,-0.7194,-0.27973,-0.72416,0.74048
-0.00715,0.69539,-0.7186,-0.22879,-0.7883,0.71538
-0.00713,0.70921,-0.70496,-0.27591,-0.68443,0.44379
0.02113,0.73896,-0.67341,-0.31377,-0.60276,0.03683
0.07219,0.77807,-0.62401,-0.19252,-0.35217,-0.99725
0.11129,0.82111,-0.55982,0.12909,0.10298,0.03971
0.14689,0.85669,-0.49447,0.62443,1.99187,0.3659
0.1892,0.87511,-0.44539,0.49129,2.87641,-2.15419
0.19475,0.88961,-0.41311,-0.28775,-0.22085,0.33356
0.20079,0.904,-0.37743,-0.60292,-0.64924,0.01952
0.19762,0.92082,-0.33619,-0.70113,-0.63934,-0.02414
0.18195,0.93973,-0.28947,-0.48942,0.13044,0.34779
0.15494,0.95987,-0.23373,-0.35753,0.41159,0.39746
0.11921,0.97826,-0.16969,-0.14776,0.78281,0.41226
0.09043,0.98897,-0.11731,0.05778,0.55135,0.2512
0.08181,0.9929,-0.0863,0.21443,0.08631,0.1682
0.07482,0.99506,-0.06517,0.2171,-0.05559,0.12619
0.0594,0.99717,-0.04594,0.37053,-0.00975,-0.01824
0.03853,0.99896,-0.02433,0.40176,-0.03211,-0.00788
0.02058,0.99978,-0.00281,0.32817,-0.09379,0.02463
0.01118,0.99981,0.01596,0.23341,-0.23827,-0.00043
0.01193,0.99927,0.03624,0.19791,-0.18091,0.09258
0.01942,0.99796,0.06076,0.10874,-0.13146,0.03253
0.03207,0.99567,0.08714,-0.02012,-0.11935,-0.45617
0.0451,0.99378,0.1018,-0.14329,-0.06581,-0.44379
0.05128,0.99342,0.10236,-0.26124,-0.04766,-0.48486
0.05036,0.99413,0.0957,-0.15812,0.0202,-0.47284
0.04548,0.99533,0.08507,0.01834,-0.00778,-0.35625
0.03964,0.99629,0.07627,0.23156,-0.09844,0.15804
0.03164,0.99675,0.07407,0.25182,-0.19723,0.31974
0.02178,0.99657,0.07972,0.15646,-0.13581,0.26843
0.00932,0.99536,0.09574,0.13999,0.06029,0.26688
-0.00496,0.993,0.11799,0.28739,0.2534,0.18347
-0.01745,0.98903,0.14663,0.23166,0.34349,0.10849
-0.02681,0.98259,0.18384,0.02495,0.53513,-0.05586
-0.03111,0.97388,0.2249,-0.04282,0.65586,-0.29562
-0.03034,0.96445,0.26252,-0.01013,0.72357,-0.35854
-0.02996,0.95849,0.28354,0.06312,0.55625,-0.48926
-0.03577,0.95566,0.29227,-0.04881,0.24899,-0.28313
-0.04372,0.95432,0.29555,-0.04086,0.25033,-0.28641
-0.05068,0.95474,0.29309,-0.04994,0.01856,-0.45219
-0.05453,0.95735,0.28371,0.09898,0.38173,-0.83735
-0.04902,0.96288,0.26543,0.29698,0.46457,-1.02361
-0.03888,0.97223,0.23076,0.38809,0.19299,-0.81287
-0.0316,0.98415,0.17445,0.24643,0.03788,-0.37379
-0.02522,0.99325,0.11318,0.07233,0.02239,0.1841
-0.00675,0.99827,0.05835,-0.13773,0.05524,0.40393
0.01709,0.99976,0.01352,-0.3537,-0.02982,0.54834
0.04057,0.99899,-0.01917,-0.44891,-0.23867,0.54019
0.06222,0.99706,-0.04462,-0.38407,-0.2043,0.5234
0.07713,0.99491,-0.06483,-0.2559,-0.29593,0.46325
0.08218,0.99307,-0.08401,-0.09903,-0.19842,-0.5736
0.07825,0.99091,-0.10937,-0.16953,0.14265,-0.75965
0.07487,0.98541,-0.1528,-0.13723,0.05014,0.05834
0.06786,0.97774,-0.19855,-0.09514,-0.03108,0.35744
0.06499,0.96953,-0.23619,-0.114,-0.13568,0.35522
0.06443,0.96058,-0.27043,-0.10499,-0.16311,0.22527
0.06452,0.9511,-0.30205,0.04765,-0.15672,0.15133
0.06771,0.94163,-0.32976,0.05396,-0.09114,0.17133
0.06653,0.9314,-0.35787,-0.04601,-0.17532,0.22585
0.06321,0.92316,-0.37918,-0.12612,-0.28293,0.32954
0.06102,0.91722,-0.39369,-0.20503,-0.40721,0.44435
0.06055,0.91377,-0.40168,-0.2291,-0.46973,0.4346
0.05704,0.91424,-0.40114,-0.14298,-0.54569,0.24517
0.05005,0.91905,-0.39093,0.05008,-0.48674,0.1724
0.04453,0.92676,-0.37299,0.15711,-0.43705,0.10225
0.0482,0.93461,-0.35238,0.29536,-0.31956,-0.02703
0.0662,0.9411,-0.33159,0.02747,-0.22055,-0.43628
0.09138,0.94638,-0.30985,-0.22315,0.00722,-1.01225
0.11382,0.95023,-0.29,-0.16551,0.34204,-1.46509
0.11539,0.95297,-0.28023,-0.13161,0.54751,-1.07344
0.10597,0.95732,-0.2689,-0.34104,0.90552,0.15904
0.10033,0.96468,-0.24355,-0.13734,0.79226,0.9329
0.10799,0.96541,-0.2373,-0.45186,0.34674,0.25784
0.12302,0.96794,-0.21898,-0.62764,-0.46019,0.17958
0.12643,0.97471,-0.18424,-0.44824,-0.47691,0.38509
0.12034,0.9835,-0.13508,-0.07174,-0.24932,0.65145
0.09919,0.99178,-0.08079,-0.03496,0.10044,0.423
0.08092,0.99627,-0.02988,-0.01552,0.12669,0.31976
0.07873,0.99676,0.01634,0.23325,0.10122,0.19953
0.081,0.99493,0.05953,0.36512,0.12336,0.1549
0.07841,0.9926,0.09267,0.3845,0.11778,0.10522
0.07421,0.99072,0.11381,0.19929,0.04038,-0.03995
0.07554,0.98878,0.12881,0.04371,-0.01122,-0.13797
0.08573,0.98575,0.14469,-0.02656,-0.01809,-0.11953
0.10328,0.98057,0.16675,-0.04613,-0.03131,0.01189
0.12251,0.9743,0.18901,-0.07688,-0.0857,0.10419
0.135,0.9698,0.2031,-0.10699,-0.08343,0.1043
0.14009,0.96675,0.21389,-0.11768,0.03029,0.0364
0.14033,0.96367,0.22722,-0.08042,0.06881,-0.02016
0.13704,0.96055,0.24197,-0.04562,0.07634,-0.06083
0.12924,0.95742,0.25812,0.01538,-0.02681,-0.10398
0.11837,0.9544,0.27404,0.09939,-0.07746,-0.15728
0.10323,0.95075,0.29223,0.14579,-0.09841,-0.22218
0.08611,0.94564,0.3136,0.16981,-0.04326,-0.2035
0.07118,0.93989,0.33396,0.18814,0.00956,-0.25711
0.06503,0.9345,0.34996,0.17351,0.06046,-0.32492
0.0714,0.92767,0.36649,0.1437,0.04825,-0.33183
0.08525,0.9178,0.38778,0.08403,0.14652,-0.36057
0.09689,0.90519,0.41379,0.11774,0.16307,-0.49509
0.09842,0.89218,0.44081,0.2224,0.21033,-0.62622
0.08692,0.89216,0.44325,0.20022,0.24082,-0.3122
0.07841,0.90001,0.42875,0.10582,0.16045,-0.25173
0.07575,0.90476,0.41911,0.08402,0.24441,-0.21738
0.08032,0.90784,0.41153,-0.04693,0.63967,-0.37288
0.08916,0.91612,0.39083,-0.01769,0.68908,-0.59875
0.0911,0.93525,0.34205,0.01188,0.60779,-0.60212
0.09087,0.95766,0.27317,-0.0363,0.56369,-0.60032
0.08748,0.97848,0.18686,-0.31549,0.24985,-0.31897
0.08119,0.99181,0.09858,-0.23408,0.12135,0.66375
0.07769,0.99687,0.01422,-0.21624,0.31844,0.8204
0.07489,0.9952,-0.06292,-0.69715,0.81084,0.73986
0.07391,0.98931,-0.12568,-0.98025,0.6701,0.56971
0.09405,0.98284,-0.15869,-0.47223,0.24161,-0.33885
0.09486,0.98041,-0.17261,-0.14529,-0.19402,-0.13984
0.07224,0.97084,-0.22858,0.17291,-0.21524,0.26204
0.03422,0.95614,-0.29089,0.31004,-0.22163,0.4157
0.01438,0.94509,-0.32649,0.39164,-0.19996,0.56146
0.00609,0.93522,-0.35402,0.22399,-0.20263,0.43242
-0.00814,0.92342,-0.38369,-0.04159,-0.22368,0.51838
-0.02549,0.91093,-0.41177,-0.18293,-0.24639,0.4934
-0.04387,0.89994,-0.43381,-0.22978,-0.35372,0.36877
-0.06197,0.89143,-0.44889,-0.14338,-0.38194,0.28452
-0.07576,0.88759,-0.45435,-0.01129,-0.38053,0.2727
-0.08103,0.88965,-0.44939,0.0577,-0.41565,0.30214
-0.07393,0.89784,-0.43407,0.02736,-0.46114,0.2952
-0.05789,0.91098,-0.40836,0.00873,-0.39679,0.22942
-0.03572,0.92652,-0.37453,0.1419,-0.33022,0.14682
-0.00503,0.94106,-0.33819,0.14433,-0.19477,-0.04376
0.03548,0.95164,-0.30514,0.00079,0.05386,-0.43815
0.07363,0.96006,-0.2699,-0.29597,0.24025,-0.86577
0.09061,0.96748,-0.23613,-0.37157,0.57321,-1.21486
0.08927,0.97145,-0.21981,0.04216,0.54401,-0.923
0.08487,0.97492,-0.20574,0.2343,0.26118,-0.5005
0.08081,0.97959,-0.18402,-0.07484,-0.17672,0.15114
0.07434,0.98446,-0.15907,-0.22305,-0.01444,0.01017
0.05434,0.98985,-0.13129,-0.38039,0.9791,-0.00577
0.05311,0.99367,-0.09895,-0.33838,0.54391,1.01156
0.0779,0.99465,-0.06784,-0.22731,0.01898,0.51585
0.09643,0.9946,-0.03822,0.03261,-0.08145,-0.89245
0.10936,0.99395,-0.01009,-0.05377,-0.31446,-0.01251
0.12134,0.99253,0.01207,-0.10242,-0.40437,0.43609
0.12916,0.99113,0.03131,-0.18012,-0.5328,0.52148
0.13437,0.98965,0.05024,-0.15015,-0.26954,0.6192
0.13541,0.98848,0.06756,-0.09148,0.14272,0.44941
0.13497,0.98671,0.09046,0.04857,0.26843,0.25979
0.13959,0.98316,0.11789,0.17624,0.19378,0.12578
0.15247,0.97737,0.14661,0.39261,0.00333,-0.12804
0.16212,0.9719,0.17061,0.29836,-0.05157,-0.26894
0.16911,0.96758,0.18758,0.06111,-0.05776,-0.24836
0.176,0.96362,0.20113,-0.26008,0.0246,-0.10653
0.18308,0.96033,0.21032,-0.30128,0.0765,-0.02363
0.18907,0.9593,0.20973,-0.25386,-0.00729,0.15396
0.19062,0.96038,0.20328,-0.17142,-0.09278,0.16861
0.19008,0.96161,0.19792,-0.0571,-0.10875,0.20977
0.18836,0.9623,0.19617,0.03443,-0.02265,0.26422
0.18521,0.96234,0.19895,0.10843,-0.01747,0.28741
0.17452,0.9618,0.21088,0.14948,-0.11411,0.15274
0.15779,0.96101,0.22703,0.17601,-0.14262,0.04254
0.13865,0.95969,0.24447,0.18586,-0.10855,0.01759
0.117,0.95752,0.26353,0.21386,-0.07697,-0.08812
0.09575,0.95395,0.28427,0.24167,-0.05854,-0.14306
0.07335,0.94868,0.30758,0.28398,-0.00531,-0.12631
0.04987,0.94244,0.33061,0.30974,0.00418,-0.17891
0.02942,0.93508,0.35319,0.37332,0.17616,-0.26697
0.01756,0.92653,0.3758,0.38692,0.22404,-0.37676
0.01805,0.91456,0.40404,0.3873,0.19682,-0.46915
0.02985,0.89668,0.44166,0.32218,0.12269,-0.55323
0.03759,0.87837,0.47648,-0.04127,0.57025,-0.86683
0.02187,0.88279,0.46925,0.00759,0.55838,-0.76536
0.01698,0.89658,0.44255,0.09858,0.50127,-0.55781
0.02197,0.9101,0.4138,0.11333,0.63083,-0.20986
0.03774,0.9215,0.38652,0.03994,0.6215,-0.53541
0.05173,0.93829,0.34194,-0.21443,0.18679,-1.02009
0.05018,0.96437,0.25971,-0.0983,0.285,-0.26916
0.04274,0.98565,0.16327,-0.02788,0.41898,0.02974
0.04631,0.99636,0.07153,-0.03129,0.9234,0.55461
0.05428,0.99845,-0.01174,-0.11875,1.064,0.69365
0.05861,0.99489,-0.08214,-0.33156,0.90272,0.69224
0.06834,0.98745,-0.14231,-0.57501,0.32257,0.25306
0.09395,0.97751,-0.1888,-0.58219,0.30928,0.16193
0.11544,0.96666,-0.22854,-0.25267,0.42144,-0.16815
0.11758,0.94468,-0.30619,-0.00128,0.47387,0.25495
0.10397,0.90906,-0.40347,0.33129,0.36292,0.56861
0.10014,0.86846,-0.48553,0.33225,0.29264,0.57319
0.08519,0.82181,-0.56335,0.08653,0.145,0.5139
0.05619,0.77164,-0.63357,-0.01536,-0.006,0.6083
0.02384,0.72066,-0.69288,-0.08432,-0.11424,0.61467
-0.01726,0.68086,-0.7322,0.01888,-0.39375,0.77108
-0.04705,0.64725,-0.76082,-0.06255,-0.47683,0.83003
-0.06989,0.62033,-0.78122,-0.06985,-0.41379,0.70344
-0.08999,0.60334,-0.79239,0.02119,-0.41601,0.65767
-0.1082,0.59535,-0.79615,-0.0367,-0.52137,0.55822
-0.11794,0.5943,-0.79555,0.01728,-0.60005,0.48743
-0.10099,0.60345,-0.79098,0.0644,-0.49858,0.26484
-0.06897,0.62228,-0.77975,-0.23097,-0.53073,-0.08077
-0.03973,0.64575,-0.76251,-0.28313,-0.23029,-0.98081
-0.01129,0.67231,-0.74018,0.33703,0.45755,-0.42382
-0.00345,0.70652,-0.70769,0.38327,1.27385,0.17091
0.03267,0.73178,-0.68075,0.08247,1.2318,0.33859
0.03937,0.75941,-0.64941,-0.88185,-0.09152,0.69498
0.06602,0.7895,-0.61019,-0.63554,-0.37113,0.44312
0.10293,0.8232,-0.55834,-0.65174,-0.1191,0.24937
0.12953,0.85601,-0.50046,-0.35208,0.70603,0.23192
0.13882,0.88276,-0.44884,0.09303,0.68038,0.30978
0.14237,0.9056,-0.39952,0.20369,0.35948,0.38713
0.14237,0.92722,-0.34638,0.16467,0.08477,0.36599
0.13745,0.94613,-0.29315,0.12697,-0.02062,0.34236
0.13073,0.96097,-0.24378,0.13262,0.00195,0.26524
0.12338,0.97254,-0.19731,0.16985,0.0532,0.17471
0.11658,0.98117,-0.15398,0.2167,0.13582,0.05447
0.10931,0.98667,-0.12047,0.18857,0.06495,0.0645
0.09919,0.98994,-0.10086,0.24224,0.02048,-0.00247
0.0837,0.99217,-0.0926,0.42518,-0.0314,-0.29792
0.06333,0.99428,-0.08598,0.34947,-0.07301,-0.22849
0.04964,0.99536,-0.08234,0.23221,-0.06227,-0.07097
0.04585,0.99598,-0.07687,0.07082,-0.0624,0.29849
0.04579,0.99696,-0.0629,0.12294,-0.0649,0.05098
0.04932,0.99765,-0.04739,0.12724,-0.0934,0.29264
0.05897,0.99811,-0.01701,0.04966,0.10635,0.12764
0.0548,0.99834,0.01749,-0.11978,0.13879,0.23498
0.04048,0.99815,0.04515,0.28179,0.04642,0.25432
0.02147,0.9966,0.07951,0.57289,0.2356,0.06423
0.01008,0.99274,0.11981,0.5796,0.29475,-0.39276
0.00864,0.98822,0.15274,0.31356,0.3089,-0.71326
0.00862,0.98543,0.16984,0.09624,0.23761,-0.76716
0.00539,0.9841,0.1775,-0.06159,0.30379,-0.88555
0.00025,0.98559,0.1691,0.14127,0.44564,-0.77271
-0.00506,0.98908,0.14727,0.1733,0.43455,-0.67885
-0.00599,0.99321,0.11615,0.16212,0.34415,-0.50772
-0.00111,0.99735,0.0726,0.15873,0.56654,-0.52267
0.0095,0.99985,0.01428,0.11083,0.62061,-0.51747
0.02513,0.99822,-0.05396,0.03379,0.49198,-0.11107
0.04799,0.99093,-0.1255,-0.13615,0.37725,0.6651
0.07178,0.9792,-0.18978,-0.15994,0.38898,0.72937
0.09152,0.96507,-0.24546,-0.2778,0.29915,0.80264
0.10757,0.95123,-0.2891,-0.25697,0.32837,0.61713
0.12363,0.93568,-0.33048,-0.18514,0.4625,0.17265
0.13917,0.90739,-0.39658,-0.39728,0.38531,-0.21679
0.14806,0.87101,-0.46841,-0.13697,0.31484,0.08678
0.15442,0.83916,-0.52149,-0.05133,0.17469,0.38097
0.14238,0.80122,-0.58118,0.08944,0.2583,0.74419
0.12833,0.75671,-0.64103,0.03314,0.14011,0.57011
0.10435,0.71143,-0.69496,0.02017,-0.07367,0.70894
0.07237,0.67705,-0.73236,-0.00952,-0.2036,0.64408
0.0303,0.65267,-0.75703,-0.02195,-0.47236,0.87495
-0.01034,0.63781,-0.77012,-0.16336,-0.76812,0.90364
-0.03651,0.63788,-0.76926,-0.05982,-0.85654,0.75857
-0.04574,0.6602,-0.7497,-0.04825,-0.94528,0.63788
-0.02986,0.70386,-0.7097,-0.20939,-0.87348,0.43169
0.00061,0.74947,-0.66204,-0.27817,-0.79456,-0.27592
0.02235,0.79969,-0.59999,0.34482,-0.51922,0.17399
0.06123,0.83885,-0.54091,0.9146,0.87516,0.64096
0.11774,0.85672,-0.50215,0.31579,2.85515,-1.05495
0.1212,0.87113,-0.47584,0.01435,0.63466,0.0637
0.13223,0.88423,-0.44793,-0.47328,-0.57361,0.19547
0.14604,0.89637,-0.41855,-0.54169,-0.78709,0.20926
0.15133,0.91015,-0.38565,-0.47065,-0.40124,0.09718
0.14873,0.92531,-0.34882,-0.25587,0.08319,0.33167
0.14065,0.94043,-0.30952,-0.07982,0.4028,0.39166
0.12712,0.95142,-0.2804,0.07505,0.19848,0.19721
0.11705,0.9569,-0.26577,0.14347,0.08105,0.0974
0.10775,0.96067,-0.2559,0.12635,0.10392,-0.095
0.09947,0.96472,-0.24376,0.03214,0.15685,0.14954
0.09236,0.96786,-0.23391,0.05234,0.10552,0.1852
0.08085,0.96893,-0.23371,0.21538,-0.06458,0.04775
0.06143,0.96994,-0.23546,0.14464,-0.00695,-0.10724
0.04382,0.97093,-0.23531,0.07904,0.0653,0.12165
0.03431,0.97287,-0.22876,0.20321,0.09906,0.37352
0.02885,0.9769,-0.21173,0.13007,-0.04965,0.20143
0.03312,0.98122,-0.19002,0.05477,0.10486,0.05183
0.04248,0.98551,-0.16418,0.09295,0.19087,0.12768
0.0527,0.98971,-0.13298,0.03124,0.20909,0.05943
0.05625,0.99359,-0.09799,0.04058,0.2485,0.35988
0.05164,0.99706,-0.05647,0.10809,0.25683,0.40167
0.03898,0.99921,-0.00642,0.14367,0.40652,0.2393
0.0221,0.99842,0.05162,0.258,0.54024,-0.13269
0.0136,0.99365,0.11164,0.43821,0.44878,-0.77422
0.02048,0.98668,0.16135,0.52631,0.48407,-1.26675
0.02677,0.98113,0.19147,0.141,0.38455,-1.18791
0.02815,0.97691,0.21174,-0.14984,0.29974,-0.54577
0.02304,0.97616,0.21577,-0.05519,0.06316,-0.39536
0.01523,0.97935,0.20156,-0.04536,0.07787,-0.37818
0.0153,0.9852,0.17071,0.02153,0.36306,-0.36057
0.02345,0.99138,0.12885,0.02847,0.30881,-0.63161
0.03213,0.99734,0.06536,0.01363,0.18342,-0.52132
0.03565,0.99925,-0.01463,-0.00276,0.09976,0.02055
0.03839,0.9954,-0.08772,-0.12034,0.24343,0.43731
0.04354,0.98789,-0.14889,-0.08086,0.46893,0.71363
0.04369,0.97723,-0.2076,0.00259,0.2573,0.72513
0.03818,0.96489,-0.25985,0.14694,0.01447,0.56106
0.03567,0.94883,-0.31376,0.13834,-0.0936,0.29601
0.0374,0.92594,-0.37581,0.10805,-0.01148,0.13917
0.04393,0.8921,-0.44969,0.05915,0.08328,0.08051
0.04963,0.8576,-0.51191,0.07054,0.17861,0.1142
0.04002,0.82571,-0.56267,0.16602,0.09171,0.50231
0.01177,0.78852,-0.61489,0.20979,-0.0592,0.68317
-0.02047,0.7478,-0.6636,0.12757,-0.21728,0.68394
-0.05199,0.70933,-0.70295,0.13853,-0.24232,0.67961
-0.0797,0.67524,-0.73327,-0.16558,-0.36525,0.51724
-0.103,0.64966,-0.75322,-0.0817,-0.26893,0.4985
-0.11476,0.63151,-0.76683,-0.08177,-0.23683,0.50408
-0.11948,0.61915,-0.77613,-0.02887,-0.19753,0.52857
-0.11821,0.61317,-0.78105,0.05062,-0.21913,0.47874
-0.10786,0.61612,-0.78023,0.02473,-0.30867,0.46756
-0.08703,0.62895,-0.77256,-0.04786,-0.35652,0.45906
-0.05749,0.65143,-0.75653,-0.04841,-0.33325,0.32652
-0.02358,0.68514,-0.72803,-0.04011,-0.24927,-0.09289
0.01057,0.71509,-0.69895,0.24014,0.16528,0.26483
0.03383,0.75206,-0.65822,-0.25533,0.49094,0.2712
0.03772,0.77824,-0.62683,0.44625,1.9157,-0.3947
0.05931,0.79814,-0.59954,0.56008,0.40381,-0.01953
0.06279,0.81365,-0.57795,0.10986,-0.05699,0.08522
0.06438,0.83378,-0.54833,-0.50651,-0.61329,0.09465
0.0587,0.85688,-0.51215,-0.527,-0.48393,0.47269
0.05642,0.8803,-0.47104,-0.45107,-0.34853,0.45934
0.05746,0.90218,-0.42751,-0.1998,0.06081,0.08768
0.06335,0.9201,-0.38652,0.04871,0.26135,0.12946
0.07419,0.93538,-0.34576,0.13983,0.34229,0.11984
0.0852,0.94688,-0.31008,0.32505,0.33541,0.03268
0.095,0.95437,-0.28311,0.32424,0.04821,0.01929
0.10404,0.95887,-0.26408,0.15299,-0.13788,0.07031
0.10957,0.96316,-0.24557,-0.0162,-0.14713,-0.01329
0.11141,0.96696,-0.22927,-0.09759,-0.00109,-0.04439
0.10819,0.96943,-0.2202,-0.06586,0.01492,-0.02569
0.09482,0.97193,-0.21529,-0.05641,-0.02621,0.15773
0.0738,0.97479,-0.21056,0.01142,-0.01576,0.18837
0.04237,0.97778,-0.20529,0.11957,0.12014,0.19175
0.00517,0.9815,-0.19137,0.14615,0.34815,0.18942
-0.02131,0.98476,-0.17258,0.30743,0.4348,0.29944
-0.02824,0.98836,-0.14942,0.56909,0.20552,0.41227
-0.01456,0.99449,-0.1038,0.5609,0.09057,0.21914
0.0069,0.9991,-0.04168,0.34904,0.42067,0.25013
0.01779,0.99951,0.02562,0.0065,0.44126,0.04294
0.01722,0.99615,0.08582,0.02897,0.42955,-0.33291
0.01618,0.99032,0.1378,0.1746,0.55058,-0.95274
0.01925,0.98513,0.17071,0.06391,0.3938,-1.27538
0.02201,0.98103,0.19254,-0.18758,0.011,-0.87934
0.01742,0.97781,0.20875,-0.07778,-0.20542,-0.6215
0.0088,0.97686,0.21367,-0.02357,-0.26209,-0.41441
-6e-05,0.97807,0.20826,0.01783,0.18488,-0.39669
-0.00525,0.98306,0.18318,0.1709,0.84896,-0.68327
-0.00129,0.99286,0.11919,0.20811,0.84564,-0.75124
0.00632,0.9994,0.0339,0.08999,0.36747,-0.06709
0.02107,0.9992,-0.03375,-0.12324,0.10555,0.61059
0.03378,0.99567,-0.0865,-0.26402,0.08074,0.85158
0.04386,0.98904,-0.14091,-0.31377,0.21609,0.90623
0.056,0.9807,-0.18728,-0.33144,0.34518,0.91747
0.0676,0.97264,-0.22224,-0.205,-0.03129,0.34531
0.08138,0.95927,-0.27049,0.11036,-0.00297,-0.49489
0.09281,0.93767,-0.3349,0.18127,0.14987,-0.38901
0.09425,0.91541,-0.39133,0.0177,0.14866,0.27229
0.07579,0.88889,-0.4518,0.04475,0.08239,0.91236
0.0495,0.85021,-0.52411,0.26034,-0.00998,0.40556
0.04246,0.80956,-0.58549,0.25034,0.02606,0.19119
0.0157,0.77079,-0.63689,-0.01605,-0.01478,0.55081
-0.03246,0.72817,-0.68463,-0.06655,-0.0929,0.71875
-0.08166,0.68895,-0.72019,0.04424,-0.1503,0.81861
-0.11836,0.65959,-0.74225,-0.10413,-0.54805,0.7505
-0.14397,0.64351,-0.75178,0.04451,-0.51892,0.4611
-0.15425,0.64376,-0.74952,0.11057,-0.52306,0.42243
-0.14271,0.66103,-0.73666,-0.00806,-0.50201,0.37754
-0.117,0.69647,-0.70798,-0.45078,-0.52417,0.20445
-0.07523,0.72931,-0.68003,-0.23705,-0.46811,0.13455
-0.03601,0.77621,-0.62945,0.35888,0.28606,0.39881
0.02944,0.81377,-0.58044,0.33689,1.63881,-0.35099
0.06048,0.84297,-0.53454,-0.01842,2.39876,-1.80765
0.05797,0.86355,-0.50091,-0.14434,-0.11227,0.41173
0.07221,0.88414,-0.4616,-0.58457,-0.52989,0.14702
0.08606,0.9063,-0.41377,-0.66816,-0.60761,0.17874
0.09426,0.92625,-0.36492,-0.45269,-0.40255,0.29473
0.09251,0.9454,-0.31249,-0.18188,0.23796,0.25626
0.0734,0.9645,-0.25366,0.05879,0.70361,0.4467
0.05349,0.9783,-0.20017,0.13465,0.67408,0.4776
0.04805,0.98567,-0.16168,0.33063,0.16465,0.20005
0.04748,0.98946,-0.13673,0.3178,-0.12014,0.11165
0.04072,0.99249,-0.11531,0.35131,-0.14654,0.07773
0.02762,0.99515,-0.0943,0.36402,-0.09662,0.09821
0.01273,0.99696,-0.07676,0.4111,-0.02772,0.09271
0.00069,0.99825,-0.05905,0.42145,-0.06435,-0.02467
-0.00323,0.99933,-0.03635,0.25759,-0.13337,-0.03768
0.0059,0.99982,-0.01739,0.04262,-0.11831,-0.09185
0.01994,0.99978,-0.00506,-0.06013,-0.07664,-0.22222
0.03324,0.99943,0.00384,-0.13862,-0.06321,-0.34573
0.04174,0.99908,-0.00903,0.01314,-0.04571,-0.64124
0.04701,0.99757,-0.05126,0.17496,0.06154,-0.79397
0.05559,0.9938,-0.09627,-0.0336,0.16818,-0.42313
0.06742,0.99009,-0.12316,0.06333,-0.187,0.73514
0.0864,0.98474,-0.15105,0.04435,-0.18165,0.76304
0.10455,0.98132,-0.16144,-0.26719,-0.49348,0.82361
0.10714,0.98467,-0.13763,-0.58596,-0.35413,0.84957
0.08207,0.991,-0.10572,-0.27932,-0.24507,0.83105
0.04433,0.99628,-0.0738,0.44641,0.47636,0.06733
0.01098,0.99977,-0.0178,0.9455,1.3144,-0.42583
-0.00314,0.99974,0.02239,1.13587,1.40012,-0.80451
-0.00123,0.99849,0.05484,0.02187,0.71378,0.09944
-0.00014,0.99585,0.09086,-0.44293,0.63458,-0.05899
-0.00909,0.99429,0.10622,-0.56714,0.52983,-0.12815
-0.01894,0.99391,0.10845,-0.15265,0.2142,-0.71486
-0.02679,0.99394,0.10651,0.01273,0.11426,-0.79496
-0.03529,0.9953,0.09005,0.19462,0.11752,-0.77482
-0.03982,0.99715,0.06402,0.42805,0.25064,-0.67172
-0.04056,0.9989,0.02328,0.47313,0.26389,-0.62833
-0.03628,0.99881,-0.03238,0.50655,0.17127,-0.48121
-0.02116,0.99481,-0.09944,0.19936,0.27506,-0.01301
0.01073,0.98623,-0.16501,0.0508,0.27476,0.2252
0.04956,0.97551,-0.21427,-0.26277,0.3259,0.54541
0.08682,0.96494,-0.24768,-0.4245,0.24553,0.37803
0.12367,0.95236,-0.27877,-0.49836,0.26288,0.05565
0.1388,0.93392,-0.32943,-0.61527,0.15831,0.08628
0.14071,0.90828,-0.39398,-0.18949,0.0171,0.55099
0.14802,0.8795,-0.45228,0.38229,0.05914,0.03477
0.16291,0.85101,-0.49923,0.19081,0.1686,-0.08762
0.1658,0.82157,-0.54546,0.10935,0.21877,0.40139
0.13692,0.78255,-0.60734,0.16316,0.22787,0.55829
0.10215,0.74008,-0.66471,0.05149,0.03516,0.67507
0.06621,0.69759,-0.71342,-0.15012,-0.1693,0.67557
0.02577,0.65749,-0.75302,-0.37022,-0.41078,0.76028
-0.01249,0.62325,-0.78192,-0.21741,-0.48829,0.8024
-0.04438,0.59796,-0.80029,-0.08725,-0.57591,0.79866
-0.06764,0.58332,-0.80942,0.07902,-0.54182,0.69789
-0.08147,0.57998,-0.81055,-0.14382,-0.66892,0.63042
-0.07338,0.59232,-0.80235,-0.06741,-0.69417,0.37767
-0.04234,0.62932,-0.77599,-0.13587,-0.7163,0.2094
-0.01061,0.68293,-0.73041,-0.46519,-0.47986,-0.74706
0.01615,0.73249,-0.68058,-0.136,-0.41304,-0.56379
0.05171,0.77626,-0.62829,0.93525,1.56803,0.40307
0.11734,0.80145,-0.58644,0.38156,2.87145,-1.86863
0.11179,0.82301,-0.55691,0.06262,0.37407,0.48159
0.11933,0.8435,-0.5237,-0.57166,-0.56559,0.19015
0.12468,0.86762,-0.48133,-0.74528,-0.6812,0.4121
0.12727,0.89392,-0.42976,-0.79063,-0.42452,0.2832
0.1269,0.91984,-0.37119,-0.52613,0.03707,0.39586
0.11799,0.94324,-0.31042,-0.21493,0.40211,0.3462
0.09766,0.9637,-0.24847,-0.02089,0.78896,0.48114
0.08101,0.97767,-0.19385,0.04274,0.75168,0.40832
0.08135,0.98493,-0.15258,0.27838,0.22216,0.16952
0.08988,0.98838,-0.12252,0.37281,-0.09219,0.11731
0.09366,0.99042,-0.10144,0.36847,-0.155,0.12734
