gravity.x,gravity.y,gravity.z,userAcceleration.x,userAcceleration.y,userAcceleration.z
-0.13783,0.96621,-0.21781,0.23188,-0.0846,-0.19093
-0.13067,0.96728,-0.21748,0.13697,-0.24375,-0.10425
-0.1271,0.96957,-0.2092,0.05775,-0.21942,-0.01905
-0.1287,0.9725,-0.19413,0.01253,-0.19981,0.00292
-0.13379,0.97536,-0.1754,-0.05678,-0.11523,0.05702
-0.14042,0.97782,-0.1554,-0.10072,0.15673,0.00125
-0.14512,0.97982,-0.13742,-0.10887,0.2114,-0.08604
-0.14274,0.98168,-0.12624,-0.1243,0.20833,-0.11288
-0.1349,0.98404,-0.11605,-0.12041,0.13242,-0.01919
-0.12444,0.98659,-0.10562,-0.00787,0.0163,0.04692
-0.11251,0.98886,-0.0974,0.07513,-0.05446,0.06197
-0.09987,0.99075,-0.09189,0.08096,-0.11768,0.05025
-0.0862,0.99245,-0.08723,0.07825,-0.19806,0.05843
-0.0716,0.9942,-0.08019,0.0996,-0.22382,0.06944
-0.0567,0.99585,-0.07115,0.0866,-0.37187,0.05789
-0.04188,0.99721,-0.06171,0.07486,-0.39339,0.05991
-0.02783,0.9982,-0.05314,0.02946,-0.39206,0.11675
-0.01565,0.99879,-0.04656,-0.06641,-0.38077,0.21859
-0.00505,0.99922,-0.03904,-0.06609,-0.2703,0.24172
0.00321,0.99967,-0.02553,-0.05002,-0.07999,0.26963
0.00629,0.99996,-0.00536,0.02315,0.0329,0.26736
0.00445,0.99982,0.01829,0.1092,0.14892,0.24116
-0.0004,0.99915,0.04114,0.17291,0.16009,0.07953
-0.00942,0.99797,0.06293,0.10259,0.41279,-0.12255
-0.02,0.99609,0.08602,-0.13988,0.62636,0.14222
-0.01742,0.99521,0.09616,-0.34469,0.75343,0.15433
-0.01123,0.99683,0.07877,-0.07122,-0.10033,-0.45948
-0.00703,0.99873,0.04984,-0.06969,0.01064,-0.47826
-0.00921,0.99951,0.02999,-0.09965,-0.11804,-0.18602
-0.01477,0.99966,0.02123,-0.07586,-0.17056,-0.10567
-0.0206,0.99964,0.01732,0.05701,-0.15697,-0.07337
-0.02566,0.99956,0.01456,0.08793,-0.07509,-0.08597
-0.02892,0.99953,0.00995,0.09165,-0.0371,-0.08234
-0.03155,0.9995,0.00204,0.04335,0.03638,-0.09729
-0.03408,0.99939,-0.00717,0.0122,0.09855,-0.07005
-0.03739,0.9992,-0.01395,0.00955,0.14251,-0.0422
-0.0429,0.99894,-0.01651,0.05369,0.14724,-0.01376
-0.05072,0.99856,-0.01746,0.11349,0.08839,0.02298
-0.06222,0.99786,-0.01997,0.12282,0.01409,0.03351
-0.07589,0.99683,-0.02384,0.10189,-0.23941,0.00199
-0.08981,0.99557,-0.02771,0.07366,-0.36705,-0.03364
-0.10243,0.9942,-0.03284,0.05419,-0.45478,-0.06339
-0.11353,0.99273,-0.03991,0.02344,-0.46406,-0.07437
-0.12303,0.99136,-0.04547,-0.05634,-0.3332,-0.04518
-0.1298,0.99041,-0.04727,-0.0728,-0.25889,-0.03613
-0.13493,0.98964,-0.04901,-0.08661,-0.25079,-0.01902
-0.13767,0.98911,-0.05199,-0.15986,-0.17809,0.03644
-0.13834,0.98883,-0.05537,-0.17986,-0.11115,0.05877
-0.13753,0.98871,-0.05939,-0.19615,-0.06492,0.06003
-0.13738,0.98841,-0.06453,-0.27488,0.06879,0.04462
-0.13931,0.98775,-0.07036,-0.31322,0.09824,0.04881
-0.14331,0.98677,-0.07584,-0.32527,0.08918,0.06064
-0.14859,0.98556,-0.08113,-0.29863,0.04116,0.04324
-0.15511,0.9841,-0.08656,-0.25752,0.03722,0.065
-0.1611,0.98246,-0.09388,-0.19595,0.05483,0.11657
-0.1658,0.98074,-0.10327,-0.13573,0.09101,0.1834
-0.16805,0.97911,-0.1144,-0.04761,0.10896,0.18783
-0.16725,0.97779,-0.12631,0.01402,0.20928,0.0818
-0.16343,0.97679,-0.13848,-0.03619,0.13724,0.01078
-0.15983,0.97579,-0.14929,-0.23123,0.44367,-0.06797
-0.16263,0.97369,-0.15964,-0.25898,0.5156,-0.11726
-0.16834,0.97062,-0.1719,-0.17947,0.57259,-0.23873
-0.17435,0.96717,-0.1849,-0.04309,0.47209,-0.22955
-0.17692,0.96488,-0.19415,0.13546,0.23043,-0.14896
-0.17498,0.96486,-0.196,0.27213,-0.01075,-0.07254
-0.17014,0.96703,-0.18948,0.28752,-0.13129,-0.01101
-0.16438,0.97018,-0.1781,0.24902,-0.14274,-0.0123
-0.15924,0.97309,-0.16654,0.11561,-0.11437,-0.03793
-0.15631,0.97512,-0.15719,-0.01288,-0.14959,-0.088
-0.15706,0.97607,-0.1504,-0.05125,-0.13738,-0.08947
-0.16139,0.97641,-0.14345,-0.11553,-0.02816,-0.07322
-0.16737,0.97704,-0.13181,-0.16181,0.13413,-0.05818
-0.16994,0.97851,-0.11676,-0.12388,0.20215,-0.06548
-0.16655,0.981,-0.09952,-0.07399,0.06785,-0.00674
-0.16023,0.98385,-0.07979,-0.0238,-0.07709,0.05385
-0.15285,0.98627,-0.06248,-0.00668,-0.17136,0.07965
-0.14469,0.98808,-0.05249,-0.02432,-0.21268,0.06845
-0.13498,0.98951,-0.05138,-0.02605,-0.23565,0.057
-0.12299,0.99083,-0.05586,0.08232,-0.25121,0.06272
-0.10796,0.9924,-0.05895,0.19376,-0.28108,0.08717
-0.0898,0.99429,-0.05753,0.20479,-0.29784,0.09085
-0.06981,0.99617,-0.05266,0.19727,-0.31135,0.09958
-0.05097,0.99758,-0.04731,0.1135,-0.26555,0.19041
-0.03745,0.99844,-0.04139,-0.01789,-0.16891,0.27371
-0.03094,0.99896,-0.03352,-0.11441,-0.19302,0.27773
-0.02946,0.99931,-0.02248,-0.13775,-0.05514,0.2214
-0.0307,0.99947,-0.01053,-0.10172,0.06974,0.1689
-0.03264,0.99946,0.0008,-0.10402,0.13845,0.16149
-0.03679,0.99926,0.01133,-0.19517,0.22586,0.08355
-0.04276,0.99886,0.02113,-0.0444,0.40254,-0.03852
-0.04986,0.99822,0.03262,-0.10003,0.43577,-0.00108
-0.05178,0.99786,0.03992,-0.11721,0.57838,-0.01296
-0.03872,0.99891,0.02603,0.03875,0.20028,-0.21852
-0.02461,0.99969,-0.00337,0.06311,0.19337,-0.18912
-0.01624,0.99936,-0.03169,0.13382,0.04362,-0.1355
-0.01406,0.9987,-0.04897,0.06654,-0.01246,-0.07861
-0.01842,0.99828,-0.05554,0.09433,-0.01048,-0.08118
-0.02654,0.99834,-0.05116,0.17148,-0.00938,-0.09386
-0.03547,0.99855,-0.04051,0.19575,0.02263,-0.08721
-0.04344,0.99853,-0.03243,0.13439,0.0926,-0.01997
-0.04972,0.99833,-0.02941,0.01534,0.14475,0.0248
-0.05435,0.99803,-0.03126,-0.09788,0.12781,0.06175
-0.0584,0.9976,-0.03722,-0.1051,0.01942,0.04707
-0.06292,0.99703,-0.04426,-0.05237,-0.07939,0.01539
-0.06845,0.99627,-0.05251,-0.00942,-0.16579,-0.00721
-0.07625,0.99496,-0.0651,-0.05254,-0.22917,0.00768
-0.08868,0.99285,-0.07983,-0.10341,-0.27941,0.01161
-0.10534,0.99013,-0.09236,-0.13093,-0.33315,-0.02402
-0.12414,0.98692,-0.10285,-0.11557,-0.37509,-0.04947
-0.14094,0.98328,-0.11527,-0.05721,-0.3404,-0.05047
-0.15335,0.97965,-0.12951,0.02163,-0.2665,-0.01335
-0.16025,0.97665,-0.14307,0.11243,-0.18051,0.04406
-0.16243,0.97477,-0.15311,0.12416,-0.11973,0.10546
-0.16334,0.97361,-0.15938,0.03264,-0.12113,0.13057
-0.16537,0.97253,-0.16382,-0.02201,-0.13113,0.13198
-0.16908,0.97099,-0.16906,-0.13323,-0.12866,0.10418
-0.17507,0.96879,-0.1755,-0.26293,-0.04087,0.07135
-0.18245,0.96626,-0.18181,-0.3128,0.03042,0.07353
-0.18879,0.96398,-0.18736,-0.31957,0.08793,0.075
-0.19167,0.96222,-0.19335,-0.31989,0.15763,0.07324
-0.19257,0.96019,-0.20235,-0.15714,0.16815,0.05216
-0.19044,0.95785,-0.21507,-0.05927,0.40994,-0.07536
-0.18819,0.95464,-0.23073,-0.00546,0.41642,-0.09243
-0.18509,0.95176,-0.24474,-0.01273,0.52693,-0.00561
-0.18303,0.94988,-0.25344,-0.06329,0.34869,0.04281
-0.17541,0.95042,-0.25678,0.04209,0.78759,-0.05439
-0.17387,0.9505,-0.25754,0.09515,0.41088,-0.1193
-0.16894,0.95143,-0.25738,0.16633,0.06604,-0.14761
-0.16257,0.95322,-0.25483,0.16215,-0.15293,-0.13839
-0.15649,0.95587,-0.24862,0.14259,-0.21637,-0.10733
-0.15118,0.95905,-0.23951,0.07975,-0.16625,0.01242
-0.14847,0.96249,-0.22709,0.04381,-0.15315,0.01861
-0.15012,0.96544,-0.21303,0.0205,-0.1223,0.01724
-0.15641,0.96774,-0.1975,-0.05068,0.10809,0.07059
-0.16673,0.96973,-0.1784,-0.11245,0.22925,0.06245
-0.17707,0.97155,-0.15731,-0.13037,0.2498,0.03307
-0.18484,0.97306,-0.13776,-0.15108,0.1059,-0.00689
-0.18864,0.97432,-0.12291,-0.09165,-0.07793,-0.01798
-0.1873,0.97564,-0.1142,-0.04881,-0.15357,-0.0288
-0.18102,0.97735,-0.10962,0.03901,-0.21491,0.03066
-0.16953,0.97973,-0.1067,0.12188,-0.18926,0.11999
-0.1543,0.98272,-0.10228,0.12482,-0.17725,0.1165
-0.13662,0.9859,-0.09665,0.15285,-0.18418,0.10846
-0.11881,0.98883,-0.09001,0.14156,-0.27807,0.11135
-0.10326,0.99109,-0.08413,0.12005,-0.30514,0.11533
-0.09077,0.99251,-0.08175,0.08153,-0.34775,0.1448
-0.07947,0.99339,-0.08283,0.07541,-0.27143,0.17401
-0.06782,0.99425,-0.08287,0.05887,-0.21213,0.20544
-0.05671,0.99541,-0.07712,0.04894,-0.15582,0.23022
-0.04859,0.9966,-0.06644,0.03751,-0.05024,0.23808
-0.04625,0.99749,-0.0536,-0.01524,-0.02045,0.19148
-0.04872,0.99799,-0.04061,-0.07877,0.13286,0.18734
-0.0592,0.99777,-0.03067,-0.10612,0.33192,0.0729
-0.07227,0.99715,-0.02159,-0.00019,0.32586,-0.11072
-0.08552,0.99631,-0.00721,-0.20269,0.77513,0.0997
-0.0905,0.99589,0.00124,-0.15371,0.51273,0.10542
-0.07921,0.99683,-0.00781,-0.02656,0.37274,-0.10959
-0.07005,0.9971,-0.02969,0.04437,0.21089,-0.1642
-0.06472,0.99654,-0.0521,0.10812,-0.13909,-0.11199
-0.06332,0.99583,-0.06565,0.09583,-0.12994,-0.08837
-0.06572,0.99547,-0.0687,0.11149,-0.10574,-0.10329
-0.06968,0.99556,-0.06321,0.12416,-0.02872,-0.12135
-0.07373,0.99582,-0.05379,0.1145,0.01334,-0.10428
-0.07687,0.996,-0.04543,0.07005,0.10724,-0.04977
-0.07939,0.99599,-0.04129,0.06016,0.12643,-0.03873
-0.08187,0.99579,-0.04119,0.06489,0.12408,0.03326
-0.0849,0.99541,-0.04407,0.1033,0.03872,0.04299
-0.08943,0.99477,-0.04923,0.12498,-0.03565,0.04351
-0.09429,0.99399,-0.05567,0.14434,-0.23057,0.01612
-0.10135,0.99299,-0.06087,0.09403,-0.28455,0.00227
-0.11239,0.9916,-0.06393,0.00602,-0.30296,-0.01474
-0.12712,0.98979,-0.0645,-0.09596,-0.29582,-0.03131
-0.14456,0.98741,-0.06413,-0.18414,-0.26377,-0.07216
-0.1622,0.98452,-0.0664,-0.21304,-0.2008,-0.10561
-0.17742,0.98149,-0.07204,-0.16377,-0.13173,-0.09753
-0.18917,0.97882,-0.07823,-0.0964,-0.12666,-0.04359
-0.19567,0.9772,-0.08243,-0.0899,-0.12504,-0.03938
-0.19919,0.97646,-0.0827,-0.00598,-0.13937,0.09175
-0.20267,0.97598,-0.07992,-0.0049,-0.19752,0.16209
-0.2072,0.97526,-0.07707,-0.02894,-0.21503,0.1658
-0.21305,0.97415,-0.07503,-0.13871,-0.21137,0.12667
-0.21884,0.973,-0.07335,-0.19968,-0.1898,0.09637
-0.22309,0.97201,-0.07369,-0.28005,-0.14141,0.05264
-0.22527,0.97121,-0.07748,-0.27541,-0.14023,0.05972
-0.22548,0.97066,-0.08358,-0.21384,-0.09091,0.08882
-0.22307,0.97057,-0.09069,-0.1645,0.03811,0.1493
-0.21982,0.97061,-0.09795,-0.16031,0.07144,0.16989
-0.21618,0.97051,-0.10664,-0.09684,0.05596,0.20451
-0.21298,0.97,-0.11722,-0.00723,0.069,0.24437
-0.20828,0.96949,-0.12927,0.01803,0.17576,0.26175
-0.20496,0.96852,-0.14124,0.03733,0.1049,0.23666
-0.20036,0.96822,-0.1497,-0.08075,0.50529,0.23156
-0.20416,0.96662,-0.1548,-0.20988,0.28173,0.2056
-0.20389,0.96593,-0.15938,-0.27075,0.67491,0.03943
-0.21013,0.96241,-0.17206,-0.3127,0.60679,-0.16331
-0.21076,0.95864,-0.19131,-0.26106,0.48074,-0.21412
-0.20032,0.95713,-0.20924,-0.14812,0.32603,-0.15211
-0.17971,0.95867,-0.22057,-0.08651,0.00788,-0.09507
-0.15404,0.96183,-0.22615,0.19288,0.00254,-0.07031
-0.13549,0.96447,-0.22682,0.20297,-0.13527,-0.00953
-0.12711,0.96644,-0.22325,0.10845,-0.15527,0.01298
-0.12712,0.96735,-0.21927,0.08141,-0.13872,0.00778
-0.13295,0.96741,-0.21551,0.05622,-0.11209,-0.05285
-0.14249,0.96709,-0.21078,-0.04361,0.03011,-0.01229
-0.15431,0.96673,-0.204,-0.07989,0.07523,0.00818
-0.16616,0.96629,-0.19664,-0.13862,0.10498,0.02275
-0.17294,0.9661,-0.19171,-0.04671,0.07349,0.05765
-0.1718,0.96651,-0.19061,0.01996,0.06448,0.08452
-0.16473,0.96753,-0.19171,0.19367,-0.01625,0.11363
-0.15483,0.96873,-0.19389,0.23386,-0.05998,0.09544
-0.1455,0.97001,-0.19471,0.29,-0.11335,0.05766
-0.13887,0.97187,-0.19022,0.27784,-0.09539,0.04944
-0.13539,0.97449,-0.179,0.24081,-0.06876,0.04793
-0.13416,0.97771,-0.16152,0.19087,-0.03415,0.05068
-0.13353,0.98136,-0.13818,0.00158,-0.01733,0.07574
-0.13161,0.98484,-0.11297,-0.10394,-0.1116,0.07327
-0.12888,0.98745,-0.0913,-0.15959,-0.25587,0.08401
-0.12588,0.98907,-0.07676,-0.16209,-0.41537,0.08066
-0.12247,0.98989,-0.07154,-0.15288,-0.51759,0.09748
-0.11823,0.9902,-0.07434,-0.16021,-0.53327,0.14259
-0.11304,0.9903,-0.08079,-0.14474,-0.49045,0.20239
-0.1073,0.99039,-0.08725,-0.10733,-0.405,0.26945
-0.10276,0.99055,-0.0909,-0.05513,-0.3019,0.34642
-0.10079,0.99077,-0.09065,0.00626,-0.1774,0.3554
-0.10076,0.99087,-0.08955,0.08482,0.00479,0.21505
-0.10282,0.99066,-0.08956,0.14958,0.14961,0.12207
-0.10765,0.99042,-0.0865,0.14,0.26393,0.13868
-0.11524,0.99039,-0.07653,-0.03926,0.36955,0.22309
-0.12407,0.99025,-0.06333,-0.22853,0.33595,0.22494
-0.12934,0.99006,-0.05517,-0.23164,0.10121,0.14973
-0.12457,0.99054,-0.05763,-0.07778,0.02446,0.1282
-0.11707,0.99109,-0.06346,0.05795,0.45221,0.12033
-0.10989,0.99226,-0.05789,0.15577,0.86019,0.26825
-0.10203,0.99371,-0.04624,0.29058,0.55717,0.06447
-0.09389,0.99442,-0.04813,0.40986,0.32509,-0.10487
-0.08759,0.99445,-0.0582,0.50666,0.05451,-0.28961
-0.08558,0.99452,-0.06001,0.3442,-0.16652,-0.15447
-0.088,0.99499,-0.04755,0.26489,-0.25496,-0.09826
-0.09512,0.99508,-0.02767,0.06591,-0.3359,-0.08197
-0.10724,0.99415,-0.01244,-0.05806,-0.29167,-0.19406
-0.11836,0.9929,-0.01168,-0.06078,-0.23538,-0.24937
-0.12592,0.99183,-0.02047,0.00773,-0.00127,-0.19552
-0.13086,0.99097,-0.02927,0.12545,0.11819,-0.0968
-0.13148,0.99078,-0.03258,0.25988,0.15329,-0.04232
-0.12854,0.99129,-0.02873,0.32769,0.097,-0.02541
-0.12724,0.99164,-0.0216,0.25889,-0.0932,-0.02632
-0.1313,0.99119,-0.01734,0.1978,-0.1433,-0.05019
-0.14193,0.9897,-0.01843,0.07,-0.15714,-0.10716
-0.15583,0.98749,-0.02411,-0.08208,-0.04391,-0.22346
-0.17007,0.98497,-0.03007,-0.10921,-0.03223,-0.23203
-0.18227,0.9828,-0.02973,-0.15752,-0.01028,-0.11498
-0.18944,0.98166,-0.02152,-0.12954,-0.04507,0.07128
-0.19123,0.98149,-0.01049,-0.1243,-0.10472,0.15693
-0.18914,0.98195,-0.00311,-0.07386,-0.26587,0.27748
-0.18489,0.98275,-0.00274,-0.03081,-0.31512,0.2286
-0.17995,0.98364,-0.00873,-0.02629,-0.31372,0.18813
-0.17478,0.98446,-0.01716,-0.02191,-0.19402,0.09658
-0.16969,0.98519,-0.02447,-0.0279,-0.1509,0.05394
-0.16486,0.9859,-0.02853,-0.09803,-0.10091,0.00421
-0.1596,0.98676,-0.02874,-0.20602,0.07108,0.1281
-0.15401,0.9877,-0.02713,-0.23706,0.12522,0.20049
-0.14856,0.98855,-0.02639,-0.22456,0.14249,0.32427
-0.14256,0.98933,-0.02999,-0.01526,0.14107,0.3581
-0.13728,0.98987,-0.03627,0.0085,0.16862,0.35218
-0.13556,0.98961,-0.04796,0.05154,0.27049,0.16719
-0.13874,0.98842,-0.06151,0.14632,0.57652,0.02804
-0.14762,0.98654,-0.07032,0.18389,0.47936,-0.04141
-0.15912,0.98434,-0.07586,0.36055,0.30814,-0.41726
-0.16911,0.98217,-0.08213,0.40959,0.23916,-0.57458
-0.17948,0.97989,-0.08718,0.33963,0.11979,-0.52263
-0.18815,0.97784,-0.0918,0.32958,0.07145,-0.3438
-0.1941,0.97669,-0.09161,0.32882,0.11042,-0.01952
-0.19492,0.9773,-0.08299,0.37468,0.07987,0.20539
-0.18885,0.97969,-0.06746,0.34977,-0.04721,0.16899
-0.17844,0.98264,-0.05069,0.2929,-0.15864,-0.04405
-0.16532,0.98553,-0.03731,-0.03138,-0.13666,-0.12268
-0.15062,0.98824,-0.02639,-0.14395,-0.0931,-0.09446
-0.13673,0.99045,-0.01738,-0.22681,-0.0221,-0.10089
-0.12574,0.99198,-0.01281,-0.18982,-0.04134,-0.09472
-0.11972,0.99277,-0.008,-0.18462,-0.0729,-0.05791
-0.11793,0.99301,0.00463,-0.22426,-0.13884,0.09311
-0.11742,0.99284,0.02213,-0.18582,-0.23086,0.2502
-0.11622,0.9926,0.03526,-0.15339,-0.29246,0.32486
-0.11384,0.99271,0.03951,-0.16883,-0.34604,0.29692
-0.11039,0.99326,0.03536,-0.17038,-0.32718,0.23895
-0.10635,0.99392,0.0286,-0.20281,-0.33245,0.26045
-0.10356,0.99428,0.02618,-0.22521,-0.2265,0.21206
-0.10343,0.99429,0.02608,-0.10926,-0.07372,0.17237
-0.10622,0.99395,0.028,-0.04809,0.01756,0.19272
-0.11188,0.99311,0.03469,0.05361,0.16558,0.27414
-0.11862,0.99207,0.04146,0.12533,0.2496,0.32005
-0.12452,0.99136,0.0412,0.13382,0.10581,0.29193
-0.12572,0.99156,0.03172,0.26423,0.03872,0.17606
-0.12048,0.99241,0.0246,0.37215,0.40386,0.24508
-0.1118,0.99338,0.02629,0.41831,0.6798,0.18672
-0.10122,0.99423,0.03561,0.39862,0.79444,-0.12271
-0.09058,0.99496,0.04297,0.37222,0.64722,-0.21341
-0.08269,0.99569,0.04207,0.49585,0.027,-0.68344
-0.07793,0.99614,0.04042,0.29381,0.07115,-0.57173
-0.08059,0.99531,0.05354,-0.02146,0.12035,-0.38771
-0.0882,0.9932,0.07596,-0.25107,-0.00565,-0.28006
-0.09648,0.99125,0.09009,-0.27316,-0.11108,-0.25992
-0.10386,0.9908,0.08672,-0.11843,-0.08863,-0.20336
-0.10996,0.99135,0.0717,0.01392,-0.05186,-0.13207
-0.11638,0.99181,0.05264,0.29222,-0.03675,-0.08564
-0.12068,0.99217,0.03229,0.45552,-0.08947,-0.06227
-0.12151,0.9925,0.0135,0.49573,-0.11294,-0.04394
-0.12386,0.9923,-0.0002,0.39677,-0.08143,-0.04402
-0.1325,0.99117,-0.0055,0.18221,-0.09687,-0.05485
-0.1485,0.98891,-0.00369,0.08117,-0.08336,-0.06993
-0.16911,0.9856,-0.00167,-0.22271,-0.04172,-0.12043
-0.19013,0.98175,-0.00521,-0.33781,-0.02645,-0.17162
-0.20685,0.97828,-0.01347,-0.36407,-0.05256,-0.17922
-0.21687,0.97598,-0.02086,-0.31068,-0.15602,-0.08058
-0.22264,0.97459,-0.02451,-0.19713,-0.17309,0.01237
-0.22898,0.97307,-0.0265,-0.11848,-0.15762,0.04501
-0.23918,0.97055,-0.02873,-0.03211,-0.12381,0.14269
-0.25198,0.96713,-0.03417,0.03558,-0.12185,0.14831
-0.26508,0.96319,-0.04481,0.01967,-0.09589,0.12371
-0.27686,0.95914,-0.05834,-0.04408,-0.00233,0.15746
-0.28557,0.95588,-0.06884,-0.08087,0.13814,0.24161
-0.28915,0.95437,-0.07462,-0.06575,0.2028,0.29513
-0.28473,0.9552,-0.0807,-0.05983,0.36508,0.21757
-0.27464,0.9569,-0.09436,-0.02453,0.50647,-0.06005
-0.2635,0.95761,-0.11641,-0.1683,0.66054,-0.49614
-0.25164,0.95782,-0.1388,-0.16873,0.64881,-0.52265
-0.2409,0.95846,-0.1527,-0.07733,0.48502,-0.30161
-0.2321,0.96022,-0.15527,0.14865,0.15297,-0.21222
-0.22334,0.96231,-0.15513,0.52432,0.17486,-0.25214
-0.21812,0.96321,-0.15703,0.51413,0.06012,-0.24916
-0.21233,0.96469,-0.15582,0.36613,0.00494,-0.15927
-0.21229,0.96646,-0.1445,0.16008,-0.12586,-0.11619
-0.21972,0.96813,-0.12023,-0.12953,-0.17107,-0.02741
-0.22984,0.96904,-0.09017,-0.15878,-0.14226,-0.0357
-0.23647,0.96926,-0.06798,-0.2169,-0.03949,-0.05722
-0.2359,0.9701,-0.05709,-0.25655,0.07992,-0.18182
-0.2274,0.97257,-0.04898,-0.2446,0.07315,-0.20647
-0.21446,0.97596,-0.03889,-0.12402,0.02633,-0.1827
-0.20086,0.97919,-0.02906,0.08316,-0.03374,-0.03122
-0.18732,0.98203,-0.02287,0.11353,-0.0666,0.0312
-0.17319,0.98473,-0.01786,0.18276,-0.25267,0.13873
-0.15897,0.98722,-0.01099,0.23778,-0.28208,0.13601
-0.1448,0.98946,-0.00149,0.3399,-0.33364,0.0562
-0.13191,0.99122,0.00927,0.31999,-0.44831,0.07679
-0.11858,0.99269,0.02227,0.23635,-0.38948,0.09892
-0.10704,0.99354,0.03758,-0.01538,-0.18857,0.14609
-0.0998,0.9936,0.05291,-0.06482,0.08291,0.15913
-0.09978,0.99281,0.06611,-0.20157,0.01055,0.1259
-0.09913,0.99192,0.07916,-0.18202,0.13097,0.08811
-0.0993,0.99085,0.09138,0.07903,0.12571,-0.24434
-0.10035,0.99008,0.09832,0.27853,0.39459,-0.2549
-0.10263,0.98925,0.10415,0.22582,0.56255,-0.01177
-0.09993,0.98963,0.10322,-0.00927,0.58957,0.02624
-0.08606,0.99296,0.08134,0.15378,0.17888,-0.30698
-0.078,0.99568,0.05037,0.14709,0.04685,-0.3782
-0.07689,0.99663,0.02865,0.17194,-0.24473,-0.18152
-0.07935,0.9966,0.02232,0.2012,-0.22896,-0.10741
-0.08407,0.99611,0.02627,0.22845,-0.18511,-0.08486
-0.08659,0.99569,0.03323,0.25941,0.01711,-0.10803
-0.08682,0.99551,0.03775,0.17207,0.14206,-0.06038
-0.08735,0.99554,0.03574,0.15477,0.16009,-0.0517
-0.08959,0.99556,0.02877,0.08951,0.11331,-0.0503
-0.0936,0.9954,0.02031,0.0733,0.04906,-0.06195
-0.09951,0.99497,0.01165,0.08286,0.02055,-0.07731
-0.10744,0.99421,0.00304,0.06934,-0.0587,-0.09416
-0.11782,0.99301,-0.00667,-0.05476,-0.16826,-0.06511
-0.13107,0.99124,-0.01632,-0.0813,-0.21025,-0.04891
-0.14544,0.98904,-0.02538,-0.10154,-0.28796,-0.05717
-0.15916,0.98666,-0.03426,-0.0822,-0.33404,-0.08244
-0.17089,0.9843,-0.04415,-0.04932,-0.3402,-0.0844
-0.18022,0.98216,-0.05356,-0.0361,-0.29894,-0.07941
-0.18695,0.98038,-0.0624,-0.01451,-0.25083,-0.05329
-0.19143,0.97897,-0.07054,-0.02265,-0.20863,0.00224
-0.19554,0.97778,-0.07556,-0.07249,-0.15228,0.06526
-0.20069,0.97658,-0.0776,-0.11645,-0.09636,0.08712
-0.20767,0.97503,-0.07862,-0.16263,-0.03152,0.08527
-0.21648,0.97297,-0.08042,-0.20402,-0.00115,0.06288
-0.22546,0.97055,-0.08483,-0.2283,0.01186,0.0709
-0.2338,0.96793,-0.09191,-0.20982,0.1148,0.12262
-0.23971,0.96555,-0.10129,-0.16495,0.20154,0.17743
-0.24336,0.96319,-0.11417,0.01505,0.38842,0.01664
-0.24218,0.9614,-0.1306,0.03709,0.37619,-0.07255
-0.23897,0.95989,-0.14665,0.05538,0.47914,-0.10849
-0.23378,0.95929,-0.15845,-0.05811,0.58208,-0.10966
-0.22627,0.95975,-0.16638,-0.14922,0.39741,-0.10784
-0.21627,0.96068,-0.17411,0.08016,0.46383,-0.25907
-0.20861,0.9605,-0.18417,0.15109,0.29771,-0.27253
-0.19824,0.96086,-0.19353,0.28742,-0.14099,-0.29221
-0.18771,0.9619,-0.19879,0.25244,-0.24128,-0.18738
-0.18,0.96399,-0.19576,0.20449,-0.25055,-0.13393
-0.17876,0.96665,-0.1834,0.05032,-0.23336,0.00813
-0.18349,0.96883,-0.16641,-0.0229,-0.17959,0.02955
-0.19144,0.96999,-0.14987,-0.08482,-0.0075,0.04069
-0.20037,0.97055,-0.13372,-0.11262,0.16986,-0.03582
-0.20255,0.97187,-0.12017,-0.08812,0.21444,-0.12043
-0.19537,0.97456,-0.10979,-0.03036,0.12186,-0.08906
-0.18554,0.97769,-0.09844,0.05867,-0.0459,-0.03429
-0.17631,0.98042,-0.08762,0.12312,-0.14826,0.02976
-0.16784,0.9826,-0.07947,0.11677,-0.18657,0.06233
-0.15918,0.98446,-0.07408,0.09551,-0.26771,0.07722
-0.14901,0.98637,-0.06978,0.10145,-0.29737,0.07452
-0.13584,0.98869,-0.06356,0.13163,-0.31605,0.0655
-0.12029,0.99119,-0.05545,0.16996,-0.38978,0.06671
-0.10338,0.99346,-0.04842,0.10752,-0.25613,0.16513
-0.08639,0.99534,-0.04292,0.04933,-0.10953,0.19369
-0.0723,0.9968,-0.03417,-0.00978,0.00151,0.22451
-0.06396,0.99781,-0.01672,0.00409,0.25858,0.30887
-0.06353,0.99795,0.00722,-0.025,0.17423,0.24643
-0.06721,0.9972,0.03257,-0.03001,0.20017,0.2115
-0.07426,0.99576,0.0543,0.07702,0.16391,-0.04534
-0.08344,0.99397,0.0711,-0.08065,0.2733,0.13297
-0.09526,0.99144,0.08929,-0.06883,0.27583,0.11478
-0.09878,0.98999,0.1008,-0.1518,0.43645,0.13115
-0.08671,0.99239,0.08743,-0.04114,0.27905,-0.25893
-0.07781,0.99521,0.05923,0.04962,0.02762,-0.45421
-0.07604,0.99638,0.03794,0.032,-0.02415,-0.34711
-0.07923,0.99641,0.02984,0.07665,-0.13099,-0.21474
-0.08496,0.99593,0.02994,0.1634,-0.148,-0.15593
-0.09021,0.99537,0.03309,0.20699,-0.06658,-0.13304
-0.09344,0.99504,0.03401,0.22398,0.03082,-0.11793
-0.09616,0.99489,0.03068,0.23796,0.07533,-0.13234
-0.09933,0.99476,0.02428,0.2218,0.0939,-0.10967
-0.10233,0.99458,0.01823,0.12358,0.13583,0.0405
-0.10829,0.99399,0.01604,0.1154,0.11943,0.0664
-0.11655,0.99308,0.01411,0.11019,0.01841,0.02665
-0.12505,0.99212,0.0079,0.08059,-0.16254,-0.06831
-0.13655,0.99063,-0.00249,0.06279,-0.23629,-0.08105
-0.14826,0.98882,-0.01546,-0.00693,-0.3236,-0.11221
-0.15904,0.98685,-0.02887,-0.04582,-0.37856,-0.11748
-0.16797,0.9849,-0.0418,-0.05419,-0.38536,-0.11037
-0.17572,0.98301,-0.05308,-0.08287,-0.32166,-0.10122
-0.18263,0.98123,-0.06194,-0.08777,-0.28271,-0.08769
-0.18777,0.9797,-0.07025,-0.11778,-0.22871,-0.07385
-0.19146,0.97825,-0.07974,-0.16216,-0.10417,-0.0131
-0.19528,0.9767,-0.08899,-0.16814,-0.07129,0.02684
-0.20052,0.97494,-0.09636,-0.18895,0.02801,0.05595
-0.20768,0.97276,-0.10302,-0.17659,0.13618,0.08006
-0.21682,0.97,-0.10993,-0.15084,0.17777,0.14958
-0.22901,0.9666,-0.11501,-0.12087,0.23011,0.21503
-0.24307,0.96315,-0.11511,-0.11498,0.40274,0.20445
-0.25944,0.95906,-0.11353,-0.10573,0.36458,0.11139
-0.2694,0.95631,-0.11355,-0.05189,0.53658,-0.14083
-0.2755,0.95435,-0.11542,0.00453,0.46318,-0.2278
-0.274,0.95418,-0.12027,-0.06191,0.44051,-0.09633
-0.26596,0.95555,-0.12725,-0.09287,0.43959,-0.01111
-0.25417,0.95809,-0.13211,0.07509,0.12365,-0.09076
-0.23478,0.96251,-0.13585,0.32935,0.13609,-0.23743
-0.21963,0.96555,-0.13957,0.25787,-0.11668,-0.26797
-0.20895,0.96779,-0.14041,0.09532,-0.19493,-0.24678
-0.20466,0.96948,-0.135,-0.06013,-0.21613,-0.16718
-0.20718,0.97087,-0.12037,-0.16305,-0.22146,-0.09229
-0.21375,0.97174,-0.10016,-0.17259,-0.18924,-0.02989
-0.22011,0.97198,-0.0825,-0.11224,0.01662,0.02471
-0.22308,0.97219,-0.07125,-0.06955,0.12007,0.00808
-0.219,0.97364,-0.06377,-0.01661,0.20984,-0.05783
-0.20861,0.97651,-0.05386,0.05942,0.15241,-0.05008
-0.19822,0.9794,-0.03859,0.08732,0.08607,-0.03197
-0.18893,0.98173,-0.02258,0.13855,-0.0861,0.01557
-0.18111,0.9834,-0.01038,0.14383,-0.20093,0.03269
-0.17342,0.98484,-0.00413,0.15517,-0.27637,-0.00365
-0.16347,0.98654,-0.00219,0.17487,-0.32103,-0.01981
-0.15062,0.98859,0.00067,0.15848,-0.33505,0.00101
-0.13606,0.99067,0.0067,0.14694,-0.28137,0.01961
-0.12047,0.99262,0.0138,0.13865,-0.32392,0.06508
-0.10542,0.99424,0.01902,0.10213,-0.27969,0.10077
-0.09236,0.9955,0.02122,0.05406,-0.19536,0.14199
-0.08254,0.99632,0.02279,-0.01251,-0.1516,0.20256
-0.07413,0.99689,0.02666,-0.04777,-0.00813,0.22537
-0.06987,0.99699,0.03358,0.0045,0.03454,0.1973
-0.06976,0.99666,0.04242,0.05406,0.11281,0.12143
-0.07281,0.99597,0.05229,-0.09492,0.20163,0.09091
-0.07865,0.99498,0.0618,-0.14494,0.24499,0.0416
-0.0876,0.99365,0.07062,-0.14155,0.6081,0.00418
-0.09999,0.99162,0.08176,-0.23884,0.62726,0.03951
-0.10705,0.9908,0.08271,-0.18843,0.42103,-0.03757
-0.0962,0.99356,0.05985,0.04828,0.21172,-0.25784
-0.07984,0.99656,0.02207,0.08557,0.17822,-0.2537
-0.07089,0.99743,-0.00998,0.11929,0.09209,-0.20566
-0.06806,0.9973,-0.02739,0.11023,-0.00148,-0.08818
-0.07003,0.99687,-0.03665,0.14708,-0.05877,-0.08518
-0.0751,0.99636,-0.04017,0.20556,-0.09373,-0.13469
-0.08193,0.99591,-0.03805,0.16259,-0.01358,-0.17759
-0.08902,0.99547,-0.03317,0.09083,0.02121,-0.1316
-0.09531,0.99505,-0.02795,0.0616,0.03263,-0.11854
-0.10034,0.99468,-0.02317,-0.07251,0.09646,-0.02115
-0.10444,0.99433,-0.01992,-0.06785,0.08001,0.00605
-0.10888,0.99385,-0.02014,-0.03912,0.02297,0.01437
-0.11517,0.99303,-0.02483,0.09871,-0.09284,0.02025
-0.12332,0.9918,-0.03347,0.13143,-0.10723,0.02529
-0.13433,0.98997,-0.04359,0.11321,-0.18017,-0.00847
-0.14762,0.98762,-0.05297,0.0417,-0.29409,-0.07063
-0.16217,0.98491,-0.06041,0.0381,-0.26634,-0.07666
-0.17829,0.98173,-0.06638,-0.02488,-0.26526,-0.11027
-0.1942,0.97836,-0.07134,-0.03461,-0.23662,-0.08951
-0.20797,0.97522,-0.07537,-0.04533,-0.20121,-0.04441
-0.21839,0.97262,-0.07938,-0.05212,-0.1902,-0.01572
-0.22557,0.97069,-0.0829,-0.07458,-0.18559,0.03731
-0.23122,0.96927,-0.08395,-0.11236,-0.16249,0.04151
-0.23651,0.96797,-0.08421,-0.13391,-0.14875,0.00776
-0.24149,0.96652,-0.08665,-0.10343,-0.14952,-0.01069
-0.24569,0.96512,-0.09036,-0.08599,-0.11078,-0.00579
-0.24895,0.96409,-0.09243,-0.07534,-0.07465,0.01745
-0.25082,0.96367,-0.09172,-0.10776,0.02429,0.04379
-0.25191,0.96354,-0.09016,-0.12181,0.02345,0.04422
-0.25217,0.96343,-0.09056,-0.13944,0.05043,0.05917
-0.25248,0.96316,-0.0925,-0.14641,0.11875,0.09106
-0.25278,0.96272,-0.09623,-0.11472,0.26418,0.07919
-0.2529,0.96208,-0.10217,-0.07701,0.29856,0.00027
-0.25132,0.96162,-0.11002,-0.16318,0.49933,-0.1478
-0.25252,0.96033,-0.11824,-0.19096,0.5178,-0.12022
-0.25507,0.95852,-0.12716,-0.1572,0.33239,-0.11017
-0.25547,0.95705,-0.13706,-0.01691,0.59717,-0.24829
-0.25784,0.95497,-0.14676,0.15247,0.33867,-0.25366
-0.25467,0.95489,-0.15271,0.29338,0.05343,-0.20444
-0.24718,0.95657,-0.15448,0.32631,-0.12518,-0.13483
-0.23847,0.95939,-0.15065,0.25529,-0.17788,-0.06569
-0.23258,0.96239,-0.14033,0.15987,-0.14863,-0.04312
-0.23023,0.96491,-0.12623,0.08724,-0.12348,-0.0418
-0.23079,0.96663,-0.11113,-0.01219,-0.10036,-0.04276
-0.23477,0.96734,-0.09552,-0.12679,-0.02187,0.00386
-0.24044,0.96752,-0.07801,-0.21825,0.12868,0.07737
-0.24342,0.9681,-0.0593,-0.20215,0.19958,0.06877
-0.24016,0.9697,-0.04449,-0.11799,0.12339,0.00582
-0.23309,0.97187,-0.03342,-0.00343,-0.00056,-0.01559
-0.2251,0.97404,-0.02375,0.07885,-0.07965,-0.00674
-0.21691,0.97603,-0.01741,0.10711,-0.12662,0.02511
-0.20894,0.9778,-0.01507,0.06691,-0.15075,0.07158
-0.20122,0.97945,-0.01334,0.0548,-0.19296,0.06429
-0.1932,0.9811,-0.01022,0.07964,-0.22399,0.03339
-0.18458,0.9828,-0.00513,0.10297,-0.25015,0.02199
-0.17414,0.98471,0.00099,0.11133,-0.27365,0.05943
-0.16122,0.9869,0.00546,0.10312,-0.28438,0.07858
-0.14585,0.98927,0.00785,0.07039,-0.28866,0.11734
-0.12909,0.99157,0.00993,-0.01193,-0.22281,0.1899
-0.11358,0.99342,0.01393,-0.01438,-0.20203,0.18712
-0.10105,0.99467,0.02008,0.04748,-0.02304,0.1353
-0.09223,0.99536,0.0272,0.05297,0.05274,0.11895
-0.08766,0.99549,0.03606,0.05708,0.25239,0.15225
-0.08809,0.99508,0.04505,-0.00652,0.34343,0.02453
-0.09188,0.99438,0.05251,0.02948,0.38155,-0.05893
-0.09947,0.99329,0.05892,-0.01645,0.50812,0.03998
-0.10726,0.99214,0.0643,-0.00673,0.34723,0.04539
-0.10588,0.99261,0.05919,0.01263,0.35114,-0.07005
-0.09826,0.99428,0.04175,0.06861,-0.01463,-0.25798
-0.09447,0.99536,0.01783,0.06711,-0.04196,-0.22467
-0.09372,0.99559,-0.00184,0.12715,-0.11944,-0.12927
-0.0951,0.99539,-0.01189,0.18815,-0.08476,-0.13888
-0.09785,0.99511,-0.01297,0.19538,0.01586,-0.17637
-0.09986,0.99494,-0.01051,0.1887,0.06202,-0.1608
-0.1006,0.99487,-0.00952,0.16753,0.0947,-0.13797
-0.10105,0.9948,-0.01212,0.1153,0.15584,-0.05619
-0.10275,0.99455,-0.01715,0.10373,0.17473,0.00104
-0.10744,0.99396,-0.02178,0.10817,0.15463,0.02014
-0.11505,0.99305,-0.02429,0.16991,-0.04683,0.03686
-0.12427,0.9919,-0.02613,0.1823,-0.17428,0.02919
-0.13451,0.99046,-0.02969,0.11669,-0.23352,0.00608
-0.14562,0.9887,-0.03548,0.00581,-0.25768,-0.03701
-0.15719,0.98663,-0.04288,-0.07158,-0.29222,-0.07237
-0.16847,0.98431,-0.05234,-0.09648,-0.32694,-0.113
-0.17901,0.9818,-0.06336,-0.08497,-0.32845,-0.12709
-0.18769,0.97932,-0.07542,-0.06109,-0.26974,-0.08931
-0.19398,0.97708,-0.08757,-0.04137,-0.21425,-0.03471
-0.19812,0.97523,-0.0983,-0.03478,-0.18627,0.01848
-0.20103,0.9737,-0.1071,-0.04981,-0.1818,0.04448
-0.20427,0.97232,-0.11335,-0.12022,-0.17708,0.05303
-0.20912,0.97075,-0.11787,-0.18692,-0.15081,0.05393
-0.21495,0.96891,-0.12242,-0.24177,-0.08746,0.06265
-0.22134,0.96682,-0.12747,-0.29268,0.0024,0.09157
-0.22742,0.96479,-0.13208,-0.2798,0.09928,0.14467
-0.23251,0.96297,-0.13645,-0.20699,0.20703,0.19848
-0.23695,0.96105,-0.14223,-0.09938,0.26164,0.21083
-0.23901,0.95911,-0.15157,0.03189,0.35942,0.09961
-0.2384,0.95702,-0.16512,0.08023,0.55542,-0.15144
-0.2366,0.95482,-0.1798,0.0302,0.57926,-0.0954
-0.23233,0.95395,-0.18968,-0.10362,0.57797,-0.02768
-0.2262,0.95451,-0.19425,0.07694,0.57763,-0.12719
-0.2222,0.95451,-0.19882,0.10719,0.40412,-0.15057
-0.21791,0.9538,-0.2068,0.19667,0.12458,-0.2094
-0.21299,0.95323,-0.21442,0.20893,-0.15049,-0.18229
-0.20822,0.95369,-0.21702,0.15506,-0.16973,-0.09421
-0.2039,0.95613,-0.21029,0.05853,-0.16059,-0.02738
-0.20286,0.95971,-0.1944,0.02354,-0.1647,-0.02408
-0.20556,0.96248,-0.17708,-0.01137,-0.13855,-0.024
-0.20998,0.96385,-0.16399,-0.06464,0.03031,0.01857
-0.21447,0.9646,-0.15342,-0.09157,0.11359,0.01327
-0.2147,0.96619,-0.14269,-0.0577,0.17834,-0.06188
-0.20821,0.96934,-0.13045,0.06638,0.03141,-0.02885
-0.20018,0.97331,-0.11217,0.05504,-0.10736,0.05348
-0.19293,0.97703,-0.09046,0.03917,-0.16315,0.06929
-0.1856,0.98001,-0.07148,0.02897,-0.22048,0.05053
-0.1768,0.98239,-0.06038,0.02885,-0.20303,0.03759
-0.16559,0.98466,-0.05484,0.03132,-0.20291,0.03701
-0.15095,0.98729,-0.04963,0.09803,-0.1951,0.09218
-0.13341,0.99017,-0.04183,0.14066,-0.21757,0.11826
-0.1143,0.99294,-0.03145,0.13922,-0.20972,0.11505
-0.09652,0.99511,-0.02057,0.11351,-0.13921,0.12747
-0.08235,0.99655,-0.00889,0.04285,-0.12947,0.16703
-0.07405,0.99723,0.0058,0.04497,-0.07529,0.19154
-0.07143,0.99721,0.02147,-0.04196,-0.12985,0.24039
-0.07274,0.99664,0.0375,-0.0072,-0.07272,0.25009
-0.07556,0.99572,0.05312,0.00207,-0.01778,0.22227
-0.07752,0.99494,0.06372,0.1236,0.28824,-0.07501
-0.07935,0.99434,0.07048,-0.01742,0.67457,0.17795
-0.08528,0.99318,0.07943,-0.14654,0.66646,0.17696
-0.08729,0.99339,0.07443,0.00794,0.38697,-0.15034
-0.08463,0.99537,0.0454,0.07486,0.05195,-0.2822
-0.08559,0.9963,0.00711,0.19022,-0.13378,-0.26625
-0.08685,0.99602,-0.0198,0.23274,-0.14764,-0.12018
-0.09094,0.99537,-0.03095,0.21054,-0.11385,0.01299
-0.09748,0.99471,-0.03209,0.19392,-0.03259,0.02242
-0.10519,0.99402,-0.02915,0.20969,0.06641,0.00125
-0.11367,0.99315,-0.02678,0.19898,0.12955,-0.03555
-0.12239,0.99209,-0.02761,0.1517,0.20372,-0.05087
-0.13057,0.99097,-0.03039,0.05236,0.28678,0.00302
-0.13864,0.98982,-0.0319,-0.03054,0.23737,0.06299
-0.14686,0.9887,-0.02971,-0.0101,0.04091,0.08304
-0.15434,0.9877,-0.0248,0.09611,-0.1912,0.04168
-0.16086,0.98675,-0.02058,0.13182,-0.33623,-0.01255
-0.16813,0.98559,-0.01824,0.04104,-0.40528,-0.05195
-0.17615,0.98416,-0.01942,-0.06399,-0.45897,-0.06417
-0.18333,0.98276,-0.02357,-0.12346,-0.51087,-0.07468
-0.18986,0.98137,-0.02921,-0.12662,-0.48666,-0.08804
-0.19624,0.97986,-0.03668,-0.13375,-0.32572,-0.11661
-0.20307,0.97803,-0.04684,-0.11764,-0.06187,-0.11002
-0.20927,0.97615,-0.05769,-0.03669,0.0091,-0.02995
-0.21311,0.97487,-0.06476,0.0144,0.03238,0.0741
-0.21503,0.97442,-0.06527,0.02564,0.01751,0.11883
-0.21546,0.9747,-0.05937,0.02657,-0.04947,0.18048
-0.21584,0.97505,-0.05172,-0.04095,-0.18669,0.27331
-0.21625,0.97519,-0.04723,-0.07921,-0.22487,0.26996
-0.2163,0.97516,-0.04753,-0.06956,-0.19857,0.24905
-0.21559,0.97513,-0.05117,-0.06248,-0.13826,0.20411
-0.21493,0.97516,-0.05336,-0.05054,-0.08182,0.17153
-0.21501,0.97522,-0.05201,-0.01483,-0.0652,0.13875
-0.21447,0.97538,-0.05122,-0.01166,-0.0232,0.16576
-0.21238,0.9757,-0.05382,-0.04824,-0.02985,0.18748
-0.20952,0.97604,-0.05858,-0.07716,0.05874,0.20256
-0.20785,0.97603,-0.06442,-0.04296,0.1965,0.168
-0.20652,0.97591,-0.07024,0.02492,0.43078,0.31179
-0.20698,0.97549,-0.07464,0.02806,0.49993,0.29891
-0.20989,0.97433,-0.08133,0.04437,0.64721,0.13266
-0.2165,0.97215,-0.08969,0.06022,0.52675,-0.08294
-0.22207,0.97003,-0.09857,0.10546,0.45281,-0.2366
-0.22735,0.96755,-0.11023,0.29838,0.3188,-0.48773
-0.23484,0.96398,-0.12479,0.28132,0.16276,-0.47331
-0.24496,0.9596,-0.13834,0.30897,0.07784,-0.40304
-0.25687,0.95552,-0.14486,0.37302,-0.07572,-0.08326
-0.26864,0.95286,-0.14097,0.44277,-0.04278,0.12273
-0.27667,0.95226,-0.12902,0.49826,-0.00342,0.19572
-0.27879,0.95347,-0.11471,0.42123,-0.04428,0.13087
-0.27579,0.95568,-0.10294,0.24833,-0.14868,-0.01222
-0.26849,0.95863,-0.09449,0.0119,-0.17433,-0.08987
-0.26002,0.96157,-0.08811,-0.16348,-0.1146,-0.05519
-0.25239,0.964,-0.08362,-0.23378,-0.09922,-0.03381
-0.24522,0.96597,-0.08215,-0.21379,-0.09898,-0.03467
-0.2385,0.96779,-0.08057,-0.11893,-0.06554,0.02404
-0.23279,0.9698,-0.07274,-0.07524,-0.03605,0.15618
-0.22895,0.97165,-0.05888,-0.03938,-0.04704,0.30665
-0.22701,0.97279,-0.0462,-0.00811,-0.08766,0.35918
-0.22614,0.97326,-0.04004,-0.02732,-0.21508,0.31276
-0.22528,0.9734,-0.04167,-0.084,-0.27338,0.23981
-0.2251,0.97315,-0.04794,-0.15104,-0.28304,0.21321
-0.22678,0.97253,-0.05235,-0.18963,-0.29031,0.19531
-0.22967,0.97191,-0.05131,-0.1898,-0.28743,0.18591
-0.23258,0.9714,-0.04774,-0.11221,-0.24844,0.15675
-0.23763,0.97031,-0.04488,-0.00533,0.03517,0.13953
-0.24469,0.96863,-0.04312,0.00826,0.13158,0.15862
-0.25028,0.96726,-0.04196,0.09479,0.2669,0.17389
-0.25329,0.96649,-0.04154,0.1658,0.17264,0.14524
-0.25073,0.96725,-0.03932,0.16794,0.26209,0.41583
-0.24348,0.96936,-0.03241,0.25854,0.55744,0.33571
-0.23411,0.97184,-0.0267,0.33791,0.72964,0.20561
-0.22298,0.97457,-0.02195,0.37494,0.88709,0.00132
-0.21525,0.9764,-0.0175,0.36791,0.57025,-0.11121
-0.21294,0.97691,-0.01693,0.45854,0.3451,-0.29247
-0.21061,0.97743,-0.01617,0.41394,-0.0586,-0.3757
-0.20792,0.97812,-0.00631,0.28909,-0.15785,-0.22601
-0.20583,0.97853,0.0099,0.05769,-0.19745,-0.14668
-0.20813,0.9778,0.02388,-0.11171,-0.16379,-0.20732
-0.21315,0.97664,0.02711,-0.0775,-0.12559,-0.19439
-0.2175,0.97584,0.02038,0.00581,-0.08952,-0.13573
-0.22025,0.9754,0.00888,0.28158,0.08561,-0.03442
-0.2209,0.97529,-0.00314,0.39995,0.14935,-0.05138
-0.21792,0.97588,-0.01263,0.4772,0.08095,-0.04572
-0.21274,0.97694,-0.01794,0.43516,-0.04336,-0.03173
-0.21125,0.97722,-0.01987,0.28034,-0.14225,-0.03973
-0.21685,0.97605,-0.01726,0.1235,-0.17571,-0.08102
-0.22776,0.97363,-0.01224,0.02248,-0.13312,-0.14855
-0.23966,0.97078,-0.01157,-0.11539,-0.10107,-0.18083
-0.24925,0.9683,-0.01621,-0.10581,-0.09859,-0.17619
-0.25422,0.96693,-0.01989,-0.22078,-0.08864,0.03823
-0.25411,0.96701,-0.01758,-0.20427,-0.11896,0.19663
-0.25152,0.96776,-0.01272,-0.15675,-0.17273,0.26233
-0.24939,0.96831,-0.01302,-0.12536,-0.19202,0.23231
-0.24794,0.96851,-0.02255,-0.01111,-0.23366,0.10083
-0.24679,0.96835,-0.037,-0.04199,-0.2424,0.03613
-0.24571,0.96812,-0.04854,-0.07395,-0.20039,0.0555
-0.24366,0.96835,-0.05405,-0.08664,-0.01557,0.1817
-0.23948,0.96921,-0.05727,-0.04566,0.05467,0.30231
-0.23248,0.97064,-0.06157,-0.03055,0.05702,0.35579
-0.22304,0.97255,-0.06628,0.06151,0.11095,0.39005
-0.21174,0.97471,-0.07144,0.1403,0.34655,0.31267
-0.20052,0.97667,-0.07674,0.11126,0.45927,0.18143
-0.19422,0.97714,-0.08636,0.08972,0.56305,-0.16843
-0.1952,0.9758,-0.09847,0.08629,0.6147,-0.31988
-0.20445,0.97304,-0.10667,0.14451,0.39047,-0.52715
-0.21903,0.96905,-0.11383,0.3447,0.13958,-0.66024
-0.23578,0.96415,-0.12171,0.27654,0.10655,-0.55943
-0.25281,0.95904,-0.12775,0.20176,0.18963,-0.2526
-0.26571,0.95578,-0.12601,0.22061,0.22728,0.05727
-0.27088,0.95602,-0.11241,0.2545,0.18792,0.21872
-0.26867,0.95907,-0.08936,0.26291,0.1046,0.14249
-0.26153,0.96327,-0.06085,0.18797,-0.08435,-0.04532
-0.25411,0.96659,-0.03338,0.01346,-0.19566,-0.07679
-0.24968,0.96827,-0.01032,-0.21585,-0.1485,0.00148
-0.2489,0.9685,0.00674,-0.37331,-0.00552,-0.01858
-0.25249,0.96749,0.01445,-0.26293,0.14467,-0.16577
-0.25785,0.96595,0.0209,-0.24507,0.11562,-0.15888
-0.2603,0.96469,0.04005,-0.24545,-0.01371,0.10474
-0.25672,0.96419,0.06653,-0.00156,-0.19731,0.41738
-0.24632,0.96546,0.08481,0.09336,-0.22511,0.38226
-0.23008,0.96905,0.08938,0.25689,-0.30598,0.146
-0.21262,0.97359,0.08314,0.2278,-0.29071,0.09609
-0.19609,0.9779,0.07245,0.10886,-0.22723,0.07062
-0.18278,0.98101,0.0647,-0.07873,-0.17929,0.11939
-0.17351,0.98273,0.06421,-0.06479,-0.18483,0.1288
-0.16559,0.98351,0.07259,-0.02365,0.08048,0.13194
-0.15944,0.9834,0.08659,-0.01326,0.23293,0.24756
-0.15521,0.98303,0.09775,-0.02179,0.21598,0.29133
-0.15624,0.98298,0.09656,0.26182,-0.0126,-0.01659
-0.15244,0.98487,0.08232,0.47437,0.2504,-0.13752
-0.14304,0.98729,0.06915,0.29945,0.77698,0.10221
-0.13657,0.98869,0.0619,0.1769,0.7186,-0.03616
-0.13096,0.99022,0.04791,0.28861,0.12681,-0.34934
-0.12989,0.99106,0.03031,0.21423,-0.00453,-0.33216
-0.13342,0.99098,0.01193,0.1247,-0.18936,-0.26517
-0.13823,0.99038,-0.00517,0.10031,-0.23441,-0.16812
-0.14098,0.98984,-0.01843,0.09737,-0.14705,-0.14443
-0.13853,0.98987,-0.03086,0.0963,-0.07631,-0.11227
-0.13088,0.99046,-0.04299,0.12642,0.06453,0.0076
-0.12126,0.99112,-0.05439,0.20878,0.06552,0.04844
-0.11351,0.99149,-0.06368,0.23041,0.05595,0.05848
-0.11014,0.99149,-0.0693,0.31537,0.06469,0.04638
-0.11279,0.99104,-0.0715,0.30294,0.05289,0.05322
-0.12114,0.99007,-0.07127,0.12175,-0.10927,0.02212
-0.13188,0.98849,-0.07411,-0.00647,-0.22303,-0.05585
-0.14294,0.98625,-0.08281,-0.17052,-0.37909,-0.12519
-0.15395,0.98354,-0.09457,-0.18395,-0.39493,-0.12198
-0.16495,0.98064,-0.10546,-0.17493,-0.3994,-0.17002
-0.17506,0.97788,-0.1144,-0.13041,-0.31234,-0.13427
-0.18317,0.97529,-0.12345,-0.13482,-0.2483,-0.03649
-0.19104,0.97268,-0.13185,-0.1823,-0.05979,0.12564
-0.20173,0.96942,-0.13973,-0.21079,0.09871,0.23798
-0.21634,0.96504,-0.14796,-0.25338,0.20403,0.247
-0.23373,0.95963,-0.1564,-0.22685,0.2045,0.17743
-0.24945,0.95427,-0.16471,-0.25098,0.42724,0.09664
-0.26461,0.94867,-0.1732,-0.20265,0.32681,0.05918
-0.26818,0.94615,-0.18128,-0.06039,0.66429,-0.20839
-0.26637,0.94502,-0.18965,0.14476,0.46648,-0.15512
-0.25517,0.94676,-0.19628,0.12794,0.37033,0.00237
-0.23895,0.95105,-0.19595,0.1775,0.44954,0.03965
-0.22718,0.95473,-0.19202,0.29339,0.16128,-0.09407
-0.21544,0.95812,-0.18862,0.33697,0.0087,-0.2312
-0.206,0.9606,-0.18655,0.19001,-0.07109,-0.29757
-0.20207,0.96233,-0.18189,-0.05518,-0.15117,-0.24138
-0.20618,0.9639,-0.16846,-0.2243,-0.17963,-0.17079
-0.21743,0.96494,-0.14697,-0.26868,-0.13042,-0.02963
-0.22996,0.96527,-0.12393,-0.25022,-0.05147,0.11432
-0.23468,0.96609,-0.10764,-0.12784,0.03219,0.09967
-0.22624,0.96911,-0.09814,0.02155,0.09183,-0.02963
-0.20894,0.97394,-0.08814,0.00425,0.087,-0.03962
-0.1901,0.97851,-0.07973,0.15188,-0.03302,-0.02446
-0.17241,0.98201,-0.0769,0.2038,-0.07175,0.12037
-0.15852,0.98434,-0.077,0.17385,-0.07919,0.13546
-0.14717,0.98615,-0.07645,0.16222,-0.13596,0.15273
-0.13572,0.98812,-0.07207,0.12734,-0.23184,0.12672
-0.12271,0.99044,-0.06299,0.19233,-0.13369,0.12308
-0.10853,0.9927,-0.05241,0.08984,-0.30957,0.09384
-0.09305,0.99479,-0.04154,0.02016,-0.20045,0.17106
-0.07837,0.99642,-0.03141,-0.08716,-0.14272,0.21716
-0.06527,0.99764,-0.02107,-0.14846,-0.045,0.1916
-0.05839,0.99825,-0.00815,-0.09554,0.01272,0.1942
-0.05576,0.9984,0.009,-0.08459,0.19789,0.21355
-0.06061,0.9977,0.03011,0.05453,0.15418,-0.04799
-0.07147,0.99603,0.05288,0.20799,0.43552,-0.21749
-0.08596,0.99297,0.08123,-0.11538,0.65827,0.28567
-0.0957,0.98964,0.10692,-0.19147,0.46401,0.18043
-0.08822,0.99056,0.10483,-0.02791,0.14037,-0.16943
-0.07949,0.9938,0.07765,-0.00938,-0.21745,-0.39999
-0.07923,0.9957,0.04775,0.0196,-0.26447,-0.34229
-0.08456,0.99584,0.03372,0.04614,-0.22796,-0.15494
-0.09199,0.99518,0.03383,0.08865,-0.05328,-0.04738
-0.09746,0.99454,0.03718,0.08518,0.02475,-0.03692
-0.09956,0.9943,0.03792,0.06024,0.17336,-0.00561
-0.10168,0.99425,0.03326,0.06392,0.14633,-0.0397
-0.10572,0.99409,0.02433,0.0642,0.16109,-0.01385
-0.11208,0.99359,0.01457,0.03582,0.13007,0.04414
-0.12111,0.99262,0.00572,0.05515,-0.05586,0.05362
-0.13232,0.99119,-0.00375,0.0892,-0.12593,0.04897
-0.1446,0.98934,-0.01678,0.10615,-0.19346,0.05903
-0.15702,0.98709,-0.03143,0.05436,-0.3725,0.05678
-0.16919,0.9846,-0.04396,0.01787,-0.45922,0.02421
-0.18041,0.98208,-0.05434,2e-05,-0.4833,-0.01635
-0.18951,0.97978,-0.06403,-0.04221,-0.38626,0.00096
-0.19488,0.97814,-0.07255,-0.04815,-0.31728,-0.00564
-0.1965,0.9772,-0.08035,-0.07367,-0.18555,-0.00934
-0.1956,0.97662,-0.0891,-0.11592,-0.08046,0.01439
-0.19597,0.97574,-0.09759,-0.14366,-0.04818,0.03396
-0.19898,0.97422,-0.10625,-0.19272,-0.03773,0.08445
-0.20521,0.97189,-0.11533,-0.24338,0.0186,0.11533
-0.21404,0.96884,-0.1246,-0.28209,0.09479,0.11259
-0.22397,0.96534,-0.13396,-0.28128,0.15412,0.17113
-0.23411,0.96169,-0.14263,-0.24788,0.17493,0.18449
-0.24106,0.95857,-0.15175,-0.17929,0.25162,0.13611
-0.24279,0.9561,-0.16407,-0.0175,0.56148,-0.16309
-0.24077,0.95408,-0.17821,0.0124,0.48387,-0.18464
-0.23517,0.95293,-0.19136,-0.0759,0.58185,-0.03415
-0.22578,0.95318,-0.20116,0.20283,0.60473,-0.09407
-0.2136,0.95426,-0.20919,0.2439,0.4517,-0.14978
-0.20097,0.95506,-0.21788,0.28881,0.32944,-0.21658
-0.18499,0.95646,-0.22575,0.28432,-0.0559,-0.2885
-0.17038,0.95838,-0.22906,0.14069,-0.18084,-0.20207
-0.16289,0.96132,-0.22209,-0.01393,-0.20387,-0.08778
-0.16465,0.96494,-0.20437,-0.12361,-0.19808,-0.01296
-0.17342,0.96795,-0.18165,-0.18934,-0.18308,0.04287
-0.18479,0.96977,-0.15936,-0.20038,-0.07406,0.08614
-0.19241,0.97127,-0.14004,-0.1142,0.06871,-0.00268
-0.18831,0.97383,-0.12726,-0.06039,0.09066,-0.04236
-0.17511,0.97752,-0.11743,-0.00525,0.00845,0.00585
-0.16035,0.98114,-0.10789,0.09838,-0.07451,0.06699
-0.14635,0.98404,-0.10119,0.12849,-0.06085,0.12321
-0.13426,0.98604,-0.09839,0.09581,-0.11647,0.10059
-0.12381,0.98757,-0.09681,0.0327,-0.21948,0.07618
-0.11188,0.98944,-0.09211,0.0266,-0.16345,0.10298
-0.0988,0.99169,-0.0823,0.01894,-0.26321,0.10665
-0.08274,0.99412,-0.06975,0.04292,-0.23085,0.10265
-0.06654,0.99607,-0.05837,-0.00234,-0.17562,0.13729
-0.05318,0.99736,-0.04931,0.02515,0.10733,0.24432
-0.04615,0.99807,-0.04142,-0.12131,-0.20506,0.26304
-0.03959,0.99872,-0.03132,-0.16198,0.07123,0.31111
-0.03896,0.99911,-0.01549,-0.1522,0.08949,0.28464
-0.0461,0.99892,0.00488,0.17537,0.10862,-0.15238
-0.06034,0.99778,0.02806,0.0496,0.57833,0.09438
-0.07892,0.99547,0.05287,-0.20913,0.57251,0.28285
-0.08654,0.9944,0.06061,-0.19862,0.40366,0.07972
-0.07874,0.99632,0.03376,0.07222,-0.12713,-0.30581
-0.07406,0.99724,-0.00302,0.02916,-0.19153,-0.46409
-0.07837,0.99663,-0.02413,0.04961,-0.14259,-0.28155
-0.08596,0.99598,-0.0249,0.08949,-0.09703,-0.06466
-0.09415,0.99534,-0.02051,0.11119,-0.03393,-0.03401
-0.09932,0.99485,-0.01967,0.08734,0.16736,-0.00763
-0.10227,0.99448,-0.02333,0.02535,0.15288,-0.03289
-0.1044,0.99408,-0.02971,0.04722,0.12649,-0.03547
-0.10622,0.99372,-0.03489,0.06803,0.16779,0.01777
-0.11026,0.99319,-0.03741,0.18068,0.08162,0.08071
-0.11695,0.99228,-0.04114,0.21485,-0.01027,0.08141
-0.12616,0.99079,-0.04907,0.15994,-0.23022,0.04542
-0.13732,0.98871,-0.05988,0.03904,-0.34236,0.01097
-0.15076,0.98603,-0.07076,-0.0047,-0.39571,-0.01439
-0.16538,0.98285,-0.0815,-0.07842,-0.48073,-0.07426
-0.17917,0.9795,-0.09202,-0.08348,-0.46148,-0.06881
-0.19025,0.9765,-0.10122,-0.09154,-0.36517,-0.07729
-0.19654,0.97435,-0.10954,-0.09891,-0.20958,-0.05656
-0.19846,0.9729,-0.11861,-0.11842,-0.1494,0.02142
-0.19839,0.97176,-0.12769,-0.14919,-0.08723,0.06642
-0.19947,0.97025,-0.13718,-0.17265,-0.04203,0.09248
-0.20319,0.96776,-0.14881,-0.18287,0.04636,0.12089
-0.20991,0.96436,-0.16102,-0.18236,0.09493,0.14633
-0.21815,0.96081,-0.17101,-0.20857,0.2409,0.21738
-0.22685,0.9575,-0.17813,-0.18851,0.25578,0.21863
-0.23183,0.95515,-0.1842,-0.15773,0.41393,0.16441
-0.23389,0.9533,-0.19106,-0.08505,0.57383,-0.18144
-0.23467,0.95164,-0.19823,-0.07639,0.47063,-0.18041
-0.23247,0.95073,-0.20506,-0.14842,0.44024,-0.02808
-0.23015,0.95,-0.21102,-0.0379,0.23523,-0.0285
-0.22692,0.94944,-0.21694,0.17501,0.33047,-0.0808
-0.21739,0.94989,-0.22457,0.29265,0.34271,-0.17626
-0.20813,0.95031,-0.23147,0.32793,-0.0967,-0.2277
-0.19789,0.95197,-0.23363,0.2883,-0.14429,-0.20021
-0.19087,0.95485,-0.22762,0.07678,-0.19787,-0.0876
-0.19081,0.95819,-0.21318,-0.04082,-0.19112,-0.02406
-0.19569,0.9613,-0.1939,-0.11795,-0.1304,0.01887
-0.20185,0.96376,-0.17442,-0.20843,0.00101,0.0511
-0.20694,0.96589,-0.15564,-0.24656,0.18507,0.00453
-0.20427,0.96879,-0.14042,-0.1785,0.25594,-0.11321
-0.19231,0.97293,-0.12811,-0.08937,0.16382,-0.0967
-0.17912,0.97705,-0.11525,0.00541,0.0148,0.00869
-0.16611,0.98054,-0.1046,0.08954,-0.0494,0.08839
-0.15376,0.98326,-0.09774,0.13101,-0.09835,0.10542
-0.14241,0.98538,-0.09347,0.12386,-0.20178,0.09683
-0.13084,0.98745,-0.08844,0.09937,-0.28145,0.11267
-0.11705,0.98987,-0.08025,0.10753,-0.29041,0.10173
-0.10242,0.99214,-0.07177,0.09001,-0.43956,0.05899
-0.08577,0.99407,-0.0668,0.09244,-0.38068,0.07136
-0.06947,0.99548,-0.06473,0.02297,-0.29086,0.12687
-0.05522,0.9966,-0.06097,-0.04293,-0.01148,0.20337
-0.04516,0.99758,-0.05281,-0.09794,-0.07599,0.25522
-0.03742,0.9985,-0.03975,-0.07833,-0.05795,0.25213
-0.03453,0.99909,-0.02475,-0.0535,0.05995,0.24551
-0.03596,0.99931,-0.00878,-0.03574,0.15203,0.20253
-0.04205,0.99909,0.00628,0.03342,0.15313,0.02799
-0.05337,0.99835,0.021,0.14222,0.61524,-0.15637
-0.07098,0.99683,0.0357,-0.21738,0.95956,0.35506
-0.078,0.99638,0.03354,-0.13131,0.46428,0.19177
-0.06934,0.99757,0.00633,-0.02287,0.28132,-0.00444
-0.06554,0.99751,-0.0258,0.02698,-0.21023,-0.41762
-0.06939,0.99649,-0.04665,0.04145,-0.27031,-0.27278
-0.07798,0.99542,-0.05525,0.03477,-0.26751,-0.1174
-0.08729,0.99448,-0.05808,0.10584,-0.0927,-0.14431
-0.09229,0.99399,-0.05885,0.1435,0.00158,-0.16809
-0.09261,0.99387,-0.06032,0.1433,0.13322,-0.1383
-0.0915,0.99375,-0.06389,0.16403,0.12437,-0.12749
-0.09121,0.9936,-0.0665,0.14726,0.15479,-0.05233
-0.09473,0.99331,-0.06597,0.07193,0.14848,0.0382
-0.10286,0.99253,-0.06546,0.06305,0.03257,0.0639
-0.11554,0.99091,-0.06875,0.09138,-0.12029,0.04061
-0.1309,0.98842,-0.07669,0.09535,-0.29675,-0.01245
-0.14736,0.98531,-0.08627,0.08682,-0.33769,-0.01701
-0.16145,0.9823,-0.09493,0.00046,-0.42753,-0.02088
-0.17127,0.97991,-0.10214,-0.02867,-0.42461,-0.04325
-0.17673,0.97846,-0.10664,-0.0325,-0.40329,-0.0483
-0.17839,0.97803,-0.10778,-0.06475,-0.24007,-0.03825
-0.17616,0.97844,-0.10775,-0.09875,-0.07666,-0.01013
-0.17286,0.97887,-0.1092,-0.13069,-0.04441,0.01663
-0.1708,0.97886,-0.11242,-0.1825,0.01139,0.0901
-0.17095,0.97841,-0.11607,-0.21009,-0.02038,0.13445
-0.17233,0.97773,-0.11977,-0.24041,-0.04119,0.13765
-0.1749,0.97672,-0.12418,-0.25508,-0.03109,0.11638
-0.17988,0.97509,-0.12974,-0.22147,-0.02682,0.1302
-0.18817,0.97287,-0.13456,-0.17412,0.01689,0.18828
-0.19742,0.97045,-0.13869,-0.14711,0.07734,0.22804
-0.20579,0.96829,-0.1416,-0.11658,0.18915,0.22183
-0.21276,0.96625,-0.1452,-0.04912,0.25996,0.02761
-0.21595,0.96485,-0.14973,-0.12912,0.42063,0.02163
-0.2197,0.96336,-0.1538,-0.24057,0.58566,0.0793
-0.22452,0.96161,-0.15774,-0.13551,0.666,-0.10213
-0.22151,0.96085,-0.16642,-0.05865,0.71124,-0.15328
-0.22144,0.95796,-0.18241,-0.02163,0.36029,-0.17636
-0.21685,0.95564,-0.1993,0.03776,0.08576,-0.1585
-0.21001,0.95489,-0.20994,0.05211,-0.02109,-0.15349
-0.20282,0.95617,-0.21114,0.12348,-0.21069,-0.16622
-0.19773,0.95845,-0.2056,0.09533,-0.17347,-0.166
-0.19529,0.96046,-0.19842,0.03266,-0.11239,-0.13442
-0.19677,0.96176,-0.1905,-0.01362,-0.07684,-0.11219
-0.20203,0.96264,-0.18026,-0.03205,0.00558,-0.10778
-0.20882,0.96345,-0.16779,-0.05541,0.09321,-0.06536
-0.21347,0.96488,-0.15303,-0.07113,0.18142,0.01147
-0.21229,0.96757,-0.13686,0.00155,0.14728,0.01315
-0.20433,0.9712,-0.12253,0.03432,0.07589,-0.0032
-0.19294,0.97506,-0.10958,0.08629,-0.07275,-0.02088
-0.18157,0.97854,-0.0973,0.10928,-0.16246,-0.02521
-0.17185,0.98132,-0.08644,0.10535,-0.17217,-0.02508
-0.16339,0.98345,-0.07825,0.09556,-0.12485,-0.00178
-0.15507,0.98541,-0.06999,0.07804,-0.0927,0.02671
-0.14542,0.98755,-0.05991,0.08226,-0.13223,0.05055
-0.13395,0.98978,-0.04871,0.08956,-0.23394,0.05215
-0.12121,0.99184,-0.03931,0.089,-0.3057,0.06497
-0.10896,0.99342,-0.03499,0.06546,-0.41443,0.08378
-0.09629,0.99469,-0.03605,0.04531,-0.39391,0.12398
-0.08405,0.99568,-0.03935,0.01422,-0.31326,0.15143
-0.07294,0.99651,-0.04045,-0.01329,-0.18221,0.19597
-0.06494,0.99715,-0.0381,0.00472,-0.16892,0.22105
-0.05788,0.99776,-0.03345,0.00485,-0.02745,0.20447
-0.05465,0.99814,-0.02663,-0.07314,0.13693,0.21678
-0.05665,0.99825,-0.0167,-0.10134,0.19375,0.19133
-0.0664,0.99777,-0.00527,-0.10466,0.07303,0.0004
-0.07621,0.99705,0.00865,-0.06295,0.50849,-0.11154
-0.09152,0.99543,0.02686,-0.31391,0.70284,0.17815
-0.10102,0.9942,0.03682,-0.1418,0.28635,0.099
-0.0882,0.99586,0.02184,-0.04396,0.28755,-0.09919
-0.07438,0.99718,-0.00969,-0.00809,0.05226,-0.1956
-0.06636,0.99706,-0.03809,-0.01612,0.05238,-0.1672
-0.06183,0.99664,-0.05366,-0.05527,-0.12206,-0.08653
-0.06115,0.99627,-0.06078,0.03236,-0.15792,-0.12644
-0.06347,0.99615,-0.06042,0.11152,-0.01076,-0.1726
-0.06678,0.99638,-0.05246,0.10613,0.05414,-0.17746
-0.07063,0.99661,-0.04191,0.05939,0.10475,-0.09864
-0.07469,0.9966,-0.03453,0.03372,0.1187,-0.061
-0.07956,0.99634,-0.03109,-0.0032,0.14073,-0.03345
-0.08673,0.99574,-0.03105,-0.12256,0.0995,0.04
-0.09733,0.99464,-0.03476,-0.0957,-0.00639,0.02922
-0.11028,0.99305,-0.04082,-0.05196,-0.07891,0.03029
-0.12476,0.99092,-0.04998,0.07155,-0.16665,0.00645
-0.13971,0.98818,-0.06294,0.10376,-0.21194,-0.00589
-0.15293,0.98516,-0.07781,0.12697,-0.32943,-0.02991
-0.1637,0.98226,-0.09137,0.13088,-0.34856,-0.00528
-0.17465,0.97934,-0.1019,0.12309,-0.38087,0.01566
-0.18605,0.97655,-0.10824,0.08595,-0.28817,0.01052
-0.1992,0.97355,-0.11183,0.02536,-0.21368,0.00318
-0.21064,0.97075,-0.11512,-0.00425,-0.14557,-0.01915
-0.21891,0.96848,-0.11878,-0.02877,-0.10938,-0.01222
-0.22452,0.96716,-0.11903,-0.10637,-0.10828,0.03174
-0.2282,0.96677,-0.11513,-0.19588,-0.14849,0.06317
-0.23039,0.96681,-0.11041,-0.28176,-0.19043,0.04981
-0.23261,0.96644,-0.10894,-0.31198,-0.16099,0.03643
-0.23523,0.96552,-0.11142,-0.28404,-0.09853,0.02567
-0.23755,0.96433,-0.11668,-0.22793,-0.01821,0.09933
-0.23883,0.96324,-0.12297,-0.14657,0.0593,0.16223
-0.23947,0.96212,-0.13028,-0.09551,0.16697,0.20871
-0.23808,0.96105,-0.14034,-0.01212,0.25731,0.21585
-0.23322,0.9602,-0.15363,0.02005,0.46368,0.02187
-0.22793,0.9589,-0.16892,-0.004,0.502,-0.07512
-0.22111,0.9582,-0.18152,-0.09316,0.53547,-0.01884
-0.21727,0.95748,-0.18976,-0.19914,0.59388,-0.03937
-0.21121,0.95722,-0.19776,-0.1209,0.33686,-0.08618
-0.2036,0.95648,-0.20899,-0.01033,0.53935,-0.14807
-0.19914,0.95449,-0.22198,0.04248,0.00138,-0.09862
-0.1945,0.95316,-0.23161,0.06602,-0.11029,-0.07272
-0.19182,0.95328,-0.23336,0.06692,-0.25703,0.01111
-0.19073,0.95484,-0.2278,0.05576,-0.19774,0.02775
-0.18791,0.95683,-0.2217,0.05157,-0.17154,0.01544
-0.18462,0.95809,-0.21901,0.03215,-0.13241,-0.01688
-0.18327,0.95912,-0.21562,0.00245,-0.05584,0.0012
-0.18504,0.96075,-0.20664,0.00705,-0.01047,0.01683
-0.18904,0.96296,-0.19223,-0.00415,0.14402,0.12585
-0.19473,0.96512,-0.17496,0.0011,0.1666,0.17719
-0.19963,0.96667,-0.16022,0.0396,0.04523,0.16772
-0.20132,0.96774,-0.15142,0.07165,-0.12234,0.1091
-0.20107,0.96842,-0.14737,0.07041,-0.26829,0.06017
-0.19968,0.96879,-0.14682,0.06241,-0.34675,0.03807
-0.19587,0.96915,-0.14955,0.0666,-0.33348,0.04156
-0.18934,0.96997,-0.1526,0.10121,-0.22656,0.06723
-0.18089,0.97166,-0.1521,0.11498,-0.19668,0.08232
-0.17104,0.97446,-0.14545,0.12904,-0.17488,0.09665
-0.16174,0.97786,-0.13272,0.16784,-0.16086,0.16263
-0.15548,0.98071,-0.11838,0.10764,-0.17027,0.20597
-0.15337,0.9822,-0.10837,0.07524,-0.19237,0.20969
-0.15434,0.98243,-0.10485,0.02844,-0.2494,0.21446
-0.15687,0.98188,-0.10623,-0.01624,-0.25187,0.2238
-0.16021,0.9811,-0.1084,-0.04832,-0.24153,0.24263
-0.16358,0.98055,-0.10834,-0.06324,-0.2348,0.26784
-0.16697,0.98024,-0.10601,-0.07493,-0.18149,0.31264
-0.17052,0.97981,-0.10428,-0.07823,-0.09183,0.29868
-0.17447,0.97903,-0.1051,-0.10413,0.03509,0.25643
-0.18001,0.97789,-0.10636,-0.12326,0.16649,0.20316
-0.18695,0.97679,-0.10451,-0.17905,0.26565,0.19023
-0.19422,0.97595,-0.09894,-0.21656,0.28341,0.19368
-0.20019,0.97525,-0.09379,-0.30146,0.12546,0.16706
-0.20169,0.97479,-0.09537,-0.18161,-0.05357,0.03693
-0.19688,0.97527,-0.10031,-0.13969,-0.18067,0.15625
-0.18787,0.97656,-0.10494,-0.01344,0.20719,0.16291
-0.17842,0.97793,-0.10864,0.1183,0.74073,0.16061
-0.16717,0.97974,-0.11023,0.18963,0.99922,0.13739
-0.15519,0.98075,-0.11843,0.33549,0.70941,-0.00799
-0.14403,0.97983,-0.13847,0.61099,0.24222,-0.25766
-0.13875,0.97926,-0.14758,0.64221,0.07441,-0.26527
-0.14363,0.98066,-0.1329,0.51858,-0.02312,-0.07708
-0.15677,0.98245,-0.101,0.31447,-0.19723,0.06643
-0.17749,0.98191,-0.06575,0.07839,-0.27261,-0.01446
-0.19834,0.97931,-0.03999,-0.13213,-0.21409,-0.16359
-0.21404,0.97628,-0.03234,-0.19336,-0.16532,-0.18945
-0.22245,0.97417,-0.03863,-0.01444,-0.01912,-0.12363
-0.22299,0.97372,-0.04606,0.08672,0.05777,-0.11212
-0.21871,0.97461,-0.04782,0.27462,0.16213,-0.115
-0.21267,0.97605,-0.0457,0.47255,0.12543,-0.05696
-0.20987,0.97671,-0.04439,0.45862,0.07126,-0.03708
-0.21382,0.97584,-0.04466,0.21547,-0.11054,-0.08919
-0.2241,0.97352,-0.04492,0.09212,-0.16316,-0.17108
-0.23827,0.97013,-0.04534,0.05444,-0.16387,-0.19918
-0.25306,0.96634,-0.0462,-0.07214,-0.11747,-0.20957
-0.26528,0.96307,-0.04594,-0.11466,-0.06693,-0.16945
-0.27242,0.9612,-0.0431,-0.10518,-0.0662,-0.05966
-0.27389,0.961,-0.03787,-0.05258,-0.10558,0.08629
-0.27138,0.96192,-0.03221,0.00998,-0.16406,0.17439
-0.26798,0.96301,-0.02794,0.02704,-0.17837,0.182
-0.26598,0.96364,-0.02502,-0.00505,-0.15296,0.13941
-0.26644,0.96359,-0.02222,-0.06626,-0.10561,0.08795
-0.26964,0.96279,-0.0178,-0.09087,-0.0707,0.0647
-0.27444,0.96152,-0.01208,-0.12112,0.02194,0.06022
-0.27874,0.96034,-0.00528,-0.14779,0.00574,0.10745
-0.28013,0.95995,0.00129,-0.14594,-0.00876,0.14537
-0.27792,0.96058,0.00495,-0.14485,-0.06411,0.32641
-0.27336,0.96189,0.00456,-0.12494,-0.13845,0.40996
-0.26778,0.96347,-0.0002,-0.06579,-0.21544,0.41283
-0.26224,0.96493,-0.01057,-0.06349,-0.17175,0.34292
-0.25709,0.96605,-0.02499,-0.10192,-0.01647,0.30799
-0.25306,0.96655,-0.0414,-0.10254,0.15709,0.07124
-0.25086,0.966,-0.06235,-0.07381,0.22154,0.00551
-0.25215,0.96387,-0.08581,0.00328,0.58725,-0.15423
-0.2584,0.96003,-0.10752,0.15827,0.53564,-0.28843
-0.26425,0.95615,-0.12625,0.31886,0.32543,-0.49785
-0.27067,0.95209,-0.14227,0.35116,0.28056,-0.54895
-0.28032,0.9474,-0.1544,0.36624,0.32125,-0.40443
-0.29733,0.94176,-0.15706,0.4391,0.21008,-0.16995
-0.31435,0.93832,-0.14397,0.50432,0.18017,0.13523
-0.3215,0.93915,-0.12085,0.59888,0.0911,0.24099
-0.31755,0.94295,-0.09998,0.49929,0.0179,0.13971
-0.30598,0.94815,-0.08586,0.26578,-0.18299,-0.09034
-0.29136,0.95347,-0.07737,-0.0708,-0.21938,-0.171
-0.27715,0.95784,-0.07555,-0.25525,-0.09458,-0.13936
-0.26439,0.96085,-0.08278,-0.33116,-0.03404,-0.16963
-0.25318,0.96299,-0.09232,-0.26955,-0.06562,-0.17704
-0.24348,0.96565,-0.09063,-0.16267,-0.02402,-0.06025
-0.23685,0.96868,-0.07448,-0.08105,-0.02576,0.15096
-0.23304,0.97088,-0.05536,-0.02434,-0.08597,0.323
-0.23006,0.97224,-0.04244,0.02467,-0.13259,0.3684
-0.22581,0.97341,-0.03829,-0.02514,-0.29485,0.26508
-0.22018,0.97459,-0.04105,-0.08524,-0.32569,0.22911
-0.21404,0.97572,-0.0463,-0.19193,-0.30366,0.17955
-0.20746,0.97695,-0.05008,-0.19657,-0.19948,0.19375
-0.20148,0.97808,-0.05234,-0.17163,-0.17059,0.20047
-0.19763,0.97876,-0.05434,-0.1115,-0.11671,0.19458
-0.19745,0.97869,-0.05622,-0.05383,-0.04075,0.17067
-0.20077,0.97798,-0.05682,0.01701,0.05893,0.14339
-0.20446,0.97745,-0.05269,0.1541,0.11655,0.20392
-0.20468,0.97783,-0.04406,0.2321,0.13776,0.3324
-0.20107,0.97895,-0.03475,0.26112,0.14303,0.35686
-0.19258,0.98076,-0.03148,0.45856,0.19674,0.32501
-0.17894,0.98329,-0.03322,0.35009,0.43804,0.24288
-0.1636,0.98597,-0.03288,0.34515,0.87768,0.08407
-0.14998,0.98831,-0.02687,0.21787,0.89334,-0.00018
-0.1393,0.99004,-0.01969,0.26314,0.56173,-0.16041
-0.13067,0.99119,-0.02092,0.33173,0.18063,-0.43221
-0.12405,0.99194,-0.02535,0.31534,0.05129,-0.55548
-0.1219,0.99242,-0.01494,0.16971,-0.03783,-0.36436
-0.12322,0.99234,0.00779,-0.01834,-0.1129,-0.28641
-0.13068,0.99107,0.02617,-0.17998,-0.14005,-0.26682
-0.14348,0.98899,0.03583,-0.23439,-0.14285,-0.29669
-0.15618,0.98699,0.03786,-0.06552,-0.13448,-0.26268
-0.16454,0.98591,0.02974,0.17416,-0.0304,-0.16617
-0.16735,0.98579,0.01366,0.38482,0.09594,-0.13525
-0.1631,0.9866,-0.00216,0.43717,0.08983,-0.11415
-0.1521,0.98828,-0.01175,0.42242,-0.02519,-0.11565
-0.14114,0.98986,-0.01499,0.33714,-0.07751,-0.16481
-0.13895,0.99023,-0.01063,0.12345,-0.10638,-0.19743
-0.14691,0.98914,0.00102,-0.1136,-0.06522,-0.24671
-0.16197,0.98671,0.01168,-0.24831,0.00048,-0.27793
-0.17925,0.98369,0.01435,-0.30788,0.01404,-0.18354
-0.19562,0.98059,0.01254,-0.28221,-0.04597,-0.13432
-0.21064,0.97752,0.00777,-0.16891,-0.19281,-0.03392
-0.22611,0.97409,-0.00097,-0.04034,-0.28828,0.03044
-0.2442,0.96967,-0.00928,-0.03164,-0.29524,0.07909
-0.26488,0.96414,-0.01544,-0.08647,-0.29019,0.10904
-0.28573,0.95807,-0.02093,-0.12006,-0.19427,0.13238
-0.30543,0.95184,-0.0262,-0.12186,-0.13304,0.1339
-0.32096,0.94659,-0.03045,-0.11797,-0.09368,0.13908
-0.32918,0.94362,-0.03458,-0.14155,0.0628,0.22148
-0.3297,0.94316,-0.04155,-0.10638,0.32564,0.29579
-0.32532,0.94408,-0.05341,-0.00403,0.45011,0.37175
-0.31847,0.94555,-0.06698,0.00712,0.43807,0.31674
-0.31445,0.94582,-0.08074,-0.02889,0.43197,0.06527
-0.31161,0.94534,-0.09597,-0.22112,0.33254,-0.10117
-0.30906,0.94407,-0.11486,-0.19762,0.33985,-0.1134
-0.30261,0.94405,-0.13102,-0.0689,0.36547,-0.22883
-0.28632,0.94704,-0.14529,0.20409,0.41097,-0.41764
-0.27003,0.94949,-0.15981,0.19032,0.22366,-0.36969
-0.25553,0.95209,-0.16796,0.23693,0.03081,-0.31121
-0.2465,0.95465,-0.16693,0.19334,-0.03393,-0.20462
-0.24442,0.95621,-0.16093,0.11878,0.00459,-0.11515
-0.24553,0.95723,-0.15296,0.06907,-0.00305,-0.12808
-0.24826,0.9578,-0.14479,0.05279,-0.03306,-0.20124
-0.25124,0.95788,-0.13898,0.05929,0.01459,-0.18161
-0.25193,0.9584,-0.13411,0.04128,0.0445,-0.13982
-0.24775,0.96024,-0.12862,-0.02021,0.0929,-0.02144
-0.23938,0.96358,-0.11912,-0.00983,0.06433,-0.02483
-0.2279,0.96792,-0.10567,0.05066,0.01221,-0.03119
-0.21696,0.9721,-0.08902,0.12855,0.03359,-0.0099
-0.20877,0.97547,-0.0696,0.09355,0.0335,0.04578
-0.20206,0.97792,-0.05314,0.08129,-0.02119,0.08203
-0.1943,0.97992,-0.04453,0.10455,-0.14192,0.10227
-0.18298,0.98209,-0.04474,0.12297,-0.22354,0.11813
-0.16914,0.98425,-0.05127,0.09735,-0.22417,0.12346
-0.15114,0.98674,-0.05891,0.12322,-0.25939,0.12861
-0.13262,0.98918,-0.06256,0.0606,-0.3867,0.09152
-0.11297,0.99181,-0.05931,0.01564,-0.26495,0.09557
-0.0957,0.99425,-0.04783,0.00675,-0.20058,0.11886
-0.08233,0.99619,-0.02819,0.01936,-0.08765,0.15082
-0.07451,0.9972,-0.00421,0.05933,0.03312,0.18591
-0.07353,0.99707,0.02046,0.02675,0.13474,0.21001
-0.08028,0.99585,0.04264,0.15923,0.34716,-0.04456
-0.09512,0.99359,0.06086,0.17233,0.23554,-0.21206
-0.11337,0.99045,0.07835,-0.18717,0.79602,0.13162
-0.1292,0.98794,0.08519,-0.13211,0.6679,0.09192
-0.12452,0.99005,0.06527,0.06559,0.0742,-0.27719
-0.11443,0.99291,0.03185,0.07279,-0.05815,-0.45934
-0.11292,0.99356,0.00796,0.06684,-0.2303,-0.20806
-0.11823,0.99297,0.00121,0.09841,-0.27279,-0.15038
-0.1262,0.99198,0.00372,0.13754,-0.26429,-0.13942
-0.13181,0.99123,0.00843,0.14937,-0.04141,-0.14347
-0.13268,0.99109,0.01082,0.10271,0.13341,-0.0934
-0.13131,0.99128,0.00963,0.0653,0.14796,-0.06005
-0.13028,0.99145,0.00568,0.06214,0.14367,-0.05271
-0.13347,0.99104,0.00079,0.05733,0.12487,-0.00595
-0.14289,0.9897,-0.00665,0.07555,0.11093,0.0317
-0.15654,0.98749,-0.01847,0.15416,-0.11364,0.03175
-0.17218,0.98448,-0.03349,0.10817,-0.40509,-0.01897
-0.19015,0.98053,-0.04872,0.0367,-0.53453,-0.08611
-0.21034,0.97567,-0.06167,0.03453,-0.56096,-0.10969
-0.23022,0.97043,-0.07235,-0.02611,-0.46477,-0.1323
-0.24691,0.96551,-0.08248,-0.04423,-0.32726,-0.12945
-0.25802,0.96167,-0.09267,-0.04982,-0.24826,-0.12731
-0.26344,0.95917,-0.10277,-0.07255,-0.09723,-0.09636
-0.26758,0.95708,-0.11128,-0.14224,0.10005,0.05256
-0.27466,0.95419,-0.1186,-0.1272,0.08909,0.14178
-0.28404,0.95038,-0.12678,-0.1205,0.12054,0.18882
-0.29481,0.94577,-0.13629,-0.16036,0.27418,0.19318
-0.30664,0.94037,-0.14717,-0.142,0.30469,0.17501
-0.31417,0.93616,-0.15775,-0.14733,0.26112,0.11759
-0.32023,0.93283,-0.16509,-0.1348,0.34831,-0.26008
-0.3178,0.93314,-0.168,-0.16865,0.32044,-0.25875
-0.30816,0.93614,-0.1693,-0.19981,0.45574,-0.20937
-0.29908,0.93812,-0.17454,-0.00155,0.40072,-0.03797
-0.29178,0.93936,-0.18012,-0.00885,0.39947,-0.03239
-0.28429,0.94094,-0.18382,0.29584,0.23199,-0.12522
-0.27487,0.94328,-0.18613,0.4375,-0.06813,-0.19436
-0.26355,0.9467,-0.18512,0.23935,-0.13535,-0.119
-0.25578,0.95051,-0.17629,0.13482,-0.15057,-0.07589
-0.25588,0.95381,-0.15732,-0.01456,-0.16597,0.00275
-0.26226,0.95566,-0.13385,-0.08045,-0.13072,0.01335
-0.2716,0.95574,-0.11302,-0.12465,-0.01651,0.02476
-0.27962,0.95518,-0.09706,-0.13899,0.1471,0.05034
-0.27901,0.95647,-0.08535,-0.08378,0.26051,-0.0409
-0.27024,0.95984,-0.07512,0.01672,0.19311,-0.07744
-0.2608,0.96325,-0.06408,0.07687,0.06666,-0.03506
-0.25235,0.96597,-0.05658,0.08717,-0.06674,0.02725
-0.24454,0.96818,-0.05291,0.08173,-0.16595,0.05739
-0.23696,0.97016,-0.05105,0.07302,-0.24984,0.04795
-0.22838,0.97231,-0.04936,0.07519,-0.35594,0.05885
-0.21648,0.9752,-0.04579,0.07184,-0.3334,0.08037
-0.20317,0.97828,-0.04074,0.0384,-0.36595,0.06862
-0.18663,0.98171,-0.03722,0.13733,-0.36318,0.06818
-0.16836,0.98505,-0.03628,0.13114,-0.28058,0.0956
-0.14991,0.98803,-0.03602,0.10288,-0.21989,0.1202
-0.13413,0.9904,-0.0329,0.00906,-0.10387,0.20474
-0.12353,0.99203,-0.02443,-0.02395,-0.00788,0.23231
-0.11919,0.99278,-0.01254,-0.00874,0.02295,0.21167
-0.11984,0.99278,-0.00027,0.02952,0.25026,0.16516
-0.12473,0.9921,0.01232,-0.00843,0.16429,0.07005
-0.13233,0.99085,0.02607,0.16813,0.41591,-0.21865
-0.14737,0.98811,0.04356,-0.16196,0.82152,0.08419
-0.15616,0.98665,0.04589,-0.18288,0.61156,0.22924
-0.14379,0.98941,0.01898,0.06874,0.19333,-0.09862
-0.13087,0.99123,-0.01765,0.09112,0.11943,-0.3198
-0.12704,0.99088,-0.04451,0.0569,-0.05927,-0.21078
-0.12941,0.98996,-0.05663,0.05162,-0.16786,-0.09265
-0.13735,0.98867,-0.06036,0.15834,-0.21445,-0.11761
-0.14542,0.98755,-0.0597,0.29098,-0.12505,-0.18262
-0.1508,0.98688,-0.05739,0.26021,0.01933,-0.14272
-0.15458,0.9864,-0.05559,0.22345,0.01845,-0.12561
-0.15805,0.98589,-0.05495,0.15068,0.01868,-0.10431
-0.16024,0.9855,-0.05551,0.02067,0.08208,-0.06103
-0.16485,0.98478,-0.05478,-0.0165,0.0781,-0.05833
-0.17186,0.98356,-0.05523,-0.05459,0.01426,-0.05648
-0.18124,0.98157,-0.06031,0.00611,-0.14977,-0.04092
-0.19192,0.97887,-0.07036,0.03147,-0.21618,-0.04104
-0.20227,0.97591,-0.08166,0.07498,-0.30321,-0.05812
-0.21182,0.97309,-0.09059,0.08887,-0.309,-0.05216
-0.22021,0.97071,-0.09589,0.06461,-0.30337,-0.03324
-0.2281,0.96881,-0.09668,0.06179,-0.28259,-0.01987
-0.23652,0.96703,-0.09426,0.04349,-0.23783,-0.02505
-0.24366,0.96536,-0.09318,0.00338,-0.21928,-0.03231
-0.2496,0.96371,-0.09449,-0.02832,-0.20167,-0.00761
-0.2549,0.96214,-0.09634,-0.15536,-0.1351,0.07652
-0.25899,0.96083,-0.09851,-0.18672,-0.12186,0.09265
-0.26146,0.95982,-0.10176,-0.20132,-0.11158,0.09383
-0.26265,0.95892,-0.10703,-0.20467,-0.07527,0.07477
-0.2635,0.95799,-0.11309,-0.19489,-0.03269,0.09556
-0.26493,0.95699,-0.11817,-0.20624,0.04282,0.12453
-0.26893,0.95547,-0.12132,-0.21198,0.12473,0.16049
-0.27476,0.95336,-0.12484,-0.19105,0.17658,0.1773
-0.28057,0.95081,-0.13123,-0.09475,0.24539,0.14488
-0.28631,0.94766,-0.14122,-0.02851,0.43817,-0.0286
-0.28832,0.94495,-0.15462,0.01215,0.33483,0.00761
-0.28826,0.9428,-0.16735,-0.07803,0.65292,-0.02981
-0.28863,0.94109,-0.17615,-0.1249,0.554,-0.11035
-0.28007,0.9422,-0.18381,-0.04635,0.41076,-0.14129
-0.26809,0.94368,-0.19384,0.04336,0.44391,-0.17811
-0.25543,0.94515,-0.20351,0.09747,0.15643,-0.18807
-0.24356,0.9474,-0.20757,0.12638,-0.04811,-0.21989
-0.23514,0.95027,-0.20412,0.09946,-0.12291,-0.1808
-0.23067,0.9539,-0.19193,0.05924,-0.11566,-0.14966
-0.23172,0.95713,-0.17375,0.0115,-0.12128,-0.12887
-0.23804,0.959,-0.15374,-0.03039,-0.12985,-0.09876
-0.24519,0.95982,-0.13635,-0.04317,-0.04637,-0.03378
-0.24845,0.96108,-0.12073,-0.0415,0.09627,0.02749
-0.24339,0.96417,-0.10543,-0.00722,0.13363,0.01674
-0.23204,0.96857,-0.08944,0.08038,0.06359,0.00519
-0.22001,0.97283,-0.07184,0.14969,-0.01612,-0.00125
-0.21,0.97609,-0.05591,0.14048,-0.06035,-0.00876
-0.20231,0.97828,-0.0448,0.10183,-0.14315,0.0065
-0.19637,0.9798,-0.03742,0.0782,-0.18193,-0.00637
-0.19084,0.98115,-0.02999,0.0755,-0.19944,0.01408
-0.18365,0.98274,-0.02146,0.08921,-0.30576,0.03761
-0.17419,0.98461,-0.0132,0.09857,-0.34442,0.04697
-0.16338,0.98652,-0.00709,0.10143,-0.38861,0.09434
-0.15088,0.98853,-0.00317,0.0407,-0.28657,0.14355
-0.13897,0.99028,0.00172,-0.01032,-0.21548,0.18688
-0.13078,0.99133,0.01104,-0.05474,-0.14687,0.19725
-0.12625,0.99164,0.02593,0.01796,0.06132,0.13192
-0.12679,0.99096,0.04342,0.01302,0.12752,0.12264
-0.13485,0.9891,0.05891,-0.09792,-0.02863,0.14731
-0.14693,0.98656,0.07126,0.05001,0.35275,-0.11053
-0.16698,0.98216,0.08631,-0.15275,0.54401,0.0381
-0.17923,0.9788,0.099,-0.20524,0.44461,0.07556
-0.1695,0.98127,0.09131,-0.09009,0.35044,-0.11513
-0.15755,0.98541,0.06413,-0.04788,0.23645,-0.16615
-0.15181,0.98773,0.03625,0.07153,-0.01342,-0.19949
-0.15122,0.98828,0.02023,0.06199,-0.09413,-0.10658
-0.15399,0.98798,0.01217,0.13387,-0.10683,-0.10888
-0.15727,0.98749,0.00937,0.22079,-0.05262,-0.13471
-0.15955,0.98711,0.01093,0.18411,0.03944,-0.10498
-0.16174,0.98674,0.01243,0.14672,0.07355,-0.08993
-0.16441,0.98631,0.0116,0.08009,0.11274,-0.09398
-0.16739,0.98582,0.01053,0.02939,0.15951,-0.07205
-0.1718,0.98506,0.01036,-0.08046,0.09215,-0.02638
-0.18035,0.98354,0.01008,-0.10231,0.03378,-0.02148
-0.19128,0.98149,0.00687,-0.09751,-0.09336,-0.00531
-0.20409,0.97893,-0.00149,-0.02377,-0.19437,-0.00202
-0.21819,0.97577,-0.01504,0.04804,-0.31356,-0.02254
-0.23069,0.97251,-0.03118,0.13023,-0.39135,-0.03778
-0.24229,0.96914,-0.04521,0.15197,-0.41474,-0.03512
-0.25205,0.96617,-0.05431,0.14027,-0.41211,-0.02804
-0.26057,0.96368,-0.05833,0.07909,-0.333,0.00996
-0.26843,0.9614,-0.06022,0.03308,-0.22779,0.00797
-0.27523,0.9593,-0.06298,-0.00965,-0.13531,0.01391
-0.28086,0.95735,-0.06756,-0.05978,-0.07005,0.02749
-0.28584,0.95553,-0.07238,-0.1182,-0.0246,0.01853
-0.29015,0.95391,-0.07642,-0.14781,-0.02335,0.03906
-0.29388,0.95249,-0.07987,-0.1907,-0.01617,0.07007
-0.29705,0.95113,-0.08418,-0.2358,-0.00807,0.07751
-0.30064,0.94942,-0.0905,-0.2263,-0.00504,0.06899
-0.30475,0.94734,-0.0982,-0.13887,-0.03007,0.07895
-0.30903,0.94511,-0.10601,-0.10545,0.09148,0.13501
-0.31226,0.94294,-0.11543,-0.08294,0.10726,0.17594
-0.31104,0.94189,-0.1268,-0.04502,0.07717,0.21592
-0.3072,0.94123,-0.1403,0.02722,0.42951,0.01416
-0.30104,0.9408,-0.15573,0.05345,0.4763,-0.12079
-0.29462,0.9406,-0.16864,-0.16271,0.33227,-0.01707
-0.28245,0.94291,-0.17637,-0.18138,0.63375,-0.0496
-0.27819,0.94281,-0.18357,-0.00756,0.43309,-0.18133
-0.27101,0.94281,-0.19398,0.11022,0.19645,-0.23676
-0.26129,0.94334,-0.20448,0.2007,-0.05984,-0.22191
-0.25139,0.94488,-0.20971,0.19785,-0.25128,-0.17094
-0.24475,0.94749,-0.20574,0.11116,-0.26407,-0.1035
-0.24178,0.95052,-0.19502,0.05178,-0.23821,-0.08828
-0.24258,0.95262,-0.18344,-0.02871,-0.13911,-0.06879
-0.24612,0.95372,-0.17268,-0.05608,0.01228,-0.08709
-0.25225,0.95431,-0.1601,-0.06091,0.11747,-0.0951
-0.25717,0.95573,-0.14289,-0.04815,0.32286,-0.1045
-0.2554,0.9588,-0.12429,-0.00862,0.24312,-0.07498
-0.24865,0.96275,-0.10613,0.03507,0.09792,0.02711
-0.23948,0.96656,-0.09153,0.11227,-0.02995,0.09052
-0.22945,0.96966,-0.08415,0.14571,-0.14845,0.09394
-0.21895,0.97218,-0.0831,0.13904,-0.18191,0.08012
-0.20729,0.97469,-0.08355,0.12103,-0.21535,0.04454
-0.19445,0.97745,-0.08218,0.1128,-0.27962,0.00249
-0.18021,0.98052,-0.0779,0.11577,-0.30073,-0.00676
-0.16597,0.98342,-0.07283,0.1233,-0.38551,0.00444
-0.15147,0.986,-0.06943,0.10153,-0.37094,0.0558
-0.13913,0.98799,-0.06704,0.02058,-0.34213,0.09972
-0.12782,0.98984,-0.06206,-0.05185,-0.18175,0.18745
-0.11925,0.99146,-0.05254,-0.09135,-0.12001,0.23542
-0.11412,0.99261,-0.04098,-0.09621,-0.02518,0.22562
-0.11546,0.99286,-0.02944,-0.08764,-0.10866,0.17211
-0.11866,0.99276,-0.01762,-0.06562,0.13431,0.11196
-0.12515,0.99211,-0.00445,0.12419,0.20875,-0.15435
-0.13636,0.99056,0.01247,0.0202,0.74616,-0.03671
-0.15171,0.98799,0.0289,-0.28637,0.71358,0.22139
-0.14766,0.9887,0.02528,-0.16257,0.42623,-0.02713
-0.13418,0.99094,0.00264,0.04739,0.32828,-0.20864
-0.12586,0.99176,-0.02329,0.08634,0.11105,-0.16803
-0.12227,0.99158,-0.04228,-0.00982,-0.12574,-0.02844
-0.12404,0.99068,-0.05595,0.01891,-0.17214,-0.04985
-0.12802,0.98968,-0.06421,0.08916,-0.18584,-0.0977
-0.13221,0.98891,-0.0675,0.21197,-0.10658,-0.22567
-0.1352,0.98861,-0.0659,0.21276,-0.02595,-0.19649
-0.1374,0.98864,-0.06062,0.17596,0.04271,-0.12393
-0.14064,0.98854,-0.05457,0.11405,0.10582,-0.06306
-0.14707,0.98789,-0.04923,0.03593,0.13879,-0.02211
-0.15758,0.98644,-0.04563,0.00276,0.10534,-0.01193
-0.17037,0.98432,-0.04545,-0.06367,-0.04637,-0.02503
