gravity.x,gravity.y,gravity.z,userAcceleration.x,userAcceleration.y,userAcceleration.z
0.26991,0.955,-0.12293,-0.30966,-0.14189,0.04705
0.28781,0.94606,-0.14876,-0.19364,-0.16823,0.03606
0.30728,0.93515,-0.17623,-0.16248,-0.18569,0.0855
0.32878,0.92195,-0.20471,-0.1396,-0.19153,0.1116
0.35131,0.90636,-0.23471,-0.11469,-0.22023,0.12565
0.37206,0.88939,-0.2656,-0.16206,-0.24506,0.07987
0.38908,0.8731,-0.29379,-0.17399,-0.2347,0.11507
0.40183,0.85851,-0.31857,-0.15229,-0.20269,0.1067
0.41033,0.84675,-0.33858,-0.14408,-0.19416,0.12046
0.41591,0.8379,-0.35346,-0.11437,-0.19288,0.07976
0.41893,0.83294,-0.36154,-0.14979,-0.09249,-0.01888
0.41857,0.83148,-0.36528,-0.10871,0.03577,0.00739
0.41448,0.83319,-0.36606,-0.04037,0.06066,0.00539
0.40849,0.83809,-0.36159,0.11494,0.1229,-0.1634
0.40746,0.84404,-0.34867,0.19058,0.12218,-0.18088
0.4098,0.85359,-0.32162,0.21535,0.03755,-0.01075
0.40008,0.86886,-0.29156,0.07758,0.37298,0.04353
0.37228,0.88739,-0.27191,-0.08211,0.84253,0.06149
0.34401,0.90661,-0.24436,-0.61543,0.31773,0.10339
0.32214,0.92163,-0.21634,-0.4043,-0.01253,0.15444
0.3023,0.93363,-0.19222,-0.0036,-0.02661,0.16634
0.28065,0.94401,-0.17341,0.04752,-0.00713,0.13205
0.26083,0.95194,-0.1605,0.04137,0.05596,0.06384
0.24016,0.95926,-0.1488,0.0112,0.05687,0.11077
0.22189,0.96511,-0.13897,-0.00332,0.05624,0.07656
0.20537,0.97041,-0.12694,-0.05061,0.03142,0.08623
0.18906,0.97591,-0.1088,-0.08734,-0.07557,0.10009
0.17435,0.9808,-0.08735,-0.08707,-0.17663,0.04375
0.16035,0.98481,-0.06657,0.01179,-0.1361,0.02968
0.14838,0.98779,-0.04741,0.10518,-0.10413,0.03094
0.14077,0.98963,-0.02849,0.08564,-0.17049,0.04911
0.13292,0.9911,-0.00581,-0.04042,-0.29706,0.00138
0.12075,0.99254,0.01632,-0.08355,-0.2695,-0.00492
0.10796,0.99363,0.03206,-0.04528,-0.22198,0.00086
0.09989,0.99401,0.0442,0.01524,-0.1868,-0.00674
0.09526,0.99393,0.05489,0.01235,-0.2078,-0.05459
0.09162,0.99379,0.06299,-0.01171,-0.17882,-0.07181
0.089,0.99357,0.06988,-0.00103,-0.11221,0.0108
0.08725,0.9934,0.07433,0.0948,0.04439,-0.09254
0.0856,0.99318,0.07905,0.14601,0.11316,-0.00956
0.08498,0.99267,0.08588,0.16537,0.13196,0.04106
0.08256,0.99245,0.09069,0.12629,0.15665,-0.06704
0.07967,0.99203,0.09753,0.06338,0.31131,0.01074
0.07666,0.99145,0.10558,0.08562,0.32664,-0.0714
0.07484,0.99107,0.1103,0.02353,0.36386,-0.11635
0.0747,0.99106,0.11045,-0.00226,0.28257,0.07972
0.07541,0.99186,0.10255,-0.1321,0.44926,0.03368
0.07701,0.99304,0.08902,0.0965,0.78351,0.00734
0.08464,0.99334,0.07811,-0.17012,0.48588,-0.17014
0.091,0.99329,0.07129,-0.20422,0.01959,-0.07074
0.09789,0.99357,0.05681,-0.12494,-0.07401,-0.09673
0.1087,0.99357,0.03143,-0.07251,-0.09739,-0.12231
0.12636,0.99198,0.00107,0.17412,-0.01799,-0.09339
0.15505,0.9875,-0.02815,0.27568,0.0391,-0.10505
0.19258,0.97979,-0.05405,0.25132,0.06251,-0.10026
0.23055,0.9697,-0.08077,-0.08333,0.07806,-0.09269
0.26235,0.9591,-0.1063,-0.24896,0.01533,-0.04819
0.28721,0.94901,-0.12991,-0.26801,0.0046,-0.01343
0.30639,0.9395,-0.15316,-0.19296,-0.10899,0.01314
0.3228,0.92978,-0.1769,-0.18834,-0.11118,0.09205
0.33556,0.91964,-0.20411,-0.17684,-0.10361,0.14144
0.34986,0.90731,-0.23318,-0.02356,-0.15032,0.09397
0.37029,0.89105,-0.26249,-0.07628,-0.22542,0.08904
0.39131,0.87257,-0.29238,-0.17824,-0.31152,0.1461
0.40717,0.85524,-0.32058,-0.24892,-0.35475,0.15653
0.41764,0.84166,-0.34232,-0.28792,-0.3264,0.10486
0.42446,0.83286,-0.3552,-0.22343,-0.2259,0.05062
0.42913,0.82791,-0.36111,-0.13983,-0.07312,0.01729
0.43375,0.82497,-0.36232,-0.06523,-0.03522,-0.03728
0.43502,0.82509,-0.36052,0.02543,-0.14455,-0.05635
0.43019,0.82951,-0.35615,0.11293,-0.14088,-0.09751
0.42488,0.83567,-0.34802,0.20027,0.03486,-0.20243
0.42601,0.83941,-0.33748,0.30466,0.18132,-0.1817
0.42698,0.84514,-0.3216,0.30299,0.09494,0.00878
0.41295,0.85625,-0.31033,0.23292,0.8064,-0.02207
0.38601,0.87339,-0.29696,-0.30273,0.74796,0.07692
0.3643,0.88988,-0.27456,-0.54903,0.08784,0.03419
0.34518,0.90572,-0.246,-0.21575,0.02345,0.19944
0.32111,0.92112,-0.22005,-0.0931,0.13073,0.10817
0.29694,0.93362,-0.20044,-0.12175,0.06095,0.09723
0.27235,0.94446,-0.1839,-0.10512,0.00934,0.16539
0.24526,0.9541,-0.17187,-0.09836,0.02836,0.1364
0.21849,0.96223,-0.16236,-0.05805,0.06488,0.09449
0.1942,0.96917,-0.1516,-0.10116,0.00504,0.08959
0.17414,0.97515,-0.13695,-0.10102,-0.04459,0.08689
0.1573,0.98029,-0.11949,-0.09561,-0.10747,0.0514
0.14112,0.9847,-0.10216,-0.04389,-0.11121,0.02999
0.12751,0.9881,-0.08591,0.07511,-0.16715,0.0759
0.11783,0.99081,-0.06634,0.0586,-0.23834,0.04977
0.10831,0.99322,-0.04219,0.03181,-0.27352,0.02982
0.09672,0.99511,-0.01959,-0.0332,-0.29147,0.00903
0.08516,0.99636,-0.00098,-0.00884,-0.24502,0.0144
0.07612,0.99698,0.0151,0.00243,-0.22908,-0.02176
0.0692,0.99714,0.03005,0.06291,-0.17697,-0.0458
0.06333,0.99707,0.04268,0.05564,-0.1534,-0.04771
0.06,0.99678,0.05312,0.05814,-0.13565,-0.07191
0.05798,0.99638,0.06209,0.11795,-0.02668,-0.03011
0.05602,0.99607,0.06856,0.11438,0.04602,-0.0511
0.05597,0.99572,0.0734,0.14199,0.12856,0.03981
0.05613,0.99539,0.07772,0.19964,0.12703,-0.0682
0.05336,0.99514,0.0827,0.13689,0.29025,-0.11169
0.04877,0.99471,0.09034,0.13593,0.33786,-0.06042
0.04159,0.99451,0.09599,0.11007,0.33968,-0.04179
0.03392,0.99438,0.10022,-0.04965,0.21322,-0.06399
0.02801,0.99411,0.10461,-0.10207,0.19781,0.07553
0.0249,0.99418,0.1048,-0.16728,0.24777,0.11644
0.02529,0.99442,0.10234,0.00271,0.66558,0.01784
0.02944,0.99459,0.09956,-0.15386,0.2646,-0.02114
0.03445,0.9949,0.09477,-0.17387,0.12719,-0.01143
0.04056,0.99587,0.08115,-0.15867,0.02333,-0.08799
0.04938,0.99709,0.05805,-0.09603,0.15849,-0.1188
0.06579,0.99733,0.03139,-0.00998,0.12368,-0.00412
0.0912,0.99582,0.00189,0.03906,0.06448,0.01886
0.12373,0.99193,-0.02735,-0.01158,0.08621,-0.0312
0.15963,0.98564,-0.05494,-0.12284,0.12134,-0.04249
0.19608,0.97728,-0.08044,-0.27088,0.11298,-0.03085
0.22779,0.9683,-0.10244,-0.35081,0.01644,0.03606
0.25132,0.96017,-0.1221,-0.28322,-0.08776,0.08432
0.27004,0.95248,-0.1409,-0.18049,-0.13755,0.01789
0.28973,0.94303,-0.16356,-0.09646,-0.10075,0.00083
0.31147,0.93097,-0.19046,-0.05377,-0.10263,0.09902
0.33503,0.91618,-0.21991,-0.04487,-0.17424,0.11368
0.35852,0.89948,-0.24977,-0.07974,-0.23924,0.13153
0.38086,0.88181,-0.27811,-0.15814,-0.19915,0.11858
0.39978,0.86489,-0.30353,-0.18675,-0.23912,0.09725
0.41599,0.84925,-0.32516,-0.2125,-0.26198,0.13093
0.43111,0.8343,-0.34362,-0.21708,-0.29891,0.13584
0.44277,0.82189,-0.3584,-0.24519,-0.34431,0.10406
0.44971,0.81376,-0.36817,-0.25301,-0.29667,0.09372
0.45437,0.80944,-0.37194,-0.20913,-0.15814,0.04203
0.45906,0.80756,-0.37027,-0.10098,-0.08083,0.0029
0.46059,0.80839,-0.36655,-0.07483,-0.04849,-0.06016
0.45774,0.81224,-0.36156,0.03147,-0.06853,-0.04633
0.45325,0.81906,-0.35171,0.17013,-0.06236,-0.10848
0.45307,0.82677,-0.33342,0.25094,0.10693,-0.20199
0.45723,0.83259,-0.31262,0.40767,0.26789,-0.176
0.45607,0.8415,-0.28961,0.40625,0.23147,-0.05277
0.4385,0.8561,-0.2735,0.10459,0.99575,-0.10727
0.4138,0.87393,-0.25496,-0.37875,0.79131,-0.02055
0.3954,0.88931,-0.22974,-0.34121,0.14029,0.06652
0.37562,0.90375,-0.20527,-0.17253,-0.02283,0.04316
0.34901,0.91888,-0.18396,0.02516,0.06035,-0.01569
0.32016,0.93339,-0.1621,-0.11203,0.04356,0.05235
0.28956,0.94673,-0.14086,-0.23131,0.11787,0.12389
0.25808,0.95861,-0.12017,-0.25573,0.19937,0.16684
0.22817,0.96843,-0.10035,-0.28732,0.1317,0.10781
0.20125,0.97629,-0.07963,-0.18825,-0.0486,0.06993
0.17674,0.98254,-0.05805,-0.06042,-0.23005,0.08148
0.15329,0.98756,-0.0349,-0.01152,-0.34854,0.09967
0.13172,0.99123,-0.01041,0.04043,-0.38008,0.08768
0.11392,0.99338,0.01447,0.07005,-0.38013,0.05561
0.10095,0.99416,0.03811,-0.02572,-0.40637,-0.02297
0.09058,0.99406,0.06028,-0.06863,-0.4017,-0.05681
0.08136,0.99351,0.07937,-0.06543,-0.37355,-0.06687
0.07071,0.99289,0.09569,-0.007,-0.18227,-0.02028
0.0608,0.99207,0.10994,0.05822,-0.00417,-0.07321
0.05121,0.99059,0.1269,0.06889,0.01201,-0.07769
0.04172,0.9886,0.14462,0.04318,-0.06341,-0.11525
0.03465,0.98668,0.15889,0.21875,0.01532,-0.10554
0.02759,0.98532,0.16842,0.26355,0.03883,-0.04307
0.02026,0.98405,0.17671,0.18473,0.00294,-0.07475
0.01529,0.98293,0.1833,0.08177,-0.11384,-0.07582
0.01186,0.98194,0.18877,0.01936,-0.09097,-0.03034
0.00874,0.97978,0.19984,-0.03485,-0.01654,-0.01789
0.00539,0.97716,0.21239,-0.02331,-0.00036,-0.02064
0.003,0.97596,0.2179,-0.00984,0.0256,-0.08492
0.00107,0.97496,0.22236,0.01193,0.06658,-0.07299
-0.0014,0.97359,0.22826,-0.00918,0.06538,-0.04604
-0.00274,0.97264,0.23227,-0.03532,0.11217,0.01814
-0.00478,0.97201,0.23486,-0.01027,0.22358,-0.07593
-0.00659,0.97119,0.23818,0.05524,0.24565,-0.04874
-0.00827,0.97059,0.24057,-0.02043,0.22747,-0.00113
-0.01307,0.97054,0.24058,0.01712,0.31906,0.0008
-0.01911,0.97047,0.24045,0.06313,0.33274,0.09749
-0.0283,0.96962,0.24294,-0.10767,0.31155,0.00492
-0.03637,0.96927,0.24329,-0.21735,0.32634,-0.00063
-0.04276,0.9695,0.24131,-0.0735,0.27372,0.06278
-0.04603,0.96958,0.24037,0.07783,0.16802,0.07004
-0.04593,0.97005,0.23851,0.00017,0.17105,-0.06878
-0.04103,0.97052,0.23747,-0.0863,0.2207,-0.01302
-0.03252,0.97116,0.23619,-0.05548,0.28296,-0.01311
-0.02039,0.9725,0.23199,-0.03914,0.26491,-0.02319
-0.00145,0.97603,0.2176,-0.07956,0.13502,-0.0645
0.02191,0.98066,0.19447,-0.1484,0.07711,-0.07655
0.04531,0.98464,0.1686,-0.26586,0.14946,-0.18755
0.06777,0.98735,0.14334,-0.31862,0.1861,-0.23475
0.08995,0.98934,0.11447,-0.3573,0.20057,-0.22509
0.10808,0.99064,0.0833,-0.37874,-0.04022,-0.01424
0.11701,0.99135,0.05943,-0.35069,-0.13547,0.07375
0.11774,0.99212,0.04267,-0.16701,-0.26397,0.06132
0.12052,0.99238,0.02541,-0.087,-0.29544,0.07921
0.13021,0.99147,0.00512,-0.05387,-0.37895,0.11779
0.14599,0.98915,-0.01619,-0.07798,-0.41746,0.08561
0.16341,0.98582,-0.03791,-0.22275,-0.33682,0.02984
0.17535,0.9826,-0.06122,-0.28858,-0.30723,0.04442
0.18335,0.97926,-0.08618,-0.24394,-0.25471,0.07307
0.19265,0.97509,-0.10991,-0.1659,-0.15363,0.08428
0.20521,0.97014,-0.12929,-0.07847,-0.13418,0.06135
0.21602,0.96555,-0.14502,-0.07009,-0.14868,0.01132
0.22062,0.96251,-0.15776,-0.07795,-0.16292,-0.02485
0.21888,0.96111,-0.16837,-0.04429,-0.22045,-0.05939
0.21039,0.96158,-0.17631,-0.10753,-0.33779,-0.09093
0.19639,0.96406,-0.1789,-0.104,-0.35704,-0.0736
0.17965,0.96831,-0.17349,-0.08726,-0.36128,-0.07902
0.16152,0.97398,-0.15895,0.06489,-0.32252,-0.1604
0.14315,0.9798,-0.13959,0.12187,-0.23394,-0.22134
0.12538,0.98468,-0.12114,0.1398,-0.04314,-0.26869
0.11057,0.98814,-0.10655,0.18605,0.15417,-0.28515
0.10435,0.98986,-0.09633,0.15924,0.4087,-0.23799
0.11126,0.98965,-0.09061,0.00838,0.4636,-0.32716
0.12879,0.9877,-0.08861,-0.05153,0.31627,-0.46194
0.14876,0.98537,-0.08311,-0.16489,0.20472,-0.56539
0.16141,0.98421,-0.07257,-0.01289,0.26028,-0.26279
0.16546,0.98403,-0.06561,-0.20481,0.33139,-0.08811
0.16155,0.98551,-0.05155,-0.46026,0.43679,0.13854
0.15191,0.98803,-0.02675,-0.67413,0.1349,0.21768
0.13977,0.99016,-0.00561,-0.52683,-0.15978,0.22166
0.12689,0.99189,0.00691,-0.313,-0.30906,0.22287
0.11701,0.99305,0.01204,-0.24669,-0.2788,0.12224
0.11072,0.99375,0.0137,-0.21471,-0.10246,0.16796
0.10509,0.99422,0.02172,-0.18679,-0.01389,0.33284
0.10175,0.99379,0.04483,-0.25702,-0.0047,0.27571
0.10035,0.9919,0.07785,-0.22611,-0.00812,0.09896
0.1002,0.98951,0.10398,-0.10303,-0.07168,0.00851
0.1038,0.98652,0.12643,-0.06184,-0.07182,0.11578
0.10909,0.98259,0.15035,-0.08991,-0.05121,0.10023
0.11195,0.97876,0.17171,-0.11532,-0.04657,0.07285
0.11099,0.97609,0.18688,-0.05801,0.02086,0.00674
0.10817,0.97386,0.19969,-0.03201,0.00572,0.02995
0.10539,0.97103,0.21445,-0.02142,-0.03807,-0.04284
0.10298,0.96836,0.2273,-0.07276,-0.08066,-0.1392
0.10005,0.96655,0.23614,0.1283,0.00283,-0.22796
0.09574,0.96536,0.24271,0.10801,-0.03303,-0.27807
0.09255,0.9648,0.24613,0.14295,-0.01755,-0.29186
0.08778,0.96451,0.249,0.14682,0.02424,-0.2063
0.08186,0.96429,0.25187,0.01698,-0.01667,-0.18271
0.07457,0.96481,0.25212,0.0108,-0.0114,-0.18618
0.06529,0.96583,0.25078,0.30974,-0.03484,-0.14714
0.05655,0.96727,0.24734,0.25138,-0.10582,-0.16369
0.05117,0.968,0.24567,0.30326,-0.08276,-0.10261
0.05034,0.96778,0.24668,0.26783,-0.03416,-0.14196
0.05717,0.96688,0.24871,-0.20193,0.24645,-0.21447
0.0693,0.96595,0.24926,-0.26754,0.29592,-0.01851
0.08951,0.96521,0.24565,-0.2474,0.20529,0.17463
0.11781,0.96467,0.23561,-0.30517,0.1306,0.07864
0.14951,0.96404,0.2197,-0.65292,0.33748,0.09145
0.17842,0.96456,0.19438,-0.76154,0.5365,0.09592
0.19908,0.96756,0.15553,-1.01074,0.80999,0.02057
0.21577,0.96931,0.11775,-1.098,0.84076,-0.0535
0.2242,0.97136,0.0786,-0.17725,0.31335,-0.36042
0.22927,0.97184,0.05427,0.2381,0.18451,-0.11145
0.24422,0.96908,0.03508,0.19906,0.06895,-0.10655
0.26238,0.96486,0.01405,0.12,-0.04983,-0.09976
0.27587,0.9611,-0.01351,0.08049,-0.16611,-0.12638
0.28672,0.95706,-0.04261,-0.03033,-0.27933,-0.09221
0.29522,0.95286,-0.07,-0.08267,-0.31969,-0.05957
0.29982,0.94944,-0.09308,-0.1614,-0.32443,-0.0381
0.30032,0.9476,-0.1089,-0.19047,-0.45706,-0.06119
0.29516,0.94807,-0.11845,-0.10307,-0.55459,-0.1412
0.28047,0.95178,-0.12425,0.0549,-0.59528,-0.19259
0.25532,0.95864,-0.12573,0.1291,-0.48919,-0.16374
0.22742,0.96656,-0.11849,0.24551,-0.47065,-0.20211
0.2019,0.9741,-0.10177,0.28174,-0.32521,-0.33547
0.17961,0.98005,-0.08501,0.21096,-0.25647,-0.39577
0.15954,0.98431,-0.07537,0.14727,-0.22401,-0.38703
0.14736,0.98574,-0.08125,-0.08498,0.5173,-0.30512
0.16017,0.98258,-0.09424,-0.16066,1.05356,-0.50274
0.18328,0.97725,-0.10671,-0.21982,0.70603,-0.77376
0.20701,0.97156,-0.11493,-0.11562,-0.16288,-0.80517
0.21522,0.96932,-0.11869,-0.0464,0.25866,0.10816
0.20602,0.97073,-0.12342,-0.16863,0.53127,0.29612
0.18689,0.97617,-0.11022,-0.82703,0.25976,0.33543
0.16694,0.98157,-0.09296,-0.77582,0.17204,0.15439
0.15361,0.98306,-0.09998,-0.32942,0.04412,0.39832
0.15187,0.98379,-0.09535,-0.24007,0.05345,0.46684
0.15287,0.98523,-0.07712,-0.15117,0.1692,0.42136
0.15279,0.98715,-0.04674,-0.01157,0.00817,0.25228
0.14638,0.9891,-0.0157,0.04782,-0.14817,0.21147
0.13151,0.99129,0.007,-0.01568,-0.18336,0.13492
0.11507,0.99305,0.02433,-0.11172,0.03424,0.0397
0.10569,0.9932,0.04868,-0.05248,0.04847,0.14843
0.1035,0.99164,0.07702,0.00524,-0.08127,0.15465
0.10253,0.98967,0.10018,0.00184,-0.12608,0.01756
0.09684,0.98827,0.11802,-0.01253,-0.04447,-0.08791
0.09066,0.98676,0.13443,0.25587,-0.04742,-0.01583
0.09187,0.98462,0.14858,0.50417,-0.04382,-0.04457
0.09201,0.98319,0.15771,0.69258,-0.15952,-0.21403
0.0875,0.98235,0.16532,0.3293,-0.16202,-0.24793
0.08514,0.98124,0.17293,0.26981,-0.13865,-0.27921
0.08424,0.97996,0.18046,0.2876,-0.13141,-0.22322
0.08366,0.97851,0.18843,0.14948,-0.05642,-0.20317
0.08573,0.97654,0.19749,0.13047,-0.02386,-0.14659
0.08727,0.97511,0.20379,0.00146,0.11443,-0.12277
0.08625,0.97482,0.20559,-0.12023,0.24742,-0.1918
0.07981,0.97528,0.20605,-0.16345,0.25356,-0.09558
0.07138,0.97616,0.20497,-0.03919,0.18641,-0.13416
0.06197,0.97743,0.20194,0.20626,0.20526,-0.14132
0.05302,0.97823,0.20062,0.32565,0.22059,-0.2005
0.04365,0.97916,0.19832,0.22173,0.22639,-0.17866
0.03401,0.98013,0.1954,0.2175,0.42945,-0.09511
0.03197,0.98055,0.19361,0.16054,0.31242,0.17321
0.04499,0.98038,0.1919,-0.33012,0.48595,-0.04766
0.05461,0.98181,0.18182,-0.49879,0.66436,0.0303
0.07078,0.98486,0.15821,-0.36021,0.37834,0.05008
0.08827,0.98838,0.12375,-0.14961,0.20627,-0.09167
0.10456,0.99072,0.08685,-0.12396,0.14559,-0.13391
0.12531,0.99056,0.05546,-0.10489,0.13097,-0.03262
0.15551,0.98753,0.02449,-0.01064,0.12342,-0.0128
0.1897,0.98183,-0.00468,-0.15323,0.01775,-0.01209
0.21959,0.97506,-0.03221,-0.19641,-0.00184,0.00041
0.24447,0.96791,-0.05803,-0.20512,-0.03946,-0.06187
0.26716,0.96002,-0.08359,-0.16609,-0.04868,-0.05719
0.29277,0.94953,-0.11259,-0.05335,-0.06993,-0.02739
0.32412,0.93527,-0.14213,0.00109,-0.18077,0.03847
0.35869,0.91709,-0.17399,0.12303,-0.27809,0.09985
0.39021,0.89743,-0.2058,0.09949,-0.41394,0.09789
0.41367,0.87953,-0.23515,-0.15274,-0.43262,0.08457
0.42446,0.86672,-0.26196,-0.22731,-0.39968,0.07159
0.42526,0.85922,-0.2844,-0.25154,-0.36664,0.06324
0.4224,0.85512,-0.30057,-0.0721,-0.22232,-0.03974
0.42235,0.85261,-0.30767,-0.07693,-0.0953,-0.10306
0.4264,0.84979,-0.30988,-0.13827,0.06303,-0.16682
0.42214,0.85075,-0.31309,-0.0011,-0.10381,0.03299
0.40942,0.85806,-0.31,0.03969,-0.14695,0.00439
0.39647,0.86863,-0.29715,0.0325,-0.05338,-0.08757
0.38359,0.87952,-0.2816,0.30943,0.16042,-0.03464
0.36911,0.89089,-0.2647,0.22284,0.20965,-0.09403
0.3495,0.90313,-0.24938,0.16632,0.52045,-0.09754
0.32511,0.91865,-0.22446,-0.27362,0.67034,0.07449
0.30409,0.93202,-0.19715,-0.60144,-0.15829,-0.07508
0.28441,0.9431,-0.17226,-0.3504,-0.34238,0.00511
0.25879,0.95383,-0.15244,0.03303,-0.05836,0.10735
0.23071,0.96409,-0.13152,0.04621,0.17208,0.0555
0.20436,0.97261,-0.11074,-0.03006,0.1974,0.05253
0.18327,0.97869,-0.0926,-0.08985,0.08605,0.06772
0.1659,0.98314,-0.07683,-0.03485,0.02791,0.09075
0.14729,0.98726,-0.06011,-0.01957,-0.02567,0.075
0.12759,0.99094,-0.04182,0.04825,-0.07999,0.07079
0.10657,0.99403,-0.02318,0.09477,-0.05011,0.0416
0.08553,0.99631,-0.0071,0.15955,-0.00932,-0.00738
0.06952,0.99755,0.00714,0.20077,-0.00953,0.02365
0.05791,0.99795,0.02726,0.11937,-0.13454,0.00161
0.04581,0.99765,0.0508,-0.01055,-0.25298,-0.006
0.03068,0.997,0.07102,-0.06846,-0.30018,-0.01763
0.01612,0.99588,0.0892,-0.02918,-0.30214,-0.02568
0.00628,0.99425,0.1069,0.07004,-0.259,-0.02179
-0.00082,0.99241,0.12296,0.1241,-0.2721,-0.082
-0.01043,0.99033,0.13832,0.09933,-0.2596,-0.05859
-0.02561,0.98759,0.15492,0.11437,-0.08221,-0.13232
-0.04426,0.98429,0.17093,0.02945,0.02099,-0.14911
-0.06094,0.98107,0.18378,0.08131,0.09882,0.05961
-0.07714,0.97858,0.19086,0.31548,0.11577,-0.08293
-0.09158,0.97569,0.19909,0.3533,0.08028,-0.20575
-0.10217,0.9723,0.21021,0.22004,0.23488,-0.05532
-0.10954,0.97006,0.21673,0.11813,0.2032,0.0123
-0.11156,0.96977,0.217,0.09267,0.19038,-0.08534
-0.10842,0.97061,0.21484,0.12298,0.16086,-0.03202
-0.10327,0.97195,0.21127,0.17764,0.40921,0.05553
-0.09305,0.97393,0.20687,0.0522,0.46055,0.06074
-0.07889,0.97702,0.198,-0.13456,0.59207,0.09994
-0.06508,0.98089,0.18333,-0.21996,0.24054,0.1736
-0.04789,0.98562,0.16204,-0.19268,0.06738,-0.03508
-0.02679,0.99071,0.13331,-0.21708,0.17679,-0.10788
-0.0055,0.9949,0.1007,-0.1652,0.26911,-0.21307
0.02077,0.99772,0.06421,-0.00941,0.15211,-0.1464
0.05133,0.99832,0.02686,0.0388,0.05079,-0.09264
0.08591,0.99628,-0.00696,0.07892,-0.14354,-0.03352
0.12619,0.99122,-0.03936,0.04243,-0.17439,-0.03057
0.1685,0.9833,-0.0688,0.00012,-0.16646,-0.00113
0.20359,0.97443,-0.09505,-0.04383,-0.21791,-0.03632
0.2257,0.96658,-0.12159,-0.06321,-0.1965,0.09684
0.23944,0.95949,-0.14849,-0.02919,-0.14839,0.12542
0.25842,0.94969,-0.17692,-0.06409,-0.01698,0.01304
0.28184,0.93663,-0.20804,-0.16074,-0.165,-0.01808
0.30524,0.92199,-0.23826,-0.15357,-0.20131,0.01279
0.32891,0.907,-0.26299,-0.12261,-0.29755,0.06069
0.35282,0.89305,-0.27922,-0.06547,-0.30851,0.07652
0.372,0.88097,-0.29241,-0.02245,-0.31417,0.05765
0.38144,0.87404,-0.30091,0.00248,-0.2684,-0.00419
0.38495,0.87115,-0.3048,-0.08254,-0.18177,-0.03471
0.38497,0.8698,-0.30862,-0.07372,-0.24591,-0.01102
0.37992,0.87117,-0.31101,-0.01185,-0.25316,-0.00352
0.3727,0.8755,-0.30754,0.14923,-0.07475,-0.08935
0.36534,0.8826,-0.29586,0.24733,0.04899,-0.1607
0.36026,0.89036,-0.27834,0.31422,0.15247,-0.17122
0.35934,0.89642,-0.25943,0.37057,0.10892,0.0539
0.35812,0.9019,-0.24151,0.28827,0.31626,-0.13644
0.3446,0.91212,-0.222,0.16781,0.89619,-0.04623
0.3221,0.92455,-0.20362,-0.42885,0.03941,-0.05108
0.29837,0.93693,-0.18201,-0.27638,-0.05763,0.14956
0.26619,0.95045,-0.16058,0.03064,0.16854,0.14329
0.23541,0.96221,-0.13687,0.12804,0.28965,0.02728
0.21265,0.97033,-0.11505,-0.03273,0.0909,0.07403
0.18947,0.97709,-0.09691,-0.07857,-0.1077,0.1729
0.16417,0.98273,-0.08534,-0.0221,-0.08325,0.10952
0.13756,0.98744,-0.07765,0.00922,-0.03864,0.03204
0.11136,0.99152,-0.06692,-0.02672,-0.13953,0.05949
0.08874,0.9948,-0.04992,-0.01048,-0.23987,0.03168
0.07008,0.99713,-0.02867,0.05193,-0.27236,-0.01358
0.05511,0.99844,-0.00834,0.09643,-0.25656,-0.01795
0.04541,0.99892,0.00925,0.1901,-0.27469,0.04327
0.03983,0.9988,0.02818,0.15579,-0.30442,0.01891
0.03121,0.99833,0.04848,0.03691,-0.29568,-0.03567
0.02042,0.99767,0.06497,0.04572,-0.17521,-0.02647
0.01277,0.99673,0.07979,0.04544,-0.11074,-0.01146
0.00747,0.99568,0.09251,0.02508,-0.0997,-0.01548
0.00113,0.99488,0.10101,0.0085,-0.01958,-0.01317
-0.00581,0.9942,0.10735,0.03068,0.0072,-0.03255
-0.00816,0.9936,0.1126,0.05623,0.02062,-0.07036
-0.00627,0.99315,0.11661,0.27742,-0.00374,-0.0353
-0.00482,0.99287,0.11905,0.37062,-0.00873,-0.04594
-0.00543,0.99227,0.12398,0.332,0.08174,-0.06954
-0.00525,0.99113,0.13278,0.20114,0.29458,-0.11995
-0.00697,0.98978,0.14243,0.14957,0.42387,-0.13069
-0.01168,0.98872,0.14932,0.2044,0.23763,-0.05392
-0.01802,0.98817,0.15226,0.02993,0.15801,-0.13768
-0.02395,0.98733,0.15681,-0.01193,0.16814,-0.13054
-0.02898,0.98647,0.16136,-0.07356,0.21527,-0.14066
-0.03348,0.9863,0.16147,0.00492,0.24668,0.03804
-0.03656,0.98701,0.15642,0.02107,0.31594,0.05405
-0.03649,0.98841,0.14734,0.12566,0.48876,0.02837
-0.0292,0.99017,0.13677,-0.0843,0.29998,-0.02473
-0.01821,0.99227,0.12275,-0.18277,0.28956,0.03041
-0.00472,0.99486,0.1011,-0.06707,0.07997,-0.05449
0.01546,0.99757,0.06783,0.02867,-0.00729,-0.16988
0.04133,0.99869,0.03013,0.05799,-0.00243,-0.13163
0.07354,0.99726,-0.00778,0.06713,-0.00919,-0.09955
0.11039,0.99306,-0.04059,0.05298,-0.04373,-0.0227
0.15149,0.98578,-0.07261,0.00238,-0.13341,-0.05068
0.19185,0.97612,-0.10186,-0.07158,-0.16913,-0.02294
0.22377,0.96638,-0.12663,-0.06065,-0.27042,0.05336
0.24646,0.95735,-0.15077,-0.04542,-0.25826,0.01341
0.26198,0.94882,-0.17637,-0.06481,-0.1972,0.07891
0.27529,0.93894,-0.20642,0.00569,-0.23731,0.11047
0.28951,0.92644,-0.2406,0.00502,-0.26338,0.0867
0.31082,0.91037,-0.27316,-0.01729,-0.1907,0.05602
0.33593,0.89257,-0.30077,-0.08276,-0.21152,0.1052
0.35704,0.87685,-0.32193,-0.11425,-0.18882,0.11195
0.37139,0.86537,-0.33644,-0.1142,-0.17554,0.04578
0.37825,0.85935,-0.34415,-0.17328,-0.11977,-0.00678
0.38211,0.85646,-0.34708,-0.19835,-0.06157,-0.06112
0.38451,0.85581,-0.34603,-0.06075,-0.08014,-0.07657
0.38358,0.8577,-0.34235,0.01759,-0.0528,-0.01508
0.38006,0.86163,-0.33638,0.14236,0.01934,0.00146
0.37515,0.86759,-0.32641,0.28003,0.08959,-0.08239
0.37145,0.87558,-0.30883,0.37939,0.11093,-0.07928
0.36799,0.88564,-0.28325,0.31347,-0.0011,-0.09068
0.3561,0.89935,-0.25371,0.20109,0.56316,-0.04648
0.32983,0.91505,-0.23215,-0.03749,0.84815,-0.03087
0.30397,0.92885,-0.21174,-0.44151,0.32449,-0.07314
0.28329,0.93989,-0.19065,-0.18527,-0.01275,0.06791
0.25818,0.95086,-0.1709,-0.01993,-0.07622,0.11415
0.22995,0.96096,-0.15386,0.05829,-0.02796,0.05301
0.20208,0.96982,-0.13642,-0.02994,0.05211,0.10552
0.17381,0.97758,-0.11885,-0.09228,0.03974,0.1958
0.14773,0.9836,-0.10341,-0.04513,0.04879,0.137
0.12356,0.98844,-0.08782,-0.00091,-0.00274,0.08942
0.10014,0.99247,-0.07046,0.03922,-0.2021,0.06729
0.07923,0.99552,-0.05155,0.07432,-0.26557,0.08627
0.06145,0.99756,-0.03299,0.07612,-0.26415,0.04891
0.04772,0.99873,-0.01619,0.10563,-0.26334,0.02487
0.03815,0.99927,0.00029,0.13477,-0.26038,0.02215
0.03062,0.99933,0.02001,0.11173,-0.28415,0.0282
0.02266,0.99901,0.03806,0.10599,-0.24439,0.02728
0.01384,0.99868,0.04931,0.12558,-0.15014,0.00093
0.00617,0.99829,0.05806,0.09375,-0.13187,-0.03487
0.00126,0.99775,0.06704,0.07931,-0.08893,-0.02687
-0.00308,0.99721,0.07448,0.06747,-0.10494,-0.03273
-0.00801,0.99682,0.0793,0.10362,-0.073,-0.03711
-0.01209,0.99642,0.08363,0.17414,-0.07212,-0.10143
-0.01239,0.99582,0.09043,0.28199,-0.03513,-0.04578
-0.01008,0.99529,0.09633,0.34284,0.03211,0.00732
-0.00607,0.99506,0.09909,0.15806,0.09808,-0.08177
-0.0018,0.9947,0.1028,0.09935,0.16908,-0.07793
-0.0014,0.99375,0.11155,0.11789,0.20623,-0.0954
-0.00565,0.99284,0.11926,0.2178,0.20674,-0.12108
-0.01125,0.99211,0.12483,0.15687,0.22389,-0.12228
-0.01672,0.99148,0.12917,0.05488,0.27256,-0.10636
-0.02183,0.99086,0.13306,-0.02454,0.32963,-0.0506
-0.02607,0.99054,0.13469,0.02621,0.36082,0.0385
-0.02712,0.99082,0.13244,0.065,0.41455,0.03363
-0.02438,0.99143,0.12832,0.09548,0.45179,0.00554
-0.01856,0.99247,0.12107,-0.0083,0.25792,-0.05543
-0.00946,0.99445,0.10477,-0.02684,0.21243,-0.06699
0.00535,0.99675,0.08033,-0.04068,0.11905,-0.13033
0.02574,0.99831,0.05202,-0.02089,0.10731,-0.0456
0.05326,0.99838,0.01972,0.03216,0.07327,0.03213
0.08689,0.99611,-0.01421,0.08775,0.05218,-0.06563
0.12505,0.99129,-0.04132,0.03938,0.11937,-0.05463
0.16677,0.98362,-0.06833,-0.04514,0.15311,-0.01693
0.20548,0.97373,-0.0981,-0.18251,0.07432,0.00979
0.23266,0.96449,-0.12501,-0.17817,-0.09596,0.05895
0.25123,0.95641,-0.14884,-0.20381,-0.18529,0.07816
0.26613,0.94828,-0.17302,-0.19462,-0.26446,0.08162
0.27894,0.93899,-0.20122,-0.10174,-0.2748,0.09554
0.29279,0.92744,-0.23263,0.02254,-0.21587,0.11172
0.3127,0.91238,-0.26417,0.0239,-0.19628,0.1315
0.33458,0.89483,-0.29552,-0.03631,-0.30877,0.15512
0.35161,0.87795,-0.32491,-0.07986,-0.32548,0.18981
0.36398,0.86366,-0.34873,-0.11988,-0.30656,0.1936
0.37044,0.85386,-0.36564,-0.19143,-0.27692,0.09735
0.37384,0.84793,-0.37584,-0.18196,-0.18829,0.0359
0.37809,0.84407,-0.38024,-0.18229,-0.16431,-0.04084
0.37924,0.84319,-0.38106,-0.09406,-0.14589,-0.03887
0.3754,0.84575,-0.37918,0.10657,-0.10671,-0.03796
0.3691,0.85085,-0.37392,0.15912,-0.0536,-0.08179
0.3635,0.85843,-0.36188,0.18136,0.04731,-0.11076
0.36281,0.86578,-0.34466,0.27745,0.27935,-0.21679
0.36589,0.87172,-0.32593,0.33005,0.45934,-0.11371
0.36191,0.88077,-0.30539,0.32602,0.75787,-0.0153
0.34035,0.89519,-0.28775,-0.0732,0.84639,-0.07775
0.3126,0.91113,-0.26856,-0.35491,0.05584,0.06557
0.28387,0.92717,-0.2445,-0.18505,0.0721,0.07661
0.2595,0.94047,-0.21946,0.16353,0.23279,0.04662
0.23813,0.95143,-0.19512,-0.00695,-0.01575,0.10127
0.21505,0.96112,-0.17321,-0.02715,-0.08177,0.12916
0.19087,0.96942,-0.15421,0.00131,-0.01369,0.13961
0.16529,0.97671,-0.13675,0.02257,0.06244,0.13751
0.13915,0.98306,-0.11924,0.02753,0.04504,0.12328
0.11693,0.98823,-0.09865,0.02557,-0.10497,0.09131
0.09887,0.99235,-0.07384,0.04612,-0.24001,0.08281
0.08075,0.99557,-0.04822,0.04406,-0.27939,0.08469
0.0627,0.99767,-0.02669,0.0792,-0.30993,0.06545
0.04824,0.99879,-0.00961,0.05186,-0.36054,0.08418
0.03727,0.99927,0.00841,0.01185,-0.37018,0.046
0.02628,0.99929,0.02694,-0.01227,-0.31246,0.02453
0.01431,0.99911,0.03967,0.02541,-0.21176,-0.03483
0.00438,0.99881,0.04853,0.0692,-0.17898,-0.02978
-0.00313,0.99827,0.05866,0.1211,-0.13858,-0.02223
-0.01055,0.99765,0.06759,0.19815,0.00169,-0.05494
-0.0189,0.99696,0.07558,0.19341,0.01409,-0.04363
-0.02389,0.99636,0.08178,0.1987,-0.01025,-0.04426
-0.0246,0.99601,0.08575,0.26493,-0.04999,-0.03114
-0.02237,0.99588,0.08785,0.20975,-0.06875,-0.0233
-0.01746,0.99568,0.09114,0.19687,-0.06256,-0.01563
-0.01181,0.99548,0.0942,0.17215,-0.02185,-0.00876
-0.00279,0.99524,0.09739,0.12527,0.09152,-0.01214
0.00345,0.9946,0.10374,0.05853,0.21657,-0.01487
0.00382,0.99349,0.11383,0.05064,0.26164,-0.07727
-0.00083,0.99285,0.11933,0.09974,0.20718,-0.01421
-0.00803,0.99263,0.12086,0.13787,0.18535,-0.03177
-0.01505,0.99229,0.12298,0.12311,0.20107,-0.06497
-0.0207,0.9918,0.12606,0.12258,0.34706,0.05435
-0.02419,0.99146,0.12811,0.10207,0.37212,0.04601
-0.02568,0.99141,0.12824,0.03751,0.57489,0.03475
-0.02352,0.99196,0.12433,-0.05229,0.55467,0.0166
-0.01638,0.99322,0.1151,-0.09985,0.20866,-0.0149
-0.00451,0.99537,0.09594,-0.06202,0.23665,-0.16076
0.00893,0.9977,0.06715,-0.04981,0.17977,-0.18909
0.03113,0.99891,0.0347,0.05133,0.10062,-0.04593
0.0619,0.99808,-0.00234,0.11988,0.0459,-0.13525
0.10002,0.99424,-0.0385,0.05678,0.06324,-0.17915
0.14319,0.98729,-0.0689,-0.00598,0.07213,-0.08222
0.18758,0.97711,-0.10034,-0.13775,-0.03818,-0.10872
0.22196,0.96578,-0.13416,-0.17984,-0.11442,0.01425
0.24118,0.9563,-0.16528,-0.13159,-0.13448,0.16522
0.25475,0.94757,-0.1929,0.03798,-0.22429,0.11142
0.27365,0.93596,-0.22155,0.05211,-0.1639,0.00739
0.29867,0.91948,-0.25562,0.05778,-0.2152,0.0517
0.32185,0.89951,-0.29546,-0.01533,-0.34953,0.11421
0.34372,0.87737,-0.33478,-0.09963,-0.37445,0.20015
0.36377,0.85471,-0.37033,-0.16614,-0.23117,0.21821
0.37907,0.83476,-0.39934,-0.24954,-0.1321,0.19206
0.38909,0.8193,-0.42113,-0.28528,-0.13808,0.15842
0.39789,0.80817,-0.43421,-0.26421,-0.17348,0.07554
0.40639,0.79901,-0.4432,-0.23612,-0.22829,0.09747
0.41509,0.7919,-0.44787,-0.14872,-0.19327,0.08607
0.42364,0.78709,-0.44835,-0.10251,-0.25605,0.06668
0.42971,0.78547,-0.4454,0.01708,-0.26142,0.01737
0.43206,0.78739,-0.4397,0.12554,-0.24527,-0.10542
0.43218,0.79243,-0.43044,0.14808,-0.20434,-0.17313
0.43146,0.79898,-0.41889,0.15762,-0.10565,-0.17501
0.42938,0.80524,-0.40893,0.35123,0.0363,-0.25298
0.42302,0.812,-0.40213,0.46361,0.08749,-0.31302
0.42154,0.81738,-0.39267,0.52297,0.43506,-0.24403
0.42952,0.81674,-0.38529,0.29138,0.68683,-0.12448
0.42733,0.8216,-0.3773,0.10967,0.58219,-0.1079
0.4059,0.83484,-0.37187,0.02384,0.28691,-0.14802
0.38032,0.85227,-0.35916,-0.10174,0.09921,0.02599
0.35647,0.87196,-0.33559,-0.13747,0.11234,0.00281
0.33469,0.89211,-0.30351,-0.17541,0.08517,-0.03304
0.31668,0.91048,-0.26595,-0.23056,-0.0102,0.08921
0.30164,0.92641,-0.22533,-0.15871,-0.02216,0.09903
0.28531,0.94054,-0.18434,-0.08715,0.00737,0.11442
0.2622,0.95388,-0.14619,-0.08224,0.16768,0.06837
0.23497,0.96575,-0.11007,-0.06872,0.04881,0.08921
0.20921,0.97482,-0.07718,-0.0569,-0.04516,0.0744
0.18749,0.98106,-0.0486,-0.04383,-0.21722,0.11322
0.16753,0.98557,-0.02396,-0.03077,-0.25942,0.05613
0.14555,0.98934,-0.00397,-0.02531,-0.29203,0.01736
0.12398,0.99219,0.0134,-0.0233,-0.32375,-0.0229
0.10612,0.99385,0.03157,-0.02657,-0.31777,-0.00098
0.09241,0.9943,0.05307,-0.04424,-0.17874,0.04604
0.0816,0.99379,0.0757,-0.018,-0.1262,0.03821
0.07274,0.99258,0.09742,-0.02849,-0.08926,0.07919
0.06487,0.99109,0.11631,-0.11466,-0.07259,0.04508
0.05691,0.98983,0.13039,-0.17313,-0.09516,0.00299
0.04938,0.9885,0.14291,-0.20667,-0.10432,-0.01923
0.04385,0.98658,0.15724,-0.19249,-0.08194,0.02621
0.03962,0.9845,0.17087,-0.11116,-0.01337,0.08968
0.03661,0.98267,0.18169,-0.03469,0.06301,0.04695
0.0326,0.98084,0.19205,0.01409,0.00562,-0.02499
0.02696,0.97884,0.20284,0.03156,0.00851,-0.0362
0.0197,0.97742,0.21038,0.01215,-0.0255,-0.08276
0.01164,0.97658,0.21483,0.07097,-0.02393,-0.1363
0.0042,0.9754,0.22037,0.08694,-0.01039,-0.13706
-0.00202,0.9741,0.22611,0.11203,0.00436,-0.19494
-0.00812,0.9729,0.23109,0.13801,-0.04043,-0.1793
-0.01536,0.97193,0.23474,0.14814,0.04795,-0.21283
-0.02239,0.97121,0.23717,0.02066,-0.05232,-0.13878
-0.02893,0.97147,0.23536,0.06351,-0.10975,-0.09959
-0.03576,0.97234,0.23083,0.19141,-0.04654,-0.13169
-0.04324,0.97254,0.22868,0.23643,-0.10091,-0.03921
-0.04922,0.97193,0.23005,0.34063,-0.15574,-0.15771
-0.05376,0.97087,0.2335,0.42057,0.15563,-0.27583
-0.05487,0.969,0.24089,0.28386,0.19148,-0.07352
-0.05201,0.96766,0.24683,0.21885,0.27108,-0.14759
-0.0429,0.96772,0.24833,0.09312,0.24598,0.10967
-0.02669,0.9694,0.24401,0.1497,0.2137,0.18713
-0.00294,0.97249,0.2329,-0.15512,0.11209,0.20773
0.02857,0.97493,0.22066,-0.42213,0.0244,0.24864
0.05958,0.9766,0.20664,-0.60793,0.12985,0.03357
0.08422,0.97919,0.18462,-0.65294,0.53585,0.0957
0.10275,0.98285,0.1531,-0.40935,0.65417,-0.04365
0.12261,0.98568,0.11578,-0.16712,0.58596,-0.05609
0.14458,0.9868,0.07293,0.00745,0.41879,-0.03891
0.16619,0.98533,0.0387,0.3134,-0.0619,-0.03116
0.18688,0.98231,0.01211,0.27105,-0.03847,-0.04166
0.20568,0.97842,-0.0199,0.17662,-0.00593,-0.04869
0.22533,0.97298,-0.0504,-0.08924,-0.03496,-0.01904
0.24478,0.96634,-0.07922,-0.10597,-0.09928,0.06796
0.2608,0.95939,-0.10743,-0.13655,-0.13856,0.10988
0.26983,0.95367,-0.13301,-0.24158,-0.26004,0.09801
0.2721,0.94951,-0.15613,-0.23524,-0.26736,0.11374
0.27138,0.94656,-0.17428,-0.20373,-0.33904,0.06706
0.27202,0.94429,-0.18526,-0.17535,-0.34437,0.05698
0.27089,0.94314,-0.1926,-0.11998,-0.28206,0.03948
0.26446,0.94412,-0.19673,-0.03997,-0.23002,0.01569
0.25239,0.94787,-0.19452,-0.01307,-0.22135,-0.00662
0.23769,0.9538,-0.18372,0.07163,-0.23557,-0.03959
0.22234,0.9609,-0.16505,0.12999,-0.35634,-0.22394
0.20342,0.96864,-0.14269,0.16236,-0.38688,-0.27253
0.17938,0.97605,-0.1231,0.20531,-0.16972,-0.19869
0.15783,0.981,-0.1128,0.24222,0.72309,-0.06294
0.15955,0.98098,-0.1105,0.11105,0.80191,-0.12723
0.17897,0.97709,-0.11517,0.13815,0.32354,-0.45946
0.20592,0.97125,-0.11944,-0.01767,0.67806,-0.44003
0.22929,0.96512,-0.12635,-0.11588,0.75193,0.113
0.24184,0.96143,-0.13099,-0.41263,0.5113,0.1324
0.24536,0.96175,-0.12179,-0.56929,-0.10692,0.21472
0.24606,0.9637,-0.10356,-0.3453,-0.34576,0.15056
0.23694,0.9664,-0.0996,-0.26295,-0.21564,0.07048
0.2205,0.96944,-0.1075,-0.19866,0.15524,0.30574
0.20103,0.97399,-0.10451,-0.31628,0.13566,0.37118
0.18527,0.979,-0.08501,-0.4638,0.04897,0.27696
0.17455,0.98315,-0.05416,-0.47143,0.0372,0.16165
0.16655,0.98563,-0.02803,-0.28412,0.05779,0.07612
0.15935,0.98718,-0.00911,-0.07307,-0.08679,0.1614
0.15572,0.98775,0.00935,-0.02668,-0.15928,0.25253
0.15711,0.98702,0.03328,0.01791,-0.1061,0.22542
0.15599,0.98571,0.06362,-0.00674,-0.00736,0.09434
0.14774,0.9847,0.09235,-0.06406,0.04939,0.01037
0.13838,0.98391,0.11295,0.03026,0.02452,0.01713
0.13375,0.9827,0.12807,0.03489,0.02574,0.00201
0.13106,0.98125,0.14134,0.18415,-0.08058,-0.18218
0.12612,0.98012,0.15313,0.06646,-0.11793,-0.22739
0.12047,0.9792,0.16323,0.07472,-0.21764,-0.1805
0.1163,0.9784,0.1709,0.25459,-0.13948,-0.23863
0.11113,0.97799,0.1766,0.27323,0.01216,-0.27088
0.10299,0.97803,0.18121,0.06308,0.05604,-0.23243
0.09348,0.9788,0.1822,0.07005,0.04569,-0.17309
0.08108,0.98033,0.17994,0.20092,-0.01808,-0.15336
0.067,0.98176,0.17791,0.37781,-0.03091,-0.12057
0.05497,0.98241,0.17844,0.36454,-0.06299,-0.06496
0.04739,0.98258,0.17969,0.17957,0.02835,-0.06341
0.04363,0.98249,0.18111,0.08647,0.08626,-0.12437
0.04289,0.98186,0.18466,0.00119,0.14627,-0.11786
0.04788,0.9813,0.18643,-0.19267,0.39233,0.07924
0.06012,0.98158,0.18133,-0.27814,0.11053,0.20169
0.08083,0.98263,0.16702,-0.4444,-0.01059,0.22647
0.10853,0.98352,0.1446,-0.59794,-0.07877,0.16471
0.1388,0.98362,0.11502,-0.66286,0.03006,0.09767
0.16983,0.98249,0.07665,-0.6904,0.57594,-0.16544
0.20327,0.97843,0.03676,-0.53728,0.78439,-0.22626
0.23057,0.97305,0.00195,0.00347,0.60603,-0.11762
0.26163,0.96466,-0.03114,0.3953,0.21025,0.01027
0.30279,0.95135,-0.05706,0.35729,0.18078,-0.11767
0.34593,0.93454,-0.08343,-0.00166,0.0343,-0.18655
0.38002,0.91739,-0.11823,-0.08281,0.08815,-0.16616
0.40709,0.89896,-0.16168,-0.08468,0.27536,-0.08749
0.43448,0.87637,-0.20786,-0.24133,0.06005,0.06531
0.45745,0.85214,-0.25417,-0.3247,-0.12867,0.0428
0.47321,0.82993,-0.29545,-0.23931,-0.37186,0.17107
0.48536,0.8093,-0.33085,-0.14443,-0.44931,0.15002
0.49338,0.79229,-0.35896,-0.05944,-0.31377,0.05925
0.49847,0.77992,-0.37848,-0.10414,-0.23183,0.06281
0.50249,0.77127,-0.3907,-0.23602,-0.17294,0.03912
0.50255,0.7662,-0.40047,-0.23981,-0.25632,0.01672
0.49945,0.76521,-0.4062,-0.20349,-0.28119,0.00664
0.49437,0.76781,-0.40751,-0.10844,-0.17403,-0.07835
0.49001,0.77253,-0.40384,-0.05377,-0.05578,-0.12551
0.48629,0.77892,-0.39598,0.06524,0.16181,-0.18334
0.48369,0.78538,-0.38629,0.2592,0.35801,-0.21976
0.48496,0.79134,-0.37228,0.31601,0.17476,-0.13048
0.4828,0.80563,-0.34331,-0.09034,0.49292,0.04868
0.46389,0.8274,-0.31657,-0.08293,1.13869,-0.18812
0.43636,0.84728,-0.30283,-0.68073,1.0663,0.04981
0.42024,0.86385,-0.27779,-0.29988,-0.02479,0.10643
0.40066,0.88008,-0.2548,-0.19721,-0.04908,0.10228
0.37237,0.89935,-0.22916,-0.03122,0.07949,0.15587
0.34275,0.91595,-0.20868,-0.14564,0.13121,0.22147
0.30889,0.93202,-0.18951,-0.20573,0.1004,0.25085
0.27746,0.94525,-0.1718,-0.25584,0.09943,0.22498
0.25185,0.95574,-0.1521,-0.13478,-0.05976,0.0491
0.23013,0.9644,-0.1303,-0.00993,-0.16351,0.00522
0.21031,0.97146,-0.10969,0.07134,-0.23594,0.01786
0.19363,0.97742,-0.08455,0.10532,-0.28943,0.07927
0.18046,0.98212,-0.0535,0.11528,-0.25999,0.07259
0.16936,0.98522,-0.02559,0.10693,-0.23145,0.05987
0.15999,0.98709,-0.00746,0.12012,-0.18393,-0.01098
0.15226,0.98832,0.00683,0.02023,-0.19788,-0.06587
0.14304,0.98944,0.02328,-0.07055,-0.2168,-0.10088
0.13265,0.99036,0.03982,-0.12632,-0.18543,-0.0594
0.12351,0.99097,0.05207,-0.01026,-0.11106,-0.05616
0.11676,0.99124,0.06169,0.16052,-0.12312,-0.11259
0.11185,0.99099,0.07364,0.16656,-0.1758,-0.05457
0.10968,0.99044,0.08366,0.17103,-0.11228,-0.01866
0.10959,0.99021,0.08638,0.12914,-0.02011,-0.05762
0.11208,0.98942,0.09209,0.12055,7e-05,0.06308
0.11635,0.98826,0.09898,0.10446,-0.00419,-0.06323
0.11751,0.98751,0.10494,0.0847,0.23821,-0.17078
0.11235,0.98716,0.1135,0.17975,0.28342,-0.0334
0.10602,0.98695,0.12121,0.02598,0.22241,-0.14977
0.09982,0.98653,0.12957,-0.10145,0.27024,-0.06882
0.0928,0.98596,0.13878,-0.15784,0.35924,0.06981
0.08607,0.98579,0.14422,-0.17155,0.41164,0.08849
0.08436,0.98549,0.14724,-0.13016,0.72,0.03513
0.08947,0.98462,0.15002,-0.12338,0.34823,0.12093
0.09607,0.9849,0.14397,-0.13127,0.15943,0.14345
0.1078,0.98633,0.12458,-0.14267,0.06645,-0.01174
0.12367,0.98782,0.09436,-0.15677,0.20917,-0.13414
0.14362,0.98771,0.06166,-0.00794,0.11106,-0.08652
0.16808,0.98541,0.02666,0.04049,0.07218,-0.13702
0.19982,0.97979,-0.00907,-0.02232,0.09873,-0.10487
0.23767,0.97036,-0.04363,-0.13599,0.08193,-0.07686
0.2761,0.95812,-0.07594,-0.21253,0.00755,0.04592
0.30815,0.94539,-0.10615,-0.19608,-0.07612,0.03954
0.33068,0.93413,-0.13433,-0.14138,-0.10972,-0.03029
0.34814,0.92375,-0.1596,-0.10687,-0.06299,0.00285
0.36453,0.91216,-0.18729,-0.07667,-0.0004,0.04646
0.38357,0.89718,-0.21893,-0.13678,-0.11059,0.01226
0.40267,0.88046,-0.25028,-0.13936,-0.19411,0.091
0.42314,0.86143,-0.28087,-0.12325,-0.23104,0.13903
0.44189,0.8415,-0.31083,-0.15702,-0.32823,0.16643
0.45466,0.82494,-0.3358,-0.1638,-0.38,0.1492
0.46264,0.81327,-0.35293,-0.18284,-0.32868,0.11291
0.46674,0.80629,-0.36339,-0.17806,-0.19427,0.0802
0.47088,0.80174,-0.36808,-0.27637,-0.1146,-0.0163
0.47571,0.79818,-0.36959,-0.32657,-0.15527,-0.03727
0.4741,0.79772,-0.37265,-0.16851,-0.09287,0.02285
0.46637,0.80219,-0.37282,0.02782,-0.00797,-0.00651
0.45728,0.81133,-0.3642,0.14182,0.07535,-0.05933
0.45304,0.82181,-0.34551,0.23949,0.31734,-0.21424
0.45558,0.82944,-0.32323,0.31613,0.3802,-0.19659
0.45034,0.84151,-0.29841,0.15888,0.39329,-0.05077
0.4259,0.86023,-0.28037,0.11906,1.0296,0.05744
0.39218,0.88207,-0.26106,-0.61445,0.26494,-0.08478
0.36934,0.89917,-0.23467,-0.33012,0.0458,0.05287
0.34938,0.9129,-0.21106,0.05411,-0.07617,0.08014
0.32636,0.92489,-0.19511,-0.00887,-0.10935,0.13016
0.30045,0.93698,-0.17831,-0.02703,-0.08317,0.17381
0.27402,0.94791,-0.16241,-0.05447,0.01069,0.19822
0.24823,0.95724,-0.14857,-0.1245,0.06409,0.12994
0.22553,0.96496,-0.13413,-0.09575,0.01427,0.08767
0.20791,0.97108,-0.11737,-0.05595,-0.15112,0.05506
0.1923,0.97653,-0.09695,-0.03936,-0.20038,0.07673
0.17701,0.98144,-0.07379,-0.00834,-0.16944,0.07469
0.16296,0.98525,-0.05209,0.06891,-0.13494,0.09281
0.15092,0.98795,-0.03432,0.04711,-0.18425,0.06657
0.13969,0.99004,-0.01764,-0.0206,-0.23796,0.02602
0.12746,0.99184,0.00133,-0.05736,-0.23902,0.02823
0.11299,0.99341,0.01922,-0.07186,-0.22221,0.03558
0.09997,0.99448,0.03185,-0.08471,-0.17835,-0.03481
0.09106,0.99492,0.04277,-0.05534,-0.17249,-0.06415
0.08515,0.99482,0.05547,0.06832,-0.15873,-0.08351
0.08059,0.99446,0.0675,0.1509,-0.09556,-0.0234
0.07648,0.9942,0.07553,0.1745,-0.05056,-0.12135
0.07422,0.9937,0.08389,0.17852,-0.08726,-0.00443
0.0747,0.99278,0.09379,0.24903,-0.017,-0.05273
0.07426,0.99246,0.09753,0.13172,0.00017,-0.19406
0.07454,0.99193,0.10256,0.14558,0.06844,-0.06939
0.07692,0.99095,0.11,0.0809,0.16397,-0.03989
0.07652,0.99021,0.11673,0.02498,0.3469,-0.0606
0.07227,0.99002,0.12099,-0.00129,0.36437,-0.0209
0.06617,0.99017,0.12321,-0.08868,0.34851,-0.00755
0.06008,0.99041,0.12441,-0.09118,0.31581,0.01734
0.05723,0.99076,0.12295,0.02002,0.35075,0.1128
0.05887,0.9913,0.1177,0.01867,0.48506,0.0122
0.06518,0.99171,0.11069,0.05106,0.56635,-0.01856
0.07488,0.99242,0.09741,-0.01829,0.33128,-0.12952
0.0899,0.99313,0.07493,-0.04307,0.16219,-0.21782
0.10994,0.99275,0.04849,-0.01657,0.07138,-0.11786
0.13928,0.99009,0.01779,0.01416,-0.00041,-0.04193
0.17364,0.9847,-0.01454,0.04135,-0.03124,-0.01776
0.21163,0.97642,-0.04257,0.01782,0.03481,-0.15122
0.25421,0.96478,-0.06763,-0.04513,0.1135,-0.05008
0.29524,0.95076,-0.09429,-0.17853,0.07798,-0.03854
0.32731,0.93767,-0.11677,-0.27478,0.01518,0.13183
0.34758,0.92738,-0.1384,-0.20315,-0.09318,0.08123
0.36269,0.91831,-0.15861,-0.19802,-0.11864,0.0727
0.37833,0.90797,-0.18014,-0.19336,-0.11629,0.03728
0.39291,0.89563,-0.20849,-0.09372,-0.16406,0.07987
0.40686,0.88099,-0.24148,-0.06453,-0.14969,0.11459
0.42258,0.86447,-0.27225,-0.09415,-0.18673,0.10774
0.43802,0.8482,-0.29781,-0.1987,-0.22026,0.11898
0.44993,0.83343,-0.32087,-0.24891,-0.21296,0.12843
0.45758,0.82185,-0.3394,-0.30001,-0.29133,0.08412
0.46196,0.81419,-0.3517,-0.28277,-0.25086,-7e-05
0.46275,0.81018,-0.35982,-0.19589,-0.22992,-0.07052
0.46167,0.80948,-0.36277,-0.05037,-0.15111,-0.06964
0.45984,0.81099,-0.36171,0.10443,-0.09531,-0.05273
0.45377,0.81571,-0.35875,0.18013,-0.05993,-0.05586
0.44357,0.82381,-0.35297,0.34143,0.20639,-0.10623
0.43672,0.83145,-0.34345,0.35356,0.27571,-0.02467
0.4332,0.8383,-0.33106,0.09367,0.12795,0.06433
0.41913,0.85186,-0.31412,-0.08873,0.78185,0.07909
0.39438,0.86744,-0.30334,-0.57266,0.68255,0.12253
0.37128,0.88532,-0.27993,-0.71088,0.31446,0.15095
0.35037,0.90144,-0.25427,-0.25048,-0.04818,0.10495
0.32624,0.91715,-0.22892,-0.12238,0.22598,0.09604
0.30139,0.9315,-0.20363,-0.07016,0.33374,0.19492
0.28118,0.94306,-0.17768,-0.07878,0.1003,0.17505
0.26716,0.95063,-0.15792,-0.04529,0.00396,0.08243
0.2519,0.9575,-0.14047,-0.05345,-0.01437,0.0904
0.23291,0.96462,-0.12352,0.01679,0.05289,0.0755
0.21329,0.97098,-0.10819,0.06753,0.02974,0.08697
0.19531,0.97653,-0.09073,0.08168,-0.10033,0.05417
0.17742,0.98166,-0.06977,0.06653,-0.13479,0.03186
0.15983,0.98585,-0.05061,0.10871,-0.14977,0.03611
0.14549,0.98876,-0.03438,0.02826,-0.25242,0.04431
0.13555,0.99066,-0.01481,-0.00267,-0.27154,0.01784
0.12605,0.99198,0.00914,-0.04605,-0.27058,0.00023
0.11364,0.99308,0.02973,-0.06033,-0.25756,0.0554
0.10255,0.99372,0.04469,-0.03619,-0.23687,0.00731
0.0949,0.99383,0.05744,-0.04717,-0.22796,-0.04493
0.08851,0.99355,0.07094,-0.03335,-0.16577,0.03181
0.08271,0.9931,0.08315,-0.02046,-0.13116,0.01839
0.07897,0.99284,0.08968,-0.00231,-0.07473,-0.06046
0.07643,0.99262,0.09414,0.12253,-0.0391,-0.0058
0.07705,0.99175,0.10246,0.15424,-0.00678,0.0905
0.08118,0.99071,0.10914,0.18275,0.02841,0.05783
0.08176,0.99021,0.11315,0.08986,0.14788,-0.17822
0.07774,0.98966,0.12053,0.14385,0.14875,-0.14438
0.0727,0.98904,0.12853,0.1958,0.15185,-0.10291
0.06735,0.98826,0.13711,0.09574,0.25154,-0.08321
0.06161,0.98706,0.14804,-0.08273,0.30869,-0.05622
0.05762,0.98575,0.15804,-0.18509,0.32098,0.09166
0.05628,0.98536,0.16094,-0.221,0.42581,0.05148
0.05794,0.98603,0.15616,-0.1057,0.54997,0.01064
0.06273,0.98698,0.14809,0.01709,0.40648,-0.00074
0.06954,0.9884,0.13502,-0.04038,0.12806,-0.03344
0.07958,0.99063,0.11101,-0.08814,0.11965,-0.0656
0.09627,0.99232,0.07766,-0.08147,0.10798,-0.13837
0.11932,0.99181,0.04551,-0.06468,0.08006,-0.05828
0.14652,0.98911,0.01355,-0.01086,0.02665,-0.02922
0.1807,0.98336,-0.01866,0.02631,0.04929,-0.10555
0.22142,0.97395,-0.04888,-0.01594,0.0947,-0.09354
0.26511,0.96114,-0.07697,-0.09558,0.18664,-0.07172
0.30074,0.94775,-0.10643,-0.27161,0.01856,-0.01312
0.32403,0.93647,-0.1343,-0.21663,-0.0376,0.03915
0.34356,0.92527,-0.16076,-0.13897,-0.11893,0.07466
0.36345,0.91192,-0.19052,-0.10547,-0.16359,0.05508
0.38337,0.89585,-0.22467,-0.03207,-0.17902,0.041
0.40344,0.87684,-0.2615,-0.06715,-0.19398,0.09863
0.42173,0.8573,-0.29525,-0.12327,-0.28774,0.16942
0.44052,0.83768,-0.32285,-0.21856,-0.37032,0.1688
0.45662,0.82039,-0.34417,-0.23233,-0.39885,0.17308
0.46533,0.80811,-0.36114,-0.28739,-0.40415,0.16417
0.46887,0.80043,-0.37346,-0.37701,-0.3544,0.08754
0.47281,0.79457,-0.38094,-0.36871,-0.23668,0.02757
0.47684,0.78982,-0.38576,-0.22409,-0.15513,0.00354
0.47904,0.7877,-0.38736,-0.04581,-0.10075,-0.0044
0.48001,0.78869,-0.38414,0.1337,-0.06922,-0.04794
0.48018,0.79377,-0.3733,0.14364,0.14648,-0.16927
0.48151,0.80044,-0.35699,0.35286,0.47458,-0.25938
0.48284,0.80644,-0.34135,0.42228,0.47782,-0.26456
0.47849,0.81804,-0.31916,0.20358,0.5124,-0.01751
0.45677,0.83771,-0.29933,-0.37668,0.75836,0.01304
0.42072,0.86358,-0.27788,-0.56937,0.4401,-0.03886
0.38866,0.88657,-0.25085,-0.53957,0.31123,-0.09709
0.36802,0.90224,-0.22476,0.06013,0.00748,0.16177
0.35008,0.9148,-0.20145,-0.00286,-0.13047,0.1401
0.32772,0.92707,-0.18203,-0.06211,-0.20292,0.11799
0.30374,0.9385,-0.16418,-0.09146,-0.07003,0.17668
0.27929,0.94832,-0.15064,-0.07328,-0.0139,0.16236
0.25452,0.95698,-0.13933,-0.0541,0.04022,0.14205
0.23384,0.96434,-0.12397,-0.03602,0.09543,0.08242
0.21884,0.97029,-0.10317,-0.00908,-0.11996,0.09559
0.20578,0.97526,-0.08076,0.01733,-0.20207,0.08754
0.19161,0.97954,-0.06146,0.08926,-0.23792,0.04283
0.17653,0.98319,-0.04654,0.13675,-0.16865,0.06767
0.16225,0.98628,-0.03038,-0.01364,-0.25636,0.04085
0.15002,0.98861,-0.01142,-0.09193,-0.27701,0.03696
0.13793,0.99043,0.00511,-0.08994,-0.2891,0.03292
0.12677,0.9918,0.01633,-0.13741,-0.27295,-0.02611
0.11793,0.99264,0.02734,-0.11922,-0.26109,-0.06439
0.11266,0.99279,0.04092,-0.03513,-0.25855,-0.03488
0.11083,0.99245,0.0524,0.05837,-0.17489,-0.06171
0.10944,0.99232,0.05757,0.09488,-0.02363,-0.0931
0.10755,0.99224,0.06236,0.12388,-5e-05,-0.05644
0.10784,0.99211,0.06383,0.12843,-0.01613,-0.15419
0.11212,0.99166,0.06348,0.10501,-0.00301,-0.21466
0.11676,0.99081,0.06829,0.11392,0.02915,-0.0842
0.11893,0.99002,0.07554,0.10824,0.16,-0.01126
0.11792,0.98981,0.07982,0.03861,0.18471,-0.01039
0.11426,0.98966,0.08667,0.00471,0.19427,-0.00491
0.10866,0.98951,0.09519,-0.13202,0.4015,-0.03282
0.10044,0.98932,0.10558,-0.06141,0.45021,0.02609
0.09186,0.9889,0.1168,0.08555,0.43006,0.10659
0.08521,0.98857,0.12437,0.11995,0.48952,0.08481
0.0817,0.98833,0.12857,0.11221,0.71419,-0.01608
0.08142,0.98808,0.1306,0.00543,0.52216,-0.00427
0.08612,0.98825,0.12624,-0.15097,0.2269,-0.04015
0.09528,0.98944,0.10923,-0.2319,0.04104,-0.10719
0.10924,0.99067,0.08144,-0.12565,0.04955,-0.1678
0.13075,0.99013,0.05038,0.07722,0.09069,-0.10666
0.16106,0.98678,0.01806,0.16138,0.16221,-0.12594
0.20141,0.97941,-0.01348,0.06114,0.24143,-0.14053
0.24388,0.9688,-0.04421,-0.1612,0.20734,-0.12156
0.28171,0.95656,-0.07507,-0.31752,0.05869,-0.04268
0.30745,0.94554,-0.10686,-0.33548,-0.07391,0.01428
0.32114,0.93688,-0.13827,-0.22212,-0.18058,0.03848
0.33053,0.92877,-0.16774,-0.18628,-0.2566,0.11796
0.34246,0.91849,-0.19772,-0.09288,-0.24449,0.16778
0.35938,0.90357,-0.23326,-0.1048,-0.26294,0.06874
0.3794,0.88516,-0.26935,-0.20687,-0.33207,0.04398
0.39709,0.86553,-0.30525,-0.22314,-0.29125,0.15829
0.41396,0.84398,-0.34109,-0.19085,-0.28598,0.18993
0.42856,0.82373,-0.37121,-0.13531,-0.24581,0.19017
0.43808,0.80893,-0.39206,-0.1141,-0.25504,0.11295
0.4432,0.7995,-0.40543,-0.2309,-0.18832,0.02422
0.44517,0.79268,-0.41651,-0.28916,-0.20529,0.00685
0.44668,0.78848,-0.42281,-0.26811,-0.20857,-0.00881
0.44778,0.78671,-0.42495,-0.00032,-0.17333,-0.09012
0.44788,0.78727,-0.4238,0.05612,-0.14638,-0.09129
0.44682,0.79086,-0.4182,0.07569,-0.04463,-0.1062
0.44486,0.79693,-0.40866,0.16691,0.21871,-0.21129
0.44322,0.8029,-0.39863,0.25785,0.29407,-0.24253
0.44629,0.80644,-0.3879,0.17573,0.24577,-0.21
0.44622,0.81456,-0.37065,0.09191,0.91962,0.06943
0.4234,0.83329,-0.35547,-0.46445,0.33996,-0.05699
0.39208,0.85521,-0.33894,-0.21015,0.20032,0.03116
0.36427,0.8769,-0.31361,-0.06185,0.23904,0.02863
0.33756,0.89745,-0.28396,-0.05466,0.51562,0.08849
0.3121,0.91539,-0.25428,-0.05494,0.24331,0.20121
0.29248,0.92843,-0.22908,-0.08833,-0.10471,0.1637
0.27215,0.94006,-0.20546,-0.05348,-0.08583,0.19011
0.2522,0.95007,-0.18375,-0.01804,-0.05149,0.17025
0.23006,0.95924,-0.16412,-0.04459,-0.0007,0.15859
0.20664,0.96797,-0.14259,-0.01867,-0.00537,0.14007
0.18846,0.97525,-0.11558,-0.00701,-0.07039,0.09674
0.17489,0.98086,-0.08553,0.02961,-0.16826,0.04749
0.16176,0.98528,-0.05527,0.03846,-0.20762,0.0219
0.15033,0.98825,-0.02753,0.06169,-0.34048,0.06657
0.14104,0.99,-0.00382,0.06294,-0.37207,0.07152
0.12989,0.99136,0.01806,-0.08625,-0.3482,-0.01873
0.11522,0.99261,0.03791,-0.15244,-0.24287,-0.06588
0.10173,0.99328,0.05526,-0.09978,-0.19948,-0.0279
0.09295,0.99311,0.07131,-0.05343,-0.18075,-0.01429
0.0874,0.99251,0.08536,-0.01558,-0.06587,-0.03152
0.08294,0.99173,0.09788,0.05051,-0.02727,-0.06095
0.08285,0.99064,0.10844,0.08521,-0.05919,-0.09214
0.08592,0.9895,0.11621,0.13551,-0.05353,-0.10351
0.09039,0.98846,0.12155,0.18943,-0.04321,-0.09199
0.0951,0.98728,0.12738,0.17807,-0.07806,-0.04779
0.09941,0.98615,0.13278,0.1007,-0.14195,-0.05839
0.10523,0.98509,0.13607,0.05387,-0.0621,-0.12845
0.11267,0.98425,0.1362,0.01632,-0.0217,-0.02933
0.11955,0.98342,0.13634,0.00092,-0.02675,-0.00256
0.12607,0.98324,0.13167,0.08317,-0.05734,-0.02599
0.13086,0.98349,0.12499,0.00674,0.12898,-0.18135
0.13267,0.98389,0.11984,-0.05632,0.22603,-0.08355
0.13059,0.9844,0.11789,-0.02729,0.21569,0.01185
0.12464,0.98493,0.11987,0.03993,0.15134,-0.00868
0.11381,0.98497,0.12994,-0.01319,0.26093,-0.04646
0.09929,0.98451,0.14445,-0.07294,0.42364,-0.08589
0.08151,0.9832,0.16328,0.1102,0.49417,0.00724
0.05851,0.98114,0.18424,0.23412,0.51522,-0.03244
0.03626,0.97807,0.20508,0.3249,0.48706,-0.02739
0.01222,0.97498,0.22196,0.03452,0.39847,-0.14441
-0.01608,0.97167,0.23576,-0.02174,0.36647,-0.09767
-0.04292,0.96798,0.24732,-0.00986,0.32496,-0.05617
-0.0638,0.96498,0.25444,-0.01373,0.09796,-0.01642
-0.07575,0.96282,0.2593,-0.01797,0.10954,-0.05021
-0.07866,0.96159,0.26296,-0.01918,0.11988,-0.06731
-0.07243,0.9629,0.25993,0.16751,-0.23533,-0.12084
-0.05367,0.96684,0.24966,0.1875,-0.33705,-0.14561
-0.02337,0.9715,0.23586,0.02108,-0.23192,-0.13952
0.01435,0.97561,0.21902,-0.09008,-0.11483,-0.10936
0.05142,0.97937,0.19538,-0.22556,0.2348,-0.09538
0.07938,0.98307,0.1651,-0.40636,0.28322,-0.22489
0.10028,0.98596,0.13349,-0.47097,0.15702,-0.14264
0.11535,0.98798,0.1029,-0.42467,-0.06655,0.15577
0.12138,0.99004,0.07127,-0.16535,-0.29514,0.10799
0.12468,0.99114,0.04568,-0.069,-0.31783,0.07694
0.13783,0.99023,0.02115,-0.02661,-0.22887,0.08475
0.16172,0.98681,-0.0072,-0.19188,-0.17409,0.01247
0.18693,0.98172,-0.03569,-0.346,-0.17204,0.01277
0.20511,0.97656,-0.06528,-0.33911,-0.16924,0.06892
0.21878,0.97109,-0.09549,-0.21132,-0.17722,0.09187
0.23282,0.96472,-0.12291,-0.0734,-0.09271,0.07974
0.25195,0.95683,-0.14488,-0.00682,-0.07106,0.04179
0.27194,0.94836,-0.16325,-0.00748,-0.12628,0.05086
0.28622,0.9411,-0.17999,-0.03674,-0.22571,0.03719
0.29096,0.93707,-0.19298,-0.15075,-0.31565,0.02239
0.28495,0.93772,-0.1987,-0.20293,-0.31045,0.00248
0.2711,0.94254,-0.19523,-0.15442,-0.34856,-0.04095
0.25203,0.95037,-0.18242,-0.07413,-0.36377,-0.06369
0.23045,0.95964,-0.1612,0.04627,-0.3208,-0.12497
0.20715,0.96864,-0.13721,0.10745,-0.19292,-0.19267
0.18567,0.97579,-0.11555,0.16986,-0.06594,-0.22583
0.17039,0.98002,-0.10261,0.14993,0.30554,-0.20033
0.17217,0.97989,-0.10082,0.09695,0.56402,-0.32571
0.19289,0.97532,-0.10739,0.03549,0.37624,-0.42182
0.22137,0.96891,-0.11042,-0.08325,0.29868,-0.50564
0.24173,0.964,-0.11077,-0.27596,0.12513,0.0145
0.25635,0.96084,-0.10515,-0.29057,0.12828,0.00888
0.26348,0.96035,-0.09115,-0.22835,-0.03398,-0.10623
0.26497,0.96141,-0.07394,-0.20846,-0.11736,0.06397
0.26222,0.96295,-0.06297,-0.24017,-0.10899,0.08734
0.2581,0.96426,-0.05984,-0.26335,0.00725,0.12832
0.25445,0.96544,-0.05641,-0.31426,-0.01985,0.29478
0.24853,0.96747,-0.04722,-0.30834,-0.02188,0.28559
0.23927,0.97044,-0.03148,-0.47337,0.10012,0.14588
0.23178,0.97273,-0.00814,-0.48944,0.10442,0.08839
0.22994,0.97306,0.01651,-0.29725,-0.00406,0.12451
0.23086,0.97211,0.04124,-0.25302,-0.06853,0.20641
0.23143,0.9705,0.06748,-0.20444,-0.04185,0.20569
0.22981,0.96853,0.09553,-0.21583,0.02831,0.16628
0.22318,0.96695,0.1232,-0.28083,0.00935,0.14152
0.21381,0.96561,0.1479,-0.21538,-0.02294,0.12926
0.20485,0.96377,0.1708,-0.20642,-0.0211,0.10636
0.19852,0.9613,0.191,0.03132,-0.02395,-0.03016
0.19323,0.95905,0.20704,0.03983,-0.0342,-0.11585
0.18731,0.95696,0.22167,0.05192,-0.03308,-0.12537
0.18129,0.95491,0.23509,0.09653,0.01666,-0.15715
0.17523,0.95321,0.24632,0.1122,0.02378,-0.199
0.16704,0.95222,0.25564,0.09141,0.03442,-0.27514
0.15726,0.95221,0.26183,0.09713,0.12799,-0.27465
0.14557,0.95319,0.265,0.04655,0.07084,-0.28035
0.13496,0.95426,0.26677,0.006,-0.02655,-0.25835
0.12406,0.95497,0.26949,0.15591,-0.0724,-0.17835
0.11283,0.95535,0.27307,0.21261,-0.05709,-0.18496
0.10283,0.95527,0.27726,0.10565,-0.06478,-0.15853
0.09355,0.95434,0.28368,0.07962,-0.10371,-0.1589
0.08528,0.95389,0.28778,0.14037,0.11148,-0.13844
0.08144,0.95367,0.28959,0.01661,0.18506,-0.22749
0.08088,0.95356,0.2901,-0.15241,0.26705,-0.06212
0.0862,0.95396,0.28724,-0.02898,0.11817,0.14359
0.09701,0.95546,0.2787,-0.11435,0.08131,0.14644
0.11548,0.95672,0.26708,-0.25097,0.10378,0.18212
0.13994,0.9571,0.2537,-0.41658,0.17467,0.18143
0.16217,0.95873,0.23352,-0.60831,0.44012,0.07481
0.17531,0.96376,0.20107,-0.71779,0.63124,-0.03406
0.18296,0.96924,0.16459,-0.53239,0.65593,-0.15113
0.19239,0.97273,0.12949,-0.28813,0.43561,-0.05267
0.20604,0.97404,0.09377,0.40283,-0.04368,-0.14603
0.21856,0.9737,0.06432,0.5232,-0.07602,-0.14409
0.22755,0.97297,0.03915,0.36992,-0.07776,-0.11125
0.24093,0.97047,0.01166,-0.03433,-0.06628,-0.12816
0.25544,0.96668,-0.01662,-0.14251,-0.19014,-0.08709
0.26812,0.96233,-0.04494,-0.17849,-0.21018,-0.04783
0.27689,0.9583,-0.07063,-0.20078,-0.23276,0.01751
0.28157,0.95489,-0.09431,-0.16248,-0.25032,-0.00103
0.28466,0.95183,-0.11399,-0.14528,-0.24966,-0.02413
0.28555,0.94978,-0.12793,-0.12353,-0.24139,-0.03568
0.28254,0.94943,-0.13692,-0.01938,-0.1754,-0.10939
0.27438,0.95088,-0.1433,0.01563,-0.18832,-0.10875
0.26317,0.95371,-0.14553,0.03845,-0.19997,-0.10339
0.24942,0.95793,-0.14193,0.04073,-0.28341,-0.17704
0.2331,0.96335,-0.13268,0.05976,-0.31089,-0.20293
0.21447,0.96936,-0.1197,0.10708,-0.33007,-0.23808
0.19389,0.97543,-0.10454,0.26755,-0.2178,-0.30787
0.17327,0.98066,-0.09093,0.29836,-0.06561,-0.2425
0.1606,0.98356,-0.08246,0.20162,0.46935,-0.19913
0.16482,0.9832,-0.07841,0.0043,0.42343,-0.43343
0.17798,0.98064,-0.08159,-0.09955,0.21961,-0.6003
0.19501,0.97694,-0.08694,-0.16077,0.71703,-0.33374
0.20783,0.9742,-0.08792,-0.16031,0.75636,0.13002
0.21017,0.974,-0.0845,-0.66241,0.152,0.18375
0.20646,0.97598,-0.06945,-0.5167,-0.0894,-0.00175
0.19966,0.97814,-0.05809,-0.34893,-0.03329,0.04507
0.18837,0.98,-0.06413,-0.20689,0.04188,0.09453
0.17725,0.98134,-0.07449,-0.12287,0.05963,0.36375
0.16847,0.98344,-0.06673,-0.1315,0.01483,0.35097
0.16107,0.98598,-0.04357,-0.10387,0.00041,0.27546
0.15542,0.98775,-0.01402,-0.12137,0.02281,0.08886
0.14641,0.98916,0.01072,-0.1115,-0.04922,0.0471
0.14033,0.98968,0.0289,-0.02647,-0.04749,0.03943
0.13989,0.98905,0.04691,-0.05104,-0.09728,0.06447
0.13811,0.98793,0.07016,-0.10114,-0.10292,0.00834
0.13004,0.98714,0.09289,0.00915,-0.01331,0.03736
0.11899,0.98696,0.10833,0.24118,0.08745,-0.00883
0.10789,0.98702,0.11893,0.45541,-0.00126,-0.10625
0.09665,0.9867,0.13065,0.33047,-0.13157,-0.1944
0.08742,0.98588,0.14282,0.24601,-0.12707,-0.21723
0.08027,0.98469,0.1547,0.2192,-0.08731,-0.19732
0.07407,0.98346,0.16525,0.21352,-0.05884,-0.21156
0.06952,0.98212,0.17493,0.18263,-0.07218,-0.20859
0.06748,0.98093,0.18223,0.23138,-0.09373,-0.26005
0.06832,0.97967,0.1886,0.22209,-0.09459,-0.15698
0.07176,0.9784,0.19385,0.13291,-0.03356,-0.09412
0.07628,0.97755,0.19637,-0.00571,-0.0072,-0.09795
0.07822,0.97652,0.20068,-0.14039,0.05662,-0.05699
0.07445,0.97609,0.20421,-0.17104,0.11406,-0.08389
0.06714,0.97581,0.20802,0.03459,0.43028,-0.03573
0.05688,0.97547,0.21264,0.0625,0.34905,-0.05471
0.04521,0.97587,0.21359,0.12675,0.29535,-0.09315
0.03249,0.97646,0.21321,0.28376,0.21304,0.01334
0.02409,0.97653,0.21402,0.28332,0.23894,0.05014
0.02559,0.9758,0.21715,-0.04457,0.34264,-0.07662
0.03586,0.9757,0.21615,-0.28926,0.48176,0.12248
0.04874,0.9774,0.20567,-0.23136,0.22891,0.10775
0.06675,0.98038,0.18543,-0.07449,0.12167,-0.01035
0.08764,0.98348,0.15833,-0.1092,0.22517,-0.08961
0.11066,0.98582,0.12615,-0.15299,0.25932,-0.10637
0.13549,0.98677,0.08904,-0.13706,0.15476,-0.1495
0.1637,0.98506,0.05346,-0.05224,0.08413,-0.0725
0.19439,0.98069,0.02116,-0.08913,0.03049,-0.16287
0.22726,0.97378,-0.00967,-0.15546,0.04094,-0.11546
0.26007,0.96484,-0.0379,-0.1864,-0.02247,-0.06769
0.28888,0.95515,-0.06497,-0.16698,-0.10143,-0.04488
0.31303,0.94513,-0.09348,0.05298,-0.14499,-0.06532
0.34086,0.93201,-0.12315,0.08039,-0.17099,-0.04299
0.37052,0.91582,-0.15484,0.04523,-0.21723,-0.00178
0.39683,0.89799,-0.19009,-0.01444,-0.31044,0.00816
0.41867,0.87984,-0.22494,-0.07149,-0.28653,0.08445
0.43715,0.86182,-0.25722,-0.15089,-0.24123,0.12356
0.4506,0.8462,-0.28444,-0.22209,-0.25126,0.06981
0.45792,0.83497,-0.30518,-0.22717,-0.24865,0.07743
0.4593,0.82804,-0.32154,-0.2165,-0.23461,-0.0232
0.45856,0.82421,-0.33226,-0.22408,-0.15856,-0.03212
0.45751,0.8224,-0.33814,-0.13008,-0.10982,-0.01214
0.45253,0.82398,-0.341,0.0076,-0.1353,-0.03048
0.44191,0.83023,-0.33976,0.09973,-0.10757,-0.09738
0.43011,0.83955,-0.33189,0.08277,0.1412,-0.21596
0.4225,0.84807,-0.31979,0.20487,0.38807,-0.26004
0.4186,0.85482,-0.30669,0.29944,0.2183,-0.00081
0.4103,0.86627,-0.28501,0.00405,0.12545,-0.08712
0.38648,0.88393,-0.26325,-0.12245,0.86307,-0.02747
0.35176,0.9038,-0.24374,-0.56188,0.60609,0.07197
0.3209,0.92126,-0.21976,-0.4567,-0.16827,0.16095
0.29418,0.93598,-0.19335,-0.22122,-0.2978,0.18302
0.26715,0.94827,-0.17151,0.19586,0.10019,0.09492
0.24301,0.9578,-0.15349,0.1166,0.19256,0.12506
0.21926,0.96584,-0.13813,0.05156,0.1466,0.17335
0.20016,0.97182,-0.1245,-0.03289,0.00949,0.12592
0.18701,0.9765,-0.10711,-0.07269,-0.07415,0.08552
0.17248,0.98131,-0.08529,-0.05912,-0.09601,0.09109
0.15532,0.98581,-0.0637,-0.04994,-0.10866,0.09031
0.1378,0.98952,-0.04304,0.07966,-0.11696,0.0413
0.12136,0.99235,-0.02277,0.09986,-0.11405,0.03145
0.1079,0.99415,-0.00429,0.07118,-0.15347,0.01967
0.09843,0.99505,0.01374,0.02439,-0.26612,0.02575
0.08845,0.99555,0.03234,0.01321,-0.2544,0.00858
0.07445,0.99605,0.04837,0.00957,-0.24834,-9e-05
0.06181,0.99628,0.06004,0.03597,-0.19264,-0.0589
0.05371,0.99611,0.06981,0.08104,-0.17977,-0.06741
0.048,0.99568,0.07946,0.11065,-0.18528,-0.06431
0.04272,0.99528,0.08707,0.12691,-0.08392,-0.11828
0.03837,0.99502,0.09194,0.14638,-0.04422,-0.10263
0.0356,0.9947,0.09642,0.14767,-0.02916,-0.09261
0.03451,0.99439,0.10001,0.22834,-0.06551,-0.07412
0.03496,0.9941,0.10263,0.21089,-0.01533,-0.14913
0.03533,0.99388,0.10462,0.18208,0.07555,-0.14805
0.0361,0.99345,0.1084,0.18541,0.07376,-0.05096
0.03562,0.99303,0.11236,0.18699,0.13196,-0.06833
0.03361,0.99258,0.11681,0.03524,0.22433,-0.03655
0.02738,0.99194,0.12374,0.00899,0.29079,-0.04232
0.01908,0.99131,0.13011,0.00086,0.30988,-0.03274
0.01064,0.99068,0.13577,0.13816,0.38398,-0.01309
0.00379,0.99019,0.13967,0.18233,0.52618,0.01186
0.00065,0.98986,0.14201,0.18136,0.61792,-0.00105
0.00054,0.98986,0.14201,0.06526,0.54264,0.03443
0.00562,0.99086,0.13477,-0.06073,0.22382,0.01088
0.01814,0.99305,0.11627,-0.12604,0.16546,-0.01078
0.03427,0.99569,0.08612,-0.06271,0.10929,-0.23871
0.05604,0.99696,0.05413,0.10119,0.0693,-0.10535
0.0834,0.99629,0.02112,0.18093,0.01232,-0.02623
0.11795,0.99294,-0.01227,0.12985,0.02447,-0.10755
0.15945,0.98626,-0.04316,-0.00346,0.05622,-0.06619
0.20222,0.97668,-0.07213,-0.03406,-0.00314,0.02683
0.24153,0.96492,-0.1029,-0.11885,-0.03023,-0.00109
0.26753,0.95451,-0.13167,-0.04943,-0.1322,0.06204
0.28514,0.9454,-0.15781,-0.05394,-0.19781,0.09699
0.30041,0.93614,-0.18273,-0.10656,-0.24481,0.07775
0.31589,0.92502,-0.21106,-0.15973,-0.25367,0.02047
0.33007,0.91176,-0.24444,-0.16436,-0.24745,0.06036
0.34653,0.89611,-0.27732,-0.1233,-0.1656,0.13854
0.36744,0.8781,-0.30647,-0.12903,-0.25138,0.18006
0.3864,0.86122,-0.33015,-0.14152,-0.31271,0.20165
0.3994,0.84796,-0.3485,-0.21199,-0.34443,0.16167
0.40634,0.83895,-0.36199,-0.24404,-0.31109,0.11028
0.41064,0.83326,-0.3702,-0.25294,-0.25878,0.05744
0.41434,0.82983,-0.37377,-0.18976,-0.14112,-0.00836
0.41622,0.82878,-0.37401,-0.07457,-0.07364,-0.05006
0.41577,0.83035,-0.371,0.04506,-0.04714,-0.0383
0.41168,0.83497,-0.36517,0.11887,-0.09254,-0.06954
0.40672,0.84334,-0.35123,0.23118,0.16212,-0.24152
0.40526,0.85223,-0.33085,0.36164,0.28699,-0.27195
0.40683,0.85945,-0.30957,0.44746,0.30011,-0.17446
0.39839,0.87203,-0.28432,0.26091,0.72443,-0.05795
0.36986,0.89065,-0.26449,0.14501,1.01835,0.02894
0.33179,0.91148,-0.24313,-0.12632,0.90019,0.06136
0.30171,0.9282,-0.21776,-0.08263,0.17384,0.09948
0.2804,0.94029,-0.19294,0.08977,0.09169,0.14666
0.2578,0.95058,-0.173,0.16614,-0.02868,0.14594
0.23301,0.9599,-0.15588,-0.04345,-0.18002,0.18297
0.20574,0.96873,-0.1387,-0.01603,-0.06478,0.15878
0.17932,0.97576,-0.12547,-0.01205,0.13299,0.08674
0.15626,0.98145,-0.11106,-0.01651,0.0744,0.07909
0.13901,0.98612,-0.09084,0.0244,-0.14366,0.07175
0.12546,0.98973,-0.06846,0.09132,-0.26288,0.05787
0.11192,0.99259,-0.04737,0.17412,-0.28079,0.06066
0.09874,0.99469,-0.02888,0.2467,-0.19812,0.09045
0.08608,0.99623,-0.01053,0.12911,-0.20572,0.06987
0.0736,0.99725,0.00814,0.03761,-0.21494,0.05797
0.06102,0.9978,0.02592,-0.05756,-0.24057,0.00387
0.0498,0.99792,0.04081,-0.07278,-0.20769,-0.00152
0.04042,0.99774,0.0537,-0.04117,-0.19572,-0.03664
0.03322,0.99712,0.06812,0.01204,-0.15929,0.0004
0.02819,0.99625,0.08179,0.08006,-0.08068,-0.02805
0.02536,0.99556,0.09058,0.10633,-0.00596,-0.14021
0.02344,0.99473,0.09979,0.10952,-0.01403,0.06716
0.0228,0.99372,0.10949,0.14552,0.04544,0.04174
0.02141,0.99328,0.11375,0.12102,0.07626,-0.02594
0.01852,0.99249,0.1209,0.21457,0.16901,-0.1794
0.01372,0.99195,0.12587,0.26636,0.22837,-0.13024
0.00908,0.99166,0.12852,0.28533,0.13465,-0.08793
0.00319,0.99133,0.13135,0.19365,0.11817,-0.07799
-0.00257,0.99098,0.13401,0.1628,0.18575,-0.10127
-0.0065,0.99104,0.1334,-0.02041,0.38723,0.10745
-0.00828,0.99162,0.12893,-0.01864,0.38665,0.11193
-0.00723,0.99258,0.12137,0.03705,0.68486,-0.00087
-0.00421,0.99333,0.1152,-0.05687,0.3938,0.00539
0.0018,0.99437,0.10594,-0.09065,0.21237,-0.00572
0.01405,0.99601,0.08808,-0.0623,0.09316,-0.02872
0.03501,0.99751,0.06119,0.01404,0.09517,-0.1859
0.06423,0.99741,0.03247,0.01347,0.12575,-0.10742
0.1001,0.99497,0.00298,0.0326,0.11437,-0.1227
0.1398,0.98987,-0.02488,-0.01589,0.12906,-0.07328
0.18098,0.98205,-0.05323,-0.0642,0.09608,-0.04346
0.21779,0.97268,-0.08035,-0.18584,-0.05012,0.01748
0.24505,0.96399,-0.10334,-0.2393,-0.22873,0.03881
0.26586,0.95609,-0.12334,-0.19153,-0.32978,0.05764
0.28418,0.9477,-0.14525,-0.13952,-0.34718,0.03981
0.30301,0.93662,-0.17585,-0.11043,-0.23945,0.0576
0.32078,0.92281,-0.21336,-0.06703,-0.22823,0.13119
0.33871,0.90775,-0.24754,-0.07449,-0.26782,0.12333
0.35965,0.8912,-0.27643,-0.10766,-0.29841,0.02694
0.37853,0.87542,-0.3006,-0.1194,-0.2858,0.06694
0.39376,0.86116,-0.3215,-0.0617,-0.07255,0.04201
0.40622,0.84837,-0.3395,-0.04773,-0.06167,0.0242
0.41279,0.83968,-0.35291,-0.07191,-0.15825,0.00443
0.41323,0.83579,-0.36153,-0.18329,-0.11084,-0.03564
0.41036,0.83537,-0.36572,-0.10617,-0.07777,-0.04559
0.40795,0.8372,-0.36424,-0.02755,-0.09123,-0.06693
0.40522,0.84118,-0.35806,0.06028,-0.06224,-0.06607
0.39824,0.84827,-0.34907,0.13552,0.01569,-0.13764
0.38876,0.85816,-0.33531,0.26281,0.17057,-0.16133
0.38179,0.86916,-0.3143,0.30757,0.15838,-0.13168
0.37615,0.88131,-0.28602,0.20576,0.44245,-0.12922
0.35982,0.89729,-0.25575,0.11204,1.0891,0.06179
0.33627,0.9126,-0.23255,-0.4318,0.32885,-0.19702
0.31685,0.92498,-0.20982,-0.27179,-0.11631,0.05893
0.29026,0.93857,-0.18663,-0.01385,-0.10921,0.09803
0.25737,0.95324,-0.15839,0.21016,0.15093,0.05342
0.22653,0.9652,-0.13063,0.20902,0.26476,0.12568
0.20134,0.9733,-0.11026,0.04959,0.02906,0.18692
0.18035,0.97892,-0.09589,0.06663,-0.09635,0.15565
0.1579,0.98402,-0.0823,0.06571,-0.09752,0.09858
0.13417,0.98884,-0.0648,0.03336,-0.1124,0.0984
0.11216,0.99269,-0.0445,-0.00869,-0.23372,0.15704
0.0916,0.99551,-0.02403,-0.02572,-0.23774,0.11912
0.07184,0.99739,-0.00665,-0.03476,-0.22624,0.09722
0.0563,0.99839,0.00632,-0.01888,-0.24957,0.03643
0.04629,0.99876,0.01853,0.04222,-0.35157,0.02067
0.03872,0.99868,0.03386,0.04979,-0.35149,0.00534
0.03005,0.99832,0.04946,0.04393,-0.29935,-0.00932
0.02333,0.99783,0.06153,0.12516,-0.20773,-0.02163
0.02051,0.99717,0.07234,0.12797,-0.20707,-0.03244
0.01884,0.99638,0.08285,0.03153,-0.15181,-0.05075
0.01415,0.9956,0.09265,0.06089,0.02441,-0.10454
0.00816,0.99476,0.10195,0.1216,0.09011,-0.10441
0.00489,0.99403,0.10902,0.1627,0.0887,-0.07762
0.00364,0.99338,0.11478,0.15186,0.0514,0.10801
0.00314,0.993,0.11811,0.10542,0.08499,0.01397
0.00135,0.99268,0.12074,0.09004,0.15377,-0.11035
-0.00136,0.99173,0.12832,0.15228,0.23581,0.03308
-0.00438,0.99074,0.13571,0.17367,0.19806,-0.01052
-0.00918,0.99,0.1408,0.22021,0.17955,-0.1083
-0.01557,0.9893,0.14505,0.1831,0.19733,-0.08436
-0.02263,0.98857,0.14908,0.16371,0.18703,-0.11265
-0.02826,0.98794,0.15224,0.08571,0.18021,0.05394
-0.03127,0.98797,0.15147,0.10932,0.4658,-0.02433
-0.02995,0.98789,0.15222,0.11843,0.62408,-0.0366
-0.02525,0.98805,0.15203,-0.1578,0.33899,0.03821
-0.01817,0.98981,0.1412,-0.15236,0.09081,0.06617
-0.00788,0.99306,0.11736,-0.09349,0.11653,0.00251
0.00808,0.9961,0.0879,-0.08412,0.16203,-0.02252
0.03329,0.99781,0.05711,-0.03847,0.2445,-0.06102
0.06667,0.99749,0.02383,-0.06727,0.2727,-0.06581
0.104,0.99453,-0.0096,-0.10529,0.2923,-0.08928
0.14213,0.98899,-0.04109,-0.15385,0.16162,0.0123
0.17799,0.98153,-0.07007,-0.18711,-0.03995,0.05047
0.20699,0.97366,-0.09563,-0.1839,-0.10945,0.0578
0.22801,0.96643,-0.1184,-0.01808,-0.27298,-0.0101
0.24917,0.95797,-0.14215,-0.03924,-0.26452,0.01366
0.27175,0.94697,-0.17146,0.01163,-0.24233,0.1039
0.29509,0.93291,-0.2064,0.00611,-0.31242,0.10397
0.31653,0.91678,-0.24358,-0.06276,-0.28842,0.11621
0.33451,0.89985,-0.27995,-0.09782,-0.26789,0.18274
0.3509,0.88292,-0.31197,-0.10783,-0.19693,0.13333
0.36593,0.86657,-0.33934,-0.12266,-0.17774,0.15027
0.37692,0.85292,-0.3612,-0.11547,-0.17135,0.18475
0.38259,0.84388,-0.37614,-0.17988,-0.24792,0.07515
0.3864,0.83873,-0.38369,-0.24155,-0.1351,0.01879
0.38781,0.83529,-0.38973,-0.19487,-0.07041,0.01429
0.38729,0.83427,-0.39243,-0.11662,-0.09495,0.01423
0.38591,0.83622,-0.38962,-0.01633,-0.11898,0.00249
0.38186,0.84208,-0.38091,0.053,-0.14762,-0.0582
0.37775,0.85075,-0.36541,0.16318,-0.08952,-0.15551
0.37683,0.85915,-0.34622,0.2426,0.04922,-0.20923
0.3803,0.86549,-0.32602,0.33883,0.16931,-0.08206
0.37648,0.87413,-0.30686,0.32681,0.86873,0.00593
0.35876,0.88765,-0.28874,0.2037,0.89964,-0.0669
0.33874,0.90103,-0.2709,-0.24635,0.10968,0.0505
0.30955,0.91784,-0.24848,-0.14041,0.01154,0.14805
0.27662,0.93496,-0.22212,0.00121,0.14326,0.04438
0.2475,0.94961,-0.19232,0.0686,0.47044,0.06706
0.22407,0.96083,-0.1631,-0.02259,0.23386,0.11723
0.20708,0.96803,-0.14157,-0.11571,-0.15081,0.15715
0.18738,0.97469,-0.12192,-0.04207,-0.1198,0.17792
0.16271,0.98134,-0.10245,-0.00263,-0.07752,0.17915
0.13653,0.98706,-0.08402,-0.04128,-0.00478,0.14797
0.11257,0.9916,-0.06371,-0.03623,-0.12549,0.12168
0.09211,0.99487,-0.04183,0.02013,-0.22164,0.07104
0.07425,0.99696,-0.02333,0.04396,-0.29457,0.07689
0.06117,0.99807,-0.01046,0.12112,-0.30752,0.08104
0.05219,0.99863,0.00299,0.08695,-0.33971,0.03409
0.04333,0.99885,0.02059,0.02539,-0.38415,-0.04136
0.03191,0.99877,0.03785,0.06753,-0.32729,-0.04055
0.01946,0.99839,0.05328,0.15607,-0.19495,-0.04483
0.00997,0.99765,0.06773,0.22453,-0.04662,-0.05883
0.00132,0.99658,0.08257,0.12612,0.01233,-0.08415
-0.00808,0.995,0.09952,0.06135,-0.02791,-0.11278
-0.01748,0.99313,0.11568,0.07304,-0.05676,-0.13535
-0.027,0.99108,0.13047,0.19265,-0.01949,-0.08192
-0.03686,0.98875,0.14495,0.1552,-0.06115,-0.0366
-0.04721,0.98634,0.15782,0.06666,-0.09138,-0.03697
-0.05732,0.98418,0.16765,0.01769,-0.00629,-0.05761
