gravity.x,gravity.y,gravity.z,userAcceleration.x,userAcceleration.y,userAcceleration.z
0.08042,0.95992,-0.2685,0.03555,0.07945,0.12631
0.06488,0.96937,-0.23687,0.02082,0.02922,0.12567
0.05097,0.97734,-0.20544,0.02614,-0.0423,0.12689
0.03794,0.9835,-0.17688,0.02286,-0.2406,0.14444
0.02706,0.98823,-0.15059,-0.01433,-0.32285,0.13155
0.01709,0.99172,-0.12723,-0.04199,-0.28297,0.10207
0.00962,0.99421,-0.10704,0.00195,-0.2756,0.09277
0.00295,0.99582,-0.09127,0.06547,-0.22592,0.10736
-0.00309,0.99694,-0.07815,0.07656,-0.16361,0.11373
-0.00845,0.99782,-0.06553,0.10879,-0.16365,0.06365
-0.01577,0.99846,-0.0532,0.02766,-0.00732,-0.11837
-0.02424,0.99896,-0.03851,0.02782,-0.04057,-0.14342
-0.03467,0.99914,-0.02257,0.08511,0.02594,-0.13687
-0.04613,0.99889,-0.00937,0.15425,0.09681,-0.14299
-0.05727,0.99836,0.00082,0.17922,0.04411,-0.17442
-0.06694,0.99771,0.00945,0.22549,0.04341,-0.18582
-0.07488,0.99702,0.01846,0.20686,-0.01744,-0.16702
-0.08228,0.99619,0.02878,0.22779,0.01966,-0.1634
-0.0899,0.99518,0.03903,0.20242,0.0062,-0.10719
-0.09779,0.99414,0.04605,0.00409,0.19284,-0.03195
-0.10585,0.99324,0.04776,-0.05028,0.32477,0.12744
-0.10945,0.99306,0.043,0.0294,0.34638,0.13623
-0.10873,0.99328,0.03978,-0.11697,0.58247,0.01387
-0.10598,0.99362,0.03854,-0.28216,0.58875,-0.03194
-0.10422,0.99393,0.03526,-0.22865,0.46988,-0.02149
-0.1048,0.99407,0.02892,-0.15754,0.37374,0.02211
-0.10685,0.99418,0.01413,-0.08926,0.32434,-0.01301
-0.10505,0.99437,-0.01397,0.11037,0.29157,-0.174
-0.09245,0.99444,-0.05038,0.34926,0.29906,-0.26544
-0.06547,0.99403,-0.08734,0.38826,0.08334,0.00318
-0.03167,0.99103,-0.1298,0.27343,-0.10654,0.00928
5e-05,0.98324,-0.1823,0.2039,-0.08819,0.0207
0.02728,0.97193,-0.23367,-0.02986,0.30697,0.12059
0.04766,0.95959,-0.27733,-0.20573,0.40984,0.13919
0.06039,0.94785,-0.31296,-0.25065,0.35741,0.15245
0.07002,0.93654,-0.34349,-0.22874,0.07032,0.24476
0.07818,0.92326,-0.37613,-0.21052,-0.05645,0.25322
0.08719,0.90534,-0.41564,-0.17754,-0.07305,0.20965
0.09438,0.88312,-0.45956,-0.2288,-0.11119,0.23562
0.09324,0.85884,-0.5037,-0.2109,-0.16241,0.3743
0.08265,0.83405,-0.54547,-0.09435,-0.19368,0.4459
0.06728,0.80877,-0.58427,-0.03178,-0.24527,0.36261
0.05248,0.78385,-0.61872,-0.06717,-0.34704,0.30448
0.03728,0.75895,-0.65008,-0.08084,-0.34377,0.34546
0.02004,0.73493,-0.67785,-0.0978,-0.33819,0.36742
0.00578,0.71425,-0.69986,-0.23045,-0.24767,0.33925
-0.00325,0.69835,-0.71575,-0.23775,-0.19476,0.31547
-0.00395,0.68863,-0.7251,-0.24342,-0.21173,0.26193
0.00351,0.68698,-0.72666,-0.19646,-0.22197,0.10855
0.01436,0.692,-0.72176,-0.04472,-0.19803,0.05186
0.02416,0.7021,-0.71167,0.0059,-0.22592,0.05088
0.0344,0.71576,-0.69749,0.10523,-0.22976,0.00301
0.04727,0.73148,-0.68022,0.17907,-0.16666,-0.10622
0.06499,0.747,-0.66164,0.21603,-0.17122,-0.14527
0.08916,0.7576,-0.6466,0.03152,-0.12033,-0.16482
0.11285,0.76249,-0.63708,-0.09698,0.48264,-0.34201
0.12831,0.75952,-0.6377,-0.01684,1.11029,-0.30972
0.12524,0.76838,-0.62762,-0.09619,0.8845,-0.19606
0.11944,0.7855,-0.60723,-0.06865,0.1215,-0.06599
0.12181,0.80591,-0.57937,-0.09686,-0.16828,-0.00335
0.1247,0.8247,-0.55165,-0.08085,-0.20495,0.08032
0.12367,0.84189,-0.52529,-0.03776,-0.13489,0.12006
0.12026,0.85733,-0.50053,-0.03919,0.03826,0.16331
0.11691,0.87211,-0.47513,-0.09712,0.27342,0.12705
0.11515,0.88804,-0.44512,-0.2227,0.4868,0.05097
0.11743,0.9059,-0.40688,-0.20201,0.44476,0.02942
0.12322,0.92345,-0.36341,-0.10135,0.24674,0.0678
0.12935,0.93884,-0.31915,0.01987,-0.00057,0.13573
0.13078,0.95199,-0.27678,0.039,-0.0953,0.1026
0.12625,0.96335,-0.23667,0.06934,-0.18572,0.12435
0.11345,0.97376,-0.19727,0.02558,-0.13425,0.1816
0.09458,0.9826,-0.15982,-0.06699,-0.1142,0.2172
0.07334,0.98943,-0.12511,-0.13957,-0.12502,0.19323
0.05372,0.99403,-0.09493,-0.12339,-0.21741,0.14822
0.03634,0.99688,-0.07001,-0.02449,-0.31263,0.06775
0.02169,0.99858,-0.0487,0.00667,-0.30702,0.02654
0.00916,0.99948,-0.03081,0.08168,-0.2713,0.05459
-0.00157,0.9999,-0.0141,0.11367,-0.25776,0.02543
-0.01248,0.99992,0.00336,0.12623,-0.12913,-0.07556
-0.02443,0.99953,0.01847,0.23392,0.02745,-0.19525
-0.03731,0.99891,0.02804,0.3042,0.06798,-0.1899
-0.04959,0.99827,0.03146,0.38235,0.15648,-0.16688
-0.05741,0.99792,0.02948,0.38141,0.10296,-0.13874
-0.06136,0.99775,0.02719,0.33434,0.01429,-0.11767
-0.06428,0.99754,0.02789,0.2152,0.00842,-0.08414
-0.06798,0.99718,0.03182,0.13547,0.06169,-0.07746
-0.07361,0.99653,0.03892,0.0898,0.12798,-0.0821
-0.08141,0.99554,0.04774,-0.12935,0.40485,-0.00236
-0.09158,0.99439,0.05294,-0.10494,0.67129,0.13455
-0.10179,0.99363,0.04838,-0.13193,0.68302,0.1317
-0.10947,0.99323,0.03894,-0.20606,0.5962,-0.05477
-0.11623,0.9927,0.03217,-0.20987,0.48365,-0.00959
-0.12177,0.9923,0.02287,-0.19654,0.38963,0.00294
-0.12158,0.99258,0.00128,-0.09266,0.20024,-0.13191
-0.11081,0.99323,-0.03488,0.04622,0.22024,-0.2016
-0.08695,0.99325,-0.07676,0.09491,0.23081,-0.22227
-0.04966,0.99197,-0.1163,0.22846,0.17168,0.00019
-0.00489,0.98657,-0.16327,0.28697,0.06839,0.06881
0.03834,0.97545,-0.21688,0.29697,0.09496,0.10427
0.07565,0.96134,-0.26478,0.06603,0.45253,0.13627
0.10057,0.94727,-0.30423,-0.19518,0.41137,0.12723
0.11429,0.93335,-0.3403,-0.29595,0.25888,0.15315
0.11918,0.9184,-0.37729,-0.35389,0.02461,0.2524
0.12118,0.89886,-0.42115,-0.33587,-0.08927,0.25848
0.1184,0.87471,-0.46997,-0.34115,-0.2559,0.2794
0.10876,0.85042,-0.51474,-0.15806,-0.33766,0.48104
0.09901,0.82628,-0.55448,0.02296,-0.39185,0.35308
0.09229,0.80221,-0.58986,-0.00785,-0.41537,0.3116
0.08135,0.77843,-0.62243,-0.11579,-0.45716,0.38969
0.06203,0.75405,-0.65388,-0.10126,-0.47401,0.47352
0.04055,0.73133,-0.68082,-0.05466,-0.3646,0.51937
0.02253,0.71367,-0.70012,-0.14048,-0.29933,0.42423
0.00986,0.70592,-0.70823,-0.25487,-0.1526,0.20195
0.00242,0.70743,-0.70678,-0.22638,-0.09554,0.01971
0.00092,0.71362,-0.70053,-0.15243,-0.06808,-0.06604
0.00342,0.72313,-0.69071,-0.05379,-0.12053,-0.05604
0.01197,0.73473,-0.67826,0.04698,-0.11569,-0.13498
0.03238,0.74233,-0.66926,0.18707,-0.10134,-0.26629
0.0571,0.74545,-0.66411,-0.35168,0.10353,-0.22556
0.06395,0.75198,-0.65608,-0.23192,0.33709,-0.24968
0.06283,0.76152,-0.64508,0.01718,0.50526,0.13111
0.06943,0.77494,-0.62821,0.08014,1.36681,-0.3545
0.06678,0.7958,-0.60187,0.12127,0.7299,-0.05404
0.07097,0.81942,-0.56878,-0.08777,-0.13741,0.19104
0.08077,0.84025,-0.53615,-0.1602,-0.34034,0.18543
0.09006,0.85732,-0.50685,-0.15905,-0.34942,0.16175
0.09999,0.87125,-0.48056,-0.14935,-0.04468,0.16685
0.10998,0.8854,-0.45164,-0.12468,0.063,0.17243
0.11644,0.90204,-0.41565,-0.09883,0.57918,0.15801
0.11941,0.92046,-0.37216,-0.19452,0.51955,0.21893
0.12448,0.93732,-0.32549,-0.10251,0.17111,0.15542
0.12608,0.95156,-0.28044,0.02297,-0.04131,0.07252
0.1194,0.96404,-0.23742,0.09311,-0.09769,0.1187
0.10518,0.97457,-0.19784,0.11605,-0.1519,0.18898
0.08745,0.98294,-0.16184,0.12309,-0.2178,0.21503
0.06878,0.98921,-0.12932,0.04387,-0.39264,0.19612
0.04893,0.99354,-0.10241,0.03221,-0.36434,0.13381
0.02842,0.99629,-0.0812,-0.01893,-0.336,0.08672
0.01128,0.99802,-0.06192,-0.06075,-0.32231,0.06814
-0.00357,0.99917,-0.0406,-0.0198,-0.30187,0.01744
-0.01831,0.99966,-0.01831,-0.00029,-0.2648,-0.05786
-0.03517,0.99938,0.00189,0.05273,-0.03603,-0.14975
-0.05303,0.99844,0.01761,0.18633,0.18555,-0.15884
-0.06882,0.99731,0.0253,0.26473,0.2774,-0.17052
-0.07819,0.99665,0.02396,0.37131,0.12318,-0.18643
-0.08193,0.99649,0.01741,0.40766,0.00092,-0.15294
-0.08368,0.99643,0.0115,0.40041,-0.02346,-0.12269
-0.0858,0.99628,0.00862,0.3085,-0.0155,-0.04543
-0.08971,0.99594,0.00792,0.0096,0.15775,0.03613
-0.0955,0.9954,0.00801,-0.02605,0.22285,0.07808
-0.1025,0.99472,0.00572,-0.07417,0.31781,0.14556
-0.10846,0.9941,0.00258,-0.22832,0.50636,0.00528
-0.1138,0.9935,0.00163,-0.29263,0.59839,-0.03773
-0.11944,0.99284,0.00148,-0.40551,0.63849,-0.05527
-0.12338,0.99236,-0.0015,-0.3831,0.50726,-0.12219
-0.12492,0.99213,-0.00849,-0.25998,0.36476,-0.14273
-0.12115,0.99236,-0.02336,-0.05779,0.25213,-0.25231
-0.10858,0.99295,-0.04762,0.1615,0.13266,-0.28258
-0.08362,0.99343,-0.07813,0.34683,0.03964,-0.15584
-0.04749,0.99224,-0.11489,0.34545,0.00088,0.0089
-0.00765,0.98691,-0.16109,0.241,0.00261,-0.05843
0.03074,0.97869,-0.20303,0.09773,0.17365,0.06918
0.06155,0.97046,-0.23329,-0.10189,0.39897,0.2138
0.08342,0.96191,-0.26033,-0.29442,0.36602,0.10934
0.10159,0.95252,-0.28703,-0.21625,0.28355,0.03176
0.12034,0.9414,-0.3151,-0.27219,0.12226,0.07767
0.14247,0.92549,-0.35097,-0.27607,0.04999,0.07397
0.16365,0.90377,-0.39549,-0.30108,0.00117,0.15382
0.17307,0.87751,-0.44725,-0.31091,-0.14798,0.31576
0.16215,0.84973,-0.50166,-0.18215,-0.38734,0.5154
0.13523,0.82332,-0.55123,0.02771,-0.44824,0.4259
0.10807,0.79939,-0.59101,0.09158,-0.42561,0.24847
0.08898,0.77641,-0.62392,0.0547,-0.3845,0.24618
0.07068,0.75216,-0.65518,-0.07705,-0.44975,0.29853
0.04976,0.72989,-0.68175,-0.16068,-0.35236,0.33661
0.02919,0.71382,-0.69973,-0.22293,-0.25025,0.32743
0.01385,0.70623,-0.70784,-0.23657,-0.1616,0.16211
0.00711,0.7078,-0.70638,-0.24408,-0.12117,0.0589
0.00629,0.71719,-0.69685,-0.2136,-0.11265,0.04757
0.00825,0.73176,-0.68151,-0.05079,-0.19923,-0.04276
0.01984,0.74703,-0.66449,0.04913,-0.12865,-0.29254
0.04228,0.75539,-0.65392,-0.01951,-0.24988,-0.40047
0.06298,0.75824,-0.64892,-0.42902,-0.0373,-0.15189
0.0736,0.75727,-0.64894,0.12368,0.52108,-0.17767
0.09726,0.76174,-0.64054,0.20096,0.86144,-0.02414
0.09172,0.78338,-0.61473,0.19862,1.00981,-0.34085
0.08789,0.80866,-0.58168,-0.08229,-0.22005,0.3543
0.09618,0.83355,-0.544,-0.13445,-0.43188,0.15353
0.10729,0.85216,-0.51217,-0.1478,-0.49599,0.18084
0.11718,0.8654,-0.4872,-0.18715,-0.30424,0.14506
0.12598,0.87814,-0.46151,-0.17223,0.07489,0.13064
0.13397,0.89373,-0.42814,-0.1294,0.21702,0.11995
0.13958,0.91226,-0.38509,-0.15686,0.6991,0.14023
0.14742,0.93038,-0.33565,-0.14145,0.25112,0.13904
0.1533,0.94541,-0.28758,-0.07501,0.10269,0.08741
0.14947,0.95803,-0.24461,0.07799,-0.04218,0.08463
0.13727,0.9687,-0.2068,0.13473,-0.10446,0.15462
0.12078,0.97741,-0.17343,0.15997,-0.14224,0.22148
0.10219,0.98419,-0.14465,0.10722,-0.22133,0.18039
0.08382,0.98948,-0.11792,0.00768,-0.3312,0.13156
0.06754,0.99351,-0.09155,-0.15676,-0.27241,0.04396
0.05472,0.99625,-0.06703,-0.10804,-0.22353,0.03304
0.04558,0.99789,-0.04624,-0.05457,-0.20887,-0.01937
0.03933,0.99877,-0.03028,0.00624,-0.22798,-0.05563
0.03528,0.99923,-0.01731,0.15971,-0.25625,-0.05624
0.03303,0.99942,-0.00874,0.21152,-0.2136,-0.119
0.03256,0.99946,-0.00437,0.14942,-0.14475,-0.16562
0.03385,0.99941,-0.00557,0.14047,-0.05308,-0.10229
0.03741,0.99917,-0.01631,0.11831,-0.04925,-0.04402
0.0418,0.99863,-0.03137,0.14062,-0.15011,-0.116
0.04485,0.99823,-0.03902,0.22333,-0.22885,-0.08993
0.04538,0.998,-0.04408,0.31646,-0.22489,-0.15259
0.04011,0.9982,-0.04458,0.34954,-0.05078,-0.28387
0.02592,0.99907,-0.03453,0.05227,0.29972,-0.10045
0.00525,0.99987,-0.01508,-0.06496,0.72886,0.03974
-0.0165,0.9998,0.01102,-0.15917,0.86748,0.1538
-0.03793,0.99858,0.0374,-0.13979,0.67453,0.02838
-0.06236,0.9964,0.05753,-0.02506,0.73162,-0.01294
-0.08845,0.99372,0.06856,0.02459,0.79009,-0.06649
-0.11068,0.99138,0.07018,0.07833,0.45414,-0.12548
-0.12674,0.99,0.06191,0.11969,0.35352,-0.13422
-0.13602,0.98964,0.04591,0.20142,0.1499,-0.20297
-0.13816,0.99003,0.02755,0.27033,-0.05147,-0.28981
-0.1334,0.99102,0.00888,0.34655,-0.20901,-0.2496
-0.1227,0.99232,-0.01583,0.28348,-0.24914,-0.16617
-0.10495,0.99325,-0.04933,0.21115,-0.22607,0.00815
-0.07987,0.99258,-0.09173,0.07086,-0.16874,0.05159
-0.05099,0.98891,-0.13952,-0.04949,0.05855,0.02116
-0.02396,0.98225,-0.18602,-0.25091,0.33351,-0.06196
-0.00383,0.97434,-0.22504,-0.27104,0.34142,-0.02295
0.00713,0.96761,-0.25234,-0.71078,0.09774,0.25496
0.01489,0.96074,-0.27704,-0.59356,-0.06868,0.29716
0.01986,0.95339,-0.30108,-0.46108,-0.1865,0.24836
0.02671,0.94512,-0.32562,-0.32538,-0.18325,0.1601
0.039,0.93444,-0.35398,-0.16113,-0.17051,-0.02217
0.05426,0.92277,-0.38151,-0.15557,-0.26753,0.07203
0.06317,0.91144,-0.40655,-0.08236,-0.42066,0.36175
0.06729,0.90056,-0.42948,0.00783,-0.52407,0.35236
0.06693,0.89211,-0.44683,0.0093,-0.50621,0.29451
0.06301,0.88668,-0.45807,0.0369,-0.47989,0.23638
0.05482,0.8838,-0.46464,0.07241,-0.53266,0.23437
0.0444,0.88258,-0.46807,-0.05458,-0.50941,0.18558
0.03466,0.88325,-0.46761,-0.08158,-0.45984,0.14547
0.0263,0.88646,-0.46205,-0.21722,-0.29538,0.04108
0.01994,0.89213,-0.45133,-0.14314,-0.28628,-0.00585
0.01841,0.90078,-0.43388,-0.12567,-0.11064,-0.13279
0.02088,0.9113,-0.4112,-0.03022,0.05514,-0.27471
0.02625,0.92152,-0.38744,0.14389,0.29528,-0.50714
0.03527,0.92899,-0.36843,0.21217,0.30051,-0.56456
0.04775,0.93249,-0.35802,0.30601,0.18589,-0.56063
0.06289,0.93391,-0.35194,0.36059,-0.05291,-0.43942
0.07808,0.93495,-0.34608,0.26976,-0.2628,-0.37717
0.09244,0.93562,-0.34069,0.04984,-0.18281,-0.20098
0.1101,0.93819,-0.32814,-0.28515,0.28645,-0.01837
0.12938,0.94227,-0.30884,-0.40641,1.00287,-0.03365
0.137,0.94639,-0.29255,-0.63415,0.9925,0.65128
0.15323,0.94672,-0.28326,-0.70395,-0.45131,0.39466
0.15762,0.94606,-0.28307,-0.79166,-0.63572,0.2913
0.15285,0.94914,-0.27527,-0.5022,-0.41424,0.36545
0.14528,0.95781,-0.24797,-0.44174,-0.33361,0.42951
0.13597,0.96945,-0.20415,-0.17945,-0.00389,0.4225
0.12201,0.98052,-0.15395,-0.05814,0.39874,0.35343
0.10887,0.98863,-0.10371,-0.08485,0.53411,0.30276
0.10489,0.99281,-0.05767,-0.10721,0.19184,0.2775
0.10465,0.99427,-0.02174,-0.13412,-0.1611,0.08361
0.10524,0.99443,0.00563,-0.10072,-0.22939,-0.00201
0.10516,0.99409,0.0271,-0.08938,-0.28564,0.04578
0.10293,0.99371,0.04421,-0.05277,-0.14196,0.05689
0.09585,0.9936,0.05977,-0.06755,0.0629,0.05931
0.08814,0.99308,0.07757,0.0204,0.18644,0.05707
0.08106,0.99212,0.09549,0.15157,0.08518,0.01916
0.0725,0.99122,0.11061,0.28645,-0.03026,-0.09646
0.06617,0.99028,0.12233,0.34603,-0.05956,-0.22125
0.05676,0.98944,0.13341,0.34308,-0.06648,-0.25592
0.04917,0.9889,0.1402,0.32702,-0.08009,-0.24238
0.04326,0.98854,0.14462,0.3423,-0.05155,-0.16006
0.03571,0.988,0.15024,0.22142,-0.06071,-0.11296
0.02729,0.98722,0.15702,0.14134,-0.04017,-0.12673
0.02025,0.98613,0.16473,0.06258,-0.05325,-0.13791
0.01133,0.98481,0.17327,-0.00912,-0.04903,-0.09706
0.00279,0.98344,0.18121,-0.04814,-0.04606,-0.10007
-0.00418,0.98243,0.18658,-0.07965,0.04583,-0.07617
-0.01167,0.98138,0.19172,-0.07927,0.07309,-0.10114
-0.0184,0.98029,0.19671,-0.01811,0.17216,-0.15958
-0.02496,0.97956,0.19961,0.00961,0.19352,-0.18998
-0.02773,0.98007,0.19671,0.11627,0.27245,-0.1705
-0.0278,0.9824,0.18473,0.27257,0.41145,-0.02743
-0.0205,0.9861,0.16491,0.1112,0.35436,-0.08848
-0.00317,0.99036,0.13848,0.05592,0.1497,-0.10308
0.0199,0.99496,0.09823,-0.21712,0.04039,-0.17639
0.04546,0.99812,0.04112,-0.33777,0.06681,-0.17465
0.07031,0.99708,-0.02985,-0.46428,0.14637,-0.1858
0.08771,0.9908,-0.1031,-0.74777,0.77229,-0.06778
0.09692,0.98209,-0.16157,-0.67356,0.60115,0.20566
0.11231,0.97198,-0.20647,-0.36637,0.215,0.10982
0.13173,0.96032,-0.24582,-0.2409,0.12488,0.04072
0.15283,0.94633,-0.28478,-0.21837,0.1137,0.06063
0.16823,0.9307,-0.32479,-0.19778,-0.07198,0.15732
0.17939,0.91463,-0.36231,-0.14888,-0.22062,0.16413
0.18488,0.90157,-0.39113,-0.13602,-0.34835,0.12691
0.1839,0.89393,-0.40875,-0.13033,-0.37583,0.16926
0.17919,0.89074,-0.41769,-0.10994,-0.42228,0.15588
0.17377,0.89123,-0.41894,-0.12143,-0.47097,0.1089
0.16692,0.89599,-0.41151,-0.17648,-0.48819,-0.01572
0.15852,0.90384,-0.39742,-0.13319,-0.45893,-0.00566
0.15183,0.91229,-0.38037,-0.0217,-0.32315,-0.05343
0.14936,0.92115,-0.35941,0.04629,-0.26907,-0.15468
0.1511,0.93022,-0.33445,0.07298,-0.23938,-0.20302
0.15393,0.93881,-0.30812,0.19766,-0.06363,-0.38268
0.15579,0.94579,-0.28497,0.2558,0.09751,-0.5598
0.15944,0.94981,-0.26915,0.27923,0.16068,-0.61115
0.16272,0.95083,-0.26351,0.34203,0.10332,-0.51533
0.16273,0.94965,-0.26774,0.16006,-0.00252,-0.32079
0.16039,0.94771,-0.2759,-0.03651,0.02286,-0.26266
0.16153,0.94732,-0.27659,-0.1873,0.10803,-0.23345
0.16269,0.94792,-0.27381,-0.7226,0.65289,-0.07935
0.17047,0.94584,-0.27627,-0.55852,0.06745,0.07185
0.18629,0.94239,-0.27784,-0.49284,-0.30775,0.17365
0.19961,0.94215,-0.26929,-0.50789,-0.49211,0.30241
0.20412,0.94677,-0.24891,-0.45917,-0.33232,0.45737
0.19791,0.95731,-0.21067,-0.36295,-0.20657,0.46511
0.17556,0.97127,-0.16069,-0.25328,0.52466,0.29083
0.14951,0.98246,-0.1114,-0.29993,0.61429,0.23535
0.13746,0.98824,-0.06699,-0.32158,0.49476,0.18102
0.13258,0.99085,-0.02511,-0.21414,0.03577,0.17541
0.12704,0.99179,0.01475,-0.24886,-0.09404,0.1221
0.12047,0.99141,0.05088,-0.21658,-0.32842,0.09157
0.11014,0.99035,0.08414,-0.1639,-0.36585,0.11174
0.09309,0.98951,0.11048,-0.05033,-0.23685,0.16435
0.07256,0.98901,0.12879,0.06395,0.09787,0.16153
0.05298,0.98781,0.14634,0.20532,0.27957,0.11756
0.03659,0.98563,0.16492,0.36473,0.19261,-0.0448
0.02222,0.98326,0.18085,0.47592,-0.0291,-0.22895
0.00842,0.98151,0.19123,0.52718,-0.09543,-0.29233
-0.00261,0.9807,0.19552,0.55127,-0.1096,-0.33728
-0.00802,0.98022,0.19776,0.50222,-0.12422,-0.27068
-0.00829,0.97935,0.20198,0.44701,-0.13037,-0.20566
-0.00739,0.97816,0.20773,0.36333,-0.1193,-0.22874
-0.00906,0.9769,0.21349,0.27901,-0.08878,-0.23354
-0.01357,0.97602,0.21726,0.17409,-0.05301,-0.23371
-0.01967,0.97559,0.2187,0.12831,0.09768,-0.28465
-0.02584,0.97564,0.21787,0.01829,0.25495,-0.29654
-0.03105,0.97622,0.21454,0.02054,0.32369,-0.22421
-0.03441,0.97819,0.20484,0.0208,0.28743,-0.05807
-0.03047,0.98233,0.18465,-0.04289,0.55826,0.00201
-0.01443,0.98735,0.15792,-0.12625,0.53547,-0.09782
0.00681,0.99321,0.11612,-0.12537,0.30713,-0.05416
0.02737,0.99822,0.0529,-0.26857,0.17954,-0.12902
0.04414,0.99867,-0.02663,-0.64302,0.59128,-0.27928
0.05872,0.99234,-0.10865,-0.72723,0.82818,-0.10372
0.08161,0.98091,-0.17652,-0.61856,0.61901,0.12178
0.11329,0.96516,-0.23586,-0.07429,0.37758,0.31982
0.13992,0.94406,-0.29862,0.01779,0.37779,0.31602
0.15661,0.91915,-0.36144,0.13112,0.16467,0.11199
0.16428,0.89104,-0.42315,0.13044,0.12648,0.12636
0.16915,0.85933,-0.48263,0.08474,0.12307,0.03376
0.1633,0.82883,-0.53514,0.02556,0.06645,0.12426
0.15158,0.79863,-0.58242,-0.159,-0.44734,0.25039
0.13557,0.77382,-0.61872,-0.14299,-0.42254,0.28669
0.11488,0.75638,-0.64397,-0.1499,-0.40851,0.26918
0.09354,0.74471,-0.6608,-0.03116,-0.30772,0.29219
0.07843,0.73929,-0.66881,-0.0408,-0.33777,0.24402
0.06992,0.74094,-0.66792,-0.13289,-0.32571,0.15304
0.06399,0.74901,-0.65946,-0.20625,-0.34294,0.10514
0.05485,0.76052,-0.647,-0.21752,-0.32987,0.12359
0.04325,0.77463,-0.63094,-0.07018,-0.46999,0.09775
0.038,0.78965,-0.61238,0.02067,-0.35272,-0.08133
0.04418,0.8009,-0.59716,0.04374,-0.06838,-0.16851
0.06031,0.80119,-0.59536,0.03099,0.09038,-0.34884
0.07858,0.79064,-0.60721,-0.18927,0.53852,-0.67902
0.08884,0.78385,-0.61456,-0.17966,0.70364,-0.02292
0.08129,0.80109,-0.59299,0.0601,0.69288,-0.12486
0.08047,0.81966,-0.56717,-0.02146,0.20587,-0.08106
0.08701,0.84114,-0.53377,-0.06394,-0.27298,0.07703
0.10007,0.86029,-0.49988,-0.04364,-0.32984,0.08088
0.11183,0.87655,-0.46814,-0.0281,-0.24374,0.11632
0.12264,0.89097,-0.43718,0.00218,0.00194,0.09755
0.12997,0.90563,-0.40367,-0.03213,0.27749,0.07875
0.13437,0.92107,-0.36548,-0.06511,0.36995,0.06784
0.13725,0.93626,-0.32339,-0.15688,0.38604,0.10441
0.13911,0.9495,-0.28125,-0.11764,0.18169,0.08207
0.13746,0.96092,-0.24028,-0.10903,0.08766,0.05084
0.13049,0.97109,-0.19991,-0.04174,-0.1494,0.08303
0.11605,0.97972,-0.16337,0.01504,-0.17147,0.12001
0.09581,0.98675,-0.13097,0.03192,-0.13082,0.15206
0.07261,0.99214,-0.10194,0.03656,-0.12887,0.13135
0.04852,0.99598,-0.07532,0.05606,-0.12028,0.07817
0.0275,0.99834,-0.05054,0.11576,-0.13335,0.02178
0.00958,0.99955,-0.02848,0.09104,-0.14469,-0.04418
-0.00501,0.99994,-0.00977,0.14212,-0.19943,-0.04338
-0.0165,0.99984,0.00751,0.12423,-0.24131,-0.05982
-0.02809,0.99925,0.02651,0.0959,-0.23845,-0.03994
-0.04146,0.99813,0.04496,0.09249,-0.17417,-0.08831
-0.05926,0.99636,0.06127,0.07349,-0.01673,-0.22615
-0.07988,0.9938,0.07734,0.12479,0.05788,-0.23867
-0.09763,0.99136,0.08762,0.30268,0.1932,-0.26676
-0.10911,0.98996,0.0899,0.49621,0.06882,-0.24755
-0.1153,0.98937,0.08859,0.45304,0.00037,-0.20972
-0.11936,0.98886,0.08893,0.3778,0.10999,-0.0608
-0.12414,0.98796,0.09233,0.0603,0.37195,0.16236
-0.13085,0.98703,0.09305,0.03639,0.47892,0.21887
-0.13843,0.98631,0.0896,-0.10692,0.61161,0.06651
-0.14284,0.98589,0.0873,-0.1817,0.69983,-0.24144
-0.14734,0.98535,0.08588,-0.23077,0.65065,-0.22716
-0.15075,0.98547,0.07831,-0.14225,0.36321,-0.08311
-0.14867,0.9872,0.05773,0.03379,0.20294,-0.09328
-0.13676,0.99026,0.02606,0.19637,0.12657,-0.20016
-0.11034,0.99387,-0.00698,0.28716,0.07936,-0.13471
-0.06708,0.99715,-0.03451,0.32918,0.10404,-0.10044
-0.01727,0.9975,-0.06859,0.17832,0.07849,-0.13974
0.02917,0.99282,-0.11603,0.08553,0.05902,-0.00642
0.06606,0.9839,-0.16608,-0.029,0.21204,0.19003
0.09155,0.97142,-0.219,-0.20583,0.24383,0.13117
0.10624,0.95723,-0.2691,-0.31023,0.26173,0.11236
0.11659,0.9415,-0.31619,-0.28822,0.26061,0.13135
0.12618,0.92129,-0.36785,-0.32216,0.07249,0.15937
0.12661,0.89501,-0.4277,-0.44994,-0.15066,0.29312
0.11062,0.86639,-0.48696,-0.39867,-0.38374,0.46242
0.09145,0.84005,-0.53475,0.03838,-0.37348,0.2909
0.08303,0.81609,-0.57193,0.07103,-0.372,0.18482
0.08102,0.79341,-0.60327,0.00466,-0.33194,0.14886
0.0732,0.77149,-0.63201,0.00472,-0.37063,0.20291
0.05985,0.75365,-0.65454,-0.01157,-0.34159,0.23308
0.04244,0.74218,-0.66885,-0.08538,-0.27772,0.24815
0.02138,0.7377,-0.67479,-0.12715,-0.409,0.21876
0.00373,0.74115,-0.67133,-0.15772,-0.40894,0.19551
-0.00514,0.75125,-0.66,-0.15982,-0.42412,0.14503
-0.00297,0.76509,-0.64391,-0.06946,-0.37778,-0.10043
0.01337,0.77627,-0.63026,0.02017,-0.18493,-0.39367
0.03874,0.7747,-0.63114,-0.01652,-0.27798,-0.60832
0.04993,0.77897,-0.62508,-0.39693,-0.13854,-0.02368
0.06992,0.7861,-0.61413,0.15846,0.58084,0.05657
0.09243,0.79658,-0.59742,0.26611,1.56375,-0.59281
0.09342,0.81636,-0.56993,0.28633,0.53686,-0.16261
0.09888,0.83764,-0.53719,-0.00549,-0.20868,0.0396
0.10453,0.85516,-0.50771,-0.02159,-0.2603,-0.02717
0.10325,0.87,-0.48211,0.01309,-0.30055,0.16331
0.09656,0.88136,-0.46247,-0.03464,-0.00017,0.17357
0.08847,0.8923,-0.44269,-0.09245,0.23453,0.13796
0.0818,0.90499,-0.4175,-0.13934,0.38057,0.09241
0.08027,0.91993,-0.38377,-0.24058,0.4663,0.10173
0.08674,0.93466,-0.34479,-0.10154,0.11508,0.15563
0.09488,0.9475,-0.30537,0.01047,-0.07773,0.11195
0.10001,0.95864,-0.26648,0.08007,-0.15482,0.07532
0.09979,0.96843,-0.22845,0.21045,-0.16522,0.0585
0.09432,0.9767,-0.19278,0.24792,-0.12401,0.06569
0.08348,0.98343,-0.1609,0.24215,-0.02997,0.09332
0.06823,0.98853,-0.13475,0.19109,0.00525,0.09178
0.05106,0.99231,-0.11278,0.13421,-0.02032,0.07642
0.03473,0.99502,-0.0934,0.10243,-0.08522,0.04649
0.02018,0.99695,-0.0754,0.01711,-0.18115,-0.01306
0.00824,0.99835,-0.05687,-0.01576,-0.22357,-0.02668
-0.00263,0.99922,-0.0393,-0.01003,-0.20863,-0.0466
-0.01043,0.99964,-0.0248,0.05929,-0.18048,-0.03045
-0.01707,0.99976,-0.0138,0.09152,-0.13727,-0.05672
-0.02222,0.99974,-0.00526,0.15501,-0.11003,-0.07215
-0.02646,0.99965,-0.00012,0.20656,-0.08528,-0.12206
-0.03106,0.99951,0.00252,0.19716,-0.05173,-0.18464
-0.03783,0.99927,0.00578,0.23111,-0.03333,-0.17782
-0.04607,0.99889,0.01001,0.34609,-0.0118,-0.17676
-0.0541,0.99844,0.0138,0.39895,0.09281,-0.19663
-0.06279,0.99783,0.01995,0.3525,0.09917,-0.20725
-0.07355,0.99687,0.02904,0.19118,0.12001,-0.11301
-0.08713,0.99545,0.03849,0.1048,0.34152,0.04977
-0.1025,0.99366,0.04623,0.04518,0.40301,0.0781
-0.11641,0.9918,0.05282,-0.01748,0.38749,0.11098
-0.12803,0.99014,0.05689,-0.08651,0.54734,-0.00429
-0.1385,0.98864,0.05837,-0.11053,0.5985,-0.02742
-0.14716,0.98761,0.05445,-0.12377,0.59393,-0.05638
-0.15269,0.98735,0.04266,-0.04419,0.41063,-0.18742
-0.15424,0.98772,0.02478,0.07291,0.26281,-0.25788
-0.14935,0.98878,0.00143,0.12187,0.19136,-0.28281
-0.13451,0.99047,-0.02961,0.33898,0.03806,-0.24686
-0.11005,0.99155,-0.06868,0.32875,-0.05021,-0.1005
-0.08128,0.99054,-0.11054,0.24554,-0.09378,-0.01415
-0.05071,0.9863,-0.15699,0.03705,-0.09891,0.18728
-0.02113,0.97881,-0.20368,-0.01923,0.05049,0.10377
0.00632,0.9693,-0.2458,-0.06496,0.29399,0.01932
0.03292,0.95847,-0.28329,-0.14455,0.46972,-0.03447
0.05837,0.94549,-0.32037,-0.20951,0.41689,-0.04953
0.08105,0.92982,-0.35898,-0.30177,0.22602,0.06774
0.09883,0.90895,-0.40502,-0.33903,0.06675,0.14194
0.10827,0.88359,-0.45557,-0.32958,-0.03975,0.19031
0.10685,0.85703,-0.50407,-0.09218,-0.19652,0.41473
0.09455,0.82966,-0.5502,0.00892,-0.22563,0.44425
0.07802,0.80459,-0.58869,0.12332,-0.34664,0.33161
0.06687,0.78132,-0.62053,0.00584,-0.32789,0.20839
0.05643,0.75764,-0.65023,-0.02398,-0.36497,0.2407
0.04337,0.73574,-0.67587,-0.09105,-0.39521,0.27893
0.03019,0.71864,-0.69473,-0.1422,-0.38232,0.27389
0.01782,0.70918,-0.7048,-0.15952,-0.34251,0.23385
0.00761,0.70733,-0.70684,-0.08462,-0.33464,0.15131
0.00091,0.7112,-0.70299,-0.04473,-0.25806,0.04715
-0.00334,0.72003,-0.69393,-0.04047,-0.24106,0.00373
-0.00555,0.73391,-0.67922,-0.03322,-0.2388,-0.07401
-0.00288,0.75175,-0.65944,-0.01823,-0.19198,-0.2789
0.00477,0.77044,-0.63749,0.01966,-0.13182,-0.37258
0.02495,0.77918,-0.6263,0.18814,0.04855,-0.56771
0.05358,0.77558,-0.62897,0.00038,0.13862,-0.41608
0.06865,0.76949,-0.63496,-0.07573,0.59094,-0.56848
0.06301,0.78556,-0.61557,-0.04312,0.84702,-0.23763
0.05703,0.80608,-0.58905,-0.05311,0.14539,0.07264
0.05879,0.82982,-0.55493,-0.14148,-0.21671,0.16819
0.06496,0.84928,-0.52393,-0.10053,-0.29876,0.1798
0.0705,0.86575,-0.49549,-0.00371,-0.24792,0.20481
0.07594,0.88005,-0.46878,-0.00097,-0.02737,0.17944
0.07962,0.89464,-0.43963,-0.0439,0.11616,0.15382
0.08209,0.91025,-0.40584,-0.14091,0.48134,0.13918
0.08582,0.92643,-0.36655,-0.15992,0.44446,0.12322
0.09064,0.94127,-0.32527,-0.12203,0.31828,0.11917
0.09289,0.95393,-0.28529,-0.02949,0.00031,0.10157
0.09006,0.96471,-0.24744,-0.00651,-0.10597,0.06852
0.0822,0.97433,-0.20957,0.04407,-0.1521,0.08736
0.06979,0.98256,-0.17234,0.02741,-0.09937,0.15926
0.05475,0.98898,-0.13755,-0.00527,-0.09103,0.18075
0.04019,0.99365,-0.10504,-0.02507,-0.10121,0.14324
0.02561,0.99679,-0.07583,0.04757,-0.26133,0.07203
0.01116,0.99865,-0.05073,0.08924,-0.25793,0.02442
-0.00121,0.99952,-0.0309,0.11459,-0.24606,-0.00492
-0.01321,0.99977,-0.01711,0.18907,-0.22596,-0.04725
-0.02339,0.99971,-0.00601,0.2004,-0.15317,-0.09364
-0.0324,0.99947,0.00364,0.21479,-0.11157,-0.09449
-0.04029,0.99913,0.01063,0.20498,-0.01871,-0.23018
-0.0475,0.99873,0.01699,0.1807,0.01644,-0.20323
-0.05349,0.99836,0.02013,0.25544,0.09624,-0.15527
-0.05768,0.99815,0.01948,0.33393,0.02929,-0.14947
-0.06058,0.99797,0.01979,0.35497,-0.02726,-0.1473
0.05357,0.99798,-0.03415,0.16205,-0.03144,-0.10388
0.04802,0.99846,-0.02759,0.14009,-0.05128,-0.0549
0.04531,0.99871,-0.02291,0.09004,0.04278,-0.03462
0.03387,0.9993,-0.01592,0.03589,-0.00969,0.00187
0.0196,0.99978,-0.00695,-0.15081,0.19467,0.04568
0.00403,0.99999,0.00187,-0.27882,0.37121,0.18485
-0.01117,0.99991,0.00719,-0.16076,0.53169,0.24815
-0.02482,0.99961,0.01304,-0.04917,0.57962,0.10544
-0.03642,0.99913,0.02037,-0.17505,0.65006,-0.03574
-0.04601,0.99869,0.02256,-0.20056,0.5509,-0.0883
-0.05067,0.99858,0.01628,-0.16299,0.33916,-0.1608
-0.04859,0.99882,-0.00101,-0.04124,0.25037,-0.14938
-0.03847,0.9988,-0.03027,0.10024,0.17491,-0.15506
-0.01841,0.99767,-0.06563,0.21318,0.10139,-0.09618
0.01122,0.99474,-0.10185,0.22555,0.07179,-0.04215
0.04431,0.98891,-0.14177,0.16145,0.05403,0.04885
0.0754,0.97853,-0.19183,0.00188,-0.10478,0.15701
0.10377,0.96378,-0.24569,-0.05379,0.1819,0.12884
0.12811,0.94595,-0.29794,-0.20582,0.43767,0.13538
0.14452,0.92675,-0.34677,-0.27334,0.50688,0.11232
0.15585,0.90817,-0.3885,-0.33975,0.23384,0.24195
0.16162,0.88801,-0.43049,-0.3813,0.02007,0.29691
0.16474,0.8633,-0.47705,-0.335,-0.06325,0.28141
0.16317,0.83441,-0.52644,-0.35047,-0.12596,0.28938
0.15255,0.80452,-0.574,-0.23543,-0.18135,0.51743
0.13565,0.77442,-0.61796,-0.07039,-0.21038,0.51746
0.12099,0.74638,-0.65443,0.00151,-0.29541,0.38391
0.10954,0.71974,-0.68555,-0.08187,-0.27646,0.36369
0.09472,0.69365,-0.71405,-0.12389,-0.37464,0.38649
0.07909,0.6705,-0.73768,-0.1617,-0.36168,0.39385
0.06685,0.65315,-0.75427,-0.20774,-0.28168,0.39281
0.05926,0.64485,-0.76201,-0.2257,-0.18553,0.20715
0.05799,0.64564,-0.76143,-0.07209,-0.17425,0.07143
0.06073,0.6539,-0.75414,0.03193,-0.14859,0.01397
0.06322,0.66836,-0.74115,0.07556,-0.19317,-0.02528
0.06467,0.68593,-0.72479,0.13119,-0.1805,-0.13817
0.07202,0.69917,-0.71132,0.1667,-0.10748,-0.24863
0.0885,0.70262,-0.70604,-0.09262,-0.30464,-0.10509
0.09173,0.70249,-0.70575,-0.6264,-0.01135,-0.11816
0.0954,0.70263,-0.70513,-0.25473,0.3323,0.2893
0.11412,0.7156,-0.68912,-0.14592,2.05921,-0.43399
0.12243,0.74048,-0.66083,0.04316,0.18765,0.29032
0.14256,0.76999,-0.62193,-0.09504,-0.23499,0.17553
0.16851,0.7933,-0.58505,-0.12218,-0.34851,0.06533
0.18581,0.81286,-0.55203,-0.04666,-0.31997,0.14792
0.19512,0.82851,-0.52489,-0.04691,-0.12646,0.19902
0.19737,0.84252,-0.5012,-0.01588,0.13665,0.20109
0.19381,0.85725,-0.47704,-0.0533,0.50243,0.1506
0.18755,0.87448,-0.44734,-0.21764,0.63135,0.10281
0.18534,0.89234,-0.41156,-0.29682,0.35371,0.10973
0.18052,0.90925,-0.37506,-0.22576,0.06009,0.13958
0.16962,0.92438,-0.34167,-0.1571,-0.02938,0.13812
0.1549,0.93821,-0.30945,-0.04418,-0.12349,0.16504
0.14046,0.95155,-0.27355,-0.04894,-0.05473,0.21526
0.12841,0.96341,-0.23528,-0.05843,-0.03492,0.19942
0.11982,0.97315,-0.19655,-0.07626,-0.04424,0.18065
0.11247,0.98067,-0.16009,-0.12361,-0.20121,0.19845
0.10374,0.98612,-0.12962,-0.10586,-0.30483,0.14542
0.0965,0.98982,-0.10461,-0.12745,-0.29358,0.07489
0.08913,0.99246,-0.08414,-0.05874,-0.2592,0.02293
0.08001,0.99455,-0.06693,-0.02478,-0.23226,0.01705
0.07075,0.99618,-0.05111,-0.0063,-0.10521,-0.04786
0.05976,0.99752,-0.0372,0.00721,-0.05547,-0.09246
0.04871,0.99842,-0.02808,0.06892,0.03115,-0.14908
0.0371,0.999,-0.02478,0.19546,0.08188,-0.18112
0.02718,0.99929,-0.02597,0.26051,0.07398,-0.14326
0.01953,0.99939,-0.02904,0.30045,0.00463,-0.05762
0.01332,0.99952,-0.02781,0.23766,-0.03642,-0.03824
0.00685,0.99972,-0.02274,0.25593,-0.00782,-0.00548
-6e-05,0.99985,-0.01703,0.12103,0.01128,-0.022
-0.00707,0.99991,-0.01111,-0.05705,0.19825,0.07161
-0.01497,0.99984,-0.01002,-0.10026,0.51612,0.15272
-0.02332,0.99965,-0.0122,-0.23149,0.6432,0.16177
-0.0287,0.99944,-0.01749,-0.3398,0.5003,-0.00175
-0.03336,0.99917,-0.02339,-0.40086,0.45846,-0.09509
-0.03678,0.99892,-0.02851,-0.40077,0.3996,-0.10137
-0.03801,0.9986,-0.0369,-0.16396,0.188,-0.08296
-0.03333,0.99773,-0.0585,-0.03877,0.20114,-0.14905
-0.01681,0.99556,-0.09266,0.23643,0.17188,-0.28115
0.01861,0.99123,-0.13086,0.40777,0.05934,-0.16698
0.06989,0.98267,-0.17171,0.41723,0.00455,-0.03651
0.12546,0.96766,-0.21883,0.29706,0.01894,0.24604
0.17527,0.94936,-0.26075,0.06724,0.29264,0.29368
0.2071,0.93244,-0.29609,-0.1628,0.45344,0.193
0.22222,0.91723,-0.33061,-0.28398,0.50025,0.11574
0.22064,0.90156,-0.37216,-0.50036,0.27268,0.07208
0.20494,0.88254,-0.42323,-0.52154,0.17161,0.09869
0.18563,0.85589,-0.48269,-0.47476,0.02126,0.15696
0.16618,0.82283,-0.54345,-0.42981,-0.08822,0.32728
0.14173,0.7906,-0.5957,-0.25936,-0.16232,0.61113
0.11313,0.76139,-0.63835,-0.05579,-0.1449,0.55733
0.08952,0.7347,-0.67246,-0.03979,-0.0913,0.40802
0.07197,0.7081,-0.70243,-0.1573,-0.11275,0.37374
0.05114,0.67976,-0.73165,-0.18548,-0.16566,0.45762
0.02477,0.65482,-0.75538,-0.12295,-0.42409,0.51898
0.00364,0.63612,-0.77158,-0.18604,-0.33801,0.4515
-0.01199,0.62274,-0.78234,-0.20955,-0.30577,0.3817
-0.02204,0.61355,-0.78935,-0.12609,-0.30244,0.22953
-0.02451,0.60938,-0.7925,-0.05293,-0.22663,0.12897
-0.02285,0.6111,-0.79122,-0.00688,-0.18863,0.11358
-0.01821,0.61898,-0.7852,0.00885,-0.21793,0.14616
-0.00846,0.63238,-0.77461,0.00076,-0.18495,0.00857
0.00566,0.64876,-0.76097,-0.00975,-0.16291,-0.04555
0.02487,0.66509,-0.74635,-0.01602,-0.13299,-0.10737
0.05428,0.67179,-0.73875,-0.02259,0.12847,-0.40586
0.08485,0.6685,-0.73886,-0.05049,0.38915,-0.3738
0.11322,0.66205,-0.74086,0.05014,0.66586,-0.59039
0.11819,0.67862,-0.72492,-0.18481,0.91015,-0.35859
0.11418,0.70183,-0.70313,-0.21618,0.19297,0.02038
0.11782,0.72768,-0.67572,-0.25602,-0.02111,0.13066
0.12323,0.74978,-0.65011,-0.25182,-0.09737,0.22254
0.1264,0.77009,-0.62528,-0.17471,-0.01254,0.20713
0.12924,0.78844,-0.60137,-0.17142,0.09032,0.24641
0.13354,0.80682,-0.57551,-0.23674,0.21471,0.21068
0.14109,0.82593,-0.54583,-0.31031,0.33007,0.21306
0.15216,0.84653,-0.51014,-0.20059,0.34393,0.2195
0.16481,0.86732,-0.46968,-0.13315,0.2664,0.21442
0.17761,0.8869,-0.42645,-0.04925,0.15239,0.2084
0.18909,0.90542,-0.38007,0.08577,0.11026,0.20045
0.19523,0.92332,-0.33069,0.11376,0.09093,0.1619
0.19465,0.93986,-0.28065,0.13044,0.0871,0.18527
0.18878,0.9537,-0.23415,0.01871,0.03306,0.2414
0.17952,0.96468,-0.19276,-0.02899,-0.04314,0.21525
0.16697,0.97348,-0.15637,-0.05349,-0.22321,0.1841
0.14908,0.98073,-0.12629,-0.10185,-0.33855,0.0971
0.12914,0.98635,-0.10217,-0.07073,-0.36419,0.0569
0.11015,0.99072,-0.07961,-0.09706,-0.34291,0.02483
0.09231,0.99424,-0.05455,-0.02262,-0.23809,0.0266
0.07662,0.99666,-0.02809,-0.01375,-0.15784,-0.08507
0.06378,0.99795,-0.00561,-0.04614,-0.04391,-0.22498
0.05377,0.99851,0.00935,0.04321,0.13269,-0.16792
0.04809,0.99873,0.01529,0.25159,0.1796,-0.10788
0.04777,0.99879,0.01188,0.30002,0.00941,-0.06502
0.0516,0.99865,0.00504,0.2654,-0.08059,-0.0354
0.05533,0.99847,4e-05,0.19003,-0.0724,-0.05381
0.0571,0.99837,-0.00134,0.08663,-0.02455,-0.09238
0.05635,0.99841,0.00111,0.01716,0.02103,-0.11814
0.05197,0.99864,0.00444,-0.00473,0.06125,-0.12598
0.04429,0.99899,0.00771,-0.0552,0.08402,-0.11743
0.03373,0.99935,0.01239,-0.1703,0.15082,-0.03796
0.02155,0.99957,0.01982,-0.10378,0.30536,0.13733
0.00811,0.99966,0.02487,0.03654,0.40377,0.2163
-0.00625,0.9996,0.02776,-0.00852,0.4376,0.07196
-0.0206,0.99932,0.03045,-0.07499,0.47669,-0.00078
-0.03438,0.99894,0.03067,-0.15684,0.47491,-0.02097
-0.04646,0.99853,0.02783,-0.18683,0.41863,0.01599
-0.05635,0.99815,0.02269,-0.24025,0.28879,0.02467
-0.0632,0.99788,0.0153,-0.2385,0.16743,-0.05781
-0.06436,0.99791,0.00604,-0.14876,0.09781,-0.20491
-0.05918,0.99823,-0.00543,-0.03029,0.06813,-0.22466
-0.04627,0.99862,-0.02503,0.01918,0.05377,-0.19804
-0.0264,0.998,-0.0574,0.16375,-0.06099,-0.10712
-0.00367,0.99492,-0.10063,0.0535,-0.16096,-0.00338
0.02002,0.98903,-0.14635,-0.05257,-0.13507,0.05565
0.0442,0.98141,-0.18675,-0.09118,-0.06502,0.15747
0.06684,0.97317,-0.22016,-0.28825,0.18323,0.22837
0.08251,0.96564,-0.24646,-0.55358,0.17352,0.04263
0.09431,0.95944,-0.26566,-0.59914,0.07915,0.07413
0.10172,0.95291,-0.28569,-0.49769,-0.18287,0.22373
0.10851,0.94328,-0.31376,-0.34278,-0.15233,0.19648
0.11192,0.93351,-0.34065,-0.32047,-0.18351,0.2292
0.11628,0.92358,-0.36536,-0.10887,-0.19195,0.21047
0.1272,0.91216,-0.38959,-0.14011,-0.11425,0.03736
0.14248,0.90077,-0.41025,-0.2234,-0.14702,0.05054
0.15351,0.89018,-0.42897,-0.27726,-0.33685,0.28075
0.15812,0.87972,-0.44843,-0.22357,-0.32074,0.28442
0.15781,0.87097,-0.46531,-0.12933,-0.31629,0.21434
0.15577,0.86465,-0.47761,-0.10703,-0.30081,0.20278
0.15311,0.86131,-0.48447,-0.0938,-0.30938,0.15567
0.1502,0.86077,-0.48634,-0.15966,-0.22977,0.07227
0.14625,0.86219,-0.48501,-0.17137,-0.18714,0.02653
0.14337,0.86545,-0.48004,-0.15512,-0.09584,-0.04539
0.14422,0.87125,-0.46918,-0.07019,0.01419,-0.15753
0.14937,0.87882,-0.45318,-0.03581,0.01997,-0.20874
0.15675,0.8857,-0.437,0.05589,0.01154,-0.30073
0.1618,0.89026,-0.42574,0.21747,0.02597,-0.39822
0.16218,0.89273,-0.4204,0.26719,-0.00795,-0.39512
0.15999,0.8941,-0.41832,0.27424,-0.03797,-0.3733
0.15778,0.89465,-0.41798,0.23219,-0.22466,-0.28561
0.15547,0.89525,-0.41757,0.13406,-0.31651,-0.24532
0.15242,0.8965,-0.41601,0.05943,-0.3227,-0.1953
0.14966,0.8967,-0.41657,-0.32819,-0.08707,-0.06153
0.14957,0.89724,-0.41544,-0.48255,0.53127,-0.22461
0.14179,0.90102,-0.40996,-0.62041,1.73525,-0.24319
0.13247,0.9052,-0.40381,-0.90215,0.42623,0.09387
0.13769,0.9033,-0.40631,-0.50686,-0.50006,0.04497
0.15167,0.90288,-0.40224,-0.38978,-0.6211,0.14159
0.16754,0.90719,-0.38592,-0.45253,-0.53929,0.44877
0.18155,0.91574,-0.35841,-0.40857,-0.32631,0.55544
0.18437,0.92922,-0.32024,-0.30723,0.15208,0.45737
0.17593,0.94215,-0.28532,-0.21017,0.64626,0.3648
0.17035,0.95256,-0.25221,-0.20644,0.54485,0.27633
0.17595,0.96003,-0.2177,-0.12799,0.23897,0.16178
0.1889,0.96542,-0.17968,-0.17663,0.02924,0.10619
0.20268,0.96972,-0.13622,-0.30406,-0.03981,0.10666
0.21344,0.97289,-0.08906,-0.33574,-0.06055,0.07361
0.21844,0.97494,-0.04214,-0.31674,-0.1087,0.09404
0.21451,0.97671,0.0042,-0.29622,-0.09019,0.10432
0.20146,0.97818,0.05074,-0.25775,-0.03636,0.10807
0.18432,0.9785,0.09254,-0.17854,0.04425,0.15621
0.16707,0.97786,0.12597,-0.03374,0.00736,0.09044
0.1518,0.97625,0.15459,0.04756,-0.01024,0.00246
0.13575,0.97382,0.18235,0.11118,-0.04387,-0.0918
0.1186,0.97101,0.20753,0.22931,-0.00846,-0.23973
0.10383,0.96812,0.22794,0.26904,-0.00509,-0.25877
0.0932,0.96529,0.24397,0.27282,-0.0594,-0.28349
0.08483,0.96237,0.25815,0.39103,-0.10092,-0.28714
0.07911,0.96012,0.26816,0.27756,-0.18723,-0.28206
0.07273,0.95854,0.27553,0.35102,-0.08464,-0.25013
0.06611,0.95727,0.28154,0.08442,-0.02983,-0.19672
0.06141,0.95624,0.28606,0.11898,0.11103,-0.18353
0.05587,0.95515,0.29082,-0.03907,0.07633,-0.20645
0.05071,0.95426,0.29465,-0.10656,0.17143,-0.20493
0.04412,0.95302,0.29967,-0.13229,0.19726,-0.22911
0.03649,0.95137,0.30589,-0.16129,0.2477,-0.27354
0.02776,0.95018,0.31047,-0.13352,0.21397,-0.33561
0.01953,0.95019,0.31106,0.10838,0.27228,-0.27042
0.01097,0.95243,0.30456,0.08872,0.27802,-0.17632
0.01167,0.9585,0.28486,0.22882,0.30241,-0.02482
0.02296,0.96689,0.25416,0.12071,0.20901,-0.08575
0.04498,0.97595,0.21331,-0.33801,0.24457,-0.14859
0.07234,0.98489,0.15733,-0.53003,0.34464,-0.20283
0.09686,0.99119,0.09036,-0.69449,0.60502,-0.12112
0.11293,0.99327,0.02586,-0.78355,0.58661,0.0358
0.12559,0.9918,-0.02363,-0.49251,0.28258,0.00122
0.14625,0.98738,-0.06084,-0.33376,0.21999,-0.12124
0.17127,0.98084,-0.09282,-0.15601,0.18543,-0.08144
0.1966,0.97204,-0.12842,-0.11278,0.17309,-0.00538
0.22062,0.96021,-0.17125,-0.08557,-0.00472,0.03311
0.23821,0.94681,-0.21634,-0.13529,-0.1975,0.08386
0.24943,0.93381,-0.25649,-0.22982,-0.30924,0.06978
0.25489,0.92298,-0.28834,-0.26247,-0.30736,0.07856
0.25268,0.91577,-0.31228,-0.2912,-0.36841,0.08296
0.24464,0.91239,-0.32816,-0.28951,-0.44552,0.04872
0.23247,0.91308,-0.33503,-0.22769,-0.51267,0.03301
0.21783,0.91721,-0.33359,-0.14815,-0.56146,0.01371
0.20374,0.92458,-0.32193,0.05869,-0.65011,-0.04865
0.19397,0.93418,-0.29947,0.09151,-0.61448,-0.10678
0.19178,0.94307,-0.27172,0.07101,-0.35372,-0.25111
0.19322,0.94998,-0.24538,0.11937,-0.18351,-0.41687
0.19313,0.95478,-0.22603,0.16313,0.07262,-0.55811
0.19055,0.9572,-0.21784,0.15767,0.3697,-0.55769
0.18728,0.95687,-0.22209,0.05425,0.43054,-0.52738
0.18686,0.95254,-0.24031,-0.31183,0.59014,-0.46103
0.19337,0.94218,-0.27368,-0.31592,1.42928,-0.54988
0.2005,0.933,-0.29884,-0.49086,0.5856,0.24704
0.20973,0.9321,-0.2953,-0.60391,-0.31798,0.42888
0.21417,0.93524,-0.2819,-0.76414,-0.68481,0.12533
0.21564,0.93953,-0.26606,-0.45675,-0.45991,0.37924
0.21424,0.94835,-0.23393,-0.31172,-0.33868,0.45611
0.19799,0.96079,-0.19411,-0.13681,0.22613,0.28545
0.1718,0.97392,-0.1482,0.03595,0.98459,0.2049
0.15344,0.98254,-0.1052,-0.24223,0.82863,0.14215
0.15312,0.98581,-0.06874,-0.17038,0.00181,0.07295
0.15616,0.98714,-0.03426,-0.15302,-0.16963,0.12993
0.15333,0.98817,-0.00095,-0.1912,-0.23477,0.17139
0.14492,0.98901,0.02936,-0.12055,-0.16622,0.17349
0.13346,0.98948,0.0559,-0.11355,-0.15462,0.13807
0.11741,0.98987,0.07985,-0.0381,-0.0648,0.08545
0.09644,0.98997,0.10327,0.12069,0.0525,0.08805
0.0732,0.98934,0.12592,0.24359,0.13048,-0.00771
0.04936,0.9877,0.14833,0.38313,0.13473,-0.11166
0.02719,0.98529,0.16873,0.41234,0.11275,-0.25885
0.00827,0.98261,0.18549,0.36656,0.02664,-0.2622
-0.00667,0.98019,0.19794,0.3264,-0.11435,-0.23283
-0.0192,0.97859,0.20493,0.25861,-0.18915,-0.21045
-0.03051,0.97737,0.20933,0.17769,-0.14564,-0.2082
-0.04053,0.97618,0.21316,0.09708,-0.01209,-0.27391
-0.05102,0.97449,0.21856,0.08972,0.11781,-0.30153
-0.06277,0.97217,0.22572,0.06603,0.136,-0.31222
-0.07644,0.96966,0.23218,0.08602,0.15956,-0.32122
-0.09252,0.96737,0.23585,0.05937,0.28441,-0.31624
-0.11056,0.96535,0.23637,0.01113,0.47595,-0.17224
-0.12955,0.96453,0.23,0.1429,0.54017,-0.00066
-0.14431,0.9652,0.21811,0.16875,0.45145,-0.14309
-0.15397,0.9658,0.20861,0.11799,0.45534,-0.20328
-0.16118,0.96694,0.19762,0.04495,0.39065,-0.1671
-0.16512,0.96968,0.18016,-0.00885,0.25237,-0.14407
-0.1656,0.97365,0.1568,-0.0081,0.14581,-0.15305
-0.16202,0.97849,0.12771,0.01704,0.11885,-0.19761
-0.15178,0.98379,0.09549,0.07941,0.18178,-0.22328
-0.1312,0.98935,0.06297,0.19759,0.2263,-0.22441
-0.09921,0.99465,0.02891,0.22586,0.19597,-0.20324
-0.06079,0.99809,-0.01086,0.17017,0.18652,-0.14989
-0.0228,0.99823,-0.05489,0.01349,0.20833,0.02421
0.00962,0.9951,-0.09839,-0.08056,0.2594,0.11581
0.03568,0.98925,-0.14185,-0.16401,0.28064,0.07146
0.05533,0.98093,-0.18633,-0.26889,0.21263,0.03721
0.06947,0.96904,-0.23693,-0.32336,0.1125,0.06542
0.07601,0.95173,-0.29736,-0.3177,-0.03578,0.12811
0.07541,0.92956,-0.36088,-0.31595,-0.19625,0.18047
0.06795,0.90605,-0.41768,-0.23923,-0.25754,0.27319
0.06139,0.88308,-0.4652,-0.12199,-0.27442,0.28437
0.06125,0.86111,-0.50472,0.00561,-0.30224,0.11133
0.06481,0.84,-0.53869,0.0124,-0.33714,0.12457
0.06374,0.82088,-0.56753,0.03544,-0.40026,0.17152
0.05559,0.80593,-0.58939,0.08165,-0.43867,0.22777
0.04244,0.79742,-0.60193,0.05388,-0.42775,0.21774
0.02559,0.79647,-0.60414,-0.06709,-0.44594,0.08133
0.00845,0.80282,-0.59616,-0.0816,-0.43043,0.02715
-0.00677,0.81416,-0.5806,-0.0943,-0.44533,-0.07962
-0.01725,0.82814,-0.56026,0.04914,-0.40635,-0.28213
-0.01483,0.83757,-0.54614,0.09875,-0.07778,-0.53954
0.00208,0.83341,-0.55265,-0.24468,0.01684,-0.28258
0.01381,0.82983,-0.55785,-0.33113,0.15848,-0.31781
0.00892,0.83385,-0.55193,-0.00213,0.41712,0.11716
0.01304,0.8478,-0.53016,0.09014,1.13056,-0.40556
0.01184,0.86572,-0.50039,0.09138,0.38592,-0.01287
0.01282,0.88462,-0.46613,0.02263,-0.08798,0.03054
0.01684,0.90208,-0.43123,0.05671,-0.24394,0.02636
0.01794,0.91711,-0.39823,0.06537,-0.37402,0.09822
0.01911,0.92911,-0.3693,0.05811,-0.22411,0.09493
0.02073,0.94015,-0.34012,0.0898,-0.01564,0.12105
0.01908,0.95118,-0.30806,0.05148,0.3121,0.12064
0.01352,0.962,-0.2727,-0.02962,0.44892,0.12994
0.00956,0.97164,-0.23627,-0.00207,0.29659,0.11827
0.00758,0.97939,-0.20184,0.10019,-0.00368,0.04142
0.00254,0.98538,-0.17038,0.15067,-0.16728,0.02545
-0.00757,0.98984,-0.14201,0.14836,-0.18475,0.07984
-0.02261,0.99281,-0.11758,0.16412,-0.16538,0.10816
-0.04084,0.99453,-0.09615,0.1675,-0.13253,0.08622
-0.05782,0.99543,-0.07597,0.13608,-0.18957,0.0622
-0.07286,0.99571,-0.05709,0.03957,-0.10713,0.00122
-0.08275,0.99583,-0.03836,0.0218,-0.11769,-0.05658
-0.08903,0.9958,-0.02123,0.03919,-0.12642,-0.08012
-0.09337,0.99561,-0.00678,0.05761,-0.15012,-0.07986
-0.09788,0.99519,0.0046,0.14531,-0.23457,-0.05332
-0.10482,0.99439,0.01426,0.20588,-0.24973,-0.06115
-0.11557,0.99301,0.02383,0.29203,-0.20021,-0.11057
-0.13038,0.99088,0.03391,0.3094,-0.09176,-0.20926
-0.14799,0.98795,0.04526,0.32981,-0.02224,-0.25262
-0.16609,0.98441,0.0578,0.3869,0.15111,-0.26082
-0.18304,0.98055,0.07087,0.34808,0.3088,-0.16464
-0.19782,0.97668,0.08345,0.40355,0.35705,-0.07135
-0.2115,0.9731,0.09131,0.44093,0.47688,0.02553
-0.22542,0.96976,0.0936,0.1912,0.59308,-0.06842
-0.23596,0.96699,0.0962,0.04622,0.5797,-0.27814
-0.24098,0.96516,0.10196,-0.22362,0.6381,-0.28543
-0.2442,0.96403,0.10494,-0.15979,0.37241,-0.25791
-0.24562,0.96442,0.09776,-0.07399,0.2618,-0.24085
-0.24293,0.96718,0.07455,0.0174,0.19097,-0.23053
-0.23311,0.97159,0.04078,0.32088,0.0697,-0.14138
-0.21361,0.9769,0.00496,0.3279,0.03851,0.00023
-0.18662,0.98187,-0.03322,0.19283,-0.0388,0.00229
-0.15781,0.98463,-0.07481,0.11771,0.05355,-0.04019
-0.12709,0.98514,-0.11556,0.03088,0.26987,0.0289
-0.09564,0.98414,-0.14941,-0.12554,0.33379,0.01767
-0.06663,0.98191,-0.17724,-0.23563,0.25376,-0.01148
-0.04034,0.97838,-0.20283,-0.20555,0.11077,0.02266
-0.01756,0.97299,-0.23017,-0.18166,-0.11857,0.13333
0.0031,0.96492,-0.26254,-0.16336,-0.12622,0.1757
0.02511,0.95264,-0.30308,-0.09691,-0.08397,0.12916
0.04718,0.93605,-0.3487,-0.14551,-0.19329,0.04865
0.06082,0.91671,-0.3949,-0.1747,-0.27236,0.23366
0.06206,0.89538,-0.44097,-0.12812,-0.28138,0.33342
0.05134,0.87316,-0.48472,0.04599,-0.27673,0.2512
0.03918,0.85188,-0.52227,0.15488,-0.26039,0.19453
0.03059,0.83095,-0.5555,0.1379,-0.21366,0.18417
0.02227,0.81129,-0.58422,-0.0653,-0.2792,0.12494
0.01291,0.79522,-0.60618,-0.12593,-0.36766,0.15505
0.00402,0.78427,-0.6204,-0.14139,-0.32394,0.14154
-0.00308,0.7806,-0.62502,-0.11165,-0.23888,0.08459
-0.00823,0.78437,-0.62023,-0.01785,-0.30206,-0.0078
-0.01185,0.7944,-0.60728,0.03618,-0.32803,-0.05803
-0.01386,0.80859,-0.58821,0.10486,-0.34382,-0.1615
-0.01079,0.82321,-0.56763,0.19273,-0.27324,-0.34111
-6e-05,0.82922,-0.55892,0.13456,-0.28758,-0.39474
0.01196,0.82724,-0.56172,-0.31932,0.05877,-0.31952
0.01921,0.81676,-0.57665,0.02968,0.8439,-0.21731
0.02012,0.82608,-0.5632,-0.01867,1.59229,-0.42839
0.00591,0.84172,-0.53989,0.17109,0.31058,-0.25332
0.00283,0.8611,-0.50844,-0.00532,-0.54196,0.08032
0.00988,0.87931,-0.47615,0.01075,-0.45539,0.02453
0.0143,0.89413,-0.44758,0.04832,-0.41691,0.06536
0.01721,0.90612,-0.42268,0.03698,-0.18499,0.07723
0.01989,0.91697,-0.39846,-0.00619,0.1032,0.06968
0.02305,0.92805,-0.37174,-0.0563,0.43781,0.01798
0.02425,0.94069,-0.3384,-0.09568,0.51968,-0.02284
0.02839,0.95334,-0.30057,-0.05694,0.2748,0.03592
0.03276,0.96451,-0.26199,-0.00876,0.02941,0.03572
0.03363,0.97392,-0.2244,0.06856,-0.21612,0.04154
0.02946,0.98164,-0.18845,0.12173,-0.20253,0.03351
0.01977,0.98795,-0.1535,0.16039,-0.1803,0.04627
0.00615,0.99269,-0.12051,0.0617,-0.04433,0.13652
-0.00824,0.99592,-0.0898,0.05734,-0.06956,0.1081
-0.02178,0.99788,-0.06131,0.11349,-0.23662,0.05087
-0.03738,0.99857,-0.03809,0.14242,-0.28014,-0.01573
-0.05386,0.99834,-0.0202,0.12847,-0.2857,-0.06186
-0.06808,0.99766,-0.00574,0.15008,-0.30661,-0.05746
-0.0821,0.99659,0.00843,0.18039,-0.23353,-0.05346
-0.09499,0.9952,0.02372,0.13989,-0.10637,-0.12469
-0.10556,0.99368,0.03819,0.07202,0.03988,-0.20731
-0.11461,0.99213,0.05046,0.15112,0.14648,-0.21962
-0.12318,0.99067,0.05826,0.28004,0.13803,-0.21363
-0.13032,0.9896,0.06086,0.36621,0.03362,-0.22233
-0.05253,0.99851,0.01457,0.31192,-0.04202,-0.17042
-0.05976,0.99806,0.01737,0.27314,-0.05965,-0.16254
-0.06859,0.99742,0.02136,0.25362,-0.02414,-0.14266
-0.07885,0.99653,0.02671,0.12101,0.08079,-0.1101
-0.08914,0.99545,0.03361,0.1431,0.28392,-0.00865
-0.09882,0.99436,0.03855,0.23148,0.41884,0.15198
-0.109,0.99331,0.03806,0.10815,0.38648,0.02785
-0.11656,0.99244,0.03832,0.0693,0.42086,-0.03711
-0.12317,0.99153,0.04117,-0.19516,0.534,-0.07564
-0.1306,0.99055,0.04195,-0.23793,0.48103,-0.10349
-0.13639,0.9899,0.03879,-0.24173,0.44091,-0.12229
-0.14015,0.98964,0.0311,-0.00508,0.28233,-0.17778
-0.14018,0.99004,0.01334,0.24541,0.2094,-0.20371
-0.1325,0.99107,-0.01527,0.39815,0.11103,-0.13189
-0.1131,0.99228,-0.05086,0.403,0.08075,-0.09955
-0.08323,0.99245,-0.09005,0.18954,0.02483,0.01365
-0.0488,0.98937,-0.13701,-0.00343,0.01012,0.07132
-0.01467,0.98284,-0.18387,-0.02254,0.21999,0.17046
0.01812,0.975,-0.22145,-0.0718,0.4941,0.20001
0.04676,0.96685,-0.25103,-0.22319,0.43748,0.04098
0.0702,0.95844,-0.27653,-0.28445,0.196,0.03724
0.08597,0.94802,-0.30637,-0.40463,-0.03845,0.15849
0.09466,0.93181,-0.35039,-0.42155,-0.08739,0.17917
0.09674,0.90883,-0.40579,-0.35704,-0.12322,0.2671
0.09152,0.88125,-0.46371,-0.29269,-0.19097,0.35763
0.07769,0.85385,-0.51468,-0.13951,-0.24539,0.46204
0.06358,0.82788,-0.5573,0.03417,-0.27308,0.37133
0.05485,0.80374,-0.59244,0.05683,-0.3093,0.24642
0.04739,0.77997,-0.62402,-0.04884,-0.36963,0.26961
0.03499,0.75648,-0.65308,-0.09662,-0.45278,0.29963
0.01844,0.73754,-0.67505,-0.0889,-0.37121,0.32031
0.00078,0.72432,-0.68946,-0.11497,-0.29207,0.28211
-0.01382,0.71808,-0.69582,-0.10478,-0.24971,0.17077
-0.02076,0.72041,-0.69324,-0.12109,-0.23446,0.08437
-0.01949,0.73023,-0.68293,-0.12718,-0.23467,0.04361
-0.01309,0.7449,-0.66705,-0.07958,-0.21642,-0.07413
-0.00034,0.75791,-0.65236,0.12448,-0.18752,-0.47447
0.02143,0.7571,-0.65295,-0.00467,-0.23977,-0.36342
0.03165,0.75089,-0.65967,-0.30931,-0.10062,-0.20846
0.04466,0.744,-0.66668,0.28853,1.18686,-0.04511
0.05898,0.75692,-0.65084,0.04461,1.61,-0.61439
0.05216,0.775,-0.62981,0.14506,1.0497,-0.49962
0.05456,0.79721,-0.60123,-0.00797,-0.29195,0.01568
0.05873,0.81649,-0.57436,0.00329,-0.21232,0.02257
0.05698,0.83455,-0.54798,0.08349,-0.13977,0.14327
0.05119,0.85003,-0.52425,0.00141,0.06155,0.21269
0.04699,0.86404,-0.50123,-0.07165,0.1986,0.18105
0.04524,0.87733,-0.47774,-0.24563,0.34548,0.1327
0.04674,0.89208,-0.44946,-0.30344,0.34527,0.08749
0.05139,0.90769,-0.41649,-0.2337,0.24041,0.07883
0.0557,0.9225,-0.38196,-0.07819,0.06093,0.11199
0.05877,0.93604,-0.34695,-0.02317,-0.00528,0.11049
0.06012,0.94857,-0.31081,-0.01082,-0.01513,0.07315
0.06034,0.95975,-0.27431,0.05674,-0.02055,0.11243
0.05936,0.96961,-0.23736,0.04986,-0.03925,0.14208
0.05584,0.97766,-0.20262,0.04449,-0.06862,0.13811
0.04927,0.98422,-0.16995,-0.00566,-0.17604,0.17678
0.03882,0.98923,-0.14115,-0.01195,-0.24683,0.14557
0.02485,0.99269,-0.11813,0.0263,-0.25344,0.10219
0.01177,0.99498,-0.09934,0.08323,-0.31365,0.07398
1e-05,0.99658,-0.0826,0.09281,-0.23403,0.04924
-0.00933,0.9977,-0.06713,0.10762,-0.15474,-0.00684
-0.01706,0.9985,-0.05205,0.17654,-0.10914,0.00996
-0.02406,0.99901,-0.03736,0.1474,-0.0145,-0.02374
-0.02074,0.99933,-0.03001,0.17069,0.00596,-0.10257
-0.02804,0.99941,-0.0199,0.19774,0.02383,-0.23809
-0.0367,0.99926,-0.01106,0.24821,0.03676,-0.20262
-0.04502,0.99897,-0.00602,0.26899,0.04176,-0.17298
-0.05171,0.99865,-0.00404,0.25842,-0.0289,-0.14591
-0.05794,0.99832,-0.00169,0.25865,-0.05276,-0.15709
-0.06536,0.99786,0.00228,0.23684,-0.05708,-0.15279
-0.0748,0.99717,0.00809,0.20248,-0.01065,-0.12857
-0.08463,0.99629,0.01597,0.03682,0.12672,-0.01639
-0.09286,0.99546,0.02089,0.06535,0.18829,0.08671
-0.10088,0.99471,0.01955,0.12708,0.25497,0.07772
-0.10682,0.99408,0.01989,-0.03888,0.28302,-0.02737
-0.11138,0.9935,0.02354,-0.1188,0.38477,-0.0597
-0.1185,0.99259,0.02672,-0.22255,0.44933,0.00134
-0.1274,0.99147,0.02735,-0.26295,0.44355,0.03574
-0.13769,0.99013,0.02604,-0.22282,0.37069,0.07759
-0.14964,0.98849,0.02237,-0.10324,0.2887,0.07231
-0.1611,0.98681,0.01592,0.00722,0.17753,-0.02456
-0.16779,0.98581,0.00456,0.12084,0.11496,-0.17502
-0.16472,0.9862,-0.01686,0.15505,0.13229,-0.27337
-0.15007,0.98732,-0.05173,0.1829,0.14964,-0.23921
-0.12573,0.98744,-0.09573,0.15246,0.14912,-0.09905
-0.0958,0.98489,-0.14426,0.08388,0.14894,0.03133
-0.06454,0.979,-0.19337,0.10524,0.16399,0.16155
-0.02991,0.97102,-0.23711,0.13121,0.30579,0.23421
0.00874,0.9628,-0.27008,-0.00886,0.24451,0.18704
0.04179,0.95441,-0.29556,-0.24432,0.02101,0.11719
0.06459,0.94402,-0.32351,-0.30661,-0.03681,0.14383
0.07426,0.93012,-0.35966,-0.32162,-0.08604,0.23295
0.07513,0.91164,-0.40405,-0.24924,-0.04887,0.19141
0.07491,0.88872,-0.45229,-0.20715,-0.01183,0.14147
0.07489,0.86477,-0.49655,-0.15888,-0.05201,0.34067
0.07675,0.84268,-0.53292,-0.03032,-0.11482,0.3525
0.08234,0.82046,-0.56574,0.02184,-0.08338,0.23103
0.0888,0.79544,-0.59949,-0.07783,-0.16957,0.21616
0.08977,0.76993,-0.63178,-0.04537,-0.30292,0.27529
0.08439,0.74771,-0.65864,-0.04533,-0.28139,0.27293
0.07664,0.73052,-0.67857,-0.03178,-0.3719,0.22693
0.06672,0.71892,-0.69189,-0.03814,-0.32811,0.18032
0.0526,0.71314,-0.69905,-0.04231,-0.25978,0.1162
0.03535,0.71283,-0.70045,-0.01139,-0.28958,0.09483
0.02159,0.71786,-0.69586,0.01424,-0.37656,0.12426
0.01649,0.72825,-0.68511,-0.02462,-0.36163,0.09243
0.01777,0.74269,-0.66939,-0.01632,-0.32367,-0.0166
0.02275,0.75753,-0.6524,0.05419,-0.23089,-0.15242
0.03316,0.76393,-0.64445,0.04727,0.02646,-0.23
0.04762,0.75939,-0.64889,-0.09245,0.32461,-0.16662
0.06497,0.74647,-0.66224,-0.05596,1.012,-0.50022
0.07358,0.73846,-0.67027,-0.08959,0.77129,0.01046
0.06694,0.75671,-0.65031,0.00955,0.49251,-0.03743
0.07448,0.77665,-0.62551,-0.05512,-0.14965,-0.02053
0.08043,0.79706,-0.59851,-0.06107,-0.17007,-0.04753
0.08245,0.81423,-0.57466,0.0335,-0.1422,0.05701
0.08085,0.82974,-0.55227,0.03904,-0.08186,0.08239
0.08069,0.84414,-0.53002,-0.09982,0.03274,0.11281
0.08323,0.85843,-0.50614,-0.28103,0.13493,0.10253
0.08824,0.87332,-0.47908,-0.32768,0.24968,0.09465
0.09475,0.88883,-0.44833,-0.23914,0.24865,0.10812
0.10291,0.90436,-0.41417,-0.11779,0.16,0.12773
0.11046,0.91897,-0.37853,-0.03604,-0.01732,0.14119
0.11496,0.93235,-0.34279,0.02472,-0.00654,0.13673
0.11326,0.94502,-0.30676,0.05091,0.00805,0.10815
0.10677,0.9566,-0.27115,0.07512,0.03266,0.09781
0.09624,0.96711,-0.23545,0.06582,0.07299,0.10454
0.08388,0.97629,-0.19955,0.00132,0.06645,0.12972
0.07221,0.98364,-0.16503,0.0033,-0.05379,0.13671
0.06012,0.98916,-0.13399,0.0472,-0.21187,0.13528
0.04861,0.99315,-0.10626,0.03555,-0.3163,0.117
0.03719,0.99593,-0.08208,0.0169,-0.30007,0.0806
0.02687,0.99772,-0.06191,0.05169,-0.30119,0.07433
0.01629,0.99887,-0.04468,0.03191,-0.21857,0.03424
0.0068,0.99961,-0.02694,0.04465,-0.20159,0.01455
-0.00355,0.99994,-0.00998,0.10752,-0.05787,-0.15466
-0.01581,0.99986,0.00472,0.14298,0.00238,-0.27773
-0.02979,0.99942,0.01649,0.23981,0.06735,-0.24864
-0.04289,0.99882,0.0227,0.29313,0.09836,-0.21309
-0.05238,0.99835,0.02363,0.35414,0.03681,-0.13891
-0.05905,0.998,0.02254,0.30361,-0.00954,-0.10506
-0.06466,0.99768,0.0214,0.19587,0.12052,-0.0854
-0.07051,0.99724,0.02326,0.07757,0.25583,0.06411
-0.07798,0.99669,0.02302,0.18093,0.39027,0.23661
-0.08667,0.99606,0.01889,-0.00038,0.34762,-0.01747
-0.09318,0.99547,0.01868,-0.08086,0.42391,-0.07111
-0.09843,0.99492,0.02086,-0.24784,0.38337,-0.02896
-0.10474,0.99434,0.01776,-0.29991,0.28429,-0.02484
-0.10964,0.99394,0.00814,-0.24443,0.23096,-0.03327
-0.11215,0.99368,-0.00465,-0.1241,0.20711,-0.08235
-0.1106,0.99369,-0.01858,0.03687,0.17622,-0.19056
-0.10225,0.99414,-0.03497,0.18553,0.13321,-0.13592
-0.08533,0.99455,-0.05994,0.30593,0.09191,-0.13673
-0.06173,0.99369,-0.09364,0.15147,0.04276,-0.20844
-0.03224,0.99019,-0.13593,-0.01569,0.01661,-0.08203
0.00043,0.98299,-0.18368,-0.00726,0.17287,0.14743
0.034,0.97381,-0.22481,-0.03646,0.42147,0.12386
0.06457,0.96517,-0.25352,-0.15089,0.50816,0.0254
0.08876,0.95768,-0.27379,-0.25992,0.26653,0.03849
0.10736,0.94839,-0.29839,-0.31965,0.17179,0.08428
0.11996,0.93368,-0.33743,-0.32822,0.15295,0.09048
0.12652,0.91327,-0.38721,-0.24878,0.08673,0.08222
0.125,0.88879,-0.44093,-0.24071,0.03302,0.20742
0.11176,0.86347,-0.49186,-0.18877,-0.04112,0.33832
0.09464,0.83886,-0.53606,0.08044,-0.22814,0.27596
0.0834,0.81452,-0.5741,0.06363,-0.16839,0.22454
0.07475,0.78928,-0.60947,-0.00712,-0.1452,0.22167
0.06039,0.76393,-0.64246,-0.02675,-0.46256,0.29627
0.04003,0.74083,-0.6705,-0.01491,-0.43814,0.34967
0.01927,0.72098,-0.69268,-0.01097,-0.41546,0.34718
0.00103,0.7049,-0.7093,-0.08361,-0.32845,0.31625
-0.01375,0.69462,-0.71924,-0.12991,-0.29244,0.2531
-0.0223,0.69195,-0.7216,-0.09985,-0.29252,0.20022
-0.02487,0.69694,-0.71669,-0.06459,-0.34089,0.17051
-0.02186,0.70809,-0.70579,-0.02587,-0.39314,0.13508
-0.01356,0.72328,-0.69043,0.0813,-0.34432,-0.10338
0.00127,0.7383,-0.67448,0.13562,-0.19446,-0.31561
0.02416,0.74117,-0.67088,0.17574,-0.06881,-0.46701
0.05632,0.72115,-0.69048,-0.21774,0.34831,-0.40267
0.07737,0.69889,-0.71104,0.11419,0.51349,0.13576
0.08378,0.70875,-0.70047,0.07661,0.79926,-0.09639
0.08016,0.72741,-0.6815,-0.03715,0.13974,-0.06844
0.07765,0.74984,-0.65705,-0.12203,-0.01457,-0.01014
0.07576,0.76988,-0.63368,-0.11215,-0.0142,0.00381
0.06992,0.78795,-0.61175,-0.0218,0.0301,0.06196
0.06271,0.80466,-0.59041,-0.02892,0.00643,0.09331
0.05745,0.82104,-0.56798,-0.18167,0.10439,0.21347
0.05596,0.83729,-0.54389,-0.22472,0.25046,0.13781
0.06036,0.85363,-0.51737,-0.23533,0.23779,0.11417
0.07131,0.87046,-0.48705,-0.19117,0.08729,0.08449
0.08583,0.88784,-0.45207,-0.09639,-0.00346,0.10258
0.1009,0.90489,-0.41352,-0.00646,-0.1336,0.14294
0.11305,0.92112,-0.37251,0.02991,-0.01539,0.1343
0.11983,0.93678,-0.32875,0.0798,0.07968,0.12575
0.12144,0.95091,-0.28465,0.09096,0.11355,0.06721
0.11992,0.96295,-0.24154,0.09223,0.07596,0.02302
0.11567,0.97288,-0.20029,0.08584,-0.01535,0.01363
0.10725,0.98076,-0.16313,0.04427,-0.11356,0.02218
0.09457,0.98696,-0.13024,0.01197,-0.20544,0.05653
0.07839,0.99194,-0.09953,-0.01676,-0.27286,0.07124
0.06011,0.99565,-0.07118,-0.03012,-0.2955,0.05841
0.04236,0.99808,-0.04508,-0.01449,-0.2839,0.04198
0.02615,0.99944,-0.02089,0.03238,-0.26645,0.03746
0.01106,0.99994,0.00021,0.06095,-0.22809,0.01597
-0.00242,0.99982,0.01885,0.04612,-0.15956,-0.01614
-0.01279,0.99923,0.03709,0.03458,-0.06785,-0.06286
-0.02179,0.99829,0.05423,0.04822,0.03261,-0.16626
-0.02745,0.99755,0.06429,0.09399,0.0273,-0.22518
-0.03499,0.99652,0.07563,0.17054,0.13434,-0.2185
-0.04165,0.99565,0.08332,0.20966,0.05032,-0.13676
-0.02935,0.9961,0.08319,0.23426,0.01475,-0.06865
-0.03412,0.99542,0.08928,0.22381,-0.09625,-0.02981
-0.03941,0.99438,0.09828,0.19196,-0.11122,-0.06181
-0.04655,0.99284,0.11,0.18723,-0.06141,-0.09836
-0.05466,0.99099,0.12232,0.14371,0.01028,-0.14199
-0.06389,0.98875,0.13527,0.06785,0.01783,-0.1073
-0.07276,0.98631,0.14795,0.02551,-0.05376,-0.08939
-0.0813,0.98369,0.16044,0.05433,0.06236,-0.0458
-0.08857,0.98109,0.17209,0.02259,-0.01039,0.02347
-0.09331,0.97884,0.18211,-0.0005,0.03601,-0.06315
-0.09752,0.97636,0.1929,0.04256,0.14661,-0.09562
-0.10205,0.97416,0.20147,-0.04443,0.22977,-0.16174
-0.10608,0.97321,0.20398,-0.0404,0.23072,-0.16425
-0.10838,0.97383,0.19977,0.1977,0.36952,-0.07611
-0.10704,0.9762,0.18862,0.18861,0.4367,0.00103
-0.09777,0.98093,0.16798,0.12354,0.43148,0.01423
-0.07903,0.98693,0.14042,0.04569,0.39925,0.04354
-0.05645,0.9928,0.10568,-0.12548,0.00064,0.00118
-0.03377,0.99757,0.06092,-0.19467,-0.09286,0.03313
-0.01346,0.99988,0.00721,-0.26631,-0.11722,-0.02932
0.0025,0.99871,-0.05062,-0.33847,-0.03219,0.05913
0.01451,0.99396,-0.10874,-0.4187,0.16705,0.12475
0.02771,0.98635,-0.16232,-0.40745,0.29601,0.14631
0.049,0.97679,-0.20854,-0.33069,0.25382,0.08809
0.07446,0.96554,-0.2494,-0.29301,0.17105,0.06048
0.09758,0.95195,-0.29029,-0.24218,0.0925,0.13215
0.11753,0.93587,-0.33216,-0.15743,-0.00688,0.13095
0.13128,0.91988,-0.36957,-0.12956,-0.01632,0.17366
0.13865,0.90592,-0.40011,-0.10465,-0.11011,0.18835
0.14116,0.8949,-0.42336,-0.0982,-0.21182,0.14977
0.13766,0.888,-0.43875,-0.12302,-0.30022,0.1593
0.12937,0.88545,-0.44636,-0.10978,-0.39014,0.15197
0.11826,0.88645,-0.44745,-0.05442,-0.43659,0.07941
0.10576,0.89089,-0.44173,-0.00485,-0.42762,0.00837
0.09336,0.8975,-0.43102,0.06802,-0.38676,-0.02537
0.0843,0.90454,-0.41797,0.05396,-0.29181,-0.07641
0.08028,0.91168,-0.40299,0.08621,-0.23647,-0.15589
0.08028,0.91879,-0.3865,0.09861,-0.18959,-0.24989
0.0823,0.92536,-0.37005,0.14382,-0.06249,-0.37849
0.08381,0.93065,-0.35618,0.16284,0.07936,-0.4336
0.08454,0.9339,-0.34739,0.17701,0.12257,-0.42948
0.08619,0.93492,-0.34422,0.15554,0.08964,-0.36443
0.08991,0.93305,-0.34832,0.07976,0.05619,-0.22582
0.09733,0.92779,-0.36018,-0.27955,0.18288,-0.27515
0.10488,0.92144,-0.3741,-0.50154,0.97824,-0.32896
0.10376,0.91722,-0.38464,-0.67655,1.25503,0.12954
0.10792,0.91553,-0.38751,-0.50616,-0.13211,0.48384
0.11522,0.91628,-0.38361,-0.61324,-0.54317,0.35321
0.12107,0.92046,-0.3716,-0.50781,-0.48562,0.42623
0.12367,0.92938,-0.34779,-0.43203,-0.48309,0.49651
0.12141,0.94286,-0.31029,-0.2162,-0.16283,0.43704
0.11326,0.95651,-0.2688,-0.13825,0.10941,0.36646
0.1068,0.96793,-0.22739,-0.25537,0.79069,0.23822
0.11438,0.97541,-0.18839,-0.17725,0.16079,0.22684
0.12751,0.98035,-0.15052,-0.15282,0.02617,0.16264
0.13817,0.98418,-0.11088,-0.14396,-0.09302,0.13528
0.14369,0.98715,-0.06999,-0.13481,-0.15876,0.13206
0.14358,0.98915,-0.03095,-0.10364,-0.19239,0.13413
0.13697,0.99057,0.00286,-0.0311,-0.12729,0.11539
0.12398,0.9918,0.03094,0.02919,-0.03856,0.07602
0.10776,0.99265,0.05512,0.04262,0.04294,0.05035
0.09175,0.99288,0.076,0.11785,0.06211,0.03525
0.07571,0.99255,0.09544,0.21072,-0.00134,-0.07066
0.0599,0.99161,0.11458,0.28266,-0.07104,-0.15321
0.04364,0.99015,0.13307,0.33459,-0.09516,-0.23846
0.02741,0.98821,0.15063,0.36024,-0.08034,-0.28081
0.01271,0.98611,0.1656,0.3761,-0.06157,-0.28565
0.0007,0.98443,0.17576,0.34049,-0.09907,-0.24846
-0.00862,0.98354,0.18047,0.36299,-0.02628,-0.16495
-0.01353,0.98308,0.18269,0.23869,-0.07161,-0.12118
-0.01502,0.9829,0.1835,0.15407,-0.08486,-0.09697
-0.01494,0.98305,0.18272,0.12837,-0.03023,-0.12379
-0.0146,0.9836,0.17977,0.05924,0.04876,-0.18276
-0.01388,0.98464,0.17403,0.00862,0.25446,-0.21559
-0.01258,0.98635,0.16421,-0.0386,0.35844,-0.16776
-0.00685,0.98886,0.1487,-0.12609,0.34497,0.06585
0.00471,0.99196,0.12645,-0.12931,0.21385,-0.02246
0.02171,0.99529,0.09449,-0.17651,0.17624,-0.0348
0.04095,0.99806,0.04693,-0.33501,0.1292,-0.07432
0.0607,0.99805,-0.01477,-0.54303,0.12407,-0.09582
0.07814,0.99329,-0.0853,-0.71855,0.37236,-0.12204
0.08936,0.98455,-0.15058,-0.80204,0.77686,0.10644
0.09868,0.97545,-0.1969,-0.53187,0.42716,0.05589
0.1144,0.96567,-0.23324,-0.14269,0.18704,-0.03599
0.13248,0.95413,-0.26848,-0.03917,0.14583,-0.03608
0.14753,0.9407,-0.30547,0.01898,0.05055,0.01477
0.15599,0.92641,-0.34268,-0.00794,-0.12555,0.12019
0.15991,0.91247,-0.3766,-0.12412,-0.28446,0.14764
0.15836,0.90149,-0.40279,-0.19435,-0.36157,0.15184
0.15253,0.89487,-0.41944,-0.19745,-0.3556,0.12243
0.14548,0.89222,-0.42754,-0.1877,-0.35517,0.10251
0.13786,0.89284,-0.42875,-0.22041,-0.38347,0.07743
0.12742,0.89688,-0.42351,-0.2545,-0.40157,0.00805
0.11527,0.90355,-0.4127,-0.1988,-0.38887,0.01478
0.10633,0.9105,-0.39961,-0.15163,-0.35095,0.0238
0.10113,0.9176,-0.38442,-0.07249,-0.28314,-0.02844
0.09745,0.92546,-0.36609,0.02541,-0.28821,-0.12894
0.09355,0.93404,-0.34469,0.03357,-0.2635,-0.20943
0.08854,0.94219,-0.32316,0.28746,0.0127,-0.52849
0.08508,0.94757,-0.30802,0.29091,0.00733,-0.54363
0.08424,0.94932,-0.3028,0.38689,0.08556,-0.65445
0.08448,0.94844,-0.3055,0.31595,-0.03384,-0.32644
0.08905,0.94447,-0.31629,0.09926,0.04164,-0.2978
0.1005,0.9384,-0.3306,-0.18567,0.22514,-0.20826
0.10565,0.93491,-0.33879,-0.65972,1.12731,0.02536
0.10206,0.9354,-0.33854,-0.75484,0.37357,0.20599
0.09733,0.93693,-0.33569,-0.72848,-0.23284,0.19932
0.0975,0.93846,-0.33133,-0.45999,-0.45159,0.37858
0.10316,0.94267,-0.31738,-0.37965,-0.47564,0.54966
0.1086,0.95215,-0.2857,-0.30319,-0.33157,0.54759
0.10576,0.96399,-0.24401,-0.13009,0.32451,0.35122
0.09663,0.97461,-0.20199,-0.13465,1.05063,0.24308
0.10048,0.98106,-0.16561,-0.30124,0.52056,0.22906
0.11044,0.98507,-0.13206,-0.11532,0.0624,0.18911
0.11727,0.98833,-0.09723,-0.11244,-0.08022,0.21204
0.1193,0.99094,-0.06174,-0.15291,-0.10375,0.23526
0.11777,0.99262,-0.02903,-0.1385,-0.10556,0.20377
0.11245,0.99366,-0.00018,-0.14511,-0.12028,0.15932
0.1013,0.99451,0.02606,-0.003,-0.07146,0.1306
0.0858,0.99506,0.04986,0.0849,0.04725,0.0753
0.06868,0.99496,0.07303,0.2426,0.1036,0.01935
0.05243,0.99415,0.09438,0.46402,0.08124,-0.06887
0.03904,0.99281,0.11317,0.48501,0.04149,-0.13039
0.02781,0.99124,0.12914,0.45229,-0.03936,-0.18195
0.01712,0.98963,0.14259,0.31044,-0.13148,-0.22502
0.00618,0.98816,0.1533,0.26737,-0.13527,-0.23254
-0.00515,0.98701,0.16055,0.17997,-0.07356,-0.27089
-0.0171,0.98591,0.16641,0.18826,0.0171,-0.2348
-0.02846,0.98479,0.17142,0.15861,0.00807,-0.18619
-0.03862,0.98371,0.17557,0.14395,-0.03312,-0.17978
-0.04854,0.98264,0.17908,0.126,-0.05292,-0.23092
-0.06007,0.9815,0.18178,0.05958,0.01879,-0.24213
-0.07348,0.98026,0.18355,-0.02765,0.17549,-0.15103
-0.08726,0.97903,0.18406,-0.07327,0.3591,0.02046
-0.09914,0.97867,0.17994,0.09026,0.4886,0.10105
-0.10632,0.97867,0.17577,0.08797,0.49592,-0.16009
-0.11071,0.97881,0.17226,0.05247,0.60081,-0.25532
-0.1129,0.98023,0.16249,-0.02411,0.58734,-0.14141
-0.11346,0.98278,0.14586,-0.05881,0.50691,-0.09284
-0.11355,0.98564,0.12502,-0.07788,0.31463,0.04489
-0.11347,0.98864,0.09856,-0.09553,0.20286,0.03195
-0.10981,0.99163,0.06788,-0.09623,0.15563,-0.00963
-0.09839,0.99445,0.03714,0.06749,0.08872,-0.2049
-0.07675,0.99705,0.00264,0.19214,0.07795,-0.23549
-0.0456,0.99806,-0.04243,0.19404,0.0794,-0.24782
-0.01024,0.99535,-0.09581,0.14934,0.10728,-0.20816
0.02422,0.98897,-0.14611,-0.06841,0.29301,0.09046
0.05232,0.98018,-0.1911,-0.17854,0.29696,0.12947
0.0751,0.97008,-0.23088,-0.25775,0.30537,0.17169
0.09474,0.95825,-0.2698,-0.36979,0.14544,0.19805
0.11186,0.94259,-0.31467,-0.36764,0.12223,0.18338
0.12412,0.92155,-0.36788,-0.34756,0.1116,0.17952
0.12723,0.89501,-0.42751,-0.31153,-0.13586,0.21232
0.12317,0.86629,-0.48413,-0.28917,-0.16301,0.24286
0.11423,0.83712,-0.53496,-0.24268,-0.13482,0.31079
0.10236,0.80766,-0.58069,-0.09757,-0.19612,0.36528
0.08916,0.78074,-0.61846,0.00044,-0.3217,0.33817
0.07712,0.7575,-0.64826,0.04214,-0.39194,0.31768
0.06381,0.73749,-0.67234,0.0031,-0.32057,0.25056
0.04945,0.72198,-0.69015,-0.1012,-0.32079,0.26104
0.03645,0.71275,-0.70047,-0.16817,-0.29367,0.24452
0.02541,0.71225,-0.70146,-0.15307,-0.35228,0.18767
0.01649,0.72038,-0.69338,-0.13535,-0.37508,0.14229
0.01024,0.73414,-0.67892,-0.07552,-0.4372,0.09514
0.0105,0.75142,-0.65974,-0.02374,-0.35935,-0.02139
0.01836,0.76931,-0.63861,-0.00864,-0.30958,-0.13286
0.0318,0.78153,-0.62305,-0.03325,0.02526,-0.53666
0.05167,0.77076,-0.63503,-0.13093,0.37098,-0.63168
0.06853,0.74757,-0.66064,-0.24935,0.49997,-0.52751
0.06819,0.75671,-0.65018,-0.03384,0.81439,0.01151
0.0693,0.77251,-0.63121,-0.04147,0.50203,-0.2414
0.07263,0.79431,-0.60316,-0.10545,-0.0559,-0.13509
0.079,0.81456,-0.57468,-0.02256,-0.1866,0.06477
0.08222,0.83317,-0.54686,0.06917,-0.1926,0.10178
0.08572,0.8493,-0.5209,-0.02288,-0.09776,0.14457
0.0918,0.86367,-0.49563,-0.06342,0.06062,0.15718
0.09714,0.87768,-0.4693,-0.18746,0.27459,0.11539
0.10289,0.89245,-0.43927,-0.15912,0.33235,0.06607
0.10988,0.9079,-0.40454,-0.06306,0.21982,0.08673
0.1172,0.92269,-0.36729,-0.00233,0.04893,0.10806
0.12269,0.93645,-0.32866,0.03115,0.04521,0.08931
0.1239,0.94881,-0.29054,0.05279,0.01292,0.06611
0.12159,0.95959,-0.25377,0.06013,-0.01922,0.06585
0.11576,0.96944,-0.21633,0.04948,-0.006,0.05493
0.10652,0.97805,-0.1791,-0.00031,0.02417,0.07731
0.09512,0.98522,-0.14246,-0.00525,-0.0342,0.09176
0.08092,0.99074,-0.10906,0.01228,-0.11394,0.06901
0.06352,0.99478,-0.07991,-0.00244,-0.2664,0.01682
0.04531,0.99756,-0.05314,0.01105,-0.31482,-0.00391
0.02815,0.99918,-0.02892,0.00116,-0.28039,-0.00259
0.01059,0.9999,-0.00962,0.06459,-0.25495,-0.02976
-0.00378,0.99997,0.00591,0.06025,-0.18908,-0.06177
-0.01607,0.99967,0.01986,0.11162,-0.13223,-0.06266
-0.0277,0.99909,0.03254,0.21688,-0.06658,-0.11587
-0.03178,0.99884,0.03619,0.30044,-0.00459,-0.29867
-0.04539,0.99787,0.04691,0.33879,0.09794,-0.32341
-0.05621,0.99696,0.05389,0.35861,0.13011,-0.29156
-0.06334,0.99643,0.05589,0.3599,0.01621,-0.2015
-0.06763,0.99603,0.05795,0.3285,-0.03025,-0.18961
-0.07139,0.99546,0.06287,0.30706,-0.02775,-0.17489
-0.07585,0.99466,0.06991,0.09827,0.16848,0.00143
-0.08203,0.99389,0.0739,0.12965,0.26214,0.04958
-0.08982,0.99332,0.07239,0.1262,0.36597,0.10214
-0.09703,0.99295,0.06802,-0.15726,0.6293,0.01766
-0.10184,0.99267,0.0651,-0.18634,0.73811,-0.07825
-0.10675,0.99215,0.06514,-0.34322,0.67205,-0.08507
-0.11238,0.99167,0.06288,-0.26131,0.45191,-0.08551
-0.1163,0.99189,0.05134,-0.08208,0.27325,-0.14912
-0.11329,0.99327,0.02402,0.1248,0.22171,-0.24203
-0.0969,0.99515,-0.01682,0.32833,0.14515,-0.19404
-0.06247,0.99624,-0.06,0.44676,0.11809,-0.06734
-0.0186,0.99435,-0.10449,0.27928,-0.01562,0.06353
0.02127,0.98656,-0.16199,0.12018,-0.08153,-0.01552
0.05283,0.97361,-0.22204,0.05165,0.16125,0.09817
0.07432,0.95754,-0.27857,-0.10706,0.37285,0.09554
0.08231,0.9401,-0.3308,-0.24703,0.39591,0.0768
0.07923,0.92147,-0.38029,-0.26932,0.19305,0.16966
0.07105,0.89847,-0.43326,-0.23335,-0.00026,0.29619
0.05605,0.86941,-0.49089,-0.23134,-0.13815,0.33634
0.03096,0.83793,-0.54489,-0.16325,-0.23917,0.55768
0.00656,0.80712,-0.59035,-0.06698,-0.3607,0.51337
-0.00395,0.77991,-0.62588,-0.065,-0.35251,0.26304
-0.01172,0.75512,-0.65548,-0.11679,-0.38517,0.28552
-0.02685,0.73133,-0.6815,-0.02505,-0.41776,0.31151
-0.04288,0.71027,-0.70262,0.02991,-0.37962,0.33942
-0.05511,0.69391,-0.71795,-0.04581,-0.26357,0.33062
-0.06515,0.68446,-0.72613,-0.08982,-0.25282,0.30628
-0.07214,0.68368,-0.72621,-0.12487,-0.27584,0.15776
-0.07436,0.68988,-0.72009,-0.09068,-0.32204,0.07243
-0.07136,0.70129,-0.7093,-0.05019,-0.34025,0.08442
-0.06482,0.71814,-0.69287,0.00747,-0.34343,-0.00937
-0.05544,0.7385,-0.67197,0.01077,-0.37342,-0.08035
-0.04167,0.75787,-0.65107,0.04965,-0.22203,-0.21316
-0.02061,0.76414,-0.64472,0.09593,0.07276,-0.49434
0.01006,0.74086,-0.67159,-0.05675,0.52118,-0.67309
0.02353,0.7232,-0.69023,-0.13941,0.59567,-0.20892
0.02195,0.74364,-0.66822,-0.0864,0.66257,-0.21441
0.02705,0.7616,-0.64749,-0.03527,0.21074,-0.31047
0.0416,0.78552,-0.61743,-0.10012,-0.2274,-0.07019
0.05529,0.80425,-0.59171,-0.01333,-0.20646,-0.01467
0.0635,0.82224,-0.56559,0.13335,-0.14348,0.04895
0.06873,0.83841,-0.54068,0.0485,0.03508,0.17015
0.07129,0.85308,-0.51689,-0.06231,0.17184,0.18451
0.07245,0.86754,-0.49206,-0.21644,0.26219,0.13737
0.07683,0.88241,-0.46416,-0.22507,0.21817,0.10335
0.08455,0.89748,-0.43288,-0.1641,0.13415,0.09136
0.09445,0.91253,-0.39796,-0.13196,0.08349,0.1063
0.10354,0.92702,-0.36044,-0.00044,0.03634,0.15308
0.10979,0.94048,-0.32163,0.02475,0.06713,0.12343
0.11321,0.95254,-0.28259,0.0386,0.04664,0.12475
0.11326,0.96332,-0.24327,0.03352,0.03529,0.1174
0.10947,0.97261,-0.20503,0.03547,0.04321,0.08605
0.10256,0.98034,-0.16857,0.05356,-0.06185,0.10671
0.09182,0.98656,-0.13518,0.06073,-0.19852,0.09342
0.07645,0.99132,-0.10694,0.03225,-0.30634,0.07009
0.05862,0.99484,-0.08285,0.02147,-0.28842,0.03831
0.0419,0.99722,-0.06166,-0.00735,-0.26731,0.0351
0.02597,0.9987,-0.04382,0.03737,-0.19949,-0.01134
0.01158,0.99951,-0.02922,0.06255,-0.1201,-0.04362
-0.00012,0.99987,-0.016,0.08683,-0.08006,-0.04957
-0.01119,0.99993,-0.00428,0.11779,-0.00121,-0.08142
-0.00762,0.99997,-0.00275,0.19418,-0.02087,-0.16891
-0.01923,0.99979,0.00725,0.24049,-0.00162,-0.22716
-0.02643,0.99957,0.01227,0.26189,0.03619,-0.19988
-0.03576,0.99921,0.01719,0.30436,0.04194,-0.19517
-0.04236,0.99889,0.0206,0.30394,-0.02306,-0.15675
-0.04764,0.99859,0.02363,0.28471,0.01562,-0.12327
-0.0524,0.99821,0.02883,0.11374,0.06769,-0.08254
-0.05815,0.9977,0.0349,0.0982,0.19871,0.02957
-0.06539,0.9972,0.03639,0.03594,0.41324,0.10956
-0.07253,0.99677,0.03438,0.01308,0.40279,0.06847
-0.07774,0.99643,0.03297,0.02246,0.3877,0.03624
-0.08246,0.99603,0.03352,-0.26706,0.49993,-0.0786
-0.0887,0.99551,0.03302,-0.31177,0.47737,-0.06854
-0.09406,0.99515,0.02863,-0.31512,0.43745,-0.04623
-0.0982,0.99501,0.01778,-0.04313,0.2545,-0.06879
-0.09826,0.99515,-0.00321,-0.04306,0.25436,-0.0478
-0.08978,0.99537,-0.03434,0.24553,0.2091,-0.15475
-0.06807,0.99498,-0.07343,0.30307,0.17641,-0.12388
-0.03565,0.99291,-0.11341,0.24624,0.13377,-0.08192
-0.00172,0.98703,-0.16054,0.05815,-0.00807,0.05809
0.02776,0.97592,-0.21634,0.01612,0.00963,0.05271
0.05188,0.96163,-0.26941,0.02745,0.21739,0.1194
0.06815,0.94586,-0.31734,-0.04639,0.36183,0.14307
0.07537,0.9301,-0.3595,-0.12261,0.28127,0.13338
0.07818,0.914,-0.39812,-0.15769,0.09272,0.18155
0.08049,0.89495,-0.43884,-0.15573,-0.0427,0.25656
0.08149,0.87243,-0.48189,-0.10415,-0.17073,0.21743
0.07995,0.84772,-0.52438,-0.09912,-0.17495,0.30569
0.07324,0.82116,-0.56597,-0.07652,-0.19995,0.38237
0.06404,0.79534,-0.60278,-0.09941,-0.21323,0.36128
0.05628,0.77051,-0.63494,-0.08991,-0.17798,0.30945
0.04921,0.74633,-0.66375,-0.08139,-0.23746,0.28647
0.03874,0.7242,-0.6885,-0.04356,-0.3087,0.29359
0.02597,0.70548,-0.70825,-0.06021,-0.23339,0.26138
0.01419,0.69056,-0.72314,-0.12146,-0.25692,0.23293
0.00664,0.68072,-0.73251,-0.15205,-0.24331,0.15985
0.00456,0.67615,-0.73675,-0.12209,-0.21813,0.1332
0.00594,0.67743,-0.73556,-0.07302,-0.22791,0.09355
0.00811,0.68499,-0.7285,-0.03105,-0.30087,0.08417
0.0115,0.698,-0.716,-0.00234,-0.28148,0.03415
0.01716,0.71449,-0.69943,0.01165,-0.27039,-0.06598
0.02528,0.73136,-0.68152,0.08382,-0.18888,-0.18022
0.03691,0.74513,-0.6659,0.13189,-0.11985,-0.25593
0.05524,0.74606,-0.66359,0.0359,0.17408,-0.30383
0.07795,0.72573,-0.68355,-0.02126,0.87707,-0.66159
0.07512,0.72346,-0.68626,-0.13725,0.68595,0.07625
0.06124,0.74086,-0.66887,-0.02107,0.41184,-0.35076
0.06061,0.75785,-0.64961,-0.09932,-0.12653,0.05246
0.06716,0.77735,-0.62548,-0.09346,-0.1201,-0.08027
0.07191,0.79507,-0.60223,-0.00962,-0.13405,0.04924
0.07589,0.81184,-0.57892,0.01902,-0.01076,0.13332
0.08231,0.82765,-0.55517,-0.09432,0.12652,0.15249
0.0907,0.84252,-0.53096,-0.12771,0.09768,0.16021
0.10024,0.85763,-0.5044,-0.15476,0.18386,0.09826
0.1108,0.8729,-0.47515,-0.1142,0.14138,0.09567
0.12153,0.88775,-0.44399,-0.06744,0.09723,0.08579
0.13122,0.90207,-0.41116,0.02315,0.01869,0.12852
0.13769,0.91591,-0.37703,0.01669,0.00485,0.09439
0.14033,0.92918,-0.34195,0.02066,0.11263,0.10394
0.13884,0.94138,-0.30747,0.00308,0.13431,0.12993
0.13436,0.9522,-0.27434,0.0063,0.11854,0.11652
0.12771,0.96178,-0.2422,0.01799,0.06296,0.11857
0.11901,0.97,-0.21198,0.0305,-0.04303,0.10889
0.1079,0.97699,-0.18398,0.01424,-0.174,0.08985
0.09409,0.98284,-0.15869,0.01167,-0.24817,0.06488
0.08084,0.98746,-0.13562,-0.05592,-0.27521,0.02005
0.06865,0.99103,-0.11465,-0.07289,-0.27071,-0.04433
0.05906,0.99356,-0.0967,-0.03139,-0.22705,-0.0678
0.05152,0.99515,-0.0838,0.04764,-0.15067,-0.1102
0.04612,0.99602,-0.07624,0.09941,-0.12749,-0.12507
0.04219,0.99643,-0.07307,0.15913,-0.1063,-0.13618
0.03895,0.99659,-0.07276,0.3202,-0.06541,-0.17068
0.03563,0.99659,-0.07437,0.31902,-0.06534,-0.14813
0.0315,0.99658,-0.07644,0.30767,-0.06898,-0.13219
0.02559,0.99669,-0.07721,0.27371,-0.0963,-0.10607
0.01695,0.99702,-0.07529,0.28362,-0.03237,-0.0928
0.00535,0.99757,-0.06953,0.17673,0.08193,-0.03604
-0.00866,0.99819,-0.0595,0.08505,0.26183,0.04557
-0.02289,0.99866,-0.04635,-0.03821,0.44207,0.14837
-0.03736,0.99884,-0.03029,-0.13322,0.444,0.18933
-0.05029,0.99864,-0.01358,-0.02009,0.25949,0.11634
-0.06482,0.9979,0.00162,-0.07657,0.29552,0.06048
-0.08399,0.99637,0.01387,-0.16903,0.56914,0.08213
-0.1043,0.9944,0.01718,-0.11746,0.52332,0.01436
-0.11903,0.99283,0.01092,-0.06687,0.45749,-0.06402
-0.12594,0.99204,-0.00166,0.05825,0.29976,-0.23548
-0.12503,0.99195,-0.01997,0.17869,0.1179,-0.25972
-0.11608,0.99232,-0.04272,0.28004,0.01767,-0.28082
-0.10102,0.99232,-0.07142,0.18935,-0.03005,-0.20932
-0.08177,0.99084,-0.10751,0.08458,-0.10003,-0.11971
-0.0571,0.98719,-0.14896,0.07817,-0.06163,0.05649
-0.02558,0.98099,-0.19235,0.17016,0.15895,0.02462
0.01102,0.97272,-0.23171,0.08723,0.43214,0.01897
0.04632,0.96346,-0.26381,-0.11735,0.47524,0.05779
0.06778,0.95331,-0.29428,-0.39975,0.28823,0.05409
0.0583,0.94322,-0.327,-0.53446,-0.16888,0.48929
0.05983,0.92888,-0.36552,-0.26959,-0.08528,0.10877
0.06807,0.90801,-0.41339,-0.25258,0.0925,-0.35778
0.07322,0.87991,-0.46947,-0.22666,-0.02491,0.37209
0.06423,0.85173,-0.52003,-0.22204,-0.13681,0.47406
0.05045,0.82494,-0.56296,-0.08758,-0.2179,0.51543
0.04418,0.80032,-0.59795,0.00572,-0.16978,0.37324
