gravity.x,gravity.y,gravity.z,userAcceleration.x,userAcceleration.y,userAcceleration.z
0.46128,0.78435,-0.41474,-0.09747,-0.01177,0.07939
0.4872,0.78353,-0.38564,0.37562,0.49223,0.44968
0.51086,0.79254,-0.33303,0.06161,0.26081,0.48963
0.51791,0.79676,-0.31134,-0.10797,0.13372,-0.02418
0.52066,0.80035,-0.29725,-0.02537,-0.09552,0.27604
0.52755,0.80885,-0.25972,-0.03899,-0.06035,0.26353
0.53033,0.81811,-0.22237,0.1078,0.17514,0.07294
0.53035,0.82737,-0.18492,0.27824,0.40231,-0.27621
0.52423,0.83997,-0.14013,0.39291,0.46561,-0.12604
0.51135,0.85394,-0.09649,0.4681,0.40569,0.0142
0.49093,0.86909,-0.06057,0.57191,0.1444,0.34592
0.47034,0.88183,-0.03414,0.47599,0.40467,0.15054
0.4513,0.89234,-0.00812,0.54432,0.17872,0.02159
0.43665,0.89956,0.01118,0.58116,0.09829,-0.29617
0.42944,0.90275,0.02487,0.56851,0.12639,-0.43852
0.42859,0.90269,0.03823,0.28424,0.01878,-0.59742
0.42944,0.90169,0.05033,0.07628,-0.06679,-0.70562
0.42944,0.90135,0.05617,0.02535,-0.28245,-0.55353
0.4279,0.90256,0.0479,-0.07205,-0.44232,-0.31581
0.42674,0.90408,0.02307,-0.2682,-0.54877,-0.37087
0.42762,0.9039,-0.01069,-0.2851,-0.59658,-0.33775
0.43142,0.90059,-0.05304,-0.20579,-0.46561,-0.06413
0.4399,0.89169,-0.10668,-0.14985,-0.29115,0.15002
0.45396,0.87619,-0.16191,-0.10874,0.12815,0.19899
0.46985,0.85714,-0.21108,-0.00855,0.57589,0.31426
0.49491,0.83056,-0.2554,0.3046,0.80736,0.17897
0.52041,0.79527,-0.31101,0.55969,1.08352,0.13781
0.53451,0.75506,-0.37972,0.42813,1.09486,0.08241
0.52316,0.71562,-0.4628,0.41097,0.68559,-0.0169
0.49109,0.68018,-0.54423,-0.39896,0.25152,-0.04577
0.44161,0.65689,-0.61113,-0.43526,0.0799,0.19257
0.40196,0.64218,-0.65272,-0.36091,-0.11497,0.3198
0.38361,0.62992,-0.67531,0.0404,0.01965,-0.14277
0.37528,0.6265,-0.68313,0.00102,0.0395,-0.05304
0.37259,0.63473,-0.67697,-0.10842,-0.02142,0.05246
0.37394,0.65119,-0.66039,-0.4125,-0.43447,0.4706
0.37967,0.67001,-0.63791,-0.40786,-0.48004,0.43469
0.38977,0.68917,-0.61083,-0.38767,-0.53747,0.37165
0.40761,0.70705,-0.57787,-0.30962,-0.5907,0.60076
0.43294,0.72751,-0.53224,-0.42768,-0.58173,0.67999
0.45969,0.74943,-0.47649,-0.54149,-0.59964,0.56974
0.47441,0.76379,-0.43768,-0.21473,-0.17317,-0.19889
0.48772,0.76479,-0.42098,0.26506,0.14469,0.03654
0.52022,0.76988,-0.36967,0.61235,0.39634,0.62513
0.53677,0.78765,-0.30247,-0.11292,0.25645,-0.18217
0.53552,0.79188,-0.2935,0.02146,0.29944,-0.33714
0.54161,0.79309,-0.27871,0.09755,0.05846,0.15635
0.55224,0.79817,-0.24074,0.04673,0.04605,0.42166
0.55761,0.80334,-0.20905,0.08438,0.14775,0.02738
0.55587,0.81261,-0.17512,0.17705,0.27364,-0.15184
0.54479,0.8279,-0.13338,0.47942,0.37171,0.19633
0.53055,0.84279,-0.09073,0.68652,0.35149,0.30096
0.51511,0.85567,-0.05002,0.64873,0.35628,0.16184
0.49687,0.86747,-0.02503,0.55721,0.34652,0.02876
0.47626,0.87924,-0.01095,0.55087,0.22007,-0.05675
0.45826,0.88882,-0.00057,0.43658,0.22251,-0.24092
0.44937,0.8931,0.02085,0.3633,0.15374,-0.36236
0.44535,0.894,0.04934,0.19732,-0.01178,-0.46825
0.44062,0.89466,0.07372,0.01362,-0.21082,-0.7565
0.43529,0.89576,0.09015,0.03306,-0.42991,-0.71727
0.43347,0.89633,0.09329,0.06302,-0.55015,-0.31144
0.4326,0.89774,0.08317,-0.19011,-0.5569,-0.2718
0.43635,0.89799,0.05669,-0.26135,-0.49778,-0.28312
0.44451,0.89565,0.01471,-0.29012,-0.47744,-0.33316
0.45716,0.88846,-0.04062,-0.24552,-0.3539,-0.13237
0.47202,0.87566,-0.10207,-0.15803,-0.14297,0.21435
0.48655,0.85967,-0.15566,-0.18525,0.19614,0.26659
0.50299,0.84142,-0.19754,-0.12026,0.67501,0.10048
0.52177,0.81568,-0.24986,0.27741,0.8746,-0.13914
0.52753,0.78212,-0.33168,0.39611,0.87883,0.05575
0.51508,0.74392,-0.42577,0.47126,0.81722,0.1697
0.49548,0.70308,-0.51007,0.07663,0.30964,-0.2947
0.46534,0.65643,-0.59377,0.10678,0.3563,-0.21101
0.40473,0.62228,-0.67005,-0.34632,0.03038,0.13634
0.3528,0.5909,-0.72552,-0.42067,-0.11554,-0.06498
0.3089,0.56459,-0.76538,-0.20684,-0.09284,-0.00512
0.27261,0.54627,-0.79201,-0.00131,-0.06064,0.10748
0.25052,0.54407,-0.80076,-0.12094,-0.03507,0.17421
0.23691,0.55883,-0.79472,-0.20864,-0.02438,0.22436
0.2288,0.58273,-0.7798,-0.2772,-0.08808,0.32098
0.2311,0.61139,-0.75683,-0.27873,-0.41189,0.29304
0.24814,0.64601,-0.72187,-0.297,-0.43704,0.17019
0.27633,0.68324,-0.67588,-0.18508,-0.51042,0.06696
0.30221,0.71551,-0.62986,0.06731,-0.47272,-0.72372
0.32035,0.73184,-0.60149,0.04917,-0.48906,-0.75209
0.3308,0.71909,-0.61113,0.80718,-0.31908,-0.65612
0.34956,0.71517,-0.60526,0.06808,-0.23501,0.83588
0.38239,0.71949,-0.57976,-0.5057,-0.06653,1.22917
0.38506,0.73327,-0.5604,-1.82685,0.49964,-0.60328
0.37563,0.72629,-0.57568,0.1869,0.29028,0.90893
0.43075,0.72958,-0.5312,-0.04043,0.19865,0.66615
0.47424,0.74085,-0.47564,-0.04635,0.3353,0.19515
0.50642,0.74831,-0.42845,0.10361,0.46163,0.20677
0.52979,0.75951,-0.37745,0.0436,0.28802,0.18554
0.54525,0.77014,-0.33103,-0.0153,0.13673,0.1469
0.55735,0.78014,-0.28417,0.05311,0.23535,-0.02279
0.56893,0.79178,-0.22228,0.19142,0.06361,0.10148
0.58171,0.79993,-0.14737,0.19247,0.00416,0.25711
0.58825,0.80536,-0.07319,0.01769,-0.04892,0.21914
0.5887,0.80834,-0.00437,0.02264,-0.1577,0.07227
0.58021,0.81244,0.05747,0.05097,-0.16762,-0.13676
0.56402,0.82068,0.0915,0.00394,-0.15359,-0.11429
0.55209,0.82743,0.10273,0.01946,0.00449,-0.12488
0.54468,0.83094,0.11345,0.02608,-0.0868,-0.11858
0.53955,0.83115,0.13447,-0.05294,-0.17101,-0.05266
0.53287,0.83112,0.159,-0.17408,-0.07159,-0.13677
0.522,0.83325,0.18223,-0.28177,-0.00569,-0.17338
0.50813,0.83729,0.20186,-0.28902,-0.1822,-0.09313
0.49363,0.84211,0.2172,-0.20908,-0.25554,-0.09315
0.47878,0.84742,0.22948,0.13637,-0.22741,-0.1825
0.46472,0.85106,0.24439,0.23736,-0.13273,-0.17011
0.45539,0.85184,0.25883,0.24784,-0.24258,-0.24818
0.44819,0.85196,0.27074,0.28243,-0.38357,-0.34687
0.44308,0.8527,0.27673,0.34593,-0.33227,-0.32744
0.44018,0.85454,0.2757,0.42154,-0.23527,-0.20504
0.44073,0.85616,0.26972,0.43856,-0.25649,-0.18493
0.44547,0.85734,0.25792,0.48083,-0.13853,-0.24716
0.45771,0.85726,0.2358,0.3346,0.24788,0.11528
0.4817,0.85192,0.20544,0.22596,0.63374,0.2522
0.50977,0.84321,0.1707,0.14461,0.72127,-0.57504
0.53238,0.8387,0.1147,-0.0217,0.57376,-0.41965
0.54266,0.83914,0.03692,-0.0795,0.95005,-0.17418
0.5437,0.83876,-0.02944,-0.38475,1.37004,-0.00535
0.54353,0.83528,-0.08291,-0.7298,0.8773,0.14344
0.53904,0.82997,-0.14349,-0.59644,0.49523,0.069
0.52351,0.82776,-0.20184,-0.21487,0.11433,0.20009
0.52555,0.81223,-0.25313,-0.03578,0.05196,0.26892
0.53559,0.789,-0.30103,0.01612,-0.01892,0.07656
0.54548,0.76737,-0.33705,-0.19866,-0.05809,0.15768
0.54493,0.75305,-0.36874,-0.34472,-0.22748,0.35055
0.53434,0.74456,-0.40013,-0.38813,-0.36059,0.44914
0.51809,0.73873,-0.43111,-0.42709,-0.35189,0.41326
0.50168,0.73613,-0.45435,-0.37105,-0.30725,0.25115
0.48831,0.73933,-0.46363,-0.28572,-0.31007,0.22274
0.4804,0.74643,-0.46051,-0.26017,-0.29182,0.24814
0.48006,0.75517,-0.4464,-0.25982,-0.30056,0.23402
0.48377,0.76476,-0.42557,-0.17754,-0.08118,-0.05802
0.489,0.7753,-0.39974,-0.19647,-0.07398,-0.10412
0.49863,0.78593,-0.36563,-0.15761,-0.16546,-0.23015
0.51278,0.79457,-0.32514,-0.08956,-0.21111,-0.45509
0.5283,0.79832,-0.28911,0.06948,-0.13569,-0.71478
0.53756,0.79863,-0.27059,0.22015,0.00881,-0.73009
0.54039,0.7966,-0.27093,0.24284,0.13744,-0.6818
0.5457,0.78948,-0.28094,-0.00998,0.20559,-0.41336
0.5541,0.77874,-0.29418,-0.21535,-0.07239,-0.32502
0.56554,0.76811,-0.3003,-0.21409,0.02454,-0.03974
0.57141,0.76344,-0.30108,0.23319,1.44461,0.32167
0.56379,0.77667,-0.28093,0.35953,1.95235,0.35179
0.56755,0.78175,-0.25839,-0.77929,0.33337,0.65184
0.58819,0.7693,-0.24943,-0.68183,0.14012,0.37436
0.59711,0.76911,-0.22788,-0.79371,0.00912,-0.02859
0.59565,0.78085,-0.18834,-0.31629,-0.14872,0.62073
0.59895,0.79348,-0.10795,-0.02986,-0.14926,0.92635
0.5985,0.80089,-0.01957,0.15439,0.08747,0.73628
0.59168,0.80308,0.07056,0.16787,0.11691,0.4687
0.58518,0.7977,0.14573,0.36725,-0.14173,-0.07739
0.58844,0.79009,0.17174,0.51156,-0.22677,-0.33121
0.58782,0.789,0.17872,0.10839,-0.17638,-0.18912
0.58677,0.78699,0.19064,-0.24702,-0.01575,0.00487
0.58801,0.78375,0.19994,-0.18779,-0.02205,0.13271
0.58641,0.78102,0.21479,-0.10036,-0.06205,-0.09273
0.58101,0.78022,0.23169,0.03268,-0.08491,-0.28286
0.57422,0.78068,0.2466,0.15704,-0.1286,-0.14157
0.56766,0.78065,0.26144,0.17787,-0.17956,-0.09347
0.56268,0.78013,0.27347,0.19446,-0.18322,-0.30415
0.55785,0.77997,0.28362,0.13758,-0.14036,-0.45002
0.55224,0.7812,0.29115,0.15506,-0.15299,-0.40661
0.54635,0.7836,0.29574,0.32892,-0.12906,-0.31349
0.54318,0.78489,0.29817,0.43657,-0.08505,-0.31991
0.54484,0.78508,0.29461,0.54555,-0.04567,-0.34072
0.54979,0.78604,0.28264,0.3389,-0.05015,-0.33415
0.5578,0.78924,0.25685,0.23736,-0.00623,-0.37629
0.57052,0.79251,0.21551,0.08264,0.51721,-0.11591
0.5896,0.79165,0.16019,-0.13237,0.68778,-0.0887
0.60838,0.78895,0.08624,-0.35922,0.64529,-0.39412
0.62099,0.78379,-0.00605,-0.27334,0.72957,-0.21273
0.61727,0.77971,-0.10506,-0.23151,1.07553,-0.08384
0.60518,0.77318,-0.1896,-0.25727,1.27917,0.22375
0.60042,0.7565,-0.25923,0.11533,1.00445,0.38379
0.60366,0.72024,-0.34183,0.81756,0.34565,0.23057
0.58903,0.67049,-0.45109,0.79985,0.20401,0.35975
0.55295,0.62421,-0.55191,0.60453,0.10785,0.40088
0.51689,0.5903,-0.61998,-0.46831,-0.29447,0.37794
0.48451,0.5666,-0.66649,-0.59196,-0.39499,0.37958
0.44178,0.54688,-0.71116,-0.50779,-0.34405,0.33089
0.39837,0.53417,-0.74563,-0.34739,-0.17373,0.49061
0.35559,0.52786,-0.77131,-0.38365,-0.15982,0.52358
0.32614,0.52248,-0.78781,-0.35143,-0.21628,0.47777
0.31354,0.5195,-0.79487,-0.25226,-0.23161,0.1879
0.30907,0.51927,-0.79676,-0.20058,-0.21246,-0.00223
0.30745,0.52211,-0.79553,-0.15305,-0.23699,-0.06
0.3049,0.52804,-0.7926,-0.04342,-0.10679,-0.21856
0.30283,0.53702,-0.78734,0.10314,-0.09247,-0.25687
0.30774,0.54967,-0.77664,0.08276,-0.05273,-0.28106
0.31935,0.56536,-0.76051,-0.12213,-0.00915,-0.37175
0.33251,0.58063,-0.74317,-0.10313,-0.11922,-0.54275
0.34524,0.59509,-0.72573,-0.0497,-0.34658,-0.07113
0.35987,0.62277,-0.69473,-0.39564,-0.04811,0.36622
0.37696,0.64698,-0.66281,-0.38587,0.28226,-0.29657
0.37579,0.66371,-0.64674,0.28271,1.68548,-1.01591
0.3912,0.67006,-0.63086,0.48014,0.35945,0.93963
0.4344,0.68617,-0.5835,-0.39964,-0.29675,0.71852
0.4673,0.70401,-0.53479,-0.49339,-0.17542,0.3367
0.48111,0.71758,-0.5036,-0.09882,0.07118,0.57324
0.5012,0.73185,-0.46174,0.00924,0.20816,0.65777
0.53047,0.74732,-0.40015,0.14778,0.22993,0.64757
0.55664,0.76025,-0.33492,0.24691,0.15474,0.35495
0.57541,0.76815,-0.2808,0.16934,0.12488,0.00482
0.58829,0.77274,-0.23828,0.01934,0.02381,-0.19488
0.59309,0.77881,-0.2042,-0.14898,-0.11794,-0.04297
0.59063,0.7876,-0.17561,-0.1781,-0.2316,-0.02234
0.58711,0.7966,-0.14397,-0.07014,-0.21065,0.19772
0.58487,0.80364,-0.10998,-0.08698,-0.12651,0.28838
0.58211,0.80963,-0.07519,0.0173,-0.18731,0.28405
0.57532,0.8167,-0.04486,0.11021,-0.25133,0.17773
0.56415,0.82529,-0.02495,0.30198,-0.04288,0.0116
0.5508,0.83438,-0.02057,0.31655,0.05376,-0.00497
0.53939,0.84195,-0.0129,0.33471,0.09406,-0.03954
0.5291,0.84853,-0.00713,0.37991,0.10118,-0.29836
0.52003,0.85415,-0.00142,0.31562,0.10786,-0.23783
0.51197,0.85894,0.0103,0.23356,0.10084,-0.16973
0.50416,0.863,0.03255,0.30654,0.10716,-0.23636
0.49779,0.8653,0.05874,0.32339,0.14705,-0.3247
0.49184,0.86729,0.07678,0.29458,0.22046,-0.39964
0.48742,0.8693,0.0821,-0.06927,0.51745,-0.32391
0.48462,0.87162,0.07366,-0.07898,0.48733,-0.25958
0.47858,0.87677,0.04735,-0.13004,0.48412,-0.15427
0.47117,0.88204,-0.00212,0.0145,-0.23903,-0.29604
0.47112,0.87972,-0.06431,0.11781,-0.18139,-0.22024
0.48806,0.86387,-0.12459,0.23869,-0.12562,0.00591
0.52051,0.8346,-0.18033,0.32114,0.43457,-0.0427
0.54491,0.80101,-0.24791,0.30524,0.42866,-0.12839
0.55115,0.7678,-0.32669,0.09149,0.28698,0.33264
0.54534,0.73243,-0.40761,-0.1981,0.44336,0.20439
0.52681,0.69995,-0.48222,-0.24126,0.58331,0.33911
0.50702,0.66536,-0.54792,-0.32097,0.29608,0.05743
0.50081,0.63031,-0.5932,-0.19968,0.33313,-0.19505
0.49636,0.59957,-0.62781,-0.04509,-0.00658,0.13249
0.47973,0.57854,-0.65966,-0.11925,-0.16695,0.05803
0.46011,0.57245,-0.67868,-0.20494,-0.22282,0.20865
0.44701,0.57683,-0.6837,-0.30579,-0.36381,0.29535
0.44245,0.58841,-0.67677,-0.34418,-0.44203,0.28862
0.44577,0.60547,-0.65931,-0.30877,-0.44294,0.23763
0.452,0.62482,-0.63663,-0.24268,-0.42496,0.08371
0.46319,0.64448,-0.60836,-0.14233,-0.44223,0.27425
0.48084,0.66894,-0.56684,-0.30526,-0.35071,0.55391
0.5001,0.69686,-0.5141,-0.39475,-0.40566,0.4815
0.51479,0.71593,-0.47163,-0.33389,-0.14383,0.41426
0.52179,0.72438,-0.45056,-0.34919,0.10055,-0.027
0.54808,0.73157,-0.40547,0.42616,0.73707,0.88106
0.56404,0.7459,-0.35425,-0.00557,0.4976,-0.33192
0.56326,0.75355,-0.33896,0.19397,0.14801,-0.08571
0.57072,0.75968,-0.31172,0.16558,-0.17777,0.51008
0.58424,0.76332,-0.27569,0.00414,-0.18694,0.43055
0.5889,0.76726,-0.25397,-0.04783,-0.03966,0.05991
0.58914,0.77492,-0.22892,-0.04639,0.09606,-0.09487
0.58745,0.78556,-0.19442,0.10728,0.22783,-0.10509
0.57509,0.80113,-0.1657,0.24272,0.07581,0.00176
0.55105,0.82118,-0.14835,0.32538,0.08641,0.05955
0.52287,0.84059,-0.14149,0.65721,0.3367,0.08428
0.49999,0.85567,-0.13354,0.81624,0.2617,-0.04404
0.4887,0.86507,-0.11324,0.72843,0.08587,-0.13509
0.48937,0.86824,-0.08169,0.49122,-0.01074,-0.00014
0.49703,0.86667,-0.04294,0.05493,0.10019,-0.18988
0.49964,0.8662,-0.00729,-0.21093,0.14201,-0.80715
0.49299,0.86981,0.01952,-0.10332,-0.03803,-0.76119
0.48346,0.87485,0.02994,0.06928,-0.2098,-0.48429
0.47794,0.87809,0.02331,-0.02487,-0.32367,-0.31776
0.47552,0.8797,0.00136,-0.25848,-0.2274,-0.13403
0.47692,0.87813,-0.03783,-0.34459,-0.146,-0.13662
0.48335,0.87069,-0.09094,-0.29114,-0.14561,-0.08336
0.49301,0.85571,-0.15715,-0.22827,-0.14211,0.01542
0.50648,0.83227,-0.22541,0.31458,0.14793,0.22287
0.52633,0.80381,-0.27724,0.45842,0.43816,0.26249
0.54346,0.77268,-0.32805,0.48891,0.58237,0.28719
0.54265,0.74458,-0.38875,-0.05552,0.61493,0.44319
0.53451,0.71938,-0.44361,-0.21112,0.10985,0.15825
0.5277,0.68629,-0.50054,0.04969,0.20218,-0.27441
0.51658,0.64497,-0.56316,-0.07835,0.52123,-0.31318
0.48281,0.61121,-0.62715,-0.11463,0.42269,0.00222
0.45472,0.58933,-0.66777,-0.0717,-0.21999,0.13812
0.44053,0.57259,-0.69143,0.05162,-0.2119,-0.08953
0.42763,0.5708,-0.70094,0.00807,-0.01477,0.00076
0.41545,0.58003,-0.70069,-0.09709,0.00717,0.20141
0.40176,0.59625,-0.69504,-0.22082,-0.22258,0.43411
0.39428,0.61672,-0.68133,-0.34427,-0.35982,0.36835
0.39866,0.641,-0.65589,-0.42006,-0.43264,0.24369
0.41451,0.6648,-0.62146,-0.32891,-0.5552,0.20022
0.44096,0.68775,-0.57667,-0.26701,-0.57557,0.56181
0.47085,0.713,-0.51956,-0.3713,-0.51738,0.60311
0.49671,0.73073,-0.46831,-0.41252,-0.32216,0.40136
0.5129,0.73835,-0.43792,-0.31507,0.32726,-0.26023
0.53088,0.7388,-0.41514,0.47728,0.92922,0.52719
0.55557,0.75338,-0.35179,0.09264,0.2934,0.40454
0.5692,0.75981,-0.31417,0.10088,0.03282,-0.26347
0.57601,0.7592,-0.30304,0.2005,-0.12301,0.04308
0.5858,0.75933,-0.2833,0.11313,-0.17562,0.43558
0.59603,0.76045,-0.2578,0.00346,-0.02728,0.2786
0.59996,0.76473,-0.23504,-0.03499,0.06659,0.06005
0.60345,0.77091,-0.20383,0.08971,0.18693,-0.08224
0.59934,0.78244,-0.16909,0.09383,0.1754,-0.11698
0.58498,0.79846,-0.14233,0.37859,0.16327,0.06263
0.56258,0.81693,-0.12704,0.74539,0.4857,0.16213
0.54016,0.83292,-0.12027,0.8118,0.41284,0.01722
0.52563,0.84406,-0.10622,0.63014,0.15429,-0.15846
0.51924,0.85095,-0.07913,0.31178,0.05671,0.00989
0.5177,0.85431,-0.04624,0.09096,0.13247,0.03385
0.51451,0.85738,-0.01313,-0.08348,0.21292,-0.47425
0.50442,0.86333,0.01462,0.01494,0.0732,-0.60337
0.49048,0.87072,0.03571,0.14043,-0.24099,-0.53949
0.47935,0.87636,0.04709,0.15028,-0.45297,-0.48473
0.47291,0.87973,0.04938,-0.00252,-0.47127,-0.35874
0.46889,0.88248,0.03719,-0.19818,-0.29668,-0.1284
0.46794,0.88374,0.00644,-0.30219,-0.19584,-0.07958
0.47021,0.8816,-0.04099,-0.30005,-0.06759,-0.18363
0.4753,0.87422,-0.09915,-0.23333,-0.10446,-0.02621
0.48368,0.85972,-0.16411,-0.08277,-0.06667,0.08809
0.50151,0.83651,-0.22077,0.12658,0.2098,0.13573
0.52311,0.80872,-0.26893,0.29752,0.58698,0.15785
0.54427,0.77576,-0.31934,0.41321,0.61447,0.18675
0.5529,0.74121,-0.38067,0.34832,0.55021,0.31117
0.54616,0.70825,-0.44731,0.19054,0.44014,0.15324
0.53656,0.67421,-0.5075,-0.00073,0.36783,-0.22761
0.51812,0.64066,-0.56666,-0.16429,0.45213,-0.30947
0.48602,0.61395,-0.62197,-0.26166,0.31726,-0.01792
0.46166,0.59923,-0.65406,-0.03936,-0.25903,0.22521
0.44416,0.58659,-0.67722,0.07972,-0.30459,0.10545
0.43044,0.58394,-0.68829,-0.0363,-0.04895,0.03512
0.41915,0.59273,-0.68774,-0.13407,-0.1496,0.20332
0.41074,0.6081,-0.67934,-0.2737,-0.24865,0.37848
0.40991,0.62726,-0.66221,-0.41322,-0.41846,0.41714
0.41549,0.64654,-0.6398,-0.43462,-0.51695,0.19504
0.42876,0.66372,-0.61289,-0.27816,-0.621,0.2012
0.45135,0.6836,-0.57356,-0.31563,-0.57401,0.59386
0.47803,0.70599,-0.52256,-0.52476,-0.5043,0.32874
0.49949,0.71779,-0.48506,-0.38029,-0.02239,0.05171
0.51064,0.7214,-0.46779,0.29883,0.60958,0.14335
0.53566,0.73014,-0.42423,0.31259,0.67006,0.76072
0.55863,0.74504,-0.36449,-0.06792,0.20008,-0.00375
0.56946,0.74649,-0.34419,0.15721,0.00683,0.06379
0.58134,0.74738,-0.32165,0.12897,-0.06207,0.48364
0.59188,0.75001,-0.29523,0.04529,-0.01949,0.39116
0.58987,0.75605,-0.28364,-0.00446,0.01203,0.04917
0.58118,0.76573,-0.27548,0.01089,0.06253,-0.07517
0.57395,0.77817,-0.25503,0.12771,0.16397,-0.03446
0.56605,0.79296,-0.22537,0.20641,0.10674,0.02233
0.55451,0.80917,-0.19431,0.21036,0.16034,0.0288
0.53515,0.82644,-0.17499,0.71658,0.30305,0.1435
0.51345,0.8417,-0.16705,0.81402,0.28707,-0.03655
0.50116,0.85177,-0.15275,0.74649,0.17443,-0.16631
0.49713,0.85869,-0.12458,0.2495,0.14719,0.13342
0.49923,0.8616,-0.09175,0.1496,0.17289,0.10962
0.50202,0.86297,-0.05717,0.02716,0.17497,0.02762
0.49644,0.86767,-0.02642,-0.23519,0.16259,-0.6469
0.48664,0.8736,-0.00121,-0.10842,0.02963,-0.62054
0.47691,0.8788,0.01626,0.15254,-0.3407,-0.5745
0.46988,0.88236,0.02543,0.14983,-0.49958,-0.43391
0.46721,0.8838,0.02457,-0.06603,-0.50386,-0.29782
0.46728,0.88408,0.00756,-0.22567,-0.28464,-0.14045
0.47128,0.88143,-0.0313,-0.3087,-0.15775,-0.09968
0.48249,0.87178,-0.08487,-0.25271,-0.09315,-0.12822
0.49801,0.85401,-0.15052,-0.1815,-0.04247,0.08555
0.51324,0.83166,-0.21197,-0.01801,0.23162,0.21581
0.53082,0.80564,-0.26302,0.092,0.6778,0.23973
0.54029,0.77965,-0.31661,0.10098,0.6861,0.11973
0.53636,0.75105,-0.38503,0.1383,0.68097,0.1869
0.5333,0.71676,-0.44928,0.36755,0.37728,0.13638
0.53254,0.67608,-0.50923,0.23237,0.29281,-0.42554
0.51542,0.63475,-0.57571,0.09109,0.48787,-0.28083
0.4817,0.60245,-0.63641,-0.37434,0.52765,0.07629
0.46068,0.57969,-0.67211,-0.21986,-0.47421,0.23588
0.43611,0.5602,-0.70426,0.02509,-0.20084,-0.03211
0.4134,0.54991,-0.72574,-0.03051,-0.02689,-0.09349
0.38934,0.55245,-0.73703,-0.16272,-0.06316,0.07799
0.36787,0.56563,-0.73806,-0.26401,-0.13538,0.28677
0.35604,0.586,-0.7279,-0.28001,-0.2713,0.40291
0.35539,0.61182,-0.70666,-0.2648,-0.23478,0.37582
0.36159,0.63988,-0.67809,-0.24141,-0.22582,0.20639
0.37049,0.66529,-0.64817,-0.13305,-0.3343,-0.03733
0.38509,0.68489,-0.61857,0.00703,-0.47362,0.16163
0.40883,0.70477,-0.5798,-0.17798,-0.527,0.39204
0.43632,0.72138,-0.53781,-0.30452,-0.2627,-0.04219
0.46166,0.72864,-0.50592,-0.12363,0.26975,0.05918
0.47885,0.73055,-0.48683,0.22594,0.56146,0.40121
0.50423,0.73508,-0.45322,-0.08983,0.30685,0.47562
0.52291,0.74428,-0.41546,-0.34558,-0.04985,0.0603
0.52914,0.74833,-0.40002,-0.1105,-0.21291,0.11333
0.53859,0.7532,-0.37763,-0.01359,-0.28376,0.38857
0.55643,0.75721,-0.34208,-0.01134,-0.36463,0.42712
0.57011,0.75927,-0.31381,0.14189,0.17537,-0.0437
0.57783,0.7635,-0.28842,0.14985,0.22459,-0.17844
0.58829,0.76782,-0.25371,0.15862,0.32108,-0.28546
0.59615,0.77322,-0.21619,0.22821,0.09699,0.02768
0.59942,0.77974,-0.18082,0.24375,0.09565,0.05459
0.59564,0.78896,-0.15083,0.21428,0.12362,0.05383
0.58284,0.80039,-0.14022,0.48594,0.14213,0.17339
0.56453,0.81313,-0.1419,0.56188,0.15662,0.06454
0.55263,0.8218,-0.13875,0.63507,0.18673,-0.12912
0.54932,0.82654,-0.12278,0.42675,0.16645,0.04918
0.55189,0.82859,-0.09416,0.32087,0.17917,0.01491
0.55391,0.83044,-0.05957,0.21803,0.16625,-0.08524
0.5528,0.83319,-0.01459,0.04082,0.28539,-0.02571
0.54348,0.83861,0.03692,0.0245,0.24693,-0.01585
0.53051,0.84317,0.08737,0.04431,0.21302,-0.05581
0.51581,0.84681,0.12976,0.06373,0.09796,-0.58622
0.49927,0.85139,0.16083,0.0419,0.02173,-0.7213
0.48325,0.8566,0.18083,0.01095,-0.19427,-0.95209
0.46816,0.86309,0.18946,0.09574,-0.41989,-0.51885
0.45927,0.86942,0.18216,0.03066,-0.39643,-0.08659
0.45937,0.87354,0.16094,-0.21734,-0.17182,-0.07978
0.46943,0.87292,0.13283,-0.26075,-0.18248,-0.42064
0.48266,0.86983,0.10213,-0.22986,-0.15654,-0.37382
0.49567,0.86679,0.05467,-0.02732,0.03127,0.07231
0.50676,0.86208,-0.00294,-0.02313,0.3086,0.17013
0.51914,0.85301,-0.05352,-0.14837,0.42572,0.21302
0.53161,0.84159,-0.09547,-0.29121,0.38076,0.31787
0.53962,0.8314,-0.13263,-0.46123,0.25596,0.20407
0.5384,0.82671,-0.16332,-0.6202,0.12953,0.20774
0.53036,0.8255,-0.19303,-0.42573,0.03657,0.10572
0.52093,0.82139,-0.23226,0.08349,0.04937,-0.52793
0.51365,0.80975,-0.28369,0.15835,0.25057,-0.21518
0.50888,0.79361,-0.33351,0.09629,0.20865,0.2462
0.50493,0.77793,-0.37399,-0.11869,0.15962,0.46206
0.50078,0.7621,-0.41039,-0.29761,-0.12431,0.46581
0.49512,0.74711,-0.4435,-0.3293,-0.28427,0.34766
0.48842,0.73513,-0.47014,-0.22522,-0.33782,0.30119
0.48522,0.72462,-0.48938,-0.12696,-0.26386,0.15813
0.48348,0.71594,-0.50367,-0.04804,-0.1504,0.13467
0.47994,0.71076,-0.51427,-0.04685,-0.10839,0.25261
0.47584,0.70977,-0.51943,-0.16378,-0.18641,0.34797
0.47486,0.71273,-0.51626,-0.3261,-0.26602,0.35717
0.47939,0.71844,-0.50402,-0.38054,-0.25535,0.32457
0.48716,0.72786,-0.48259,-0.34823,-0.22235,0.24688
0.49757,0.74045,-0.45184,-0.12087,-0.17485,0.02103
0.51276,0.7521,-0.41404,0.01819,-0.15446,-0.13196
0.53204,0.75894,-0.37543,0.17725,-0.11322,-0.34889
0.5515,0.76101,-0.34163,0.25531,-0.00613,-0.66886
0.56453,0.76364,-0.31332,0.12417,0.09418,-0.83865
0.57012,0.76731,-0.29358,0.07464,0.08166,-0.74574
0.57619,0.76753,-0.28091,0.13402,-0.03839,-0.43259
0.58753,0.76133,-0.27419,0.24671,-0.17777,-0.28804
0.60349,0.75163,-0.26619,0.18289,-0.1831,-0.22078
0.62024,0.74222,-0.25377,0.07528,-0.21254,-0.20222
0.62834,0.73945,-0.24167,0.64212,1.77421,0.12454
0.61638,0.75459,-0.22508,0.58311,2.06006,0.31384
0.61879,0.75404,-0.22029,-0.79819,0.82989,0.44264
0.63737,0.7378,-0.22227,-0.97375,0.06869,0.2181
0.64744,0.73449,-0.20334,-1.24049,-0.21697,0.09669
0.64672,0.74303,-0.17222,-1.19547,-0.32218,0.16616
0.64067,0.7582,-0.12112,-0.20387,-0.01717,0.80435
0.62922,0.77507,-0.05786,-0.08358,0.1712,0.85649
0.62063,0.78409,0.00407,-0.02366,0.346,0.80734
0.61975,0.7826,0.05872,0.67888,-0.07483,0.01383
0.62291,0.77654,0.09473,0.75026,-0.0966,-0.26234
0.62564,0.77099,0.11899,0.00807,0.10157,-0.17508
0.63376,0.7604,0.14191,-0.16515,0.13636,-0.01886
0.63932,0.75105,0.16492,-0.469,0.03235,0.22174
0.63902,0.74703,0.18331,-0.36783,0.04935,0.08841
0.63353,0.74713,0.20111,-0.03939,0.09377,-0.09413
0.62689,0.7468,0.22204,0.13632,0.0222,0.00548
0.62159,0.74515,0.24164,0.06382,-0.1057,0.02484
0.61622,0.7438,0.2589,-0.07759,-0.13296,-0.05853
0.60892,0.7448,0.27292,-0.12225,-0.06562,-0.20403
0.59858,0.74839,0.28569,-0.00867,-0.03411,-0.19164
0.58674,0.75259,0.2989,0.12251,0.00295,-0.18031
0.57539,0.75584,0.31245,0.15853,-0.01891,-0.25288
0.56527,0.75832,0.32468,0.16254,-0.09435,-0.32505
0.55595,0.76127,0.33376,0.21473,-0.14815,-0.23499
0.55174,0.7629,0.337,0.27259,-0.09892,-0.23223
0.54697,0.7649,0.34022,0.2881,-0.08575,-0.33973
0.54793,0.76491,0.33865,0.25323,-0.09558,-0.42136
0.55146,0.76501,0.33264,0.28542,0.08926,-0.28375
0.56038,0.76658,0.31357,0.27142,0.53601,0.11363
0.57733,0.76526,0.28472,0.14929,0.58722,0.05134
0.59729,0.76302,0.24707,0.01529,0.56185,-0.23964
0.61454,0.76631,0.18738,-0.17496,0.54678,-0.09537
0.6275,0.77119,0.10725,-0.29031,0.94811,-0.46189
0.63474,0.77223,0.02764,-0.37997,1.19321,-0.54427
0.63357,0.7716,-0.05675,-0.45237,0.70525,0.1096
0.61514,0.7717,-0.16149,0.07868,0.30719,0.42479
0.58684,0.76441,-0.26701,0.27,0.27394,0.50418
0.57109,0.73952,-0.35632,0.31275,0.21749,0.36502
0.56137,0.70954,-0.42594,0.09406,0.15875,-0.06125
0.54636,0.68312,-0.4846,0.04817,0.11798,0.12239
0.52299,0.65804,-0.54172,0.04981,0.09054,0.27664
0.49213,0.63437,-0.59614,-0.04721,-0.06635,0.48031
0.45908,0.61264,-0.64336,-0.11826,-0.10883,0.47208
0.42759,0.60003,-0.67611,-0.24491,-0.14682,0.46595
0.39831,0.59568,-0.6975,-0.53791,-0.23918,0.3019
0.37626,0.59215,-0.71259,-0.35374,-0.20066,0.1827
0.35824,0.58758,-0.72555,-0.17361,-0.16781,0.12243
0.34513,0.58296,-0.73556,-0.10837,-0.35194,0.23849
0.33869,0.57766,-0.7427,-0.15758,-0.36679,0.22848
0.33715,0.57324,-0.74681,-0.21545,-0.33238,0.17842
0.33659,0.56927,-0.75009,-0.26151,-0.3756,-0.18442
0.33568,0.56585,-0.75308,-0.21941,-0.3511,-0.33002
0.33272,0.56321,-0.75636,-0.09923,-0.26495,-0.61328
0.32537,0.56218,-0.76032,0.02157,-0.10549,-0.71791
0.31312,0.56664,-0.76215,0.0438,0.02456,-0.6584
0.29581,0.57219,-0.76492,-0.01215,0.18373,-0.41073
0.27859,0.58516,-0.76156,-0.26434,0.44152,0.41212
0.27568,0.59936,-0.75151,-0.39798,0.55676,-0.20865
0.27385,0.61362,-0.74059,-0.30205,0.75559,-0.40497
0.28446,0.62937,-0.72317,-0.10595,0.11048,0.77378
0.32709,0.64678,-0.68898,-0.34015,0.2017,0.71356
0.37109,0.66094,-0.65227,-0.17709,0.39546,0.58574
0.40981,0.67117,-0.61773,0.08543,0.42078,0.44023
0.4471,0.67824,-0.58317,0.26321,0.60078,0.19003
0.48212,0.68751,-0.54303,0.35429,0.62027,0.18956
0.51574,0.70123,-0.49223,0.1759,0.27356,0.26001
0.54496,0.71564,-0.43689,0.02384,0.06672,0.23277
0.56814,0.72865,-0.38247,-0.21925,-0.26045,0.13389
0.58418,0.74121,-0.33067,-0.14402,-0.28793,0.31625
0.59801,0.75311,-0.27426,-0.12357,-0.25279,0.32915
0.60709,0.76533,-0.21378,-0.06621,-0.2177,0.32656
0.61336,0.77509,-0.15172,0.01814,-0.11495,0.2422
0.61408,0.78328,-0.09688,0.04951,0.0132,0.0922
0.60892,0.7911,-0.05813,0.11224,0.02537,-0.10016
0.60182,0.79752,-0.04203,0.24327,-0.06452,-0.09583
0.59721,0.80137,-0.03391,0.24979,-0.23492,-0.05194
0.59635,0.80237,-0.02388,0.14003,-0.26317,-0.06583
0.59679,0.80219,-0.01805,-0.08126,-0.09106,-0.14675
0.59904,0.80062,-0.01288,-0.11034,-0.13504,-0.22973
0.60115,0.79913,-0.00329,-0.07677,-0.11863,-0.19517
0.59882,0.80087,0.00513,-0.02223,0.04827,0.10693
0.59367,0.80452,0.01741,-0.01709,0.04462,0.09465
0.5854,0.80984,0.03819,0.17787,0.07907,-0.14929
0.57671,0.81475,0.05992,0.48852,0.24531,-0.30046
0.57037,0.81738,0.08107,0.4671,0.3241,-0.34636
0.56525,0.81849,0.10281,0.40936,0.36766,-0.41381
0.5604,0.8194,0.12058,0.09265,0.39476,-0.4809
0.55384,0.82285,0.12718,0.03809,0.42698,-0.41213
0.54528,0.83034,0.11492,-0.03531,0.45671,-0.23484
0.54168,0.8362,0.08579,-0.00206,0.32391,-0.13134
0.54454,0.8379,0.03752,0.02051,0.11733,-0.08981
0.55126,0.83389,-0.0272,-0.06003,-0.04799,-0.23744
0.56358,0.82085,-0.09268,0.01441,-0.08806,-0.21934
0.57963,0.79972,-0.15645,0.07013,-0.02559,-0.02899
0.59697,0.77006,-0.22502,0.23628,0.32742,0.09385
0.60552,0.73897,-0.29541,0.19791,0.48103,0.3335
0.60335,0.70811,-0.36681,0.17328,0.37267,0.50713
0.59509,0.6707,-0.44274,0.19956,0.40005,0.08265
0.57362,0.62925,-0.52441,0.13738,0.52547,-0.11442
0.53815,0.59867,-0.59328,-0.32956,0.50379,-0.05305
0.50815,0.57904,-0.63757,-0.34276,-0.44506,0.35386
0.4863,0.55954,-0.67114,-0.07805,0.04877,0.07988
0.47296,0.54569,-0.69176,-0.05393,0.10772,0.01627
0.46341,0.54421,-0.69935,-0.22624,-0.08919,0.16004
0.4565,0.55405,-0.69616,-0.35521,-0.16787,0.24503
0.45433,0.57175,-0.68314,-0.30374,-0.26935,0.23078
0.45626,0.59546,-0.66125,-0.292,-0.3422,0.09941
0.46028,0.62004,-0.63536,-0.15788,-0.48691,0.03581
0.47185,0.6445,-0.60164,-0.07114,-0.46245,0.36213
0.48943,0.67246,-0.55521,-0.15957,-0.43477,0.42429
0.50836,0.69259,-0.51176,-0.1528,0.0294,0.15629
0.52671,0.70231,-0.4789,-0.07264,0.47129,0.39055
0.5457,0.71319,-0.43997,-0.25026,0.41108,0.66635
0.5581,0.72902,-0.3963,-0.46567,0.15271,-0.05125
0.55966,0.74137,-0.37034,-0.31657,0.077,-0.18044
0.56579,0.75256,-0.33696,0.11103,-0.2232,0.39349
0.57474,0.76066,-0.30179,0.27546,-0.28213,0.47249
0.58014,0.76601,-0.27689,0.34892,-0.20174,0.41481
0.58143,0.77007,-0.26254,0.18063,0.08275,-0.23288
0.58238,0.77521,-0.2447,-0.02794,0.17677,-0.29943
0.57913,0.78664,-0.21402,-0.016,0.02903,0.07145
0.56213,0.80533,-0.18832,0.14698,-0.00694,0.01396
0.52872,0.83075,-0.17411,0.71684,0.20302,0.26374
0.50017,0.84963,-0.16723,0.58815,0.56329,-0.08117
0.49199,0.85729,-0.15169,0.67673,0.34898,-0.15176
0.49193,0.86157,-0.12527,0.46858,0.21087,-0.11016
0.49686,0.86345,-0.08714,0.20912,0.1913,0.05839
0.50197,0.86364,-0.04634,0.01783,0.19542,-0.40682
0.49869,0.86673,-0.00952,-0.01984,-0.00072,-0.69015
0.48885,0.87216,0.01904,0.04043,-0.09811,-0.68541
0.47607,0.8787,0.03536,0.18873,-0.27851,-0.6594
0.46493,0.88461,0.03611,0.10382,-0.3789,-0.55421
0.4596,0.88798,0.01595,-7e-05,-0.40114,-0.45361
0.45816,0.88844,-0.02782,-0.14944,-0.25449,-0.26924
0.46583,0.88067,-0.0862,-0.08733,-0.12647,-0.14636
0.48403,0.86163,-0.15265,-0.07768,-0.09738,-0.05238
0.50229,0.83895,-0.20946,-0.02228,0.43705,0.25251
0.50862,0.81957,-0.26382,-0.21132,0.63055,0.46098
0.50566,0.79967,-0.32377,0.09689,0.60334,0.4308
0.50599,0.77471,-0.3792,0.28405,0.39907,-0.03063
0.51017,0.74023,-0.43793,0.3556,0.45791,-0.31327
0.4968,0.7037,-0.50793,0.07722,0.59541,0.00557
0.4675,0.67039,-0.57622,-0.26785,0.40174,0.25064
0.45335,0.6385,-0.62193,-0.21299,0.42301,-0.07326
0.43981,0.61204,-0.65725,-0.12021,-0.37823,0.08621
0.42025,0.598,-0.68249,-0.0673,-0.12237,0.03602
0.40408,0.59679,-0.69323,-0.13613,-0.06366,0.19684
0.39538,0.60502,-0.69111,-0.30938,-0.20167,0.32837
0.39538,0.61796,-0.67955,-0.4206,-0.38177,0.36385
0.39958,0.63715,-0.65907,-0.42024,-0.41694,0.23775
0.40812,0.66173,-0.62893,-0.37988,-0.47049,0.16126
0.42278,0.68423,-0.59421,-0.04145,-0.51281,0.04807
0.44659,0.70197,-0.55479,-0.0162,-0.45547,0.32148
0.47389,0.72226,-0.50376,-0.1595,-0.38083,0.37564
0.49633,0.73708,-0.45867,0.08067,0.88971,0.58271
0.51044,0.7474,-0.42526,0.06656,0.87938,0.5493
0.52044,0.75238,-0.40381,0.05655,0.8744,0.52784
0.53772,0.76174,-0.36139,0.02174,0.55691,0.03553
0.54942,0.76865,-0.32759,0.2186,0.03242,0.01781
0.55971,0.77257,-0.29977,0.15896,-0.40828,0.35697
0.57231,0.77371,-0.27173,0.01175,-0.43469,0.35608
0.58424,0.77135,-0.25237,-0.1681,-0.20641,0.14906
0.59185,0.77039,-0.23707,-0.19673,-0.02378,-0.02755
0.59711,0.77301,-0.21428,-0.08114,0.00646,-0.10394
0.5992,0.77711,-0.1925,0.04931,-0.14834,0.03793
0.5962,0.7818,-0.18259,0.0718,-0.11722,0.07787
0.5835,0.78964,-0.18973,0.37188,0.26663,0.31383
0.5742,0.7943,-0.19846,0.60789,0.07742,0.03156
0.57761,0.79042,-0.20399,0.73027,0.06105,-0.14714
0.59629,0.78129,-0.18448,0.41623,0.21579,0.06993
0.61899,0.7691,-0.15916,0.21257,0.6503,-0.55397
0.62871,0.76624,-0.13269,0.21648,0.47313,-0.1751
0.63018,0.77009,-0.09918,0.18264,0.41146,-0.321
0.62672,0.77715,-0.0571,0.4623,0.43376,-0.06589
0.6186,0.78566,-0.00831,0.46769,0.46549,-0.05944
0.60528,0.79488,0.04243,0.24764,0.47575,-0.29304
0.58395,0.80715,0.08666,-0.03093,0.30626,-0.57429
0.5598,0.82006,0.11885,-0.05234,0.16227,-0.69969
0.53589,0.83255,0.1403,-0.05407,-0.18437,-0.73278
0.51358,0.8457,0.14499,-0.00065,-0.34293,-0.47557
0.49899,0.85769,0.12401,0.03522,-0.34394,-0.27366
0.49365,0.86599,0.07985,0.09085,-0.16298,-0.22695
0.49691,0.86747,0.02373,-0.04621,-0.14885,-0.17815
0.50731,0.86096,-0.03707,-0.10907,-0.19503,-0.03007
0.51889,0.84957,-0.09479,-0.05433,0.00196,0.14602
0.52963,0.83583,-0.14451,-0.13846,0.26732,0.08253
0.54011,0.81997,-0.18957,-0.16782,0.341,0.11307
0.553,0.79957,-0.23424,-0.19523,0.28612,0.17849
0.55685,0.77542,-0.29772,0.04247,0.39386,-0.04882
0.55364,0.74637,-0.36934,0.22578,0.25041,0.13683
0.55553,0.71278,-0.42818,0.41974,0.10953,0.32067
0.55794,0.67519,-0.48251,0.32008,0.12466,-0.15421
0.54801,0.63489,-0.54461,0.39338,0.15379,-0.15696
0.53144,0.59093,-0.60694,0.35403,0.14948,0.07286
0.51223,0.55244,-0.65759,-0.75708,-0.08551,0.33772
0.47841,0.52672,-0.70263,-0.63829,-0.03504,0.41418
0.44615,0.5038,-0.73969,-0.15121,-0.04594,0.24048
0.41819,0.48202,-0.76992,-0.22034,0.036,0.23293
0.39545,0.46737,-0.79069,-0.28482,-0.0049,0.40544
0.37709,0.46052,-0.80357,-0.34108,-0.14106,0.27014
0.36424,0.4604,-0.80954,-0.25845,-0.12388,0.19962
0.35622,0.46759,-0.809,-0.21117,-0.18721,0.13016
0.3501,0.48169,-0.80337,-0.22703,-0.20529,0.07452
0.34541,0.50277,-0.79241,-0.15528,-0.16565,0.10336
0.3453,0.53141,-0.77355,-0.12057,-0.16991,0.0999
0.35109,0.56387,-0.74752,0.06085,-0.21684,-0.13151
0.36348,0.59282,-0.71864,0.18977,-0.20198,-0.07323
0.37865,0.62491,-0.68273,0.06945,-0.10788,0.1456
0.39716,0.65816,-0.6396,-0.45992,0.32488,-0.02265
0.40551,0.68675,-0.60327,-0.59345,0.87192,-0.68201
0.41098,0.70435,-0.57879,0.70116,0.85144,0.27621
0.45746,0.72225,-0.51873,0.22237,0.07956,0.61069
0.49775,0.73693,-0.45736,-0.21659,-0.25222,0.17617
0.52112,0.74438,-0.41753,-0.26011,-0.27667,0.17815
0.54013,0.75266,-0.37652,-0.20872,-0.24079,0.3041
0.55527,0.76312,-0.33064,-0.13265,-0.22007,0.35681
0.56534,0.77325,-0.28717,0.0063,-0.13504,0.3492
0.5727,0.78232,-0.24491,0.11538,-0.06405,0.25294
0.57423,0.78982,-0.2155,0.17028,-0.03502,-0.10378
0.56919,0.7963,-0.20479,0.19732,-0.03859,-0.23076
0.56636,0.80184,-0.19049,0.11317,-0.11336,-0.05708
0.56576,0.80725,-0.1681,-0.03001,-0.13339,0.09127
0.56233,0.81423,-0.14425,-0.0659,-0.12254,0.10656
0.5473,0.82646,-0.13199,-0.03175,-0.08151,0.05361
0.52763,0.84026,-0.1248,0.37708,0.35625,-0.07111
0.51397,0.85011,-0.11469,0.53492,0.39124,-0.28612
0.50736,0.8567,-0.09305,0.61325,0.35033,-0.29314
0.51066,0.85793,-0.05643,0.46703,0.17509,-0.02614
0.51677,0.85601,-0.01407,0.37013,0.24003,-0.22238
0.51844,0.85448,0.03298,0.26115,0.31099,-0.39071
0.51206,0.85579,0.07358,-0.00589,0.09482,-0.88192
0.50112,0.85955,0.10028,0.06643,0.05028,-0.943
0.4895,0.86432,0.11552,0.16689,0.01953,-0.87175
0.47893,0.87021,0.11561,0.04542,-0.28123,-0.49894
0.47188,0.8765,0.09525,-0.02035,-0.26425,-0.37904
0.4693,0.88134,0.05479,-0.079,-0.1744,-0.20415
0.47096,0.88215,-0.00312,-0.20581,-0.0927,-0.02774
0.48052,0.8741,-0.07114,-0.18723,-0.08523,0.08235
0.49725,0.85691,-0.13584,-0.11149,0.09672,0.25251
0.51606,0.83358,-0.19702,-0.02394,0.37076,0.10715
0.53169,0.80867,-0.25171,0.04511,0.43507,-0.0023
0.5455,0.77865,-0.31006,0.30655,0.16519,0.39257
0.55802,0.74015,-0.37521,0.21606,0.19207,0.06842
0.54716,0.70523,-0.45085,0.12213,0.26355,-0.00806
0.51533,0.67108,-0.53299,-0.08123,0.43622,0.10979
0.46685,0.63633,-0.61412,-0.1871,0.28804,0.03285
0.4231,0.60009,-0.67888,-0.10624,0.22591,0.0907
0.394,0.56623,-0.72398,-0.10782,-0.39276,0.14281
0.36335,0.53597,-0.76204,-0.03428,-0.10555,-0.03578
0.3312,0.51906,-0.78796,-0.01052,0.03963,-0.04383
0.29923,0.51415,-0.80381,-0.11773,-0.05239,0.22338
0.2748,0.5197,-0.80894,-0.19001,-0.08192,0.23024
0.26125,0.53541,-0.80317,-0.17253,-0.13743,0.22018
0.25826,0.56063,-0.78676,-0.22362,-0.10835,0.13091
0.26395,0.59341,-0.76039,-0.22656,-0.34552,0.29396
0.28011,0.62849,-0.72563,-0.17403,-0.40626,0.12645
0.30049,0.65857,-0.68992,-0.13571,-0.41452,-0.23377
0.31996,0.67759,-0.66219,0.02121,-0.5341,-0.33029
0.34017,0.68906,-0.63991,-0.03463,-0.48989,0.0121
0.36357,0.69407,-0.62135,-0.24255,-0.24386,-0.18437
0.39164,0.69244,-0.60593,-0.10429,0.21507,0.39439
0.42059,0.69557,-0.58248,-0.1406,0.61362,0.56954
0.4535,0.70251,-0.54847,-0.40611,0.47918,0.24157
0.48055,0.70511,-0.52142,0.01075,0.35528,0.57066
0.50963,0.70971,-0.48641,-0.04738,0.31107,0.55019
0.53452,0.71847,-0.44508,-0.12726,0.23365,0.40888
0.55542,0.72738,-0.40302,-0.07578,0.1825,0.17446
0.57364,0.7366,-0.35828,-0.09399,0.17328,0.12972
0.58494,0.74894,-0.31134,0.08735,0.33503,0.03334
0.59153,0.76241,-0.26236,0.24116,0.16168,0.24485
0.60113,0.77251,-0.20462,0.23156,0.15158,0.18711
0.6056,0.7828,-0.14313,0.08013,0.02212,0.23343
0.60406,0.79205,-0.08813,-0.05908,-0.22,0.06488
0.6051,0.79516,-0.03963,0.00844,-0.20718,0.05251
0.60372,0.79717,0.00712,0.04358,-0.19852,0.09179
0.59925,0.79905,0.04922,-0.08791,-0.19216,0.01032
0.59313,0.80155,0.07557,-0.12265,-0.14828,-0.0855
0.58717,0.80396,0.09423,-0.14945,-0.0057,-0.23348
0.58109,0.80644,0.10945,-0.05489,-0.0933,-0.17659
0.57294,0.81042,0.12236,-0.06207,-0.14669,-0.19212
0.56362,0.81513,0.13375,-0.03886,-0.1104,-0.07267
0.55316,0.82,0.14701,-0.03607,-0.17222,0.00338
0.54133,0.82535,0.16046,-0.00496,-0.13726,-0.09825
0.52826,0.83107,0.17395,0.1037,-0.10265,-0.19001
0.52799,0.83014,0.17916,0.19424,-0.15402,-0.16459
0.51837,0.8322,0.19681,0.222,-0.15518,-0.19682
0.51099,0.83341,0.21052,0.21388,-0.184,-0.41888
0.50538,0.83476,0.21855,0.29563,-0.26074,-0.26404
0.50194,0.83649,0.21987,0.38305,-0.22684,-0.0866
0.50133,0.83775,0.21643,0.42982,0.02996,0.02739
0.50666,0.83691,0.20708,0.36534,0.4484,0.09225
0.52432,0.83022,0.18927,0.25667,0.5893,-0.00849
0.54942,0.81945,0.16322,-0.11293,0.50029,-0.50304
0.57125,0.81215,0.1187,-0.09565,0.25626,-0.25574
0.58553,0.80875,0.05551,-0.08693,0.27838,-0.11542
0.59207,0.80559,-0.02206,-0.10687,0.5569,-0.12833
0.59195,0.79909,-0.10515,-0.30772,0.67546,-0.21771
0.58228,0.79095,-0.188,-0.3521,0.52834,0.08264
0.56131,0.78517,-0.2616,-0.36838,0.18835,0.27799
0.53607,0.78002,-0.32281,-0.15719,0.04499,0.13082
0.51787,0.77011,-0.37247,0.08634,-0.08032,0.0144
0.50718,0.75414,-0.41719,0.17525,-0.07193,0.02175
0.50199,0.73647,-0.45344,0.04737,-0.0131,0.13008
0.49507,0.72415,-0.48011,-0.07668,-0.0965,0.20823
0.48294,0.71588,-0.50427,-0.25363,-0.39781,0.33258
0.46988,0.71288,-0.52058,-0.35958,-0.41378,0.35168
0.46156,0.7148,-0.52539,-0.36028,-0.38681,0.3065
0.45744,0.72101,-0.52047,-0.33595,-0.25124,0.27076
0.45588,0.73013,-0.509,-0.30848,-0.15872,0.17154
0.45554,0.74101,-0.49334,-0.26391,-0.14643,0.08943
0.45867,0.75199,-0.47342,-0.16352,-0.02919,-0.08348
0.463,0.7625,-0.4519,-0.12037,-0.03989,-0.11785
0.46851,0.77291,-0.42791,-0.06136,-0.09223,-0.14429
0.47742,0.78248,-0.39975,-0.07749,-0.12215,-0.21776
0.48953,0.79059,-0.36788,-0.05468,-0.07657,-0.40594
0.50117,0.79778,-0.33522,-0.02291,-0.05048,-0.53286
0.51016,0.80247,-0.30949,0.04706,-0.02277,-0.65453
0.51522,0.80266,-0.30047,0.33565,0.10461,-0.55706
0.52007,0.79849,-0.30324,0.22298,0.13018,-0.52834
0.5264,0.79277,-0.30728,-0.24294,0.00337,-0.36323
0.53338,0.78784,-0.30794,-0.32569,-0.26254,-0.35529
0.53983,0.78693,-0.29888,-0.26542,-0.13265,-0.34475
0.5432,0.7908,-0.28208,0.39379,1.45225,0.22234
0.54619,0.79795,-0.25487,0.04797,1.44596,0.58988
0.5594,0.79218,-0.24397,-0.35626,0.67514,0.6588
0.58068,0.77767,-0.2409,-0.6627,-0.18711,0.17024
0.60081,0.76892,-0.21862,-0.84832,-0.04254,0.06471
0.60935,0.77169,-0.18217,-0.8769,0.05692,0.05604
0.60732,0.78089,-0.14621,-0.37871,-0.01629,0.47665
0.59761,0.7965,-0.09195,0.00945,0.09266,0.62008
0.59384,0.80348,-0.0422,0.31751,0.23279,0.69828
0.59652,0.80241,0.01717,0.39794,0.03823,0.32567
0.6013,0.79652,0.06327,0.27247,-0.05029,-0.24848
0.60306,0.79181,0.09671,-0.01576,0.04652,-0.46569
0.60295,0.78848,0.12148,-0.17526,0.06572,-0.00727
0.60176,0.78576,0.14305,-0.22258,-0.05207,0.31911
0.59811,0.78449,0.16382,-0.18167,-0.05097,0.25055
0.59135,0.7858,0.18117,-0.11883,-0.03293,0.09747
0.58439,0.78699,0.19781,0.1305,-0.0953,-0.08903
0.57845,0.78712,0.21411,0.07213,-0.12274,-0.11918
0.57174,0.78766,0.22956,0.02064,-0.11017,-0.13626
0.56336,0.78986,0.24238,0.07859,-0.12103,-0.13902
0.55347,0.79354,0.2529,0.17208,-0.15202,-0.19668
0.54328,0.79691,0.26415,0.22727,-0.12392,-0.25039
0.5337,0.79852,0.27844,0.26331,-0.13855,-0.30987
0.52539,0.79883,0.29296,0.29322,-0.16799,-0.32991
0.51944,0.79891,0.30321,0.35036,-0.17235,-0.32232
0.51596,0.79907,0.30865,0.37303,-0.08066,-0.24725
0.51419,0.79971,0.30995,0.34325,-0.03545,-0.23736
0.51481,0.80075,0.30621,0.36774,0.26202,-0.18152
0.51863,0.80274,0.29432,0.25535,0.4356,-0.17544
0.52984,0.80288,0.27322,0.14328,0.3996,-0.31032
0.54584,0.80239,0.24129,0.00409,0.34845,-0.26564
0.56122,0.80469,0.19367,0.05147,0.33831,-0.21529
0.57318,0.80906,0.12998,-0.04413,0.38557,-0.03455
0.58638,0.80842,0.05108,-0.15,0.63231,-0.27751
0.59985,0.79913,-0.03956,-0.24785,0.8953,-0.25727
0.60372,0.78664,-0.12931,-0.22387,0.49654,0.0153
0.58854,0.77467,-0.23131,0.15319,0.28574,0.20508
0.56705,0.75231,-0.33538,0.6609,0.19673,0.43189
0.55714,0.71492,-0.42249,0.48333,0.01244,0.10758
0.54863,0.67673,-0.49096,0.25836,0.11784,-0.0501
0.53197,0.64282,-0.55117,0.03555,0.03754,0.13471
0.50275,0.61062,-0.61187,0.0294,0.02555,0.22844
0.46892,0.58261,-0.66383,-0.32703,-0.23684,0.34588
0.43575,0.56267,-0.70251,-0.43769,-0.08959,0.27256
0.39836,0.55168,-0.73277,-0.48947,-0.05649,0.25133
0.36258,0.5494,-0.75279,-0.37979,-0.2885,0.28807
0.34134,0.55325,-0.75987,-0.14337,-0.39929,0.08811
0.33455,0.56246,-0.75611,-0.11843,-0.38815,0.00507
0.33288,0.57566,-0.74686,-0.18527,-0.28297,-0.10292
0.32748,0.59051,-0.7376,-0.16869,-0.28827,-0.07215
0.32264,0.60544,-0.72756,-0.08825,-0.35645,-0.02648
0.32676,0.6195,-0.71376,0.09038,-0.29779,-0.22109
0.34337,0.63007,-0.69649,0.10157,-0.27161,-0.13731
0.36673,0.64178,-0.67352,-0.04341,-0.06474,-0.04535
0.38629,0.65212,-0.65231,-0.17777,0.80375,-0.51237
0.39011,0.66573,-0.63609,-0.02929,0.9922,-0.48984
0.40178,0.67595,-0.61778,0.3059,0.29151,0.52998
0.43909,0.68858,-0.5771,-0.15592,-0.15718,0.5454
0.47785,0.69875,-0.53236,-0.25486,-0.14139,0.48477
0.50673,0.70819,-0.49162,-0.26148,-0.06987,0.43847
0.52322,0.71736,-0.46005,-0.14836,0.08611,0.30486
0.5324,0.72657,-0.43434,0.06529,0.26554,0.17984
0.53991,0.73612,-0.40819,0.15653,0.18876,0.11109
0.54942,0.74085,-0.38637,0.10024,0.07525,-0.03267
0.55797,0.74181,-0.372,-0.04686,-0.06557,0.00295
0.56766,0.74352,-0.35348,-0.07234,-0.14508,0.17756
0.58,0.74999,-0.31799,-0.0494,-0.19381,0.32222
0.59385,0.75738,-0.27152,-0.03425,-0.14727,0.25306
0.60102,0.76545,-0.22989,0.08031,0.02486,-0.11122
0.59119,0.77754,-0.21431,0.46303,0.20815,0.01761
0.57681,0.78985,-0.20837,0.55701,0.23622,-0.05541
0.56396,0.8025,-0.19477,0.55671,0.3044,-0.10865
0.55061,0.81547,-0.1784,0.51215,0.26148,0.0632
0.54183,0.82609,-0.15489,0.36959,0.26169,0.1176
0.54046,0.83241,-0.1225,0.30423,0.27695,-0.01113
0.54137,0.83675,-0.08226,0.19542,0.38362,-0.10827
0.53841,0.84178,-0.03894,0.07148,0.30809,-0.37729
0.52839,0.849,-0.00275,0.06402,0.17099,-0.48809
0.51447,0.85724,0.02129,0.06704,-0.14997,-0.60181
0.4993,0.86563,0.03717,0.06354,-0.24428,-0.52851
0.4847,0.87351,0.04527,0.04667,-0.31911,-0.54974
0.47222,0.88045,0.04265,-0.10323,-0.39504,-0.44908
0.45975,0.88776,0.02273,-0.10694,-0.19971,-0.0892
0.45118,0.89228,-0.01628,-0.06585,-0.05737,0.03186
0.45141,0.88996,-0.06478,-0.14989,-0.02171,0.09515
0.46486,0.87731,-0.11928,-0.07881,-0.18475,0.08709
0.48038,0.85846,-0.17966,-0.0117,0.00448,0.094
0.49694,0.83557,-0.23425,0.28075,0.27824,0.19441
0.51436,0.80962,-0.28275,0.33329,0.24612,0.17291
0.52343,0.78167,-0.33912,0.30741,0.3653,0.11848
0.51939,0.75148,-0.40683,0.08156,0.50965,0.18104
0.49981,0.72231,-0.47797,0.03684,0.39382,0.21181
0.4892,0.68777,-0.53633,-0.13326,0.40945,-0.31025
0.47923,0.654,-0.58534,-0.11496,0.48501,-0.48429
0.46339,0.6327,-0.62045,0.22963,-0.05166,0.27479
0.45104,0.62028,-0.64174,0.24199,-0.03924,0.29608
0.44034,0.61865,-0.65067,-0.15588,-0.19169,0.29308
0.43562,0.62827,-0.6446,-0.57626,-0.27279,0.43456
0.43495,0.64284,-0.63054,-0.57559,-0.28735,0.42051
0.4403,0.65894,-0.60987,-0.63082,-0.50087,0.3587
0.45138,0.67674,-0.58162,-0.38162,-0.70112,0.35234
0.46726,0.69483,-0.54669,-0.31449,-0.72842,0.40354
0.48546,0.71322,-0.50562,-0.28793,-0.72675,0.411
0.50133,0.72497,-0.47232,0.11049,-0.01613,-0.06029
0.51542,0.72561,-0.45589,0.31538,0.1812,-0.1476
0.53849,0.72518,-0.42911,0.34223,0.26455,0.9632
0.56096,0.74061,-0.36989,-0.30555,0.15704,0.42496
0.55946,0.7536,-0.34508,-0.44075,0.2684,-0.5124
0.55232,0.76543,-0.33025,-0.13847,0.09915,0.07517
0.55871,0.77652,-0.2913,0.20633,0.21763,0.59981
0.56252,0.78522,-0.25886,0.39956,0.34758,0.29057
0.56396,0.78531,-0.25542,0.42202,0.38371,-0.33779
0.56859,0.78775,-0.23699,0.19957,0.08434,0.05627
0.57042,0.7956,-0.20407,0.1755,0.07759,0.21099
0.56462,0.80751,-0.17067,0.41565,0.10755,0.13263
0.54699,0.82457,-0.1445,0.61552,0.1954,0.26163
0.52765,0.83944,-0.13011,0.54998,0.31085,-0.03007
0.51567,0.8484,-0.11955,0.34006,0.16284,-0.17218
0.50716,0.85541,-0.10518,0.15356,0.03406,-0.11751
0.4988,0.86244,-0.086,0.06086,0.01352,-0.07735
0.49107,0.86884,-0.06293,-0.00812,-0.08262,-0.03517
0.48434,0.87411,-0.03681,-0.06545,-0.12095,-0.35671
0.4762,0.87927,-0.01052,-0.03826,-0.18575,-0.45016
0.46724,0.88401,0.01456,0.19383,-0.39806,-0.47537
0.4587,0.88791,0.03471,0.21574,-0.44271,-0.43808
0.45285,0.89034,0.04721,0.07784,-0.35452,-0.30663
0.45137,0.89112,0.04652,-0.13266,-0.13505,-0.07792
0.45269,0.89118,0.02939,-0.35325,0.1144,-0.02373
0.45702,0.88945,-0.00249,-0.35758,0.11613,0.00815
0.46428,0.8845,-0.04592,-0.19794,0.05557,-0.15629
0.47126,0.87644,-0.09882,-0.10428,0.05308,-0.11472
0.47713,0.86293,-0.16645,0.16394,0.01125,0.05702
0.48599,0.84185,-0.23472,0.45779,0.19565,0.18703
0.50505,0.81408,-0.2867,0.58449,0.50912,0.14848
0.52887,0.78118,-0.33174,0.27482,0.70484,0.03987
0.53944,0.74979,-0.38318,-0.03138,0.56685,0.27875
0.53294,0.72202,-0.44121,-0.16084,0.2305,0.19995
0.51944,0.6936,-0.4991,-0.1805,0.22739,0.12333
0.50359,0.66427,-0.5524,-0.10619,0.17362,-0.28178
0.48746,0.63588,-0.59836,-0.19231,-0.1971,0.08115
0.46909,0.6102,-0.63844,-0.24807,-0.29075,0.11222
0.44203,0.58992,-0.67573,-0.17109,-0.19338,0.15226
0.42574,0.57333,-0.70003,-0.13204,-0.09712,-0.06209
0.40812,0.56615,-0.71618,-0.13833,-0.10894,-0.00135
0.38708,0.56891,-0.72561,-0.15962,-0.1014,0.04521
0.37038,0.58055,-0.7251,-0.14094,-0.14194,0.20748
0.35888,0.59978,-0.71517,-0.13832,-0.16848,0.18535
0.35207,0.6236,-0.69798,-0.15369,-0.23377,0.19054
0.35071,0.64665,-0.67737,-0.07361,-0.47873,0.13348
0.36077,0.66825,-0.65061,-0.01578,-0.48855,0.26625
0.38459,0.69539,-0.60706,-0.03877,-0.50958,0.36808
0.41924,0.71653,-0.55751,-0.35068,-0.03437,0.05177
0.45,0.72371,-0.5232,-0.1482,0.72056,-0.24316
0.4567,0.73263,-0.50465,-0.00699,0.91205,-0.70468
0.48622,0.74205,-0.46146,-0.00965,-0.02861,0.2191
0.51018,0.75142,-0.41842,-0.11732,-0.17705,-0.01654
0.52078,0.75848,-0.39178,-0.11435,-0.35976,0.14774
0.53517,0.76362,-0.36123,-0.14593,-0.39164,0.45244
0.55304,0.76765,-0.32383,-0.14776,-0.22358,0.37947
0.55969,0.77361,-0.29711,0.02203,0.03227,0.18191
0.55884,0.77966,-0.28255,0.16895,0.27466,0.0215
0.55988,0.78575,-0.26293,0.21539,0.14221,-0.16807
0.56457,0.78983,-0.23967,0.23178,0.02371,0.02118
0.56446,0.79574,-0.2195,0.21114,0.02855,-0.03625
0.55986,0.80637,-0.19057,0.24118,0.09634,-0.10318
0.54797,0.82032,-0.16373,0.42302,0.26501,0.02012
0.53258,0.83413,-0.14348,0.51823,0.14492,0.09693
0.51615,0.84646,-0.13072,0.54127,0.10884,0.09825
0.50563,0.85552,-0.1115,0.45043,0.10016,0.00459
0.50213,0.86118,-0.07895,0.28512,0.16812,0.01439
0.50075,0.86453,-0.04288,0.17634,0.12142,0.04149
0.50117,0.8653,-0.00885,-0.12287,0.12015,-0.271
0.49696,0.86754,0.02032,-0.12284,0.08495,-0.51915
0.48797,0.87183,0.04245,0.11973,-0.11345,-0.60963
0.47746,0.87673,0.05803,0.22426,-0.28028,-0.558
0.47008,0.88021,0.06525,0.11895,-0.39336,-0.43622
0.46575,0.88293,0.05924,0.05372,-0.36278,-0.28514
0.46382,0.88514,0.03735,-0.17913,-0.12609,-0.05084
0.46541,0.8851,0.00106,-0.23516,0.01038,-0.0961
0.472,0.88024,-0.04894,-0.23419,-0.07508,-0.08149
0.48242,0.86888,-0.11098,-0.10835,-0.0155,0.1222
0.49707,0.85019,-0.17351,0.11024,0.05945,0.25678
0.51582,0.82569,-0.22839,0.27932,0.19549,0.27162
0.53914,0.79577,-0.27582,0.50577,0.48842,-0.00441
0.55944,0.76256,-0.32484,0.25852,0.62483,0.09074
0.56303,0.73359,-0.38059,0.15386,0.70103,0.23438
0.55353,0.70789,-0.43874,0.06341,0.23738,0.08534
0.53659,0.67808,-0.50228,0.0778,0.1957,-0.17454
0.51027,0.65088,-0.56211,-0.04996,0.13764,-0.01819
0.48419,0.62834,-0.60889,-0.32571,-0.18105,0.19316
0.46417,0.60769,-0.6444,0.08739,0.03211,-0.10385
0.44358,0.59513,-0.67012,0.07183,-0.10597,-0.15479
0.42254,0.58934,-0.68858,0.01705,-0.05288,-0.0674
0.40279,0.59334,-0.69693,-0.21811,-0.15621,0.30441
0.38702,0.60251,-0.698,-0.22572,-0.16597,0.28592
0.37747,0.61902,-0.68872,-0.16711,-0.21938,0.30417
0.3747,0.64241,-0.66852,-0.2757,-0.30287,0.25111
0.37865,0.6652,-0.64353,-0.26446,-0.33732,0.13677
0.39144,0.68245,-0.61728,-0.24239,-0.42171,0.06214
0.41385,0.69452,-0.58853,-0.24065,-0.51146,0.37722
0.44243,0.70392,-0.55566,-0.23836,-0.2362,0.05728
0.46891,0.71103,-0.52398,-0.12437,-0.00019,-0.21275
0.48891,0.7134,-0.50202,0.06811,0.43394,0.58845
0.51184,0.72199,-0.46557,-0.13532,0.17058,0.52636
0.52638,0.73158,-0.43325,-0.15781,0.0022,0.21203
0.53883,0.73836,-0.40556,0.04238,-0.13901,0.35896
0.55564,0.74566,-0.36777,0.14555,-0.15727,0.39522
0.56777,0.75271,-0.33324,0.40989,0.11093,-0.03553
0.56981,0.75734,-0.319,0.34985,0.26703,-0.22809
0.56493,0.763,-0.31413,0.19087,0.16073,-0.09998
0.56235,0.77032,-0.3006,-0.03774,-0.03038,0.12682
0.56294,0.77814,-0.27857,-0.05225,-0.0056,0.11344
0.56231,0.78844,-0.24932,0.00205,0.01792,0.10418
0.55208,0.80609,-0.21315,0.4122,0.29935,-0.08982
0.54139,0.82139,-0.1795,0.66091,0.22061,0.0731
0.52996,0.83283,-0.15979,0.69132,0.18717,0.11453
0.52264,0.8396,-0.14803,0.36951,0.09268,0.05881
0.52165,0.84388,-0.12547,0.16143,0.08103,-0.01448
0.52131,0.84813,-0.09441,0.13079,0.22472,-0.07447
0.5208,0.85121,-0.06487,-0.00676,0.17123,-0.04162
0.51704,0.85518,-0.0364,-0.10817,-0.07979,-0.16787
0.51067,0.85972,-0.01019,0.06637,-0.14286,-0.26436
0.50034,0.86566,0.01729,0.21582,-0.20971,-0.41658
0.48931,0.87104,0.04312,0.21053,-0.28166,-0.45616
0.4798,0.87516,0.06235,0.09625,-0.34741,-0.41443
0.47408,0.87751,0.07232,-0.0849,-0.30049,-0.29306
0.47005,0.88,0.06817,-0.20947,-0.26075,-0.19348
0.46944,0.88148,0.05111,-0.2323,-0.22999,-0.14891
0.47438,0.8801,0.01978,-0.18995,-0.01026,-0.175
0.48144,0.87613,-0.02467,-0.09325,0.07603,-0.14606
0.48716,0.86956,-0.08081,0.04502,0.25749,-0.01874
0.49677,0.85595,-0.14341,0.04521,0.12513,0.19677
0.51578,0.83332,-0.19889,0.33192,0.22226,0.23633
0.53515,0.80674,-0.25059,0.49619,0.34825,0.06559
0.54924,0.77518,-0.31213,0.26527,0.53843,0.03559
0.54099,0.74708,-0.38626,-0.1619,0.32935,0.51486
0.52728,0.7132,-0.46186,-0.23431,0.311,0.11531
0.51219,0.68547,-0.51748,-0.04395,0.45106,-0.32414
0.48402,0.65732,-0.57763,0.1033,0.3869,-0.28667
0.44894,0.62208,-0.64146,0.01661,-0.05653,0.13445
0.43326,0.58326,-0.68709,-0.10788,-0.13341,0.25072
0.42204,0.54697,-0.72299,0.12651,0.10442,-0.05977
0.40041,0.52352,-0.75206,0.14371,-0.03662,-0.16823
0.372,0.51941,-0.7693,0.08997,-0.08202,-0.13017
0.34621,0.52964,-0.77435,-0.20871,-0.03646,0.33889
0.32736,0.54703,-0.77045,-0.16958,0.06395,0.08809
0.3201,0.57856,-0.75021,-0.32454,-0.28472,0.4288
0.33093,0.60932,-0.72057,-0.22183,-0.23784,0.28707
0.35313,0.64128,-0.68122,-0.2054,-0.48591,-0.0052
0.38226,0.66831,-0.63815,0.01004,-0.66927,-0.11476
0.41324,0.6961,-0.58709,-0.04898,-0.6911,0.24969
0.43565,0.72108,-0.53875,-0.2182,-0.62384,0.13215
0.45474,0.73179,-0.50763,0.05703,0.19425,0.03112
0.47296,0.73505,-0.48581,0.30376,0.68026,0.50836
0.50177,0.74779,-0.43479,0.0779,0.6144,0.28754
0.51832,0.76015,-0.39181,0.23216,0.31749,-0.25016
0.52783,0.76689,-0.36506,0.29736,-0.12241,0.39129
0.53941,0.77463,-0.33014,0.11477,-0.31141,0.43297
0.54639,0.77934,-0.30673,-0.15468,-0.17628,0.13723
0.54858,0.78424,-0.28989,-0.22272,-0.12899,0.1125
0.55345,0.78713,-0.27225,-0.30592,0.03107,0.19923
0.56086,0.7878,-0.25456,-0.05371,0.09358,0.06484
0.56389,0.79332,-0.22952,0.13808,-0.02632,0.06642
0.56403,0.80048,-0.20274,0.22816,-0.01206,0.11262
0.56513,0.80448,-0.18286,0.29415,-0.20237,-0.01505
0.56573,0.80497,-0.17881,0.13308,-0.09449,0.08368
0.5702,0.80252,-0.17561,0.1527,0.00672,0.07174
0.57071,0.80272,-0.17301,0.14098,-0.04553,0.03652
0.57032,0.80361,-0.17012,0.12021,-0.08646,-0.02211
0.57004,0.80473,-0.16573,0.1205,-0.08758,-0.0265
0.56977,0.80524,-0.16415,0.20056,-0.13148,0.06069
0.57,0.80626,-0.1583,0.25924,0.02292,0.28145
0.57212,0.80726,-0.14495,0.25712,0.02192,0.2681
0.56974,0.8116,-0.12925,0.07313,0.39016,-0.13624
0.56659,0.81705,-0.10675,0.13273,0.31609,0.05312
0.55888,0.82489,-0.08489,0.29033,0.36009,0.09718
0.5459,0.83547,-0.06312,0.53528,0.41396,-0.01189
0.53655,0.84319,-0.03403,0.09825,-0.24057,-0.0794
0.52951,0.8483,-0.00185,0.12732,-0.08432,-0.18972
0.51674,0.85555,0.03173,0.205,0.04119,-0.34342
0.49937,0.86464,0.05509,0.27487,0.08606,-0.19129
0.48934,0.86922,0.07078,0.1569,0.40868,-0.13798
0.48197,0.87261,0.07913,-0.07803,0.22966,-0.10071
0.47296,0.87758,0.07856,0.0557,-0.04965,-0.18322
0.4654,0.88207,0.07312,0.27859,-0.09452,-0.23074
0.4591,0.88586,0.06696,0.17303,-0.04836,-0.27442
0.45673,0.88785,0.05586,-0.0759,-0.11437,-0.14609
0.45714,0.8887,0.03509,-0.1027,-0.17809,-0.14095
0.46084,0.88743,0.0093,-0.13186,-0.29367,-0.08639
0.4678,0.88358,-0.02104,-0.02519,-0.24506,0.1308
0.47741,0.87689,-0.0561,-0.03459,-0.23686,0.19346
0.49069,0.86639,-0.09269,-0.02014,-0.14265,0.11865
0.50801,0.85179,-0.12798,-0.03175,-0.01085,0.0362
0.52513,0.83646,-0.15674,-0.05956,0.0483,-0.1025
0.5344,0.82784,-0.17059,-0.42571,0.08017,-0.03952
0.53697,0.82205,-0.18946,-0.34022,0.19043,0.0738
0.5341,0.81724,-0.21645,-0.33964,0.2973,0.24936
0.52878,0.81036,-0.25242,-0.21881,0.09049,0.03788
0.51897,0.80357,-0.29147,-0.2023,0.03335,0.09431
0.50926,0.79479,-0.3301,-0.07152,-0.06498,0.1476
