gravity.x,gravity.y,gravity.z,userAcceleration.x,userAcceleration.y,userAcceleration.z
0.1281,0.95109,-0.28107,0.36901,0.64693,-0.81457
0.10622,0.95471,-0.27793,0.59484,0.26562,-0.50105
0.08193,0.9584,-0.27339,0.3648,-0.0614,-0.043
0.06946,0.96253,-0.26212,0.25595,-0.20432,0.12669
0.07446,0.96603,-0.24744,-0.10394,-1.0059,0.50872
0.07733,0.96772,-0.23986,-0.11845,-1.63836,0.42875
0.0731,0.96899,-0.23601,-0.15677,-1.76262,0.39562
0.08146,0.97095,-0.22497,-0.41808,-1.27435,0.53286
0.10762,0.97251,-0.20646,-0.42719,-0.9874,0.29112
0.1422,0.97218,-0.18612,-0.17671,-0.44964,-0.07633
0.1775,0.96901,-0.17177,-0.1561,-0.26402,0.06697
0.20438,0.9613,-0.18472,-0.79788,0.159,0.45628
0.22127,0.9382,-0.26611,-0.94979,1.14748,-0.57977
0.18974,0.94268,-0.27449,0.23302,0.23408,0.88316
0.17679,0.95642,-0.23237,-0.1447,-0.82884,-0.37983
0.1754,0.96623,-0.18876,0.31322,0.88472,-0.47051
0.15854,0.97615,-0.14828,1.09448,1.45346,-0.35947
0.13837,0.98565,-0.09662,1.04604,0.84753,-0.48839
0.12938,0.99115,-0.0296,0.82611,0.26477,-0.41785
0.12685,0.99107,0.04098,0.57674,-0.12324,0.03144
0.11824,0.98834,0.09584,-0.29271,0.25256,-0.28481
0.1022,0.9863,0.12946,-0.39552,0.46752,-0.12968
0.07916,0.98532,0.15117,-0.50213,-0.2773,-0.17481
0.04889,0.98525,0.16396,-0.25547,-0.75656,-0.1533
0.03176,0.98523,0.16821,-0.16534,-0.92931,-0.03483
0.02591,0.98681,0.15971,0.0708,-1.06456,0.03192
0.03301,0.98962,0.13979,-0.12214,-0.89267,-0.04601
0.04442,0.99316,0.10787,-0.13355,-0.89621,-0.01409
0.05242,0.99655,0.0643,-0.11361,-0.65403,0.54088
0.05201,0.99852,0.01513,0.01165,0.05816,0.02395
0.05142,0.99643,-0.0669,0.01223,0.06026,0.10598
0.06928,0.98686,-0.14592,0.39672,1.79974,0.11812
0.07681,0.97593,-0.20407,0.10079,1.70644,-0.35999
0.07365,0.96952,-0.23366,0.10395,1.71285,-0.33039
0.07274,0.96661,-0.24568,0.33127,0.92297,-0.61281
0.06988,0.96219,-0.26323,0.27555,0.79966,-0.24777
0.06363,0.95791,-0.27989,0.11195,0.52461,-0.31978
0.04993,0.95643,-0.28763,-0.00797,0.12009,0.11512
0.0417,0.95861,-0.28163,0.03258,-0.26394,0.498
0.04241,0.96165,-0.27098,0.15349,-0.44321,0.59506
0.03591,0.9636,-0.26492,0.19179,-1.66897,0.37428
0.02145,0.96478,-0.26218,-0.19294,-2.09707,0.22341
0.02985,0.96459,-0.26203,-0.39568,-1.77245,0.38013
0.06211,0.96414,-0.258,-0.28568,-1.15224,0.34671
0.10063,0.96431,-0.24489,0.08451,-0.64682,-0.15579
0.13565,0.96276,-0.23385,0.02907,-0.02526,-0.22793
0.1568,0.95323,-0.25837,-0.72657,0.81342,0.36422
0.16688,0.92176,-0.35001,0.59031,3.72857,0.612
0.12866,0.92389,-0.36037,0.32462,1.42423,1.46111
0.11148,0.9419,-0.31683,-0.30921,-1.057,-0.36234
0.109,0.95389,-0.27966,0.40291,0.96146,-0.41734
0.08879,0.96449,-0.24874,1.22089,1.67801,-0.53332
0.07227,0.97716,-0.19981,0.79459,0.72384,-0.4745
0.06594,0.98884,-0.13359,0.53431,-0.04285,-0.30478
0.05987,0.99544,-0.07421,0.48737,-0.23145,-0.06619
0.04778,0.99854,-0.02507,0.22827,0.50778,-0.05752
0.03167,0.99944,0.01052,-0.37702,-0.04009,0.07411
0.00793,0.99956,0.02845,-0.37509,-0.17909,0.00962
-0.01259,0.99917,0.03857,-0.15616,-0.78575,0.2666
-0.02571,0.99911,0.03322,0.07196,-1.16667,0.23678
-0.02678,0.99947,0.01824,0.09099,-1.23863,0.18881
-0.01507,0.99983,-0.00995,-0.02091,-0.90097,0.01539
-0.00057,0.99858,-0.05309,-0.17428,-0.87119,0.17732
0.00826,0.99497,-0.09975,-0.16835,-0.85505,0.39114
0.01192,0.9887,-0.14941,-0.08762,-0.19945,0.38487
0.02254,0.9759,-0.21701,0.6161,0.85953,0.4129
0.04531,0.9601,-0.27595,0.34379,2.12263,-0.53881
0.05332,0.94622,-0.31909,0.57806,1.74053,-0.51367
0.05268,0.94211,-0.33112,0.47382,1.39006,-0.57783
0.05365,0.93893,-0.33988,0.27559,1.23847,-0.59985
0.05317,0.93424,-0.35264,0.29333,0.62904,-0.46749
0.05724,0.93349,-0.35399,0.11248,0.32617,-0.24765
0.06352,0.93974,-0.33592,0.02993,0.14617,0.15895
0.07568,0.94742,-0.31091,0.11453,-0.54295,0.38174
0.08006,0.95244,-0.29401,-0.03385,-1.48917,0.46041
0.07029,0.95456,-0.28958,-0.02407,-1.49129,0.45598
0.06977,0.95578,-0.28567,-0.41345,-1.48791,0.2915
0.09512,0.9563,-0.27647,-0.42847,-1.21478,0.65927
0.13611,0.95685,-0.25671,-0.46945,-1.21534,0.6395
0.17346,0.95795,-0.22855,-0.17413,-0.46509,0.03545
0.19504,0.95893,-0.2059,-0.43598,0.00712,0.40306
0.21035,0.9505,-0.22868,-0.91398,0.44599,0.25902
0.1982,0.93141,-0.30525,1.07885,2.77849,1.53836
0.16158,0.94271,-0.29184,-0.00385,-1.15634,-0.30781
0.15758,0.95709,-0.2432,-0.23905,-1.46632,-0.50939
0.15913,0.96668,-0.20047,0.691,0.77061,-0.54507
0.14888,0.97601,-0.15884,1.35193,1.09803,-0.22858
0.1346,0.98559,-0.1024,0.97151,0.69161,-0.23098
0.13302,0.99071,-0.02788,0.49683,-0.23057,0.12032
0.14039,0.98918,0.04241,0.01205,0.45688,-0.00762
0.13897,0.9869,0.0818,-0.43912,0.87421,-0.21001
0.12751,0.98657,0.10197,-0.93169,-0.16333,-0.47256
0.10689,0.98767,0.11429,-0.35634,-0.80646,-0.02629
0.09177,0.98928,0.11355,-0.15625,-1.07743,0.05669
0.09175,0.9904,0.10335,0.29915,-1.41322,-0.03202
0.10926,0.99043,0.08423,-0.0732,-0.97096,0.00261
0.12912,0.99035,0.05018,-0.29012,-0.81291,-0.02832
0.14353,0.98963,0.00305,-0.60552,-0.6115,0.12479
0.14229,0.98864,-0.04826,-0.47858,-0.65106,0.4504
0.13265,0.98694,-0.09133,-0.00364,-0.39484,0.727
0.13022,0.978,-0.16296,0.5437,1.15569,-0.07249
0.15785,0.95835,-0.23797,0.71962,3.09209,-0.65064
0.17221,0.94304,-0.28463,0.13944,2.99921,-0.64771
0.17194,0.94156,-0.28965,0.06724,0.81407,-0.8533
0.16383,0.93962,-0.30045,-0.24456,0.79164,-0.68022
0.14811,0.93418,-0.3246,0.12982,0.59147,-0.60476
0.13355,0.92989,-0.34272,0.19665,0.46694,-0.17497
0.12397,0.93162,-0.34162,-0.17023,0.19755,-0.08844
0.12416,0.93882,-0.32123,-0.31692,0.14069,0.02341
0.1307,0.94575,-0.29742,-0.11834,-1.00718,0.38751
0.12468,0.95175,-0.28039,0.07733,-1.58462,0.36283
0.10338,0.95815,-0.26692,0.12599,-1.76363,0.23081
0.09307,0.96263,-0.2543,-0.24447,-1.73227,0.47199
0.10373,0.96362,-0.24629,-0.32212,-1.11148,0.58283
0.12265,0.96471,-0.23299,-0.27638,-0.90566,0.41682
0.15188,0.963,-0.22259,-0.26596,0.31642,0.34623
0.18953,0.95026,-0.24713,-0.60649,0.75199,0.1909
0.22504,0.9259,-0.30341,-0.80893,1.50536,-0.44526
0.21543,0.92953,-0.29926,0.21041,-0.08124,0.61999
0.19561,0.9411,-0.27579,0.19257,0.01053,0.23046
0.17291,0.95481,-0.24172,0.21528,-0.00318,0.19639
0.13641,0.97174,-0.19263,0.36358,1.60906,-0.21045
0.10689,0.98542,-0.13235,0.50432,1.09547,-0.92952
0.09098,0.99276,-0.07839,0.89178,0.0467,-0.39388
0.08864,0.99563,-0.02918,0.23738,-0.67045,-0.12167
0.09134,0.99533,0.03087,-0.18787,-0.57421,-0.3118
0.07389,0.99482,0.06978,-0.35239,-0.16277,-0.37291
0.05747,0.99433,0.08943,-0.18122,-0.57032,-0.13639
0.03969,0.99412,0.10067,-0.11547,-0.82193,-0.17139
0.02673,0.99477,0.09849,0.05204,-1.16861,0.03807
0.02783,0.99594,0.08554,0.12157,-1.04663,0.02259
0.03956,0.99726,0.06237,-0.05327,-0.97147,0.05565
0.05544,0.99803,0.02921,-0.26522,-0.8356,0.06174
0.06662,0.99765,-0.01589,-0.26141,-0.71214,0.14927
0.06789,0.99574,-0.0623,-0.08149,-0.54768,0.79785
0.06388,0.99124,-0.11555,0.00034,0.62027,-0.01483
0.06999,0.97834,-0.19477,0.90741,1.88347,0.0586
0.09194,0.96253,-0.25508,-0.20928,2.51523,-0.69936
0.09774,0.95377,-0.2842,-0.26675,1.36557,-0.51326
0.0981,0.95052,-0.29475,-0.07468,0.85388,-0.59697
0.09932,0.94456,-0.31293,0.36238,0.66823,-0.42601
0.09989,0.93777,-0.33255,0.43726,0.56635,-0.50088
0.09324,0.93433,-0.34397,0.1422,0.47804,-0.20315
0.08768,0.93696,-0.33825,-0.17878,-0.31928,0.35126
0.09591,0.94305,-0.31851,-0.16303,-0.57446,0.42044
0.10584,0.94795,-0.3003,-0.10586,-1.35479,0.31594
0.09534,0.95221,-0.29016,-0.05575,-1.79979,0.33945
0.08168,0.95605,-0.28158,-0.1593,-1.78458,0.4512
0.08653,0.95829,-0.27238,-0.17175,-1.16307,0.61776
0.10308,0.9618,-0.2536,-0.05581,-0.52495,0.15624
0.12537,0.96562,-0.22771,-0.06975,-0.11507,0.0557
0.15219,0.96588,-0.20954,-0.60593,0.43442,0.29809
0.18212,0.94987,-0.2541,-0.32456,2.49437,-0.24221
0.18661,0.93201,-0.31067,0.57708,2.65212,0.83675
0.15942,0.94391,-0.28916,-0.18463,-0.91026,-0.54765
0.14423,0.95551,-0.25726,0.35796,0.54087,-0.04631
0.12704,0.96536,-0.22787,1.0131,1.0986,-0.24781
0.10288,0.97665,-0.18858,0.70086,0.83643,-0.49361
0.0918,0.9875,-0.12809,0.37404,0.02569,-0.39326
0.08531,0.99423,-0.06497,0.37008,-0.22184,-0.22266
0.08196,0.99656,-0.01192,-0.08678,0.30026,-0.16544
0.0741,0.99689,0.02675,-0.52692,0.4319,-0.2045
0.0634,0.99636,0.05682,-0.59824,0.23768,-0.21295
0.04773,0.99623,0.07228,-0.12833,-0.7724,0.06366
0.02949,0.99647,0.07845,0.30673,-1.09227,0.17271
0.01961,0.997,0.07473,-0.01016,-1.36708,0.0441
0.02731,0.99765,0.06273,-0.07483,-1.04454,0.00746
0.04274,0.99851,0.03375,-0.18282,-0.80085,0.05605
0.05778,0.9983,-0.00678,-0.20291,-0.757,0.40453
0.06743,0.99663,-0.04661,-0.20514,-0.45277,0.63934
0.07635,0.99158,-0.10453,0.1144,0.58717,0.20219
0.09327,0.97962,-0.17786,0.15711,1.46406,0.01694
0.11042,0.96666,-0.231,-0.0379,2.0175,-0.65235
0.1241,0.95722,-0.26137,0.01576,1.58015,-0.59422
0.13583,0.95312,-0.27037,0.23573,1.28989,-0.58836
0.14289,0.94936,-0.2798,0.60786,0.75065,-0.46828
0.14171,0.94574,-0.29237,0.21637,0.53485,-0.37257
0.12559,0.94549,-0.30046,0.17399,0.43739,-0.30631
0.1094,0.94906,-0.29548,0.03939,-0.0069,0.00521
0.10327,0.95361,-0.28276,0.1102,-0.58975,0.31164
0.09587,0.95761,-0.27162,0.09259,-0.82222,0.32046
0.08141,0.96004,-0.26774,-0.19364,-1.51763,0.258
0.07375,0.9602,-0.2694,-0.36874,-1.54479,0.50461
0.08672,0.95976,-0.26708,-0.34619,-1.47355,0.56855
0.11528,0.96083,-0.25198,-0.07654,-1.02582,0.25529
0.148,0.96352,-0.22298,-0.0707,-0.58989,0.24846
0.17626,0.96528,-0.19277,-0.09896,-0.59165,0.21825
0.19319,0.95716,-0.21566,-0.30011,4.18165,-0.51047
0.18695,0.93993,-0.28561,0.28123,0.4393,0.64594
0.15132,0.95272,-0.26347,-0.00328,-0.93052,-0.29016
0.14267,0.96456,-0.22195,0.1048,-0.41372,-0.36313
0.13445,0.97222,-0.19156,1.42817,1.58425,0.05731
0.11515,0.98159,-0.15234,1.07098,1.28977,-0.01005
0.10718,0.99012,-0.09035,0.16615,-0.13213,-0.20604
0.10106,0.99457,-0.02468,0.18235,-0.06543,0.16691
0.0959,0.99484,0.03296,0.04857,0.20722,0.03021
0.08777,0.99324,0.0758,-0.63901,0.21458,-0.10998
0.0762,0.99129,0.10734,-0.61122,-0.39641,-0.11532
0.05874,0.99013,0.12722,-0.41246,-0.61461,-0.17618
0.04386,0.99046,0.13059,0.16146,-1.12299,0.08958
0.03578,0.99179,0.12269,0.38612,-1.15932,0.08793
0.03828,0.99378,0.10451,0.19753,-1.04839,-0.12185
0.04836,0.99591,0.07626,-0.32108,-0.82493,0.02451
0.05778,0.99763,0.03709,-0.35162,-0.74783,0.0775
0.05932,0.99817,-0.01142,-0.32223,-0.69983,0.13954
0.05077,0.99684,-0.06097,0.0574,-0.60068,0.86748
0.03924,0.99291,-0.1121,-0.13722,0.77358,-0.43204
0.04681,0.97842,-0.20122,0.69763,1.62953,-0.04251
0.08375,0.95804,-0.27411,-0.07807,2.69557,-0.74748
0.0817,0.9513,-0.29722,0.11897,1.26557,-0.82968
0.07871,0.95442,-0.28789,0.25111,0.91652,-0.77847
0.07683,0.95414,-0.28931,0.57176,0.34205,-0.49749
0.06828,0.95076,-0.3023,0.38944,0.26949,-0.37505
0.06097,0.94905,-0.30914,0.12467,0.10951,0.11363
0.05908,0.9513,-0.30252,-0.12343,-0.7992,0.47095
0.06026,0.95276,-0.29766,-0.1261,-1.22066,0.54305
0.05295,0.95328,-0.29739,-0.09047,-2.10279,0.41341
0.03994,0.95457,-0.29527,-0.32348,-1.90892,0.45387
0.04522,0.95859,-0.28116,-0.22462,-1.47371,0.71568
0.06664,0.96502,-0.25354,-0.08147,-1.05577,0.273
0.08986,0.9694,-0.2284,0.09384,-0.08188,-0.2136
0.11864,0.96989,-0.21266,0.05633,-0.17819,0.02662
0.14639,0.964,-0.22193,-0.3916,-0.14055,0.77097
0.1538,0.93898,-0.30767,0.48039,5.47934,0.90353
0.10292,0.94756,-0.30254,0.42542,-0.82259,0.23249
0.10066,0.96226,-0.25281,0.22147,-1.70822,-0.78465
0.12216,0.96911,-0.21422,0.82036,0.95115,-0.49705
0.12227,0.9753,-0.18394,2.03874,1.95117,0.28996
0.11468,0.98474,-0.13087,0.94611,1.01934,0.04045
0.10269,0.99318,-0.0552,0.13189,0.03034,0.12836
0.08647,0.99611,0.01623,-0.35503,0.48663,-0.10916
0.07036,0.99577,0.05899,-0.5645,0.41672,-0.17436
0.05787,0.9946,0.08607,-0.67334,-0.13761,-0.18047
0.03695,0.99391,0.10373,-0.01681,-0.88156,0.04679
0.01829,0.99431,0.10485,0.39774,-1.21557,0.3176
0.01216,0.99516,0.09745,0.25925,-1.26326,0.13506
0.0284,0.99622,0.08201,-0.18056,-0.93581,0.06953
0.05003,0.99762,0.04739,-0.42643,-0.70283,-0.00039
0.06606,0.99781,-0.00214,-0.44488,-0.55197,0.17032
0.06694,0.99614,-0.05667,-0.34278,-0.52265,0.42386
0.05595,0.9931,-0.10297,-0.01132,-0.3208,0.85398
0.05076,0.98261,-0.17859,0.83538,1.53435,0.07929
0.08392,0.96211,-0.2594,0.55068,2.38554,-0.29537
0.10636,0.94511,-0.30895,0.16243,2.2779,-0.64422
0.09653,0.94552,-0.31089,-0.02639,0.96408,-0.74976
0.08604,0.9475,-0.30796,-0.24301,0.70619,-0.75872
0.07323,0.94471,-0.31962,0.48496,0.41775,-0.53553
0.06274,0.94232,-0.32878,0.2347,0.26704,-0.2828
0.05347,0.94536,-0.32161,0.12245,0.04543,0.18973
0.05208,0.95083,-0.30528,0.05029,-0.34845,0.39085
0.05374,0.95329,-0.29723,-0.06621,-1.51509,0.46637
0.04726,0.95291,-0.29954,0.0043,-1.93654,0.32935
0.03936,0.9537,-0.29816,-0.11505,-1.83497,0.47313
0.04909,0.95729,-0.28493,-0.22487,-1.19046,0.66641
0.06623,0.96368,-0.25872,-0.07035,-0.73714,0.20561
0.08662,0.9686,-0.23301,-0.04637,-0.27184,0.099
0.10961,0.9678,-0.22657,-0.61762,0.40631,0.51855
0.1369,0.9462,-0.29317,-0.43341,2.73428,-0.33632
0.135,0.93157,-0.33756,0.30312,3.19456,0.72483
0.10877,0.94491,-0.30871,0.13729,-1.02957,-0.38774
0.09787,0.95521,-0.27925,0.38254,0.35746,-0.02649
0.0876,0.96561,-0.24476,0.72539,0.55907,-0.27869
0.07402,0.97737,-0.19813,0.69585,0.71811,-0.56945
0.06402,0.98822,-0.13894,0.5131,0.25427,-0.43766
0.05595,0.9955,-0.07646,0.58033,0.0373,-0.28451
0.05153,0.99851,-0.01773,-0.07938,0.30178,-0.12501
0.0421,0.99866,0.02971,-0.41708,0.37069,-0.06187
0.03025,0.99732,0.06648,-0.64666,-0.09704,0.01153
0.01486,0.99621,0.08563,-0.00774,-0.90515,0.22838
0.00062,0.99595,0.08978,0.19877,-1.23176,0.16464
-0.00066,0.99658,0.0826,0.21811,-1.27633,-0.01861
0.01393,0.99809,0.06013,-0.04506,-0.89863,-0.00803
0.03558,0.9991,0.02268,-0.22143,-0.71495,0.41498
0.05639,0.99809,-0.02493,-0.27735,-0.52991,0.6449
0.07062,0.99214,-0.10322,0.03712,1.0832,0.34927
0.08144,0.97955,-0.18394,-0.32895,1.53799,0.33662
0.09415,0.96786,-0.23317,-0.38475,1.69446,-0.01473
0.10815,0.95885,-0.26249,-0.07331,1.5885,-0.02722
0.11692,0.95559,-0.27049,0.33812,0.84189,-0.68575
0.12001,0.94892,-0.29179,0.27036,0.8999,-0.4957
0.1095,0.94255,-0.3156,0.07142,0.39371,-0.23992
0.09942,0.9416,-0.32172,0.06323,-0.02593,-0.1213
0.09429,0.94602,-0.31007,0.14297,-0.23724,0.01042
0.09213,0.9517,-0.29288,0.29401,-1.15945,0.29106
0.08326,0.95686,-0.27835,0.09185,-1.59422,0.32505
0.07093,0.959,-0.27437,0.00378,-1.5748,0.25373
0.0761,0.9588,-0.2737,-0.36887,-1.52517,0.54102
0.09915,0.95786,-0.26957,-0.31445,-1.22461,0.55847
0.12549,0.95868,-0.25531,-0.2005,-0.92235,0.37768
0.14875,0.96038,-0.23567,-0.51476,0.51181,0.67559
0.17057,0.95087,-0.25833,-1.36267,3.38625,-0.57054
0.1801,0.92884,-0.32374,-0.3307,4.09092,0.48669
0.15482,0.93899,-0.30713,0.32283,-1.38448,-0.22831
0.13561,0.95082,-0.27846,0.51474,-0.06026,0.08021
0.12375,0.96203,-0.24327,0.68174,0.43934,-0.05136
0.11086,0.9742,-0.19658,0.84538,1.1735,-0.35528
0.10267,0.98494,-0.1391,0.34823,0.31356,-0.4966
0.09531,0.99236,-0.0782,0.37553,-0.026,-0.19708
0.09151,0.99532,-0.03091,0.12068,0.37547,-0.21401
0.08646,0.99625,0.0014,-0.50353,0.29339,-0.07523
0.07682,0.99674,0.02458,-0.47212,-0.41698,0.10085
0.05846,0.99747,0.04031,-0.07415,-1.0304,0.28154
0.03961,0.99826,0.04343,-0.0007,-1.20536,0.27127
0.0346,0.99884,0.03317,0.0451,-1.29818,0.20925
0.04113,0.99914,0.00264,-0.16651,-0.90959,-0.18609
0.05635,0.99769,-0.03768,-0.32713,-0.90416,0.24297
0.07066,0.99383,-0.08541,-0.21184,-0.6999,0.66728
0.07633,0.98799,-0.13432,-0.33671,-0.25548,0.63723
0.07975,0.97648,-0.20029,-0.01962,0.94073,0.1369
0.10041,0.95608,-0.27536,0.22984,1.27227,0.09607
0.11952,0.9372,-0.32766,0.35875,1.94497,-0.28758
0.12249,0.93322,-0.33778,0.23356,1.31152,-0.75066
0.11901,0.93277,-0.34024,0.14776,1.1526,-0.78903
0.11562,0.9306,-0.34728,0.365,0.51613,-0.57416
0.11164,0.93084,-0.34795,0.205,0.29959,-0.26309
0.10342,0.93655,-0.33491,0.21322,0.29387,-0.27613
0.09747,0.94487,-0.31258,0.25185,-0.74992,0.21357
0.08839,0.95187,-0.29347,-0.0169,-1.35298,0.45454
0.07357,0.95435,-0.28947,-0.07835,-1.37823,0.38487
0.06686,0.95456,-0.29041,-0.45526,-1.34457,0.51272
0.07718,0.95481,-0.28701,-0.55904,-1.08263,0.56968
0.09911,0.95665,-0.27383,-0.46067,-0.84801,0.5892
0.12699,0.95872,-0.25439,-0.55313,0.51984,0.6705
0.15255,0.95269,-0.26287,-0.89845,2.05823,-0.3224
0.16937,0.93478,-0.31225,-0.39767,2.59998,0.24188
0.147,0.94009,-0.30758,0.39441,-0.58736,-0.02725
0.11119,0.95261,-0.28313,0.7054,-0.00015,0.04256
0.0877,0.96519,-0.2464,0.66963,0.32557,-0.06947
0.0753,0.9773,-0.19798,0.77935,1.02654,-0.39006
0.06764,0.98765,-0.14128,0.47194,0.22037,-0.36482
0.0632,0.99509,-0.07609,0.4093,-0.06499,-0.26282
0.05654,0.99822,-0.01884,0.10138,0.2099,-0.09842
0.04756,0.99846,0.0283,-0.38416,0.34482,-0.20436
0.03785,0.9973,0.06282,-0.44213,0.12038,-0.18427
0.02369,0.99611,0.08476,-0.08487,-0.68798,0.01728
0.00751,0.99559,0.09348,0.11342,-1.04251,0.29776
-0.00017,0.99602,0.08907,0.02609,-1.2514,0.15305
0.0059,0.99717,0.07489,-0.14234,-1.04572,0.06371
0.02087,0.99869,0.04663,-0.32284,-0.76949,-0.09272
0.03609,0.99933,0.00403,-0.27585,-0.69527,0.24036
0.04408,0.9981,-0.04287,0.01278,-0.48385,0.85027
0.04345,0.99367,-0.10356,-0.24498,1.00159,0.07449
0.05181,0.97955,-0.19438,0.4575,1.59946,0.65039
0.08333,0.96196,-0.26015,-0.3016,2.19778,-0.36682
0.09105,0.95325,-0.28813,0.16183,1.31953,-0.65658
0.08101,0.95424,-0.28785,0.13262,1.09398,-0.59579
0.06968,0.95325,-0.29403,0.11462,0.80937,-0.49888
0.05991,0.9467,-0.31648,0.35004,0.6779,-0.41106
0.05166,0.94177,-0.33225,0.29766,0.54292,-0.30471
0.04942,0.9434,-0.32793,-0.0514,0.03064,0.19733
0.05804,0.94881,-0.31045,0.03931,-0.55713,0.48265
0.0669,0.95291,-0.29578,0.1058,-1.18443,0.47049
0.05989,0.95625,-0.28632,0.13686,-1.7645,0.361
0.04538,0.95983,-0.27685,-0.41144,-1.67433,0.45658
0.04886,0.96255,-0.26666,-0.43977,-1.41184,0.56085
0.06791,0.96495,-0.25349,-0.19505,-0.98463,0.36513
0.09445,0.96743,-0.23484,0.07741,0.21801,-0.03296
0.11844,0.96787,-0.22179,-0.04005,0.05497,0.15398
0.1435,0.9614,-0.23477,-0.73661,0.43017,0.46832
0.15463,0.93509,-0.31889,-0.11275,3.02698,0.08109
0.11624,0.93009,-0.34845,0.43123,2.2569,1.28565
0.09944,0.94505,-0.31143,-0.06328,-1.20208,-0.38408
0.10113,0.95763,-0.26963,0.80493,1.21835,-0.42989
0.09289,0.96631,-0.24,1.09866,1.52772,-0.15938
0.07065,0.97759,-0.19829,0.51492,0.86693,-0.34237
0.05314,0.98885,-0.13904,0.51701,-0.12545,-0.01553
0.04678,0.99619,-0.07345,0.49184,-0.18168,0.00732
0.04652,0.99879,-0.01548,0.06361,0.17017,-0.22423
0.04014,0.99889,0.02453,-0.51602,0.10123,-0.17156
0.02658,0.99814,0.05464,-0.50246,0.10197,-0.20168
0.00897,0.99751,0.06977,-0.05073,-0.83818,0.17722
-0.00653,0.99744,0.07104,0.18045,-1.28895,0.25945
-0.01141,0.99784,0.06465,0.21995,-1.3477,0.15369
-0.00274,0.99888,0.047,-0.1413,-0.91899,-0.07451
0.00948,0.99986,0.01309,-0.27062,-0.83661,0.16127
0.01721,0.99937,-0.03076,-0.26106,-0.74798,0.4162
0.01452,0.997,-0.07591,-0.203,0.07731,0.18912
0.00919,0.98891,-0.14821,0.27212,1.51219,0.32152
0.01776,0.97353,-0.22784,0.18431,1.86059,-0.11574
0.0308,0.9569,-0.28877,0.08422,1.35643,-0.43909
0.02894,0.94914,-0.31351,0.25114,1.021,-0.47562
0.03517,0.94756,-0.31762,0.13188,0.98597,-0.57834
0.04334,0.94496,-0.32428,0.29134,0.50244,-0.50902
0.04178,0.94318,-0.32963,0.24122,0.28384,-0.39322
0.03567,0.94413,-0.32763,0.20946,0.20471,-0.19305
0.03452,0.94763,-0.31747,0.15883,-0.59061,0.37373
0.03707,0.95047,-0.3086,0.06803,-1.12379,0.49195
0.03477,0.94966,-0.31131,-0.01479,-1.39199,0.42212
0.03468,0.94856,-0.31466,-0.31676,-1.65123,0.40023
0.05115,0.94904,-0.31096,-0.29529,-1.36927,0.64577
0.08011,0.95095,-0.29879,-0.19083,-1.14806,0.55213
0.10675,0.95539,-0.27535,0.03229,-0.29274,0.2132
0.12678,0.95896,-0.25361,-0.52813,0.17352,0.47915
0.14306,0.94479,-0.29477,-0.96347,0.93842,-0.09134
0.13112,0.92485,-0.35699,0.6067,1.4302,1.05425
0.09718,0.93598,-0.33837,0.13946,-1.27815,-0.33069
0.0915,0.9501,-0.2982,0.16225,-0.95079,-0.33336
0.09002,0.96077,-0.2623,0.9067,1.33719,-0.3817
0.07494,0.97135,-0.22551,0.97131,1.20215,-0.23275
0.06475,0.98311,-0.17114,0.44653,0.05217,-0.22705
0.05501,0.99239,-0.11008,0.32011,-0.32038,0.03024
0.04627,0.99738,-0.05559,-0.43637,0.42566,-0.0091
0.03727,0.99918,-0.01561,-0.42737,0.42386,-0.04907
0.02907,0.99945,0.0154,-0.4556,-0.2919,0.00923
0.01602,0.99945,0.02895,0.02378,-0.90775,0.29856
0.00343,0.99965,0.02584,0.03636,-0.90796,0.30167
0.00099,0.99984,0.01776,0.0703,-1.0913,0.02867
0.01111,0.99993,-0.00286,-0.23652,-0.9022,0.04177
0.02348,0.99888,-0.04087,-0.24889,-0.90115,0.07978
0.02977,0.99569,-0.08772,-0.20833,-0.73871,0.54027
0.02349,0.99104,-0.13146,-0.04606,-0.39398,0.66773
0.01639,0.98355,-0.17986,-0.29233,0.26489,0.04708
0.02438,0.967,-0.2536,0.68642,1.44949,-0.0296
0.05131,0.94643,-0.31879,0.03352,2.96305,-0.70143
0.06388,0.93481,-0.34933,0.22519,1.77152,-0.05385
0.06468,0.93833,-0.33963,-0.07074,0.77726,-0.83061
0.06003,0.93632,-0.34597,0.52142,0.49473,-0.45709
0.04433,0.93331,-0.35631,0.46258,0.42533,-0.34633
0.02948,0.93388,-0.35637,0.14174,0.05448,-0.0592
0.02104,0.94018,-0.34002,0.05806,-0.29557,0.31869
0.02052,0.94782,-0.31814,0.02357,-0.92083,0.30054
0.01231,0.9516,-0.30708,0.04355,-1.45905,0.39698
-0.004,0.95277,-0.30364,-0.06578,-1.57835,0.44605
-0.00409,0.9541,-0.29945,-0.19277,-1.4644,0.4565
0.01808,0.95593,-0.29302,-0.16574,-0.96666,0.3328
0.05337,0.95847,-0.28016,0.12002,-0.4202,0.08428
0.09318,0.96024,-0.26315,0.04843,-0.23909,0.0466
0.12168,0.95923,-0.25506,-1.05453,0.41744,0.35185
0.13,0.94177,-0.31011,0.28207,3.79102,0.52186
0.08422,0.93998,-0.33065,0.82212,1.47942,1.26133
0.06093,0.95312,-0.29638,0.07235,-0.89199,-0.5783
0.06274,0.9631,-0.26173,0.58344,0.71433,-0.36826
0.06607,0.97049,-0.23189,1.33965,1.28444,-0.05081
0.06528,0.97985,-0.18871,0.52737,0.34114,-0.11858
0.06005,0.99011,-0.12675,0.3377,-0.23405,0.03836
0.05204,0.99698,-0.05757,0.16419,0.1163,0.05548
0.04493,0.99898,-0.00245,-0.24357,0.5471,0.05327
0.03402,0.99903,0.02771,-0.75977,-0.06274,-0.80692
0.01281,0.99859,0.05134,-0.68146,-0.70671,-0.12715
-0.00513,0.99743,0.07139,0.01656,-0.75222,0.15118
-0.01896,0.99691,0.07611,0.26324,-1.14594,0.16967
-0.01912,0.9972,0.07215,0.27929,-1.1887,0.05352
-0.0068,0.9986,0.0523,-0.02682,-0.98105,-0.07533
0.00773,0.9998,0.01841,-0.24278,-0.72085,0.29376
0.017,0.99959,-0.02296,-0.21388,-0.53738,0.68547
0.01702,0.99729,-0.07147,-0.17196,0.39718,0.12199
0.01537,0.98758,-0.15632,0.31932,1.70608,0.58765
0.03146,0.97316,-0.22795,-0.11267,1.93365,-0.02133
0.03771,0.96048,-0.27576,-0.11167,1.43133,-0.41485
0.03546,0.95561,-0.29249,0.30846,0.76641,-0.55992
0.04002,0.95318,-0.29975,0.3039,0.76884,-0.55267
0.04165,0.94815,-0.31508,0.24513,0.52004,-0.39413
0.03374,0.94561,-0.32353,0.1087,0.12865,-0.21593
0.02382,0.94834,-0.31634,0.06932,-0.06088,-0.07532
0.02286,0.95422,-0.29822,0.21756,-0.8099,0.26682
0.02095,0.95816,-0.28547,0.19625,-1.51127,0.37974
0.00871,0.95873,-0.28418,0.04344,-1.66725,0.24834
0.00776,0.9581,-0.28631,-0.24261,-1.42989,0.44188
0.03049,0.95766,-0.28626,-0.24984,-1.24859,0.42261
0.06471,0.95816,-0.2788,-0.12838,-1.08931,0.32476
0.10221,0.95998,-0.26076,-0.20209,-0.15991,0.47049
0.13099,0.95897,-0.25141,-1.1307,0.8939,0.08449
0.14468,0.93551,-0.32231,-0.97002,3.20641,-0.89444
0.10647,0.92963,-0.35277,0.14872,-0.78502,0.26776
0.084,0.94331,-0.3211,0.2816,-0.92118,-0.27225
0.08589,0.95636,-0.27929,0.18231,0.04602,-0.30584
0.08502,0.96682,-0.24087,1.1503,1.30155,-0.1843
0.07464,0.97753,-0.1971,0.94954,1.12382,-0.24527
0.06175,0.98857,-0.13747,0.46648,-0.10541,-0.06814
0.05125,0.99625,-0.06959,0.43523,-0.01847,0.07622
0.04367,0.99901,-0.00788,-0.17538,0.36288,-0.23953
0.03805,0.99874,0.0327,-0.63879,0.09408,-0.07919
0.03013,0.99747,0.06438,-0.52828,-0.5018,0.04772
0.01498,0.99642,0.08316,0.10332,-0.77376,0.40207
-0.00329,0.99663,0.08191,0.03276,-1.0979,0.23007
-0.00269,0.99687,0.07893,0.19783,-1.17902,0.14209
0.01145,0.99821,0.05861,-0.26089,-0.91035,-0.09738
0.02755,0.99944,0.0189,-0.41041,-0.8236,0.08269
0.03727,0.99881,-0.03143,-0.30144,-0.60965,0.48036
0.03356,0.9961,-0.08158,-0.06192,-0.0382,0.47036
0.02526,0.98743,-0.15602,0.38186,1.42813,0.20454
0.03045,0.97147,-0.23517,0.29859,2.93253,-0.58804
0.03691,0.9557,-0.29201,-0.00181,1.62343,-0.46001
0.03584,0.95127,-0.30625,0.02683,1.45461,-0.48316
0.04062,0.95378,-0.29772,0.04251,0.71728,-0.5866
0.04179,0.95464,-0.29481,0.30267,0.19625,-0.43621
0.03117,0.95555,-0.29318,0.31328,0.19535,-0.43784
0.01942,0.95838,-0.28484,0.28848,-0.18102,0.24407
0.01614,0.96266,-0.27021,0.29699,-0.8952,0.30118
0.01342,0.96434,-0.26431,0.13784,-1.45172,0.38394
0.00773,0.96345,-0.26776,-0.04188,-1.71048,0.37625
0.01254,0.96308,-0.2689,-0.29846,-1.32148,0.62124
0.03655,0.96409,-0.26305,-0.32247,-1.32248,0.61539
0.06763,0.96722,-0.24475,-0.15092,-0.85103,0.11294
0.09976,0.96956,-0.22361,-0.43685,0.17226,0.72264
0.1307,0.96339,-0.23406,-0.4678,0.17842,0.7331
0.15575,0.93437,-0.32046,0.36893,3.95667,0.46116
0.12506,0.93924,-0.31967,0.25493,-0.95128,-0.241
0.09634,0.95326,-0.28638,0.45325,-0.34007,-0.07965
0.08156,0.96529,-0.24809,0.8054,1.06046,-0.18077
0.06752,0.97725,-0.20104,0.90582,1.26436,-0.10943
0.0609,0.98793,-0.14241,0.39309,0.49884,-0.41248
0.0552,0.99543,-0.07783,0.21377,-0.18124,-0.1944
0.04644,0.99856,-0.02671,-0.08109,0.20255,-0.09954
0.03593,0.99925,0.01376,-0.20931,0.26402,-0.15976
0.02632,0.99862,0.04541,-0.33078,-0.38909,-0.1743
0.01287,0.99769,0.06657,-0.06049,-0.78841,0.12355
0.00093,0.99727,0.07375,0.12149,-0.97451,0.2844
-0.00376,0.99773,0.06717,0.0713,-1.26045,0.03224
0.00419,0.99861,0.05251,-0.16451,-1.02159,0.084
0.0195,0.9995,0.02483,-0.31666,-0.84862,0.03439
0.03266,0.99926,-0.02031,-0.29459,-0.61348,0.41063
0.03801,0.99676,-0.07084,-0.21207,-0.51249,0.67097
0.03757,0.98942,-0.14013,0.04417,1.42031,0.38615
0.04995,0.97234,-0.22815,0.03261,2.0381,-0.18979
0.07379,0.95463,-0.28849,-0.01485,2.23033,-0.46674
0.07918,0.94505,-0.31718,0.08256,1.5157,-0.48396
0.08015,0.94295,-0.32313,0.21929,0.80451,-0.61105
0.08751,0.93897,-0.33267,0.27252,0.68267,-0.50081
0.08452,0.93408,-0.34692,0.2453,0.52764,-0.44146
0.07281,0.93317,-0.35196,0.14115,0.22735,-0.06787
0.06699,0.93642,-0.34443,0.15124,-0.49461,0.37533
0.07027,0.93916,-0.3362,0.12831,-0.81387,0.37116
0.06821,0.93932,-0.33619,0.02963,-1.81008,0.39054
0.05888,0.93924,-0.33816,-0.14805,-1.7022,0.50646
0.06284,0.94206,-0.32949,-0.21755,-1.59987,0.70433
0.0797,0.94709,-0.31089,-0.1033,-0.91188,0.42888
0.09663,0.95323,-0.28638,-0.08267,0.06853,0.1632
0.1189,0.95698,-0.26465,-0.10494,0.06478,0.14147
0.14691,0.94914,-0.27846,-1.15356,1.32838,-0.41678
0.15899,0.92398,-0.34781,0.41422,2.80693,1.10684
0.12656,0.93413,-0.33374,-0.00675,0.0481,0.82848
0.10527,0.94932,-0.29615,0.16766,-0.08119,-0.23336
0.0928,0.96121,-0.25971,1.36874,1.52224,-0.10954
0.07733,0.97299,-0.21751,1.38422,1.51047,-0.15174
0.07412,0.98428,-0.16028,0.52311,0.2302,-0.30075
0.06938,0.99305,-0.09502,0.28815,-0.33649,-0.06546
0.05934,0.99752,-0.0376,-0.0278,0.09126,0.00161
0.04661,0.9989,0.00309,-0.31308,0.26864,0.02044
0.03505,0.9989,0.03104,-0.38608,-0.53128,-0.15151
0.02187,0.99839,0.05223,-0.24374,-0.75085,0.01015
0.00875,0.99825,0.05848,0.04958,-1.26993,0.2137
0.00399,0.99831,0.05793,0.18029,-1.2013,0.18547
0.00983,0.99872,0.04945,0.03327,-1.08367,0.11084
0.02155,0.99946,0.02453,-0.3028,-0.74016,0.00441
0.03154,0.99938,-0.01515,-0.20891,-0.53898,0.46939
0.0348,0.99761,-0.05968,-0.10435,-0.40349,0.75339
0.03213,0.99208,-0.12137,0.15408,1.29754,0.47265
0.04156,0.97878,-0.20065,0.31033,1.47578,0.35992
0.06296,0.96394,-0.25856,-0.04697,1.85926,-0.31472
0.06337,0.9548,-0.29041,0.19065,1.295,-0.47409
0.05641,0.95339,-0.29642,0.09886,0.80729,-0.61468
0.05838,0.95046,-0.3053,0.0613,0.84672,-0.55878
0.05524,0.9451,-0.32207,0.20802,0.64856,-0.28405
0.04246,0.94393,-0.32741,0.0829,0.25818,-0.05022
0.03353,0.94864,-0.31457,0.06147,0.04092,0.12879
0.03606,0.95405,-0.29745,0.14798,-1.00954,0.35295
0.03792,0.95632,-0.28983,0.22041,-1.67909,0.42477
0.02651,0.95504,-0.29529,0.08022,-1.79137,0.38456
0.02265,0.95348,-0.3006,-0.3589,-1.54384,0.65947
0.04221,0.95344,-0.2986,-0.40101,-1.20512,0.58658
0.07451,0.95616,-0.28318,-0.28486,-1.03997,0.36476
0.10484,0.95932,-0.26214,-0.18182,-0.03518,0.04217
0.12326,0.96086,-0.24808,-0.66052,0.3071,0.56687
0.13239,0.9442,-0.30159,-1.02131,1.33746,-0.43024
0.10377,0.92842,-0.35673,0.46146,0.33219,1.01777
0.07266,0.94222,-0.32701,0.19428,-1.03049,-0.56721
0.06419,0.95648,-0.28464,0.20142,0.05216,-0.56436
0.05822,0.96587,-0.25238,1.3838,1.391,-0.1402
0.05453,0.97512,-0.21484,0.6741,0.50081,-0.09519
0.05459,0.98584,-0.15853,0.37029,0.14227,-0.04656
0.05031,0.99441,-0.09284,0.07135,-0.03458,0.06011
0.03466,0.9987,-0.03728,-0.30474,0.39659,-0.24601
0.02541,0.99965,-0.00694,-0.61699,-0.13823,-0.26839
0.01863,0.99965,0.01859,-0.40045,-0.58098,-0.01662
0.00419,0.99945,0.03284,-0.23647,-0.82609,0.10922
-0.0088,0.99933,0.0354,0.11319,-1.21445,0.27508
-0.01429,0.99941,0.03123,0.2584,-1.1724,0.1501
-0.00833,0.99984,0.01588,0.0493,-0.985,0.08711
0.00276,0.99988,-0.01487,-0.19011,-0.85051,0.04635
0.01019,0.99831,-0.05717,-0.2106,-0.67801,0.31645
0.00749,0.99482,-0.10132,0.15101,-0.4842,0.83251
-0.00206,0.98995,-0.14138,-0.08279,0.21742,0.05997
-0.00777,0.97477,-0.22308,0.83087,2.08355,0.15828
0.0161,0.95426,-0.29855,-0.23877,3.77612,-0.7992
0.01915,0.94259,-0.33341,-0.31774,1.98498,-0.37979
0.02107,0.94551,-0.3249,-0.0331,0.51091,-0.54633
0.03144,0.9493,-0.3128,0.36599,0.34517,-0.4558
0.03071,0.949,-0.31378,0.46886,0.21678,-0.35078
0.01833,0.94859,-0.31597,0.35777,0.08223,0.08947
0.00658,0.95055,-0.3105,0.15697,-0.44351,0.30207
0.0064,0.95242,-0.30471,0.0563,-0.79657,0.33463
0.00842,0.9497,-0.31303,-0.03071,-1.50644,0.56135
0.01022,0.94552,-0.3254,-0.15444,-1.59663,0.59789
0.02293,0.94563,-0.32444,-0.2801,-1.4858,0.626
0.04942,0.94995,-0.30848,-0.20279,-0.94831,0.3254
0.07591,0.95555,-0.28488,-0.12129,-0.2489,0.07899
0.09735,0.95961,-0.26393,-0.14011,-0.08289,0.13445
0.11502,0.95544,-0.27186,-0.96006,1.57964,-0.34318
0.11609,0.92769,-0.35484,0.79486,2.65602,1.4741
0.06177,0.93114,-0.35938,0.49612,0.22073,1.11612
0.0524,0.94567,-0.32088,-0.08558,-0.11243,-0.53427
0.0514,0.95757,-0.28356,1.10316,1.21859,-0.4449
0.03585,0.96748,-0.25037,1.38768,1.33957,-0.17283
0.02195,0.97947,-0.2004,0.42661,0.24362,-0.12038
0.012,0.99082,-0.13463,0.11451,-0.20238,-0.06387
0.00671,0.99762,-0.06855,0.06728,0.25618,-0.10235
-0.00108,0.99977,-0.02103,-0.26033,0.37329,-0.14077
-0.01536,0.99978,0.01377,-0.49274,0.18032,-0.19594
-0.03091,0.99875,0.0393,-0.24279,-0.71518,0.08447
-0.04876,0.9977,0.04691,0.2184,-1.0752,0.17033
-0.0585,0.9973,0.0443,0.27164,-1.27887,0.0849
-0.05339,0.99794,0.0355,0.12242,-1.09386,0.03214
-0.03649,0.99926,0.01206,-0.07369,-0.87845,-0.05014
-0.02019,0.99948,-0.02497,-0.13475,-0.80219,0.13015
-0.01357,0.99775,-0.06565,0.0693,-0.51498,0.80725
-0.01834,0.99377,-0.1099,0.03682,0.73213,-0.07454
-0.0225,0.98183,-0.1884,0.54939,2.13378,0.26914
-0.00654,0.96651,-0.25655,-0.0847,3.10763,-0.39354
-0.00232,0.9543,-0.29885,-0.26405,1.27225,-0.4059
-0.0015,0.95205,-0.30595,-0.08416,0.75721,-0.374
0.00562,0.95152,-0.30754,0.23788,0.61335,-0.42943
0.00929,0.94844,-0.31682,0.38566,0.34308,-0.25958
0.00255,0.947,-0.32123,0.24457,0.27137,-0.23628
-0.00599,0.94952,-0.31363,0.15307,0.18892,-0.13679
-0.00324,0.95428,-0.29889,0.15026,-0.83383,0.28665
0.00129,0.95703,-0.29,0.29789,-1.69197,0.42443
-0.00631,0.95728,-0.28909,0.15568,-1.87955,0.36436
-0.01258,0.95732,-0.28874,-0.09023,-1.4858,0.50764
0.00394,0.95863,-0.28462,-0.23151,-1.13887,0.40109
0.03458,0.96025,-0.27697,-0.26215,-1.14049,0.39344
0.07052,0.96125,-0.2665,-0.04294,-0.22752,0.01608
0.09905,0.96157,-0.25606,-0.75804,-0.22347,0.87994
0.11827,0.95438,-0.27417,-0.77727,-0.21628,0.89806
0.10139,0.92651,-0.36234,-0.07244,5.62593,1.50225
0.04819,0.94031,-0.33688,-0.02764,-1.7103,-0.70454
0.06766,0.95378,-0.29279,-0.00563,-0.91095,-0.71434
0.08445,0.95984,-0.26753,1.96871,1.58635,-0.31682
0.07109,0.96921,-0.23572,1.73643,1.39205,0.11254
0.05373,0.98264,-0.17755,0.43936,0.49331,-0.3033
0.0384,0.99448,-0.09764,0.44636,-0.09037,-0.07925
0.03532,0.99887,-0.0316,-0.32315,0.24637,-0.16333
0.02959,0.99951,0.01035,-0.68747,0.47504,-0.10703
0.01787,0.99891,0.04312,-0.70399,-0.24377,0.05302
0.00101,0.998,0.0632,-0.26094,-0.85858,0.12384
-0.02182,0.99767,0.06463,0.07083,-1.16724,0.32994
-0.03317,0.99782,0.057,0.3089,-1.30088,0.04948
-0.02779,0.99873,0.04206,0.15697,-1.00085,0.01247
-0.01117,0.9999,0.00881,-0.01059,-0.94733,0.02218
0.00583,0.99946,-0.0324,-0.22749,-0.84144,0.1528
0.01512,0.99692,-0.07697,-0.18246,-0.782,0.28122
0.01671,0.99333,-0.11403,-0.00035,-0.46828,0.83892
0.01642,0.9851,-0.1712,0.84855,1.89254,-0.43761
0.04099,0.96628,-0.25422,-0.09119,3.34805,-0.80989
0.06325,0.95002,-0.3057,-0.29885,2.60998,-0.68642
0.06307,0.94559,-0.3192,-0.13557,0.943,-0.46631
0.06561,0.94372,-0.32418,-0.04854,0.72088,-0.49896
0.06891,0.94058,-0.3325,0.32903,0.56591,-0.40826
0.06532,0.93929,-0.33686,0.26497,0.24384,-0.27075
0.05448,0.94121,-0.33339,0.09026,0.14109,-0.10334
0.04933,0.94506,-0.32314,0.03752,-0.21764,0.13256
0.05037,0.94711,-0.31692,0.0693,-1.07625,0.5684
0.04198,0.94547,-0.32298,0.0267,-1.70634,0.36932
0.02569,0.9451,-0.32577,-0.02211,-1.74022,0.42305
0.02742,0.94768,-0.31803,-0.20454,-1.2782,0.58865
0.04564,0.95175,-0.30346,0.02816,-0.78909,0.20977
0.07495,0.9563,-0.2826,0.12236,-0.42264,0.19329
0.11298,0.95368,-0.27881,-1.12787,0.77418,0.21637
0.14794,0.92653,-0.3459,-1.53934,2.34191,-0.68752
0.1361,0.93034,-0.34051,-0.23918,-0.24675,0.26668
0.11521,0.94284,-0.3127,0.5564,-0.64165,-0.15752
0.09385,0.95602,-0.27787,0.74482,0.87727,-0.07109
0.07258,0.97022,-0.23109,0.79974,1.12333,-0.05648
0.05871,0.9834,-0.17166,0.43966,0.74369,-0.40825
0.04693,0.99363,-0.10245,0.37354,-0.2752,0.11202
0.0409,0.9983,-0.04137,0.37957,-0.27987,0.05094
0.03539,0.99933,0.00945,-0.32335,0.28211,0.1237
0.02269,0.99883,0.04268,-0.61095,-0.21703,-0.12002
0.00764,0.99779,0.06604,-0.5959,-0.21599,-0.14338
-0.00534,0.99692,0.07818,-0.06372,-0.91671,0.03111
-0.01115,0.99692,0.07765,0.1106,-1.30467,0.14257
-0.00568,0.99756,0.06954,0.13063,-1.19997,0.0808
0.00829,0.99883,0.04755,-0.11376,-0.94276,0.03209
0.02336,0.99968,0.00943,-0.22288,-0.58115,0.24361
0.03346,0.99873,-0.03772,-0.17395,-0.47363,0.56087
0.0352,0.99486,-0.09495,-0.08151,0.31787,0.17851
0.03749,0.98329,-0.17813,0.26564,1.31772,0.49714
0.05401,0.96802,-0.24499,-0.00047,1.57675,-0.05864
0.06025,0.9542,-0.29303,0.00089,1.73222,-0.52293
0.06202,0.94708,-0.31496,0.21302,0.84403,-0.50274
0.07468,0.94191,-0.32746,0.19328,0.78693,-0.48586
0.08115,0.9364,-0.34142,0.15862,0.45834,-0.19342
0.07474,0.93488,-0.347,0.03647,0.16048,-0.09606
0.06572,0.93768,-0.34121,0.03871,-0.0724,0.10075
0.06379,0.94176,-0.33018,0.26427,-0.89944,0.27308
0.05809,0.94401,-0.32476,0.09323,-1.58723,0.35009
0.04356,0.94339,-0.32881,-0.01059,-1.77313,0.22488
0.04184,0.94162,-0.33406,-0.29548,-1.54889,0.71827
0.06671,0.94147,-0.33042,-0.18613,-1.2634,0.60035
0.09936,0.94517,-0.3111,-0.12653,-1.06315,0.30933
0.12777,0.95062,-0.28282,-0.30685,0.08586,0.19913
0.14769,0.94655,-0.28674,-1.23062,1.77425,-0.73496
0.1504,0.91369,-0.37756,-0.10789,3.77151,-0.42097
0.11758,0.91834,-0.37793,-0.06051,-1.10938,0.07505
0.1109,0.93424,-0.33895,0.17276,-0.60053,-0.31953
0.10525,0.94745,-0.30209,0.31754,0.35286,-0.16697
0.08385,0.95999,-0.2672,0.85945,1.43136,0.02603
0.06858,0.97416,-0.2152,0.37698,0.39155,-0.30488
0.06068,0.98769,-0.14415,0.35911,0.03112,-0.2661
0.05795,0.99532,-0.07735,0.28494,-0.00257,0.12973
0.05409,0.9983,-0.0217,-0.33697,0.43758,-0.0446
0.04482,0.99881,0.01918,-0.6482,0.4348,-0.00032
0.03108,0.99826,0.04999,-0.58979,-0.4168,0.00144
0.01069,0.99801,0.06216,0.09165,-0.92022,0.25864
-0.00645,0.9982,0.05958,0.34877,-1.20082,0.24712
-0.00619,0.99861,0.0524,0.02378,-0.96047,0.01332
0.00781,0.99963,0.02597,-0.11456,-0.82353,0.01091
0.02186,0.99965,-0.01486,-0.29035,-0.7711,0.09137
0.02894,0.99766,-0.06194,-0.20984,-0.6594,0.44888
0.02445,0.9936,-0.11022,0.04153,-0.35849,0.73473
0.01849,0.98301,-0.18261,0.06807,1.018,0.02426
0.03833,0.96398,-0.26321,0.27244,2.16247,-0.32007
0.05727,0.94432,-0.32399,-0.17487,3.26251,-0.63177
0.05235,0.9397,-0.33796,0.38335,1.7308,-0.44601
0.05369,0.94115,-0.33369,-0.23981,0.93341,-0.6179
0.05326,0.93957,-0.33818,0.38297,0.60733,-0.46577
0.04971,0.93825,-0.34237,0.13636,0.31879,-0.38312
0.04114,0.94012,-0.33836,0.1257,-0.02869,0.31794
0.03953,0.94347,-0.32908,0.25544,-0.87855,0.4668
0.03804,0.94466,-0.32582,0.17879,-1.11773,0.55676
0.02466,0.94384,-0.32948,-0.03806,-1.97869,0.3912
0.01554,0.94424,-0.32888,-0.34438,-1.76486,0.70144
0.02991,0.94795,-0.317,-0.40532,-1.591,0.81237
0.05371,0.95508,-0.29143,-0.12541,-0.75817,0.14169
0.07289,0.96198,-0.2632,-0.10495,0.34602,-0.00347
0.08866,0.96465,-0.24817,-0.04954,0.2559,0.20015
0.11422,0.95252,-0.28224,-0.85842,0.84452,0.33933
0.11278,0.92645,-0.35912,0.67552,1.36328,1.39253
0.07538,0.93561,-0.34488,0.18339,-0.55338,0.47223
0.06657,0.9513,-0.30099,0.02172,0.33869,-0.19988
0.05958,0.96301,-0.2628,1.21065,1.55741,-0.37128
0.04006,0.97435,-0.22145,1.23686,1.62186,-0.1998
0.02836,0.98597,-0.1645,0.38545,0.04919,-0.19498
0.02625,0.99511,-0.09525,0.36418,-0.19254,-0.05655
0.02831,0.999,-0.03441,0.23159,0.08301,-0.1645
0.02326,0.99972,0.00487,-0.4744,0.21916,-0.14321
0.01037,0.99933,0.03508,-0.41545,-0.42522,-0.10073
-0.00911,0.99855,0.05308,-0.21768,-0.64709,-0.01419
-0.02863,0.99804,0.05558,0.22199,-1.18119,-0.01744
-0.03518,0.99799,0.05276,0.25952,-1.31204,0.1457
-0.02545,0.99882,0.04131,0.12562,-1.17498,0.13651
-0.00842,0.9999,0.01138,-0.21968,-0.80958,0.03979
0.0064,0.99952,-0.03016,-0.19925,-0.77882,0.33831
0.01126,0.99728,-0.07286,-0.12161,-0.63517,0.62558
0.00967,0.99187,-0.12684,-0.12034,0.76272,-0.04714
0.02047,0.97606,-0.21653,0.39552,1.8454,0.13911
0.06333,0.95222,-0.29878,-0.28454,2.74299,-0.46014
0.07741,0.93942,-0.33389,0.05069,1.39958,-0.42683
0.06963,0.94025,-0.33329,0.10029,0.55202,-0.39239
0.07383,0.94157,-0.32862,0.03299,0.39392,-0.49131
0.074,0.93929,-0.33505,0.3456,0.43182,-0.3694
0.0634,0.9377,-0.3416,0.13964,0.37494,-0.207
0.05215,0.93726,-0.3447,0.16715,0.04867,0.23661
0.05096,0.93624,-0.34764,0.01021,-0.70099,0.50098
0.0476,0.93275,-0.35736,0.04514,-1.85499,0.48916
0.03939,0.93114,-0.36252,0.05335,-1.85338,0.49431
0.04314,0.93361,-0.35568,-0.23304,-1.6223,0.83423
0.06284,0.94042,-0.33417,-0.06382,-1.03839,0.34848
0.08563,0.94938,-0.30223,-0.08661,-1.04736,0.31654
0.10397,0.95516,-0.27722,-0.39379,0.00907,0.44539
0.12272,0.94938,-0.28916,-1.08119,2.2776,-0.36274
0.12324,0.91761,-0.37788,-0.24485,5.30493,0.51569
0.07053,0.92453,-0.37452,0.48239,-0.53114,0.60569
0.0676,0.94375,-0.32368,-0.27514,-0.31296,-0.70882
0.07536,0.95593,-0.28374,0.35138,0.56434,-0.36673
0.06385,0.9661,-0.25013,1.99549,1.7552,-0.153
0.05298,0.97861,-0.19879,0.38339,-0.06047,-0.18654
0.04403,0.99132,-0.12389,0.35317,-0.49241,-0.10155
0.04142,0.99786,-0.05048,-0.00932,0.35877,-0.09453
0.03813,0.99927,-0.00245,-0.72235,0.60256,-0.09517
0.03209,0.99904,0.02958,-0.77012,0.27412,-0.07117
0.01569,0.99877,0.04702,-0.23123,-0.76668,0.23148
-0.01037,0.99881,0.04757,0.07531,-0.98689,0.3171
-0.02315,0.99872,0.04487,0.42492,-1.47901,0.08644
-0.01753,0.99936,0.03118,0.04994,-1.11631,-0.02849
-0.00055,1.0,0.00131,-0.0564,-1.01045,-0.03004
0.01415,0.99914,-0.03896,-0.21335,-0.86874,0.21147
0.01921,0.99663,-0.07968,-0.00396,-0.45426,0.80215
0.01491,0.99164,-0.12818,-0.035,0.03342,0.24335
0.01518,0.97825,-0.20685,0.43699,1.62639,0.33867
0.03282,0.96216,-0.27049,-0.28429,2.58786,-0.57115
0.03756,0.95191,-0.30406,0.04704,1.56533,-0.75594
0.03553,0.95265,-0.30198,0.04765,1.1942,-0.40983
0.03563,0.95394,-0.29788,0.21857,0.48309,-0.36664
0.02936,0.95155,-0.30609,0.23097,0.29656,-0.20296
0.01597,0.94827,-0.31706,0.10563,0.32444,-0.1322
0.00657,0.94622,-0.32345,-0.00466,-0.00968,0.42738
0.00917,0.94555,-0.32533,0.0389,-0.79991,0.58691
0.01229,0.94376,-0.3304,0.07635,-1.25902,0.5533
0.00542,0.94311,-0.33243,-0.17876,-1.96217,0.43081
0.00126,0.94402,-0.32987,-0.38145,-1.49726,0.6572
0.01608,0.94826,-0.31707,-0.24237,-1.4352,0.66487
0.04146,0.95263,-0.30129,0.01145,-0.7625,0.02886
0.07433,0.9548,-0.28779,0.16584,-0.33762,-0.1726
0.10281,0.955,-0.27822,0.05448,-0.42845,0.15209
0.11989,0.94207,-0.31325,-0.51404,3.03782,-1.11662
0.07834,0.93307,-0.35106,0.69084,1.39507,1.52344
0.04226,0.94936,-0.31133,0.20466,-1.6317,-1.04949
0.04458,0.9635,-0.26395,0.19981,0.08349,-0.56116
0.05209,0.97184,-0.22982,1.90499,1.53773,0.09938
0.05274,0.98076,-0.18795,1.90434,1.52881,0.0575
0.05189,0.99182,-0.11662,-0.0291,-0.13975,0.03508
0.04336,0.99847,-0.03425,-0.33544,0.34346,0.16356
0.02886,0.99934,0.02218,-0.50431,0.58396,-0.06805
0.01862,0.99815,0.05785,-0.52274,-0.11463,-0.13763
0.00101,0.99712,0.07577,-0.22764,-0.75706,-0.06009
-0.02204,0.9966,0.07933,-0.01947,-0.92087,0.1041
-0.03363,0.99645,0.0772,0.28349,-1.43584,0.12423
-0.02897,0.99731,0.06722,0.08468,-1.10388,0.0102
-0.01276,0.99909,0.04057,-0.11547,-0.96186,-0.03792
0.00415,0.99999,0.00099,-0.2572,-0.74594,-0.0758
0.01402,0.99882,-0.04656,-0.14216,-0.48937,0.58337
0.01408,0.99566,-0.09196,-0.0355,-0.32937,0.85763
0.01374,0.98687,-0.16093,0.10032,1.01359,0.16982
0.03251,0.96991,-0.24128,-0.02586,3.23115,-0.59655
0.04481,0.9536,-0.29774,-0.03815,3.24747,-0.54009
0.04139,0.95021,-0.30883,-0.30929,0.85594,-0.49299
0.04922,0.9523,-0.30117,0.05493,0.6957,-0.50317
0.05525,0.9501,-0.307,0.24839,0.60677,-0.41652
0.048,0.948,-0.31464,0.32401,0.30068,-0.17618
0.03592,0.94898,-0.31327,0.16632,-0.01124,0.12878
0.03334,0.95222,-0.30357,0.16727,-0.24824,0.37162
0.03582,0.95312,-0.30045,0.15542,-1.35759,0.67441
0.02985,0.9518,-0.30528,-0.04943,-2.08616,0.37956
0.02245,0.9521,-0.30496,-0.23854,-1.96772,0.38511
0.03701,0.95536,-0.29309,-0.50892,-1.40524,0.67163
0.06229,0.96085,-0.26998,-0.1937,-0.96544,0.18426
0.08309,0.96603,-0.24469,-0.12832,-0.46942,-0.02391
0.09896,0.96573,-0.23992,-1.18408,1.74998,-0.57649
0.12117,0.94109,-0.3157,-0.09195,4.04551,-0.31882
0.10101,0.93073,-0.35147,0.92305,3.08872,1.09677
0.07872,0.94721,-0.31079,0.18657,-1.40736,-0.53224
0.07302,0.96049,-0.26856,0.41071,0.43674,-0.22021
0.06194,0.97119,-0.23011,0.85273,0.99707,-0.47166
0.0482,0.98188,-0.18327,0.8763,0.78852,-0.24642
0.04406,0.99228,-0.11591,0.19263,-0.20703,-0.12715
0.0376,0.99799,-0.051,-0.01354,-0.26673,-0.13617
0.02672,0.99963,-0.00489,-0.46353,0.35793,-0.03327
0.01666,0.99939,0.03049,-0.24699,-0.176,-0.06593
0.0005,0.99838,0.0568,-0.10392,-0.72928,-0.04506
-0.0162,0.99779,0.0644,0.01558,-1.09572,0.26219
-0.02565,0.9979,0.05943,0.05295,-1.28748,0.12511
-0.02232,0.99868,0.04617,0.003,-1.0436,-0.0211
-0.01006,0.99982,0.01629,-0.02878,-0.78592,0.048
0.00117,0.99967,-0.02562,-0.16948,-0.69602,0.14388
0.00516,0.99718,-0.07478,-0.17346,-0.69354,0.19304
0.00124,0.99296,-0.11845,-0.19492,0.57298,0.12567
-0.0052,0.98271,-0.18507,0.9553,1.75089,0.37115
0.01821,0.96548,-0.25982,0.9319,1.76811,0.4459
0.03544,0.95041,-0.30896,-0.14375,2.14628,-0.6778
0.03063,0.9471,-0.31947,-0.0568,1.46321,-0.39386
0.03423,0.94941,-0.31217,-0.02655,0.67771,-0.55607
0.03149,0.94938,-0.31255,0.4185,0.34045,-0.29212
0.02122,0.94883,-0.31508,0.33139,0.16934,-0.03788
0.01111,0.95047,-0.31063,0.28774,0.05495,0.2636
0.00777,0.95406,-0.29952,0.18239,-1.2359,0.46837
0.00161,0.95449,-0.29823,0.04924,-1.95415,0.58068
-0.01159,0.95267,-0.30379,0.03291,-2.13672,0.52945
-0.01077,0.95267,-0.3038,-0.4038,-1.52412,0.80321
0.01282,0.9573,-0.2888,-0.33176,-1.15483,0.47218
0.03746,0.96504,-0.25941,-0.28964,-0.98381,0.17356
0.05892,0.97048,-0.23388,-0.05232,0.22384,0.00284
0.07696,0.96956,-0.23244,-0.72224,0.49081,0.40993
0.09603,0.94752,-0.30493,-0.8366,1.80698,-0.52881
0.05936,0.92847,-0.36664,0.52873,0.03979,1.0013
0.03026,0.94216,-0.33379,0.0463,-1.66416,-0.45891
0.03267,0.95878,-0.28228,-0.21205,-0.41385,-0.40279
0.03428,0.96934,-0.24333,1.51719,1.58562,-0.04124
0.01949,0.98014,-0.19734,0.31922,0.86779,-0.23492
0.00758,0.99131,-0.13135,0.045,0.33374,-0.25633
0.00381,0.99804,-0.06252,0.00449,0.18685,-0.14002
0.00026,0.99995,-0.01034,-0.27538,0.2774,-0.11648
-0.00882,0.9996,0.02701,-0.3489,0.12519,-0.17281
-0.0276,0.99835,0.05031,-0.14084,-0.66721,0.13092
-0.05772,0.99726,0.04621,-0.44765,-1.08102,-0.15717
-0.06515,0.99669,0.04855,0.2265,-1.16187,0.39205
-0.05816,0.99759,0.03775,0.29811,-1.0484,0.00098
-0.04036,0.99916,0.00724,-0.09687,-0.86149,0.05877
-0.02162,0.99914,-0.0353,-0.17852,-0.73359,0.49006
-0.00852,0.9965,-0.08311,-0.10656,-0.01748,0.29573
0.00015,0.98708,-0.16025,0.29961,1.30824,0.61743
0.02278,0.97186,-0.23443,0.08174,1.47009,0.29515
0.0357,0.95712,-0.28749,0.08729,1.94359,-0.53815
0.03649,0.9479,-0.31646,0.18737,1.5085,-0.50298
0.03696,0.94499,-0.32502,0.18533,0.98908,-0.42411
0.04049,0.94073,-0.33672,0.06533,0.68492,-0.41621
0.03192,0.93812,-0.34484,0.06446,0.32118,-0.23348
0.01634,0.94142,-0.33682,0.03641,0.2136,0.00202
0.00582,0.94831,-0.31728,0.25011,-0.67281,0.22585
-0.00101,0.95307,-0.30274,0.33282,-1.69569,0.44651
-0.01869,0.95353,-0.30071,0.21214,-1.84229,0.40894
-0.03215,0.951,-0.30753,-0.11315,-1.61881,0.51756
-0.01788,0.95053,-0.3101,-0.38097,-1.2118,0.70306
0.01542,0.95341,-0.30127,-0.33141,-1.0885,0.49608
0.05321,0.95717,-0.28458,-0.47781,0.30423,0.58242
0.08232,0.95571,-0.28255,-0.98956,1.88396,-0.48794
0.1095,0.92667,-0.35957,-0.89746,3.33404,-0.34227
0.0996,0.92311,-0.37142,0.37862,0.1646,0.80648
0.08294,0.93441,-0.3464,0.6911,-0.24191,0.14723
0.06142,0.94762,-0.31344,0.67976,0.09781,0.12829
0.03782,0.96216,-0.26983,0.68459,1.35682,-0.1789
0.01719,0.97695,-0.21277,0.90527,0.98684,-0.62853
0.00904,0.99002,-0.14065,0.74123,0.42182,-0.5706
0.00591,0.99694,-0.07793,0.06103,-0.24755,-0.04106
-0.00106,0.99967,-0.02561,-0.31153,0.34191,-0.20594
-0.01893,0.99967,0.01714,-0.36848,0.39419,-0.24301
-0.03211,0.99831,0.04837,-0.30037,-0.26285,-0.14595
-0.04926,0.9964,0.06905,0.17713,-0.87474,0.28549
-0.06021,0.99559,0.072,0.27058,-1.08654,0.25425
-0.05929,0.99637,0.06103,0.19564,-1.17791,0.03198
-0.04554,0.9982,0.039,-0.02552,-0.91554,-0.06827
-0.02716,0.99962,0.00342,-0.12178,-0.82754,0.00165
-0.01196,0.99914,-0.0397,0.00921,-0.51054,0.8196
-0.00262,0.99585,-0.09094,0.11482,0.80691,0.00615
0.00593,0.9837,-0.1797,0.52862,1.83837,0.35388
0.02634,0.96734,-0.2521,-0.4574,2.70498,-0.32106
0.03649,0.9561,-0.29076,-0.36216,1.47301,-0.36445
0.04384,0.95329,-0.29885,-0.21008,1.23434,-0.34361
0.05316,0.95116,-0.30408,0.18103,0.65689,-0.44744
0.05579,0.9454,-0.32111,0.1861,0.46902,-0.24689
0.04324,0.94188,-0.33314,0.14874,0.42947,-0.20461
0.0282,0.94285,-0.33203,0.06451,-0.10099,0.37938
0.02316,0.94599,-0.32337,0.17879,-1.00507,0.44965
0.02142,0.94729,-0.31965,0.21728,-1.22841,0.44179
0.01352,0.94682,-0.32148,-0.02835,-2.11875,0.37307
0.01287,0.94735,-0.31995,-0.24278,-1.77559,0.57326
0.03407,0.95143,-0.30596,-0.31215,-1.58818,0.67781
0.06555,0.95735,-0.28138,-0.07664,-0.99573,0.26643
0.09449,0.96059,-0.26141,-0.12902,-0.00168,-0.081
0.11921,0.95858,-0.25867,-0.07293,0.22825,-0.24168
0.14973,0.94591,-0.28779,-1.3688,0.68368,0.31823
0.14614,0.91254,-0.38199,0.32469,5.57478,1.22467
0.10624,0.92245,-0.37122,0.23794,-0.66817,0.31815
0.12389,0.9366,-0.32776,-0.08762,-1.25252,-0.37076
0.13518,0.94459,-0.29913,0.93587,1.02865,-0.18056
0.11283,0.95708,-0.26694,0.95821,1.01615,-0.21275
0.0902,0.97316,-0.21171,0.44376,0.98296,-0.59499
0.07226,0.98665,-0.14594,0.47553,-0.07062,-0.21832
0.07072,0.99357,-0.08842,0.40649,-0.08933,-0.19391
0.06957,0.99643,-0.04779,-0.43121,0.48051,-0.06948
0.06227,0.99795,-0.01473,-0.35725,0.11759,0.08759
0.04414,0.99902,0.00359,-0.41754,-0.3935,-0.10692
0.02894,0.99947,0.01465,-0.00979,-0.98731,0.30247
0.0227,0.99962,0.01529,0.08855,-1.08754,0.09343
0.02839,0.99959,0.00213,-0.07261,-0.91459,-0.01865
0.03868,0.99882,-0.02943,-0.30754,-0.81421,0.12364
0.04637,0.99639,-0.07107,-0.36421,-0.72215,0.3328
0.0442,0.99233,-0.11539,-0.29447,-0.71755,0.57393
0.03934,0.9876,-0.15197,-0.02534,-0.54491,1.06489
0.04415,0.97506,-0.2175,0.89026,1.28767,-0.07825
0.07446,0.9527,-0.29464,0.43964,1.86827,-0.40874
0.08418,0.93443,-0.34606,0.26734,1.7151,-0.6621
0.07635,0.93165,-0.35525,0.02255,1.16535,-0.67329
0.07936,0.93136,-0.35534,-0.14578,0.94362,-0.55326
0.0836,0.93046,-0.35673,0.43929,0.39901,-0.46442
0.08079,0.932,-0.35335,0.15921,0.26727,-0.21021
0.06721,0.93662,-0.34384,0.14419,-0.11505,-0.13157
0.05339,0.94242,-0.33013,0.15309,-0.75648,0.49333
0.03843,0.94536,-0.32377,0.11719,-1.46351,0.66303
0.0159,0.94407,-0.32937,0.02333,-1.60151,0.51888
0.00606,0.94337,-0.33169,-0.40167,-1.40122,0.7169
0.0193,0.94464,-0.32754,-0.52438,-1.14953,0.66734
0.04617,0.94815,-0.31445,-0.42597,-1.00307,0.4979
0.07775,0.95354,-0.29106,-0.18059,0.09445,0.49842
0.10871,0.95255,-0.2843,-1.03307,1.07998,0.19089
0.13647,0.92447,-0.35598,-1.03383,2.46504,-0.69446
0.11497,0.9222,-0.36923,-0.15189,-0.51764,0.40199
0.09261,0.93638,-0.33854,0.14902,-0.57119,-0.21323
0.07859,0.9499,-0.30252,0.37849,0.26837,0.00749
0.0639,0.9641,-0.25775,0.9487,1.11522,-0.26163
0.04773,0.97755,-0.20521,1.02401,0.71285,-0.43944
0.03867,0.98966,-0.13811,0.83725,0.34654,-0.41808
0.03672,0.9967,-0.07239,-0.0339,0.0848,-0.00199
0.0305,0.99938,-0.01777,-0.45252,0.42406,-0.17272
0.01745,0.99963,0.02088,-0.72131,0.52112,-0.20273
-0.0008,0.99891,0.04672,-0.568,-0.49276,-0.05089
-0.02803,0.99794,0.05774,0.19299,-1.14065,0.26335
-0.04624,0.99743,0.05478,0.21121,-1.14014,0.26631
-0.04726,0.998,0.04196,0.34018,-1.24579,0.02689
-0.03206,0.99932,0.01808,0.02223,-1.03402,-0.01538
-0.0143,0.99975,-0.01678,-0.19455,-0.89783,0.09333
-0.00301,0.99812,-0.06118,-0.12614,-0.68606,0.54396
-0.00015,0.99412,-0.10827,-0.07439,0.04055,0.56485
0.0049,0.98218,-0.18786,0.37006,1.37289,0.67945
0.03628,0.96396,-0.26356,-0.25176,2.10048,-0.43296
0.05726,0.94704,-0.31596,-0.07966,1.7993,-0.47414
0.06044,0.93988,-0.3361,0.05892,1.76724,-0.59154
0.06098,0.93686,-0.34434,0.25437,0.70836,-0.38283
0.05995,0.93287,-0.35517,0.30072,0.35591,-0.30443
0.04868,0.93183,-0.35962,0.13134,0.29077,-0.32806
0.03188,0.93475,-0.35388,0.07255,-0.12249,0.1848
0.02289,0.93991,-0.34064,0.16792,-0.75632,0.42968
0.01334,0.9433,-0.33168,0.22579,-1.16336,0.53279
-0.0069,0.94282,-0.33322,0.06586,-1.80668,0.37843
-0.0163,0.94189,-0.33552,-0.22984,-1.59487,0.66343
0.0028,0.94315,-0.33234,-0.32826,-1.42558,0.78567
0.03785,0.94684,-0.31947,-0.20609,-1.09342,0.52598
0.07529,0.95111,-0.29953,-0.38552,0.38986,0.47931
0.10803,0.94914,-0.29575,-0.74954,0.80851,0.56017
0.12766,0.92013,-0.37022,0.41175,3.17217,0.92671
0.09652,0.92162,-0.37588,-0.08244,-0.90939,0.013
0.07643,0.93646,-0.34233,0.36568,-0.93884,-0.23935
0.0647,0.95024,-0.30473,0.83013,0.61182,-0.33214
0.04852,0.96437,-0.26008,1.31725,1.35854,-0.20374
0.03464,0.97689,-0.21091,1.04408,1.09208,-0.33487
0.03039,0.98842,-0.14868,0.24294,-0.14988,-0.13612
0.02547,0.99535,-0.09283,-0.01096,0.15412,-0.1571
0.01499,0.99836,-0.05519,-0.21082,0.28608,-0.11837
0.00286,0.99961,-0.02759,-0.33318,-0.42932,-0.05482
-0.01503,0.99986,-0.00726,-0.23873,-0.79461,0.27995
-0.03121,0.99951,0.00279,0.00312,-0.91763,0.35468
-0.03801,0.99928,-0.00137,0.04764,-1.15814,0.18541
-0.03177,0.99934,-0.01787,-0.03682,-1.07441,0.02445
-0.0167,0.99862,-0.04976,-0.17222,-0.96134,-0.0326
-0.00131,0.99559,-0.09381,-0.18897,-0.78238,0.31851
0.0061,0.99012,-0.14009,-0.04268,-0.68299,0.84912
0.01096,0.98243,-0.18631,-0.07646,-0.38421,0.8479
0.02773,0.96413,-0.26397,0.61784,1.58825,0.13134
0.06556,0.94055,-0.33327,0.01093,3.20535,-0.72775
0.06944,0.92637,-0.37017,0.2603,2.03852,-0.34373
0.06298,0.92795,-0.36734,-0.06511,0.97049,-0.62456
0.06468,0.92973,-0.36252,0.1063,0.66771,-0.54686
0.06259,0.92803,-0.3672,0.37591,0.44057,-0.40132
0.05484,0.92839,-0.36755,0.29745,0.1625,-0.1803
0.0447,0.93201,-0.35967,0.11507,-0.05522,0.22175
0.04284,0.93689,-0.347,0.06132,-0.23428,0.43706
0.03637,0.93804,-0.3446,0.03466,-1.48036,0.63295
0.02351,0.93692,-0.34875,-0.19163,-1.83409,0.47459
0.02537,0.93861,-0.34405,-0.34063,-1.63832,0.62504
0.04722,0.94276,-0.33011,-0.32256,-1.13366,0.51058
0.07496,0.94819,-0.30873,-0.12373,-0.05015,0.36652
0.10495,0.95091,-0.29113,-0.15372,-0.05287,0.34892
0.1383,0.92854,-0.34451,-1.15267,2.12608,-0.53619
0.1442,0.90992,-0.38891,-0.05668,3.80987,0.09483
0.11652,0.92521,-0.36113,-0.19719,-1.09704,-0.29836
0.09701,0.94184,-0.32177,0.60811,0.61967,-0.2137
0.07838,0.95582,-0.28331,0.94434,1.00848,-0.38063
0.05696,0.9696,-0.23798,1.21035,1.34043,-0.12942
0.05008,0.98341,-0.17434,0.44917,-0.20592,-0.17777
0.04637,0.99309,-0.10784,0.26474,-0.04756,0.12931
0.03921,0.9977,-0.05522,-0.05029,0.27346,-0.00345
0.03292,0.99926,-0.01992,-0.44892,0.14785,-0.20756
0.02191,0.99976,0.00021,-0.73018,-0.73351,-0.16452
0.00012,0.9999,0.01421,-0.3002,-0.78843,0.05343
-0.01916,0.99963,0.01917,0.25735,-1.04181,0.3674
-0.02524,0.99956,0.01528,0.16391,-1.24191,0.12316
-0.01593,0.99986,-0.00454,0.10826,-1.03136,0.07499
0.00309,0.99918,-0.04026,-0.07244,-0.76196,0.01027
0.02033,0.99624,-0.08419,-0.20922,-0.78216,0.22958
0.02676,0.99121,-0.12959,-0.15997,-0.70182,0.49249
0.02744,0.98465,-0.17234,-0.23354,0.41494,0.13973
0.03351,0.96709,-0.2522,0.33466,1.20527,0.15415
0.0716,0.9408,-0.3313,0.68171,1.79867,0.13687
0.07844,0.9262,-0.36878,-0.02026,1.37464,-0.29288
0.06615,0.9287,-0.36489,-0.17234,0.87251,-0.28969
0.06571,0.93052,-0.36029,-0.44128,0.55129,-0.58059
0.0679,0.92666,-0.36973,0.35263,0.61697,-0.33525
0.06665,0.92439,-0.37557,0.32232,0.20958,-0.19783
0.06281,0.92553,-0.37341,0.08494,0.13486,-0.23164
0.06185,0.92999,-0.36233,0.20666,-0.83252,0.59243
0.05643,0.93191,-0.35827,0.28018,-1.61743,0.70329
0.03982,0.93331,-0.35685,0.32336,-1.96534,0.62073
0.03052,0.938,-0.3453,-0.23293,-1.72727,0.69653
0.03868,0.94557,-0.3231,-0.4585,-1.29457,0.65771
0.05021,0.95404,-0.29546,-0.47091,-1.06289,0.42884
0.06694,0.95894,-0.2756,-0.20456,0.60295,0.14661
0.09111,0.95535,-0.28107,-0.63141,0.66574,0.68494
0.12838,0.92747,-0.35117,-1.13235,1.27856,0.26642
0.12035,0.91347,-0.38871,0.56438,0.61359,1.20695
0.10727,0.92771,-0.35756,0.0539,-1.43387,-0.53151
0.10457,0.93953,-0.3261,0.24496,-0.52748,-0.33393
0.093,0.951,-0.29486,1.08461,1.2722,-0.13635
0.07324,0.96417,-0.25496,0.48171,1.24069,-0.41819
0.05963,0.97854,-0.19725,0.36923,0.72035,-0.51479
0.05391,0.98913,-0.13684,0.4682,-0.08675,-0.02624
0.05579,0.99489,-0.08414,0.1274,0.17263,-0.19928
0.05067,0.99766,-0.04583,-0.22735,0.38886,-0.23713
0.03224,0.99906,-0.02881,-0.0007,-0.02635,0.22762
0.00812,0.99974,-0.02126,-0.6722,-0.51875,-0.78967
-0.01108,0.9998,-0.01657,0.29282,-1.16599,0.4347
-0.01342,0.99971,-0.02022,0.41062,-1.42668,0.16442
-0.00183,0.99924,-0.03898,0.27741,-1.32085,0.02782
0.01724,0.99721,-0.0726,-0.02728,-0.92611,0.16195
0.03476,0.99293,-0.1135,-0.15906,-0.91842,0.32551
0.04484,0.98709,-0.15374,-0.25033,-0.75243,0.70916
0.05548,0.97844,-0.19893,-0.38231,-0.01821,0.30718
0.07456,0.95905,-0.27327,0.34816,1.52699,0.14322
0.10661,0.93497,-0.33833,0.10852,2.6879,-0.68334
0.117,0.9195,-0.37527,0.20303,2.05819,-0.73821
0.12754,0.91225,-0.38926,-0.06803,1.27935,-0.45919
0.14256,0.90835,-0.39315,0.04478,0.88698,-0.34414
0.1506,0.90815,-0.39063,0.331,0.52568,-0.39773
0.13659,0.91288,-0.38469,0.20647,0.22142,-0.39282
0.11068,0.92097,-0.37357,0.04596,0.16568,-0.0252
0.08481,0.93019,-0.35716,0.1035,-0.011,0.29887
0.05887,0.9382,-0.34105,0.06424,-1.41929,0.33661
0.03661,0.94429,-0.32706,-0.27075,-1.5364,0.30672
0.03596,0.94873,-0.31404,-0.33543,-1.50368,0.46966
0.05545,0.95149,-0.30264,-0.39537,-1.19221,0.70156
0.08204,0.95434,-0.28723,-0.23802,-0.64636,0.24106
0.11039,0.95667,-0.26945,-0.33128,-0.29064,0.27171
0.13773,0.95464,-0.26398,-1.18114,0.43621,0.43055
0.15637,0.9304,-0.33153,-0.88559,4.02511,0.10745
0.12289,0.92637,-0.35599,0.72178,1.92813,1.21003
0.11075,0.93704,-0.3312,0.59839,-0.84167,-0.20096
0.11323,0.94792,-0.2977,0.82166,0.74753,-0.34004
0.09973,0.96033,-0.26044,1.1194,0.82335,-0.46881
0.07686,0.97445,-0.21106,0.83166,0.79855,-0.41899
0.05049,0.98766,-0.14827,0.49042,0.00047,-0.27474
0.03293,0.99608,-0.08204,0.55936,-0.06045,-0.11819
0.02645,0.99935,-0.02468,0.25178,0.10303,-0.20167
0.01731,0.99972,0.0162,-0.63903,0.34588,-0.13015
0.001,0.9991,0.04251,-0.64973,0.12612,-0.00667
-0.02555,0.99858,0.04673,-0.53611,-0.70193,-0.79133
-0.04026,0.99781,0.05241,0.27472,-1.22189,0.35884
-0.03853,0.99813,0.04737,0.41288,-1.33624,0.20259
-0.02431,0.99941,0.02418,-0.1424,-0.92152,-0.10732
-0.00845,0.99987,-0.01402,-0.30066,-0.80565,-0.02215
0.00084,0.99822,-0.05971,-0.32089,-0.77999,0.24525
-0.00232,0.99471,-0.1027,0.0313,-0.37825,0.8713
-0.00515,0.98393,-0.17851,-0.23188,0.34121,0.0323
0.01594,0.96568,-0.25925,0.76317,1.69047,0.26105
0.02691,0.94982,-0.31165,-0.01168,2.09755,-0.54994
0.0203,0.94758,-0.31887,0.02824,1.60729,-0.41487
0.02868,0.94758,-0.31824,-0.07553,0.83964,-0.60539
0.03789,0.94191,-0.33371,0.36716,0.59098,-0.45885
0.03768,0.93607,-0.34979,0.39528,0.48466,-0.27517
0.03345,0.93422,-0.35511,0.29801,0.38919,-0.11902
0.03569,0.93414,-0.35513,0.22347,-0.72535,0.51391
0.03126,0.93285,-0.35889,0.09784,-1.36242,0.68919
0.0169,0.93241,-0.36099,0.08049,-1.81332,0.63466
0.0067,0.93511,-0.35431,-0.34136,-1.79883,0.65078
0.02149,0.94149,-0.33637,-0.40931,-1.53719,0.85996
0.0431,0.95013,-0.30887,-0.36359,-1.34333,0.66069
0.06369,0.95551,-0.28799,-0.34371,0.1693,0.16459
0.08995,0.94759,-0.30657,-0.64969,1.24926,0.21544
0.12317,0.9118,-0.39173,-1.24209,2.16779,-0.21085
0.11461,0.91395,-0.38931,0.56796,-0.11646,1.14981
0.10615,0.92689,-0.36001,0.23542,-1.4885,-0.25055
0.09407,0.9411,-0.32477,0.36223,-0.42146,0.01466
0.06995,0.95842,-0.27664,0.94341,1.40435,-0.10892
0.05316,0.97459,-0.2176,0.47469,1.18853,-0.51919
0.04263,0.98777,-0.14999,0.36501,0.50938,-0.59171
0.03398,0.99519,-0.09189,0.14147,0.09247,-0.16301
0.02253,0.99874,-0.04493,-0.26954,0.40556,-0.12417
0.00802,0.99993,-0.00867,-0.35471,0.28364,-0.24066
-0.00961,0.99987,0.01313,-0.12781,-0.66813,0.11578
-0.02726,0.99942,0.02019,0.31065,-1.09006,0.34822
-0.03486,0.99925,0.01717,0.35905,-1.30117,0.21332
-0.02812,0.9996,0.00406,0.26624,-1.24064,0.11868
-0.01246,0.99957,-0.02656,-0.22727,-0.77816,-0.03532
0.00354,0.99772,-0.06735,-0.25055,-0.75187,0.09104
0.0101,0.99333,-0.1149,-0.25648,-0.71176,0.37701
0.00809,0.98715,-0.15961,-0.0655,-0.23454,0.72949
0.00765,0.97302,-0.23061,-0.21595,0.55845,0.16224
0.03314,0.95085,-0.30786,0.04602,3.20198,-0.46275
0.04895,0.93287,-0.35687,0.09603,2.02112,-0.44373
0.04345,0.93222,-0.35928,0.0019,1.45526,-0.30849
0.05,0.93617,-0.34798,-0.16074,0.71412,-0.54713
0.05398,0.93515,-0.3501,0.41764,0.3657,-0.27386
0.04769,0.93405,-0.35395,0.47904,0.30576,-0.22225
0.04013,0.93574,-0.3504,0.26808,-0.01763,0.21303
0.03676,0.9379,-0.34496,0.1131,-0.62581,0.47624
0.02893,0.93662,-0.34915,0.06897,-0.97763,0.55149
0.01738,0.93433,-0.35598,-0.1197,-1.81078,0.59282
0.01668,0.93494,-0.35441,-0.48341,-1.56246,0.63288
0.03595,0.9402,-0.33871,-0.53822,-1.45446,0.69874
0.06758,0.94687,-0.31444,-0.19,-1.04813,0.22501
0.09321,0.95234,-0.29044,-0.18556,-0.34512,0.04369
0.10966,0.95232,-0.28469,-0.35112,-0.12182,0.3215
0.1234,0.9192,-0.37395,-0.35674,4.55535,-0.80862
0.0799,0.91809,-0.38824,0.95997,0.65013,1.21075
0.07196,0.93989,-0.33381,0.16124,-1.31486,-0.14365
0.07929,0.95335,-0.29128,1.05986,0.99477,-0.33255
0.07283,0.96265,-0.26076,1.7472,1.48167,-0.20541
0.05804,0.97449,-0.21681,1.49558,1.39293,0.16714
0.04282,0.98852,-0.1449,0.02883,-0.19785,-0.17954
0.03027,0.99663,-0.07623,0.15432,-0.34311,-0.07207
0.02233,0.99936,-0.02779,0.08723,0.21273,-0.07973
0.01527,0.99988,0.0035,-0.51434,0.01706,-0.1406
-0.00187,0.99969,0.02496,-0.46495,-0.451,-0.13467
-0.01946,0.99933,0.03114,-0.29031,-0.64927,0.0601
-0.03487,0.99909,0.02448,0.20134,-1.32705,0.27502
-0.02695,0.99948,0.01769,0.35323,-1.23837,0.15448
-0.01063,0.9999,-0.00924,-0.10442,-0.89977,-0.00327
0.00565,0.9987,-0.05064,-0.23718,-0.71133,-0.04748
0.0137,0.99499,-0.09906,-0.28951,-0.61961,0.18968
0.00995,0.98982,-0.14196,-0.08846,-0.58362,1.0213
0.00522,0.97871,-0.20519,-0.14282,0.31002,0.20481
0.02299,0.95548,-0.29416,0.89598,1.91259,0.10211
0.04827,0.93031,-0.36359,-0.42794,3.99616,-0.61789
0.03582,0.92532,-0.37749,-0.13698,1.2313,-0.27267
0.03542,0.92989,-0.36612,-0.2687,0.51691,-0.64563
0.0483,0.92763,-0.37037,0.07122,0.52306,-0.54774
0.05161,0.92227,-0.38309,0.37792,0.40728,-0.2803
0.04914,0.92126,-0.38583,0.41366,0.18859,0.10158
0.04953,0.92141,-0.38542,0.38701,-0.13655,0.32476
0.04593,0.92074,-0.38747,0.03052,-0.60139,0.49631
0.03387,0.91825,-0.39456,0.06838,-1.73422,0.62878
0.02125,0.91673,-0.39893,-0.12243,-1.71297,0.62487
0.02298,0.91989,-0.39151,-0.26288,-1.45515,0.94369
0.04004,0.92582,-0.37584,-0.34174,-1.10525,0.59809
0.06576,0.93272,-0.35455,-0.27913,-0.68808,0.27981
0.09769,0.9354,-0.33982,-0.38961,0.27927,0.47828
0.13752,0.90558,-0.40126,-1.41103,3.66623,-0.53576
0.13802,0.89476,-0.42468,0.37733,3.76671,0.62348
0.12283,0.91476,-0.38486,0.64183,-1.3699,-0.86398
0.10905,0.9289,-0.35392,0.63555,0.36668,-0.02326
0.09835,0.94332,-0.31699,0.86668,0.87085,-0.19128
0.09284,0.95833,-0.27015,0.64076,0.96141,-0.42809
0.08493,0.97481,-0.20621,0.40001,-0.03451,-0.37313
0.06992,0.98721,-0.14329,0.68699,-0.0689,-0.08891
0.05445,0.99439,-0.09071,0.16178,0.25432,-0.06269
0.04194,0.99765,-0.05408,-0.24097,0.39126,-0.30771
0.02597,0.99919,-0.03076,-0.42209,-0.09411,-0.07461
0.00437,0.99985,-0.01688,0.00618,-0.94015,0.45429
-0.00896,0.9999,-0.01074,0.16463,-1.16952,0.47108
-0.00837,0.99987,-0.01348,0.2265,-1.30281,0.3219
0.00426,0.99942,-0.03384,-0.19562,-0.91797,0.02731
0.0191,0.9973,-0.07085,-0.28929,-0.78786,0.1229
0.0283,0.99292,-0.11533,-0.29495,-0.69762,0.33467
0.02853,0.9873,-0.15631,-0.05802,-0.58642,1.09704
0.02917,0.9754,-0.21848,-0.23013,0.59364,0.07302
0.05186,0.95271,-0.29941,0.60006,1.69325,0.01483
0.07478,0.93027,-0.35917,-0.20921,2.99466,-0.66204
0.07078,0.92279,-0.37876,0.13022,1.34624,-0.3585
0.07161,0.92407,-0.37545,0.0141,0.86124,-0.36726
0.07925,0.92102,-0.38136,0.10776,0.54365,-0.46323
0.07893,0.91696,-0.39109,0.30028,0.45008,-0.37123
0.06932,0.91733,-0.39206,0.32678,0.52806,-0.42134
0.06061,0.92341,-0.37901,0.06994,-0.06809,0.33248
0.05825,0.92788,-0.3683,0.11552,-0.9739,0.48659
0.04392,0.92991,-0.36515,0.10236,-1.21017,0.53536
0.02699,0.93273,-0.35957,-0.22717,-1.57341,0.53266
0.02959,0.93586,-0.35113,-0.39486,-1.16294,0.62283
0.04834,0.93879,-0.34108,-0.36791,-0.96412,0.54536
0.07772,0.94274,-0.32435,-0.04104,-0.08937,0.19072
0.11017,0.94623,-0.30414,-0.59213,-0.06121,0.9379
0.14029,0.93175,-0.33489,-1.31702,0.58736,0.61805
0.11901,0.90747,-0.4029,0.85339,1.653,1.40787
0.07546,0.92249,-0.37858,0.20466,-1.59298,-0.55438
0.07412,0.94026,-0.33228,0.277,-1.42552,-0.58227
0.085,0.94972,-0.30134,0.44462,0.61826,-0.25851
0.07861,0.96091,-0.26546,1.11872,1.34423,-0.16501
0.06649,0.97527,-0.21079,0.46974,0.63274,-0.38807
0.05262,0.98858,-0.1412,0.45309,-0.24763,-0.15785
0.0443,0.99607,-0.07675,0.13642,0.05829,-0.10952
0.03397,0.99894,-0.03099,-0.1762,0.26197,-0.18154
0.01572,0.99987,0.00319,-0.54889,0.27599,-0.11816
-0.01513,0.99978,0.01464,-0.77014,-0.77363,-0.32461
-0.04078,0.99889,0.02351,-0.29065,-1.01127,0.34675
-0.05065,0.9984,0.02491,0.29534,-1.22617,0.10823
-0.04323,0.99902,0.00968,0.1029,-1.03028,0.03765
-0.02673,0.99937,-0.02319,-0.11023,-0.92012,-0.02435
-0.01266,0.99766,-0.06723,-0.18528,-0.73157,0.34309
-0.00786,0.99356,-0.11307,-0.10303,-0.54602,0.79447
-0.00993,0.98237,-0.18668,-0.10487,0.37333,0.29615
0.01214,0.96282,-0.26986,0.08995,1.79632,0.04695
0.03503,0.94289,-0.33127,-0.25091,2.12001,-0.3259
0.03121,0.93383,-0.35636,0.06847,1.45474,-0.29917
0.02391,0.93371,-0.35724,0.14132,0.70211,-0.45677
0.02225,0.93017,-0.36646,0.06562,0.65899,-0.41027
0.01656,0.92457,-0.38064,0.2901,0.5925,-0.31731
0.00808,0.92351,-0.38349,0.02306,0.32416,-0.23784
0.00453,0.92809,-0.37234,0.00385,0.0137,0.21182
0.00895,0.93367,-0.35802,0.21363,-0.29289,0.44951
0.00408,0.936,-0.35197,0.24114,-1.49444,0.67796
-0.00686,0.93576,-0.35258,0.05595,-1.82223,0.28487
0.00202,0.93758,-0.34776,-0.19464,-1.7392,0.34868
0.03368,0.93979,-0.34008,-0.43796,-1.31649,0.60351
0.07086,0.94344,-0.32388,-0.05633,-0.68418,0.18064
0.09959,0.94653,-0.30685,-0.05534,-0.02518,0.02034
0.12278,0.94322,-0.30865,-0.52814,0.10913,0.84678
0.1277,0.91266,-0.38826,-0.43294,2.66873,-0.59778
0.07808,0.90974,-0.40777,0.44051,3.93133,1.14892
0.06595,0.92942,-0.36309,-0.15934,-1.15627,-0.36672
0.07988,0.94609,-0.3139,0.25465,0.62448,-0.35804
0.08521,0.95625,-0.27988,1.1401,1.26992,-0.46243
0.06744,0.96951,-0.23558,1.19683,1.35129,-0.14229
0.0516,0.98432,-0.16868,0.56628,-0.05072,-0.01505
0.04733,0.99456,-0.09283,0.57524,-0.16338,0.03341
0.0431,0.99842,-0.03596,-0.57991,0.37848,-0.25338
0.02681,0.99964,0.00055,-0.80785,0.12814,-0.12169
0.00193,0.9996,0.02823,-0.62675,-0.22897,-0.05185
-0.02876,0.99888,0.03753,0.14444,-0.67488,0.39927
-0.05017,0.99813,0.03491,0.42932,-1.34745,0.20185
-0.04873,0.99838,0.02942,0.50102,-1.32656,0.10674
-0.03278,0.99943,0.0077,-0.02962,-1.08052,0.01558
-0.01695,0.99954,-0.02513,-0.22659,-0.91464,-0.07715
-0.00967,0.99772,-0.06672,-0.20615,-0.7359,0.24929
-0.01374,0.99391,-0.10931,0.01852,-0.41579,0.91922
-0.02051,0.98247,-0.18526,-0.0753,0.87055,0.1831
-0.00124,0.964,-0.26589,0.66425,1.69333,0.54814
0.01197,0.94757,-0.31933,-0.25497,1.8067,-0.41076
0.00288,0.94234,-0.33464,-0.04372,1.5532,-0.40807
0.00389,0.94134,-0.33744,-0.03628,0.81855,-0.40463
0.008,0.9362,-0.35139,0.25429,0.69894,-0.40363
0.00361,0.93167,-0.36328,0.22148,0.44462,-0.23079
-0.00378,0.93146,-0.36382,0.20843,0.34845,-0.20267
-0.00235,0.93541,-0.35357,0.18451,-0.4954,0.5431
-0.00443,0.93737,-0.34831,0.29381,-1.30536,0.61096
-0.01671,0.93732,-0.34807,0.27492,-1.56754,0.58691
-0.02701,0.93751,-0.34689,-0.22539,-1.71945,0.35968
-0.01424,0.93979,-0.34144,-0.51744,-1.51259,0.6553
0.01468,0.94353,-0.33096,-0.52958,-1.34645,0.62923
0.04578,0.94816,-0.31447,-0.05261,-0.33595,0.02309
0.06865,0.95008,-0.30434,-0.01344,0.11857,0.25446
0.09558,0.93831,-0.33233,-0.38728,0.17292,0.88383
0.09413,0.9006,-0.42434,0.62118,4.56703,0.9043
0.05249,0.90885,-0.41382,0.27128,-0.83504,0.60293
0.05075,0.92822,-0.36854,0.0691,-1.68765,-0.4164
0.06111,0.93999,-0.33568,0.4351,0.59303,-0.25769
0.05127,0.95104,-0.30479,1.53651,1.86534,-0.01525
0.03428,0.96635,-0.25493,1.02632,1.50658,-0.15257
0.02142,0.98184,-0.18851,0.3353,-0.0662,-0.13542
0.01718,0.99169,-0.12748,-0.00696,0.08299,-0.15599
0.01045,0.99662,-0.08151,-0.28462,0.31805,-0.19168
-0.00485,0.99896,-0.04521,-0.40418,-0.12009,-0.02116
-0.02599,0.99942,-0.02208,-0.03185,-0.6598,0.19655
-0.04722,0.99874,-0.01663,0.22378,-0.87026,0.35194
-0.05716,0.99815,-0.02042,0.35753,-1.29294,0.22154
-0.04998,0.99816,-0.03436,0.21113,-1.19171,0.11851
-0.03509,0.99722,-0.06577,-0.18813,-0.90246,-0.00834
-0.02398,0.99379,-0.10866,-0.23751,-0.70857,0.24118
-0.02429,0.9876,-0.1551,0.00593,-0.57683,1.00898
-0.03075,0.9789,-0.202,0.07686,-0.36168,0.95715
-0.02989,0.96066,-0.27609,0.83545,1.55926,0.15053
-0.00123,0.93625,-0.35133,-0.29675,3.38699,-0.61087
0.00739,0.91875,-0.39475,-0.08912,2.27483,-0.48162
0.00342,0.92014,-0.39156,-0.23144,0.93285,-0.4725
0.01236,0.92276,-0.38518,-0.03748,0.58484,-0.50403
0.01633,0.92014,-0.39125,0.30496,0.52745,-0.40123
0.01216,0.92035,-0.3909,0.29673,0.34555,-0.15196
0.00483,0.92545,-0.37885,0.35892,-0.33502,0.18526
-0.00173,0.9309,-0.36525,0.35098,-0.57191,0.3483
-0.01256,0.93132,-0.36398,0.14662,-1.76216,0.505
-0.02766,0.92922,-0.3685,0.01963,-1.70103,0.45981
-0.02565,0.93094,-0.36426,-0.34125,-1.54329,0.6962
-0.00478,0.93581,-0.35246,-0.35288,-1.02995,0.45496
0.02299,0.94197,-0.33491,-0.27047,-0.5944,0.2692
0.05046,0.94708,-0.31701,-0.31679,0.46049,0.43478
0.07656,0.93951,-0.33386,-0.70931,2.80053,-0.61459
0.09767,0.90887,-0.40549,0.61742,3.23186,0.75192
0.07569,0.91367,-0.39935,0.0277,-0.6892,0.48109
0.06355,0.92784,-0.36752,0.43749,0.24867,0.17945
0.05105,0.94126,-0.3338,0.63576,0.91767,-0.21114
0.03325,0.95631,-0.29045,0.6863,1.37189,-0.12825
0.01782,0.97122,-0.23749,0.57663,0.36142,-0.30485
0.01005,0.98457,-0.17467,0.54639,-0.11202,0.05762
0.00878,0.9932,-0.11611,0.38213,-0.0947,0.04169
0.00559,0.99789,-0.06473,-0.36149,0.27729,-0.11348
-0.00631,0.9996,-0.02743,-0.44531,-0.07191,-0.13648
-0.02383,0.99971,-0.00321,-0.39019,-0.37175,-0.06138
-0.043,0.99905,0.00594,0.14528,-1.00214,0.36741
-0.05401,0.99854,0.00226,0.30566,-1.27647,0.21116
-0.05128,0.99864,-0.00924,0.29748,-1.22679,0.14988
-0.0368,0.99874,-0.03393,-0.07749,-0.96864,-0.02182
-0.02063,0.99726,-0.07102,-0.15522,-0.79453,0.243
-0.00993,0.99337,-0.11453,-0.13941,-0.69028,0.58087
-0.0055,0.98614,-0.16581,-0.20991,0.68023,0.0691
0.00198,0.96928,-0.24595,0.32338,1.49501,0.23789
0.02782,0.9476,-0.31825,-0.04165,2.1566,-0.2623
0.0342,0.93069,-0.36421,0.0034,1.72993,-0.43219
0.02804,0.92744,-0.37291,-0.00884,0.81446,-0.45534
0.03288,0.92643,-0.37502,-0.07756,0.67721,-0.50934
0.03614,0.92101,-0.38784,0.29192,0.60987,-0.3225
0.0292,0.91839,-0.3946,0.17634,0.39177,-0.19591
0.01803,0.92253,-0.3855,0.14101,0.19452,0.10123
0.01417,0.9291,-0.36955,0.23408,-0.8263,0.43258
0.00646,0.93318,-0.35934,0.21814,-1.49599,0.55192
-0.01108,0.93325,-0.35904,0.12876,-1.65733,0.4709
-0.01757,0.93324,-0.35883,-0.40684,-1.4132,0.65613
-0.00098,0.93467,-0.3555,-0.42203,-1.27319,0.62335
0.02837,0.93848,-0.34416,-0.14478,-0.85167,0.22665
0.05965,0.94361,-0.32563,-0.09407,0.15406,0.30595
0.08476,0.94281,-0.32237,-0.92399,0.88216,0.56267
0.1019,0.90849,-0.40529,0.16026,4.40017,0.18216
0.06623,0.90091,-0.42893,0.5511,-0.35222,0.93776
0.04902,0.91547,-0.39938,0.23554,-1.32479,-0.41389
0.0472,0.92861,-0.36803,0.38168,0.3054,0.01349
0.03866,0.94097,-0.33627,0.71674,1.38001,0.01548
0.02259,0.95565,-0.29361,0.31008,0.46271,-0.34814
0.00703,0.97321,-0.22978,0.31979,0.16212,-0.29531
6e-05,0.98607,-0.16633,0.45152,0.08408,0.05146
0.00011,0.99395,-0.10978,-0.15314,0.39147,-0.18491
-0.00485,0.99785,-0.06533,-0.38045,0.3419,-0.11642
-0.02049,0.99927,-0.03202,-0.40252,-0.1681,0.0303
-0.04237,0.99899,-0.01473,0.2452,-0.9899,0.43952
-0.06136,0.99806,-0.01049,0.31894,-1.19969,0.35232
-0.06562,0.99773,-0.01523,0.25605,-1.33241,0.16971
-0.05315,0.99799,-0.03455,-0.1049,-0.8542,-0.11285
-0.03536,0.99687,-0.07064,-0.18235,-0.80673,0.01139
-0.02236,0.99308,-0.11525,-0.19381,-0.68563,0.37298
-0.02064,0.98707,-0.15896,-0.07201,0.0397,0.49829
-0.02179,0.97466,-0.22263,-0.0999,0.92555,0.20542
-0.00289,0.95366,-0.30088,0.07688,2.72116,-0.47227
0.01712,0.93305,-0.35933,-0.04667,1.73768,-0.38241
0.00939,0.92585,-0.37778,0.07684,1.38832,-0.27897
0.00276,0.92885,-0.37045,0.00319,0.65732,-0.52836
0.00058,0.92869,-0.37086,0.24036,0.56629,-0.3137
-0.00967,0.9256,-0.37838,0.29336,0.50043,-0.28504
-0.01977,0.92688,-0.37483,0.06802,0.12686,0.07905
-0.02267,0.93321,-0.35862,0.17785,-0.31199,0.43953
-0.02023,0.93926,-0.3426,0.15571,-0.79001,0.48155
-0.03056,0.94111,-0.33671,0.13453,-1.58602,0.51252
-0.04671,0.94039,-0.33687,-0.03109,-1.64806,0.3917
-0.04648,0.94048,-0.33664,-0.33771,-1.46569,0.49416
-0.02216,0.94152,-0.33622,-0.22417,-1.07246,0.41806
0.01788,0.94405,-0.3293,0.18432,-0.37029,0.06804
0.06129,0.94691,-0.31559,0.12778,-0.02403,0.16668
0.10306,0.94043,-0.32399,-1.32089,1.14583,-0.19247
0.11879,0.90788,-0.40204,0.97952,3.23415,1.32352
0.06652,0.9113,-0.40634,0.76612,0.50074,1.36302
0.05402,0.92915,-0.36574,0.0451,-0.65263,-0.25193
0.05817,0.94436,-0.32372,0.63934,0.91855,-0.44201
0.04631,0.95647,-0.28813,1.28006,1.53554,-0.11998
0.02239,0.97107,-0.23775,0.67532,0.51143,-0.33914
0.00783,0.98563,-0.16874,0.60549,-0.11968,4e-05
0.00715,0.99499,-0.09968,0.56903,-0.19438,0.08411
0.00738,0.99903,-0.04327,-0.45622,0.35637,-0.11366
-0.00383,0.99998,-0.00536,-0.75694,0.37596,-0.13762
-0.01996,0.99962,0.01873,-0.32817,-0.41187,0.02097
-0.04293,0.99865,0.02927,0.20327,-0.92507,0.24656
-0.0584,0.99794,0.02646,0.41201,-1.34541,0.09882
-0.05756,0.99817,0.01824,0.26674,-1.26571,0.18483
-0.04199,0.99911,-0.00236,-0.16532,-0.98897,0.06935
-0.02528,0.99893,-0.03873,-0.33023,-0.73039,0.19798
-0.01434,0.99625,-0.08527,-0.2517,-0.62749,0.48096
-0.01463,0.99098,-0.13317,0.0314,-0.24849,0.74662
-0.01838,0.9776,-0.20967,0.30431,1.59244,0.41896
0.00119,0.95583,-0.29391,0.28475,1.61421,0.5032
0.01665,0.93436,-0.35594,-0.19332,2.08006,-0.43859
0.00903,0.92538,-0.37893,0.09589,1.27335,-0.32011
0.00943,0.92516,-0.37946,0.11316,0.61159,-0.44299
0.01608,0.92212,-0.38656,0.23008,0.58671,-0.39837
0.01275,0.91807,-0.39621,0.26534,0.41501,-0.24373
0.00218,0.91907,-0.39408,0.19405,0.29679,-0.05065
-0.00418,0.9251,-0.3797,0.18008,-0.34642,0.39468
-0.0059,0.92995,-0.36763,0.14999,-1.28623,0.55882
-0.01396,0.93136,-0.36382,0.08189,-1.59544,0.46419
-0.02184,0.93146,-0.36317,-0.24955,-1.61761,0.55221
-0.01119,0.933,-0.3597,-0.32517,-1.33823,0.69196
0.01658,0.93564,-0.35257,-0.20663,-1.14058,0.56106
0.04815,0.93929,-0.33973,0.04425,-0.03675,0.14466
0.07595,0.9421,-0.32662,-0.37495,0.04387,0.70803
0.10255,0.93309,-0.34471,-0.95163,0.61308,0.5441
0.10406,0.89886,-0.42569,0.82909,1.9507,1.4518
0.06105,0.90381,-0.42356,-0.27885,-1.35945,-0.30927
0.05937,0.91954,-0.38848,-0.18885,-1.38637,-0.53913
0.07159,0.93036,-0.35959,0.97467,1.14977,-0.42729
0.06581,0.94249,-0.32769,0.98009,1.56624,-0.10314
0.04795,0.95967,-0.27699,0.59809,0.89685,-0.53942
0.03368,0.97668,-0.21204,0.77415,-0.05636,0.02077
0.02972,0.98859,-0.14766,0.29148,-0.09734,0.0739
0.02243,0.9957,-0.08985,-0.08805,0.17886,-0.11679
-0.00078,0.9988,-0.04891,-0.67173,0.36898,-0.12943
-0.02523,0.99946,-0.02098,-0.31354,-0.46452,0.04207
-0.05523,0.99845,-0.00688,-0.01448,-0.696,0.02604
-0.07663,0.99704,-0.00577,0.53842,-1.29357,0.27877
-0.08063,0.99666,-0.01262,0.35097,-1.2372,0.11563
-0.06825,0.99715,-0.03215,0.04223,-1.10437,0.05121
-0.05429,0.9966,-0.06199,-0.24385,-0.93478,0.16679
-0.04733,0.99376,-0.10099,-0.15465,-0.72417,0.64778
-0.05111,0.98827,-0.14393,0.04647,-0.22749,0.60682
-0.05769,0.97582,-0.21084,0.22173,1.21289,0.29861
-0.0432,0.95631,-0.28914,0.25485,1.43601,0.31951
-0.02251,0.93521,-0.35337,-0.27075,2.933,-0.49064
-0.0325,0.92522,-0.37802,0.39354,1.39864,-0.27032
-0.04607,0.92547,-0.37601,0.16361,0.73916,-0.45929
-0.05294,0.92268,-0.38192,0.01618,0.74396,-0.53544
-0.06078,0.91708,-0.39403,-0.01384,0.60147,-0.2376
-0.0679,0.91824,-0.39016,0.06025,0.17075,0.11541
-0.06975,0.92542,-0.37246,0.16336,-0.40284,0.40678
-0.06685,0.9322,-0.35571,0.38806,-1.52206,0.63864
-0.07284,0.93512,-0.34677,0.32885,-1.7843,0.58712
-0.08661,0.93576,-0.34183,0.10654,-1.90612,0.25856
-0.08144,0.93908,-0.3339,-0.35495,-1.46464,0.75784
-0.05315,0.94344,-0.32727,-0.30911,-1.26732,0.69912
-0.01961,0.94922,-0.31399,-0.10853,-0.65119,0.23003
0.00934,0.95437,-0.29849,-0.22896,0.4548,0.0961
0.02821,0.95435,-0.29735,-0.78796,0.85008,0.31336
0.04798,0.93019,-0.36393,-0.69737,2.07764,-0.60365
0.02755,0.90753,-0.41907,0.92931,1.58259,1.46915
0.01822,0.91931,-0.39311,-0.05439,-0.72645,-0.21787
0.02166,0.93442,-0.35552,0.14674,0.25343,-0.00291
0.01756,0.94731,-0.31983,0.84662,1.32749,-0.07422
-0.00117,0.96106,-0.27635,0.60647,1.18485,-0.44331
-0.01785,0.97662,-0.21422,0.48589,0.71588,-0.4564
-0.01891,0.98836,-0.15095,0.44169,-0.08565,-0.10141
-0.01442,0.99494,-0.09941,-0.20582,0.13726,-0.09449
-0.02608,0.99766,-0.06322,-0.35805,0.18426,-0.10173
-0.04791,0.99808,-0.03924,-0.1494,-0.49472,0.02505
-0.06858,0.9973,-0.02629,0.33295,-0.8891,0.25501
-0.08186,0.99635,-0.02424,0.4107,-1.05162,0.30613
-0.0812,0.99617,-0.03234,0.18965,-1.25908,0.18163
-0.06929,0.9963,-0.05076,-0.06046,-1.06471,0.06156
-0.05568,0.9951,-0.08177,-0.17005,-0.88305,0.16157
-0.04717,0.99142,-0.12193,-0.10215,-0.74931,0.83649
-0.04754,0.98583,-0.16088,-0.0272,-0.56177,0.92311
-0.04751,0.97632,-0.21104,-0.18052,-0.04055,0.33919
-0.02911,0.95654,-0.29015,0.16763,1.73426,-0.1842
0.00969,0.93133,-0.36404,0.12771,3.20084,-0.73001
0.01208,0.91698,-0.39875,0.15964,2.06632,-0.43524
0.00598,0.91758,-0.3975,0.09755,0.88459,-0.5955
0.00924,0.91647,-0.4,0.29993,0.59401,-0.47522
0.01266,0.91225,-0.40943,0.41256,0.58186,-0.47806
0.00941,0.91249,-0.40899,0.23856,0.32474,-0.04585
0.00554,0.91856,-0.39524,0.23262,-0.40349,0.47857
-0.00047,0.92423,-0.38184,0.23583,-0.92728,0.58979
-0.01871,0.92687,-0.37491,-0.01634,-1.80817,0.60149
-0.03352,0.92783,-0.37149,-0.35015,-1.58637,0.50047
-0.02382,0.93222,-0.36111,-0.51215,-1.55524,0.6056
0.00543,0.93915,-0.34347,-0.33462,-1.15936,0.5395
0.03258,0.9452,-0.32486,-0.15585,-0.31712,0.0101
0.04886,0.9488,-0.31206,0.14386,0.05101,0.11176
0.06929,0.9488,-0.30818,-0.99626,0.85665,0.24035
0.08945,0.92762,-0.36265,-0.26206,2.43618,-0.83388
0.06734,0.91019,-0.40869,0.89065,3.92925,1.09553
0.05775,0.9241,-0.37776,0.04271,-0.68498,-0.47881
0.05656,0.93798,-0.34205,0.33913,0.35901,-0.14112
0.05094,0.94766,-0.3152,1.14137,1.14438,-0.24138
0.03368,0.96091,-0.27481,0.52679,0.82852,-0.33284
0.02023,0.97681,-0.21313,0.37422,0.3348,-0.29595
0.01618,0.98885,-0.14802,0.41058,-0.19832,0.01988
0.01582,0.9954,-0.09449,-0.39114,0.27132,-0.11168
0.0071,0.9985,-0.05428,-0.52869,0.22594,-0.08506
-0.00456,0.99969,-0.02433,-0.43628,-0.06971,0.01682
-0.01877,0.99979,-0.00872,0.20821,-0.93356,0.38773
-0.03195,0.99947,-0.00648,0.36466,-1.33068,0.2473
-0.03274,0.99941,-0.01035,0.31346,-1.3875,0.18133
-0.01982,0.99937,-0.02933,-0.1914,-0.88434,-0.07056
-0.00362,0.99789,-0.06489,-0.26402,-0.75588,0.18941
0.00877,0.99375,-0.11129,-0.24718,-0.65572,0.48647
0.01159,0.98739,-0.15788,-0.22089,0.06466,0.25644
0.01137,0.97379,-0.22716,0.36929,1.23406,0.4332
0.02805,0.95304,-0.30155,0.31796,1.46945,-0.1188
0.03903,0.9335,-0.35644,-0.03237,1.95518,-0.50683
0.03946,0.92476,-0.37849,0.07762,1.1423,-0.43104
0.0449,0.92339,-0.38123,-0.02563,0.8265,-0.38137
0.05178,0.92012,-0.38819,0.28032,0.46103,-0.20054
0.05771,0.91774,-0.39296,0.19107,0.2921,-0.14892
0.04661,0.92017,-0.38873,0.11953,0.18987,-0.09452
0.03321,0.92654,-0.37472,0.24491,-0.74376,0.41603
0.01907,0.93231,-0.36115,0.27272,-1.29094,0.46567
0.00177,0.93575,-0.35266,0.19597,-1.50299,0.46218
-0.01152,0.93652,-0.35042,-0.23925,-1.53712,0.49863
-0.00734,0.9371,-0.34897,-0.33551,-1.26262,0.60663
0.01552,0.93965,-0.34179,-0.34715,-1.18493,0.49555
0.04514,0.94364,-0.32789,-0.07473,-0.31503,0.07332
0.07308,0.94604,-0.31571,-0.26074,0.03834,0.47088
0.10005,0.93211,-0.34808,-0.89273,0.58582,0.64958
0.10645,0.8912,-0.44094,1.04897,2.91665,1.31436
0.07596,0.89562,-0.43828,0.11755,-1.28884,0.22473
0.08011,0.90736,-0.41265,0.14088,-1.42306,-0.39232
0.09008,0.91701,-0.38855,0.77758,0.88769,-0.29403
0.08448,0.92838,-0.36191,0.7158,1.57343,0.15832
0.07212,0.94571,-0.31691,0.04835,0.64236,-0.31668
0.06313,0.96457,-0.25615,0.34065,0.09899,-0.04755
0.06064,0.97811,-0.19906,0.47061,-0.11237,0.15465
0.06285,0.98753,-0.14435,0.09175,0.2488,0.09275
0.05591,0.99352,-0.0989,-0.49826,0.5179,-0.07247
0.04602,0.99677,-0.06584,-0.47133,-0.38396,0.16116
0.03333,0.9982,-0.04993,-0.14293,-0.69305,0.17647
0.02004,0.99868,-0.04727,0.28654,-1.30822,0.22028
0.017,0.99841,-0.05373,0.07658,-1.17962,0.06545
0.02498,0.997,-0.07319,-0.0669,-1.0281,0.03863
0.03571,0.99368,-0.10643,-0.24836,-0.86464,0.08529
0.04207,0.9879,-0.1493,-0.32053,-0.7051,0.26812
0.03652,0.98035,-0.19383,-0.20002,-0.67068,0.59219
0.02719,0.97209,-0.23301,0.1853,-0.46814,0.88787
0.02009,0.95588,-0.29305,0.91355,1.57785,-0.19442
0.0423,0.92862,-0.36861,0.28445,2.57478,-0.32273
0.05507,0.9059,-0.41989,-0.1815,2.27284,-0.35653
0.04781,0.90357,-0.42576,-0.25893,1.23805,-0.39579
0.05444,0.90765,-0.41619,-0.07512,0.74291,-0.54111
0.05764,0.90635,-0.41857,0.50715,0.49801,-0.39426
0.04677,0.90507,-0.42268,0.25984,0.14936,-0.03941
0.03443,0.9084,-0.41668,0.17464,0.02736,0.08876
0.02875,0.91548,-0.40133,0.16869,-0.59468,0.46879
0.02165,0.92232,-0.38582,0.17299,-1.44317,0.43809
0.00736,0.9256,-0.37842,0.10301,-1.62774,0.43405
-0.00354,0.92637,-0.37661,-0.20368,-1.45336,0.69159
7e-05,0.92717,-0.37465,-0.24993,-1.15383,0.61113
0.01486,0.93107,-0.36454,-0.19772,-1.0285,0.45565
0.03761,0.93727,-0.34657,0.11115,-0.35673,0.01912
0.06388,0.94103,-0.33225,-0.34519,-0.04825,0.70995
0.09176,0.92666,-0.36452,-0.99225,0.48,0.54165
0.09474,0.87783,-0.46951,0.72224,3.86409,1.45395
0.06036,0.87701,-0.47667,0.43918,-1.25564,0.04051
0.08251,0.89063,-0.44719,0.16421,-1.70294,-0.49512
0.10667,0.89315,-0.43692,0.91749,0.6114,-0.08195
0.10296,0.89505,-0.43392,0.99575,1.52918,0.5725
0.0823,0.9078,-0.41125,0.0573,1.10491,0.25982
0.07037,0.92989,-0.36105,0.003,0.20817,-0.08115
0.07222,0.94832,-0.309,0.25431,0.21825,0.11945
0.0862,0.95956,-0.26798,0.22604,-0.02267,0.22796
0.09691,0.96843,-0.22969,-0.42521,-0.16693,0.49253
0.08096,0.97684,-0.19806,-0.34084,-0.0006,0.37778
0.0549,0.98157,-0.18305,-0.92125,-0.68723,0.10578
0.03639,0.98453,-0.1714,-0.29385,-0.89772,0.27466
0.03224,0.98435,-0.17323,0.0737,-1.00706,0.14798
0.03964,0.98148,-0.18744,0.23634,-0.97086,0.22369
0.05073,0.97562,-0.21352,0.13564,-0.9943,0.33186
0.06066,0.96802,-0.24343,-0.10879,-0.93433,0.45533
0.07251,0.95987,-0.27091,-0.5404,-0.38124,0.61767
0.09165,0.94544,-0.31263,-0.09209,0.83712,0.59454
0.11747,0.91843,-0.37774,-0.01853,1.81996,-0.07615
0.13837,0.89855,-0.41649,-0.19939,2.35504,-0.56341
0.16061,0.88771,-0.43148,-0.79129,1.2067,-0.23131
0.19842,0.8776,-0.43639,-0.40136,0.7575,0.04814
0.23105,0.8658,-0.44385,-0.00558,0.628,0.07784
0.24894,0.8571,-0.45102,0.07748,0.49583,-0.05648
0.24983,0.85471,-0.45503,-0.02208,0.35693,-0.01853
0.23881,0.85967,-0.45159,-0.02739,0.23966,0.0131
0.22705,0.87036,-0.43695,-0.11126,-0.23781,0.03404
0.22922,0.88352,-0.40846,-0.43404,-0.49516,-0.07332
0.24648,0.89578,-0.36989,-0.59792,-0.65634,-0.07583
0.27602,0.9027,-0.33009,-0.42951,-0.85681,0.04433
0.30609,0.90378,-0.29914,-0.10518,-0.89489,0.21127
0.32692,0.90247,-0.28048,-0.01801,-0.86944,0.28018
0.34171,0.90136,-0.26606,0.11356,-0.61037,0.48992
0.35639,0.90123,-0.24653,-0.28806,-0.58682,0.3574
0.37707,0.89741,-0.22909,-0.54951,-0.48901,0.37777
0.40177,0.87923,-0.256,-1.25376,2.00152,-0.216
0.41887,0.85276,-0.31201,0.1347,1.84094,0.73978
0.41961,0.8514,-0.31472,0.34069,0.52894,0.35804
0.44741,0.84469,-0.29382,-0.17538,0.24786,0.11369
0.45449,0.84445,-0.28344,-0.17497,1.07954,0.38293
0.44,0.85447,-0.27618,-0.35291,1.08463,0.44624
0.42776,0.86705,-0.25544,-0.12216,0.58692,0.17663
0.42541,0.87868,-0.21666,0.07021,0.49209,0.20271
0.43342,0.88508,-0.16963,0.04622,0.3368,0.11271
0.44588,0.88612,-0.1264,-0.15446,-0.14233,0.19946
0.45154,0.88767,-0.0903,-0.46131,0.01159,0.22271
0.44298,0.89401,-0.0672,-0.55055,0.22626,0.13733
0.43639,0.89831,-0.05108,-0.43283,-0.22517,0.12917
0.43527,0.89948,-0.0384,-0.30849,-0.7625,0.12156
0.43512,0.89969,-0.03507,-0.07329,-0.97133,0.18452
0.43582,0.89895,-0.04413,-0.13998,-0.92518,0.05481
0.43836,0.89681,-0.05975,-0.18925,-0.96863,0.09688
0.44105,0.89462,-0.07165,-0.34536,-1.03846,0.09959
0.44299,0.89279,-0.08183,-0.37589,-0.95988,0.06549
0.44775,0.88928,-0.09331,-0.40017,-0.74519,-0.02831
0.45995,0.88124,-0.10892,-0.41051,-0.49136,-0.03201
0.48396,0.86591,-0.12642,-0.41747,0.65474,-0.27582
0.52177,0.84119,-0.14198,0.20456,1.55628,-0.73854
0.54724,0.82358,-0.14913,0.56425,1.95968,-0.9946
0.55268,0.81621,-0.16834,0.10392,1.49793,-1.04473
0.54994,0.81372,-0.18823,0.17084,1.0186,-0.95284
0.54848,0.81354,-0.1932,0.29593,0.57802,-1.25731
0.54277,0.81701,-0.19467,0.31439,0.39526,-1.19696
0.52352,0.82765,-0.2023,0.11122,0.16995,-0.80051
0.4985,0.84259,-0.20383,-0.41039,0.16871,-0.79322
0.47518,0.8591,-0.19013,-0.51329,-0.12952,-0.46473
0.45476,0.87594,-0.16102,-0.4382,-0.2788,-0.38775
0.43534,0.89171,-0.12382,-0.40719,-0.51702,-0.13074
0.41747,0.90451,-0.08704,-0.40424,-0.78804,-0.00021
0.40112,0.91444,-0.05394,-0.58938,-0.99781,0.11328
0.38554,0.92242,-0.02224,-0.77257,-0.97691,0.16099
0.3719,0.92825,0.00649,-1.0969,-0.82367,0.24897
0.36751,0.92958,0.02875,-1.10126,-0.41574,0.4338
0.36296,0.93103,0.03805,-0.9895,-0.09366,0.34238
0.35328,0.93441,0.04542,-0.56678,0.51451,0.53002
0.34068,0.93805,0.06324,0.60303,0.87245,-0.14289
0.33146,0.93965,0.08477,0.81634,0.66806,-0.20414
0.32053,0.9423,0.09661,0.21112,-0.3736,-0.2622
0.30302,0.94718,0.10499,-0.53926,0.11779,-0.15974
0.27489,0.95238,0.13195,-0.33101,0.2438,-0.359
0.24642,0.95344,0.17385,0.98939,1.18666,-0.6392
0.22617,0.94812,0.22343,1.24225,1.04058,-0.64401
0.22957,0.93292,0.27742,0.82603,0.07718,-0.48268
0.24091,0.91144,0.33352,-0.20079,0.11949,-0.33906
0.24004,0.89381,0.3788,-0.44349,0.50361,-0.43739
0.2307,0.88307,0.40862,-0.77577,1.071,-0.63142
0.21655,0.8787,0.42542,-0.81691,0.21711,-0.61015
0.18752,0.88395,0.42834,0.1137,-0.63303,-0.32728
0.15272,0.89575,0.41751,-0.10716,-0.77529,-0.49658
0.14152,0.90215,0.40755,0.59567,-1.23656,-0.19124
0.15445,0.90742,0.39081,-0.01783,-1.22003,-0.30301
0.17681,0.91521,0.36213,-0.31745,-1.14163,-0.36428
0.19298,0.92694,0.32179,-0.51932,-0.6649,0.06244
0.19835,0.94056,0.27567,-0.53876,-0.38786,0.12183
0.20214,0.95581,0.21348,-0.45324,0.13254,-0.1379
0.20878,0.96972,0.12673,0.05383,2.29453,-0.43589
0.21017,0.97589,0.05887,0.34141,2.12962,-1.19848
0.19178,0.98124,0.01963,0.23176,1.46691,-0.90505
0.1935,0.98107,-0.00771,0.16009,1.23039,-0.9686
0.20976,0.97721,-0.03254,0.20183,0.73425,-0.94872
0.22862,0.97248,-0.04489,0.16004,0.72974,-0.84003
0.24064,0.96896,-0.05671,0.19825,-0.6143,-0.59232
0.22481,0.97262,-0.05893,-0.31506,-0.34544,-0.41902
0.20882,0.97675,-0.0484,-0.23175,-0.43095,-0.31363
0.1963,0.98014,-0.02814,-0.02585,-1.14377,-0.02916
0.17872,0.98383,-0.01145,-0.19294,-1.36385,-0.14047
0.1605,0.98703,-0.00432,-0.38278,-1.47236,-0.09209
0.15378,0.9881,0.00136,-0.41504,-1.27366,0.08486
0.15904,0.9872,0.01167,-0.34029,-1.06481,0.18315
0.17502,0.98408,0.03103,-0.16379,-0.67522,0.2765
0.20073,0.97846,0.04828,-0.46226,1.00564,-0.23692
0.23779,0.97115,0.01786,-0.55795,2.31515,-0.45656
0.24285,0.96996,-0.01437,-0.17289,3.08189,-0.08417
0.20791,0.97813,-0.00645,-0.26503,-0.75379,-0.00064
0.17293,0.98493,0.00285,0.22579,-0.38643,0.05959
0.15013,0.9881,0.03351,0.13277,0.90802,-0.48297
0.13065,0.98818,0.08015,0.70171,0.96876,-0.95845
0.11336,0.98516,0.12884,0.77282,0.26714,-0.74837
0.09855,0.97873,0.17993,0.87159,0.05783,-0.60355
0.0926,0.96819,0.23247,0.56864,-0.17444,-0.27138
0.09568,0.95457,0.28219,-0.22114,0.29135,-0.26529
0.10014,0.94151,0.32175,-0.62573,0.74426,-0.40044
0.09917,0.93389,0.34353,-0.64191,0.09588,-0.36666
0.0865,0.9298,0.35775,-0.06741,-0.65166,-0.39465
0.05527,0.93107,0.36064,-0.29245,-0.8962,-0.55183
0.03423,0.93461,0.35402,0.39733,-1.24861,-0.12009
0.03244,0.93885,0.34279,0.2387,-1.15826,-0.17198
0.04681,0.94512,0.32334,-0.023,-1.12616,-0.21706
0.06401,0.95409,0.29259,-0.27751,-0.90621,-0.0471
0.07677,0.96406,0.25435,-0.24839,-0.62681,0.44257
0.08607,0.97396,0.20975,-0.32494,-0.3346,0.21565
0.10064,0.98549,0.13668,0.07172,1.2061,-0.12493
0.11924,0.99101,0.06064,-0.2064,2.26702,-0.44936
0.13111,0.99134,0.00737,-0.11403,3.01598,-1.29297
0.12619,0.99184,-0.01832,0.29671,1.25589,-0.77756
0.12019,0.99201,-0.0384,0.3782,0.82676,-0.80189
0.11939,0.99099,-0.06077,0.36223,0.72329,-0.66951
0.11492,0.99074,-0.07226,-0.11784,0.41606,-0.56835
0.10993,0.9915,-0.06958,-0.01844,-0.15648,-0.26625
0.10833,0.99225,-0.06092,0.05767,-0.32341,-0.22114
0.10604,0.99315,-0.04916,0.09679,-1.17085,0.01077
0.09357,0.99492,-0.03704,-0.07805,-1.60274,0.10546
0.07676,0.99654,-0.03181,-0.15403,-1.58463,-0.00759
0.07407,0.9969,-0.02637,-0.35467,-1.58782,0.22423
0.08392,0.99636,-0.01466,-0.30518,-1.39996,0.23045
0.09783,0.99519,0.00581,-0.19446,-1.21328,0.14034
0.11176,0.99345,0.02388,-0.24024,0.11988,0.03663
0.13006,0.99138,0.01555,-0.46266,2.15432,-0.47956
0.15949,0.98558,-0.05646,-0.49209,2.16012,-0.40754
0.15881,0.98513,-0.06553,-0.10895,-0.53066,0.16106
0.13958,0.98916,-0.04552,-0.02468,-0.87694,-0.38487
0.11636,0.99289,-0.02499,0.33217,0.08717,-0.01171
0.09472,0.99542,0.01265,0.48351,1.49928,-0.19528
0.0704,0.99499,0.07099,0.35832,0.93629,-1.00536
0.05869,0.98857,0.13886,0.80215,0.24022,-0.73909
0.05497,0.97824,0.20006,0.97,-0.03506,-0.254
0.06235,0.96355,0.26016,-0.3413,0.39419,-0.4261
0.05981,0.95022,0.30577,-0.58717,0.69418,-0.49086
0.04829,0.94141,0.33379,-0.52438,0.3159,-0.46503
0.02716,0.9369,0.34854,0.04594,-0.77711,-0.15357
0.00495,0.93651,0.35061,0.18746,-1.01823,-0.04061
-0.00576,0.93978,0.34173,0.30049,-1.28327,-0.14216
-0.0023,0.94642,0.32294,-0.10491,-0.97199,-0.27531
0.01786,0.95495,0.29624,-0.20733,-0.88189,-0.22836
0.03935,0.96545,0.25762,-0.29907,-0.79458,-0.08713
0.05479,0.97596,0.21093,-0.21606,-0.66002,0.59797
0.06023,0.98432,0.16579,-0.1803,-0.35451,0.54291
0.0717,0.99343,0.08916,0.06901,1.14628,-0.22008
0.10073,0.9949,0.00465,-0.29693,3.33814,-1.16057
0.10272,0.9936,-0.04693,0.04587,1.68775,-0.69996
0.09281,0.99411,-0.05588,0.0863,0.76718,-1.10422
0.09253,0.99408,-0.05704,0.23015,0.42164,-0.79384
0.0891,0.99336,-0.07274,0.57336,0.4467,-0.68802
0.08847,0.99203,-0.08968,0.18566,0.38295,-0.42825
0.09185,0.99121,-0.09518,0.01827,-0.14154,-0.25126
0.09695,0.99131,-0.0889,-0.0429,-0.13374,-0.01168
0.10098,0.9918,-0.07833,0.053,-1.55728,0.20799
0.08885,0.99329,-0.07408,0.03441,-1.74098,0.14596
0.06829,0.99517,-0.07053,-0.06628,-1.70803,0.15876
0.06074,0.99661,-0.05552,-0.34634,-1.36543,0.29096
0.06275,0.99734,-0.03706,-0.40382,-0.95556,0.05686
0.07342,0.99712,-0.0191,-0.32415,-0.60456,0.00282
0.09411,0.99555,-0.00374,-0.65003,0.34958,0.48235
0.11956,0.99164,-0.04851,-1.31312,3.73932,-0.60936
0.11054,0.98834,-0.10471,0.14183,3.81798,0.83736
0.08117,0.99409,-0.07205,0.24558,-1.76132,-0.83954
0.07389,0.99657,-0.03734,0.50049,-0.18877,-0.2739
0.07094,0.99747,-0.00353,0.93153,0.40833,-0.35553
0.05587,0.99766,0.03941,0.85977,1.58036,-0.69983
0.04284,0.99403,0.10032,0.57588,0.34903,-0.68149
0.03755,0.98515,0.16753,0.64058,-0.03635,-0.52219
0.03807,0.97418,0.22254,0.11797,-0.28343,-0.21111
0.03925,0.96264,0.26792,-0.53929,0.10512,-0.33515
0.03043,0.95307,0.30123,-0.64295,0.20923,-0.43143
0.01705,0.94622,0.32306,-0.1715,-0.30011,-0.22987
-0.00177,0.94384,0.33039,0.25596,-1.06426,-0.01716
-0.01169,0.94589,0.32427,0.17331,-1.16229,-0.00931
0.00135,0.95009,0.31196,-0.06091,-1.09933,-0.1934
0.02066,0.95949,0.28097,-0.38762,-0.51145,-0.06694
0.03382,0.97213,0.23199,-0.39627,-0.39448,0.33977
0.03603,0.98415,0.17361,-0.20587,0.10679,0.53699
0.03833,0.99625,0.07751,0.18959,1.29675,0.19718
0.04897,0.99876,-0.00878,-0.01754,1.57216,-0.40463
0.05275,0.9963,-0.06783,0.94393,1.1495,0.14861
0.06333,0.99455,-0.08286,0.70166,1.02651,-1.02339
0.06213,0.99446,-0.08478,0.43984,1.10576,-1.13859
0.0522,0.99405,-0.09554,0.2766,0.68525,-0.88306
0.04225,0.99395,-0.10139,0.24123,-0.03744,-0.42372
0.04836,0.99413,-0.09681,0.18774,-0.36348,-0.41797
0.054,0.99487,-0.08554,0.11921,-0.47136,0.09381
0.05694,0.99528,-0.07857,0.20507,-1.42271,0.44864
0.04988,0.99505,-0.08591,0.0831,-1.56784,0.37915
0.04972,0.99442,-0.09302,-0.346,-1.65882,0.16231
0.06467,0.99383,-0.09014,-0.77396,-1.4083,0.58332
0.0877,0.99295,-0.07977,-0.66169,-1.2545,0.49705
0.10857,0.99255,-0.05525,-0.29744,-0.10473,-0.09665
0.11359,0.99315,-0.02738,-0.32537,0.02675,0.36206
0.11922,0.99228,-0.03414,-0.73267,0.3435,0.40483
0.12279,0.98374,-0.13104,0.92961,2.71391,0.93393
0.10036,0.98456,-0.14344,0.4032,-1.155,-0.30545
0.10287,0.99112,-0.08424,0.03141,-1.59659,-0.91956
0.11548,0.9921,-0.04903,0.83731,0.67227,-0.5311
0.11327,0.99311,-0.02995,1.3179,1.86803,0.09758
0.09401,0.99554,0.00741,0.67246,1.38962,-0.24102
0.08776,0.99302,0.07875,0.32722,-0.0332,-0.3846
0.0877,0.98496,0.14885,0.24861,-0.08488,-0.25601
0.09233,0.97453,0.20435,0.00105,0.02824,-0.32536
0.08954,0.96547,0.24466,-0.51548,0.08556,-0.29554
0.07821,0.95766,0.27708,-0.50808,-0.35475,-0.14473
0.05713,0.9534,0.29625,-0.32579,-0.54628,-0.14056
0.03056,0.95365,0.29936,0.00661,-1.04815,-0.46041
0.01685,0.95575,0.29371,-0.00996,-1.08584,-0.14363
0.02495,0.9606,0.27679,-0.08717,-0.8297,-0.22659
0.03756,0.96913,0.24367,-0.24752,-0.81557,-0.1319
0.04614,0.97834,0.20182,-0.1401,-0.58759,0.45844
0.04863,0.98711,0.15249,-0.06253,0.19095,-0.24058
0.0577,0.99587,0.07003,0.28925,1.3685,0.26924
0.07556,0.99713,-0.00382,0.06917,1.87489,-0.10371
0.08465,0.9952,-0.04919,-0.72788,2.15794,-0.94028
0.07389,0.99462,-0.07261,0.13446,1.08662,-0.6124
0.06534,0.99395,-0.08833,0.27718,0.725,-0.71933
0.06348,0.99196,-0.10945,0.25997,0.7406,-0.65053
0.06084,0.99064,-0.12217,0.00475,0.52986,-0.62005
0.06506,0.99134,-0.1141,0.21688,-0.50438,-0.12274
0.0727,0.99261,-0.09715,0.29617,-0.83879,0.14616
0.06836,0.99446,-0.07979,0.36109,-1.67058,0.15825
0.0505,0.99642,-0.06784,0.01037,-1.58399,0.02112
0.04543,0.99717,-0.0599,-0.21,-1.54797,0.08074
0.05803,0.99685,-0.05415,-0.57393,-1.3998,0.39004
0.07832,0.99584,-0.04668,-0.43971,-0.80005,0.19173
0.1026,0.99418,-0.03275,-0.48898,-0.22566,0.25014
0.12625,0.99133,-0.03644,-0.86537,1.08831,0.07095
0.1418,0.98308,-0.11597,-0.82894,3.46312,-0.12054
0.12582,0.98399,-0.1262,0.6411,-0.05595,0.38938
0.10742,0.98846,-0.10681,0.81729,-0.9129,-0.30714
0.08541,0.99344,-0.07609,0.35511,0.32448,-0.3694
0.07172,0.99685,-0.03396,0.35956,0.88084,-0.24564
0.05895,0.99805,0.02072,0.47723,0.95436,-0.68467
0.05611,0.99445,0.08905,0.52545,-0.04092,-0.39166
0.0586,0.9868,0.151,0.55645,-0.01777,-0.19189
0.06245,0.97727,0.20259,-0.40163,0.44413,-0.35852
0.05637,0.96879,0.24138,-0.49068,0.24318,-0.37913
0.037,0.96275,0.26783,-0.3721,-0.11727,-0.34724
0.00792,0.95875,0.28415,0.39142,-0.88149,-0.00167
-0.00866,0.95829,0.28565,0.41716,-1.35095,-0.10996
-0.00493,0.96089,0.27689,0.31455,-1.37367,-0.17026
0.01615,0.96638,0.25661,-0.02341,-0.96882,-0.27263
0.04213,0.97351,0.22473,-0.15774,-0.80694,-0.08601
0.06376,0.98108,0.1828,-0.17155,-0.71576,0.16147
0.07851,0.98742,0.13722,-0.3348,0.45027,-0.15817
0.09748,0.9939,0.05161,0.01765,1.93545,0.25561
0.127,0.99147,-0.02917,-0.35354,2.6544,-0.32509
0.12331,0.98968,-0.07299,-0.30318,1.17621,-0.62308
0.11167,0.99039,-0.08159,-0.00777,0.74591,-0.6658
0.10927,0.9909,-0.07857,-0.00366,0.56177,-0.72849
0.10475,0.99085,-0.08516,0.42954,0.4285,-0.57045
0.10027,0.99101,-0.08852,0.17106,0.27337,-0.56992
0.09348,0.9917,-0.08829,0.33465,-0.01649,-0.06777
0.09206,0.99199,-0.08647,-0.01724,-0.49346,-0.00366
0.09549,0.9918,-0.0849,0.14716,-1.23033,0.30478
0.08909,0.99177,-0.09191,0.19123,-1.54353,0.39367
0.07567,0.99238,-0.09727,-0.11639,-1.84135,0.40151
0.08023,0.99311,-0.08544,-0.32166,-1.47535,0.4269
0.09697,0.99331,-0.06276,-0.28803,-0.96985,-0.07384
0.11938,0.9918,-0.04559,-0.19735,0.05242,-0.01173
0.1447,0.98866,-0.04015,-0.53107,0.1127,0.43564
0.17102,0.98048,-0.097,-1.64053,3.43648,-0.8741
0.16564,0.97022,-0.17676,0.66173,1.37533,1.50566
0.13821,0.97939,-0.14728,-0.05515,-1.97291,-0.48256
0.15098,0.98141,-0.1185,0.00904,-0.74487,-0.22117
0.15671,0.98429,-0.08131,1.08258,1.96429,-0.15638
0.12845,0.99098,-0.03827,0.37103,1.89402,-0.53131
0.10145,0.99447,0.0272,0.56598,0.56762,-0.83448
0.08767,0.9919,0.09189,0.73104,-0.12807,-0.05408
0.09515,0.98442,0.14786,0.45147,-0.23158,0.01356
0.09711,0.9772,0.18882,-0.40367,0.81626,-0.20083
0.0884,0.96923,0.22974,-0.96406,-0.45488,-0.20052
0.07819,0.96309,0.25756,0.0294,-0.50843,-0.10583
0.05012,0.96227,0.26744,0.3657,-0.8547,-0.04846
0.03186,0.9628,0.26832,0.50346,-1.36043,-0.15452
0.03367,0.96483,0.26072,0.0309,-1.10716,-0.21878
0.05065,0.96971,0.23896,-0.19454,-0.957,-0.17396
0.07058,0.97579,0.20703,-0.328,-0.81656,-0.05813
0.08517,0.98209,0.16808,-0.27726,-0.73506,0.1855
0.0904,0.98778,0.12695,-0.20475,-0.69332,0.4893
0.09227,0.9923,0.08267,-0.40364,0.73205,-0.6342
0.10865,0.99408,-0.00018,0.10378,2.16031,-0.62715
0.13829,0.98762,-0.07407,-0.30264,3.17844,-0.95152
0.13375,0.98521,-0.1071,0.26669,1.08449,-0.74286
0.1295,0.98545,-0.11009,-0.06284,0.68722,-0.69075
0.13091,0.98547,-0.10818,0.1326,0.54062,-0.8982
0.12991,0.98563,-0.10795,0.10688,0.2989,-0.67515
0.11742,0.98748,-0.10535,-0.00136,0.18232,-0.41943
0.10448,0.98993,-0.09553,0.0013,-0.19897,-0.20307
0.09593,0.99201,-0.08193,-0.01845,-1.06571,0.2965
0.08592,0.99324,-0.0781,-0.00805,-1.57608,0.28929
0.07009,0.99419,-0.08172,-0.04547,-1.61696,0.1753
0.07244,0.99457,-0.07476,-0.35549,-1.39227,0.30885
0.09034,0.9942,-0.05831,-0.3503,-1.08182,0.12064
0.11447,0.99268,-0.03842,-0.17217,-0.71531,-0.10518
0.14771,0.9888,-0.02142,-0.691,0.40564,0.47033
0.18239,0.98145,-0.05899,-1.06784,2.89603,-0.67276
0.18328,0.97759,-0.10357,0.46873,3.02412,0.55185
0.14978,0.98563,-0.07809,0.00891,-1.05921,-0.62568
0.13052,0.99052,-0.04288,0.17893,0.03614,-0.17763
0.11776,0.99304,0.00166,0.33279,0.29643,-0.46507
0.09602,0.99408,0.05083,0.83093,1.36375,-0.68442
0.07654,0.991,0.10979,0.84665,0.37435,-0.67632
0.06977,0.98247,0.17285,0.83075,0.02035,-0.47225
0.07761,0.96957,0.23221,-0.10459,-0.06035,-0.34274
0.08655,0.95668,0.27799,-0.85258,0.71585,-0.35984
0.08479,0.94836,0.30564,-0.89418,0.65012,-0.32073
0.06523,0.94405,0.32329,-0.25048,-0.65395,-0.15407
0.03933,0.94444,0.32633,0.31904,-1.0888,0.09753
0.02977,0.94755,0.31822,0.37713,-1.33624,-0.07124
0.04294,0.95316,0.29939,-0.04707,-1.11361,-0.26132
0.06467,0.96314,0.26112,-0.34941,-0.82836,-0.32913
0.0844,0.97398,0.21034,-0.39577,-0.64543,0.03415
0.09173,0.9833,0.15718,-0.08613,-0.63215,0.85207
0.09534,0.99178,0.08534,0.46841,1.38472,0.08353
0.11087,0.99383,0.00109,0.45289,1.38266,0.16778
0.11951,0.99106,-0.05929,-0.1577,2.51559,-0.94639
0.11112,0.99039,-0.08228,0.13686,1.28419,-0.76322
0.10874,0.99078,-0.08079,-0.17678,0.86364,-0.81073
0.1065,0.99112,-0.07959,0.00215,0.44616,-0.76899
0.10305,0.99181,-0.07541,0.14992,0.1495,-0.48906
0.10328,0.99245,-0.06615,0.24915,-0.28472,-0.46652
0.10164,0.99344,-0.05244,0.26207,-0.63435,0.04401
0.09617,0.99455,-0.04018,0.05494,-1.50687,0.29211
0.08449,0.99565,-0.03938,-0.08102,-1.65153,0.14476
0.08072,0.99595,-0.0396,-0.38078,-1.73704,0.08163
0.09396,0.99507,-0.03173,-0.51791,-1.25592,0.32733
0.11305,0.99343,-0.01772,-0.35411,-1.07903,0.14197
0.13756,0.99049,0.00013,-0.11871,-0.1899,-0.16875
0.16496,0.98618,0.01568,-1.31545,0.88498,0.03544
0.19657,0.97902,-0.05366,-1.13631,2.51791,-1.10227
0.17372,0.98165,-0.07858,0.94179,1.12314,0.90875
0.1426,0.98909,-0.03704,-0.01984,-1.12359,-0.54023
0.13447,0.99089,0.00784,-0.00612,0.02343,-0.29308
0.1328,0.98983,0.051,1.05547,1.60116,-0.37174
0.11825,0.98821,0.09728,0.53687,0.80053,-0.59028
0.10505,0.98087,0.16391,0.36715,0.35324,-0.61358
0.09708,0.96826,0.23031,0.25036,-0.04135,-0.19747
0.09519,0.95469,0.28196,-0.46004,0.45592,-0.46765
0.09261,0.94389,0.31702,-0.73063,0.47665,-0.49538
0.07407,0.93697,0.34147,-0.4498,-0.42089,-0.16172
0.04262,0.93384,0.35514,0.17228,-0.81519,0.09366
0.02023,0.93453,0.3553,0.34037,-1.05927,0.04938
0.02167,0.93793,0.34616,0.19026,-1.17868,-0.22859
0.04139,0.94607,0.32129,-0.28687,-0.95622,-0.42641
0.06274,0.9576,0.28119,-0.34686,-0.87648,-0.3753
0.07906,0.96977,0.23086,-0.24755,-0.66299,0.30181
0.08204,0.9798,0.18235,-0.16413,-0.18291,0.24523
0.08933,0.99053,0.10429,0.5868,1.17784,0.11379
0.10506,0.99427,0.01968,0.15595,3.03696,-0.71441
0.10189,0.99412,-0.03657,-0.18891,1.8635,-0.55666
0.0961,0.99442,-0.0435,0.03922,1.32705,-0.7598
0.10027,0.99435,-0.03482,-0.33582,0.67849,-0.75203
0.09501,0.99478,-0.03721,0.1952,0.36037,-0.64465
0.0821,0.99577,-0.04135,0.23482,0.35224,-0.56478
0.07285,0.99642,-0.04299,0.28425,-0.36139,-0.04259
0.0674,0.99694,-0.03951,-0.01514,-1.17044,0.18186
0.06262,0.99718,-0.04133,-0.06613,-1.53461,0.28138
0.05569,0.99704,-0.05295,-0.36465,-1.91562,0.18373
0.06127,0.99624,-0.06126,-0.43479,-1.44952,0.5807
0.0845,0.99505,-0.05235,-0.45802,-1.44833,0.57179
0.11358,0.99317,-0.02683,-0.10989,-0.52979,0.16556
0.16313,0.98607,-0.03259,-0.99899,2.96892,0.32622
0.19055,0.97981,-0.06054,-1.02641,2.97518,0.35417
0.14735,0.98792,-0.04789,0.12718,-0.2519,0.09008
0.08395,0.9964,-0.01219,0.30451,-0.26384,-0.02735
0.04347,0.99845,0.03476,0.27947,0.15632,-0.01553
0.02709,0.99483,0.0979,0.48394,1.1873,-0.76288
0.02671,0.98681,0.15963,0.7243,0.11978,-0.55654
0.02927,0.9751,0.21984,0.44256,-0.21414,-0.44482
0.02815,0.96217,0.271,-0.03829,-0.10746,-0.2098
0.02072,0.95046,0.31015,-0.59693,0.27604,-0.45519
0.0137,0.94254,0.3338,-0.54234,-0.05723,-0.43638
-0.00525,0.93765,0.34753,-0.13086,-0.51528,-0.45538
-0.02345,0.93712,0.34823,0.41102,-1.10214,-0.06112
-0.0281,0.94123,0.33661,0.36773,-1.2311,-0.12529
-0.01296,0.94812,0.31765,0.15069,-1.23543,-0.11869
0.00893,0.95844,0.28517,-0.22878,-0.78058,-0.29309
0.02816,0.97068,0.23871,-0.2248,-0.70837,-0.1402
0.03788,0.98089,0.19084,-0.05102,-0.36836,0.55443
0.04669,0.99085,0.12659,0.16802,1.19242,0.16813
0.07351,0.99676,0.03254,0.64205,1.60126,0.25089
0.09315,0.99485,-0.03992,-0.33994,2.4986,-0.90619
0.08495,0.9941,-0.06744,-0.17783,1.2362,-0.60461
0.0773,0.9948,-0.06629,-0.25981,0.92312,-0.73994
0.07678,0.9945,-0.07127,0.12599,0.44103,-0.6288
0.07363,0.99384,-0.08279,0.23964,0.44697,-0.54007
0.07702,0.99342,-0.08472,0.21436,0.43899,-0.35202
0.08086,0.9935,-0.08006,0.136,-0.70339,0.14155
0.07925,0.99422,-0.07248,0.03871,-1.40204,0.36643
0.0697,0.9955,-0.0642,0.03102,-1.73041,0.43607
0.05547,0.99664,-0.06033,-0.37145,-1.80472,0.15643
0.05513,0.99705,-0.05334,-0.61006,-1.67634,0.41524
0.07087,0.99673,-0.03889,-0.56315,-1.47419,0.50394
0.08974,0.9957,-0.02298,-0.16457,-0.53908,-0.32805
0.1096,0.99393,-0.00995,0.00084,0.02748,-0.14397
0.13145,0.99126,-0.01135,-0.37608,0.19311,0.51213
0.1503,0.98221,-0.11255,1.2635,5.68841,0.83915
0.10316,0.98895,-0.10642,-0.0286,-1.27167,-0.09597
0.08468,0.99448,-0.06193,-0.23795,-1.93685,-1.1516
0.08844,0.99575,-0.02577,0.66221,0.30525,-0.42264
0.09393,0.99549,0.01306,1.82882,1.9139,-0.15998
0.08699,0.99433,0.06123,1.17902,1.63752,-0.06138
0.08881,0.98683,0.13523,-0.06336,-0.14012,-0.19649
0.09345,0.97603,0.19656,-0.33398,0.4783,-0.24214
0.09476,0.96743,0.23474,-0.60819,0.61958,-0.3122
0.09158,0.96104,0.26079,-0.55323,-0.05765,-0.27659
0.07396,0.95785,0.2776,-0.29152,-0.70441,-0.23825
0.05008,0.9589,0.2793,0.0287,-0.96312,-0.10102
0.03876,0.96067,0.27498,0.51033,-1.37154,-0.11721
0.04492,0.96572,0.25568,-0.14766,-0.93765,-0.23965
0.06213,0.9732,0.22143,-0.23057,-0.89382,-0.21043
0.07858,0.98103,0.17724,-0.14773,-0.96157,0.15731
0.08619,0.9885,0.12421,-0.20751,-0.55149,0.524
0.08767,0.99273,0.08245,0.02082,-0.52253,0.76047
0.08734,0.99601,0.01844,-0.07355,0.76922,-0.60676
0.11227,0.9904,-0.08063,0.33508,2.91319,-0.55609
0.12347,0.98138,-0.14714,-0.27727,2.99241,-0.9402
0.10879,0.98255,-0.1509,0.02627,1.1003,-0.6819
0.10536,0.98497,-0.13688,-0.04254,0.34458,-0.77398
0.09881,0.98658,-0.12997,0.34717,0.27148,-0.75605
0.09269,0.98772,-0.12576,0.28299,0.25103,-0.49854
0.08988,0.98871,-0.11988,0.14581,-0.30162,0.11525
0.08567,0.99011,-0.11108,0.0296,-0.6769,0.24592
0.07524,0.9909,-0.11157,-0.03923,-1.49254,0.51414
0.06017,0.99085,-0.12082,-0.15574,-1.90915,0.243
0.06163,0.99134,-0.11599,-0.34766,-1.8005,0.41345
0.07964,0.99267,-0.09087,-0.50628,-1.49694,0.45365
0.0939,0.99412,-0.05398,-0.14729,-0.34698,-0.35673
0.11029,0.99354,-0.02689,-0.13292,0.35482,-0.18615
0.1304,0.9904,-0.04593,-0.83219,0.80384,0.67626
0.14646,0.97921,-0.14032,-0.05375,4.21294,-0.31178
0.10915,0.98622,-0.12435,0.48324,-0.10626,0.72785
0.09127,0.99263,-0.07973,0.16859,-0.45135,-0.43491
0.08737,0.99517,-0.04483,0.33838,0.37191,-0.26548
0.07695,0.99701,-0.00709,1.15018,1.37269,-0.36321
0.06302,0.99693,0.04651,0.12472,0.55105,-0.61925
0.05793,0.99136,0.1177,0.25077,-0.12278,-0.33323
0.05527,0.98229,0.17901,0.27763,-0.16767,-0.20524
0.05612,0.97193,0.22848,-0.46457,0.19512,-0.28963
0.04837,0.96321,0.26438,-0.52984,0.1485,-0.40303
0.02982,0.95806,0.28501,-0.508,-0.05474,-0.42861
0.00707,0.95726,0.28913,0.25041,-0.81502,0.08005
-0.00658,0.95897,0.28344,0.4964,-1.31031,-0.09337
-0.00011,0.96315,0.26895,0.25838,-1.25345,-0.17056
0.01984,0.97056,0.24003,-0.16877,-1.02624,-0.30577
0.03986,0.97934,0.19827,-0.28267,-0.81817,-0.11784
0.05263,0.98759,0.14797,-0.19569,-0.67327,0.26089
0.05273,0.99368,0.09912,-0.43973,0.35201,-0.16739
0.05577,0.99817,0.02321,-0.16352,1.06762,-0.20895
0.08744,0.9938,-0.06875,0.40928,1.6231,-0.08232
0.1013,0.98648,-0.12879,-0.036,2.15352,-0.72053
0.09188,0.98647,-0.13579,0.05687,0.85624,-1.00859
0.09623,0.98624,-0.13442,0.28021,0.62396,-0.48452
0.09924,0.98518,-0.13988,0.40818,0.51416,-0.823
0.09812,0.98452,-0.14524,0.36047,0.35143,-0.50154
0.0953,0.98586,-0.13781,0.32347,0.11741,-0.40103
0.08841,0.98852,-0.12253,0.08589,-1.04624,0.22256
0.07942,0.99088,-0.10882,0.02535,-1.56292,0.31405
0.06234,0.9927,-0.10323,-0.03218,-1.67747,0.26082
0.05148,0.99415,-0.09494,-0.26608,-1.73556,0.22436
0.05673,0.99527,-0.07891,-0.57831,-1.30703,0.45663
0.07019,0.99568,-0.06082,-0.49096,-1.13264,0.34263
0.0892,0.99505,-0.04379,-0.23749,-0.12915,-0.05837
0.1078,0.99387,-0.02442,0.04691,-0.45927,-0.18257
0.12854,0.99165,-0.01076,-0.17775,-0.51754,0.31228
0.1446,0.98861,-0.04174,-1.21485,0.56374,-0.37495
0.12706,0.98605,-0.10748,0.38934,3.98907,1.27918
0.07977,0.99414,-0.07302,0.10581,-0.96565,-0.83436
0.065,0.99767,-0.02093,-0.31768,-0.45215,-1.25086
0.05799,0.99832,0.00055,1.25502,1.11419,-0.89538
0.04829,0.99824,0.03438,1.62775,1.42782,-0.28469
0.04253,0.99431,0.0977,0.4862,0.1971,-0.5111
0.04578,0.98242,0.18097,0.25561,-0.13927,-0.19561
0.04922,0.9686,0.24372,-0.15827,0.22029,-0.27561
0.04761,0.9586,0.28076,-0.84322,0.29108,-0.21092
0.03406,0.95194,0.30439,-0.49582,-0.47185,-0.14245
0.00055,0.95032,0.31127,-0.13232,-0.70478,-0.02116
-0.0212,0.95157,0.30668,0.67935,-1.26395,0.02669
-0.02159,0.95734,0.28817,0.23802,-1.18663,-0.17118
-0.00193,0.96702,0.25469,-0.03827,-1.19265,-0.17587
0.02488,0.9768,0.21269,-0.30945,-0.81781,0.29847
0.04481,0.98536,0.16452,-0.21178,-0.54537,0.58713
0.05481,0.99217,0.11221,-0.14253,0.41855,-0.23838
0.06336,0.99754,0.02988,0.36135,1.46553,0.02389
0.07712,0.99604,-0.04423,-0.25644,3.14182,-1.02102
0.07158,0.99308,-0.09308,-0.21848,2.08311,-0.8003
0.06754,0.99213,-0.10547,0.06598,0.90851,-0.75182
0.07133,0.9913,-0.11066,0.08185,0.71056,-0.73154
0.07157,0.99025,-0.11954,0.083,0.59592,-0.69868
0.0689,0.99025,-0.12108,0.07884,0.50112,-0.33703
0.07023,0.99157,-0.10889,0.23977,-0.22201,0.05809
0.06922,0.99327,-0.09288,0.23745,-0.79644,0.16727
0.05736,0.99521,-0.07913,0.09487,-1.58593,0.25499
0.04049,0.99658,-0.07204,-0.14026,-1.68289,-0.02397
0.03981,0.99715,-0.06405,-0.34385,-1.68131,0.01402
0.05699,0.99704,-0.05165,-0.52997,-1.33264,0.28618
0.07793,0.99638,-0.03382,-0.19982,-0.86728,0.01468
0.1046,0.99427,-0.02197,-0.13715,-0.34469,-0.06333
0.1381,0.98911,-0.05094,-0.62035,1.20338,-0.23852
0.16993,0.97788,-0.12197,0.55932,3.32834,0.2116
0.14374,0.98365,-0.10845,-0.0371,-0.70918,-0.00734
0.1165,0.99025,-0.07639,0.22426,-0.07678,-0.067
0.09362,0.99464,-0.04381,0.2369,0.19026,-0.16895
0.07641,0.99707,-0.00103,0.50596,1.35937,-0.42461
0.06388,0.99643,0.0552,0.79278,0.99584,-0.68708
0.06519,0.99022,0.1233,0.53502,0.04893,-0.5065
0.06944,0.97974,0.18783,0.36889,-0.32509,-0.19261
0.06802,0.96814,0.241,-0.18978,0.3284,-0.32201
0.05857,0.95914,0.27679,-0.55712,0.43274,-0.43658
0.04172,0.9534,0.29881,-0.38893,-0.2307,-0.39722
0.01701,0.95084,0.30922,0.25494,-0.88417,0.00769
0.00184,0.95115,0.30872,0.27377,-1.26496,-0.0871
0.00323,0.95451,0.29817,0.16986,-1.25927,-0.13738
0.01944,0.96119,0.27519,-0.1649,-0.95863,-0.26916
0.03857,0.97019,0.23924,-0.23469,-0.8886,-0.17563
0.0527,0.97979,0.19297,-0.25473,-0.76929,0.07573
0.05531,0.98778,0.14572,-0.27591,-0.00142,0.1534
0.06044,0.99608,0.06453,0.3364,1.67816,0.22419
0.08004,0.99647,-0.02516,0.11965,2.20656,-0.05249
0.08096,0.99345,-0.0806,-0.39069,2.53143,-0.75643
0.06812,0.99352,-0.09091,0.03905,1.28621,-0.56909
0.06124,0.99437,-0.08645,0.17395,0.6448,-0.78814
0.05044,0.99399,-0.09716,0.71051,0.36586,-0.31688
0.04477,0.99256,-0.11325,0.1203,0.5489,-0.51405
0.04285,0.99273,-0.11244,0.03665,0.48551,-0.34589
0.04433,0.99403,-0.09971,0.02446,-0.53051,0.0763
0.04117,0.99518,-0.08903,0.14533,-1.36232,0.3428
0.02659,0.99613,-0.08371,0.1722,-1.7046,0.38261
0.00927,0.99672,-0.08038,-0.15716,-1.8853,0.14419
0.01416,0.99732,-0.0718,-0.48608,-1.68946,0.32554
0.03756,0.99764,-0.05748,-0.53797,-1.48085,0.35118
0.06461,0.99698,-0.04308,-0.08381,-0.37468,-0.33666
0.09219,0.9952,-0.03279,-0.05707,0.05752,-0.07846
0.11588,0.99241,-0.04114,-0.27278,0.05326,0.44041
0.13934,0.98184,-0.12874,0.33327,4.28319,-0.02687
0.10213,0.98411,-0.14521,1.00547,1.75978,1.35572
0.08944,0.99043,-0.10513,-0.02351,-1.33997,-0.77243
0.08723,0.99405,-0.06515,0.32549,0.43228,-0.49955
0.07626,0.99664,-0.0297,1.1214,1.54146,-0.41633
0.05483,0.99832,0.01857,0.88281,1.515,-0.50727
0.04172,0.99522,0.0883,0.63632,0.029,-0.42723
0.04047,0.9863,0.1599,0.46139,-0.31978,-0.02948
0.04561,0.97393,0.22218,0.0972,-0.17445,-0.20107
0.03986,0.96368,0.26407,-0.90638,0.35253,-0.4162
0.02034,0.95575,0.29346,-0.26332,-0.5147,-0.17265
-0.01479,0.95161,0.30693,0.1618,-0.67442,-0.13704
-0.03812,0.95115,0.30637,0.61768,-1.22731,-0.11028
-0.03324,0.95344,0.29975,0.26098,-1.21714,-0.19335
-0.00798,0.96024,0.27907,-0.07808,-1.08579,-0.25912
0.0181,0.96931,0.24517,-0.33693,-0.81201,-0.32084
0.03683,0.979,0.20048,-0.28561,-0.64271,0.19989
0.04144,0.98744,0.15246,-0.05252,-0.23997,0.61419
0.04687,0.99683,0.06424,0.07442,1.3795,-0.05003
0.06081,0.99788,-0.02315,-0.03511,2.66223,-0.39926
0.05514,0.99562,-0.07542,-0.66329,1.67956,-0.53591
0.0485,0.99477,-0.08986,-0.10824,1.11279,-0.45296
0.04951,0.99482,-0.08871,0.09262,0.5945,-0.62
0.04908,0.99438,-0.09375,0.05634,0.50905,-0.52623
0.03726,0.99421,-0.1008,0.31943,0.25695,-0.66629
0.02827,0.99417,-0.10404,0.01416,0.04328,-0.08501
0.02535,0.99458,-0.10086,0.01556,-0.4435,-0.01204
0.02206,0.99487,-0.09869,0.18134,-0.96159,0.24675
0.0078,0.99413,-0.10789,0.27572,-1.65612,0.34579
-0.00292,0.99269,-0.12068,-0.06788,-1.84196,0.21247
0.01354,0.99233,-0.12284,-0.40767,-1.46917,0.37018
0.0487,0.99259,-0.11133,-0.08392,-0.93775,-0.01371
0.09216,0.99135,-0.09342,-0.00149,-0.43089,-0.02595
0.13177,0.98716,-0.09029,-1.21991,1.03776,-0.1445
0.15724,0.97325,-0.16751,1.11515,3.62876,0.44046
0.11785,0.97714,-0.17694,0.94383,0.93705,0.91744
0.08308,0.98467,-0.15335,0.24184,-0.70962,-0.05264
0.06594,0.99123,-0.11453,0.19505,0.34953,-0.5045
0.05154,0.99626,-0.0693,0.35957,0.84468,-0.73841
0.02832,0.99946,-0.01636,0.89869,0.68634,-0.70616
0.01357,0.99877,0.04756,0.94719,0.09374,-0.39338
0.01437,0.99359,0.11213,0.8728,-0.15676,-0.26388
0.02073,0.98528,0.16965,-0.29423,0.23104,-0.33572
0.01119,0.9779,0.20878,-0.65778,0.62657,-0.40836
-0.00518,0.9717,0.23614,-0.42138,-0.26328,-0.21558
-0.03249,0.96789,0.24926,0.14599,-0.85629,0.02917
-0.05253,0.96717,0.24863,0.50529,-1.21918,-0.04176
-0.05105,0.96982,0.23839,0.46464,-1.32042,-0.04131
-0.02957,0.97578,0.21673,-0.06064,-1.09767,-0.20455
-0.00489,0.98339,0.1814,-0.248,-0.94532,-0.06412
0.01456,0.99043,0.13725,-0.31044,-0.90208,0.30008
0.02388,0.99573,0.0891,-0.16333,-0.6476,0.71142
0.03285,0.99882,0.03571,-0.44737,0.46187,-0.5249
0.05145,0.99742,-0.05001,0.34839,1.71015,-0.22335
0.07397,0.98912,-0.12713,-0.1009,3.0572,-1.03208
0.06426,0.98538,-0.15779,0.12807,1.21093,-0.61583
0.06244,0.98509,-0.16028,0.06635,0.84824,-0.77567
0.06771,0.9846,-0.1612,0.25011,0.60543,-0.7619
0.07088,0.98456,-0.16005,0.26717,0.40988,-0.54284
0.06885,0.98587,-0.1527,0.21725,0.09296,-0.46239
0.06399,0.98769,-0.14272,0.05292,-0.36942,-0.21081
0.0578,0.98984,-0.12987,0.08495,-1.25835,0.36339
0.04199,0.99168,-0.12166,0.05205,-1.50009,0.37799
0.02328,0.99286,-0.11697,-0.04078,-1.73081,0.24665
0.02975,0.99408,-0.10446,-0.26785,-1.54709,0.35397
0.0565,0.99457,-0.08731,-0.28135,-1.16331,0.31099
0.08915,0.99336,-0.07268,-0.04528,-0.43707,-0.12697
0.12175,0.99098,-0.05589,-0.22998,-0.31198,0.49064
0.15277,0.98682,-0.05319,-0.8631,-0.11892,0.86137
0.17565,0.97769,-0.11513,-0.58399,2.47862,-1.11541
0.14202,0.98317,-0.1149,-0.35377,-0.37451,-0.62258
0.12082,0.99015,-0.07066,-0.30519,-1.15892,-0.89482
0.11211,0.99293,-0.03887,0.17587,0.35379,-0.32254
0.09892,0.99508,-0.00544,1.00876,1.06375,-0.56697
0.08066,0.99574,0.04462,0.9321,1.14742,-0.48512
0.07576,0.9898,0.12064,0.66353,0.24059,-0.69275
0.08022,0.97882,0.18833,0.70623,-0.14744,-0.26963
0.09028,0.96799,0.23416,-0.24,0.18025,-0.40554
0.08528,0.9617,0.26049,-0.96057,0.61652,-0.38706
0.06826,0.95796,0.27863,-0.23368,-0.62558,-0.25233
0.03799,0.95614,0.29042,0.05246,-0.93333,-0.13587
0.02177,0.95658,0.29064,0.41521,-1.33131,-0.02755
0.02922,0.95981,0.27913,0.00272,-1.14079,-0.13302
0.04864,0.96721,0.24927,-0.27339,-1.01094,-0.20351
0.06826,0.97625,0.20561,-0.44393,-0.78856,-0.21889
0.07891,0.98492,0.15393,-0.24297,-0.51281,0.69354
0.07933,0.99217,0.09646,-0.15127,-0.31271,0.74783
0.08526,0.99629,0.01117,0.39746,1.13879,0.14793
0.09632,0.99346,-0.06124,0.27474,1.5543,-0.406
0.0881,0.98998,-0.11036,-0.22184,2.38612,-0.94969
0.07754,0.98916,-0.12465,0.09615,0.94599,-0.63057
0.07576,0.98879,-0.12865,0.01584,0.7359,-0.70442
0.0699,0.98826,-0.13586,0.16478,0.39598,-0.66138
0.06534,0.98845,-0.13673,0.03744,0.34938,-0.71401
0.06619,0.98947,-0.1287,0.26669,-0.19681,-0.08463
0.06604,0.9911,-0.11552,0.12734,-0.17011,0.07798
0.05989,0.99318,-0.09999,0.09796,-1.36429,0.21103
0.0407,0.99483,-0.09304,0.06522,-1.65689,0.12695
0.02624,0.99534,-0.09276,0.03928,-1.73655,0.10644
0.03482,0.99531,-0.09021,-0.24968,-1.4239,0.4896
0.05649,0.99501,-0.08217,-0.28178,-1.03148,0.24957
0.08689,0.99374,-0.07011,-0.21101,-0.64729,-0.02663
0.12096,0.99096,-0.0579,-0.40254,0.17302,0.41307
0.15198,0.98318,-0.10126,-1.3777,2.13505,-0.57461
0.13484,0.98008,-0.14576,-0.05957,4.08074,-0.00824
0.10019,0.98819,-0.11595,-0.20244,-0.90364,-0.82496
0.0802,0.99341,-0.08182,0.41735,-0.16908,-0.45932
0.06587,0.99672,-0.04698,0.493,0.33402,-0.45061
0.04613,0.99892,-0.00433,0.72934,0.98304,-0.59113
0.03596,0.99765,0.0583,0.56771,0.02616,-0.47055
0.03327,0.9913,0.12729,0.539,-0.22447,-0.33124
0.03794,0.9822,0.18396,0.08289,-0.06392,-0.28944
0.04133,0.9734,0.22533,-0.62716,0.29265,-0.31293
0.03636,0.96604,0.25579,-0.6106,0.06355,-0.33108
0.02009,0.96123,0.27499,-0.31866,-0.5476,-0.21226
0.00231,0.96001,0.27995,0.33008,-1.14831,0.012
-0.00291,0.96136,0.27525,0.36636,-1.30655,-0.04889
0.01159,0.96559,0.25978,0.09012,-1.16788,-0.12217
0.03395,0.97295,0.22849,-0.28285,-0.84349,-0.10809
0.05438,0.98124,0.18491,-0.33504,-0.80325,-0.02563
0.06539,0.98865,0.13525,-0.27804,-0.67145,0.27774
0.06672,0.99436,0.08242,-0.14328,-0.25461,0.51273
0.07654,0.99705,-0.00524,-0.08066,1.25649,-0.12935
0.1048,0.99046,-0.08942,-0.10512,3.44577,-1.08415
0.1002,0.98617,-0.13198,0.13967,1.99884,-0.64018
0.08979,0.98701,-0.13318,0.24518,1.02515,-0.6476
0.08629,0.98779,-0.12969,-0.03023,0.38027,-1.04409
0.08896,0.98703,-0.13361,0.22568,0.42795,-0.69032
0.08133,0.9873,-0.13646,0.27124,0.44099,-0.44011
0.07247,0.98858,-0.13213,0.18751,-0.00492,-0.2635
0.06324,0.99094,-0.11843,-0.00198,-0.98543,0.20048
0.05016,0.99271,-0.10953,0.04817,-1.36063,0.38544
0.0328,0.99324,-0.11134,-0.09812,-1.84793,0.18138
0.03117,0.99354,-0.10905,-0.27584,-1.7688,0.23517
0.04805,0.99443,-0.0938,-0.41827,-1.48121,0.42781
0.0693,0.99484,-0.07405,-0.17211,-0.7012,-0.25351
0.09423,0.99366,-0.06132,-0.12729,-0.02813,-0.41573
0.11438,0.9917,-0.05867,-0.05101,-0.23889,0.08844
0.13865,0.98322,-0.11851,-0.62643,3.43789,-1.32134
0.10242,0.97918,-0.17524,1.2195,1.30743,1.56162
0.0799,0.98725,-0.13764,0.07018,-1.07032,0.00583
0.07805,0.9922,-0.0972,-0.46105,-0.66921,-0.34062
0.08064,0.99437,-0.06863,1.1315,0.86712,-0.70351
0.05034,0.9984,-0.02546,1.33511,1.88519,-0.38574
0.02451,0.99863,0.0461,0.55006,0.53622,-0.70624
0.02488,0.99206,0.12321,0.77819,-0.0713,-0.39845
0.03989,0.98375,0.17505,0.45593,-0.12252,-0.33747
0.04615,0.97562,0.21456,-0.79295,0.64324,-0.3256
0.03537,0.96967,0.24181,-0.57303,-0.01568,-0.27839
0.00996,0.96636,0.25698,-0.34583,-0.50501,-0.20307
-0.01321,0.96556,0.25984,0.41379,-1.0933,-0.02506
-0.01684,0.96696,0.25436,0.56332,-1.29,-0.04151
-0.00243,0.97243,0.23316,-0.06943,-1.15593,-0.14384
0.01673,0.9797,0.19975,-0.31144,-1.00117,0.01981
0.03085,0.98785,0.15227,-0.44309,-0.91516,0.04913
0.03491,0.99366,0.10684,-0.23685,-0.75792,0.38582
0.03425,0.99737,0.0638,-0.0915,-0.20902,0.27525
0.03994,0.99914,-0.01057,0.40879,1.25798,-0.22196
0.06742,0.99335,-0.09324,-0.22765,3.26659,-0.52242
0.06988,0.98824,-0.13597,0.03955,1.65717,-0.53234
0.06475,0.98809,-0.13958,0.09612,0.62213,-0.72486
0.06666,0.98848,-0.13587,0.13343,0.506,-0.73519
0.06791,0.98826,-0.13683,0.39637,0.4032,-0.72389
0.06763,0.98818,-0.13756,0.25874,0.4669,-0.56444
0.06423,0.98878,-0.13486,0.21033,-0.08619,-0.34235
0.0626,0.98975,-0.12836,-0.01796,-0.5331,0.1266
0.05843,0.99069,-0.12295,-0.11187,-1.16621,0.33722
0.04485,0.991,-0.1261,-0.03881,-1.54515,0.26536
0.03579,0.99156,-0.12461,-0.11756,-1.66703,0.25379
0.04596,0.99263,-0.11206,-0.30836,-1.2802,0.34446
0.06604,0.99338,-0.09394,-0.27187,-1.10681,0.15626
0.09531,0.99252,-0.07616,-0.24373,0.13975,0.2706
0.13127,0.98713,-0.0913,-1.45251,1.99464,-0.4833
0.15529,0.9733,-0.16899,-0.49321,4.7609,-0.54434
0.13369,0.98067,-0.14287,-0.60273,-1.15172,-0.66924
0.11465,0.98661,-0.11598,0.0804,-1.38686,-0.78489
0.09265,0.99191,-0.08673,0.44373,-0.09594,-0.08603
0.06721,0.99675,-0.04422,0.66419,1.51359,-0.33956
0.04058,0.9991,0.01167,0.62828,1.02408,-0.69493
0.03079,0.99612,0.08244,0.56898,0.43319,-0.71729
0.0318,0.98953,0.14073,0.23807,-0.33168,-0.14889
0.0421,0.98083,0.19022,-0.09906,-0.17123,-0.30928
0.04212,0.97288,0.2274,-0.65062,0.28725,-0.2991
0.03287,0.96677,0.2535,-0.35037,-0.39188,-0.17539
0.01337,0.96231,0.2716,-0.1236,-0.61821,-0.18887
-0.00244,0.96114,0.27603,0.26109,-1.13053,-0.05047
-0.00396,0.96286,0.26994,0.20347,-1.13999,-0.08487
0.0092,0.9683,0.24959,-0.04491,-0.9857,-0.08795
0.02607,0.97629,0.21484,-0.20591,-0.85538,-0.09901
0.03919,0.98466,0.17,-0.23031,-0.78265,0.09668
0.04148,0.99141,0.12403,-0.02671,-0.62916,0.76376
0.04275,0.99705,0.06366,-0.26959,0.46248,-0.36788
0.05941,0.99789,-0.02606,0.4649,1.64647,-0.24313
0.08336,0.99108,-0.10389,-0.36632,3.34276,-0.88059
0.08879,0.98891,-0.11904,0.08231,2.19858,-0.56349
0.08175,0.99021,-0.1131,0.08413,0.85363,-0.85047
0.07738,0.99042,-0.11431,0.01004,0.6454,-0.74794
0.07441,0.99038,-0.11664,0.3539,0.26734,-0.60618
0.07613,0.99086,-0.11127,0.4883,0.06297,-0.4127
0.07394,0.99233,-0.09901,0.15967,-0.48707,0.04461
0.07119,0.99395,-0.08358,0.08486,-0.82783,0.13198
0.06283,0.99544,-0.07167,-0.05905,-1.45064,0.30826
0.05197,0.9963,-0.06844,-0.21282,-1.66207,0.23737
0.05354,0.99668,-0.06121,-0.29187,-1.58239,0.39426
0.06552,0.99662,-0.0494,-0.46071,-1.21557,0.43427
0.08121,0.996,-0.03711,-0.39109,-0.5343,-0.15622
0.10855,0.99376,-0.02559,-0.21243,0.22156,-0.15944
0.13654,0.98944,-0.04861,-1.02017,0.46158,0.62669
0.1489,0.97703,-0.15243,-0.66584,4.09171,-0.43171
0.10207,0.98347,-0.14955,0.8937,-0.02389,1.06322
0.08734,0.98995,-0.11117,0.14892,-0.87887,-0.5505
0.08087,0.9941,-0.07219,0.00034,-0.00352,-0.40421
0.06653,0.99724,-0.0329,0.9775,1.10866,-0.73739
0.04224,0.99896,0.01684,0.70737,0.58397,-0.68941
0.0286,0.9958,0.08694,0.65858,0.13337,-0.54852
0.03204,0.9872,0.15618,0.52939,-0.3903,-0.36522
0.04709,0.97693,0.20825,-0.09313,0.10973,-0.39566
0.05168,0.9681,0.24514,-0.68146,0.50207,-0.32087
0.04153,0.96152,0.27155,-0.61448,-0.22373,-0.10576
0.01682,0.95828,0.28531,-0.08951,-0.69315,0.00638
0.00126,0.95822,0.28602,0.3411,-1.15228,-0.12867
0.009,0.96079,0.27712,0.42531,-1.20159,-0.12809
0.03357,0.96723,0.25166,-0.19023,-0.96943,-0.11144
0.05782,0.9755,0.21224,-0.30689,-0.94749,-0.07944
0.071,0.98394,0.16376,-0.20093,-0.65328,0.74023
0.07247,0.99177,0.10552,-0.37885,0.38422,-0.33685
0.07854,0.9968,0.01456,0.32051,1.8,-0.04821
0.09271,0.99348,-0.06633,-0.28643,2.55592,-0.45441
0.09562,0.98875,-0.11498,-0.40678,1.65935,-1.00975
0.09476,0.9863,-0.13502,-0.14727,1.17433,-0.62636
0.09955,0.98437,-0.14522,0.24444,0.55911,-0.65201
0.10215,0.9838,-0.14731,0.30292,0.30888,-0.71696
0.10134,0.98438,-0.14394,0.27366,0.21072,-0.48451
0.09646,0.98661,-0.13152,0.24418,0.09764,-0.52918
0.08793,0.98967,-0.11324,0.32483,-0.9801,-0.00921
0.07034,0.99274,-0.09751,0.24838,-1.23046,0.13638
0.04881,0.9948,-0.08934,0.14817,-1.45789,0.20473
0.04224,0.99582,-0.08098,-0.21709,-1.53293,0.09058
0.05394,0.99589,-0.07273,-0.38693,-1.4231,0.26978
0.07657,0.99496,-0.06461,-0.53285,-1.06783,0.34599
0.11514,0.99174,-0.05644,-0.46959,0.23455,0.63618
0.15615,0.98249,-0.10159,-0.86662,1.03989,0.33979
0.15263,0.97973,-0.12969,-1.25155,3.5718,0.13914
0.11684,0.98717,-0.10878,0.29796,-0.64696,-0.3007
0.07819,0.99367,-0.08061,1.01207,-0.37055,-0.28976
0.05981,0.99749,-0.03776,0.78208,-0.10078,-0.28755
0.04997,0.9987,0.00943,0.83868,1.01398,-0.73133
0.04505,0.99706,0.06186,0.96223,0.6531,-0.55028
0.04754,0.99093,0.12567,0.73409,0.21577,-0.56047
0.04977,0.98224,0.18086,-0.33578,0.32702,-0.2471
0.0497,0.9744,0.21925,-0.77363,0.21744,-0.32777
0.04549,0.96827,0.24571,-0.68737,-0.13454,-0.23897
