gravity.x,gravity.y,gravity.z,userAcceleration.x,userAcceleration.y,userAcceleration.z
0.02796,0.94181,0.33497,0.2042,0.17266,-0.80105
0.02218,0.94108,0.33745,0.08997,-0.37391,-0.50633
0.01259,0.94415,0.32927,0.26013,-0.36436,-0.78125
0.01037,0.94736,0.31999,0.58425,-0.92281,-0.28517
0.02036,0.95316,0.30178,0.6265,-1.04598,-0.06388
0.03894,0.96407,0.26277,0.58004,-1.04835,-0.20059
0.05578,0.97687,0.20644,0.02322,-0.85092,-0.86743
0.07634,0.98915,0.12554,-0.06307,-0.19609,-0.03389
0.09595,0.99468,0.03748,0.01188,0.30601,0.2653
0.11216,0.99235,-0.0516,-0.36318,0.7734,0.64283
0.1413,0.97615,-0.16484,0.23745,1.83667,-0.82048
0.19935,0.95223,-0.23135,0.6439,2.4644,-0.72237
0.27971,0.91894,-0.27805,0.49064,2.20966,-0.2316
0.31863,0.8817,-0.34797,-0.63702,1.90789,-0.04729
0.31117,0.84635,-0.43229,-0.5576,1.00213,0.19655
0.29128,0.81524,-0.50054,-0.08176,0.09037,-0.05954
0.25483,0.8088,-0.53001,0.05869,-0.26406,-0.02579
0.21367,0.8217,-0.52836,0.02011,-0.72555,0.16193
0.19545,0.83681,-0.51142,-0.89449,-1.2177,1.03675
0.20012,0.85312,-0.4818,-0.68996,-1.75661,1.35938
0.22932,0.87494,-0.4265,-0.67665,-1.70553,1.18152
0.26067,0.89862,-0.3529,-0.65874,-1.32748,0.88137
0.27822,0.91612,-0.28863,-0.32725,-0.65756,0.36184
0.28311,0.92796,-0.24236,-0.16753,-0.51004,-0.01126
0.29044,0.93286,-0.21313,0.40588,-0.32165,0.1032
0.32999,0.92534,-0.18668,0.6105,-0.38844,-0.01977
0.37573,0.91794,-0.12729,0.22052,-0.34373,0.45926
0.35896,0.92907,-0.08933,0.37204,3.39752,1.16386
0.25582,0.96174,-0.098,-0.71493,2.03121,-0.74298
0.19754,0.97881,-0.05388,-2.21278,-0.02847,-0.39009
0.21391,0.97668,-0.0186,-0.26908,-0.53072,1.46685
0.22103,0.96941,0.10669,-0.13796,-0.66601,0.50728
0.1687,0.95157,0.25703,0.00951,-0.24598,0.81452
0.06841,0.93315,0.35291,-0.34978,0.55034,0.71149
0.02137,0.93123,0.3638,0.63632,1.75351,0.53601
0.03565,0.95096,0.30726,1.56061,1.3951,0.24979
0.01647,0.94417,0.32903,0.88592,0.00127,-1.52979
0.0011,0.93543,0.35351,0.11836,-0.1195,-0.791
-0.00398,0.93331,0.35906,0.03202,-0.15204,-0.82627
-0.00952,0.93721,0.34864,0.36713,-0.54356,-0.92933
-0.00537,0.94403,0.32981,0.47836,-0.87305,-0.16457
0.01672,0.94867,0.31582,0.48646,-0.95386,0.05313
0.03853,0.95759,0.28553,0.25449,-0.97104,-0.16644
0.05611,0.97031,0.23527,-0.06164,-0.73117,-1.14774
0.08017,0.98198,0.17115,-0.18016,-0.46449,-0.58863
0.11153,0.98874,0.09981,-0.18846,0.70844,0.44542
0.13118,0.99099,0.02703,-0.46268,0.72805,0.51298
0.15499,0.98646,-0.05357,-0.49798,0.9582,0.30912
0.19407,0.97312,-0.12399,0.25859,2.29551,-0.67743
0.25871,0.94601,-0.19526,0.44353,1.87608,-0.44705
0.31755,0.90759,-0.27465,0.13676,1.84611,-0.08085
0.33717,0.87021,-0.35924,-0.79351,0.91992,0.16196
0.32464,0.83423,-0.44573,-0.4159,-0.07095,-0.0144
0.28829,0.80872,-0.5127,-0.19643,-0.32062,0.03571
0.23807,0.80843,-0.5383,0.06964,-1.19891,0.16889
0.20393,0.83008,-0.51902,-0.15018,-1.42667,0.38234
0.19705,0.86198,-0.46709,-0.4716,-1.29993,0.45923
0.20447,0.89137,-0.40454,-0.60831,-1.29594,0.52681
0.22199,0.91292,-0.34249,-0.53591,-1.22676,0.73961
0.24606,0.92826,-0.27891,-0.52604,-0.69635,0.59733
0.25257,0.94061,-0.22687,-0.42257,-0.32676,0.43021
0.25377,0.94797,-0.19223,-0.21516,-0.10166,0.27944
0.27488,0.94446,-0.18007,0.25597,-0.11639,0.16518
0.31892,0.93719,-0.14128,0.28193,-0.29411,0.36557
0.33643,0.93853,-0.07724,-0.72276,2.48113,-2.15874
0.26984,0.95564,-0.1181,-0.65616,2.46403,-2.11788
0.22383,0.97437,-0.02265,-1.18766,0.55078,1.59785
0.21374,0.97653,0.0267,-0.09341,-0.26176,0.83876
0.20831,0.97215,0.10737,-0.14279,-0.58328,0.56734
0.1529,0.96335,0.22041,-0.0413,0.07384,0.37565
0.05967,0.93855,0.33994,-0.46942,0.5033,0.92674
0.00622,0.91845,0.3955,-0.31277,0.82832,0.59365
0.02232,0.92642,0.37584,0.85327,1.08338,0.51219
0.01986,0.93156,0.36304,1.55581,1.77405,-2.35561
-0.00176,0.92145,0.38849,0.46031,0.2856,-1.04166
-0.00673,0.92059,0.39047,0.38086,0.16542,-0.69539
-0.02304,0.92092,0.38906,0.36076,-0.24931,-0.87495
-0.04013,0.92623,0.37481,0.43808,-0.37298,-0.7625
-0.03976,0.93195,0.36041,0.50619,-0.89874,-0.2548
-0.01943,0.9405,0.33924,0.89129,-0.97833,-0.18261
-0.00328,0.95583,0.29391,0.58011,-0.82968,-0.56842
0.01912,0.97039,0.24078,0.15656,-0.68823,-0.83938
0.04813,0.98518,0.16465,-0.15268,0.59829,0.17183
0.06878,0.99413,0.08357,-0.28742,0.71748,0.39399
0.08708,0.99619,-0.00516,-0.34264,1.3215,-0.37202
0.11572,0.98969,-0.08439,-0.01443,1.77415,-0.45589
0.15399,0.97585,-0.15496,0.21358,2.14258,-0.23881
0.21118,0.94983,-0.23072,-0.14792,1.53322,-0.13312
0.25334,0.91702,-0.30804,-0.86284,1.20859,-0.12952
0.26263,0.8833,-0.38834,-0.69212,0.76789,0.22973
0.25263,0.8522,-0.45819,-0.10491,-0.0908,0.04306
0.21837,0.83847,-0.49929,0.06186,-0.52703,0.11205
0.17402,0.8452,-0.50533,0.03841,-0.78631,0.14959
0.14253,0.86721,-0.47711,-0.28201,-1.3261,0.33728
0.12537,0.89463,-0.42885,-0.34105,-1.38755,0.41825
0.11288,0.91959,-0.37632,-0.27038,-1.38999,0.52764
0.11624,0.94129,-0.31695,-0.21568,-1.15838,0.62443
0.11831,0.95753,-0.26296,-0.27352,-0.57499,0.34265
0.11166,0.96757,-0.22658,-0.24279,-0.345,0.25032
0.11676,0.96719,-0.22563,0.15715,0.17743,-0.14593
0.15262,0.95702,-0.2466,0.5802,0.64365,0.04239
0.19085,0.95235,-0.23791,0.37144,1.48901,0.49372
0.17184,0.96119,-0.21582,-1.0819,0.99106,-0.38482
0.1662,0.96235,-0.2151,-0.95906,0.03222,-0.25115
0.17492,0.96597,-0.19053,-0.50655,-0.05978,1.01945
0.17091,0.9797,-0.1048,-0.25177,-0.96334,0.8273
0.13199,0.99125,-0.0014,0.03714,-0.33479,0.63344
0.0571,0.99484,0.08391,0.26337,0.20019,0.74965
-0.02793,0.99171,0.1254,-0.02877,0.93398,0.05607
-0.10639,0.9782,0.17832,-0.34397,1.34965,0.35913
-0.11377,0.97327,0.1995,1.2826,1.57663,-1.08144
-0.11694,0.96364,0.24026,1.32936,0.8539,-1.29866
-0.1276,0.95262,0.27609,0.8504,0.26713,-1.16217
-0.13911,0.94691,0.28984,0.37653,0.01886,-0.52508
-0.15169,0.94283,0.29676,0.11571,-0.16965,-0.67042
-0.16647,0.94302,0.2881,0.58712,-0.74232,-0.81147
-0.17338,0.94869,0.26443,0.67878,-0.81792,-0.47439
-0.16375,0.95655,0.24123,0.76473,-1.05345,0.0046
-0.14333,0.96826,0.20475,0.55291,-1.01189,-0.29078
-0.1261,0.98175,0.14239,0.35924,-0.85745,-0.25062
-0.10683,0.99135,0.07625,0.06364,0.12631,0.18019
-0.09161,0.9958,0.00035,-0.3075,0.4884,-0.07452
-0.06592,0.99394,-0.08794,-0.30912,0.5629,-0.37109
-0.03843,0.98462,-0.17042,0.10914,0.9552,-0.35084
-0.0083,0.9708,-0.23976,0.62469,1.51829,0.22499
0.05227,0.95522,-0.29124,0.58785,1.61381,0.31844
0.10936,0.93691,-0.33202,-0.31836,1.69941,-0.2222
0.13354,0.91701,-0.37584,0.04637,0.46759,-0.06459
0.12399,0.89787,-0.42244,0.14557,0.25782,0.03779
0.08896,0.88263,-0.46157,-0.06834,-0.30863,0.2168
0.0454,0.87746,-0.4775,-0.23588,-0.70758,0.29278
0.00891,0.88762,-0.4605,-0.22311,-0.93704,0.431
-0.00706,0.9074,-0.42022,-0.2768,-1.37717,0.55302
-0.00256,0.92829,-0.37186,-0.25469,-1.53353,0.70026
0.03505,0.94915,-0.31288,-0.2849,-1.55551,0.72157
0.0781,0.9661,-0.24607,-0.41016,-0.88374,0.42922
0.093,0.97634,-0.1952,-0.3316,-0.5917,0.26158
0.08816,0.98217,-0.16605,-0.26461,-0.47719,-0.02737
0.08441,0.97833,-0.18907,0.7074,0.55161,-0.91594
0.12674,0.95782,-0.25792,0.8399,3.52281,-0.12117
0.12906,0.95968,-0.24973,0.05883,2.04865,0.4061
0.09533,0.96707,-0.23599,-1.23443,-0.57513,-0.942
0.08795,0.96406,-0.2507,-0.39601,-0.07449,1.15774
0.10198,0.98179,-0.16028,-0.21344,-0.46186,1.22133
0.06654,0.99747,-0.025,-0.15437,-0.22258,0.978
-0.01421,0.99574,0.09108,-0.19402,0.45714,0.92708
-0.10791,0.98398,0.14191,-0.31331,0.67987,0.63278
-0.16137,0.97529,0.1509,-0.01368,2.07361,0.14456
-0.17,0.96647,0.19246,1.80635,1.43369,-1.33676
-0.16852,0.95352,0.24979,1.6361,0.61632,-1.34601
-0.17922,0.94411,0.27666,0.27598,0.11934,-0.52957
-0.18818,0.93909,0.28756,0.1841,-0.17861,-0.3414
-0.20197,0.93528,0.29061,0.11104,-0.33555,-0.52706
-0.2096,0.93587,0.28322,0.93685,-0.76839,-0.44756
-0.20699,0.94046,0.2696,0.9102,-0.84108,-0.19032
-0.18417,0.95204,0.24433,1.03886,-0.95098,0.07188
-0.15517,0.96734,0.20044,0.29393,-0.82925,-0.77748
-0.12902,0.98112,0.14407,-0.13397,-0.55671,-0.53015
-0.10474,0.99191,0.07166,-0.23244,-0.36205,0.04791
-0.08486,0.99639,-0.00288,-0.33552,0.51551,0.65991
-0.06749,0.99358,-0.09077,-0.48035,0.63224,0.51794
-0.04871,0.98037,-0.19106,-0.45492,1.60761,-0.82516
-0.02486,0.97101,-0.23773,0.46996,2.43586,-0.59854
0.04384,0.9567,-0.28774,0.77875,1.95392,-0.15892
0.09969,0.93137,-0.35015,-0.37615,1.33814,-0.16883
0.1169,0.90017,-0.41955,-0.20862,0.61318,-0.02589
0.10674,0.8742,-0.4737,0.49327,0.1235,-0.0157
0.06434,0.86508,-0.49749,0.44848,-0.10207,0.33141
0.01741,0.8692,-0.49416,-0.02709,-0.61346,0.65157
-0.0105,0.88108,-0.47286,-0.79262,-1.54099,0.77624
-0.01327,0.89405,-0.44778,-0.78312,-1.79129,0.78388
0.02296,0.91538,-0.40194,-0.57189,-1.71791,0.94403
0.07145,0.9419,-0.3282,-0.36108,-1.08593,0.72414
0.0979,0.96349,-0.24921,-0.23857,-0.86692,0.54372
0.10064,0.97733,-0.18629,0.23544,-0.3849,-0.20895
0.10279,0.98151,-0.16147,0.97579,0.27379,-0.23967
0.14526,0.97553,-0.16504,1.0442,0.32978,-0.24542
0.20178,0.97111,-0.1274,0.30054,1.02378,0.68553
0.16477,0.97821,-0.12635,-1.2927,3.09233,-2.39036
0.04821,0.98346,-0.17457,-1.5267,1.88206,-0.52132
0.02854,0.99066,-0.13334,-0.34577,-0.85812,0.63723
0.06859,0.99588,-0.05937,0.02441,-1.13273,1.13618
0.08792,0.99175,0.09334,0.02472,-1.24205,0.52147
0.03215,0.96854,0.24677,0.24979,0.41119,1.2755
-0.08307,0.94768,0.30822,-0.69074,0.98736,0.8789
-0.14608,0.93762,0.31549,-0.6484,1.64454,1.09115
-0.13973,0.94544,0.29433,1.28127,1.95755,-3.76778
-0.14945,0.92689,0.3443,0.45621,0.43548,-1.16681
-0.15816,0.91454,0.3723,0.49554,0.52894,-0.69885
-0.17756,0.90652,0.38301,0.6092,0.21273,-0.93905
-0.19826,0.90804,0.36899,0.79433,-0.36814,-1.0759
-0.20448,0.91803,0.33972,0.86343,-0.58496,-0.85492
-0.17983,0.92842,0.32512,0.69984,-1.01934,0.23508
-0.14499,0.94341,0.29827,0.82341,-1.23,0.06264
-0.11672,0.96479,0.2357,0.62434,-1.2169,-0.72044
-0.08618,0.98284,0.1631,0.07458,0.09211,-0.00642
-0.06116,0.99396,0.09106,-0.27531,0.8756,0.45258
-0.04568,0.99895,-0.00341,-0.5411,0.94795,0.27807
-0.01742,0.99573,-0.09066,-0.60791,1.92143,-0.7888
0.02103,0.98577,-0.16677,-0.18962,2.2279,-0.2006
0.07425,0.96685,-0.24432,0.22379,2.18865,0.09719
0.10362,0.942,-0.31922,-0.89329,1.11513,0.18212
0.11219,0.91104,-0.39676,-0.32954,0.22215,0.24402
0.10762,0.88131,-0.46011,-0.20524,0.07037,0.04924
0.07664,0.8647,-0.49641,0.22277,-0.66868,0.28502
0.0415,0.8616,-0.50588,0.05738,-0.97901,0.23928
0.02531,0.87463,-0.48413,-0.33394,-1.48176,0.49099
0.02584,0.89454,-0.44625,-0.39405,-1.87796,1.03506
0.05257,0.92105,-0.38589,-0.3418,-1.79362,1.08956
0.08289,0.94682,-0.31089,-0.26421,-1.17674,0.86299
0.09153,0.96532,-0.24452,-0.14053,-0.69575,0.23972
0.09169,0.9739,-0.20762,0.1761,-0.25697,-0.45193
0.10402,0.96887,-0.22468,0.57539,0.07702,-0.67522
0.1434,0.9608,-0.23728,0.46727,1.33948,0.34499
0.14814,0.95853,-0.24346,-1.4655,2.50872,-0.60348
0.0801,0.97249,-0.21874,-1.50854,1.04976,0.76908
0.0739,0.98166,-0.17575,-0.45336,-0.27171,0.94467
0.09097,0.99049,-0.1032,0.08884,-0.82515,1.16985
0.06749,0.99725,0.03079,0.10884,-0.94475,0.65987
0.00547,0.98639,0.16431,0.08524,0.25614,0.91074
-0.0778,0.96425,0.2533,-0.21002,0.60813,0.56327
-0.1382,0.94892,0.28365,-0.32619,1.04167,0.36158
-0.14558,0.95079,0.2735,1.11448,2.41072,-3.118
-0.14122,0.93855,0.31492,1.10996,0.76002,-1.18238
-0.14925,0.92404,0.35196,0.96313,0.67359,-0.97054
-0.16246,0.91951,0.35793,0.21487,0.02431,-0.97652
-0.17001,0.92035,0.3522,0.14774,-0.43062,-0.75264
-0.17805,0.92761,0.32839,0.26765,-0.52342,-0.66696
-0.17651,0.93344,0.31231,0.76887,-1.14566,-0.00327
-0.16209,0.94614,0.28025,0.96555,-1.25089,-0.3185
-0.14196,0.96334,0.22764,0.67196,-1.12702,-0.86558
-0.11405,0.97983,0.16407,0.1937,-0.20337,-0.08184
-0.08616,0.99267,0.08472,-0.16065,0.52932,0.27842
-0.0611,0.9981,-0.00722,-0.34243,0.5804,0.26133
-0.02617,0.99493,-0.09709,-0.18418,1.60507,-0.54656
0.0109,0.98697,-0.16054,0.06365,2.5484,-0.50999
0.06552,0.97322,-0.22034,0.20491,2.39029,-0.12805
0.10516,0.94911,-0.29687,-0.53484,1.54253,0.18783
0.11377,0.91844,-0.37884,-0.44147,0.59399,0.18607
0.10955,0.88798,-0.44664,-0.41894,0.31322,0.09895
0.08496,0.86708,-0.49088,0.39044,-0.29775,0.29683
0.04789,0.85872,-0.51021,0.12317,-0.75502,0.34085
0.03651,0.86552,-0.49954,-0.20157,-1.02037,0.53198
0.05074,0.87767,-0.47657,-0.7225,-1.91458,0.85027
0.08419,0.90141,-0.42471,-0.44773,-1.50086,1.0603
0.12035,0.93237,-0.34089,-0.48389,-1.53182,0.97648
0.13643,0.95694,-0.25622,-0.30335,-0.88045,0.48246
0.13784,0.96957,-0.20233,0.30504,-0.28131,-0.01018
0.15038,0.96944,-0.19384,0.60517,-0.00533,-0.03809
0.1894,0.96739,-0.16817,0.21396,0.05426,0.55335
0.2005,0.97162,-0.12554,-1.48161,3.31003,-2.81762
0.09723,0.9784,-0.18243,-1.37834,3.30325,-2.76073
0.0486,0.99265,-0.11082,-1.57794,0.32414,1.10343
0.06961,0.99581,-0.0593,-0.14659,-0.69037,1.26795
0.09152,0.99456,0.0498,-0.06395,-1.28737,0.85295
0.05917,0.97742,0.20284,0.2233,-0.37844,1.10691
-0.03821,0.94273,0.33136,-0.783,1.2349,1.66358
-0.09315,0.93445,0.34369,-0.10473,1.96586,1.47205
-0.09907,0.95643,0.27463,1.861,2.79975,-5.46887
-0.11008,0.94103,0.3199,0.59878,0.42924,-0.2903
-0.1164,0.93509,0.33476,0.11007,0.42131,-0.50803
-0.1348,0.93057,0.34039,-0.16455,-0.02218,-0.78705
-0.15744,0.93282,0.32414,0.49519,-0.50676,-0.81904
-0.16896,0.9376,0.30391,0.67687,-0.73362,-0.14925
-0.15839,0.94168,0.29689,0.8726,-1.06323,0.21225
-0.13939,0.95423,0.26461,0.79387,-1.12501,-0.70658
-0.11907,0.97047,0.20978,0.50168,-0.82814,-0.91355
-0.08957,0.98447,0.15096,0.10492,-0.60001,-0.56393
-0.05872,0.99554,0.07381,0.00638,-0.44816,-0.14405
-0.02984,0.99949,-0.01172,-0.2237,0.26968,0.41284
-0.00932,0.99485,-0.10098,-0.50896,0.78383,0.35301
0.01152,0.98108,-0.19325,0.14747,2.73754,-0.53674
0.06152,0.9683,-0.24209,0.52488,3.27469,-0.58184
0.13434,0.94999,-0.28192,-0.16919,1.90095,-0.10857
0.17137,0.92064,-0.35078,-0.7082,1.16697,0.23291
0.16412,0.88401,-0.43771,-0.6958,0.63947,0.36551
0.14125,0.84676,-0.51288,-0.18857,-0.26239,0.12
0.10422,0.83054,-0.54712,0.07919,-0.84303,0.30996
0.07571,0.84092,-0.53583,0.0197,-1.23484,0.27547
0.07232,0.8645,-0.4974,-0.7221,-1.73375,0.45556
0.08013,0.88861,-0.4516,-0.55655,-1.69771,0.82068
0.1032,0.91566,-0.38849,-0.45564,-1.66292,0.90971
0.12286,0.94173,-0.31313,-0.37033,-0.85861,0.62157
0.12114,0.96066,-0.2499,-0.13972,-0.56889,0.25072
0.11843,0.96772,-0.22246,0.05934,-0.41169,0.09866
0.1483,0.96618,-0.21097,0.71389,-0.12787,-0.12018
0.19351,0.96716,-0.16481,0.34524,0.30028,0.65576
0.17185,0.97614,-0.1327,0.09704,1.83315,0.83514
0.09241,0.99099,-0.09695,-2.0337,1.13007,0.5398
0.10021,0.99129,-0.08545,-0.71023,-0.02303,-0.46136
0.11863,0.99212,-0.04022,-0.2433,-0.29358,1.17819
0.10926,0.99039,0.08476,-0.08558,-0.48382,0.77749
0.04431,0.97451,0.21994,0.01961,-0.02144,1.03521
-0.05991,0.94514,0.32113,-0.26659,0.20569,0.57768
-0.12342,0.92279,0.36499,0.10587,1.72148,0.68277
-0.11178,0.93265,0.34303,0.09424,1.71162,0.70473
-0.11373,0.93073,0.34759,1.73222,2.19504,-4.36741
-0.1278,0.91655,0.37894,0.57605,0.31396,-0.60107
-0.13874,0.91082,0.38878,0.31298,0.11181,-0.68296
-0.15089,0.90801,0.39083,0.41984,-0.36062,-1.04781
-0.16001,0.91637,0.36696,0.6423,-0.65197,-0.75086
-0.14939,0.92273,0.35532,0.87539,-1.14639,0.24096
-0.12537,0.93513,0.33139,0.92342,-1.16348,0.16527
-0.10771,0.95376,0.28059,0.4005,-0.96028,-1.08157
-0.08045,0.97209,0.2204,0.0498,-0.28448,-0.28245
-0.05393,0.9885,0.14129,-0.1108,0.09329,0.15084
-0.03906,0.99767,0.05601,-0.42725,0.6237,0.47314
-0.02363,0.99874,-0.0444,-0.87095,1.54924,-0.54761
0.00365,0.99267,-0.12082,-0.59644,2.03248,-0.84339
0.05462,0.98105,-0.18587,0.03664,2.35783,-0.46571
0.11727,0.95718,-0.26468,-0.31635,1.6439,0.17278
0.15312,0.92502,-0.3477,-0.63522,1.39006,0.20941
0.15267,0.88833,-0.43309,-0.45849,0.13789,0.08069
0.13297,0.85294,-0.50479,-0.16448,-0.29178,0.10664
0.0928,0.8359,-0.54099,0.1524,-0.64364,0.32134
0.04929,0.84057,-0.53946,0.03371,-1.45589,0.30154
0.02714,0.863,-0.50447,-0.4112,-1.66957,0.54111
0.02005,0.8853,-0.46458,-0.45233,-1.56836,0.62056
0.03601,0.90964,-0.41383,-0.34778,-1.46216,0.82559
0.06485,0.93736,-0.34228,-0.36464,-0.93925,0.66515
0.06962,0.95923,-0.27393,-0.31821,-0.75876,0.46153
0.05995,0.97234,-0.22577,0.35324,0.07204,-0.12891
0.06772,0.97124,-0.22826,0.60878,0.31243,-0.21667
0.11216,0.97087,-0.21174,0.66677,0.39574,-0.0982
0.1131,0.97996,-0.16399,-0.64286,2.7801,-0.14909
0.05975,0.99013,-0.12681,-1.34145,2.40044,-0.86824
0.06856,0.99236,-0.10261,-1.55487,-0.25617,-0.83037
0.08362,0.99527,-0.04942,-0.09401,-0.83623,1.02658
0.07857,0.99427,0.07249,0.00888,-1.15743,0.48313
0.02844,0.97847,0.2044,0.17168,-0.6838,0.57624
-0.07142,0.95227,0.29678,-0.11976,0.32774,0.47388
-0.15338,0.93029,0.33323,-0.32041,1.54888,0.96385
-0.16126,0.93167,0.32556,0.15841,1.74715,0.92517
-0.15677,0.93106,0.32946,0.9959,1.72091,-2.3539
-0.17368,0.91606,0.36148,0.56257,0.35456,-0.72802
-0.19381,0.91166,0.36238,0.38538,0.24226,-0.97423
-0.20727,0.9105,0.3578,0.33377,-0.34552,-0.58674
-0.21431,0.91246,0.34855,0.56198,-0.62895,-0.41764
-0.20251,0.9195,0.33691,0.73527,-0.85809,-0.22477
-0.17764,0.93512,0.30659,1.16077,-1.11206,-0.27004
-0.1538,0.95468,0.25482,0.58362,-0.94557,-0.81439
-0.12494,0.97478,0.18493,0.40583,-0.76451,-0.67551
-0.10125,0.98965,0.10165,-0.268,0.63081,0.24099
-0.08545,0.99631,0.00757,-0.60861,0.63354,0.07827
-0.06084,0.99444,-0.08599,-0.76649,0.83784,-0.15032
-0.03073,0.98564,-0.16606,-0.32117,2.18734,-0.64364
0.02026,0.97121,-0.23737,0.25063,2.15944,-0.02729
0.0775,0.94827,-0.30785,0.26034,1.92822,0.15721
0.10595,0.91712,-0.38427,-0.46528,0.98942,0.11138
0.10549,0.88389,-0.45564,-0.14991,0.11226,0.2037
0.0768,0.85676,-0.50996,0.21337,-0.15919,0.40364
0.02418,0.84205,-0.53886,0.14337,-0.70549,0.39421
-0.00783,0.84831,-0.52944,-0.48926,-1.4869,0.48421
-0.00648,0.87042,-0.49226,-0.60888,-1.6799,0.48735
0.00924,0.89539,-0.44519,-0.49508,-1.74953,0.69258
0.04584,0.92681,-0.37272,-0.35215,-1.32127,0.80965
0.06755,0.95558,-0.28689,-0.29488,-1.01724,0.70428
0.06102,0.9745,-0.21592,-0.21559,-0.67159,0.5131
0.05111,0.98085,-0.18791,0.19138,0.04934,-0.18553
0.07101,0.9739,-0.21559,0.59621,0.40213,-0.31668
0.12047,0.97206,-0.20144,0.73086,0.53111,-0.00571
0.1067,0.98005,-0.16767,-0.94702,2.53475,-0.98184
0.04814,0.99009,-0.1319,-1.57875,1.45078,0.19298
0.06015,0.99092,-0.12028,-0.23502,-0.02538,0.57298
0.07865,0.99492,-0.06286,-0.07746,-0.88074,1.08293
0.0675,0.99615,0.05594,-0.00504,-0.95442,0.66143
-0.00214,0.98364,0.18012,0.22396,0.0401,1.00758
-0.09868,0.96432,0.24566,-0.29016,0.48644,0.30027
-0.1629,0.94855,0.27149,-0.4497,0.9389,0.3075
-0.17093,0.94605,0.27526,0.68901,2.14348,-2.39162
-0.17445,0.93273,0.31558,0.84982,0.91807,-1.34686
-0.18578,0.92008,0.34487,0.70507,0.60914,-1.08486
-0.20062,0.91326,0.35456,0.36818,0.04616,-0.50744
-0.21626,0.91075,0.3518,0.37889,-0.30726,-0.82548
-0.22251,0.91449,0.33794,0.49816,-0.42329,-0.69509
-0.21108,0.92369,0.31975,0.86695,-0.9285,-0.04399
-0.18705,0.93906,0.2884,0.91065,-1.10169,-0.41439
-0.16259,0.95776,0.23719,0.51229,-1.01635,-0.81579
-0.12988,0.9774,0.16682,0.05076,-0.32404,-0.26899
-0.10413,0.99085,0.08589,-0.20521,0.56346,0.50603
-0.09068,0.99583,-0.00983,-0.37006,0.56633,0.59737
-0.07104,0.99168,-0.10738,-0.65775,1.28446,-0.37393
-0.04484,0.98315,-0.1772,-0.06635,2.23511,-0.50099
0.00169,0.97091,-0.23943,0.07368,2.41955,-0.2003
0.05059,0.94848,-0.31276,-0.19148,1.47316,0.02202
0.07212,0.91787,-0.39027,-0.65804,0.70632,0.1178
0.06818,0.88583,-0.45897,-0.47613,0.46695,0.21962
0.03923,0.85996,-0.50885,0.09267,-0.13364,0.33455
-0.01177,0.8466,-0.53211,0.20849,-0.58301,0.42293
-0.04879,0.85078,-0.52324,0.13377,-0.74675,0.40928
-0.04522,0.87215,-0.48715,-0.53935,-1.74078,0.51491
-0.0184,0.89806,-0.43949,-0.30235,-1.73725,0.79859
0.02859,0.93018,-0.36599,-0.3403,-1.44399,0.69645
0.04953,0.95845,-0.28094,-0.26004,-0.85467,0.52529
0.04471,0.97588,-0.21369,-0.04724,-0.38153,0.02259
0.04626,0.97579,-0.21376,0.21035,-0.09176,-0.1159
0.08483,0.96858,-0.23379,0.65505,0.15793,0.23134
0.11877,0.97245,-0.20059,0.29504,0.67358,0.69768
0.05717,0.97353,-0.22131,-1.53397,2.66496,-1.18025
0.01068,0.98605,-0.16608,-1.5235,0.49263,1.43378
0.03238,0.99184,-0.12334,-0.29213,-0.57999,0.31075
0.05104,0.9983,-0.02812,0.37064,-0.74235,1.0919
0.02904,0.95782,0.2859,0.05188,-0.38372,0.52799
-0.0652,0.91648,0.39473,-0.0018,0.46218,0.44297
-0.15763,0.87368,0.46026,-0.36525,0.7331,0.28461
-0.16911,0.85688,0.487,-0.4961,1.45979,0.86382
-0.14246,0.87193,0.46844,1.38893,1.92809,-1.95972
-0.15324,0.84756,0.50809,0.70362,0.77939,-1.98273
-0.16375,0.83205,0.52997,0.32296,0.29636,-1.07371
-0.17609,0.82738,0.53332,0.24532,0.06709,-1.15083
-0.1913,0.8267,0.52912,0.40078,-0.12731,-1.27869
-0.19704,0.83641,0.51146,0.71779,-0.60175,-0.32315
-0.17693,0.84455,0.5054,0.8841,-0.95416,0.06235
-0.15302,0.86473,0.47837,0.96422,-1.05174,-0.06961
-0.13993,0.89267,0.42843,0.30365,-0.66248,-1.13662
-0.11686,0.92475,0.3622,-0.00054,0.14061,-0.25088
-0.092,0.95287,0.28909,-0.15027,0.56256,0.14416
-0.07578,0.97794,0.19467,-0.68193,1.00546,-0.57141
-0.05136,0.99314,0.10508,-0.75694,1.53055,-0.83615
-0.02016,0.99926,0.03286,-0.61616,1.9886,-0.78696
0.03094,0.99898,-0.03302,-0.03199,2.17194,-0.03117
0.08543,0.99063,-0.10653,-0.57563,1.35876,-0.09071
0.11925,0.97538,-0.18552,-0.58463,0.99131,-0.15617
0.12755,0.95764,-0.25819,-0.27829,0.23435,0.08583
0.11403,0.93943,-0.32321,-0.03581,-0.33257,0.24849
0.08928,0.92687,-0.36461,0.12744,-0.72767,0.31277
0.08424,0.9275,-0.36421,-0.22168,-1.88656,0.2598
0.09817,0.93768,-0.33334,-0.34629,-2.18385,0.67012
0.13876,0.95475,-0.26304,-0.4655,-2.14059,0.67652
0.16598,0.97168,-0.16819,-0.43647,-1.19752,0.66735
0.16017,0.98374,-0.08126,-0.36002,-0.81073,0.26865
0.13758,0.99023,-0.02263,-0.23141,-0.68976,0.15111
0.12374,0.99192,-0.02809,0.20116,0.01527,-0.41059
0.14515,0.98829,-0.04706,0.36704,0.80422,0.13628
0.14373,0.98933,-0.02383,-0.32214,2.50812,-1.23629
0.05421,0.99853,0.00192,-1.40098,1.3908,0.27648
0.02065,0.99821,0.05613,-1.71124,-0.33459,0.24146
0.03626,0.99433,0.1,-0.3304,-0.4309,0.88542
0.02016,0.97873,0.20416,0.0999,-0.96666,0.36647
-0.03916,0.94408,0.32738,0.00879,-0.47846,0.37744
-0.1408,0.89066,0.43231,-0.14252,0.47904,0.43877
-0.20425,0.85335,0.47966,-0.17826,1.92881,0.82059
-0.17723,0.86927,0.46147,0.63124,1.78954,0.36932
-0.16841,0.86514,0.47241,1.68824,2.0313,-2.03865
-0.18374,0.84791,0.49728,0.4782,0.14687,-0.90684
-0.19095,0.84252,0.50368,0.18347,-0.12299,-0.53625
-0.20257,0.83671,0.5088,0.12772,-0.25993,-0.83087
-0.21567,0.8385,0.5004,0.67009,-0.45903,-0.7
-0.21319,0.84543,0.48969,0.91453,-0.76037,-0.23271
-0.19262,0.85981,0.47289,0.97831,-0.86815,-0.19022
-0.17669,0.88285,0.43516,0.55464,-0.71457,-0.9724
-0.1622,0.91131,0.37842,0.17928,-0.10502,-0.18316
-0.14194,0.9388,0.31385,-0.07206,0.37425,0.09371
-0.12383,0.96484,0.23185,-0.47973,0.54041,-0.1069
-0.09427,0.98477,0.14609,-0.5963,0.96549,-0.62351
-0.06866,0.99598,0.05747,-0.67868,1.13411,-0.66256
-0.03018,0.9993,-0.02206,-0.02936,2.03155,-0.16649
0.02725,0.996,-0.08515,-0.02301,2.04359,0.0564
0.07387,0.98692,-0.14329,-0.60039,1.39441,-0.0936
0.10292,0.97265,-0.20824,-0.42228,0.40159,-0.24074
0.11393,0.95596,-0.27047,-0.0882,0.18274,-0.04128
0.10618,0.94022,-0.32358,0.0786,-0.06858,0.02982
0.08586,0.93142,-0.35368,-0.09907,-1.0812,0.19868
0.07543,0.93335,-0.35095,-0.31138,-1.66937,0.33292
0.08139,0.94301,-0.32266,-0.40567,-1.8795,0.33937
0.10968,0.95926,-0.26036,-0.30462,-1.61354,0.67499
0.12694,0.97747,-0.16865,-0.32938,-1.03597,0.56791
0.1197,0.98935,-0.08282,-0.33654,-0.97012,0.36454
0.11167,0.99324,-0.03167,-0.15744,-0.5186,-0.25518
0.1159,0.99266,-0.03459,0.39844,0.10317,-0.55952
0.14142,0.98932,-0.03539,0.54607,0.13683,-0.61918
0.13726,0.99045,-0.01306,-0.57415,2.29457,-0.84323
0.0478,0.99879,-0.01126,-1.85827,1.67795,-0.01781
0.0307,0.99921,0.02512,-1.83278,0.41865,0.64496
0.05451,0.99712,0.05278,-0.12316,-0.61855,1.05236
0.06134,0.98393,0.16767,-0.00635,-1.37248,0.94764
0.02763,0.94885,0.3145,0.05512,-1.11357,0.34329
-0.06795,0.91083,0.40715,0.33515,0.48843,0.73328
-0.18969,0.87501,0.44539,-0.45279,1.20836,0.22343
-0.21948,0.85676,0.46667,-0.62782,1.68689,0.9225
-0.18806,0.86325,0.46844,1.00166,1.80852,-2.98887
-0.17427,0.84128,0.51175,0.56449,0.8096,-1.38324
-0.17839,0.82278,0.53964,0.42488,0.54723,-0.97023
-0.19792,0.81646,0.54242,-0.02498,0.26049,-1.37902
-0.20804,0.82028,0.53279,0.42339,-0.15348,-1.18359
-0.21372,0.83217,0.51169,0.53372,-0.26616,-0.89534
-0.19762,0.84379,0.49896,0.70564,-0.8159,-0.04639
-0.18076,0.86462,0.46878,0.82279,-0.88511,-1.01665
-0.17092,0.89026,0.42216,0.81295,-0.91076,-0.97003
-0.1514,0.92143,0.35783,0.32447,-0.19115,-0.32469
-0.12966,0.94916,0.28684,-0.16364,0.8209,0.21347
-0.11622,0.97278,0.2005,-0.70434,1.07512,-0.46815
-0.0898,0.98938,0.11427,-0.77182,1.40437,-0.83676
-0.05477,0.99809,0.02846,-0.7153,1.647,-0.79157
-0.00335,0.99845,-0.05553,-0.39608,1.81724,-0.2221
0.0507,0.99112,-0.1229,-0.37856,1.3845,-0.03345
0.08972,0.97827,-0.18692,-0.7138,0.69084,-0.1745
0.10463,0.96274,-0.24937,-0.64494,0.37291,-0.18509
0.09852,0.94646,-0.30741,-0.15135,-0.01095,0.28631
0.07537,0.93365,-0.35017,0.09646,-0.50341,0.29008
0.05494,0.9319,-0.35852,-0.12188,-1.2638,0.19421
0.05299,0.9411,-0.33396,-0.41013,-1.93325,0.32169
0.07778,0.95691,-0.27977,-0.27903,-2.11328,0.65573
0.10204,0.97588,-0.19298,-0.18676,-1.54919,0.57056
0.10041,0.98935,-0.10543,-0.06266,-1.00439,0.29397
0.09218,0.99474,-0.04479,0.08746,-0.62106,0.07447
0.10438,0.99323,-0.05101,0.1698,-0.39295,-0.123
0.13711,0.98914,-0.05295,0.45761,0.3208,-0.94957
0.13125,0.99135,-0.00179,-1.17332,2.54929,-1.69783
0.02047,0.99913,-0.03628,-2.28241,2.99646,-2.26664
-0.01773,0.9998,0.00874,-1.44029,-0.38915,0.07889
0.00234,0.99747,0.07101,-0.10712,-0.79397,1.0334
0.00501,0.98068,0.19557,-0.09918,-1.1555,1.08186
-0.03971,0.93754,0.3456,0.17591,-0.27632,0.51431
-0.13609,0.87531,0.46401,-0.25205,0.17391,0.78353
-0.22047,0.84034,0.4952,-0.70496,0.40987,0.71154
-0.21716,0.85365,0.47342,0.12376,1.88059,-0.28848
-0.19974,0.84921,0.48881,1.41259,2.36052,-3.90507
-0.20741,0.83094,0.51625,1.11801,0.80056,-1.47023
-0.22147,0.823,0.52308,0.63292,0.11901,-0.86178
-0.23294,0.82288,0.51827,0.26448,-0.04293,-1.17519
-0.24553,0.82937,0.50186,0.26301,-0.13796,-1.16008
-0.24439,0.8357,0.49182,0.66544,-0.54526,-0.04505
-0.22251,0.84657,0.48353,1.01626,-0.92151,-0.01156
-0.20905,0.87187,0.44289,1.20707,-1.09052,-0.5054
-0.19279,0.90168,0.38704,0.39247,-0.55807,-1.04361
-0.1698,0.93242,0.319,-0.09292,0.19906,0.1017
-0.15741,0.95616,0.24693,-0.29126,0.64799,0.44458
-0.14997,0.97706,0.15117,-0.89634,0.85802,-0.3105
-0.13535,0.98902,0.0593,-1.2197,1.81741,-1.19227
-0.09924,0.99494,-0.01584,-0.9186,2.07136,-1.01223
-0.0379,0.99495,-0.0929,-0.08069,1.62956,-0.10459
0.01028,0.9861,-0.16585,-0.77439,1.18589,-0.03381
0.04077,0.9719,-0.23185,-0.82312,0.89775,-0.0447
0.0509,0.95711,-0.28521,-0.34998,0.1186,0.10757
0.04028,0.94419,-0.32694,0.26383,-0.69019,0.07764
0.02179,0.93763,-0.34694,0.21456,-1.18374,-0.07893
0.01287,0.94317,-0.33207,-0.19959,-2.17982,0.08645
0.02186,0.95621,-0.29185,0.02087,-2.11402,0.6065
0.04409,0.9757,-0.21461,-0.07266,-1.75889,0.63708
0.04272,0.99161,-0.12201,-0.09077,-0.85547,0.44888
0.02587,0.99847,-0.04878,-0.12465,-0.77705,0.3367
0.02383,0.99925,-0.03039,-0.04865,-0.05036,-0.15505
0.04615,0.99631,-0.07242,0.21859,0.92429,-1.2402
0.08381,0.9942,-0.06736,0.0359,0.64363,0.53565
0.06216,0.99802,-0.00967,-0.56873,1.48692,0.3977
-0.02544,0.99934,-0.02584,-2.16715,1.55037,-0.33419
-0.02886,0.99958,-0.00076,-0.74765,-0.31854,0.23659
-0.0182,0.9986,0.04967,-0.02599,-0.67511,1.03114
-0.04426,0.9828,0.17927,0.13633,-1.15982,0.49724
-0.11969,0.93533,0.3329,-0.14653,0.01941,0.75439
-0.23125,0.86693,0.44154,-0.19567,0.36735,0.64022
-0.29642,0.83309,0.46701,-1.14294,1.15913,0.69704
-0.26755,0.84758,0.45828,0.83674,2.09337,-2.24507
-0.2474,0.84301,0.47763,1.72407,2.7956,-3.11905
-0.25291,0.82089,0.51204,0.9503,0.43262,-0.96662
-0.25739,0.81455,0.51986,0.48014,0.14173,-0.95614
-0.26467,0.816,0.51391,0.24417,-0.14406,-1.03519
-0.26848,0.82627,0.49517,0.53793,-0.54497,-0.59242
-0.25721,0.83861,0.48017,0.79611,-0.75108,0.0635
-0.23705,0.85873,0.4543,0.86315,-0.90925,0.05144
-0.22425,0.88747,0.40262,0.52798,-0.81351,-1.2641
-0.2047,0.91805,0.33952,0.20162,-0.42841,-0.72964
-0.18451,0.9467,0.26403,0.01129,-0.11101,-0.11479
-0.1755,0.96805,0.17911,-0.43177,0.51408,0.35383
-0.16102,0.98356,0.08171,-0.8494,1.16406,-0.52427
-0.13915,0.99025,0.007,-0.92051,1.58147,-0.7411
-0.09222,0.99474,-0.0445,0.00233,2.38482,-0.20382
-0.02222,0.99442,-0.10315,-0.2137,1.72568,-0.10153
0.02753,0.9851,-0.16977,-0.73088,1.4497,-0.03459
0.05298,0.9696,-0.2389,-0.74822,0.30802,0.05459
0.05975,0.95176,-0.30096,-0.2193,-0.08969,0.19325
0.04333,0.93776,-0.34457,0.05759,-0.35651,0.18009
0.02976,0.93584,-0.35118,0.0632,-1.60762,0.0437
0.03416,0.94395,-0.32831,-0.37418,-2.22894,0.27036
0.06234,0.95799,-0.27996,-0.38805,-2.25668,0.53476
0.08698,0.97756,-0.19185,-0.44309,-1.34124,0.60718
0.08483,0.99183,-0.0953,-0.36936,-0.91254,0.40165
0.06906,0.99706,-0.03311,-0.38502,-0.82958,0.26977
0.06645,0.99697,-0.04032,0.19316,0.0785,-0.46688
0.10038,0.99442,-0.03242,0.41183,0.34985,0.2914
0.10446,0.99436,0.01835,-0.04527,0.90276,0.42263
0.01937,0.99948,0.02589,-1.50942,2.27594,-0.85781
-0.01186,0.99794,0.06302,-1.0068,0.30226,-0.47845
-0.00097,0.99541,0.09574,-0.24675,-0.07196,0.80711
-0.02953,0.97913,0.20108,0.10714,-1.16263,0.72896
-0.09559,0.93796,0.3333,-0.31988,0.01846,0.69348
-0.19175,0.87159,0.45118,-0.49105,0.29774,0.70467
-0.24517,0.8305,0.50016,-1.18871,0.89368,1.17028
-0.21831,0.85228,0.47535,0.15791,1.62787,0.42066
-0.2007,0.85302,0.48175,1.06875,2.01434,-4.19117
-0.21947,0.83526,0.50415,0.74198,0.68674,-0.81845
-0.25146,0.82488,0.50631,0.1027,0.21693,-1.0064
-0.27932,0.82045,0.49884,0.16019,0.01344,-1.20674
-0.29226,0.82329,0.4866,0.64587,-0.19728,-0.64737
-0.2801,0.8315,0.47974,1.21545,-0.73773,-0.12366
-0.26292,0.8515,0.45367,1.33842,-0.85218,-0.27033
-0.24953,0.87666,0.41134,0.90338,-0.88189,-1.0568
-0.22331,0.9051,0.36184,0.24459,-0.49058,-0.38839
-0.19477,0.93421,0.29887,0.00531,-0.05855,0.0607
-0.18535,0.95755,0.22077,-0.73938,0.55414,-0.16304
-0.17303,0.97565,0.13475,-1.06769,1.05376,-0.98295
-0.14623,0.98703,0.06619,-1.20314,1.3961,-1.2235
-0.10943,0.99399,-0.00053,-0.28063,2.22366,-0.27161
-0.05484,0.996,-0.07058,-0.05026,1.69446,-0.02071
0.00369,0.99111,-0.13298,-0.45558,1.38515,-0.09649
0.04092,0.97986,-0.19545,-0.72526,0.50265,-0.00497
0.05763,0.96273,-0.26424,-0.14583,0.22652,0.16105
0.04289,0.94169,-0.33375,0.144,0.03881,0.30857
0.00347,0.92535,-0.37909,0.4383,-1.32434,0.15535
-0.01995,0.92516,-0.37906,-0.01989,-2.09224,0.42479
-0.0086,0.93633,-0.35102,-0.22748,-2.24507,0.40629
0.02639,0.95681,-0.28952,-0.36354,-1.66593,0.59922
0.05255,0.97876,-0.19817,-0.33193,-1.05656,0.56368
0.05267,0.99289,-0.10678,-0.29078,-0.89756,0.44063
0.04585,0.99792,-0.04539,-0.34979,-0.60291,-0.15798
0.04901,0.99705,-0.05916,-0.34709,-0.28884,-0.41036
0.06679,0.99418,-0.08452,0.25294,0.55596,-1.04529
0.00596,0.99725,-0.07391,-1.3546,2.76174,-0.22043
-0.04679,0.99883,-0.01221,-1.8058,0.18512,1.22982
-0.0244,0.99933,0.02737,-0.47368,-0.48053,-0.66589
-0.02955,0.99304,0.11403,0.02745,-0.89041,1.03722
-0.08075,0.96688,0.2421,-0.12132,-0.98135,0.78532
-0.16851,0.91948,0.35521,-0.20915,-0.47103,0.63115
-0.26419,0.86125,0.43411,-0.87279,0.66321,0.4268
-0.27865,0.8505,0.44611,0.20977,1.68097,-0.25784
-0.24711,0.8627,0.44122,0.17823,1.66876,-0.25296
-0.23675,0.84596,0.47781,0.934,1.15118,-1.70324
-0.23858,0.82927,0.50535,0.49584,0.13995,-0.66081
-0.25699,0.81809,0.51449,0.18628,0.00221,-0.78133
-0.27001,0.81313,0.51567,0.35071,-0.16493,-1.04117
-0.27726,0.81792,0.50412,0.53225,-0.27304,-0.82119
-0.26773,0.82748,0.49356,0.85321,-0.61035,-0.21571
-0.24898,0.8489,0.46625,1.17964,-0.84755,-0.23401
-0.23977,0.87694,0.41652,0.44836,-0.71872,-1.20966
-0.22374,0.90915,0.35126,0.25503,-0.52453,-0.75807
-0.20426,0.93935,0.2755,-0.18029,0.38977,0.12815
-0.19166,0.96332,0.18785,-0.75799,0.74678,-0.18993
-0.16577,0.9813,0.0978,-0.85025,0.97466,-0.42896
-0.13079,0.99117,0.02189,-0.77125,1.65963,-0.94562
-0.07887,0.99568,-0.04895,-0.24828,2.16414,-0.38251
-0.02323,0.99295,-0.11623,-0.45424,1.77145,-0.11618
0.01494,0.98177,-0.18946,-1.09766,0.99595,0.01196
0.03522,0.96304,-0.26705,-0.49147,0.1095,-0.01535
0.03518,0.94201,-0.33373,-0.32487,0.03811,0.07177
0.01076,0.92386,-0.38258,0.26927,-0.58096,0.13246
-0.02227,0.91635,-0.39975,0.15659,-1.36714,0.23152
-0.03954,0.92476,-0.37849,0.08265,-1.7964,0.26413
-0.01716,0.94466,-0.32761,-0.14173,-2.14595,0.49957
0.02333,0.96958,-0.24367,-0.31379,-1.45003,0.53069
0.0422,0.98833,-0.14637,-0.30791,-1.13973,0.45019
0.03645,0.99742,-0.06187,-0.28822,-0.78132,0.15297
0.02722,0.99929,-0.02593,-0.13174,-0.06047,-0.31126
0.03489,0.9985,-0.04221,0.11172,0.28789,-0.58191
0.05347,0.99852,-0.01027,0.09459,0.7152,0.56923
-0.0059,0.99991,0.01223,-1.55622,2.22745,-1.23014
-0.06415,0.99754,0.02846,-2.59248,1.73168,-0.57629
-0.04492,0.9973,0.05808,-0.25586,-0.40245,-0.09482
-0.04009,0.99037,0.1325,0.40699,-1.13078,1.05324
-0.07292,0.95919,0.27319,0.31521,-1.20883,0.93946
-0.15852,0.9006,0.40471,-0.08571,0.18247,0.7992
-0.26092,0.83925,0.47706,-0.84745,0.71749,0.60273
-0.28015,0.82991,0.48246,-0.93858,1.41013,0.89303
-0.25334,0.84728,0.46684,0.77555,1.82077,-3.34766
-0.24356,0.83033,0.50122,0.5833,1.22501,-1.96745
-0.24377,0.81053,0.53255,0.44386,0.70483,-1.30416
-0.24972,0.80392,0.53976,0.1864,0.14844,-0.89644
-0.26276,0.80184,0.53666,0.2803,-0.20667,-1.22611
-0.27159,0.80869,0.52179,0.44998,-0.25528,-1.05473
-0.25788,0.81751,0.51496,0.86013,-0.65151,-0.08655
-0.2459,0.83865,0.486,1.04658,-0.85762,-0.37462
-0.2399,0.86669,0.43738,0.77106,-0.77604,-0.97502
-0.2264,0.89982,0.37291,0.17101,-0.35217,-0.62902
-0.21054,0.93016,0.30079,-0.22587,0.5078,0.19846
-0.20113,0.95609,0.21315,-0.4119,0.53103,0.27617
-0.18175,0.97562,0.12306,-0.93457,1.218,-0.62646
-0.15767,0.98648,0.04465,-0.86537,1.84054,-0.77309
-0.11935,0.99255,-0.02471,-0.48453,2.09123,-0.3303
-0.06947,0.99325,-0.09292,-0.4881,1.34429,-0.12255
-0.02697,0.98622,-0.16325,-0.71473,0.41843,-0.03459
-0.00565,0.97222,-0.23401,-0.61885,0.25663,0.13633
0.00109,0.95474,-0.29745,0.07212,-0.29292,0.19012
-0.01372,0.93907,-0.34344,0.1976,-0.83702,0.05735
-0.03055,0.93465,-0.35425,0.14049,-1.21447,0.0562
-0.03289,0.94266,-0.33213,-0.28367,-2.01096,0.32401
-0.01729,0.95827,-0.28535,-0.09431,-2.10963,0.53205
0.0053,0.98024,-0.19775,-0.03304,-1.60991,0.58012
0.00302,0.99473,-0.10248,-0.0419,-1.14016,0.33471
-0.00797,0.99947,-0.03149,0.10677,-0.62449,-0.07445
-0.00624,0.99952,-0.03028,0.41597,0.25817,-0.80711
0.01625,0.99708,-0.07465,-0.22542,2.66065,-0.97728
-0.02253,0.99646,-0.08104,-2.19023,2.54833,-0.04088
-0.04812,0.99798,-0.04139,-1.45999,-1.03644,-0.85914
-0.0229,0.99812,-0.05687,-0.00641,-0.60534,0.33715
-0.01528,0.99927,0.03496,-0.12945,-1.46714,1.41617
-0.06067,0.97559,0.21104,-0.27107,-0.72466,1.14207
-0.16217,0.92651,0.33954,-0.44282,0.26913,0.47919
-0.28524,0.88014,0.37947,-1.19747,1.36457,0.1081
-0.34091,0.84319,0.41572,-0.96444,1.63484,0.9306
-0.31012,0.83878,0.44751,0.64505,1.70612,-1.19292
-0.29415,0.8279,0.47755,0.81869,1.02072,-1.77307
-0.29944,0.80601,0.51057,0.77156,0.67707,-1.38484
-0.30452,0.79352,0.52687,0.56947,0.11097,-0.54834
-0.31607,0.78685,0.53007,0.25747,-0.35638,-1.26278
-0.32745,0.79271,0.51418,0.47316,-0.38802,-1.17243
-0.32851,0.80503,0.49397,0.80605,-0.51549,-0.321
-0.30644,0.82096,0.48179,1.12797,-0.94478,-0.15066
-0.29016,0.84867,0.44222,0.98167,-1.03178,-0.82288
-0.27933,0.88103,0.3818,0.25458,-0.20636,-0.3998
-0.25986,0.91249,0.31596,-0.21581,0.77516,0.33988
-0.25076,0.93795,0.23953,-0.43878,0.75993,0.29569
-0.23288,0.9609,0.1498,-0.92535,1.46073,-0.86583
-0.20288,0.97671,0.06986,-0.62195,1.90507,-0.83442
-0.15834,0.98736,-0.00653,-0.54408,1.9119,-0.47716
-0.10019,0.99173,-0.08025,-0.68092,1.31055,-0.07134
-0.05015,0.98718,-0.15154,-0.80411,0.60213,0.02899
-0.01962,0.97449,-0.22357,-0.66471,0.27661,-0.02082
-0.01082,0.95765,-0.28772,-0.317,0.13353,0.21568
-0.02381,0.94181,-0.33529,0.26029,-0.59149,0.27671
-0.04881,0.93128,-0.36102,0.37524,-1.11556,0.17468
-0.066,0.93417,-0.35066,0.02152,-2.45598,0.31061
-0.05225,0.94726,-0.31617,-0.13866,-2.08746,0.54873
-0.02539,0.96786,-0.25021,-0.23416,-1.70481,0.51623
-0.01903,0.98605,-0.16539,-0.15985,-0.86846,0.35063
-0.03052,0.99547,-0.09002,-0.14322,-0.45829,0.02212
-0.03509,0.99817,-0.04916,-0.1107,-0.15439,-0.25036
-0.01381,0.99794,-0.06268,0.3799,0.39347,-0.83746
0.01973,0.99869,-0.04718,-0.00611,0.88459,0.3524
-0.02076,0.99968,-0.01468,-0.92591,2.06633,-0.18446
-0.09063,0.99571,-0.01849,-2.3128,0.47191,0.19427
-0.07045,0.99749,0.00767,0.35426,-0.88034,1.25137
-0.05968,0.99541,0.07474,0.54518,-1.40783,1.19099
-0.07575,0.96817,0.23857,0.15831,-1.24038,0.5363
-0.14873,0.90331,0.40237,-0.3125,0.38871,0.70601
-0.27865,0.82742,0.48757,-1.04142,0.76861,0.69179
-0.32761,0.80408,0.49611,-0.44983,1.81008,0.48711
-0.29207,0.83101,0.47341,0.953,2.06019,-4.86748
-0.2667,0.82354,0.50066,1.03557,2.43443,-2.32502
-0.25478,0.80802,0.53121,0.56189,0.40696,-0.66073
-0.2481,0.80417,0.54015,0.13364,-0.11468,-1.2398
-0.26086,0.8045,0.53361,0.13696,-0.26499,-1.48476
-0.2733,0.81433,0.51203,0.55978,-0.56532,-0.54359
-0.2649,0.82426,0.50043,0.94265,-0.94062,0.03597
-0.25673,0.84121,0.47587,0.89008,-1.03402,-0.37658
-0.2538,0.86717,0.42849,0.49364,-0.70961,-1.32531
-0.24231,0.89778,0.3678,0.02592,0.0249,-0.26672
-0.22397,0.9288,0.29523,-0.15785,0.51433,0.19554
-0.21473,0.95246,0.21612,-0.53016,0.68839,0.18533
-0.19217,0.97297,0.12804,-0.95696,2.02158,-1.17876
-0.16558,0.9847,0.05437,-0.98354,2.00986,-1.10509
-0.12133,0.99253,-0.0129,-0.32767,2.09571,-0.17872
-0.06271,0.99437,-0.08542,-1.11167,1.17413,-0.18243
-0.01334,0.98612,-0.16548,-1.21798,0.78313,-0.1698
0.01632,0.96993,-0.24283,-0.64849,0.02102,-0.02505
0.02094,0.95202,-0.30531,0.08686,-0.37442,0.27116
0.0032,0.9368,-0.34986,0.26744,-0.60847,0.32063
-0.02102,0.92864,-0.37039,-0.04667,-1.77329,0.10065
-0.03467,0.93502,-0.35289,-0.32449,-2.11297,0.44624
-0.02914,0.95035,-0.30983,-0.22464,-2.03436,0.64387
-0.01812,0.97313,-0.22953,-0.01914,-1.18415,0.5237
-0.02704,0.9894,-0.1427,-0.00482,-0.82031,0.24221
-0.04043,0.99568,-0.08358,0.068,-0.46219,0.08433
-0.03618,0.9959,-0.08295,0.37674,0.35712,-0.63754
-0.00483,0.99487,-0.10101,0.23227,1.01637,-0.10053
-0.00768,0.99745,-0.07095,-0.80977,1.81977,0.06816
-0.05336,0.99768,-0.04231,-1.88897,0.29273,0.22188
-0.039,0.999,-0.02203,-0.55922,-0.22785,-0.25968
-0.03628,0.99868,0.03633,-0.04537,-0.74775,1.13288
-0.06182,0.983,0.1729,-0.22708,-1.26619,0.88302
-0.1291,0.94007,0.31559,-0.30411,-0.08582,0.67826
-0.2427,0.88185,0.40426,-0.22466,0.32212,0.34053
-0.33565,0.83714,0.43189,-1.19136,1.7787,0.99184
-0.33292,0.82431,0.45791,0.38784,1.9825,-0.30175
-0.30599,0.8271,0.47146,1.71427,2.55115,-3.19903
-0.31246,0.80643,0.50204,1.06495,0.67209,-1.07363
-0.31572,0.79385,0.51973,0.75473,0.149,-0.57536
-0.32252,0.79043,0.52078,0.34809,0.05133,-0.90938
-0.33194,0.79544,0.50704,0.42134,-0.25827,-0.95492
-0.32712,0.80537,0.49434,0.86168,-0.60157,-0.0706
-0.30749,0.82182,0.47965,1.12538,-0.8449,-0.08055
-0.29397,0.85025,0.43664,0.80479,-0.90749,-1.14049
-0.28007,0.88357,0.3753,0.37691,-0.54185,-1.09003
-0.26167,0.91646,0.30269,-0.00827,-0.12032,-0.16663
-0.24352,0.94333,0.22545,-0.31544,0.60861,0.42488
-0.22927,0.96344,0.13862,-1.06191,0.91408,-0.73875
-0.20418,0.97794,0.04402,-1.19149,1.51472,-0.84596
-0.17311,0.98465,-0.02214,-0.57751,2.33804,-0.52867
-0.12009,0.9889,-0.08747,-0.30932,2.13762,-0.22465
-0.067,0.98562,-0.15512,-0.52693,1.49654,-0.08218
-0.02898,0.9751,-0.21984,-1.0367,0.36857,-0.01898
-0.00458,0.9588,-0.28404,-0.63556,0.09453,-0.03497
-0.00266,0.94291,-0.33304,-0.06785,-0.34984,-0.0229
-0.02272,0.933,-0.35915,0.39429,-1.51551,-0.21602
-0.03769,0.93802,-0.34453,0.23263,-1.79289,-0.1813
-0.03302,0.95423,-0.29724,-0.01054,-2.00015,0.05429
-0.02202,0.9737,-0.22675,-0.00149,-1.38523,0.39451
-0.02568,0.9889,-0.14631,-0.01268,-1.06672,0.35199
-0.04209,0.99587,-0.08047,-0.15568,-0.71268,0.28356
-0.04794,0.99745,-0.05282,-0.09545,0.0236,-0.10495
-0.03191,0.99769,-0.05992,0.28873,-0.16449,-0.37499
-0.00111,0.99923,-0.03915,0.40464,-0.21618,0.18073
-0.01031,0.99982,0.01562,-1.9975,1.91917,-1.11671
-0.10053,0.99395,-0.04412,-2.52323,1.49101,0.80143
-0.10564,0.99433,-0.01215,-1.31802,0.22752,-0.42844
-0.09972,0.99396,0.04584,0.45493,-0.85623,0.82298
-0.10932,0.98034,0.16428,0.23131,-1.03742,0.47517
-0.17022,0.9387,0.29978,0.15068,-0.54984,0.48162
-0.28186,0.86933,0.40599,-0.04294,0.5637,0.95401
-0.3593,0.81881,0.44773,-0.50086,1.1821,0.51978
-0.33663,0.83282,0.43942,0.1862,1.27718,-0.19894
-0.3027,0.83618,0.45736,0.79813,1.24507,-2.21357
-0.30149,0.81871,0.48869,0.53729,0.45499,-0.68086
-0.30966,0.8083,0.50076,0.4073,0.31502,-0.57455
-0.31966,0.80402,0.50137,0.30823,-0.03911,-1.14356
-0.32908,0.80854,0.48782,0.73118,-0.27056,-0.5897
-0.32452,0.81969,0.47201,0.87465,-0.45289,-0.22552
-0.30667,0.83955,0.44844,1.07531,-0.84271,-0.44709
-0.29652,0.86713,0.4002,0.57524,-0.67946,-1.01166
-0.28009,0.89924,0.33604,0.38066,-0.60775,-1.06733
-0.25632,0.93105,0.25971,-0.23197,0.43962,0.1226
-0.24233,0.9552,0.1699,-0.65904,0.45294,0.12267
-0.21746,0.97374,0.06738,-0.97356,0.61516,-0.48827
-0.18814,0.98209,-0.01024,-0.65065,1.76138,-0.71869
-0.14979,0.9858,-0.07584,-0.25646,2.12563,-0.29681
-0.09688,0.98476,-0.14441,-0.19203,1.90421,-0.12235
-0.05123,0.97528,-0.21494,-0.94517,0.77035,0.0263
-0.02683,0.95619,-0.2915,-0.60734,0.18364,-0.0114
-0.01983,0.9351,-0.35382,-0.49114,-0.03184,0.03447
-0.03734,0.91822,-0.3943,0.34671,-0.76049,-0.0378
-0.0693,0.91361,-0.40065,0.28787,-1.40747,0.0787
-0.08701,0.92366,-0.37319,0.03415,-1.9189,0.23405
-0.08819,0.93951,-0.33097,0.17742,-1.94655,0.59749
-0.0712,0.96295,-0.26013,0.07333,-1.49107,0.59336
-0.06344,0.98261,-0.17449,-0.06579,-1.02601,0.41783
-0.07069,0.99244,-0.10028,-0.23076,-0.71333,0.13037
-0.07682,0.99485,-0.06616,-0.01477,0.34355,-0.80084
-0.06739,0.99445,-0.08079,0.29978,0.58659,-0.6296
-0.03913,0.99769,-0.05558,0.28905,0.37649,0.3315
-0.07356,0.99729,-0.00165,-1.48462,2.05601,-1.08746
-0.13917,0.98994,-0.02537,-3.16731,1.82726,-1.8337
-0.11681,0.99315,0.00229,-0.66728,-0.36002,-0.2108
-0.10412,0.99272,0.06061,0.40129,-0.98774,0.75923
-0.12015,0.97348,0.19467,0.321,-1.48975,0.83221
-0.18707,0.92358,0.33468,0.01126,-0.33834,0.91057
-0.30954,0.85113,0.42399,-1.49971,0.67069,0.9247
-0.36855,0.81922,0.43937,-1.18583,1.77921,1.43424
-0.34364,0.83291,0.43379,0.753,1.85625,-1.41103
-0.32878,0.8196,0.46921,1.01548,1.80848,-2.22248
-0.32767,0.79865,0.50477,0.75091,0.73487,-0.86272
-0.33509,0.78374,0.52294,0.40608,0.27615,-0.50006
-0.34349,0.77712,0.52736,0.56349,-0.08519,-1.52069
-0.36129,0.78949,0.49616,0.6513,-0.20528,-1.2551
-0.35882,0.80644,0.47001,0.86736,-0.48013,-0.02326
-0.33,0.82871,0.45204,1.07672,-1.02549,-0.03193
-0.31408,0.86079,0.40049,0.92119,-1.16334,-0.90249
-0.29924,0.89573,0.32881,0.29924,-0.17787,-0.36107
-0.27961,0.92546,0.25562,-0.11993,0.51189,0.12279
-0.27418,0.94763,0.16377,-0.38975,0.62183,0.03875
-0.25417,0.96434,0.07375,-1.20012,1.57531,-1.16478
-0.22447,0.97445,0.00716,-0.70035,1.9951,-0.44675
-0.18569,0.98058,-0.06309,-0.67597,2.0942,-0.03738
-0.13583,0.98212,-0.13032,-0.62113,1.2163,-0.13504
-0.09123,0.97783,-0.1885,-0.65467,0.41558,-0.04725
-0.0583,0.96849,-0.24212,-0.45374,0.23663,0.0189
-0.04374,0.95653,-0.28833,-0.05804,-0.12384,0.10815
-0.05522,0.94495,-0.32253,0.20512,-0.76387,0.07565
-0.07542,0.93975,-0.33345,0.21386,-1.06452,0.12652
-0.07212,0.94698,-0.3131,0.16268,-2.33025,0.44156
-0.04078,0.96602,-0.25523,-0.01562,-2.02919,0.62369
-0.02376,0.9856,-0.16744,-0.08811,-1.60872,0.49166
-0.03168,0.99608,-0.08256,-0.20832,-0.94077,0.24132
-0.04296,0.99871,-0.02693,-0.1798,-0.41455,-0.18844
-0.04238,0.99874,-0.02707,0.20599,0.20816,-0.84143
-0.01524,0.99907,-0.04032,0.51628,-0.00502,-0.36847
0.00664,0.99997,0.0029,-0.17657,0.50929,0.20065
-0.07351,0.99706,-0.02158,-1.39787,2.4324,-0.84286
-0.11917,0.9927,0.01837,-1.69642,0.59046,1.48955
-0.09268,0.99267,0.0776,-0.11543,-0.64042,0.32607
-0.08926,0.98372,0.15599,0.2694,-0.98482,0.57718
-0.13911,0.95643,0.2567,-0.13393,-0.50857,0.25369
-0.23293,0.90404,0.3584,-0.87663,0.49905,0.41816
-0.31651,0.85005,0.42099,-0.95889,0.86111,0.60265
-0.32678,0.83285,0.44675,0.51136,1.06543,-0.14366
-0.30413,0.84186,0.44583,1.22498,1.89716,-1.9409
-0.31333,0.81753,0.48319,0.79306,0.91462,-1.58364
-0.32213,0.79677,0.51126,0.78606,0.36972,-0.82565
-0.32451,0.79055,0.51936,0.63335,0.20224,-1.39471
-0.33367,0.7924,0.51066,0.63463,0.0924,-1.33616
-0.3391,0.80775,0.48223,0.66088,-0.24423,-0.57974
-0.32176,0.8253,0.46407,0.77194,-0.70263,0.03096
-0.2994,0.84975,0.43392,0.777,-0.84087,-0.3326
-0.28517,0.87991,0.38004,0.51462,-0.68625,-1.10522
-0.26613,0.91136,0.314,-0.04792,0.34248,0.04969
-0.24735,0.93787,0.24333,-0.24662,0.57829,0.32721
-0.23396,0.96021,0.15252,-0.67776,0.63009,-0.28953
-0.20965,0.9751,0.07223,-0.99271,1.32058,-1.04884
-0.17818,0.984,0.00233,-1.02418,1.31169,-0.97893
-0.13199,0.98888,-0.06847,-0.39961,1.68368,-0.11546
-0.08744,0.98707,-0.13432,-0.63283,1.22599,-0.07271
-0.05067,0.97973,-0.19381,-0.80685,0.56914,-0.05537
-0.03221,0.96742,-0.25112,-0.47958,0.16176,-0.00564
-0.03563,0.95478,-0.29516,-0.16708,-0.27061,0.20888
-0.04886,0.9452,-0.3228,0.09871,-0.54329,0.16175
-0.06564,0.94232,-0.32822,0.34172,-1.27786,0.16299
-0.06591,0.9508,-0.30272,0.12174,-2.25541,0.37611
-0.03837,0.96871,-0.2452,0.01333,-2.05669,0.44231
-0.02468,0.98666,-0.16092,-0.15165,-1.33773,0.34617
-0.03745,0.99614,-0.07934,-0.22748,-0.8126,0.05189
-0.05414,0.998,-0.03269,-0.22485,-0.50105,-0.14731
-0.04695,0.99766,-0.04975,0.32545,0.43438,-0.61425
-0.01181,0.99859,-0.05186,0.17871,0.70796,0.24063
-0.03093,0.99944,-0.01277,-0.47246,1.44125,0.48543
-0.0949,0.99518,-0.02482,-2.47754,0.95055,0.78631
-0.07467,0.9972,0.00425,-0.50351,-0.33843,-0.21091
-0.06424,0.99599,0.06227,-0.01755,-0.66347,0.82116
-0.08165,0.97705,0.19673,0.01725,-1.25553,0.63329
-0.14334,0.93936,0.31154,-0.01541,-0.10371,0.46884
-0.24161,0.8892,0.38853,0.11125,0.37783,0.35313
-0.32398,0.84832,0.41879,-0.71028,1.27887,0.54346
-0.3316,0.83026,0.44801,-0.00945,1.45633,0.0886
-0.30861,0.82677,0.47032,0.69454,1.71763,-1.95038
-0.30771,0.80561,0.50628,0.8571,1.00894,-1.29445
-0.31938,0.7875,0.52711,0.69827,0.59721,-0.64164
-0.33456,0.77753,0.53247,0.43855,0.48469,-0.85145
-0.34206,0.78069,0.52299,0.61875,-0.24138,-1.05927
-0.3421,0.79181,0.50596,0.85436,-0.5391,-0.42915
-0.32371,0.80923,0.49026,0.90965,-0.64958,-0.12342
-0.30751,0.8356,0.45519,0.65941,-0.84242,-0.65635
-0.29276,0.86997,0.3968,0.34445,-0.5659,-0.70557
-0.27299,0.90446,0.32776,0.12279,-0.23335,-0.32023
-0.26223,0.93292,0.24678,-0.54908,0.4708,-0.09076
-0.24252,0.95707,0.15877,-1.03924,0.7812,-0.74366
-0.21486,0.97317,0.08233,-1.01902,1.03272,-1.0263
-0.18172,0.98334,0.00448,-0.4159,1.59045,-0.34382
-0.13993,0.98774,-0.06925,-0.07787,1.79985,-0.13114
-0.09497,0.9872,-0.12817,-0.27306,1.5484,-0.13361
-0.05991,0.98097,-0.1847,-0.33406,0.30694,-0.03113
-0.04553,0.96928,-0.24169,-0.28012,0.13271,0.01191
-0.0528,0.95155,-0.30292,0.00148,-0.21211,0.12517
-0.08809,0.93366,-0.34716,0.00674,-0.69967,0.16146
-0.11704,0.92755,-0.3549,0.0445,-1.57524,0.21264
-0.11095,0.93939,-0.32439,0.05639,-1.9667,0.15141
-0.06924,0.96354,-0.25847,-0.03722,-2.07647,0.39209
-0.04309,0.98433,-0.17099,-0.1624,-1.03616,0.31961
-0.04678,0.9955,-0.08239,-0.17447,-0.9256,0.12164
-0.05927,0.99795,-0.02397,-0.14386,-0.63042,-0.12463
-0.05554,0.99779,-0.03644,0.28578,0.39839,-0.75047
-0.02938,0.99833,-0.04977,0.42034,0.42606,-0.19322
-0.05192,0.9983,-0.02643,-0.77281,1.43305,0.14703
-0.12347,0.99193,-0.0287,-2.03034,0.62576,0.95018
-0.11025,0.99384,0.01157,-0.93622,-0.2686,-0.2621
-0.10514,0.99227,0.06592,0.112,-0.6366,0.78716
-0.12509,0.9775,0.16986,-0.00939,-0.96904,0.55202
-0.19049,0.93823,0.28885,-0.07038,-0.41669,0.52423
-0.29964,0.87399,0.38257,-0.92978,0.56259,0.24136
-0.36502,0.82572,0.43006,-0.75203,1.5767,0.85098
-0.35619,0.82324,0.44206,-0.12555,1.66398,0.23803
-0.33289,0.81814,0.46886,1.31158,1.66495,-2.21941
-0.33493,0.79753,0.50176,0.85075,0.83044,-1.00327
-0.3476,0.78296,0.51589,0.68497,0.60058,-0.7204
-0.36243,0.77526,0.51731,0.24587,0.01673,-1.24966
-0.37261,0.77768,0.50634,0.63423,-0.22521,-0.89741
-0.36896,0.78813,0.49266,0.82699,-0.39139,-0.49399
-0.34847,0.80909,0.47323,1.24503,-0.84288,-0.22537
-0.33459,0.83887,0.42936,0.85086,-0.95573,-0.97372
-0.31871,0.87543,0.36339,0.60321,-0.80281,-0.92684
-0.29714,0.90947,0.29081,-0.05216,0.53641,0.12562
-0.28904,0.93544,0.20348,-0.60611,0.63179,-0.06744
-0.26547,0.9581,0.10756,-1.04918,0.77605,-0.70943
-0.2324,0.97211,0.03163,-0.91584,1.78047,-0.88749
-0.19509,0.97987,-0.04231,-0.55109,2.39465,-0.1246
-0.15099,0.98161,-0.11683,-0.30839,2.2297,0.07014
-0.11399,0.97602,-0.18546,-0.54375,0.62471,-0.02905
-0.08868,0.96393,-0.25093,-0.33241,0.14564,0.16837
-0.07542,0.94985,-0.30347,-0.28247,0.09043,0.14936
-0.0823,0.93754,-0.33799,0.1269,-0.62327,0.17542
-0.09516,0.93217,-0.34928,0.09957,-1.23779,0.14233
-0.09089,0.93909,-0.33144,0.01771,-2.18448,0.32368
-0.06057,0.95769,-0.28134,-0.0732,-1.89161,0.6724
-0.03403,0.98127,-0.18961,-0.15187,-1.54491,0.56893
-0.03613,0.99538,-0.089,-0.22429,-1.06036,0.3044
-0.05255,0.99851,-0.01484,-0.26564,-0.48075,-0.24805
-0.067,0.99775,0.00206,0.01995,0.19503,-0.98614
-0.06044,0.99754,-0.03555,0.32668,0.3205,-0.8615
-0.03091,0.99922,-0.02467,-0.26065,1.16278,0.39747
-0.08573,0.99624,0.01242,-2.71777,1.58874,-1.04892
-0.15211,0.98818,0.01903,-3.01581,1.38293,1.0675
-0.12473,0.99069,0.05452,0.008,-0.39987,0.39602
-0.11279,0.98637,0.11979,0.41462,-1.20415,0.89364
-0.13417,0.9615,0.23983,0.24012,-1.20167,0.55384
-0.20772,0.91018,0.35837,0.11949,-0.08553,0.75693
-0.31726,0.85562,0.40898,-1.33402,1.45751,0.86671
-0.34728,0.83816,0.42057,-0.91019,1.72942,1.00921
-0.31684,0.83572,0.44853,0.97486,1.64601,-2.13537
-0.31483,0.81475,0.48689,0.72044,0.69022,-1.26538
-0.32694,0.79404,0.51246,0.44312,0.36041,-0.95315
-0.33647,0.78595,0.51873,0.2151,0.12158,-1.28379
-0.34862,0.7858,0.51086,0.69042,0.00578,-1.25885
-0.35948,0.79842,0.48302,0.8219,-0.17876,-0.78369
-0.34656,0.8154,0.46371,0.98244,-0.70441,0.11852
-0.32667,0.84092,0.43143,0.82111,-0.91697,-0.70934
-0.31391,0.87208,0.37542,0.6107,-0.79365,-1.07267
-0.29144,0.90599,0.307,0.26829,-0.17972,-0.26549
-0.26527,0.93598,0.23146,-0.16048,0.53839,0.19483
-0.24614,0.95877,0.14202,-0.3256,0.50687,0.33113
-0.22175,0.97388,0.04874,-0.96547,1.42745,-0.84189
-0.18938,0.98181,-0.01385,-0.64253,2.4459,-0.67754
-0.1355,0.98832,-0.06967,-0.5104,2.33091,-0.38144
-0.07759,0.9888,-0.12751,-0.95453,1.2693,-0.14789
-0.03543,0.98156,-0.18782,-0.75114,0.33614,0.00499
-0.00819,0.96799,-0.25085,-0.49422,0.2203,0.09071
-0.00323,0.95266,-0.30401,-0.10792,-0.33719,0.10874
-0.01587,0.94096,-0.33814,0.00128,-1.11546,-0.06515
-0.02905,0.94174,-0.33508,0.0426,-1.47948,-0.07082
-0.03022,0.95215,-0.30415,-0.05042,-2.13992,0.29184
-0.01432,0.96928,-0.24554,-0.04456,-1.74433,0.61594
-0.00391,0.98851,-0.15109,-0.12222,-1.42435,0.5609
-0.01526,0.99787,-0.06342,-0.348,-0.91196,0.26817
-0.02652,0.99946,-0.01953,-0.39162,-0.30591,-0.21811
-0.02154,0.99942,-0.02641,-0.13966,-0.0092,-0.40924
0.00724,0.99996,0.00521,0.45394,-0.26891,-0.00739
0.00075,0.99644,0.08431,-0.37712,0.97245,-0.00815
-0.12667,0.99124,0.03747,-1.71821,2.66707,-1.01697
-0.14107,0.98431,0.10597,-1.50919,0.42777,0.03089
-0.12715,0.97782,0.16641,0.21389,-0.58171,0.32448
-0.13359,0.95461,0.26621,0.37063,-0.94978,0.81852
-0.17775,0.8997,0.39867,0.18965,-0.69176,0.49121
-0.27534,0.82731,0.48963,-0.17073,0.32048,0.76716
-0.3326,0.80351,0.49371,-0.73713,1.42446,0.98815
-0.31328,0.81887,0.48095,0.77894,2.09034,-2.18184
-0.29891,0.80498,0.51251,0.94507,1.32968,-2.33348
-0.29413,0.78951,0.53866,0.68907,0.48441,-0.72025
-0.30096,0.77926,0.5497,0.16832,0.24039,-1.29238
-0.31024,0.77705,0.54767,0.34606,0.08751,-1.42923
-0.31995,0.78895,0.52459,0.65679,-0.19572,-0.82807
-0.31159,0.80614,0.50305,0.926,-0.61623,0.0035
-0.28942,0.82838,0.4796,0.92713,-0.97319,-0.68575
-0.28327,0.85821,0.42804,0.62742,-0.79239,-1.08404
-0.27226,0.89162,0.36178,-0.0858,0.23229,-0.1235
-0.25673,0.92166,0.2909,-0.38695,0.55661,0.21593
-0.23885,0.95139,0.19447,-0.84918,0.55144,-0.52981
-0.20776,0.97205,0.10936,-0.96073,1.08006,-0.9364
-0.18249,0.98277,0.02924,-0.93405,1.51924,-0.59417
-0.14223,0.98897,-0.04144,-0.48457,2.0956,-0.23015
-0.08705,0.99123,-0.09943,-0.3978,1.74755,-0.16474
-0.03683,0.98692,-0.15696,-0.71399,0.41732,-0.04781
-0.00807,0.97353,-0.22842,-0.58298,0.21769,0.13702
-0.01127,0.95159,-0.30716,-0.18216,-0.1312,0.22116
-0.03555,0.9332,-0.3576,0.27719,-1.04073,0.23333
-0.05057,0.93099,-0.36154,0.44972,-1.53333,0.27046
-0.03352,0.94658,-0.32074,0.17602,-2.41487,0.41922
0.00092,0.97019,-0.24233,-0.49453,-1.66432,0.47968
0.00813,0.98912,-0.14689,-0.35891,-1.07249,0.39954
-0.00997,0.9981,-0.06082,-0.29163,-0.84069,0.17575
-0.02834,0.99952,-0.01218,-0.26819,-0.6394,0.03511
-0.02485,0.99891,-0.0394,0.33218,0.17697,-0.74459
-0.0022,0.99922,-0.03953,0.24698,0.5355,0.15862
-0.04251,0.99883,-0.02303,-0.33451,1.03987,-0.03763
-0.11764,0.99306,-0.00079,-2.31378,1.9092,-0.64053
-0.10683,0.9921,0.06572,-0.78313,-0.12327,-0.10132
-0.10465,0.98456,0.1403,0.01396,-0.90859,0.70992
-0.13167,0.9633,0.23391,0.16388,-1.04599,0.61727
-0.20705,0.91897,0.33561,-0.16692,0.05976,0.42335
-0.30791,0.85538,0.41655,-1.13522,0.69998,0.46602
-0.33215,0.83638,0.43605,-1.02036,1.45044,0.96025
-0.30998,0.84135,0.44276,1.40795,2.14325,-3.02226
-0.29637,0.82649,0.47863,1.20782,1.21388,-1.83745
-0.28986,0.81085,0.50843,1.07938,0.98785,-1.27374
-0.30589,0.79689,0.52096,0.26205,-0.0661,-0.61172
-0.31725,0.79385,0.51881,-0.07775,-0.17429,-1.39028
-0.32478,0.80484,0.49673,0.18204,-0.16236,-1.31893
-0.32039,0.81723,0.47905,0.7141,-0.53499,-0.01784
-0.30448,0.83583,0.45681,1.00178,-0.87255,0.01173
-0.29863,0.86403,0.40531,1.00638,-1.01735,-0.53774
-0.28618,0.89569,0.34035,0.31682,-0.53021,-0.69367
-0.26459,0.92545,0.27118,-0.25029,0.40703,0.29055
-0.25181,0.94934,0.18802,-0.26307,0.38314,0.37372
-0.23626,0.96696,0.09578,-0.85731,1.36549,-0.78441
-0.2104,0.97731,0.02437,-0.79364,1.86502,-0.98164
-0.16012,0.98649,-0.03467,-0.34192,2.27393,-0.4219
-0.0976,0.98986,-0.10324,-0.30273,1.38618,-0.04639
-0.05585,0.98419,-0.16809,-1.04387,0.44233,-0.02685
-0.03281,0.97223,-0.23173,-0.77864,0.23748,0.11523
-0.02469,0.95655,-0.29051,-0.22723,-0.07948,0.02891
-0.03134,0.94244,-0.3329,-0.21368,-0.26687,0.05615
-0.04953,0.93348,-0.35519,-0.22154,-0.8536,-0.14404
-0.06716,0.93641,-0.34441,0.06147,-2.09878,0.20925
-0.07407,0.94987,-0.30375,0.24259,-2.16773,0.40093
-0.06812,0.97211,-0.22441,0.19059,-1.55637,0.4477
-0.07286,0.98768,-0.13846,0.04921,-0.76999,0.06089
-0.08051,0.99336,-0.08223,0.11655,-0.23683,0.01137
-0.06738,0.99464,-0.07844,0.11696,-0.08679,-0.0689
-0.03648,0.99509,-0.09203,-0.57691,1.81796,-0.25272
-0.06949,0.99304,-0.09507,-2.10544,1.94734,-0.40325
-0.08011,0.99381,-0.07695,-1.59486,0.74855,0.3644
-0.06616,0.99456,-0.08042,0.00185,-0.42645,0.08655
-0.06346,0.99792,0.01152,0.29013,-1.27297,1.69491
-0.10303,0.98103,0.1642,-0.01507,-1.33809,1.02428
-0.18972,0.93945,0.28537,-0.3983,0.02553,0.38768
-0.29641,0.89202,0.34125,-1.01214,0.54918,-0.09166
-0.3552,0.85455,0.37892,-1.32254,0.94819,0.19297
-0.34641,0.84482,0.40777,0.00605,1.48162,-0.06136
-0.33887,0.82609,0.45027,1.25799,2.10053,-2.20433
-0.35362,0.79933,0.48583,0.98646,1.55039,-2.12511
-0.37053,0.77944,0.50516,0.66848,0.45028,-0.83244
-0.37684,0.7735,0.5096,0.3244,-0.0442,-0.66324
-0.38168,0.77527,0.50326,0.23564,-0.31098,-0.93763
-0.38169,0.78721,0.48436,0.85665,-0.47021,-0.52782
-0.36697,0.80452,0.46699,1.11981,-0.7164,0.05805
-0.35083,0.83261,0.42858,1.08872,-0.87015,-0.11795
-0.33739,0.8661,0.36883,0.32748,-0.76628,-1.08154
-0.31852,0.89874,0.30136,-0.08857,-0.22776,-0.08162
-0.29699,0.92747,0.22716,-0.37091,0.18887,0.20509
-0.27408,0.95103,0.14292,-0.81096,0.38389,-0.38424
-0.24645,0.96702,0.06435,-0.86551,1.11788,-0.71052
-0.21761,0.97601,0.00699,-0.8408,1.57752,-0.79868
-0.15969,0.98591,-0.04983,0.02516,2.23803,-0.30078
-0.09008,0.99085,-0.10046,-0.38683,1.39055,-0.19007
-0.0409,0.98704,-0.15515,-0.67366,0.94397,-0.07759
-0.01269,0.97602,-0.21731,-0.24533,0.10216,0.18
-0.00944,0.95929,-0.28226,0.00419,-0.10057,0.21036
-0.02785,0.94271,-0.33246,0.14942,-0.7383,0.18738
-0.04502,0.93838,-0.34266,-0.49366,-2.13746,0.21318
-0.04888,0.94643,-0.31918,-0.3549,-2.38218,0.37293
-0.03636,0.96595,-0.25616,-0.20952,-1.97482,0.51154
-0.03679,0.98469,-0.17036,-0.09364,-1.03274,0.37767
-0.05083,0.99412,-0.09565,-0.07751,-0.60773,-0.06715
-0.05692,0.99607,-0.06786,0.06045,-0.26151,-0.30629
-0.033,0.99637,-0.07852,0.57596,0.25688,-0.55907
-0.00593,0.99917,-0.0402,0.29757,0.51552,0.05095
-0.0511,0.9984,-0.02408,-1.8946,1.88214,-0.33595
-0.07916,0.99686,-0.00322,-2.87306,1.29027,-0.03612
-0.06623,0.99765,0.01726,-0.02554,-0.43876,1.02273
-0.07349,0.99039,0.11719,0.15964,-0.98447,1.18607
-0.12455,0.95701,0.26195,-0.21339,-0.72293,0.67291
-0.21881,0.9018,0.37268,-0.53066,0.20857,0.68732
-0.32302,0.83506,0.44535,-0.9577,0.467,0.51228
-0.33896,0.81667,0.46707,-0.92694,1.4846,1.28988
-0.31339,0.83158,0.45855,0.69076,2.20004,-2.53824
-0.30666,0.81755,0.48741,1.02793,1.57694,-2.38548
-0.31316,0.80311,0.5069,0.87791,0.61254,-0.85261
-0.32372,0.79717,0.50963,0.33037,-0.15161,-0.84834
-0.33155,0.79627,0.50599,0.28782,-0.22778,-1.20397
-0.33521,0.80494,0.4896,0.76194,-0.41103,-0.33861
-0.31835,0.81749,0.47996,1.05352,-0.72928,-0.01497
-0.29633,0.84138,0.45197,1.19501,-0.86482,-0.16503
-0.28572,0.8716,0.39835,0.54483,-0.68645,-1.06612
-0.27036,0.90325,0.33324,0.1145,-0.2622,-0.49984
-0.25221,0.93231,0.25922,-0.14845,0.089,-0.05353
-0.23911,0.95572,0.17156,-0.98962,0.52895,-0.22282
-0.20974,0.97385,0.08734,-1.11519,1.19098,-0.62044
-0.17923,0.98357,0.02143,-1.09213,1.39448,-1.01971
-0.1279,0.99063,-0.04786,-0.18412,1.91422,-0.25838
-0.06522,0.99099,-0.11695,-0.45014,1.40551,-0.02021
-0.02108,0.98315,-0.1816,-0.89131,1.07735,0.02155
0.00216,0.96886,-0.2476,-0.66073,0.27203,-0.09001
0.00728,0.95241,-0.30473,-0.18968,-0.1494,0.1256
-0.01399,0.93686,-0.34942,0.07566,-0.34863,0.12936
-0.04222,0.93145,-0.36142,0.10385,-1.38529,-0.03798
-0.04874,0.93979,-0.33825,-0.09106,-2.10525,0.12974
-0.04026,0.95489,-0.29421,-0.09081,-2.0785,0.24805
-0.03306,0.97508,-0.2194,-0.04877,-1.28704,0.43453
-0.04208,0.9894,-0.13902,-0.1613,-0.91197,0.32075
-0.05174,0.99499,-0.08559,-0.22556,-0.74547,0.21805
-0.04525,0.99526,-0.08611,-0.16475,0.15376,-0.55445
-0.01904,0.99291,-0.11737,-0.99123,2.42329,-0.04012
-0.03727,0.99334,-0.10905,-0.973,2.42286,-0.04844
-0.04409,0.99787,-0.04807,-0.89456,-1.13639,-1.05792
-0.02521,0.99887,-0.04034,-0.1687,-0.51686,0.60995
-0.03401,0.99798,0.0536,-0.13739,-0.91829,1.26287
-0.08663,0.97683,0.19572,-0.43244,-0.62275,0.86796
-0.17884,0.93695,0.30022,-0.44948,0.12581,0.1009
-0.29192,0.88465,0.36356,-0.53632,0.57405,-0.1603
-0.34973,0.8355,0.42383,-0.65448,1.96901,1.08783
-0.32428,0.83311,0.44808,-0.67994,1.9714,1.06358
-0.30039,0.83239,0.46572,1.6303,2.34088,-2.69605
-0.2961,0.81682,0.4951,0.96993,0.80357,-1.26077
-0.29718,0.80578,0.51225,0.56079,-0.0769,-0.54298
-0.30211,0.80078,0.51719,-0.00961,-0.18103,-0.8176
-0.30565,0.80172,0.51364,0.36368,-0.29612,-1.0986
-0.30336,0.80956,0.50257,0.77027,-0.59669,-0.27209
-0.28706,0.82283,0.49045,0.89842,-0.66823,-0.05491
-0.2767,0.8477,0.45259,0.85306,-0.82678,-1.03074
-0.27418,0.87972,0.38848,0.17907,-0.49506,-1.40285
-0.26372,0.9129,0.31156,-0.0436,-0.20803,-0.70745
-0.25336,0.94014,0.22792,-0.68104,0.62239,0.46239
-0.23123,0.96422,0.12966,-1.07251,0.86265,-0.38085
-0.20001,0.97883,0.04353,-0.92759,1.259,-0.52419
-0.16452,0.98605,-0.02522,-0.22287,2.6675,-0.52846
-0.09817,0.99126,-0.08816,0.01477,2.10315,0.02612
-0.03383,0.98675,-0.1587,-0.48039,1.70582,0.03945
0.00187,0.97154,-0.23686,-0.98835,0.41829,-0.0009
0.01376,0.94796,-0.31809,-0.46844,-0.0034,0.23706
0.00241,0.92198,-0.38723,-0.32892,-0.12481,0.37547
-0.02156,0.90445,-0.42604,0.33474,-1.18773,0.27806
-0.04262,0.90311,-0.42729,0.11085,-2.0289,0.29566
-0.0338,0.9176,-0.39607,-0.05339,-2.38363,0.45287
-0.00109,0.946,-0.32417,-0.43116,-1.7453,0.68088
0.01693,0.9746,-0.22332,-0.45245,-1.22648,0.54764
0.01058,0.992,-0.12579,-0.41148,-1.04898,0.36301
-0.01048,0.99829,-0.05751,-0.23729,-0.56853,0.00755
-0.0269,0.99827,-0.05222,0.01863,0.006,-0.26076
-0.0147,0.99784,-0.06409,0.19243,0.16607,-0.34187
-0.00749,0.9996,-0.02741,0.00157,0.73864,0.23248
-0.09176,0.99569,-0.01327,-2.00234,2.11994,-0.83778
-0.1231,0.9912,0.04855,-2.60486,1.35412,0.73419
-0.1045,0.99021,0.09252,-0.4004,-0.13802,0.20701
-0.11159,0.97966,0.16675,0.17342,-1.16195,0.6922
-0.15037,0.95127,0.26922,0.21731,-1.2155,0.43986
-0.23895,0.89846,0.36833,-0.20082,0.29264,0.63651
-0.31893,0.84697,0.42535,-1.53693,1.22942,1.62863
-0.30752,0.84665,0.4343,-0.94991,1.68343,1.20864
-0.28766,0.84293,0.45467,1.41489,2.4844,-2.71613
-0.28948,0.82295,0.48883,0.91144,0.82946,-1.26859
-0.30311,0.80868,0.50414,0.62014,0.31492,-1.05084
-0.30991,0.80276,0.50944,0.15624,0.00838,-0.79931
-0.32281,0.80307,0.50087,0.41393,-0.08731,-0.99054
-0.32428,0.81095,0.48703,0.61592,-0.16321,-0.80463
-0.30352,0.82654,0.47404,1.1458,-0.69069,-0.06024
-0.289,0.85343,0.43374,0.73039,-0.66402,-1.2808
-0.28133,0.8851,0.37075,0.72272,-0.69569,-1.21781
-0.26017,0.9195,0.29466,-0.26789,0.54168,0.24582
-0.23927,0.94764,0.2115,-0.69169,0.47761,0.1199
-0.20552,0.97247,0.10987,-0.91749,0.54096,-0.35957
-0.16919,0.98541,0.01851,-1.03225,1.60382,-0.98371
-0.13103,0.98983,-0.05533,-0.71149,2.11179,-0.50716
-0.07527,0.9899,-0.12015,-0.41719,2.00076,-0.03603
-0.02227,0.98321,-0.18111,-1.01123,1.38379,0.00605
0.01413,0.96789,-0.25096,-0.843,0.63037,0.01969
0.03024,0.94832,-0.31587,-0.63445,0.14306,0.1356
0.02369,0.92747,-0.37316,-0.05241,-0.43047,0.17061
0.00149,0.91279,-0.40844,0.06745,-0.7647,0.13704
-0.0194,0.91383,-0.40564,0.03155,-1.68595,-0.00456
-0.0276,0.92513,-0.37865,0.18981,-2.00506,0.51919
-0.01998,0.94899,-0.31466,0.25371,-2.00321,0.73166
-0.01511,0.97628,-0.21599,-0.02589,-1.43635,0.68536
-0.03007,0.99137,-0.12762,-0.23987,-0.85546,0.27265
-0.05071,0.99596,-0.0741,-0.1295,-0.31498,-0.15982
-0.05577,0.99496,-0.08336,0.03659,0.01256,-0.29973
-0.02705,0.99561,-0.08965,0.07902,1.14024,-0.45679
-0.04954,0.99725,-0.05513,-1.9905,2.10798,-1.14238
-0.07225,0.9972,-0.01937,-2.31071,1.39565,0.05761
-0.05026,0.99838,-0.02677,-0.6879,-0.04039,-0.48199
-0.04913,0.99808,0.03764,-0.06311,-0.9724,1.13042
-0.08594,0.98282,0.16333,0.03723,-1.3535,1.11142
-0.16715,0.94308,0.28751,-0.3002,-0.08476,0.70672
-0.28815,0.88318,0.37009,-0.9133,0.61875,0.06251
-0.33847,0.85199,0.39944,-1.57735,1.22186,0.58621
-0.32063,0.85532,0.40698,1.62151,2.36148,-2.31007
-0.31509,0.84234,0.43725,1.71031,2.56322,-2.22475
-0.3056,0.83011,0.4664,0.81576,0.55015,-1.05752
-0.30806,0.81901,0.48407,0.13814,0.01566,-0.65593
-0.31116,0.81648,0.48635,-0.07597,-0.16204,-1.23008
-0.31977,0.82341,0.46877,0.49446,-0.22509,-1.04911
-0.321,0.83436,0.44811,0.87515,-0.51629,-0.18958
-0.30671,0.84989,0.42851,1.08262,-0.8613,0.03954
-0.29703,0.87319,0.38641,0.96251,-1.01877,-0.78042
-0.28899,0.90032,0.32543,0.3649,-0.61018,-1.10888
-0.27067,0.92832,0.25489,-0.01372,-0.3006,-0.08779
-0.24775,0.95212,0.17914,-0.55323,0.47972,0.41484
-0.21469,0.9722,0.09341,-0.86116,0.78189,-0.30025
-0.17864,0.98386,0.00997,-0.95507,1.37197,-0.54604
-0.14449,0.98802,-0.05429,-0.81711,2.25616,-0.72267
-0.08025,0.9905,-0.11165,-0.38913,2.07978,-0.34578
-0.01507,0.98583,-0.16708,-1.2146,0.78976,-0.14049
0.02922,0.97171,-0.23438,-0.88335,0.38283,-0.10368
0.05112,0.95135,-0.30384,-0.25714,0.02079,0.08416
0.04586,0.93017,-0.36426,-0.09217,-0.13459,0.25978
0.02612,0.91415,-0.40452,0.06914,-0.75845,0.26127
0.00689,0.9127,-0.40858,-0.52797,-1.904,0.24982
-0.00013,0.92192,-0.38738,-0.39104,-1.94261,0.53539
0.00072,0.94359,-0.3311,-0.23696,-1.84058,0.66269
-0.003,0.9713,-0.23786,-0.06857,-1.09024,0.48311
-0.0214,0.98857,-0.14922,-0.03589,-0.92929,0.21786
-0.02879,0.99481,-0.09762,0.25038,-0.43249,0.10653
-0.00068,0.99764,-0.06863,0.53654,-0.13645,-0.18993
0.0355,0.99918,-0.01936,-0.03707,0.59817,0.22979
-0.00752,0.99977,-0.02026,-1.15951,2.00936,-0.8829
-0.03341,0.99933,-0.01467,-3.09679,1.89919,0.2138
-0.00487,0.99999,-0.00174,-0.06309,-0.22248,0.01352
0.00424,0.99589,0.09048,0.1171,-0.80293,1.26763
-0.03217,0.97485,0.22054,0.03104,-1.42738,0.9999
-0.1127,0.9377,0.32866,-0.24069,-0.28246,0.80592
-0.225,0.8936,0.3884,-0.36229,0.42293,0.1866
-0.28557,0.85931,0.4243,-0.96555,1.24059,-0.00754
-0.28569,0.84897,0.44455,0.44509,1.72982,-0.60707
-0.28255,0.84262,0.45843,0.99803,2.10954,-2.0724
-0.27727,0.82866,0.48625,0.75348,0.92645,-1.13846
-0.28025,0.81502,0.50716,0.67894,0.18094,-0.68451
-0.28768,0.81067,0.50996,0.28261,0.09955,-0.73739
-0.2954,0.8159,0.49704,0.55402,-0.19691,-0.9754
-0.29452,0.82952,0.47449,0.79333,-0.47697,-0.25086
-0.27703,0.84652,0.45459,0.86242,-0.60685,0.02476
-0.26296,0.87008,0.41692,0.73739,-1.01081,-0.81484
-0.25161,0.90015,0.35555,0.31366,-0.6134,-0.85639
-0.23187,0.93022,0.28448,0.08082,-0.30051,-0.47454
-0.21351,0.9556,0.20308,-0.89315,0.49771,-0.13516
-0.18131,0.97547,0.12483,-1.02147,0.68365,-0.48847
-0.15021,0.98713,0.05479,-0.98197,0.84618,-0.77921
-0.11028,0.99382,-0.01248,-0.48628,2.06344,-0.29924
-0.05135,0.99582,-0.07553,-0.31887,2.0155,-0.11119
-0.00183,0.99097,-0.13408,-0.56619,1.62266,-0.1047
0.03151,0.97823,-0.20513,-0.65477,0.42691,0.02285
0.04747,0.95882,-0.28003,-0.48683,0.04385,0.13182
0.04189,0.93655,-0.34803,-0.31737,-0.0442,0.17376
0.01531,0.92007,-0.39145,0.01483,-0.69795,0.06597
-0.01042,0.9202,-0.3913,0.01331,-1.64942,0.21017
-0.01099,0.93246,-0.3611,-0.15583,-1.96907,0.30223
0.01156,0.95484,-0.2969,-0.09462,-2.00496,0.64581
0.026,0.97879,-0.2032,-0.2984,-1.07916,0.40737
0.01993,0.99357,-0.11145,-0.33089,-0.97196,0.19368
0.00687,0.99815,-0.06042,-0.01801,-0.23433,-0.4621
0.00997,0.99786,-0.06463,0.46186,0.26958,-0.63759
0.0287,0.99913,-0.03013,0.33302,0.21324,-0.06798
-0.02187,0.99966,0.01435,-3.18972,2.33501,-1.40284
-0.06863,0.99559,0.06401,-3.23006,1.55141,0.59664
-0.05056,0.99416,0.0953,-0.80268,-0.17332,-0.52545
-0.06024,0.98488,0.16244,0.05767,-0.73625,1.00152
-0.10443,0.95487,0.27805,0.07719,-0.92169,0.36001
-0.18057,0.90239,0.39126,-0.0155,-0.21887,0.78166
-0.26745,0.84237,0.46785,-0.76681,0.65677,0.68751
-0.28425,0.81674,0.50213,-0.34765,1.22064,0.71733
-0.26799,0.83082,0.48777,0.37563,1.46685,-0.32053
-0.26489,0.81517,0.51511,0.97866,1.23076,-1.57594
-0.26257,0.80154,0.5372,0.55946,0.28452,-0.48996
-0.26711,0.79604,0.54311,0.32708,0.03019,-0.65197
-0.26964,0.79565,0.54243,0.22565,-0.21708,-1.42086
-0.27539,0.81063,0.51675,0.66395,-0.52009,-0.24791
-0.26452,0.8279,0.49459,0.797,-0.7018,-0.0369
-0.24179,0.85048,0.46714,0.91292,-1.01891,-0.31225
-0.22896,0.87957,0.41704,0.29523,-0.54106,-1.279
-0.21465,0.91225,0.34888,0.1192,-0.23467,-0.69315
-0.19984,0.94068,0.27419,-0.37869,0.55692,0.20377
-0.1903,0.96391,0.18617,-1.39829,1.12843,-0.54545
-0.15812,0.98222,0.10124,-1.37405,1.35407,-0.97471
-0.12884,0.99119,0.03079,-0.94555,2.08086,-0.59207
-0.07879,0.9959,-0.04434,-0.27245,1.7513,-0.16649
-0.01842,0.99347,-0.1126,-0.6156,1.33313,-0.19935
0.02529,0.98376,-0.1777,-0.79046,0.5366,-0.06029
0.05329,0.96654,-0.25091,-0.40824,-0.00011,0.06573
0.05892,0.94448,-0.32323,-0.28956,-0.11648,0.2107
0.04349,0.92384,-0.38029,0.19499,-1.15231,0.02305
0.02509,0.91916,-0.39309,-0.21486,-2.06552,0.02113
0.02492,0.93289,-0.35929,-0.31403,-2.30881,0.14156
0.03074,0.95219,-0.30396,-0.11547,-1.74146,0.6365
0.03692,0.97625,-0.21347,-0.12617,-1.04772,0.56262
0.01992,0.99349,-0.11217,-0.1766,-0.89597,0.41842
-0.00878,0.99924,-0.03796,-0.04337,-0.36386,0.01256
-0.02289,0.99951,-0.02155,0.3001,0.25455,-0.02453
-0.0023,0.99975,-0.02237,0.44851,0.18592,-0.3334
0.0101,0.99953,0.02908,-1.18863,1.71115,-1.17257
-0.06389,0.9979,0.01037,-3.19447,2.1928,-0.16127
-0.07448,0.99688,0.02614,-1.95696,1.01191,0.8347
-0.0528,0.99442,0.09133,0.12209,-0.94387,0.53342
-0.04093,0.97782,0.2054,0.27679,-1.23161,0.69694
-0.07805,0.94497,0.31771,0.14717,-1.08749,0.28689
-0.1634,0.89528,0.41447,-0.18931,0.44584,0.32366
-0.28449,0.83932,0.46326,-1.28531,1.19669,0.34732
-0.31778,0.80952,0.49365,-1.06435,1.62677,0.8539
-0.28106,0.82294,0.49374,1.10076,1.36051,-2.75047
-0.26631,0.81692,0.51159,0.72632,0.87148,-1.70719
-0.27103,0.79866,0.53729,0.63378,0.74561,-1.14018
-0.27747,0.79512,0.53925,0.21079,0.43766,-1.00887
-0.28159,0.79655,0.53499,0.2574,-0.02616,-0.715
-0.28946,0.80504,0.5178,0.38031,-0.26648,-0.62391
-0.28249,0.81781,0.50139,0.91269,-0.67413,-0.30498
-0.27175,0.83871,0.47193,0.97345,-0.82487,-0.68224
-0.26418,0.86673,0.42307,0.71723,-0.75343,-0.99921
-0.24872,0.89898,0.36052,0.08313,-0.53242,-0.81076
-0.22881,0.93168,0.28216,-0.25971,0.07633,0.05572
-0.21831,0.95627,0.19464,-0.55533,0.51382,0.37205
-0.20503,0.9741,0.09538,-1.0565,1.27883,-0.45262
-0.17638,0.9842,0.01589,-0.69852,1.76545,-0.52877
-0.13076,0.99041,-0.04467,-0.27723,2.39616,-0.5014
-0.05952,0.99186,-0.11256,-0.08159,1.46282,-0.2209
-0.00179,0.98341,-0.1814,-1.05555,0.92325,-0.0866
0.03001,0.96659,-0.25456,-0.83002,0.24125,0.12181
0.04087,0.94463,-0.3256,-0.38399,-0.14107,-0.0288
0.02244,0.92794,-0.37207,-0.2382,-0.77767,0.20344
-0.00359,0.9196,-0.39285,-0.23564,-1.02598,0.12786
-0.02252,0.92338,-0.38322,-0.34257,-1.54121,-0.10111
-0.03061,0.93954,-0.34108,-0.05585,-1.79413,0.10781
-0.02847,0.96068,-0.27618,0.13981,-1.75058,0.27861
-0.0165,0.9833,-0.18126,0.09908,-1.32192,0.21969
-0.02591,0.99504,-0.09604,0.10855,-0.60406,0.19547
-0.03985,0.99801,-0.0489,0.13055,-0.26377,0.15937
-0.02719,0.99889,-0.03856,0.24911,0.07962,-0.31366
0.00886,0.99991,-0.00958,0.01824,-0.03759,0.31512
0.00697,0.99795,0.06361,-0.38981,0.73028,0.60781
-0.07681,0.99666,0.02772,-2.70275,1.71078,0.50636
-0.08237,0.99565,0.04353,-0.65588,-0.04787,-0.4468
-0.08038,0.99385,0.07611,-0.19533,-0.36519,0.13347
-0.09512,0.98065,0.1711,0.12141,-1.12552,0.61549
-0.14935,0.94289,0.29775,-0.26824,-0.36113,0.78734
-0.23959,0.88043,0.40919,-0.43193,0.1149,0.74988
-0.3106,0.82439,0.47319,-0.81613,1.07279,1.27904
-0.30308,0.81841,0.48821,0.74905,1.52041,-0.09792
-0.28772,0.83273,0.47305,1.43907,2.36783,-4.138
-0.29054,0.81419,0.50267,0.5927,0.5381,-0.93686
-0.29497,0.79935,0.52348,0.42838,0.29356,-0.67916
-0.30593,0.79254,0.52752,0.30182,0.23936,-0.89691
-0.32084,0.79144,0.52027,0.55121,-0.0955,-1.09969
-0.3276,0.80324,0.49747,0.74571,-0.3558,-0.31171
-0.31102,0.82037,0.47986,0.84883,-0.52102,-0.0943
-0.28992,0.84446,0.45036,0.88837,-0.85779,-0.74252
-0.27968,0.8757,0.39362,0.48237,-0.60041,-0.8902
-0.26547,0.90561,0.33076,0.25977,-0.40129,-0.52888
-0.24832,0.93242,0.26254,-0.39337,0.40444,0.31664
-0.23296,0.95604,0.17812,-1.04017,0.72562,-0.51708
-0.20179,0.97397,0.10328,-1.04737,1.13219,-0.55022
-0.1694,0.98476,0.03932,-0.70604,2.23415,-0.52007
-0.1122,0.99313,-0.03315,-0.41104,1.59224,-0.15116
-0.0454,0.9942,-0.09755,-0.59721,1.30355,-0.07961
0.00413,0.98728,-0.15894,-0.86981,0.28063,-0.07637
0.0371,0.97248,-0.23001,-0.44915,-0.066,-0.07799
0.04722,0.95383,-0.29662,-0.30014,-0.20326,-0.08958
0.03087,0.9385,-0.3439,0.16601,-0.72266,0.00047
0.00301,0.93403,-0.35717,0.27757,-1.42003,-0.04705
-0.01451,0.94734,-0.3199,0.13835,-1.75627,-0.05097
-0.0134,0.96755,-0.25234,0.03364,-1.90666,0.16628
-0.00534,0.98572,-0.1683,-0.10644,-1.0205,0.26536
-0.01527,0.99597,-0.08842,-0.17024,-0.76014,0.22148
-0.03488,0.99898,-0.02863,-0.30696,-0.23417,0.09438
-0.0383,0.99915,-0.01496,0.00949,0.09463,-0.14994
-0.01516,0.99977,-0.01529,0.16228,-0.06158,-0.34849
-0.00536,0.99954,0.03003,-1.93772,1.95116,-1.23654
-0.06909,0.99688,0.03824,-2.69849,2.27889,-1.20888
-0.08124,0.99315,0.08401,-1.40068,0.40849,0.39617
-0.06946,0.99182,0.10706,-0.25889,-0.39479,-0.18131
-0.0915,0.96365,0.25102,-0.11098,-1.2348,0.67236
-0.14408,0.92417,0.35375,-0.21616,-0.9448,0.2851
-0.22966,0.86733,0.44159,-0.38759,0.04568,0.24249
-0.31888,0.81015,0.4919,-0.71515,0.83162,0.43019
-0.35675,0.75755,0.54667,-0.61989,1.04816,0.706
-0.33402,0.75126,0.56925,0.67697,1.67617,-0.17655
-0.31631,0.74287,0.58999,1.39165,2.25354,-2.06202
-0.31835,0.72163,0.61474,1.07792,1.07259,-1.16912
-0.32552,0.7125,0.6216,0.6856,0.60896,-0.91514
-0.32717,0.70896,0.62477,0.46508,0.02891,-1.15766
-0.33463,0.71809,0.61022,0.61446,-0.09073,-0.99631
-0.32953,0.73695,0.59019,1.06357,-0.60079,-0.28722
-0.3093,0.76562,0.56406,0.99732,-0.76241,-0.49803
-0.29653,0.80038,0.52101,0.86915,-0.8947,-1.00958
-0.29075,0.84065,0.45692,0.13331,-0.04174,-0.38169
-0.27685,0.87922,0.38772,-0.33959,0.43619,0.03857
-0.27204,0.91632,0.29386,-0.76209,0.44005,-0.44834
-0.24526,0.94644,0.20998,-1.21272,0.94423,-1.2195
-0.21217,0.96706,0.14062,-0.78206,1.62371,-0.47043
-0.16824,0.98348,0.06679,-0.68961,1.88777,-0.29135
-0.1195,0.99283,-0.00243,-0.54039,1.34547,-0.29196
-0.07101,0.99575,-0.05874,-0.59118,0.64857,-0.15055
-0.0274,0.99221,-0.12151,-0.52332,0.47085,-0.11465
-0.00297,0.98135,-0.19219,-0.24988,0.02196,-0.13957
-0.01061,0.9654,-0.26054,0.11349,-0.55174,-0.02733
-0.04039,0.95416,-0.29656,0.35104,-0.84434,0.16381
-0.05865,0.95837,-0.27944,0.09041,-2.28433,0.19394
-0.03839,0.97279,-0.22849,-0.05532,-2.35356,0.4
-0.01349,0.98911,-0.14656,-0.27959,-2.01056,0.32134
-0.01211,0.99872,-0.04909,-0.31164,-1.04842,0.13314
-0.03591,0.99852,0.04081,-0.16905,-0.78256,-0.09492
-0.06585,0.99432,0.08364,-0.08381,-0.58917,-0.22649
-0.07401,0.99472,0.07112,0.26358,0.3517,-0.36841
-0.08659,0.99297,0.08075,-0.91031,1.89572,-0.10012
-0.15747,0.98249,0.0996,-2.01549,2.68464,-1.23832
-0.16686,0.97652,0.13628,-0.90623,-0.27045,-0.76725
-0.15284,0.97311,0.17233,0.15183,-1.05474,0.77321
-0.16343,0.95437,0.24995,0.2089,-1.17161,0.7542
-0.21762,0.91383,0.34286,-0.16373,0.04474,0.64995
-0.31751,0.84971,0.42092,-0.94886,0.54935,0.37493
-0.40074,0.77943,0.48156,-1.06781,0.85296,0.38083
-0.3916,0.76548,0.51058,0.25299,1.42214,0.18152
-0.35763,0.77186,0.52567,0.92448,1.53743,-0.94753
-0.34692,0.75145,0.56122,1.13992,2.05437,-1.80544
-0.34981,0.73368,0.58253,0.28226,0.41059,-1.10141
-0.35513,0.72799,0.58644,0.11633,0.35364,-1.17218
-0.36386,0.72669,0.58268,0.15523,-0.12431,-1.04798
-0.37433,0.73309,0.56786,0.57776,-0.28979,-0.73832
-0.36836,0.74468,0.55656,1.06884,-0.68127,-0.33604
-0.35762,0.76872,0.53027,1.24927,-0.78027,-0.43952
-0.35526,0.79719,0.48814,0.59281,-0.62048,-0.98936
-0.35407,0.83054,0.42993,0.44701,-0.50246,-0.78337
-0.34341,0.86743,0.36006,-0.04312,0.2342,-0.10183
-0.33491,0.89957,0.28039,-0.83259,0.54401,-0.34312
-0.30165,0.93241,0.19906,-0.83251,0.87657,-0.46232
-0.26555,0.95491,0.13276,-0.5931,1.82622,-1.0833
-0.21344,0.97441,0.07041,-0.3086,2.36227,-0.58648
-0.15185,0.98838,0.00716,-0.57157,1.61979,-0.19012
-0.10671,0.99256,-0.05857,-1.17515,0.83111,-0.09127
-0.07432,0.98832,-0.13302,-0.52523,0.10947,-0.14042
-0.05398,0.97844,-0.19935,-0.12875,-0.08512,-0.11933
-0.05035,0.96843,-0.24416,0.02247,-0.30557,-0.03995
-0.05871,0.96218,-0.26603,0.09698,-1.03842,-0.08219
-0.06941,0.96516,-0.2523,-0.07164,-1.79997,0.01461
-0.06975,0.97444,-0.21354,-0.06166,-2.01733,-0.00643
-0.05827,0.9865,-0.15304,0.10292,-1.68906,0.33094
-0.05436,0.99618,-0.06839,-0.03046,-1.07737,0.28322
-0.0763,0.99692,0.0182,-0.11608,-0.88735,0.18944
-0.10656,0.99134,0.0768,-0.24575,-0.33983,-0.11856
-0.11983,0.9894,0.08203,-0.00033,0.14045,-0.31654
-0.1049,0.99201,0.0701,0.15742,0.19277,-0.62854
-0.12894,0.98862,0.07745,-2.10917,2.24027,-1.83342
-0.16669,0.98112,0.0981,-1.40219,0.27125,0.36698
-0.15887,0.98078,0.11331,-0.71642,-0.53588,-0.51608
-0.16006,0.96805,0.19301,0.13435,-0.91627,0.83687
-0.2143,0.9192,0.33036,-0.0061,-0.99821,0.62735
-0.29453,0.8587,0.41939,-0.10855,-0.42421,0.6244
-0.40128,0.78131,0.47806,-0.72378,0.81067,0.20273
-0.46267,0.71162,0.52871,-0.84272,1.56304,0.89011
-0.44321,0.71129,0.54556,0.01423,1.85214,0.35331
-0.41356,0.69741,0.58532,1.1551,1.85942,-1.85526
-0.38717,0.67709,0.62581,1.07955,1.04071,-1.31252
-0.38596,0.65824,0.64634,0.72571,0.71401,-1.396
-0.39028,0.65318,0.64887,0.02477,0.19058,-1.02363
-0.39593,0.65294,0.64569,0.34138,-0.11598,-1.06184
-0.40197,0.66629,0.62807,0.55667,-0.12345,-0.93993
-0.39164,0.68402,0.61542,1.03492,-0.51199,-0.28131
-0.37663,0.71182,0.59284,1.14512,-0.8074,-0.7297
-0.37275,0.75187,0.54382,0.86941,-0.74911,-1.19159
-0.361,0.79719,0.4839,0.14549,-0.38389,-0.58881
-0.34047,0.84361,0.41522,-0.39276,0.45408,0.10205
-0.32885,0.88451,0.33091,-0.59319,0.38699,-0.05668
-0.3132,0.91854,0.24122,-1.02369,1.34521,-1.05494
-0.29367,0.93993,0.17402,-0.87077,1.86527,-0.88644
-0.25113,0.96027,0.12169,-0.43101,2.28678,-0.6032
-0.18867,0.98023,0.05955,-0.31947,1.4679,-0.41959
-0.13405,0.99097,-0.00283,-0.76986,0.79899,-0.25109
-0.09845,0.99257,-0.07157,-0.53754,0.23992,-0.15415
-0.08098,0.98757,-0.13475,-0.0591,-0.17934,0.05636
-0.07203,0.98066,-0.18201,0.09141,-0.44217,-0.05777
-0.07259,0.97659,-0.2025,0.09522,-1.07614,-0.19947
-0.0763,0.97946,-0.18664,-0.1829,-2.25822,-0.00506
-0.07626,0.98589,-0.14902,0.02072,-2.17537,0.22359
-0.07337,0.9944,-0.076,0.0499,-1.73331,0.34671
-0.08728,0.99603,0.01758,6e-05,-0.85826,0.09273
-0.11628,0.98844,0.09729,0.01485,-0.66711,-0.04109
-0.14008,0.98094,0.13469,0.18065,-0.22978,-0.15225
-0.13783,0.98211,0.12832,0.38911,0.51365,-0.69826
-0.13946,0.98185,0.12855,-1.36238,3.07424,-0.64417
-0.19925,0.97077,0.13381,-2.50248,2.84356,-1.53493
-0.18039,0.97304,0.14373,-0.58464,-0.57124,-1.1103
-0.15353,0.97742,0.14517,0.2422,-0.93845,0.84917
-0.16037,0.95715,0.24112,0.38034,-1.32393,1.14115
-0.21539,0.9044,0.36833,-0.17245,-0.66644,0.43155
-0.31551,0.83804,0.44512,-0.34621,0.43776,0.1907
-0.4419,0.75867,0.47869,-0.78538,0.79863,-0.225
-0.46805,0.71563,0.51846,-0.59657,1.81698,0.57459
-0.4251,0.7143,0.55594,1.69303,2.11926,-2.31312
-0.40357,0.6996,0.58966,1.50747,2.17714,-2.2797
-0.39418,0.6799,0.61836,0.8724,0.7578,-1.07896
-0.39575,0.66816,0.63004,0.16682,0.1409,-0.71436
-0.39396,0.66509,0.63439,0.07429,-0.01197,-0.90559
-0.40356,0.66719,0.6261,0.5043,-0.21176,-1.10891
-0.40354,0.67819,0.61418,0.98246,-0.32435,-0.44668
-0.39343,0.69563,0.60109,1.16647,-0.44682,-0.26495
-0.39,0.72491,0.56781,0.94106,-0.74166,-0.93875
-0.39002,0.76377,0.51433,0.47163,-0.53353,-1.25695
-0.38042,0.80832,0.44932,0.18559,-0.456,-0.9568
-0.36698,0.85019,0.3775,-0.53326,0.57334,0.06647
-0.35413,0.88687,0.29675,-0.94201,0.63178,-0.44465
-0.33647,0.91526,0.22154,-0.98091,0.97264,-0.51941
-0.31552,0.93397,0.16774,-0.33447,2.35791,-0.55242
-0.26324,0.95889,0.10597,0.02141,1.8546,-0.43939
-0.20112,0.97878,0.0392,-0.05234,1.46478,-0.3616
-0.15896,0.987,-0.02373,-0.67914,0.53151,-0.30787
-0.1325,0.98776,-0.0823,-0.34637,0.17053,-0.19373
-0.11612,0.98457,-0.13087,-0.21843,0.05949,-0.067
-0.10643,0.9808,-0.16342,-0.02851,-0.54411,-0.14474
-0.10288,0.97909,-0.17547,-0.16193,-1.2142,-0.07436
-0.10126,0.98255,-0.15602,-0.20254,-1.78615,-0.11874
-0.09545,0.98965,-0.10716,0.25263,-1.87405,0.41078
-0.09664,0.99506,-0.02273,0.17772,-1.21726,0.22315
-0.11546,0.99101,0.06754,0.17413,-0.96463,0.05277
-0.14121,0.98178,0.12715,0.16576,-0.41754,-0.24977
-0.15418,0.97947,0.1299,0.31954,0.38778,-0.74479
-0.13855,0.98385,0.11333,0.38841,0.33028,-0.85257
-0.14791,0.97835,0.14477,-0.45103,0.94611,0.23076
-0.2069,0.96898,0.13517,-2.80314,2.20035,-1.37533
-0.1943,0.97093,0.13978,-1.03656,-0.14624,-0.36475
-0.17955,0.97049,0.16098,0.01098,-0.60479,-0.13161
-0.19787,0.94247,0.26945,0.33108,-1.22828,0.90404
-0.25885,0.88288,0.39182,0.03485,-0.97353,0.4281
-0.36526,0.8045,0.46837,-0.44307,0.56876,0.22124
-0.47576,0.716,0.51088,-1.00086,0.97974,-0.16379
-0.47801,0.68627,0.54821,-0.73872,2.10802,0.8962
-0.4254,0.6992,0.57459,1.16834,1.93433,-1.75839
-0.40081,0.681,0.61285,1.18074,1.64076,-1.98035
-0.39903,0.66041,0.6361,0.83034,0.71126,-1.03695
-0.40521,0.6496,0.64329,0.11845,0.07435,-1.21818
-0.40971,0.64943,0.64061,0.52763,0.00844,-1.30996
-0.4184,0.66292,0.62087,0.71784,-0.12093,-1.0764
-0.4102,0.68056,0.6071,1.0266,-0.51553,-0.12428
-0.39614,0.70704,0.5858,0.92497,-0.82626,-0.52856
-0.39282,0.74467,0.53959,0.73904,-0.7796,-0.96475
-0.38489,0.78937,0.47828,0.25637,-0.07967,-0.54815
-0.36857,0.83339,0.41185,-0.18751,0.56952,0.05325
-0.35983,0.8744,0.3255,-0.41411,0.53973,-0.18197
-0.33711,0.90808,0.24848,-0.81524,1.24384,-0.95085
-0.30442,0.93317,0.19109,-0.79507,1.55494,-1.17906
-0.24793,0.95975,0.13193,-0.44252,2.24488,-0.56847
-0.19092,0.97911,0.06998,-0.33264,1.7213,-0.20156
-0.1478,0.989,0.00486,-0.89947,0.85674,-0.2059
-0.11556,0.99124,-0.064,-0.47265,0.17624,-0.10002
-0.09585,0.98772,-0.12333,-0.21514,-0.15333,-0.06659
-0.08641,0.98257,-0.1646,0.0041,-0.58006,-0.11012
-0.08359,0.98067,-0.17693,0.051,-0.86795,-0.10722
-0.07958,0.98555,-0.1495,-0.07956,-2.14304,-0.16456
-0.06463,0.99303,-0.09861,0.10509,-2.34482,0.26597
-0.0508,0.9986,-0.01483,0.03513,-1.99083,0.27504
-0.0684,0.99439,0.08071,-0.12938,-0.98162,0.22395
-0.10059,0.98313,0.15275,-0.12629,-0.74741,-0.04229
-0.1254,0.97827,0.16513,-0.02336,-0.43628,-0.27028
-0.12505,0.98161,0.14422,0.45354,0.44963,-0.75709
-0.14959,0.97944,0.13538,-1.14373,2.42451,-0.6188
-0.20952,0.96414,0.16292,-2.30919,1.49453,0.47786
-0.19717,0.96395,0.1787,-0.72624,-0.33026,-1.04097
-0.19573,0.95436,0.22558,0.10693,-0.59505,1.02922
-0.22768,0.92202,0.31312,0.13078,-1.17057,0.99491
-0.29688,0.86299,0.4088,-0.25712,0.10775,0.37865
-0.39747,0.7807,0.48222,-0.3693,0.49628,0.14392
-0.46534,0.70708,0.53245,-0.89817,0.92334,0.13396
-0.45161,0.68788,0.56822,-0.16146,1.73662,0.12755
-0.40641,0.69461,0.59358,0.59976,1.79754,-0.22649
-0.39501,0.67423,0.624,0.99549,1.31242,-1.65359
-0.40587,0.65166,0.64079,0.61174,0.20375,-0.8846
-0.41318,0.64361,0.64425,0.58244,0.19036,-0.7282
-0.42495,0.64091,0.63926,0.23364,0.06893,-1.28004
-0.42637,0.65064,0.62839,0.99735,-0.23067,-0.48064
-0.41216,0.66763,0.62,1.25658,-0.56733,-0.29577
-0.40607,0.69485,0.59353,1.26897,-0.72781,-0.55819
-0.41264,0.72894,0.54623,0.56344,-0.52431,-1.04127
-0.41309,0.77149,0.48389,0.15997,0.14219,-0.34891
-0.407,0.81347,0.41548,-0.12741,0.50576,0.03902
-0.3926,0.85763,0.33216,-0.94648,0.83408,-0.71294
-0.35813,0.89701,0.25907,-0.78059,1.05528,-0.87583
-0.31798,0.9275,0.19655,-0.63629,1.86098,-0.98979
-0.26097,0.95637,0.13132,-0.48593,2.54045,-0.42732
-0.21106,0.97509,0.06825,-0.83492,0.92941,-0.28347
-0.17643,0.98431,0.00027,-0.76511,0.54449,-0.09552
-0.1467,0.9869,-0.0671,-0.3582,0.1641,-0.07508
-0.12421,0.98505,-0.11941,-0.03921,-0.22726,-0.13919
-0.10917,0.98194,-0.15449,0.01584,-0.37502,-0.18402
-0.10745,0.98048,-0.16467,0.0535,-0.91069,-0.08725
-0.10926,0.98343,-0.14468,0.05842,-2.28946,0.18667
-0.09945,0.99022,-0.09786,0.16808,-2.37689,0.34369
-0.09148,0.99571,-0.01367,0.06789,-1.80739,0.40276
-0.10875,0.99052,0.08392,-0.13892,-0.90623,0.08772
-0.13976,0.97755,0.15766,-0.11265,-0.74879,-0.11043
-0.16378,0.97205,0.16824,0.28972,0.1944,-0.82855
-0.16321,0.9752,0.14949,0.38329,0.99959,-1.04665
-0.20039,0.96922,0.14302,-0.54357,1.93573,-0.0555
-0.24274,0.95499,0.17051,-1.79042,0.3029,0.03513
-0.22561,0.95845,0.17456,-0.16395,-0.13287,-1.02749
-0.23729,0.93968,0.24635,0.30124,-0.39003,0.90299
-0.28821,0.88995,0.35345,0.10466,-1.20398,0.55925
-0.36039,0.81912,0.44627,-0.10164,0.26697,0.68443
-0.45706,0.74131,0.49149,-0.09302,0.73075,0.45889
-0.49317,0.6929,0.526,-0.46255,1.02275,0.19086
-0.4651,0.69789,0.54463,0.1916,1.61641,-1.55862
-0.41571,0.69059,0.59183,0.3609,2.05729,-1.9714
-0.40496,0.66719,0.62519,0.9258,1.07809,-1.33442
-0.41816,0.64763,0.63696,0.59701,0.68448,-0.88965
-0.41703,0.64377,0.6416,0.42381,0.46663,-0.84736
-0.41574,0.6509,0.63521,0.47238,-0.24944,-1.09352
-0.41267,0.66675,0.6206,0.80635,-0.40311,-0.59813
-0.41099,0.6891,0.59684,1.08988,-0.57747,-0.32325
-0.41232,0.72377,0.5533,0.82082,-0.77967,-1.05527
-0.40991,0.76524,0.49637,0.36258,-0.52476,-0.95987
-0.40276,0.80917,0.42783,0.16748,-0.28043,-0.51752
-0.39118,0.85088,0.3507,-0.87031,0.57614,-0.26224
-0.36269,0.89081,0.27371,-0.65781,0.74456,-0.63479
-0.33645,0.91979,0.20197,-0.58386,0.95602,-0.77831
-0.29458,0.946,0.13528,-0.247,2.59041,-0.64619
-0.23498,0.969,0.07625,-0.14042,2.17312,-0.27753
-0.18495,0.98258,0.01839,-0.84684,1.15488,-0.30091
-0.15006,0.98741,-0.0501,-0.50343,0.12116,-0.03149
-0.12196,0.98586,-0.11492,-0.13912,-0.23246,0.0175
-0.10712,0.98029,-0.16601,0.03095,-0.40755,0.02958
-0.10389,0.97637,-0.1895,0.15284,-0.84614,-0.069
-0.10145,0.97988,-0.17186,0.00291,-2.28506,-0.06323
-0.08555,0.98871,-0.12303,0.07601,-2.55712,0.20622
-0.07182,0.99678,-0.03566,0.01066,-1.93483,0.37909
-0.08951,0.9941,0.06125,-0.11125,-1.00625,0.22065
-0.12103,0.98393,0.13125,-0.0894,-0.82334,0.07836
-0.14585,0.97827,0.14735,0.01476,-0.26799,-0.21231
-0.14336,0.98052,0.13426,0.47724,0.09545,-0.63112
-0.14022,0.97582,0.16767,0.33024,0.12506,-0.25668
-0.20891,0.96503,0.15835,-1.80258,2.13702,-2.02961
-0.23479,0.95943,0.15612,-1.25067,0.96356,0.7174
-0.22227,0.95361,0.20304,-0.52831,0.00545,-0.24552
-0.2184,0.93616,0.27552,0.32349,-0.80949,0.53716
-0.24307,0.88602,0.39483,0.23039,-1.05096,0.20913
-0.31115,0.81051,0.49625,0.23349,-0.46478,0.25304
-0.417,0.73296,0.53748,-1.21592,0.70413,0.60067
-0.44304,0.72027,0.53379,-0.7918,1.959,0.39001
-0.39398,0.71964,0.57175,-0.08129,1.94263,-1.23835
-0.37425,0.6976,0.61097,0.91902,1.14842,-1.65045
-0.37575,0.67224,0.63789,0.62655,0.56047,-1.01718
-0.38428,0.65942,0.64614,0.44335,0.42107,-0.73246
-0.39403,0.65398,0.6458,0.37921,0.18143,-1.39018
-0.40848,0.6644,0.62587,0.71097,-0.04389,-0.89372
-0.40477,0.68078,0.61049,0.85231,-0.17834,-0.43305
-0.38889,0.70548,0.59251,1.22393,-0.76666,-0.42182
-0.38807,0.74318,0.54506,0.82706,-0.66336,-1.32966
-0.38087,0.78834,0.48318,0.59726,-0.6206,-1.35646
-0.35825,0.83568,0.41628,-0.06074,0.08003,-0.02094
-0.33324,0.87807,0.34342,-0.36223,0.44355,0.20392
-0.31559,0.91458,0.25285,-0.51149,0.33732,0.02499
-0.29685,0.93936,0.17172,-1.03015,1.91022,-1.10334
-0.25256,0.96061,0.11597,-0.40239,2.82931,-0.74818
-0.1812,0.98217,0.05001,-0.11583,2.2824,-0.38259
-0.11433,0.99335,-0.01342,-0.92085,0.86558,-0.21793
-0.06549,0.99432,-0.08393,-0.81776,0.16923,-0.02844
-0.03414,0.98733,-0.15494,-0.59328,-0.04391,-0.03803
-0.02512,0.97737,-0.21004,-0.08308,-0.50049,-0.02629
-0.02969,0.97207,-0.23281,0.05094,-1.31991,-0.28262
-0.02981,0.97778,-0.20752,-0.20544,-2.0213,-0.35471
-0.03142,0.98727,-0.1559,-0.00803,-1.8784,0.18775
-0.03526,0.99656,-0.07499,0.09955,-1.3598,0.3771
-0.05133,0.99831,0.02714,0.0536,-1.11446,0.201
-0.08323,0.99092,0.10561,0.04618,-0.49849,0.08464
-0.1123,0.98427,0.13641,0.04042,-0.01162,0.08571
-0.11344,0.98347,0.14116,0.13874,0.03491,-0.01924
-0.10529,0.97902,0.17446,-0.16152,0.39104,0.04185
-0.16761,0.97083,0.17147,-1.57726,2.18709,-1.44669
-0.2034,0.96177,0.18339,-2.68313,1.98803,0.48161
-0.17841,0.95975,0.21692,-0.16401,-0.53618,-0.84127
-0.16581,0.94842,0.27022,0.40838,-0.98291,0.74652
-0.18964,0.91087,0.36654,0.41355,-1.20225,0.59139
-0.26205,0.85318,0.45101,0.00933,0.21304,0.53228
-0.38361,0.77759,0.49819,-0.85535,0.64999,-0.05027
-0.44428,0.71782,0.53605,-0.98631,1.69244,0.63732
-0.41104,0.70041,0.58351,0.47811,1.32773,-0.01301
-0.36764,0.70271,0.60913,1.07662,1.99106,-1.98975
-0.36761,0.67279,0.64204,0.40406,0.84233,-1.56999
-0.37344,0.65112,0.66074,0.3078,0.533,-0.85479
-0.37708,0.64417,0.66547,0.52778,0.33021,-1.51593
-0.39576,0.64613,0.65261,0.66459,0.17625,-1.23353
-0.40179,0.66224,0.63246,0.86906,-0.23681,-0.4359
-0.38142,0.68379,0.62206,1.10685,-0.66905,-0.25511
-0.3705,0.71369,0.59446,1.01547,-0.79534,-0.72103
-0.37242,0.75684,0.53712,0.5463,-0.58142,-1.14315
-0.36063,0.8023,0.47568,-0.1365,0.4591,0.00111
-0.34701,0.84601,0.40477,-0.37337,0.53309,-0.01183
-0.33678,0.88521,0.32091,-0.81358,0.71596,-0.73195
-0.31598,0.9169,0.24382,-0.68963,1.44072,-0.99678
-0.282,0.94285,0.17753,-0.45526,1.79282,-0.64436
-0.23104,0.96696,0.10774,-0.52578,1.8646,-0.39937
-0.18055,0.98249,0.04598,-0.74783,0.92481,-0.37538
-0.13196,0.99108,-0.01842,-0.53278,0.60874,-0.30608
-0.0939,0.99166,-0.08828,-0.08604,0.03748,-0.34641
-0.07189,0.98608,-0.14991,0.06713,-0.34315,-0.07456
-0.06799,0.97783,-0.19807,0.06626,-0.59865,-0.04996
-0.07522,0.97413,-0.21311,-0.07177,-1.7429,0.06511
-0.07179,0.97938,-0.18883,-0.01945,-2.19636,0.16096
-0.05539,0.98869,-0.13935,0.08847,-2.10338,0.32653
-0.04284,0.99752,-0.05585,-0.04654,-1.1919,0.40344
-0.05248,0.99782,0.03988,-0.1401,-1.04406,0.24578
-0.07039,0.99155,0.109,-0.17197,-0.7794,-0.05369
-0.08142,0.98851,0.12736,0.30043,-0.09398,-0.55725
-0.07459,0.98619,0.14785,0.25082,-0.02613,-0.24111
-0.10144,0.97636,0.19088,-0.26771,0.50153,-0.3817
-0.19786,0.96668,0.16241,-2.61763,1.68352,0.87106
-0.20331,0.95473,0.21715,-0.2097,-0.47423,-0.61289
-0.19781,0.94123,0.27379,0.32031,-0.38532,-0.25879
-0.1802,0.77378,0.60728,0.25583,-0.82842,0.38999
-0.25623,0.68278,0.68422,-0.0619,0.03875,0.58044
-0.3532,0.57319,0.73939,-0.27977,0.61446,0.45084
-0.39443,0.48681,0.77938,-0.47538,1.40727,0.5252
-0.33026,0.5041,0.79801,1.08458,2.21403,-2.28095
-0.25282,0.52095,0.81529,0.85596,2.82222,-3.17315
-0.22328,0.50353,0.83463,0.26764,0.86635,-1.04201
-0.22897,0.48616,0.84334,-0.04438,0.46281,-1.36458
-0.23991,0.47917,0.8443,-0.03344,0.46981,-1.36554
-0.24651,0.48879,0.83685,0.71853,0.0673,-1.27992
-0.24265,0.50938,0.82563,1.09763,-0.29632,-0.48564
-0.23868,0.5337,0.81129,1.01545,-0.46841,-0.56685
-0.24923,0.56741,0.78481,0.45812,-0.48522,-1.3617
-0.27171,0.61353,0.74145,0.09027,-0.09698,-0.89405
-0.28737,0.66921,0.68526,-0.16902,0.36459,-0.61124
-0.29241,0.72659,0.62174,-1.07947,0.90097,-0.50979
-0.26821,0.78675,0.55595,-0.90838,1.12795,-1.40279
-0.24149,0.83618,0.49243,-0.89629,1.53554,-1.33055
-0.19936,0.87912,0.43289,-0.58279,2.34597,-0.81882
-0.14549,0.9146,0.37729,-0.34376,1.8922,-0.74367
-0.09073,0.93869,0.33261,-0.76285,1.03821,-0.66612
-0.04143,0.9588,0.28106,-0.54991,0.38413,-0.43779
0.01342,0.97557,0.21929,-0.17116,-0.04271,-0.14122
0.06471,0.98683,0.14826,-0.07284,-0.34723,-0.1709
0.10028,0.99049,0.09425,0.06023,-1.2291,-0.38684
0.11633,0.98873,0.09425,-0.23796,-2.58779,-0.21997
0.12479,0.98348,0.13115,-0.15113,-2.44708,0.00102
0.11955,0.9707,0.20843,-0.25383,-1.34886,0.1553
0.08704,0.94698,0.30928,-0.29204,-0.89935,-0.18982
0.03905,0.92089,0.38786,-0.24631,-0.68284,-0.3411
-0.00717,0.91019,0.41414,0.08856,0.22975,-0.76885
-0.02776,0.9156,0.40113,0.27503,0.29714,-0.77358
-0.04645,0.89861,0.43628,-0.09073,0.50932,-0.54558
-0.15633,0.88364,0.44129,-3.35876,2.26368,-0.27987
-0.20707,0.86055,0.46538,-0.90291,0.29912,-0.58048
-0.19376,0.82428,0.532,-0.08003,-0.24834,-0.35907
-0.22344,0.76467,0.60444,0.25216,-1.10453,0.4488
-0.29017,0.6778,0.67556,0.06126,-0.42738,0.0832
-0.36586,0.56638,0.73848,-0.0172,0.27325,0.31134
-0.42211,0.48957,0.76298,-0.70246,1.53994,0.40477
-0.37775,0.49202,0.78436,0.30887,2.04137,-1.28006
-0.2974,0.5033,0.81132,0.90118,2.95651,-3.06237
-0.28202,0.47639,0.83278,0.61881,1.21053,-1.18548
-0.30057,0.45262,0.83952,0.5111,0.66579,-0.91165
-0.31092,0.44699,0.83877,0.4449,0.57835,-1.3445
-0.31797,0.45396,0.83235,0.61183,0.13705,-1.21859
-0.31343,0.47177,0.82413,0.86928,-0.18144,-0.46048
-0.29612,0.4927,0.81826,0.99478,-0.37655,-0.37317
-0.30159,0.52696,0.79458,0.80597,-0.5229,-1.37664
-0.32338,0.57315,0.75294,0.35753,-0.27876,-1.4878
-0.3325,0.63236,0.69969,0.15378,-0.08925,-0.95482
-0.32747,0.69299,0.64228,-0.761,0.84796,-0.17887
-0.31643,0.75318,0.57671,-0.98568,1.07923,-0.68084
-0.3002,0.80928,0.50491,-0.98685,1.5155,-1.23878
-0.26507,0.85918,0.43767,-0.45485,2.56366,-0.9634
-0.20977,0.90483,0.37051,-0.28362,2.20227,-0.73543
-0.16111,0.93649,0.3115,-0.65977,1.69751,-0.68653
-0.11595,0.9609,0.25144,-0.85235,0.37452,-0.44546
-0.06808,0.97995,0.18724,-0.38699,-0.0087,-0.20737
-0.01413,0.99204,0.12516,0.01526,-0.49819,-0.31286
0.02925,0.99671,0.0756,0.11819,-1.1756,-0.32447
0.05034,0.99698,0.05919,-0.02498,-2.47088,-0.09318
0.0613,0.99513,0.07716,0.07164,-2.38767,0.11655
0.06595,0.98768,0.14192,0.01834,-1.85792,0.41172
0.05055,0.96792,0.24613,-0.18251,-1.13171,0.05942
0.0158,0.94094,0.33821,-0.2088,-0.9118,-0.21392
-0.02314,0.92198,0.38654,-0.11129,-0.30267,-0.8792
-0.05044,0.92854,0.3678,0.35026,0.9171,-1.59558
-0.06169,0.92733,0.36912,-0.06316,1.50251,-1.28441
-0.1427,0.9007,0.41034,-2.24115,2.44656,-1.10353
-0.18613,0.87676,0.44344,-1.08424,-0.3579,-1.13729
-0.17001,0.89132,0.42029,-0.49547,0.17955,-0.99828
-0.18306,0.86024,0.4759,0.22447,-1.27666,0.76189
-0.24669,0.7739,0.58329,0.02278,-0.76111,0.1484
-0.32611,0.66105,0.67576,-0.08968,-0.01208,0.47205
-0.44482,0.55663,0.70163,-1.78334,1.4573,0.54097
-0.46258,0.52193,0.71666,-0.53377,2.41309,-0.16454
-0.34889,0.53321,0.77069,0.82895,2.55084,-3.43573
-0.28026,0.52508,0.80359,1.08684,1.35694,-1.55061
-0.2867,0.50216,0.81587,0.47893,0.39185,-0.94755
-0.31144,0.49285,0.81247,0.0969,0.23996,-1.20415
-0.32449,0.50051,0.80262,0.33612,-0.03484,-1.26015
-0.32508,0.51542,0.79288,0.81661,-0.2265,-0.43462
-0.30894,0.53207,0.78833,1.01809,-0.40621,-0.31038
-0.30218,0.56319,0.76909,1.09168,-0.61106,-1.32544
-0.31933,0.60652,0.72812,0.54336,-0.2605,-1.53813
-0.33205,0.65818,0.67568,0.34093,-0.20277,-1.19339
-0.32831,0.71661,0.61537,-0.54529,0.85791,-0.18121
-0.32036,0.76967,0.55225,-1.04802,0.89557,-0.48795
-0.30613,0.82138,0.48126,-1.11164,1.16781,-0.52325
-0.28259,0.86362,0.4175,-0.625,2.29689,-0.96593
-0.23298,0.90429,0.35774,-0.11102,1.90203,-0.77507
-0.17164,0.93731,0.30329,-0.29317,1.48359,-0.68945
-0.11631,0.96097,0.251,-0.8326,0.45289,-0.4881
-0.0709,0.97852,0.19357,-0.41064,-0.10663,-0.33069
-0.02984,0.99007,0.1374,-0.07165,-0.51405,-0.23513
0.00712,0.99596,0.08954,0.13408,-0.91973,-0.31473
0.03371,0.99725,0.06594,0.0565,-1.58479,-0.63189
0.05325,0.99439,0.09142,-0.02757,-2.19443,-0.38684
0.06892,0.98495,0.1585,-0.10339,-1.4911,-0.04755
0.06371,0.96609,0.25024,-0.20214,-0.88508,-0.25204
0.02849,0.94159,0.33554,-0.19269,-0.62433,-0.32509
-0.01479,0.92318,0.38408,-0.22952,-0.01359,-0.36253
-0.03718,0.92146,0.3867,0.18931,0.06568,-0.74149
-0.0328,0.91287,0.40693,0.23721,-0.22122,-0.38285
-0.04299,0.87551,0.48128,-1.13548,1.12539,-1.28987
-0.1442,0.87964,0.45326,-3.26286,2.37543,-0.7996
-0.16052,0.86072,0.48311,-1.0732,0.36679,0.12942
-0.15027,0.84235,0.51756,0.24289,-0.56609,-0.44989
-0.18687,0.78316,0.59308,0.15791,-1.00389,0.07036
-0.26403,0.68367,0.68036,0.08484,-0.57712,0.03635
-0.3664,0.57415,0.73219,-0.19413,0.52537,0.23353
-0.43409,0.49592,0.75209,-0.61741,2.12519,0.84568
-0.39479,0.49159,0.77619,-0.13243,2.0836,0.25976
-0.31565,0.50809,0.80138,1.12241,1.85304,-2.7788
-0.30725,0.48102,0.82111,0.64236,0.74743,-1.13153
-0.32817,0.45453,0.82807,0.43995,0.66217,-1.03382
-0.33879,0.44248,0.83032,0.36706,0.4566,-1.42818
-0.34241,0.44531,0.82731,0.56293,0.32153,-1.35486
-0.33781,0.45931,0.82154,0.93038,0.00378,-0.72446
-0.32185,0.48349,0.81404,1.10368,-0.44179,-0.58627
-0.31718,0.52033,0.79288,0.69487,-0.43527,-1.4612
-0.33474,0.5672,0.75249,0.48809,-0.32297,-1.49789
-0.34288,0.62778,0.6988,-0.29006,0.64912,-0.39266
-0.33571,0.69252,0.63853,-0.97559,0.80611,-0.78334
-0.32338,0.75506,0.57035,-1.01736,0.84854,-0.89071
-0.31152,0.80567,0.50384,-0.92147,1.63987,-1.18797
-0.28623,0.84922,0.44374,-0.5357,2.15417,-0.77236
-0.24315,0.89119,0.38297,-0.40911,1.97338,-0.6364
-0.19342,0.92317,0.3322,-0.46169,0.94395,-0.6194
-0.14723,0.94647,0.28727,-0.30182,0.36454,-0.44491
-0.10457,0.96535,0.2391,-0.27701,0.20332,-0.30433
-0.05654,0.98194,0.18052,-0.06893,-0.36251,-0.20277
-0.01864,0.99181,0.12635,-0.01497,-0.92792,-0.11106
0.00969,0.99526,0.09671,0.02766,-1.31268,-0.09697
0.04075,0.99266,0.1139,0.0396,-2.49462,0.21244
0.07041,0.97936,0.18948,-0.30105,-1.8153,0.1013
0.0671,0.9543,0.29122,-0.31306,-1.41937,-0.09339
0.03152,0.92423,0.38053,-0.3151,-0.84295,-0.54445
-0.01305,0.9038,0.42775,-0.09957,-0.21932,-0.96289
-0.04732,0.90799,0.41632,0.1346,0.10459,-1.10223
-0.06289,0.90434,0.42216,0.02862,0.45041,-0.74908
-0.13443,0.88921,0.43731,-2.7545,2.71172,-2.18771
-0.21321,0.87525,0.43415,-3.09781,2.05208,-0.29418
-0.20066,0.85789,0.47304,-0.26059,-0.45666,-0.39685
-0.19768,0.82831,0.52424,0.30979,-0.8225,0.33176
-0.25267,0.7587,0.60044,0.16374,-0.91071,0.01942
-0.33837,0.66088,0.66989,-0.15673,0.31364,0.27685
-0.44505,0.54839,0.70796,-1.24196,1.52606,0.52593
-0.46374,0.50175,0.7302,-0.60722,1.91729,0.19838
-0.38912,0.5075,0.76879,0.82708,1.95855,-1.70731
-0.3304,0.50249,0.79896,1.0839,1.82951,-2.31477
-0.32097,0.47524,0.81922,0.79073,1.06961,-1.44444
-0.33473,0.45544,0.82494,0.39114,0.56453,-1.05773
-0.34424,0.44855,0.8248,0.22088,0.25564,-1.40415
-0.35033,0.44964,0.82164,0.45286,0.22315,-1.27055
-0.34952,0.46331,0.81436,0.88699,-0.05997,-0.65409
-0.3334,0.48156,0.81052,1.39308,-0.49949,-0.64194
-0.33411,0.51641,0.78847,1.19176,-0.52949,-1.14374
-0.35609,0.56517,0.74416,0.52628,-0.29918,-1.53571
-0.36383,0.62497,0.69068,-0.35907,0.60925,-0.18163
-0.35674,0.6877,0.6323,-0.68606,0.8847,0.01148
-0.34968,0.74826,0.56377,-0.86062,0.98166,-0.8594
-0.33637,0.80396,0.49042,-0.81538,1.60696,-1.27179
-0.30423,0.8499,0.43025,-0.54895,2.19168,-0.86215
-0.24371,0.89622,0.37066,-0.08361,1.99689,-0.70932
-0.18667,0.929,0.31955,-0.82624,1.08353,-0.60884
-0.13261,0.95363,0.2702,-0.67353,0.55724,-0.35042
-0.07952,0.97329,0.21536,-0.17629,0.0463,-0.21469
-0.02512,0.98738,0.15637,0.02303,-0.43817,-0.25453
0.01802,0.99456,0.10257,0.00804,-0.72584,-0.27889
0.0459,0.99656,0.06905,-0.20081,-1.97831,-0.27878
0.06589,0.99495,0.07564,-0.06537,-2.39155,0.13473
0.08306,0.98799,0.13029,-0.11869,-2.13502,0.2377
0.07992,0.97157,0.22284,-0.20531,-1.2493,-0.11197
0.04987,0.94962,0.3094,-0.27085,-0.77459,-0.31878
0.01238,0.93209,0.36202,-0.22439,-0.47259,-0.55326
-0.01513,0.9299,0.36751,0.13162,0.27201,-1.0285
-0.02659,0.92139,0.38772,-0.27707,0.84907,-0.71522
-0.10664,0.90531,0.41114,-1.61214,2.48269,-1.08135
-0.17028,0.87935,0.44469,-1.49227,0.59062,0.12973
-0.15891,0.87446,0.45832,-0.16631,-0.03621,-0.92457
-0.16321,0.85127,0.49871,0.17953,-0.44735,0.4449
-0.22405,0.78057,0.58353,0.18633,-0.90165,0.00737
-0.29101,0.68614,0.66673,-0.14865,0.40213,0.36721
-0.37465,0.59776,0.70874,-0.93374,0.90238,0.01928
-0.41392,0.53066,0.73964,-0.69033,2.00704,0.53989
-0.33974,0.53282,0.77504,-0.28585,1.95473,0.24447
-0.26663,0.53758,0.79995,1.16963,2.49777,-2.71062
-0.26315,0.50421,0.82251,0.56111,1.07122,-1.4056
-0.27729,0.48444,0.82972,0.24858,0.67074,-1.0905
-0.28611,0.4741,0.83269,0.1622,0.14913,-1.42576
-0.29193,0.47628,0.82942,0.68898,-0.05852,-1.00195
-0.30137,0.49227,0.81661,0.86056,-0.32523,-0.51158
-0.29362,0.50918,0.80902,1.04696,-0.56312,-0.41532
-0.29219,0.54337,0.787,0.85708,-0.47916,-1.3184
-0.30438,0.5923,0.74601,0.53235,-0.39484,-1.58283
-0.30344,0.64947,0.69721,-0.05549,0.01955,-0.52749
-0.28452,0.70175,0.65315,-0.56888,0.65601,0.08616
-0.28006,0.75298,0.59547,-0.75509,0.74661,-1.08836
-0.28296,0.80428,0.52256,-0.80873,1.28123,-1.45144
-0.27019,0.84534,0.46087,-0.83615,2.44921,-1.09422
-0.22714,0.88658,0.40297,-0.20705,2.5094,-0.56288
-0.17568,0.92183,0.3455,-0.39631,1.48668,-0.65179
-0.12263,0.94671,0.29781,-0.81132,0.67079,-0.68867
-0.061,0.96529,0.25395,-0.53421,0.19427,-0.25761
0.00786,0.97943,0.20164,-0.34984,0.06079,0.01583
0.05927,0.98966,0.1306,-0.17223,-0.73734,-0.30159
0.09333,0.99265,0.07705,-0.15964,-1.88782,-0.46238
0.11668,0.99012,0.07772,-0.23104,-2.52136,-0.23098
0.13862,0.98297,0.12062,-0.11805,-2.07311,0.18604
0.13777,0.96826,0.20853,-0.21028,-1.2766,0.1071
0.10581,0.94548,0.30801,-0.25788,-1.05721,-0.07497
0.06325,0.92431,0.37636,-0.18224,-0.25799,-0.58992
0.02102,0.91881,0.39414,-0.06135,0.2455,-0.82517
0.00645,0.92807,0.37236,0.14847,0.32389,-0.88867
-0.00107,0.91499,0.40348,-0.89704,1.32381,-1.19054
-0.08872,0.90597,0.41394,-3.29507,2.10517,-0.88556
-0.13682,0.89311,0.42852,-2.38692,1.28473,0.98084
-0.1216,0.86625,0.4846,0.03838,-0.72209,0.26903
-0.12575,0.81902,0.55982,0.30487,-1.04676,0.24101
-0.18533,0.74096,0.64547,0.28423,-1.01752,-0.07193
-0.27192,0.64536,0.71384,-0.05518,0.53099,0.14582
-0.38237,0.54932,0.74299,-1.24884,1.26901,0.36688
-0.38962,0.5231,0.758,-1.10757,1.99399,0.8694
-0.28463,0.54014,0.79198,1.50741,2.54569,-2.71326
-0.23554,0.53141,0.81371,0.81926,1.32319,-1.89536
-0.24244,0.50251,0.82988,0.62595,0.90819,-1.29953
-0.25248,0.49304,0.83256,0.14631,0.34899,-1.05997
-0.25646,0.48819,0.83421,0.06443,0.08799,-1.36866
-0.25749,0.49772,0.82823,0.33163,0.10683,-1.23365
-0.24724,0.51277,0.82215,0.93355,-0.32393,-0.51028
-0.23667,0.53908,0.80832,1.06489,-0.58425,-0.85213
-0.24686,0.57794,0.77785,0.62116,-0.43634,-1.38307
-0.26683,0.6275,0.73147,-0.24842,0.47101,-0.41383
-0.26555,0.68454,0.67889,-0.69629,0.62842,-0.17861
-0.25726,0.74195,0.61913,-0.76609,0.56158,-0.45428
-0.23763,0.80059,0.55007,-0.92122,1.36608,-1.42758
-0.20852,0.85374,0.47712,-0.86036,2.04323,-1.195
-0.1558,0.89726,0.41309,-0.59444,2.49649,-0.89214
-0.10826,0.92758,0.35761,-0.80409,1.82836,-0.52307
-0.06499,0.95068,0.30329,-0.64128,0.37075,-0.64543
-0.01747,0.97106,0.23818,-0.51245,0.13437,-0.53539
0.0328,0.98446,0.17254,-0.06116,-0.22515,-0.34902
0.07939,0.99033,0.11379,0.08545,-0.83603,-0.35291
0.113,0.9909,0.07316,0.01571,-1.16709,-0.28986
0.13335,0.98877,0.06752,-0.26084,-1.95985,-0.29866
0.15174,0.98323,0.10114,-0.15432,-1.96114,0.20982
0.1609,0.96993,0.18261,-0.27037,-1.69947,0.17172
0.13973,0.94763,0.28717,-0.48095,-1.04736,-0.03237
0.10106,0.92527,0.36559,-0.42339,-0.71038,-0.52531
0.06455,0.91737,0.39276,-0.31461,-0.38672,-0.7888
0.04064,0.92401,0.3802,0.40768,0.44736,-1.08592
0.01199,0.91755,0.39743,-1.3582,2.30293,-0.77819
-0.08672,0.90277,0.42129,-2.41887,2.23357,-1.44117
-0.13046,0.87173,0.47231,-0.7499,-0.29633,-0.92549
-0.12515,0.85345,0.50593,0.0229,-0.37542,0.78794
-0.16912,0.79929,0.57666,0.0673,-0.81833,0.49575
-0.28405,0.68454,0.67135,-0.44907,0.25404,0.13304
-0.37155,0.57061,0.73237,-0.92748,1.12527,0.33521
-0.3972,0.482,0.78096,-0.54213,1.50529,0.16568
-0.34152,0.47445,0.81133,0.38776,1.35572,-0.49055
-0.25376,0.49748,0.82953,0.15888,1.89422,-2.81122
-0.21649,0.47936,0.8505,0.17549,1.20573,-2.13813
-0.24586,0.44074,0.86331,0.24171,0.67141,-0.96736
-0.25639,0.43145,0.86494,0.50457,0.50861,-1.54066
-0.26557,0.43239,0.86169,0.60816,0.46232,-1.75628
-0.27998,0.45059,0.84769,0.81193,-0.10089,-0.586
-0.26375,0.47202,0.84121,0.9118,-0.40311,-0.30467
-0.24555,0.50564,0.82706,1.02862,-0.53831,-0.48009
-0.25907,0.55544,0.79017,0.4048,-0.25499,-1.79953
-0.27021,0.61153,0.74365,-0.00422,0.07569,-0.71789
-0.2646,0.6728,0.69088,-0.31363,0.49292,-0.2563
-0.26111,0.73311,0.62799,-1.05733,1.35083,-0.98718
-0.24337,0.79298,0.55853,-1.07952,1.59383,-1.48413
-0.2176,0.84106,0.49524,-1.08228,2.05464,-1.46231
-0.18271,0.88085,0.43672,-0.53853,2.11836,-0.60949
-0.13903,0.91365,0.382,-0.57766,1.57238,-0.65452
-0.09281,0.93851,0.33255,-0.86902,0.49182,-0.60784
-0.04384,0.95764,0.28462,-0.22806,-0.20308,-0.20653
0.0114,0.97177,0.23566,-0.03798,-0.32387,-0.14162
0.06273,0.98148,0.18102,0.18601,-0.79837,-0.36128
0.09661,0.9834,0.15358,-0.13834,-2.04338,-0.54888
0.10889,0.97972,0.16822,-0.1054,-2.17517,0.08767
0.11127,0.96877,0.2216,-0.18393,-1.98314,0.13767
0.09295,0.94395,0.31672,-0.30826,-1.16301,-0.00571
0.05228,0.9126,0.4055,-0.30632,-0.9672,-0.19023
0.00613,0.88864,0.45857,-0.17466,-0.42941,-0.49273
-0.03302,0.8838,0.46669,0.36423,0.52347,-1.22574
-0.06073,0.8801,0.4709,-1.29646,3.77484,-0.92346
-0.15134,0.86831,0.47236,-2.48292,3.04221,-1.92497
-0.17264,0.8405,0.51356,-0.96508,-0.05942,-0.62944
-0.13302,0.85547,0.50048,-0.03666,-0.16949,-0.84997
-0.13365,0.82197,0.55363,0.21864,-1.01737,1.01382
-0.22384,0.73542,0.63958,-0.15224,-1.1709,0.03984
-0.33146,0.63927,0.69388,-0.99864,0.67526,-0.42229
-0.4122,0.5459,0.72944,-1.28461,1.15397,-0.19878
-0.40305,0.49812,0.76774,-0.4206,1.73128,0.28039
-0.32899,0.50089,0.80054,1.33322,2.58823,-3.10796
-0.27374,0.50271,0.81997,1.07753,2.39209,-2.80054
-0.27219,0.46967,0.83983,0.7139,0.95962,-1.34586
-0.27667,0.44949,0.84936,0.39802,0.43108,-0.95248
-0.27195,0.4445,0.8535,0.26312,0.24029,-1.30348
-0.28246,0.44831,0.84808,0.5235,0.05201,-1.22418
-0.28084,0.46345,0.84044,0.8194,-0.17831,-0.41836
-0.2604,0.47946,0.83804,0.9291,-0.35002,-0.34919
-0.25302,0.51301,0.82025,0.74475,-0.45821,-1.31332
-0.26795,0.56203,0.78251,0.1937,-0.05901,-1.091
-0.2719,0.61985,0.73611,-0.12201,0.27638,-0.55269
-0.27208,0.67761,0.68323,-0.82551,0.80218,-0.55704
-0.26959,0.73303,0.62449,-1.02639,1.43922,-1.07486
-0.26027,0.78409,0.56343,-1.06536,1.63659,-1.40029
-0.23301,0.83325,0.5014,-0.56767,2.0101,-0.72325
-0.18283,0.87872,0.44094,-0.42385,1.52138,-0.51825
-0.13584,0.9134,0.38372,-0.67999,1.15279,-0.58709
-0.09785,0.94108,0.32372,-0.73876,0.30803,-0.52831
-0.05892,0.96293,0.26324,-0.33241,-0.12748,-0.32087
-0.01387,0.97812,0.20757,-0.30451,-0.2524,-0.06694
0.02965,0.98597,0.16426,0.1248,-0.9161,-0.53408
0.05772,0.98711,0.14925,0.06117,-1.53872,-0.58719
0.07333,0.98224,0.17273,-0.05581,-2.10389,-0.38051
0.08821,0.96932,0.22942,-0.05396,-1.91512,-0.14646
0.08394,0.94605,0.31298,-0.13804,-1.22752,-0.18508
0.04909,0.9197,0.38954,-0.09011,-0.65774,-0.28755
0.00247,0.89785,0.44029,-0.04318,-0.22461,-0.39427
-0.03029,0.89354,0.44796,0.28475,0.10969,-0.64977
-0.03549,0.88974,0.45508,0.33376,-0.07859,-0.5215
-0.04559,0.86003,0.5082,-0.63476,0.76898,-1.02293
-0.11977,0.87447,0.47006,-3.0041,2.45019,-1.78944
-0.143,0.86805,0.47544,-2.36425,1.98576,0.52955
-0.13243,0.8327,0.53765,0.04221,-0.58866,0.07852
-0.15444,0.77714,0.61008,0.21879,-0.95822,-0.05473
-0.22491,0.69172,0.68625,0.21882,-0.57373,-0.28107
-0.31966,0.59098,0.74065,-0.1158,0.47747,0.1889
-0.411,0.50086,0.76172,-1.25068,1.71798,0.80209
-0.38248,0.48492,0.78649,-0.44194,1.85196,0.18901
-0.2916,0.49891,0.81613,1.57752,2.54222,-2.94572
-0.25989,0.47531,0.84056,0.81717,1.09689,-1.42381
-0.25148,0.45086,0.85644,0.62274,0.87194,-1.31973
-0.2462,0.44183,0.86265,0.29943,0.46408,-0.92666
-0.24616,0.43907,0.86407,0.27402,0.18891,-1.55601
-0.26093,0.45624,0.85074,0.40477,0.10498,-1.18622
-0.26024,0.4809,0.83726,0.69429,-0.28858,-0.4835
-0.24596,0.50521,0.8272,0.93036,-0.60213,-0.9637
-0.25145,0.54362,0.80078,0.79382,-0.49226,-1.33675
-0.26793,0.59368,0.75879,0.16432,0.0617,-0.73084
-0.26837,0.65249,0.70869,-0.46839,0.78399,-0.17916
-0.27131,0.71194,0.64771,-0.67241,0.66767,-0.32462
-0.26882,0.77038,0.57814,-1.0953,1.41965,-1.05068
-0.2534,0.81826,0.51598,-0.89174,2.3944,-1.10297
-0.21227,0.86134,0.46156,-0.46203,2.43769,-0.98956
-0.16574,0.90006,0.40301,-0.45167,1.16341,-0.6587
-0.12522,0.92901,0.34823,-0.94955,0.54493,-0.55136
-0.08146,0.95113,0.29786,-0.79157,0.26907,-0.51194
-0.03845,0.96724,0.25093,-0.32692,-0.28188,-0.2435
0.00866,0.97844,0.20638,-0.13177,-0.56954,-0.3325
0.0507,0.98329,0.17486,-0.15877,-0.76698,-0.44712
0.0793,0.98127,0.17554,-0.15184,-1.53094,-0.51619
0.09205,0.97384,0.20776,-0.01212,-2.12777,-0.06583
0.09394,0.95709,0.27414,-0.01011,-2.04016,0.06671
0.07127,0.93381,0.35058,-0.16176,-1.14234,-0.21249
0.03216,0.91156,0.4099,-0.11514,-0.67186,-0.52843
-0.00817,0.90024,0.43533,-0.04251,-0.43263,-0.75791
-0.033,0.90472,0.42473,0.42036,0.11745,-0.94578
-0.04071,0.89404,0.44613,-0.06208,0.15795,-0.29512
-0.0905,0.87254,0.48009,-2.62325,2.18399,-2.3345
-0.15979,0.869,0.46829,-2.29897,1.60164,0.97406
-0.15556,0.85421,0.49611,-0.54277,0.00818,-0.00027
-0.14412,0.82712,0.54323,-0.00376,-0.09924,0.05101
-0.17552,0.76113,0.6244,0.25668,-0.27904,-0.15246
-0.26459,0.67912,0.68468,-0.01597,0.37945,-0.11967
-0.36909,0.5768,0.72875,-1.14666,0.92317,-0.01903
-0.36794,0.52684,0.7662,-0.39885,1.38497,0.39496
-0.28049,0.54758,0.78834,1.37848,1.51681,-2.36665
-0.23116,0.54463,0.80619,0.6019,1.38638,-2.07848
-0.22713,0.51603,0.82591,0.13148,0.31206,-1.26887
-0.23762,0.49441,0.83612,-0.07733,0.26137,-1.1943
-0.24312,0.48223,0.84164,0.06503,0.25665,-1.47573
-0.2581,0.48702,0.83439,0.53901,0.11956,-1.01505
-0.26822,0.50609,0.81972,0.81631,-0.16966,-0.51697
-0.25904,0.53207,0.8061,0.89073,-0.30044,-0.4506
-0.2525,0.56659,0.78436,0.75022,-0.39858,-0.96173
-0.26204,0.60812,0.74935,0.08832,-0.13319,-0.65514
-0.2628,0.65623,0.70732,-0.21632,0.20377,-0.27154
-0.25915,0.71171,0.65293,-0.88926,0.94869,-0.46943
-0.25383,0.7585,0.60021,-0.77047,1.19725,-1.08227
-0.25209,0.79759,0.548,-0.76533,1.29529,-1.1384
-0.24609,0.83528,0.49168,-0.39544,1.53342,-0.66616
-0.21875,0.87096,0.43996,-0.31403,1.38145,-0.65952
-0.17819,0.89925,0.39951,-0.51111,1.09049,-0.72422
-0.1391,0.92202,0.36129,-0.51502,0.45733,-0.7111
-0.09778,0.94204,0.32094,-0.405,0.23612,-0.5736
-0.05457,0.95922,0.27734,-0.16726,-0.26525,-0.32401
-0.0122,0.97176,0.23566,0.11424,-0.79201,-0.31653
0.01704,0.97717,0.21177,0.13939,-1.0169,-0.37783
0.03699,0.97695,0.21023,0.10992,-1.52596,-0.19389
0.05609,0.96835,0.24321,-0.18132,-1.61928,-0.3376
0.05875,0.94756,0.31412,-0.36407,-1.22112,-0.53824
0.03918,0.9218,0.38569,-0.32871,-0.92679,-0.60745
-0.00013,0.89929,0.43736,-0.31839,-0.33216,-0.70462
-0.02761,0.89441,0.44639,0.18952,0.38795,-0.74195
-0.02744,0.90234,0.43016,0.6342,0.42534,-0.9085
-0.01788,0.89996,0.43561,0.23268,0.19094,-0.29036
-0.04532,0.8811,0.47076,-2.52771,2.45229,-2.36943
-0.12544,0.91262,0.38908,-4.51669,2.5868,-2.84611
-0.09327,0.93086,0.35326,-0.60831,0.2683,0.37707
-0.05219,0.918,0.39314,0.34828,-0.97151,0.2811
-0.016,0.87492,0.484,0.66163,-1.04974,0.17887
-0.03167,0.8093,0.58654,0.4701,-0.46514,0.17945
-0.14179,0.76881,0.62356,-0.83696,1.09556,-1.4125
-0.27775,0.70252,0.65522,-0.70099,1.16184,-1.44416
-0.31021,0.65239,0.69149,-0.00694,1.26007,-0.32023
-0.27593,0.64442,0.71315,0.69427,0.28174,-0.51205
-0.24202,0.65365,0.71705,0.53928,0.17104,-1.54992
-0.21797,0.64344,0.7338,0.12038,0.32599,-0.99908
-0.21914,0.6162,0.75649,-0.05325,0.28738,-1.14104
-0.23768,0.5806,0.77872,0.01307,0.30953,-1.04543
-0.25072,0.55551,0.79281,0.43394,0.26787,-0.96362
-0.26022,0.54546,0.79671,0.543,0.25128,-0.95786
-0.27026,0.54885,0.79103,0.73891,0.12699,-0.98286
-0.28805,0.56177,0.77553,0.42568,-0.01667,-1.12164
-0.31042,0.58408,0.74999,0.34141,-0.12928,-1.1842
-0.33101,0.62313,0.70862,0.17626,-0.26275,-1.32073
-0.33406,0.6775,0.65529,-0.5622,0.73329,-0.04268
-0.32213,0.72861,0.60445,-0.57849,0.90105,0.09877
-0.31195,0.769,0.55797,-0.34493,0.95462,0.06039
-0.28299,0.80832,0.51627,0.42642,2.22165,-0.52662
-0.24786,0.84807,0.46835,0.53298,2.32352,-1.15945
-0.20639,0.87918,0.42947,0.49151,2.2924,-1.12057
-0.13557,0.9041,0.40526,-0.99146,0.80657,-0.45518
-0.05911,0.92893,0.3655,-1.37389,0.3561,-0.33122
0.01381,0.95214,0.30536,-1.29754,0.01259,-0.23269
0.08597,0.96932,0.23028,-0.36646,-0.46804,-0.24467
0.14124,0.97819,0.15228,-0.11588,-0.71786,-0.22476
0.17842,0.97995,0.08862,-0.13231,-0.87142,-0.18844
0.2095,0.97657,0.04916,-0.17222,-1.14733,-0.03889
0.2339,0.97167,0.03372,-0.24156,-1.20117,0.02081
0.24934,0.96774,0.03626,-0.54335,-1.07668,-0.04083
0.25704,0.96501,0.05181,-0.52339,-0.95293,-0.02583
0.25448,0.96448,0.07089,-0.37491,-0.80272,-0.04616
0.24159,0.96677,0.08363,-0.37302,-0.66783,-0.0843
0.22456,0.97101,0.0819,-0.4976,-0.11121,-0.38849
0.21316,0.97587,0.0473,-0.46893,0.40671,-0.72276
0.21782,0.97582,-0.01831,-0.35858,0.83378,-0.81493
0.23114,0.97031,-0.07124,0.14488,-0.16115,-0.49111
0.24604,0.96342,-0.10627,-0.28281,-0.25912,-0.00059
0.26953,0.95452,-0.1275,-0.54623,-0.12505,0.45886
0.28714,0.95047,-0.11899,-1.11351,-0.07515,0.83227
0.29569,0.95102,-0.09017,-1.94528,0.84064,0.68038
0.29107,0.94933,-0.11853,-3.39073,1.1361,-1.95151
0.26531,0.92705,-0.26494,-0.30096,0.95119,0.18247
0.26583,0.91143,-0.31407,-0.17108,0.08459,0.63061
0.27849,0.89759,-0.34172,-0.081,0.04954,1.35716
0.29386,0.89225,-0.34282,-0.00776,0.01461,0.9049
0.29822,0.89653,-0.32758,-0.7322,1.61661,-0.65355
0.27676,0.91564,-0.29157,-0.71074,1.5975,-0.68955
0.27126,0.92498,-0.26614,-0.80581,0.48946,0.46313
0.26324,0.92539,-0.27268,-0.63664,-0.11811,0.45606
0.24856,0.92443,-0.28923,-0.62302,-0.09478,0.12433
0.22889,0.92345,-0.30799,-0.57683,0.07604,-0.16787
0.20024,0.92333,-0.32766,-0.50354,0.09934,-0.05151
0.16832,0.92091,-0.35155,-0.31243,0.0837,0.25559
0.13703,0.91568,-0.37783,0.01642,0.0584,0.41166
0.10453,0.91034,-0.40045,0.28445,-0.10444,0.567
0.07498,0.90333,-0.42234,0.30346,-0.11788,0.62135
0.0466,0.89108,-0.45144,0.2112,-0.17319,0.74075
0.02117,0.87258,-0.48801,0.06713,-0.25988,0.76412
-0.00159,0.84822,-0.52964,-0.04446,-0.2832,0.76477
-0.02501,0.81787,-0.57486,-0.09813,-0.34469,0.7137
-0.05198,0.78061,-0.62286,-0.06255,-0.41618,0.61402
-0.07751,0.73808,-0.67024,0.0151,-0.34889,0.49457
-0.09131,0.6951,-0.71309,-0.02696,-0.07192,0.72735
-0.08313,0.65449,-0.75149,-0.4485,0.32031,0.79534
-0.05889,0.61465,-0.7866,-0.71903,0.4889,0.72881
-0.05505,0.57215,-0.8183,-1.00603,0.91431,0.62074
-0.08164,0.52854,-0.84497,-0.65728,1.39189,0.06081
-0.10226,0.486,-0.86796,-0.56821,1.60134,-0.02003
-0.09316,0.45388,-0.88618,-0.76907,1.69545,0.16207
-0.0655,0.43321,-0.89891,-0.74593,1.45117,0.34714
-0.05936,0.40019,-0.91451,-0.5592,1.32594,0.36902
-0.08076,0.35172,-0.93261,-0.09207,1.06794,0.46748
-0.11306,0.30382,-0.946,-0.30591,0.8781,0.38664
-0.15907,0.26377,-0.95138,-0.33743,0.8801,0.31011
-0.23781,0.26263,-0.93513,-0.17,0.2168,0.39747
-0.30552,0.24435,-0.9203,-0.07128,-0.10471,0.5402
-0.35552,0.24249,-0.90266,0.02594,-0.14453,0.54289
-0.38428,0.25877,-0.88621,0.1658,-0.25596,0.63003
-0.39649,0.28821,-0.87162,0.39939,-0.29264,0.69509
-0.39338,0.32976,-0.8582,0.5642,-0.40443,0.7782
-0.3746,0.37812,-0.84658,0.53576,-0.38912,0.71986
-0.35477,0.42792,-0.83128,0.61446,-0.38428,0.67546
-0.32834,0.47681,-0.81538,0.51818,-0.36162,0.65464
-0.29365,0.52933,-0.79598,0.3289,-0.39046,0.9358
-0.25576,0.59386,-0.76284,-0.0944,-0.64142,0.77451
-0.23766,0.61853,-0.74896,-0.68284,-0.55021,0.28518
-0.2388,0.61265,-0.75341,-1.50893,1.32935,0.93948
-0.23087,0.6516,-0.72257,-2.32311,1.36305,1.10391
-0.19989,0.71351,-0.67153,-1.02956,0.53529,1.18839
-0.19672,0.74688,-0.63519,-0.21989,0.37739,1.55981
-0.22111,0.75558,-0.61661,0.14133,0.74833,1.32215
-0.23693,0.75281,-0.61412,0.34382,0.96991,1.15031
-0.24858,0.75274,-0.60958,0.43956,1.57484,0.81741
-0.27338,0.75519,-0.59578,0.33431,1.32766,0.88601
-0.31604,0.75269,-0.57756,0.26329,0.85464,0.80266
-0.37356,0.74301,-0.55532,0.44815,0.52584,0.32384
-0.42988,0.73097,-0.52999,0.38279,0.55919,-0.2999
-0.46212,0.72885,-0.5052,0.25439,0.43186,-0.25022
-0.47478,0.72571,-0.49794,0.11118,0.28368,0.00355
-0.48552,0.71884,-0.49753,0.43273,-0.02027,-0.05062
-0.49634,0.71034,-0.49906,0.61859,-0.13275,-0.07519
-0.4963,0.69972,-0.51388,0.84028,-0.31682,0.43757
-0.48285,0.68888,-0.54065,1.01195,-0.54865,0.70441
-0.45783,0.67763,-0.57551,0.91079,-0.52742,0.70855
-0.42743,0.65803,-0.61992,0.28057,-0.03081,0.75481
-0.39434,0.63548,-0.66382,-0.21243,0.27444,0.6328
-0.34947,0.5964,-0.72262,-0.41849,0.50498,0.45817
-0.31672,0.5425,-0.77807,-0.72442,0.9761,0.18784
-0.32854,0.48931,-0.80786,-0.58447,1.76998,0.48848
-0.33826,0.44741,-0.82789,-0.62219,2.82795,0.35986
-0.30328,0.42506,-0.85285,-0.75052,2.41494,0.38249
-0.27958,0.39034,-0.8772,-0.044,1.15367,0.52754
-0.29054,0.32872,-0.89863,0.13575,0.99784,0.49919
-0.34121,0.26361,-0.90227,0.1997,0.77054,0.49414
-0.42718,0.21213,-0.87893,0.40208,0.34071,0.85853
-0.51454,0.18166,-0.83801,0.47472,0.07998,0.78799
-0.58355,0.18385,-0.79099,0.36605,-0.84666,0.5387
-0.61852,0.2173,-0.75512,0.26603,-1.15274,0.66873
-0.61553,0.27273,-0.73942,0.29513,-1.15292,0.75295
-0.58584,0.34066,-0.73535,0.27176,-0.58999,0.82302
-0.54254,0.40926,-0.73359,0.30281,-0.40911,0.75868
-0.50068,0.46059,-0.73292,0.35116,-0.34665,0.70981
-0.45625,0.47973,-0.74947,0.62832,0.50146,0.93944
-0.39338,0.50787,-0.76637,0.53747,0.20917,0.9089
-0.33234,0.56616,-0.75432,0.34203,-0.11867,1.09401
-0.28513,0.58385,-0.76014,-1.52597,1.88902,-0.28971
-0.28545,0.58161,-0.76174,-1.60395,1.68161,2.11836
-0.26274,0.64025,-0.72184,-0.80254,0.63091,1.35102
-0.2186,0.66881,-0.71057,-0.11709,0.05544,0.91962
-0.19598,0.71417,-0.67198,-0.18198,-0.11189,1.09275
-0.20988,0.77305,-0.59862,-0.49762,0.33203,1.54711
-0.25551,0.81515,-0.51984,-0.49234,0.73135,2.1583
-0.31594,0.8184,-0.48001,0.08759,1.14078,1.45902
-0.40398,0.78323,-0.4726,0.61391,1.23143,1.1956
-0.47088,0.75881,-0.44999,0.42979,1.26172,-0.65731
-0.48597,0.76896,-0.41537,0.26198,0.46233,-0.33497
-0.49195,0.77439,-0.39787,0.25671,0.26394,-0.42078
-0.50811,0.76717,-0.3915,0.75026,0.17944,0.09792
-0.52011,0.75872,-0.39222,1.03742,0.09945,-0.18679
-0.50899,0.75038,-0.42174,1.06103,-0.25145,0.17836
-0.48277,0.7449,-0.4605,0.94015,-0.42262,0.52765
-0.45921,0.74128,-0.48953,0.69344,-0.57294,0.41385
-0.43012,0.72527,-0.53756,0.44554,-0.31588,0.44439
-0.39188,0.70173,-0.59498,-0.10583,0.38293,0.90779
-0.34597,0.67131,-0.65548,-0.73191,0.82511,0.32255
-0.29723,0.62897,-0.71837,-0.76948,1.03173,0.27954
-0.26375,0.57521,-0.77432,-1.01252,1.3273,0.2458
-0.26456,0.50658,-0.8206,-0.51869,2.47856,0.41746
-0.25846,0.45446,-0.85245,-0.38653,2.56122,0.42179
-0.21014,0.43474,-0.87569,-0.51799,1.83212,0.40922
-0.17753,0.40564,-0.89663,-0.18802,1.03348,0.65065
-0.21345,0.34633,-0.91351,0.0207,0.94905,0.75739
-0.30231,0.27204,-0.91357,0.3712,0.56638,0.93278
-0.40181,0.21201,-0.89084,0.3651,-0.4038,0.87577
-0.48355,0.19893,-0.85241,0.41586,-0.87845,0.85141
-0.52159,0.22901,-0.82189,0.26629,-1.3731,0.85329
-0.52308,0.28587,-0.80291,0.30633,-1.10291,1.01107
-0.49672,0.3606,-0.78946,0.28852,-0.85093,1.01947
-0.45978,0.43669,-0.77324,0.29027,-0.44488,0.89276
-0.4264,0.48828,-0.76142,0.45208,-0.11755,0.35697
-0.38101,0.47973,-0.79037,0.54586,0.32158,-0.03433
-0.29173,0.43427,-0.85224,-1.31545,3.119,1.18416
-0.26363,0.45951,-0.84815,-0.96838,0.82939,1.31621
-0.24121,0.51317,-0.8237,-0.61322,-0.1025,-0.00367
-0.20298,0.57063,-0.79573,-0.13895,0.10752,1.80012
-0.16111,0.64884,-0.74367,-0.60405,-0.141,1.90459
-0.16796,0.72259,-0.67056,-0.85154,-0.18752,1.72646
-0.18702,0.77807,-0.59969,-1.26058,0.68451,1.16742
-0.24501,0.81493,-0.52522,-0.81367,0.64099,1.5945
-0.32784,0.80007,-0.50239,-0.47457,1.18946,1.37976
-0.44601,0.76072,-0.47157,1.24725,2.15708,-1.07042
-0.50679,0.7534,-0.41898,1.27463,1.66351,-0.83675
-0.50328,0.76671,-0.39857,1.26699,0.76523,-0.29999
-0.48401,0.77817,-0.40023,0.47794,-0.21644,-0.61505
-0.47216,0.77685,-0.41661,0.52799,-0.34506,-0.27418
-0.46042,0.76265,-0.45428,0.66148,-0.38578,0.08977
-0.45378,0.751,-0.47967,0.85586,-0.51152,1.16171
-0.45484,0.74857,-0.48245,1.25433,-0.80213,1.05064
-0.42216,0.74132,-0.52175,1.42967,-0.8319,0.41425
-0.36115,0.7203,-0.59224,0.16129,0.14999,0.61285
-0.31894,0.6953,-0.64408,-0.50183,0.84648,1.12606
-0.2694,0.65899,-0.70225,-0.74605,0.82735,0.67029
-0.21571,0.61847,-0.75562,-1.25989,1.66928,-0.0831
-0.18868,0.56605,-0.80249,-1.26401,2.37795,0.43434
-0.17642,0.51072,-0.84145,-0.88282,2.55541,0.65679
-0.13601,0.47182,-0.87114,-0.55197,1.9236,0.58527
-0.10411,0.43776,-0.89304,-0.59026,1.38772,0.50257
-0.12817,0.38754,-0.9129,-0.33384,0.98455,0.82472
-0.22477,0.30843,-0.92431,0.38142,0.38647,0.80665
-0.35609,0.22786,-0.90624,0.56754,0.00934,0.81878
-0.46803,0.18538,-0.86405,0.57528,-1.0932,0.79766
-0.51632,0.20043,-0.83261,0.41221,-1.77028,1.2239
-0.51075,0.26928,-0.81647,0.24375,-1.50022,1.1723
-0.48179,0.36064,-0.79863,0.16775,-0.8705,1.09003
-0.44859,0.44297,-0.77624,0.28637,-0.46838,0.88029
-0.41718,0.4944,-0.76258,0.27757,0.26333,0.45623
-0.36654,0.49961,-0.78488,0.28753,0.60131,0.24179
-0.29948,0.49566,-0.81525,0.53975,0.88244,0.26677
-0.22595,0.52376,-0.82136,-2.26865,2.41896,-0.58175
-0.20286,0.52988,-0.82345,-2.77398,2.19502,0.92726
-0.1771,0.5754,-0.79847,-0.69837,0.19904,0.66999
-0.15695,0.62111,-0.76784,0.16281,-0.55204,1.72018
-0.11942,0.68432,-0.71934,0.10537,-0.88784,1.74888
-0.12521,0.75565,-0.6429,-0.32899,0.12032,1.79273
-0.15695,0.80861,-0.56703,-1.4932,0.88387,1.80162
-0.21134,0.82715,-0.52072,-1.31945,1.32035,2.16938
-0.31623,0.79453,-0.51839,1.32969,2.22946,-2.70059
-0.42476,0.75395,-0.50113,0.8688,1.34967,-0.92529
-0.48318,0.74573,-0.45872,0.95338,1.08554,-0.25768
-0.50516,0.74781,-0.4308,0.5317,0.03206,0.52406
-0.50675,0.75172,-0.42206,0.27643,-0.16448,-0.38063
-0.50797,0.74592,-0.43077,0.55829,-0.11534,-0.25638
-0.49946,0.73596,-0.45706,1.01326,-0.51378,0.62754
-0.47795,0.7327,-0.48448,1.08458,-0.73468,0.88458
-0.44049,0.7285,-0.52465,1.00645,-0.89685,0.50865
-0.38165,0.71514,-0.58559,0.22854,-0.32488,-0.14013
-0.32918,0.68743,-0.64736,0.02531,0.07697,0.47991
-0.29518,0.64329,-0.70643,-0.64281,0.84439,0.98086
-0.25599,0.59135,-0.7647,-0.89574,1.41588,0.74337
-0.22858,0.53268,-0.81486,-0.4469,2.80077,-0.10777
-0.21194,0.48384,-0.8491,-0.29755,3.30262,0.1027
