gravity.x,gravity.y,gravity.z,userAcceleration.x,userAcceleration.y,userAcceleration.z
0.10797,0.99265,-0.0547,0.0913,-0.53571,0.66343
0.02822,0.99959,0.00512,-0.26458,-0.12419,-0.17272
-0.06231,0.99622,0.06047,-0.2213,0.27227,-0.46713
-0.17084,0.9779,0.12055,-1.64341,3.05775,0.31347
-0.28767,0.93742,0.19617,-1.77544,4.4518,0.1087
-0.37835,0.88659,0.26611,-1.57546,5.36506,-0.38513
-0.45107,0.83235,0.32207,0.8456,1.24815,-0.337
-0.51329,0.78579,0.34506,0.79021,0.22524,-0.61246
-0.55644,0.75521,0.34646,0.79249,-0.0848,-0.60885
-0.58218,0.74079,0.33511,0.82411,-0.8566,-0.81919
-0.5859,0.74515,0.31856,1.33732,-1.44049,-0.94267
-0.55855,0.77481,0.29612,1.75481,-1.96949,-1.00495
-0.50327,0.82501,0.25705,1.9852,-2.09639,-0.91821
-0.45005,0.86406,0.22553,1.27968,-1.12047,-0.51443
-0.39252,0.89107,0.22784,0.82265,-0.92171,-0.54826
-0.34226,0.89966,0.27103,-1.52488,1.13279,1.45786
-0.365,0.89313,0.26285,-1.20264,1.60691,0.26306
-0.42458,0.88868,0.17314,-0.71783,1.45826,-0.05166
-0.4597,0.8847,0.07736,1.34108,-0.53558,-1.17224
-0.3884,0.9025,0.18613,3.86473,0.59355,5.36471
-0.29123,0.93864,0.18478,1.3913,1.40049,-1.34885
-0.27988,0.94566,0.1655,-0.38777,0.68717,-2.21169
-0.28962,0.94648,0.14245,-0.40752,-0.22601,2.18257
-0.26856,0.96304,0.02071,-0.09093,-0.51754,0.23203
-0.11517,0.9933,-0.00895,-0.0007,1.03245,-0.67245
0.04117,0.99845,-0.03743,-1.86874,4.90179,0.04451
0.0931,0.99026,-0.10354,-3.16479,3.95997,1.22872
0.14646,0.9785,-0.14519,-0.40914,-0.08348,1.21664
0.18605,0.96792,-0.16886,0.38072,-0.20777,1.11104
0.20779,0.95975,-0.18895,-0.05104,-0.24915,0.43224
0.20348,0.96009,-0.1919,-0.98517,-1.19056,0.5321
0.18239,0.96792,-0.17281,-1.33614,-1.75442,0.59881
0.15421,0.97876,-0.13507,-1.41062,-1.86461,0.32537
0.12365,0.98846,-0.08746,0.15697,-0.53101,0.25456
0.07722,0.99633,-0.03707,0.40518,-0.62613,0.37265
0.01407,0.9997,0.02023,0.30557,-0.60903,0.18603
-0.05691,0.99507,0.08128,-0.20823,-0.21139,-0.29133
-0.1365,0.97969,0.14689,-1.34809,1.48579,-0.21342
-0.2493,0.94871,0.19442,-2.04211,2.58265,0.02497
-0.37877,0.89165,0.24799,-2.66482,6.18982,0.34666
-0.45833,0.83397,0.3073,-0.06559,2.6351,-0.72574
-0.5137,0.77909,0.35935,1.0623,0.84768,-0.51797
-0.55833,0.73861,0.37778,0.86088,0.1245,-0.69547
-0.58322,0.71854,0.37888,0.62971,-0.86916,-0.66049
-0.5827,0.7173,0.38203,0.66407,-1.01928,-0.73857
-0.56411,0.73658,0.37313,1.21415,-1.2743,-0.75814
-0.53379,0.78006,0.32647,2.50712,-2.48675,-1.15851
-0.47579,0.84009,0.26053,2.74496,-2.25717,-1.44441
-0.43037,0.87251,0.23133,1.15787,-1.17559,-0.45149
-0.36662,0.89731,0.24581,0.18562,-0.55216,0.80099
-0.32135,0.89514,0.30897,-0.69052,-0.13481,2.56109
-0.37409,0.89328,0.2492,-0.94352,1.86172,-0.51273
-0.4472,0.88239,0.14629,0.67938,-0.22177,-1.72503
-0.46154,0.88436,0.06989,1.31665,-0.81402,-1.3311
-0.29534,0.91425,0.27734,5.63898,-1.98267,5.4161
-0.19678,0.94906,0.2461,-0.60309,3.56748,-4.35654
-0.1948,0.95998,0.20121,-0.9525,3.13835,-2.59716
-0.27232,0.95985,0.06732,-0.73111,-0.26124,-1.63651
-0.22073,0.97347,0.06035,-0.65076,0.02746,-0.80694
-0.06594,0.9972,0.03517,-0.91166,0.72892,-0.12198
0.04185,0.99905,-0.01202,-2.88212,1.6725,1.59245
0.10318,0.99218,-0.07018,-1.88117,-0.07605,0.70967
0.14766,0.98329,-0.1065,0.15568,-0.45192,1.00806
0.179,0.97387,-0.1398,-0.35455,-0.58667,0.7113
0.1807,0.97185,-0.15121,-0.9201,-1.16346,0.63949
0.15923,0.97879,-0.12889,-0.98893,-1.56035,1.21023
0.12296,0.98917,-0.08018,-0.60311,-1.49974,-0.04009
0.08421,0.99563,-0.0404,0.27748,-0.47254,-0.12939
0.03319,0.99932,0.01584,0.38845,-0.59989,0.09455
-0.03757,0.99517,0.09073,-0.31551,-0.23932,-0.29334
-0.12625,0.9804,0.15122,-0.95062,1.53806,-0.57
-0.25025,0.94511,0.2101,-1.48412,2.63077,0.02123
-0.36855,0.88724,0.27744,-1.80983,4.60536,-0.27788
-0.45909,0.82061,0.34034,-0.60362,2.15982,-0.70191
-0.52547,0.76011,0.38224,-0.12915,2.06234,-0.59139
-0.58239,0.70844,0.39867,0.72198,0.679,-0.74296
-0.6189,0.67139,0.40768,0.77629,-0.19884,-0.62716
-0.63615,0.65217,0.4123,0.87164,-0.46563,-0.62581
-0.63765,0.65631,0.40331,1.49162,-1.33627,-0.77598
-0.61874,0.69284,0.37032,2.64641,-2.38759,-0.92886
-0.57985,0.75772,0.29939,2.40854,-2.53989,-1.38128
-0.53234,0.81009,0.24571,1.20647,-0.9113,-0.53566
-0.47221,0.85341,0.2207,0.63949,-0.58956,-0.29369
-0.40705,0.88348,0.23188,0.35783,-0.35124,0.29885
-0.38342,0.8847,0.26513,-1.6885,1.93017,1.99834
-0.44682,0.87761,0.17363,-1.31379,2.12762,-0.62237
-0.49782,0.86437,0.07096,0.5602,0.04803,-1.33931
-0.47566,0.8714,0.12003,2.39102,-1.28156,-0.82488
-0.35767,0.91217,0.20002,1.61382,0.45246,-1.38142
-0.31508,0.93924,0.1362,0.52313,1.23636,-3.92709
-0.30409,0.94541,0.11713,-0.30443,1.21619,-1.19585
-0.29129,0.95618,0.02958,-0.66614,0.42111,-0.06108
-0.17957,0.98333,-0.02874,-0.64884,0.24345,-0.97616
-0.02247,0.99915,-0.03454,-1.7352,3.15345,-0.11099
0.06097,0.99318,-0.09935,-1.65454,0.692,1.36059
0.10819,0.98416,-0.14044,-0.55672,0.26517,1.28567
0.14567,0.97558,-0.16439,-0.01343,-0.04141,0.98681
0.17015,0.96938,-0.17708,-0.65754,-0.4634,0.34643
0.17119,0.97124,-0.1655,-0.78026,-0.84781,0.34731
0.15476,0.97703,-0.14653,-0.89787,-1.4735,0.28936
0.13475,0.98426,-0.11437,-0.92912,-1.92905,0.35848
0.10023,0.99245,-0.07061,-0.45836,-1.47213,-0.19086
0.03893,0.99905,-0.01952,-0.12632,-0.76263,0.28826
-0.04152,0.99811,0.04539,-0.19495,-0.63194,0.27136
-0.12626,0.98606,0.10841,-0.16049,-0.38343,-0.01432
-0.21862,0.96237,0.16138,-1.19981,1.30087,-0.77016
-0.33729,0.9156,0.21892,-2.97055,4.90734,0.50932
-0.4565,0.84884,0.26662,-3.27238,6.39683,0.03514
-0.53394,0.78701,0.30908,0.02943,1.5483,-0.71701
-0.59793,0.72663,0.33837,0.72718,0.98917,-0.58391
-0.64526,0.68201,0.34423,1.09479,0.73721,-0.67425
-0.66309,0.6597,0.35371,1.14397,-0.52697,-0.73716
-0.65225,0.65938,0.37387,1.22762,-0.91837,-0.90367
-0.62717,0.68439,0.37183,1.49574,-1.11425,-0.84953
-0.58052,0.74346,0.33205,2.47107,-2.06469,-0.89926
-0.50669,0.81334,0.28593,2.37249,-1.97909,-0.67169
-0.45044,0.85347,0.26207,1.91675,-1.44843,-0.06195
-0.3971,0.87953,0.26219,0.32827,-0.66648,0.27774
-0.35641,0.88251,0.30684,-1.03753,0.62798,2.32789
-0.42038,0.87696,0.23285,-1.53058,2.11617,1.54197
-0.4918,0.86369,0.11038,0.2089,0.51325,-1.26129
-0.4897,0.86664,0.09551,1.60073,1.49579,-0.34801
-0.43297,0.89415,0.11412,1.49022,1.78959,-0.77112
-0.38466,0.91622,0.11211,0.48279,-0.75141,-0.53023
-0.33495,0.9368,0.10109,0.28137,-0.80208,-1.0253
-0.22238,0.97391,0.04517,-0.05847,-0.23954,-1.08411
-0.03948,0.99921,-0.00472,-0.7762,2.61233,-1.29049
0.10675,0.99313,-0.048,-1.36005,4.96856,0.37563
0.19293,0.97114,-0.14024,-1.26478,2.93339,2.31395
0.23947,0.95293,-0.18597,-0.44056,0.22714,1.65395
0.28035,0.94163,-0.18638,-1.34543,0.33271,0.33045
0.29397,0.9426,-0.15837,-1.57038,0.16023,0.12615
0.26931,0.95379,-0.13328,-1.39642,-1.57905,0.59852
0.22975,0.96525,-0.12455,-1.03311,-1.72648,0.20776
0.19587,0.97626,-0.0925,-0.53859,-2.02107,0.16697
0.15837,0.98601,-0.05188,0.03663,-1.51066,-0.06497
0.08503,0.99638,-0.00078,-0.28329,-0.77564,0.27074
0.00243,0.99792,0.06448,-0.15511,-0.50864,0.16941
-0.06989,0.98963,0.12552,-0.39984,0.44618,-0.1309
-0.14716,0.97151,0.18578,-1.35847,1.45877,-0.08607
-0.25517,0.93861,0.23218,-1.94847,2.6894,0.20129
-0.37639,0.8813,0.28573,-2.89006,5.79576,-0.07477
-0.44833,0.82887,0.33463,-0.69047,2.75469,-1.01548
-0.50466,0.78004,0.36995,0.84902,1.55221,-0.87189
-0.56199,0.73516,0.37909,1.63744,0.41532,-0.85898
-0.60098,0.70277,0.3807,1.26938,-0.78854,-0.66975
-0.611,0.6963,0.37663,1.17011,-1.0298,-0.80611
-0.59109,0.7196,0.3644,1.71826,-1.52931,-0.79189
-0.546,0.77562,0.31669,2.32974,-2.20662,-0.87687
-0.46711,0.84419,0.26298,2.37614,-2.30621,-0.8946
-0.40179,0.88239,0.24484,1.14857,-1.06165,0.03282
-0.34854,0.90325,0.25033,0.33365,-0.4823,0.23126
-0.30151,0.90116,0.31145,-0.09644,0.01394,1.27134
-0.35719,0.89979,0.25059,-1.0354,1.89317,-0.80855
-0.43483,0.89061,0.13318,0.40752,0.04056,-1.41136
-0.4297,0.89366,0.12933,1.20819,-0.11557,-0.65554
-0.36755,0.91898,0.14278,0.75071,1.47458,-1.61859
-0.32378,0.93684,0.13227,0.43845,0.24892,-1.1684
-0.31067,0.94139,0.13142,0.1129,0.0197,-0.16914
-0.25888,0.9617,0.09002,-0.09538,-0.57041,-1.06594
-0.10067,0.99444,0.03087,-0.35621,1.02111,-0.70899
0.07731,0.99697,0.0086,-0.94039,2.82346,-1.25772
0.16827,0.98376,-0.06251,-1.45088,1.84719,1.31423
0.22209,0.96774,-0.119,-0.1094,0.08915,1.09016
0.26475,0.95277,-0.14879,0.00048,-0.1828,1.14377
0.29452,0.94182,-0.16196,-0.93762,-0.19588,0.50515
0.2975,0.94145,-0.15862,-1.43392,-0.71567,0.55217
0.27306,0.95001,-0.15139,-1.49282,-1.08276,0.62039
0.24042,0.96463,-0.10812,-1.19485,-1.77801,0.8447
0.20246,0.97771,-0.05555,0.57157,-0.70214,0.02702
0.15502,0.98781,-0.01413,0.59611,-0.81732,0.28836
0.08587,0.99522,0.04646,-0.30885,-0.64888,0.09137
0.01181,0.99358,0.11248,-0.71873,0.1664,-0.39349
-0.06707,0.98207,0.17618,-0.83739,0.67832,-0.8281
-0.16264,0.96,0.22791,-1.56424,1.78809,-0.40186
-0.29447,0.91474,0.27664,-2.20083,3.30707,0.37602
-0.39705,0.86062,0.31887,-2.86277,6.64702,-0.15914
-0.46787,0.80551,0.36366,0.56615,1.95952,-1.10367
-0.53072,0.75216,0.39063,1.24222,0.79594,-0.80413
-0.58013,0.72021,0.38046,1.33569,-0.19065,-0.55274
-0.59592,0.70993,0.37534,1.0234,-1.24519,-0.93511
-0.57903,0.72153,0.37963,1.48332,-1.49268,-0.8992
-0.54326,0.75895,0.35898,1.71762,-1.74387,-0.9393
-0.47772,0.82381,0.30515,2.51269,-2.39419,-0.8761
-0.4008,0.87562,0.26954,1.88434,-1.36839,-0.04821
-0.3463,0.90524,0.24622,1.2113,-0.97276,-0.15344
-0.28838,0.92004,0.26528,0.00923,0.17406,1.12048
-0.26407,0.91138,0.31569,-1.3748,2.61023,1.80352
-0.34001,0.91114,0.23286,-1.12628,2.04696,-0.35861
-0.40903,0.90629,0.10643,0.85526,-0.59666,-1.65352
-0.39689,0.91501,0.07243,2.32825,-1.28541,-0.32883
-0.28599,0.94158,0.17788,2.5635,-0.32561,3.52731
-0.22059,0.96506,0.14141,-0.30659,1.93461,-2.0281
-0.24008,0.9622,0.12859,-0.73818,1.22809,0.92568
-0.26394,0.96026,0.0908,-0.54594,0.06461,-0.99711
-0.16268,0.98532,0.05182,-0.20539,0.15632,-0.95466
0.01205,0.99965,0.02349,-0.51216,3.36859,-0.05361
0.10448,0.99419,-0.02596,-1.11355,4.10831,0.69225
0.15061,0.98618,-0.06897,-1.17558,0.02019,1.06241
0.18849,0.97661,-0.1035,-0.40127,-0.23541,0.64885
0.22025,0.9663,-0.13327,-0.59557,-0.33824,0.44959
0.23119,0.9609,-0.15237,-1.15668,-1.04426,0.53973
0.21518,0.96635,-0.14096,-1.28804,-1.613,0.97382
0.18342,0.97755,-0.10372,-1.21482,-1.74459,0.81211
0.15103,0.98662,-0.06148,0.17612,-0.74063,-0.02595
0.10689,0.99413,-0.0165,0.25749,-0.67507,0.34012
0.0385,0.99813,0.04759,0.07526,-0.81771,0.33803
-0.04259,0.99284,0.11158,-0.49475,-0.1012,-0.47989
-0.13194,0.97575,0.17464,-0.99921,1.18613,-0.81541
-0.24563,0.94117,0.23207,-1.60167,2.15212,-0.34729
-0.35847,0.88827,0.2872,-1.77471,6.20432,-0.13086
-0.44579,0.83256,0.3288,0.04216,2.06726,-0.60044
-0.52749,0.77581,0.34623,0.55389,1.53472,-0.42879
-0.59307,0.72869,0.34245,0.98657,0.26128,-0.84456
-0.61774,0.70696,0.34438,0.7616,-1.00121,-0.62379
-0.61127,0.70716,0.35535,0.64557,-1.18117,-0.77588
-0.57831,0.73046,0.36331,1.1951,-1.3149,-0.6163
-0.5387,0.77429,0.33208,2.02504,-1.91666,-0.75993
-0.48091,0.83611,0.26391,2.58466,-2.39092,-1.17673
-0.41324,0.87818,0.24087,2.22485,-1.3061,-0.373
-0.34702,0.9027,0.25438,0.83075,-0.84412,-0.16308
-0.27319,0.91023,0.3112,-0.02964,-0.27783,1.54082
-0.31417,0.90544,0.28545,-1.21915,1.85118,-0.8428
-0.41393,0.89558,0.16307,0.35987,0.09728,-1.2665
-0.44103,0.88865,0.12564,1.38406,-0.49048,-0.87151
-0.34868,0.91806,0.18862,0.69235,1.623,-3.5361
-0.28262,0.94625,0.15728,0.62629,1.59481,-3.50476
-0.25353,0.95061,0.17905,-0.30224,0.17289,-1.29119
-0.27165,0.95173,0.1429,-0.89476,-0.66511,-0.07906
-0.19337,0.9786,0.07031,-0.6804,-0.12635,-1.1318
-0.01147,0.99971,0.0211,-1.0347,1.31747,-0.64512
0.11277,0.99256,-0.04586,-1.58709,4.66019,1.20216
0.1607,0.98029,-0.11496,0.18246,0.50223,1.17718
0.2056,0.9671,-0.14982,0.24127,0.14922,1.25848
0.23974,0.95755,-0.16009,-0.42632,-0.29042,0.82976
0.24439,0.95737,-0.15402,-1.31074,-1.00229,0.77349
0.22185,0.96646,-0.12937,-1.30868,-1.33345,0.85225
0.18514,0.97846,-0.09133,-0.79014,-1.78147,-0.08146
0.14864,0.98732,-0.05571,0.0636,-0.89324,0.13411
0.09337,0.99563,-0.00276,0.12744,-0.66735,0.34318
0.01602,0.99821,0.05757,-0.26848,-0.49064,0.27945
-0.06725,0.99077,0.11766,-0.3564,0.17292,-0.67687
-0.15289,0.97139,0.18173,-0.41593,0.61346,-0.97853
-0.25586,0.93652,0.23971,-1.94905,2.86465,0.47677
-0.37636,0.88189,0.28394,-2.56561,5.75628,-0.092
-0.47404,0.82276,0.31361,-1.28022,3.84612,-0.45686
-0.54701,0.7669,0.33564,0.62521,1.28784,-0.71793
-0.5977,0.72343,0.34554,1.18874,0.73346,-0.67314
-0.63372,0.6943,0.3411,1.38404,0.29653,-0.58194
-0.64024,0.68776,0.34217,1.05093,-0.94272,-0.61492
-0.61619,0.70893,0.34311,1.07521,-1.19065,-0.64327
-0.57621,0.75497,0.31304,1.52422,-1.86726,-0.60151
-0.50118,0.82826,0.25061,1.98631,-2.56108,-0.65181
-0.41221,0.88508,0.21612,1.84799,-1.52571,-0.0829
-0.35235,0.91359,0.20297,1.38406,-1.202,-0.0863
-0.28811,0.92528,0.24667,0.25285,0.11206,0.56763
-0.29855,0.91452,0.27297,-1.31326,2.56738,2.08907
-0.39143,0.90185,0.18289,-1.62909,2.33274,-0.70371
-0.44654,0.89043,0.08798,0.72835,-0.46509,-0.89736
-0.4252,0.89978,0.09801,1.17722,1.40621,0.0996
-0.37728,0.92067,0.1001,0.87011,0.47571,-0.49819
-0.34525,0.93429,0.08894,0.39722,-0.77935,-0.6314
-0.30079,0.95074,0.0749,0.5657,-0.80513,-0.98956
-0.17259,0.98485,0.01685,0.32495,-0.16649,-0.90702
0.01939,0.99977,-0.00882,-0.15025,2.65243,-1.19063
0.14852,0.98682,-0.06424,-0.83627,5.18022,0.25002
0.2255,0.96282,-0.14878,-1.73496,1.56566,1.85282
0.28674,0.93912,-0.18928,-0.26431,0.38009,1.20224
0.33021,0.92218,-0.20138,-0.88766,0.24787,1.04536
0.34347,0.91835,-0.19666,-1.44822,0.16622,0.08507
0.32434,0.9254,-0.19607,-1.56032,-0.96826,0.77714
0.29447,0.93854,-0.18006,-1.18188,-2.0279,0.35141
0.26079,0.95437,-0.14547,-0.56574,-1.8617,-0.26541
0.22784,0.96749,-0.10978,0.16287,-0.90394,0.12104
0.16659,0.9847,-0.05117,-0.39073,-0.68729,0.4251
0.09125,0.99577,0.0111,-0.44817,-0.19152,0.20611
0.00607,0.9977,0.06758,-0.77505,1.12848,-0.8092
-0.12106,0.98457,0.12637,-2.09383,3.63749,0.448
-0.27123,0.94334,0.19118,-2.23304,4.65316,0.02738
-0.38174,0.88395,0.27,-0.91506,3.71697,-0.90841
-0.47141,0.82019,0.32415,0.36321,1.66384,-0.86944
-0.54114,0.76893,0.34045,0.79035,1.03701,-0.97705
-0.58204,0.73249,0.35312,1.07278,-0.29022,-0.62709
-0.60233,0.7091,0.36657,1.12379,-0.83852,-0.81651
-0.59996,0.70714,0.37418,1.25413,-1.05497,-0.93937
-0.56909,0.7354,0.36786,1.87234,-1.74067,-0.95592
-0.50732,0.79922,0.32228,2.46176,-2.48814,-1.08731
-0.43522,0.85733,0.27491,2.39485,-2.45072,-0.81075
-0.36827,0.8978,0.24151,1.53301,-1.17681,-0.51902
-0.29856,0.92437,0.23751,0.31536,-0.34577,0.21937
-0.25999,0.92026,0.29244,-0.30881,0.45993,1.94781
-0.33476,0.90937,0.24695,-1.3234,2.56815,-0.41274
-0.42923,0.89386,0.12956,0.01141,-0.1177,-1.57507
-0.46169,0.88653,0.03018,1.02605,-0.64558,-1.58169
-0.3686,0.9027,0.22193,4.64489,-2.01684,6.32553
-0.24115,0.94589,0.21712,0.09629,1.53221,-3.56061
-0.19984,0.9683,0.14985,-0.51032,2.20585,-3.43033
-0.25167,0.96475,0.07699,-0.81513,1.07366,1.14414
-0.25668,0.96641,0.01288,-0.62621,0.0301,-1.09718
-0.13048,0.99137,0.01301,-0.81036,0.31297,-0.55655
0.0076,0.99921,-0.03906,-2.14345,3.82977,0.1089
0.07723,0.9923,-0.09679,-2.12647,0.14563,1.10317
0.11763,0.98322,-0.13944,-0.90796,-0.16546,1.26599
0.15339,0.97349,-0.1697,-0.39382,-0.28821,0.83451
0.16539,0.96991,-0.17864,-0.75798,-0.97513,0.47904
0.15524,0.97339,-0.16857,-0.79302,-1.32556,0.77803
0.13712,0.98051,-0.14068,-0.67817,-1.74446,0.27521
0.10985,0.98822,-0.10652,-0.15725,-1.17366,0.21247
0.05944,0.99644,-0.05983,-0.06642,-0.7378,0.32083
-0.0132,0.99991,-0.00131,-0.28249,-0.6205,0.44255
-0.09601,0.99365,0.05875,-0.2337,-0.16834,-0.09541
-0.18348,0.97529,0.12303,-0.29415,0.27053,-0.69695
-0.27441,0.94259,0.19031,-1.76346,2.08452,0.3283
-0.3974,0.8845,0.24438,-2.54913,4.17073,0.73291
-0.51747,0.81188,0.27033,-3.35869,6.70123,0.48482
-0.5988,0.74626,0.29075,0.59671,1.00049,-0.77553
-0.65699,0.68485,0.31519,1.10922,0.59712,-0.69394
-0.69768,0.64296,0.316,1.31715,0.29598,-0.65084
-0.71207,0.62817,0.31363,1.34212,-0.83245,-0.90218
-0.69694,0.63916,0.32519,1.82835,-1.46843,-1.07972
-0.6545,0.68929,0.31066,1.9981,-1.78711,-1.08692
-0.56886,0.77415,0.27766,2.33551,-2.49665,-0.60623
-0.46197,0.84677,0.26375,2.07945,-1.52594,-0.00615
-0.39842,0.88497,0.24102,1.57698,-0.91894,-0.22866
-0.35425,0.90128,0.2494,-0.11515,0.23661,1.14344
-0.34769,0.89458,0.28078,-1.05553,2.32078,1.7798
-0.41489,0.89314,0.17366,-0.90263,1.65633,-0.5054
-0.44326,0.89455,0.05747,1.07607,-0.45642,-1.30055
-0.39313,0.91437,0.09686,2.58392,0.88936,3.19463
-0.32004,0.94295,0.09181,0.7325,2.04227,-2.63921
-0.31149,0.94683,0.08062,-0.93101,1.1638,1.60467
-0.35341,0.93264,0.07274,-0.43236,-0.55564,-0.60655
-0.32352,0.94539,0.03953,-0.18545,-0.96837,-0.94753
-0.17195,0.98504,-0.0115,-0.59261,2.18208,-0.81908
0.01089,0.99869,-0.05,-1.27104,4.88254,0.55894
0.09088,0.9907,-0.10131,-1.8017,4.06936,1.77482
0.13513,0.97964,-0.14846,-0.15115,0.18352,1.18515
0.17377,0.96909,-0.17515,-0.50413,-0.34059,0.6946
0.20316,0.96119,-0.18666,-0.78,-0.54195,0.55781
0.20945,0.96047,-0.18338,-1.41611,-1.45916,1.24723
0.19023,0.96883,-0.15868,-1.40493,-1.56925,-0.00517
0.15221,0.98174,-0.11412,-1.04977,-1.71288,-0.31967
0.1175,0.99011,-0.07659,0.14252,-0.55799,0.59801
0.0639,0.99759,-0.02697,-0.00836,-0.69519,0.45257
-0.01569,0.9995,0.02732,-0.30902,-0.40989,0.0201
-0.10662,0.99082,0.08307,-0.88104,0.87543,-0.57127
-0.21863,0.96619,0.13666,-2.16124,3.47885,0.50859
-0.36542,0.91109,0.19075,-2.48837,5.40678,0.35685
-0.48037,0.84343,0.24056,-0.2359,2.10001,-0.76267
-0.56119,0.78033,0.27596,0.45641,1.38323,-0.42871
-0.63371,0.71882,0.28585,0.79159,0.99108,-0.58868
-0.68175,0.67422,0.28399,1.01625,-0.00506,-0.69436
-0.70136,0.65063,0.29115,1.06757,-0.83815,-0.75186
-0.70012,0.64798,0.29992,1.25275,-1.01598,-0.80473
-0.68071,0.67249,0.2905,2.41965,-1.76404,-0.86756
-0.62725,0.74087,0.24013,2.77697,-2.07278,-0.98914
-0.53305,0.81778,0.21701,1.97192,-1.14516,0.04342
-0.4533,0.8655,0.21312,0.81301,-0.88368,-0.11845
-0.38536,0.89203,0.23617,0.19377,-0.70669,0.28847
-0.37041,0.89336,0.25437,-1.64484,0.90437,2.20763
-0.44146,0.88733,0.13325,-0.35213,1.0273,-1.43783
-0.4838,0.87438,0.03747,1.35843,0.91552,-0.00082
-0.42928,0.89524,0.11946,2.42418,2.28248,4.14009
-0.37044,0.92677,0.06227,0.37781,0.30088,-1.83821
-0.34467,0.93595,0.07206,0.23321,-0.83833,-0.7262
-0.31656,0.94576,0.07299,-0.05622,-1.15152,0.12372
-0.23571,0.97145,0.02699,-0.40196,-0.22995,-0.86802
-0.07845,0.99691,0.00399,-1.84578,3.58907,-0.57171
0.04871,0.99809,-0.03802,-2.57375,5.23725,0.14541
0.12686,0.98599,-0.10831,-0.37301,0.45011,0.79826
0.18746,0.96988,-0.15551,0.01205,-0.39274,1.15179
0.23818,0.95357,-0.18431,-0.45784,-0.44715,0.76001
0.25107,0.9477,-0.19705,-1.46639,-0.83602,0.81929
0.22695,0.9551,-0.19046,-1.47701,-1.38014,1.04128
0.18541,0.97005,-0.15692,-1.3878,-1.53187,0.98131
0.13944,0.98515,-0.10021,0.215,-0.96801,0.00632
0.08811,0.99471,-0.0528,0.14123,-0.89948,0.4137
0.01297,0.99983,0.01344,-0.13308,-0.85558,0.30942
-0.07921,0.99301,0.08748,-0.78096,0.87302,-0.73801
-0.17839,0.97086,0.16004,-0.98959,1.25943,-0.82728
-0.30935,0.92301,0.22881,-1.43128,1.95899,0.05687
-0.46179,0.84193,0.27913,-3.19958,5.41555,-0.22454
-0.55512,0.76946,0.31588,-0.59999,2.18779,-0.88453
-0.62541,0.70422,0.33606,0.37446,1.28505,-0.7678
-0.68003,0.65194,0.33545,1.02287,0.64944,-0.87014
-0.71559,0.61821,0.32519,1.39306,-0.28085,-0.7768
-0.7248,0.60816,0.32374,1.55254,-0.74941,-1.00086
-0.70544,0.62958,0.32556,2.19433,-1.29442,-1.06925
-0.64786,0.70387,0.29129,2.58731,-2.1469,-1.02908
-0.54015,0.79753,0.26866,2.4796,-2.24056,-1.00645
-0.43425,0.86243,0.26006,1.97693,-1.38934,0.1988
-0.3737,0.89555,0.24154,0.09057,-0.18408,0.52463
-0.32,0.90773,0.27134,-0.69932,0.41594,2.13931
-0.34517,0.90846,0.23569,-0.82883,1.37733,-1.20176
-0.41254,0.90412,0.11128,0.25275,0.41787,-1.1302
-0.43093,0.89869,0.08153,0.90923,1.36927,0.18432
-0.39998,0.90901,0.11714,0.73359,0.35425,-0.45131
-0.36863,0.92134,0.12351,0.46528,-0.92231,-0.24883
-0.33668,0.93537,0.10828,0.4432,-1.31977,-0.62712
-0.24698,0.96713,0.06051,0.38632,-0.51909,-0.79169
-0.07087,0.9963,0.04863,-0.45271,2.69241,-0.97961
0.09321,0.99525,0.02795,-0.87404,5.02484,-0.14961
0.17228,0.98424,-0.03997,-1.70286,0.99809,0.94372
0.23552,0.9673,-0.09417,-0.25854,-0.12936,0.97867
0.28285,0.95075,-0.12682,0.02235,-0.09967,1.04271
0.30677,0.93881,-0.15659,-1.47862,-0.42517,0.59688
0.29944,0.93921,-0.16799,-1.83095,-1.22435,1.29589
0.26534,0.9502,-0.16342,-1.81568,-1.40795,1.02042
0.21933,0.96869,-0.11631,-0.5208,-1.45737,-0.0158
0.17863,0.98136,-0.07092,0.46311,-0.6404,0.4026
0.12929,0.99141,-0.01992,0.464,-0.57333,0.51412
0.05273,0.99774,0.04172,-0.21278,-0.1418,-0.3898
-0.03351,0.99436,0.10065,-0.82357,1.37736,-0.68798
-0.15327,0.97422,0.16555,-1.20329,2.538,-0.00024
-0.29699,0.92886,0.22138,-1.80773,4.4375,-0.28759
-0.4016,0.87294,0.27693,-0.47218,2.00145,-0.80854
-0.48572,0.81626,0.31272,-0.04132,1.79455,-0.54993
-0.56149,0.76412,0.31759,0.78519,0.7308,-0.74376
-0.61358,0.72536,0.31205,0.96722,-0.2783,-0.66387
-0.63752,0.70352,0.31406,1.07606,-0.48973,-0.56911
-0.64145,0.6993,0.31546,1.63514,-1.409,-0.73331
-0.62394,0.72154,0.30013,2.36767,-1.94756,-1.03261
-0.57584,0.77882,0.24867,2.48768,-2.20982,-1.27552
-0.49205,0.84216,0.22056,2.36919,-2.0702,-0.39971
-0.4089,0.88697,0.2147,0.93572,-0.73392,0.10918
-0.34678,0.91463,0.20784,0.39289,-0.43047,0.58387
-0.30807,0.92122,0.23761,-1.44045,1.35837,2.73349
-0.36672,0.9186,0.14728,-1.27199,2.12138,-1.29058
-0.43072,0.90223,0.02141,0.26022,-0.03732,-1.39401
-0.41357,0.9069,0.08057,2.0984,1.10975,2.60854
-0.3464,0.93479,0.07861,0.79515,1.68089,-2.25053
-0.31027,0.94783,0.07323,0.28504,0.20081,-1.56139
-0.30089,0.95152,0.06389,-0.23759,-0.45245,1.11887
-0.24406,0.96975,0.00343,0.15086,-0.39958,-0.60609
-0.08218,0.99653,-0.01289,-0.17144,0.70026,-0.38787
0.07252,0.9968,-0.03379,-1.49299,4.68781,0.10196
0.14431,0.98639,-0.07879,-2.16783,1.85112,0.91105
0.20211,0.97172,-0.12215,-0.68716,0.1826,0.56999
0.24297,0.95702,-0.15834,-0.22766,-0.33349,0.62422
0.26717,0.94209,-0.20272,-1.24793,-0.88477,0.73554
0.2604,0.93846,-0.22689,-1.49283,-1.17804,0.967
0.22452,0.95015,-0.21635,-1.81462,-1.65331,1.22061
0.18148,0.97024,-0.16033,-0.1597,-0.76008,-0.11938
0.1461,0.98263,-0.11443,0.43238,-0.5406,0.10628
0.10575,0.99255,-0.06049,0.27496,-0.60341,0.49657
0.03602,0.99935,0.0006,-0.29144,-0.15098,0.05497
-0.05262,0.99604,0.07172,-0.42701,0.19107,-0.42493
-0.1557,0.97686,0.14662,-1.35137,1.70168,-0.11005
-0.28277,0.93501,0.21398,-2.91332,6.24286,0.31261
-0.40521,0.87693,0.25846,-2.66428,6.48167,-0.19253
-0.49879,0.81907,0.28342,0.43796,1.39859,-0.65791
-0.5722,0.7634,0.29969,0.99197,0.69492,-0.72982
-0.62314,0.72179,0.30118,1.12766,0.28318,-0.76266
-0.64585,0.70054,0.3035,1.34066,-1.0935,-1.01012
-0.63908,0.69793,0.32321,1.50523,-1.29374,-1.08898
-0.60507,0.72028,0.33925,1.99708,-1.78563,-1.09091
-0.54246,0.77878,0.31502,2.4249,-2.44446,-1.08359
-0.44824,0.84696,0.2859,2.70322,-2.28867,-0.26904
-0.35655,0.89279,0.27532,1.60585,-0.99258,-0.16813
-0.2915,0.91739,0.27095,0.21492,-0.38961,0.52888
-0.24782,0.91856,0.30796,-1.17038,1.3536,3.2068
-0.30539,0.91299,0.27052,-0.93102,2.90299,1.83737
-0.38789,0.91385,0.12005,0.49356,0.1681,-2.03094
-0.3924,0.91659,0.07677,1.99114,1.46658,-0.07125
-0.34198,0.93382,0.10497,0.7981,2.26907,-2.01213
-0.31707,0.9407,0.12059,-0.6067,0.27158,1.37911
-0.32403,0.93811,0.12227,0.14622,-1.22843,-1.38663
-0.2707,0.95659,0.108,0.16331,-1.38763,-1.1829
-0.12696,0.99019,0.0583,-0.29004,1.6403,-1.34015
0.06702,0.99774,-0.00454,-0.7793,4.48198,-0.50619
0.17515,0.98221,-0.06777,-0.82388,5.83167,1.834
0.22936,0.9657,-0.12169,-0.28619,0.21285,1.26616
0.27794,0.94866,-0.15099,-0.99254,-0.21563,0.66064
0.31026,0.9383,-0.15274,-1.23335,-0.12431,0.21907
0.30965,0.93906,-0.14929,-1.53888,-0.79039,0.84295
0.28221,0.94934,-0.13822,-1.65729,-1.51663,1.2666
0.23971,0.96533,-0.1033,-0.96302,-1.65454,-0.1388
0.20269,0.9766,-0.07196,0.10627,-1.25875,-0.15632
0.16283,0.98601,-0.03574,0.03358,-1.06818,0.30332
0.08719,0.99596,0.02141,-0.51953,-0.81911,-0.1876
-0.0057,0.99658,0.0824,-0.78216,0.24597,-0.75183
-0.11422,0.98408,0.13616,-2.22779,3.1834,0.62195
-0.27256,0.94506,0.18047,-2.56965,4.59856,0.46793
-0.40528,0.87783,0.25529,-1.64753,3.72386,-0.67239
-0.48871,0.81299,0.31655,0.1905,2.58767,-0.79116
-0.5521,0.75575,0.35219,1.28897,1.19216,-0.66785
-0.61596,0.70591,0.34969,0.92925,-0.18513,-0.43604
-0.66092,0.67152,0.33505,1.00258,-0.48768,-0.37911
-0.68414,0.66009,0.31021,1.2669,-0.95132,-0.64768
-0.67535,0.67726,0.29193,2.17685,-1.57871,-0.78593
-0.63574,0.73089,0.24827,2.79892,-1.99525,-1.3774
-0.5651,0.80012,0.20118,2.6664,-1.76574,-1.14414
-0.48985,0.85139,0.18756,1.24211,-0.84734,-0.32041
-0.41174,0.88875,0.2015,0.43545,-0.65021,0.72896
-0.34801,0.90272,0.25296,-0.5395,-0.15132,2.36335
-0.3872,0.90338,0.18434,-1.07813,1.89249,-1.60268
-0.45199,0.88955,0.06638,0.11918,0.54986,-0.8688
-0.4653,0.88012,0.09428,1.04068,0.78897,0.65493
-0.40453,0.91042,0.08656,0.85863,1.85949,-3.51034
-0.38125,0.92269,0.05736,0.4414,-0.6233,-2.0163
-0.36488,0.92923,0.05824,0.55784,-1.04349,-1.34414
-0.30758,0.95069,0.03976,-0.01824,-1.44624,1.506
-0.18665,0.98235,0.01216,-0.56852,0.45339,-0.6606
-0.03637,0.99934,-0.00234,-2.72317,5.74368,-0.2566
0.03724,0.99821,-0.04671,-2.66803,2.33925,0.64066
0.10292,0.98741,-0.12012,-0.69484,0.1248,0.57263
0.1595,0.97236,-0.17052,0.04781,-0.63279,0.89373
0.19254,0.9586,-0.20979,-0.57702,-1.01501,1.14657
0.18385,0.9582,-0.21919,-1.26862,-1.22496,1.04138
0.14986,0.96943,-0.19429,-1.19617,-1.28739,0.57052
0.11382,0.9827,-0.14608,0.01072,-0.71983,0.2148
0.08015,0.99258,-0.09145,0.27934,-0.54449,0.36883
0.02864,0.9989,-0.0372,0.1908,-0.64378,0.29897
-0.05474,0.99821,0.02402,-0.19107,-0.42116,-0.42108
-0.15744,0.98314,0.093,-0.49291,0.43068,-0.8416
-0.28725,0.94309,0.16752,-1.97594,2.67243,0.80796
-0.43979,0.87066,0.22031,-2.74005,5.12258,-0.2663
-0.54315,0.79598,0.2672,-1.44749,4.01852,-0.65801
-0.61389,0.73186,0.29585,-0.03931,1.64003,-0.64709
-0.67352,0.67754,0.29549,0.72081,1.00188,-0.57529
-0.71228,0.64114,0.28565,1.02986,-0.1034,-0.53964
-0.72661,0.62563,0.28394,1.15734,-0.49397,-0.60964
-0.72476,0.62994,0.27911,1.44355,-0.92037,-0.77353
-0.70362,0.66324,0.25501,2.16513,-1.457,-0.73227
-0.64579,0.73745,0.1978,3.06362,-1.9238,-1.04863
-0.56957,0.8013,0.18306,1.51409,-0.9183,0.0701
-0.50846,0.8401,0.18896,0.44449,-0.65461,0.28762
-0.44665,0.86423,0.23154,0.10512,-0.37659,1.3112
-0.45619,0.86736,0.19893,-1.20188,1.50439,-1.04734
-0.51889,0.8529,0.05763,-0.09503,1.686,-0.15805
-0.54768,0.83486,0.05527,0.40186,2.16143,0.40843
-0.51942,0.85304,0.05022,0.89909,0.17683,-0.6698
-0.4755,0.8794,0.02365,1.16167,-1.0105,-0.59857
-0.4005,0.91628,0.00585,1.32461,-1.32698,-0.94299
-0.26943,0.96272,-0.02396,0.45264,-0.4315,-0.79002
-0.09466,0.99509,-0.02881,-1.0341,3.01745,-0.06715
0.04602,0.99673,-0.06639,-2.00169,5.40161,-0.04968
0.12408,0.98172,-0.14433,-1.04109,1.09084,1.35757
0.18659,0.96611,-0.17839,-0.43383,-0.05516,1.29213
0.23103,0.95498,-0.18611,-0.89914,-0.122,0.48898
0.24788,0.94913,-0.19417,-1.4054,-0.70206,0.28531
0.2358,0.9472,-0.21726,-1.33291,-1.6991,1.65068
0.20933,0.95749,-0.1985,-1.1558,-1.87304,0.80426
0.16013,0.97355,-0.16295,-0.24613,-1.8614,0.08822
0.1121,0.98645,-0.11978,-0.21042,-0.49226,0.79893
0.03992,0.99751,-0.05821,-0.27468,-0.42614,0.52614
-0.04417,0.99901,0.00428,-0.49224,0.47897,-0.37177
-0.14313,0.98714,0.07115,-0.65264,0.68063,-0.99161
-0.27849,0.94943,0.14502,-2.40168,2.88834,0.62046
-0.4476,0.86686,0.21956,-3.99018,5.53634,-0.2582
-0.55979,0.77973,0.28046,-0.93473,3.19683,-1.16851
-0.6458,0.70367,0.2963,0.22814,2.23005,-0.97144
-0.71152,0.64053,0.28891,1.63352,0.77938,-0.87614
-0.74808,0.59559,0.29266,1.57725,-0.33178,-0.63849
-0.75913,0.5772,0.30092,1.5893,-0.61121,-0.73975
-0.73656,0.5999,0.31241,2.42595,-1.60091,-0.88936
-0.67304,0.67858,0.29419,2.66108,-2.15973,-1.04457
-0.56583,0.77704,0.27577,2.60136,-2.25699,-0.56564
-0.45016,0.84959,0.27486,2.41328,-1.63715,0.00148
-0.38331,0.88294,0.27109,0.18725,-0.45876,0.46518
-0.33225,0.89526,0.29686,-0.55093,0.07215,1.81748
-0.34099,0.88669,0.31226,-0.92814,2.52815,0.90547
-0.43468,0.88362,0.17399,0.18242,0.00717,-2.11062
-0.47525,0.87942,0.02768,0.81981,-0.37871,-1.52339
-0.41897,0.89846,0.13129,2.34236,0.059,3.91202
-0.33468,0.93329,0.13021,0.16842,2.62896,-2.08273
-0.29262,0.94741,0.12957,-0.29546,1.96195,-0.01218
-0.31168,0.94542,0.09507,-0.51675,-0.25304,-0.20058
-0.2735,0.96117,0.03667,0.11981,-0.86681,-1.22599
-0.14082,0.99003,0.00103,-0.16311,0.64302,-1.31954
0.01243,0.99941,-0.03185,-1.53702,4.40366,0.6395
0.08907,0.99135,-0.09644,-2.42067,1.16402,0.94045
0.13723,0.98011,-0.14338,-0.32968,-0.23499,1.27177
0.17976,0.96933,-0.16761,-0.30845,-0.388,0.79303
0.19753,0.96422,-0.1768,-0.92455,-0.72037,0.47755
0.18431,0.96782,-0.17133,-1.04384,-0.99435,0.72269
0.1502,0.97752,-0.14799,-1.05984,-1.44164,1.08422
0.1039,0.98882,-0.107,-0.17512,-1.48462,-0.15754
0.05075,0.9964,-0.06783,0.25783,-0.84318,0.07018
-0.02197,0.99974,-0.00574,-0.18169,-0.72565,0.30843
-0.10613,0.99212,0.0666,-0.3533,0.1247,-0.28336
-0.19222,0.97175,0.13696,-0.46992,0.82073,-0.89367
-0.29106,0.93311,0.21119,-2.1771,3.20549,0.93646
-0.44855,0.85229,0.2691,-3.74457,6.40322,0.06482
-0.56103,0.77048,0.30266,-1.89996,4.2884,-0.57638
-0.63653,0.6994,0.32507,0.91899,1.27741,-0.75009
-0.69589,0.63822,0.32926,1.2787,0.63136,-0.83051
-0.73667,0.59738,0.31695,1.4066,0.05054,-0.67607
-0.75277,0.5825,0.30666,1.4964,-1.05328,-0.67692
-0.73917,0.60143,0.30316,1.95327,-1.46106,-0.72388
-0.70305,0.65502,0.2769,2.15114,-1.53531,-0.6694
-0.63959,0.73571,0.22286,2.67563,-2.06481,-0.76189
-0.54706,0.81041,0.20967,2.20276,-1.10707,0.41276
-0.48245,0.85464,0.19194,1.59831,-0.90842,0.11052
-0.41894,0.88383,0.20816,0.07277,0.02512,0.65286
-0.37694,0.88976,0.25736,-1.65424,2.3507,1.70798
-0.43511,0.88375,0.17224,-1.45834,2.24612,-0.80713
-0.49708,0.86691,0.03719,0.32995,-0.33639,-1.49259
-0.49859,0.86682,-0.00499,0.96838,-0.7477,-1.11008
-0.43249,0.89457,0.1127,2.16275,0.75314,5.59511
-0.38833,0.91663,0.09484,-0.0723,1.56245,-2.10744
-0.38581,0.91287,0.13347,-0.2766,-0.35635,0.40715
-0.3782,0.92247,0.07749,0.21389,-0.77703,-1.13665
-0.26948,0.96297,-0.00852,0.77264,-0.36705,-0.8769
-0.08511,0.99637,-0.00219,-0.38645,2.63409,-1.12955
0.03408,0.9976,-0.06023,-1.40969,4.9834,0.45985
0.09387,0.98834,-0.11992,-1.84578,-0.00643,1.03869
0.1437,0.97546,-0.16681,-0.17362,0.22898,0.95307
0.18224,0.96521,-0.18751,-0.31873,-0.30305,0.80366
0.19606,0.9621,-0.18953,-0.9043,-0.63794,0.42724
0.18177,0.96604,-0.18367,-1.12457,-1.4821,1.33698
0.15186,0.97441,-0.16571,-1.07048,-1.57619,0.8993
0.1074,0.98536,-0.1324,-0.57378,-1.69108,-0.3833
0.05944,0.99376,-0.09439,-0.03677,-0.77307,0.44308
-0.01163,0.99939,-0.03291,-0.19778,-0.76431,0.23878
-0.09859,0.99456,0.03348,-0.30673,-0.24919,-0.4596
-0.19694,0.97577,0.09532,-1.38998,1.60684,0.19738
-0.33473,0.93155,0.14205,-1.99758,2.87682,0.72049
-0.48724,0.84986,0.20083,-3.08705,5.28291,-0.17179
-0.58882,0.76871,0.24974,-0.83849,2.74055,-0.85569
-0.6614,0.69715,0.27663,0.14014,1.8288,-0.35959
-0.71812,0.64026,0.27272,1.0131,0.3142,-0.48618
-0.751,0.60104,0.27339,0.97575,-0.57649,-0.2759
-0.7623,0.58697,0.27268,0.98592,-0.84164,-0.42486
-0.75435,0.59994,0.26653,1.75088,-1.21267,-0.73753
-0.72864,0.64111,0.24095,2.81115,-1.74392,-1.04251
-0.66749,0.71962,0.19132,3.16505,-2.028,-1.33333
-0.58935,0.78765,0.17963,2.03935,-0.79531,-0.02749
-0.52553,0.83185,0.17847,0.71959,-0.5805,0.11308
-0.45426,0.86042,0.23092,0.34421,-0.46098,0.91015
-0.45896,0.85687,0.23478,-0.83526,0.07487,2.80669
-0.53753,0.83893,0.08517,-0.25521,0.82101,-1.20755
-0.57718,0.8166,0.00513,0.64298,0.06925,-0.86303
-0.53079,0.83898,0.11989,1.71062,0.86711,-0.19005
-0.45789,0.88866,0.02475,0.80641,0.81602,-4.82723
-0.3988,0.91622,0.03862,0.11467,1.20627,-2.81415
-0.37399,0.92547,0.06038,-0.98641,0.13207,3.026
-0.33994,0.94022,-0.02068,-0.60811,-0.10779,-0.76228
-0.2384,0.9703,-0.04099,-1.12938,0.1279,-0.55667
-0.10423,0.99156,-0.07704,-2.65585,3.77733,0.38107
-0.02782,0.98966,-0.14074,-1.32338,0.31467,0.89898
0.02139,0.9815,-0.19026,-0.54941,-0.10348,1.0461
0.05641,0.97098,-0.23239,-0.69487,-0.62737,0.68266
0.0688,0.96429,-0.25577,-0.92125,-0.93328,0.93279
0.05176,0.96666,-0.25077,-1.09481,-1.38553,0.95246
0.02082,0.97657,-0.21421,-0.2048,-1.05547,0.3751
-0.01691,0.98676,-0.16132,0.59164,-0.40859,0.37778
-0.0627,0.99205,-0.1091,0.61277,-0.53954,0.40912
-0.137,0.98972,-0.04112,-0.26276,-0.45499,-0.16808
-0.24133,0.96988,0.03308,-0.42094,0.10365,-0.65551
-0.36621,0.92409,0.10928,-1.5363,1.40121,-0.26405
-0.52002,0.83674,0.1716,-3.80472,3.97243,0.18793
-0.63638,0.7425,0.20908,-1.79968,3.85397,-0.66385
-0.72266,0.65584,0.21824,-0.00594,1.81431,-0.95768
-0.78914,0.57441,0.21751,0.19863,1.11245,-0.75836
-0.82829,0.52092,0.20635,0.84076,0.36048,-0.55249
-0.84018,0.49932,0.21162,1.29611,-0.33135,-0.39433
-0.83284,0.50873,0.21812,1.71814,-0.80115,-0.59315
-0.80337,0.55577,0.21383,2.93511,-1.38859,-0.9303
-0.73384,0.64924,0.19995,3.06825,-1.77584,-1.03794
-0.62916,0.74561,0.21959,2.69798,-1.5351,0.3275
-0.55733,0.80057,0.22017,1.66787,-0.77092,0.08936
-0.50267,0.82983,0.24229,0.04814,-0.31939,0.87701
-0.50484,0.83103,0.23349,-1.69102,1.06678,1.31404
-0.57326,0.81493,0.08521,-0.68719,1.11213,-1.55575
-0.60373,0.79716,0.00717,0.74292,0.02959,-0.70934
-0.54732,0.83072,0.10171,0.47037,1.24136,-3.77475
-0.47772,0.87791,0.03234,0.40212,1.75963,-3.44708
-0.44087,0.89497,0.06836,-0.04654,0.9726,-1.47836
-0.42927,0.9004,0.07074,-0.42563,-0.36073,-0.74055
-0.38125,0.92433,0.0162,-1.08112,-0.19803,-0.9163
-0.23069,0.97287,0.01723,-1.8443,0.95036,0.04669
-0.10014,0.99484,-0.01625,-2.59534,4.2225,0.42262
-0.03299,0.99734,-0.06505,-0.65854,-0.22803,0.4749
0.01439,0.99219,-0.12393,-0.29782,-0.48662,0.57905
0.0515,0.98198,-0.18184,-0.6996,-1.1573,0.55369
0.05842,0.97575,-0.21093,-1.42845,-1.87573,1.3419
0.03404,0.97764,-0.20752,-1.67578,-2.01222,1.07382
-0.00399,0.98612,-0.16598,-0.40261,-0.65462,0.65588
-0.03924,0.99313,-0.11027,0.79719,-0.32598,0.22066
-0.07011,0.99587,-0.05772,0.94342,-0.29863,0.38562
-0.12612,0.99193,0.01291,0.17189,-0.6541,-0.09012
-0.22293,0.9703,0.09388,-0.13392,-0.21969,-0.66851
-0.33774,0.92208,0.18895,-0.91729,0.86165,-1.00838
-0.48525,0.83696,0.25303,-4.97022,5.07318,0.03684
-0.59979,0.74879,0.28208,-1.13133,3.25415,-0.91187
-0.68411,0.66769,0.29357,0.04061,2.0963,-0.95503
-0.74989,0.59541,0.28835,0.69193,1.2383,-0.8072
-0.79441,0.54799,0.26197,1.25455,0.02316,-0.56982
-0.81485,0.52499,0.24577,1.41536,-0.43328,-0.41752
-0.81059,0.53067,0.24768,1.73025,-0.89114,-0.77435
-0.77972,0.5762,0.24501,2.27169,-1.24541,-0.6678
-0.71782,0.66549,0.20459,2.56052,-1.56938,-0.66476
-0.61573,0.75922,0.21084,2.91851,-1.58639,0.56195
-0.536,0.81615,0.21585,1.77598,-0.69122,0.23955
-0.47543,0.84817,0.23362,0.78347,-0.47079,0.30305
-0.44471,0.85583,0.26419,-1.61601,1.72364,1.82787
-0.52204,0.84344,0.12687,-1.30548,1.94744,-1.39613
-0.57401,0.81871,-0.015,0.4513,-0.08521,-1.21101
-0.54559,0.83147,0.10485,0.36901,1.66449,-2.18937
-0.50044,0.86215,0.07906,0.32386,1.6338,-2.16358
-0.46676,0.87856,0.10131,-0.16791,2.50073,-1.89402
-0.46155,0.88277,0.08765,-0.18023,-0.39705,-0.33946
-0.39782,0.91672,0.03689,0.57117,-1.20405,-0.80279
-0.2412,0.96888,0.05558,-0.17835,0.49112,-0.16758
-0.10064,0.99333,0.05621,-2.98478,3.52603,0.66173
-0.04529,0.99856,0.02861,-2.47975,0.83005,0.59549
-0.0012,0.99991,-0.0131,-0.63564,-0.48086,-0.02407
0.03582,0.99706,-0.06779,-0.4136,-0.48609,0.21816
0.06844,0.9893,-0.12886,-0.77584,-1.52581,0.85725
0.07892,0.98421,-0.15842,-1.0446,-1.78274,0.82401
0.06241,0.98582,-0.15575,-1.43171,-2.11378,0.70116
0.02498,0.99291,-0.11623,-0.0844,-0.43288,0.54188
-0.01398,0.99769,-0.06643,0.41114,-0.16513,0.44201
-0.05722,0.99829,-0.01193,0.76204,-0.28859,0.35594
-0.12246,0.99113,0.05167,0.32585,-0.79127,-0.11047
-0.2114,0.9688,0.12934,0.01176,-0.56742,-0.51069
-0.31897,0.92294,0.21552,-1.16002,0.67394,-0.95296
-0.46995,0.83981,0.27178,-4.00492,3.93999,0.66137
-0.60073,0.74789,0.28247,-2.80261,5.9264,-0.52124
-0.68568,0.66831,0.28846,0.4922,1.41568,-0.58393
-0.75153,0.59737,0.27989,0.70605,1.21423,-0.62006
-0.79356,0.55389,0.25191,1.11998,0.08327,-0.5747
-0.8002,0.54495,0.25042,1.30691,-0.82472,-0.60623
-0.78086,0.56512,0.26626,1.9779,-1.09263,-0.69358
-0.74078,0.61971,0.25923,2.33066,-1.26185,-0.682
-0.66942,0.70566,0.2322,3.18691,-1.7555,-0.77802
-0.57852,0.78031,0.23756,2.83621,-1.62661,0.31725
-0.51414,0.82672,0.22846,1.56197,-0.85098,0.10685
-0.44124,0.86081,0.2536,-0.08683,-0.14327,1.5161
-0.43042,0.86672,0.25206,-1.70812,1.56289,-0.18863
-0.50955,0.85431,0.10253,-0.94591,1.28123,-1.52253
-0.56166,0.8261,0.04579,-0.09553,3.2391,-0.76385
-0.57343,0.81566,0.07671,0.55406,0.96249,-0.06538
-0.56093,0.82181,0.09999,0.81231,-0.115,0.20352
-0.51833,0.85204,0.07326,1.10458,-1.40959,-1.3062
-0.41348,0.90981,0.03591,0.65814,-1.45674,-0.89813
-0.24329,0.96917,0.03904,0.03368,-0.79738,-0.91024
-0.0906,0.99573,0.01765,-2.46769,5.91465,0.33817
-0.02777,0.99803,-0.05621,-2.36252,4.7888,1.28846
0.0428,0.99244,-0.11506,-0.69164,0.94468,0.8088
0.10883,0.98239,-0.15188,-0.4955,-0.39316,0.58439
0.14916,0.97327,-0.17466,-1.24742,-0.81917,0.43163
0.14621,0.97199,-0.18399,-1.42434,-1.17376,0.89293
0.10668,0.97678,-0.18579,-1.6778,-1.86658,1.04905
0.05463,0.98769,-0.14655,-0.08191,-1.65484,-0.06122
0.00566,0.99449,-0.10468,0.36097,-0.9034,0.03943
-0.04435,0.99732,-0.05822,0.49177,-0.66356,0.48342
-0.12343,0.99235,0.00303,-0.06087,-0.61106,0.15287
-0.22153,0.97227,0.07493,-0.82126,0.59082,-0.72108
-0.33717,0.92689,0.1649,-1.37972,1.13807,-0.38314
-0.46496,0.85467,0.23099,-4.6325,4.58683,0.58523
-0.56775,0.77716,0.27144,-2.11111,4.85611,-0.77787
-0.65058,0.70217,0.2893,0.50538,1.87031,-0.91888
-0.72131,0.63184,0.28371,1.2341,1.05525,-0.86472
-0.77158,0.58181,0.25722,1.44535,0.20917,-0.76132
-0.79621,0.5568,0.23669,1.53185,-0.56066,-0.56337
-0.79036,0.56539,0.23592,1.79197,-0.76833,-0.76505
-0.74365,0.62806,0.2292,2.52262,-1.15175,-0.69522
-0.64054,0.73721,0.21502,2.79842,-1.79521,-0.67443
-0.50795,0.8296,0.23186,2.72788,-1.98771,0.51572
-0.43118,0.87406,0.22383,1.69741,-1.07412,0.23682
-0.38444,0.89273,0.23502,-0.09825,-0.39139,0.86242
-0.38991,0.89665,0.20975,-0.7821,1.29433,-1.82717
-0.45205,0.88903,0.07265,-0.39589,0.8325,-1.95003
-0.47634,0.87908,0.01797,0.21536,2.91226,0.26546
-0.45903,0.88235,0.10373,0.19804,2.90899,0.1797
-0.43997,0.89209,0.103,0.0352,0.84546,-1.0468
-0.41871,0.90196,0.10562,0.60228,-0.98316,-0.82371
-0.35326,0.93398,0.05368,0.84603,-1.02682,-1.09415
-0.20003,0.9797,0.01334,0.31068,0.68751,-1.27146
-0.01641,0.99982,0.00968,-1.35407,4.99942,0.6821
0.08623,0.9937,-0.07159,-2.39951,4.98093,2.87437
0.14619,0.9825,-0.11543,-0.14402,-0.24605,1.18436
0.18974,0.97367,-0.12634,-0.74807,-0.08009,0.54733
0.2084,0.97125,-0.11513,-1.17272,-0.30874,0.06007
0.19251,0.97619,-0.09999,-1.24564,-0.85474,0.71564
0.15472,0.98414,-0.08682,-0.72287,-1.59348,-0.19488
0.10316,0.99233,-0.06804,-0.27577,-1.8944,-0.31288
0.05242,0.99757,-0.04589,-0.1427,-1.97369,0.10596
-0.00404,0.9999,-0.01344,-0.74704,-1.0872,0.2918
-0.09071,0.99527,0.03473,-0.61734,-0.336,-0.10751
-0.18331,0.97847,0.09482,-0.36552,0.32042,-0.84519
-0.2799,0.94843,0.14879,-0.91273,0.63406,-0.0139
-0.39838,0.89864,0.18368,-3.38312,3.88033,0.46478
-0.54113,0.80625,0.23903,-4.45025,5.70305,-0.02486
-0.62692,0.73142,0.26833,0.02249,2.5325,-0.8001
-0.69624,0.66726,0.26459,1.50467,0.57296,-0.71906
-0.74542,0.61816,0.24944,1.34648,0.20882,-0.54778
-0.77104,0.58898,0.24205,1.27272,-0.45181,-0.33826
-0.77633,0.58429,0.23646,1.82095,-0.88423,-0.45123
-0.75739,0.61632,0.21567,2.22705,-1.02564,-0.56195
-0.6964,0.69786,0.16739,2.9197,-1.55732,-0.78341
-0.59164,0.78756,0.17234,2.1416,-1.50735,0.57005
-0.51352,0.83914,0.17929,1.76288,-1.16572,0.27122
-0.46112,0.86475,0.19895,0.45311,-0.62428,0.18118
-0.41506,0.8745,0.25097,-1.51334,0.51059,2.36537
-0.4618,0.87406,0.15087,-0.98159,1.41415,-1.98176
-0.50493,0.86247,0.03454,-0.24792,0.6003,-1.1948
-0.50241,0.8641,0.03002,1.74138,-0.90009,-0.38993
-0.44256,0.89247,0.08737,1.60202,0.8904,1.42702
-0.39973,0.91359,0.0747,0.0386,3.86538,-4.91143
-0.37533,0.91482,0.14913,-0.266,1.72807,-0.7299
-0.3662,0.92937,0.04643,-0.23772,-0.553,0.62273
-0.30053,0.95298,0.03888,-0.08057,-0.94183,-0.9465
-0.19053,0.98089,0.03939,-0.82901,0.51217,-1.01066
-0.10003,0.9944,0.03406,-3.58972,4.91284,1.48829
-0.04244,0.99908,-0.00636,-2.46132,-0.1065,-0.10332
-0.00039,0.99801,-0.06302,-0.50254,-0.91125,0.59379
0.02679,0.99258,-0.11862,0.12795,-0.59434,0.17472
0.03894,0.98715,-0.15495,-0.31416,-1.3198,0.61461
0.03501,0.98722,-0.15549,-0.87961,-1.75034,0.79199
0.01392,0.99086,-0.13418,-1.02901,-1.79524,0.73259
-0.02058,0.9958,-0.08925,-0.31699,-0.75475,0.50119
-0.06598,0.99684,-0.04431,0.46913,-0.48954,0.24832
-0.12398,0.99223,0.01031,0.54854,-0.8542,-0.0655
-0.20246,0.97645,0.07456,0.02072,-0.83254,-0.6883
-0.29865,0.94402,0.1401,-0.49105,-0.10207,-0.85459
-0.42775,0.88362,0.1904,-2.55423,2.04335,0.36
-0.55849,0.79741,0.22853,-3.0098,4.63893,-0.46101
-0.64979,0.71625,0.25449,-0.99263,2.96475,-0.72822
-0.70895,0.65143,0.27024,0.29432,1.80566,-0.16647
-0.75427,0.60045,0.26558,0.55561,0.53944,-0.47639
-0.7755,0.57374,0.26349,0.72934,-0.26324,-0.17122
-0.77856,0.57186,0.25849,0.85953,-0.42487,-0.17953
-0.76896,0.59008,0.24598,1.47944,-0.61166,-0.51835
-0.7484,0.62674,0.21702,1.77982,-0.73385,-0.55636
-0.69352,0.69979,0.17123,3.1558,-1.25949,-1.02076
-0.60691,0.77493,0.17649,2.05361,-1.40501,0.35308
-0.54404,0.81842,0.18498,1.06014,-1.0038,-0.06481
-0.47742,0.84798,0.23023,0.62186,-0.76908,-0.05089
-0.45891,0.8541,0.24477,-1.99862,0.73181,0.45486
-0.52683,0.84071,0.12515,-0.96258,1.14966,-1.6653
-0.58087,0.81359,0.02558,-0.50084,0.88097,-0.8373
-0.56162,0.8177,0.12631,2.45441,2.00846,5.67582
-0.51185,0.85471,0.08643,-0.13713,2.12978,-3.23978
-0.47974,0.87088,0.1069,0.05792,1.79863,-2.47879
-0.475,0.86959,0.1349,0.39599,-0.51728,-0.41812
-0.4395,0.89449,0.08202,0.42426,-0.83684,-0.44659
-0.31331,0.94661,0.07594,-0.1358,0.16068,-0.18798
-0.15229,0.98622,0.06467,-2.36708,3.61608,-0.72509
-0.06333,0.99775,0.02184,-3.00822,2.00418,1.00288
0.00681,0.99957,-0.02833,-1.18835,-0.02916,0.77543
0.0628,0.99572,-0.06783,-0.10114,-0.24994,0.76354
0.09597,0.99002,-0.1032,-0.88524,-0.53973,0.21092
0.09932,0.98741,-0.12311,-1.13902,-1.01657,0.4526
0.07783,0.98847,-0.12988,-1.19456,-1.62658,0.77008
0.04422,0.99282,-0.11112,-0.59144,-2.25767,0.74932
0.00858,0.99784,-0.06521,0.09196,-1.80571,0.06007
-0.03261,0.9992,-0.02324,0.64519,-0.58564,0.10004
-0.09559,0.995,0.02903,0.21342,-0.90264,0.15277
-0.17505,0.98013,0.09328,-0.23478,-0.6741,-0.33657
-0.26011,0.95208,0.1609,-0.52932,0.08781,-0.76268
-0.35997,0.90813,0.21382,-1.56969,0.73846,-0.5054
-0.48469,0.83699,0.25402,-4.61053,3.39758,0.33023
-0.59484,0.7507,0.28743,-2.39579,5.11573,-0.74452
-0.67416,0.67514,0.2995,-0.0815,2.32126,-0.77357
-0.73574,0.61258,0.28885,0.57624,1.42124,-0.66301
-0.77541,0.56901,0.2738,1.13013,0.05345,-0.36655
-0.79085,0.55114,0.26607,1.35376,-0.61801,-0.40137
-0.78685,0.56155,0.25599,1.47867,-0.81513,-0.51566
-0.76172,0.60429,0.23369,2.36383,-1.12479,-0.59229
-0.7035,0.68462,0.19075,2.98052,-1.49706,-0.68544
-0.60261,0.77664,0.18355,2.7691,-1.59048,-0.21628
-0.52475,0.83099,0.18466,1.1008,-0.87905,0.05531
-0.4486,0.86555,0.22267,0.60074,-0.69734,0.07425
-0.41506,0.87325,0.25527,-1.40524,0.39952,2.65127
-0.48678,0.86338,0.13273,-1.1915,1.66608,-2.1163
-0.54904,0.83528,0.02934,-0.43892,0.81992,-1.02511
-0.54911,0.83113,0.08775,0.48802,2.45082,-1.4346
-0.52038,0.8507,0.07433,0.70489,0.22589,-0.58218
-0.48338,0.87311,0.06339,0.73854,-0.51017,-0.49168
-0.42391,0.90445,0.04768,0.73305,-1.1046,-1.0296
-0.30336,0.95286,0.00563,0.17761,-0.39093,-0.80977
-0.12523,0.99213,0.00265,-0.35127,0.69341,-0.82838
0.00824,0.99949,-0.03096,-1.67063,4.49833,-0.63661
0.09653,0.98893,-0.11267,-1.09055,1.73801,1.32346
0.17883,0.97142,-0.15606,-0.52878,0.82498,0.99241
0.23376,0.95797,-0.16629,-0.91507,0.20013,1.46034
0.24962,0.95503,-0.16,-1.82976,-0.11142,-0.26093
0.22205,0.96161,-0.16125,-1.67904,-0.61212,0.40582
0.16712,0.97244,-0.16262,-1.38188,-2.25915,1.0757
0.1136,0.9847,-0.13217,-0.45899,-2.13486,-0.17097
0.06782,0.99177,-0.1086,-0.41322,-2.14193,-0.19455
-0.00036,0.99783,-0.06578,-0.33187,-1.09161,0.25441
-0.0906,0.99589,-0.0003,-0.65569,-0.49531,-0.112
-0.18462,0.98032,0.06999,-1.07333,0.62448,-1.12987
-0.29417,0.94567,0.13849,-2.41505,2.67749,1.07036
-0.42899,0.882,0.19504,-3.72392,5.56923,-0.19553
-0.54768,0.79965,0.24617,-1.3857,3.79648,-1.17256
-0.64248,0.71902,0.26502,-0.57332,2.9202,-1.05725
-0.72468,0.64481,0.24301,1.39835,1.29143,-0.93219
-0.7714,0.59143,0.23485,1.63436,-0.16472,-0.23189
-0.79305,0.56274,0.23322,1.6818,-0.46304,-0.29929
-0.79136,0.56749,0.22738,1.92483,-0.87237,-0.4315
-0.76132,0.61514,0.20493,2.91348,-1.25796,-0.51849
-0.69217,0.7022,0.1668,2.88019,-1.54219,-0.54559
-0.59834,0.78307,0.16967,2.34552,-1.70768,0.34179
-0.52364,0.83615,0.16328,1.05864,-0.67883,-0.112
-0.45705,0.87172,0.17667,0.52898,-0.4417,-0.07212
-0.41019,0.88639,0.21461,-1.07058,0.648,2.23034
-0.4659,0.87856,0.10519,-1.37779,1.7862,-1.92588
-0.51873,0.8546,-0.02388,-0.37599,0.55882,-1.36289
-0.50838,0.85991,0.04597,1.91672,-0.83174,0.94139
-0.45381,0.8906,0.02976,-0.05336,1.80375,-2.41411
-0.4131,0.91,0.03526,-0.41913,2.36934,-2.27382
-0.41765,0.90655,0.06111,-0.11143,0.13402,0.42209
-0.38648,0.92228,-0.00618,0.40903,-1.0131,-0.95767
-0.26523,0.96335,-0.04007,0.77385,-1.03246,-0.82531
-0.10053,0.99361,-0.05128,-0.59102,1.5472,-1.47973
-0.01354,0.99263,-0.12046,-2.97448,5.34998,2.21984
0.04111,0.98586,-0.16244,-1.86722,-0.11817,1.26496
0.08694,0.97757,-0.19186,-0.67161,-0.40327,0.38251
0.11116,0.97146,-0.20955,-1.04666,-0.48522,0.30788
0.10565,0.9696,-0.22071,-1.02646,-0.86196,0.50396
0.07567,0.97364,-0.21516,-0.83731,-1.81501,1.00414
0.03858,0.98194,-0.18523,-0.55671,-1.83123,0.23387
0.00129,0.98801,-0.15439,0.21333,-1.71869,0.02983
-0.05927,0.99297,-0.10247,-0.02639,-1.04729,0.47834
-0.13753,0.98978,-0.0377,-0.2642,-0.95234,0.28231
-0.2282,0.97314,0.03029,-0.48596,-0.11998,-0.23837
-0.33358,0.93727,0.1013,-1.51927,1.2495,0.15441
-0.46293,0.8723,0.15743,-2.69561,2.61567,0.86677
-0.58252,0.78544,0.20919,-4.20311,6.05743,-0.13443
-0.6743,0.70072,0.23304,-0.00565,2.13142,-0.72915
-0.7482,0.62427,0.22471,0.68431,1.76192,-0.60526
-0.79751,0.56635,0.2079,1.47421,0.36261,-0.48746
-0.82045,0.5347,0.20239,1.45166,-0.50241,-0.36493
-0.81654,0.53885,0.20711,1.44684,-0.72471,-0.51618
-0.78256,0.59022,0.19811,1.90907,-1.09458,-0.57037
-0.70699,0.68914,0.15892,2.68213,-1.74683,-0.81497
-0.58095,0.79513,0.17396,2.62102,-2.00807,0.38889
-0.47311,0.86356,0.17447,2.23106,-1.41557,0.2144
-0.42041,0.89162,0.16814,0.92067,-0.29215,0.21203
-0.38616,0.90197,0.19319,-1.06872,1.07637,2.45018
-0.43038,0.89822,0.08931,-0.85677,1.37412,-1.9495
-0.47205,0.88108,-0.02936,-0.35066,0.97805,-2.00502
-0.48233,0.87597,0.00534,0.02767,1.96372,0.07737
-0.47375,0.88044,0.01966,0.39793,0.68636,-0.41364
-0.46128,0.88698,0.02193,0.8629,-0.42298,-0.45992
-0.39762,0.91753,0.00609,0.74947,-0.73453,-1.15058
-0.25567,0.96676,-0.00308,0.24479,-0.06764,-0.71348
-0.08931,0.996,0.00118,-0.88946,2.4075,-0.76689
0.02135,0.99836,-0.05308,-2.12158,4.42672,0.42109
0.10325,0.98815,-0.11357,-2.07702,0.75915,0.96767
0.15746,0.97552,-0.15351,-0.543,-0.20733,0.96136
0.19341,0.96392,-0.18288,-0.41007,-0.20591,0.71611
0.2075,0.95749,-0.2004,-1.14494,-0.32519,0.25899
0.1931,0.95947,-0.20524,-1.38785,-0.96788,0.80624
0.1577,0.96751,-0.19764,-1.23318,-1.50982,1.08248
0.10968,0.98019,-0.16492,-0.66238,-1.72003,0.24967
0.06092,0.98857,-0.13787,0.25863,-1.52599,-0.06512
0.0062,0.99548,-0.09475,0.38124,-0.83365,0.46091
-0.06924,0.99685,-0.03859,-0.19823,-0.79121,0.13836
-0.14995,0.9884,0.02406,-0.33984,-0.0368,-0.14871
-0.24011,0.9662,0.09379,-0.60974,0.67323,-0.95016
-0.35771,0.92155,0.15098,-1.55628,1.89529,0.53313
-0.49233,0.85051,0.18504,-4.07589,5.506,0.06813
-0.57996,0.78772,0.20773,-1.20195,3.00186,-0.76549
-0.65564,0.72382,0.215,0.54538,1.62774,-0.59234
-0.71469,0.67232,0.19289,1.29792,0.96179,-0.6882
-0.74586,0.64261,0.17534,1.53717,-0.02882,-0.40537
-0.75177,0.6365,0.17237,1.47787,-0.59117,-0.33134
-0.73736,0.65398,0.16912,1.95477,-0.98835,-0.39858
-0.69628,0.70485,0.1356,2.15766,-1.15356,-0.33418
-0.62243,0.7781,0.08449,2.69116,-1.51716,-0.38722
-0.53554,0.84138,0.0727,1.97664,-1.68543,0.6579
-0.47862,0.87615,0.0573,1.42508,-1.25249,0.40677
-0.42659,0.89876,0.10125,0.48065,-0.41109,0.17089
-0.40967,0.90651,0.10202,-1.35505,1.7628,-0.30089
-0.45276,0.89145,-0.01787,-1.09635,1.63591,-1.96067
-0.47114,0.87533,-0.10875,-0.06259,0.54984,-1.17812
-0.44347,0.89607,-0.02006,0.4128,2.1516,-0.31154
-0.42253,0.90605,-0.02343,-0.05048,2.28804,-1.5046
-0.4266,0.90441,0.00807,-0.1901,0.7263,-1.03534
-0.39711,0.91768,-0.01287,0.05092,-0.57095,-0.91302
-0.2902,0.95464,-0.06668,0.32178,-0.77616,-0.93364
-0.12814,0.98816,-0.0844,0.40252,0.11047,-1.06427
0.0001,0.99251,-0.12214,-1.04156,4.31285,0.60227
0.08273,0.97894,-0.18664,-2.0481,0.9795,1.33348
0.13338,0.96668,-0.21849,-1.15671,-0.12273,0.77222
0.17506,0.95678,-0.23224,-1.07761,-0.16303,0.10672
0.19602,0.95105,-0.23893,-1.36185,-0.72416,0.49314
0.18594,0.95089,-0.24746,-1.39012,-1.19454,1.00917
0.14931,0.95624,-0.25161,-1.16204,-1.5696,0.90362
0.09793,0.96943,-0.22499,-0.64842,-1.85085,0.44696
0.03888,0.9798,-0.19616,0.08521,-1.75827,0.00692
-0.02745,0.98693,-0.15877,0.14609,-0.99934,0.36828
-0.11025,0.9889,-0.09966,-0.24252,-0.76354,0.12099
-0.19765,0.97965,-0.0348,-0.65145,0.29836,-0.45692
-0.31083,0.9499,0.03287,-2.5428,3.13531,1.22536
-0.45722,0.88587,0.07867,-4.18139,6.30551,0.06567
-0.57446,0.8091,0.12395,-1.94228,4.08075,-0.66488
-0.66944,0.7278,0.14883,0.5093,1.92214,-0.61491
-0.74973,0.64848,0.13185,1.35608,0.81423,-0.69155
-0.79526,0.59485,0.1171,1.32302,-0.19053,-0.27236
-0.81356,0.56826,0.12327,1.42106,-0.68135,-0.24459
-0.81158,0.57096,0.12382,2.13162,-1.0516,-0.43782
-0.7891,0.60448,0.10922,2.4505,-1.12197,-0.47316
-0.73593,0.67247,0.07869,2.97407,-1.44665,-0.62624
-0.65531,0.75216,0.06945,2.62431,-1.59798,0.44895
-0.5802,0.8129,0.05066,1.72081,-0.83531,0.39442
-0.52232,0.85188,0.0386,0.44829,-0.40501,0.36283
-0.47049,0.87869,0.08091,-1.48542,0.68131,1.54932
-0.48283,0.87565,-0.01053,-1.30025,1.40764,-2.21468
-0.51099,0.85053,-0.12446,-0.35043,0.86726,-0.67238
-0.51934,0.84633,-0.11834,0.77794,2.27588,1.19865
-0.50052,0.85593,-0.12986,0.8306,0.9653,-0.46691
-0.4722,0.87225,-0.1273,0.66093,0.19286,-0.38091
-0.40993,0.9058,-0.10713,0.12077,0.11847,-0.55757
-0.2972,0.94826,-0.11171,-0.17048,0.08775,-0.67092
-0.16125,0.97889,-0.12562,-0.53618,0.81759,-1.04069
-0.05843,0.98877,-0.13754,-1.8271,3.34102,-0.32209
0.029,0.98252,-0.1839,-1.78872,1.65391,1.84047
0.08383,0.97438,-0.20868,-0.92209,-0.18123,0.95908
0.12507,0.96557,-0.2281,-1.03025,-0.2232,0.38727
0.15415,0.95609,-0.24924,-1.19563,-0.39817,0.02532
0.15397,0.95086,-0.26862,-1.23937,-1.1313,0.76895
0.11515,0.95658,-0.26777,-1.33562,-1.93294,1.21055
0.0636,0.96823,-0.24183,-0.33029,-1.87088,0.07276
0.01869,0.978,-0.20775,0.42531,-0.71522,0.56652
-0.03496,0.98686,-0.15772,0.37864,-0.53609,0.59654
-0.10742,0.98905,-0.10118,-0.05577,-0.57794,-0.28173
-0.1869,0.98154,-0.04064,-1.02297,0.64418,-0.63126
-0.29456,0.95491,0.03713,-1.71679,1.84787,0.70362
-0.43661,0.89484,0.0929,-3.08947,4.49008,-0.02724
-0.56762,0.80797,0.15806,-0.96418,2.6742,-0.90753
-0.66073,0.72575,0.19164,-0.34301,2.75652,-0.56807
-0.73454,0.65314,0.18399,1.02234,1.73686,-0.63573
-0.78284,0.59451,0.18366,0.92116,-0.0543,-0.13047
-0.80679,0.55967,0.18939,0.96949,-0.37377,-0.0738
-0.81255,0.55492,0.17842,1.50212,-1.08779,-0.35093
-0.79627,0.58387,0.15827,2.31324,-1.35781,-0.70253
-0.74806,0.65348,0.11559,2.8072,-1.71962,-0.90713
-0.66501,0.74031,0.09852,2.50298,-1.78152,-0.46586
-0.58509,0.80549,0.09409,1.77398,-0.84866,0.03173
-0.5235,0.84478,0.11085,1.12,-0.60174,-0.12788
-0.46083,0.86799,0.185,0.26883,-0.0263,1.32707
-0.48351,0.86425,0.13888,-1.49301,1.7284,-2.03895
-0.54417,0.83844,0.03014,0.47989,0.11722,1.08291
-0.57475,0.81821,0.0138,1.55658,2.20216,4.14834
-0.54704,0.83681,0.02238,0.90394,1.59169,-1.36912
-0.49727,0.86752,-0.01152,0.81563,-0.21287,-1.1703
-0.45854,0.88846,-0.01922,0.73886,-0.80289,-1.21935
-0.40637,0.91326,-0.0288,0.242,-0.67,-0.63351
-0.29694,0.95434,-0.03271,-1.05032,1.8959,-0.12082
-0.15327,0.98766,-0.03225,-1.8505,3.56122,-0.35622
-0.04947,0.9939,-0.09855,-1.60479,2.30804,0.75143
0.04314,0.98598,-0.16119,-0.65058,1.0485,0.96903
0.10792,0.97439,-0.19729,-0.40273,0.10638,1.50669
0.15629,0.96318,-0.21877,-1.12386,-0.20114,0.12116
0.17343,0.95795,-0.2286,-1.4054,-0.55966,0.30874
0.15141,0.96166,-0.22865,-1.46034,-1.5478,1.14031
0.09564,0.96886,-0.22839,-1.25009,-2.00348,0.75926
0.03519,0.98088,-0.19139,-0.36367,-2.09061,0.53064
-0.01924,0.98915,-0.14567,0.43946,-0.84297,0.31911
-0.08671,0.99216,-0.08994,0.47548,-0.66522,0.35558
-0.16761,0.98566,-0.01937,-0.05938,-0.26319,0.02451
-0.25297,0.96564,0.05961,-0.68375,0.83755,-1.08085
-0.35386,0.92383,0.14599,-1.60871,2.00314,0.79505
-0.47626,0.85865,0.18949,-3.63202,5.53828,-0.04775
-0.58693,0.78008,0.21677,-1.23253,3.00791,-0.83781
-0.66949,0.70374,0.23775,0.18901,1.82467,-0.66742
-0.74234,0.6331,0.21935,0.91664,1.2773,-0.83009
-0.78504,0.58885,0.19226,1.34594,0.1226,-0.48564
-0.79955,0.57126,0.18542,1.50048,-0.64874,-0.46483
-0.79247,0.58173,0.18325,1.67537,-0.81962,-0.43782
-0.76243,0.62517,0.16691,2.37207,-1.18953,-0.54389
-0.70279,0.69871,0.13377,2.47868,-1.58103,-0.47137
-0.62326,0.77069,0.13265,2.46997,-1.82312,0.28474
-0.55365,0.82308,0.1265,1.78177,-1.11514,0.41627
-0.49505,0.85695,0.1434,0.2068,-0.21147,0.70084
-0.4499,0.87089,0.19784,-1.65372,0.97986,0.99173
-0.49575,0.8622,0.10414,-1.60787,0.98856,1.08544
-0.54435,0.83838,-0.02832,0.71327,-0.1456,-0.63394
-0.53588,0.84429,0.0039,1.95122,-0.36911,1.62803
-0.48237,0.87583,0.01516,-0.06407,1.63469,-2.26983
-0.44582,0.89504,0.01224,-0.61038,1.50321,-1.14607
-0.4452,0.89502,0.0272,-0.56278,0.48105,1.72383
-0.40064,0.91522,-0.04319,0.21919,-0.59721,-0.93829
-0.27493,0.95851,-0.07528,0.78316,0.16308,-0.86492
-0.12429,0.9884,-0.08731,0.02105,1.46445,-1.12965
-0.03636,0.98924,-0.14173,-1.14714,4.34005,1.44402
0.02232,0.98348,-0.17965,-1.15341,-0.20015,0.90063
0.07885,0.97473,-0.20899,-0.80889,-0.31516,0.18966
0.12544,0.96369,-0.23574,-1.17143,-0.41989,0.18357
0.14157,0.95568,-0.25813,-1.49066,-0.98391,0.94971
0.10954,0.95581,-0.27282,-1.75618,-1.54489,1.00552
0.05063,0.96234,-0.26708,-1.39102,-2.07506,1.17966
0.00034,0.97742,-0.2113,0.44794,-1.02807,0.29797
-0.05216,0.98654,-0.155,1.10459,-0.4443,0.59035
-0.10466,0.99111,-0.08208,0.75597,-0.4692,0.49225
-0.17975,0.98371,-0.00156,-0.23856,0.30642,-0.75569
-0.28045,0.95631,0.08263,-1.22598,1.21844,-0.3113
-0.42471,0.89206,0.15446,-3.61332,3.16712,0.38848
-0.5582,0.80368,0.20617,-2.8061,4.05356,-0.58007
-0.65495,0.71766,0.23666,-0.13903,2.41341,-0.78993
-0.73604,0.63343,0.23879,0.44513,1.66497,-0.57725
-0.78839,0.57546,0.21745,0.86238,0.30773,-0.48553
-0.81088,0.54506,0.21304,1.16922,-0.54205,-0.1855
-0.80798,0.54569,0.22225,1.16441,-0.74111,-0.38956
-0.78557,0.5753,0.22782,1.55864,-0.88396,-0.54467
-0.74845,0.63051,0.20563,2.11437,-1.03255,-0.71853
-0.68517,0.70835,0.16965,2.88045,-1.66866,-1.07688
-0.58324,0.79348,0.17384,2.58071,-1.62201,0.55696
-0.49489,0.85297,0.16591,1.89442,-0.81693,0.06973
-0.43178,0.88404,0.17899,-0.35053,0.13537,1.63148
-0.39969,0.89143,0.21355,-1.59103,1.61722,2.36133
-0.47421,0.8751,0.0966,-1.14975,1.54276,-1.79025
-0.52908,0.84836,-0.01898,1.0477,1.17543,0.80983
-0.52568,0.85031,0.025,0.78145,1.68301,-0.6907
-0.48857,0.87242,-0.01362,0.64883,0.7059,-0.79244
-0.45248,0.89176,-0.00541,0.41287,-0.07518,-0.75414
-0.41282,0.91057,0.02108,-0.22373,-0.10226,-0.4067
-0.31929,0.94761,0.00935,-0.43887,0.10224,-0.70457
-0.17599,0.98439,-0.00267,-1.77924,2.96068,-0.53393
-0.05615,0.99714,-0.05057,-1.24879,1.79429,1.03317
0.03729,0.99306,-0.1115,-1.18002,1.12606,1.26416
0.09682,0.98292,-0.15651,-0.43721,-0.25237,1.08405
0.14505,0.97195,-0.18515,-0.9901,-0.31946,0.12464
0.17266,0.96311,-0.20643,-1.2085,-0.38254,0.09521
0.16242,0.9627,-0.21639,-1.2858,-1.07205,0.75496
0.11973,0.97002,-0.21149,-1.0654,-1.92052,0.90224
0.066,0.98197,-0.17712,-0.12791,-1.76878,0.46546
0.01203,0.99152,-0.12942,0.3301,-0.92622,0.10283
-0.0497,0.99584,-0.07632,0.3989,-0.86881,0.40864
-0.12699,0.99185,-0.00992,0.17475,-0.92452,0.05018
-0.21209,0.97533,0.06125,-0.81796,0.30413,-0.9276
-0.31721,0.93874,0.13474,-2.75888,2.49454,1.02798
-0.45227,0.87338,0.18074,-4.22684,5.35981,-0.11948
-0.55899,0.79644,0.23066,-2.14888,4.24295,-0.83506
-0.63695,0.72479,0.26262,0.09443,2.02237,-0.50023
-0.70256,0.66316,0.25812,0.79948,1.3643,-0.74795
-0.7471,0.62186,0.2348,1.27904,0.12108,-0.48475
-0.76654,0.59926,0.23087,1.33905,-0.60014,-0.29882
-0.76611,0.6,0.2304,1.54354,-0.77483,-0.47051
-0.74558,0.63006,0.21713,2.04279,-1.06582,-0.48227
-0.69286,0.70118,0.16821,2.91211,-1.64756,-0.55083
-0.58981,0.79576,0.13748,2.3056,-1.8532,0.35495
-0.48671,0.86388,0.12971,1.5968,-1.17183,0.16689
-0.41617,0.89576,0.15628,0.65713,-0.34257,0.20481
-0.36911,0.90196,0.22413,-1.40062,1.16811,2.41818
-0.44131,0.88848,0.12591,-1.40548,1.55746,-2.37098
-0.51845,0.85506,0.00928,-0.24099,0.28757,-1.27564
-0.54456,0.83689,0.05541,0.97484,1.24459,1.5865
-0.54418,0.83806,0.03906,1.04575,0.78616,-0.61766
-0.5226,0.85204,0.03018,1.00687,-0.48614,-0.72192
-0.46332,0.88507,0.04459,0.64911,-0.53043,-1.08172
-0.34313,0.93895,0.02514,-0.26491,0.32239,-0.89645
-0.1947,0.98051,0.02648,-1.26824,2.35523,-0.77947
-0.09705,0.99522,0.01103,-2.34756,3.4852,0.52036
-0.00903,0.99846,-0.05465,-1.77121,0.55761,0.84223
0.07003,0.99172,-0.10765,0.08027,-0.04694,0.51656
0.12979,0.97813,-0.16254,-0.05098,-0.17753,0.64839
0.16787,0.96292,-0.21122,-0.98342,-0.46699,0.47965
0.17232,0.95656,-0.23516,-1.58986,-1.28871,1.24552
0.13622,0.96202,-0.23658,-1.63948,-1.52378,1.1892
0.08054,0.97491,-0.20752,-0.23649,-1.32987,0.70801
0.02958,0.98784,-0.15267,0.78131,-0.42012,0.40682
-0.02336,0.99508,-0.0963,0.9749,-0.25185,0.55556
-0.08645,0.99585,-0.02832,0.05976,-0.1223,-0.49779
-0.17237,0.98383,0.04865,-0.77611,0.88464,-0.8608
-0.28163,0.94931,0.13961,-1.25369,1.98,0.05258
-0.42517,0.88331,0.19748,-3.03483,4.44149,0.0849
-0.5348,0.80821,0.24654,-0.60613,2.092,-0.81683
-0.61377,0.73958,0.27623,0.36422,1.92291,-0.47123
-0.67857,0.68139,0.27431,0.62806,1.68964,-0.62604
-0.71859,0.64766,0.2533,1.10835,-0.49486,-0.40344
-0.73177,0.63932,0.23619,1.202,-0.66293,-0.47582
-0.71877,0.65809,0.22424,1.32856,-0.89732,-0.64446
-0.67916,0.70584,0.20133,1.90008,-1.59903,-0.80467
-0.60548,0.77977,0.15923,2.06136,-1.97982,-0.95247
-0.49395,0.85406,0.16305,2.40257,-1.87239,0.47666
-0.39956,0.89991,0.17467,0.83218,-0.40219,0.34024
-0.34957,0.91477,0.20246,0.17461,-0.16082,1.00207
-0.32627,0.91149,0.25047,-1.02807,1.77804,1.68959
-0.38841,0.90531,0.17189,-0.51521,1.09715,-1.07672
-0.45761,0.88807,0.0439,1.51782,-0.07287,0.546
-0.45608,0.88594,0.0843,1.2265,1.01088,0.9762
-0.42007,0.90221,0.09776,0.60077,1.44816,-1.20716
-0.37478,0.92221,0.09527,0.23437,0.61423,-1.61866
-0.34646,0.93402,0.087,0.06948,-0.08676,-0.04909
-0.27059,0.96235,0.02587,-0.12712,-0.16146,-0.28128
-0.12641,0.99172,0.0224,-0.59834,1.80237,0.10182
-0.00382,0.99982,-0.01868,-0.9961,3.63699,0.04306
0.06895,0.9948,-0.07501,-1.60829,0.92032,0.78865
0.13091,0.9845,-0.11675,-0.82227,-0.00822,0.69668
0.18262,0.97163,-0.15031,-0.41681,-0.1943,0.55376
0.22017,0.95785,-0.18452,-1.14851,-0.57064,0.35543
0.22639,0.95201,-0.20599,-1.49283,-1.0093,0.92741
0.19604,0.95817,-0.2085,-1.5824,-1.36157,0.73917
0.13785,0.97264,-0.187,-1.05888,-1.66193,0.9129
0.085,0.98657,-0.13945,0.32961,-0.98052,0.32123
0.03513,0.99461,-0.09759,0.81004,-0.57511,0.44167
-0.02489,0.99908,-0.035,0.32016,-0.65403,0.29294
-0.1068,0.99362,0.0363,-0.23443,0.05149,-0.86626
-0.20411,0.97301,0.10763,-1.05279,1.48132,-0.39092
-0.36177,0.91743,0.16568,-3.47052,5.76693,-0.07123
-0.50946,0.83579,0.20471,-2.12695,3.74162,-0.58916
-0.59635,0.76866,0.23137,-0.71432,2.28278,-1.03273
-0.66955,0.70424,0.23612,0.6186,0.89928,-0.61687
-0.72018,0.65943,0.2156,0.82077,0.12096,-0.5232
-0.73847,0.6412,0.20863,1.15937,-0.62817,-0.31743
-0.73138,0.64826,0.21177,1.43014,-1.13685,-0.48877
-0.70239,0.68164,0.205,1.6659,-1.2957,-0.5711
-0.64688,0.74372,0.16861,2.28536,-1.61206,-0.75644
-0.55477,0.8209,0.1355,2.60529,-1.89968,0.17022
-0.453,0.88126,0.13483,2.24345,-1.41304,0.38096
-0.38675,0.90942,0.15292,1.02185,-0.52198,0.32053
-0.33084,0.91444,0.23311,-1.99719,1.68505,2.30859
-0.39937,0.90235,0.16205,-1.68946,2.17315,-1.19991
-0.49804,0.86624,0.03983,-0.56611,0.40669,-1.23845
-0.51612,0.85125,0.09482,1.39121,1.28606,1.44828
-0.48166,0.87256,0.08144,0.70748,1.56155,-1.86666
-0.41521,0.90774,0.06015,0.13493,0.5998,-2.08422
-0.38017,0.922,0.07333,-0.08249,-0.21709,-0.13992
-0.34209,0.93903,0.03463,-0.46446,-0.13999,-0.62335
-0.24724,0.96891,-0.0091,-1.08662,1.02086,-1.02306
-0.11591,0.99247,-0.03969,-1.69309,3.46679,0.44533
-0.02728,0.99289,-0.11588,-0.5874,1.79669,0.93552
0.02396,0.98617,-0.16401,0.02064,-0.00718,0.9986
0.06823,0.97813,-0.19648,-0.5053,-0.40786,0.68496
0.10696,0.97147,-0.21167,-1.10745,-0.64873,0.61792
0.11348,0.97067,-0.21196,-1.48539,-1.22633,0.95262
0.08152,0.97605,-0.20167,-1.41154,-1.6414,0.83264
0.02434,0.98665,-0.16102,-0.26235,-1.78153,0.49868
-0.03248,0.99367,-0.10749,0.70314,-0.55909,0.35397
-0.0922,0.99482,-0.04274,0.77099,-0.48275,0.63291
-0.16311,0.98631,0.02438,-0.02355,0.06014,-0.6878
-0.24512,0.96448,0.0985,-0.71109,0.94634,-0.90619
-0.35381,0.91725,0.18297,-2.55549,3.60077,0.99201
-0.48794,0.84687,0.21146,-2.07853,3.60691,-0.37783
-0.58364,0.77117,0.25428,-0.34149,1.86471,-0.77136
-0.65476,0.70253,0.27882,0.21851,1.69952,-0.49258
-0.71166,0.65161,0.26257,0.48678,0.743,-0.58076
-0.74277,0.62813,0.23181,0.92093,-0.26482,-0.21282
-0.75268,0.62426,0.20921,1.16274,-0.48165,-0.3571
-0.73921,0.6435,0.19871,1.2699,-0.67247,-0.41424
-0.70181,0.68937,0.17956,1.58132,-0.91198,-0.46064
-0.63756,0.75907,0.13162,2.05407,-1.63564,-0.83953
-0.53662,0.83386,0.12929,2.01243,-1.97778,0.0377
-0.4424,0.88361,0.15337,0.98499,-0.98563,0.46101
-0.39696,0.89408,0.20747,-1.10373,-0.02993,1.44442
-0.42892,0.88827,0.16433,-1.72627,0.53615,-0.30181
-0.49514,0.86657,0.06242,-0.70197,0.9038,-1.37265
-0.55607,0.82784,0.07395,-0.98356,3.94386,0.25946
-0.57776,0.81286,0.07389,0.01994,2.71365,0.13779
-0.56566,0.82205,0.06532,1.24138,-0.33222,-0.61475
-0.49592,0.86707,0.04744,1.84917,-1.38385,-1.1216
-0.36262,0.93064,0.04915,0.47289,-0.31182,-1.01635
-0.21022,0.97627,0.05192,-0.32803,0.91609,-0.31749
-0.11829,0.99289,0.01363,-2.19923,2.8111,0.4384
-0.06955,0.99655,-0.0454,-1.78465,0.97831,0.89214
-0.00956,0.99537,-0.09565,-0.75243,-0.37363,0.69448
0.03789,0.99131,-0.12598,-0.01598,-0.67127,0.8149
0.0589,0.98689,-0.15024,-0.42909,-0.8031,0.72731
0.04857,0.98674,-0.15489,-1.10872,-1.00732,0.8912
0.01386,0.99057,-0.13629,-0.97114,-1.33307,0.35985
-0.03874,0.99424,-0.09991,-0.7065,-1.56822,0.34822
-0.09473,0.99439,-0.04713,0.68295,-0.26181,0.72342
-0.15583,0.98762,0.01817,0.74427,-0.05088,0.1762
-0.22276,0.97145,0.08156,0.56343,0.03376,-0.40279
-0.29723,0.9432,0.14842,-0.65296,0.98734,-0.79034
-0.39546,0.89244,0.21719,-2.41223,3.62089,0.30229
-0.52887,0.82084,0.21567,-2.08377,3.21419,-0.42264
-0.61498,0.7533,0.23311,-0.46951,1.84529,-0.75519
-0.66512,0.70005,0.2599,0.8456,1.11615,-0.32977
-0.7101,0.65852,0.24922,0.75113,-0.52862,-0.19057
-0.7265,0.6512,0.2194,0.97215,-0.68241,-0.14103
-0.71634,0.671,0.19136,1.07208,-0.95153,-0.34025
-0.67995,0.71437,0.16538,1.41634,-1.15428,-0.26693
-0.62427,0.77103,0.12571,1.67531,-1.70514,-0.36294
-0.54854,0.83218,0.08106,1.79238,-1.91997,-0.33099
-0.46981,0.87908,0.08058,1.28751,-1.60624,0.18115
-0.41743,0.90013,0.12455,-0.03126,-0.30622,0.79089
-0.41687,0.89364,0.16623,-1.60087,0.31189,0.78726
-0.50056,0.86055,0.09432,-1.30381,0.73534,-1.58878
-0.58771,0.80762,0.04845,-0.51232,2.0547,1.77328
-0.63013,0.77122,0.09026,-0.74447,4.81694,-0.13162
-0.64767,0.7619,0.00541,0.72532,1.05385,-1.5841
-0.64557,0.76369,0.0046,1.54944,-0.90614,-1.19397
-0.58594,0.808,0.06169,1.85172,-1.87873,-0.11009
-0.4781,0.87559,0.06903,0.68774,-0.67929,-0.3704
-0.36601,0.92968,0.04153,-0.50333,1.4419,-0.08465
-0.32624,0.94474,0.03218,-2.08151,3.22265,0.45761
-0.34734,0.9377,0.00793,-1.45934,-0.11828,0.45142
-0.35194,0.93602,0.00257,-0.64317,-0.55075,0.32116
-0.34915,0.93703,0.00802,0.55092,-0.56705,0.6839
-0.34587,0.93825,0.00759,0.70742,-0.82331,0.31635
-0.34693,0.93782,0.01194,0.46976,-1.19847,0.17691
-0.371,0.92797,0.03504,-0.43952,-1.33184,0.34107
-0.41513,0.90724,0.06769,-0.48629,-1.25018,0.37553
-0.46241,0.8807,0.10273,0.13149,-0.25014,0.31174
-0.51364,0.84603,0.14285,0.23474,0.13397,-0.35489
-0.56444,0.80288,0.19184,0.19906,0.34671,-0.41686
-0.61517,0.75105,0.23977,-0.65459,1.6019,-0.14165
-0.68595,0.68346,0.24971,-1.29622,2.97361,-0.41763
-0.75205,0.62193,0.21823,-0.12523,1.30989,-0.55162
-0.78845,0.57952,0.20615,0.67894,0.57464,-0.5114
-0.81317,0.55315,0.18103,1.01677,0.30561,-0.40978
-0.82298,0.55217,0.13346,0.89262,0.11189,-0.28946
-0.80729,0.58094,0.10383,0.73973,-0.30683,0.11765
-0.77298,0.62811,0.08932,0.72162,-0.55569,0.17693
-0.72659,0.68337,0.07124,0.69783,-0.75168,0.22137
-0.6671,0.74414,0.03514,0.77034,-1.12273,0.22815
-0.60663,0.79436,0.0313,0.32226,-1.03645,0.01118
-0.57851,0.81567,0.00312,-0.35225,-0.86938,-1.00383
-0.57844,0.81199,-0.07796,-0.2876,-0.80326,-0.48643
-0.59878,0.79364,-0.1077,-0.97046,1.53825,0.95257
-0.66609,0.74587,-0.00166,-1.59885,1.66328,-0.38196
-0.72146,0.69121,0.04149,-2.50474,3.96101,0.03897
-0.74743,0.66338,-0.03572,1.10414,0.16904,0.07798
-0.74617,0.66521,-0.02689,2.09346,-0.01247,-1.12848
-0.68361,0.72977,-0.01069,2.40724,-0.55256,-0.38114
-0.56927,0.82191,0.02,2.14166,0.55756,0.30029
-0.48843,0.8721,0.02951,0.32943,1.71466,0.27443
-0.49207,0.87021,0.02475,-1.31509,1.23612,-0.04379
-0.54482,0.8384,0.01588,-1.14312,-0.24047,0.20627
-0.56529,0.82474,0.01588,0.606,-0.46942,0.24625
-0.57255,0.81944,0.02658,0.75012,-0.62704,0.21789
-0.57992,0.81371,0.03959,0.92994,-0.80729,-0.09881
-0.59222,0.80437,0.04761,0.75335,-0.91026,-0.23497
-0.61391,0.78692,0.06223,0.59408,-0.5441,-0.20324
-0.643,0.76038,0.0915,0.58349,-0.18256,-0.12941
-0.67692,0.72734,0.11295,0.65574,0.61,0.0079
-0.70708,0.69883,0.10806,0.03649,2.68612,-0.59496
-0.73815,0.67164,0.0635,-0.85966,1.29262,-0.42811
-0.75829,0.65144,0.02507,-0.31784,0.07439,0.08063
-0.7618,0.64693,-0.03386,0.10671,0.25516,-0.09017
-0.74722,0.65884,-0.08718,0.00858,0.06306,-0.11595
-0.71565,0.68688,-0.1267,-0.00524,-0.1293,-0.1737
-0.67444,0.72099,-0.15909,0.19145,-0.29455,-0.1957
-0.6285,0.75404,-0.19081,0.6604,-0.58652,0.04017
-0.58231,0.7829,-0.21907,0.7753,-0.71432,0.1477
-0.53302,0.8096,-0.24585,0.98654,-1.009,0.56208
-0.47994,0.83136,-0.28018,0.95357,-0.72938,0.44224
-0.43347,0.84304,-0.31841,0.68801,-0.63297,0.18301
-0.37897,0.84862,-0.36908,0.06075,-0.19895,-0.46815
-0.34117,0.85105,-0.39914,-0.45814,1.1327,-0.73223
-0.37014,0.83953,-0.39773,-0.81158,2.50008,-0.16346
-0.44013,0.79979,-0.40818,-1.79918,3.82029,1.07069
-0.45675,0.78814,-0.41258,-0.4066,0.32052,0.43325
-0.44702,0.78888,-0.42171,0.322,-0.01558,0.2577
-0.43173,0.80436,-0.40818,1.19455,-0.29795,-0.523
-0.42278,0.82491,-0.37522,1.213,-0.54739,0.41124
-0.42361,0.83766,-0.34479,0.25363,-0.24762,0.5742
-0.44096,0.82935,-0.34313,-0.40215,0.66846,0.15951
-0.47144,0.81267,-0.34251,-0.06356,0.05389,-0.1092
-0.49712,0.80887,-0.314,0.16992,-0.3158,-0.05831
-0.5181,0.8027,-0.29537,-0.07128,-0.70019,0.0
-0.54227,0.79247,-0.27916,0.01414,-0.47108,0.21627
-0.57918,0.77634,-0.24869,0.09897,-0.25304,0.3597
-0.62376,0.7528,-0.21027,0.13142,-0.04214,0.40752
-0.66967,0.72475,-0.16208,0.1163,0.32108,0.00523
-0.70577,0.69865,-0.11735,-0.09084,0.75077,0.02568
-0.72639,0.68097,-0.09291,-0.42402,0.25392,0.37533
-0.73517,0.67321,-0.07949,-0.40395,0.16836,0.52039
-0.73198,0.67498,-0.0928,-0.62637,0.16494,0.17389
-0.71721,0.68855,-0.10729,-0.6139,0.03226,0.04613
-0.69623,0.70965,-0.10802,-0.40074,-0.12081,0.09001
-0.67009,0.73554,-0.0998,0.07445,-0.24135,0.17628
-0.63775,0.76396,-0.0982,0.37178,-0.37988,0.23816
-0.59883,0.79377,-0.10643,0.47487,-0.41341,0.18635
-0.554,0.82276,-0.12712,0.55511,-0.40731,-0.01079
-0.50169,0.85025,-0.15933,0.60589,-0.34054,-0.09304
-0.44381,0.87569,-0.19027,0.46062,-0.25675,-0.02912
-0.39122,0.89675,-0.20684,0.25505,-0.30808,0.17265
-0.34597,0.91376,-0.21293,0.22688,-0.76836,0.35832
-0.30311,0.92704,-0.22075,0.09213,-0.90157,0.23332
-0.2657,0.93535,-0.23351,-0.14018,-0.5499,-0.69713
-0.23964,0.94079,-0.23975,0.00121,-0.28457,-0.03989
-0.20355,0.94575,-0.25324,-0.17354,0.83645,0.3133
-0.1552,0.95212,-0.2634,-0.49635,1.9434,-0.12838
-0.11279,0.95829,-0.26259,-0.37138,1.1017,0.01407
-0.06641,0.96466,-0.255,-0.75398,0.40441,-0.09249
-0.01557,0.96865,-0.24793,-1.22981,0.89098,-0.10536
0.02688,0.96589,-0.25756,-1.38903,0.75083,-0.22088
0.07263,0.95552,-0.28585,-0.91334,0.47321,0.38976
0.11966,0.94132,-0.3156,-0.94122,0.464,0.70557
0.15012,0.93095,-0.33287,-0.98036,0.48447,0.64362
0.17281,0.92232,-0.34564,-0.73031,0.20024,0.45692
0.18712,0.92,-0.34438,-0.6991,-0.0923,0.50571
0.19352,0.91931,-0.34266,-0.85768,-0.54338,0.97184
0.18262,0.92265,-0.33965,-1.11643,-0.62221,0.66357
0.13953,0.93363,-0.32996,-0.95086,-0.69368,0.45412
0.07057,0.9481,-0.31005,-0.46353,-1.12351,0.20594
-0.0012,0.95755,-0.28827,-0.27689,-1.34846,0.5763
-0.06501,0.96385,-0.25841,-0.19372,-1.30845,0.80534
-0.14336,0.96594,-0.21541,-0.22871,0.31981,0.251
-0.23651,0.95629,-0.17194,-0.71619,0.66269,-0.59388
-0.36354,0.92338,-0.12336,-2.01863,3.08197,0.19503
-0.50616,0.85664,-0.0999,-2.6923,4.83956,-0.33366
-0.59455,0.80066,-0.07387,-0.63111,1.40292,-0.16175
-0.65843,0.75116,-0.04715,-0.35697,1.31257,0.01479
-0.70365,0.70904,-0.04632,0.16365,0.26621,0.08143
-0.72633,0.68642,-0.0358,0.44793,-0.27763,0.01996
-0.73316,0.6798,-0.0188,0.85241,-0.62183,-0.22354
-0.72851,0.68479,-0.01839,1.39655,-0.78482,-0.33824
-0.70564,0.70728,-0.04264,2.02986,-0.76388,-0.62531
-0.65906,0.74886,-0.06961,2.33132,-0.93252,-0.69189
-0.58405,0.80655,-0.0914,2.22006,-1.18143,0.22972
-0.52479,0.84428,-0.10857,0.95708,-0.96837,0.53487
-0.47908,0.87034,-0.114,0.43001,-0.84222,0.84436
-0.44046,0.89064,-0.11293,-1.3339,0.03013,0.58885
-0.43,0.88907,-0.15704,-1.25189,0.36925,-1.14113
-0.42789,0.87788,-0.215,-0.77984,0.14127,-0.49786
-0.41702,0.88301,-0.21536,0.78213,-0.15099,1.06898
-0.38555,0.90089,-0.19938,0.90314,0.43262,-0.70213
-0.32114,0.92434,-0.20606,0.89513,1.46793,0.27586
-0.26214,0.94899,-0.1752,0.64683,1.44365,0.30004
-0.19932,0.96495,-0.17072,-0.0399,0.80522,0.1394
-0.11026,0.97787,-0.17779,-0.17744,0.45211,-0.3143
-0.0084,0.98108,-0.1934,-0.6515,1.38352,-0.73972
0.07064,0.97216,-0.2234,-1.54649,2.38073,-0.1303
0.14095,0.95368,-0.26574,-2.44851,0.73514,1.44376
0.17815,0.93982,-0.29156,-1.31237,0.06084,0.54107
0.18731,0.93058,-0.31455,-0.99167,0.09695,0.99215
0.18745,0.93076,-0.31393,-1.16794,-0.24405,0.5704
0.16875,0.93434,-0.31389,-1.15014,-0.62433,0.70886
0.12868,0.9392,-0.31836,-0.73986,-0.96771,0.81476
0.07734,0.94753,-0.31018,-0.26397,-1.04505,-0.1068
0.02179,0.9522,-0.30471,-0.19768,-1.26497,-0.15673
-0.03422,0.959,-0.28134,-0.28293,-1.55998,0.98286
-0.12219,0.96538,-0.23045,-0.41794,-0.69092,0.13507
-0.23284,0.95499,-0.18379,-0.44714,0.45288,0.25806
-0.36914,0.91924,-0.13686,-1.23301,1.73414,0.07605
-0.52393,0.84711,-0.08883,-2.91064,5.5487,0.12824
-0.61961,0.78147,-0.07341,-0.48111,2.30961,-0.81061
-0.69493,0.7161,-0.06533,0.07691,1.09184,-0.54178
-0.7497,0.65846,-0.06613,-0.08883,0.67517,-0.20734
-0.77788,0.62349,-0.07846,0.38459,-0.26006,0.11418
-0.78599,0.61282,-0.08171,0.76608,-0.47213,0.06521
-0.77651,0.62427,-0.08559,1.0729,-0.56201,-0.0991
-0.74879,0.65584,-0.09586,2.08453,-0.9289,-0.43737
-0.69848,0.70838,-0.10159,2.66055,-1.65305,-0.72948
-0.6197,0.77976,-0.08917,2.35722,-1.39653,0.30207
-0.54966,0.8327,-0.06699,1.98345,-1.14224,0.65022
-0.5114,0.85777,-0.052,0.04904,-0.50871,1.50954
-0.48891,0.87225,-0.0124,-1.95515,0.66759,0.24241
-0.51102,0.85348,-0.10216,-1.72055,1.07688,-1.31325
-0.52518,0.82753,-0.19843,0.21504,0.27882,1.62543
-0.51801,0.84082,-0.15715,1.13004,1.16268,2.81981
-0.45711,0.87282,-0.17096,0.66175,1.20309,-1.26172
-0.40398,0.89759,-0.17646,0.68468,-0.14447,0.22035
-0.3957,0.9068,-0.14538,0.54763,-0.21376,0.65006
-0.34205,0.92686,-0.15466,0.45132,-0.21719,-0.56523
-0.21019,0.96125,-0.17838,-0.45292,1.20828,-0.7019
-0.07124,0.97644,-0.20369,-1.03785,2.46966,-0.99784
0.00125,0.96464,-0.26357,-1.95043,3.21242,0.80305
0.07499,0.94668,-0.31334,-0.82383,0.34193,0.66133
0.11452,0.92411,-0.36455,-0.33507,0.24373,0.79834
0.1518,0.90625,-0.39454,-0.65336,-0.11667,0.76029
0.17363,0.89775,-0.40484,-1.23706,-0.28033,0.49403
0.16541,0.89965,-0.40408,-1.44532,-0.98697,1.19691
0.1325,0.90605,-0.40188,-1.33385,-1.39884,0.90234
0.08117,0.92415,-0.3733,-0.0593,-1.62197,0.32864
0.02496,0.94248,-0.33333,0.4847,-1.30111,0.63021
-0.04197,0.95814,-0.28321,0.35676,-0.53575,0.73748
-0.12871,0.96743,-0.21799,-0.31973,-0.23458,-0.17467
-0.2263,0.96224,-0.15129,-0.96352,0.91434,-0.76967
-0.35626,0.93097,-0.07986,-2.42304,3.54189,1.03648
-0.49576,0.86777,-0.03468,-2.47227,4.68547,-0.47376
-0.59722,0.80193,0.0154,-0.70376,2.00575,-0.78874
-0.68126,0.73147,0.02878,0.10898,1.97853,-0.35753
-0.74286,0.66943,0.00424,0.80585,0.97023,-0.47272
-0.77791,0.62836,-0.00529,1.09042,-0.23478,0.03403
-0.79384,0.60812,-0.00198,1.12056,-0.53993,-0.10578
-0.79294,0.60927,-0.00604,1.34335,-0.77967,-0.28391
-0.77456,0.63186,-0.02835,1.8612,-0.95805,-0.44203
-0.72866,0.68176,-0.06526,2.62473,-1.24998,-0.78249
-0.66302,0.74624,-0.05942,2.69154,-1.55488,0.18654
-0.60302,0.79587,-0.0544,2.11393,-1.04578,0.57915
-0.55907,0.82831,-0.03669,0.65257,-0.53041,0.47007
-0.52667,0.84999,0.01193,-0.92533,0.02921,1.68891
-0.5306,0.84377,-0.08075,-1.4928,1.007,-0.66787
-0.53516,0.8232,-0.18959,0.00746,0.62049,-0.23329
-0.52944,0.83854,-0.12863,0.88791,1.6054,-1.18289
-0.45902,0.87152,-0.17249,0.43306,2.12906,-2.16386
-0.41841,0.8911,-0.17568,0.20744,0.89951,-1.58005
-0.42165,0.8937,-0.15332,-0.20591,-0.59158,1.18178
-0.38013,0.90954,-0.16805,-0.1273,-0.62214,-0.33097
-0.27372,0.9426,-0.19127,-0.45147,0.09041,-0.62849
-0.14873,0.96513,-0.21543,-2.28515,3.84684,0.23813
-0.06895,0.96128,-0.26681,-1.73406,2.26357,1.18334
-0.01187,0.95105,-0.30881,-1.20679,0.3407,1.23665
0.02147,0.93856,-0.34444,-0.48322,-0.32574,0.78484
0.05395,0.9275,-0.36991,-0.77633,-0.39738,0.57143
0.06881,0.92132,-0.38266,-1.08508,-0.76816,0.82477
0.05003,0.92311,-0.38127,-0.93887,-1.3689,0.52636
0.01734,0.93215,-0.36166,-0.74262,-1.63156,0.31207
-0.01378,0.9432,-0.33193,-0.13755,-1.82248,0.45086
-0.06246,0.95517,-0.28938,0.2425,-0.61127,0.82718
-0.14436,0.96136,-0.23441,-0.09476,-0.6011,0.41007
-0.23427,0.9568,-0.1722,-0.22878,-0.01576,-0.40695
-0.33848,0.93526,-0.10351,-1.09313,0.82109,-0.47136
-0.46724,0.88334,-0.03736,-2.96225,3.78452,0.65093
-0.59323,0.80503,0.00242,-3.4741,6.33188,-0.20598
-0.68498,0.72821,0.02255,0.04489,1.77722,-0.48694
-0.75458,0.65579,0.02331,0.44739,1.59784,-0.1791
-0.79854,0.60194,0.00307,0.90752,0.39227,-0.18851
-0.81846,0.57453,-0.00592,1.03646,-0.74628,-0.13698
-0.81927,0.5734,-0.00308,1.05859,-0.85921,-0.27936
-0.80102,0.59853,-0.0114,1.54545,-0.93904,-0.37528
-0.75997,0.64821,-0.04766,2.20382,-1.2707,-0.54447
-0.68456,0.72564,-0.0695,2.73293,-1.89605,-0.67949
-0.59166,0.80461,-0.05042,2.29648,-1.36284,0.66669
-0.53006,0.84692,-0.04189,1.31101,-0.75293,0.446
-0.4946,0.8691,0.00619,0.00963,-0.30022,1.53753
-0.49598,0.86833,-0.00189,-2.31505,1.32955,0.39608
-0.52579,0.8411,-0.12688,-0.73889,0.91688,-1.32166
-0.53327,0.81657,-0.22101,0.66115,-0.19962,0.015
-0.51623,0.84944,-0.10936,2.30658,1.58329,4.10143
-0.43317,0.88167,-0.18717,0.56963,1.4476,-2.54316
-0.40194,0.89977,-0.16987,0.23585,0.85395,-1.31611
-0.39803,0.90652,-0.14072,-0.13208,0.14419,1.60963
-0.31866,0.92946,-0.1859,-0.01838,-0.22419,-0.85851
-0.17765,0.95728,-0.22815,-0.46682,0.67481,-1.16397
-0.06174,0.96227,-0.26498,-1.63211,3.1773,-1.40938
0.01661,0.94614,-0.32333,-2.23168,1.42181,2.38704
0.05968,0.92472,-0.37593,-0.32912,0.50377,1.23456
0.08883,0.91019,-0.40456,-0.69665,-0.04187,0.57924
0.11217,0.90558,-0.40908,-0.96166,-0.34032,0.31325
0.11243,0.9068,-0.40629,-1.01983,-0.7364,0.60913
0.09462,0.90653,-0.4114,-1.12046,-1.64573,1.12598
0.06478,0.91881,-0.38936,-0.60016,-1.75706,-0.03505
0.01419,0.93287,-0.35994,0.10121,-1.73994,0.57629
-0.05337,0.94914,-0.3103,0.19298,-1.05561,0.87977
-0.14449,0.95932,-0.24255,-0.4457,0.23058,0.25662
-0.24424,0.9536,-0.17606,-0.69051,1.00537,-0.64782
-0.37829,0.91975,-0.1047,-1.23337,1.86173,0.60219
-0.5312,0.84546,-0.05507,-3.77572,5.71932,-0.01979
-0.63792,0.76969,-0.02509,-1.64404,3.75665,-0.66859
-0.72695,0.6865,-0.01592,0.48414,1.97507,-0.713
-0.78539,0.61692,-0.05062,1.31713,0.47533,-0.5216
-0.81346,0.57696,-0.07343,1.39093,-0.03283,-0.27563
-0.82269,0.56489,-0.06388,1.34224,-0.55079,-0.29332
-0.80742,0.58773,-0.05143,2.02266,-1.18454,-0.25883
-0.75732,0.64954,-0.0676,2.24321,-1.28418,-0.28807
-0.68255,0.72662,-0.07839,2.39956,-1.70819,-0.16108
-0.59459,0.80157,-0.06279,2.52456,-1.44958,0.65912
-0.52611,0.8482,-0.06138,2.32611,-0.99688,0.52043
-0.48901,0.87188,-0.02642,0.06545,0.06911,1.52012
-0.48138,0.87651,-0.00191,-1.92404,2.05944,0.51149
-0.52103,0.84314,-0.13287,-0.82318,0.87497,-1.3083
-0.53023,0.80941,-0.25242,0.72119,-0.53274,-0.35873
-0.52388,0.84195,-0.12909,0.54799,0.71588,-2.21474
-0.45438,0.87076,-0.18792,0.31996,1.71717,-2.67035
-0.41793,0.89094,-0.17764,-0.289,1.81993,-2.03112
-0.42886,0.89246,-0.13998,-0.72999,-0.0624,3.50628
-0.36575,0.90681,-0.20957,-0.01032,-0.45471,-0.95613
-0.25779,0.93909,-0.22727,-0.37931,0.46331,-0.71426
-0.14525,0.95596,-0.25503,-1.48607,3.56079,0.04916
-0.07205,0.94442,-0.32076,-1.58101,1.2789,1.53144
-0.02304,0.93096,-0.36439,-0.34954,-0.16308,1.28353
0.01326,0.91711,-0.39841,-0.11898,-0.28251,0.8817
0.04285,0.90694,-0.41908,-0.84984,-0.39996,0.65312
0.03832,0.90549,-0.42264,-1.1273,-1.12257,1.18688
0.00556,0.90726,-0.42052,-1.17827,-1.5897,1.20978
-0.03226,0.9194,-0.39199,-0.74806,-1.81259,0.65866
-0.08106,0.9344,-0.34687,0.3931,-1.06359,0.38988
-0.14717,0.94544,-0.29065,0.7337,-0.54701,0.6432
-0.23068,0.94757,-0.22112,0.14105,-0.39482,0.21724
-0.32801,0.93289,-0.14877,-0.57632,0.75475,-0.92629
-0.45191,0.88938,-0.06923,-1.84421,2.28767,0.89562
-0.57865,0.815,-0.03058,-4.07908,5.24919,0.12807
-0.67394,0.73875,0.0067,-1.02729,2.55056,-0.60985
-0.7527,0.65778,0.02789,0.39065,1.7507,-0.39128
-0.80924,0.58738,0.01095,0.87125,0.70283,-0.4154
-0.83888,0.54431,-0.00235,1.18754,-0.33026,0.00314
-0.8523,0.52304,0.0032,1.2553,-0.68117,-0.14457
-0.84839,0.52923,0.01196,1.44814,-0.91273,-0.27062
-0.82641,0.56307,0.00098,1.99447,-1.01587,-0.47443
-0.7789,0.62525,-0.04874,2.61006,-1.51207,-0.93848
-0.70367,0.70635,-0.0769,2.66628,-1.51506,0.14494
-0.62856,0.7732,-0.08412,2.09435,-0.66946,0.38005
-0.58174,0.80982,-0.07597,0.75081,-0.4623,0.65948
-0.54863,0.83605,0.00442,-1.58303,0.51238,2.63555
-0.56282,0.82497,-0.05152,-2.36294,1.6076,0.62944
-0.59056,0.78716,-0.1778,0.03133,0.47384,-0.03119
-0.59372,0.7869,-0.16818,1.15532,0.59248,2.43112
-0.52258,0.82245,-0.22468,1.21057,1.6083,-1.29941
-0.42988,0.8635,-0.26375,0.69618,0.78051,-1.66237
-0.41055,0.87992,-0.23913,0.46249,0.60767,-0.90307
-0.39004,0.8992,-0.19824,-0.38709,0.23103,1.52652
-0.30062,0.93105,-0.2068,-1.01067,0.65644,-0.70368
-0.17802,0.95414,-0.24069,-1.79655,1.31587,-0.4674
-0.08847,0.95,-0.29944,-2.47949,2.71743,0.50164
-0.02016,0.93823,-0.34543,-0.96224,0.05878,1.11212
0.01302,0.92173,-0.38762,-0.40593,-0.35701,1.0488
0.0468,0.90843,-0.41542,-0.80864,-0.60917,0.55377
0.05411,0.90131,-0.42978,-1.19424,-0.99448,0.76397
0.02911,0.9005,-0.43388,-1.27351,-1.66564,1.39643
-0.00307,0.90852,-0.41783,-0.86281,-1.73077,0.91647
-0.0385,0.92367,-0.38124,0.32214,-1.16955,0.44356
-0.08507,0.93681,-0.33934,0.70526,-0.3876,0.53566
-0.15567,0.94747,-0.27941,0.41973,-0.6243,0.30114
-0.24408,0.94598,-0.2134,-0.33134,0.04726,-0.58654
-0.36242,0.92088,-0.1436,-1.38651,1.31103,-0.16284
-0.5085,0.85555,-0.09727,-4.21657,4.84637,0.7486
-0.63442,0.77104,-0.05489,-1.78514,3.35988,-0.55644
-0.72822,0.68507,-0.01937,-0.17771,2.26156,-0.34043
-0.7965,0.60445,-0.01517,0.19071,2.32914,-0.15307
-0.83488,0.54985,-0.02525,1.03807,0.29731,-0.24039
-0.85315,0.52149,-0.0136,1.2729,-0.41169,0.02487
-0.85387,0.52048,-0.00131,1.41706,-0.80782,-0.18528
-0.83634,0.5482,-0.00293,2.03626,-1.0832,-0.34947
-0.78881,0.61381,-0.03193,2.83468,-1.35152,-0.73818
-0.70644,0.70604,-0.04963,2.83667,-1.90768,-0.23255
-0.62392,0.77999,-0.04827,1.85238,-0.61581,0.08286
-0.57152,0.82018,-0.02587,1.18909,-0.49865,-0.05144
-0.53441,0.84409,0.04376,-2.26395,1.38984,2.43142
-0.56819,0.8213,-0.05131,-1.93007,2.02509,-0.91155
-0.59429,0.78186,-0.18846,0.62139,0.04348,-0.49905
-0.60048,0.78913,-0.12924,2.52673,1.59985,5.24069
-0.52502,0.82684,-0.20172,0.73573,1.30233,-2.51158
-0.43735,0.86759,-0.23666,0.42845,1.47617,-2.04216
-0.43078,0.88432,-0.18004,-0.30042,0.26092,2.19385
-0.39592,0.90241,-0.16999,0.01418,-0.35743,-0.85296
-0.30276,0.93405,-0.18945,-0.27425,-0.19128,-0.84693
-0.18403,0.95946,-0.21346,-2.90496,3.1161,-0.0592
-0.08788,0.96264,-0.25613,-2.33033,1.13794,1.08388
-0.01362,0.95224,-0.30506,-1.32461,0.39136,0.90069
0.02362,0.93171,-0.36244,-0.15921,-0.40676,1.12042
0.06082,0.91401,-0.40111,-0.81855,-0.51005,0.59755
0.06472,0.90665,-0.41689,-1.05026,-0.74951,0.60334
0.03176,0.91041,-0.41248,-1.29784,-1.73378,1.33785
0.00796,0.91975,-0.39243,-0.70966,-1.80816,0.82952
-0.0144,0.93696,-0.34913,0.01412,-1.65228,0.46509
-0.05409,0.94969,-0.30848,0.59432,-0.47125,0.60597
-0.12261,0.96029,-0.25061,0.06582,-0.74804,0.34981
-0.22013,0.9586,-0.18064,-0.23758,-0.49011,-0.01956
-0.33462,0.93679,-0.10229,-1.11947,0.9488,-0.49259
-0.47213,0.88071,-0.03793,-3.53932,3.12252,0.92068
-0.60253,0.79801,0.01198,-4.24963,5.04063,0.43002
-0.69805,0.71475,0.04306,-2.85493,5.59605,-0.2641
-0.7736,0.63171,0.0499,0.26243,1.71349,-0.4106
-0.82314,0.56715,0.02801,1.05673,0.89902,-0.46081
-0.85087,0.52514,0.01596,1.34866,0.18464,-0.19176
-0.85946,0.51102,0.01358,1.6201,-0.90622,-0.18755
-0.84532,0.53407,0.01409,1.9436,-1.09497,-0.30339
-0.80451,0.59385,-0.00988,2.43108,-1.17497,-0.50322
-0.72644,0.68548,-0.04901,2.6459,-1.79362,-0.70192
-0.62945,0.77544,-0.04992,2.43942,-1.46721,0.60321
-0.55874,0.82791,-0.04875,1.5496,-0.61882,0.36224
-0.51118,0.85943,-0.00875,0.28787,-0.14155,1.19167
-0.49472,0.86893,0.01486,-1.01619,0.77894,3.0806
-0.52469,0.84365,-0.11377,-1.47447,2.10674,-1.63745
-0.53214,0.8131,-0.23599,0.4768,-0.14141,-0.65276
-0.52146,0.8472,-0.10166,1.93966,-1.08497,-0.59887
-0.41969,0.8834,-0.20846,0.68231,0.57439,-4.45203
-0.35516,0.91114,-0.209,-0.18608,2.17477,-3.25539
-0.36111,0.91888,-0.15893,-0.2588,0.97827,0.15083
-0.30213,0.9236,-0.23595,-0.66294,0.26289,0.25246
-0.21017,0.9392,-0.27155,-1.09035,0.45431,-0.71976
-0.11459,0.94846,-0.29545,-1.94647,2.52145,-0.35143
-0.04295,0.92974,-0.36569,-0.72064,1.06431,1.66222
-0.00279,0.91658,-0.39985,-0.83005,-0.14764,1.48775
0.02984,0.90446,-0.42551,-0.7693,-0.37669,0.59859
0.05244,0.89605,-0.44084,-1.21371,-0.53741,0.57083
0.04124,0.89095,-0.45222,-1.19264,-1.32909,1.05505
0.00216,0.8961,-0.44384,-1.01221,-1.76898,1.39477
-0.03959,0.91449,-0.40267,-0.32038,-1.85389,0.57081
-0.09971,0.92936,-0.35545,0.6285,-0.62307,0.60413
-0.18695,0.94062,-0.28334,0.4907,-0.41976,0.83613
-0.28246,0.9362,-0.20914,-0.46328,0.51248,-0.28932
-0.40417,0.90673,-0.12033,-1.1371,1.44283,-0.3012
-0.54433,0.83698,-0.05624,-3.89359,3.82209,0.68763
-0.65827,0.75277,-0.00369,-2.93696,4.51607,-0.32611
-0.74238,0.66934,0.02947,-0.14494,2.27639,-0.62606
-0.80521,0.59226,0.02933,0.82102,1.96288,-0.64776
-0.84286,0.53782,0.01807,1.28809,0.50902,-0.56859
-0.86039,0.50919,0.02156,1.62659,-0.38397,-0.10772
-0.85956,0.51018,0.02943,1.81992,-0.7358,-0.2947
-0.83718,0.54616,0.0289,2.0987,-1.01635,-0.4288
-0.78626,0.61789,0.00044,2.83358,-1.39284,-0.67471
-0.70712,0.70696,-0.01368,2.84855,-1.63201,-0.44633
-0.6238,0.78143,-0.01559,2.43104,-1.28868,0.58327
-0.56546,0.82476,-0.00539,0.73814,-0.50469,0.31207
-0.51969,0.85219,0.0607,0.00962,-0.27825,1.50009
-0.54008,0.83998,-0.05244,-2.08973,1.91838,0.04542
-0.55817,0.80701,-0.19283,0.13895,0.28827,-0.96054
-0.55828,0.82226,-0.11049,1.22454,-0.19407,-0.11499
-0.49075,0.8545,-0.17029,0.5474,2.04984,-1.00656
-0.46228,0.87182,-0.16196,-0.07037,1.19138,-1.57465
-0.48445,0.86788,-0.11,0.11023,0.31141,0.1562
-0.44731,0.8794,-0.16299,0.14205,-0.805,-0.6926
-0.33976,0.92138,-0.18874,-0.14472,-0.27799,-0.93264
-0.18518,0.96429,-0.18932,-0.86218,0.83377,-1.23849
-0.0801,0.96719,-0.24109,-2.80797,5.0349,1.45268
-0.02131,0.95678,-0.29005,-0.78127,-0.20032,1.13807
0.02077,0.94518,-0.3259,0.14387,-0.25288,0.9451
0.05723,0.93593,-0.34751,-0.70912,-0.40133,0.47283
0.06183,0.93122,-0.35918,-1.09523,-0.91419,0.55875
0.03985,0.93107,-0.36266,-1.22657,-1.67738,1.29927
0.01304,0.94016,-0.34048,-1.01542,-1.96624,0.8723
-0.0249,0.95498,-0.29564,0.13149,-1.43999,0.23829
-0.07923,0.96531,-0.24878,0.54035,-0.61206,0.58095
-0.15384,0.97048,-0.18573,0.0912,-0.79177,0.41745
-0.23541,0.96497,-0.11579,-0.7294,0.56033,-0.86856
-0.33443,0.9419,-0.03126,-1.19817,0.95176,-0.6164
-0.46638,0.88417,0.02715,-2.35018,2.14713,1.11715
-0.5876,0.80506,0.08122,-2.81155,4.70292,-0.36258
-0.67921,0.72451,0.11726,-0.49688,2.5018,-0.77255
-0.75187,0.64778,0.1228,0.52056,1.82334,-0.55064
-0.7988,0.5931,0.10074,1.09931,0.97168,-0.61167
-0.82349,0.5594,0.09453,1.33534,-0.22055,-0.15973
-0.82976,0.55013,0.09411,1.50208,-0.4798,-0.2595
-0.81636,0.56919,0.09789,1.70734,-0.72023,-0.4106
-0.77974,0.62158,0.0751,2.27515,-0.95506,-0.49563
-0.70462,0.70919,0.0238,2.87633,-1.61211,-0.83787
-0.60872,0.79308,0.02186,2.51749,-1.53641,0.46079
-0.54089,0.84045,0.03294,1.83673,-0.83573,0.22963
-0.48766,0.86748,0.09828,0.39066,-0.47426,1.19438
-0.48971,0.86976,0.06088,-1.75832,1.47734,1.08142
-0.53088,0.84427,-0.0733,-0.86357,1.47789,-1.75482
-0.54672,0.83303,-0.08457,0.72974,0.90153,0.65098
-0.51195,0.85526,-0.08025,0.27136,2.85302,-1.78424
-0.46477,0.8812,-0.08647,0.38379,1.12553,-1.00893
-0.44175,0.89455,-0.06805,0.31255,-0.44372,-0.30553
-0.40586,0.91024,-0.08211,0.35218,-1.2225,-0.77951
-0.31922,0.94083,-0.1137,0.03361,-0.90455,-0.69928
-0.18635,0.97379,-0.13045,-1.19236,0.8624,-0.98508
-0.072,0.98122,-0.17894,-2.18348,2.54458,1.19446
-0.00074,0.97269,-0.23213,-1.25859,0.89118,1.17756
0.04735,0.95929,-0.27843,-0.15656,-0.08723,0.90492
0.0933,0.94629,-0.30958,-0.82306,-0.52986,0.45718
0.11154,0.93611,-0.33356,-1.02913,-0.67582,0.3424
0.08637,0.93268,-0.3502,-1.30537,-1.83326,1.2455
0.04566,0.93893,-0.34107,-1.1403,-2.14179,1.15797
0.01336,0.95585,-0.29354,-0.04467,-1.18672,0.37078
-0.03765,0.96815,-0.24754,0.60343,-0.44633,0.32922
-0.0956,0.97688,-0.19124,0.47356,-0.52512,-0.11711
-0.1727,0.97583,-0.13388,-0.50578,0.19185,-0.96222
-0.29421,0.95503,-0.03694,-2.31203,3.00315,1.39704
-0.44146,0.89704,0.02076,-3.21946,4.17054,-0.31689
-0.57819,0.81134,0.08621,-1.87133,4.16372,-0.5616
-0.68692,0.71602,0.1243,-1.17482,2.85083,-0.64136
-0.76942,0.62682,0.12285,0.4414,2.01083,-0.71013
-0.8188,0.56022,0.12536,0.93683,0.48699,-0.29122
-0.84875,0.51251,0.13023,1.29417,-0.31109,-0.03639
-0.85878,0.49633,0.12707,1.549,-0.77276,-0.16896
-0.84698,0.51828,0.11834,2.43667,-1.16732,-0.85201
-0.8071,0.58359,0.08957,2.78923,-1.42238,-0.94091
-0.72621,0.68367,0.07224,2.71794,-1.87436,-1.10125
-0.62926,0.77151,0.09377,2.5258,-1.46637,0.04537
-0.56041,0.82041,0.11346,1.91269,-0.65711,0.23074
-0.50566,0.84513,0.17339,0.46324,-0.18343,1.30222
-0.5097,0.83491,0.20769,-1.40848,1.88886,2.92988
-0.58152,0.81224,0.04583,-0.65821,1.55021,-1.20443
-0.60495,0.78859,-0.11025,0.6736,-0.0492,-1.42704
-0.57433,0.81852,-0.01275,3.56698,-0.64051,3.16699
-0.49308,0.8678,-0.06162,0.53512,1.85583,-4.02133
-0.44954,0.89195,-0.04842,-0.39757,2.78647,-2.08379
-0.45982,0.88605,-0.05902,-0.8414,0.50129,2.4245
-0.43845,0.8911,-0.11708,0.19112,-0.7251,-1.06863
-0.35615,0.92707,-0.11704,-0.10833,-0.58401,-0.64983
-0.23272,0.96241,-0.13999,-1.87612,2.30986,-0.25675
-0.16159,0.97358,-0.16134,-3.86428,2.61246,1.16658
-0.1019,0.97071,-0.21758,-1.50686,-0.22918,0.23203
-0.053,0.95935,-0.2772,0.05868,-0.88428,0.6586
-0.01768,0.94312,-0.33198,0.03957,-1.06393,0.77061
-0.02307,0.93515,-0.35349,-0.89125,-1.71764,1.01444
-0.05708,0.93798,-0.34196,-1.18137,-1.8704,1.15074
-0.09071,0.9486,-0.30321,-1.24464,-1.53605,0.92253
-0.12415,0.95907,-0.25452,0.91028,-0.27302,0.52335
-0.1667,0.96479,-0.20347,1.09506,-0.39101,0.53091
-0.22707,0.9637,-0.14043,0.71755,-0.78078,0.29311
-0.32254,0.94414,-0.06762,-0.33025,-0.2002,-0.42118
-0.43717,0.89919,0.01822,-0.48606,0.32973,-0.71898
-0.57134,0.81508,0.09595,-1.69013,1.0724,-0.39228
-0.69379,0.71183,0.10933,-4.93826,6.63871,-0.08728
-0.77822,0.62199,0.08666,-1.2205,3.72643,-0.44942
-0.84092,0.53319,0.0925,0.76916,1.58437,-0.37362
-0.87693,0.47349,0.0825,1.14213,0.19425,-0.24723
-0.89154,0.44703,0.07288,1.36629,-0.33479,-0.05144
-0.88668,0.45439,0.08562,1.48911,-0.89977,-0.18541
-0.86341,0.49568,0.0939,2.14927,-0.86346,-0.5251
-0.81959,0.56836,0.07241,2.32014,-0.9442,-0.54418
-0.74277,0.66691,0.05925,3.23992,-1.40289,-0.98753
-0.64968,0.7578,0.06045,2.52105,-0.99415,0.72718
-0.58933,0.80662,0.04528,1.21873,-0.5325,0.00109
-0.53469,0.84051,0.08744,0.00744,0.15603,1.6134
-0.5383,0.84189,0.03817,-1.70998,2.18459,-0.70779
-0.56915,0.8132,-0.12159,-0.50899,0.848,-1.5127
-0.56697,0.80887,-0.15582,1.58958,-0.23611,-0.01093
-0.5116,0.8502,-0.12419,0.75426,1.79096,-1.18785
-0.4425,0.88175,-0.16344,0.40319,1.80958,-1.60728
-0.42483,0.89389,-0.14313,0.09724,0.62003,-0.31805
-0.39035,0.90935,-0.14389,-0.21625,-0.27337,-0.05693
-0.29642,0.93724,-0.18364,-0.25314,-0.42056,-0.72442
-0.16379,0.96096,-0.22301,-1.07312,1.12692,-0.42307
-0.06827,0.96039,-0.27018,-2.61289,3.39737,1.23449
-0.01124,0.94906,-0.31491,-1.79471,0.64974,1.31062
0.02131,0.93851,-0.3446,-0.32108,-0.00894,1.05888
0.0524,0.92783,-0.3693,-0.82282,-0.29952,0.39913
0.06523,0.91891,-0.38903,-1.00711,-0.8168,0.46762
0.04917,0.91201,-0.4072,-1.18525,-1.64781,1.30293
0.01654,0.91735,-0.39775,-1.00205,-1.91961,0.82698
-0.02573,0.92868,-0.36999,-0.46254,-2.10196,0.18627
-0.082,0.9403,-0.33033,0.37373,-0.66239,0.56741
-0.16332,0.94807,-0.27292,0.10857,-0.39708,0.61371
-0.25061,0.94478,-0.21114,-0.20441,0.36085,-0.24001
-0.36546,0.92128,-0.13297,-0.8306,0.98796,-0.37611
-0.51162,0.85672,-0.06542,-3.61069,3.94979,1.01342
-0.64106,0.76748,-0.00501,-2.77046,5.3029,-0.45277
-0.73574,0.67689,0.02246,-0.21357,2.80788,-0.7856
-0.81007,0.58633,0.00239,1.04388,1.79586,-0.65156
-0.85553,0.51764,-0.0103,1.33525,0.74632,-0.47413
-0.88161,0.47187,-0.01003,1.60508,-0.59939,-0.04096
-0.88853,0.45873,-0.00957,1.91827,-0.963,-0.19651
-0.8732,0.48712,-0.01506,2.18792,-1.12829,-0.32363
-0.82407,0.56481,-0.04352,2.80572,-1.37822,-0.80776
-0.74309,0.66821,-0.03622,2.63962,-1.4553,0.0817
-0.65658,0.75406,-0.01734,2.61762,-1.46411,0.52713
-0.59951,0.80027,-0.01275,1.977,-0.56963,0.44725
-0.55474,0.83154,0.02857,-0.81067,0.62035,2.84421
-0.56205,0.82476,-0.06224,-1.62583,2.21688,1.752
-0.57836,0.78328,-0.22799,-1.07779,1.54679,-1.89707
-0.57034,0.77885,-0.26097,0.05239,2.14934,-0.15285
-0.55996,0.78395,-0.26808,0.6544,1.5297,0.55335
-0.54344,0.79928,-0.25655,0.99461,-0.48726,-0.02405
-0.48217,0.83646,-0.26048,0.73426,-0.75524,-0.78624
-0.3655,0.89111,-0.26895,0.23128,0.07009,-0.55053
-0.21335,0.93548,-0.2817,-0.50394,2.08443,-0.58132
-0.09223,0.94207,-0.32247,-1.26179,4.25513,-0.31817
-0.01403,0.91521,-0.40274,-1.28591,2.77191,0.89003
0.0398,0.90141,-0.43114,-1.00899,0.16976,1.57301
0.09022,0.88919,-0.44855,-0.604,0.00152,0.84969
0.11691,0.88245,-0.45565,-1.22,-0.13091,0.34559
0.11059,0.88208,-0.45794,-1.31594,-0.77373,0.89162
0.07273,0.88375,-0.46228,-1.22306,-1.37052,1.23172
0.02601,0.89767,-0.4399,-0.7984,-1.89931,0.5038
-0.03159,0.91152,-0.41004,0.16352,-2.05683,0.55026
-0.09717,0.92441,-0.36882,0.32548,-0.77777,0.68687
-0.1794,0.93253,-0.31338,-0.3835,-0.31545,0.07495
-0.27174,0.93069,-0.2449,-0.60616,0.63056,-0.7421
-0.39598,0.90274,-0.1681,-1.88086,2.77295,1.82863
-0.54853,0.83119,-0.09073,-3.20828,5.44031,0.35035
-0.67012,0.74189,-0.02335,-1.13533,3.30341,-0.72639
-0.75636,0.65416,-0.00264,0.00739,2.54696,-0.43968
-0.81746,0.575,-0.03366,1.46278,1.36181,-0.64045
-0.85679,0.51357,-0.04652,1.45746,0.11815,-0.17729
-0.87821,0.47557,-0.05081,1.3747,-0.44211,0.10243
-0.88139,0.46914,-0.05531,1.51812,-0.74047,-0.04226
-0.86587,0.4959,-0.06591,1.89506,-0.85249,-0.26495
-0.82228,0.55792,-0.11219,2.78243,-0.8923,-0.47584
-0.76453,0.63201,-0.12671,2.69531,-1.08085,-0.50473
-0.71105,0.69305,-0.11872,2.41258,-1.36816,0.54594
-0.66216,0.74055,-0.11458,1.97335,-1.00902,0.54576
-0.62079,0.78053,-0.07348,-1.09375,0.17005,1.50911
-0.60727,0.77843,-0.15899,-2.09519,0.98506,-0.04548
-0.60519,0.74333,-0.28498,-0.80323,1.44669,-1.42674
-0.60221,0.74946,-0.27506,0.45632,2.57665,4.61005
-0.55231,0.7707,-0.31776,0.25902,2.60958,-1.47931
-0.50991,0.79051,-0.33925,0.32163,-0.30008,-0.28862
-0.50654,0.80707,-0.30342,0.19263,-0.55269,0.35655
-0.46043,0.83775,-0.29356,0.08378,-0.61618,0.00982
-0.32817,0.89253,-0.30935,-0.66479,0.25075,-0.78959
-0.17023,0.92916,-0.32814,-1.61065,3.10134,-1.29442
-0.08235,0.91173,-0.40246,-1.69853,3.11877,-1.2201
-0.01203,0.89379,-0.44832,-0.46058,0.99486,1.22086
0.0253,0.87513,-0.48323,-0.22361,0.26431,1.49704
0.07233,0.8627,-0.50052,-0.82016,-0.0339,0.53685
0.08342,0.85602,-0.51017,-1.32786,-0.87581,0.9323
0.0519,0.85417,-0.5174,-1.46126,-1.39135,1.48879
0.01657,0.86301,-0.50491,-1.11661,-1.94541,0.76431
-0.01486,0.88337,-0.46844,0.01768,-1.80998,0.62538
-0.06797,0.9012,-0.42805,0.44393,-1.03166,0.72538
-0.14971,0.91466,-0.37546,-0.06443,-0.41055,0.53339
-0.24253,0.91943,-0.30956,-0.81841,0.64664,-0.72983
-0.36929,0.9025,-0.22162,-1.61428,1.89862,0.99601
-0.51481,0.84438,-0.14831,-3.01849,3.61428,1.36507
-0.64296,0.76236,-0.07357,-1.62517,4.37874,-0.77574
-0.73734,0.67414,-0.04317,0.31223,2.65131,-0.64506
-0.80799,0.58542,-0.06654,1.57375,1.27853,-0.66307
-0.85334,0.51489,-0.08185,1.57879,0.04742,-0.20813
-0.87705,0.47299,-0.08407,1.61127,-0.63751,-0.03455
-0.88017,0.46786,-0.0801,1.83283,-1.06725,-0.15685
-0.85895,0.50436,-0.08851,2.5327,-1.20337,-0.28261
-0.80661,0.57956,-0.11619,2.81224,-1.11622,-0.68339
-0.74968,0.65376,-0.10282,2.71178,-1.20305,-0.0137
-0.69356,0.71242,-0.10692,2.47859,-1.09016,0.6347
-0.63818,0.76153,-0.1131,0.95642,-0.46612,0.40451
-0.59246,0.80354,-0.05751,-0.07659,0.02601,1.86157
-0.58513,0.79812,-0.14359,-2.08879,1.89249,-0.66718
-0.59071,0.75828,-0.27582,-0.84507,1.24576,-1.37363
-0.59936,0.75611,-0.26282,1.0185,-0.26763,1.61498
-0.5377,0.7991,-0.26892,0.80868,2.29862,-1.56492
-0.46538,0.8299,-0.3077,0.36521,1.80477,-2.64866
-0.49545,0.82381,-0.27545,0.01537,0.68111,-0.63394
-0.46148,0.83826,-0.29045,-0.52894,-0.38185,0.70246
-0.36566,0.87954,-0.30446,-0.09487,-1.04257,-0.53859
-0.22394,0.92013,-0.32127,-0.39023,0.5711,-1.05993
-0.13475,0.92812,-0.34704,-1.70867,3.58682,-1.58831
-0.05237,0.91075,-0.40963,-2.10325,1.26931,2.69047
-0.01963,0.89488,-0.44587,-0.60979,-0.01701,1.21046
0.01448,0.87598,-0.48212,-0.29611,-0.25459,0.75701
0.0302,0.86345,-0.50352,-0.90277,-0.57818,0.75087
0.00781,0.85992,-0.51036,-1.21463,-1.16524,1.17438
-0.02853,0.8649,-0.50113,-1.22696,-1.62282,1.17305
-0.0533,0.8847,-0.4631,-0.72961,-1.77586,0.78811
-0.09769,0.90348,-0.41734,0.6032,-0.79037,0.5464
-0.17007,0.91868,-0.35653,0.46279,-0.61913,0.89521
-0.25937,0.92123,-0.28992,0.06955,-0.2285,0.50251
-0.37995,0.90174,-0.20615,-0.83366,1.13596,-0.71088
-0.52059,0.84718,-0.10619,-2.93066,2.71564,1.1175
-0.64421,0.7637,-0.04192,-4.47054,4.88258,0.66606
-0.73589,0.67701,-0.01139,-1.71628,4.2719,-0.52891
-0.81174,0.58387,-0.01336,1.11287,1.67181,-0.65301
-0.86067,0.50805,-0.03362,1.24156,1.34414,-0.68324
-0.88823,0.45737,-0.04301,1.56537,-0.39495,-0.13197
-0.89665,0.44094,-0.03986,1.75502,-0.89145,-0.15581
-0.88564,0.46328,-0.03187,1.92989,-1.21472,-0.24813
-0.85316,0.51996,-0.0421,2.17563,-1.00785,-0.34297
-0.79709,0.59941,-0.07318,2.58903,-1.06813,-0.78059
-0.72412,0.68318,-0.09448,2.92974,-1.44947,0.34892
-0.65658,0.74529,-0.11594,1.92732,-0.58917,0.24024
-0.60631,0.7902,-0.08923,0.63752,-0.31366,0.55885
-0.57604,0.81742,-0.00275,-1.33955,0.96185,3.58234
-0.59551,0.79217,-0.13356,-1.1544,1.67657,-2.00843
-0.59743,0.75413,-0.27269,0.08629,0.457,-0.47851
-0.56452,0.7938,-0.22628,1.95484,2.56906,2.68159
-0.47287,0.83313,-0.28687,0.38254,1.9243,-1.76952
-0.44124,0.84776,-0.29429,-0.01016,0.7358,-1.05507
-0.46027,0.8517,-0.25053,-0.57919,-0.06859,1.77272
-0.42032,0.87393,-0.24408,-0.38219,-0.76102,-0.62733
-0.29285,0.92054,-0.25855,-0.93106,-0.18505,-0.95346
-0.1542,0.94732,-0.28072,-2.49897,3.29004,0.36973
-0.07977,0.94831,-0.30716,-1.11824,1.41847,0.89311
-0.03802,0.93551,-0.35124,-0.68709,0.1364,0.60298
-0.00159,0.91654,-0.39994,-0.59126,-0.38264,0.57077
0.02476,0.89154,-0.45227,-0.81449,-1.02757,0.77176
0.01803,0.88224,-0.47045,-1.45181,-1.83261,1.52099
-0.01863,0.88264,-0.46968,-1.85502,-2.08096,0.96037
-0.05885,0.89837,-0.43528,-0.86556,-1.39748,0.98239
-0.09637,0.91734,-0.38627,0.52159,-0.2525,0.56195
-0.14614,0.93291,-0.32912,0.92875,-0.05153,0.79934
-0.21382,0.93996,-0.26599,0.4167,-0.34707,0.05449
-0.33162,0.92469,-0.18705,-0.43109,0.56875,-0.63068
-0.50056,0.86048,-0.09495,-2.26461,2.33868,0.94842
-0.63269,0.77369,-0.03331,-4.48241,5.03507,-0.05403
-0.71562,0.69849,0.00103,-0.60754,3.31248,-0.92914
-0.78897,0.61438,0.00764,0.58206,2.07491,-0.26351
-0.83964,0.54297,-0.01349,0.69153,1.06727,-0.50392
-0.86801,0.49598,-0.02378,1.15626,-0.45863,0.12068
-0.87572,0.48191,-0.02967,1.34441,-0.6782,0.06651
-0.86369,0.50224,-0.04247,1.6396,-1.10716,-0.17155
-0.82809,0.5569,-0.06426,2.5413,-0.93452,-0.79078
-0.77738,0.62512,-0.07001,2.76803,-1.3184,-0.75172
-0.71414,0.69766,-0.0572,2.77491,-1.42919,0.07147
-0.65531,0.75341,-0.05427,1.67965,-0.47834,0.36046
-0.60528,0.79555,-0.02728,0.44351,-0.21173,1.16605
-0.5864,0.80992,-0.01293,-2.06603,1.38315,0.77452
-0.60453,0.77966,-0.16331,-0.88361,1.15839,-1.61948
-0.60843,0.75735,-0.23715,-0.1552,0.53222,-0.64317
-0.57288,0.79829,-0.18584,0.76321,1.65509,-1.90866
-0.45896,0.84962,-0.2598,0.31117,1.60681,-2.58734
-0.44109,0.86016,-0.25606,0.08642,0.61033,-0.91335
-0.44633,0.86325,-0.23577,-0.75927,-0.33791,1.98722
-0.36061,0.89891,-0.24883,-0.63603,-0.73594,-0.73622
-0.20807,0.94019,-0.26972,-0.78842,0.76208,-1.05781
-0.09613,0.94218,-0.32103,-2.46941,4.1309,0.68126
-0.015,0.92734,-0.37393,-1.48451,0.95773,1.06431
0.02207,0.90643,-0.42179,-0.34122,-0.19282,1.24825
0.05519,0.88485,-0.46259,-0.66587,-0.51385,0.67078
0.07429,0.86713,-0.49251,-1.16836,-0.75542,0.83624
0.05292,0.85955,-0.50831,-1.39954,-1.30658,1.19387
0.01014,0.86196,-0.50687,-1.16459,-1.59336,1.21144
-0.01308,0.88378,-0.46772,-0.19229,-1.78475,0.82154
-0.06251,0.90436,-0.42216,0.73109,-0.32377,0.49162
-0.137,0.92294,-0.35974,0.64213,-0.34273,0.82031
-0.22928,0.92845,-0.29224,-0.16824,0.36232,-0.36319
-0.36814,0.90559,-0.21069,-1.37094,2.12473,0.4829
-0.5334,0.83352,-0.14397,-3.85632,4.23026,0.36202
-0.66633,0.74241,-0.06958,-2.05523,3.43016,-0.65022
-0.76137,0.64778,-0.02637,-0.67686,2.85986,-0.27275
-0.82677,0.56148,-0.03462,0.80199,2.03492,-0.56771
-0.86687,0.49729,-0.03519,1.08596,0.33208,-0.26158
-0.88705,0.46112,-0.0224,1.26329,-0.36278,0.04379
-0.88685,0.46178,-0.01614,1.50874,-0.78119,-0.14148
-0.86694,0.49808,-0.01834,2.05814,-1.0225,-0.61845
-0.81356,0.57932,-0.04997,3.08159,-1.27789,-0.9978
-0.72676,0.68467,-0.05517,3.35041,-1.82334,-0.67563
-0.64375,0.7637,-0.04851,2.84961,-1.17437,0.46778
-0.59276,0.80442,-0.03926,1.2109,-0.56931,0.37095
-0.54873,0.83588,0.014,-0.07152,-0.18674,1.87291
-0.55022,0.83203,-0.0706,-1.93253,2.19336,0.03485
-0.55208,0.80748,-0.20783,-0.85724,1.47724,-1.38348
-0.54442,0.81656,-0.19192,0.67589,0.19368,0.33841
-0.47251,0.85358,-0.2194,1.11963,1.71748,-3.25179
-0.39699,0.88063,-0.25864,0.96539,0.87363,-2.56822
-0.40162,0.88937,-0.21846,0.28127,0.25429,-1.03345
-0.37048,0.90086,-0.22627,-0.63599,0.15145,-0.05609
-0.28369,0.92455,-0.25441,-0.80693,0.0858,-0.7234
-0.15478,0.94959,-0.27261,-1.5801,0.54433,-1.03818
-0.03306,0.94428,-0.32748,-0.94991,1.95979,1.17304
0.03245,0.9297,-0.36689,-0.70384,1.33942,1.57699
0.06147,0.91324,-0.40276,-0.6434,-0.22676,0.79897
0.09365,0.898,-0.42991,-1.09948,-0.46627,0.33399
0.10367,0.88733,-0.44933,-1.26155,-1.10399,0.72558
0.08016,0.88457,-0.45947,-1.31533,-1.8779,1.21247
0.04208,0.89369,-0.4467,-1.06602,-2.24809,1.18216
0.00559,0.91346,-0.40689,-0.01194,-0.8995,0.33814
-0.04968,0.93075,-0.36226,0.48363,-0.37536,0.76801
-0.12267,0.94404,-0.30619,0.16659,-0.63289,0.31109
-0.20623,0.94713,-0.24579,-0.55752,0.32295,-0.8042
-0.34051,0.92602,-0.16293,-2.12278,2.27259,1.03955
-0.50785,0.85622,-0.0947,-4.76782,4.58237,0.35793
-0.63714,0.77063,-0.01376,-3.18124,4.67716,-0.42328
-0.72734,0.68532,0.03626,-0.53879,3.47447,-0.86835
-0.79083,0.61097,0.03614,1.59119,1.44914,-0.747
-0.8351,0.54914,0.03261,1.28473,0.06462,-0.33034
-0.86102,0.50765,0.03049,1.30517,-0.50016,0.03569
-0.8666,0.49856,0.02096,1.60444,-0.78012,-0.10624
-0.84978,0.5271,0.0059,2.1289,-0.99653,-0.57681
-0.7994,0.60009,-0.02917,3.06579,-1.14841,-0.55737
-0.72786,0.6853,-0.02419,2.9444,-1.33958,-0.22999
-0.66819,0.74385,-0.01481,2.42938,-0.9823,0.48106
-0.61523,0.78828,-0.01064,0.94312,-0.4759,0.48484
-0.56976,0.82147,0.02392,-0.66047,0.14622,2.19568
-0.57274,0.81388,-0.09782,-1.4169,1.65043,-2.45902
-0.58837,0.78426,-0.19687,-0.44105,1.09297,-0.8672
-0.58608,0.79913,-0.13379,1.19158,2.30312,3.5954
-0.533,0.8283,-0.17274,0.60404,1.97537,-1.75054
-0.48749,0.85716,-0.16625,0.63782,0.30323,-0.91409
-0.45439,0.87897,-0.1447,0.33442,-0.53134,0.24386
-0.37873,0.91446,-0.1426,0.06868,-0.75578,-0.04451
-0.24278,0.9593,-0.14422,-0.84108,0.60386,-0.67524
-0.10826,0.98083,-0.16202,-2.7452,4.01752,-0.08711
-0.02433,0.97898,-0.2025,-2.20032,0.7512,0.83385
0.04347,0.96788,-0.24762,-0.94159,-0.14785,0.48118
0.07782,0.95162,-0.29726,-0.34824,-0.419,0.58878
0.10032,0.93181,-0.34881,-0.76944,-0.55899,0.45468
0.09373,0.91939,-0.38202,-1.16247,-1.1893,0.86433
0.05229,0.91795,-0.39324,-1.39952,-1.91221,0.93929
0.00693,0.92745,-0.37388,-0.49922,-1.46694,0.83047
-0.0325,0.94241,-0.33288,0.07585,-0.68878,0.39721
-0.08985,0.95237,-0.29142,0.6097,-0.29284,0.66293
-0.16407,0.95721,-0.23838,0.37757,-0.5543,0.65521
-0.25097,0.95211,-0.17466,-0.1952,-0.1935,-0.0534
-0.37222,0.9231,-0.09665,-1.21201,1.201,-0.59379
-0.51787,0.85516,-0.02262,-2.68769,2.83014,0.90177
-0.63489,0.77259,0.00415,-4.39862,6.77293,0.13043
-0.72828,0.68487,0.02368,0.46827,2.09197,-0.43977
-0.80418,0.59424,0.01307,0.97406,1.40948,-0.48382
-0.84638,0.53245,-0.01166,1.24463,0.83948,-0.47827
-0.86242,0.50607,-0.01136,1.42863,-0.63296,-0.07759
-0.85668,0.51585,0.00022,1.67301,-0.93037,-0.30543
-0.83022,0.55742,-0.00389,2.20193,-1.00147,-0.4644
-0.77629,0.62971,-0.02891,2.85583,-1.28729,-0.78829
-0.69616,0.71673,-0.04072,3.06726,-1.65792,-0.78455
-0.61429,0.78709,-0.05595,2.43988,-1.04041,0.49561
-0.56205,0.82559,-0.05004,0.72772,-0.6206,0.50832
-0.52004,0.85401,0.01514,-1.26211,0.32776,3.23317
-0.53473,0.84125,-0.07983,-2.20035,1.75422,1.94198
-0.54185,0.80837,-0.23007,-0.35315,0.93411,-1.11475
-0.52714,0.82623,-0.19869,1.55132,2.19278,3.79369
-0.46971,0.85855,-0.20559,0.40734,2.28887,-1.65833
-0.4286,0.87615,-0.22057,0.52037,0.3258,-0.53863
-0.41162,0.88614,-0.21288,0.14787,-0.50023,0.63073
-0.35058,0.90865,-0.22682,0.54799,-0.76429,-0.74425
-0.219,0.94055,-0.25961,0.01864,-0.01547,-0.70061
-0.08762,0.95286,-0.29049,-1.02399,2.38798,-0.84162
-0.00757,0.93892,-0.34405,-2.3505,3.53363,1.83491
0.04982,0.91985,-0.38909,-0.96058,0.61176,1.18729
0.08581,0.90447,-0.41782,0.04575,-0.01471,1.51124
0.1268,0.89254,-0.43277,-0.903,-0.13827,0.29632
0.13713,0.88879,-0.43733,-1.29965,-0.56347,0.51694
0.10315,0.89041,-0.44331,-1.56919,-1.45012,1.53878
0.04558,0.89721,-0.43924,-1.44562,-1.79197,0.87386
-0.00451,0.91507,-0.40328,-0.55147,-2.13177,0.50628
-0.05734,0.92874,-0.36627,0.41539,-0.82878,0.52417
-0.12975,0.94049,-0.31406,0.46407,-0.73835,0.43953
-0.21542,0.94467,-0.24738,-0.16387,-0.37643,-0.08071
-0.32575,0.93038,-0.16817,-0.77409,0.65319,-0.81061
-0.4634,0.88006,-0.10368,-2.76433,2.93189,1.44862
-0.6006,0.7981,-0.04819,-3.7751,5.77041,0.16576
-0.70255,0.71152,-0.01274,-0.59329,3.13195,-0.66197
-0.78538,0.61894,-0.00953,0.3912,2.27013,-0.60906
-0.83581,0.5477,-0.0381,1.31617,0.40451,-0.30677
-0.86383,0.50131,-0.0498,1.42952,-0.04228,-0.09926
-0.87405,0.48317,-0.05079,1.63904,-0.62668,-0.03596
-0.86496,0.49909,-0.05246,2.01405,-0.96113,-0.21254
-0.83121,0.55061,-0.07689,2.24621,-0.93232,-0.32152
-0.76825,0.63097,-0.10801,2.50426,-1.11383,-0.55984
-0.69308,0.71407,-0.09873,2.89019,-1.52777,0.63784
-0.63029,0.77086,-0.09221,2.60274,-1.02915,0.60753
-0.58512,0.80822,-0.06641,0.77028,-0.49511,0.61466
-0.56736,0.82034,-0.07172,-1.96214,1.59603,0.48576
-0.56961,0.7884,-0.2323,-1.21612,1.62126,-2.27517
-0.56446,0.76994,-0.29761,-0.62832,1.81394,0.07949
-0.55028,0.77328,-0.31501,0.23037,1.50445,-0.01082
-0.56259,0.77431,-0.28972,0.75925,-0.31122,0.45645
-0.55917,0.78529,-0.26581,0.76828,-0.75128,-0.52333
-0.49719,0.82113,-0.28026,0.81259,-0.8601,-0.56659
-0.36942,0.87882,-0.302,0.14217,-0.19253,-0.57343
-0.20888,0.92931,-0.30456,-1.0793,2.95682,-0.95001
-0.11892,0.93325,-0.33896,-1.84725,4.02051,1.15425
-0.04587,0.91571,-0.39921,-1.95623,1.62445,1.41271
0.00296,0.89864,-0.43868,-0.5482,0.09968,1.08729
0.0534,0.87829,-0.47514,-0.06719,-0.34093,0.94563
0.08616,0.86097,-0.50131,-0.99345,-0.41398,0.45376
0.07354,0.85557,-0.51244,-1.43773,-0.99865,1.25199
0.02505,0.85512,-0.51783,-1.82199,-1.52698,1.14596
-0.01656,0.86954,-0.49359,-0.89841,-1.75426,1.21335
-0.04162,0.8941,-0.44592,0.49371,-0.77743,0.70416
-0.09064,0.91203,-0.39999,0.8752,-0.4763,0.63824
-0.15688,0.92674,-0.34139,0.34431,-0.63433,0.64307
-0.24914,0.93036,-0.26898,-0.60132,0.09809,-0.13954
-0.38188,0.90502,-0.18738,-1.28267,1.16993,-0.42369
-0.5304,0.84018,-0.11302,-3.26832,2.92615,0.82782
-0.64398,0.76364,-0.04641,-2.98436,5.48514,-0.29629
-0.73396,0.6791,-0.01079,-0.57658,2.75714,-0.58144
-0.80543,0.59245,-0.01692,0.69294,1.81516,-0.41054
-0.84971,0.52584,-0.03853,1.32824,0.66878,-0.36791
-0.87196,0.48733,-0.04675,1.42824,-0.46554,-0.00712
-0.87319,0.48531,-0.04485,1.44436,-0.9258,-0.12981
-0.85507,0.51649,-0.04574,1.72011,-1.07066,-0.35525
-0.81627,0.57465,-0.05905,2.17483,-0.93954,-0.55819
-0.75664,0.6511,-0.05968,2.54566,-1.10647,-0.80744
-0.68208,0.72974,-0.04743,2.83502,-1.38217,-0.30194
-0.61729,0.78441,-0.06039,2.47174,-0.84721,0.46362
-0.56303,0.82381,-0.06575,0.72627,-0.39979,0.28591
-0.52203,0.85174,-0.04491,-0.52292,0.43701,2.47032
-0.51666,0.83646,-0.18277,-1.32404,1.93486,-1.84999
-0.50481,0.82027,-0.26892,-0.53143,1.61094,0.20167
-0.48449,0.82849,-0.28087,0.02825,2.3214,0.95033
-0.4693,0.83532,-0.28636,0.83747,-0.35584,-0.14023
-0.44123,0.85582,-0.26998,0.48681,-0.72775,-0.5548
-0.3759,0.88481,-0.27535,0.02009,-0.68791,-0.37163
-0.25845,0.9187,-0.29865,-0.90365,0.66739,-0.59869
-0.10195,0.93806,-0.33114,-2.0627,3.99523,-0.39104
-0.00905,0.91282,-0.40826,-1.893,4.11562,0.64329
0.04822,0.89179,-0.44987,-0.33252,0.91438,1.23553
0.08244,0.87169,-0.48307,-0.19708,0.04542,1.30344
0.13105,0.8583,-0.49614,-0.97249,-0.0669,0.34906
0.15081,0.85218,-0.50104,-1.52429,-0.58929,0.7143
0.12648,0.85163,-0.50866,-2.11285,-1.66945,1.56187
0.0829,0.86586,-0.49336,-1.49692,-1.99117,0.79849
0.04578,0.89256,-0.44861,0.0423,-1.64727,0.67286
-0.00652,0.917,-0.39883,0.5677,-0.50672,0.99098
-0.08551,0.93541,-0.34307,-0.02672,-0.37774,0.42921
-0.18237,0.94352,-0.2766,-0.90248,0.55953,-0.88939
-0.32665,0.92725,-0.18307,-2.09855,2.35675,1.23034
-0.48207,0.86928,-0.10941,-3.8442,4.53668,0.14074
-0.6043,0.79618,-0.0303,-1.19112,4.00109,-0.84261
-0.707,0.70721,-0.00285,0.07289,3.00485,-0.58801
-0.78056,0.62434,-0.03036,0.7704,2.39228,-0.78355
-0.82652,0.56085,-0.04807,1.63202,-0.00935,-0.03954
-0.85392,0.51607,-0.06703,1.62043,-0.57123,0.23697
-0.86077,0.50327,-0.07617,1.50887,-0.96202,-0.16746
-0.8438,0.53134,-0.07541,1.85165,-0.95442,-0.35002
-0.79828,0.59387,-0.10039,2.40794,-1.12855,-0.38393
-0.73606,0.67016,-0.09542,2.58683,-1.2098,-0.27723
-0.65901,0.74868,-0.072,2.72969,-1.30564,0.52243
-0.59412,0.80256,-0.05398,1.80062,-0.60867,0.29825
-0.54056,0.84128,0.00674,-0.01274,-0.13465,1.39056
-0.5459,0.8345,-0.07489,-2.03526,1.45374,-0.20562
-0.57096,0.79406,-0.20852,-0.91817,1.27044,-1.4544
-0.57901,0.7996,-0.15932,0.73708,3.15373,5.34973
-0.54157,0.81924,-0.18855,0.23261,2.48655,-1.40604
-0.48847,0.84694,-0.20998,0.44774,0.02218,-1.00872
-0.44985,0.87172,-0.19425,0.47858,-0.89736,-0.55951
-0.38027,0.90755,-0.17818,0.26819,-1.34494,0.46274
-0.24789,0.95211,-0.17898,-0.52817,-0.30613,-0.5709
-0.10896,0.97298,-0.20354,-2.08089,2.88758,-0.19299
-0.03279,0.96833,-0.24751,-2.04931,3.10149,0.69674
0.03842,0.9519,-0.304,-1.11231,0.50086,0.64464
0.08313,0.92937,-0.35968,-0.45279,-0.2746,0.86013
0.12258,0.90197,-0.41403,-0.95935,-0.84419,0.58833
0.11782,0.88539,-0.44968,-1.23078,-1.11265,0.95517
0.07597,0.88396,-0.46135,-1.75319,-1.63967,1.48396
0.04055,0.89689,-0.44039,-0.70164,-1.31527,1.05227
0.01486,0.92154,-0.38799,0.1559,-0.66216,0.73839
-0.03165,0.93974,-0.34043,1.01784,-0.33119,0.59655
-0.07854,0.95552,-0.28429,0.59223,-0.71556,0.1884
-0.16198,0.96192,-0.22019,0.24892,-0.55196,-0.55972
-0.30069,0.94534,-0.12615,-0.64357,0.74526,-0.63142
-0.49406,0.86769,-0.05487,-5.23746,4.89149,0.2432
-0.6182,0.78598,-0.00802,-4.27497,4.9849,-0.22293
-0.71264,0.70145,0.01121,-0.38145,2.58073,-0.66773
-0.78742,0.6164,-0.00484,0.87496,1.57176,-0.51533
-0.82925,0.55866,-0.01524,1.02628,-0.12484,-0.14021
-0.84883,0.52864,-0.00576,1.26704,-0.54504,-0.08222
-0.84753,0.5307,0.00703,1.55842,-0.85565,-0.19434
-0.82771,0.56107,0.00951,1.99759,-0.90356,-0.47153
-0.78291,0.62192,-0.01648,2.83088,-0.96633,-0.75167
-0.71284,0.70008,-0.04182,3.21403,-1.64373,-0.20298
-0.63469,0.77012,-0.06386,2.70862,-1.44928,0.57248
-0.57618,0.81339,-0.08011,1.32417,-0.64012,0.14366
-0.52725,0.84864,-0.04274,0.31603,-0.21003,0.90543
-0.50854,0.8608,-0.02044,-1.82753,2.25493,1.96244
-0.52891,0.83322,-0.16123,-1.0839,1.70306,-1.36738
-0.52263,0.80331,-0.28559,0.42892,0.1229,-0.87155
-0.50707,0.84496,-0.17004,2.2322,1.83247,4.87834
-0.42412,0.87603,-0.22954,0.23623,2.38111,-2.49664
-0.40929,0.88682,-0.21454,0.1581,1.11783,-0.97218
-0.39924,0.89349,-0.20563,-0.31556,-0.48805,2.06188
-0.32026,0.91931,-0.22871,0.04036,-0.75956,-0.85278
-0.19971,0.95041,-0.23839,-0.94477,0.43913,-0.35055
-0.08454,0.95607,-0.28069,-3.21328,4.27216,-0.31272
-0.01375,0.94227,-0.33456,-2.02644,0.70673,0.97962
0.0255,0.92442,-0.38051,-0.26703,-0.23283,1.00313
0.0543,0.90439,-0.42325,-0.08224,-0.38658,0.80081
0.06638,0.8889,-0.45327,-0.80934,-0.9062,0.759
0.04262,0.88648,-0.46081,-1.22702,-1.40776,1.26629
0.01046,0.89145,-0.45299,-1.3379,-1.57584,0.97144
-0.00944,0.90897,-0.41676,-0.58792,-1.46831,1.26425
-0.03812,0.92789,-0.3709,0.16538,-0.91951,0.89722
-0.08453,0.94333,-0.32091,0.58397,-0.88889,0.52414
-0.1489,0.95463,-0.2579,0.38787,-0.95301,0.16864
-0.24577,0.952,-0.18247,0.13884,-0.66809,-0.31837
-0.38701,0.91644,-0.10179,-2.95116,2.55869,1.37312
-0.54946,0.83429,-0.0454,-4.66142,3.7722,0.94503
-0.65658,0.75426,-0.00185,-0.83422,3.18498,-0.95003
-0.7441,0.66784,0.01765,-0.33995,2.4696,-0.52849
-0.80807,0.58908,-0.00284,0.0513,2.21395,-0.22731
-0.84578,0.53312,-0.02106,1.31459,-0.21494,-0.059
-0.8632,0.50444,-0.02054,1.43681,-0.65767,0.01637
-0.86013,0.50984,-0.01526,1.47454,-0.7866,-0.09647
-0.83967,0.54274,-0.01941,1.97838,-0.74861,-0.45117
-0.79454,0.6049,-0.05285,2.26517,-0.80615,-0.57874
-0.71816,0.6931,-0.06216,2.78136,-1.38815,-1.03482
-0.63052,0.77464,-0.04878,2.63884,-1.16966,0.67255
-0.5757,0.81697,-0.03368,1.01163,-0.52679,0.7878
-0.52874,0.84849,0.02252,-1.14611,0.10989,3.1591
-0.5223,0.84906,-0.07936,-1.09876,1.9704,-2.25046
-0.53731,0.82029,-0.19603,-1.10565,2.16545,-1.6275
-0.56711,0.79623,-0.21071,-0.91982,4.51873,0.01973
-0.58107,0.78942,-0.19793,1.03685,-0.21865,-0.20872
-0.55806,0.80793,-0.18923,1.36214,-1.36406,-0.97459
-0.4873,0.84722,-0.21156,1.16191,-1.73647,-0.56429
-0.38182,0.9038,-0.19328,0.14164,-1.12596,0.36888
-0.23034,0.94735,-0.2224,-0.78124,1.47193,-1.01344
-0.15299,0.94961,-0.27357,-1.88556,4.81001,-0.81635
-0.07739,0.93742,-0.3395,-1.61737,1.7734,0.93111
-0.01508,0.92813,-0.37195,-0.49638,-0.03804,1.35219
0.04623,0.91171,-0.40821,-0.35683,-0.54926,0.81077
0.08679,0.89425,-0.43908,-0.79209,-0.78976,0.51851
0.08741,0.88563,-0.4561,-1.30165,-1.0151,1.08552
0.05705,0.8833,-0.46533,-1.61303,-1.39331,0.96854
0.02258,0.89289,-0.44971,-1.14613,-1.76595,0.86783
0.00477,0.91275,-0.4085,0.29291,-1.23025,1.25854
-0.04004,0.92876,-0.3685,0.75822,-0.56026,0.53829
-0.09837,0.94078,-0.32442,0.52518,-0.7248,0.62273
-0.17812,0.94796,-0.26392,-0.37321,-0.52819,-0.16923
-0.2867,0.93889,-0.19048,-0.9775,0.36451,-0.66439
-0.42951,0.89555,-0.11629,-2.39523,1.96101,1.09499
-0.57109,0.81932,-0.05063,-4.26379,4.73025,0.43159
-0.6882,0.72532,0.01715,-1.30715,4.38014,-0.76898
-0.77476,0.63122,0.03629,-0.20068,2.7709,-0.57613
-0.83269,0.55356,0.01408,1.06246,1.7411,-0.70475
-0.8709,0.49141,0.00738,1.56107,0.33968,-0.19855
-0.89051,0.45494,0.00467,1.63946,-0.57396,0.08418
-0.88884,0.4582,0.00268,1.62024,-1.0244,-0.11546
-0.86561,0.5004,-0.01806,2.04055,-0.98952,-0.25835
-0.80854,0.58428,-0.06989,2.6441,-1.12888,-0.4809
-0.72724,0.68228,-0.07488,2.71476,-1.35034,-0.22538
-0.65204,0.75473,-0.07231,2.16688,-0.72092,0.21913
-0.60441,0.79484,-0.05402,0.51618,-0.45241,0.37279
-0.56637,0.82407,0.01177,0.04755,-0.16951,1.35301
-0.57906,0.81114,-0.08207,-2.08939,1.36308,0.60498
-0.58716,0.77852,-0.22169,-0.21046,0.54625,-0.93952
-0.58709,0.7781,-0.22335,0.49255,0.02134,-0.1901
-0.53672,0.8171,-0.21044,2.01096,2.28123,4.97146
-0.47049,0.84774,-0.24489,0.13664,1.75899,-2.53004
-0.4759,0.86099,-0.17947,0.12925,0.4476,0.01562
-0.43221,0.87772,-0.20688,-0.35501,-0.10918,2.62561
-0.32551,0.91796,-0.22669,-0.38413,-0.18341,-0.81916
-0.19235,0.95659,-0.21894,-1.81849,2.36096,0.82758
-0.09358,0.96488,-0.24545,-2.95161,4.11822,-0.37497
-0.0237,0.95735,-0.28796,-1.15978,0.19049,0.43716
0.02963,0.93703,-0.348,-0.14207,-0.37111,0.64826
0.07555,0.90992,-0.40785,-0.28812,-0.59769,0.71467
0.08067,0.88795,-0.4528,-1.39724,-1.3313,1.33954
0.03754,0.88737,-0.45953,-2.27101,-1.72192,1.21594
-0.01131,0.89288,-0.45015,-1.73714,-1.71431,0.63856
-0.0332,0.91667,-0.39827,0.38942,-0.46197,1.4501
-0.06964,0.93671,-0.3431,1.08204,-0.29949,0.55198
-0.09957,0.95339,-0.28483,0.98225,-0.52138,0.59123
-0.14496,0.96574,-0.21527,0.31057,-0.69036,-0.49386
-0.24898,0.95963,-0.13085,-1.57585,1.84704,0.0562
-0.43822,0.8978,-0.04381,-3.06309,3.64773,1.19748
-0.61634,0.78743,0.00854,-5.3101,5.25061,0.11441
-0.70044,0.71238,0.04356,-1.98233,3.63833,-0.78334
-0.77723,0.62729,0.04913,0.64537,2.12468,-0.40136
-0.82772,0.56029,0.03074,1.00207,0.7076,-0.45405
-0.85353,0.52055,0.02283,1.36433,-0.49308,0.01593
-0.85847,0.51239,0.02216,1.55905,-0.88958,0.00176
-0.84262,0.53831,0.01437,1.81644,-0.97703,-0.22056
-0.80162,0.59759,-0.0168,2.35564,-0.91337,-0.51723
-0.72854,0.68315,-0.05028,2.88034,-1.334,-0.93216
-0.63939,0.76761,-0.04414,2.93144,-1.6149,0.64796
-0.57218,0.81956,-0.03062,2.05076,-0.82589,0.56931
-0.52381,0.85182,0.0048,0.27341,-0.51358,0.97516
-0.51003,0.85973,-0.02715,-2.04409,1.34558,1.3544
-0.52366,0.83186,-0.1838,-0.96102,1.404,-2.15454
-0.52588,0.81551,-0.24165,0.22184,0.28418,-0.73601
-0.49773,0.8572,-0.13216,0.57933,2.52678,1.24968
-0.46012,0.87799,-0.13198,-0.25661,2.73015,-1.76121
-0.45735,0.88054,-0.12442,0.22566,-0.0562,-0.14398
-0.41195,0.89166,-0.18771,0.91579,-1.68448,-0.68776
-0.30688,0.93122,-0.19659,0.25608,-0.42694,-0.62899
-0.17039,0.96311,-0.20828,-1.28279,2.60338,-0.52758
-0.08488,0.96657,-0.24194,-2.8005,5.1755,0.62092
-0.01197,0.95342,-0.3014,-1.5266,-0.10677,0.98434
0.04131,0.93643,-0.34841,0.12733,-0.22244,0.93146
0.08415,0.91864,-0.38604,-0.31336,-0.42529,0.70981
0.10239,0.90411,-0.41484,-0.87865,-0.51624,0.40233
0.08253,0.89658,-0.43512,-1.37842,-1.34194,1.29564
0.04128,0.89627,-0.44158,-1.18522,-1.71854,0.89608
0.01126,0.90845,-0.41784,-0.85637,-1.9161,1.02554
-0.0187,0.92805,-0.37198,0.52221,-0.59057,0.43669
-0.07509,0.94265,-0.32523,0.68244,-0.62621,0.76688
-0.14426,0.95341,-0.26493,0.22578,-0.61416,0.33003
-0.22734,0.95384,-0.19621,-0.57988,0.36035,-0.59789
-0.34116,0.93317,-0.11316,-1.35775,0.97798,-0.1959
-0.48521,0.87331,-0.04365,-2.88297,2.34993,1.30637
-0.61383,0.78943,0.00411,-5.29938,5.52118,0.36445
-0.70697,0.70657,0.03073,0.02255,2.66066,-0.49999
-0.78,0.62524,0.02602,1.14569,1.89092,-0.59891
-0.82304,0.56795,0.00679,1.49386,0.26103,-0.38453
-0.84404,0.53626,0.00338,1.60193,-0.58071,-0.08724
-0.84608,0.53295,0.01061,1.7544,-0.82771,-0.30777
-0.82771,0.56096,0.01493,2.06863,-0.93481,-0.46331
-0.78051,0.62511,-0.00602,2.6259,-1.21573,-0.50937
-0.69189,0.7217,-0.02082,3.05464,-1.76442,-0.38631
-0.5905,0.8068,-0.01981,2.65736,-1.61658,0.67481
-0.52865,0.84815,-0.03422,1.59228,-0.66617,0.33298
-0.48189,0.87621,-0.00564,0.04061,-0.20516,1.67556
-0.46409,0.88369,-0.06087,-1.34908,1.96837,-0.34233
-0.47062,0.85621,-0.21312,-0.64038,1.31539,-2.2331
-0.46827,0.84147,-0.26955,0.16676,0.62001,-0.13508
-0.45288,0.86655,-0.20974,-0.12262,2.99122,0.90671
-0.45629,0.87043,-0.1848,-0.26492,1.93977,0.968
-0.4459,0.87593,-0.18416,0.84612,-0.601,0.21516
-0.36091,0.9059,-0.22156,1.41612,-1.10135,-1.13013
-0.22674,0.94704,-0.22737,0.75176,-0.33115,-0.57722
-0.10449,0.96845,-0.22623,-0.45025,2.10589,-1.55056
-0.04411,0.95859,-0.28134,-3.24486,5.06307,2.32371
-8e-05,0.94781,-0.31882,-2.53875,0.38053,0.63729
0.03083,0.9315,-0.36243,-0.93937,-0.80937,1.05888
0.06001,0.91565,-0.39747,-0.16984,-0.20442,0.77078
0.0744,0.90217,-0.4249,-0.80917,-0.50681,0.53681
0.05609,0.89966,-0.43297,-0.99178,-1.03177,0.91974
0.01499,0.90284,-0.42971,-0.93292,-1.49785,1.1598
-0.01829,0.91509,-0.40285,-0.65003,-1.80925,1.09845
-0.05787,0.93144,-0.35927,0.33918,-1.2241,0.52555
-0.11613,0.94359,-0.31008,0.69306,-0.58968,0.54053
-0.19157,0.94954,-0.24835,0.27056,-0.78377,0.37609
-0.27984,0.94358,-0.17707,-0.35137,-0.10826,-0.20215
-0.39112,0.915,-0.09903,-0.8406,0.71025,-0.84695
-0.52649,0.84939,-0.03655,-2.95837,2.57222,1.11248
-0.65405,0.75645,0.00064,-4.33805,6.47424,0.18985
-0.74914,0.66207,0.02104,-0.55638,2.9637,-0.64578
-0.81748,0.57586,0.01053,0.80552,1.75502,-0.47664
-0.85611,0.51664,-0.01293,1.3305,0.28169,-0.10333
-0.87374,0.48581,-0.02385,1.53007,-0.70486,0.16142
-0.87186,0.48905,-0.02626,1.53392,-1.08025,-0.08949
-0.85062,0.52501,-0.02855,1.88136,-0.88953,-0.27475
-0.80738,0.58753,-0.05431,2.44158,-0.94066,-0.44103
-0.73487,0.67332,-0.08134,2.9795,-1.67724,-0.29648
-0.64179,0.76205,-0.08592,2.46314,-1.43309,0.69307
-0.57028,0.81599,-0.09452,1.37445,-0.70254,0.10436
-0.51999,0.85249,-0.05353,0.20531,-0.21063,0.93857
-0.50647,0.86115,-0.04365,-1.18592,0.78733,2.861
-0.53509,0.82425,-0.18517,-1.58195,2.00634,-1.68222
-0.54649,0.78272,-0.29784,0.22758,-0.02055,-0.67032
-0.54179,0.82244,-0.17339,1.75109,1.46534,4.7933
-0.45344,0.86033,-0.23285,0.40886,1.52056,-1.94885
-0.40839,0.88272,-0.23244,0.42236,0.76054,-0.84113
-0.39557,0.89066,-0.22416,0.37305,-0.12961,0.49569
-0.31438,0.91227,-0.26256,0.26472,-0.35698,-0.38598
-0.16914,0.94388,-0.28371,-0.34386,0.92058,-0.61013
-0.0551,0.94708,-0.31623,-1.90984,4.09297,0.18957
0.01547,0.92858,-0.3708,-1.99961,1.30744,1.43595
0.07099,0.90653,-0.41612,-0.57877,0.29409,1.08632
0.1106,0.88614,-0.45003,-0.07195,-0.05351,1.15972
0.1474,0.86956,-0.47132,-1.08662,-0.27624,0.49675
0.154,0.86477,-0.47797,-1.48242,-0.60532,0.78499
0.11331,0.86218,-0.49376,-1.84938,-1.34273,1.33892
0.04291,0.86945,-0.49214,-1.69585,-1.9253,0.73806
0.00048,0.8946,-0.44686,-0.27377,-1.87027,1.16987
-0.06106,0.91375,-0.40165,0.59678,-0.46353,0.58358
-0.14044,0.93128,-0.33616,0.60547,-0.26825,0.50945
-0.23991,0.93383,-0.26532,-0.35036,0.51097,-0.68121
