gravity.x,gravity.y,gravity.z,userAcceleration.x,userAcceleration.y,userAcceleration.z
0.48105,0.8604,-0.1682,1.5114,1.20361,-0.08465
0.46763,0.87905,-0.09273,1.69137,0.98668,-0.45343
0.45364,0.89031,-0.03933,0.79842,0.57064,-0.94143
0.45017,0.89293,0.00485,0.52654,0.12593,-0.16988
0.44424,0.89513,0.03737,0.20753,-0.1969,0.19557
0.44194,0.89384,0.07573,-0.65007,-0.68435,-0.38089
0.43598,0.8923,0.11713,-0.71454,-0.97784,-0.97011
0.43176,0.89174,0.1356,-0.41722,-0.96704,-0.48086
0.42549,0.89431,0.13848,-0.22917,-0.96575,-0.62418
0.42607,0.89615,0.12404,-0.3665,-0.9703,-0.36721
0.42892,0.89852,0.09321,-0.33688,-1.06722,-0.1737
0.43196,0.90056,0.04887,-0.30046,-1.03597,-0.11961
0.438,0.89887,-0.01313,-0.15649,-0.6226,-0.21915
0.44356,0.89235,-0.08352,0.17208,-0.12547,0.12606
0.44981,0.87889,-0.15882,0.30698,0.15358,0.28132
0.47383,0.85017,-0.22956,0.7462,3.26241,0.45441
0.52028,0.81737,-0.24741,-0.04859,2.19864,-0.24934
0.53201,0.79124,-0.3015,-0.07834,1.54888,-0.02554
0.51683,0.77119,-0.37168,0.53258,0.91538,0.26047
0.52554,0.7402,-0.41942,1.1114,0.79932,-0.05296
0.54053,0.70715,-0.45582,0.85536,0.48479,0.11097
0.53621,0.68847,-0.48836,-0.03826,0.04545,0.32548
0.51474,0.68812,-0.5114,-0.83121,-0.47152,0.51876
0.49347,0.69926,-0.51723,-1.0633,-1.05198,0.9521
0.48224,0.72116,-0.49737,-0.97819,-1.31011,1.38281
0.48222,0.75218,-0.4491,-1.03872,-1.24923,1.32875
0.49786,0.77767,-0.38388,-1.02485,-1.11481,0.86994
0.51643,0.79419,-0.32026,-0.93114,-0.72626,-0.00234
0.5184,0.80443,-0.29008,-0.10562,-0.03501,-1.20922
0.5042,0.79703,-0.33245,0.78824,0.25645,-0.3169
0.52791,0.78056,-0.33472,0.57032,-0.52769,0.66701
0.56543,0.76352,-0.31198,-0.016,0.77167,0.87666
0.60168,0.71984,-0.34614,-0.4136,0.54783,1.00597
0.6205,0.70881,-0.33549,-1.27674,-0.79101,-0.45709
0.61796,0.73047,-0.29075,-0.46315,0.7126,0.72201
0.58287,0.77405,-0.24719,0.17488,1.97831,0.74611
0.53001,0.82029,-0.21499,0.47669,1.3542,0.68255
0.48331,0.85409,-0.19221,1.46199,1.18714,0.17417
0.45607,0.88088,-0.12663,1.71702,0.91141,-0.49106
0.44813,0.89163,-0.06456,0.57325,0.71466,-0.17521
0.45236,0.89183,-0.00372,0.34212,0.65586,-0.16115
0.45683,0.88807,0.05137,-0.24714,-0.06403,-0.40336
0.45908,0.88339,0.09411,-0.75235,-0.81626,-0.75129
0.45657,0.88063,0.12661,-0.3886,-0.94209,-0.76156
0.44508,0.8838,0.14422,0.16748,-0.72207,-0.44706
0.43268,0.88896,0.15012,0.04364,-0.94712,-0.74123
0.42853,0.89241,0.14131,-0.1884,-1.03718,-0.56131
0.43049,0.89659,0.10391,-0.32945,-1.00127,-0.19375
0.42945,0.90136,0.05588,-0.20176,-0.91355,-0.12463
0.43413,0.90085,-0.00239,-0.20644,-0.91304,-0.06636
0.44392,0.89298,-0.07426,0.1758,0.00115,0.29678
0.45731,0.8761,-0.15269,0.27613,1.18325,0.57481
0.48609,0.84792,-0.21153,0.42164,3.56636,-0.31367
0.51117,0.82123,-0.25353,0.03062,3.56576,-1.02923
0.49927,0.80322,-0.32489,0.05778,1.47,0.49261
0.47746,0.78129,-0.40202,0.75873,1.2463,0.25114
0.48407,0.74247,-0.46304,1.02842,1.11466,0.13966
0.50006,0.70255,-0.50632,0.60435,0.4926,0.01262
0.49162,0.68207,-0.54138,-0.02628,-0.14855,0.52014
0.46294,0.67815,-0.57079,-0.42653,-0.41741,0.70125
0.43878,0.68445,-0.58223,-1.02502,-1.1979,0.99713
0.42707,0.70219,-0.56968,-0.89635,-1.27644,1.38117
0.43379,0.72988,-0.5283,-1.01845,-1.29613,1.47327
0.46197,0.75721,-0.46175,-1.19247,-1.04682,0.82433
0.4942,0.77379,-0.39625,-0.20035,-0.30945,-0.56359
0.50759,0.77836,-0.36948,0.26531,-0.01807,-0.91605
0.51414,0.76692,-0.38405,0.96862,0.10095,-0.51667
0.53434,0.74941,-0.39097,0.48801,-0.4145,0.99026
0.57373,0.73094,-0.36953,-0.01536,0.97058,0.75367
0.6014,0.68959,-0.40346,-0.78771,-0.17066,0.70859
0.61727,0.68695,-0.38349,-1.45365,-0.59989,-0.0688
0.61864,0.70645,-0.34381,-0.4178,1.02324,1.09491
0.59809,0.74817,-0.28728,-0.18731,1.44344,0.87809
0.56038,0.79863,-0.21944,0.38806,1.57949,0.56339
0.51661,0.83425,-0.1927,1.37865,1.86242,0.25065
0.49077,0.86044,-0.13706,2.38973,1.35819,-0.46136
0.47277,0.87716,-0.0841,1.23704,0.38686,-0.8538
0.46728,0.88347,-0.03354,0.49207,0.4469,-0.2864
0.46451,0.88551,0.00972,-0.12714,-0.10144,0.43292
0.46291,0.88448,0.05835,-1.09843,-0.82752,-0.77097
0.46182,0.88068,0.10545,-1.02495,-0.72411,-0.98839
0.45388,0.87892,0.1466,-0.28098,-0.8975,-0.67441
0.44324,0.88065,0.16727,-0.02263,-0.9246,-0.6555
0.44043,0.88095,0.17305,-0.11377,-1.03375,-0.70741
0.44894,0.88046,0.15243,-0.27033,-0.93139,-0.55192
0.45784,0.88333,0.10051,-0.23356,-0.84014,-0.29814
0.4658,0.88351,0.0493,-0.1654,-0.53134,-0.25828
0.48124,0.87654,-0.00864,0.05747,-0.16417,0.26806
0.49075,0.86718,-0.08458,0.15314,0.19141,0.32745
0.50925,0.84636,-0.15599,0.71602,3.51741,0.73419
0.54113,0.81924,-0.18982,-0.01639,3.37449,-0.89363
0.53206,0.80391,-0.26576,-0.16991,1.56871,0.20556
0.50918,0.78746,-0.34734,0.33647,1.29296,0.18223
0.50986,0.75649,-0.4096,1.08619,1.05966,0.17753
0.52652,0.71571,-0.45884,1.15334,0.45812,0.16761
0.53527,0.67924,-0.50211,0.40642,-0.09302,0.36465
0.51121,0.66814,-0.5406,-0.6656,-0.71093,0.76094
0.47329,0.67386,-0.56736,-1.20587,-1.21424,1.07012
0.44667,0.68829,-0.57161,-0.90021,-1.40115,1.49502
0.44347,0.71464,-0.54095,-1.17129,-1.13467,1.36224
0.46938,0.74004,-0.48169,-1.29827,-1.01032,0.87449
0.50819,0.75546,-0.41355,-1.30486,-0.85794,0.20899
0.53163,0.76031,-0.37323,0.20948,-0.20025,-0.86218
0.54589,0.75095,-0.37158,0.78092,0.011,-0.08991
0.56437,0.73708,-0.37175,0.10856,-0.61142,1.12035
0.59078,0.72421,-0.35565,-0.53147,0.64109,0.24176
0.60508,0.69066,-0.39606,-0.2864,0.56784,0.51212
0.62835,0.6939,-0.35167,-0.77082,-0.12496,0.93637
0.62039,0.71328,-0.3261,-0.31117,0.77494,0.8841
0.60047,0.74897,-0.28013,0.22878,1.39429,0.70617
0.56779,0.79339,-0.2194,0.46272,1.39609,0.61472
0.5221,0.83341,-0.18118,1.42478,1.91424,0.19177
0.48962,0.86341,-0.12158,1.83109,1.20472,-0.61767
0.47056,0.87992,-0.06565,0.96654,0.45892,-0.68878
0.46675,0.88427,-0.01459,0.48435,0.29911,0.02715
0.46441,0.88479,0.03834,-0.38342,-0.21029,-0.30568
0.46418,0.88223,0.0788,-0.89884,-0.86132,-0.40297
0.46504,0.87709,0.12023,-0.83253,-0.87899,-0.80041
0.45342,0.87822,0.1521,-0.12505,-0.99603,-0.6391
0.44378,0.87985,0.17003,0.10314,-0.85712,-0.6756
0.44006,0.88028,0.17731,-0.104,-0.88697,-0.58553
0.44285,0.88241,0.15884,-0.33606,-0.99653,-0.55688
0.44991,0.88559,0.11535,-0.32371,-0.91809,-0.32088
0.45967,0.88546,0.06823,-0.2068,-0.77801,-0.19053
0.47449,0.88009,0.01734,-0.19983,-0.34119,0.00471
0.48786,0.87173,-0.04555,0.24866,0.01412,0.30097
0.4956,0.85964,-0.12404,0.52616,1.00498,0.47168
0.52352,0.83232,-0.18213,0.60128,3.95859,-0.13613
0.55057,0.80874,-0.20689,0.07071,2.68313,-1.51035
0.54485,0.7847,-0.29561,0.14299,1.39558,0.35541
0.53499,0.76133,-0.36628,0.38338,1.43299,0.34466
0.55066,0.72411,-0.41525,1.02258,0.76564,0.22404
0.5661,0.68162,-0.46359,0.5545,0.04837,0.32261
0.56363,0.65502,-0.50325,0.09909,-0.24624,0.43754
0.53811,0.65375,-0.53202,-1.12019,-1.18506,0.98012
0.51247,0.6684,-0.53909,-1.0827,-1.46313,1.47034
0.50379,0.69802,-0.50888,-1.18197,-1.32656,1.46207
0.52011,0.72903,-0.44497,-1.27893,-1.12142,0.8711
0.5515,0.74829,-0.36866,-1.24502,-0.73582,-0.09496
0.5715,0.75979,-0.30999,-0.87083,-0.40025,-0.81672
0.56483,0.76194,-0.31688,0.85246,0.23631,-1.02237
0.56085,0.74772,-0.35548,0.47634,-0.50507,1.18978
0.58587,0.7336,-0.34435,-0.08291,0.13818,1.29887
0.61132,0.69889,-0.37126,-0.12469,1.00063,1.16336
0.6398,0.67315,-0.37084,-1.46538,-0.66935,-0.77156
0.65022,0.68391,-0.33086,-0.56389,0.72618,1.11846
0.63113,0.72424,-0.27775,-0.38372,1.17368,0.92989
0.5946,0.77726,-0.20569,0.20318,1.54671,0.70565
0.55159,0.81728,-0.16673,0.69905,1.42001,0.65558
0.52019,0.83913,-0.15894,1.22252,1.50242,0.21467
0.51013,0.85524,-0.09129,1.32821,0.56617,-1.00007
0.49738,0.86683,-0.03492,0.94659,0.38647,-1.02666
0.48701,0.87339,0.00267,0.28434,-0.11149,0.14444
0.47723,0.87811,0.03408,-0.37254,-0.73619,0.22497
0.47215,0.87857,0.07191,-1.08223,-0.7368,-0.73377
0.46645,0.87728,0.11309,-0.64519,-0.75935,-0.57004
0.45726,0.87774,0.14311,0.03197,-0.7286,-0.56175
0.45053,0.8789,0.15665,-0.06341,-0.95047,-0.76679
0.45318,0.87809,0.15354,-0.21339,-1.11602,-0.39421
0.45496,0.88087,0.1306,-0.25048,-1.07146,-0.54026
0.45492,0.88662,0.08335,-0.31861,-0.81268,-0.31075
0.45765,0.88891,0.01959,0.09434,-0.46948,0.05098
0.46559,0.88317,-0.05683,0.22417,0.36122,0.20438
0.49302,0.85999,-0.1317,0.37004,1.74303,0.44138
0.53182,0.82868,-0.17451,0.42283,3.76419,-0.97678
0.53498,0.80761,-0.24812,0.00279,2.63789,0.13694
0.5198,0.7944,-0.31422,0.32179,1.16159,0.33363
0.5019,0.7742,-0.38562,0.81632,1.17653,0.23352
0.50462,0.73953,-0.44548,1.26473,0.79197,0.10554
0.51308,0.70738,-0.48616,0.18073,0.16066,0.32537
0.50198,0.69036,-0.52097,-0.195,-0.09106,0.60862
0.47374,0.68961,-0.54773,-0.85582,-0.90166,0.89436
0.45052,0.69907,-0.55527,-1.08554,-1.71912,1.61718
0.44781,0.72294,-0.52614,-1.09339,-1.63235,1.86925
0.47669,0.75129,-0.45644,-1.21814,-1.10236,0.68038
0.51722,0.76736,-0.37899,-1.25867,-1.11844,0.60293
0.53815,0.77136,-0.3397,0.38128,0.06186,-1.39385
0.54666,0.75875,-0.35421,0.85171,0.23555,0.28071
0.56303,0.741,-0.36595,0.4728,-0.29148,1.3263
0.58686,0.73495,-0.33976,-0.63079,-0.63774,1.28122
0.59405,0.70697,-0.38379,-0.26957,0.8174,0.90076
0.62636,0.69668,-0.34971,-0.9575,-0.12001,1.04895
0.62434,0.71523,-0.31408,-0.73704,0.27318,0.99571
0.60536,0.75138,-0.26261,0.11396,1.52502,0.75524
0.57031,0.79749,-0.19682,0.72758,1.7336,0.81509
0.52396,0.83522,-0.16693,1.09343,1.7131,0.6311
0.50209,0.85578,-0.12467,1.49185,0.54721,-0.72039
0.49261,0.86875,-0.05095,0.72374,0.66053,-0.96593
0.48965,0.87191,0.00205,0.59819,0.57605,-0.78549
0.48484,0.87379,0.03762,-0.22827,-0.1841,0.10227
0.48278,0.87253,0.07493,-0.54008,-0.26314,-0.15423
0.47857,0.8706,0.11415,-0.94648,-0.71624,-0.86531
0.47115,0.87106,0.13878,-0.13412,-0.97632,-0.50742
0.45953,0.87539,0.15007,-0.16802,-0.91048,-0.7744
0.45489,0.87832,0.14704,-0.21617,-0.94369,-0.63467
0.45394,0.88272,0.12138,-0.30652,-1.04743,-0.21022
0.45035,0.88919,0.08079,-0.33867,-1.04667,-0.11709
0.45223,0.89147,0.0274,-0.3823,-0.95262,-0.15069
0.45786,0.88812,-0.04005,0.08758,-0.21133,0.09301
0.47144,0.874,-0.1177,0.29777,1.15479,0.19013
0.50725,0.84118,-0.18737,0.4817,3.49818,0.10542
0.53381,0.81383,-0.22962,0.08516,3.17725,-0.35709
0.52411,0.79679,-0.30072,0.07055,1.86413,0.30514
0.50728,0.77793,-0.37079,0.73892,1.17365,0.30042
0.51437,0.7436,-0.42717,1.16531,0.851,0.00998
0.52976,0.70751,-0.46774,0.78367,0.48062,0.0703
0.52288,0.68946,-0.50123,-0.01414,-0.04252,0.3728
0.49648,0.68892,-0.52811,-0.79633,-0.64409,0.74435
0.47503,0.69703,-0.53712,-1.20957,-1.45684,1.20684
0.46858,0.71464,-0.51934,-1.08563,-1.54374,1.44645
0.47541,0.74067,-0.47476,-1.15193,-1.38268,1.49877
0.4998,0.76325,-0.40944,-1.14839,-1.0692,0.77095
0.52273,0.77962,-0.34487,-0.93951,-0.54011,-0.2185
0.52641,0.78887,-0.31712,0.22539,-0.12898,-1.11231
0.52903,0.77841,-0.33794,1.06999,0.21413,-0.67532
0.54809,0.76321,-0.3422,0.46128,-0.78621,1.05988
0.57047,0.76256,-0.30506,-0.84438,-1.10611,1.32422
0.58191,0.7536,-0.30571,0.38281,3.38974,0.22293
0.60522,0.727,-0.3243,-0.60867,1.61679,0.81277
0.5965,0.75225,-0.27982,-1.18509,0.27538,0.24213
0.57256,0.77346,-0.27189,-0.42648,0.57294,0.91746
0.54459,0.80883,-0.22183,0.45266,1.66728,0.78742
0.51507,0.84014,-0.16989,1.3849,1.88026,0.78789
0.5009,0.85731,-0.11879,1.95677,0.83625,-0.0471
0.48863,0.87193,-0.03122,1.10506,0.50947,-0.99046
0.47977,0.87674,0.03378,0.52874,0.52377,-1.22037
0.47238,0.87839,0.07262,-0.13071,-0.12774,0.22178
0.46558,0.87883,0.10432,-0.33716,-0.23996,0.2384
0.45658,0.87737,0.14749,-0.94788,-0.97519,-1.16119
0.44783,0.8766,0.17611,-0.41736,-1.11563,-0.71609
0.43755,0.87987,0.18536,-0.04056,-0.8622,-0.51687
0.4291,0.88411,0.18496,-0.17324,-1.04683,-0.69649
0.43176,0.88692,0.16414,-0.27105,-1.08507,-0.46501
0.43788,0.89067,0.1223,-0.26605,-1.01302,-0.30845
0.44603,0.89242,0.06808,-0.38918,-0.67481,-0.56681
0.45989,0.88796,0.00494,-0.33714,-0.50323,-0.25408
0.46861,0.88063,-0.06989,-0.01495,-0.37718,0.43527
0.46952,0.86843,-0.15929,1.01388,2.57915,0.88375
0.49702,0.83669,-0.23003,0.73838,4.48336,0.16656
0.53201,0.81124,-0.24261,0.03281,2.41484,-2.25443
0.52488,0.78534,-0.32823,-0.06022,1.2429,0.21476
0.51477,0.75765,-0.40121,0.48593,1.13326,0.4465
0.54308,0.71905,-0.43363,0.71884,0.94901,0.20755
0.56205,0.68301,-0.46647,0.5101,0.01758,0.22613
0.55579,0.66463,-0.49936,-0.44789,-0.56338,0.58043
0.53727,0.66748,-0.51556,-0.96295,-0.87726,0.79022
0.52824,0.68444,-0.50249,-1.19662,-1.61694,1.24358
0.52364,0.71925,-0.45659,-1.20685,-1.30679,1.36614
0.52679,0.75621,-0.38811,-1.26855,-1.15485,1.06979
0.53076,0.77955,-0.33254,-1.07349,-0.5865,-0.00872
0.52708,0.79224,-0.30748,-0.28434,-0.14986,-0.76308
0.52671,0.78888,-0.31661,1.04339,0.20208,-1.03629
0.54362,0.77158,-0.33035,0.88878,-0.50387,0.32355
0.56898,0.76178,-0.30976,-0.65084,-0.07452,1.63292
0.5902,0.75129,-0.29534,0.18159,2.85108,-2.36784
0.59163,0.7157,-0.37114,-0.57487,0.65872,1.24181
0.60808,0.72757,-0.31762,-1.28621,-1.29974,0.63115
0.60027,0.74536,-0.29003,-0.56145,0.6877,1.06086
0.57677,0.78228,-0.2353,0.00923,1.78245,0.87571
0.53867,0.82429,-0.17427,0.70094,1.93154,0.77504
0.50403,0.85011,-0.15249,1.66419,1.45676,0.05604
0.49214,0.86676,-0.08073,1.26964,0.5174,-0.95636
0.47722,0.8783,-0.02912,0.78685,0.45642,-1.00003
0.46932,0.883,0.00653,0.68004,0.20985,-0.34545
0.46038,0.88677,0.04104,-0.01061,-0.39887,0.443
0.45092,0.88882,0.08163,-0.70156,-0.64614,-0.04386
0.43699,0.88963,0.13261,-0.85565,-0.93641,-0.98256
0.43314,0.88761,0.15662,-0.14827,-0.90032,-0.53949
0.43204,0.8861,0.16782,-0.22188,-0.99753,-0.82508
0.43406,0.88654,0.16007,-0.40255,-0.93847,-0.47341
0.43421,0.89147,0.12935,-0.39576,-0.91086,-0.39421
0.43618,0.89597,0.0835,-0.20934,-0.91924,-0.19681
0.44599,0.89447,0.03163,-0.16262,-0.65129,-0.48851
0.45924,0.88785,-0.02856,0.1127,-0.33561,0.53091
0.46185,0.88147,-0.09847,0.41251,-0.04195,0.59465
0.48089,0.86056,-0.16784,1.06452,4.49515,1.0858
0.53276,0.82004,-0.20903,-0.18323,3.60777,-1.49575
0.52569,0.80355,-0.27922,-0.57065,1.31639,0.39427
0.49474,0.79046,-0.36112,-0.15029,0.8549,-0.01058
0.49099,0.76408,-0.41845,0.47951,1.17277,0.19232
0.51373,0.73208,-0.44737,0.82088,1.10712,0.36703
0.53394,0.69707,-0.47854,0.60646,0.00345,0.18558
0.53961,0.67723,-0.50017,-0.54646,-0.61779,0.46694
0.52729,0.68269,-0.50587,-1.10305,-1.0933,0.64289
0.51575,0.701,-0.49254,-0.93941,-1.28001,1.05034
0.50634,0.73185,-0.45608,-0.92237,-1.18841,1.23935
0.50328,0.76176,-0.40797,-0.98226,-1.05955,1.02625
0.51124,0.77902,-0.36299,-1.02679,-0.79167,0.20559
0.5153,0.7887,-0.33527,0.27131,-0.19988,-0.80017
0.51763,0.78552,-0.33915,0.76051,-0.06283,-0.85566
0.53611,0.76693,-0.35272,0.79571,-0.05054,-0.22983
0.56147,0.75513,-0.33841,-0.57548,-1.0848,1.58237
0.57587,0.74904,-0.32758,-0.73455,0.45528,0.53392
0.5943,0.71155,-0.37483,0.57751,3.05383,-1.31831
0.62299,0.71867,-0.30883,-1.34228,-0.66094,-0.31633
0.59834,0.73726,-0.31375,-1.13244,-0.51005,0.93518
0.57098,0.77009,-0.28451,0.20769,1.71313,0.73945
0.54515,0.8024,-0.24282,0.74839,1.52434,0.46279
0.526,0.82814,-0.19365,1.38463,0.9595,0.17472
0.50489,0.854,-0.12555,1.47395,0.72327,-0.27756
0.48642,0.87167,-0.05985,0.93899,0.73312,-0.73279
0.47884,0.87789,-0.00417,0.52647,0.62655,-0.61026
0.46929,0.88214,0.03977,0.12102,-0.00952,-0.01382
0.45969,0.88413,0.0836,-0.48766,-0.44395,-0.09143
0.44886,0.88407,0.13016,-1.00973,-0.84014,-1.14173
0.4405,0.88456,0.15329,-0.03843,-0.92492,-0.45761
0.43054,0.88801,0.16145,-0.01767,-0.88653,-0.60624
0.42893,0.8902,0.15349,-0.19829,-1.03744,-0.67922
0.43619,0.89189,0.11941,-0.35758,-0.93721,-0.36736
0.43918,0.89586,0.06736,-0.3086,-0.94108,-0.05357
0.44373,0.89611,0.00862,-0.22904,-0.81614,-0.13919
0.45476,0.88872,-0.05787,0.12193,-0.40458,0.13225
0.47051,0.87172,-0.13678,0.24232,0.21394,0.26283
0.50358,0.83779,-0.21096,0.47432,2.28887,0.57231
0.53668,0.80823,-0.24233,0.29836,4.17045,-1.02093
0.52822,0.78761,-0.31725,-0.22779,1.96399,0.08602
0.50367,0.76944,-0.39278,0.07923,1.20055,0.39555
0.50313,0.7386,-0.4487,0.81467,1.0998,0.20344
0.52277,0.69993,-0.48662,1.02645,0.75658,0.20294
0.52665,0.67377,-0.51834,0.29968,0.14743,0.3038
0.50938,0.66824,-0.5422,-0.95068,-0.73286,0.5781
0.48921,0.67626,-0.55077,-1.10914,-1.29924,0.72081
0.48092,0.69396,-0.53585,-0.97541,-1.40479,0.95352
0.484,0.72354,-0.49216,-1.07244,-1.05638,1.42274
0.50442,0.75019,-0.42752,-1.04864,-1.00709,0.76992
0.52795,0.76636,-0.36601,-1.01753,-0.84016,0.27353
0.53926,0.77174,-0.33707,0.39086,0.11823,-1.00821
0.54777,0.75845,-0.35314,0.81867,-0.06622,-0.18637
0.56684,0.74033,-0.36139,0.4664,-0.59376,0.36345
0.58854,0.73564,-0.33535,-1.0145,-1.04595,1.3552
0.5968,0.73471,-0.32253,-0.07551,2.19253,-2.58537
0.59816,0.70412,-0.38264,0.43463,3.60132,1.03293
0.60237,0.73489,-0.31157,-1.26953,-1.08514,-0.08922
0.58836,0.75313,-0.29431,-0.35606,0.69477,1.0024
0.57148,0.77951,-0.25644,0.74898,2.03841,0.92963
0.55568,0.8025,-0.21727,1.42575,1.50988,0.67604
0.55124,0.8197,-0.15565,1.92293,0.63443,-0.20158
0.53667,0.8406,-0.0733,1.42637,0.44355,-0.81175
0.52189,0.85282,-0.01803,0.635,0.60695,-1.12205
0.51347,0.85798,0.01468,0.33854,0.49108,-0.11422
0.50616,0.86143,0.04149,-0.13162,-0.26338,0.32228
0.49533,0.86488,0.08132,-0.9478,-0.68576,-0.55378
0.48654,0.86551,0.11902,-0.7929,-0.86711,-0.8694
0.47778,0.86826,0.13355,0.05673,-0.84632,-0.18064
0.47231,0.87143,0.1324,0.00911,-0.84576,-0.4689
0.47736,0.87104,0.11582,-0.20801,-1.1034,-0.61102
0.48477,0.87125,0.0769,-0.36967,-0.79862,-0.12613
0.4862,0.87353,0.02336,-0.31054,-0.74362,-0.12596
0.49398,0.86855,-0.04007,0.01524,-0.44255,-0.16493
0.50475,0.85551,-0.11542,0.18958,-0.03511,0.26181
0.52184,0.83003,-0.1968,0.16417,1.09696,0.47307
0.55309,0.79732,-0.24159,0.58426,4.13319,0.38749
0.56343,0.77565,-0.28446,-0.13169,1.72005,-0.02664
0.54613,0.75611,-0.36059,0.06225,1.35145,0.19907
0.53646,0.72866,-0.42576,0.85203,1.09028,0.05807
0.55658,0.68885,-0.46443,1.03842,0.97247,-0.06573
0.56117,0.66232,-0.4964,0.40407,0.34703,0.17304
0.54763,0.65358,-0.52243,-0.27277,-0.11329,0.55739
0.52948,0.65634,-0.53746,-0.98298,-0.52087,0.63797
0.51824,0.66801,-0.53403,-1.06916,-1.08398,0.70706
0.51065,0.69158,-0.51083,-0.92636,-1.35276,1.07349
0.50848,0.72389,-0.46629,-1.06362,-1.21118,1.31921
0.52021,0.75222,-0.40441,-1.04195,-1.07848,0.91298
0.53459,0.76809,-0.35249,-1.02522,-1.01855,0.46019
0.53974,0.77124,-0.33744,0.0926,0.02096,-0.83355
0.54434,0.75616,-0.36319,0.87062,0.26172,-0.73317
0.56724,0.73951,-0.36242,0.35246,-0.62887,0.49586
0.59894,0.73548,-0.31677,-0.64023,0.13711,1.59065
0.59765,0.70169,-0.38787,0.09477,2.30059,1.03269
0.6192,0.70314,-0.34954,-0.56059,0.33343,0.82917
0.6212,0.71532,-0.32004,-0.80845,-0.0515,1.0723
0.60891,0.74493,-0.27258,-0.29094,1.52615,0.76788
0.58205,0.78306,-0.21915,0.45319,1.5294,0.45198
0.54075,0.81912,-0.19136,1.18497,1.34924,0.15881
0.50298,0.85296,-0.13954,1.67932,1.06596,-0.44581
0.4792,0.87315,-0.08924,1.063,0.42731,-0.7317
0.46945,0.8819,-0.04322,0.82877,0.32016,-0.64646
0.46241,0.88665,-0.00483,0.05062,-0.22903,0.3173
0.46103,0.88636,0.0425,-0.50102,-0.70196,-0.08263
0.45866,0.88433,0.08715,-0.68098,-0.93898,-0.29914
0.45808,0.87966,0.12787,-0.6764,-0.68003,-1.09252
0.45316,0.8796,0.14473,-0.09839,-0.9135,-0.69397
0.44793,0.88233,0.14436,-0.15868,-0.90209,-0.50046
0.44875,0.88518,0.12279,-0.28464,-0.93667,-0.44744
0.45116,0.88886,0.07984,-0.24642,-0.956,-0.15772
0.4554,0.88986,0.02746,-0.25873,-0.93374,-0.04431
0.46413,0.88484,-0.04034,-0.08097,-0.64934,0.00569
0.48024,0.86918,-0.11789,0.04447,0.26177,0.23946
0.51047,0.83992,-0.18425,0.34303,2.03816,0.40596
0.54246,0.81076,-0.21999,0.56519,3.42001,0.2795
0.54407,0.78912,-0.28507,-0.00611,1.56176,0.30109
0.52692,0.77309,-0.3531,0.01104,1.57778,0.36912
0.52914,0.74034,-0.41462,0.93511,1.04238,0.06391
0.55004,0.69967,-0.45598,1.12127,0.65672,0.01227
0.5555,0.67049,-0.49179,0.44636,0.30587,0.21518
0.53748,0.66067,-0.52405,-0.33801,-0.11828,0.58475
0.51513,0.66301,-0.54319,-0.95887,-0.6397,0.68483
0.50021,0.67524,-0.54206,-1.19035,-1.11389,0.93569
0.49455,0.70021,-0.5149,-1.15541,-1.35743,1.41289
0.50105,0.7334,-0.45942,-1.1662,-1.21846,1.33781
0.52262,0.75767,-0.39089,-1.13288,-0.95341,0.49312
0.53591,0.76962,-0.3471,-0.47713,-0.42383,-0.57797
0.54062,0.76532,-0.3493,0.66948,0.03831,-1.26337
0.55847,0.74556,-0.36366,0.51746,-0.40607,1.21763
0.59142,0.7382,-0.32446,-0.18311,-0.17013,1.51115
0.61479,0.70078,-0.36184,-0.17842,1.79325,1.37524
0.63723,0.68974,-0.3438,-1.39042,-0.99429,-0.01472
0.63288,0.70674,-0.31618,-0.80537,0.13283,1.38882
0.61376,0.74213,-0.26932,-0.33596,1.35164,1.05373
0.58675,0.78193,-0.21049,0.26765,1.72251,0.64706
0.55535,0.81145,-0.18199,0.51827,1.17005,0.54692
0.52992,0.83479,-0.14934,0.95264,1.17574,0.24134
0.50388,0.85918,-0.08892,1.42489,0.90246,-0.81937
0.48844,0.87155,-0.04269,0.87351,0.41838,-0.77744
0.47754,0.87855,-0.00932,0.58157,0.1817,-0.09183
0.47204,0.88097,0.03251,-0.16253,-0.56664,0.21603
0.46696,0.88096,0.07643,-0.74733,-0.85801,-0.48157
0.46399,0.87786,0.11861,-0.22728,-0.7846,-0.59015
0.45669,0.87898,0.13719,-0.04522,-0.85924,-0.52964
0.45177,0.88097,0.14067,-0.00882,-0.93224,-0.78428
0.45637,0.88156,0.12072,-0.39503,-0.93041,-0.50482
0.45761,0.88565,0.07876,-0.36255,-0.89469,-0.09241
0.45741,0.8887,0.0313,-0.32237,-0.88841,-0.02898
0.46447,0.88514,-0.02808,-0.09228,-0.46021,-0.05833
0.4775,0.87284,-0.10068,0.08076,-0.15339,0.15822
0.50231,0.84694,-0.17426,0.14603,0.56604,0.34041
0.53785,0.81265,-0.22428,0.56327,2.97302,0.95557
0.56719,0.78203,-0.25831,0.315,3.1321,-1.3477
0.55905,0.75849,-0.33488,0.18813,1.93447,-0.02237
0.56096,0.72584,-0.39809,0.87163,1.07256,-0.08791
0.58242,0.68208,-0.44221,1.05355,0.81736,-0.20272
0.5815,0.65343,-0.48465,0.87753,0.56848,0.05759
0.5577,0.64538,-0.52197,-0.34687,-0.03254,0.68762
0.52952,0.64823,-0.54717,-0.68978,-0.24163,0.75828
0.5111,0.66042,-0.55011,-1.214,-0.90365,0.85539
0.50558,0.6851,-0.52443,-1.21495,-1.33608,1.34494
0.511,0.72067,-0.46852,-1.23913,-1.3341,1.33892
0.52735,0.74963,-0.39994,-1.10733,-0.9774,0.35445
0.53811,0.76497,-0.35392,-0.33046,-0.44563,-0.41956
0.53873,0.76689,-0.34879,0.5661,0.03719,-0.88401
0.5481,0.75224,-0.36567,0.8949,-0.1425,0.16253
0.57178,0.74247,-0.349,-0.07872,-0.82137,1.15809
0.59347,0.74171,-0.31251,-0.62633,0.56081,0.42127
0.59504,0.71118,-0.37435,-0.12313,1.50212,1.01786
0.61625,0.72073,-0.31746,-1.09935,-0.58229,0.04261
0.6122,0.73717,-0.28599,-0.58267,0.46019,1.01511
0.59528,0.76646,-0.24117,-0.37401,1.04291,0.90348
0.56636,0.80189,-0.19024,0.43791,1.62682,0.68606
0.52674,0.83322,-0.1682,0.94328,1.14856,0.25561
0.49732,0.85944,-0.11846,1.59288,1.003,-0.53646
0.47752,0.87579,-0.07042,0.92663,0.52318,-0.74548
0.47077,0.88174,-0.03007,0.73018,0.38422,-0.46638
0.46288,0.8864,0.00595,0.21037,-0.00935,0.41565
0.45844,0.88712,0.05334,-0.34769,-0.56444,-0.22004
0.45511,0.88538,0.09467,-0.91327,-0.75176,-0.86971
0.45141,0.8831,0.12789,-0.35637,-0.77723,-0.62708
0.44242,0.88574,0.14042,-0.03023,-0.80727,-0.3577
0.44088,0.88674,0.13892,-0.02964,-0.97839,-0.72474
0.44856,0.88608,0.11684,-0.26917,-1.0556,-0.59897
0.44981,0.89012,0.07316,-0.35491,-0.95771,-0.14098
0.44997,0.89282,0.01963,-0.23479,-0.85594,0.07377
0.45678,0.88817,-0.05003,0.10909,-0.33235,0.1645
0.48337,0.86531,-0.13262,0.11485,0.45023,0.17456
0.52733,0.82849,-0.18849,0.30144,2.15349,0.13463
0.54948,0.80234,-0.23308,0.24516,3.69769,-0.35218
0.53222,0.78702,-0.31198,-0.09158,2.15944,0.306
0.52395,0.76356,-0.37743,0.41044,1.44833,0.48265
0.53216,0.72733,-0.43336,0.99911,1.1317,0.16274
0.54558,0.6873,-0.47953,1.09953,0.65355,0.0917
0.53689,0.6658,-0.51814,0.30361,0.16837,0.24255
0.51221,0.66147,-0.54781,-0.0671,-0.04405,0.54636
0.49014,0.66784,-0.56013,-1.13454,-1.05734,0.85217
0.47902,0.68531,-0.54853,-1.13532,-1.30131,1.03197
0.47933,0.71596,-0.50759,-1.01351,-1.49835,1.47599
0.49738,0.74824,-0.43903,-1.19089,-1.28681,1.16598
0.51723,0.76869,-0.37628,-0.89559,-0.49966,-0.1713
0.52043,0.77757,-0.35289,-0.33184,-0.28029,-0.67088
0.51934,0.76882,-0.37309,1.0767,0.2663,-0.77518
0.5322,0.75305,-0.38688,0.90382,-0.10005,0.2048
0.55728,0.75004,-0.35619,-0.68102,-0.23306,1.67203
0.56211,0.72585,-0.39644,0.4302,2.9372,-0.21769
0.58591,0.70365,-0.40198,-0.30913,1.01939,0.9437
0.59845,0.71403,-0.36334,-0.98448,-0.37993,1.21129
0.59477,0.73581,-0.32378,-0.31744,1.30605,0.90389
0.57174,0.77718,-0.26287,0.4247,1.75761,0.63179
0.54021,0.81126,-0.22368,0.73151,1.30218,0.70904
0.51209,0.83794,-0.18872,1.79261,1.09956,-0.06892
0.49333,0.86097,-0.12389,1.29013,0.62776,-0.70374
0.47724,0.87566,-0.07383,0.7504,0.46116,-0.69298
0.46845,0.88298,-0.02985,0.38061,0.23418,-0.13457
0.46404,0.88565,0.01686,-0.22881,-0.34521,-0.05084
0.46006,0.88596,0.05836,-0.67561,-0.64802,-0.27292
0.45829,0.88287,0.10251,-0.86523,-0.69804,-0.96934
0.44876,0.8838,0.13227,-0.14758,-0.8414,-0.54185
0.43956,0.88712,0.14073,-0.02,-0.91811,-0.80247
0.44436,0.88716,0.12441,-0.24752,-1.01566,-0.4333
0.44944,0.88923,0.08522,-0.22372,-0.94647,-0.16246
0.44961,0.89263,0.03267,-0.2082,-0.90103,-0.08202
0.45477,0.89013,-0.0291,-0.16569,-0.65107,-0.25248
0.46446,0.87999,-0.09946,0.18195,-0.14696,0.19287
0.48088,0.85895,-0.17593,0.1792,0.56256,0.42575
0.51106,0.82737,-0.23296,0.29724,1.62416,0.71134
0.53576,0.79972,-0.27094,0.1516,3.25909,-1.11307
0.53054,0.77587,-0.34137,0.11545,1.80942,0.13741
0.51781,0.75078,-0.41012,0.58227,1.1036,0.35105
0.52921,0.71236,-0.46096,1.20202,0.89166,0.14362
0.54508,0.67593,-0.49599,1.1035,0.52759,0.00667
0.53208,0.6607,-0.52949,0.21101,0.07291,0.35813
0.50266,0.66328,-0.55444,-0.75778,-0.45034,0.70705
0.48111,0.67557,-0.55869,-1.13838,-1.08949,0.93017
0.47579,0.70149,-0.53061,-1.17796,-1.41589,1.2857
0.48375,0.73621,-0.47326,-1.22548,-1.23487,1.38577
0.49966,0.76344,-0.40925,-1.25087,-0.9493,0.71009
0.5093,0.77912,-0.36549,-1.08536,-0.72842,-0.02112
0.51207,0.78514,-0.34834,0.40755,-0.04744,-0.75641
0.51409,0.77789,-0.36137,0.86436,0.23828,-1.07588
0.52523,0.76614,-0.37035,0.99005,0.16626,-0.32197
0.55532,0.76071,-0.33605,-0.27781,-0.39122,1.50285
0.57322,0.71915,-0.39273,-0.12151,1.64792,1.14235
0.59693,0.71494,-0.36404,-1.51078,-1.07374,-0.68736
0.58927,0.73454,-0.33648,-0.48009,0.45905,1.30393
0.56005,0.77372,-0.29613,-0.0113,1.69054,0.98984
0.51656,0.81988,-0.24688,0.60067,1.6285,0.82911
0.48981,0.84235,-0.22477,1.30589,1.12452,0.09023
0.47578,0.86532,-0.15765,1.53498,0.76009,-0.46339
0.46008,0.8822,-0.1002,0.9523,0.62795,-0.69587
0.45407,0.8897,-0.04747,0.58129,0.56926,-0.50937
0.44575,0.89515,-0.00375,0.01636,-0.11437,0.42167
0.4419,0.89599,0.0439,-0.60099,-0.60147,-0.33768
0.43605,0.89593,0.08464,-0.95474,-0.84991,-0.98438
0.42812,0.89595,0.11824,-0.14504,-0.81909,-0.3558
0.41587,0.89929,0.13535,0.00536,-0.86387,-0.61984
0.41426,0.89975,0.13724,0.01889,-0.96401,-0.82165
0.42156,0.89925,0.11673,-0.31441,-1.04838,-0.42566
0.42209,0.90355,0.07361,-0.28899,-0.94712,-0.1514
0.42461,0.90522,0.01687,-0.26549,-0.81147,-0.04886
0.43241,0.90037,-0.04846,-0.22112,-0.64701,-0.0954
0.44722,0.88563,-0.12509,0.19895,0.19096,0.21466
0.48013,0.85418,-0.19965,0.5033,1.92691,0.49357
0.51822,0.82321,-0.23188,0.67797,3.99199,-0.33946
0.52729,0.79705,-0.2944,-0.03684,2.25304,-0.07631
0.51332,0.77555,-0.36745,0.21958,1.33692,0.38509
0.50829,0.74639,-0.42958,0.9577,1.06136,0.29019
0.52868,0.70793,-0.46832,1.07952,0.72846,0.05593
0.53224,0.68332,-0.49979,0.39999,0.18728,0.25139
0.513,0.67659,-0.52825,-0.40072,-0.28022,0.60954
0.4906,0.68204,-0.54233,-1.14037,-0.83481,0.75145
0.47883,0.69701,-0.53376,-1.16551,-1.37221,1.00489
0.47539,0.72684,-0.49568,-0.98356,-1.34206,1.51374
0.48485,0.75997,-0.43286,-1.11733,-1.12656,1.23982
0.49884,0.78159,-0.37452,-1.13435,-0.79067,0.34749
0.50081,0.79177,-0.3497,-0.93266,-0.55648,-0.09307
0.50459,0.78353,-0.36257,0.71535,-0.00239,-1.07826
0.52297,0.76282,-0.38028,0.80345,-0.08058,0.73479
0.56087,0.74482,-0.36147,0.50987,0.56751,1.06645
0.58634,0.69657,-0.41351,0.66405,2.17854,1.22285
0.6036,0.69187,-0.39621,-1.82382,-1.43253,0.168
0.61256,0.70964,-0.34811,-0.97266,0.12449,1.59643
0.59044,0.75226,-0.29236,-0.32758,1.69348,0.97002
0.54846,0.80516,-0.22562,0.40271,1.74213,0.56429
0.50413,0.83703,-0.21266,0.62171,1.53588,0.64653
0.47151,0.86456,-0.17383,1.98627,0.88749,-0.41408
0.45961,0.8806,-0.11528,1.55693,0.44644,-0.83269
0.45645,0.88765,-0.06102,0.5986,0.28023,-0.12623
0.45266,0.8916,-0.01225,-0.1021,-0.32182,0.36961
0.45335,0.89042,0.04014,-0.45231,-0.53912,-0.01237
0.45244,0.88722,0.09023,-0.91934,-0.68522,-0.8954
0.44751,0.88555,0.12461,-0.03403,-0.78434,-0.50176
0.43323,0.89009,0.14156,0.0482,-0.76161,-0.57376
0.42545,0.8928,0.14796,-0.01999,-0.97326,-0.75623
0.43343,0.89263,0.12387,-0.326,-1.1037,-0.47499
0.43614,0.89692,0.07279,-0.2825,-0.92975,-0.11093
0.43951,0.89802,0.01959,-0.25491,-0.89466,-0.03024
0.45166,0.89125,-0.04085,-0.02743,-0.44875,-0.1246
0.46767,0.87583,-0.11914,0.21797,0.1265,0.2701
0.4927,0.84763,-0.19687,0.25563,0.71882,0.42201
0.52924,0.81585,-0.23302,0.82335,3.66063,0.90187
0.5456,0.78712,-0.28766,0.08872,3.19513,-1.28063
0.53494,0.76247,-0.36397,0.29384,1.46426,0.51418
0.54125,0.72598,-0.42426,0.95221,1.00842,0.17014
0.56508,0.68143,-0.46512,1.07,0.69165,-0.12583
0.56406,0.65594,-0.50157,0.43594,0.10826,0.18301
0.54311,0.65043,-0.53101,-0.4097,-0.28939,0.57007
0.51821,0.65782,-0.54656,-1.02835,-0.77703,0.84223
0.50123,0.67631,-0.53979,-1.10936,-1.27183,1.09396
0.49368,0.71107,-0.50065,-1.13833,-1.34974,1.64461
0.50262,0.74875,-0.43214,-1.22648,-1.21369,1.30447
0.51892,0.76984,-0.37158,-1.23536,-0.7715,0.06678
0.5225,0.77585,-0.35362,-0.2073,-0.23543,-0.92684
0.53416,0.76074,-0.36872,0.99352,0.17217,-1.11407
0.56022,0.74306,-0.36608,0.70834,-0.13788,0.6956
0.58762,0.72722,-0.35474,-0.13177,0.49345,0.85664
0.60771,0.68019,-0.40991,-0.04566,0.98911,0.7722
0.62271,0.68224,-0.38311,-1.49937,-1.11977,0.17381
0.62045,0.70253,-0.34855,-0.69941,0.28618,1.44087
0.60148,0.74855,-0.27906,-0.2335,1.57345,0.86645
0.55574,0.80554,-0.20555,0.37867,2.08429,0.54216
0.50602,0.84095,-0.19165,0.65134,1.4187,0.65001
0.47839,0.8652,-0.15023,2.05163,1.01288,-0.29275
0.46282,0.88158,-0.09278,1.38684,0.36436,-0.84398
0.45626,0.88881,-0.04293,0.90988,0.37076,-0.58873
0.45264,0.89167,0.00545,0.16361,-0.27198,0.5793
0.45223,0.89019,0.05512,-0.62363,-0.53901,-0.11309
0.45614,0.88363,0.10543,-1.12341,-0.61571,-1.18794
0.45386,0.88132,0.13146,-0.07152,-0.82219,-0.46481
0.44139,0.88564,0.14425,-0.08848,-0.94305,-0.85533
0.43831,0.88741,0.14275,-0.27275,-1.0369,-0.63406
0.44542,0.88869,0.10874,-0.3241,-1.00475,-0.15257
0.44522,0.89329,0.06164,-0.26637,-1.00639,-0.02426
0.44724,0.8944,0.00296,-0.26377,-0.69964,-0.33113
0.45569,0.88759,-0.06726,0.05819,-0.28926,0.09311
0.46831,0.87138,-0.1462,0.33473,0.77272,0.35419
0.49627,0.84058,-0.21711,0.90388,3.87286,0.98394
0.52614,0.81372,-0.24704,0.01647,3.29831,-1.33963
0.52431,0.78912,-0.31997,-0.14042,1.76772,0.06943
0.50707,0.76769,-0.39183,0.38989,1.17013,0.60617
0.51554,0.73279,-0.44411,1.1072,0.87846,0.17439
0.54092,0.69209,-0.47792,0.96444,0.44271,0.01536
0.54081,0.671,-0.50723,0.15453,-0.18568,0.27875
0.51919,0.6705,-0.52997,-0.7675,-0.62645,0.71516
0.49985,0.68125,-0.53483,-1.11405,-1.19036,1.02447
0.49193,0.70347,-0.51296,-1.04268,-1.40355,1.35949
0.49471,0.73822,-0.45857,-1.1601,-1.27554,1.54946
0.51284,0.76732,-0.38499,-1.2078,-1.19752,1.21449
0.5211,0.78445,-0.33628,-1.10663,-0.43112,-0.52564
0.50935,0.78714,-0.34779,0.12572,0.05328,-1.19526
0.51498,0.7663,-0.38416,1.08759,0.17648,-0.69119
0.53739,0.75341,-0.37891,0.47356,-0.63464,1.11031
0.56214,0.73912,-0.37107,0.21174,1.34925,-0.00739
0.58675,0.69572,-0.41436,-0.44013,0.57638,1.0517
0.59792,0.69878,-0.39267,-1.7088,-1.4367,-0.31545
0.59764,0.72179,-0.34907,-0.55219,0.70668,1.2727
0.57749,0.76674,-0.28037,-0.24721,1.76434,0.94727
0.54547,0.81073,-0.21252,0.35034,1.73752,0.57808
0.50737,0.84095,-0.18808,1.33209,1.31642,0.10628
0.47973,0.8643,-0.15114,1.91804,1.01063,-0.08225
0.46747,0.87986,-0.08554,1.61909,0.73791,-0.58888
0.46168,0.88643,-0.03309,0.42247,0.29781,-0.26076
0.45392,0.89103,0.00389,0.12634,-0.00845,0.13506
0.45007,0.89195,0.04308,-0.35535,-0.64698,0.07478
0.44691,0.88931,0.09695,-0.78227,-0.84269,-0.8077
0.44163,0.88759,0.13094,-0.37882,-0.84013,-0.59831
0.43021,0.89063,0.14731,-0.00343,-0.88503,-0.65483
0.42651,0.89249,0.14676,-0.17612,-1.00035,-0.72688
0.42654,0.89604,0.12318,-0.40526,-0.9489,-0.3545
0.42371,0.90217,0.08097,-0.36708,-0.98763,-0.18517
0.42781,0.90353,0.02446,-0.30241,-0.87615,-0.11367
0.43859,0.89774,-0.04115,-0.10193,-0.46581,-0.03286
0.45614,0.88236,-0.11564,0.1976,0.13008,0.21993
0.49121,0.84999,-0.19034,0.59176,1.92411,0.53116
0.52577,0.82047,-0.22448,0.73752,3.96068,0.13304
0.534,0.79531,-0.28692,-0.04242,1.79365,0.0613
0.52237,0.77538,-0.35484,-0.01129,1.58865,0.41837
0.51672,0.74861,-0.41542,1.01834,0.9888,0.24431
0.5357,0.71079,-0.45586,0.82915,0.53245,0.1875
0.54223,0.6848,-0.48686,0.41141,0.26364,0.25962
0.52699,0.67707,-0.51366,-0.73978,-0.55795,0.6637
0.50632,0.68295,-0.52651,-1.1376,-1.26536,0.88378
0.49652,0.69916,-0.51444,-1.16144,-1.49539,1.12341
0.50038,0.73014,-0.46531,-1.1341,-1.29635,1.52336
0.5169,0.7582,-0.39742,-1.20475,-1.075,0.50234
0.52406,0.77529,-0.35254,-0.97116,-0.49816,-0.46498
0.52006,0.77795,-0.3526,0.23351,-0.07737,-1.0573
0.5272,0.75833,-0.38339,1.09448,0.19403,-0.75867
0.54885,0.73854,-0.39156,0.25578,-0.80559,1.26569
0.57218,0.73672,-0.36035,-0.89753,-0.92083,1.54298
0.57671,0.71764,-0.39038,0.28957,2.73561,-2.40199
0.60025,0.7019,-0.38345,-0.75441,1.01218,0.9868
0.59654,0.72684,-0.34035,-0.97558,-0.55155,0.68875
0.58335,0.74843,-0.31554,-0.29309,0.92414,1.02136
0.56564,0.784,-0.25573,0.56908,1.81534,0.74696
0.54642,0.8107,-0.21019,0.94826,1.46948,0.47901
0.52716,0.83474,-0.15909,1.80861,0.90545,-0.04544
0.50993,0.85539,-0.09092,0.76274,0.45421,-0.75178
0.4954,0.86787,-0.03693,0.54912,0.45088,-0.9014
0.48648,0.87368,-0.00242,0.25325,0.31122,-0.18668
0.48051,0.87645,0.03067,-0.72007,-0.51851,-0.05226
0.46991,0.87974,0.07243,-0.97132,-0.65625,-0.56578
0.4595,0.88154,0.10833,-0.9364,-0.77313,-1.07143
0.44723,0.88612,0.12148,0.06767,-0.90024,-0.62881
0.44052,0.88968,0.11998,-0.0893,-1.07157,-0.72578
0.43824,0.89335,0.09931,-0.23211,-1.06158,-0.39845
0.43466,0.89843,0.06242,-0.33845,-1.10236,-0.09738
0.44015,0.8979,0.00656,-0.31965,-0.85659,-0.25933
0.44959,0.89076,-0.0663,-0.30503,-0.65228,-0.3816
0.45355,0.87976,-0.14248,0.40276,0.3721,0.35029
0.4649,0.85484,-0.23045,0.46928,1.18685,0.51893
0.49998,0.8176,-0.28556,0.63592,2.60304,0.88067
0.53329,0.78672,-0.31091,-0.23561,2.02377,-0.16588
0.52351,0.75731,-0.3904,-0.04986,1.50833,0.18587
0.51514,0.72781,-0.45268,0.63593,1.05313,0.40595
0.53605,0.69037,-0.48583,0.96936,0.88051,0.00057
0.54102,0.66585,-0.51375,0.63036,0.4059,0.24761
0.52781,0.65767,-0.53747,-0.0169,-0.11492,0.56949
0.50697,0.66407,-0.54953,-0.97369,-0.54052,0.69359
0.49787,0.67672,-0.54237,-1.33262,-1.21157,0.72262
0.49924,0.70115,-0.50906,-0.99145,-1.23366,1.42439
0.50702,0.74008,-0.44183,-0.99205,-1.07363,1.40883
0.52206,0.76631,-0.37445,-0.90686,-0.88516,0.63011
0.53038,0.77293,-0.34823,-0.08014,-0.24968,-0.82345
0.54026,0.75622,-0.36912,0.46146,0.17983,-1.09198
0.55733,0.73342,-0.3892,0.78369,-0.06121,-0.08629
0.5794,0.73283,-0.35672,-0.87287,-0.72253,1.6793
0.58825,0.7241,-0.36005,-0.8733,0.07874,1.02274
0.59592,0.69965,-0.39417,-0.58839,0.29579,1.50767
0.59763,0.71404,-0.36465,-0.73018,-0.58323,0.9872
0.59548,0.73182,-0.33142,-0.28652,0.53522,0.8081
0.58861,0.76234,-0.26902,0.31926,1.69236,0.54904
0.56852,0.79364,-0.2166,0.72802,1.57199,0.43697
0.5389,0.82231,-0.18271,1.52623,1.14911,0.14036
0.51111,0.85076,-0.12234,1.32075,0.79301,-0.48761
0.48975,0.86915,-0.06857,0.71577,0.50725,-0.79992
0.48002,0.87679,-0.02843,0.6003,0.43565,-0.38227
0.46693,0.88427,0.00514,0.00164,-0.22479,0.32572
0.45332,0.89002,0.04847,-0.70845,-0.69033,-0.18899
0.4392,0.89364,0.09212,-0.96319,-1.02116,-1.08918
0.42694,0.8962,0.12055,-0.33792,-0.9069,-0.70676
0.41344,0.90086,0.13229,-0.01287,-0.90698,-0.70506
0.41094,0.90296,0.12563,-0.24485,-1.03057,-0.48887
0.41751,0.90319,0.09965,-0.31335,-1.22508,-0.3958
0.42996,0.90142,0.05063,-0.35075,-0.90558,-0.33468
0.44386,0.89593,-0.01659,-0.21855,-0.58525,-0.33952
0.4563,0.88501,-0.09241,-0.04805,-0.46817,0.00262
0.47079,0.86481,-0.17452,0.35596,0.76349,0.34119
0.50314,0.83076,-0.23808,0.82399,3.98754,0.12446
0.53929,0.79806,-0.26882,0.22849,3.26998,-0.80681
0.54341,0.7667,-0.34187,0.04009,2.2458,-0.4254
0.5336,0.73949,-0.41039,0.79779,0.9977,0.26082
0.55088,0.70091,-0.45305,0.89488,0.94033,0.07285
0.56011,0.67072,-0.48621,0.79099,0.8106,0.1565
0.54799,0.65701,-0.51773,-0.04266,-0.05783,0.49424
0.52443,0.6586,-0.53964,-0.95012,-0.58577,0.74097
0.50523,0.67068,-0.54307,-1.17897,-0.90283,0.86507
0.49888,0.6988,-0.51262,-1.07704,-1.48626,1.58956
0.5102,0.74045,-0.43752,-1.13968,-1.2731,1.60787
0.52899,0.76885,-0.35922,-1.19524,-1.19228,1.02364
0.5264,0.78194,-0.33386,0.011,-0.226,-1.21285
0.5225,0.77172,-0.36253,0.70841,0.07493,-1.24555
0.54398,0.74825,-0.37973,1.16783,0.40252,-1.09723
0.56683,0.74632,-0.34887,-0.69845,-0.80869,1.68415
0.57746,0.73594,-0.35346,-0.77944,0.0503,1.09055
0.58697,0.69833,-0.40963,-0.66551,0.44083,1.26583
0.60577,0.71195,-0.35518,-0.88956,-0.45661,1.27059
0.60349,0.72559,-0.33061,-0.74119,0.02952,0.8334
0.59303,0.75468,-0.28063,0.25819,2.05391,0.36213
0.56174,0.79283,-0.23634,0.44337,1.90088,0.51631
0.51958,0.82811,-0.21037,0.8011,1.0782,0.39477
0.4953,0.8541,-0.15867,1.5195,0.78068,-0.41022
0.48063,0.87143,-0.09794,0.99626,0.61261,-0.69445
0.47562,0.8782,-0.05035,0.80508,0.46323,-0.66634
0.46273,0.88631,-0.01797,0.10492,-0.43529,0.14077
0.45302,0.89119,0.02334,-0.60579,-0.66519,-0.07977
0.44078,0.89494,0.06918,-0.78662,-0.76698,-0.52002
0.42897,0.89764,0.10105,-0.12686,-0.84599,-0.46965
0.41506,0.90263,0.1139,-0.01232,-1.04719,-0.91868
0.41181,0.90498,0.10679,-0.25638,-1.02635,-0.29081
0.4137,0.90655,0.08372,-0.28705,-1.1964,-0.17472
0.42184,0.90565,0.04276,-0.24914,-1.03177,-0.32903
0.43536,0.90002,-0.02011,-0.17954,-0.69254,-0.32084
0.44695,0.88956,-0.09439,0.17164,-0.29707,0.2009
0.45449,0.87262,-0.17878,0.36653,0.45209,0.39033
0.47949,0.83947,-0.25569,0.83808,3.07858,0.79255
0.52479,0.80653,-0.27221,0.16851,3.69915,-1.18165
0.53263,0.77414,-0.34204,-0.18693,1.82014,-0.1539
0.51816,0.74937,-0.41225,0.31349,1.02485,0.51957
0.52634,0.71295,-0.46332,1.02782,0.85141,0.11092
0.54431,0.67743,-0.49477,0.56265,0.33766,0.21857
0.53918,0.66154,-0.52119,0.17098,0.06565,0.3816
0.51989,0.6608,-0.54134,-0.23573,-0.21016,0.56241
0.50282,0.66989,-0.54628,-1.17946,-1.13416,0.88388
0.49509,0.68874,-0.52964,-1.17172,-1.15302,0.86724
0.4896,0.72395,-0.48598,-1.08357,-1.18124,1.64556
0.49661,0.75702,-0.42461,-1.10398,-0.90225,0.50465
0.50551,0.7725,-0.38432,-1.01932,-0.59628,-0.12012
0.50923,0.77039,-0.38362,-0.52881,-0.34939,-0.67492
0.5324,0.74815,-0.39599,0.94616,-0.21432,0.48569
0.56607,0.73651,-0.37029,0.17547,-0.18373,1.57167
0.58217,0.70304,-0.40842,-0.22203,1.56639,0.42834
0.6045,0.68971,-0.39859,-0.92147,-0.83781,1.12987
0.6015,0.70367,-0.3782,-0.54346,0.28826,1.44604
0.58512,0.73698,-0.33835,-0.16587,1.27548,0.89936
0.54704,0.79398,-0.26522,0.49447,1.78274,0.52976
0.50823,0.83229,-0.22134,0.62113,1.77103,0.41923
0.47493,0.85887,-0.19174,1.88276,1.12494,-0.12364
0.45313,0.88102,-0.13588,1.23534,0.44223,-0.77667
0.4436,0.89212,-0.0856,0.77499,0.46847,-0.40479
0.43189,0.90083,-0.04439,0.18571,0.03194,0.52144
0.42513,0.90512,0.00283,-0.5331,-0.5007,0.17758
0.41972,0.90634,0.04868,-1.10154,-0.90202,-0.94629
0.41501,0.9054,0.08942,-0.35263,-0.82189,-0.51054
0.40387,0.90781,0.11294,0.02541,-0.71019,-0.52792
0.39472,0.91042,0.12376,-0.08355,-0.95609,-0.8331
0.39479,0.9113,0.11688,-0.32649,-1.09401,-0.62599
0.39877,0.91332,0.08255,-0.42198,-1.08364,-0.1452
0.40066,0.91553,0.03555,-0.10969,-0.92145,0.07494
0.4079,0.91267,-0.02523,0.44339,-0.06558,0.05318
0.42993,0.897,-0.1027,0.37821,0.19225,0.16028
0.46654,0.86848,-0.16752,0.61943,1.60127,0.30072
0.50502,0.83635,-0.2132,0.65614,3.59844,-0.30834
0.52021,0.80744,-0.27825,-0.00713,2.6541,0.01598
0.52148,0.78458,-0.33539,-0.05608,1.79657,0.47909
0.51033,0.75605,-0.40981,0.9646,0.98967,0.46313
0.53015,0.70704,-0.46801,0.97298,0.35322,-0.01797
0.53837,0.67277,-0.50747,0.12835,0.0408,0.37991
0.51739,0.66163,-0.54273,-0.73,-0.34101,0.78603
0.49111,0.66174,-0.56648,-1.02866,-0.64764,0.87439
0.47428,0.67027,-0.57078,-1.26785,-1.36453,1.10195
0.46918,0.69327,-0.54704,-1.26047,-1.44177,1.83419
0.47944,0.72893,-0.48866,-1.37824,-1.1426,0.9657
0.49968,0.75563,-0.42347,-1.30144,-0.73828,0.34941
0.5006,0.76934,-0.39688,0.28533,-0.03611,-0.96749
0.49739,0.76368,-0.41156,0.93869,0.21448,-1.31499
0.51557,0.73818,-0.43506,1.15751,-0.08075,0.27836
0.54787,0.73269,-0.40373,-0.87821,-1.06222,1.85278
0.56869,0.73193,-0.3753,0.25121,2.7464,-2.76242
0.55111,0.69476,-0.46214,0.21372,2.96806,1.22651
0.57078,0.71898,-0.39657,-1.14193,-0.84387,0.69726
0.56488,0.73864,-0.36783,-0.36434,0.81441,0.8362
0.54702,0.77222,-0.32316,0.391,1.8287,0.73982
0.51163,0.81613,-0.26863,1.05922,1.84145,0.63099
0.47856,0.84399,-0.24219,1.835,1.01171,0.24149
0.47467,0.86506,-0.16231,1.18045,0.41451,-0.56198
0.47141,0.87727,-0.09038,0.50421,0.54912,-1.06731
0.46375,0.88527,-0.0349,0.30119,0.28233,-0.04365
0.45357,0.89119,-0.00568,-0.30086,-0.30075,0.29886
0.44513,0.89475,0.03572,-0.78894,-0.67081,-0.42578
0.43539,0.89679,0.07872,-0.32409,-0.92879,-0.55069
0.42244,0.90115,0.09729,-0.106,-0.97878,-0.78043
0.41081,0.90537,0.10733,-0.23616,-1.1096,-0.56089
0.41007,0.90734,0.09248,-0.38807,-1.0738,-0.21209
0.4094,0.91051,0.05784,-0.33932,-1.11203,-0.35176
0.41419,0.91014,0.00876,-0.17918,-0.9023,-0.19049
0.42511,0.90351,-0.05415,-0.00864,-0.56419,0.11244
0.43259,0.89157,-0.13398,0.36816,0.0113,0.23704
0.45092,0.86597,-0.21624,0.70379,1.68211,0.51368
0.49508,0.82861,-0.26133,0.92879,3.83567,0.27152
0.52593,0.79359,-0.30593,-0.02711,2.61177,-0.43197
0.53334,0.76075,-0.36988,-0.15587,1.64691,0.35755
0.5146,0.7415,-0.43052,1.01756,0.57362,0.34163
0.52406,0.70533,-0.47734,1.1922,0.56969,0.2042
0.53863,0.67349,-0.50625,1.01944,0.54015,0.28559
0.53026,0.66175,-0.53,-0.73461,-0.52651,0.7556
0.50801,0.66824,-0.54349,-1.0432,-0.83663,0.8118
0.49344,0.68434,-0.53684,-1.20727,-1.10469,0.8631
0.48918,0.71485,-0.49968,-1.09865,-1.10864,1.46642
0.49531,0.75105,-0.43656,-1.16595,-1.04887,0.94856
0.50325,0.77198,-0.38831,-1.21359,-0.90148,0.33332
0.50253,0.77577,-0.38162,0.63708,-0.22881,-0.80145
0.51376,0.75974,-0.39854,1.06764,0.1219,0.07817
0.53739,0.73522,-0.4131,0.0466,-1.00797,1.25639
0.56774,0.7276,-0.38504,-0.85945,-0.53252,1.35794
0.58682,0.7151,-0.37982,0.57032,2.96823,-0.18595
0.58658,0.67645,-0.44534,-0.72437,0.00557,1.46876
0.60626,0.68915,-0.39688,-1.01081,-0.49289,0.5639
0.60538,0.70453,-0.37033,-0.32892,0.90738,0.81792
0.59169,0.73995,-0.31994,0.36986,1.71194,0.61066
0.56951,0.77581,-0.27161,0.54713,1.71797,0.6162
0.53861,0.80707,-0.24192,1.20191,1.28154,0.2954
0.51594,0.83648,-0.18465,1.41205,0.8028,-0.31189
0.4993,0.85731,-0.12535,0.73391,0.62979,-0.72652
0.49099,0.8679,-0.07535,0.55212,0.66271,-0.46734
0.47375,0.87962,-0.04256,-0.03148,-0.11241,0.39799
0.45776,0.88906,-0.0034,-0.64355,-0.74256,0.06585
0.44237,0.89568,0.04531,-0.88699,-0.9244,-0.97609
0.42796,0.90035,0.07877,0.04138,-0.83046,-0.33247
0.4142,0.90526,0.09445,-0.01625,-1.08521,-0.85404
0.41096,0.9065,0.09667,-0.26106,-1.12199,-0.38934
0.41392,0.90706,0.07684,-0.38351,-1.1228,-0.27522
0.41758,0.90808,0.03157,-0.28741,-0.90015,-0.1593
0.42475,0.90488,-0.02761,-0.08767,-0.70514,-0.0284
0.43323,0.89552,-0.10169,0.35516,-0.02551,0.18204
0.44947,0.87357,-0.18664,0.74842,2.26129,0.61065
0.48829,0.83825,-0.24268,0.78996,3.45153,0.56087
0.52336,0.80725,-0.27283,0.24257,3.72685,-0.62476
0.5201,0.78216,-0.34309,-0.3738,1.50298,0.38559
0.50505,0.76142,-0.40638,0.03262,1.13996,0.77107
0.50511,0.73226,-0.45678,0.95598,0.74978,0.30678
0.51916,0.69947,-0.49112,0.61591,0.53519,0.3157
0.52836,0.67727,-0.51199,-0.20597,0.02607,0.3414
0.52338,0.67011,-0.52633,-0.80657,-0.54918,0.55501
0.51733,0.67438,-0.52685,-0.93643,-1.10086,0.71748
0.51977,0.69065,-0.50283,-0.83787,-1.36957,0.8489
0.52468,0.72234,-0.45048,-1.0032,-1.15454,1.16564
0.53111,0.75109,-0.39215,-1.02296,-0.96097,0.45156
0.53074,0.76515,-0.36448,-0.93539,-0.72623,-0.04661
0.52767,0.76263,-0.3741,0.42548,-0.10972,-0.79997
0.53922,0.73956,-0.40284,0.7689,-0.12297,-0.10248
0.56622,0.72109,-0.39927,-0.24781,-0.75899,1.48385
0.59099,0.71521,-0.37308,-0.38067,1.33578,-0.93565
0.5889,0.68019,-0.43649,-0.28728,1.20334,1.42508
0.61347,0.68524,-0.39254,-1.36794,-0.90707,-0.01308
0.61576,0.70253,-0.35676,-0.54195,0.81003,1.15955
0.60079,0.74044,-0.30133,0.03662,1.50561,0.61662
0.5783,0.77492,-0.25506,0.45221,1.40779,0.61247
0.54793,0.80589,-0.22426,1.09272,1.09799,0.25059
0.52192,0.83574,-0.17066,1.47962,0.85234,-0.32616
0.50245,0.85621,-0.12012,1.175,0.49092,-0.6577
0.49061,0.86821,-0.07419,0.81879,0.34529,-0.7879
0.47796,0.87727,-0.0441,-0.05161,-0.34255,0.42113
0.46768,0.88387,-0.00662,-0.41749,-0.45087,0.05592
0.45357,0.89068,0.0308,-0.73562,-0.52815,-0.29114
0.43982,0.8959,0.06248,-0.39255,-0.92392,-0.43992
0.42581,0.90132,0.07929,0.02159,-0.92281,-0.47995
0.41705,0.90486,0.08531,-0.25822,-1.09371,-0.40991
0.41387,0.90692,0.07867,-0.35021,-1.20372,-0.31065
0.41591,0.90788,0.05241,-0.28177,-0.96514,-0.2173
0.42485,0.90522,0.00831,-0.20166,-0.73026,-0.23912
0.43707,0.89769,-0.05576,0.2188,-0.25742,0.09586
0.44961,0.88371,-0.12996,0.44681,0.07923,0.28725
0.47515,0.85544,-0.206,0.86053,2.52264,0.61099
0.52216,0.81889,-0.23822,0.3264,3.71382,-0.44641
0.55019,0.78638,-0.28089,-0.21625,2.64049,-0.59503
0.54771,0.7627,-0.34393,-0.12277,1.29188,0.55927
0.53048,0.74732,-0.40011,0.31765,0.95377,0.6588
0.55071,0.70984,-0.43913,1.09289,0.8819,0.16397
0.57036,0.67621,-0.46629,0.34937,0.32103,0.2104
0.56881,0.66168,-0.48851,-0.49852,-0.29308,0.56179
0.55678,0.66364,-0.49958,-1.13264,-0.81438,0.65415
0.54939,0.67651,-0.49041,-1.1302,-1.21215,1.01806
0.54743,0.70334,-0.45345,-1.11347,-1.16805,1.24745
0.5503,0.73459,-0.39691,-1.16352,-1.0248,0.79435
0.55502,0.75782,-0.34301,-1.16316,-0.81911,-0.10671
0.54879,0.77092,-0.32329,-0.23976,-0.40411,-0.50879
0.54711,0.76869,-0.33132,0.89678,0.05284,-0.76588
0.56434,0.74974,-0.34553,0.70587,-0.32233,0.27088
0.58896,0.7313,-0.34397,-0.50053,-0.91032,1.42466
0.60713,0.71965,-0.33689,-0.82513,-0.505,1.58379
0.61384,0.68776,-0.38753,-0.05973,2.15097,1.42221
0.63837,0.69099,-0.33913,-1.46492,-0.45228,-0.38164
0.63354,0.70372,-0.32156,-0.73757,0.617,1.25826
0.61837,0.73966,-0.26553,-0.2037,1.31208,0.84364
0.59301,0.77717,-0.21055,0.39727,1.52336,0.59817
0.56466,0.80453,-0.18406,0.9551,1.02136,0.3622
0.53876,0.83191,-0.13283,1.50697,0.81782,0.13949
0.51638,0.85346,-0.0703,0.73576,0.5749,-0.81257
0.50579,0.86259,-0.01026,0.54053,0.48731,-1.00088
0.49993,0.86579,0.02151,0.4629,0.38626,-0.88658
0.49345,0.86845,0.04775,-0.66093,-0.46753,-0.31159
0.48451,0.87123,0.07874,-0.78494,-0.67205,-0.76699
0.47569,0.87463,0.0934,-0.57417,-0.89928,-0.79324
0.46653,0.87946,0.09419,-0.13024,-0.9623,-0.53053
0.46383,0.8815,0.08839,-0.24726,-1.0607,-0.59297
0.46629,0.88188,0.06955,-0.33893,-1.17007,-0.46338
0.47159,0.88092,0.03952,-0.39915,-1.00681,-0.13153
0.47983,0.87732,-0.00739,-0.33906,-0.8595,-0.16659
0.48907,0.86849,-0.0808,0.16379,-0.0163,0.12548
0.49956,0.85064,-0.16382,0.35397,1.09824,0.32036
0.53231,0.81656,-0.22329,0.64577,3.4268,-0.06767
0.5733,0.77926,-0.25311,-0.27546,2.95847,-0.31572
0.57653,0.75282,-0.31759,-0.32188,1.66048,0.08985
0.55762,0.73828,-0.37947,0.56087,0.88599,0.45172
0.55035,0.71139,-0.43706,1.16854,0.93457,0.06178
0.56233,0.67829,-0.47297,1.0499,0.92201,0.01066
0.56164,0.65673,-0.50325,0.31005,0.57257,0.22319
0.54452,0.64659,-0.53425,-0.66521,-0.27632,0.61568
0.52219,0.64788,-0.55459,-1.02937,-0.90795,0.74605
0.51134,0.65806,-0.55271,-0.96899,-1.39435,1.09265
0.51812,0.67994,-0.51887,-1.05314,-1.21979,1.37611
0.53369,0.71047,-0.45871,-1.10655,-1.00893,0.96156
0.5545,0.73384,-0.39243,-0.94154,-0.77332,0.12519
0.56563,0.74383,-0.35605,-0.1153,-0.2742,-0.32732
0.57136,0.74174,-0.35123,0.63558,0.26293,-0.84995
0.58033,0.72468,-0.37154,0.49163,-0.20916,0.28727
0.61208,0.70704,-0.35418,-0.08185,0.05318,0.89506
0.62903,0.672,-0.3908,0.33296,2.40262,1.60751
0.65454,0.6472,-0.39077,-1.49118,-0.88788,-0.02723
0.66426,0.64903,-0.37081,-1.08759,-0.0636,1.69035
0.65755,0.67719,-0.33021,-0.36048,1.29471,0.85918
0.6287,0.72927,-0.26997,0.19672,1.62089,0.57345
0.60125,0.76942,-0.21557,0.34981,1.41449,0.51862
0.57526,0.79728,-0.18279,1.45898,1.04862,0.1086
0.54971,0.82597,-0.12479,1.66373,1.05244,-0.17312
0.53134,0.84413,-0.07151,1.65348,0.85451,-0.42276
0.52095,0.85328,-0.0225,0.45474,0.31373,-0.94325
0.50896,0.86077,0.00511,0.14096,-0.09281,0.09965
0.49621,0.86755,0.03331,-0.12928,-0.37787,0.18578
0.48033,0.87405,0.07281,-0.62651,-0.97101,-0.8716
0.46435,0.87901,0.10819,-0.23067,-0.90958,-0.5952
0.45394,0.88326,0.11737,-0.04485,-0.86151,-0.53802
0.45131,0.88524,0.11252,-0.30351,-1.0128,-0.22571
0.45203,0.88703,0.09392,-0.28188,-1.06628,-0.17049
0.45797,0.88696,0.05962,-0.2625,-1.10929,-0.1883
0.47131,0.88195,0.00345,-0.16692,-0.56135,-0.18712
0.48542,0.87147,-0.06993,0.03373,-0.32017,0.11482
0.49779,0.85451,-0.14831,0.25267,0.02822,0.30286
0.52292,0.82148,-0.22739,0.87054,3.65113,0.72871
0.56532,0.78554,-0.25165,0.35152,3.55601,-0.41203
0.58201,0.75158,-0.31045,-0.15141,2.57325,-0.93418
0.56431,0.73163,-0.38245,0.48861,0.95474,0.66493
0.56137,0.70262,-0.43724,0.8798,0.95935,0.21586
0.5789,0.66422,-0.47295,0.56737,0.55849,0.1984
0.58031,0.64207,-0.50098,-0.18685,-0.0797,0.42182
0.56704,0.63652,-0.52278,-0.58496,-0.35588,0.57991
0.5543,0.64322,-0.52822,-1.21409,-1.17376,0.7587
0.55205,0.66013,-0.50938,-1.06744,-1.30577,1.11816
0.55327,0.69622,-0.45735,-1.08627,-1.22613,1.26399
0.55771,0.73576,-0.38419,-1.06514,-0.86284,0.46479
0.55741,0.76191,-0.32982,-0.79426,-0.49607,-0.30859
0.54863,0.7725,-0.31974,-0.30986,-0.22086,-0.59931
0.5483,0.76079,-0.34721,1.03312,0.12701,-0.45505
0.56654,0.74045,-0.3616,0.21769,-0.84183,0.62856
0.59396,0.73347,-0.33049,-0.42666,-0.6802,1.54712
0.60974,0.71563,-0.34071,-0.10685,2.05988,1.048
0.63027,0.68272,-0.36966,-1.47962,-0.42589,-1.51762
0.64229,0.69485,-0.32347,-0.76581,0.0819,1.47208
0.62917,0.72545,-0.27903,-0.32986,1.40675,1.04028
0.59999,0.76913,-0.22009,0.30844,1.761,0.64132
0.5706,0.79858,-0.1915,0.66111,1.14289,0.32877
0.54675,0.82134,-0.16262,1.56623,1.0658,-0.17684
0.52766,0.84405,-0.09561,1.21917,0.76246,-0.63553
0.51147,0.85836,-0.04005,0.60241,0.60627,-0.8017
0.50342,0.86402,-0.00482,0.56139,0.28118,-0.39456
0.49176,0.87052,0.01887,-0.09692,-0.41159,0.31902
0.47785,0.87667,0.05565,-0.83543,-0.69832,-0.49244
0.46255,0.8816,0.09385,-0.69749,-0.91446,-0.51281
0.44739,0.88713,0.11321,-0.01962,-0.89037,-0.56501
0.4357,0.89192,0.12089,0.00302,-0.96096,-0.75958
0.43232,0.89472,0.11209,-0.29931,-1.06441,-0.29611
0.4309,0.89803,0.08859,-0.30622,-1.1717,-0.29753
0.43501,0.89924,0.04597,-0.25877,-0.95683,-0.34326
0.44537,0.89515,-0.01841,-0.03224,-0.61846,-0.1327
0.45579,0.88554,-0.08981,0.30967,-0.14133,0.31434
0.47199,0.86575,-0.16642,0.45459,0.76113,0.42765
0.51239,0.83006,-0.22009,0.92448,3.54216,0.41689
0.55235,0.79477,-0.25147,-0.18565,2.31754,-0.21946
0.55356,0.76915,-0.31933,-0.24569,1.6863,0.10356
0.54043,0.74923,-0.38287,-0.12868,1.28703,0.55171
0.5503,0.71425,-0.43245,1.06855,0.6629,0.19667
0.56589,0.67924,-0.46732,0.78151,0.52389,0.30071
0.55921,0.66372,-0.49674,0.38386,0.28049,0.38478
0.53779,0.66449,-0.51887,-0.96659,-0.47885,0.60066
0.51821,0.67496,-0.52524,-1.22065,-1.18308,0.687
0.5115,0.69659,-0.50311,-1.13599,-1.4131,0.85607
0.51179,0.73286,-0.44831,-1.0242,-1.04217,1.07747
0.52323,0.76167,-0.38219,-1.08552,-0.96887,0.58645
0.52946,0.77757,-0.33918,-0.33507,-0.3105,-0.44808
0.53177,0.77676,-0.33742,0.78979,0.50623,-1.31512
0.53572,0.75612,-0.37586,0.73054,-0.33791,0.26513
0.55625,0.73974,-0.37862,-0.42721,-0.79944,1.79987
0.58462,0.73044,-0.35309,0.17108,2.70583,-2.00984
0.57653,0.69321,-0.43252,-0.69622,0.42734,1.41709
0.60454,0.69841,-0.38307,-1.01558,-1.19635,0.76811
0.60697,0.71395,-0.34907,-0.49087,0.58456,0.89119
0.59254,0.74624,-0.30332,-0.22926,1.30504,0.7574
0.5621,0.78784,-0.2517,0.77535,1.86727,0.50384
0.52683,0.82094,-0.22022,1.53785,1.29487,-0.01932
0.50551,0.84836,-0.15728,1.36021,0.53326,-0.60327
0.49041,0.86503,-0.10582,0.68387,0.5833,-0.47906
0.48443,0.87288,-0.05826,0.33425,0.3553,0.10828
0.47755,0.87847,-0.01506,-0.29189,-0.30645,0.05934
0.47393,0.88003,0.03046,-0.92483,-0.71465,-0.50089
0.4678,0.88056,0.07583,-0.84045,-0.8526,-0.74936
0.456,0.88428,0.10046,-0.10998,-0.88948,-0.52926
0.43905,0.89163,0.11053,-0.13385,-0.9745,-0.58292
0.4293,0.8968,0.10696,-0.23655,-1.01935,-0.53932
0.42819,0.90043,0.07649,-0.16029,-0.98253,-0.19392
0.42985,0.90226,0.03373,-0.06596,-1.01946,-0.19039
0.43822,0.89865,-0.01937,-0.05843,-0.7391,-0.36728
0.44946,0.8894,-0.08329,0.14951,-0.43486,0.35846
0.45543,0.87586,-0.1595,0.43773,0.22706,0.5119
0.47287,0.84944,-0.23418,0.92807,2.83362,0.85028
0.52273,0.81421,-0.25261,0.2992,3.89812,-1.74532
0.53318,0.785,-0.31541,-0.34426,1.78356,0.0511
0.51494,0.76472,-0.38734,0.07532,1.13999,0.49381
0.51686,0.73247,-0.4431,0.56964,1.0509,0.45007
0.54017,0.69194,-0.47898,1.03954,0.78484,0.11782
0.54861,0.66172,-0.51103,0.35013,0.29411,0.34414
0.53471,0.65117,-0.53857,-0.3753,-0.41022,0.59515
0.51349,0.65484,-0.55453,-1.00853,-0.79033,0.70127
0.49881,0.67055,-0.54913,-1.15521,-1.2656,0.9718
0.48772,0.70363,-0.51675,-1.01691,-1.21134,1.41496
0.48502,0.74098,-0.46443,-1.03801,-0.96049,1.03495
0.49301,0.76308,-0.41789,-1.05205,-0.70783,0.16439
0.49533,0.76846,-0.40509,-0.35941,-0.27382,-0.28546
0.50345,0.75753,-0.41554,0.74446,-0.02102,-0.68823
0.5263,0.73578,-0.42618,0.11179,-0.92564,0.76178
0.55554,0.72463,-0.40777,-0.5963,-0.89989,1.50277
0.58309,0.71172,-0.39173,-0.90133,-0.40291,1.5472
0.58037,0.66827,-0.46538,0.10547,1.51926,1.68686
0.60339,0.68541,-0.40759,-1.00657,-1.02383,0.84443
0.6058,0.70211,-0.37421,-0.26663,0.96982,0.87056
0.59104,0.73967,-0.32179,0.37342,2.13405,0.56735
0.56153,0.78177,-0.27113,0.66464,1.60936,0.66159
0.5257,0.81682,-0.23756,1.37294,1.26573,0.05489
0.50407,0.84571,-0.17515,1.36659,0.85351,-0.62223
0.48313,0.86746,-0.11869,0.51701,0.54169,-0.70952
0.47618,0.87655,-0.07,0.59524,0.46378,-0.22572
0.4644,0.88469,-0.04053,-0.10738,-0.33053,0.59192
0.45354,0.89122,0.00071,-0.82543,-0.87397,-0.47554
0.44021,0.89676,0.04492,-0.80279,-1.10245,-0.69882
0.4292,0.90018,0.07377,-0.13126,-1.02341,-0.46726
0.4176,0.90411,0.09038,-0.04976,-0.99489,-0.6631
0.41254,0.90645,0.09025,-0.14155,-0.97895,-0.45317
0.41459,0.90756,0.06665,-0.19339,-0.87103,-0.35246
0.41921,0.90756,0.0243,-0.18474,-0.89825,-0.12243
0.42741,0.90367,-0.0263,-0.13577,-0.70417,-0.15995
0.43916,0.89476,-0.08083,-0.07416,-0.35133,0.11247
0.45054,0.88043,-0.14781,0.20706,0.04251,0.32956
0.47023,0.85455,-0.22049,0.74051,2.00209,0.66508
0.50778,0.8204,-0.26287,0.93767,3.82406,0.24393
0.53663,0.79239,-0.29008,0.11535,2.07079,-0.35569
0.52852,0.76684,-0.36416,0.21799,1.31324,0.39256
0.52507,0.74179,-0.41717,0.76056,0.94635,0.25984
0.55014,0.7035,-0.44991,1.07182,0.71894,0.05391
0.56668,0.67072,-0.47854,0.87634,0.59823,0.1484
0.55551,0.65859,-0.50761,-0.817,-0.44059,0.75674
0.53221,0.66138,-0.52851,-0.79369,-0.44338,0.77765
0.51346,0.6738,-0.53136,-1.30203,-1.2772,0.85256
0.50119,0.69901,-0.51009,-1.15558,-1.28256,1.40321
0.49877,0.73196,-0.46416,-1.21694,-1.20886,1.35668
0.50844,0.75588,-0.41245,-1.22512,-0.69611,0.13479
0.51538,0.76539,-0.38543,-0.36531,-0.38645,-0.39984
0.52417,0.75854,-0.38711,0.73843,0.22315,-0.92066
0.53192,0.73855,-0.41424,0.81915,-0.33611,0.52991
0.55078,0.72471,-0.41404,-0.44312,-0.9732,1.33157
0.57817,0.70589,-0.40918,0.40091,2.75941,-3.17404
0.58596,0.65652,-0.475,-0.31965,0.45389,2.15333
0.60928,0.66229,-0.43604,-1.80917,-1.61372,-0.31168
0.61717,0.68554,-0.38617,-0.60571,0.93403,1.375
0.60009,0.7344,-0.31706,-0.25617,1.69733,1.0264
0.56776,0.78195,-0.25729,0.41422,1.5891,0.66676
0.52922,0.81106,-0.24918,0.87721,1.36598,0.51023
0.5093,0.83627,-0.20313,1.76544,1.18639,-0.20599
0.49686,0.85628,-0.14106,1.35522,0.57782,-0.69967
0.48802,0.8687,-0.08476,0.6319,0.45885,-0.64858
0.47953,0.87614,-0.04911,-0.04846,-0.17921,0.09183
0.47108,0.88195,-0.01489,-0.41156,-0.41908,0.04951
0.46462,0.885,0.02974,-1.02707,-0.92219,-0.88656
0.45716,0.88685,0.06693,-0.39189,-1.02411,-0.45733
0.44215,0.89248,0.08929,-0.01749,-0.94739,-0.61674
0.4275,0.89806,0.10347,-0.13292,-1.06252,-0.4553
0.42393,0.90078,0.09411,-0.19367,-1.04211,-0.38162
0.4248,0.90319,0.06142,-0.10284,-0.93708,-0.20734
0.42885,0.9032,0.01731,-0.11912,-0.7305,-0.40871
0.44064,0.89707,-0.0329,-0.00706,-0.48628,0.1951
0.45376,0.8861,-0.09444,0.31855,-0.07041,0.48383
0.47025,0.86735,-0.16295,0.64978,1.42374,0.61426
0.51887,0.82767,-0.21382,0.9466,4.01548,-0.20815
0.55309,0.79589,-0.24623,-0.03477,2.6718,0.0036
0.53766,0.77881,-0.32305,-0.3217,1.6029,0.39411
0.51674,0.76472,-0.38494,0.50153,1.15696,0.44044
0.52971,0.72626,-0.43811,1.07122,0.80633,0.18238
0.55633,0.68105,-0.47609,0.91317,0.30175,0.21472
0.55152,0.65561,-0.51575,0.08523,-0.26967,0.5542
0.52108,0.65361,-0.54887,-0.97457,-0.59946,0.71014
0.49472,0.66359,-0.56115,-1.11274,-1.13266,1.07462
0.48049,0.68852,-0.54321,-1.03256,-1.30615,1.54101
0.47777,0.72326,-0.49861,-1.26445,-0.93004,0.78897
0.49078,0.7481,-0.44663,-1.28637,-0.78011,0.40036
0.50398,0.76048,-0.40946,-1.1765,-0.68193,0.05234
0.51094,0.7635,-0.39497,0.39119,-0.09406,-0.65513
0.5147,0.75196,-0.41186,0.94284,0.08988,-0.12971
0.53336,0.73491,-0.41884,0.63052,-0.38306,0.65025
0.56549,0.72279,-0.39722,0.10274,2.30672,-2.34346
0.55834,0.68538,-0.46744,0.10989,2.34413,-2.27324
0.58688,0.67748,-0.44339,-0.82568,-0.56736,1.21187
0.59561,0.69222,-0.40751,-0.44486,0.84349,1.1036
0.5895,0.72467,-0.35685,-0.23003,1.4726,0.86559
0.56269,0.77054,-0.29939,0.38177,1.79368,0.68241
0.52939,0.80483,-0.2683,0.69361,1.34434,0.62026
0.50833,0.83331,-0.21722,1.59185,1.04929,-0.06404
0.4943,0.85517,-0.15599,1.32701,0.64135,-0.69928
0.48578,0.868,-0.10286,0.63441,0.41655,-0.31487
0.47558,0.87739,-0.0632,0.38207,0.20012,0.20674
0.46625,0.8843,-0.02484,-0.01002,-0.13366,0.20249
0.45857,0.88845,0.01875,-1.09498,-0.84124,-0.85888
0.44866,0.89192,0.05632,-0.63036,-0.93905,-0.57964
0.43192,0.89844,0.07894,-0.10688,-0.88854,-0.32174
0.41661,0.90437,0.09238,-0.17169,-1.06707,-0.54026
0.41226,0.9074,0.08153,-0.2512,-1.05087,-0.34329
0.4106,0.91047,0.04936,-0.20935,-1.02006,-0.09584
0.41059,0.91179,0.00546,-0.09538,-0.89823,-0.3342
0.41857,0.90651,-0.05498,-0.03229,-0.57817,-0.01628
0.43129,0.89407,-0.12087,0.1924,-0.18276,0.44505
0.44461,0.87547,-0.18938,0.48663,1.28973,0.57312
0.47566,0.84344,-0.24969,0.82593,4.20406,-0.0472
0.50909,0.81362,-0.28078,-0.14033,2.82823,-0.10034
0.49905,0.79303,-0.34935,-0.09437,1.66354,0.43413
0.48655,0.77026,-0.41226,0.67974,1.24854,0.2031
0.50378,0.73216,-0.4584,1.15323,0.69568,0.17936
0.52355,0.69559,-0.49198,0.87558,0.20787,0.15791
0.5166,0.67907,-0.52151,-0.0836,-0.23178,0.49041
0.49113,0.68136,-0.54272,-0.97959,-0.66062,0.61204
0.46935,0.6939,-0.54609,-1.07774,-1.24294,0.87987
0.45042,0.71852,-0.52996,-0.99444,-1.32434,1.45525
0.44013,0.752,-0.49068,-1.03654,-1.23713,1.3136
0.45035,0.77875,-0.43672,-1.10034,-1.07549,0.59755
0.46588,0.79274,-0.39308,-0.73728,-0.47066,-0.24894
0.46714,0.79582,-0.38527,0.51264,0.18012,-0.96606
0.47127,0.77741,-0.41657,0.96034,0.24279,0.00672
0.49456,0.75752,-0.4261,0.04056,-1.16452,0.61027
0.52552,0.74441,-0.41191,-0.69244,-0.00644,1.76547
0.52275,0.71157,-0.46947,-0.38004,0.70184,1.80954
0.55449,0.69626,-0.45581,-1.07882,-0.66924,1.19161
0.56315,0.70866,-0.42504,-1.4732,-1.50251,-0.13348
0.56026,0.73618,-0.37966,-0.01363,1.60284,0.85091
0.53862,0.78189,-0.31388,0.00801,1.55713,0.78513
0.51091,0.81822,-0.26358,0.69,1.40169,0.65063
0.47542,0.84898,-0.23065,1.56719,1.35681,0.1163
0.4547,0.87521,-0.16504,1.36053,0.79958,-0.5735
0.44268,0.88998,-0.10935,0.78201,0.39945,-0.74535
0.43541,0.89823,-0.05986,0.34813,0.19737,-0.14595
0.42762,0.90377,-0.01787,-0.24256,-0.31439,0.1092
0.42636,0.90438,0.01736,-0.58626,-0.86826,-0.06361
0.4264,0.90235,0.06273,-0.69973,-0.98288,-1.13829
0.42107,0.90341,0.08085,0.00931,-0.84098,-0.42893
0.40993,0.90752,0.09133,-0.07349,-0.93511,-0.67179
0.41001,0.90832,0.0827,-0.26456,-0.9784,-0.29403
0.41778,0.90734,0.04674,-0.25623,-0.98087,-0.09281
0.42519,0.90509,0.00167,-0.24336,-1.00351,0.04017
0.43656,0.8979,-0.05637,-0.24711,-0.51545,-0.31874
0.44814,0.88529,-0.12416,-0.06226,-0.3771,0.24099
0.4535,0.86938,-0.19622,0.12635,-0.19009,0.54331
0.46809,0.8426,-0.2663,0.94198,3.88012,0.75714
0.50586,0.81078,-0.29451,0.19181,2.93721,-1.05931
0.51932,0.77832,-0.35286,0.08885,1.63689,0.35031
0.50682,0.75173,-0.42193,0.53638,1.13352,0.30005
0.51587,0.71523,-0.47151,0.84562,1.08265,0.18014
0.53795,0.67535,-0.50449,0.89407,0.56363,0.05176
0.53431,0.65383,-0.53573,0.05869,-0.05103,0.48997
0.50898,0.65279,-0.56106,-0.44433,-0.2862,0.62358
0.48637,0.66276,-0.56937,-1.14554,-1.20059,0.79236
0.47745,0.68203,-0.55397,-0.95743,-1.41323,1.27806
0.47205,0.71813,-0.51133,-1.01611,-1.3292,1.43342
0.47753,0.75533,-0.44882,-1.13967,-0.95341,0.7211
0.48631,0.77719,-0.39933,-0.95872,-0.57367,-0.09914
0.4829,0.78568,-0.38667,0.18824,0.02507,-0.64089
0.47964,0.77605,-0.40949,1.09496,0.38905,-0.88504
0.49021,0.75331,-0.43841,0.53398,-0.82051,0.6273
0.52047,0.74384,-0.41929,-0.57571,-0.34455,1.8997
0.53842,0.7214,-0.43552,0.30069,2.94082,0.98205
0.55781,0.69132,-0.45926,-0.75587,-0.5305,1.28966
0.58092,0.6949,-0.42383,-1.03507,-0.62738,0.94422
0.5907,0.71302,-0.37771,-0.43846,1.2723,0.81587
0.57889,0.75025,-0.31937,0.0938,1.87983,0.63439
0.55244,0.78812,-0.27143,0.45998,1.43517,0.6416
0.51977,0.81941,-0.24163,1.35696,1.52005,0.17216
0.50234,0.84482,-0.18416,1.62098,0.92569,-0.58294
0.48211,0.866,-0.13268,1.23455,0.63701,-0.80811
0.47051,0.87801,-0.08773,0.69534,0.33323,-0.18845
0.45893,0.88692,-0.05236,-0.04741,-0.20113,0.19806
0.44822,0.89385,-0.01035,-0.62657,-0.85526,-0.22074
0.44066,0.89703,0.03369,-0.60456,-1.02452,-0.58716
0.43179,0.89895,0.07373,-0.06968,-0.8586,-0.5764
0.41875,0.90303,0.09571,-0.09249,-1.03592,-1.01338
0.41358,0.90533,0.09646,-0.33313,-0.99647,-0.14072
0.4115,0.90826,0.07562,-0.36188,-1.03344,-0.29603
0.41185,0.91065,0.03282,-0.28781,-0.97503,-0.24367
0.41943,0.90754,-0.02096,-0.20619,-0.6966,-0.39753
0.43267,0.89764,-0.08378,-0.09313,-0.45512,0.17862
0.44179,0.88362,-0.15499,0.21609,0.02037,0.43485
0.45957,0.85883,-0.22625,0.54882,2.03942,0.56527
0.49997,0.82571,-0.26118,0.15071,3.03348,-1.23183
0.50658,0.80069,-0.31978,-0.10303,2.17001,0.07405
0.48154,0.78003,-0.39958,0.02867,1.43361,0.38518
0.47758,0.75019,-0.45729,1.08269,0.87496,0.23168
0.49884,0.71251,-0.49343,1.13504,0.749,0.23301
0.50489,0.68501,-0.52521,1.00952,0.57671,0.20676
0.48223,0.67881,-0.55377,-0.83798,-0.49723,0.6879
0.45908,0.68385,-0.56708,-1.00593,-0.83695,0.7347
0.44509,0.69777,-0.56125,-0.97817,-1.25643,1.56914
0.44724,0.72732,-0.52055,-1.06218,-1.17183,1.54188
0.46918,0.75743,-0.45406,-1.11162,-1.1045,1.10172
0.49171,0.77424,-0.39846,-0.97542,-0.49027,-0.38226
0.49312,0.78007,-0.38511,0.17,-0.13123,-0.71584
0.49082,0.77102,-0.40572,0.77737,0.13124,-0.79709
0.51227,0.74915,-0.41993,0.44186,-0.86268,1.04046
0.54297,0.73835,-0.40002,-0.71854,-1.14124,1.13125
0.55978,0.72763,-0.39648,-0.93834,-0.95561,1.07586
0.55368,0.69126,-0.46432,-0.0316,3.13574,1.62476
0.58697,0.70619,-0.39592,-0.74755,1.25539,1.10246
0.57,0.7301,-0.37688,-0.57293,0.23148,1.11706
0.54262,0.75859,-0.36068,0.42494,1.86633,0.99784
0.52585,0.78756,-0.32128,1.24656,1.69738,0.80976
0.52155,0.80956,-0.26941,1.7293,0.93757,0.2704
0.51735,0.83489,-0.18785,1.09804,0.68671,-0.65504
0.50415,0.85524,-0.11995,0.45318,0.63709,-0.73627
0.49393,0.86682,-0.06816,0.41449,0.39749,-0.39324
0.47887,0.87715,-0.03562,0.02879,-0.12009,0.23579
0.46962,0.88286,0.00109,-0.65883,-0.61611,-0.23798
0.46579,0.88369,0.04607,-0.90957,-0.86036,-1.04733
0.45657,0.88703,0.06857,-0.11973,-0.84133,-0.30822
0.44176,0.89413,0.07329,-0.10799,-0.9976,-0.70043
0.4382,0.89675,0.06163,-0.23676,-1.00608,-0.41956
0.4372,0.89892,0.02792,-0.30214,-1.03903,-0.11478
0.43393,0.90075,-0.01826,-0.2641,-1.0995,-0.09372
0.43546,0.89717,-0.07376,-0.24985,-0.94936,-0.19301
0.43927,0.8869,-0.14298,0.10021,-0.51034,0.24124
0.43983,0.87138,-0.21734,0.29528,0.15355,0.38424
0.45897,0.84171,-0.28436,0.65714,2.37292,0.55867
0.50851,0.80551,-0.30424,0.52547,3.89861,-0.64961
0.52614,0.77044,-0.36,-0.0856,1.50871,0.25432
0.51192,0.74689,-0.42436,0.14179,1.20622,0.36038
0.51945,0.7156,-0.46699,0.52114,1.09451,0.15841
0.54222,0.67932,-0.49449,0.8603,0.33219,0.147
0.54092,0.66006,-0.52126,0.48526,0.03087,0.32227
0.51417,0.66285,-0.54428,-0.04733,-0.2227,0.47264
0.48623,0.67626,-0.55339,-1.02157,-1.0676,0.6469
0.46328,0.69806,-0.54597,-0.87857,-1.13281,0.96122
0.44433,0.73416,-0.51338,-0.77778,-1.09562,1.4361
0.44459,0.7718,-0.45459,-0.95112,-1.01096,1.05482
0.46519,0.79269,-0.394,-0.9933,-0.93583,0.43202
0.47841,0.79806,-0.36635,-0.99516,-0.65727,-0.4104
0.47779,0.7815,-0.4012,0.95025,0.12547,-0.04211
0.50015,0.7584,-0.41793,0.70543,-0.39361,0.83791
0.53096,0.75087,-0.39276,-0.50403,0.47611,0.68689
0.53942,0.70837,-0.45523,0.40068,1.3884,1.33656
0.57964,0.68353,-0.44361,-1.29473,-1.04847,0.21641
0.58078,0.69407,-0.42538,-0.66231,0.30648,1.36369
0.57179,0.72379,-0.38624,-0.10169,1.68957,0.88378
0.54877,0.76676,-0.33304,0.31506,2.02568,0.60469
0.52132,0.79802,-0.30229,1.07866,1.29349,0.18601
0.49825,0.8289,-0.25429,1.44598,1.01963,-0.16311
0.4732,0.85726,-0.20292,1.3982,0.7556,-0.54523
0.45143,0.87775,-0.1605,0.91884,0.50829,-0.10328
0.43703,0.89131,-0.12065,0.31278,0.0426,0.30353
0.4283,0.90097,-0.06919,0.00382,-0.14136,0.10887
0.42481,0.90502,-0.02154,-0.7553,-0.81551,-0.37336
0.42637,0.90427,0.0222,-0.60756,-0.90396,-0.66158
0.42656,0.90274,0.05556,-0.11828,-0.8748,-0.54583
0.41853,0.90532,0.07214,-0.20968,-0.92072,-0.56013
0.41346,0.90783,0.06984,-0.34069,-0.97216,-0.41097
0.41223,0.91014,0.04124,-0.2817,-0.98074,-0.28251
0.41442,0.91006,-0.00557,-0.22148,-0.9955,-0.05025
0.41885,0.90644,-0.0541,-0.12937,-0.76682,-0.25472
0.42452,0.89815,-0.11446,0.17025,-0.40008,0.36666
0.42685,0.88541,-0.18393,0.25914,-0.14955,0.41603
0.44487,0.8601,-0.24961,1.0582,3.3348,0.8615
0.48584,0.82784,-0.28039,1.0259,4.10946,0.81889
0.49394,0.79873,-0.34359,-0.17458,2.06675,0.1874
0.47864,0.77683,-0.40919,0.20647,1.40502,0.51252
0.49083,0.73938,-0.46086,0.44382,1.11723,0.37171
0.51831,0.69621,-0.49663,0.95788,0.31539,0.22208
0.52904,0.66695,-0.52468,0.4883,-0.22632,0.29481
0.50609,0.66523,-0.54894,0.03503,-0.47512,0.54695
0.47731,0.67958,-0.55709,-0.9942,-0.92579,0.94881
0.45342,0.70484,-0.54553,-0.97593,-1.28216,1.38587
0.43809,0.74336,-0.50545,-1.00853,-1.32504,1.53202
0.44431,0.77711,-0.44574,-1.20284,-1.1366,0.7235
0.4569,0.79388,-0.40123,-1.09771,-0.57568,-0.24625
0.45906,0.79825,-0.38994,-0.03436,-0.24385,-0.63862
0.46531,0.78398,-0.41091,1.04365,0.44243,-0.9928
0.48497,0.76006,-0.43256,0.59191,-0.57657,0.6815
0.51685,0.7479,-0.41653,-0.26458,0.26238,1.18162
0.5147,0.69971,-0.49546,0.37702,2.1481,1.45835
0.53924,0.69417,-0.47681,-1.30196,-1.54854,0.30388
0.56303,0.70332,-0.43398,-0.92626,-0.23861,1.24077
0.56316,0.72973,-0.38774,-0.62592,0.63456,0.94271
0.54119,0.77616,-0.32355,0.38433,1.83543,0.72451
0.50397,0.81696,-0.28032,0.81715,1.49804,0.51525
0.46228,0.85022,-0.25181,1.61804,1.18354,0.13473
0.44883,0.87415,-0.18548,1.0989,0.55339,-0.80553
0.4505,0.88459,-0.12058,0.84914,0.49111,-0.33113
0.45116,0.8895,-0.07234,0.3235,0.07723,-0.00046
0.44839,0.89343,-0.02687,-0.44198,-0.55497,-0.35269
0.44691,0.8944,0.01758,-0.76827,-0.90356,-0.47569
0.44521,0.89382,0.05348,-0.38689,-0.89571,-0.3979
0.43356,0.8978,0.07724,-0.09349,-0.94136,-0.94658
0.42487,0.90086,0.08899,-0.19332,-0.95776,-0.40294
0.42332,0.90246,0.07972,-0.30045,-0.94332,-0.35816
0.42024,0.90631,0.04456,-0.18326,-0.93187,-0.28545
0.42139,0.90687,-0.00172,-0.03212,-0.92866,-0.02492
0.42808,0.90203,-0.0555,0.24774,-0.55724,0.36627
0.44241,0.88881,-0.11951,0.17513,0.02623,0.33428
0.47477,0.86327,-0.17132,0.33805,1.31121,0.10658
0.51977,0.8289,-0.20676,0.53808,3.08617,-0.40161
0.52692,0.8032,-0.27788,0.17172,3.07795,0.21573
0.51507,0.78948,-0.33378,-0.12999,1.81916,0.4379
0.4985,0.77089,-0.39652,0.5185,1.08245,0.30787
0.48789,0.73797,-0.46621,1.25434,0.61513,0.26795
0.50287,0.70379,-0.50179,1.06801,0.31096,0.05496
0.50004,0.68514,-0.52966,0.06647,0.1182,0.44916
0.4719,0.68396,-0.55633,-0.62387,-0.60555,0.82328
0.43951,0.69431,-0.56988,-0.85391,-0.9014,0.93702
0.4166,0.71583,-0.56039,-1.02094,-1.58902,1.7084
0.4144,0.74541,-0.52214,-1.24135,-1.39713,1.46085
0.43961,0.76871,-0.46456,-1.29708,-0.96401,0.53383
0.46296,0.77978,-0.42142,-0.73201,-0.41653,-0.636
0.46837,0.77914,-0.41661,0.79016,0.06256,-1.25731
0.47997,0.75682,-0.44367,1.20528,0.15851,0.23241
0.50511,0.74223,-0.4404,-0.04408,-1.13028,1.18433
0.5355,0.7347,-0.41647,-0.49676,2.03341,-2.54191
0.52048,0.69566,-0.49513,0.44223,3.61816,-0.18939
0.55765,0.69692,-0.45092,-0.40791,0.89097,2.16186
0.57087,0.70615,-0.41887,-0.68894,0.62687,1.03347
0.58254,0.72874,-0.35997,-0.31477,1.58797,0.60846
0.56477,0.76708,-0.30432,0.05516,1.95883,0.52489
0.5346,0.80551,-0.25565,1.55178,1.48218,0.26544
0.5161,0.8331,-0.19895,2.00062,1.16143,0.13111
0.50261,0.85427,-0.13262,1.87904,0.79644,-0.34429
0.49357,0.86665,-0.07279,0.48363,0.51033,-0.27717
0.48683,0.87301,-0.02904,0.07969,0.29371,0.14994
0.48659,0.87359,0.00786,-0.17359,-0.07683,0.18408
0.49268,0.86839,0.05615,-0.79189,-0.73588,-0.89046
0.4929,0.86542,0.08998,-0.12058,-0.86737,-0.381
0.48137,0.86955,0.11025,-0.05178,-0.9718,-0.78378
0.47252,0.87313,0.11983,-0.25473,-1.08524,-0.60118
0.47154,0.87575,0.10345,-0.40459,-0.99536,-0.4489
0.47404,0.87874,0.05557,-0.28672,-0.87786,-0.1924
0.47853,0.87806,0.00433,-0.24455,-0.61678,-0.33924
0.48893,0.87101,-0.04784,-0.34526,-0.47971,-0.44173
0.497,0.86044,-0.11231,0.05128,-0.17587,0.52951
0.49528,0.8493,-0.18272,0.44079,1.2458,0.574
0.51462,0.82039,-0.24925,0.85464,2.9471,0.81849
0.54101,0.78773,-0.29459,0.21192,2.78736,-1.28839
0.52544,0.76292,-0.37665,0.15906,1.36336,0.21721
0.50535,0.73348,-0.45456,0.47988,1.18946,0.14613
0.5125,0.69685,-0.50173,0.87704,0.99318,0.20196
0.52487,0.65913,-0.53857,0.86892,0.32625,0.29342
0.51615,0.63567,-0.57403,0.13232,-0.36601,0.52752
0.48417,0.63625,-0.60064,-0.9061,-0.89614,0.97851
0.45771,0.64883,-0.60787,-1.17746,-1.349,1.32685
0.44321,0.67687,-0.58772,-0.99706,-1.43621,1.99972
0.45138,0.71539,-0.53335,-1.17323,-0.99417,1.54116
0.48076,0.74121,-0.46848,-1.27748,-0.59508,0.08188
0.4922,0.74958,-0.44256,-0.66814,-0.2788,-0.69444
0.49825,0.74193,-0.44864,0.59071,0.08671,-1.07499
0.51076,0.72317,-0.46491,0.929,-0.01187,0.25823
0.53107,0.71162,-0.45996,0.56578,-0.63606,1.22267
0.55207,0.70659,-0.44265,-0.62566,0.40031,0.967
0.54749,0.66177,-0.51216,-0.77631,0.29894,1.49461
0.586,0.67073,-0.45467,-1.17102,-0.93208,1.07454
0.59713,0.68963,-0.40968,-1.1041,-0.84268,0.82812
0.58866,0.72229,-0.363,0.42284,1.8479,0.69833
0.565,0.76808,-0.30136,0.79473,1.9014,0.64124
0.52813,0.80826,-0.26036,1.10761,1.70514,0.56561
0.50861,0.83866,-0.19482,1.15511,0.55409,-0.64146
0.49511,0.86064,-0.11898,0.66662,0.5014,-0.94191
0.48548,0.87219,-0.05983,0.49983,0.4554,-1.11459
0.4756,0.87925,-0.02676,-0.29194,-0.4737,0.30022
0.46982,0.88266,0.01303,-0.55418,-0.67958,-0.07762
0.46843,0.88099,0.06643,-0.89366,-0.82276,-0.90799
0.4623,0.88201,0.09118,0.02877,-0.86688,-0.46715
0.45099,0.88658,0.10278,-0.04652,-0.94876,-0.61841
0.44739,0.88957,0.09214,-0.16188,-1.05542,-0.66959
0.45155,0.89083,0.05007,-0.28429,-0.94093,-0.1532
0.45245,0.89177,-0.00513,-0.23324,-0.92784,-0.11492
0.45661,0.88687,-0.07047,0.19656,-0.35763,0.13404
0.46287,0.87332,-0.15183,0.09366,0.28142,0.25017
0.48676,0.84524,-0.22049,0.14639,0.93318,0.47075
0.52227,0.81371,-0.25516,0.48749,3.99191,-0.48884
0.51617,0.79033,-0.33006,-0.16217,2.49336,0.35345
0.49771,0.77366,-0.39207,-0.11103,1.72666,0.33218
0.48121,0.74499,-0.46197,1.22957,0.79363,0.18621
0.48821,0.70344,-0.51654,1.39994,0.4057,-0.16895
0.49071,0.67071,-0.55618,1.11198,0.35157,-0.03455
0.45411,0.66504,-0.59287,-0.42907,-0.35431,0.82556
0.40921,0.67272,-0.61643,-0.97441,-1.12443,1.08036
0.37781,0.68686,-0.62087,-0.95543,-1.52804,1.7453
0.37297,0.71295,-0.59379,-1.08783,-1.55533,2.11984
0.40773,0.74569,-0.52697,-1.34129,-1.08892,1.07355
0.45686,0.76714,-0.45029,-1.24492,-0.2537,-0.6905
0.46571,0.77647,-0.4245,0.16872,0.15605,-1.25049
0.45912,0.76918,-0.44449,0.7302,0.38283,-1.29411
0.46932,0.75493,-0.45805,0.57972,-0.71562,1.20881
0.49013,0.75466,-0.43619,-0.34407,0.23948,1.36334
0.49491,0.70818,-0.50352,0.42744,1.63958,0.93419
0.53534,0.68539,-0.4936,-0.84739,-1.18251,0.49858
0.56485,0.69647,-0.44257,-0.67531,-0.06735,1.38452
0.56033,0.72759,-0.39578,-0.30473,1.65205,0.93048
0.52479,0.78529,-0.32849,0.28408,2.02051,0.62807
0.47361,0.83056,-0.29301,0.55828,1.83533,0.58541
0.44346,0.86014,-0.25198,1.70266,1.07123,-0.36445
0.42957,0.88346,-0.18698,1.59445,0.61976,-0.72808
0.42552,0.89602,-0.12674,0.77543,0.23989,-0.05153
0.4303,0.89969,-0.07334,-0.27457,-0.63616,0.07435
0.45443,0.89071,-0.01043,-0.75545,-0.64059,-0.78226
0.47808,0.8775,0.03777,-1.01752,-0.32395,-1.03546
0.4787,0.8753,0.06836,-0.19682,-0.83978,-0.66299
0.46672,0.88029,0.08508,-0.21187,-0.84889,-0.65555
0.45602,0.88538,0.09014,-0.37912,-1.05717,-0.75244
0.45317,0.88945,0.05924,-0.329,-1.00651,-0.03504
0.44974,0.89312,0.00797,-0.14066,-1.09288,0.05363
0.44477,0.89443,-0.04651,0.0613,-1.00321,0.14528
0.43791,0.89175,-0.11404,0.42815,0.33624,0.42422
0.44632,0.87679,-0.17896,0.5011,0.86605,0.56011
0.48913,0.84475,-0.2171,0.37383,2.94368,-0.73135
0.49405,0.82247,-0.28187,0.33783,3.85542,0.44909
0.44813,0.81598,-0.36518,-0.16648,2.05077,0.65334
0.4256,0.79753,-0.42755,-0.10346,1.30408,0.37291
0.41195,0.77126,-0.48523,0.50933,0.89282,0.39235
0.44052,0.72986,-0.52272,1.26348,0.39803,0.27912
0.4597,0.69712,-0.55019,0.99181,-0.17594,0.14468
0.43124,0.69319,-0.57751,-0.35903,-0.53833,0.73609
0.4004,0.70161,-0.58942,-0.92228,-1.32332,0.93024
0.37954,0.72244,-0.57795,-1.07534,-1.6986,1.88102
0.37715,0.7536,-0.53837,-1.20892,-1.55394,1.85392
0.40474,0.77717,-0.48185,-1.29472,-1.09382,0.83099
0.41892,0.79327,-0.44183,-0.40388,-0.01681,-0.8869
0.41089,0.79804,-0.44079,0.34738,0.10225,-1.14761
0.41638,0.77585,-0.474,1.15155,0.67345,-0.82754
0.42552,0.75948,-0.49206,0.16182,-1.50789,0.87383
0.44686,0.74871,-0.48963,-0.32531,-1.2102,1.84251
0.44737,0.70873,-0.54549,0.75665,3.82109,0.72988
0.46356,0.68997,-0.55592,-1.35059,-1.02692,1.52898
0.47861,0.70872,-0.51831,-0.86186,-0.26443,1.68225
0.49114,0.72922,-0.47645,-0.27508,1.62939,1.1674
0.48555,0.77754,-0.39959,0.47983,1.78701,0.72031
0.46215,0.81665,-0.34567,0.92498,1.80986,0.69711
0.4448,0.83523,-0.32331,2.06039,1.23795,-0.37005
0.45334,0.85787,-0.24195,1.35106,0.35152,-0.89474
0.45243,0.87256,-0.18421,0.76177,0.17257,-0.58287
0.45054,0.88329,-0.12962,0.03768,-0.05541,0.13389
0.45462,0.88621,-0.08906,-0.40862,-0.73713,0.41295
0.47198,0.88104,-0.03148,-0.91792,-0.71518,-0.85137
0.48482,0.87446,0.01581,-0.69768,-0.65496,-0.48681
0.47879,0.87696,0.04113,-0.33841,-0.84681,-0.68162
0.46657,0.88269,0.05617,-0.3562,-0.94544,-0.41511
0.4587,0.88761,0.04157,-0.38373,-1.04858,-0.49729
0.45543,0.89025,-0.00444,-0.20422,-0.96092,-0.07948
0.45373,0.88972,-0.05022,-0.00239,-0.82241,0.08157
0.45418,0.88455,-0.10624,0.0637,-0.61538,0.28121
0.45621,0.87371,-0.16882,0.16562,-0.32214,0.50923
0.46896,0.85446,-0.22353,0.66492,2.69684,-0.02409
0.50481,0.8231,-0.26014,0.56206,3.92901,-1.17143
0.49724,0.80319,-0.32808,0.39054,3.69393,0.07295
0.47133,0.7871,-0.39789,0.13965,1.16478,0.21903
0.47169,0.75462,-0.45612,0.38658,1.20079,0.20627
0.46531,0.72871,-0.50246,0.69827,1.01378,0.34735
0.47495,0.69883,-0.53484,0.76013,0.11008,0.11722
0.48064,0.67824,-0.55585,0.20528,-0.03092,0.19808
0.46458,0.67693,-0.5709,-0.21451,-0.22385,0.42675
0.44982,0.68633,-0.57149,-0.79017,-1.28404,1.03127
0.43696,0.71165,-0.55011,-0.77835,-1.41413,1.43028
0.43395,0.74617,-0.50489,-0.89393,-1.4274,1.66665
0.44777,0.7699,-0.4547,-1.33724,-0.8717,0.24622
0.45819,0.78034,-0.42559,-1.16674,-0.61292,-0.16273
0.45749,0.78236,-0.42262,-0.02803,-0.173,-0.65569
0.45773,0.76924,-0.4458,0.7636,0.31274,-0.62145
0.47199,0.75176,-0.46053,0.61677,-0.72669,0.62564
0.49829,0.73663,-0.45724,-0.16475,1.12663,0.28834
0.50706,0.68598,-0.52184,0.42612,1.55391,1.99471
0.53396,0.66912,-0.51688,-0.74362,-0.34319,1.73009
0.54709,0.68059,-0.48732,-0.82274,0.32591,1.79898
0.54581,0.70722,-0.44935,-0.22942,1.75294,1.18495
0.52601,0.76037,-0.38098,0.11834,1.86308,0.82459
0.50493,0.79678,-0.33193,0.75903,1.43229,0.57986
0.48523,0.82346,-0.29402,1.72485,1.08869,0.04732
0.47809,0.84952,-0.22303,1.48916,0.62779,-0.72823
0.46925,0.8671,-0.16714,1.01546,0.52144,-0.53565
0.46752,0.87609,-0.11785,0.23294,0.08926,0.20885
0.46934,0.88001,-0.07276,-0.40163,-0.55504,0.32612
0.48314,0.87526,-0.02211,-0.81355,-0.82173,-0.59311
0.49758,0.86707,0.02429,-0.97571,-0.58742,-0.91041
0.49889,0.86521,0.05013,-0.64331,-0.74147,-0.48143
0.4884,0.86998,0.06771,-0.37373,-0.95146,-0.60972
0.47744,0.87596,0.06882,-0.33124,-1.0473,-0.50568
0.47477,0.87937,0.03581,-0.14521,-1.01267,-0.29006
0.47511,0.87983,-0.01222,-0.12575,-0.95406,-0.1423
0.47647,0.87693,-0.06297,-0.08329,-0.59899,-0.04634
0.47952,0.8694,-0.11914,-0.06129,-0.27052,0.30724
0.47816,0.85897,-0.18311,0.27155,0.31227,0.56637
0.49079,0.83766,-0.23966,0.67072,2.36348,0.59787
0.52686,0.80415,-0.27523,0.68705,4.15734,-0.98046
0.51563,0.78233,-0.3494,0.05105,2.05363,0.57839
0.49605,0.757,-0.42529,0.08357,1.28035,0.12475
0.48278,0.73034,-0.48324,0.74148,1.10218,0.31204
0.48665,0.69651,-0.52729,1.08418,0.848,0.28094
0.49151,0.66695,-0.55999,0.62446,0.23365,0.35584
0.4762,0.65609,-0.58547,-0.21809,-0.25576,0.66892
0.44894,0.66021,-0.60213,-0.69774,-0.50489,0.71323
0.42659,0.67453,-0.60252,-0.91261,-1.61734,1.52429
0.41236,0.70831,-0.57294,-0.89838,-1.65112,1.4947
0.4269,0.74439,-0.51346,-1.0994,-1.1715,1.09031
0.44752,0.76316,-0.46617,-0.6953,-0.45461,-0.32012
0.45932,0.76621,-0.44938,-0.14153,-0.2793,-0.61669
0.46842,0.75651,-0.45636,0.58135,0.2322,-0.84668
0.47584,0.74096,-0.47386,0.54264,-0.12532,0.51784
0.49702,0.73189,-0.46616,0.52146,-0.11624,0.51013
0.50879,0.67691,-0.5319,1.02809,2.54808,0.78185
0.53651,0.65913,-0.52698,-1.67712,-1.9481,-0.5054
0.55519,0.66533,-0.49909,-1.38353,-1.15796,1.05085
0.55858,0.69309,-0.45565,-0.40439,1.26942,1.16274
0.54074,0.74943,-0.38202,0.09768,2.3173,0.74741
0.51008,0.79164,-0.33634,0.55622,1.78287,0.65174
0.48707,0.8157,-0.31208,1.31658,1.33135,0.07862
0.4823,0.84093,-0.24538,1.53817,0.66479,-0.51009
0.46081,0.86422,-0.20192,1.04288,0.45811,-0.6623
0.45346,0.87701,-0.15877,0.81952,0.22932,0.05365
0.44729,0.88779,-0.10845,-0.04618,-0.35272,0.37543
0.45688,0.88759,-0.05859,-0.49283,-0.8154,-0.13532
0.47614,0.87934,-0.00595,-0.45211,-0.6119,-0.61404
0.48439,0.87397,0.03909,-0.22138,-0.66645,-0.4844
0.48465,0.87247,0.0624,-0.28618,-0.90717,-0.96735
0.49024,0.86981,0.05545,-0.52335,-0.90054,-0.37346
0.49652,0.86777,0.02038,-0.5652,-0.90514,-0.14666
0.49504,0.86835,-0.02982,-0.33356,-0.97049,-0.03178
0.49185,0.86647,-0.0854,-0.22899,-0.63597,-0.3468
0.48494,0.86037,-0.15682,0.05031,-0.23456,0.35398
0.47201,0.84957,-0.23542,0.30565,0.74754,0.41767
0.48214,0.82035,-0.30749,1.16143,3.8585,0.95845
0.51886,0.78369,-0.34146,0.28176,2.89624,-1.28815
0.52011,0.74879,-0.41084,0.02874,1.64354,0.17654
0.50174,0.7165,-0.48463,0.61728,1.20723,0.60901
0.50278,0.6768,-0.53772,1.08601,1.09741,0.1904
0.51558,0.63414,-0.57623,0.88382,0.62346,0.22865
0.51135,0.60752,-0.60781,0.14519,0.09741,0.39717
0.48761,0.60367,-0.63073,-0.72546,-0.4848,0.78941
0.47154,0.61422,-0.63275,-1.16348,-1.19329,0.95822
0.46907,0.64088,-0.60765,-1.0448,-1.50099,1.37411
0.47484,0.68514,-0.55237,-1.27305,-1.11717,1.3459
0.49014,0.72372,-0.48579,-1.26899,-0.78939,0.54489
0.48783,0.74506,-0.45487,-0.89075,-0.32275,-0.14415
0.47849,0.74602,-0.46313,0.32327,0.17845,-0.7193
0.48226,0.72493,-0.49182,1.06312,0.13343,-0.63437
0.50109,0.70662,-0.49959,0.84272,-0.4162,0.47002
0.52879,0.70762,-0.46866,-0.68954,-0.02945,1.35459
0.54301,0.6881,-0.48129,-0.41325,1.10303,-0.01643
0.56904,0.65286,-0.49996,0.22251,2.0296,0.16715
0.58885,0.67316,-0.44733,-0.61801,0.27638,1.38244
0.5828,0.69699,-0.41777,-0.61196,0.25255,1.35288
0.56511,0.74033,-0.36408,0.22157,1.66677,0.81214
0.53355,0.7832,-0.31923,0.77089,1.66275,0.58336
0.50323,0.81193,-0.29585,1.68582,1.26057,0.05076
0.49095,0.84006,-0.23078,1.53553,0.6663,-0.59465
0.47362,0.86301,-0.17575,0.80866,0.49454,-0.71431
0.46052,0.87828,-0.12859,0.71694,0.34117,-0.07275
0.45307,0.88754,-0.0836,-0.01611,-0.47486,0.65713
0.46164,0.88672,-0.02439,-0.631,-0.81634,-0.5986
0.47069,0.882,0.0226,-0.76217,-0.44627,-0.92604
0.46205,0.88545,0.04988,-0.11099,-0.73179,-0.25428
0.44549,0.89316,0.06154,-0.27299,-0.9839,-0.60185
0.43186,0.90053,0.05029,-0.30208,-1.10163,-0.54126
0.42668,0.90437,0.00699,-0.34182,-1.12256,-0.34749
0.42053,0.90613,-0.04556,-0.21392,-1.00075,-0.17078
0.41875,0.9017,-0.10753,-0.05004,-0.8611,-0.04181
0.41527,0.8913,-0.18202,0.37382,0.12975,0.30954
0.42694,0.86714,-0.25647,0.6274,1.88376,0.51014
0.46674,0.83365,-0.29525,0.7818,3.87158,-0.45218
0.47999,0.80276,-0.35381,-0.05912,2.3033,0.21898
0.46797,0.77493,-0.42483,-0.06123,1.5316,0.38384
0.44507,0.74989,-0.48946,0.84031,1.14004,0.37604
0.45174,0.71073,-0.53925,1.12625,0.8072,0.10166
0.46227,0.67853,-0.57087,0.57777,0.22617,0.33656
0.4518,0.664,-0.5958,-0.20414,-0.21257,0.60581
0.4262,0.66649,-0.61167,-0.94561,-0.90179,0.78561
0.40802,0.68044,-0.60871,-0.89392,-1.63751,1.18586
0.39715,0.7118,-0.57932,-1.05077,-1.41868,1.68474
0.40123,0.75233,-0.52251,-1.19805,-1.07355,1.31584
0.41624,0.78175,-0.46434,-1.16352,-0.65261,0.29542
0.4156,0.79733,-0.43764,-0.5914,-0.05859,-0.6604
0.40906,0.79107,-0.45483,0.7241,0.49333,-1.1225
0.41832,0.76051,-0.49662,0.99359,-0.18362,0.3743
0.44834,0.74555,-0.49309,-0.00899,-1.12199,1.74127
0.48205,0.73498,-0.47688,-0.52107,0.41307,1.54452
0.49593,0.69257,-0.52383,-0.02814,2.2042,1.13947
0.53125,0.69587,-0.48325,-1.22142,-0.85695,-0.38017
0.52088,0.71491,-0.46645,-0.5134,0.29246,1.29866
0.5048,0.75044,-0.42662,0.40967,1.75359,0.77376
0.4808,0.79298,-0.37418,0.74543,1.89602,0.6146
0.45369,0.82106,-0.34643,1.13026,1.79504,0.33133
0.43864,0.85149,-0.28731,1.3419,0.59727,-0.68112
0.42246,0.87623,-0.23181,1.35807,0.57253,-0.73662
0.4112,0.8944,-0.17596,0.70132,0.45817,-0.04642
0.40061,0.90782,-0.12396,-0.20089,-0.4496,0.40356
0.40723,0.91039,-0.07306,-0.44804,-0.85139,-0.12326
0.42234,0.90622,-0.01949,-0.78666,-0.8301,-0.87562
0.42176,0.90664,0.01069,-0.09231,-0.79421,-0.45363
0.40602,0.91339,0.02928,-0.09485,-0.85627,-0.70442
0.39211,0.91948,0.02806,-0.23908,-1.03634,-0.61199
0.38726,0.92191,-0.00952,-0.32386,-1.06222,-0.202
0.38039,0.92295,-0.05882,-0.26073,-1.07297,0.06832
0.37332,0.9207,-0.11376,-0.09634,-0.96916,-0.03341
0.36475,0.91285,-0.18342,0.32144,-0.38168,0.21051
0.36507,0.89378,-0.26052,0.54799,0.48084,0.44073
0.39356,0.8636,-0.3151,0.91276,2.7256,0.64866
0.42199,0.83494,-0.35326,0.46359,3.49314,-0.5041
0.41452,0.8027,-0.42877,-0.13131,1.91065,0.3912
0.39957,0.77301,-0.49274,0.24389,1.34059,0.50052
0.39138,0.73926,-0.54801,0.92874,1.05693,0.26659
0.40209,0.70598,-0.58303,1.09361,0.59177,0.3458
0.40115,0.68871,-0.60395,-0.05281,-0.12576,0.52761
0.38429,0.68909,-0.61439,-0.46298,-0.38465,0.71995
0.36763,0.69888,-0.61352,-0.95494,-0.97477,0.74037
0.35724,0.71939,-0.5957,-0.6473,-1.60319,1.45486
0.35508,0.76105,-0.54288,-0.83343,-1.36011,1.74609
0.37153,0.79801,-0.4745,-1.09696,-0.69264,0.35943
0.37484,0.81305,-0.44545,-0.60533,-0.14109,-0.62381
0.37462,0.80483,-0.46033,0.4897,0.35646,-0.97068
0.38311,0.7772,-0.49917,0.66641,-0.12623,0.09039
0.40695,0.75631,-0.51223,0.07506,-1.1259,1.74307
0.44398,0.74871,-0.49226,-0.11552,1.03627,0.1233
0.44692,0.70092,-0.55585,-0.10675,1.0653,1.57106
0.47861,0.69908,-0.53124,-1.14565,-1.1793,-0.05534
0.48863,0.71654,-0.4978,-0.49615,0.35545,1.31996
0.47891,0.75111,-0.45438,-0.14964,1.41167,1.07552
0.45491,0.79786,-0.39555,0.59625,2.01619,0.61009
0.42876,0.82478,-0.36863,1.32952,1.54721,0.19822
0.4151,0.8543,-0.31283,1.80925,0.77844,-0.22349
0.39559,0.88182,-0.25669,1.00803,0.66591,-0.73226
0.38448,0.90116,-0.20018,0.82206,0.62768,-0.06836
0.37248,0.91639,-0.14655,0.24739,-0.15315,0.43836
0.37179,0.92335,-0.09587,-0.38148,-0.80435,-0.17993
0.38089,0.9234,-0.04732,-0.57848,-0.68089,-0.65604
0.38204,0.92412,-0.00629,-0.21277,-0.82257,-0.45285
0.37395,0.92726,0.01855,-0.00507,-0.89772,-0.53719
0.3704,0.92842,0.02883,-0.34097,-1.06502,-0.34703
0.37094,0.9286,0.00933,-0.31759,-1.05852,-0.37133
0.36752,0.92922,-0.03828,-0.21048,-1.06509,-0.16707
0.36189,0.92793,-0.08926,0.11245,-0.86115,-0.07102
0.35918,0.92158,-0.14719,0.33706,-0.5245,0.17383
0.3562,0.90841,-0.21884,0.41667,-0.16968,0.41605
0.37456,0.88247,-0.2845,0.82759,3.19233,0.39734
0.41659,0.85275,-0.31505,0.67632,3.85548,-0.71336
0.41549,0.82261,-0.38817,0.26691,3.35598,-0.36999
0.4043,0.79363,-0.45463,0.34243,1.32782,0.52054
0.38762,0.76281,-0.51755,0.79221,1.06118,0.47503
0.39677,0.72428,-0.5639,1.15785,0.97695,0.38019
0.40595,0.69738,-0.59065,0.33917,0.06075,0.47883
0.39002,0.68825,-0.61171,-0.0532,-0.21201,0.7513
0.36337,0.69145,-0.62438,-0.50128,-0.46948,0.89925
0.33939,0.70552,-0.62213,-0.97518,-1.65848,1.41805
0.32872,0.73683,-0.59078,-0.99658,-1.60303,1.76438
0.34566,0.77309,-0.53183,-1.10737,-1.24949,1.35211
0.37284,0.79453,-0.47928,-1.09279,-0.7611,0.20776
0.38415,0.79885,-0.46288,-0.17113,-0.20719,-0.64729
0.39493,0.78294,-0.48065,1.11631,0.44893,-0.54275
0.41604,0.75616,-0.5051,0.23696,-0.85728,1.21584
0.44218,0.74997,-0.49195,-0.3255,-1.19046,1.5137
0.46773,0.72873,-0.50018,0.2984,3.27603,-2.8799
0.47324,0.68787,-0.55034,-0.65743,0.24558,1.99211
0.49377,0.69872,-0.51766,-0.90793,-0.78902,1.14463
0.49674,0.71717,-0.48878,-0.22251,0.74686,0.97993
0.48429,0.75069,-0.44935,0.49665,1.71549,0.73905
0.47109,0.78522,-0.40187,1.10092,1.61169,0.60314
0.45642,0.81613,-0.35441,1.87413,1.09615,0.22738
0.44062,0.84984,-0.28919,1.44578,0.52237,-0.46995
0.42255,0.8771,-0.22836,0.86705,0.57552,-0.54871
0.41043,0.89605,-0.16921,0.41688,0.50366,-0.06576
0.39745,0.90996,-0.1183,-0.11096,-0.2358,0.54095
0.40069,0.91339,-0.07187,-0.74197,-0.80892,-0.47988
0.41454,0.9096,-0.02783,-0.79181,-0.62775,-0.64656
0.41318,0.91065,-0.00018,-0.10138,-0.83986,-0.23541
0.40115,0.91591,0.01288,-0.08391,-0.9652,-0.77839
0.39255,0.9197,0.00667,-0.22738,-1.12073,-0.51523
0.39073,0.92011,-0.02689,-0.26481,-1.05736,-0.12147
0.38669,0.91935,-0.07254,-0.25577,-0.99582,-0.0452
0.38151,0.91535,-0.12872,-0.01597,-0.80329,0.13871
0.37204,0.90649,-0.19962,0.28984,-0.11638,0.35162
0.37567,0.88561,-0.27304,0.6356,1.51345,0.56522
0.40397,0.85743,-0.31877,0.98035,3.42292,0.28361
0.41785,0.82787,-0.3742,0.16398,2.95395,-0.07059
0.4081,0.7985,-0.44255,0.01931,2.08276,0.31838
0.38749,0.76926,-0.50802,0.75388,0.96758,0.27645
0.37033,0.73778,-0.56438,1.20318,0.68019,0.25022
0.35877,0.71559,-0.59935,0.80882,0.21549,0.38402
0.3314,0.71184,-0.61924,0.00179,-0.13402,0.74503
0.2938,0.71972,-0.62903,-0.62214,-0.98516,1.13417
0.25513,0.73486,-0.6284,-0.61127,-1.23209,1.18799
0.21958,0.75831,-0.61381,-0.53064,-1.38558,1.27976
0.20539,0.79354,-0.5728,-0.69077,-0.97441,1.05873
0.21622,0.82966,-0.51469,-0.75229,-0.89073,0.37851
0.21107,0.84114,-0.49793,-0.63247,-0.76759,-0.54487
0.21315,0.83095,-0.51389,-0.03586,0.02926,-0.44309
0.18973,0.81722,-0.54419,-0.22864,-0.21139,-0.47201
0.15239,0.79824,-0.58273,0.06761,-0.66412,0.27586
0.1521,0.77891,-0.60841,0.42401,1.79592,-2.49283
0.17812,0.77297,-0.60893,0.64532,1.06183,1.91253
0.19921,0.77133,-0.60444,0.23014,0.47685,2.08688
0.21335,0.79193,-0.57212,0.1827,0.99088,1.47985
0.23756,0.82727,-0.50911,0.26831,1.3794,0.86555
0.27244,0.86311,-0.42522,0.82465,1.42684,-0.03921
0.29215,0.88315,-0.367,0.67602,1.12927,0.03483
0.30616,0.9062,-0.29164,0.43927,0.74852,0.10957
0.32216,0.9201,-0.22276,0.13948,0.54873,-0.15238
0.33796,0.92675,-0.16405,0.18271,0.01937,-0.26643
0.34257,0.93278,-0.11207,-0.30446,-0.64353,-0.2549
0.34537,0.93615,-0.06585,-0.31966,-0.92333,-0.11342
0.34981,0.9364,-0.02798,-0.02713,-0.70739,-0.37604
0.35667,0.93422,-0.00192,-0.11915,-0.9451,-0.83057
0.35926,0.93323,-0.00265,-0.24752,-1.11423,-0.49797
0.35541,0.93451,-0.0188,-0.0476,-1.01546,-0.18234
0.35454,0.93382,-0.04764,-0.13556,-0.83232,-0.33469
0.35306,0.93123,-0.09028,-0.40779,-0.46043,-0.35961
0.34267,0.92887,-0.14059,-0.05883,-0.23313,0.47293
0.31768,0.92682,-0.20018,0.60244,0.67432,0.70877
0.29455,0.91802,-0.26546,1.15407,2.60716,1.09534
0.29561,0.89787,-0.32624,0.06303,1.56693,-0.97747
0.24946,0.87439,-0.41619,-0.24488,1.16387,-0.11078
0.18193,0.85882,-0.47887,0.31546,1.32142,-0.11337
0.15335,0.82799,-0.53936,0.8364,1.56687,0.22902
0.13155,0.79361,-0.59404,0.97564,1.20481,0.56085
0.08632,0.76889,-0.63352,0.6173,0.42233,0.95433
0.03335,0.75992,-0.64916,0.1489,-0.19699,0.86272
-0.00829,0.76532,-0.64359,0.03651,-0.43762,0.8717
-0.03501,0.78071,-0.62391,-0.15747,-0.8052,1.07235
-0.03395,0.80346,-0.59438,-0.24541,-0.7582,0.89033
-0.00262,0.82986,-0.55796,-0.32064,-0.73555,0.62385
0.04259,0.84931,-0.52616,-0.37273,-0.73934,0.36603
0.08629,0.85783,-0.50663,0.01582,-0.46462,0.2807
0.11387,0.85841,-0.50016,-0.05426,-0.43583,0.1175
0.11353,0.84635,-0.52038,-0.1003,-0.45101,-0.19325
0.07883,0.82382,-0.56133,0.05353,-0.22774,0.99706
0.0802,0.80642,-0.58587,0.11231,-0.40269,1.08721
0.07987,0.79931,-0.59559,0.22784,-0.64245,0.79848
0.0884,0.81312,-0.57533,0.8877,0.03937,1.38677
0.12903,0.83322,-0.53767,1.08207,0.71411,1.35754
0.22546,0.85098,-0.47433,1.03693,1.58197,0.99348
0.30878,0.86597,-0.39337,-0.01555,1.44329,-0.38962
0.3537,0.87969,-0.31785,-0.06021,1.25015,0.07681
0.37788,0.89087,-0.25208,0.06214,1.24359,0.53666
0.39154,0.90149,-0.1844,-0.05452,0.60773,-0.43814
0.39906,0.90886,-0.12132,-0.06533,0.57413,-0.30324
0.40323,0.91182,-0.07733,0.11302,0.21968,-0.00747
0.403,0.91472,-0.02948,0.29159,-0.25345,-0.32987
0.39521,0.91854,0.0084,0.25742,-0.63163,-0.42503
0.38147,0.92339,0.04254,0.20755,-0.77509,-0.47496
0.37299,0.92583,0.06085,0.29257,-1.08824,-0.70667
0.37198,0.92681,0.05133,0.3222,-1.18145,-0.66014
0.37524,0.9267,0.02028,-0.22766,-0.81218,-0.45364
0.38451,0.92286,-0.0217,-0.46139,-0.65695,-0.45319
0.39337,0.91643,-0.07353,-0.42681,-0.59311,0.03661
0.39567,0.90764,-0.14012,0.12621,0.05567,0.40103
0.41099,0.887,-0.21048,0.61898,1.3187,0.67494
0.43421,0.85209,-0.29222,0.61674,2.24186,0.98613
0.46189,0.81473,-0.35052,0.0413,2.35121,-1.50919
0.46712,0.78119,-0.41416,-0.14136,1.99269,0.27129
0.45775,0.75146,-0.47514,-0.09587,1.62714,0.45394
0.45655,0.71503,-0.52941,0.85703,1.01463,0.37227
0.46232,0.67119,-0.57944,1.01404,0.34323,0.43415
0.44942,0.64468,-0.61839,0.74124,0.09598,0.39854
0.41729,0.64119,-0.644,-0.72177,-0.42515,0.78623
0.39318,0.64635,-0.65394,-0.9954,-0.85219,0.89788
0.39339,0.66156,-0.63842,-0.90428,-1.08007,1.10042
0.40999,0.69053,-0.59588,-0.96547,-1.11817,1.22784
0.43661,0.72146,-0.53746,-0.98968,-1.07032,0.77068
0.46302,0.74307,-0.48317,-0.47349,-0.73593,0.23947
0.47627,0.76059,-0.44121,0.39915,-0.33897,-0.34132
0.48474,0.76031,-0.43238,0.79413,0.13857,-0.25281
0.49901,0.74832,-0.43704,0.23326,-0.45544,0.57582
0.52466,0.73535,-0.42893,-0.2437,-0.73074,0.46067
0.55005,0.72335,-0.41739,-0.16867,3.15567,-1.36951
0.50537,0.68628,-0.52307,-0.12399,3.19273,-1.26382
0.53375,0.69376,-0.48354,-0.88574,-0.86049,1.13257
0.54857,0.7049,-0.44965,-0.20984,0.74094,1.08878
0.54493,0.73001,-0.41247,-0.2062,0.71582,1.0516
0.53004,0.7656,-0.36456,1.20775,1.82513,0.24473
0.51265,0.79681,-0.31982,1.07346,0.82596,-0.2122
0.48976,0.82836,-0.27192,0.88965,0.62774,-0.24818
0.46929,0.85183,-0.23266,0.7275,0.58939,-0.21993
0.45072,0.87177,-0.192,0.56845,0.23305,-0.1862
0.43925,0.8854,-0.15205,0.41289,-0.04023,-0.10904
0.43978,0.89132,-0.11017,-0.46517,-0.36167,-0.32341
0.44256,0.8932,-0.0795,-0.69073,-0.57974,-0.28538
0.44785,0.8915,-0.06817,-0.2069,-0.93683,-0.00205
0.45253,0.8896,-0.06176,-0.16189,-0.77751,-0.35079
0.46083,0.88495,-0.06692,-0.30179,-0.92394,-0.60929
0.47084,0.87723,-0.09363,-0.55756,-1.00734,-0.22256
0.47544,0.87047,-0.12739,-0.51975,-1.06364,0.19877
0.47522,0.86136,-0.17946,-0.27713,-0.73559,0.15177
0.47442,0.84768,-0.2374,-0.25599,-0.43893,-0.113
0.46697,0.83189,-0.29982,0.36143,0.32262,0.65236
0.46462,0.80747,-0.36346,0.65938,0.95135,0.85492
0.5149,0.75475,-0.40648,0.7171,4.74794,1.12865
0.55003,0.72283,-0.4183,-0.65854,1.72572,0.13285
0.52497,0.69381,-0.49298,-0.41327,0.83573,0.36595
0.5106,0.65906,-0.55219,0.27411,0.8672,0.11155
0.53551,0.62413,-0.56893,0.49431,0.76825,0.69401
0.57702,0.58697,-0.56789,0.44852,0.28475,0.83575
0.61242,0.54794,-0.56982,-0.33727,-0.19316,0.66215
0.61563,0.54401,-0.57013,-1.08903,-0.34058,0.72142
0.61625,0.55706,-0.5567,-1.27542,-0.55782,0.68346
0.62467,0.57431,-0.5291,-1.27643,-0.87509,0.60174
0.63606,0.59312,-0.49359,-1.27704,-0.91282,0.64937
0.65149,0.60624,-0.4561,-1.22365,-0.7306,0.46147
0.6656,0.61435,-0.42373,-1.12007,-0.6961,0.27255
0.67613,0.61536,-0.40518,-0.56748,-0.49921,0.26341
0.69073,0.61179,-0.38548,0.04684,-0.62605,0.43698
0.72123,0.6,-0.34615,0.20809,-0.56016,0.81617
0.74574,0.57665,-0.33366,-0.14423,0.00071,1.0032
0.77591,0.54102,-0.32443,0.27174,3.21444,1.36541
0.85209,0.47031,-0.22964,0.34972,5.70679,-2.42929
0.856,0.47159,-0.21181,-1.23092,-0.2431,1.33212
0.83079,0.50547,-0.233,-0.82032,-0.59771,1.58497
0.82223,0.52698,-0.21499,-0.28752,0.48099,1.22899
0.84108,0.51607,-0.16201,1.23398,1.6859,0.59181
0.85697,0.50509,-0.10234,0.32717,0.30282,-0.58702
0.84857,0.5284,-0.02646,-0.31198,0.48211,-0.83398
0.83325,0.55269,0.0144,-0.54066,0.55226,-0.63355
0.81638,0.57657,0.03283,-0.63349,-0.07915,0.0225
0.79792,0.60082,0.04823,-0.64334,-0.28557,0.06354
0.78054,0.62173,0.06478,-0.63634,-0.53257,0.10043
0.76717,0.63673,0.07755,-0.70842,-0.7089,-0.06225
0.7624,0.64233,0.07841,-0.72581,-0.59901,-0.0172
0.76309,0.64229,0.07167,-0.7391,-0.49178,0.0439
0.76474,0.64211,0.05336,-0.63886,-0.46389,0.02063
0.7681,0.64023,0.01038,-0.49428,-0.4736,0.09598
0.76682,0.64058,-0.04039,-0.34302,-0.53049,0.16507
0.76103,0.6432,-0.08436,-0.0474,-0.1121,-0.09636
0.75548,0.64641,-0.10676,-0.10277,0.21687,-0.26618
0.75416,0.65016,-0.09239,-0.11875,0.6898,-0.62076
0.76526,0.63831,-0.08317,0.43609,1.53645,-1.14598
0.78694,0.61119,-0.08464,0.03409,0.7986,-1.14851
0.79514,0.60086,-0.08193,0.08506,-0.22988,-0.91585
0.78545,0.61384,-0.07913,-0.07705,0.45343,-0.86934
0.76751,0.63733,-0.06865,-0.23529,0.82336,-0.97354
0.74621,0.66331,-0.05637,-0.29914,0.71605,-0.69522
0.72178,0.69059,-0.04577,-0.25146,0.33509,-0.50557
0.69441,0.71879,-0.03345,-0.19429,0.15725,-0.443
0.66298,0.74832,-0.0213,-0.2809,-0.31749,-0.32826
0.62936,0.77707,-0.00704,-0.20457,-0.43199,-0.29399
0.59716,0.80201,0.01259,-0.23612,-0.57109,-0.10071
0.56661,0.823,0.04014,-0.34341,-0.76872,0.05502
0.53611,0.84106,0.07208,-0.53948,-0.8283,0.21008
0.50514,0.85626,0.10782,-0.55322,-0.83582,0.16987
0.47269,0.87006,0.13978,-0.58073,-0.95139,0.00814
0.43891,0.88377,0.16213,-0.58744,-0.97828,-0.02569
0.39637,0.89825,0.18978,-0.37084,-0.87105,0.25854
0.34055,0.91097,0.23268,-0.3017,-0.14945,-0.77494
0.28421,0.92204,0.26275,0.42024,0.41083,0.40853
0.23811,0.93037,0.27873,1.03717,1.90073,-0.09699
0.22523,0.93856,0.26146,1.4264,0.27784,-0.55801
0.198,0.94254,0.26907,1.12617,0.15315,-0.09184
0.17729,0.94309,0.2813,1.54831,0.66369,-0.23186
0.16522,0.93542,0.31251,1.34431,0.87146,-0.52168
0.15559,0.92259,0.35298,1.04607,0.96953,-0.71619
0.14938,0.90573,0.39662,1.18302,0.93567,-0.60544
0.1516,0.87971,0.45067,0.95178,0.82543,-0.65758
0.1419,0.85224,0.50351,0.20829,0.64559,-0.81621
0.12657,0.829,0.54472,-0.30867,0.09915,-0.97674
0.11852,0.81108,0.57278,0.39037,-0.457,-1.20772
0.09747,0.79864,0.59384,0.68633,-1.11294,-1.32993
0.07689,0.78547,0.61408,0.62097,-1.21836,-1.3588
0.07299,0.77726,0.6249,0.57285,-0.52806,-0.69126
0.07764,0.77526,0.62683,0.2545,-0.47498,-0.98062
0.116,0.78218,0.61214,-0.01045,-0.57479,-1.47716
0.16733,0.80154,0.57403,-0.29793,-0.5476,-0.79749
0.18958,0.82822,0.52733,-0.18118,-0.45139,-0.35166
0.19782,0.86168,0.46729,0.09907,-0.02136,-0.11328
0.21545,0.89175,0.39793,0.27482,0.19737,0.0297
0.25721,0.91073,0.3231,0.6307,1.43406,-0.81724
0.30059,0.92037,0.25009,0.66332,1.81329,-0.59949
0.32562,0.92903,0.17564,0.779,2.09357,-0.53709
0.35722,0.92926,0.0941,1.28988,1.24959,-0.41518
0.39865,0.91697,0.0147,1.17128,1.23207,-0.39173
0.43009,0.90082,-0.05941,0.9142,1.1942,-0.35547
0.45043,0.88443,-0.12199,0.1374,0.41983,-0.12524
0.45948,0.87197,-0.1689,-0.23151,-0.02323,0.00198
0.46086,0.86582,-0.19483,-0.46035,-0.45436,0.21093
0.45639,0.86879,-0.19211,-1.20274,-1.32951,0.70404
0.44566,0.88033,-0.16248,-1.34301,-1.36977,0.6243
0.43019,0.89544,-0.11447,-1.087,-1.44906,0.78525
0.41544,0.90761,-0.06025,-0.74929,-0.80527,0.09103
0.40209,0.91538,-0.01936,-0.05663,-0.52314,-0.58199
0.39508,0.91863,0.00077,0.77829,-0.31198,-0.97141
0.40469,0.91444,-0.002,0.8532,-0.44203,-0.14976
0.41828,0.90828,0.00743,0.43594,-0.53201,0.5929
0.43539,0.90023,-0.0028,-0.36587,0.50569,0.74204
0.44282,0.89656,-0.00857,-0.90022,-0.44529,-0.90162
0.4347,0.90054,0.00617,-0.74751,-0.41171,0.22215
0.40891,0.91153,0.04346,-0.05518,0.73328,0.31242
0.36325,0.92846,0.07741,0.45598,0.87336,-0.33075
0.29907,0.94694,0.11766,0.48685,0.64405,0.03596
0.22636,0.96282,0.1474,1.40435,1.58035,0.04931
0.17635,0.96567,0.1907,2.50521,1.22786,-0.48356
0.1491,0.9569,0.24916,2.12993,0.52779,-0.74662
0.15218,0.93419,0.32265,0.95633,0.1801,-0.62499
0.16359,0.90278,0.39775,-0.14861,-0.11692,-0.57316
0.15646,0.87902,0.45036,-0.67345,-0.49755,-0.63496
0.13131,0.86802,0.47883,-0.24517,-0.96241,-1.17727
0.10997,0.85861,0.50066,0.52371,-1.09047,-0.82087
0.10488,0.84851,0.51865,0.48986,-0.8802,-0.9017
0.12601,0.83955,0.52844,0.11105,-0.84944,-1.21735
0.1578,0.84459,0.5116,-0.20034,-0.67235,-0.7434
0.17242,0.86265,0.47548,0.00324,-0.83865,-0.32275
0.1846,0.8842,0.42905,0.17503,-0.90565,-0.31372
0.21213,0.90299,0.37361,0.55349,-0.17159,-0.13356
0.26051,0.91058,0.32087,0.54767,0.12362,-0.09513
0.3218,0.9073,0.27061,0.22215,1.10701,-0.79179
0.37563,0.90412,0.20358,0.35908,3.31297,-0.0357
0.38323,0.9135,0.13647,0.42028,3.65414,-0.27742
0.38761,0.91983,0.06046,0.91067,1.37729,-0.13388
0.41644,0.90912,-0.00796,1.47893,0.94792,-0.37662
0.46252,0.88459,-0.05968,1.44434,0.76101,-0.62638
0.48979,0.86597,-0.10093,0.35384,0.09838,-0.05048
0.49998,0.85622,-0.12998,-0.44853,-0.2878,0.22964
0.50084,0.8535,-0.14381,-0.95093,-0.7296,0.34366
0.49652,0.85785,-0.13243,-1.37131,-1.25992,0.55371
0.48653,0.86851,-0.0947,-1.25887,-1.61791,0.89998
0.46837,0.88287,-0.03402,-1.17945,-1.47115,1.02941
0.44975,0.89252,0.03324,-1.09726,-0.99059,0.13723
0.43324,0.89855,0.06997,0.18507,-0.11255,-1.28826
0.42448,0.90322,0.06311,0.74369,-0.00174,-1.57295
0.43134,0.9014,0.03753,1.17329,0.01901,-1.24157
0.43798,0.89746,0.05204,-0.50004,-1.40484,1.12701
0.44761,0.89115,0.074,-0.7466,0.64417,-1.28988
0.45325,0.89116,-0.01954,0.24515,1.9516,1.88165
0.44132,0.89715,0.01827,-1.10543,-0.86535,0.22442
0.41942,0.90725,0.03097,-1.23772,-0.98454,-0.28836
0.37723,0.92297,0.07624,0.18724,1.1974,0.22161
0.31512,0.94149,0.11946,1.05283,1.54133,0.14497
0.268,0.95369,0.1365,1.8252,1.18271,0.05076
0.23234,0.95309,0.19392,2.39404,0.85947,-0.51234
0.19439,0.94737,0.25432,1.5297,0.53066,-1.08121
0.19068,0.92672,0.32375,1.23814,0.32598,-0.96999
0.19797,0.89617,0.39705,-0.19489,0.12418,-0.94158
0.20453,0.866,0.45627,-0.94156,-0.22424,-0.43633
0.19352,0.84782,0.49368,-0.99481,-0.48305,-0.64294
0.16742,0.83915,0.51746,0.67518,-1.08964,-0.78303
0.14929,0.83242,0.53363,0.48365,-1.03597,-0.88844
0.15243,0.82616,0.54239,0.34894,-1.07211,-1.12645
0.17327,0.82855,0.53241,-0.04217,-0.9488,-0.83564
0.18917,0.84482,0.50046,0.11794,-0.77018,-0.35635
0.20225,0.86571,0.45784,0.08605,-0.78282,-0.64238
0.23292,0.88475,0.40365,-0.1471,-0.56795,-0.8597
0.28116,0.89285,0.35177,0.57364,0.05795,-0.07692
0.32927,0.89741,0.29363,0.56126,0.92936,-0.12295
0.394,0.88711,0.24036,1.22679,4.2719,0.61757
0.42153,0.88885,0.17953,0.32374,2.73313,-0.93889
0.42491,0.90159,0.0811,0.22423,1.10102,-0.57523
0.43092,0.90228,0.01324,0.34868,1.03017,-0.1721
0.45945,0.888,-0.01846,1.07269,0.55163,-0.25451
0.50299,0.86262,-0.05361,1.02915,0.57702,-0.21935
0.52134,0.84904,-0.08557,-0.07041,-0.48203,0.20156
0.51392,0.85132,-0.10547,-1.13742,-0.97187,0.42436
0.50044,0.85986,-0.10086,-1.3257,-1.30522,0.47569
0.48169,0.87459,-0.05529,-1.19343,-1.77894,1.22603
0.46017,0.88754,0.02225,-1.14765,-1.12283,0.13107
0.44008,0.89361,0.0881,-1.07703,-0.74597,-0.77488
0.42584,0.89959,0.09684,-0.75839,-0.39756,-1.24541
0.42337,0.90321,0.07035,1.1958,0.11795,-0.51316
0.42785,0.90247,0.04975,0.8351,-0.50815,0.72944
0.42514,0.90255,0.06807,0.1984,-1.24855,1.09523
0.43269,0.89924,0.06423,0.70136,3.06014,-2.30361
0.44968,0.8928,0.02595,0.00177,1.68114,2.01601
0.4325,0.89867,0.07295,-0.6046,0.09938,1.14271
0.3973,0.91307,0.09184,-0.34645,0.91791,0.45756
0.34203,0.929,0.14126,0.07503,1.2936,0.37366
0.2793,0.94353,0.17808,0.556,1.64505,0.33213
0.24586,0.94804,0.20188,2.64365,0.90566,-0.33762
0.20963,0.93995,0.26931,2.37202,0.5727,-0.86441
0.18731,0.92235,0.33787,0.80984,0.55102,-1.3468
0.19505,0.8935,0.40445,0.54669,0.10278,-0.35907
0.20483,0.87157,0.44539,-0.31704,-0.29726,-0.24997
0.17174,0.8604,0.47978,-0.66272,-0.95842,-1.28692
0.13747,0.8537,0.50227,0.28584,-1.10458,-0.73066
0.11893,0.84709,0.51795,0.4697,-1.0599,-0.92604
0.12248,0.83879,0.53048,0.12247,-1.1266,-0.95671
0.14149,0.84109,0.52203,-0.0941,-0.96147,-0.75217
0.15685,0.85914,0.48708,-0.15179,-0.86112,-0.58278
0.17294,0.88026,0.44182,0.01033,-0.66381,-0.72139
0.21028,0.89751,0.38758,0.16269,-0.40186,-0.5323
0.26442,0.90785,0.32535,0.25218,-0.26509,-0.22139
0.32756,0.91108,0.25021,0.71731,1.32552,0.09554
0.38499,0.9028,0.19157,0.93633,3.42819,-0.05142
0.40197,0.90433,0.14345,0.24497,2.61633,-1.2786
0.42335,0.90418,0.05673,0.79441,1.32912,0.15458
0.44355,0.89617,-0.01088,1.34945,0.68789,-0.40666
0.47816,0.87663,-0.0535,1.02011,0.6693,-0.32748
0.50566,0.85832,-0.08703,0.36119,0.10545,-0.00555
0.51871,0.84727,-0.11425,-0.64009,-0.55879,0.16091
0.52289,0.84364,-0.12183,-1.17672,-1.09788,0.45267
0.51526,0.85101,-0.10138,-1.3132,-1.44953,0.90802
0.49461,0.86827,-0.03796,-1.3144,-1.6015,1.22687
0.46518,0.88408,0.04467,-1.40306,-1.16585,0.33016
0.43972,0.89321,0.09375,-0.94995,-0.49839,-0.79196
0.42767,0.89859,0.09803,0.39317,-0.27638,-1.07711
0.43266,0.89781,0.082,1.07419,-0.07769,-1.27264
0.44289,0.89258,0.08445,0.3266,-0.89325,0.54718
0.44287,0.89089,0.10078,-1.08069,-1.0602,1.13813
0.4399,0.89377,0.0874,-1.20942,-0.97428,0.88819
0.45932,0.88764,0.03318,0.50636,1.58316,2.1826
0.44897,0.8906,0.07236,-1.22354,-0.97551,-1.88969
0.39964,0.91146,0.09745,-0.95453,-0.32437,0.41544
0.33582,0.93321,0.12774,0.75384,1.7798,0.35204
0.29515,0.94189,0.16033,1.5712,0.65108,-0.11631
0.25583,0.94411,0.20781,1.76782,0.52142,-0.31608
0.21459,0.93879,0.26944,1.46724,0.64521,-0.78696
0.20389,0.91851,0.33872,0.86909,0.65325,-0.93691
0.21727,0.88885,0.40337,0.82778,0.42594,-0.5725
0.21019,0.86765,0.45053,0.1632,-0.26755,-0.18967
0.17593,0.85645,0.48529,-0.85507,-0.58663,-1.65758
0.14453,0.84759,0.51056,-0.43623,-0.86654,-1.467
0.13215,0.84164,0.5236,0.5541,-1.00201,-0.56724
0.12794,0.83315,0.53802,0.5137,-1.06479,-0.85693
0.15587,0.83154,0.53311,0.2955,-1.29321,-1.0918
0.18656,0.84286,0.50473,-0.06052,-0.77413,-0.57164
0.22276,0.86056,0.45801,0.39604,-0.44415,-0.30059
0.28053,0.87566,0.39306,0.50872,-0.07396,-0.13775
0.34071,0.87801,0.33612,0.12998,0.42771,-0.28394
0.39702,0.87308,0.28299,-0.07392,1.53638,-0.75354
0.43804,0.87492,0.20644,0.17147,2.53214,-0.07565
0.4498,0.88334,0.13178,0.66549,2.61005,-0.21501
0.46857,0.88145,0.0589,1.06244,1.52678,-0.12404
0.50116,0.86531,-0.00751,1.65902,0.75902,-0.60145
0.53584,0.84211,-0.0609,0.72091,0.39698,-0.21706
0.55535,0.82537,-0.10159,-0.26884,-0.05618,0.24525
0.55873,0.81883,-0.13159,-1.00344,-0.74394,0.51276
0.54917,0.82381,-0.14046,-1.70553,-1.2338,0.66341
0.54114,0.83384,-0.10886,-1.48606,-1.82138,1.0806
0.52545,0.85006,-0.03576,-1.61957,-1.60523,1.13147
0.49811,0.86545,0.0534,-1.48025,-0.68079,0.00336
0.46862,0.87754,0.10146,-0.31791,-0.44181,-1.18229
0.45946,0.88271,0.09846,1.27029,-0.13189,-1.23261
0.46951,0.87906,0.08245,1.55907,0.03084,0.13375
0.47259,0.87594,0.09674,-0.24983,-0.93895,0.8248
0.48764,0.87041,0.06766,-0.37955,0.20306,0.4494
0.51671,0.8548,0.04805,-0.5728,-0.36296,0.08197
0.51911,0.85346,0.04594,-1.66432,-1.24635,1.07648
0.48417,0.86856,0.10567,-0.42359,0.77066,0.98761
0.40919,0.90003,0.14997,0.35934,1.80323,-0.45676
0.32056,0.92971,0.18123,0.86207,1.35004,0.11914
0.27074,0.9375,0.21857,1.9874,1.25965,0.08714
0.2289,0.93485,0.27134,2.52132,1.09139,-0.75282
0.20207,0.9192,0.33794,1.28276,0.46101,-1.28879
0.21958,0.88606,0.40823,0.74537,0.42757,-0.76776
0.23258,0.85846,0.45708,0.15394,-0.18278,0.33038
0.19341,0.84862,0.49235,-0.74735,-0.71449,-1.05491
0.15576,0.84112,0.51789,-0.28892,-1.07187,-1.20922
0.14152,0.83007,0.53937,0.51624,-0.95344,-0.89319
0.13897,0.8146,0.5631,0.46062,-1.09232,-1.24074
0.16392,0.80923,0.56412,0.32393,-1.16112,-1.24073
0.19022,0.82099,0.5383,-0.14116,-0.76875,-0.56587
0.2117,0.83858,0.50192,0.04694,-0.61751,-0.91153
0.25131,0.85727,0.44934,-0.03492,-0.47714,-1.00247
0.30905,0.86936,0.38556,0.01478,-0.3434,-0.69977
0.36047,0.88,0.30926,0.5248,1.03443,0.18246
0.4116,0.87956,0.23859,0.71377,2.26176,0.23147
0.43358,0.8787,0.19968,0.86059,3.28245,-0.2237
0.46338,0.87914,0.11123,0.65686,1.75943,-0.01909
0.4888,0.87166,0.03543,1.06091,1.05647,0.34814
0.52256,0.85221,-0.02552,1.36846,0.7814,-0.06701
0.55409,0.82914,-0.07407,0.44879,0.27355,-0.08717
0.56388,0.81731,-0.11845,-0.03964,-0.05327,0.09589
0.55937,0.81526,-0.14978,-0.51116,-0.37593,0.23297
0.54964,0.82095,-0.15466,-1.47644,-1.63563,0.96272
0.53309,0.83834,-0.11393,-1.33566,-1.72692,1.19065
0.50203,0.86446,-0.02563,-1.35776,-1.71326,1.31137
0.46698,0.8825,0.05575,-1.20807,-0.63544,-0.44536
0.43991,0.89409,0.08406,-0.54158,-0.37106,-0.87157
0.43349,0.89892,0.06324,1.56231,0.31823,-1.41685
0.4395,0.89715,0.0439,0.9618,-0.47432,0.31404
0.43867,0.89537,0.07654,0.19376,-1.08065,0.73761
0.43765,0.89596,0.0754,0.01306,1.49318,-1.33398
0.45555,0.89017,0.00664,-0.53978,0.23332,0.24618
0.45774,0.88756,0.05182,-1.32709,-0.62233,-1.26681
0.4284,0.9007,0.0721,-0.31942,0.61038,0.61253
0.3547,0.92685,0.12292,0.10606,1.3785,0.45703
0.26018,0.94759,0.18537,0.46029,1.51114,0.34683
0.22781,0.9514,0.20714,2.0529,1.6584,0.1083
0.20038,0.9436,0.26353,1.95063,0.83152,-1.01274
0.17652,0.92476,0.3371,1.50708,0.51871,-1.54022
0.19221,0.89565,0.40105,0.96698,0.11719,-0.38251
0.19625,0.87423,0.44405,-0.06394,-0.76728,0.60733
0.14918,0.86326,0.48217,-0.55821,-0.76555,-0.57767
0.12439,0.8549,0.50362,0.26503,-0.92371,-0.7475
0.10102,0.84682,0.52216,0.47352,-0.84809,-0.97578
0.09091,0.84077,0.53368,0.32291,-1.08666,-1.1288
0.10602,0.8453,0.52364,0.12712,-1.12907,-0.82386
0.13361,0.85722,0.49728,0.2028,-1.20984,-0.53602
0.17245,0.87081,0.46034,0.29025,-0.80482,-0.5582
0.2325,0.87999,0.41417,0.46838,-0.34923,-0.24677
0.30309,0.88675,0.34896,0.42852,0.18351,-0.08618
0.37891,0.87963,0.2875,0.38585,0.72638,-0.10436
0.42317,0.87153,0.24767,0.51932,3.82963,-0.71521
0.43048,0.88731,0.16535,0.17983,2.19846,-0.47495
0.44514,0.89084,0.09075,0.5099,1.54203,-0.19439
0.47418,0.87996,0.02823,1.83271,0.43049,-0.18681
0.51458,0.85706,-0.02522,1.27981,0.52543,-0.32615
0.53834,0.84026,-0.06427,0.79982,0.32543,-0.31611
0.54056,0.8356,-0.09774,-0.56294,-0.49331,0.40748
0.52696,0.84216,-0.11428,-1.34092,-1.00882,0.72941
0.51286,0.85275,-0.09883,-1.58193,-1.4124,1.1353
0.4915,0.86999,-0.03906,-1.47856,-1.59832,1.48428
0.46293,0.88552,0.03918,-1.45694,-0.66541,-0.45628
0.43479,0.89682,0.08158,-1.03826,-0.50813,-1.07322
0.43018,0.89917,0.08013,-0.08138,-0.48292,-1.16396
0.43717,0.89717,0.06282,1.19782,-0.42677,0.68337
0.44111,0.89491,0.06736,0.21352,-1.16961,0.76651
0.44133,0.89466,0.06922,-0.68698,-1.1158,0.77055
0.45324,0.89135,-0.00712,0.44169,1.48205,2.24949
0.45794,0.88807,0.03993,-0.06861,0.43891,1.09184
0.42411,0.90354,0.06102,-0.68191,-0.40615,0.04261
0.36076,0.92759,0.09699,0.16973,1.29313,0.24578
0.28267,0.95018,0.13128,0.9503,1.78998,0.04535
0.24092,0.95872,0.15094,2.23338,0.99951,-0.07102
0.20422,0.95571,0.21187,1.99203,0.5462,-0.77458
0.19446,0.93851,0.28523,1.37246,0.49417,-1.15654
0.20704,0.9108,0.35714,0.72031,0.30176,-0.56965
0.20798,0.88938,0.40709,-0.14913,-0.3938,0.29887
0.17063,0.87755,0.44807,-0.59443,-0.55996,-0.46489
0.13608,0.86819,0.47717,0.13533,-1.02814,-1.09123
0.11733,0.8554,0.50448,0.69364,-1.09996,-0.72767
0.10658,0.84395,0.52569,0.5707,-1.02987,-0.8522
0.1253,0.84047,0.52715,0.18951,-1.1293,-0.99437
0.15944,0.84829,0.50493,0.05409,-0.9485,-0.52676
0.19329,0.8624,0.46785,0.04511,-0.76539,-0.49722
0.23324,0.87555,0.42306,0.02739,-0.38333,-0.78621
0.29327,0.88491,0.3618,0.32837,0.00224,0.20799
0.35479,0.88886,0.28988,0.25359,0.11749,0.20569
0.41086,0.88025,0.23735,0.81026,3.09505,-0.70183
0.43688,0.88491,0.1614,0.79436,3.26179,-0.46059
0.45905,0.88552,0.0714,0.56998,1.99479,-0.53118
0.4827,0.87577,0.00379,1.58801,0.64604,-0.03565
0.52034,0.85226,-0.05366,1.56508,0.72341,-0.30518
0.54797,0.83068,-0.09841,0.59993,0.1153,-0.15814
0.5559,0.81989,-0.13687,-0.39937,-0.45214,0.21159
0.54921,0.81973,-0.16249,-1.64992,-1.30059,0.85852
0.53975,0.82745,-0.15489,-1.61114,-1.54548,1.09765
0.52001,0.84891,-0.09449,-1.48472,-1.68918,1.69626
0.48623,0.87382,0.00348,-1.91918,-1.30274,0.77271
0.45241,0.88937,0.06571,-1.88537,-1.3183,0.71047
0.4327,0.89824,0.07693,0.36268,-0.27377,-1.42781
0.43269,0.89984,0.05521,1.77705,0.24146,-1.44497
0.44052,0.89616,0.05312,1.8613,0.21123,-0.07483
0.44129,0.89397,0.07792,-0.64336,-1.25897,1.0805
0.44435,0.89261,0.07599,-1.06642,-0.44156,-0.21056
0.46003,0.88786,0.00761,0.69729,2.08423,1.54139
0.45249,0.8896,0.06207,-1.0238,-0.24863,-0.88802
0.41308,0.90876,0.05923,-0.64428,-0.03521,0.86153
0.34195,0.93457,0.0981,0.11484,0.9701,0.48596
0.27064,0.9528,0.13752,1.5716,1.67016,0.29839
0.24012,0.9567,0.16443,2.17233,1.28109,0.05503
0.20505,0.94822,0.24252,1.92373,0.59121,-0.86734
0.19833,0.92794,0.31555,1.12952,0.47923,-1.81074
0.21968,0.89876,0.37941,0.84664,-0.11462,0.52544
0.21213,0.88139,0.42205,0.36035,-0.51806,0.95759
0.156,0.87427,0.45967,-0.27137,-0.30113,0.02148
0.13063,0.86428,0.48572,0.64635,-1.15722,-0.83803
0.10494,0.85549,0.50706,0.61925,-1.04593,-0.90128
0.10783,0.84824,0.5185,0.22168,-1.1981,-0.9175
0.13495,0.8506,0.50818,0.06967,-1.16777,-0.76906
0.16693,0.86377,0.47541,0.10393,-1.17023,-0.58873
0.22251,0.87598,0.42793,0.13079,-0.58539,-0.90987
0.2905,0.87971,0.37641,0.15037,-0.06496,-0.063
0.35724,0.88182,0.3078,0.33339,0.35842,0.44534
0.40844,0.88011,0.24199,0.67843,2.18481,0.02321
0.43631,0.87983,0.18846,0.61657,3.553,-0.52192
0.45453,0.88568,0.09464,0.41051,2.96338,-0.57865
0.48152,0.87633,0.0132,1.21442,1.01982,0.18672
0.50926,0.85933,-0.04681,1.57246,0.67437,-0.39255
0.54149,0.83574,-0.09117,1.27226,0.6994,-0.32494
0.55893,0.81934,-0.12753,-0.4174,-0.53238,0.19014
0.5548,0.81762,-0.1539,-0.9151,-0.8189,0.28852
0.54362,0.82414,-0.15895,-1.34742,-1.01476,0.51992
0.53018,0.83904,-0.12209,-1.52137,-1.56133,1.19569
0.50183,0.86415,-0.03735,-1.65799,-1.51936,1.45695
0.46516,0.88395,0.0474,-1.53774,-0.83539,-0.09271
0.44088,0.89416,0.07803,-0.19671,-0.2544,-1.05144
0.43455,0.89838,0.06371,1.39005,0.10236,-1.48493
0.44179,0.8962,0.04037,1.39576,-0.24904,0.24637
0.44176,0.89513,0.05972,-0.50637,-1.13689,1.10612
0.43628,0.89728,0.06738,-1.11082,-0.30456,-0.56141
0.45299,0.89143,-0.01129,0.69244,1.20988,1.5318
0.46355,0.88562,0.02774,-0.66203,-0.44971,-0.39308
0.43187,0.90079,0.04532,-0.55669,0.05399,0.82205
0.37336,0.92411,0.08127,-0.11779,0.50495,0.75643
0.29252,0.94515,0.14525,1.10954,1.32203,0.09108
0.24793,0.95173,0.18086,1.42982,1.42597,0.00087
0.22134,0.95047,0.21816,1.9132,1.23355,-0.16651
0.18115,0.93942,0.29094,1.54058,0.61172,-1.35086
0.18283,0.91835,0.35097,1.06233,0.38835,-0.85659
0.18862,0.89886,0.39554,0.66673,-0.49926,0.58369
0.15603,0.88471,0.43922,-0.68516,-0.70471,-0.93957
0.12591,0.87343,0.47037,-0.52096,-0.73489,-1.23184
0.10178,0.86486,0.49155,0.65823,-1.07058,-0.84415
0.0878,0.85683,0.50804,0.50194,-1.08048,-1.03154
0.1139,0.85367,0.50818,0.01818,-1.09274,-0.80202
0.14793,0.86103,0.48653,-0.00656,-0.92001,-0.5624
0.17519,0.87456,0.45214,0.05405,-0.85529,-0.46459
0.22586,0.88718,0.40235,0.55591,-0.08275,-0.18579
0.29146,0.891,0.34805,0.4257,0.11778,-0.16697
0.36186,0.88533,0.29194,0.28415,0.37711,-0.24807
0.41821,0.87955,0.2269,0.72132,3.30747,0.10132
0.43725,0.88748,0.14551,0.72774,3.22611,0.16314
0.4579,0.88717,0.057,1.23638,1.21006,-0.14456
0.48819,0.8726,-0.01472,1.88213,0.67833,-0.19269
0.5242,0.84818,-0.07612,1.19025,0.4915,-0.43139
0.54314,0.8301,-0.12617,0.24438,-0.00187,0.12352
0.5434,0.82295,-0.1657,-0.70995,-0.6796,0.50849
0.53136,0.82707,-0.18329,-1.16562,-0.9948,0.73931
0.51958,0.83899,-0.16164,-1.75758,-1.64885,1.64572
0.5022,0.8598,-0.09233,-1.85622,-1.59254,1.38745
0.47142,0.88184,-0.01052,-1.98352,-1.09644,0.69576
0.44202,0.89635,0.03405,-0.35834,-0.43735,-0.99835
0.4309,0.90153,0.0394,1.44993,-0.11352,-1.32144
0.4417,0.89681,0.02488,1.89105,0.10316,0.28184
0.44887,0.89284,0.03654,-0.23891,-1.1399,0.85938
0.44896,0.8927,0.03874,-1.24048,-0.70931,0.69754
0.4532,0.89045,-0.04101,0.7182,1.73575,1.14689
0.46313,0.8862,0.01216,-0.5184,0.13248,-0.05163
0.42878,0.90314,0.02175,-0.56581,0.21798,0.85629
0.36824,0.92828,0.05182,-0.2542,0.41448,0.75172
0.28739,0.95272,0.0986,0.99734,1.3554,0.31066
0.22957,0.96589,0.11972,1.70008,1.45561,0.01416
0.19125,0.96538,0.17733,2.34494,0.91159,-0.71731
0.16579,0.95373,0.25078,1.55195,0.48459,-1.54561
0.17837,0.92929,0.3234,1.1381,0.21041,-0.14888
0.1757,0.90837,0.37945,0.22793,-0.53376,0.48383
0.14132,0.89861,0.41535,-0.8337,-0.5062,-1.35532
0.11417,0.88719,0.44704,-0.08217,-0.88687,-1.04915
0.09488,0.87552,0.47375,0.46805,-1.21134,-0.81022
0.08165,0.86976,0.48664,0.3869,-0.97517,-1.03565
0.0976,0.87092,0.4816,0.10541,-1.19389,-0.68395
0.12638,0.88168,0.45459,0.22138,-1.15092,-0.64093
0.16472,0.89508,0.41435,0.29755,-0.99066,-0.72627
0.22489,0.90138,0.37004,0.13395,-0.38204,-0.41638
0.29384,0.90145,0.31787,0.22887,-0.19231,0.35763
0.34831,0.90487,0.24468,0.41033,0.0726,0.64096
0.3957,0.90014,0.1821,1.65934,3.64643,-0.49129
0.42442,0.8981,0.11515,1.22798,3.41656,-0.75122
0.45636,0.88966,0.01508,0.90439,2.73304,-0.68027
0.48747,0.8713,-0.0566,1.26583,0.84323,-0.06943
0.52497,0.84422,-0.10812,1.21931,0.82624,-0.09114
0.55437,0.81909,-0.1475,0.29817,-0.00378,0.17855
0.5591,0.80951,-0.17914,-0.93407,-0.71531,0.24129
0.54986,0.81229,-0.1945,-1.33776,-0.97362,0.50888
0.54074,0.82223,-0.17756,-1.65784,-1.80378,1.25155
0.52837,0.8429,-0.10166,-2.11661,-1.21552,0.88574
0.49228,0.87043,-0.00159,-2.08052,-1.24305,0.78567
0.46023,0.8865,0.04792,-0.63754,-0.19422,-0.76513
0.44468,0.894,0.05477,1.89142,0.26762,-1.49001
0.44944,0.8928,0.02992,1.88667,0.26882,-1.46516
0.46168,0.88633,0.0356,0.37717,-1.02169,0.69017
0.47644,0.87841,0.03715,0.18874,0.9913,1.10088
0.5254,0.85074,-0.01365,-0.57656,0.01112,0.50156
0.53451,0.84508,-0.01141,-1.6539,-0.368,0.39637
0.4978,0.86686,0.0271,-0.73715,0.48885,0.93223
0.41996,0.90368,0.08359,-0.54131,0.64182,0.91775
0.30867,0.94086,0.13961,0.5286,1.43278,0.08008
0.24851,0.9544,0.16537,2.48238,1.74277,0.1787
0.26657,0.94829,0.17228,3.02316,1.19185,-0.02676
0.24193,0.9338,0.26358,2.66164,0.76266,-0.42879
0.21755,0.91724,0.33367,1.0222,-0.11922,-0.78615
0.22452,0.90403,0.36373,0.66496,-0.49015,0.19904
0.20305,0.89016,0.40789,-0.08163,-0.42041,0.94015
0.16256,0.8833,0.43971,0.34373,-1.20459,-1.01754
0.13336,0.8752,0.46499,0.66458,-1.13292,-0.8057
0.10752,0.87033,0.48057,0.39553,-0.99068,-0.84748
0.10558,0.86925,0.48295,0.04279,-1.14045,-0.86611
0.13196,0.87368,0.46825,0.13811,-1.28702,-0.93697
0.17445,0.88099,0.43978,0.25351,-0.76412,-0.99093
0.23275,0.88664,0.39961,0.21311,-0.45983,-0.46784
0.31072,0.8865,0.34286,0.59602,-0.1333,0.20317
0.38174,0.88612,0.26279,0.89651,1.05791,0.09115
0.44126,0.87258,0.20946,1.46908,3.25648,-0.48131
0.47313,0.86651,0.15908,1.29146,3.59353,-0.82503
0.49928,0.8649,0.05153,0.60295,1.82455,-0.12692
0.52752,0.84879,-0.03569,1.62766,0.71115,0.09964
0.57053,0.81432,-0.10659,1.65297,0.94694,-0.21984
0.59762,0.78451,-0.16548,0.41449,0.19892,0.03707
0.60514,0.76707,-0.21306,-0.80581,-0.56129,0.21715
0.59731,0.76276,-0.24783,-1.36212,-0.87851,0.49832
0.58987,0.76866,-0.2474,-1.60153,-1.44279,1.23757
0.58161,0.79158,-0.18742,-1.66388,-1.60655,1.51301
0.553,0.82869,-0.08637,-1.89675,-1.39848,1.19198
0.51435,0.85751,-0.01028,-1.02699,-0.3871,-0.38346
0.48839,0.87254,0.01124,0.57856,0.11046,-1.36065
0.47413,0.8804,-0.00922,1.45529,0.36739,-1.54651
0.48036,0.8765,-0.03144,0.74597,-0.91565,0.26272
0.48804,0.87281,0.00333,-0.89869,-1.25092,1.12998
0.47947,0.87689,0.03399,-1.27557,-0.91781,0.82352
0.47435,0.88015,-0.01787,-0.16065,0.85394,-3.57584
0.49475,0.86819,-0.03802,-1.39742,-0.67006,-1.96549
0.47555,0.87948,0.01909,-1.37821,-0.68134,-2.0226
0.41677,0.90814,0.03954,0.00508,0.70323,0.9259
0.33006,0.9393,0.09359,1.54291,1.49284,0.74782
0.28145,0.94935,0.13964,2.00291,1.79337,0.33819
0.26402,0.95102,0.16071,2.1486,0.60569,-0.5132
0.22356,0.94087,0.2545,1.25038,0.35311,-2.56282
0.2185,0.92784,0.30223,1.24941,0.2085,-0.53804
0.2209,0.91122,0.34766,0.59504,-0.66998,0.9968
0.18773,0.90489,0.38199,-0.94862,-0.52804,-1.56785
0.15401,0.90258,0.40201,-0.43046,-0.91161,-0.9875
0.12769,0.8962,0.42486,0.67758,-1.21288,-0.5926
0.10232,0.88902,0.44627,0.43799,-1.1815,-0.99631
0.10093,0.88466,0.45515,0.21636,-1.17785,-0.74809
0.12679,0.88934,0.43929,0.07359,-1.15803,-0.6861
0.15909,0.89834,0.40946,0.51657,-0.7552,-0.40273
0.21635,0.90282,0.37161,0.7394,-0.5302,-0.13725
0.29744,0.89876,0.3221,0.76778,-0.24264,-0.01183
0.36601,0.88443,0.28948,0.52951,1.99275,-0.48964
0.41446,0.87043,0.26562,0.80278,3.28863,-0.93852
0.43403,0.88128,0.18691,0.53809,2.35314,-0.27616
0.44213,0.89025,0.10936,0.73813,1.72379,-0.33051
0.46772,0.88316,0.03529,1.40397,0.9568,0.04466
0.50984,0.85979,-0.02866,1.25129,0.21559,-0.04241
0.54558,0.8343,-0.07921,0.18081,0.007,-0.08065
0.55978,0.81948,-0.12283,-0.2725,-0.20859,0.23086
0.55247,0.8193,-0.15331,-1.45553,-1.18053,0.84313
0.5409,0.82635,-0.1567,-1.646,-1.67241,1.65063
0.52529,0.84302,-0.11565,-1.72226,-1.88199,1.76246
0.50424,0.86236,-0.04553,-1.98973,-0.75181,-0.04565
0.48021,0.87714,0.00214,-0.45697,-0.45888,-0.96049
0.46527,0.88514,0.00666,0.56327,-0.31585,-1.32479
0.46276,0.88623,-0.02086,1.74473,-0.17015,0.10907
0.47048,0.8819,-0.02985,-0.18972,-1.42656,0.97943
0.47606,0.87934,-0.01118,-1.02879,-1.23494,1.14749
0.48362,0.87157,-0.08038,1.21463,1.51045,1.04526
0.52657,0.84541,-0.08933,-0.56608,-0.12419,-0.46344
0.52199,0.85177,-0.04458,-1.12076,-0.79666,-0.76306
0.47823,0.87812,-0.0134,0.00332,0.87529,0.74109
0.41315,0.90987,0.03768,1.07127,1.57535,-0.20886
0.3401,0.9374,0.07484,1.32975,1.55387,0.05364
0.28814,0.95105,0.11159,2.4873,0.68612,-0.56054
0.26148,0.9486,0.17827,1.5653,0.29426,-1.06035
0.25592,0.93263,0.25433,1.0089,0.64023,-0.3642
0.26187,0.90758,0.32819,0.26457,-0.18603,0.43825
0.24268,0.89498,0.3743,-0.66183,-0.63642,-0.72563
0.21061,0.89092,0.40234,-0.97396,-0.55732,-1.05434
0.17831,0.87844,0.44331,0.31877,-1.13287,-0.87016
0.15388,0.86469,0.47813,0.41795,-1.08591,-1.39796
0.15072,0.85325,0.49923,0.30054,-1.1809,-1.24488
0.17339,0.85554,0.48783,0.11488,-0.77192,-0.8085
0.19149,0.87159,0.45127,0.16483,-0.83405,-0.86907
0.23145,0.88641,0.40085,0.19054,-0.75859,-0.76248
0.29844,0.8916,0.34052,0.66639,-0.13494,0.08247
0.371,0.88614,0.27765,0.58786,0.57937,-0.16627
0.43688,0.87001,0.22845,0.49261,2.46408,-0.77009
0.47437,0.86809,0.1462,0.83185,3.20069,0.35665
0.49338,0.8682,0.05287,0.88827,2.27272,-0.82994
0.51246,0.8579,-0.03698,1.24836,0.86597,0.19665
0.53983,0.83539,-0.10343,1.72285,0.66182,-0.23653
0.56677,0.80896,-0.15601,0.28025,0.1403,0.16463
0.57346,0.79519,-0.19698,-0.34438,-0.19018,0.37346
0.5706,0.78975,-0.22516,-0.92918,-0.49245,0.43881
0.56529,0.79151,-0.23226,-1.53665,-1.6198,1.02282
0.56184,0.80526,-0.18941,-1.31837,-1.69877,1.45666
0.54121,0.83611,-0.08947,-1.86164,-0.92,0.5166
0.51279,0.85844,-0.01055,-0.87899,-0.49557,-0.67363
