gravity.x,gravity.y,gravity.z,userAcceleration.x,userAcceleration.y,userAcceleration.z
-0.13278,0.98314,0.12574,0.49827,-1.06102,-0.20635
-0.1064,0.99044,0.08777,0.47544,-1.16206,-0.17714
-0.0737,0.99645,0.04059,0.46211,-0.97016,-0.17364
-0.0414,0.99886,-0.02363,0.29667,-0.71503,-0.08112
-0.01063,0.99456,-0.10361,0.0777,-0.46046,0.31322
0.0176,0.97881,-0.20401,-0.30717,0.02513,-0.04851
0.0315,0.94119,-0.3364,0.01795,3.35689,0.2429
0.04068,0.8933,-0.44762,-0.2773,2.48933,0.34009
0.05697,0.84886,-0.52554,-1.14339,0.57484,-0.62716
0.07991,0.82527,-0.55905,-0.24402,0.9313,-0.46878
0.11915,0.81631,-0.56519,-0.07581,0.83953,-0.24673
0.1598,0.82019,-0.54931,-0.03483,0.48755,-0.24439
0.16958,0.83511,-0.5233,0.18744,-0.79466,-0.40242
0.17579,0.85514,-0.48768,0.5244,-1.25599,-0.11434
0.19067,0.87003,-0.45463,0.14713,-1.09011,0.24272
0.18623,0.87611,-0.4447,-0.28208,-1.09791,0.60734
0.16427,0.88174,-0.44222,-0.30355,-1.22541,0.63797
0.14804,0.88974,-0.4318,-0.33206,-1.12132,0.66621
0.14795,0.89987,-0.41029,-0.34734,-0.93308,0.54585
0.1628,0.91071,-0.37961,-0.4516,-0.88227,0.57453
0.19062,0.91902,-0.34507,-0.63906,-0.64114,0.45082
0.20575,0.92079,-0.33139,-0.50799,0.43302,0.02385
0.20672,0.92256,-0.32581,-1.27567,2.90699,0.18673
0.16822,0.94208,-0.29015,0.35464,1.556,0.20011
0.1614,0.95587,-0.2455,1.23113,-0.16838,-0.29569
0.15151,0.97223,-0.17839,1.16784,-0.31634,0.17061
0.10841,0.98827,-0.10754,1.0615,0.04041,-0.0322
0.03904,0.99881,-0.02929,0.97117,0.71039,-0.1258
-0.03125,0.99879,0.03791,0.30397,1.40886,0.02384
-0.0786,0.991,0.10831,-0.04463,0.18459,-0.44544
-0.12569,0.97801,0.16645,-0.01419,0.35787,-0.42852
-0.15965,0.96723,0.19744,-0.26721,0.44803,-0.44512
-0.18087,0.96263,0.20159,0.11751,-0.56341,0.02176
-0.1926,0.96369,0.18497,0.39689,-0.8452,-0.09962
-0.18571,0.96958,0.15946,0.54185,-1.04923,-0.31403
-0.16093,0.97994,0.11758,0.55128,-0.87692,-0.19093
-0.12946,0.9895,0.06428,0.50261,-0.77116,-0.00692
-0.09677,0.9953,-0.00234,0.40453,-0.66974,0.28438
-0.05994,0.99466,-0.08398,0.19614,0.77533,-0.28678
-0.02442,0.9797,-0.19897,0.25878,2.25562,0.0826
-0.02356,0.94667,-0.32134,-0.28354,2.46902,0.53977
-0.01247,0.90675,-0.42149,-0.9578,1.08707,-0.06103
0.01332,0.87899,-0.47665,-0.88754,0.74526,-0.55275
0.05792,0.86225,-0.50316,-0.38017,0.84658,-0.13365
0.11346,0.85284,-0.50969,-0.33987,0.63817,-0.02737
0.14253,0.85293,-0.50219,0.03331,0.21395,0.02631
0.15437,0.85908,-0.48801,0.38181,-0.97729,-0.02814
0.16165,0.87125,-0.46346,0.2859,-1.37094,0.44895
0.15774,0.87894,-0.4501,0.08544,-1.38008,0.44384
0.13631,0.88393,-0.44731,-0.33661,-1.36571,0.5034
0.11841,0.89358,-0.43301,-0.26325,-1.34751,0.56153
0.1206,0.90621,-0.40527,-0.3068,-1.19402,0.60226
0.14074,0.91807,-0.3706,-0.30651,-0.97773,0.40287
0.17371,0.92722,-0.3318,-0.35096,-1.00438,0.42499
0.20742,0.93336,-0.29294,-0.71997,-0.53614,-0.23438
0.21631,0.9266,-0.30761,-0.76797,1.49257,-0.30359
0.1975,0.93248,-0.30245,-1.26954,3.62349,0.27295
0.15082,0.95317,-0.26214,0.84381,1.63978,0.41361
0.14356,0.96525,-0.21838,1.36071,-0.53685,-0.14911
0.11603,0.98218,-0.14782,0.9853,-0.15761,0.19844
0.05435,0.99599,-0.07111,0.85519,0.20534,0.10011
-0.01747,0.99984,0.00338,0.40309,1.56269,-0.09794
-0.075,0.9946,0.07174,-0.20515,0.62746,-0.20271
-0.11921,0.98264,0.14214,-0.16524,0.11138,-0.43627
-0.15719,0.97001,0.18541,-0.40392,0.38113,-0.31862
-0.17968,0.96272,0.20222,-0.17404,-0.08386,0.01927
-0.19446,0.96295,0.18687,0.37769,-0.74937,0.00127
-0.19279,0.96809,0.16013,0.57641,-0.98858,-0.16454
-0.16875,0.9779,0.12346,0.71376,-1.09812,-0.62359
-0.1306,0.98873,0.07319,0.65243,-0.95376,-0.3695
-0.09245,0.9957,0.00502,0.38942,-0.51974,0.33305
-0.05395,0.99543,-0.0788,0.07199,0.27985,-0.20328
-0.011,0.98198,-0.18865,0.3683,1.59279,0.00276
-0.00146,0.94568,-0.32509,0.12581,3.17082,0.51669
-0.00347,0.89422,-0.44762,-0.65102,1.30863,0.11984
0.00868,0.85042,-0.52604,-0.87913,0.81104,-0.73001
0.03612,0.82527,-0.56358,-0.40183,1.05046,-0.30679
0.07858,0.81307,-0.57684,-0.30116,0.74812,-0.20507
0.10098,0.81569,-0.5696,-0.08943,0.2196,0.06809
0.10801,0.8317,-0.54463,0.07133,-0.81204,-0.18894
0.11642,0.85559,-0.50439,0.16077,-1.31259,0.15108
0.11988,0.87163,-0.47528,0.07212,-1.56095,0.41636
0.10789,0.87856,-0.46529,-0.37855,-1.39972,0.48493
0.09334,0.88617,-0.45387,-0.14718,-1.33304,0.61831
0.0953,0.896,-0.43371,-0.08531,-1.1182,0.66052
0.11562,0.9051,-0.40919,-0.17612,-0.87638,0.58231
0.15645,0.90721,-0.3905,-0.36487,-0.53245,0.58869
0.20638,0.89908,-0.38609,-0.46447,0.09053,-0.27335
0.2332,0.89899,-0.37073,-0.69192,0.61819,-0.09869
0.21613,0.91486,-0.34105,-0.87615,3.22903,0.37277
0.18041,0.94114,-0.28583,0.57586,0.5342,0.18271
0.15836,0.96329,-0.21679,0.79843,-0.49628,0.5023
0.1154,0.98394,-0.13618,0.74716,-0.1227,0.39025
0.04057,0.9975,-0.0578,1.18523,1.36092,-0.10506
-0.02621,0.99953,0.01569,0.17173,0.87072,-0.05932
-0.06886,0.99332,0.09256,-0.07553,0.11625,-0.41864
-0.11758,0.98231,0.14578,0.04039,0.43092,-0.53564
-0.14934,0.97124,0.18544,-0.08687,0.25625,-0.50576
-0.17193,0.96297,0.20767,0.18894,-0.33155,-0.15192
-0.18452,0.96112,0.20543,0.60135,-0.92429,0.00673
-0.17598,0.96569,0.19101,0.63274,-1.24658,-0.36883
-0.14475,0.97681,0.15776,0.57589,-1.06875,-0.46977
-0.10365,0.9891,0.10455,0.4309,-0.76486,-0.30789
-0.06381,0.99741,0.0332,0.29303,-0.52306,0.37187
-0.02714,0.99816,-0.05413,-0.31412,0.10364,-0.10778
0.00637,0.98483,-0.17342,-0.17427,0.70687,-0.33178
0.01137,0.94942,-0.3138,-0.24933,2.8197,0.55832
0.03491,0.90164,-0.43108,-0.55963,1.5311,0.45019
0.06871,0.86292,-0.50065,-1.05609,0.87196,-0.36753
0.11949,0.8368,-0.53431,-0.34436,0.90517,-0.13628
0.1791,0.81621,-0.54929,-0.23466,0.79801,-0.25674
0.20862,0.80798,-0.55105,-0.08665,0.36004,0.00365
0.21558,0.81193,-0.54248,0.10004,-0.88588,-0.28601
0.22843,0.82739,-0.51307,0.41486,-1.23491,0.07434
0.23919,0.84122,-0.48491,-0.06672,-1.54062,0.3656
0.22971,0.84786,-0.47787,-0.61867,-1.23821,0.53282
0.21336,0.85791,-0.46741,-0.43075,-1.51515,0.76986
0.20997,0.8712,-0.44376,-0.41181,-1.38025,0.80992
0.21762,0.88517,-0.41123,-0.39938,-1.04539,0.51656
0.23134,0.89745,-0.37558,-0.31713,-0.87539,0.62477
0.25482,0.90938,-0.32879,-0.51478,-0.81642,0.8668
0.26355,0.91608,-0.30222,-0.51587,-0.07972,-0.50816
0.25692,0.91504,-0.31097,-1.26025,3.19033,-0.00423
0.20372,0.94558,-0.25374,-0.01698,2.56721,0.77631
0.21381,0.95475,-0.20674,1.12364,-0.07662,-0.52896
0.21606,0.96715,-0.13394,1.00411,-0.71013,0.05207
0.17774,0.98194,-0.06482,0.9541,-0.36216,0.12378
0.10691,0.99424,0.00762,0.87188,0.58494,0.01469
0.03582,0.99697,0.06898,0.14464,1.40567,-0.09016
-0.01671,0.9906,0.13579,-0.45832,0.49401,-0.3167
-0.06379,0.97934,0.19192,-0.2595,0.39962,-0.53994
-0.09892,0.97017,0.22131,-0.43477,0.36451,-0.39846
-0.1195,0.96861,0.21797,-0.1798,0.15581,-0.23755
-0.1257,0.9718,0.19952,0.63794,-0.91763,-0.1482
-0.1066,0.98004,0.16778,0.67023,-1.22348,-0.44665
-0.07063,0.99081,0.11534,0.58287,-1.16234,-0.33028
-0.03222,0.99836,0.04721,0.46194,-0.88345,0.19799
0.00799,0.99929,-0.03693,-0.11779,-0.29068,-0.08925
0.05293,0.98827,-0.14325,-0.05365,0.2429,-0.25128
0.0784,0.95561,-0.28403,0.12898,3.27425,0.10077
0.08641,0.90888,-0.40801,-0.44598,2.36743,0.52206
0.09924,0.86326,-0.4949,-0.80945,0.75954,-0.23467
0.11828,0.82851,-0.54735,-0.36447,1.00914,-0.06053
0.15091,0.79793,-0.58355,0.05125,0.70489,-0.33524
0.17023,0.78008,-0.60207,-0.01036,0.42863,-0.10151
0.16546,0.78416,-0.5981,-0.0173,-0.76566,-0.15848
0.16171,0.80454,-0.57145,-0.00449,-0.9974,-0.08243
0.16803,0.82844,-0.53428,-0.04141,-1.47355,0.46036
0.16792,0.84059,-0.51498,-0.63658,-1.27672,0.44966
0.15841,0.84801,-0.50575,-0.38373,-1.46782,0.66612
0.15846,0.85839,-0.48791,-0.27776,-1.40156,0.8094
0.17662,0.87277,-0.45505,-0.21796,-1.19934,0.57433
0.20801,0.8861,-0.4142,-0.15581,-0.87436,0.43653
0.24545,0.90092,-0.35791,-0.40655,-0.9999,0.45044
0.26718,0.91827,-0.29223,-0.77775,-1.03487,0.95947
0.26807,0.9196,-0.28717,-0.67469,0.84451,-0.24803
0.23571,0.93599,-0.26148,-0.82458,4.9283,0.32668
0.19414,0.95767,-0.21254,1.15905,1.40764,0.50558
0.21011,0.96368,-0.16482,1.08943,-0.75528,-0.45078
0.1976,0.97508,-0.10083,0.86293,-0.83223,-0.05643
0.13697,0.98979,-0.0395,0.63983,0.00173,0.0322
0.05278,0.9982,0.02853,0.55921,0.71748,0.07422
-0.02174,0.99581,0.08885,-0.07274,1.45689,0.29302
-0.07222,0.98296,0.16902,-0.11387,0.54044,-0.28136
-0.11621,0.96655,0.22862,-0.116,0.50284,-0.68892
-0.14731,0.95758,0.24768,-0.34505,0.32802,-0.47114
-0.16439,0.95812,0.23449,0.14626,-0.37157,-0.17214
-0.16487,0.96317,0.21243,0.73514,-0.9126,-0.32243
-0.13894,0.97418,0.17796,0.72026,-1.12069,-0.3713
-0.10157,0.987,0.12452,0.61827,-1.04664,-0.12792
-0.06276,0.99641,0.05674,0.40404,-0.62228,0.15069
-0.01733,0.99932,-0.03266,-0.05556,-0.01313,-0.11376
0.02791,0.98729,-0.15646,0.50713,1.56459,-0.24863
0.04113,0.95144,-0.30508,0.14599,3.36919,0.40598
0.05209,0.90193,-0.42872,-0.66071,1.27842,0.43481
0.06738,0.85619,-0.51225,-0.79853,0.74871,-0.42696
0.09767,0.81548,-0.57049,-0.33402,0.99531,-0.2562
0.14442,0.78452,-0.60305,-0.12008,0.96401,-0.41001
0.15049,0.77141,-0.61829,-0.02227,0.75608,-0.13482
0.13667,0.78532,-0.60381,-0.04179,-0.70164,-0.07465
0.13092,0.81991,-0.55733,0.23088,-1.5402,-0.03226
0.12537,0.85009,-0.51149,0.22314,-1.83047,0.32199
0.11537,0.864,-0.49009,-0.45639,-1.47707,0.38925
0.11027,0.87139,-0.47804,-0.45298,-1.49555,0.66681
0.11845,0.88052,-0.45896,-0.26199,-1.24747,0.82632
0.13478,0.89343,-0.4285,-0.40941,-0.98709,0.49389
0.16079,0.90507,-0.3937,-0.28403,-0.81931,0.37353
0.19834,0.91577,-0.34932,-0.17804,-0.71872,0.33179
0.23199,0.92749,-0.29316,-0.76553,-0.39748,0.07879
0.24053,0.92077,-0.30713,-0.39827,0.68288,-0.32506
0.20071,0.94104,-0.27233,-1.56807,4.46434,0.13419
0.18421,0.95902,-0.21527,0.70136,1.33945,0.58981
0.18315,0.969,-0.16582,1.31452,-0.16501,-0.39282
0.14981,0.98317,-0.10458,1.02718,-0.57861,0.10813
0.0824,0.9958,-0.03984,0.68737,0.11014,0.10565
0.00909,0.99956,0.0281,0.56792,1.4163,-0.22441
-0.04822,0.99422,0.09593,-0.14015,0.92453,-0.0261
-0.09225,0.98128,0.16903,-0.12962,0.13461,-0.56506
-0.13427,0.96877,0.20846,-0.00788,0.24499,-0.90819
-0.16503,0.96037,0.22463,-0.05668,0.15903,-0.1815
-0.1871,0.95902,0.21277,0.5632,-0.73926,0.07136
-0.18778,0.96293,0.19369,0.76213,-1.01085,-0.09167
-0.16102,0.97402,0.15925,0.77733,-1.31713,-0.48995
-0.12254,0.98691,0.10482,0.56793,-0.96181,-0.2353
-0.07963,0.99629,0.03255,0.23383,-0.55443,0.32846
-0.03534,0.99781,-0.05597,-0.32688,-0.13916,-0.09329
0.01227,0.98485,-0.17297,0.30222,1.29939,-0.33867
0.02996,0.94834,-0.31583,0.14164,3.19524,0.23805
0.04668,0.89786,-0.4378,-0.67841,1.11551,0.0883
0.07098,0.84859,-0.52427,-0.72455,0.78381,-0.48963
0.10494,0.80824,-0.57943,-0.05913,1.15209,-0.29284
0.1528,0.77516,-0.613,0.20375,1.23182,-0.48766
0.16665,0.76824,-0.61808,0.00657,0.5843,-0.10291
0.16817,0.78696,-0.59365,0.04919,-0.88936,-0.09609
0.17123,0.81842,-0.54851,0.16718,-1.5015,-0.00819
0.17143,0.84249,-0.51071,0.01018,-1.65189,0.2221
0.15525,0.85254,-0.49907,-0.4723,-1.44002,0.65471
0.13533,0.86051,-0.49112,-0.42711,-1.69463,0.89679
0.13267,0.87422,-0.46705,-0.31443,-1.29207,0.87904
0.14307,0.89232,-0.42814,-0.42845,-0.89032,0.59472
0.16371,0.90552,-0.39144,-0.24508,-0.58947,0.29812
0.20124,0.91072,-0.36068,-0.39489,-0.29785,0.82896
0.24556,0.91174,-0.32928,-0.61723,-0.04533,0.05877
0.25909,0.90512,-0.3371,-0.61073,0.78072,-0.39963
0.2213,0.9261,-0.30557,-0.33618,1.2259,0.58272
0.21801,0.94159,-0.25667,0.62362,0.72568,0.42984
0.20032,0.95885,-0.20121,1.18655,-0.38228,-0.03073
0.15209,0.97814,-0.14181,0.78288,-0.26369,0.35738
0.08132,0.99424,-0.06983,0.67524,0.1444,0.12793
0.0089,0.99994,0.00585,0.79713,1.02276,-0.20172
-0.04088,0.99565,0.08367,0.01755,0.56285,-0.25715
-0.08549,0.98489,0.1506,-0.1258,0.15373,-0.58058
-0.11805,0.97548,0.18577,-0.11178,0.17922,-0.83491
-0.14059,0.96955,0.20051,0.00939,-0.21365,-0.13813
-0.15906,0.96883,0.18992,0.26785,-0.55309,0.00194
-0.16188,0.97302,0.16442,0.4649,-0.87049,-0.0438
-0.14687,0.98137,0.12385,0.64316,-1.08296,-0.24
-0.12028,0.99007,0.07273,0.54588,-0.94864,-0.24508
-0.08907,0.99601,0.00533,0.29329,-0.77296,-0.27661
-0.06058,0.99543,-0.07389,0.16451,-0.70401,0.19297
-0.03424,0.98515,-0.16828,-0.15331,-0.25634,0.31141
-0.01751,0.95386,-0.29973,0.32383,3.30757,-0.03841
-0.01782,0.90638,-0.42209,0.25265,4.6323,0.76335
0.0156,0.86052,-0.50918,-0.53724,0.93631,-0.0073
0.05082,0.83181,-0.55272,-0.65029,0.59557,-0.62523
0.09358,0.81639,-0.56987,-0.21738,0.87387,-0.39242
0.13363,0.81386,-0.56548,-0.05889,0.74281,-0.30003
0.14095,0.8245,-0.54803,-0.03665,-0.2116,0.05946
0.14951,0.83692,-0.5265,0.34109,-1.26603,0.1963
0.16719,0.85041,-0.49885,0.33426,-1.38374,0.32508
0.17506,0.86073,-0.47801,-0.38552,-1.1769,0.49833
0.15703,0.87037,-0.46668,-0.39414,-1.39413,0.62464
0.13791,0.88252,-0.4496,-0.32082,-1.31184,0.71292
0.14001,0.89443,-0.42473,-0.30415,-1.07374,0.48091
0.16114,0.90429,-0.39535,-0.12914,-0.78953,0.25159
0.19444,0.91353,-0.35728,-0.18478,-0.94379,0.4797
0.22927,0.92149,-0.3135,-0.73235,-0.84679,0.86335
0.23803,0.91244,-0.33286,-0.28576,1.04134,-0.44238
0.20217,0.93078,-0.30459,-1.37092,5.74436,0.71981
0.19101,0.95022,-0.24615,1.11633,0.57056,-0.18895
0.20472,0.96079,-0.18702,1.18573,-0.76883,-0.20168
0.17884,0.97607,-0.12374,0.85468,-0.26311,0.30469
0.10948,0.9923,-0.05796,0.6915,0.19476,0.13915
0.03681,0.9992,0.01584,0.04165,1.58628,0.0139
-0.0226,0.99617,0.08447,-0.13526,1.1804,-0.00602
-0.07354,0.98455,0.15894,-0.30046,0.29609,-0.38634
-0.11726,0.97239,0.20178,-0.26596,0.40274,-0.75122
-0.14835,0.96482,0.21706,-0.12548,0.13656,-0.35349
-0.1707,0.96295,0.20877,0.19811,-0.25751,-0.08407
-0.17188,0.96709,0.18758,0.83374,-1.25185,-0.3415
-0.14915,0.97741,0.14971,0.81102,-1.26217,-0.30363
-0.11646,0.98829,0.09863,0.65441,-0.9963,-0.33348
-0.07927,0.99634,0.03187,0.18546,-0.79941,-0.05299
-0.04478,0.99801,-0.04441,0.11647,-0.73397,0.36278
-0.01036,0.99062,-0.13627,-0.06752,-0.54242,0.40245
0.01574,0.9621,-0.27224,0.2786,4.43411,0.20904
0.01589,0.91624,-0.40033,-0.25534,4.76238,0.82891
0.05604,0.87055,-0.48888,-0.71327,0.54305,-0.4088
0.09521,0.8404,-0.53354,-0.76392,0.70021,-0.65037
0.13801,0.81678,-0.56019,-0.12124,1.19144,-0.29285
0.17342,0.80474,-0.56774,0.00818,0.7592,0.06368
0.17051,0.81131,-0.5592,0.12503,0.01488,0.00169
0.1619,0.83132,-0.53169,0.02166,-1.27033,0.1428
0.16018,0.84879,-0.50389,0.10607,-1.46175,0.40553
0.14918,0.86246,-0.48364,-0.30906,-1.33111,0.40232
0.12617,0.87514,-0.46713,-0.36162,-1.37154,0.55851
0.11956,0.89116,-0.43765,-0.29781,-1.17009,0.71427
0.13575,0.90783,-0.39676,-0.39202,-1.06144,0.57929
0.16681,0.91785,-0.36018,-0.29496,-0.81815,0.32618
0.21347,0.91632,-0.33879,-0.49261,-0.19033,0.45822
0.25533,0.90153,-0.34936,-0.53164,0.58871,-0.45121
0.26794,0.89909,-0.34618,-1.46862,4.81195,0.31148
0.23037,0.92793,-0.29306,0.81423,0.95896,0.39656
0.2125,0.94627,-0.24376,1.07107,-0.46514,-0.01438
0.18189,0.96769,-0.17463,0.8583,-0.62661,0.46235
0.12014,0.9881,-0.09607,0.64271,0.16734,0.27118
0.03159,0.99941,-0.0134,0.92011,1.38799,-0.31773
-0.03226,0.99741,0.06434,0.7338,1.92514,-0.37967
-0.07592,0.98593,0.14896,-0.25291,-0.04093,-0.54492
-0.11935,0.97306,0.19726,0.12278,0.31333,-0.77769
-0.14958,0.96175,0.22949,-0.0632,0.33,-0.6246
-0.17411,0.95612,0.23563,0.28004,-0.3147,-0.19847
-0.18443,0.9574,0.22222,0.68674,-0.99124,0.03044
-0.16901,0.96481,0.20142,0.72769,-1.33188,-0.35015
-0.13432,0.97774,0.1612,0.62175,-1.11807,-0.42018
-0.09258,0.99044,0.10226,0.33609,-0.80219,-0.29008
-0.05239,0.99825,0.02753,0.15584,-0.63713,0.23994
-0.01445,0.99799,-0.06173,-0.28446,-0.12076,-0.0386
0.01801,0.98203,-0.18786,0.17145,4.04234,0.1904
0.02075,0.94454,-0.32775,-0.44717,4.30266,0.79899
0.05967,0.89668,-0.43865,-0.92756,0.81692,0.07677
0.10506,0.85688,-0.50471,-1.03476,1.00445,-0.40081
0.16236,0.82722,-0.53791,-0.14715,1.11402,-0.25016
0.21143,0.80063,-0.56061,-0.00486,1.03918,0.08864
0.22393,0.79421,-0.56488,0.04054,0.49228,-0.2124
0.21779,0.80686,-0.54913,0.1169,-1.0194,-0.22454
0.2149,0.82872,-0.51676,0.3195,-1.61424,0.26423
0.20593,0.84244,-0.49789,-0.18905,-1.44492,0.36021
0.17555,0.8529,-0.49168,-0.46415,-1.4822,0.74047
0.15335,0.86699,-0.47415,-0.33106,-1.68574,0.84251
0.15297,0.88582,-0.43808,-0.41597,-1.26153,0.70766
0.16505,0.90215,-0.39862,-0.4408,-0.90292,0.44984
0.19336,0.90728,-0.37343,-0.29803,-0.44088,0.58824
0.24536,0.89567,-0.3709,-0.32362,0.16878,-0.06928
0.2802,0.88929,-0.36146,-0.75674,0.68156,-0.25779
0.26568,0.90656,-0.32797,-1.02502,3.80168,0.64395
0.23551,0.93373,-0.26959,0.77849,0.88522,-0.08353
0.20718,0.95664,-0.20473,0.93412,-0.60166,0.19862
0.15595,0.97893,-0.13186,0.76097,0.16683,0.35778
0.07129,0.99584,-0.05679,0.98007,0.81379,0.1821
-0.00211,0.99985,0.01704,0.99453,1.73208,-0.37081
-0.04195,0.99382,0.10272,-0.27309,-0.04619,-0.52775
-0.09088,0.98238,0.16331,-0.10688,0.2319,-0.54353
-0.12657,0.97138,0.20098,-0.20911,0.41758,-0.59023
-0.15349,0.96298,0.2216,0.0533,-0.17413,-0.16778
-0.17296,0.96127,0.21459,0.50779,-0.84944,0.06074
-0.17213,0.96503,0.19773,0.65011,-1.33804,-0.21767
-0.14674,0.97523,0.1655,0.72964,-1.19098,-0.50668
-0.10658,0.98805,0.11136,0.40649,-0.70208,-0.35581
-0.06502,0.99716,0.03804,0.26255,-0.5991,-0.01607
-0.02604,0.99847,-0.04882,-0.28944,0.04714,-0.19028
0.01205,0.98576,-0.16774,0.46363,1.98617,-0.04169
0.01774,0.95179,-0.30624,0.24662,3.52653,0.44862
0.03689,0.90474,-0.42437,-0.5863,1.06737,0.08607
0.07418,0.86342,-0.499,-0.61877,1.0412,-0.36623
0.12526,0.82888,-0.54523,-0.17305,1.11442,-0.11706
0.17631,0.79006,-0.58713,-0.1926,0.91429,0.09204
0.19423,0.76566,-0.61322,0.03678,0.62127,-0.08037
0.18159,0.77205,-0.60907,0.06127,-0.85556,-0.04915
0.16869,0.79718,-0.5797,0.22758,-1.50117,0.33835
0.1534,0.82143,-0.54929,-0.26369,-1.62057,0.36131
0.12839,0.83733,-0.53141,-0.6025,-1.36691,0.61242
0.10625,0.8503,-0.51546,-0.30635,-1.51204,0.74092
0.10855,0.86438,-0.49098,-0.26951,-1.28855,0.78642
0.13046,0.87868,-0.45924,-0.29715,-1.0384,0.55573
0.1675,0.88971,-0.42469,-0.11886,-0.70956,0.43243
0.22212,0.89753,-0.38093,-0.38008,-0.54749,0.9888
0.25883,0.89323,-0.36761,-0.69732,-0.27022,0.17674
0.26372,0.89767,-0.35305,-1.62922,4.78011,-0.27818
0.21908,0.92903,-0.29818,0.33497,1.57891,0.72721
0.20462,0.94595,-0.25161,0.91588,0.48368,-0.01635
0.17868,0.96645,-0.18453,1.06968,-0.77631,0.30038
0.11625,0.98694,-0.11151,0.78626,-0.17163,0.35234
0.02957,0.99909,-0.03062,0.83472,0.69169,0.03211
-0.03313,0.99854,0.04263,0.41884,1.63632,-0.14546
-0.07545,0.98911,0.12635,-0.30173,0.37052,-0.30622
-0.11728,0.97719,0.17707,-0.11083,0.17215,-0.66701
-0.1424,0.96878,0.20293,-0.32818,0.3358,-0.53173
-0.16324,0.96675,0.19686,0.15112,-0.22421,-0.12621
-0.17179,0.96933,0.17576,0.57343,-0.9124,-0.04791
-0.15773,0.97615,0.14921,0.63107,-1.13526,-0.17809
-0.12645,0.98595,0.10913,0.51103,-0.95513,-0.34862
-0.09016,0.99456,0.0522,0.39384,-0.8353,-0.20999
-0.05506,0.99831,-0.01865,0.31093,-0.76683,0.12305
-0.01756,0.99444,-0.10386,-0.03773,0.14443,-0.17216
0.01404,0.9742,-0.22523,0.44099,3.09573,0.20373
0.01713,0.93448,-0.35561,-0.48727,2.537,0.62668
0.05031,0.88833,-0.45643,-0.9822,0.77118,-0.37156
0.0882,0.85601,-0.50938,-0.40079,1.09051,-0.31073
0.13554,0.82998,-0.54108,-0.21935,0.99425,-0.12654
0.17547,0.80972,-0.55997,0.10486,0.68462,-0.19754
0.18417,0.80771,-0.56007,0.12105,-0.23887,-0.07227
0.17703,0.82176,-0.54163,0.02031,-1.18445,-0.02691
0.17081,0.84168,-0.51225,0.30626,-1.50844,0.31898
0.15681,0.85534,-0.49376,0.05935,-1.43603,0.32725
0.13401,0.86488,-0.48376,-0.44439,-1.39244,0.6132
0.11777,0.87618,-0.46737,-0.3118,-1.37287,0.69671
0.1233,0.89095,-0.43705,-0.32942,-1.24576,0.68679
0.14358,0.90236,-0.40637,-0.21864,-0.91273,0.3827
0.177,0.90534,-0.38605,-0.27466,-0.5376,0.7629
0.22896,0.89788,-0.37601,-0.54849,0.02971,-0.18048
0.26082,0.88555,-0.38441,-0.84008,1.74677,-0.42017
0.24146,0.90543,-0.34912,-0.39014,3.02965,0.89973
0.22565,0.92688,-0.29997,0.94335,0.20429,-0.23793
0.20955,0.94789,-0.23999,1.01599,-0.70743,0.08459
0.1687,0.9708,-0.17054,0.69531,-0.30257,0.4815
0.09232,0.99107,-0.09624,0.71915,0.5624,0.26563
0.01264,0.99954,-0.02776,0.67173,1.71362,-0.37363
-0.03114,0.99837,0.04778,0.20489,0.59542,0.03597
-0.07623,0.99031,0.11607,-0.20337,-0.13037,-0.55155
-0.10881,0.98192,0.1549,-0.05179,0.24057,-0.62075
-0.13196,0.97562,0.17536,-0.01832,-0.26314,-0.14103
-0.15144,0.97325,0.17277,0.00115,-0.26077,-0.13844
-0.15385,0.97543,0.15767,0.59356,-1.08659,-0.12222
-0.13493,0.98293,0.12508,0.66224,-1.31574,-0.23438
-0.10329,0.99162,0.07759,0.52433,-0.91357,-0.35774
-0.06621,0.99775,0.01009,0.29238,-0.69151,-0.14033
-0.03282,0.99694,-0.07097,0.03629,-0.35442,0.25954
0.00029,0.98498,-0.17267,-0.13236,0.20688,-0.17466
0.01083,0.95145,-0.30762,0.30553,3.2794,0.3125
0.01998,0.90372,-0.42765,-0.3557,1.99564,0.70739
0.04923,0.85573,-0.51507,-0.90159,0.75113,-0.32697
0.08596,0.82346,-0.56082,-0.45538,1.03504,-0.43066
0.13353,0.79619,-0.59013,-0.21382,1.00252,-0.1477
0.17178,0.78372,-0.59688,0.06495,0.70306,-0.281
0.16794,0.79496,-0.58296,-0.00371,0.10687,-0.04876
0.16255,0.81985,-0.54902,0.07224,-1.2126,0.13137
0.16103,0.84024,-0.51776,0.31105,-1.56005,0.29076
0.15065,0.85105,-0.50301,-0.25006,-1.22291,0.38366
0.12773,0.86169,-0.49109,-0.38278,-1.44394,0.58138
0.11665,0.8757,-0.46855,-0.28157,-1.34318,0.70195
0.12505,0.88972,-0.43905,-0.33394,-1.03024,0.49459
0.14809,0.89902,-0.4121,-0.13779,-0.69072,0.36111
0.1856,0.90375,-0.38572,-0.342,-0.61396,0.98057
0.22513,0.90268,-0.36672,-0.80568,-0.18936,-0.43394
0.23863,0.88619,-0.39715,-1.21417,3.52609,-0.08214
0.20936,0.91211,-0.35245,-1.49949,5.1259,0.26181
0.21236,0.9305,-0.29846,1.25048,-0.00311,-0.27361
0.21368,0.94909,-0.23145,1.06439,-0.75318,0.0117
0.17904,0.96926,-0.16877,0.82116,-0.18499,0.34592
0.10932,0.98914,-0.09827,0.76435,0.25389,0.21052
0.03241,0.99906,-0.02872,0.41015,1.12843,-0.11233
-0.02233,0.9992,0.03303,-0.03843,0.86652,0.03545
-0.06672,0.99224,0.10488,-0.30314,-0.01663,-0.50425
-0.1038,0.98353,0.14795,-0.23044,0.33872,-0.66426
-0.12648,0.97746,0.16905,-0.21347,0.06195,-0.18048
-0.14471,0.97605,0.16246,0.34637,-0.61775,0.0525
-0.14908,0.97827,0.14406,0.60427,-1.10208,-0.1679
-0.13239,0.9849,0.1116,0.69245,-1.24713,-0.32992
-0.10125,0.99279,0.06414,0.55037,-0.85658,-0.32707
-0.0645,0.99792,-0.00076,0.33011,-0.78367,-0.14957
-0.03106,0.9965,-0.0776,0.16677,-0.56423,0.55668
0.00226,0.98534,-0.1706,-0.17713,-0.25872,0.17902
0.02088,0.95129,-0.30758,0.40483,4.70912,0.52883
0.01969,0.9002,-0.43502,-0.1619,3.50756,0.77914
0.04791,0.85118,-0.52269,-1.00663,0.44887,-0.35848
0.08282,0.81927,-0.56739,-0.55766,0.86315,-0.53512
0.12807,0.79402,-0.59425,-0.15451,0.98021,-0.17769
0.16925,0.78111,-0.60101,0.03342,0.83804,-0.20136
0.17978,0.78809,-0.58872,0.10847,-0.51903,-0.09522
0.18608,0.80509,-0.5632,0.15605,-1.19648,-0.11085
0.19415,0.82595,-0.52925,0.25466,-1.53385,0.21047
0.18648,0.84141,-0.50719,-0.42301,-1.19702,0.50541
0.15964,0.85647,-0.49089,-0.40589,-1.3099,0.60525
0.13981,0.87259,-0.46801,-0.3948,-1.32054,0.69732
0.14217,0.8875,-0.43832,-0.46608,-1.10906,0.589
0.15866,0.89789,-0.41064,-0.26027,-0.9083,0.35651
0.18578,0.90557,-0.38136,-0.22049,-0.84896,0.46187
0.22293,0.91064,-0.3479,-0.60832,-0.68434,0.97275
0.23857,0.90416,-0.35438,-0.62677,0.36615,-0.34403
0.21702,0.918,-0.33192,-1.90225,6.15321,-0.0992
0.21497,0.93736,-0.27414,0.88573,1.00614,0.4325
0.22908,0.94931,-0.21526,1.43999,-0.35661,-0.41705
0.20487,0.96634,-0.15563,0.8834,-0.33441,0.51893
0.13927,0.98542,-0.09771,0.68559,-0.24426,0.45031
0.05982,0.99776,-0.02985,0.64351,0.18733,-0.02706
-0.0059,0.99955,0.02958,0.10515,1.43078,0.11214
-0.05434,0.99279,0.10686,-0.09327,0.13284,-0.39414
-0.0976,0.9824,0.15927,0.12486,0.11393,-0.87709
-0.12412,0.97498,0.18442,-0.27296,0.13832,-0.32056
-0.14466,0.97342,0.17754,0.2355,-0.49114,0.03384
-0.15256,0.97571,0.15719,0.49388,-0.83423,0.081
-0.13856,0.9817,0.13063,0.67422,-1.36517,-0.30052
-0.10336,0.99044,0.09135,0.62946,-1.09795,-0.32069
-0.06375,0.99738,0.03427,0.2535,-0.86948,-0.18378
-0.0242,0.99899,-0.03792,0.10527,-0.67569,0.39024
0.01544,0.99224,-0.12338,-0.36072,-0.15424,-0.0188
0.05232,0.96801,-0.24538,0.25458,1.81969,-0.48124
0.05737,0.92151,-0.38409,-0.15373,4.89082,0.63197
0.08941,0.86995,-0.48496,-0.73335,0.64134,-0.36325
0.12546,0.83341,-0.53823,-0.6926,0.933,-0.60091
0.17079,0.8046,-0.56873,-0.0966,1.18441,-0.19867
0.2137,0.78253,-0.58479,0.03888,0.98176,-0.15399
0.23214,0.78232,-0.57801,-0.00359,0.22472,-0.21839
0.22159,0.79911,-0.55885,0.11366,-1.23771,-0.07562
0.21436,0.82071,-0.5296,0.27179,-1.50389,0.15526
0.19901,0.83517,-0.51273,-0.24042,-1.33559,0.3243
0.16734,0.84757,-0.50361,-0.43971,-1.51652,0.63833
0.14323,0.86378,-0.48308,-0.43821,-1.40895,0.81364
0.14346,0.88194,-0.44901,-0.40167,-1.2514,0.78209
0.16187,0.89448,-0.41678,-0.2573,-0.74061,0.2932
0.19674,0.90013,-0.38867,-0.31332,-0.61296,0.91043
0.24594,0.90066,-0.35823,-0.5495,-0.55973,0.93376
0.27821,0.89408,-0.35102,-0.72167,-0.37734,0.26096
0.26711,0.90249,-0.33788,-1.63704,5.41257,0.14977
0.25365,0.92608,-0.27934,-0.47312,2.47106,0.61438
0.24892,0.94201,-0.22507,1.20707,-0.15578,-0.35438
0.22063,0.96122,-0.16546,0.97245,-0.63712,0.24434
0.15808,0.98115,-0.11116,0.7826,-0.14703,0.46246
0.07346,0.99647,-0.04055,0.71467,0.46974,-0.02898
0.00065,0.99969,0.02493,0.49048,1.48084,-0.04576
-0.04505,0.99364,0.10324,0.09549,0.467,-0.08858
-0.08879,0.98273,0.16233,-0.16116,-0.10273,-0.62531
-0.11616,0.97384,0.19529,-0.27309,0.22821,-0.66224
-0.13765,0.9697,0.20183,-0.28551,0.26167,-0.48752
-0.15184,0.97027,0.18845,0.57251,-1.13621,-0.1189
-0.14621,0.97458,0.16974,0.56688,-1.14052,-0.10019
-0.11692,0.98334,0.13921,0.68372,-1.33554,-0.3234
-0.07853,0.99284,0.09001,0.37523,-0.78022,-0.37841
-0.0403,0.99894,0.02218,0.20038,-0.60963,0.28494
-0.0046,0.99827,-0.0586,-0.28477,-0.16516,-0.14184
0.03179,0.9861,-0.16308,0.30878,1.28935,-0.42721
0.03912,0.95365,-0.29837,0.42168,3.28684,0.33426
0.05049,0.90685,-0.41843,-0.18265,2.16604,0.71201
0.07598,0.86349,-0.49861,-0.90468,0.95464,-0.49322
0.11517,0.83462,-0.53865,-0.31456,0.97434,-0.29093
0.16524,0.80854,-0.56476,-0.25864,0.8141,-0.14575
0.20655,0.7946,-0.57091,0.03989,0.66656,-0.3656
0.21365,0.79966,-0.56115,0.11153,-0.47038,0.03396
0.21396,0.81527,-0.5381,0.23442,-1.43589,0.18881
0.20887,0.83239,-0.51333,0.13212,-1.50331,0.38467
0.1874,0.84322,-0.50385,-0.36803,-1.19304,0.62269
0.15532,0.85587,-0.49331,-0.37577,-1.44903,0.69107
0.1418,0.87215,-0.46824,-0.32895,-1.19058,0.64456
0.15142,0.88788,-0.43444,-0.37359,-0.93477,0.57772
0.18182,0.89416,-0.40916,-0.33342,-0.70976,0.64821
0.23815,0.87991,-0.41116,-0.40145,0.49497,-0.18904
0.27809,0.87064,-0.40577,-0.91039,0.21866,-0.3061
0.30121,0.87909,-0.36943,-1.3579,1.34967,0.82957
0.2711,0.91479,-0.29945,0.94375,0.96586,0.07986
0.24055,0.94334,-0.22855,0.88973,-0.64859,0.3128
0.18912,0.97031,-0.15074,0.87824,-0.20952,0.3685
0.11482,0.99012,-0.08044,1.0716,0.71442,0.26506
0.04027,0.99903,-0.01803,0.81571,1.14901,-0.17458
-0.00316,0.99854,0.05391,0.06615,0.63247,-0.09481
-0.04626,0.99208,0.11677,-0.23797,0.07629,-0.47857
-0.08824,0.98381,0.15599,-0.1126,0.21756,-0.49541
-0.11763,0.97548,0.186,0.03777,0.23636,-0.41882
-0.14295,0.96981,0.19756,0.20985,-0.35227,-0.09215
-0.15412,0.96819,0.1971,0.64734,-1.25547,-0.10315
-0.14222,0.97278,0.18297,0.65689,-1.46754,-0.23716
-0.10695,0.98375,0.14419,0.63637,-1.41761,-0.38787
-0.06283,0.9946,0.08259,0.20993,-0.65934,-0.39605
-0.02425,0.99968,0.00734,0.17136,-0.66441,-0.3208
0.0083,0.99673,-0.08036,-0.08771,-0.22538,0.29754
0.03141,0.97845,-0.20409,0.28103,4.08703,0.29534
0.02216,0.94198,-0.33493,-0.1106,4.5693,1.00438
0.0497,0.89523,-0.44282,-0.66976,0.76828,0.28793
0.08628,0.85658,-0.50874,-1.05829,1.18065,-0.29617
0.14528,0.82588,-0.5448,-0.2258,0.8724,-0.27775
0.20414,0.7978,-0.56731,-0.0901,0.89022,0.1005
0.22439,0.79006,-0.57048,-0.04571,0.46862,-0.48672
0.21129,0.80391,-0.55595,0.08464,-0.49703,0.09008
0.20413,0.82442,-0.52789,0.23566,-1.26071,0.28517
0.19413,0.84097,-0.50506,-0.02228,-1.306,0.3431
0.17249,0.85174,-0.49475,-0.2572,-1.16174,0.50107
0.14464,0.86301,-0.48404,-0.32417,-1.31311,0.59485
0.13623,0.87836,-0.45818,-0.35231,-1.20633,0.66888
0.14722,0.89194,-0.42752,-0.38239,-1.04018,0.55778
0.17508,0.89956,-0.40018,-0.33985,-0.83919,0.44026
0.21457,0.90606,-0.36471,-0.48695,-0.87323,0.58309
0.23697,0.91069,-0.33837,-0.84106,-0.77075,0.78393
0.22503,0.89282,-0.39017,-1.28015,3.01842,0.04344
0.17784,0.92777,-0.32804,-1.53663,6.17983,0.98014
0.18132,0.94425,-0.27481,1.51821,1.3248,0.5207
0.18636,0.95877,-0.21456,1.06001,-0.81219,-0.04551
0.15998,0.9746,-0.15675,0.88415,-0.5475,0.24884
0.10882,0.98994,-0.09046,0.63556,-0.45834,0.39519
0.04512,0.99869,-0.02407,0.37587,-0.02138,0.1772
-0.01456,0.99946,0.02959,-0.0784,1.56425,-0.11803
-0.05666,0.99355,0.09827,-0.16959,0.48628,-0.22104
-0.09202,0.98644,0.13593,-0.48628,0.33049,-0.60999
-0.11422,0.98208,0.14993,-0.21273,0.21609,-0.13282
-0.12784,0.98214,0.13807,0.08652,-0.12725,0.08326
-0.12839,0.98502,0.11512,0.59708,-1.08771,-0.36126
-0.10923,0.99097,0.07778,0.71646,-1.25156,-0.35027
-0.07745,0.99659,0.02857,0.64289,-1.12279,-0.22607
-0.04642,0.99825,-0.03667,0.39974,-0.7715,0.2708
-0.01553,0.99346,-0.11314,-0.11802,-0.3279,-0.00452
0.01896,0.9785,-0.20536,-0.12428,-0.16309,0.09214
0.03075,0.94122,-0.33639,0.68083,3.19918,0.35263
0.03275,0.89365,-0.44757,-0.31265,2.22857,0.57754
0.05232,0.85198,-0.52095,-0.92577,0.72619,-0.44441
0.08092,0.82277,-0.56258,-0.37774,0.96728,-0.48018
0.11768,0.80266,-0.58472,-0.17388,0.87679,-0.0641
0.14233,0.79677,-0.58728,0.1342,0.59524,0.04675
0.14046,0.8073,-0.57318,-0.02126,-0.20586,0.13966
0.13533,0.82601,-0.54717,-0.01131,-1.28409,0.01985
0.13623,0.84385,-0.51899,0.10602,-1.45495,0.10566
0.12654,0.85575,-0.50167,-0.21202,-1.17571,0.42262
0.10903,0.86732,-0.48566,-0.39354,-1.28301,0.62774
0.10336,0.88039,-0.46286,-0.29495,-1.17462,0.6505
0.11767,0.89172,-0.43702,-0.28877,-0.98816,0.51772
0.15084,0.89869,-0.41184,-0.20436,-0.77997,0.44165
0.19706,0.905,-0.37702,-0.23336,-0.77083,0.38793
0.23455,0.90822,-0.34659,-0.85161,-0.75818,0.86057
0.25101,0.8933,-0.37284,-0.50528,0.16915,-0.64741
0.23612,0.9219,-0.30717,-1.05634,2.05999,0.70985
0.2233,0.94235,-0.24922,1.27809,1.73186,0.64702
0.22693,0.95415,-0.1952,1.49316,-0.39832,-0.19923
0.20219,0.96869,-0.14408,1.13261,-0.72177,0.20632
0.13649,0.98676,-0.08759,0.90132,-0.06571,0.14635
0.05609,0.99815,-0.02349,0.66205,0.37821,-0.05949
-0.00718,0.99927,0.03745,0.24161,1.50427,-0.07116
-0.0555,0.99238,0.11002,-0.07054,0.51164,-0.22454
-0.09793,0.98243,0.15885,-0.0801,0.12813,-0.86332
-0.12693,0.97417,0.18674,-0.20461,0.27679,-0.71998
-0.14885,0.97051,0.18961,0.04101,-0.07868,-0.14524
-0.15588,0.97127,0.17983,0.60516,-1.07353,-0.09867
-0.13995,0.97771,0.15651,0.6023,-1.32251,-0.261
-0.10761,0.98754,0.11486,0.60512,-1.23897,-0.391
-0.06959,0.99598,0.05645,0.3807,-0.88997,-0.35462
-0.03592,0.9992,-0.01731,0.22073,-0.71759,0.16332
-0.00289,0.99437,-0.10594,-0.13955,-0.32344,0.09199
0.01994,0.97277,-0.23093,0.64213,2.14734,-0.2816
0.01658,0.9325,-0.36079,0.41052,4.56764,0.50845
0.03576,0.88879,-0.45692,-1.07307,0.63438,-0.17359
0.06745,0.85643,-0.51184,-0.79051,0.9991,-0.51708
0.11734,0.83232,-0.54174,-0.21655,1.04137,-0.21574
0.16874,0.81056,-0.56082,-0.04046,1.04796,-0.06619
0.18487,0.80521,-0.56343,0.0942,0.31095,0.12755
0.18329,0.81367,-0.55168,0.16629,-0.46963,0.13592
0.18107,0.83322,-0.52245,0.22545,-1.61162,0.22167
0.16652,0.85292,-0.49477,0.03464,-1.5248,0.25109
0.13467,0.86575,-0.48201,-0.15873,-1.29422,0.49316
0.10697,0.87479,-0.47255,-0.43603,-1.42529,0.62772
0.10592,0.88525,-0.4529,-0.41471,-1.17504,0.59816
0.12323,0.89233,-0.43424,-0.2692,-0.95732,0.47144
0.16086,0.89576,-0.41441,-0.18981,-0.86671,0.48329
0.21357,0.89586,-0.38965,-0.60971,-0.6427,1.09634
0.23536,0.8776,-0.41765,-0.88181,-0.3335,-0.3783
0.23247,0.89005,-0.39214,-1.86532,5.35568,-0.0061
0.20868,0.91956,-0.33297,1.03705,1.60307,0.59968
0.20853,0.93766,-0.27805,1.39105,-0.54177,-0.28619
0.19038,0.95909,-0.20954,1.11574,-0.88813,0.44454
0.13922,0.98089,-0.13591,0.79669,-0.04608,0.29898
0.06197,0.99654,-0.05543,0.88198,0.61737,0.08555
0.00595,0.99986,0.01536,0.29448,1.41734,-0.05441
-0.03011,0.99457,0.09963,-0.39198,0.33554,-0.32694
-0.06736,0.98577,0.15401,-0.37418,0.07354,-0.69318
-0.09582,0.97777,0.18652,-0.45694,0.27683,-0.63627
-0.12226,0.97347,0.19342,0.00104,-0.19489,-0.17261
-0.13853,0.97278,0.18579,0.26499,-0.55388,-0.05844
-0.13344,0.9763,0.17036,0.52206,-1.25556,-0.17218
-0.10531,0.9851,0.13593,0.57118,-0.91395,-0.54511
-0.06726,0.99467,0.07819,0.41005,-0.74068,-0.35711
-0.03293,0.99945,0.00425,0.29228,-0.70503,-0.01052
0.00084,0.99633,-0.08558,0.14314,0.30015,-0.31513
0.0188,0.97637,-0.21529,0.68804,1.5259,-0.20464
0.01512,0.93951,-0.34218,-0.10594,3.8134,0.79416
0.0346,0.89688,-0.44093,-1.05346,1.14885,0.23759
0.0838,0.86207,-0.49981,-0.95035,1.35727,-0.26975
0.15359,0.83263,-0.53211,-0.21557,0.92152,-0.16489
0.21709,0.80358,-0.5542,-0.13569,1.05958,-0.17316
0.22865,0.78872,-0.57064,0.36107,0.61835,-0.05619
0.22806,0.7933,-0.56451,0.19528,-0.63233,0.08376
0.22254,0.81193,-0.53968,0.27822,-1.5362,0.20257
0.20218,0.83047,-0.51908,-0.19069,-1.38769,0.34632
0.16673,0.84332,-0.51089,-0.33332,-1.20489,0.53091
0.13777,0.85326,-0.50296,-0.51303,-1.4867,0.70037
0.14056,0.86639,-0.47917,-0.65169,-1.34315,0.71346
0.16552,0.88097,-0.44328,-0.49424,-1.06162,0.50413
0.20175,0.89092,-0.4069,-0.20085,-0.78639,0.55248
0.24903,0.89253,-0.376,-0.29339,-0.71638,0.82536
0.27398,0.87806,-0.39235,-0.54295,0.36715,-0.91848
0.2804,0.87398,-0.39691,-1.72976,4.84038,-0.25496
0.25333,0.90685,-0.33681,-0.23335,3.97632,0.5683
0.25332,0.9241,-0.28613,1.41026,-0.31553,-0.14102
0.2381,0.94565,-0.22149,0.98006,-0.79672,0.39507
0.18747,0.96954,-0.15765,0.89145,-0.5276,0.39087
0.1104,0.99046,-0.0825,0.80115,0.51876,0.2337
0.04566,0.99876,-0.01995,0.25889,1.46682,-0.03668
0.00296,0.99849,0.05484,-0.25677,0.30656,-0.26072
-0.0421,0.99297,0.11062,-0.3,-0.02064,-0.61181
-0.07364,0.98676,0.14454,-0.51638,0.43144,-0.51909
-0.0979,0.98324,0.15379,-0.11164,-0.08171,-0.03335
-0.1141,0.98355,0.14002,0.40696,-0.75328,0.12701
-0.11234,0.9867,0.11746,0.56894,-1.24403,-0.28855
-0.08746,0.99282,0.08165,0.7381,-1.21698,-0.39344
-0.05144,0.99829,0.02776,0.47651,-0.79665,-0.29499
-0.01724,0.99893,-0.04287,0.23909,-0.69754,0.18492
0.01232,0.9921,-0.12486,-0.13375,-0.29088,0.02818
0.03832,0.97213,-0.23128,0.16694,0.30041,-0.03187
0.03173,0.92979,-0.36672,0.52091,3.70237,0.53532
0.03969,0.87818,-0.47667,0.05703,3.97611,0.79518
0.06401,0.83636,-0.54443,-0.993,0.79088,-0.41409
0.09939,0.8071,-0.58199,-0.12895,0.92957,-0.148
0.14567,0.78566,-0.60127,-0.22724,0.89943,-0.06583
0.16964,0.78102,-0.60102,0.13625,0.62073,-0.21859
0.16879,0.79607,-0.58118,0.09986,-0.81468,-0.08587
0.17303,0.81913,-0.5469,0.13548,-1.32209,-0.07124
0.17159,0.83925,-0.51596,0.27708,-1.57628,0.08914
0.15408,0.84988,-0.50394,-0.29464,-1.06981,0.45447
0.13283,0.85814,-0.49593,-0.49238,-1.20522,0.66979
0.12951,0.86702,-0.48115,-0.4163,-1.12445,0.68744
0.14863,0.87623,-0.4584,-0.38938,-0.91864,0.55847
0.18501,0.88413,-0.42905,-0.33317,-0.90035,0.52652
0.22789,0.88836,-0.39859,-0.40587,-0.89297,0.54143
0.2562,0.88139,-0.39689,-0.59661,0.19326,-0.31933
0.28158,0.87853,-0.38588,-0.79419,1.49316,0.4749
0.2569,0.90894,-0.32839,-0.61019,4.48613,0.29991
0.25378,0.92502,-0.28271,1.40229,-0.28597,-0.13886
0.24029,0.94474,-0.22298,1.18346,-0.80113,0.34169
0.19555,0.96644,-0.16658,1.06182,-0.51152,0.36152
0.12587,0.98767,-0.09306,0.62748,0.2189,0.03385
0.05167,0.99836,-0.02457,0.41416,1.34714,-0.17021
-0.00252,0.99905,0.04346,0.16005,0.98973,-0.06331
-0.05262,0.99301,0.10564,-0.05167,-0.00528,-0.55379
-0.0924,0.98552,0.1422,-0.20862,0.33028,-0.5889
-0.11845,0.97953,0.16277,0.00627,0.09638,-0.27074
-0.13723,0.97807,0.15668,0.35086,-0.6528,0.06131
-0.13934,0.98038,0.13941,0.60739,-1.21724,-0.08991
-0.11735,0.98742,0.10601,0.68424,-1.36942,-0.36605
-0.08379,0.99502,0.05396,0.41731,-0.93054,-0.32556
-0.04797,0.99877,-0.0126,0.29057,-0.87548,-0.1281
-0.01384,0.99578,-0.09072,-0.12378,-0.39753,0.0769
0.02345,0.98244,-0.18509,0.40386,1.0355,-0.35954
0.0412,0.94816,-0.3151,0.46716,2.91431,0.20051
0.04731,0.89872,-0.43596,-0.33709,1.04357,0.21525
0.07164,0.85002,-0.52186,-0.61024,0.85744,-0.36538
0.10098,0.81688,-0.56789,-0.39871,1.03402,-0.30007
0.14933,0.78964,-0.59513,-0.22713,0.9907,-0.23871
0.18396,0.77413,-0.60571,0.06622,0.54783,-0.12476
0.18916,0.77767,-0.59954,0.01262,0.11833,0.03986
0.18801,0.79338,-0.57896,0.31722,-1.31613,0.19414
0.18337,0.81226,-0.55373,0.16878,-1.53926,0.38234
0.16461,0.82445,-0.54146,-0.20581,-1.35399,0.4717
0.13357,0.83692,-0.53077,-0.4288,-1.47198,0.69664
0.11813,0.85283,-0.50864,-0.40652,-1.20961,0.77119
0.13009,0.86968,-0.47616,-0.42016,-1.00581,0.5652
0.15887,0.88218,-0.44331,-0.20053,-0.78667,0.40125
0.20029,0.88976,-0.41014,-0.38306,-0.74725,0.93819
0.24474,0.89118,-0.38196,-0.64211,-0.61475,0.94367
0.2521,0.87187,-0.41986,-0.846,2.2137,-0.38042
0.2226,0.88722,-0.40409,-0.56474,3.82863,0.78333
0.21704,0.91343,-0.34428,0.90446,1.67883,0.44481
0.22751,0.9336,-0.27681,1.26245,-0.73574,-0.05621
0.21254,0.95456,-0.20889,1.06432,-0.44636,0.45509
0.15797,0.97736,-0.14078,0.99702,0.13054,0.11458
0.0813,0.99419,-0.0706,0.60946,0.9428,-0.05542
0.02553,0.99963,-0.00982,0.10262,1.08762,0.02324
-0.01701,0.9978,0.06404,-0.3095,0.06719,-0.54172
-0.06144,0.99162,0.11368,-0.30584,0.0974,-0.72159
-0.08981,0.98458,0.1501,-0.34389,-0.00074,-0.19874
-0.11127,0.98095,0.15923,0.07491,-0.51885,0.08651
-0.12353,0.98132,0.14749,0.44627,-1.06028,0.00452
-0.1172,0.98537,0.1237,0.62353,-1.33807,-0.39445
-0.092,0.9921,0.08532,0.67394,-0.90979,-0.48036
-0.05597,0.99798,0.03013,0.47259,-0.72903,-0.0282
-0.0217,0.99891,-0.04124,0.10448,-0.37088,0.09888
0.01519,0.99216,-0.12403,-0.00436,0.04765,-0.03137
0.04506,0.9691,-0.24252,0.81468,2.24147,0.15962
0.04643,0.92723,-0.37161,0.10726,3.37596,0.70066
0.0609,0.87937,-0.47223,-0.91559,0.94583,0.00517
0.08636,0.84307,-0.53083,-0.7731,1.00529,-0.53207
0.13365,0.81639,-0.56182,-0.42553,0.98764,-0.2342
0.19411,0.7995,-0.56843,-0.47773,0.9508,0.18359
0.22279,0.79907,-0.55844,0.04332,-0.20944,0.09854
0.23987,0.81033,-0.53462,0.192,-1.32149,0.16931
0.25431,0.82476,-0.50507,0.3264,-1.53449,0.3127
0.25255,0.83798,-0.48374,-0.41361,-1.23126,0.45587
0.22808,0.85293,-0.46956,-0.54107,-1.49647,0.6787
0.2038,0.87052,-0.44795,-0.50999,-1.51386,0.73085
0.20136,0.88791,-0.4136,-0.54454,-1.13434,0.66647
0.21168,0.90304,-0.37378,-0.45292,-0.81445,0.64427
0.22906,0.91026,-0.34491,-0.49326,-0.50416,0.56567
0.26,0.8991,-0.35217,-0.47534,0.54971,0.01389
0.29365,0.8889,-0.3516,-1.24639,2.38875,0.20799
0.29396,0.90417,-0.30994,-0.62213,4.29184,0.77945
0.27505,0.93063,-0.24141,1.03119,-0.17172,0.01961
0.25566,0.95259,-0.16494,1.00338,-0.59537,0.40494
0.20302,0.97495,-0.0908,0.90037,-0.32012,0.32399
0.12257,0.99211,-0.02638,1.17136,0.84514,0.01577
0.05788,0.99778,0.03302,0.58303,1.22637,-0.14644
0.01846,0.99483,0.09985,0.05814,0.8074,-0.20144
-0.02515,0.98859,0.14855,-0.35082,0.1458,-0.61995
-0.0575,0.98214,0.17913,-0.27134,0.23946,-0.38781
-0.08615,0.9785,0.18737,-0.073,-0.07953,-0.19542
-0.10803,0.97883,0.17382,0.52619,-1.0954,0.00837
-0.1112,0.98186,0.15358,0.67374,-1.47185,-0.19317
-0.08916,0.98869,0.1206,0.74418,-1.42439,-0.33324
-0.05045,0.9965,0.06666,0.30106,-0.7292,-0.44754
-0.01216,0.99992,-0.0034,0.13928,-0.64991,0.14662
0.01998,0.99619,-0.0849,0.06869,-0.47454,0.60006
0.05017,0.98,-0.19259,0.15349,1.36011,-0.64072
0.04637,0.94229,-0.33158,0.55411,4.03852,0.28049
0.06163,0.8934,-0.44501,-0.29767,2.43957,0.85455
0.09609,0.85408,-0.51119,-1.00715,1.00922,-0.574
0.14738,0.82643,-0.5434,-0.16319,0.91444,-0.18179
0.21767,0.80026,-0.55876,-0.26862,0.9721,0.43544
0.24429,0.78433,-0.57021,0.2002,0.59236,0.08689
0.24536,0.7871,-0.56592,0.10513,-0.55732,0.22313
0.2442,0.79672,-0.55282,0.29117,-1.35369,0.40092
0.23406,0.81135,-0.53566,-0.07589,-1.55341,0.36325
0.20724,0.82891,-0.51958,-0.40159,-1.39841,0.56236
0.17172,0.84702,-0.50306,-0.4543,-1.4993,0.67965
0.15812,0.8644,-0.47729,-0.43449,-1.29168,0.7126
0.1701,0.87867,-0.4461,-0.30068,-0.81642,0.35155
0.19889,0.88721,-0.41629,-0.19932,-0.73186,0.30551
0.24362,0.89069,-0.38382,-0.15358,-0.76606,0.32056
0.29163,0.8963,-0.33407,-1.06711,-0.60196,0.12031
0.29952,0.88811,-0.34864,-0.67556,0.56006,-1.55916
0.24192,0.90737,-0.34373,0.44809,2.39162,0.60781
0.25887,0.92655,-0.27292,1.48672,0.07216,-0.02051
0.28958,0.93484,-0.20548,1.14537,-0.6419,-0.12134
0.27363,0.94784,-0.16347,0.92784,-0.25782,0.07915
0.21228,0.97034,-0.11565,0.87259,0.12715,0.3344
0.13131,0.99003,-0.05097,0.66232,0.46522,0.14699
0.06119,0.99809,0.00801,-0.17711,0.96905,-0.01016
0.01235,0.99611,0.0872,-0.17348,0.20951,-0.343
-0.03549,0.9897,0.13865,-0.02243,0.06266,-0.62622
-0.07024,0.98426,0.16217,-0.3009,0.0962,-0.25425
-0.0968,0.98188,0.16294,0.189,-0.53228,0.08176
-0.11299,0.98271,0.14668,0.37566,-0.84843,0.02075
-0.10977,0.98651,0.12141,0.63759,-1.40174,-0.28332
-0.08494,0.99284,0.08394,0.67312,-1.15561,-0.32735
-0.04956,0.99828,0.03126,0.5249,-1.00205,-0.31159
-0.01421,0.99923,-0.03659,0.03194,-0.55387,0.33967
0.01837,0.99325,-0.11451,-0.23093,-0.26092,0.04662
0.05084,0.97477,-0.21735,-0.04977,0.19201,-0.0482
0.05265,0.93205,-0.3585,0.41125,5.62386,0.65914
0.06907,0.88566,-0.45916,-0.85998,0.55824,-0.20808
0.09702,0.85011,-0.51759,-1.26033,0.55577,-0.61329
0.14048,0.82334,-0.54989,-0.32245,1.05513,0.09233
0.19849,0.79814,-0.56884,0.10348,0.92905,-0.24889
0.22422,0.78736,-0.57427,0.2852,0.73316,-0.06513
0.22994,0.79656,-0.55913,0.09392,-0.82411,0.14596
0.23692,0.80964,-0.53698,0.24919,-1.37312,0.30068
0.23343,0.82443,-0.51558,0.00873,-1.42824,0.3435
0.2125,0.83928,-0.50046,-0.52821,-1.27347,0.58896
0.17963,0.85624,-0.48435,-0.54969,-1.42136,0.76035
0.16685,0.8741,-0.45618,-0.48553,-1.31371,0.73842
0.17764,0.88916,-0.42171,-0.35687,-0.93198,0.39514
0.2024,0.89789,-0.39092,-0.22068,-0.76331,0.41172
0.24014,0.90071,-0.36202,-0.54941,-0.62178,0.88919
0.27148,0.89646,-0.35023,-0.74815,0.17114,-0.93254
0.27064,0.89559,-0.35311,-1.67025,6.04759,0.4892
0.23323,0.92624,-0.29611,-0.40443,3.76286,0.9985
0.23974,0.93784,-0.25097,1.3494,-0.43532,-0.36201
0.23038,0.95501,-0.18677,0.80885,-0.39513,0.53293
0.17765,0.97644,-0.12252,0.44538,-0.042,0.47993
0.10399,0.99329,-0.05071,0.35786,0.6618,-0.02931
0.04724,0.99875,0.01602,0.11605,1.54629,-0.10169
-0.00107,0.99568,0.09284,-0.14131,0.34879,-0.33332
-0.05182,0.98904,0.13824,0.3195,0.21127,-0.57046
-0.08926,0.98249,0.16352,0.13574,0.10288,-0.35167
-0.11595,0.979,0.16768,0.29663,-0.1929,-0.15859
-0.12759,0.98009,0.15212,0.61464,-1.11243,-0.09406
-0.11753,0.98444,0.1306,0.7117,-1.36689,-0.28102
-0.08618,0.99189,0.09344,0.68493,-1.25053,-0.30496
-0.04782,0.99822,0.03555,0.20604,-0.88389,-0.28025
-0.01259,0.99919,-0.03821,-0.02174,-0.63068,0.28058
0.0164,0.99235,-0.12233,-0.1694,-0.43698,0.41606
0.04225,0.97277,-0.22789,0.33084,1.67988,-0.51965
0.04226,0.92935,-0.36678,0.44777,3.94262,0.43624
0.06209,0.87871,-0.47329,-0.59865,2.16024,0.45497
0.10313,0.83514,-0.54028,-0.77449,1.01305,-0.44033
0.15319,0.80156,-0.57796,-0.02742,1.13951,-0.20027
0.1992,0.76905,-0.60735,0.01791,1.16572,-0.11936
0.21284,0.75125,-0.62476,0.11385,0.43799,-0.19188
0.20474,0.76189,-0.6145,0.25285,-0.76756,-0.02294
0.20606,0.78195,-0.5883,0.28599,-1.21496,-0.05785
0.20127,0.80526,-0.55772,0.08799,-1.50699,0.26353
0.17994,0.82132,-0.54135,-0.31074,-1.1319,0.66593
0.14793,0.83112,-0.53606,-0.29329,-1.2509,0.75269
0.13528,0.84113,-0.52365,-0.44918,-1.24283,0.8132
0.14947,0.85552,-0.49573,-0.46915,-0.93012,0.54879
0.1824,0.86763,-0.46255,-0.36514,-0.8369,0.38272
0.23413,0.87444,-0.4249,-0.32043,-0.79163,1.00891
0.29265,0.8771,-0.38084,-0.6462,0.25549,-1.21785
0.30315,0.86076,-0.40889,-0.65669,0.27184,-1.18981
0.25824,0.88475,-0.38799,-0.52208,3.11882,0.73589
0.25348,0.91336,-0.31863,1.31667,0.43347,0.06103
0.25222,0.93454,-0.25103,1.32673,-0.23923,-0.07853
0.22279,0.95525,-0.19456,0.70453,0.06507,0.28697
0.16224,0.97851,-0.12726,0.72109,0.28658,0.10479
0.08512,0.9949,-0.05414,0.78301,0.56339,0.00031
0.03184,0.99934,0.01766,0.02212,0.99177,0.02963
-0.01454,0.99563,0.0923,-0.22345,-0.0562,-0.51895
-0.05686,0.98942,0.13349,0.01081,-0.0788,-0.60588
-0.08811,0.98344,0.15837,-0.13375,0.15267,-0.33368
-0.11569,0.98121,0.15443,0.26059,-0.45655,0.0222
-0.1286,0.98234,0.1359,0.47078,-0.80265,0.12878
-0.11841,0.98659,0.11235,0.65116,-1.38751,-0.26679
-0.08437,0.99359,0.07517,0.50837,-0.94522,-0.39718
-0.0434,0.99888,0.01899,0.2967,-0.86159,-0.32327
-0.00622,0.99869,-0.05086,0.08108,-0.78717,-0.1107
0.02384,0.99124,-0.1299,-0.00332,-0.51416,0.51449
0.05116,0.97245,-0.22741,-0.16414,0.40644,-0.1942
0.05035,0.93017,-0.36367,0.27538,4.66955,0.83655
0.05919,0.87957,-0.47207,-0.78601,0.41941,-0.12674
0.09204,0.83644,-0.54027,-0.94824,0.81283,-0.56244
0.13673,0.8058,-0.57619,-0.19503,0.95909,-0.24359
0.18671,0.7806,-0.59649,-0.10929,0.91964,-0.0425
0.21506,0.76577,-0.60609,0.17546,0.48577,0.09862
0.21674,0.76999,-0.60011,0.28146,-0.64682,0.03136
0.21977,0.78268,-0.58233,0.33536,-1.29567,0.15058
0.21303,0.79964,-0.56141,-0.03456,-1.29923,0.35069
0.18772,0.81299,-0.5512,-0.34267,-1.17795,0.70958
0.14967,0.82505,-0.54488,-0.46881,-1.30982,0.77634
0.1289,0.84066,-0.526,-0.4181,-1.05401,0.6603
0.1382,0.85635,-0.49757,-0.34713,-0.74807,0.43666
0.17018,0.8682,-0.46613,-0.28612,-0.82886,0.38646
0.21937,0.87494,-0.4317,-0.42509,-0.87787,0.63814
0.27024,0.8752,-0.40124,-0.92862,-0.37425,-0.61835
0.28983,0.85886,-0.42233,-1.32264,3.48404,0.37887
0.27734,0.88888,-0.36465,-1.38088,5.49303,0.51117
0.27506,0.90984,-0.31069,1.51374,0.06474,-0.32035
0.27372,0.92817,-0.25215,1.14783,-0.783,0.29687
0.24562,0.94761,-0.20422,1.02549,-0.68261,0.38514
0.18232,0.97233,-0.14603,0.72089,0.12783,0.24671
0.10437,0.99158,-0.07669,0.43667,1.0094,-0.07569
0.04394,0.99896,-0.01218,0.34193,1.41985,0.2116
-0.00501,0.99795,0.06387,-0.15913,0.00341,-0.46734
-0.0503,0.99223,0.11384,-0.4379,0.39632,-0.55741
-0.07946,0.98637,0.1441,-0.40874,0.40218,-0.58767
-0.10477,0.98368,0.14628,0.09473,-0.4114,0.06119
-0.12162,0.98425,0.12832,0.47314,-1.28069,-0.10792
-0.11931,0.9873,0.10491,0.47083,-1.28375,-0.08451
-0.09425,0.9929,0.07251,0.62435,-1.26233,-0.39395
-0.05731,0.99813,0.02149,0.29542,-0.8315,-0.21627
-0.02262,0.99868,-0.04604,0.18877,-0.78132,0.07402
0.01171,0.99218,-0.12427,-0.20177,-0.22559,-0.1056
0.04394,0.97282,-0.22734,0.58623,3.13229,0.13053
0.04633,0.93427,-0.35355,0.58385,3.17085,0.25675
0.06363,0.88786,-0.45569,-0.58141,0.88871,0.23156
0.09378,0.84805,-0.52155,-0.74526,1.08444,-0.36423
0.14382,0.81636,-0.55935,-0.01059,1.07949,-0.16809
0.20393,0.78554,-0.58424,0.19983,1.0189,-0.27615
0.22863,0.76521,-0.60181,0.31581,0.18234,-0.0319
0.22192,0.77183,-0.59585,0.29587,-0.35254,-0.02116
0.21152,0.79064,-0.57459,0.24863,-1.34275,0.00815
0.19434,0.81038,-0.55274,-0.27686,-1.32533,0.46872
0.16171,0.82281,-0.54482,-0.3304,-1.2612,0.69679
0.12588,0.83525,-0.53527,-0.44451,-1.48798,0.82167
0.11507,0.85109,-0.51226,-0.37476,-0.99553,0.62305
0.13091,0.86604,-0.48254,-0.41309,-0.89512,0.48637
0.16861,0.87501,-0.45379,-0.36986,-0.73099,0.64763
0.22583,0.87548,-0.42725,-0.71976,-0.4798,0.65287
0.27786,0.86657,-0.41455,-0.79248,-0.11214,-0.49254
0.30323,0.86363,-0.40273,-1.22547,5.17181,0.5922
0.27935,0.89431,-0.34952,1.08484,1.14409,0.07155
0.26965,0.91413,-0.30274,1.13419,0.13154,-0.20671
0.24919,0.93714,-0.24429,0.91393,-0.68612,0.53364
0.19817,0.96123,-0.19173,0.59484,0.08216,0.26623
0.11808,0.98488,-0.12677,0.78727,0.45047,0.0784
0.03744,0.99747,-0.0604,0.50183,1.41824,0.25698
-0.01623,0.9997,0.01833,0.01251,0.14398,-0.385
-0.07162,0.99349,0.08858,0.29067,0.02018,-0.46966
-0.11238,0.98474,0.13291,-0.08489,0.23949,-0.56403
-0.13909,0.97722,0.16028,-0.09925,-0.08733,-0.13157
-0.15726,0.97518,0.15586,0.04581,-0.33507,0.02047
-0.16051,0.97785,0.13436,0.45611,-1.17362,-0.16507
-0.14352,0.98402,0.10537,0.65304,-1.26819,-0.43638
-0.10757,0.99209,0.06468,0.64467,-1.04168,-0.37292
-0.06792,0.99765,0.00889,0.39711,-0.78861,0.17083
-0.03047,0.99775,-0.05967,-0.02887,-0.33187,-0.0164
0.01215,0.98986,-0.14153,-0.12102,-0.07122,0.03454
0.04386,0.96339,-0.26448,0.75517,3.42355,0.39886
0.05495,0.9171,-0.39485,-0.44194,2.38983,0.75479
0.08118,0.86902,-0.48807,-1.03438,1.22177,0.21642
0.12274,0.83592,-0.53494,-0.48386,1.14055,-0.45303
0.17715,0.81061,-0.55815,-0.42903,1.03692,-0.02061
0.22301,0.78981,-0.57137,-0.32783,0.89093,0.01629
0.23517,0.78582,-0.572,0.33369,-0.75995,-0.08278
0.24236,0.79389,-0.55768,0.30505,-1.22751,-0.13951
0.24148,0.81095,-0.53296,0.23573,-1.42509,0.06384
0.21677,0.82578,-0.52068,-0.34898,-1.14865,0.62529
0.17352,0.8384,-0.51669,-0.50044,-1.2727,0.90494
0.14456,0.85206,-0.50308,-0.56418,-1.35989,0.87547
0.15027,0.86673,-0.4756,-0.48368,-1.05907,0.53367
0.1766,0.87845,-0.444,-0.37354,-0.85872,0.36712
0.21806,0.883,-0.41565,-0.37536,-0.80211,0.39769
0.26784,0.8842,-0.38269,-0.95971,-0.47899,0.39607
0.29081,0.87281,-0.39195,-0.72459,0.67986,0.05081
0.27194,0.8979,-0.34614,-1.6279,3.57721,0.61369
0.23665,0.92946,-0.28301,1.2408,1.20642,0.00925
0.2301,0.94605,-0.22813,1.09603,-0.84165,0.43825
0.20792,0.9637,-0.16746,1.03953,-0.66817,0.4837
0.15173,0.9828,-0.10524,0.88892,-0.09088,0.21657
0.0766,0.99641,-0.03601,0.40822,1.19768,-0.20891
0.017,0.99944,0.0289,0.34947,1.43319,0.08064
-0.02403,0.99445,0.10246,-0.27266,-0.00404,-0.58052
-0.06492,0.98665,0.14933,-0.26115,0.19146,-0.72204
-0.09459,0.97962,0.17721,-0.08089,0.10519,-0.29336
-0.11925,0.97624,0.18094,0.28462,-0.57975,-0.09129
-0.12927,0.97712,0.1689,0.62619,-1.20447,-0.05316
-0.11398,0.98215,0.14963,0.67117,-1.42925,-0.21103
-0.07817,0.99067,0.1116,0.54783,-0.95053,-0.45033
-0.03688,0.99783,0.05451,0.22766,-0.73175,-0.25965
-0.00053,0.99984,-0.01786,0.15898,-0.63908,0.22025
0.03247,0.99406,-0.10391,-0.21502,0.30781,-0.30925
0.05481,0.9715,-0.23064,0.66206,3.81998,0.26077
0.04606,0.93009,-0.36443,0.25589,4.8173,0.88454
0.06686,0.88272,-0.46512,-1.30077,0.89641,-0.35434
0.10831,0.84883,-0.51746,-0.59427,1.02209,-0.27531
0.17432,0.81789,-0.54834,-0.33936,0.98331,-0.23238
0.23512,0.78785,-0.56922,0.05745,0.77247,0.07939
0.26607,0.77397,-0.5746,0.24907,0.18904,-0.10295
0.27241,0.78117,-0.56176,0.25834,-0.60562,0.03312
0.26962,0.79321,-0.54601,0.21999,-1.57832,0.5013
0.24745,0.80451,-0.53994,-0.4628,-1.33747,0.54654
0.2028,0.81914,-0.53655,-0.44712,-1.41638,0.764
0.16706,0.83801,-0.51946,-0.5763,-1.63098,0.90187
0.16745,0.86089,-0.48045,-0.6615,-1.1496,0.65913
0.18735,0.881,-0.43444,-0.60961,-0.95212,0.45575
0.22129,0.89041,-0.39774,-0.14104,-0.5271,0.4132
0.2691,0.89516,-0.35536,-0.48715,-0.70268,0.96554
0.29968,0.8978,-0.32271,-0.94747,-0.51485,0.70111
0.27906,0.88622,-0.36978,-1.76568,7.01691,0.2964
0.227,0.92374,-0.3085,0.73812,1.14598,0.46808
0.25904,0.9327,-0.25094,1.1671,0.36102,0.34286
0.25633,0.94764,-0.19043,0.90659,-0.83178,0.11408
0.21331,0.96557,-0.14893,0.84922,-0.26029,0.38945
0.14206,0.98616,-0.08551,0.71942,-0.20529,0.3771
0.05923,0.99799,-0.02248,-0.13698,1.83631,0.10307
-0.01183,0.99904,0.04217,-0.10406,1.57966,-0.01801
-0.06475,0.99221,0.10639,0.10332,0.15985,-0.6709
-0.09913,0.98572,0.13615,-0.06609,0.22722,-0.42869
-0.1215,0.98349,0.13412,0.33895,-0.46127,-0.02425
-0.13525,0.98504,0.10675,0.5132,-0.82537,0.08661
-0.13186,0.98787,0.082,0.70864,-1.3286,-0.11375
-0.10589,0.99301,0.0522,0.75397,-1.29536,-0.22116
-0.07069,0.99746,0.00888,0.58641,-1.11568,-0.18919
-0.03452,0.99815,-0.05012,0.22341,-0.91245,0.08906
0.00143,0.99257,-0.12162,-0.17181,-0.28887,0.0475
0.03884,0.97652,-0.2119,0.03389,0.00523,0.11421
0.05616,0.93757,-0.34323,0.24355,4.62613,0.42275
0.06906,0.88723,-0.45612,-0.64068,1.31189,-0.16528
0.11008,0.84705,-0.51999,-0.8292,0.79013,-0.489
0.1397,0.81714,-0.55926,-0.15244,1.2793,-0.05585
0.17119,0.78689,-0.59288,-0.03593,0.93899,-0.16533
0.18829,0.77152,-0.6077,0.08945,0.64282,-0.22773
0.18322,0.77976,-0.59867,0.02831,-0.74615,-0.00934
0.17966,0.79949,-0.57319,0.1602,-1.41947,-0.00173
0.16846,0.81865,-0.54903,0.22206,-1.41353,0.08541
0.14538,0.82762,-0.54214,-0.29318,-1.114,0.72125
0.11384,0.832,-0.54297,-0.30875,-1.40039,0.91208
0.10448,0.83912,-0.53382,-0.15649,-1.29963,0.86776
0.12413,0.84836,-0.51465,-0.19395,-0.80169,0.44009
0.16597,0.85537,-0.49072,-0.15247,-0.76236,0.36886
0.22187,0.86195,-0.45586,-0.28547,-0.8885,0.57952
0.27381,0.86993,-0.41018,-1.17199,-0.60064,-0.14486
0.27849,0.85259,-0.44219,-1.45852,1.98577,0.56971
0.25066,0.8731,-0.41816,-2.01153,4.30048,0.33625
0.24375,0.90614,-0.34568,1.46286,0.64087,0.18539
0.24656,0.93016,-0.27205,1.2291,-0.47848,0.21204
0.22296,0.95108,-0.21385,1.10488,-0.43714,0.43777
0.16886,0.97365,-0.15328,0.89896,0.22469,0.08787
0.09064,0.99243,-0.0829,0.74332,1.09041,-0.14422
0.02894,0.99946,-0.01566,0.5465,1.536,0.01883
-0.02014,0.9977,0.06465,-0.30507,0.06194,-0.41583
-0.06565,0.9911,0.11577,-0.53882,0.23811,-0.59604
-0.09579,0.9847,0.14558,-0.47356,0.17251,-0.36467
-0.12424,0.98108,0.1485,0.16156,-0.51315,0.05304
-0.14233,0.98037,0.13643,0.7102,-1.35302,-0.15308
-0.13707,0.98364,0.11686,0.70494,-1.35629,-0.13351
-0.10512,0.99124,0.07992,0.8335,-1.10585,-0.51867
-0.06173,0.99792,0.01879,0.32044,-0.71018,-0.2837
-0.02244,0.99819,-0.05585,0.10736,-0.67136,0.28433
0.01163,0.98983,-0.1418,-0.14093,-0.27762,0.01022
0.03936,0.96568,-0.25675,0.39382,1.36722,-0.37429
0.02965,0.91911,-0.39288,0.6134,3.72373,0.32253
0.04216,0.8641,-0.50155,-0.5382,0.883,0.15676
0.07306,0.82041,-0.56709,-0.79458,1.09873,-0.52892
0.11519,0.78604,-0.60734,-0.33329,1.18066,-0.41642
0.15367,0.75536,-0.63703,-0.07051,1.02651,-0.06664
0.16712,0.74453,-0.64634,0.11094,-0.05965,0.18587
0.15421,0.75839,-0.63329,0.1092,-0.63744,0.33543
0.14517,0.78118,-0.6072,0.02198,-1.46152,0.43775
0.1321,0.80253,-0.5818,-0.37527,-1.37513,0.46832
0.10698,0.8181,-0.56504,-0.37748,-1.27072,0.66906
0.08204,0.82969,-0.55217,-0.34799,-1.3537,0.79173
0.08739,0.84434,-0.52863,-0.34279,-0.96873,0.66239
0.11862,0.85834,-0.49917,-0.35485,-0.82822,0.49855
0.17092,0.86443,-0.47281,-0.10714,-0.71819,0.56658
0.23877,0.86359,-0.44408,-0.62896,-0.56506,1.04903
0.29131,0.85682,-0.42545,-0.66261,0.20307,-0.69711
0.30891,0.83972,-0.44659,-1.65625,6.26454,0.03698
0.27364,0.87605,-0.39706,1.04654,1.38105,0.51108
0.28343,0.8954,-0.3434,1.20465,0.20651,-0.08942
0.28382,0.91935,-0.27247,0.98862,-0.6764,0.42582
0.24646,0.94424,-0.21834,0.72074,-0.07234,0.25197
0.17334,0.97394,-0.14629,0.78617,0.11475,0.14553
0.09121,0.99272,-0.07865,0.6297,1.57306,0.28408
0.03076,0.99952,-0.00431,0.02627,0.43901,-0.25889
-0.02386,0.99757,0.06542,-0.04916,0.03525,-0.54669
-0.06404,0.99244,0.10469,-0.3689,0.27144,-0.28856
-0.09015,0.98781,0.12686,-0.17613,0.0198,-0.07735
-0.11279,0.98687,0.11563,0.06009,-0.31347,0.09681
-0.12186,0.98828,0.09192,0.50626,-1.21564,-0.12104
-0.11038,0.99218,0.05828,0.64895,-1.32534,-0.22862
-0.07837,0.99681,0.01494,0.63868,-1.17413,-0.27004
-0.04111,0.99817,-0.04436,0.35091,-0.95538,-0.16104
-0.00687,0.99325,-0.11583,0.19365,-0.79548,0.39304
0.02587,0.97953,-0.19962,-0.18857,-0.25231,0.17206
0.05739,0.94972,-0.30779,0.4863,1.21378,-0.48929
0.06048,0.89291,-0.44615,0.4878,5.33319,0.73627
0.09062,0.836,-0.5412,-0.24822,3.13169,0.63591
0.12482,0.79634,-0.59183,-1.03739,0.84346,-0.63637
0.15762,0.76855,-0.62007,-0.1911,1.08027,-0.11037
0.18978,0.75047,-0.63307,-0.22326,1.09835,-0.09737
0.19729,0.75201,-0.62893,0.16216,0.22678,0.03271
0.19415,0.77347,-0.60337,0.19147,-1.2038,-0.15368
0.1987,0.79957,-0.56675,0.18692,-1.2299,-0.1903
0.19346,0.81896,-0.54026,0.00364,-1.30039,0.21425
0.17281,0.82997,-0.53036,-0.47341,-1.25322,0.82606
0.14394,0.84199,-0.51993,-0.42139,-1.21684,0.82787
0.13555,0.85356,-0.50305,-0.30437,-1.00134,0.62886
0.14692,0.86097,-0.48698,-0.25847,-0.69793,0.43283
0.17372,0.86523,-0.47033,-0.28532,-0.7459,0.42579
0.213,0.87367,-0.43742,-0.34488,-1.0113,0.63034
0.25313,0.88686,-0.38653,-1.19217,-0.56296,0.13743
0.2547,0.885,-0.38976,-0.77771,0.79292,-1.78607
0.19382,0.9066,-0.37484,0.26498,2.27284,0.55312
0.21267,0.92955,-0.30119,1.62903,0.27524,-0.17606
0.25595,0.94217,-0.21636,1.25938,-0.46875,-0.16622
0.26548,0.95303,-0.14583,0.99188,-0.64933,0.16716
0.23477,0.96762,-0.09274,1.19073,0.18625,0.38313
0.16021,0.98644,-0.03556,0.79769,0.66474,0.1816
0.09551,0.99513,0.02459,-0.22246,0.91111,-0.12964
0.04624,0.99428,0.09628,-0.41194,0.24739,-0.25234
-0.00716,0.99071,0.13583,-0.35847,0.33646,-0.48425
-0.0439,0.98734,0.15241,-0.02398,0.03246,-0.12481
-0.06791,0.98652,0.1489,0.23783,-0.34716,-0.01024
-0.07478,0.98836,0.1325,0.53442,-1.20799,-0.24988
-0.05699,0.99271,0.10622,0.6308,-1.36107,-0.35029
-0.01619,0.99796,0.0617,0.51902,-0.93226,-0.2303
0.02704,0.99962,-0.00604,0.18071,-0.48073,0.1084
0.06903,0.99364,-0.08892,-0.03576,0.04765,-0.15806
0.10828,0.97436,-0.19723,0.87847,1.82429,-0.09388
0.11494,0.93479,-0.33608,0.77332,3.79029,0.47905
0.11114,0.88572,-0.45071,-0.95495,0.94118,0.15229
0.12511,0.84067,-0.5269,-0.73746,1.26082,-0.29264
0.15941,0.80059,-0.57762,-0.19514,1.29094,-0.21418
0.21152,0.75912,-0.61563,0.05263,1.09624,-0.11902
0.24641,0.7303,-0.63713,0.24332,0.51515,0.14101
0.24738,0.7327,-0.634,0.12358,-0.18132,0.07844
0.23746,0.75447,-0.61187,0.04031,-1.5271,0.12851
0.21746,0.782,-0.58411,0.00483,-1.5251,0.27918
0.18178,0.80024,-0.57147,-0.38871,-1.19951,0.59716
0.14275,0.80924,-0.56987,-0.51211,-1.50599,0.84773
0.13184,0.81978,-0.55729,-0.40101,-1.05071,0.70695
0.15248,0.83622,-0.52677,-0.43922,-0.92011,0.57905
0.19342,0.84996,-0.49006,-0.23157,-0.73,0.44265
0.24862,0.85564,-0.45394,-0.26233,-0.87614,0.86458
0.30544,0.8654,-0.39722,-0.31915,-0.8859,0.80786
0.32391,0.87197,-0.36708,-1.04425,-0.20209,-0.90029
0.26996,0.86231,-0.42842,-1.65847,5.94564,0.61137
0.2247,0.90549,-0.35998,-0.36568,3.6842,1.26932
0.26734,0.91505,-0.302,1.42913,-0.09209,-0.01974
0.27104,0.93297,-0.23685,0.77973,-0.70336,0.18413
0.2306,0.95447,-0.18922,0.82016,-0.72486,0.1365
0.16337,0.97837,-0.12691,0.45279,0.80934,0.17403
0.08789,0.99384,-0.06751,0.03656,1.43716,0.2881
0.02647,0.99962,0.00725,0.09798,1.43138,0.21333
-0.03036,0.99656,0.07708,-0.05535,0.27123,-0.52806
-0.0756,0.99075,0.1127,-0.13369,0.31339,-0.46488
-0.10812,0.98638,0.12398,0.10801,0.04187,-0.24367
-0.13182,0.98474,0.11359,0.61966,-0.94054,0.02314
-0.13579,0.98574,0.0994,0.6891,-1.41518,-0.28233
-0.1159,0.99031,0.07644,0.74429,-1.4836,-0.29511
-0.08106,0.99604,0.03658,0.46809,-0.92701,-0.21682
-0.04406,0.99878,-0.02234,0.22232,-0.71661,0.33219
-0.00943,0.99547,-0.09465,-0.00894,-0.46432,0.33695
0.02499,0.98261,-0.18401,0.57658,1.57402,-0.57865
0.02695,0.94858,-0.31538,0.4169,5.00779,0.84609
0.0213,0.90188,-0.43147,-0.2467,2.01664,0.98548
0.04915,0.86039,-0.50725,-0.72848,1.1895,-0.22288
0.09555,0.82574,-0.5559,-0.07135,0.99315,0.08036
0.13817,0.79024,-0.59702,-0.22078,0.90983,0.0574
0.16403,0.76493,-0.62288,0.22338,0.37333,-0.08656
0.16643,0.76941,-0.61669,0.01913,-0.43806,-0.12666
0.1632,0.79027,-0.59062,-0.03462,-0.87785,-0.02418
0.15181,0.81,-0.56645,-0.00973,-1.5374,0.50053
0.12591,0.82142,-0.55625,-0.25333,-1.28781,0.65966
0.09541,0.83147,-0.54732,-0.32019,-1.40037,0.74271
0.08651,0.84485,-0.52796,-0.2891,-1.20589,0.70994
0.10229,0.85884,-0.50193,-0.33795,-0.79646,0.4308
0.13708,0.86694,-0.47919,-0.18377,-0.58616,0.39595
0.19393,0.86429,-0.4641,-0.37889,-0.4815,0.84838
0.2572,0.85345,-0.45329,-0.72745,-0.106,-0.36942
0.28919,0.84172,-0.45593,-1.14766,2.09585,0.26196
0.27517,0.86471,-0.4202,0.30767,2.75172,0.54576
0.25257,0.89362,-0.37101,1.04988,0.03411,0.06623
0.23707,0.91967,-0.31307,1.00977,-0.54416,0.08121
0.20227,0.9465,-0.25143,0.73464,-0.13117,0.44901
0.13599,0.97376,-0.18247,0.9162,0.55219,0.19339
0.06456,0.99216,-0.10704,0.9776,1.5056,-0.02599
0.02141,0.99953,-0.02203,0.22237,0.55463,-0.14116
-0.0252,0.99818,0.05485,-0.21191,0.11192,-0.3455
-0.06761,0.9925,0.10181,-0.06851,0.18557,-0.37291
-0.09746,0.98628,0.13327,-0.22646,0.22172,-0.2222
-0.12625,0.98227,0.13859,0.16322,-0.40758,0.08547
-0.1416,0.98182,0.1264,0.47881,-0.97636,-0.03369
-0.13361,0.98555,0.10409,0.52932,-1.27127,-0.37918
-0.09981,0.99297,0.06359,0.49944,-0.84182,-0.31416
-0.05917,0.99825,0.00159,0.32971,-0.78392,-0.12638
-0.02398,0.99688,-0.07521,0.05743,-0.57862,0.39807
0.01072,0.98721,-0.15906,0.23084,0.35179,-0.28182
0.03367,0.96067,-0.27564,0.75367,1.88675,0.03685
0.0235,0.91317,-0.40691,0.18234,3.93127,0.65029
0.03328,0.86179,-0.50617,-1.02043,0.9435,-0.4687
0.06045,0.82403,-0.56331,-0.79539,1.17984,-0.27582
0.10407,0.78822,-0.60653,-0.24718,1.03725,0.16134
0.14752,0.75275,-0.64156,0.19097,0.74641,-0.01662
0.15777,0.74138,-0.65227,0.16945,0.31614,-0.04951
0.15407,0.76002,-0.63137,0.07754,-1.14541,0.09791
0.14933,0.78875,-0.5963,0.07878,-1.43324,0.22804
0.12986,0.81163,-0.56956,-0.10115,-1.54208,0.31847
0.09609,0.82519,-0.55663,-0.31862,-1.34957,0.6012
0.06533,0.83565,-0.54536,-0.1303,-1.27738,0.77689
0.06121,0.84614,-0.52944,-0.10116,-1.08655,0.66172
0.07828,0.85402,-0.51432,0.16293,-0.60797,0.30554
0.1195,0.85579,-0.50332,0.02028,-0.72594,0.5899
0.1861,0.85644,-0.48155,-0.55229,-0.68691,1.32551
0.23796,0.85216,-0.46604,-0.75133,0.07542,-0.69579
0.24034,0.8472,-0.47381,-1.7483,5.77896,0.57558
0.2026,0.87921,-0.4312,-0.57529,3.35121,0.60938
0.21154,0.89985,-0.38148,0.99101,-0.61634,-0.00634
0.21413,0.92765,-0.30598,0.87572,-0.66428,0.68678
0.18417,0.9534,-0.239,0.85027,-0.19331,0.5403
0.10889,0.97966,-0.16853,0.99686,0.82774,0.00136
0.03398,0.9945,-0.09905,0.63471,1.49843,0.10489
-0.01975,0.99965,-0.01791,0.24062,0.93946,0.12545
-0.07357,0.99564,0.05743,0.3053,0.00791,-0.43467
-0.1124,0.98849,0.10125,0.03129,0.07645,-0.59854
-0.13945,0.98193,0.1279,-0.1436,0.08209,-0.44795
-0.15789,0.97964,0.124,0.25701,-0.51953,0.1276
-0.15899,0.98177,0.10411,0.35643,-1.03642,-0.13534
-0.13913,0.98757,0.07316,0.4706,-1.23015,-0.38746
-0.10283,0.99432,0.02731,0.53782,-0.96303,-0.26525
-0.06398,0.99736,-0.03421,0.34164,-0.75759,0.19423
-0.02923,0.99367,-0.10844,0.30689,-0.7539,0.26846
0.00534,0.98082,-0.19483,0.06922,0.14184,0.08707
0.02138,0.94676,-0.32123,1.3022,5.1274,0.57041
0.01811,0.89096,-0.45372,1.30547,5.1832,0.70289
0.03618,0.83997,-0.54142,-1.36455,0.99244,-0.32788
0.06548,0.80706,-0.58683,-1.08949,1.13836,-0.409
0.11367,0.78317,-0.61133,-0.6728,1.15784,-0.213
0.15884,0.76941,-0.61869,-0.21244,0.71329,0.05995
0.17736,0.77236,-0.60993,0.03919,-0.70413,0.08184
0.19947,0.78876,-0.58143,0.01708,-0.72054,0.05334
0.2142,0.80748,-0.54963,0.08118,-1.63357,0.26066
0.20732,0.82171,-0.53086,-0.33047,-1.24311,0.63151
0.17593,0.8337,-0.52344,-0.41873,-1.42847,0.75946
0.14772,0.8484,-0.50832,-0.44316,-1.38913,0.79926
0.14164,0.8642,-0.48281,-0.44766,-0.9449,0.55378
0.15162,0.875,-0.45977,-0.23962,-0.67512,0.44257
0.17494,0.87948,-0.44261,-0.43463,-0.50611,0.79138
0.21348,0.87964,-0.42504,-0.58692,-0.29988,0.48078
0.24761,0.8732,-0.41979,-0.6344,0.22701,-0.25441
0.25085,0.87714,-0.40952,-0.73696,4.53291,1.03747
0.22191,0.9054,-0.36194,0.27181,1.34878,0.54616
0.22436,0.92441,-0.30842,0.9079,-0.47181,-0.1067
0.21449,0.94814,-0.23456,0.84879,-0.53454,0.52547
0.16751,0.97124,-0.16922,0.89937,0.36059,0.40994
0.09169,0.99105,-0.09705,1.11557,0.74299,0.17303
0.03282,0.99915,-0.02482,0.07694,0.95617,-0.00551
-0.01678,0.99855,0.05117,-0.23582,0.26988,-0.50412
-0.07209,0.99312,0.09232,0.15181,0.33524,-0.58871
-0.11189,0.98685,0.11666,0.07113,0.3271,-0.42679
-0.14285,0.98265,0.11833,0.2987,-0.09034,-0.19488
-0.15952,0.98208,0.10036,0.7112,-1.11532,0.06224
-0.15358,0.98499,0.07875,0.80638,-1.51258,-0.24875
-0.12269,0.99138,0.0459,0.84281,-1.43474,-0.38428
-0.08272,0.99654,-0.00786,0.41175,-0.82912,-0.06442
-0.04607,0.9959,-0.07786,0.08297,-0.51,0.25066
-0.013,0.98757,-0.15667,0.01472,0.01536,-0.01458
0.01065,0.96475,-0.26295,0.85494,2.04944,-0.04504
0.00404,0.92066,-0.39034,-0.23344,4.10435,0.96351
0.02078,0.87134,-0.49024,-1.09934,0.95219,-0.34361
0.05235,0.83255,-0.55148,-0.66709,1.26308,-0.12217
0.10589,0.80075,-0.58956,-0.19517,1.08819,0.06913
0.1603,0.76884,-0.61902,0.24191,0.8489,-0.10524
0.17389,0.75749,-0.62927,0.22832,0.86025,-0.09499
0.1646,0.77196,-0.614,0.03795,-0.97568,0.0782
0.15591,0.79726,-0.58316,0.19057,-1.60599,0.20743
0.13577,0.81867,-0.55799,-0.09757,-1.38156,0.17727
0.10061,0.82833,-0.55114,-0.23478,-1.18212,0.77716
0.06921,0.83391,-0.54754,-0.28967,-1.19138,0.75797
0.06599,0.84347,-0.53311,-0.28645,-1.20094,0.74355
0.08601,0.85441,-0.51243,-0.19306,-0.69009,0.3873
0.12705,0.86031,-0.49368,-0.21889,-0.70033,0.62426
0.18532,0.86156,-0.47263,-0.44269,-0.73319,1.11731
0.23904,0.85651,-0.45744,-0.74237,-0.00807,-0.77121
0.25682,0.83867,-0.4803,-1.50572,5.1837,0.41101
0.24125,0.87397,-0.42187,0.21245,4.11086,0.48672
0.23597,0.89625,-0.37558,1.30886,-0.36772,-0.09011
0.23544,0.91995,-0.31347,0.90495,-0.6902,0.43935
0.20735,0.94398,-0.25673,0.80121,-0.25067,0.45003
0.14176,0.97147,-0.19015,0.70887,0.56561,0.06209
0.06096,0.99103,-0.1189,0.54057,1.61303,0.16011
-0.00218,0.99909,-0.04255,0.23394,1.22909,0.22668
-0.05772,0.99765,0.03702,0.01814,0.04285,-0.57989
-0.1036,0.9911,0.08357,-0.30073,0.22441,-0.54463
-0.13518,0.98463,0.11057,-0.18304,0.12677,-0.23986
-0.16217,0.98124,0.10427,0.19941,-0.46055,0.18471
-0.1745,0.98115,0.08305,0.65451,-1.28282,-0.1519
-0.16358,0.98511,0.05282,0.70307,-1.39942,-0.24358
-0.13009,0.9914,0.0139,0.71131,-1.0169,-0.34859
-0.09104,0.99506,-0.03946,0.38682,-0.8343,0.18321
-0.05591,0.9927,-0.10685,0.1935,-0.65168,0.33664
-0.0185,0.98301,-0.18261,0.30675,0.1131,0.02355
0.00991,0.95735,-0.28875,0.75527,3.19635,0.22788
0.0119,0.91208,-0.40983,0.52452,4.35793,0.54466
0.0325,0.86332,-0.50362,-0.88583,1.02774,-0.25668
0.05806,0.82652,-0.5599,-0.36026,1.32968,-0.24256
0.09381,0.79915,-0.59376,-0.30399,1.2606,-0.0468
0.12595,0.77778,-0.61579,-0.10285,0.72192,0.02914
0.13089,0.77313,-0.6206,0.00404,-0.05461,-0.08544
0.13552,0.78428,-0.60542,0.02436,-0.55477,-0.14125
0.14274,0.80145,-0.58078,0.19645,-1.41191,0.33611
0.1364,0.81137,-0.56839,-0.32093,-1.23755,0.44946
0.10945,0.81866,-0.56376,-0.39973,-1.20205,0.64811
0.08783,0.82859,-0.55292,-0.2184,-1.48962,0.83821
0.09827,0.84295,-0.52895,-0.13738,-1.13544,0.62006
0.13047,0.85612,-0.50004,-0.11145,-0.95988,0.5341
0.17629,0.8636,-0.47234,-0.11245,-0.84864,0.61221
0.23039,0.87257,-0.43075,-0.36212,-0.88407,0.97631
0.25127,0.86947,-0.42529,-0.63427,0.04158,-1.06456
0.243,0.86864,-0.43175,-1.90337,5.65637,0.89661
0.20761,0.91009,-0.35866,0.71782,1.78971,0.3617
0.22102,0.92865,-0.29791,1.15474,0.19127,-0.17163
0.21625,0.9496,-0.22692,0.94801,-0.77374,0.43986
0.17893,0.96953,-0.1673,1.12599,0.60339,0.30316
0.10783,0.98894,-0.1018,1.15957,0.87162,0.03025
0.04428,0.99829,-0.03807,0.2426,1.27218,0.13838
-0.00832,0.99923,0.03822,-0.18623,0.12331,-0.43135
-0.06532,0.99369,0.09116,0.10144,0.15784,-0.61689
-0.10528,0.98689,0.12232,-0.20179,0.25299,-0.57707
-0.13604,0.9818,0.13255,0.42179,-0.56343,0.01729
-0.15602,0.97992,0.12413,0.64125,-0.87543,0.0724
-0.15526,0.9819,0.1085,0.8544,-1.40263,-0.28947
-0.12936,0.98837,0.07994,0.75156,-0.95607,-0.50569
-0.08953,0.99555,0.02944,0.50996,-0.7963,-0.36741
-0.04962,0.99795,-0.04044,0.1566,-0.45506,0.49383
-0.0163,0.99243,-0.12174,0.0235,0.26346,-0.09489
0.01108,0.97344,-0.22866,0.53195,0.98681,-0.40929
0.00323,0.93226,-0.36178,0.8405,4.92974,0.8832
0.00457,0.87905,-0.47671,-1.06716,1.00766,0.05685
0.02838,0.83334,-0.55204,-1.06587,1.27682,-0.16885
0.07536,0.79454,-0.60252,-0.3216,1.0044,-0.18369
0.12676,0.75893,-0.63872,-0.16531,0.98416,-0.14328
0.1598,0.74048,-0.65281,0.09821,0.81461,-0.05581
0.1726,0.75132,-0.63696,0.17732,-0.40678,-0.12887
0.18335,0.77697,-0.60224,0.23354,-1.70724,0.26002
0.1773,0.80108,-0.5717,0.19955,-1.72917,0.23353
0.14259,0.81882,-0.55607,-0.21447,-1.35228,0.73447
0.10014,0.83339,-0.54354,-0.34785,-1.45997,0.83193
0.08362,0.84785,-0.5236,-0.2965,-1.31571,0.68449
0.08886,0.85965,-0.50309,-0.38775,-0.87404,0.39754
0.11158,0.86605,-0.48734,-0.31055,-0.74797,0.31507
0.15371,0.86947,-0.46947,-0.23903,-0.75956,0.49837
0.20635,0.87056,-0.44671,-0.76964,0.23337,-0.8159
0.23112,0.85184,-0.47006,-1.24204,2.79496,0.30842
0.21514,0.87174,-0.44021,-1.86677,5.92779,0.05609
0.22614,0.89721,-0.37931,1.61142,0.25745,-0.00175
0.2456,0.91912,-0.30806,1.26527,-0.74947,0.21335
0.2357,0.94056,-0.24454,1.04776,-0.80645,0.38602
0.1796,0.96497,-0.19124,0.78555,0.16418,0.28951
0.09985,0.98683,-0.12729,0.58018,1.13128,-0.05759
0.03889,0.99732,-0.062,0.43834,1.46682,0.00403
-0.00652,0.99978,0.01973,-0.11236,0.10332,-0.42733
-0.05213,0.99577,0.07573,-0.01667,0.13345,-0.69865
-0.08124,0.99024,0.11325,-0.26631,0.23146,-0.61999
-0.10695,0.9866,0.12322,0.21564,-0.44197,0.1092
-0.12347,0.98649,0.10764,0.4343,-1.00365,0.02343
-0.11926,0.98957,0.08073,0.52014,-1.2494,-0.13356
-0.09102,0.99493,0.04269,0.71961,-1.07046,-0.36968
-0.05132,0.99859,-0.01361,0.3279,-0.73579,0.20216
-0.01421,0.99625,-0.08535,0.14486,-0.56427,0.34096
0.02207,0.98559,-0.16773,0.28987,0.22308,-0.19676
0.04959,0.95821,-0.28172,0.72114,3.79417,0.43564
0.04632,0.90955,-0.413,0.72441,3.84283,0.56692
0.06296,0.85469,-0.5153,-0.88234,0.88054,0.0986
0.08944,0.81452,-0.57321,-0.25539,1.17239,-0.21816
0.13089,0.78076,-0.61097,-0.29685,1.20615,-0.1804
0.17688,0.75078,-0.63643,-0.07157,0.87721,-0.05291
0.19947,0.74155,-0.64055,0.11405,-0.1482,-0.12594
0.21177,0.756,-0.61937,0.10176,-0.16265,-0.14713
0.22512,0.77876,-0.58554,0.20773,-1.61282,0.02725
0.21616,0.7989,-0.56128,-0.28349,-1.09245,0.48806
0.18391,0.81417,-0.55074,-0.31118,-1.15627,0.7182
0.14746,0.82699,-0.54253,-0.42732,-1.30575,0.83126
0.13616,0.8384,-0.52777,-0.28927,-0.95716,0.59832
0.15001,0.84649,-0.51083,-0.29943,-0.85914,0.51845
0.18516,0.85057,-0.49218,-0.22994,-0.7219,0.51675
0.23868,0.85556,-0.45941,-0.93325,-0.52639,0.84034
0.27172,0.85148,-0.44849,-1.04831,-0.23434,-0.59454
0.27718,0.84666,-0.45425,-1.65394,5.0821,0.68229
0.26195,0.88447,-0.38612,1.06361,1.60364,0.1977
0.27562,0.9065,-0.31982,1.29393,0.18134,0.00943
0.28374,0.92796,-0.24162,0.97709,-0.68126,0.54393
0.26539,0.9477,-0.17729,0.93797,0.12928,0.02856
0.19923,0.97381,-0.10953,1.16265,0.33864,0.05774
0.12491,0.99084,-0.05129,0.79089,1.29781,0.30264
0.07235,0.99717,0.02043,0.0647,0.26948,-0.45372
0.01436,0.99671,0.07978,-0.00112,0.08531,-0.55726
-0.02867,0.99313,0.11348,-0.34625,0.41915,-0.50641
-0.05512,0.98946,0.13393,-0.18627,-0.01921,-0.19176
-0.07865,0.98856,0.12869,0.30872,-0.74122,0.11235
-0.08818,0.98976,0.11227,0.65406,-1.33949,-0.11243
-0.07587,0.99362,0.08346,0.79664,-1.37909,-0.47569
-0.04312,0.9984,0.03651,0.56936,-0.88865,-0.32595
-0.00299,0.99957,-0.02904,0.24458,-0.79225,-0.15399
0.03365,0.994,-0.10407,0.05964,-0.57627,0.49319
0.0685,0.97903,-0.19188,-0.21487,0.18063,-0.07896
0.08832,0.9428,-0.32144,0.8177,3.1137,-0.04995
0.08216,0.88621,-0.45593,-0.01803,3.63797,0.81393
0.10098,0.83083,-0.54728,-0.62898,1.22799,0.43006
0.13603,0.7924,-0.59464,-0.5108,1.0757,-0.32275
0.18576,0.7582,-0.625,-0.29543,0.91552,-0.01993
0.22772,0.73035,-0.644,-0.24038,0.99455,-0.02947
0.24077,0.7242,-0.64619,0.17777,0.17009,-0.04053
0.24366,0.7371,-0.63033,0.2277,-1.57301,0.18565
0.23512,0.75906,-0.60708,0.23624,-1.59497,0.1624
0.20587,0.77935,-0.5918,-0.33957,-1.10677,0.77262
0.16278,0.79283,-0.5873,-0.4162,-1.19554,0.90034
0.13486,0.80404,-0.57908,-0.51643,-1.25955,0.91025
0.14282,0.816,-0.56014,-0.40719,-0.93941,0.62304
0.17561,0.82448,-0.53796,-0.2387,-0.7939,0.38632
0.2293,0.8285,-0.51089,-0.24505,-0.75154,0.46035
0.2953,0.83304,-0.4678,-0.73321,-0.71317,1.20512
0.3255,0.82221,-0.46693,-1.01463,0.69588,0.45662
0.33493,0.81898,-0.46593,-1.75816,3.05547,0.75031
0.31385,0.87157,-0.37665,0.48247,3.40068,0.47404
0.31729,0.89277,-0.31983,1.26246,-0.36608,0.10757
0.32101,0.91262,-0.25312,1.07637,-0.59696,0.3577
0.29266,0.93465,-0.20196,1.11138,0.1001,0.02688
0.22549,0.96402,-0.1408,1.149,0.11495,0.1423
0.1496,0.98545,-0.08065,0.69559,0.83617,-0.02259
0.08894,0.99592,-0.01535,0.03284,1.00987,0.0994
0.03249,0.99805,0.0533,-0.162,0.10847,-0.58694
-0.01436,0.9952,0.09682,-0.34695,0.25721,-0.74946
-0.04408,0.99145,0.12281,0.0954,-0.46052,0.16247
-0.07024,0.99052,0.11807,0.37154,-0.81852,0.16982
-0.08421,0.99144,0.09974,0.63012,-1.41062,-0.15876
-0.07434,0.9949,0.06811,0.7121,-1.38199,-0.44012
-0.04335,0.99884,0.02115,0.67137,-1.11065,-0.35541
-0.00605,0.99909,-0.04214,0.32207,-0.817,0.2196
0.03323,0.99277,-0.11537,-0.15976,-0.41196,-0.05323
0.07783,0.97663,-0.20036,-0.14076,-0.16553,0.03268
0.10962,0.93931,-0.32508,0.82119,3.58512,0.12025
0.11815,0.8839,-0.4525,-0.16633,2.60224,0.65165
0.13526,0.83026,-0.54071,-0.7633,0.49774,-0.37633
0.16154,0.78952,-0.59209,-0.67519,0.8552,-0.37384
0.19619,0.75309,-0.62799,-0.30401,0.99762,0.02834
0.22938,0.72619,-0.6481,0.06578,0.91553,0.00796
0.23946,0.72493,-0.64587,0.16307,0.5001,-0.13035
0.2371,0.7433,-0.62554,-0.09872,-1.22329,0.02377
0.23165,0.76755,-0.59766,0.0264,-1.5539,0.03348
0.20826,0.78933,-0.57757,-0.24398,-1.2093,0.47294
0.16812,0.80551,-0.56824,-0.32016,-1.27003,0.81773
0.13933,0.81936,-0.5561,-0.37825,-1.2681,0.80309
0.14002,0.83275,-0.53565,-0.21364,-0.92449,0.6135
0.15866,0.84198,-0.51565,-0.19852,-0.65637,0.41183
0.19682,0.84547,-0.49642,-0.27748,-0.77925,0.83027
0.25253,0.84803,-0.46591,-0.58379,-0.71926,1.31614
0.29362,0.84457,-0.44776,-0.83271,1.15229,-0.52667
0.30481,0.82872,-0.46937,-2.05722,4.82611,0.95689
0.30343,0.87113,-0.38608,-1.29583,4.79209,0.56073
0.33046,0.89137,-0.31024,1.30975,-0.09364,0.01056
0.33625,0.91285,-0.23162,0.9546,-0.71791,0.35711
0.30389,0.93502,-0.18275,0.93177,-0.41669,0.29658
0.23555,0.96375,-0.12531,0.7577,0.3298,0.25204
0.15621,0.98565,-0.06393,0.41781,0.93444,-0.16415
0.09345,0.99561,-0.00449,0.18914,0.9537,0.2377
0.04299,0.99714,0.06217,0.14632,0.08038,-0.5036
0.00095,0.99479,0.10193,0.02495,0.06977,-0.9585
-0.02403,0.99141,0.12853,-0.22826,0.22343,-0.30717
-0.04304,0.99065,0.12946,0.12788,-0.4288,0.05543
-0.04961,0.99174,0.11827,0.65311,-1.3206,-0.09732
-0.0341,0.99528,0.09085,0.70553,-1.48014,-0.23771
0.00183,0.99904,0.04385,0.66316,-1.02844,-0.32452
0.04313,0.99879,-0.02386,0.1571,-0.76586,-0.0604
0.08244,0.99117,-0.10384,0.04238,-0.63695,0.34988
0.11987,0.9729,-0.1977,-0.36775,-0.17649,0.0485
0.14669,0.93422,-0.32513,0.63805,3.59341,0.07203
0.14486,0.87704,-0.45806,0.25345,4.91532,0.92346
0.17025,0.81624,-0.55207,-1.00823,0.21053,-0.53994
0.20464,0.77058,-0.6036,-0.3948,0.99175,-0.49106
0.25257,0.73291,-0.6317,-0.1497,1.03371,-0.31619
0.30367,0.70451,-0.64145,-0.08288,1.23739,-0.1974
0.32972,0.69888,-0.63471,-0.02989,0.9184,-0.16952
0.33527,0.71329,-0.61548,0.19113,-1.29873,0.07395
0.33453,0.73477,-0.59009,0.20244,-1.64213,-0.14987
0.31696,0.76014,-0.56721,0.02009,-1.23977,0.47562
0.27447,0.7836,-0.55735,-0.32467,-1.33285,0.90922
0.23662,0.8035,-0.54625,-0.6261,-1.28661,0.75649
0.22733,0.82242,-0.52148,-0.59626,-1.1269,0.68705
0.23805,0.83622,-0.49403,-0.48806,-0.69346,0.55302
0.26413,0.84329,-0.46808,-0.60834,-0.61828,0.72444
0.30378,0.84547,-0.4392,-1.03401,-0.30487,0.44484
0.31871,0.83295,-0.45235,-0.92387,1.25999,-0.14445
0.31875,0.8441,-0.43116,-1.23557,4.31731,1.05665
0.32945,0.88133,-0.33869,1.02421,1.22584,0.20497
0.33667,0.9028,-0.2676,1.17409,0.05375,0.21925
0.33264,0.92141,-0.20087,0.83338,-0.72754,0.37748
0.3077,0.94117,-0.13969,0.81086,-0.03382,0.21897
0.24652,0.96665,-0.06938,0.92719,0.27282,0.18898
0.17894,0.98376,-0.0139,0.38634,1.38373,0.10816
0.1288,0.99036,0.05098,-0.17657,0.41034,-0.4087
0.0701,0.99185,0.10635,-0.22851,0.23942,-0.55167
0.02084,0.99048,0.13604,0.0121,0.66279,-0.74735
-0.0148,0.98725,0.15848,0.04115,0.06579,-0.48014
-0.04237,0.98681,0.15622,0.223,-0.29396,-0.18747
-0.05206,0.98836,0.14295,0.71223,-1.26822,-0.03612
-0.03509,0.99256,0.11662,0.79466,-1.52953,-0.34282
0.00246,0.99772,0.06741,0.74593,-1.30221,-0.42358
0.04448,0.99901,-0.00192,0.1817,-0.79359,0.32119
0.08436,0.99282,-0.08481,-0.30887,-0.2163,-0.05214
0.12412,0.97411,-0.18897,0.05746,0.32812,-0.32081
0.13677,0.93391,-0.33032,0.23556,3.87643,0.32855
0.14447,0.88119,-0.45014,-0.9893,2.00786,0.71995
0.17275,0.82899,-0.53191,-0.82979,0.83437,-0.16946
0.22088,0.78381,-0.58039,-0.09395,1.11727,-0.1645
0.27466,0.73429,-0.62079,-0.14562,1.14677,-0.04511
0.31069,0.69289,-0.65067,-0.08798,1.15083,-0.05055
0.31005,0.68523,-0.65904,0.23253,0.02812,-0.17313
0.29548,0.70113,-0.64893,0.03255,-1.39139,0.09761
0.27107,0.72932,-0.62818,0.00931,-1.39921,0.10547
0.23122,0.7579,-0.61002,-0.06246,-1.30331,0.26847
0.18344,0.77524,-0.60445,-0.42952,-1.41252,0.88945
0.15132,0.78791,-0.59691,-0.44557,-1.4447,0.8889
0.14948,0.80137,-0.57919,-0.28088,-0.68608,0.60743
0.17281,0.80947,-0.56116,-0.23893,-0.55271,0.30531
0.22644,0.81027,-0.54055,-0.26422,-0.6576,0.34069
0.30157,0.81698,-0.49153,-1.0903,-0.64171,1.09363
0.33848,0.80967,-0.47944,-1.1582,0.9258,-0.57784
0.30794,0.80593,-0.50562,-2.0559,3.37878,0.77643
0.31225,0.84797,-0.4283,-0.27612,3.05707,0.31293
0.33273,0.87776,-0.34473,1.19022,-0.39768,0.32495
0.33166,0.90322,-0.27238,1.11501,-0.65383,0.38907
0.31095,0.92709,-0.20934,0.99528,-0.16613,0.05986
0.25207,0.95808,-0.13617,0.90916,0.32225,0.10691
0.1778,0.98121,-0.07496,0.87762,0.86646,0.04562
0.12065,0.99265,-0.00887,0.21719,0.50268,-0.09254
0.06598,0.99575,0.06426,0.0947,0.10075,-0.45185
0.017,0.99386,0.10931,0.00885,0.20958,-0.59334
-0.01443,0.98981,0.14169,-0.55919,0.35179,-0.49998
-0.0414,0.98824,0.14722,-0.05146,-0.42722,0.09386
-0.05752,0.98926,0.1344,-0.03534,-0.42824,0.10667
-0.05355,0.99258,0.10917,0.46229,-1.29402,-0.16894
-0.02541,0.9974,0.06742,0.59543,-0.99232,-0.37809
0.01468,0.99988,0.00578,0.45803,-0.89454,-0.28814
0.05283,0.99608,-0.07092,0.12184,-0.81588,0.21335
0.09141,0.98342,-0.15663,-0.35464,-0.13663,0.01446
0.12275,0.95363,-0.27481,-0.03576,0.22354,0.02654
0.12148,0.90068,-0.41715,-0.22343,4.4534,0.7672
0.14191,0.84483,-0.51587,-0.63583,0.82634,-0.11661
0.17893,0.80093,-0.5714,-0.84576,0.44164,-0.51391
0.23324,0.76017,-0.60641,-0.16489,1.1176,-0.12491
0.2911,0.71859,-0.63157,-0.18937,1.26828,0.26527
0.31907,0.69283,-0.64667,0.01279,1.26225,-0.30618
0.30653,0.69879,-0.64632,0.35035,-0.99201,0.1236
0.28061,0.72391,-0.63025,0.12099,-1.64395,0.14505
0.2414,0.75229,-0.61301,0.1558,-1.59908,0.1068
0.19006,0.77128,-0.60746,-0.28495,-1.26896,0.81869
0.14982,0.78458,-0.60166,-0.51694,-1.39523,0.93056
0.14572,0.79869,-0.58383,-0.46246,-1.02287,0.7921
0.16882,0.81329,-0.55684,-0.42022,-0.7608,0.54686
0.21226,0.82316,-0.52664,-0.35461,-0.67446,0.46636
0.27254,0.82529,-0.4946,-0.60686,-0.5072,1.19598
0.30758,0.81473,-0.49154,-0.88249,0.12833,-0.61721
0.30284,0.80475,-0.51056,-1.75665,4.49877,0.23105
0.2952,0.84214,-0.45129,-0.93581,4.0815,0.5709
0.29865,0.87135,-0.3893,1.17439,-0.19664,0.11475
0.28738,0.90167,-0.32311,0.92737,-0.83478,0.64641
0.25251,0.9316,-0.26145,0.90653,-0.64355,0.52092
0.18325,0.96523,-0.18641,0.57253,0.28872,0.21816
0.10954,0.98686,-0.11879,0.706,1.65258,-0.21287
0.05658,0.99771,-0.03706,0.64861,1.62773,0.22932
0.0011,0.99944,0.03335,0.0284,0.01089,-0.53182
-0.04212,0.99635,0.07431,-0.31586,0.27778,-0.48171
-0.07174,0.99219,0.10203,-0.28078,0.17668,-0.37182
-0.09646,0.99046,0.09839,0.00301,-0.32233,0.07459
-0.10585,0.9911,0.08078,0.53409,-1.2123,-0.12407
-0.09266,0.99426,0.05344,0.58612,-1.36079,-0.28273
-0.05753,0.99829,0.01046,0.65745,-0.99054,-0.38194
-0.01756,0.99864,-0.04915,0.42634,-0.83198,0.25336
0.0178,0.9925,-0.12096,0.21718,-0.63106,0.33533
0.0555,0.97756,-0.20322,0.07518,-0.13822,0.12455
0.07594,0.94369,-0.32199,0.90453,2.82608,0.31006
0.07901,0.88999,-0.44908,0.90146,2.87978,0.43715
0.10583,0.83885,-0.53398,-0.80788,1.46189,0.45591
0.14472,0.80091,-0.58103,-0.71487,1.1946,-0.29342
0.20065,0.77007,-0.60558,-0.5594,1.28143,-0.16012
0.25723,0.74848,-0.61124,-0.46181,1.20367,-0.07268
0.28031,0.74044,-0.61088,0.06077,-0.05988,0.31431
0.29544,0.74272,-0.60091,0.0955,-0.64288,0.13064
0.29593,0.75534,-0.58471,-0.01142,-1.16762,0.1017
0.26526,0.7722,-0.57736,-0.24779,-0.99616,0.61476
0.21422,0.78603,-0.57988,-0.25136,-1.03196,0.87975
0.17008,0.80067,-0.57445,-0.49288,-1.35847,0.9381
0.15658,0.81906,-0.55193,-0.63776,-1.29048,0.70412
0.17273,0.8366,-0.51987,-0.65897,-1.23035,0.62969
0.20887,0.84481,-0.49261,-0.27103,-0.84852,0.49228
0.26903,0.83973,-0.47167,-0.42741,-0.53568,1.22378
0.33627,0.82737,-0.44987,-0.58577,-0.27334,0.83056
0.35589,0.81448,-0.45823,-1.34043,5.86788,-0.57238
0.34354,0.84075,-0.41848,0.76753,1.5159,0.64432
0.35608,0.86362,-0.3569,1.06153,0.3732,-0.27546
0.34601,0.89141,-0.2927,0.94881,-0.8631,0.59795
0.30535,0.92117,-0.24126,0.82544,-0.24965,0.29779
0.22768,0.95786,-0.1751,0.76975,0.04058,0.09591
0.14232,0.98312,-0.11494,0.73915,1.64049,0.01736
0.08546,0.99545,-0.04223,0.01992,0.64107,0.08749
0.02694,0.99931,0.02562,-0.08495,-0.07846,-0.4268
-0.02273,0.99733,0.06942,0.06302,0.12372,-0.57473
-0.05525,0.99306,0.10378,-0.36907,0.22077,-0.44075
-0.08118,0.9902,0.11365,0.00637,-0.32812,0.07726
-0.09459,0.99016,0.1031,0.44868,-0.95719,0.16219
-0.08493,0.99315,0.08023,0.69344,-1.51499,-0.24365
-0.05434,0.9978,0.03799,0.73668,-0.99489,-0.49697
-0.01826,0.99959,-0.02224,0.34458,-0.76669,-0.23419
0.01331,0.99544,-0.09448,0.17134,-0.66336,0.48955
0.04486,0.98313,-0.17735,-0.22058,-0.14613,0.03733
0.06623,0.9532,-0.295,0.59831,1.3936,-0.16404
0.06241,0.90412,-0.4227,0.47931,4.32173,0.87819
0.08401,0.8491,-0.52151,-0.64445,0.99184,0.53698
0.12435,0.80489,-0.58025,-0.92901,1.15263,-0.13117
0.18227,0.76383,-0.61915,-0.21954,0.98422,-0.13612
0.22916,0.72903,-0.64498,-0.35609,1.02077,0.00136
0.24078,0.71463,-0.65676,-0.06625,0.63051,0.12469
0.23703,0.72412,-0.64766,0.21219,-0.45921,0.05698
0.23473,0.74527,-0.62408,0.1027,-1.26198,0.10481
0.21469,0.76765,-0.60384,0.12646,-1.62719,0.25142
0.1728,0.78718,-0.59202,-0.37353,-1.26595,0.871
0.1377,0.80344,-0.57924,-0.4512,-1.31716,0.86649
0.13264,0.81729,-0.56075,-0.41188,-1.22152,0.66859
0.15018,0.82685,-0.542,-0.41388,-0.87716,0.40979
0.18314,0.83278,-0.52244,-0.43639,-0.83888,0.39199
0.22714,0.83335,-0.50391,-0.7834,-0.69378,1.14515
0.25094,0.81444,-0.52317,-0.76496,0.99325,0.18458
0.25775,0.83181,-0.49158,-1.73796,3.797,0.36429
0.26586,0.86428,-0.42701,0.17164,2.95557,0.87287
0.28326,0.88987,-0.35763,1.20182,-0.83948,0.33919
0.29327,0.91425,-0.27954,1.11482,-1.04613,0.52115
0.26671,0.94057,-0.21023,0.93759,-0.44916,0.18448
0.19162,0.97105,-0.14266,1.13559,1.01475,0.22199
0.12691,0.98888,-0.07752,0.96109,1.41215,-0.01382
0.08035,0.99673,0.00846,-0.16511,0.08475,-0.40932
0.02693,0.99708,0.07146,-0.3379,0.09569,-0.47391
-0.01439,0.99365,0.11156,-0.49089,0.38809,-0.36804
-0.0466,0.98982,0.13451,-0.09611,-0.07937,-0.02753
-0.07055,0.98854,0.13348,0.14266,-0.47279,0.06568
-0.07451,0.99046,0.11593,0.44103,-1.04623,-0.04119
-0.0507,0.99523,0.08338,0.71989,-1.25745,-0.5702
-0.00506,0.99954,0.02979,0.47315,-0.77416,-0.29402
0.03765,0.99831,-0.04418,0.31098,-0.71937,0.01148
0.07702,0.98846,-0.13043,-0.10747,-0.01608,-0.13224
0.10688,0.96279,-0.24822,0.75707,1.69601,0.03357
0.09764,0.91775,-0.38496,0.86096,3.64729,0.58032
0.10547,0.8629,-0.49424,-0.88134,0.95181,0.37944
0.13409,0.81541,-0.56313,-0.92204,1.28767,-0.27413
0.19221,0.77477,-0.60231,-0.41902,1.23421,-0.22622
0.25057,0.73502,-0.63005,-0.21021,0.98976,-0.18974
0.27032,0.71299,-0.64697,0.1392,0.73145,0.17218
0.26733,0.71736,-0.64337,0.18976,0.27956,0.22373
0.25379,0.73413,-0.62979,0.10717,-1.37584,0.2397
0.22241,0.75772,-0.61351,0.0526,-1.52226,0.31692
0.17704,0.77831,-0.60241,-0.16262,-1.44155,0.32453
0.13551,0.79334,-0.5935,-0.49006,-1.29705,0.90548
0.12631,0.80646,-0.57764,-0.5097,-1.20763,0.8653
0.1484,0.82041,-0.55218,-0.53719,-0.9732,0.71008
0.19257,0.82847,-0.52589,-0.38077,-0.79256,0.40664
0.25019,0.82791,-0.50197,-0.4676,-0.74138,0.83725
0.30305,0.81582,-0.49255,-0.98687,-0.38833,0.32664
0.32959,0.79907,-0.50286,-0.85394,1.16201,-0.00341
0.33725,0.84609,-0.41279,-0.101,5.23375,0.7848
0.34084,0.87274,-0.3495,1.41631,0.79281,-0.15296
0.33899,0.89807,-0.28029,0.8804,-0.98673,0.51994
0.31652,0.9209,-0.22749,0.95617,-0.28067,0.21809
0.24977,0.95486,-0.16083,1.16514,-0.02485,0.21593
0.1675,0.98099,-0.09797,0.75222,0.57603,0.14639
0.10838,0.99352,-0.03435,-0.0269,0.85359,0.01166
0.06023,0.99751,0.03667,-0.26311,0.2526,-0.3384
0.01368,0.99692,0.07726,-0.3737,-0.15288,-0.49085
-0.01714,0.99408,0.10728,-0.27581,0.19902,-0.38302
-0.04285,0.9918,0.12041,-0.073,-0.11427,-0.13822
-0.05722,0.9913,0.11849,0.33785,-0.8277,0.08491
-0.04793,0.99425,0.09571,0.88148,-1.56705,-0.30451
-0.01349,0.9985,0.05298,0.89011,-1.30071,-0.44512
0.02997,0.9995,-0.01013,0.47903,-0.78373,-0.30462
0.06651,0.9939,-0.08803,-0.08812,-0.29727,0.09212
0.10136,0.9783,-0.18071,-0.21989,-0.03705,-0.06373
0.11461,0.94168,-0.31638,0.82369,3.64598,0.27127
0.10518,0.88918,-0.4453,-0.58011,2.65083,0.8375
0.122,0.8375,-0.53265,-0.89875,1.0621,0.40126
0.16461,0.79456,-0.58444,-0.30916,1.17321,-0.1635
0.21974,0.75198,-0.62148,-0.3159,1.17265,0.1156
0.26945,0.71519,-0.64491,-0.35259,1.17548,0.17034
0.27784,0.7055,-0.65198,0.28146,0.21262,0.04497
0.27158,0.71995,-0.63868,-0.05105,-1.03393,0.14961
0.2543,0.74772,-0.61339,0.01872,-1.56814,0.33816
0.22013,0.77514,-0.5922,-0.29876,-1.24965,0.64325
0.17429,0.79426,-0.58204,-0.33872,-1.27399,0.8241
0.1428,0.80785,-0.57183,-0.46268,-1.3877,0.89623
0.14887,0.82261,-0.54876,-0.53585,-1.03763,0.64059
0.17696,0.83475,-0.52143,-0.52743,-0.88389,0.41619
0.22075,0.83793,-0.49913,-0.33077,-0.73681,0.33727
0.27889,0.83088,-0.48152,-0.54801,-0.42086,1.23933
0.31905,0.81126,-0.48996,-1.07994,0.1178,-0.75656
0.32441,0.80602,-0.49506,-0.87622,1.06849,-0.48142
0.31876,0.84417,-0.43102,0.71829,2.07328,0.71436
0.32723,0.87311,-0.36138,1.28283,-0.08975,-0.05352
0.31575,0.90403,-0.28815,1.21387,-0.58556,0.01124
0.27175,0.93551,-0.22576,1.03773,-0.08168,0.40328
0.19505,0.96839,-0.15547,0.67397,0.89759,0.00392
0.11986,0.98801,-0.0973,0.74916,0.87797,-0.05425
0.06696,0.99757,-0.01938,-0.16271,0.71198,-0.03868
0.01374,0.99908,0.04055,-0.3557,-0.01903,-0.49416
-0.02624,0.99652,0.07909,-0.44132,0.29155,-0.62272
-0.05522,0.99297,0.10468,-0.28947,0.12086,-0.27054
-0.0805,0.99133,0.10386,0.42162,-0.9192,0.15929
-0.08915,0.99189,0.09064,0.66183,-1.26465,0.06992
-0.06935,0.99548,0.06485,0.89447,-1.64633,-0.31129
-0.02615,0.99951,0.01735,0.5731,-0.70413,-0.37444
0.0154,0.99873,-0.04789,0.37414,-0.71356,-0.17508
0.04816,0.99112,-0.12395,0.21882,-0.52663,0.49385
0.07749,0.97313,-0.21684,0.37953,0.60688,-0.13331
0.07732,0.93148,-0.35547,0.79855,2.4507,0.07132
0.07214,0.87392,-0.48069,-0.09508,4.09119,1.00692
0.09521,0.82116,-0.56269,-1.12823,1.07015,-0.25428
0.13829,0.77946,-0.611,-0.72049,1.2544,-0.17144
0.19317,0.73863,-0.64584,-0.32968,1.14415,0.02184
0.22958,0.70837,-0.66746,0.14269,0.94332,0.10015
0.22924,0.70714,-0.66888,0.16911,0.34422,0.16548
0.2259,0.72827,-0.64699,-0.1048,-1.01393,0.13815
0.20717,0.75718,-0.61948,0.00013,-1.56283,0.38903
0.17159,0.78014,-0.60161,-0.1568,-1.43783,0.3698
0.1299,0.7949,-0.59267,-0.39455,-1.40464,0.91415
0.1156,0.80715,-0.57891,-0.44913,-1.39111,0.86747
0.12837,0.81913,-0.55906,-0.51189,-0.90914,0.57502
0.15665,0.82519,-0.54269,-0.20359,-0.66322,0.32524
0.20085,0.82509,-0.5281,-0.26413,-0.68182,0.5119
0.25667,0.82123,-0.50961,-0.54455,-0.58469,1.08848
0.28481,0.79519,-0.53531,-0.83101,0.60882,-0.57498
0.2779,0.81516,-0.50822,-1.44205,5.51481,0.27479
0.29233,0.85027,-0.4377,0.31579,3.43752,1.12114
0.31558,0.87913,-0.35714,1.31888,-0.54258,0.00214
0.31625,0.90526,-0.28371,1.01107,-0.68935,0.44293
0.27976,0.9343,-0.22093,0.95759,-0.35082,0.27284
0.19963,0.96723,-0.15689,0.924,0.65241,0.2702
0.12953,0.98651,-0.10008,0.63178,1.24615,-0.02883
0.08194,0.9964,-0.02168,0.09217,0.80684,0.03646
0.03442,0.99878,0.03538,-0.41932,0.17311,-0.70105
0.00405,0.99713,0.07559,-0.56649,0.38292,-0.59313
-0.02295,0.99579,0.08874,-0.34406,0.0898,-0.06425
-0.04186,0.99615,0.07701,0.37656,-0.96499,0.14125
-0.04001,0.99785,0.05198,0.65888,-1.50244,-0.14454
-0.01203,0.99983,0.01403,0.74182,-1.53738,-0.29833
0.0301,0.99858,-0.04386,0.42649,-0.74443,-0.32137
0.06622,0.99088,-0.11736,0.16901,-0.72947,0.04593
0.09502,0.97511,-0.20034,-0.07394,-0.51914,0.4269
0.11853,0.945,-0.30482,-0.08998,0.26848,0.01538
0.10481,0.88743,-0.44888,0.90131,3.84507,0.42321
0.10358,0.82068,-0.56193,-0.02075,2.54636,0.8675
0.12692,0.77001,-0.62528,-0.94752,0.86265,-0.47454
0.16626,0.73121,-0.66159,-0.15277,1.19853,-0.19758
0.2153,0.70077,-0.68012,-0.23185,1.27593,-0.07889
0.2398,0.68984,-0.68309,0.07433,0.51584,0.09935
0.23883,0.7045,-0.66831,-0.0441,-0.77341,0.17472
0.23222,0.72845,-0.64454,-0.08614,-1.35347,0.07619
0.21147,0.75371,-0.62225,0.03865,-1.42177,0.29194
0.17395,0.77141,-0.61209,-0.1398,-1.16785,0.77674
0.1345,0.78257,-0.60786,-0.3365,-1.28169,0.81318
0.12214,0.79476,-0.59451,-0.36207,-1.02191,0.7068
0.13874,0.80605,-0.57536,-0.21946,-0.62743,0.38217
0.18041,0.81147,-0.55586,-0.1713,-0.69112,0.38361
0.24125,0.81294,-0.53002,-0.41668,-0.85161,1.21488
0.30487,0.81391,-0.49457,-0.91035,0.21114,-1.45192
0.30107,0.79261,-0.53021,-1.43892,2.59064,-0.05041
0.25641,0.8245,-0.50443,-0.23314,4.12881,0.67925
0.28511,0.85674,-0.42977,1.30045,-0.56412,0.17207
0.30796,0.88775,-0.34214,1.0973,-0.92208,0.39605
0.30865,0.91044,-0.27538,0.91462,-0.55381,0.25568
0.26204,0.94242,-0.20778,1.22479,0.59694,0.39487
0.18214,0.9726,-0.14447,1.02944,1.26054,0.21129
0.12746,0.98906,-0.07429,-0.19003,0.18048,-0.25838
0.08389,0.99645,0.00757,-0.68019,0.07731,-0.40428
0.03937,0.99759,0.05713,-0.79421,0.23913,-0.35566
0.01127,0.99584,0.09044,-0.50354,0.34175,-0.15479
-0.01363,0.99488,0.10014,0.23725,-0.67419,0.10884
-0.02765,0.99569,0.08857,0.36455,-0.91703,0.01777
-0.02021,0.99786,0.0622,0.70719,-1.2125,-0.48625
0.01505,0.99968,0.02022,0.67418,-0.92173,-0.51205
0.06025,0.99719,-0.04447,0.24053,-0.63127,-0.06247
0.09792,0.98709,-0.12676,-0.08789,-0.22613,-0.08538
0.13164,0.96648,-0.22044,0.48361,0.59289,-0.02927
0.14454,0.92582,-0.34923,0.90069,2.19658,0.26059
0.12371,0.86722,-0.48231,-0.35303,1.83832,0.70666
0.12935,0.80578,-0.57791,-0.7933,1.0107,0.0612
0.15045,0.76012,-0.63212,-0.33104,1.16257,-0.32451
0.18629,0.72407,-0.66409,-0.50137,1.1026,4e-05
0.22598,0.69683,-0.68071,0.06784,0.699,0.07771
0.22828,0.69812,-0.67862,0.11757,0.24924,0.17001
0.22553,0.7175,-0.65904,-0.00438,-1.33352,0.07423
0.21179,0.74154,-0.63661,0.32242,-1.62577,0.29632
0.18009,0.76248,-0.62145,0.17263,-1.57243,0.36202
0.13781,0.77593,-0.61558,-0.45238,-1.40332,0.86435
0.11306,0.78708,-0.6064,-0.38497,-1.21506,0.83389
0.12118,0.79924,-0.58867,-0.41708,-0.98238,0.78929
0.15676,0.80917,-0.56627,-0.35007,-0.67525,0.4529
0.21424,0.81331,-0.54096,-0.35795,-0.63921,0.88887
0.27983,0.81354,-0.50975,-0.92862,-0.2983,0.40759
0.30652,0.78951,-0.53171,-0.85622,1.83549,0.09957
0.31285,0.80682,-0.50117,-0.56993,4.8697,0.83581
0.3243,0.84295,-0.42925,1.00694,0.40113,0.2172
0.33243,0.87039,-0.36321,0.90274,-0.86912,0.19875
0.31978,0.89975,-0.29696,0.81558,-0.54644,0.42456
0.27368,0.93362,-0.23118,0.72769,0.28877,0.27621
0.19922,0.96655,-0.16151,0.59155,0.98517,-0.04047
0.13364,0.98589,-0.10084,0.3909,1.30473,0.26069
0.08119,0.99647,-0.02116,-0.05035,0.14565,-0.39829
0.02857,0.99888,0.03768,0.13093,0.1336,-0.58294
-0.00795,0.99719,0.07452,-0.15149,0.1644,-0.25302
-0.03689,0.99472,0.0958,0.04903,-0.15,0.06576
-0.0591,0.99419,0.08995,0.40056,-0.7947,0.18031
-0.06235,0.99546,0.0719,0.64449,-1.50553,-0.29734
-0.03978,0.99849,0.03787,0.69144,-1.29453,-0.39684
-0.00106,0.99984,-0.01797,0.40661,-0.8146,-0.24406
0.0365,0.99501,-0.09283,-0.00564,-0.45096,0.22323
0.06922,0.9818,-0.17685,-0.20202,-0.24695,-0.0192
0.09916,0.95451,-0.28119,0.34655,0.60448,-0.22285
0.09712,0.903,-0.41852,-0.02332,3.6255,0.83446
0.101,0.83888,-0.53486,-0.24457,1.61984,0.70881
0.12367,0.78497,-0.60707,-0.34425,1.14936,-0.25687
0.15736,0.74035,-0.65355,-0.27972,1.01646,-0.00902
0.19937,0.70089,-0.68484,-0.3804,0.97803,0.14594
0.2219,0.68234,-0.69655,-0.0621,0.39774,0.09633
0.22004,0.6921,-0.68744,-0.1634,-0.66932,0.20955
0.22027,0.71596,-0.66248,-0.14553,-1.18944,0.2548
0.21381,0.7426,-0.6347,-0.13557,-1.45558,0.24967
0.19556,0.76491,-0.61373,-0.27769,-1.18942,0.45147
0.16618,0.78076,-0.60233,-0.44254,-1.32441,0.79702
0.15545,0.79456,-0.58694,-0.47549,-0.98867,0.68561
0.17162,0.80896,-0.56226,-0.41971,-0.89087,0.58367
0.20543,0.81931,-0.53529,-0.30994,-0.76712,0.49442
0.24772,0.82594,-0.50642,-0.48517,-0.85459,0.83868
0.28654,0.83441,-0.4708,-1.15026,-0.60001,0.5176
0.29501,0.81773,-0.49426,-0.81097,0.20762,-1.06948
0.25711,0.84085,-0.47631,-0.30704,4.21184,0.73653
0.27512,0.86527,-0.41907,1.47651,0.16908,0.08432
0.31756,0.8876,-0.33364,1.2524,-0.68875,-0.13179
0.32074,0.90937,-0.26489,0.86836,-0.82237,0.26076
0.28482,0.93503,-0.21119,0.89129,-0.21098,0.33532
0.20683,0.96634,-0.15297,0.97381,0.34677,0.28837
0.13187,0.98615,-0.10058,0.19525,1.37504,0.27427
0.08254,0.99629,-0.02457,-0.42273,0.3259,-0.3513
0.03459,0.99894,0.03031,-0.41274,0.16039,-0.61348
0.00305,0.99797,0.06358,-0.34438,0.30942,-0.1786
-0.02404,0.99711,0.07212,0.33804,-0.51655,0.07956
-0.04108,0.99728,0.06122,0.59503,-1.09809,-0.00924
-0.03779,0.99871,0.03402,0.66078,-1.49245,-0.17201
-0.01418,0.99988,-0.00647,0.5737,-1.02777,-0.35571
0.01972,0.99778,-0.06354,0.29227,-0.84262,-0.08723
0.05106,0.98947,-0.13545,0.01164,-0.53967,0.45019
0.08,0.97213,-0.22037,-0.07721,0.02244,0.11097
0.0951,0.93536,-0.34067,0.89035,2.35454,-0.06329
0.0806,0.87806,-0.47171,-0.05181,3.81074,0.90235
0.10241,0.82101,-0.56165,-1.06117,0.6097,-0.24437
0.13988,0.78009,-0.60984,-0.54732,1.2878,-0.29966
0.18544,0.7435,-0.64251,-0.10562,1.20063,0.13016
0.2296,0.71341,-0.66206,0.11286,0.66752,-0.00736
0.23338,0.70482,-0.66989,0.14148,0.11067,0.11949
0.23232,0.71595,-0.65836,0.00436,-0.97279,0.07375
0.22876,0.73664,-0.63643,0.08243,-1.43587,0.26411
0.20893,0.75842,-0.61737,-0.08847,-1.27608,0.34186
0.17409,0.77167,-0.61174,-0.31243,-1.01331,0.90531
0.13679,0.77931,-0.61153,-0.58195,-1.20921,0.88155
0.13236,0.7893,-0.59958,-0.60793,-1.08744,0.7982
0.1602,0.80275,-0.57439,-0.39488,-0.83966,0.4986
0.20419,0.81344,-0.54462,-0.40266,-0.93826,0.63476
0.25399,0.82366,-0.50703,-0.67044,-0.88997,1.06439
0.2905,0.82115,-0.49124,-0.67429,0.72902,-0.76098
0.28262,0.81142,-0.51158,-1.38301,7.03495,0.43012
0.25293,0.85702,-0.44894,0.75749,4.53269,1.24037
0.29503,0.87525,-0.38327,1.26156,-0.82291,0.15272
0.31201,0.899,-0.30734,0.90197,-0.81907,0.44857
0.28985,0.92437,-0.24806,0.83906,-0.42765,0.27688
0.22215,0.95803,-0.18122,0.65784,0.64619,0.31348
0.15403,0.98099,-0.11805,0.17727,1.19305,0.18378
0.1039,0.9936,-0.04428,0.12555,0.73763,-0.03423
0.05718,0.99821,0.01734,-0.53229,0.27699,-0.5127
0.01972,0.99838,0.0533,-0.28975,0.28169,-0.35425
-0.00435,0.99767,0.0681,0.04395,-0.07242,-0.2005
-0.01811,0.99801,0.06042,0.56346,-1.00755,-0.00485
-0.01337,0.99917,0.03841,0.78613,-1.39792,-0.29252
0.01107,0.99993,0.00342,0.60652,-1.00125,-0.35913
0.04502,0.99787,-0.04715,0.36472,-0.78883,-0.07901
0.07654,0.99028,-0.11617,0.0953,-0.5086,0.38994
0.10558,0.97481,-0.19648,-0.0866,-0.04327,0.11772
0.12993,0.94525,-0.29938,0.82649,1.57918,-0.05808
0.1208,0.8906,-0.43846,0.40012,4.45383,0.90077
0.12817,0.82825,-0.54551,-0.45489,2.40517,0.92063
0.15262,0.78107,-0.60551,-0.79578,1.3268,-0.4478
0.19452,0.74557,-0.63741,-0.25851,1.40218,-0.10551
0.24463,0.72101,-0.64831,-0.42583,1.40562,0.01571
0.28138,0.71653,-0.63828,-0.01202,0.18836,0.13967
0.29178,0.72789,-0.62052,-0.11298,-1.52966,-0.02435
0.28688,0.748,-0.5985,-0.0001,-1.6412,0.09209
0.25567,0.77163,-0.58243,0.16998,-1.49433,0.34691
0.20081,0.78874,-0.58101,-0.44321,-1.25805,0.99568
0.15239,0.8021,-0.57742,-0.50274,-1.20977,0.93312
0.1415,0.8158,-0.56075,-0.68088,-0.97352,0.7096
0.1636,0.82668,-0.53837,-0.40462,-0.63829,0.39576
0.2071,0.82995,-0.51797,-0.2874,-0.59573,0.41134
0.26409,0.82453,-0.50041,-0.54592,-0.47667,1.08897
0.31839,0.8143,-0.48532,-0.83336,0.45695,0.09193
0.34186,0.80352,-0.48733,-1.51518,2.29447,0.72401
0.32564,0.84401,-0.42614,1.13934,1.43646,0.29429
0.31214,0.86949,-0.38283,1.05534,-0.46707,0.02762
0.30474,0.89736,-0.31917,1.00509,-0.76547,0.40523
0.27744,0.92577,-0.25685,0.68637,0.21,0.27287
0.21537,0.9588,-0.18524,1.06905,0.92451,-0.20624
0.15125,0.98157,-0.1168,0.94648,1.44922,-0.11638
0.10435,0.99379,-0.03875,-0.15941,0.19718,-0.32415
0.05543,0.99811,0.02654,-0.20936,0.06402,-0.44573
0.01516,0.9977,0.06615,-0.36772,0.12145,-0.49205
-0.01602,0.99556,0.09273,-0.0338,-0.28302,0.04913
-0.04312,0.99449,0.0956,0.31346,-0.88018,0.08646
-0.05426,0.99501,0.08371,0.59964,-1.42992,-0.12105
-0.03793,0.99751,0.0595,0.71393,-1.22497,-0.56211
0.00158,0.99994,0.01065,0.3137,-0.69599,-0.38095
0.04152,0.99735,-0.05972,0.14596,-0.66048,0.03438
0.07201,0.98743,-0.14069,-0.04005,-0.405,0.26246
0.09765,0.9676,-0.23282,0.01049,0.41345,-0.1532
0.10513,0.92642,-0.36152,0.62681,4.14943,0.48946
0.09059,0.8678,-0.48858,-0.24395,1.91416,0.80874
0.10872,0.80656,-0.58107,-0.74145,0.87462,-0.33505
0.14249,0.76023,-0.63384,-0.58353,1.17558,-0.26011
0.17905,0.71993,-0.67056,-0.28799,0.96986,0.19877
0.21885,0.68563,-0.69428,-0.0278,0.83404,-0.41346
0.21625,0.67662,-0.70386,0.12385,0.6907,-0.02384
0.21148,0.69538,-0.68682,0.07495,-0.8811,0.1327
0.20685,0.71935,-0.66314,0.12384,-1.34995,0.19419
0.18505,0.74079,-0.64574,-0.26116,-1.3803,0.41184
0.14822,0.75738,-0.63593,-0.32293,-1.22911,0.87319
0.11842,0.77011,-0.62682,-0.38547,-1.09471,0.83362
0.12449,0.78437,-0.60767,-0.44511,-0.92591,0.73457
0.1603,0.79855,-0.5802,-0.36576,-0.71067,0.48934
0.21377,0.80932,-0.54709,-0.52071,-0.84026,1.08053
0.27209,0.81989,-0.50373,-0.88378,-0.73603,1.37704
0.30289,0.80927,-0.50332,-0.688,0.3234,-0.7912
0.30579,0.79825,-0.51893,-1.66741,4.77546,0.22926
0.2968,0.83704,-0.45965,-0.43707,5.12906,0.37791
0.31228,0.86155,-0.40027,1.26954,-0.63077,-0.1112
0.31792,0.88771,-0.33302,0.93771,-0.62033,0.31997
0.30273,0.91277,-0.27423,0.81936,-0.28722,0.17186
0.2404,0.94805,-0.20836,0.92794,0.31161,0.21698
0.16363,0.9755,-0.14703,0.33379,1.26626,0.39225
0.10847,0.99158,-0.07075,0.16628,0.64787,0.05966
0.0568,0.99834,0.01002,-0.19011,0.02179,-0.43383
0.00869,0.99823,0.0589,-0.57919,0.27829,-0.29474
-0.02159,0.99538,0.09351,-0.34085,0.18088,-0.12793
-0.04637,0.99376,0.10143,0.10108,-0.43456,0.14309
-0.05707,0.99428,0.09028,0.52896,-1.26593,-0.19755
-0.04473,0.99697,0.06358,0.55985,-1.36408,-0.3415
-0.00777,0.9998,0.01826,0.60131,-0.89858,-0.46022
0.03394,0.99818,-0.04979,0.18755,-0.58087,0.38477
0.06996,0.98879,-0.13191,-0.01639,-0.27666,0.17305
0.10143,0.96732,-0.23237,0.82561,1.89968,-0.05309
0.09992,0.92284,-0.37201,0.96965,3.7753,0.53369
0.08794,0.86508,-0.49387,-0.50199,2.00615,1.02048
0.10161,0.81393,-0.57201,-0.9979,1.08825,-0.30807
0.14369,0.77364,-0.61713,-0.39703,1.13605,-0.18416
0.20059,0.73578,-0.64683,-0.21846,0.98364,0.0996
0.25162,0.70455,-0.66354,0.1573,0.73267,-0.00496
0.26564,0.69999,-0.66291,0.10351,-0.56011,0.20177
0.26473,0.71529,-0.64674,-0.00125,-1.24991,0.1599
0.24395,0.73707,-0.63025,-0.01761,-1.56518,0.36069
0.2076,0.75563,-0.62123,-0.34124,-1.24804,0.74025
0.16282,0.77219,-0.61418,-0.39726,-1.34082,0.91495
0.13893,0.78783,-0.60002,-0.48744,-1.08683,0.83286
0.14833,0.80412,-0.57566,-0.52182,-0.80457,0.58146
0.18077,0.81487,-0.55073,-0.41407,-0.69173,0.43957
0.22967,0.81747,-0.5282,-0.80613,-0.59785,1.28455
0.28254,0.81499,-0.50592,-1.09028,-0.4733,0.08269
0.3006,0.78558,-0.54084,-0.76764,0.10448,-1.14221
0.30796,0.8115,-0.49662,-0.14006,5.40859,0.84071
0.30524,0.8506,-0.42815,1.59711,0.54219,0.08399
0.32222,0.87465,-0.36217,1.39666,-0.41398,-0.08582
0.32234,0.89883,-0.29698,0.89781,-0.63696,0.38853
0.28498,0.92916,-0.23547,0.81835,-0.13644,0.40277
0.20906,0.96303,-0.16989,0.54241,0.82237,0.16188
0.14003,0.98398,-0.11034,0.20861,1.25171,0.26017
0.09181,0.99529,-0.03118,-0.24182,0.27597,-0.34272
0.04358,0.99875,0.02461,-0.43473,0.24021,-0.61482
0.01405,0.99791,0.06307,-0.53091,0.40912,-0.38695
-0.00706,0.99662,0.08179,0.3657,-0.71986,0.04126
-0.0219,0.99659,0.07957,0.66696,-1.06516,0.0168
-0.01724,0.99827,0.0562,0.98918,-1.61886,-0.21994
0.01107,0.99984,0.01432,0.78205,-0.95037,-0.46834
0.05099,0.99739,-0.05115,0.34665,-0.62578,-0.02963
0.08293,0.98753,-0.13379,0.02999,-0.21608,0.26126
0.10731,0.96696,-0.23126,0.58153,1.05834,-0.10442
0.10728,0.92232,-0.37123,0.87091,3.19355,0.20986
0.07742,0.85844,-0.50703,-1.11529,1.13587,0.49101
0.08937,0.79795,-0.59606,-1.14196,1.04304,-0.31966
0.12426,0.74933,-0.65043,-0.47166,1.31804,-0.17896
0.17798,0.70002,-0.69159,-0.12751,1.33478,0.00474
0.22745,0.66196,-0.71419,0.25529,0.67825,0.17896
0.24269,0.65481,-0.71576,0.10213,-0.21004,0.27431
0.24317,0.67306,-0.69847,0.27608,-1.70678,0.3654
0.22407,0.6974,-0.68075,-0.20514,-1.35941,0.3292
0.17707,0.71942,-0.67162,-0.26213,-1.41774,0.6661
0.12679,0.73784,-0.66296,-0.49091,-1.57385,0.96805
0.10884,0.7594,-0.64146,-0.45428,-1.16795,0.84243
0.11907,0.7833,-0.61014,-0.51996,-0.99405,0.75165
0.14918,0.80099,-0.57979,-0.16923,-0.54396,0.35248
0.20185,0.80952,-0.55131,-0.21581,-0.66273,0.72915
0.27154,0.81715,-0.50845,-0.54946,-0.67877,1.43793
0.30901,0.80381,-0.50833,-1.07299,1.75329,-0.69629
0.27845,0.79476,-0.53928,-2.11525,6.31179,-0.41333
0.28569,0.83286,-0.47404,0.83711,2.28557,1.07457
0.32181,0.86052,-0.39488,1.25524,-0.74769,0.20712
0.32479,0.88844,-0.32433,1.02855,-0.58462,0.44705
0.30343,0.91483,-0.26648,1.00559,-0.18728,0.17684
0.23135,0.95176,-0.20156,1.11572,0.92069,0.31279
0.15896,0.97743,-0.13915,0.26195,1.2762,0.33777
0.10805,0.99261,-0.05515,-0.10307,0.65755,-0.09859
0.05821,0.99825,0.01072,-0.62379,0.32943,-0.49939
0.02508,0.99818,0.05485,-0.51475,0.36196,-0.27775
-0.00375,0.99751,0.07036,0.09987,-0.51062,0.02062
-0.02702,0.99796,0.05775,0.45501,-1.0846,0.16418
-0.03169,0.99897,0.03236,0.68088,-1.59477,-0.09452
-0.01021,0.99995,-0.00149,0.76827,-1.11649,-0.40342
0.03033,0.99808,-0.05403,0.35421,-0.831,-0.21581
0.06734,0.99011,-0.12307,0.18907,-0.77933,0.28869
0.09735,0.9744,-0.20263,-0.10689,-0.43417,0.22979
0.12386,0.94588,-0.29994,0.23759,0.43382,-0.0355
0.11929,0.88847,-0.44316,1.00072,5.01792,0.58868
0.12446,0.82265,-0.55476,0.02822,4.77931,1.08102
0.15177,0.77052,-0.61908,-0.48519,1.11218,-0.37314
0.18058,0.73171,-0.65726,-0.1839,1.17529,0.02406
0.21749,0.70187,-0.67829,-0.25405,1.02722,0.02366
0.23869,0.69173,-0.68157,0.05507,0.52638,0.15905
0.24,0.70859,-0.66355,-0.01653,-0.63361,0.01808
0.23947,0.73143,-0.63849,-0.08087,-1.43216,0.19056
0.22955,0.75076,-0.61941,-0.07826,-1.50106,0.13267
0.19791,0.76547,-0.61229,-0.42783,-1.21183,0.84291
0.15977,0.77815,-0.60742,-0.42984,-1.30644,0.8531
0.1488,0.79007,-0.59468,-0.33586,-1.09174,0.76867
0.16486,0.80058,-0.5761,-0.24939,-0.75038,0.4987
0.2002,0.80882,-0.55293,-0.29777,-0.71979,0.44238
0.24923,0.81639,-0.52095,-0.576,-0.82934,0.95418
0.29705,0.81774,-0.49302,-0.83946,0.19191,-1.19251
0.30346,0.79698,-0.52224,-1.19642,1.89482,0.60409
0.29413,0.84095,-0.4542,1.15026,2.0045,0.77746
0.31462,0.86477,-0.39139,1.46654,0.23054,-0.11793
0.33532,0.88755,-0.31594,1.09438,-0.89182,0.31339
0.33187,0.90805,-0.25554,0.85579,-0.0632,0.24174
0.27563,0.94111,-0.19581,0.98089,0.50687,0.21295
0.19685,0.9706,-0.13849,0.79858,1.00436,0.00661
0.1377,0.98805,-0.06922,-0.08202,0.45642,-0.14207
0.0864,0.99625,0.00354,-0.31161,0.08123,-0.50414
0.04657,0.99788,0.04555,-0.3777,0.21457,-0.51863
0.01883,0.99739,0.06967,0.16383,-0.57277,0.09842
-0.00502,0.99755,0.06985,0.34469,-0.83437,0.08001
-0.01433,0.99854,0.05211,0.49625,-1.11457,0.01227
-0.00155,0.99979,0.02055,0.69172,-1.26704,-0.44276
0.03431,0.99899,-0.02915,0.37794,-0.71659,-0.26368
0.072,0.99235,-0.10025,0.23438,-0.66099,0.11334
0.10076,0.97748,-0.18543,-0.16724,-0.04466,0.04453
0.12225,0.94819,-0.29325,0.72635,1.43061,-0.11932
0.11052,0.89674,-0.42855,0.81767,3.63397,0.58499
0.1071,0.83671,-0.53707,-0.91065,0.72104,0.38819
0.12991,0.78445,-0.60644,-0.76117,1.0837,-0.28893
0.16611,0.74391,-0.64731,-0.16028,1.16651,-0.20206
0.20713,0.70699,-0.67622,-0.19239,0.92093,0.08179
0.23294,0.68537,-0.68993,0.03966,0.6144,0.03705
0.23801,0.69173,-0.68181,0.04478,0.26472,0.06927
0.23742,0.71136,-0.66151,-0.03462,-1.26563,0.34241
0.22716,0.7301,-0.64448,-0.27929,-1.3475,0.40914
0.20878,0.74551,-0.63295,-0.47231,-1.15959,0.63751
0.18152,0.76047,-0.62348,-0.61689,-1.25269,0.79701
0.17463,0.77329,-0.60953,-0.55076,-1.1661,0.83719
0.19585,0.78547,-0.58709,-0.44249,-0.94601,0.70962
0.23603,0.79338,-0.5611,-0.27374,-0.80501,0.49909
0.28395,0.80256,-0.52466,-0.53604,-1.01709,0.77609
0.32476,0.81414,-0.48136,-1.18502,-0.95016,0.85558
0.32892,0.79469,-0.51017,-0.77931,1.13017,0.61686
0.33193,0.83505,-0.43877,-0.57468,7.10703,0.71226
0.34215,0.86714,-0.36193,1.66801,0.36632,-0.10113
0.37519,0.87669,-0.30108,0.95268,-0.94726,0.06681
0.38021,0.89005,-0.25152,0.90828,-0.64504,0.33132
0.34119,0.91827,-0.20094,0.8336,-0.33258,0.39847
0.26177,0.95327,-0.15086,0.64084,0.64438,0.16647
0.18517,0.97676,-0.10797,-0.068,1.18677,0.23814
0.1319,0.99058,-0.0368,-0.30678,0.57786,-0.17479
0.0765,0.99688,0.01962,-0.36422,0.1501,-0.40576
0.03372,0.9982,0.0495,-0.09763,0.07785,-0.17877
0.00294,0.99808,0.06192,0.14426,-0.2897,-0.01954
-0.01622,0.99801,0.06095,0.63617,-1.22538,-0.02514
-0.01288,0.99898,0.04326,0.69777,-1.62062,-0.34029
0.0149,0.99989,0.00285,0.57438,-1.32056,-0.36899
0.05163,0.99698,-0.05805,0.21154,-0.74675,0.16203
0.0838,0.98731,-0.13487,0.04906,-0.51008,0.44962
0.1112,0.96767,-0.2264,0.22276,0.60814,-0.39874
0.11711,0.92615,-0.35852,0.95104,4.63315,0.64872
0.09291,0.86825,-0.48735,-0.4599,1.54838,0.86945
0.09453,0.81125,-0.577,-0.96158,0.8119,0.1556
0.12142,0.76857,-0.62814,-0.13164,1.21369,-0.14806
0.1663,0.72666,-0.66657,-0.22142,1.0554,-0.02132
0.20726,0.69153,-0.69198,-0.12846,0.94333,0.01792
0.21778,0.6841,-0.69611,0.03852,-0.17667,0.21728
0.21494,0.69824,-0.68284,-0.02337,-1.41876,0.29018
0.20487,0.72237,-0.66046,0.06383,-1.54012,0.35489
0.17625,0.74406,-0.64445,-0.28613,-1.26646,0.46804
0.13781,0.7612,-0.6337,-0.38867,-1.28533,0.85801
0.10962,0.77467,-0.62279,-0.41055,-1.3326,0.84766
0.11533,0.78623,-0.60707,-0.53148,-0.90754,0.68933
0.14962,0.79364,-0.5897,-0.27009,-0.68424,0.48086
0.20559,0.79815,-0.56629,-0.33335,-0.89538,0.58228
0.26673,0.8078,-0.52566,-0.86494,-0.97354,1.44526
0.31061,0.80385,-0.5073,-0.9674,-0.24067,-1.27239
0.31539,0.79002,-0.52573,-1.64041,5.19182,-0.04305
0.29262,0.8405,-0.45601,1.74818,3.11863,1.30214
0.32724,0.85762,-0.39675,1.45073,-0.55529,-0.33004
0.35109,0.87799,-0.32537,0.88809,-1.06992,0.3621
0.33665,0.90188,-0.27072,0.70089,-0.44555,0.3545
0.27416,0.93874,-0.20883,0.47964,0.92317,0.20286
0.20115,0.96742,-0.15377,0.33962,1.32738,0.01178
0.14957,0.98531,-0.08247,0.04294,0.68195,0.07191
0.10346,0.99463,-0.00349,-0.23146,0.11533,-0.31256
0.06129,0.99728,0.04103,-0.5216,0.39408,-0.47506
0.03063,0.99733,0.06625,-0.03429,-0.00066,-0.12369
0.00715,0.9979,0.06432,0.38358,-0.95846,0.0274
-0.00091,0.99906,0.04331,0.47603,-1.20425,-0.0485
0.01341,0.99985,0.01045,0.54432,-1.37691,-0.29588
0.0473,0.9982,-0.03687,0.28844,-0.83693,-0.17432
0.08407,0.99115,-0.10276,0.1773,-0.7711,0.234
0.11591,0.97627,-0.18294,-0.15652,-0.35447,0.07676
0.14608,0.94975,-0.27682,0.76603,1.25456,-0.36982
0.14868,0.89857,-0.41287,1.13518,3.54924,0.27461
0.1422,0.83569,-0.53047,-0.39635,2.71725,0.91493
0.15846,0.7824,-0.60227,-1.12012,1.06093,-0.47242
0.19345,0.74224,-0.64161,-0.44218,1.26028,-0.23555
0.25257,0.70487,-0.66285,-0.19807,1.1181,0.10859
0.30711,0.67532,-0.67054,0.19083,0.74427,0.07105
0.33358,0.66977,-0.66343,0.1164,0.08467,-0.06669
0.34058,0.68289,-0.64628,-0.00234,-1.54281,0.19993
0.32528,0.70529,-0.62988,-0.12313,-1.33211,0.24522
0.28601,0.72773,-0.62338,-0.22963,-1.05904,0.65225
0.23012,0.74872,-0.62166,-0.59747,-1.4388,0.96217
0.1951,0.76829,-0.60965,-0.59772,-1.37724,0.84448
0.19673,0.78786,-0.58359,-0.65847,-1.13242,0.65198
0.21906,0.80152,-0.55639,-0.30997,-0.73963,0.45894
0.25641,0.80707,-0.53187,-0.29094,-0.75166,0.53263
0.30765,0.80987,-0.49946,-0.70098,-0.64125,1.33642
0.32546,0.7946,-0.51252,-0.76629,2.62637,-0.68052
0.29331,0.8095,-0.5086,-1.52361,6.71987,0.6609
0.30724,0.83764,-0.45162,1.04838,1.62919,0.62257
0.33614,0.85898,-0.38622,0.9057,-1.0122,0.39272
0.33592,0.88366,-0.32604,0.78589,-0.72593,0.28803
0.29696,0.91593,-0.26998,0.78401,-0.28345,0.26026
0.22278,0.95263,-0.20704,0.64749,0.95965,0.15232
0.15749,0.97645,-0.14744,0.34412,1.12651,0.35284
0.10841,0.99173,-0.06867,0.18182,0.53258,-0.08235
0.05724,0.99831,-0.01018,-0.05263,0.04417,-0.47705
0.02252,0.99939,0.02656,-0.29445,0.13611,-0.3181
-0.00047,0.99886,0.04771,-0.00917,-0.2884,0.0284
-0.01556,0.99898,0.04248,0.24957,-0.77714,0.11188
-0.01661,0.99967,0.01958,0.35611,-1.21441,-0.18426
-0.00208,0.99985,-0.01746,0.39139,-1.10885,-0.33794
0.02331,0.9973,-0.06957,0.29973,-0.84284,-0.1533
0.04757,0.98951,-0.13639,0.11683,-0.65287,0.48565
0.07,0.97468,-0.21237,-0.10061,-0.19932,0.11322
0.0871,0.9465,-0.31072,0.6203,0.93379,-0.23747
0.0742,0.8921,-0.4457,0.83354,4.70018,0.85346
0.07932,0.83457,-0.54515,-0.86567,1.21827,0.39827
0.10425,0.7959,-0.59638,-0.95114,0.94073,-0.40185
0.15084,0.76583,-0.6251,-0.31318,1.23864,0.01439
0.2142,0.73819,-0.63968,-0.22659,1.03723,-0.15306
0.24938,0.72406,-0.64307,0.1503,0.58488,0.13894
0.25956,0.72602,-0.6368,0.08562,-1.24345,0.15327
0.26143,0.73785,-0.62228,0.1436,-1.48817,0.11404
0.23843,0.7563,-0.60923,0.07114,-1.35994,0.29473
0.20456,0.76819,-0.60667,-0.48835,-1.16951,0.87385
0.16913,0.77569,-0.60803,-0.62773,-1.21821,0.91525
0.15576,0.7822,-0.60324,-0.60916,-1.08144,0.78958
0.1719,0.79056,-0.58776,-0.68212,-0.96009,0.59907
0.2106,0.79825,-0.56431,-0.39176,-0.92835,0.39808
0.26158,0.80637,-0.53042,-0.79126,-0.81912,1.37582
0.31206,0.80751,-0.50054,-1.06476,-0.65836,0.54783
0.34436,0.78713,-0.5117,-0.54009,1.16712,0.70356
0.35169,0.82264,-0.44674,1.25205,3.08248,1.00855
0.35828,0.84761,-0.3914,1.29472,0.26503,-0.06868
0.36802,0.86603,-0.33846,0.69863,-1.09546,0.59029
0.35769,0.88732,-0.29106,0.61723,-0.39817,0.30964
0.30469,0.92311,-0.23461,0.75111,0.22671,0.31377
0.22594,0.95819,-0.17556,0.77476,0.4949,0.13897
0.16182,0.97983,-0.11725,0.33708,1.16116,0.32481
0.11772,0.99236,-0.03692,-0.23514,0.10382,-0.36955
0.07456,0.997,0.02086,-0.20637,-0.04866,-0.46213
0.04229,0.99763,0.0543,-0.33026,0.12778,-0.18026
0.01643,0.99736,0.07074,-0.11052,-0.1573,0.00306
-0.00197,0.99792,0.06449,0.31509,-1.06059,0.0648
-0.00235,0.99913,0.04174,0.41102,-1.44241,-0.24298
0.01726,0.99985,0.0021,0.41672,-0.95,-0.29415
0.04845,0.9973,-0.05522,0.32145,-0.76927,-0.10476
0.07977,0.98835,-0.12958,-0.09588,-0.22241,-0.04278
0.11094,0.96982,-0.21711,0.74004,1.64037,-0.18959
0.12392,0.93126,-0.34263,0.71088,3.51043,0.41402
0.11703,0.87969,-0.46092,-0.76411,2.13394,0.78397
0.12958,0.82823,-0.5452,-1.01926,1.05524,0.01456
0.16644,0.78801,-0.59274,-0.1909,0.97138,-0.0537
0.22467,0.7522,-0.61945,-0.20735,0.88812,0.04398
0.28556,0.71785,-0.63494,-0.0857,0.67692,0.18137
0.31883,0.69998,-0.63904,0.15111,0.24389,-0.1545
0.32247,0.70201,-0.63497,0.13661,-0.67334,0.12275
0.31904,0.71427,-0.62292,0.19329,-1.282,0.3219
0.29534,0.7298,-0.61657,-0.06079,-1.22643,0.43476
0.26226,0.7442,-0.61432,-0.38807,-1.15409,0.70863
0.22383,0.76061,-0.6094,-0.54449,-1.30036,0.76912
0.20592,0.77535,-0.59702,-0.52916,-1.16657,0.74716
0.21362,0.78567,-0.58059,-0.36221,-0.91513,0.55819
0.24256,0.79031,-0.56265,-0.13265,-0.74338,0.54536
0.28804,0.79694,-0.53096,-0.36855,-0.90842,0.76492
0.32982,0.80347,-0.49564,-1.1527,-0.55673,0.67516
0.32524,0.77919,-0.5358,-1.62889,7.06764,0.76836
0.30816,0.82001,-0.4823,-0.37327,5.61442,0.94719
0.35786,0.83182,-0.42427,0.96657,-0.10859,0.13586
0.38706,0.84333,-0.37279,0.52673,-1.19384,0.39043
0.38598,0.85826,-0.33825,0.50961,-0.84671,0.18755
0.3481,0.88828,-0.29965,0.93942,0.42532,0.58737
0.27435,0.92853,-0.25011,0.25981,0.68704,0.23265
0.20867,0.95731,-0.20002,0.28278,0.99963,0.37757
0.16548,0.97777,-0.1288,-0.40112,0.31491,-0.35263
0.12647,0.98941,-0.0712,-0.39618,0.26376,-0.59097
0.10629,0.99332,-0.04489,-0.39506,0.34298,-0.5279
0.08932,0.99507,-0.04306,0.09231,-0.60335,0.14042
0.07658,0.99491,-0.06546,0.18983,-1.02061,0.05548
0.07088,0.99238,-0.10082,0.22517,-1.18221,0.07543
0.07322,0.98774,-0.13791,0.41087,-1.13033,-0.08615
0.08356,0.97937,-0.184,0.33392,-0.89477,0.0624
0.09763,0.96482,-0.24411,0.25326,-0.75828,0.51919
0.11025,0.94171,-0.31784,0.09108,-0.03824,0.27266
0.11692,0.90275,-0.41396,0.82458,1.74352,-0.43203
0.10585,0.83919,-0.53344,0.934,4.25517,0.51473
0.12857,0.78071,-0.61152,-1.03158,0.42939,0.1327
0.15126,0.73865,-0.6569,-0.67458,0.86621,-0.27851
0.18289,0.70508,-0.68514,-0.13787,1.04997,-0.00265
0.22911,0.67693,-0.69949,0.09868,0.82114,0.03681
0.26218,0.66509,-0.69923,0.06561,0.83297,0.03655
0.2667,0.6758,-0.68715,0.10924,-0.00661,0.05449
0.26327,0.69441,-0.66969,0.22468,-0.92564,0.1329
0.24272,0.71579,-0.65477,0.23266,-0.98713,0.35706
0.21175,0.73327,-0.64613,-0.12724,-0.88043,0.46127
0.18624,0.74657,-0.6387,-0.38599,-0.89665,0.64958
0.16765,0.757,-0.63154,-0.50204,-0.87205,0.76041
0.16554,0.76364,-0.62406,-0.4446,-0.82776,0.74254
0.18393,0.76964,-0.61141,-0.33467,-0.79804,0.74769
0.21966,0.78345,-0.58134,-0.39177,-0.93354,0.68455
0.25592,0.80391,-0.53688,-0.75244,-0.98167,0.85901
0.2755,0.81009,-0.51755,-0.86626,-0.2672,-0.33768
0.25973,0.78957,-0.55599,-0.73796,2.39798,0.34038
0.26974,0.81268,-0.51652,1.22771,4.9955,1.11205
0.33021,0.81946,-0.46845,1.40723,-0.31617,-0.31315
0.36723,0.82936,-0.42109,0.7409,-1.18165,-0.0683
0.35463,0.84449,-0.40133,0.79043,-0.77908,-0.01099
0.30506,0.8767,-0.37194,0.66572,0.52163,0.4811
0.23307,0.9141,-0.33182,0.50317,0.6593,0.41178
0.17324,0.94276,-0.28496,0.29374,0.80527,0.55877
0.13481,0.9681,-0.21122,0.02882,0.47572,0.32893
0.09527,0.9861,-0.13617,-0.21654,0.48807,-0.28055
0.0682,0.99331,-0.09319,-0.22392,0.41257,-0.30663
0.05319,0.99538,-0.07991,-0.04648,-0.23665,0.13367
0.04086,0.99472,-0.09418,0.21665,-0.78996,0.07542
0.0367,0.99185,-0.12202,0.21018,-0.98454,-0.01209
0.03895,0.98713,-0.1551,0.34179,-1.07212,0.20265
0.0442,0.98029,-0.19256,0.38947,-0.99735,0.46687
0.05402,0.96872,-0.24219,0.23701,-0.47776,0.25515
0.07031,0.94931,-0.30637,0.71634,0.32475,0.24152
0.07991,0.91602,-0.39309,0.97685,1.29237,-0.11245
0.07175,0.86767,-0.49193,1.08245,3.41223,0.8382
0.07493,0.82518,-0.55988,-0.91233,1.10712,0.03903
0.07825,0.79616,-0.60001,-0.80159,1.043,-0.23445
0.07753,0.76932,-0.63414,-0.40584,0.8606,0.01473
0.08736,0.74528,-0.661,0.15462,0.63677,0.03321
0.10132,0.73412,-0.67141,0.23886,0.35664,0.04179
0.11142,0.74645,-0.65605,0.07457,0.03193,0.04257
0.1178,0.77215,-0.62443,0.04733,-0.65214,0.38607
0.11997,0.79787,-0.59077,-0.03087,-1.02318,0.39201
0.10738,0.82303,-0.55776,-0.08997,-0.97675,0.46205
0.09071,0.84752,-0.52296,-0.22105,-1.04049,0.48173
0.0789,0.8711,-0.48472,-0.31059,-1.13184,0.54098
0.07522,0.89309,-0.44355,-0.36465,-1.16805,0.57235
0.07897,0.91168,-0.40324,-0.42605,-1.01971,0.51515
0.0842,0.92702,-0.36544,-0.49585,-0.93711,0.65554
0.08567,0.94074,-0.32812,-0.54877,-0.93066,0.67875
0.07679,0.94932,-0.30479,-0.51559,-0.78484,0.9138
0.07713,0.95379,-0.29041,-0.12614,4.84562,0.83672
0.05361,0.96434,-0.25918,0.09861,6.82224,1.23103
0.05093,0.9778,-0.20327,0.76743,-0.89836,-0.5076
0.09645,0.98826,-0.11846,0.92463,-0.82162,0.25577
0.0908,0.99278,-0.07842,0.81525,-0.1293,0.11013
0.07623,0.99611,-0.04428,0.36891,0.35059,-0.26207
0.0617,0.99803,-0.01181,-0.13164,0.62914,0.15396
0.04781,0.99884,0.00567,0.16259,0.23654,0.23868
0.03821,0.99913,0.01648,0.50123,-0.04944,-0.08471
0.03212,0.99948,0.00392,0.39959,-0.34683,-0.46585
0.02666,0.99914,-0.03165,0.49429,-0.57223,-0.39053
0.01809,0.99703,-0.0748,0.51623,-0.9001,-0.20667
0.00968,0.99257,-0.12127,0.4449,-1.00717,-0.11652
0.00531,0.98479,-0.17367,0.11521,-0.99124,-0.04466
0.00141,0.97256,-0.23264,0.00356,-0.72874,0.34313
-0.00678,0.95262,-0.30409,0.06557,0.054,0.64381
-0.02025,0.92188,-0.38695,0.02573,0.50456,0.28829
-0.06089,0.87479,-0.48067,1.00954,3.69911,0.95581
-0.08042,0.8336,-0.54649,-0.25229,2.03071,0.66073
-0.07865,0.80746,-0.58465,-1.22315,0.6458,-0.63491
-0.0761,0.78766,-0.61139,-0.40699,0.87321,-0.05574
-0.05776,0.77116,-0.63401,-0.26748,0.72353,0.1018
-0.03394,0.76164,-0.64711,-0.10043,0.29279,0.36946
-0.01165,0.76079,-0.64889,0.214,-0.22095,0.33935
0.01288,0.77171,-0.63584,0.31017,-0.38701,0.35055
0.03572,0.79309,-0.60806,0.32141,-0.60606,0.23478
0.04845,0.82059,-0.56946,0.13445,-0.80291,0.24139
0.04823,0.84856,-0.52689,0.0961,-0.84991,0.27476
0.04265,0.8736,-0.48477,0.00021,-1.01737,0.43469
0.04388,0.89563,-0.44263,-0.10984,-1.21063,0.50592
0.05355,0.91456,-0.40088,-0.06798,-1.24511,0.4972
0.06839,0.92827,-0.36556,-0.10151,-0.96491,0.62501
0.07116,0.93507,-0.34725,-0.24326,-0.97274,0.41764
0.07059,0.93775,-0.34005,-0.15698,-0.70103,0.3881
0.05698,0.94515,-0.32162,0.00406,1.45159,-0.22585
-0.00498,0.95071,-0.31005,1.37661,0.26787,-0.11161
0.02957,0.96595,-0.25704,0.97007,-0.80634,-0.02861
0.04534,0.97435,-0.22043,1.02621,-0.4046,-0.13413
0.03855,0.97593,-0.21467,0.34951,0.32544,-0.14283
0.0266,0.97581,-0.21702,0.32052,0.22878,-0.09829
0.00923,0.97285,-0.23124,0.22229,0.27826,0.05883
-0.01729,0.96537,-0.26032,0.17238,0.02572,0.15189
-0.05122,0.95289,-0.29896,-0.0296,-0.41894,0.07206
-0.09435,0.93615,-0.33871,-0.19321,-0.73548,0.13481
-0.14217,0.91506,-0.37744,-0.09381,-1.02106,0.44493
-0.18699,0.89365,-0.40795,0.26687,-1.1664,0.61063
-0.2185,0.86887,-0.44421,0.69105,-0.46497,0.91159
-0.23047,0.83538,-0.49902,0.2915,0.19289,0.39092
-0.21902,0.79943,-0.55941,0.67279,1.14547,-0.62121
-0.20292,0.77422,-0.59951,1.33972,3.34196,-0.18191
-0.17304,0.76524,-0.62006,-0.20253,0.34528,0.23024
-0.15321,0.76443,-0.62624,-0.21394,0.24502,-0.1947
-0.1415,0.77417,-0.61696,0.22723,0.46819,0.04011
-0.1173,0.78988,-0.60194,0.39599,0.36738,0.20008
-0.09648,0.80813,-0.58104,0.60617,-0.12497,0.50953
-0.09388,0.8318,-0.54707,0.65025,-0.33133,0.62172
-0.10231,0.86241,-0.49577,0.47323,-0.46959,0.70982
-0.11508,0.89565,-0.42961,0.41123,-0.49261,0.50854
-0.13181,0.92643,-0.35265,0.1541,-0.66907,0.45446
-0.14962,0.95204,-0.26688,-0.06616,-0.80156,0.46414
-0.17179,0.96806,-0.18261,-0.18748,-0.77531,0.35339
-0.20432,0.97088,-0.12508,-0.43934,-0.62661,0.10674
-0.24297,0.96435,-0.10486,-0.52766,-0.51463,-0.16383
-0.27092,0.95686,-0.10496,-0.60967,-0.23967,-0.07656
-0.27877,0.95366,-0.11324,0.04005,0.58475,-0.16862
-0.29536,0.94754,-0.12217,0.57394,2.25816,0.11152
-0.31701,0.93986,-0.12713,1.74163,0.96637,0.15464
-0.3006,0.94513,-0.12791,1.61336,0.11901,-0.67188
-0.27867,0.95124,-0.13223,1.10422,0.01275,0.09467
-0.26946,0.95643,-0.11237,0.8365,-0.10518,0.21588
-0.26933,0.95902,-0.08797,0.52788,0.11598,0.12178
-0.28238,0.95779,-0.05386,0.19367,0.32988,0.38772
-0.29805,0.95452,-0.00698,0.28099,0.20946,0.35941
-0.31198,0.94903,0.04493,0.37418,-0.13084,0.25339
-0.32193,0.94168,0.098,0.59926,-0.10257,-0.0857
-0.33021,0.93391,0.13701,0.55985,-0.10606,-0.25272
-0.33702,0.92821,0.15765,0.63689,-0.12862,-0.31206
-0.33714,0.92666,0.16625,1.00694,-0.37704,-0.16427
-0.32933,0.92865,0.17073,1.00685,-0.41921,-0.10555
-0.31263,0.93341,0.17611,0.94345,-0.42306,0.09159
-0.28592,0.9415,0.17842,0.8934,-0.3219,0.1422
-0.24855,0.95312,0.17256,0.76394,-0.22969,0.03
-0.20127,0.96753,0.15289,0.56305,-0.12671,-0.06143
-0.14548,0.98232,0.11782,0.39484,0.06841,-0.28562
-0.07802,0.99441,0.0712,0.32899,0.55395,-0.44776
-0.00069,0.99995,0.01022,0.17469,1.25947,-0.16631
0.07448,0.99596,-0.05025,-0.26561,1.48123,0.06995
0.13552,0.98501,-0.10669,-0.47294,1.17697,-0.06349
0.18346,0.96946,-0.16277,-0.62366,1.05135,-0.91888
0.22848,0.94926,-0.21612,-0.5421,1.19614,-0.65982
0.25817,0.92817,-0.26804,-0.31794,0.50299,-0.39349
0.27512,0.91248,-0.30279,-0.02729,-0.19128,-0.38074
0.28323,0.9076,-0.3099,-0.15379,-0.29121,-0.37037
0.28188,0.91048,-0.30259,-0.09406,-0.46101,-0.46758
0.26301,0.91953,-0.29203,0.02747,-0.74264,-0.33401
0.2373,0.92927,-0.28309,0.06988,-1.17382,-0.07998
0.21612,0.93814,-0.27052,-0.23202,-1.39557,0.07858
0.20361,0.94927,-0.23963,-0.54851,-1.45112,0.12336
0.19247,0.96235,-0.19194,-0.60603,-1.49636,0.17611
0.17833,0.97465,-0.1351,-0.56439,-1.51422,0.29406
0.16065,0.98349,-0.0833,-0.80881,-1.42329,0.23265
0.14709,0.98795,-0.04813,-0.59822,-0.9591,0.40552
0.12862,0.99154,-0.01745,-0.37147,0.88264,0.33851
0.07837,0.99692,-0.00338,-0.65061,6.88855,0.52526
0.04584,0.9989,0.01026,1.01258,0.2114,-0.68446
0.07848,0.99577,0.04785,0.84454,-1.69929,-0.52832
0.0797,0.99236,0.09421,0.89635,-0.78058,-0.4328
0.04299,0.99059,0.12996,0.57257,0.12321,-0.29482
-0.00483,0.98641,0.16422,0.87063,0.75817,-0.39083
-0.04879,0.97908,0.19754,1.12484,1.12549,-0.27248
-0.07562,0.96642,0.24559,0.71133,0.36361,-0.12894
-0.10495,0.94693,0.30381,0.52587,0.1255,-0.53926
-0.13427,0.92685,0.3506,0.35479,0.33832,-0.86974
