gravity.x,gravity.y,gravity.z,userAcceleration.x,userAcceleration.y,userAcceleration.z
-0.21812,0.97185,0.08904,-0.0128,0.54611,0.54164
-0.20944,0.97758,-0.02166,0.1685,2.73751,0.32025
-0.2137,0.97152,-0.10235,-0.87591,1.26656,0.34721
-0.20232,0.96577,-0.16232,-1.50196,1.53435,0.2202
-0.17266,0.95789,-0.22943,0.08835,1.3359,-0.25647
-0.14095,0.95034,-0.27745,0.9206,1.22213,0.23469
-0.11308,0.94132,-0.31801,0.6638,0.77864,0.33916
-0.11375,0.92507,-0.36237,0.15903,0.25102,0.70493
-0.12778,0.90825,-0.39845,-0.42705,-0.61433,0.98962
-0.13421,0.9005,-0.41363,-0.38837,-1.37229,1.01035
-0.13679,0.90392,-0.40524,-0.07283,-1.47559,0.91469
-0.13939,0.9169,-0.37398,-0.00392,-1.49291,0.78325
-0.13605,0.93665,-0.32276,0.08561,-1.69147,0.61142
-0.13316,0.95715,-0.25716,0.37881,-1.4044,0.47168
-0.12498,0.97297,-0.1942,0.36615,-0.671,-0.02775
-0.09301,0.97875,-0.18276,1.05154,0.60189,-1.60161
-0.06161,0.97786,-0.19999,0.37269,0.09746,-0.93049
-0.0524,0.9729,-0.22523,-0.11622,-0.55023,2.55023
-0.02871,0.96383,-0.26497,-0.80465,1.27244,1.23708
-0.0385,0.95143,-0.30545,-1.14857,-0.08372,1.63629
-0.05655,0.94836,-0.31213,-0.81439,-0.36649,1.52293
-0.09247,0.95942,-0.26639,-0.79628,-0.08854,1.3441
-0.16567,0.96765,-0.19028,-0.66271,1.81185,1.15177
-0.23787,0.96437,-0.11575,0.11365,2.39186,1.18188
-0.25994,0.9656,-0.00683,1.54119,2.09792,-1.14522
-0.23359,0.96981,0.06996,0.04606,1.24408,-0.61937
-0.19948,0.96931,0.14369,-0.5309,0.70748,-1.24247
-0.17017,0.96195,0.21378,-0.63336,0.24344,-1.35867
-0.16316,0.9546,0.24923,-0.51567,-0.58801,-0.53162
-0.17652,0.94908,0.26095,0.0962,-0.9557,-0.61852
-0.19143,0.94291,0.27254,0.27844,-0.99377,-0.6088
-0.19867,0.94127,0.27304,0.36668,-0.92176,-0.61934
-0.1977,0.94391,0.26447,0.46583,-0.95743,-0.64649
-0.19247,0.94956,0.24756,0.55364,-0.96403,-0.66988
-0.18804,0.95995,0.20772,-0.19247,-0.88351,-0.82803
-0.18029,0.97079,0.15833,-0.34251,-0.5279,-0.33277
-0.17929,0.97813,0.10548,-0.38798,-0.58034,-0.20374
-0.18599,0.98143,0.04701,-0.32655,0.4059,0.15809
-0.18885,0.98122,-0.03928,0.05794,3.7785,0.71336
-0.18686,0.97232,-0.14028,-0.1212,3.76935,0.61355
-0.17375,0.9652,-0.19543,-1.07666,1.19201,0.53493
-0.1231,0.96347,-0.23787,-0.32649,1.64463,-0.24041
-0.07614,0.95503,-0.28656,0.09637,1.56131,-0.43077
-0.0579,0.94202,-0.33052,0.76098,0.74229,0.38615
-0.07315,0.92479,-0.37338,0.45457,0.31534,0.5599
-0.10646,0.90748,-0.40638,0.14302,-0.05194,0.8234
-0.13181,0.89986,-0.41579,-0.52926,-1.3521,1.09604
-0.14154,0.90522,-0.40069,-0.19251,-1.57277,0.90635
-0.14575,0.92088,-0.36158,-0.09945,-1.5436,0.82715
-0.15016,0.94243,-0.29879,0.18277,-1.61142,0.6518
-0.15737,0.96198,-0.22321,0.44444,-0.79321,0.34407
-0.1541,0.97389,-0.16672,0.64827,-0.02508,-0.38548
-0.12066,0.97957,-0.16089,0.87006,0.36508,-0.86919
-0.081,0.97924,-0.18584,0.42385,0.23285,-1.0851
-0.06496,0.97414,-0.21642,0.3289,-0.64082,-0.74552
-0.05443,0.96781,-0.24573,0.05975,-1.27204,2.93085
-0.02509,0.96034,-0.2777,-1.94371,1.92195,-1.92703
-0.03748,0.95958,-0.27893,-1.2702,1.07637,1.18729
-0.0468,0.96082,-0.27318,-0.88978,0.11555,1.18181
-0.0843,0.96881,-0.23304,-0.86762,0.23581,0.55286
-0.15836,0.97108,-0.17867,-0.77846,0.37184,0.69997
-0.23395,0.96572,-0.1125,0.35858,2.09436,0.41412
-0.26689,0.96346,-0.02283,1.68473,2.18666,-0.56503
-0.24892,0.96672,0.05914,1.26497,1.64362,-0.34036
-0.21121,0.96811,0.1347,-0.23869,1.06378,-1.05442
-0.17928,0.96015,0.21441,-1.0814,-0.13602,-1.00852
-0.17345,0.95185,0.25277,-1.23988,-0.16386,-1.11402
-0.19856,0.94429,0.26245,0.43093,-0.86203,-0.73403
-0.21597,0.93987,0.26459,0.62867,-1.00424,-0.38651
-0.22059,0.93984,0.26083,0.41295,-1.04022,-0.49086
-0.21877,0.94446,0.24524,0.4483,-0.94566,-0.69963
-0.21407,0.94972,0.22847,0.48361,-0.82669,-0.74069
-0.20474,0.95826,0.19952,-0.0456,-0.74272,-0.57193
-0.20331,0.96873,0.14224,-0.39357,-0.47331,-0.31726
-0.20535,0.97553,0.07853,-0.43066,1.08819,0.32172
-0.20102,0.97955,-0.00792,-0.15286,1.98405,0.57705
-0.20328,0.97484,-0.09144,-0.55328,1.95333,0.22423
-0.20511,0.96686,-0.15202,-0.98458,1.92677,0.51136
-0.17306,0.96128,-0.21447,-0.53617,1.92993,0.25012
-0.13836,0.95205,-0.27288,0.74875,1.39026,0.18898
-0.11525,0.9395,-0.32259,0.73407,0.93196,0.1046
-0.11535,0.92232,-0.3688,0.48527,0.62008,0.28743
-0.13943,0.90136,-0.41001,-0.1204,-0.46966,1.09392
-0.16351,0.88437,-0.43721,-0.29848,-1.23157,1.05113
-0.1779,0.87944,-0.44152,-0.22656,-1.44769,1.04447
-0.18701,0.88678,-0.42266,0.00748,-1.62282,0.92678
-0.18844,0.90398,-0.38381,0.17225,-1.69192,0.78545
-0.17894,0.92763,-0.32785,0.27885,-1.7466,0.72876
-0.16927,0.95124,-0.25784,0.31162,-1.01754,0.23839
-0.14828,0.96605,-0.21156,0.64189,0.07089,-1.17036
-0.12212,0.97004,-0.21004,0.76784,0.66716,-1.68034
-0.10714,0.96895,-0.22282,0.33264,-0.01613,-0.49655
-0.10286,0.96371,-0.24635,0.38658,0.40464,2.36545
-0.07293,0.95445,-0.28931,0.35665,0.41389,2.40841
-0.06012,0.94266,-0.32828,-1.02905,-0.83785,0.94228
-0.05733,0.94494,-0.3222,-1.20385,-0.33335,1.63679
-0.07797,0.96173,-0.26269,-1.25572,-0.05039,1.27013
-0.15177,0.97024,-0.18867,-0.73306,1.6557,0.8361
-0.25324,0.95973,-0.12157,0.12017,2.68869,1.03832
-0.28968,0.95712,0.00109,1.45883,2.89496,-0.64854
-0.26407,0.96075,0.08501,1.05143,1.54346,-0.22924
-0.22042,0.96388,0.1495,-0.2673,1.14571,-0.91385
-0.18066,0.95667,0.22834,-0.66828,0.41926,-1.33679
-0.15447,0.94723,0.28087,-1.27368,-0.19058,-1.36145
-0.16414,0.94261,0.29077,-0.22583,-0.56621,-1.01059
-0.18431,0.94034,0.286,0.24853,-0.65512,-0.98398
-0.19606,0.94066,0.27697,0.57182,-0.86011,-0.42858
-0.19863,0.94398,0.26353,0.39691,-0.97515,-0.12696
-0.18987,0.95057,0.24568,0.27378,-0.99,-0.20314
-0.1731,0.95962,0.22173,0.22982,-0.94165,-0.48842
-0.14777,0.96692,0.20791,-0.25281,-0.65625,-2.01348
-0.13516,0.97756,0.16157,-0.38472,-0.73933,-1.63428
-0.15945,0.98253,0.09593,-0.19589,1.94474,0.41832
-0.17155,0.98517,-0.00403,0.55836,2.68949,0.72495
-0.16559,0.97902,-0.11872,-0.00042,2.08551,0.70182
-0.15157,0.96827,-0.19871,-1.43631,1.44749,0.68381
-0.13453,0.95869,-0.25062,-1.0613,1.54913,-0.06187
-0.1268,0.93918,-0.31916,0.05733,1.34989,-0.3158
-0.10026,0.92739,-0.36042,1.23006,1.31518,0.41741
-0.08492,0.91082,-0.40398,0.43256,0.37212,0.55147
-0.10854,0.8871,-0.44863,0.45618,0.39584,0.59613
-0.13819,0.86841,-0.47619,-0.21229,-0.79215,1.10139
-0.15855,0.86161,-0.48216,-0.06189,-1.33718,1.03403
-0.16938,0.86835,-0.46612,-0.0033,-1.38441,0.99519
-0.16658,0.8859,-0.43292,0.14404,-1.54629,0.8297
-0.14684,0.91109,-0.38516,0.38128,-1.62796,0.7359
-0.12021,0.9381,-0.32482,0.43058,-1.42582,0.4891
-0.09285,0.95942,-0.26626,0.53324,-0.187,-0.71345
-0.06501,0.96626,-0.24921,0.53323,0.81129,-1.36412
-0.0447,0.96092,-0.27319,0.17851,0.43511,-1.02724
-0.04712,0.94954,-0.3101,-0.04193,-0.96457,1.03849
-0.03517,0.9373,-0.34674,-1.1597,-0.79797,1.28073
-0.03281,0.95168,-0.30532,-1.59129,1.12411,-1.09022
-0.04031,0.95918,-0.2799,-0.12641,0.75989,1.38131
-0.0645,0.9659,-0.25076,-0.28844,0.23237,0.59966
-0.11298,0.97121,-0.20971,-0.3394,0.42296,0.88065
-0.17214,0.9727,-0.15561,-0.17066,1.72697,0.48394
-0.20309,0.97633,-0.07443,0.79072,1.94005,-0.17598
-0.18493,0.98239,0.02651,0.80655,1.68681,-0.38539
-0.14472,0.98282,0.11459,-0.36441,1.29062,-0.86814
-0.11275,0.9759,0.18685,-0.85054,0.38377,-1.21128
-0.10316,0.96639,0.23546,-1.11857,0.04067,-1.23192
-0.1268,0.95564,0.26586,-0.16926,-0.60398,-0.82409
-0.159,0.94646,0.28095,0.61215,-0.73038,-0.6263
-0.18238,0.94238,0.28046,0.70286,-0.73532,-0.37544
-0.19099,0.94489,0.26592,0.27738,-1.04056,-0.37415
-0.18372,0.95016,0.25186,0.33419,-0.99298,-0.83485
-0.16345,0.95409,0.25098,0.46308,-0.95986,-1.5842
-0.15736,0.9656,0.20702,-0.36957,-0.9181,0.10592
-0.16835,0.97597,0.13835,-0.41922,-0.58756,0.11962
-0.17118,0.98184,0.08179,-0.51139,-0.25496,-0.1607
-0.16908,0.9856,-0.00013,0.43411,1.79084,0.49597
-0.16883,0.98124,-0.09307,0.06095,1.85345,0.22265
-0.17172,0.97145,-0.16372,-0.4592,1.76413,0.14259
-0.16159,0.95896,-0.23299,-0.74983,1.7956,0.15427
-0.1397,0.94312,-0.30168,0.1382,1.29071,-0.05762
-0.12799,0.92767,-0.35077,0.60504,1.21339,0.28708
-0.11828,0.91283,-0.39083,0.45581,0.64593,0.42873
-0.12646,0.89688,-0.42382,0.08149,0.01897,0.86084
-0.13739,0.88286,-0.44909,-0.2446,-0.35097,0.996
-0.14148,0.87857,-0.45617,-0.24556,-1.40102,0.94456
-0.14302,0.88682,-0.43942,-0.01265,-1.47029,0.87826
-0.14241,0.90316,-0.40499,0.07785,-1.45239,0.86463
-0.13295,0.9249,-0.35621,0.25189,-1.57575,0.68633
-0.12133,0.94671,-0.29837,0.58984,-1.43485,0.4532
-0.10025,0.96376,-0.24721,0.32527,-0.81922,-0.20406
-0.04578,0.95845,-0.28156,1.15221,1.32362,-3.03334
-0.00217,0.95029,-0.31137,2.05933,3.54038,-2.43477
0.02105,0.929,-0.36948,-0.56269,-1.60173,5.51203
0.08676,0.91573,-0.39232,-3.03238,-2.11226,2.44986
0.11123,0.95539,-0.27361,-2.2393,-1.36486,1.0733
0.04224,0.98701,-0.15503,-1.57183,3.0534,-0.87285
-0.11313,0.9853,-0.12803,-0.14191,1.33962,0.73217
-0.23854,0.96915,-0.06197,2.69317,2.52604,-0.50027
-0.21976,0.9693,0.11032,2.9287,1.75524,-0.05403
-0.18089,0.96688,0.18007,0.74804,0.62004,-2.37382
-0.11681,0.96863,0.21933,-0.21249,0.88804,-1.20922
-0.07773,0.95957,0.27052,-0.37406,0.46827,-0.63024
-0.06732,0.943,0.32591,-2.0317,-0.68697,-0.82529
-0.07556,0.93674,0.34176,-0.213,-0.95128,-1.18147
-0.10258,0.93772,0.3319,0.29258,-0.82719,-1.11186
-0.12356,0.94274,0.3098,0.53256,-0.79201,-0.69
-0.13299,0.9481,0.28883,0.39257,-0.91688,-0.82307
-0.12297,0.95321,0.27617,0.284,-0.89666,-0.97654
-0.10668,0.965,0.23955,-0.59537,-0.8455,-0.21091
-0.12135,0.97656,0.17775,-0.59491,-0.65891,0.00382
-0.13659,0.98558,0.09985,-0.07619,0.19348,0.23972
-0.13265,0.99115,-0.00431,0.54605,2.35043,0.56446
-0.13144,0.98585,-0.10399,0.00767,2.27521,0.63888
-0.12585,0.97555,-0.18014,-0.9635,1.72872,0.21593
-0.1098,0.9609,-0.25417,-0.48781,1.68207,-0.22397
-0.07981,0.94679,-0.31179,0.80482,1.27083,0.13278
-0.04016,0.93562,-0.35071,1.32448,1.26668,0.3525
-0.04828,0.9115,-0.40845,0.91825,0.57699,0.63764
-0.08036,0.88632,-0.45604,-0.21241,-0.16817,1.26828
-0.09821,0.8716,-0.48028,-0.67208,-0.75589,1.26273
-0.09761,0.8712,-0.48113,-0.39972,-1.62789,1.16343
-0.08933,0.88346,-0.45991,-0.15714,-1.53005,1.08139
-0.07514,0.9041,-0.42067,-0.14909,-1.51855,0.98946
-0.05779,0.92919,-0.36505,0.06947,-1.67915,0.77347
-0.04927,0.95295,-0.29908,0.30816,-0.83629,0.1704
-0.02893,0.96856,-0.2471,0.6541,-0.40542,-0.73359
0.00103,0.96803,-0.25084,0.51996,0.41711,-1.45987
0.01548,0.95936,-0.28175,0.24482,0.16199,-1.49164
0.02266,0.94442,-0.32796,-0.38797,-0.32467,2.90949
0.01649,0.93516,-0.35383,-0.59147,0.23375,1.42016
-0.00039,0.93149,-0.36376,-0.35575,-0.29485,1.34217
-0.01819,0.9442,-0.32887,-0.27865,-0.19661,1.30581
-0.06909,0.96158,-0.2657,-0.37833,0.566,1.52673
-0.14623,0.96682,-0.20945,-0.06483,2.07156,1.30154
-0.18866,0.97848,-0.08358,0.33032,2.94781,0.59908
-0.16978,0.98546,0.00623,0.41717,1.12054,-0.57547
-0.12328,0.98954,0.07484,-0.43426,0.70688,-0.75177
-0.08203,0.98526,0.1501,-0.78518,-0.04688,-0.96705
-0.05442,0.97705,0.20591,-0.81107,-0.30146,-0.8845
-0.06274,0.9693,0.23773,-0.28642,-0.75185,-0.72729
-0.0867,0.96302,0.2551,0.02653,-0.77938,-0.72832
-0.11037,0.95874,0.26196,0.23608,-0.89917,-0.47895
-0.11955,0.9595,0.25507,0.2635,-0.96652,-0.82545
-0.11224,0.96225,0.24793,0.34974,-0.94698,-1.00757
-0.10139,0.97092,0.21687,-0.43065,-0.95569,-0.68237
-0.1072,0.98174,0.15716,-0.4459,-0.62108,-0.18983
-0.1169,0.98862,0.09468,-0.32922,-0.2831,0.08542
-0.12097,0.99252,0.01643,0.2326,1.9643,0.15819
-0.12157,0.98936,-0.07985,-0.22456,1.97493,0.04587
-0.12741,0.98043,-0.15004,-0.84187,1.8322,0.12161
-0.11643,0.96904,-0.21773,-0.73988,2.10039,0.14144
-0.07532,0.95487,-0.28732,0.33334,1.48096,0.11701
-0.03748,0.94269,-0.33155,0.85433,1.44136,0.40369
-0.02717,0.92568,-0.37733,0.30045,0.42221,0.62376
-0.04139,0.9046,-0.42425,-0.42504,-0.41966,1.0409
-0.06356,0.88707,-0.45723,-0.69477,-0.9104,1.05477
-0.07449,0.88184,-0.46562,-0.37905,-1.63953,0.95991
-0.07898,0.89129,-0.4465,-0.07535,-1.53139,0.89026
-0.08304,0.90977,-0.40673,0.06416,-1.5892,0.81339
-0.07942,0.93304,-0.35089,0.53072,-1.75633,0.80199
-0.06339,0.95824,-0.27885,0.40091,-0.94702,0.26555
-0.03552,0.97607,-0.21453,0.36789,-0.48094,-0.59868
-0.0076,0.97861,-0.20555,0.78946,0.73409,-1.06695
0.01137,0.97562,-0.21915,0.38905,0.36743,-0.73721
0.01226,0.97067,-0.24008,0.23524,-1.2222,1.56125
0.0286,0.96235,-0.2703,-2.76866,3.72754,-2.62982
0.05024,0.96656,-0.25147,-0.70585,1.39596,1.33961
0.03433,0.96781,-0.24934,-0.21654,0.12416,1.32864
0.00763,0.97548,-0.21997,-0.53577,-0.00378,1.24331
-0.04705,0.98504,-0.16575,-0.46029,1.14878,1.35435
-0.12178,0.98453,-0.12598,-0.17839,1.92561,1.45597
-0.15961,0.98636,-0.04024,1.2692,1.80522,-1.22021
-0.15623,0.983,0.09647,0.34898,0.93421,-1.05295
-0.12548,0.98072,0.14976,-0.06239,0.92246,-0.95614
-0.09624,0.97414,0.20439,-0.5871,-0.07572,-0.96304
-0.07524,0.96452,0.25304,-0.56636,-0.51372,-0.88281
-0.08955,0.95606,0.27914,-0.2879,-0.70313,-0.83391
-0.11076,0.95186,0.2858,0.32877,-0.79769,-0.63857
-0.12216,0.95034,0.28623,0.23689,-0.78679,-0.53717
-0.12291,0.95272,0.27787,0.29176,-0.92945,-0.53188
-0.1133,0.95686,0.26755,0.55588,-0.94398,-1.0128
-0.10459,0.96775,0.22915,-0.47636,-0.89109,-1.21427
-0.10021,0.98128,0.16442,-0.55102,-0.50947,-0.31024
-0.1085,0.98961,0.09426,-0.43774,-0.34937,0.36891
-0.12797,0.99157,0.02004,0.69491,2.91268,0.17241
-0.14111,0.98625,-0.086,0.70805,2.918,0.27844
-0.13583,0.97193,-0.1921,-0.66435,1.54716,0.2981
-0.10155,0.96042,-0.25937,-1.3678,1.71897,0.40541
-0.05379,0.9473,-0.31579,-0.90319,1.54795,0.02303
-0.02056,0.92819,-0.37153,0.80976,0.9973,0.18984
-0.01717,0.90831,-0.41794,0.60108,0.21224,0.56957
-0.03976,0.88787,-0.45838,0.62367,0.23268,0.61
-0.07165,0.8744,-0.47988,-0.54371,-1.24131,1.04974
-0.09104,0.87317,-0.47883,-0.20872,-1.52193,1.01378
-0.09779,0.88452,-0.45614,-0.20197,-1.53327,0.99108
-0.09713,0.90557,-0.41292,0.04894,-1.7404,0.7255
-0.08412,0.9346,-0.34559,0.7325,-1.24462,0.6614
-0.06394,0.9631,-0.26142,0.66141,-0.88112,0.3798
-0.02964,0.9749,-0.22067,0.77073,0.81949,-1.89261
0.00239,0.97088,-0.23952,0.19566,0.27712,-0.8553
0.01862,0.96395,-0.26541,-0.10719,-0.15745,-0.43483
0.01141,0.95837,-0.28529,-0.02316,-1.4727,2.02312
0.00988,0.9497,-0.31301,-0.91077,0.25732,0.47889
0.02004,0.95368,-0.30013,-1.81946,4.01195,-2.09269
0.01006,0.95376,-0.30038,-0.25964,0.07134,1.10615
-0.00585,0.95739,-0.28873,-0.34725,0.18229,1.27209
-0.04707,0.96659,-0.25195,-0.46096,0.5562,1.15461
-0.10873,0.97109,-0.21252,0.15098,2.14367,0.58352
-0.1559,0.98015,-0.12242,1.24797,1.6051,-0.19379
-0.16286,0.98646,0.01902,1.05875,1.3687,-0.55218
-0.1277,0.98805,0.08625,-0.39593,1.08691,-1.06324
-0.0927,0.98474,0.14724,-0.87681,0.28724,-0.97689
-0.0659,0.97739,0.2009,-0.95897,-0.11444,-1.07805
-0.07003,0.97058,0.23034,0.03238,-0.85925,-0.76919
-0.09108,0.96691,0.23831,0.46426,-0.98369,-0.55718
-0.1055,0.96511,0.23965,0.44126,-0.91973,-0.42828
-0.1086,0.96659,0.23218,0.10006,-0.95861,-0.43034
-0.09366,0.96954,0.22629,0.44566,-0.65762,-1.69677
-0.07137,0.97928,0.18951,-0.46641,-0.60335,-1.61741
-0.07333,0.99062,0.11525,-0.78131,-0.51101,0.0705
-0.09037,0.99464,0.05011,-0.47522,0.08319,0.3599
-0.10558,0.99401,-0.02811,0.28358,1.7533,0.38706
-0.11488,0.98333,-0.14094,0.03956,2.97093,-0.02658
-0.11599,0.96618,-0.23028,-0.2537,1.68625,0.24453
-0.07516,0.95305,-0.29334,-1.3075,1.53968,0.647
-0.01871,0.9385,-0.34476,0.37394,1.41433,-0.01994
0.02414,0.92027,-0.39052,0.9316,1.29787,0.23699
0.02974,0.89675,-0.44154,1.52752,0.911,0.36583
-0.01362,0.8711,-0.49091,0.18772,-0.13961,1.12847
-0.06138,0.85278,-0.51865,-0.62216,-1.0439,1.30048
-0.08006,0.85132,-0.5185,-0.70947,-1.53569,1.23458
-0.07693,0.86713,-0.49211,-0.36818,-1.54214,1.07896
-0.06338,0.89431,-0.44294,-0.12524,-1.80448,0.86039
-0.03766,0.92943,-0.36707,0.11097,-1.99129,0.98189
-0.00957,0.96249,-0.27115,0.65144,-0.82899,0.24098
0.02832,0.9764,-0.21411,1.01637,1.12155,-2.23616
0.05713,0.97607,-0.20982,0.52792,0.81834,-1.01794
0.07626,0.96839,-0.23748,-0.13991,-0.67065,-0.71581
0.06426,0.95839,-0.27812,0.19299,-1.97688,3.05798
0.05783,0.94854,-0.31131,-0.26735,-2.16368,2.69364
0.08707,0.94743,-0.30787,-2.95009,3.80209,-3.58976
0.06446,0.96459,-0.25574,-0.1544,-0.65994,0.48808
0.04478,0.96307,-0.26549,-0.16398,-0.75166,0.86034
-0.00484,0.97086,-0.23961,0.16103,1.28603,1.59143
-0.08212,0.97437,-0.20942,0.89215,2.26211,-0.50084
-0.13609,0.98502,-0.10585,0.94611,2.25146,-0.60441
-0.13411,0.99088,-0.01267,0.12994,0.81835,-0.44495
-0.09457,0.99357,0.06217,-0.19121,0.97837,-0.60258
-0.05703,0.98842,0.14059,-0.71128,0.89975,-1.24057
-0.02589,0.98002,0.19719,-1.09146,0.12374,-1.09417
-0.03173,0.97349,0.22649,-0.21847,-0.5756,-0.94007
-0.06336,0.97091,0.23087,0.20517,-0.70256,-0.88
-0.08693,0.97073,0.22387,0.37073,-0.97609,-0.34987
-0.09638,0.97316,0.20894,0.20392,-1.11399,-0.36823
-0.09063,0.97715,0.19226,0.35822,-1.12018,-0.45948
-0.07691,0.98534,0.15226,-0.45335,-0.76911,-1.12933
-0.07152,0.99363,0.08709,-0.66554,-0.77497,-0.43677
-0.07951,0.99664,0.01931,-0.60149,-0.58614,-0.21261
-0.09659,0.99441,-0.04262,-0.13927,0.68407,0.32624
-0.10841,0.98537,-0.13148,0.62503,3.45253,0.24996
-0.10883,0.96376,-0.24354,0.50389,3.0842,0.52348
-0.08344,0.94786,-0.30757,-0.95427,1.3253,0.49337
-0.03978,0.93497,-0.35248,-0.04238,1.36244,-0.35073
0.00446,0.91314,-0.40762,0.47877,1.48829,-0.32384
0.0059,0.88635,-0.46298,1.1923,0.98706,0.51701
-0.01483,0.86198,-0.50672,0.17424,0.13558,0.77059
-0.05633,0.8426,-0.53558,-0.23741,-0.27629,1.0288
-0.08448,0.83684,-0.54089,-0.70686,-1.39002,1.19149
-0.08936,0.84772,-0.52286,-0.35066,-1.4393,1.07631
-0.08578,0.87163,-0.4826,-0.23465,-1.35521,0.93969
-0.081,0.90119,-0.42579,0.05365,-1.66698,0.76641
-0.07634,0.93429,-0.34823,0.5055,-1.17999,0.47611
-0.05922,0.95794,-0.28077,0.5137,-0.80526,0.08639
-0.02983,0.96144,-0.2734,0.86066,0.577,-1.42193
-0.00222,0.96104,-0.2764,0.45657,-0.24685,-0.74691
0.01066,0.95781,-0.28718,0.6139,-0.6516,-0.18665
0.01809,0.95352,-0.30078,-0.6031,-0.7995,2.35642
0.04599,0.9461,-0.32058,-1.6773,3.06153,-0.0654
0.02164,0.94879,-0.31515,-0.60435,0.13864,1.62025
0.00074,0.94859,-0.3165,-0.59049,-0.33485,1.18685
-0.0467,0.95942,-0.27808,-0.44465,1.31557,1.40685
-0.13606,0.96137,-0.23925,0.13563,2.02038,1.23156
-0.20774,0.96919,-0.1323,1.63691,1.94333,-0.19117
-0.20795,0.97802,-0.01493,1.14617,1.14937,-0.15878
-0.16059,0.9855,0.05467,0.48022,1.12227,-0.40329
-0.11083,0.98482,0.13357,-1.06351,0.57718,-1.34121
-0.06955,0.97623,0.20526,-1.39762,-0.01122,-1.23148
-0.05979,0.96776,0.24467,-1.12034,-0.43692,-1.04485
-0.0894,0.96401,0.25035,0.481,-0.81777,-0.92236
-0.11487,0.96438,0.23824,0.55899,-0.99309,-0.47348
-0.12706,0.96703,0.22071,0.39672,-1.05115,-0.25025
-0.12668,0.97025,0.2063,0.24278,-1.06081,-0.22537
-0.11064,0.97514,0.19197,0.23362,-0.55003,-1.22644
-0.09652,0.98441,0.14699,-0.39999,-0.6289,-1.40976
-0.09497,0.99289,0.0717,-0.35689,-0.27216,0.27108
-0.11044,0.99383,-0.00945,-0.24584,2.30881,0.85533
-0.126,0.98698,-0.09998,-0.07618,2.73611,0.3775
-0.13373,0.97753,-0.16292,-0.64455,1.51441,0.19492
-0.11473,0.96807,-0.22287,-0.29228,1.86282,-0.05418
-0.08042,0.95219,-0.29472,0.13613,1.67682,-0.0634
-0.04586,0.93464,-0.35262,1.02768,1.14849,0.19409
-0.03074,0.91602,-0.39994,0.37282,0.57646,0.35676
-0.03588,0.89659,-0.44141,0.12435,0.21415,0.54958
-0.06016,0.87766,-0.47549,-0.45601,-0.95928,0.94906
-0.07658,0.86912,-0.48863,-0.35051,-1.38154,0.98148
-0.08559,0.87326,-0.47968,-0.2871,-1.43626,0.95558
-0.0945,0.88798,-0.45006,0.02778,-1.47128,0.74191
-0.09747,0.90932,-0.40451,0.26991,-1.70298,0.67903
-0.09027,0.93447,-0.34441,0.43734,-1.60282,0.59906
-0.07002,0.95507,-0.28799,0.48253,-0.34777,-0.9067
-0.03805,0.96108,-0.27364,0.86747,0.55812,-1.2917
-0.01579,0.95857,-0.28439,0.59736,0.37768,-0.75247
-0.0187,0.95216,-0.30503,0.42842,-0.22388,1.00066
0.00178,0.93663,-0.3503,-1.01909,2.46504,0.01715
0.0007,0.92445,-0.38129,-1.60156,0.98232,1.0113
-0.0032,0.92585,-0.37787,-0.85514,-0.54791,1.91314
-0.01811,0.94576,-0.32434,-1.0096,0.12881,1.34229
-0.0758,0.96223,-0.26146,-1.06593,0.87783,1.00305
-0.17413,0.96527,-0.19476,0.65282,2.83528,0.42163
-0.23003,0.971,-0.06505,1.6814,1.80901,-0.4035
-0.21585,0.97586,0.03313,1.10919,1.43935,-0.41981
-0.16854,0.98081,0.09792,0.26697,1.11118,-0.64944
-0.11871,0.97794,0.17182,-1.08876,0.03324,-1.40038
-0.08771,0.96935,0.22949,-1.18591,-0.32805,-1.40276
-0.09737,0.96321,0.25046,0.09058,-0.6463,-1.11366
-0.12046,0.9601,0.25235,0.37107,-0.85708,-0.52942
-0.14194,0.96112,0.23683,0.39255,-0.85809,-0.5139
-0.15485,0.96506,0.21136,0.13122,-1.0694,-0.25171
-0.15205,0.9695,0.19222,0.22146,-1.0748,-0.15274
-0.14078,0.97603,0.16594,-0.18663,-0.71095,-1.8105
-0.14448,0.98557,0.08811,-0.31394,-0.81106,-0.6812
-0.15853,0.98735,0.00101,-0.06153,0.83232,0.51388
-0.18524,0.97926,-0.08203,-0.06676,2.24599,0.43568
-0.19814,0.96653,-0.16293,-0.18603,2.57596,0.04939
-0.1824,0.95761,-0.22297,-0.36124,1.77268,0.35261
-0.11636,0.95039,-0.28848,-0.37214,1.89268,0.27688
-0.06195,0.937,-0.3438,0.88226,1.57485,0.00355
-0.04818,0.91673,-0.3966,0.84723,0.57691,0.49561
-0.06696,0.8919,-0.44724,0.53238,0.19734,0.68295
-0.10218,0.86828,-0.48544,-0.74569,-1.01981,1.13972
-0.12455,0.85829,-0.49781,-0.65941,-1.62366,1.16353
-0.13156,0.86711,-0.48042,-0.45688,-1.6933,1.07798
-0.1322,0.88856,-0.43929,-0.09921,-1.50696,0.98311
-0.1255,0.91685,-0.37899,0.16934,-1.47343,1.0251
-0.11314,0.94439,-0.30874,0.26802,-1.24223,0.66554
-0.09671,0.96298,-0.25162,0.8024,-0.07272,-1.2672
-0.06621,0.96936,-0.23655,1.25311,0.63246,-1.03184
-0.04131,0.96974,-0.24061,0.9632,0.17076,-0.64885
-0.03183,0.96475,-0.26121,0.29048,-1.25826,1.41338
-0.02085,0.95416,-0.29856,-1.00486,0.09603,1.91981
-0.01878,0.95776,-0.28696,-2.74314,4.30346,-3.20253
-0.0458,0.9579,-0.28342,-0.11539,-0.55909,0.85528
-0.09312,0.95469,-0.28266,-0.34706,0.77246,1.49577
-0.16811,0.95126,-0.25855,-0.20822,1.35714,1.64554
-0.22137,0.95283,-0.20761,0.67657,1.92124,-0.19222
-0.23285,0.97127,-0.04904,0.71203,1.41937,-0.10195
-0.19827,0.97694,0.07912,-0.0654,1.01202,-1.06783
-0.16017,0.97969,0.12062,-0.75807,0.62931,-1.01602
-0.13859,0.97527,0.17216,-0.6397,-0.06523,-0.78001
-0.13796,0.96554,0.22065,-0.49021,-0.42627,-0.99274
-0.15577,0.9589,0.23713,0.60136,-0.79655,-0.70277
-0.16742,0.95737,0.23537,0.60596,-0.95203,-0.47377
-0.17039,0.95806,0.23038,0.39593,-1.03179,-0.40527
-0.16446,0.9608,0.22316,0.26226,-1.04584,-0.39544
-0.14612,0.96737,0.20698,0.24413,-0.65911,-1.2549
-0.13247,0.98011,0.14772,-0.42151,-0.80273,-1.22106
-0.13048,0.98875,0.07305,-0.47549,-0.45366,0.3318
-0.13435,0.99091,0.00634,-0.03119,1.47467,0.05494
-0.13521,0.98824,-0.07131,0.26172,2.04828,-0.03875
-0.13122,0.97823,-0.16076,-0.45464,2.67935,-0.12272
-0.12265,0.96617,-0.22686,-1.11631,2.19592,0.70084
-0.07667,0.95057,-0.3009,-0.59778,1.85684,0.46909
-0.04234,0.9295,-0.36638,0.6702,1.05636,0.23361
-0.04004,0.90269,-0.42842,0.73462,1.01159,0.22913
-0.04838,0.87953,-0.47336,0.26207,0.49081,0.58633
-0.07509,0.86019,-0.50441,-0.32773,-0.94544,0.93306
-0.10131,0.84901,-0.51857,-0.19689,-1.36465,1.02061
-0.11612,0.85173,-0.51095,-0.1791,-1.47122,0.9881
-0.12319,0.86896,-0.4793,0.1964,-1.72004,0.85681
-0.11446,0.89624,-0.42854,0.55742,-1.88895,0.80661
-0.08777,0.92851,-0.36077,0.78696,-1.45532,0.58303
-0.05876,0.95517,-0.29015,0.53376,-0.13117,-0.78194
-0.024,0.96491,-0.26149,0.82979,0.80341,-1.33292
0.00462,0.96097,-0.27659,0.42811,0.51577,-0.66923
0.01404,0.95064,-0.30998,-0.21698,-0.03375,-0.87226
0.0008,0.9387,-0.34473,-0.13964,-0.42698,3.00119
0.02067,0.9284,-0.37099,-1.14062,0.87448,0.05783
0.0168,0.93258,-0.36058,-0.22951,0.00943,1.47583
0.01451,0.93742,-0.34788,-0.63395,0.29878,1.11018
-0.01482,0.95314,-0.30215,-0.52887,0.11838,1.00386
-0.07906,0.96413,-0.25338,-0.4268,1.53662,0.78595
-0.1599,0.97015,-0.18228,1.10954,2.24231,0.08154
-0.19082,0.97923,-0.06846,1.43507,1.56604,-0.54882
-0.16634,0.98603,0.00848,0.16782,1.15855,-0.66898
-0.12634,0.9894,0.07153,-0.50484,0.74266,-0.94911
-0.09233,0.98608,0.13822,-0.81531,0.4429,-1.0998
-0.07844,0.97878,0.18928,-0.67161,-0.59346,-0.97363
-0.092,0.97073,0.22183,0.04149,-0.80482,-0.72355
-0.11447,0.9632,0.24318,0.29222,-0.80457,-0.61606
-0.13351,0.95826,0.2528,0.3265,-0.78008,-0.5657
-0.14065,0.95804,0.24974,0.24511,-0.97934,-0.49667
-0.13454,0.95917,0.24874,0.31617,-0.99512,-0.57415
-0.11672,0.96361,0.24045,-0.11201,-0.78804,-0.94135
-0.10999,0.9776,0.17944,-0.44702,-0.77679,-0.7552
-0.1125,0.988,0.10577,-0.51883,-0.4501,-0.23679
-0.12019,0.9923,0.02989,0.11885,1.87868,0.55819
-0.11971,0.98913,-0.08537,0.22569,2.73561,0.4423
-0.11109,0.97641,-0.18512,-0.26424,1.58813,0.43996
-0.07621,0.96501,-0.25087,-1.42176,2.05417,0.13594
-0.04047,0.94364,-0.32847,-0.06535,1.4759,-0.29933
-0.02781,0.91666,-0.3987,0.67146,1.24808,0.16881
-0.01394,0.89281,-0.45021,0.79012,0.85276,0.20307
-0.03389,0.86461,-0.5013,0.0923,0.20583,0.95394
-0.07051,0.83982,-0.53827,-0.23646,-0.29134,1.16376
-0.09889,0.82594,-0.55501,-0.416,-1.35057,1.26517
-0.11172,0.82994,-0.54655,-0.24311,-1.51541,1.12838
-0.11738,0.84878,-0.51555,-0.15332,-1.43268,1.1326
-0.11065,0.8773,-0.467,0.08457,-1.48721,0.92074
-0.09368,0.91083,-0.40201,0.39819,-1.51533,0.6346
-0.0676,0.94099,-0.3316,0.56075,-1.25009,0.35571
-0.02612,0.94926,-0.31338,0.95575,0.87512,-2.19901
-0.00011,0.94509,-0.32679,0.29943,-0.17376,-0.90738
0.00607,0.93925,-0.34316,0.21099,-0.70941,-0.56666
0.01877,0.92599,-0.37708,-1.68285,2.89485,-1.60093
0.01089,0.91477,-0.40382,-1.56353,2.33961,0.57649
-0.01008,0.91052,-0.41334,-0.21801,-0.87844,1.59547
-0.01835,0.92105,-0.38902,-0.42153,0.04577,1.36415
-0.04807,0.94741,-0.31639,-0.6641,1.74859,0.93595
-0.11954,0.96506,-0.23317,-0.14024,2.0811,0.45951
-0.17722,0.97056,-0.16307,1.26635,1.97916,0.01589
-0.18383,0.97937,-0.08388,0.89155,1.38364,-0.11316
-0.15835,0.98736,0.00678,0.50231,1.27308,-0.09217
-0.11921,0.98823,0.09582,-0.70631,0.48194,-1.33749
-0.09076,0.98291,0.16014,-0.9492,-0.11244,-1.28654
-0.08548,0.97566,0.20191,-0.7919,-0.26114,-1.20957
-0.10499,0.96822,0.22697,-0.07438,-0.83732,-0.78387
-0.12558,0.96216,0.24182,0.43696,-0.89496,-0.42962
-0.13752,0.96215,0.23525,0.39043,-0.94999,-0.34089
-0.13965,0.96576,0.21863,0.18552,-1.0596,-0.347
-0.12501,0.96932,0.21162,0.1329,-0.5728,-1.69057
-0.11025,0.97805,0.1768,-0.46543,-0.77096,-1.33699
-0.11104,0.98883,0.09938,-0.49752,-0.59621,0.36702
-0.12135,0.9921,0.03166,-0.60749,0.19067,0.08152
-0.13652,0.98999,-0.0356,-0.1565,1.21771,0.07819
-0.15059,0.9784,-0.14161,0.3284,2.69267,0.12821
-0.14497,0.96048,-0.23762,-0.97828,1.53466,0.41249
-0.09939,0.94747,-0.304,-1.02385,1.54766,0.47886
-0.06479,0.92825,-0.36628,0.51703,1.41123,0.07717
-0.04912,0.90745,-0.41727,1.23805,1.11869,0.3635
-0.0541,0.88577,-0.46096,0.95344,0.8523,0.45291
-0.08404,0.8634,-0.49747,-0.18816,-0.5904,1.02994
-0.11216,0.84971,-0.51519,-0.3455,-1.31009,1.11693
-0.12405,0.85137,-0.50969,-0.31339,-1.46166,1.12885
-0.12334,0.86882,-0.47952,0.00296,-1.52856,0.98562
-0.11451,0.89642,-0.42816,0.08505,-1.85989,0.82542
-0.09379,0.93081,-0.35327,0.25725,-1.96599,0.85125
-0.0702,0.96218,-0.26322,0.61656,-0.60872,0.1914
-0.0356,0.9745,-0.22154,1.16435,1.00599,-2.4023
-0.00862,0.9737,-0.22766,1.27411,1.15725,-1.78177
0.00745,0.96471,-0.26321,-0.08304,-0.2475,-0.78004
0.00051,0.95394,-0.3,0.23948,-1.33798,1.62165
0.01856,0.94031,-0.33981,-0.10783,-1.60487,3.57379
0.02715,0.94619,-0.32246,-1.6638,2.45252,0.51315
0.00647,0.95282,-0.30346,-0.20851,0.71779,1.46045
-0.02066,0.96047,-0.27761,-0.28423,0.41355,1.03208
-0.07236,0.97094,-0.22811,-0.29611,0.67216,1.03896
-0.14422,0.97225,-0.18418,0.02628,1.6354,1.32735
-0.18728,0.97649,-0.10674,0.62727,2.32378,0.67881
-0.1815,0.98301,0.02716,1.0388,1.49242,-0.47821
-0.14431,0.9838,0.10628,-0.17486,1.15462,-0.96231
-0.10779,0.98042,0.16478,-0.46404,1.08994,-1.32915
-0.07865,0.97251,0.21914,-1.05473,-0.11322,-1.1412
-0.08493,0.9638,0.25272,-0.74351,-0.52867,-0.99604
-0.11668,0.95944,0.25664,-0.125,-0.76104,-0.79641
-0.1369,0.95905,0.24795,0.37447,-1.03221,-0.17075
-0.14495,0.96203,0.23126,0.2552,-0.99496,-0.42924
-0.137,0.96617,0.21849,0.23547,-1.00108,-0.52012
-0.11726,0.9673,0.22487,-0.37925,-0.68356,-1.66062
-0.11532,0.97618,0.18377,-0.34925,-0.68678,-0.3438
-0.12224,0.98669,0.10721,-0.27765,-0.63871,0.15718
-0.13298,0.99032,0.03965,-0.13447,1.73366,0.38816
-0.13468,0.98944,-0.05344,0.20776,2.61557,0.29412
-0.13036,0.97952,-0.15342,0.33575,3.07349,0.20055
-0.12336,0.96755,-0.22051,-1.06187,1.8915,0.51924
-0.08511,0.95412,-0.28708,-0.21586,1.63181,-0.18188
-0.05334,0.93522,-0.35002,-0.24763,1.6507,-0.11895
-0.0335,0.91684,-0.39784,1.02265,0.77649,0.45584
-0.04984,0.89327,-0.44675,0.37379,0.15063,0.86984
-0.08578,0.87017,-0.48522,-0.10561,-0.29365,1.10473
-0.1124,0.85767,-0.50176,-0.52575,-1.48211,1.15302
-0.12198,0.86161,-0.49269,-0.23229,-1.67288,1.03972
-0.12385,0.88016,-0.45824,-0.02876,-1.68562,0.98468
-0.1162,0.90833,-0.40178,0.54581,-1.7544,1.04704
-0.09473,0.9426,-0.32019,0.68831,-1.04842,0.5229
-0.05662,0.96321,-0.26269,0.45821,-0.58713,-0.42084
-0.02652,0.96356,-0.26615,0.69383,0.84006,-1.29282
-0.0099,0.95851,-0.28488,0.19606,0.01255,-0.69197
-0.01809,0.9528,-0.30306,0.22924,-0.6258,-0.17368
-0.00439,0.94464,-0.32807,-0.52091,-1.70839,2.76617
0.01939,0.95171,-0.30636,-2.61571,4.59699,-3.88265
-0.01936,0.96746,-0.25228,-0.29189,1.6723,2.25738
-0.06152,0.96766,-0.24463,0.34913,0.51093,1.46837
-0.12355,0.96574,-0.22822,0.22186,1.36633,1.43778
-0.17098,0.96637,-0.19208,0.11826,1.5138,1.13414
-0.17403,0.98165,-0.07789,0.6835,1.67376,0.30052
-0.14794,0.98716,0.0602,0.21639,1.16819,-0.57775
-0.09728,0.98364,0.1516,-0.3923,1.08504,-1.11636
-0.06357,0.97707,0.2032,-1.17688,0.35892,-1.49469
-0.06263,0.96764,0.24443,-0.87774,-0.28304,-0.98625
-0.08802,0.96024,0.26491,-0.34046,-0.55831,-0.77533
-0.11016,0.95684,0.26889,0.51527,-0.85673,-0.34113
-0.11972,0.95866,0.25813,0.28948,-0.96627,-0.54132
-0.1183,0.96308,0.24182,0.28807,-0.97069,-0.52501
-0.10711,0.96634,0.23388,0.34112,-0.85765,-1.53307
-0.09365,0.97588,0.19717,-0.49994,-1.00411,-0.97659
-0.0896,0.98885,0.11891,-0.60869,-0.64356,0.05897
-0.10044,0.99374,0.04879,-0.41573,0.68183,0.41578
-0.11655,0.99271,-0.03051,0.21552,1.62516,0.44572
-0.12468,0.98159,-0.1447,0.60984,3.07686,0.60577
-0.11952,0.96744,-0.22309,-0.66142,1.51175,0.36244
-0.06297,0.95624,-0.28572,-1.25144,1.62349,0.33447
-0.01495,0.93529,-0.35355,-0.41346,1.76379,-0.17007
0.00254,0.91322,-0.40745,1.10838,1.13845,0.46386
-0.00864,0.88785,-0.46004,0.34863,0.18073,0.79906
-0.04446,0.86051,-0.50749,-0.10348,-0.25481,1.06019
-0.07875,0.84327,-0.53168,-0.52648,-1.52504,1.21897
-0.09939,0.84357,-0.52774,-0.17426,-1.66301,1.07769
-0.11195,0.86134,-0.49553,-0.0062,-1.56535,0.99275
-0.1133,0.88931,-0.44304,0.18836,-1.67523,0.7988
-0.0997,0.92204,-0.37403,0.71717,-1.23745,0.48754
-0.06806,0.95013,-0.30433,0.6023,-0.86747,0.08698
-0.02726,0.96071,-0.27621,0.78604,0.75484,-1.32011
0.00055,0.96125,-0.27566,0.12744,0.19167,-0.74963
0.0072,0.95318,-0.30231,0.00394,-0.31019,-0.81317
0.00127,0.94365,-0.33094,-0.59392,-1.54703,3.39417
0.00617,0.9436,-0.33104,-1.97076,3.70602,-2.13041
-0.02885,0.95075,-0.30859,0.02265,0.94726,2.47426
-0.06661,0.95402,-0.29224,-0.0103,0.33546,1.39818
-0.12399,0.95996,-0.2512,0.08445,1.53693,1.57591
-0.18615,0.96035,-0.20753,0.27365,1.97639,1.44745
-0.20971,0.97494,-0.07421,0.97283,1.56971,0.17896
-0.18045,0.98214,0.05327,-0.13208,1.30729,-0.67349
-0.1288,0.98453,0.11876,-0.68603,1.29301,-0.9809
-0.0879,0.97969,0.18018,-1.1813,0.18951,-1.30736
-0.07458,0.96967,0.23272,-0.99788,-0.61742,-1.03998
-0.10061,0.96191,0.25417,-0.46929,-0.89074,-0.96024
-0.13033,0.95924,0.25073,0.66382,-0.89996,-0.29683
-0.14388,0.9595,0.24218,0.32037,-0.99298,-0.25246
-0.14521,0.96277,0.228,0.25587,-0.99096,-0.30632
-0.13318,0.96564,0.22314,0.59211,-0.67115,-1.38334
-0.12152,0.97223,0.19997,-0.42238,-0.90309,-0.87805
-0.12045,0.9849,0.12431,-0.43128,-0.90415,-0.5286
-0.13302,0.98967,0.05343,-0.6635,0.10726,0.41345
-0.14869,0.98851,-0.02685,0.16804,1.93908,0.69058
-0.15488,0.97907,-0.13203,0.36072,2.97882,0.53393
-0.15321,0.96729,-0.20215,-0.5291,1.76377,0.32887
-0.11429,0.95901,-0.25929,-0.60558,1.95029,0.31184
-0.06145,0.94659,-0.31653,0.11109,1.74944,-0.17168
-0.03027,0.93113,-0.36341,1.29255,0.97071,0.43557
-0.0392,0.90896,-0.41503,0.66437,0.46538,0.73054
-0.07828,0.88213,-0.46444,-0.27156,-0.3818,1.24542
-0.11077,0.86291,-0.49306,-0.70861,-1.1904,1.23942
-0.12425,0.86022,-0.49455,-0.36513,-1.56368,1.10124
-0.13165,0.87072,-0.47382,-0.12148,-1.508,0.93823
-0.13369,0.89096,-0.43395,-0.06478,-1.53889,0.72265
-0.12798,0.91676,-0.37838,0.45011,-1.25724,0.43765
-0.11678,0.94061,-0.31876,0.5461,-1.03249,0.18172
-0.07684,0.94846,-0.30742,0.90384,0.30103,-1.60406
-0.04208,0.94637,-0.32034,0.5642,0.18895,-1.20134
-0.04005,0.94175,-0.33391,0.11479,-0.37928,-0.99302
-0.02355,0.92809,-0.37161,-0.32012,1.42938,2.16075
-0.03578,0.9106,-0.41174,-0.26826,-1.3511,0.73659
-0.05348,0.9146,-0.40079,-0.4204,-1.09693,1.67949
-0.05692,0.93502,-0.34999,-0.50861,0.09449,1.73619
-0.10344,0.95679,-0.27174,-0.85652,1.94544,1.11195
-0.18578,0.96104,-0.20464,-0.77418,1.9412,1.04485
-0.23161,0.96947,-0.08048,1.5617,2.17616,-0.82269
-0.21074,0.97729,0.02195,0.55404,1.42322,-0.51815
-0.16585,0.98244,0.08539,0.11017,1.3408,-0.5878
-0.12631,0.97887,0.16079,-0.5616,0.34312,-1.2931
-0.09989,0.97022,0.22066,-0.8409,-0.6341,-1.02571
-0.11495,0.96289,0.24418,-0.43449,-0.83511,-0.84861
-0.13896,0.95763,0.25224,0.41101,-0.93447,-0.61037
-0.14785,0.95367,0.26201,0.39219,-0.87478,-0.51436
-0.14893,0.95428,0.25917,0.2957,-0.95107,-0.46101
-0.13664,0.95685,0.25643,0.62858,-0.8877,-1.08062
-0.1181,0.96523,0.23316,-0.44002,-0.80615,-1.03858
-0.11448,0.97957,0.16533,-0.53264,-0.85299,-0.8249
-0.12002,0.98804,0.09675,-0.56595,-0.07552,0.43877
-0.13097,0.991,0.02761,0.05951,1.82436,0.17533
-0.14418,0.98681,-0.07349,0.41068,2.86051,0.17895
-0.14867,0.97528,-0.16345,-0.79028,1.86473,0.36089
-0.11535,0.96385,-0.24019,-0.93425,1.96973,0.19183
-0.06043,0.95025,-0.30557,-0.25514,1.82481,0.01353
-0.02125,0.93283,-0.35969,1.35132,1.14148,0.5031
-0.01607,0.91075,-0.41265,0.96623,0.79692,0.61156
-0.05106,0.88037,-0.47153,0.49423,0.37494,0.85029
-0.09131,0.85466,-0.51109,-0.7005,-1.04869,1.25777
-0.11276,0.84583,-0.5214,-0.50046,-1.63588,1.21621
-0.12197,0.85676,-0.50108,-0.30997,-1.77589,1.10596
-0.12168,0.88169,-0.45587,0.08325,-1.86759,0.99946
-0.10793,0.91551,-0.38754,0.3337,-1.75039,1.1053
-0.08197,0.9471,-0.31029,0.42944,-1.30365,0.66657
-0.04352,0.95826,-0.28254,1.04883,0.60787,-2.19986
-0.02059,0.95549,-0.29431,0.74582,0.61663,-1.05977
-0.01519,0.94681,-0.32143,0.25704,0.17029,-0.58366
-0.02956,0.93763,-0.34637,0.21281,-1.47607,2.36507
0.00122,0.92965,-0.36845,-1.93761,3.58192,-2.2829
-0.00697,0.93903,-0.34376,-1.92942,3.57253,-2.3076
-0.01699,0.94199,-0.33521,-0.48295,-0.07643,1.26444
-0.04327,0.95831,-0.28241,-0.50371,-0.02608,1.24037
-0.10819,0.97082,-0.214,-0.7913,1.03139,1.02058
-0.1886,0.97039,-0.15091,0.08728,2.56355,1.09801
-0.21644,0.97621,-0.01258,1.66738,2.0647,-0.74189
-0.18505,0.97903,0.08511,1.12679,1.75859,-0.6527
-0.13865,0.97961,0.14534,-0.39865,1.05893,-1.23212
-0.09652,0.97169,0.21562,-1.04911,-0.10647,-1.13503
-0.08223,0.9591,0.27082,-1.21587,-0.54404,-1.26544
-0.10602,0.95396,0.28056,0.48058,-0.95971,-0.90144
-0.12874,0.95264,0.27549,0.57518,-0.98439,-0.3495
-0.13892,0.95528,0.26101,0.38465,-1.00404,-0.18221
-0.12913,0.96067,0.24581,0.17984,-1.02061,-0.39437
-0.09486,0.96587,0.24102,-0.17371,-0.27571,-1.84596
-0.08518,0.98085,0.17515,-0.72969,-0.64521,-1.92038
-0.09673,0.99048,0.09792,-0.38627,-0.00162,0.61313
-0.11717,0.99283,0.02367,-0.19758,1.98381,0.32319
-0.13075,0.9884,-0.07719,0.33603,2.71549,0.22724
-0.14014,0.97526,-0.17096,-0.19317,2.12087,-0.00592
-0.11325,0.96201,-0.24841,-0.76088,2.11805,0.20066
-0.05294,0.94422,-0.32501,-0.08471,1.82084,-0.11574
-0.02312,0.92044,-0.3902,0.73854,1.27806,0.31334
-0.03162,0.8912,-0.4525,0.89622,0.74108,0.70361
-0.07818,0.85445,-0.51362,0.56935,0.45284,0.99121
-0.13118,0.82416,-0.55094,-0.40187,-1.07957,1.26893
-0.1641,0.81163,-0.56064,-0.12724,-1.58746,1.26087
-0.17585,0.82077,-0.54351,0.08663,-1.61191,1.20591
-0.16806,0.84757,-0.50336,0.12724,-1.70037,1.06879
-0.13871,0.88469,-0.44506,0.37624,-1.72752,0.99484
-0.10378,0.92371,-0.36875,0.36233,-1.50561,0.70168
-0.07457,0.95083,-0.30059,0.1456,-0.24203,-1.02822
-0.05752,0.95503,-0.29086,0.18632,1.08662,-1.52473
-0.05527,0.9486,-0.31161,0.13398,0.70394,-0.90978
-0.07084,0.94109,-0.33065,0.48076,-1.7531,2.3622
-0.07426,0.93611,-0.34378,0.1602,-2.24519,3.04673
-0.03246,0.94761,-0.31776,-0.43038,-1.43798,2.24199
-0.03446,0.96062,-0.27569,-0.36284,0.96191,1.87835
-0.0605,0.95729,-0.28271,0.03382,-0.91204,0.6329
-0.11331,0.96249,-0.2465,0.06795,-0.41386,1.04695
-0.17519,0.96351,-0.20235,0.06223,2.47902,1.98044
-0.20734,0.97118,-0.11751,0.95993,2.02365,-1.57992
-0.20456,0.97851,0.02575,1.07948,1.56145,-1.41076
-0.17687,0.9824,0.05992,-0.41475,0.6796,-1.11662
-0.14689,0.98344,0.10608,-0.53269,0.02191,-0.59645
-0.12016,0.98042,0.156,-0.60252,-0.22889,-0.49244
-0.11246,0.9759,0.18698,-0.11895,-1.00286,-0.58462
-0.11241,0.97315,0.20081,0.466,-1.04051,-0.29331
-0.11046,0.97193,0.2077,0.46405,-1.03928,-0.3002
-0.09738,0.97479,0.20071,0.46514,-0.9326,-0.35384
-0.07851,0.98422,0.15857,-0.57694,-0.28114,-2.0793
-0.06512,0.99323,0.09611,-0.95041,-0.68162,-1.17164
-0.06481,0.99766,0.02149,-0.3881,0.47403,0.46695
-0.07784,0.99421,-0.07399,-0.16455,1.4375,0.75306
-0.09384,0.97947,-0.17838,-0.08249,2.47711,0.80574
-0.09443,0.9675,-0.23458,-0.56111,1.55074,0.1905
-0.05905,0.95149,-0.30194,-0.55206,1.72902,0.20096
-0.01944,0.92667,-0.37537,-0.08885,1.63385,0.17876
0.00153,0.90474,-0.42596,1.01096,1.0977,0.4095
-0.01486,0.87867,-0.4772,0.6148,0.30036,0.92982
-0.06473,0.85315,-0.51764,0.03993,-0.26144,1.19319
-0.10336,0.83883,-0.53448,-0.40673,-1.397,1.27438
-0.1155,0.84278,-0.52572,-0.10657,-1.63237,1.22923
-0.11074,0.8633,-0.49238,-0.08949,-1.65777,1.19065
-0.08808,0.89526,-0.43674,-0.10943,-2.02484,1.02331
-0.05417,0.93289,-0.35606,0.36581,-1.5573,0.85186
-0.02918,0.96523,-0.25974,0.34012,-1.02836,0.45727
-0.003,0.97875,-0.20503,1.07034,1.24345,-2.14666
0.01893,0.97524,-0.22034,0.46692,0.92302,-0.97992
0.02595,0.96668,-0.25465,0.07119,0.50697,-0.88332
0.01358,0.95511,-0.29592,0.02647,0.1125,3.20678
0.03274,0.93993,-0.33979,-1.27266,1.08693,0.89901
0.02923,0.93461,-0.35446,-0.52939,-0.78845,1.13069
0.02322,0.94552,-0.32473,-0.77537,0.09065,1.6801
-0.01469,0.96991,-0.24299,-1.12885,0.99644,1.21966
-0.09761,0.9796,-0.17564,-0.90114,1.73572,1.16598
-0.16091,0.98263,-0.09241,1.4793,2.39033,-1.31331
-0.17289,0.98253,0.06876,1.19177,1.65324,-1.27577
-0.14085,0.98253,0.12162,0.39888,1.25847,-1.21021
-0.10796,0.97968,0.16901,-0.46764,0.29681,-1.10215
-0.07995,0.97148,0.22322,-0.90179,-0.51159,-0.91223
-0.08321,0.96592,0.24506,-0.77799,-0.68135,-0.83358
-0.10653,0.96398,0.2437,0.27639,-1.01096,-0.56717
-0.11966,0.96392,0.23776,0.26231,-0.97462,-0.33562
-0.11722,0.96571,0.23162,0.23778,-0.98915,-0.35558
-0.10622,0.9707,0.21552,0.53157,-0.66635,-1.32639
-0.10114,0.98211,0.15879,-0.47028,-0.90896,-0.83742
-0.10369,0.99113,0.08313,-0.52847,-0.71273,-0.28393
-0.11973,0.99276,0.00861,-0.26112,0.09738,0.42279
-0.14178,0.98647,-0.08227,0.07711,2.20552,0.17441
-0.15473,0.97145,-0.17985,0.04673,2.84781,0.06846
-0.15692,0.95584,-0.24846,-1.42444,1.92651,0.54534
-0.10476,0.94029,-0.32386,-0.32298,2.01934,0.14214
-0.05164,0.9202,-0.38802,0.04674,1.78958,0.04307
-0.03663,0.89346,-0.44764,1.06583,0.94566,0.43949
-0.06458,0.86466,-0.49819,0.24694,-0.18567,1.00156
-0.1011,0.84249,-0.52914,0.28345,-0.1635,1.03251
-0.12343,0.83378,-0.53812,-0.30457,-1.18322,1.10116
-0.12704,0.84295,-0.52277,0.00331,-1.50994,0.99752
-0.11876,0.86802,-0.48212,-0.01665,-1.56089,0.9146
-0.09416,0.90228,-0.42073,0.20606,-1.7366,0.87545
-0.06458,0.93516,-0.34828,0.57234,-0.73396,0.3195
-0.03407,0.95404,-0.29771,0.50957,-0.25693,-0.4816
-0.00589,0.95384,-0.30024,0.55339,0.60225,-1.31132
0.01631,0.94311,-0.33206,-0.34695,-0.11258,-1.03629
-0.00264,0.93018,-0.3671,-0.20853,-0.66087,-0.55447
0.0004,0.91686,-0.3992,-0.28418,-1.51636,3.63838
0.01097,0.92519,-0.37934,-0.11682,2.15623,1.8416
-0.00247,0.92705,-0.37493,0.23388,0.00339,1.97553
-0.02128,0.93721,-0.34809,-0.13275,-0.15465,1.30543
-0.06332,0.95894,-0.27643,-0.33158,0.93774,1.42932
-0.13474,0.9684,-0.20988,-0.35453,1.78414,1.40217
-0.17996,0.97756,-0.10946,1.41636,2.06269,-0.96076
-0.17289,0.98492,-0.00543,0.45798,1.31153,-0.70576
-0.13198,0.98934,0.0615,-0.21696,1.13066,-0.64298
-0.0927,0.98638,0.1358,-0.83172,-0.0579,-1.15756
-0.06527,0.97784,0.19887,-0.85145,-0.46207,-0.88771
-0.07606,0.97107,0.22634,-0.45891,-0.72285,-0.69311
-0.09861,0.96696,0.23507,0.35343,-0.94442,-0.53296
-0.1118,0.9659,0.23353,0.14538,-0.95575,-0.45575
-0.11144,0.96853,0.22255,0.19408,-0.96328,-0.5598
-0.09543,0.97499,0.2007,-0.03562,-0.62091,-1.39394
-0.0872,0.98667,0.13738,-0.49221,-0.97937,-0.38642
-0.09294,0.99379,0.06105,-0.43825,-0.61289,0.14427
-0.11096,0.99377,-0.01018,-0.56459,0.11321,-0.00194
-0.13462,0.98652,-0.09304,0.1186,2.15283,0.17114
-0.14697,0.9678,-0.20436,0.34976,3.10943,0.41151
-0.14053,0.94742,-0.28747,-1.17201,1.78108,0.51328
-0.08689,0.93081,-0.35502,-0.33709,1.93175,0.13265
-0.03672,0.90588,-0.42194,0.17736,1.78724,0.05704
-0.02482,0.87355,-0.4861,1.08933,0.90552,0.53775
-0.04978,0.84254,-0.53633,0.70084,0.3259,0.77788
-0.09672,0.81779,-0.56733,0.29612,-0.03891,1.08515
-0.12623,0.80732,-0.57645,-0.54995,-1.317,1.2907
-0.12887,0.81752,-0.5613,-0.31927,-1.65108,1.10602
-0.1222,0.84419,-0.52193,-0.19118,-1.55041,0.99144
-0.10866,0.88115,-0.46018,0.20024,-1.76674,0.86393
-0.09382,0.9205,-0.37929,0.42309,-1.27605,0.62217
-0.06643,0.94516,-0.31977,0.62745,-0.33782,-0.61081
-0.03219,0.94559,-0.32377,0.7474,0.72779,-1.62707
-0.01046,0.94014,-0.34062,0.17231,-0.18028,-0.67496
-0.0165,0.93582,-0.35209,0.28969,-0.676,-0.1292
0.00104,0.92701,-0.37504,-0.06387,-0.61435,2.97973
0.00251,0.92426,-0.38174,-0.55596,0.17492,1.42885
-0.02245,0.92159,-0.38751,-0.54185,-0.21048,1.3564
-0.05036,0.93346,-0.35511,-0.49753,-0.07284,1.48681
-0.10475,0.95252,-0.28587,-0.50783,1.22297,1.31488
-0.18981,0.95768,-0.21638,-0.06495,2.26434,1.4069
-0.23626,0.96722,-0.09303,1.60471,2.2516,-1.25534
-0.22001,0.97549,0.00095,0.88302,1.34787,-0.71486
-0.17935,0.98167,0.06448,-0.17431,1.1412,-0.73484
-0.14171,0.98108,0.1319,-0.64447,0.31803,-1.39294
-0.11777,0.97598,0.18325,-0.91336,-0.509,-1.02643
-0.12744,0.96952,0.20924,-0.52297,-0.631,-0.99714
-0.14513,0.9655,0.21619,0.29929,-0.92279,-0.75281
-0.1566,0.96543,0.20834,0.2715,-0.96092,-0.16413
-0.15806,0.96821,0.19385,0.15138,-1.04896,-0.10294
-0.14303,0.97272,0.18263,0.70718,-0.73974,-1.43235
-0.1271,0.9844,0.12162,-0.5121,-0.9184,-1.01716
-0.13017,0.9907,0.03938,-0.43634,-0.71293,-0.13114
-0.14447,0.98905,-0.03001,-0.33713,1.50173,0.30238
-0.15526,0.98134,-0.11337,0.28008,2.73719,0.2148
-0.15632,0.96606,-0.20563,0.02859,2.78379,0.29586
-0.112,0.95639,-0.26975,-0.7572,1.99023,0.31641
-0.02899,0.94637,-0.32178,0.1847,1.7308,-0.079
0.02536,0.92714,-0.37386,0.73956,1.42444,0.19175
0.02599,0.89823,-0.43874,1.15701,0.6505,0.70483
-0.0173,0.8639,-0.50336,-0.09179,-0.16856,1.17
-0.06284,0.83838,-0.54145,-0.61101,-0.64937,1.27627
-0.08701,0.8303,-0.55048,-0.62844,-1.60817,1.20119
-0.09982,0.84058,-0.53241,-0.22713,-1.54572,1.11508
-0.10597,0.86393,-0.49233,-0.08037,-1.50918,1.05246
-0.09902,0.89384,-0.43731,0.05886,-1.70863,0.90902
-0.08146,0.924,-0.3736,0.45249,-1.16119,0.40926
-0.04772,0.94369,-0.32735,0.5025,-0.79671,0.02938
-0.01136,0.9445,-0.32831,0.95314,0.8701,-1.42671
0.0051,0.94224,-0.3349,0.45752,0.01282,-0.40909
-0.00278,0.93817,-0.34616,0.34894,-0.54649,0.15857
0.01396,0.93216,-0.36177,-0.85434,-1.75176,2.70347
0.01019,0.93933,-0.34285,-2.15762,6.25946,-0.02368
0.00338,0.94686,-0.32161,-0.17511,0.80855,3.6483
-0.0251,0.96026,-0.27795,0.40505,-0.47291,1.25635
-0.08539,0.96269,-0.25678,0.63336,1.81668,2.47567
-0.1474,0.9614,-0.23234,0.52501,1.82649,1.76596
-0.18357,0.97835,-0.0955,0.72386,1.49035,0.199
-0.17222,0.98503,-0.00683,-0.41321,1.25757,-0.47672
-0.14136,0.98848,0.05394,-0.6809,0.76858,-1.11119
-0.1108,0.98608,0.12391,-0.77741,-0.27933,-0.78775
-0.10011,0.9796,0.17425,-0.13536,-0.72424,-0.80518
-0.12005,0.97468,0.18861,0.19108,-0.97964,-0.62451
-0.13479,0.97236,0.19064,0.32971,-0.97773,-0.31892
-0.13761,0.97312,0.18462,0.44378,-1.00877,-0.90233
-0.12151,0.9786,0.16601,0.57824,-0.8415,-1.20393
-0.10725,0.98797,0.11136,-0.5629,-0.85688,-0.82663
-0.10994,0.99287,0.04606,-0.53604,-0.65203,0.05541
-0.12454,0.99197,-0.02186,-0.49149,-0.53337,0.0287
-0.14455,0.9848,-0.09628,-0.25682,-0.10315,0.13531
-0.15542,0.96943,-0.18987,0.74182,3.36004,0.12021
-0.14848,0.94414,-0.2942,0.73488,3.38533,0.22454
-0.10123,0.92611,-0.36342,-0.70747,1.67172,0.46335
-0.02137,0.91012,-0.41379,-0.29725,1.60128,0.08919
0.03226,0.88245,-0.4693,0.19316,1.48457,-0.20261
0.02508,0.85254,-0.52206,0.8004,0.43196,0.62388
-0.01779,0.82501,-0.56483,0.12462,-0.29065,0.78549
-0.06499,0.80928,-0.58382,-0.29005,-0.58483,0.87847
-0.0944,0.81058,-0.57796,-0.44819,-1.12246,1.16146
-0.10633,0.82655,-0.55272,-0.22566,-1.17659,1.06777
-0.10849,0.85341,-0.50982,-0.14771,-1.33138,0.93716
-0.0964,0.88897,-0.4477,0.2563,-1.88859,1.13475
-0.07362,0.92648,-0.36907,0.47199,-0.91627,0.54433
-0.03577,0.94921,-0.3126,0.47374,-0.4731,-0.11002
0.00676,0.94877,-0.31589,0.65065,0.91059,-1.7794
0.02501,0.94196,-0.33478,0.25826,-0.07163,-0.47607
0.02165,0.94025,-0.3398,0.27547,-0.69275,0.02922
0.04155,0.93584,-0.34997,-0.58386,-1.03967,2.25703
0.06127,0.94222,-0.32934,-1.58194,0.59831,-0.04885
0.05165,0.95616,-0.28823,-0.33291,0.68803,1.30243
0.02281,0.96719,-0.25301,-0.20211,-0.0469,0.87258
-0.04445,0.97401,-0.22209,-0.22528,0.57181,1.36163
-0.11763,0.97215,-0.20267,0.01841,1.79404,1.38466
-0.15569,0.98256,-0.10168,1.13451,1.94614,-0.2718
-0.1499,0.98816,0.03261,0.62018,1.23213,-0.597
-0.11308,0.98813,0.10398,-0.17295,1.3637,-1.07188
-0.08113,0.98335,0.16259,-0.83823,0.26382,-1.18302
-0.06823,0.97671,0.2034,-0.76351,-0.31987,-0.8034
-0.09349,0.97047,0.22236,-0.4751,-0.54523,-0.78066
-0.11668,0.96703,0.22635,0.37545,-0.94946,-0.52676
-0.12661,0.9653,0.22837,0.37656,-0.96893,-0.53138
-0.12656,0.96562,0.22706,0.3813,-0.98988,-0.64423
-0.11458,0.97214,0.20446,0.46802,-0.84882,-0.96575
-0.10498,0.9835,0.1473,-0.51091,-0.66477,-0.61995
-0.09983,0.99164,0.08174,-0.49346,-0.40677,-0.37901
-0.09947,0.99492,0.01494,0.02266,1.25633,0.50296
-0.08957,0.99243,-0.08392,0.30214,2.41932,0.48585
-0.08287,0.97835,-0.1896,0.2303,3.54749,0.25524
-0.05803,0.9653,-0.25459,-0.9614,1.2764,0.55868
0.01356,0.94953,-0.31338,-1.64903,1.64918,0.41856
0.06688,0.92466,-0.37488,-0.69724,1.95744,-0.07683
0.09046,0.89932,-0.42782,1.60866,1.24341,0.70714
0.0667,0.86339,-0.50011,0.4505,0.25094,0.86728
0.0102,0.82709,-0.56198,-0.22842,-0.37361,1.14892
-0.03398,0.81017,-0.5852,-0.89322,-1.593,1.35821
-0.05414,0.81646,-0.57486,-0.41635,-1.51598,1.2472
-0.06537,0.8391,-0.54003,-0.30836,-1.45362,1.17029
-0.06505,0.87131,-0.48639,-0.00921,-1.73749,0.96581
-0.05152,0.90868,-0.4143,0.45137,-1.52155,0.59397
-0.0247,0.94109,-0.33723,0.57982,-1.05604,0.2509
0.01388,0.95074,-0.30968,1.43894,1.11444,-1.80676
0.04497,0.94667,-0.31904,0.38599,0.38654,-0.741
0.05077,0.93664,-0.34658,-0.00662,-0.26985,-0.65351
0.0402,0.92963,-0.36628,-0.0759,-1.42971,3.38738
0.06596,0.92188,-0.38182,-2.63647,3.25749,-3.50793
0.04329,0.92523,-0.37693,-0.84877,2.11338,0.20313
0.02966,0.9266,-0.37487,-0.30479,-0.12338,1.5418
0.01708,0.94338,-0.33126,-0.416,0.1879,1.36335
-0.03333,0.96359,-0.2653,-0.49044,0.58442,1.17436
-0.1076,0.96842,-0.22489,0.31355,2.04919,0.03774
-0.15926,0.98139,-0.10729,1.37774,1.66835,-0.63398
-0.14588,0.98925,-0.01031,1.07865,1.48674,-0.57586
-0.10628,0.99228,0.06381,-0.56395,0.78538,-1.00451
-0.07687,0.98749,0.13768,-0.84541,0.02368,-1.07652
-0.0705,0.98,0.18609,-0.89598,-0.29143,-0.8753
-0.09252,0.97346,0.2093,0.02182,-0.97723,-0.55765
-0.11142,0.96782,0.2256,0.38649,-0.83831,-0.49377
-0.1229,0.96542,0.22988,0.40559,-0.86731,-0.50408
-0.11943,0.96645,0.22738,0.55812,-0.98174,-0.9303
-0.10287,0.97393,0.20217,0.1249,-0.58011,-1.01885
-0.09597,0.98467,0.14559,-0.32386,-0.81755,-0.85133
-0.09899,0.99121,0.08768,-0.49539,-0.42819,-0.16953
-0.10101,0.99465,0.02122,-0.16878,0.56644,0.23889
-0.09242,0.99226,-0.08291,0.22972,1.60143,0.63615
-0.08191,0.9803,-0.17969,-0.42669,1.24954,0.48511
-0.06089,0.96562,-0.2527,-1.29214,1.98173,0.34672
-0.0307,0.9487,-0.31467,-1.27687,1.96821,0.11847
-0.00114,0.92884,-0.37047,0.67556,1.36955,0.19637
0.02333,0.91285,-0.40762,1.51932,1.18281,0.45755
0.01403,0.88632,-0.46285,1.14268,0.96081,0.45229
-0.02511,0.85797,-0.51309,-0.37076,-0.18725,1.12539
-0.05982,0.84121,-0.53739,-0.75861,-1.15796,1.21023
-0.08071,0.83956,-0.53724,-0.64837,-1.44999,1.28064
-0.09162,0.85492,-0.5106,-0.25872,-1.59889,1.08561
-0.09472,0.8823,-0.46106,-0.06765,-1.73493,0.90869
-0.08818,0.91868,-0.38504,0.11859,-1.92561,0.95085
-0.0642,0.95055,-0.30385,0.52769,-0.89799,0.3366
-0.02656,0.95641,-0.29081,0.81794,1.01415,-2.11411
-0.00454,0.95332,-0.30191,0.73306,0.58456,-1.21857
-0.00591,0.94762,-0.31934,0.26285,-0.12992,-0.87937
-0.00372,0.93495,-0.35476,0.53975,0.52832,1.89796
0.01165,0.9075,-0.4199,-1.33481,1.28379,1.54381
0.00575,0.90298,-0.42965,-0.69259,-1.28619,1.88525
0.01316,0.92115,-0.38897,-0.82778,0.05719,2.15069
-0.03898,0.94903,-0.31277,-1.27026,1.22384,1.05863
-0.14748,0.95815,-0.24534,-0.18459,1.97636,1.23701
-0.21618,0.97061,-0.10574,1.62385,2.48592,-0.28331
-0.18768,0.9822,0.00657,1.29657,1.66498,-0.44073
-0.12599,0.98891,0.07862,-0.00962,1.23715,-1.21105
-0.08439,0.98436,0.15463,-1.06776,0.26457,-1.20228
-0.05959,0.97859,0.19697,-1.06258,-0.14978,-1.10101
-0.07504,0.97288,0.21878,-0.14324,-0.811,-0.86313
-0.10318,0.96862,0.22612,0.23537,-0.72214,-0.69606
-0.12115,0.96878,0.2163,0.24866,-0.85379,-0.53589
-0.1244,0.97059,0.20607,0.36082,-1.01698,-0.7544
-0.11182,0.97576,0.18808,0.32676,-1.00944,-0.74465
-0.11053,0.98504,0.1322,-0.23844,-0.88962,-0.53622
-0.13399,0.98827,0.0732,-0.44603,-0.44562,-0.11237
-0.16457,0.98626,0.014,-0.23109,0.02941,0.05529
-0.18002,0.98109,-0.07103,0.10738,0.96356,0.14529
-0.18044,0.96685,-0.18068,0.14552,2.77313,0.25131
-0.16846,0.9508,-0.25998,-1.11092,1.98065,0.62499
-0.09087,0.94337,-0.31905,-0.98314,1.86953,0.34068
-0.01861,0.9276,-0.37311,0.73208,1.48472,-0.00755
0.00864,0.90473,-0.4259,1.14739,0.76622,0.54921
-0.02202,0.87406,-0.48531,1.01349,0.53025,0.64881
-0.07293,0.8448,-0.53008,-0.28903,-0.49064,1.17904
-0.10615,0.83097,-0.5461,-0.83953,-1.16057,1.19815
-0.12182,0.83487,-0.53679,-0.70171,-1.38889,1.16124
-0.1286,0.85242,-0.50679,-0.07852,-1.55173,1.09234
-0.12354,0.879,-0.46053,0.20395,-1.64382,1.12414
-0.10134,0.91061,-0.40063,0.26592,-1.67432,1.12948
-0.06455,0.93556,-0.3472,0.21929,-0.54727,-0.35548
-0.03224,0.93682,-0.34831,0.48171,0.80279,-1.91245
-0.02662,0.93037,-0.36565,0.67821,0.86408,-1.58442
-0.04305,0.92614,-0.37472,0.605,-0.51639,-0.17043
-0.02009,0.91077,-0.41242,0.05854,0.64442,2.55518
-0.03245,0.89269,-0.4495,-1.25849,0.52548,1.39578
-0.05842,0.8943,-0.44364,-0.0938,-0.76646,1.27068
-0.072,0.91384,-0.39963,-0.28803,0.04217,1.59615
-0.11676,0.93456,-0.3361,-0.81537,1.17012,1.51239
-0.19767,0.94141,-0.27325,0.0053,1.94045,0.78157
-0.24811,0.95875,-0.13871,1.53692,2.22791,-0.2691
-0.22599,0.97325,-0.04127,0.84529,1.5331,-0.50054
-0.17792,0.98346,0.03376,-0.27716,1.14505,-0.85249
-0.13453,0.98436,0.11372,-0.78332,0.04424,-1.08161
-0.10214,0.97905,0.1761,-1.04824,-0.25736,-0.96802
-0.11284,0.97182,0.20694,-0.5822,-0.76211,-1.00394
-0.13608,0.96781,0.21173,0.44104,-0.82185,-0.55125
-0.14935,0.96888,0.19737,0.41841,-0.91152,-0.35873
-0.15044,0.97224,0.17921,0.27668,-1.00469,-0.32754
-0.13273,0.97613,0.17187,0.47541,-0.63568,-1.42209
-0.11457,0.98546,0.12542,-0.32931,-0.61776,-0.95608
-0.12351,0.99103,0.05094,-0.41424,-0.75405,-0.1346
-0.14723,0.98905,-0.01044,-0.88584,-0.13719,0.05771
-0.17166,0.98195,-0.07941,-0.70573,0.97505,-0.02415
-0.197,0.96314,-0.18317,1.00657,3.03779,0.24645
-0.2022,0.93814,-0.28108,0.51597,1.8642,0.5376
-0.16381,0.92136,-0.35252,-0.94758,1.892,0.68677
-0.10669,0.90009,-0.42244,0.20306,1.37947,-0.05404
-0.07931,0.87554,-0.4766,0.94879,0.9464,0.58161
-0.09204,0.85049,-0.51787,0.955,0.75649,0.65462
-0.13248,0.82576,-0.54823,0.08538,-0.27198,1.18649
-0.16623,0.81037,-0.56183,-0.51348,-1.15321,1.27743
-0.17609,0.81291,-0.55512,-0.43125,-1.41652,1.28558
-0.17303,0.83325,-0.52512,0.00081,-1.4785,1.03422
-0.16259,0.8647,-0.47524,0.16955,-1.69575,0.75761
-0.14159,0.90702,-0.39658,0.34609,-1.78467,0.8905
-0.11308,0.94536,-0.30579,0.33059,-0.65672,0.2471
-0.06992,0.9503,-0.30339,0.63789,1.41365,-2.33794
-0.03912,0.94016,-0.33847,0.52858,1.52718,-2.18824
-0.03413,0.93563,-0.35132,0.31374,-0.51807,-0.45092
-0.04064,0.92966,-0.36617,0.58181,-1.47853,2.26766
-0.00556,0.92237,-0.38627,0.15789,-1.17342,3.33727
-0.0141,0.92323,-0.38398,-0.49585,0.80525,0.7746
-0.03308,0.92431,-0.38021,-0.54628,0.03123,1.47839
-0.06234,0.93795,-0.34113,-0.56127,-0.00853,1.37705
-0.12488,0.95088,-0.28324,-0.60258,0.98859,1.27628
-0.19134,0.95843,-0.21167,0.52613,2.7687,0.70375
-0.20538,0.97645,-0.06602,1.33717,2.31295,-0.47782
-0.16604,0.98582,0.02424,0.29572,1.27778,-0.7814
-0.12234,0.98868,0.08682,-0.54162,0.98906,-1.1398
-0.08547,0.98447,0.15333,-0.84105,0.66646,-1.31786
-0.07254,0.97547,0.20783,-1.04413,-0.41896,-0.90369
-0.10131,0.96945,0.22339,0.05042,-0.80288,-0.88214
-0.12486,0.96641,0.22464,0.37806,-0.79555,-0.70704
-0.13483,0.96471,0.22617,0.25394,-1.02362,-0.28194
-0.13187,0.96528,0.22545,0.72516,-0.95358,-1.18239
-0.12216,0.97191,0.20112,0.46053,-0.78371,-1.48286
-0.12039,0.9829,0.13928,-0.28369,-0.95913,-0.849
-0.11928,0.98987,0.07693,-0.20468,-0.29244,0.09749
-0.12179,0.99246,0.01337,-0.14716,0.03583,0.46097
-0.11895,0.98933,-0.08403,0.19622,1.88939,0.64556
-0.11695,0.97615,-0.18289,-0.25389,1.99025,0.27663
-0.12004,0.96109,-0.24878,-1.04552,1.88155,0.50954
-0.08973,0.94565,-0.31256,-0.95135,1.93724,0.09814
-0.0532,0.92444,-0.37759,0.92717,1.34132,0.22542
-0.02728,0.90499,-0.42455,1.13723,1.22202,0.33461
-0.05006,0.87702,-0.47783,0.73125,0.74712,0.74269
-0.09674,0.84989,-0.51799,-0.27284,-0.34135,1.26323
-0.13345,0.83264,-0.5375,-0.4856,-0.79626,1.21972
-0.14772,0.83026,-0.53744,-0.46344,-1.3994,1.25551
-0.15225,0.84462,-0.51327,-0.0392,-1.46444,1.05773
-0.14599,0.87123,-0.46866,0.02288,-1.58217,0.9249
-0.12798,0.90566,-0.40423,0.63598,-1.55855,0.9219
-0.09495,0.9393,-0.32969,0.51328,-0.77069,0.16685
-0.04846,0.9495,-0.30998,0.48464,-0.10146,-1.14868
-0.01966,0.94585,-0.32399,0.54682,0.41943,-0.92163
-0.01809,0.93931,-0.34258,0.24678,-0.41015,-0.57651
-0.01931,0.93073,-0.3652,0.20731,-0.97875,0.74389
0.00637,0.9215,-0.38832,-2.18362,2.81271,-1.73202
-0.00824,0.91873,-0.3948,-0.00206,-0.63485,1.35255
-0.01911,0.92896,-0.36968,-0.40087,-0.28103,1.6623
-0.05912,0.94992,-0.30684,-0.66656,0.65901,1.34449
-0.1376,0.96031,-0.24264,-0.2358,2.01932,1.49301
-0.19083,0.97128,-0.14211,0.55624,2.54241,0.56342
-0.1828,0.98272,-0.02895,1.00884,1.7167,-0.65138
-0.13995,0.98938,0.03913,-0.142,1.35149,-0.85351
-0.10417,0.98885,0.10643,-0.48278,0.89505,-1.20893
-0.07853,0.98265,0.16802,-0.95835,-0.09736,-0.98871
-0.08932,0.97561,0.20049,-0.6352,-0.643,-0.99646
-0.11827,0.97172,0.20436,-0.11382,-0.89264,-0.88017
-0.13702,0.96901,0.20553,0.56274,-1.00485,-0.44522
-0.14229,0.96794,0.20695,0.36217,-0.99529,-0.25593
-0.13651,0.97024,0.19997,0.35607,-0.99124,-0.38212
-0.12092,0.97836,0.16784,-0.00745,-0.73249,-1.24613
-0.11094,0.98852,0.10257,-0.63028,-0.84678,-0.74892
-0.11069,0.99341,0.02964,-0.72952,-0.47252,-0.32671
-0.12798,0.99049,-0.05042,-0.35698,1.00054,0.70041
-0.14539,0.9769,-0.15662,0.09905,2.71744,0.71589
-0.15272,0.95776,-0.24366,-0.17211,2.05799,0.48077
-0.11507,0.94976,-0.29104,-1.02896,1.62437,0.47009
-0.03506,0.93688,-0.34787,-0.13348,1.68085,-0.09028
0.00638,0.91353,-0.40671,0.85243,1.37597,0.23482
0.00806,0.88475,-0.46598,1.25227,0.84538,0.45994
-0.03155,0.85489,-0.51785,0.47491,-0.01434,0.90204
-0.07568,0.83446,-0.54585,-0.47257,-0.95935,1.23524
-0.0952,0.83319,-0.54474,-0.63269,-1.6901,1.26153
-0.10039,0.84912,-0.51857,-0.20681,-1.44131,1.09547
-0.10171,0.87451,-0.47421,-0.15714,-1.40756,0.9548
-0.09924,0.90389,-0.41608,-0.15522,-1.57206,0.72393
-0.09231,0.93402,-0.34508,0.47671,-0.72725,0.33283
-0.05793,0.94553,-0.32032,0.67841,0.10351,-0.8033
-0.01703,0.93824,-0.34557,1.04237,0.98865,-1.74306
0.00093,0.93315,-0.35948,0.16162,-0.70482,-0.34708
0.00243,0.93194,-0.36261,0.26505,-1.17048,0.90103
0.0363,0.92075,-0.38846,-0.46528,0.94246,1.21178
-0.00132,0.90949,-0.41571,-0.34017,-0.82735,1.67371
-0.02538,0.91286,-0.40747,-0.64928,-0.78175,1.66092
-0.04319,0.93553,-0.3506,-0.68616,-0.04876,1.67128
-0.09728,0.9586,-0.26761,-0.78167,0.58979,1.4562
-0.18097,0.96595,-0.18488,-0.16552,2.41784,1.28535
-0.20733,0.97469,-0.08353,1.63121,1.93738,-1.06212
-0.17978,0.98363,-0.01237,0.96849,1.36325,-0.81853
-0.13923,0.98867,0.05603,-0.41247,0.45997,-0.67557
-0.10004,0.98734,0.12306,-0.9485,-0.03597,-1.10098
-0.08555,0.98222,0.16709,-1.0613,-0.36297,-0.9558
-0.10381,0.97758,0.18318,-0.55898,-0.56346,-0.82535
-0.11855,0.97401,0.19299,0.51539,-0.83201,-0.58452
-0.12505,0.9722,0.19796,0.2939,-1.08514,-0.1651
-0.1259,0.97415,0.18753,0.20508,-1.08321,-0.19843
-0.11481,0.98103,0.15619,0.56986,-0.85914,-1.21569
-0.09802,0.9905,0.09646,-0.52604,-0.96193,-1.01451
-0.09596,0.99518,0.01979,-0.48258,-0.69331,-0.25186
-0.10703,0.99229,-0.06246,-0.40057,-0.30019,0.38047
-0.11982,0.9814,-0.14994,-0.15187,2.59428,0.25092
-0.10251,0.96518,-0.24065,0.24447,3.2984,0.21645
-0.03945,0.95742,-0.28596,-0.82324,1.71607,0.26512
0.0502,0.94455,-0.32451,-0.31682,1.73017,0.24072
0.11091,0.91549,-0.38674,0.12291,1.60917,0.15934
0.11858,0.8805,-0.45896,0.98722,0.6948,0.4077
0.0659,0.8452,-0.53037,-0.05534,-0.22966,1.07311
-0.00062,0.81777,-0.57555,0.01118,-0.20223,1.11829
-0.04287,0.81128,-0.58308,-0.67729,-1.38588,1.25204
-0.06337,0.8258,-0.56039,-0.45377,-1.35678,1.2032
-0.07104,0.85416,-0.51513,-0.22414,-1.53013,1.0564
-0.06355,0.89314,-0.44526,0.39546,-1.74956,0.93618
-0.04237,0.93471,-0.35288,0.64408,-1.255,0.49203
0.00074,0.95311,-0.3026,0.86327,0.11599,-1.01759
0.03008,0.95413,-0.29786,0.78625,0.70683,-0.42905
0.04848,0.94579,-0.32113,0.35252,0.58335,-0.60647
0.03102,0.93313,-0.35818,0.33194,-0.47493,-0.50706
0.05386,0.91493,-0.4,-1.55748,2.29943,-0.82608
0.03876,0.89754,-0.43922,-0.95174,-0.77001,1.87412
0.02529,0.89475,-0.44585,-0.82419,-0.88227,1.31986
0.02175,0.91987,-0.39162,-0.95487,0.24177,1.53525
-0.04562,0.94622,-0.32029,-0.86634,1.88644,1.2399
-0.16103,0.95104,-0.26378,-0.02121,2.20928,1.26349
-0.2185,0.96834,-0.12067,2.07354,2.30238,-1.21923
-0.18965,0.981,-0.04091,0.34298,1.17188,-0.42794
-0.14618,0.9888,0.02986,-0.05795,1.0209,-0.62921
-0.11453,0.98785,0.10504,-0.59943,0.55129,-1.20979
-0.0947,0.98339,0.15482,-0.90819,-0.34186,-0.82616
-0.1054,0.97908,0.174,-0.89748,-0.33756,-0.84535
-0.12067,0.97677,0.17708,0.37988,-0.90397,-0.4679
-0.129,0.97543,0.17858,0.23144,-1.00202,-0.30107
-0.1267,0.9763,0.17545,0.24565,-1.00305,-0.41193
-0.1104,0.98357,0.14283,0.0763,-0.5538,-1.2884
-0.10132,0.99192,0.07629,-0.52593,-0.94305,-0.60595
-0.1038,0.99459,0.00192,-0.48437,-0.68713,-0.04091
-0.11964,0.99018,-0.07226,-0.25721,-0.12222,0.34757
-0.13261,0.97854,-0.15773,0.10378,2.39361,0.14533
-0.1241,0.95825,-0.25758,0.32573,2.99864,0.07862
-0.0892,0.94492,-0.3149,-0.75057,1.66038,0.46445
-0.01023,0.93165,-0.36321,-0.1799,1.70228,0.07011
0.0485,0.90581,-0.4209,0.13642,1.63904,-0.02983
0.05753,0.87589,-0.47907,1.06004,0.82141,0.66479
0.00854,0.84048,-0.54178,1.09413,0.58059,0.70691
-0.05743,0.8142,-0.57774,0.21785,-0.1664,1.07782
-0.10095,0.80596,-0.5833,-0.79247,-1.35091,1.37344
-0.11838,0.81732,-0.56389,-0.36897,-1.39625,1.23871
-0.12169,0.84351,-0.52314,-0.25335,-1.40095,1.14447
-0.10741,0.88061,-0.4615,0.10058,-1.82872,0.91264
-0.07978,0.92283,-0.37684,0.6393,-1.19081,0.56551
-0.03425,0.94619,-0.32177,0.55074,0.02871,-0.97608
0.00158,0.9469,-0.32152,0.79244,1.11775,-1.46495
0.02081,0.93973,-0.34129,0.24205,0.48949,-0.65
0.00804,0.93213,-0.36202,0.33806,-0.58002,-0.06174
0.03452,0.91863,-0.39361,0.02426,1.09434,2.02343
0.0301,0.90505,-0.42424,-0.70072,-0.98781,0.95022
0.01362,0.90758,-0.41966,-0.49722,-0.90048,1.23202
0.00343,0.93175,-0.36308,-0.49661,-0.17944,1.45025
-0.05403,0.95855,-0.27973,-0.87791,1.17382,1.14798
-0.12906,0.96302,-0.2365,-0.12651,2.32244,1.63643
-0.17675,0.97814,-0.10952,1.46266,2.0693,-1.24887
-0.16459,0.98635,0.00459,1.0045,1.44459,-0.6193
-0.13138,0.98946,0.06075,-0.42402,1.11101,-0.95966
-0.10516,0.98698,0.12164,-0.6862,0.34766,-1.17596
-0.09095,0.98202,0.1654,-0.71147,-0.60472,-0.70556
-0.10619,0.97806,0.17917,0.2018,-1.04534,-0.64013
-0.11594,0.97597,0.1845,0.48503,-0.95152,-0.44248
-0.11722,0.97628,0.18202,0.38216,-1.08881,-0.42709
-0.10545,0.98037,0.16656,0.61194,-0.99182,-0.51266
-0.08403,0.9887,0.12411,-0.3822,-0.60998,-0.98921
-0.07405,0.99526,0.06303,-0.84852,-0.46678,-0.62516
-0.07914,0.99677,-0.01318,-0.62836,0.04864,0.15436
-0.09873,0.98996,-0.10108,-0.36735,1.56898,0.60698
-0.11733,0.97354,-0.19608,-0.44111,2.68089,0.08426
-0.1254,0.95598,-0.2653,-0.65227,1.75103,0.27601
-0.07972,0.94087,-0.32926,-0.43746,2.07021,0.36997
-0.0136,0.92134,-0.38851,0.97718,1.16194,0.4231
0.0037,0.89286,-0.45031,1.22344,1.05129,0.60174
-0.01903,0.8596,-0.5106,0.84439,0.6655,0.70508
-0.07117,0.8257,-0.5596,-0.57544,-0.87059,1.22293
-0.11714,0.80308,-0.58424,-0.61537,-1.23591,1.29469
-0.1381,0.80332,-0.57931,-0.32546,-1.78689,1.23089
-0.13954,0.82534,-0.54712,0.12677,-1.81933,1.14062
-0.12038,0.86291,-0.4908,0.18642,-1.93181,1.11152
-0.08897,0.90552,-0.41486,0.18824,-0.92539,0.52189
-0.05444,0.93983,-0.33727,0.47005,0.18952,-1.41302
-0.02038,0.94652,-0.32198,0.75437,1.0254,-1.81448
-0.00216,0.9404,-0.34005,0.41314,0.20752,-0.81159
-0.01088,0.93422,-0.35652,0.48344,-0.84709,1.77438
-0.00365,0.92389,-0.38263,0.06645,-0.78754,2.92231
0.01749,0.91783,-0.39659,-0.72864,0.63569,-0.01617
-0.0015,0.92572,-0.37819,-0.82738,0.66678,1.38559
-0.03046,0.93883,-0.34303,-0.72873,0.45139,1.15277
-0.08425,0.94959,-0.30196,-0.38618,0.88591,1.48818
-0.15735,0.95138,-0.26478,0.32466,2.33053,0.94397
-0.2017,0.96672,-0.15738,1.10693,2.22927,-0.53211
-0.18977,0.98182,0.00224,0.26721,1.22655,-1.23829
-0.15212,0.98679,0.05563,-0.51268,0.83605,-1.41953
-0.12312,0.98682,0.10495,-0.56656,0.47752,-1.08782
-0.10214,0.98188,0.15958,-0.81048,-0.54066,-0.79857
-0.11315,0.97537,0.18931,0.16085,-0.83178,-0.67056
-0.1338,0.97122,0.19703,0.4121,-0.75184,-0.52316
-0.14418,0.96964,0.19749,0.32556,-1.00713,-0.39284
-0.1433,0.97147,0.18896,0.44765,-0.98969,-0.87251
-0.13077,0.9769,0.169,0.64101,-0.81787,-1.51174
-0.12345,0.98661,0.10651,-0.43584,-0.88355,-0.26915
-0.13327,0.99056,0.03191,-0.33936,-0.42061,0.3072
-0.15078,0.98777,-0.03967,-0.21532,-0.07375,0.4225
-0.15955,0.97806,-0.13391,0.12626,2.804,0.05781
-0.16767,0.95948,-0.22646,-0.44341,1.51953,0.32456
-0.16477,0.9448,-0.28318,-0.84672,1.37461,0.3949
-0.12151,0.92932,-0.34869,-0.06239,1.89168,-0.06212
-0.08997,0.90825,-0.40864,0.9016,1.2289,0.51712
-0.08118,0.88636,-0.45583,1.29424,1.12683,0.52037
-0.10452,0.85983,-0.49977,0.533,0.25257,0.91183
-0.1425,0.83627,-0.52947,-0.39638,-0.82992,1.17658
-0.16529,0.82486,-0.54063,-0.47519,-1.20759,1.23717
-0.16864,0.82956,-0.53234,-0.08638,-1.55069,1.09241
-0.16142,0.84947,-0.50233,0.2243,-1.5426,0.83122
-0.14232,0.87908,-0.45493,0.33083,-1.57666,0.68789
-0.11396,0.91031,-0.39793,0.28085,-0.87988,0.30938
-0.08199,0.93568,-0.34319,0.43293,0.55192,-1.8708
-0.04955,0.93524,-0.35052,0.39635,1.28258,-1.97492
-0.04249,0.92351,-0.38121,0.08987,0.31589,-1.32649
-0.05155,0.90735,-0.41719,-1.22498,2.19198,1.30046
-0.06973,0.8831,-0.46397,-1.11377,-0.0321,2.02068
-0.09272,0.88185,-0.46231,-0.10441,-1.32576,1.6172
-0.09523,0.90784,-0.40835,-0.49838,0.40269,1.82844
-0.13069,0.93619,-0.32629,-0.72109,1.5986,1.58125
-0.213,0.94307,-0.25541,0.22382,2.60696,0.50382
-0.25761,0.95748,-0.12985,1.38845,2.1188,-1.03634
-0.22959,0.97171,-0.05535,0.40386,1.33435,-0.56825
-0.18317,0.98289,0.0191,-0.3419,1.0026,-0.57831
-0.14594,0.98346,0.10718,-0.85943,-0.25724,-1.28874
-0.12509,0.97876,0.16239,-0.92034,-0.48602,-1.23929
-0.13449,0.97388,0.1829,-0.27673,-0.74796,-0.62855
-0.15498,0.96844,0.19517,0.41534,-0.86322,-0.20987
-0.16698,0.9648,0.20314,0.29685,-0.94798,-0.1203
-0.17117,0.96545,0.19644,0.49191,-0.92094,-1.18256
-0.16006,0.97189,0.17264,-0.16752,-0.72248,-1.50456
-0.14808,0.98273,0.11088,-0.43034,-1.01655,-0.34426
-0.15237,0.98779,0.03238,-0.40708,-0.47466,0.27707
-0.16155,0.98612,-0.03823,-0.36911,0.38206,-0.14317
-0.17688,0.97698,-0.11922,0.05348,1.53813,0.18709
-0.18315,0.95405,-0.23712,0.04243,2.92998,0.40266
-0.17598,0.92826,-0.32766,-1.12396,1.79273,0.39824
-0.12402,0.91189,-0.39124,-1.02963,1.8259,0.32032
-0.07021,0.88535,-0.45959,0.73669,1.34549,0.39489
-0.05626,0.85289,-0.51904,0.90445,0.86684,0.72777
-0.08202,0.81756,-0.56996,0.78976,0.57511,0.82001
-0.13109,0.78737,-0.60237,-0.43025,-0.77204,1.16661
-0.1659,0.77559,-0.60904,-0.52166,-1.50138,1.36772
-0.17634,0.78864,-0.58902,-0.35095,-1.67236,1.31343
-0.1698,0.82032,-0.54612,0.04595,-1.78469,1.07287
-0.14774,0.86619,-0.47737,0.53241,-1.97264,1.33087
-0.11568,0.91747,-0.3806,0.80816,-1.4072,1.03725
-0.06958,0.94736,-0.31252,0.73987,0.69148,-1.74106
-0.0312,0.94324,-0.33064,0.81446,1.33852,-1.73305
-0.01288,0.93713,-0.34874,0.44554,0.67191,-0.782
-0.02363,0.93132,-0.36343,0.27767,-1.16398,0.33363
-0.01646,0.91982,-0.39198,-0.56016,-0.96888,3.01446
0.01448,0.919,-0.39398,-1.55049,1.1675,0.95601
0.00277,0.91979,-0.39238,-0.62113,-0.0252,1.34276
-0.01746,0.92634,-0.37627,-0.57551,-0.28682,1.31586
-0.07102,0.94145,-0.32956,-0.74511,0.45576,1.44352
-0.15787,0.94904,-0.27273,-0.13296,2.11666,0.31798
-0.22489,0.96321,-0.14709,1.9058,2.3232,-0.08228
-0.21351,0.97609,-0.04056,1.78062,1.74339,-0.38865
-0.16501,0.98547,0.04,-0.26376,0.92635,-1.03335
-0.1238,0.98489,0.12103,-0.95728,0.54038,-1.17599
-0.09668,0.97781,0.18582,-1.29437,-0.07404,-1.228
-0.11219,0.9722,0.2055,-0.24228,-0.51016,-0.9571
-0.13693,0.97144,0.19374,0.32396,-0.97434,-0.17604
-0.14837,0.97425,0.16975,0.26354,-1.062,-0.17149
-0.14577,0.97812,0.14839,0.4708,-1.01715,-0.95672
-0.13133,0.98224,0.13392,-0.24277,-0.65749,-0.99297
-0.12808,0.98959,0.06558,-0.38396,-0.89518,-0.54454
-0.13997,0.99006,-0.01357,-0.16866,-0.31203,0.26563
-0.15993,0.98294,-0.09081,0.22193,2.5926,0.50865
-0.17277,0.96353,-0.20432,0.48965,3.61447,0.25631
-0.17167,0.93694,-0.3044,-0.63077,1.29847,0.62955
-0.13961,0.9238,-0.3565,-1.1099,1.94081,0.3674
-0.05648,0.90502,-0.4216,-0.28108,1.79263,0.01074
-0.00272,0.8798,-0.47532,1.25011,1.20911,0.65037
0.00774,0.85229,-0.523,0.90191,0.58535,0.70173
-0.03741,0.81362,-0.58019,0.54777,0.22607,1.01108
-0.09362,0.78343,-0.61438,-0.57388,-1.24065,1.33179
-0.13048,0.77713,-0.61566,-0.50279,-1.65805,1.39192
-0.14061,0.79736,-0.58689,-0.33182,-1.55305,1.29236
-0.13622,0.83286,-0.53645,-0.0718,-1.66231,1.12251
-0.11947,0.87814,-0.46324,0.38331,-1.535,1.12285
-0.09784,0.92227,-0.37394,0.39986,-1.11667,0.8192
-0.06589,0.94705,-0.31423,0.67455,0.74956,-1.7687
-0.03631,0.94375,-0.32864,0.91597,1.14226,-1.36807
-0.02591,0.93819,-0.34514,0.67873,0.47692,-0.73969
-0.03898,0.93276,-0.35837,0.47861,-1.20679,0.96798
-0.03202,0.92014,-0.39028,-0.43203,-0.10594,2.58906
-0.01013,0.91638,-0.40016,-2.14459,3.95215,-1.65303
-0.03818,0.91464,-0.40246,-0.22378,-0.64482,1.20455
-0.08664,0.91863,-0.3855,-0.43815,0.19198,1.94513
-0.15386,0.92239,-0.35429,-0.50033,1.30692,2.11668
-0.21889,0.9356,-0.27699,0.66205,1.98037,-0.37772
-0.23602,0.96255,-0.13332,1.00625,1.48779,-0.33677
-0.19508,0.97908,-0.05771,0.4026,1.30847,-0.66498
-0.15576,0.98761,0.01856,-0.40237,0.51252,-1.03157
-0.12029,0.98801,0.09674,-0.73776,-0.09776,-0.76175
-0.10245,0.98352,0.14889,-0.79018,-0.26712,-0.66894
-0.11466,0.97894,0.16884,0.30904,-0.62268,-0.58774
-0.12735,0.97635,0.17466,0.20977,-0.90627,-0.31586
-0.13291,0.97596,0.17269,0.25948,-0.99657,-0.4172
-0.12472,0.97914,0.16033,0.16726,-0.63852,-0.94875
-0.1018,0.98901,0.1071,-0.68207,-0.88718,-0.64407
-0.094,0.99523,0.02596,-0.78862,-0.71256,-0.18346
-0.10679,0.99299,-0.05061,-0.77926,-0.38747,-0.055
-0.12913,0.98355,-0.12626,0.10029,1.76958,0.27694
-0.13963,0.96515,-0.22132,0.37887,2.98494,0.5291
-0.12873,0.94065,-0.31398,0.07885,1.87462,0.41802
-0.08074,0.92137,-0.38019,-0.53693,1.93507,0.60135
-0.01158,0.89618,-0.44354,-0.00847,1.50556,0.00868
0.02637,0.86287,-0.50473,0.72661,1.0495,0.23622
0.01337,0.82882,-0.55934,0.54704,0.33812,0.64502
-0.03717,0.79704,-0.60278,0.23854,-0.03117,0.94078
-0.09005,0.77597,-0.62431,-0.42686,-0.89891,1.14262
-0.11848,0.77458,-0.62127,-0.31812,-1.27293,1.11929
-0.12912,0.79372,-0.59442,-0.16416,-1.28063,1.08055
-0.12548,0.82535,-0.5505,0.10117,-1.50146,0.94866
-0.10116,0.86608,-0.48955,0.53695,-1.45576,0.94095
-0.06258,0.90861,-0.41293,0.46576,-1.01166,0.58983
-0.0214,0.9361,-0.35106,0.84231,0.63508,-1.23127
0.01199,0.94091,-0.33842,0.46315,0.64652,-0.89997
0.02614,0.93343,-0.3578,0.35443,0.32797,-0.79635
0.02006,0.92649,-0.37578,-0.58773,-1.15186,2.74928
0.04336,0.91892,-0.39205,-2.12958,1.81393,-1.63731
0.02684,0.92858,-0.37014,-1.22817,1.28878,0.02273
0.00944,0.93867,-0.34468,-0.3044,0.02527,1.19548
-0.042,0.9524,-0.30194,-0.40978,0.81861,1.53577
-0.12137,0.95397,-0.27422,-0.0847,1.29069,1.47573
-0.17818,0.96897,-0.17127,1.48037,1.61407,0.16615
-0.1725,0.98351,-0.05425,0.67555,1.38511,-0.11872
-0.12978,0.99074,0.03981,0.12379,1.2934,-0.43034
-0.08438,0.98793,0.12987,-1.00869,0.61484,-0.93848
-0.053,0.97732,0.20498,-1.55445,0.19585,-1.46092
-0.06912,0.96906,0.23689,-1.01125,-0.43502,-1.23706
-0.10936,0.96485,0.23891,0.38793,-0.68513,-0.73038
-0.13397,0.96441,0.22791,0.68722,-0.99899,-0.74955
-0.13783,0.96771,0.21101,0.64968,-1.00882,-0.73341
-0.13312,0.97481,0.17889,0.48158,-0.9829,-0.51065
-0.11657,0.98319,0.14046,-0.08576,-0.68288,-0.56751
-0.10896,0.9914,0.07237,-0.31928,-0.741,-0.52315
-0.11293,0.99348,-0.01489,-0.19516,1.04373,0.74925
-0.12185,0.98608,-0.11304,-0.19436,2.07954,0.36991
-0.13977,0.97247,-0.1864,-0.37775,1.78113,0.22184
-0.15509,0.95696,-0.24527,-0.92685,1.96725,0.27821
-0.14117,0.93675,-0.32024,-0.03601,1.6136,0.37588
-0.10034,0.92106,-0.37627,0.22311,1.49157,0.40164
-0.0753,0.9044,-0.41997,0.80181,1.07048,0.27966
-0.08007,0.88073,-0.4668,0.34696,0.49168,0.69178
-0.11292,0.85554,-0.50527,0.22934,0.15021,1.02886
-0.14025,0.83982,-0.52443,-0.36985,-1.54299,1.1427
-0.14822,0.83858,-0.52422,-0.26878,-1.70592,1.06893
-0.14732,0.8506,-0.50475,-0.18014,-1.58486,0.96041
-0.14612,0.87204,-0.4671,0.03078,-1.52789,0.66167
-0.14866,0.89911,-0.41169,0.24812,-1.50782,0.66481
-0.13007,0.92337,-0.36118,0.62772,-0.67856,-0.11565
-0.08109,0.92194,-0.37874,0.83849,0.46654,-1.43115
-0.0562,0.91687,-0.3952,0.59865,-0.22072,-0.54466
-0.0511,0.91908,-0.39074,0.58973,-1.05383,0.94425
-0.01205,0.91049,-0.41334,-1.88486,4.30105,-1.79349
-0.01583,0.89584,-0.4441,-1.12022,0.47382,1.95499
-0.03287,0.8952,-0.44445,-0.444,-0.88003,1.3405
-0.05037,0.91767,-0.39412,-0.83265,0.44112,1.6261
-0.11518,0.94031,-0.32022,-0.92198,1.593,1.55005
-0.20059,0.94822,-0.24622,0.6188,2.63562,0.84914
-0.22551,0.96916,-0.09926,1.67571,1.59868,-0.84228
-0.18119,0.98326,-0.01861,-0.12742,1.27992,-0.66441
-0.13387,0.98979,0.04871,-0.37411,0.95682,-0.84635
-0.09274,0.98745,0.12776,-0.91637,0.24404,-1.18621
-0.07111,0.98062,0.18252,-0.97963,-0.82785,-0.99578
-0.09682,0.97671,0.19143,-0.14589,-0.86158,-0.85674
-0.12265,0.9756,0.18204,0.46649,-0.62726,-0.51254
-0.12904,0.97683,0.17067,0.27763,-0.99725,-0.27687
-0.1234,0.98,0.15604,0.31378,-1.02866,-0.43404
-0.10354,0.98679,0.12455,-0.54845,-0.75281,-0.90879
-0.10005,0.9941,0.04162,-0.41725,-0.5884,-0.0889
-0.11654,0.99227,-0.04239,-0.37078,-0.1775,0.24928
-0.1431,0.98042,-0.13522,0.33821,3.08834,0.44751
-0.1574,0.95916,-0.23498,0.2237,1.49504,0.3091
-0.15144,0.94065,-0.30372,-0.23716,1.30485,0.43509
-0.11062,0.92262,-0.36949,-0.24828,1.52722,0.05095
-0.06431,0.89709,-0.43713,0.46494,1.1592,0.38982
-0.04256,0.87399,-0.48407,0.86587,1.13105,0.58565
-0.04794,0.84789,-0.528,0.41317,0.63304,0.96725
-0.08894,0.81768,-0.56875,-0.43528,-0.3976,1.37842
-0.12658,0.79668,-0.59099,-0.61698,-0.89131,1.32192
-0.14214,0.79562,-0.58887,-0.29824,-1.79059,1.17043
-0.1423,0.81591,-0.56038,-0.11252,-1.57528,0.99362
-0.13832,0.85183,-0.50522,-0.01243,-1.60571,0.80919
-0.13581,0.89519,-0.42447,0.43371,-1.52315,0.66422
-0.11063,0.92809,-0.35553,0.73356,-0.33652,-0.79014
-0.06526,0.92944,-0.36314,0.64825,0.63112,-1.91274
-0.04239,0.92735,-0.37178,0.24549,0.12585,-0.2643
-0.04653,0.92319,-0.38151,0.43116,-0.55365,-0.38006
-0.02071,0.90907,-0.41611,0.29631,-0.09582,2.61802
-0.01956,0.88748,-0.46042,-1.11238,-0.46622,1.81775
-0.0388,0.88416,-0.46557,-0.62812,-1.4697,0.88337
-0.0457,0.9068,-0.41907,-0.73638,-0.07425,1.93026
-0.09587,0.93511,-0.34113,-0.57465,2.17564,1.49428
-0.19073,0.94543,-0.26415,0.55374,2.49712,0.691
-0.22776,0.96189,-0.15125,1.74015,2.21702,-0.99955
-0.19514,0.97752,-0.07978,0.48585,1.32134,-0.45061
-0.15358,0.98813,-0.00058,-0.60875,0.65678,-1.15941
-0.11662,0.98985,0.08114,-0.95162,0.36071,-1.33752
-0.09169,0.98754,0.12782,-0.97745,-0.12008,-0.97457
-0.10244,0.9841,0.14506,-0.37803,-0.69573,-0.77698
-0.12407,0.9813,0.1471,0.25072,-0.87718,-0.53055
-0.13371,0.97842,0.15751,0.45147,-0.86188,-0.06978
-0.13983,0.97817,0.15367,0.31566,-1.00965,-0.24873
-0.13122,0.98355,0.12409,0.81005,-0.85891,-1.40833
-0.12242,0.99068,0.05953,-0.50049,-0.95557,-0.99501
-0.12602,0.99196,-0.0111,-0.46635,-0.51309,-0.00762
-0.1439,0.98601,-0.08399,-0.24056,-0.24071,0.45149
-0.1698,0.97052,-0.171,0.05754,1.37898,0.34398
-0.18166,0.9438,-0.27608,0.36904,3.39088,0.09696
-0.16817,0.91971,-0.35475,-0.30272,1.61607,0.45823
-0.10548,0.9055,-0.41101,-1.00878,2.0939,0.2473
-0.05465,0.87512,-0.4808,0.13581,1.49217,0.10926
-0.04355,0.84134,-0.53875,1.06441,1.12517,0.48964
-0.08889,0.80226,-0.59032,0.46411,0.30608,1.17655
-0.14754,0.76852,-0.62258,-0.46322,-0.7893,1.23633
-0.1824,0.75233,-0.63303,-0.62889,-1.175,1.26509
-0.1869,0.76198,-0.62004,-0.2692,-1.56897,1.24311
-0.17889,0.7925,-0.58304,0.04869,-1.47701,1.09042
-0.16429,0.83428,-0.52629,0.09456,-1.61763,0.97581
-0.14276,0.8821,-0.4489,0.55779,-1.06971,0.79347
-0.11105,0.92131,-0.37262,0.35437,-0.15437,-0.66772
-0.07297,0.92963,-0.3612,0.62799,0.74022,-1.75947
-0.04975,0.92315,-0.38118,0.44278,0.56287,-1.27714
-0.04887,0.9167,-0.39657,0.49128,0.8455,1.41508
-0.02674,0.89362,-0.44801,-0.22503,2.68084,1.3466
-0.0356,0.86551,-0.49962,-0.72124,-1.53757,0.92337
-0.05484,0.87667,-0.47795,-0.35705,-1.48879,1.13624
-0.08633,0.90755,-0.41096,-0.95299,0.729,1.57723
-0.17222,0.9266,-0.33427,-0.45437,2.70092,0.4646
-0.25591,0.94229,-0.21584,1.9473,2.10393,-0.69486
-0.25699,0.95851,-0.12331,1.77824,1.69849,-0.39766
-0.21216,0.97644,-0.03916,0.03456,1.09193,-0.36618
-0.17289,0.98362,0.05088,-0.55488,0.46694,-1.09809
-0.14062,0.98453,0.10443,-0.78817,0.25682,-1.20738
-0.13432,0.98251,0.12891,-0.21552,-0.73499,-0.82296
-0.14591,0.97926,0.14049,-0.20393,-0.73175,-0.83454
-0.15531,0.97908,0.13143,0.49948,-0.87667,-0.45174
-0.15778,0.98172,0.10634,0.54796,-1.0353,-0.40147
-0.14733,0.98653,0.07099,0.45647,-0.66771,-0.74436
-0.13945,0.9902,0.006,-0.53811,-0.96722,-0.41243
-0.15366,0.98576,-0.06816,-0.7814,-0.60023,-0.03394
-0.18603,0.97321,-0.13505,-0.37502,0.73945,0.1306
-0.20817,0.95459,-0.2131,0.13197,1.59108,0.17401
-0.2101,0.92607,-0.31344,0.29882,2.61377,0.45155
-0.18468,0.90004,-0.39474,-0.08552,1.84508,0.50147
-0.11472,0.87897,-0.46287,-0.06336,1.86159,0.30906
-0.05421,0.84936,-0.52502,0.62858,1.4768,0.14813
-0.04795,0.81433,-0.57841,0.9337,0.68155,0.61573
-0.08457,0.77988,-0.62018,0.75826,0.43493,0.74356
-0.14493,0.753,-0.64186,-0.04748,-0.43291,1.11597
-0.18106,0.74478,-0.64228,-0.59296,-1.24775,1.23754
-0.19162,0.75663,-0.62513,-0.39449,-1.30101,1.21244
-0.18945,0.78496,-0.58986,-0.14607,-1.2546,1.12429
-0.17756,0.82342,-0.53893,0.03493,-1.63339,1.03661
-0.15634,0.86879,-0.46984,0.27226,-1.61066,0.98502
-0.12227,0.90983,-0.39654,0.49164,-0.80317,0.38351
-0.07422,0.9212,-0.38192,0.74723,1.13472,-1.96644
-0.05021,0.9161,-0.39777,0.76989,0.70467,-1.25544
-0.05288,0.91497,-0.40003,0.50895,-0.20029,-0.63924
-0.04723,0.9119,-0.40768,-0.33763,0.36297,2.85795
-0.03161,0.89738,-0.44012,-1.9034,4.01075,-2.11075
-0.0607,0.88214,-0.46704,-0.34623,-0.56583,1.55156
-0.07743,0.89136,-0.44663,-0.27614,-0.65283,1.58384
-0.10193,0.91718,-0.3852,-0.42438,-0.0185,1.69304
-0.16904,0.9287,-0.33005,-0.71148,1.65712,1.4523
-0.24143,0.93779,-0.24948,0.80883,2.44534,-0.16909
-0.2554,0.95906,-0.12232,1.56738,1.70822,-0.8745
-0.21949,0.97347,-0.0645,-0.1465,1.01644,-0.48503
-0.18216,0.98326,-0.00216,-0.30949,0.69065,-0.73202
-0.15142,0.98645,0.06297,-0.6443,0.01051,-0.96583
-0.14233,0.98503,0.09715,-0.11973,-0.65556,-0.6951
-0.15479,0.98209,0.10734,-0.10726,-0.65262,-0.70529
-0.16425,0.97895,0.12104,0.385,-0.63577,-0.44545
-0.1732,0.97762,0.11936,0.1906,-1.09116,-0.19393
-0.17103,0.97965,0.10496,0.35464,-1.17133,-0.21588
-0.15592,0.98631,0.05353,0.32027,-0.59604,-1.26767
-0.15499,0.98782,-0.01281,-0.64375,-1.00124,-0.633
-0.16863,0.98218,-0.08285,-0.425,-0.42223,0.27191
-0.18672,0.96961,-0.15802,-0.315,-0.12379,0.2804
-0.19247,0.94957,-0.24752,0.31095,2.67711,0.20939
-0.17906,0.92461,-0.3362,0.16728,3.10231,0.30571
-0.12144,0.90779,-0.40145,-0.66954,1.66869,0.5472
-0.05761,0.8798,-0.47182,0.22081,1.60143,-0.00926
-0.03797,0.83835,-0.5438,0.9471,1.34021,0.33683
-0.05693,0.79889,-0.59877,0.96883,0.84129,0.48954
-0.11103,0.76253,-0.63734,0.1905,0.02743,1.02826
-0.15728,0.73903,-0.65505,-0.62063,-0.90799,1.17438
-0.17612,0.7375,-0.65198,-0.64274,-1.25497,1.26425
-0.17706,0.75843,-0.62723,-0.14045,-1.24975,1.15504
-0.16567,0.79473,-0.58391,-0.05191,-1.30701,1.0096
-0.14557,0.83914,-0.52407,0.19504,-1.56683,0.85022
-0.12195,0.88407,-0.45115,0.43805,-0.87293,0.23289
-0.08553,0.91304,-0.3988,0.7186,0.5264,-1.37289
-0.0525,0.91961,-0.3893,0.89634,0.71513,-0.99768
-0.03129,0.91772,-0.39599,0.4975,0.16456,-0.67658
-0.02903,0.91756,-0.39652,-0.04743,-0.52025,2.88008
0.00122,0.90796,-0.41905,-0.9485,2.18408,-0.29666
-0.01995,0.8968,-0.44198,-0.43797,-0.05891,1.61085
-0.03444,0.89967,-0.4352,-0.25623,-0.65919,1.53006
-0.04668,0.92144,-0.38569,-0.49475,0.05491,1.70935
-0.10145,0.94059,-0.32401,-0.73567,1.12153,1.428
-0.17699,0.94852,-0.26263,0.23886,1.96556,1.12968
-0.21856,0.96584,-0.13919,1.50255,1.98466,-0.75495
-0.19581,0.97926,-0.05191,0.53481,1.29871,-0.32471
-0.1558,0.98753,0.02215,-0.51238,0.99602,-0.78635
-0.11901,0.98859,0.09222,-1.00336,0.42022,-1.14929
-0.11341,0.98485,0.13111,-1.15557,-0.18865,-1.29722
-0.13836,0.98004,0.1427,0.33221,-0.80301,-0.70156
-0.15455,0.97754,0.14321,0.60951,-0.84163,-0.64821
-0.15751,0.9757,0.1523,0.7643,-0.84557,-0.31519
-0.15819,0.9765,0.14634,0.36793,-1.09458,-0.0908
-0.14671,0.97974,0.13625,0.44152,-1.09165,-0.3497
-0.12704,0.98759,0.09226,-0.52778,-0.77561,-1.30182
-0.11935,0.9927,0.01672,-0.66971,-0.66383,-0.56852
-0.12385,0.9905,-0.05971,-0.48575,0.31247,0.6976
-0.13321,0.97949,-0.15117,-0.18285,2.45229,0.31166
-0.1431,0.96129,-0.23544,-0.13223,2.1963,0.0061
-0.12083,0.94703,-0.29752,-0.64405,1.7204,0.17054
-0.04895,0.93215,-0.35874,-0.68792,2.08441,0.25262
0.00882,0.9102,-0.41405,0.47441,1.78508,0.41201
0.01467,0.87857,-0.47739,0.95352,0.81186,0.61316
-0.0226,0.84112,-0.54037,0.36123,0.31086,0.97852
-0.08151,0.80556,-0.58687,-0.01345,-0.01997,1.3374
-0.12002,0.78595,-0.60653,-0.61129,-1.38742,1.32289
-0.13617,0.78851,-0.59975,-0.35619,-1.5855,1.18216
-0.14389,0.81044,-0.56787,-0.19519,-1.54515,1.1096
-0.13854,0.84489,-0.51669,0.20238,-1.88447,1.09771
-0.11251,0.88838,-0.4451,0.61522,-1.1663,0.64114
-0.05819,0.91732,-0.39386,0.65145,-0.17906,-1.32547
-0.00955,0.91999,-0.39181,0.95332,0.60543,-1.94857
0.00373,0.91859,-0.39518,0.68058,-0.08678,-0.08332
0.01121,0.91868,-0.39482,0.03344,-1.29019,2.53598
0.0408,0.91028,-0.41196,-1.18972,-0.669,2.27944
0.00793,0.9204,-0.39089,-1.59301,2.44563,1.54426
-0.00191,0.93381,-0.35775,-0.21209,0.12355,1.20782
-0.04318,0.95452,-0.29498,-0.07111,0.40632,1.55484
-0.11357,0.95868,-0.26081,0.46154,1.93606,1.78527
-0.17632,0.96984,-0.16822,1.52254,1.92395,-0.53576
-0.17308,0.98279,-0.0645,1.53145,1.50554,-0.05181
-0.13963,0.99013,0.01091,-0.42195,1.25202,-0.75023
-0.1004,0.99183,0.07859,-0.79376,0.66845,-1.05082
-0.07141,0.98848,0.13341,-1.168,0.12918,-0.90971
-0.07711,0.9845,0.15747,-0.46728,-0.57752,-1.02938
-0.0941,0.98358,0.15394,0.38166,-1.07489,-0.52028
-0.10236,0.98396,0.14602,0.43121,-0.98248,-0.24423
-0.10353,0.98514,0.13699,0.31159,-1.01399,-0.27499
-0.09425,0.9878,0.1239,0.74095,-0.82279,-1.09717
-0.08041,0.99469,0.06406,-0.49246,-0.69521,-1.18855
-0.07825,0.9969,-0.0077,-0.86839,-0.62817,-0.50433
-0.09663,0.99243,-0.07563,-0.7834,-0.15709,0.14544
-0.11797,0.98038,-0.15788,0.09989,1.49943,0.62985
-0.11817,0.95475,-0.27289,1.04112,3.39495,0.60523
-0.10793,0.93074,-0.34937,-0.09134,1.44534,0.52298
-0.07036,0.91325,-0.40127,-1.07377,1.72814,0.42586
-0.0044,0.88373,-0.46797,-0.54553,1.6123,-0.02542
0.01615,0.84715,-0.53111,0.37451,1.04886,0.59153
-0.00013,0.80943,-0.58721,0.80273,0.81174,0.74154
-0.05519,0.77143,-0.63392,0.1026,0.06561,1.19352
-0.09932,0.74783,-0.65641,-0.61464,-0.86143,1.22569
-0.11853,0.74925,-0.65159,-0.53185,-1.53207,1.19998
-0.12472,0.77136,-0.62405,0.05957,-1.34352,1.10104
-0.12266,0.80583,-0.57929,0.20582,-1.39261,1.00213
-0.10545,0.84846,-0.51864,0.4349,-1.68173,0.70008
-0.07477,0.89638,-0.43692,0.45441,-0.94993,0.22438
-0.03976,0.91905,-0.39211,0.32169,-0.06407,-0.82747
-0.01954,0.91015,-0.4138,0.64114,1.31781,-1.08826
-0.03106,0.89909,-0.43666,0.07366,-0.69794,0.39642
-0.03317,0.88846,-0.45775,-0.24039,-1.28842,3.15344
-0.04424,0.87895,-0.47485,-2.82957,3.69785,-3.54236
-0.055,0.87371,-0.48331,0.48975,-1.02485,1.52315
-0.0567,0.88802,-0.45629,0.42136,-1.07238,1.50411
-0.07541,0.91629,-0.39335,-0.33509,0.93445,1.7011
-0.14262,0.93445,-0.32625,-0.06464,2.64304,-0.37967
-0.1908,0.94926,-0.24997,1.135,1.64594,0.29488
-0.19472,0.96601,-0.16996,0.78436,1.44823,0.27303
-0.17541,0.98118,-0.08064,-0.33303,0.95074,-0.43061
-0.14671,0.98911,0.01078,-0.87694,0.26493,-1.09291
-0.12499,0.9894,0.07379,-0.8898,0.05956,-1.16375
-0.1318,0.98565,0.10533,-0.23368,-0.37987,-0.91892
-0.14601,0.98194,0.1202,0.40956,-0.71527,-0.54837
-0.15375,0.98052,0.12218,0.44875,-0.87041,-0.55516
-0.1571,0.98213,0.10351,0.34789,-1.07483,-0.58242
-0.1493,0.98594,0.07497,0.23732,-0.90656,-0.62473
-0.14034,0.98971,0.02758,-0.43435,-0.92741,-0.51893
-0.14817,0.98836,-0.0341,-0.4789,-0.79658,0.01585
-0.16201,0.98195,-0.09757,-0.36198,-0.08117,0.03481
-0.16724,0.97014,-0.17564,0.16097,1.42775,0.12129
-0.16392,0.94818,-0.27216,0.5123,2.48032,0.45575
-0.15076,0.92233,-0.35576,-0.42885,1.70185,0.63149
-0.10775,0.90335,-0.41515,-0.76908,1.70493,0.48636
-0.03513,0.88317,-0.46773,0.1182,1.68803,0.03047
-0.0026,0.85429,-0.51978,0.78259,1.28225,0.44582
-0.01968,0.82019,-0.57175,0.80216,0.71004,0.56677
-0.0711,0.78851,-0.6109,0.17138,0.07354,0.99523
-0.11608,0.76905,-0.62855,-0.52777,-0.71917,1.28396
-0.13547,0.76863,-0.62518,-0.49429,-1.38124,1.25065
-0.13575,0.78993,-0.59797,-0.30239,-1.50885,1.03588
-0.12826,0.82568,-0.54936,-0.00823,-1.59135,0.86037
-0.11418,0.86705,-0.48496,0.3795,-1.40827,0.64791
-0.08441,0.89702,-0.43384,0.4882,-0.70421,-0.01311
-0.04538,0.90372,-0.4257,0.74814,0.34915,-1.22563
-0.02103,0.89934,-0.43673,0.51407,0.04293,-0.87194
-0.01202,0.90016,-0.43539,0.54677,-0.70146,0.91477
0.01698,0.89555,-0.44462,-0.50327,-0.68925,2.57068
-0.02794,0.89253,-0.45011,-1.21776,0.51158,1.08719
-0.07344,0.8984,-0.43297,-0.16557,-0.22319,1.76923
-0.12065,0.91297,-0.38977,-0.21129,0.00244,1.52536
-0.20544,0.92375,-0.32322,-0.15527,1.33997,1.41892
-0.27819,0.93562,-0.21728,1.74839,1.86093,-0.37931
-0.26816,0.9536,-0.13686,1.46781,1.3671,-0.17637
-0.21876,0.97417,-0.05591,0.45448,0.92241,-0.0902
-0.17025,0.98487,0.03219,-0.59887,0.50825,-0.77301
-0.13944,0.98564,0.09516,-0.93841,0.49518,-0.94117
-0.13466,0.98219,0.13095,-1.14813,0.12911,-1.21835
-0.14545,0.97802,0.14932,0.20287,-0.64398,-0.8441
-0.15281,0.97679,0.15001,0.39744,-0.77431,-0.73744
-0.15372,0.97919,0.13245,0.58118,-0.88902,-0.39298
-0.14818,0.9835,0.10364,0.3547,-0.9722,-0.37321
-0.13826,0.98697,0.08217,0.32416,-0.96361,-0.46586
-0.12801,0.99116,0.03468,-0.44726,-0.80871,-0.54733
-0.13293,0.99042,-0.03719,-0.20638,0.68338,0.35412
-0.14205,0.9831,-0.11546,-0.19726,0.6907,0.43238
-0.15096,0.96651,-0.20752,0.10903,2.0826,0.36235
-0.14634,0.94409,-0.29541,-0.69747,1.88932,0.43099
-0.09404,0.92496,-0.36823,-0.64334,1.93771,0.40218
-0.01239,0.9045,-0.42628,-0.09494,1.85015,0.17595
0.04432,0.87744,-0.47763,0.93317,1.15775,0.46406
0.03931,0.84012,-0.54096,0.75159,0.63548,0.61062
-0.01741,0.80072,-0.59878,0.39075,0.15381,1.10953
-0.07469,0.77235,-0.63079,-0.64495,-1.08942,1.24094
-0.10478,0.76377,-0.63693,-0.65734,-1.33092,1.24017
-0.11787,0.77653,-0.61895,-0.38892,-1.4152,1.16578
-0.11776,0.80434,-0.58238,0.07013,-1.61783,1.11571
-0.09525,0.84594,-0.5247,0.25873,-1.89129,1.23635
-0.05298,0.89223,-0.44846,0.43764,-1.1766,0.74395
0.00072,0.9148,-0.40391,0.67052,0.11372,-1.26902
0.02903,0.91186,-0.40947,0.96517,1.08469,-1.46303
0.0371,0.90406,-0.42578,0.32308,-0.06227,-0.3667
0.04237,0.8952,-0.44364,-0.23843,-0.81849,2.40795
0.05624,0.88096,-0.46983,-1.79918,2.66148,-1.11377
0.03737,0.87772,-0.47771,-0.53471,-0.63002,1.20032
0.03247,0.89864,-0.43747,-0.48818,-0.2291,1.88313
-0.00897,0.93248,-0.36108,-0.72728,0.5525,1.36041
-0.10026,0.94977,-0.29644,-0.28176,2.35223,0.75256
-0.16007,0.95912,-0.23337,1.82424,1.9096,-0.08599
-0.16662,0.97466,-0.14923,1.01445,1.3786,0.056
-0.13798,0.98886,-0.05562,-0.04616,1.02046,-0.24582
-0.114,0.99287,0.03447,-0.67045,0.67174,-1.20459
-0.09548,0.99177,0.08513,-0.94666,0.13132,-1.163
-0.10239,0.98897,0.10695,-0.09085,-0.5902,-0.65854
-0.1133,0.98606,0.12179,0.53463,-0.93245,-0.54024
-0.11473,0.98539,0.12578,0.62565,-0.96722,-0.61905
-0.11277,0.98724,0.11238,0.37881,-1.01586,-0.39454
-0.10299,0.99036,0.09257,0.43519,-0.79822,-0.88228
-0.08894,0.99495,0.04636,-0.17708,-0.67613,-0.91326
-0.09073,0.99571,-0.01764,-0.65921,-0.51208,-0.08478
-0.10706,0.9906,-0.08509,-0.59373,0.11159,0.25861
-0.12754,0.97778,-0.16634,-0.31741,0.82207,0.35757
-0.14618,0.95311,-0.26495,0.21234,2.38446,0.40675
-0.14668,0.92535,-0.34958,-0.32828,1.41972,0.63727
-0.10759,0.90277,-0.41644,-0.61318,1.59561,0.54977
-0.0474,0.87702,-0.4781,-0.18004,1.70028,0.12257
-0.01333,0.84836,-0.52925,0.70555,1.14797,0.46612
-0.01393,0.81712,-0.57629,0.68216,0.88282,0.58917
-0.04828,0.78928,-0.61213,0.33919,-0.01078,0.97364
-0.09297,0.77139,-0.62953,-0.27298,-0.80452,1.11801
-0.11596,0.76986,-0.62758,-0.38171,-1.10568,1.15635
-0.11918,0.78834,-0.60359,-0.36964,-1.46145,1.11654
-0.11586,0.82027,-0.56011,-0.05107,-1.50684,0.89527
-0.10713,0.8624,-0.49476,0.09813,-1.69487,0.91583
-0.08326,0.90509,-0.41698,0.32507,-0.96594,0.47884
-0.03505,0.92228,-0.38492,0.44978,0.28312,-1.4891
-0.00067,0.91869,-0.39498,0.48176,0.5838,-1.44417
0.00392,0.91918,-0.39381,0.3862,-0.09546,-0.48847
0.00748,0.9202,-0.39138,0.35406,-0.96498,2.64817
0.04048,0.91497,-0.40148,-0.19195,-0.32949,2.94143
0.01807,0.91353,-0.40637,-0.65941,0.21125,1.07504
-0.0025,0.92309,-0.38456,-0.30442,-0.23297,1.45109
-0.04393,0.94501,-0.32407,-0.51312,0.25726,1.53761
-0.114,0.95447,-0.27566,-0.10957,1.43524,1.54172
-0.16808,0.96656,-0.19366,1.27878,2.08722,-0.82472
-0.16315,0.98246,-0.09017,1.35053,1.56226,-0.36124
-0.12963,0.99143,-0.01605,-0.03663,1.12869,-0.58322
-0.09487,0.99412,0.05199,-0.67245,0.63281,-1.10556
-0.06193,0.99285,0.10201,-1.01126,0.19986,-0.85817
-0.06777,0.9895,0.12764,-0.92219,-0.47126,-1.10164
-0.08791,0.98744,0.1312,0.16907,-0.856,-0.68364
-0.09774,0.98516,0.14106,0.55271,-0.75444,-0.41375
-0.10211,0.98529,0.13696,0.49891,-1.0253,-0.20366
-0.09751,0.98831,0.11712,0.43122,-1.14535,-0.29136
-0.08243,0.99428,0.06784,-0.20628,-0.62437,-1.30646
-0.08202,0.99661,-0.00504,-0.77331,-0.8539,-0.28374
-0.10253,0.99149,-0.08017,-0.8762,-0.37924,0.11781
-0.131,0.97823,-0.16094,-0.54751,1.00842,0.2564
-0.14435,0.95439,-0.26134,0.2688,3.13267,0.43735
-0.12595,0.92774,-0.35133,0.12718,1.90286,0.40094
-0.06518,0.90746,-0.41505,-0.60383,1.76796,0.4643
-0.0021,0.87269,-0.48826,-0.10573,1.85915,0.03741
0.01387,0.82798,-0.56058,0.79404,1.44666,0.45776
-0.01672,0.7849,-0.6194,1.01104,1.0349,0.67814
-0.08758,0.7421,-0.66454,0.35624,0.20904,1.20125
-0.14262,0.71358,-0.6859,-0.48966,-0.8691,1.35051
-0.16327,0.71286,-0.68204,-0.55264,-1.42721,1.38094
-0.16687,0.73877,-0.65297,-0.1069,-1.32016,1.21153
-0.16234,0.77916,-0.60544,0.16588,-1.32098,1.02126
-0.14416,0.82766,-0.5424,0.24879,-1.4983,0.91768
-0.11002,0.87782,-0.46618,0.32278,-1.19731,0.4587
-0.06176,0.90672,-0.41717,0.57216,0.21355,-1.25839
-0.02281,0.90912,-0.41591,0.63122,0.89096,-1.51677
-0.01133,0.90612,-0.42285,0.3543,0.04302,-0.48252
0.0008,0.90075,-0.43432,0.28019,-0.07387,1.805
0.02981,0.88201,-0.47027,-0.18415,2.4325,0.46948
0.01034,0.86832,-0.4959,-0.6728,-0.96585,0.88753
0.00211,0.88504,-0.46551,-0.66236,-0.49217,1.95307
-0.02581,0.91715,-0.3977,-0.87887,0.74189,1.38266
-0.10527,0.9436,-0.3139,-0.44415,2.27589,1.19291
-0.17542,0.95583,-0.23581,1.78316,2.10368,-0.6197
-0.19073,0.96832,-0.16114,0.95841,1.37194,-0.221
-0.16676,0.98226,-0.08572,0.56666,1.16537,-0.10184
-0.13911,0.99027,-0.00193,-0.44941,0.74826,-0.85421
-0.11506,0.9916,0.05906,-0.73382,0.35658,-1.0925
-0.11013,0.98988,0.08946,-0.84722,-0.2737,-0.996
-0.12315,0.98705,0.10272,-0.0818,-0.88833,-0.71096
-0.13165,0.98403,0.11978,0.50128,-0.87911,-0.49814
-0.13627,0.9828,0.12459,0.55701,-1.01339,-0.24094
-0.13817,0.98421,0.11057,0.32435,-1.0958,-0.22241
-0.12749,0.98773,0.0901,0.59081,-0.9229,-1.26631
-0.11698,0.99261,0.03222,-0.58078,-0.9385,-0.52885
-0.12321,0.99196,-0.02868,-0.70142,-0.50224,-0.16396
-0.13753,0.98683,-0.08509,-0.61659,-0.34508,-0.02589
-0.14878,0.97509,-0.16448,0.14841,0.83233,0.45867
-0.14246,0.94857,-0.28267,1.07512,3.46584,0.47382
-0.13014,0.92067,-0.368,0.05285,1.94197,0.79952
-0.07679,0.90401,-0.42056,-1.36805,1.66127,0.51333
0.00517,0.87348,-0.48682,-0.31528,1.70809,-0.33903
0.04442,0.83858,-0.54296,0.83104,1.28646,0.39604
0.02467,0.80255,-0.59607,0.97157,0.79698,0.59683
-0.04208,0.76611,-0.64133,0.35833,0.01768,1.05051
-0.09464,0.74604,-0.65914,-0.5013,-0.82949,1.20819
-0.11671,0.74842,-0.65288,-0.66677,-1.30916,1.26936
-0.12242,0.77186,-0.6239,-0.32185,-1.23272,1.18092
-0.11841,0.80936,-0.57525,-0.10713,-1.30969,1.11976
-0.10405,0.85314,-0.5112,0.20663,-1.51334,0.8177
-0.08326,0.89479,-0.43865,0.42585,-1.32982,0.62324
-0.05455,0.92187,-0.38363,0.19576,-0.57104,-0.2802
-0.01823,0.92097,-0.38919,0.53968,1.05812,-1.5685
0.00514,0.90997,-0.41464,0.21858,-0.10646,-0.56687
0.00611,0.90507,-0.42521,0.1142,-0.7458,0.19196
0.03521,0.89647,-0.4417,-0.23431,-0.41255,2.71894
0.01201,0.88221,-0.47069,-0.82341,-0.24998,2.37994
-0.00979,0.88078,-0.47343,-0.66156,-0.56576,1.25694
-0.0281,0.9058,-0.42278,-0.76889,-0.118,1.53233
-0.08349,0.93436,-0.34641,-0.76519,1.56267,1.00235
-0.16267,0.9493,-0.26902,0.00861,2.38927,0.58707
-0.19333,0.96141,-0.19571,2.19741,2.08757,-0.44375
-0.18328,0.97612,-0.11654,0.58049,1.09132,-0.04255
-0.1607,0.98653,-0.0305,0.07522,1.02931,-0.34397
-0.13216,0.99004,0.04851,-0.70476,0.26164,-1.02554
-0.10794,0.99,0.0908,-0.83991,-0.01493,-0.99174
-0.10728,0.98804,0.11068,-0.6934,-0.15153,-1.12582
-0.11581,0.98625,0.11783,0.31433,-0.93272,-0.47688
-0.11693,0.98512,0.12592,0.50603,-0.92805,-0.27
-0.11344,0.9865,0.11803,0.26274,-1.02404,-0.15658
-0.1041,0.98959,0.09932,0.45673,-0.97862,-0.59404
-0.08575,0.99487,0.05362,-0.3008,-0.50549,-1.15115
-0.07876,0.99664,-0.02221,-0.58576,-0.81981,-0.67995
-0.08089,0.99159,-0.10094,-0.48187,0.73155,0.5783
-0.08346,0.98027,-0.17916,-0.15673,1.27005,0.50336
-0.08936,0.96218,-0.25733,-0.25082,1.5214,0.34736
-0.07949,0.94659,-0.31248,-0.28403,2.26157,0.21124
-0.00978,0.9311,-0.36461,0.09808,1.96448,0.29697
0.05932,0.90892,-0.41273,0.38436,1.52329,0.17909
0.0738,0.8749,-0.47864,0.73458,0.94762,0.50534
0.04112,0.83562,-0.54776,0.57779,0.68356,0.62359
-0.01829,0.80004,-0.59967,-0.21239,-0.15377,1.20848
-0.06306,0.77746,-0.62576,-0.71769,-1.03785,1.27811
-0.08523,0.77747,-0.62311,-0.61878,-1.48604,1.30207
-0.09713,0.79465,-0.59925,-0.1543,-1.68613,1.3539
-0.08921,0.82322,-0.56066,0.14422,-1.80351,1.3696
-0.06051,0.85972,-0.50717,0.07133,-1.76243,1.06001
-0.02646,0.89641,-0.44243,0.13182,-1.1129,0.28579
0.00269,0.91572,-0.4018,0.54859,0.02758,-1.26559
0.01407,0.91958,-0.39266,0.74852,1.02922,-0.8444
0.00843,0.9157,-0.40177,0.48051,0.30373,-0.26011
0.01799,0.9021,-0.43115,-0.49484,-0.60234,2.8819
0.00705,0.90499,-0.42537,-2.45189,2.5398,-2.05241
-0.01127,0.91338,-0.40694,0.09765,-0.34513,1.57369
-0.03492,0.9322,-0.36025,0.05437,-0.14724,1.60172
-0.08652,0.94635,-0.31134,-0.23869,0.53509,1.60316
-0.16163,0.95087,-0.26404,-0.08645,1.73311,1.20307
-0.2033,0.96603,-0.15949,1.19294,2.22884,-0.81912
-0.19149,0.97855,-0.07587,0.70257,1.39247,-0.17807
-0.15856,0.98734,0.00342,-0.16902,1.01393,-0.35451
-0.11952,0.98976,0.07793,-1.04439,0.12027,-1.02767
-0.1047,0.98676,0.12382,-1.22522,-0.32157,-1.39199
-0.12255,0.98216,0.14261,-0.70711,-0.62492,-1.08955
-0.14146,0.97729,0.15775,0.65058,-0.79342,-0.53132
-0.15039,0.97529,0.16178,0.58627,-0.9795,-0.19456
-0.15293,0.97779,0.14329,0.3824,-1.03676,-0.19001
-0.14445,0.98223,0.11975,0.56481,-0.77591,-1.39394
-0.12739,0.98898,0.0753,-0.39025,-0.83449,-0.85461
-0.12676,0.99193,0.0008,-0.42486,-0.8522,-0.01934
-0.13959,0.9878,-0.06904,-0.48593,0.44723,0.67807
-0.15467,0.97543,-0.15687,0.28945,2.36605,0.44889
-0.16378,0.95002,-0.26577,0.48477,2.90853,0.29011
-0.15835,0.92782,-0.33775,-0.35676,1.80753,0.24571
-0.09384,0.90912,-0.40581,-0.64126,2.12658,0.27677
-0.03516,0.88161,-0.47066,0.51447,1.56026,0.14693
-0.02106,0.8493,-0.52748,1.04338,1.29874,0.52339
-0.05347,0.80888,-0.58554,0.43829,0.45083,0.87977
-0.10808,0.76952,-0.62941,0.16379,0.18861,1.22702
-0.14567,0.74626,-0.64952,-0.40731,-1.18199,1.33743
-0.16224,0.74499,-0.64704,-0.30254,-1.54536,1.31613
-0.1687,0.76499,-0.62155,-0.01436,-1.495,1.25694
-0.15996,0.80021,-0.57799,0.17005,-1.68096,1.22063
-0.13364,0.84579,-0.51651,0.50563,-1.16611,0.83505
-0.08986,0.88944,-0.44813,0.32953,-0.97125,0.44079
-0.0378,0.90897,-0.41513,0.40552,0.22723,-1.54566
-0.01458,0.91353,-0.4065,0.52263,0.85737,-0.94625
-0.0108,0.91446,-0.40451,0.51076,-0.12107,0.1848
0.02108,0.90255,-0.43007,-0.75879,-0.5232,2.97118
0.0036,0.90475,-0.42592,-2.14799,3.01465,0.3452
-0.00993,0.90785,-0.41917,-0.19559,-0.73035,1.33634
-0.04888,0.93056,-0.36285,-0.06956,-0.63796,1.38367
-0.11768,0.94748,-0.29736,-0.50686,1.75313,2.08635
-0.17451,0.9571,-0.23128,0.63181,2.27892,0.51655
-0.18947,0.97558,-0.11106,1.30794,1.66569,-0.7985
-0.15928,0.9862,-0.04506,-0.0501,1.3119,-0.53949
-0.1219,0.99234,0.01968,-0.62452,0.73749,-0.81332
-0.08656,0.99269,0.084,-0.84322,0.02492,-0.91245
-0.0818,0.98904,0.12287,-0.81069,-0.58781,-1.08463
-0.09922,0.98651,0.13013,0.05703,-0.95644,-0.8306
-0.10812,0.98499,0.13453,0.41604,-0.70908,-0.60074
-0.11029,0.98659,0.12025,0.43739,-0.89878,-0.39187
-0.10302,0.98986,0.09775,0.36598,-1.02799,-0.31317
-0.088,0.99459,0.05508,0.27183,-0.6791,-0.58398
-0.08533,0.99629,-0.01036,-0.61308,-0.83368,-0.97775
-0.10138,0.99129,-0.08404,-0.51358,-0.57631,0.07888
-0.13151,0.97787,-0.16268,0.01457,0.88618,0.48878
-0.14338,0.95578,-0.25675,0.54531,3.08055,0.64179
-0.11904,0.93154,-0.34358,0.22487,3.34699,0.50429
-0.05356,0.91881,-0.39104,-0.62642,2.07374,0.59548
0.01517,0.89587,-0.44405,0.00468,1.76946,-0.15341
0.03329,0.85617,-0.51561,0.75799,1.19217,0.63393
0.01396,0.81607,-0.57778,0.58429,0.40094,0.66876
-0.0319,0.78335,-0.62075,-0.59656,-0.78467,1.13644
-0.06925,0.7663,-0.63874,-0.77526,-1.4549,1.17559
-0.07893,0.77202,-0.63067,-0.56107,-1.52076,1.16695
-0.07719,0.79445,-0.60239,-0.06852,-1.34705,1.15783
-0.06892,0.82626,-0.55905,0.09288,-1.49491,1.07254
-0.05098,0.86273,-0.50308,0.19961,-1.46661,0.90086
-0.03583,0.89735,-0.43984,0.08649,-0.77881,0.11569
-0.01787,0.92092,-0.38932,0.25681,-0.22463,-0.65748
0.00638,0.93046,-0.36633,0.81658,0.65685,-0.60129
0.02457,0.92975,-0.36735,0.43904,-0.24965,-0.24562
0.02603,0.92683,-0.37456,0.32006,-0.54051,1.13892
0.04093,0.91922,-0.39161,-1.08382,1.9601,0.51466
0.02377,0.91498,-0.40279,-0.6547,-0.41663,0.97232
-0.00812,0.91775,-0.39705,-0.33034,-0.63963,1.15689
-0.05894,0.93507,-0.34951,-0.53639,0.06128,1.66057
-0.12814,0.9443,-0.30309,0.53901,2.32752,0.32816
-0.18512,0.96161,-0.20253,1.54371,2.18606,-1.00102
-0.17367,0.97834,-0.11263,1.18566,1.40464,-0.56422
-0.13598,0.98929,-0.05286,-0.38429,0.8536,-0.68067
-0.10303,0.99457,0.01396,-0.90481,0.23142,-1.15302
-0.08353,0.99398,0.07082,-1.00549,-0.23479,-1.26115
-0.09477,0.99069,0.09769,0.0771,-0.69781,-0.8049
-0.10585,0.98899,0.10332,0.57075,-0.88844,-0.4133
-0.10767,0.98871,0.10416,0.40933,-1.08417,0.01197
-0.10672,0.99021,0.08984,0.52176,-1.00904,-0.869
-0.10369,0.99197,0.07226,0.30065,-0.76443,-1.237
-0.09598,0.9951,0.02358,-0.52108,-0.94216,-0.521
-0.09789,0.99423,-0.04381,-0.69014,-0.47351,0.09946
-0.11296,0.98751,-0.10979,-0.5435,-0.01566,0.33335
-0.13245,0.97371,-0.18528,0.25696,1.92726,0.32627
-0.13457,0.94752,-0.28999,0.51773,2.77342,0.32199
-0.11381,0.91998,-0.37507,-0.81366,1.67951,0.53361
-0.05579,0.90196,-0.42818,-0.75003,1.68179,0.36405
0.01547,0.87131,-0.49049,0.11904,1.43248,0.1616
0.04702,0.82973,-0.55617,0.77578,1.12617,0.54856
0.03081,0.7852,-0.61847,0.5623,0.67156,0.64415
-0.03137,0.74208,-0.66958,0.09588,-0.14436,1.15041
-0.08881,0.71368,-0.69481,-0.57861,-1.08171,1.37476
-0.11224,0.71345,-0.69166,-0.50441,-1.41772,1.18792
-0.11967,0.73892,-0.66308,-0.13146,-1.32931,1.14163
-0.11206,0.77958,-0.61619,0.17958,-1.56935,1.1395
-0.08724,0.83143,-0.54874,0.45278,-1.52779,0.90721
-0.04765,0.88031,-0.47199,0.09121,-1.00206,0.24556
-0.00499,0.9033,-0.42897,0.3513,0.38851,-1.34918
0.01909,0.90655,-0.42166,0.66483,0.80495,-0.88475
0.01604,0.90407,-0.42707,0.57594,-0.17086,-0.3439
0.02189,0.90126,-0.43272,0.03444,-0.98437,2.98341
0.04411,0.89345,-0.44698,-0.86284,0.56037,1.96692
0.0166,0.88296,-0.46914,-0.2548,-0.98727,1.26672
-0.00684,0.88406,-0.46732,-0.2781,-0.68874,1.43424
-0.03734,0.90945,-0.41412,-0.64357,0.33867,1.71685
-0.09878,0.92416,-0.36901,0.19955,2.35539,0.3827
-0.17375,0.94345,-0.28231,1.13428,2.13762,-0.69925
-0.19044,0.96649,-0.17207,1.27586,1.33133,-0.18823
-0.16011,0.98151,-0.10483,-0.2765,0.77224,-0.58767
-0.12534,0.99156,-0.03289,-0.79017,0.30042,-0.80923
-0.09413,0.99486,0.0372,-1.07381,0.11951,-1.01422
-0.09134,0.99276,0.07787,-0.28878,-0.64469,-0.73139
-0.10826,0.98988,0.09169,0.36245,-0.69819,-0.679
-0.11781,0.98721,0.10734,0.39919,-0.91027,-0.37088
-0.1247,0.98667,0.10446,0.31359,-1.06304,-0.32371
-0.12631,0.98815,0.08715,0.59459,-0.90203,-0.84809
-0.11387,0.9924,0.04642,-0.02506,-0.62937,-1.03162
-0.10973,0.99367,-0.02363,-0.60046,-0.57467,0.08648
-0.11795,0.98889,-0.09041,-0.65544,0.0261,0.35758
-0.13301,0.97823,-0.15927,-0.03726,1.80343,0.53836
-0.14565,0.95581,-0.25536,0.21453,2.61159,0.32929
-0.13505,0.932,-0.33634,-0.24413,1.8948,0.43743
-0.09387,0.91615,-0.38969,-0.87343,1.70592,0.52592
-0.03945,0.895,-0.44431,0.56022,1.37232,0.26511
-0.00462,0.87196,-0.48956,0.8892,1.19257,0.29168
0.00216,0.8501,-0.52661,0.76624,0.77616,0.40282
-0.02073,0.82687,-0.56201,-0.15093,-0.17508,1.07543
-0.05179,0.80905,-0.58545,-0.68858,-0.9965,1.1792
-0.06366,0.80657,-0.5877,-0.53002,-1.44443,1.21021
-0.06539,0.82226,-0.56533,-0.30808,-1.4888,1.06263
-0.06526,0.85076,-0.52148,-0.05299,-1.60725,0.90779
-0.06486,0.88658,-0.45801,0.33652,-1.52908,0.95509
-0.05252,0.91991,-0.38859,0.19758,-0.78353,0.10477
-0.01421,0.93068,-0.36555,0.65891,0.56529,-1.66051
0.01917,0.9256,-0.37801,0.54535,0.44646,-0.91602
0.01937,0.922,-0.3867,0.49424,-0.30716,-0.17615
0.03939,0.91424,-0.40324,-0.25417,0.88465,2.47435
0.05158,0.89565,-0.44174,-1.42182,0.17142,1.43187
0.02801,0.88514,-0.46448,-0.44453,-1.12743,1.08579
0.0052,0.90853,-0.41778,-0.74661,-0.25635,1.99657
-0.0434,0.93988,-0.33872,-1.16911,1.60951,1.45738
-0.12034,0.94872,-0.29231,0.18891,2.45335,1.44082
-0.18107,0.96758,-0.17606,1.57204,1.83023,-0.95863
-0.17289,0.98216,-0.07391,0.70872,1.21605,-0.39003
-0.13458,0.99081,-0.01305,-0.25807,0.95752,-0.60279
-0.10118,0.99328,0.05618,-0.64521,0.24887,-0.94485
-0.07002,0.99093,0.11464,-0.94749,-0.52529,-0.86891
-0.07236,0.98781,0.13778,-0.05682,-0.98996,-0.59077
-0.09068,0.98598,0.14006,0.33671,-0.83911,-0.37024
-0.09902,0.98568,0.13643,0.37397,-0.9051,-0.18034
-0.099,0.98659,0.12975,0.39702,-0.9174,-0.80405
-0.09302,0.989,0.11497,-0.12485,-0.68045,-1.49934
-0.08154,0.99494,0.05865,-0.5221,-0.89644,-0.94279
-0.0799,0.99655,-0.02232,-0.57854,-0.35969,0.25928
-0.09475,0.99028,-0.10176,-0.45053,0.09523,0.4637
-0.11829,0.97317,-0.19732,-0.03006,2.12096,0.33152
-0.1233,0.94776,-0.29416,-0.04758,1.6808,0.34477
-0.08229,0.93169,-0.35379,-0.66711,1.54316,0.53368
-0.00253,0.91278,-0.40844,-0.20877,1.82152,0.2452
0.0534,0.8822,-0.46783,0.82751,0.96898,0.33729
0.05601,0.84731,-0.52813,1.12754,0.84226,0.63677
0.0023,0.80781,-0.58943,0.11052,-0.03935,1.23468
-0.05705,0.77448,-0.63002,-0.69286,-0.79063,1.41024
-0.08331,0.76266,-0.64141,-0.6119,-1.44894,1.34786
-0.08023,0.77555,-0.62616,-0.44071,-1.61027,1.30261
-0.05631,0.80815,-0.58627,-0.05267,-1.76445,1.29272
-0.01907,0.85379,-0.52027,-0.06685,-1.6551,1.39847
0.00958,0.89893,-0.43797,-0.09941,-0.62162,0.24718
0.03373,0.92335,-0.38247,0.96115,0.80689,-1.50281
0.05769,0.91994,-0.38777,0.78474,1.10694,-1.40649
0.05419,0.90891,-0.41345,0.10213,-0.54395,0.09763
0.05924,0.89816,-0.43565,-0.85611,1.78046,1.50585
0.06893,0.88717,-0.45627,-1.30152,2.71301,-1.09171
0.04569,0.88512,-0.46311,-0.17157,-0.60497,1.48227
0.01204,0.91038,-0.41359,-0.5444,0.34124,1.84692
-0.05118,0.93465,-0.35186,-0.70588,1.83763,1.60674
-0.12851,0.94224,-0.30929,-0.11382,2.08144,1.25515
-0.17995,0.9646,-0.19278,1.19509,1.66866,-0.26189
-0.15726,0.98165,-0.1078,0.04989,1.23568,-0.19084
-0.11885,0.99248,-0.02916,-0.5151,0.78161,-0.82728
-0.08814,0.99496,0.04771,-0.79674,0.04188,-0.90869
-0.07531,0.99264,0.09474,-0.84405,-0.45613,-0.99484
-0.08816,0.98889,0.11968,-0.01537,-0.85778,-0.67937
-0.10035,0.98525,0.13858,0.49564,-0.91321,-0.48898
-0.10457,0.98318,0.1497,0.43429,-1.00962,-0.1968
-0.10321,0.98534,0.1358,0.31188,-1.01407,-0.28413
-0.08917,0.99104,0.09937,-0.06008,-0.57379,-1.31249
-0.07848,0.99634,0.03381,-0.61706,-0.84163,-0.36328
-0.07939,0.99597,-0.0417,-0.62244,-0.41204,-0.00682
-0.08981,0.98943,-0.11382,-0.41141,0.72238,0.72323
-0.09712,0.97303,-0.20922,0.01587,2.54162,0.74766
-0.10032,0.94858,-0.3002,-0.25252,1.65348,0.31643
-0.08594,0.9315,-0.35344,-0.52771,1.93506,0.32776
-0.03163,0.91335,-0.40595,-0.08395,1.7579,0.23446
0.02449,0.89176,-0.45183,0.48404,1.28124,0.35276
0.0375,0.86541,-0.49966,1.05128,1.04798,0.56953
0.0085,0.83234,-0.5542,0.4673,0.56473,0.96983
-0.04519,0.80044,-0.5977,-0.49688,-0.50639,1.36668
-0.07738,0.78479,-0.61491,-0.6459,-1.62779,1.2523
-0.08531,0.79175,-0.60485,-0.24809,-1.60976,1.10085
-0.08601,0.81581,-0.57189,-0.07172,-1.45728,1.00503
-0.07702,0.84922,-0.52239,0.02059,-1.46215,0.77336
-0.06166,0.88527,-0.46096,0.02217,-1.18807,0.53022
-0.04955,0.9158,-0.39856,0.2371,-0.2823,-0.67304
-0.02405,0.92245,-0.38535,0.7977,0.93303,-1.06219
0.00303,0.91307,-0.40778,0.64695,0.46822,-1.03919
0.00555,0.90901,-0.41674,-0.23654,-1.16898,3.35458
0.03704,0.90425,-0.42539,-1.77083,3.87632,-0.58704
0.01858,0.8996,-0.43632,-0.94399,0.29854,2.0749
-0.01585,0.9104,-0.41341,-0.2806,-0.33179,1.75467
-0.05509,0.93964,-0.33769,-0.51504,1.07068,2.11041
-0.11188,0.95304,-0.28142,-0.3659,1.72457,1.97491
-0.15918,0.96279,-0.2184,0.7496,1.90526,-0.71762
-0.17174,0.97867,-0.11275,0.56493,1.4057,-0.61077
-0.1521,0.9867,-0.05728,0.01169,1.26632,-0.48381
-0.12455,0.9922,0.00411,-0.52539,0.08846,-0.74944
-0.09665,0.99312,0.06599,-0.7415,-0.50579,-0.7941
-0.08694,0.99147,0.097,-0.19295,-0.96705,-0.72792
-0.09405,0.98941,0.11052,0.39854,-0.97952,-0.24145
-0.09959,0.98661,0.12907,0.345,-0.99794,-0.19571
-0.09914,0.98671,0.12871,0.36687,-0.92808,-0.57229
-0.08897,0.99104,0.09954,0.0663,-0.49205,-1.29052
-0.07971,0.99566,0.04798,-0.70626,-0.92704,-0.86351
-0.08502,0.99621,-0.01816,-0.55716,-0.51601,0.17057
-0.1053,0.9899,-0.09486,-0.1375,0.62431,0.75609
-0.12712,0.97396,-0.18769,0.17098,2.23899,0.19437
-0.13647,0.95205,-0.2738,-0.15593,2.22112,0.27935
-0.11247,0.93611,-0.33322,-0.57361,1.90828,0.53099
-0.03605,0.92344,-0.38203,0.08788,1.89144,0.13607
0.02746,0.90375,-0.42718,0.68232,1.29181,0.30192
0.05275,0.87797,-0.47579,0.66361,0.80658,0.49727
0.02217,0.84434,-0.53535,0.40601,0.35604,0.9681
-0.02993,0.81252,-0.58216,-0.66279,-0.6097,1.30724
-0.06594,0.79628,-0.60132,-0.82631,-1.3996,1.29781
-0.08541,0.80145,-0.59193,-0.32302,-1.68431,1.12608
-0.09575,0.8221,-0.56123,0.07691,-1.54265,1.17392
-0.08904,0.85184,-0.51617,0.23529,-1.62887,0.9654
-0.0594,0.88506,-0.46167,0.14443,-1.45601,0.67099
-0.01883,0.9137,-0.40595,0.002,-0.67064,-0.35795
0.01978,0.91997,-0.39148,0.72358,0.88673,-1.3835
0.03774,0.91348,-0.40512,0.78421,0.56676,-1.12287
0.04275,0.90727,-0.41835,0.02316,-0.41742,2.35237
0.0614,0.89242,-0.44701,-1.86864,3.35824,-0.43501
0.04474,0.88109,-0.47083,-0.54067,-0.92596,1.40283
0.0285,0.89485,-0.44546,-0.57409,-0.55821,1.66387
-0.00329,0.9309,-0.36526,-1.08665,1.45509,1.69726
-0.07953,0.94964,-0.30306,-0.01822,2.16822,1.39534
-0.15415,0.95983,-0.23443,1.2933,2.2277,-1.38703
-0.16754,0.97593,-0.13954,1.22615,1.71587,-0.56098
-0.13209,0.98869,-0.07097,-0.29361,0.72639,-0.67268
-0.09631,0.99534,0.00172,-0.85929,0.18407,-1.0018
-0.06993,0.99552,0.06358,-0.7337,-0.30346,-1.18209
-0.06955,0.99332,0.09202,-0.20112,-0.76196,-0.63962
-0.08788,0.99087,0.10213,0.1313,-0.79364,-0.51808
-0.09623,0.98919,0.11059,0.39268,-0.99566,-0.18594
-0.09882,0.98947,0.10565,0.29456,-1.03141,-0.39489
-0.0943,0.99226,0.08075,0.16359,-0.61436,-1.50508
-0.08483,0.9962,0.01922,-0.71099,-1.06436,-0.21963
-0.09477,0.99368,-0.0601,-0.62058,-0.37763,0.12431
-0.11689,0.9852,-0.12536,-0.2276,0.72789,0.34317
-0.13111,0.96819,-0.21312,0.64878,2.89746,0.61198
-0.12594,0.93662,-0.32692,-0.08973,2.16092,0.61185
-0.09519,0.91882,-0.38301,-0.65107,1.64293,0.76544
-0.00777,0.91138,-0.41149,-0.6591,1.62663,0.43751
0.06716,0.89163,-0.44775,0.58566,1.27163,0.42072
0.09121,0.86237,-0.49798,0.76504,0.72489,0.54947
0.06408,0.82899,-0.55558,0.28221,0.17356,0.84023
0.00917,0.79894,-0.60133,-0.67674,-0.72329,1.24266
-0.02938,0.78692,-0.61635,-0.68174,-1.44858,1.30939
-0.04918,0.79663,-0.60246,-0.45305,-1.59602,1.14688
-0.06189,0.82297,-0.5647,-0.16343,-1.59572,1.00072
-0.06851,0.85975,-0.50609,0.07874,-1.81253,1.10437
-0.06189,0.89878,-0.434,0.50271,-0.89814,0.50039
-0.0215,0.91839,-0.39508,0.70111,0.1592,-1.06904
0.03454,0.91311,-0.40624,0.6283,0.81571,-1.58195
0.05212,0.9096,-0.4122,0.26945,0.14634,-0.71286
0.04518,0.90892,-0.4145,0.26376,-0.54187,2.73069
0.06032,0.89083,-0.4503,-1.72682,2.25677,-0.13217
0.02745,0.88275,-0.46904,-1.83509,0.44153,0.92574
-0.002,0.89562,-0.44481,-0.66839,-0.14844,1.8246
-0.03984,0.92624,-0.37482,-0.73778,0.44098,1.45905
-0.11608,0.94058,-0.31912,-0.54786,1.46822,1.71536
-0.18213,0.95181,-0.24671,1.40619,2.2045,-1.36044
-0.19318,0.97365,-0.12114,0.99607,1.32867,-0.85615
-0.15904,0.98495,-0.06768,0.30657,1.15847,-0.77688
-0.12833,0.99167,-0.01053,-0.46028,0.38243,-0.68552
-0.10101,0.99375,0.04734,-0.98397,-0.36227,-0.84376
-0.09247,0.993,0.07338,-0.51655,-0.60833,-0.84052
-0.09915,0.99146,0.08464,0.3475,-0.83838,-0.35514
-0.10436,0.9899,0.09591,0.3821,-0.90411,-0.22887
-0.10955,0.9895,0.09427,0.20098,-0.99363,-0.1272
-0.10468,0.99134,0.07917,0.39327,-0.61346,-1.27204
-0.09036,0.99571,0.01946,-0.65756,-0.89609,-1.18572
-0.08809,0.99446,-0.05734,-0.69506,-0.25471,0.33902
-0.10587,0.98547,-0.13276,-0.31875,1.03049,0.8659
-0.12604,0.9664,-0.22403,0.05974,1.95487,0.9698
-0.13469,0.93916,-0.31594,-0.09358,2.30455,0.37588
-0.12311,0.92086,-0.36993,-0.51449,1.66509,0.30979
-0.071,0.9024,-0.42499,-0.4623,1.76936,0.36545
-0.0158,0.87982,-0.47504,0.20762,1.53368,0.2835
0.01408,0.85621,-0.51644,0.87914,0.86958,0.68125
0.00138,0.82579,-0.56398,0.31692,0.46205,0.92076
-0.0384,0.79638,-0.60357,-0.49056,-0.54925,1.20637
-0.06937,0.77899,-0.62318,-0.59335,-1.32527,1.19296
-0.08096,0.78132,-0.61885,-0.39568,-1.63568,1.0524
-0.08608,0.80266,-0.59019,-0.08126,-1.47073,1.02531
-0.0853,0.8354,-0.54298,0.08902,-1.60754,0.90776
-0.07684,0.87366,-0.48043,0.28299,-1.2744,0.77459
-0.05006,0.905,-0.42244,0.28578,-0.44437,-0.55868
-0.00329,0.90581,-0.42366,0.66633,0.84793,-1.53776
0.02477,0.8981,-0.43908,0.42381,0.20706,-1.23418
0.03736,0.89397,-0.44655,0.07143,-0.03283,2.78339
0.05179,0.87314,-0.48471,-1.51937,1.33335,1.40591
0.02494,0.86185,-0.50655,-0.77486,-0.5847,0.59526
0.00552,0.88076,-0.47352,-0.81828,-0.04356,1.88865
-0.01894,0.91725,-0.39784,-0.77164,0.70539,1.42178
-0.08874,0.94432,-0.31684,-0.18715,2.09783,1.5199
-0.15555,0.95318,-0.25931,1.82336,2.28472,-1.65119
-0.17331,0.96949,-0.17336,1.3313,1.48619,-0.56166
-0.15177,0.98228,-0.10995,0.10383,1.13046,-0.26118
-0.12882,0.99063,-0.04532,-0.39253,0.35488,-0.67177
-0.10245,0.99465,0.0131,-0.8026,-0.41866,-0.5873
-0.0756,0.9961,0.04525,-0.86585,-0.74006,-0.46722
-0.06952,0.99541,0.06563,-0.2811,-0.99943,-0.53865
-0.07495,0.99346,0.08606,0.28268,-0.86359,-0.2704
-0.08178,0.99236,0.09232,0.20897,-0.90296,-0.21074
-0.08859,0.99252,0.08388,0.23052,-0.96446,-0.32226
-0.08425,0.99455,0.06141,0.2578,-0.67365,-1.08961
-0.07391,0.99724,0.00666,-0.52685,-0.80569,-0.93255
-0.07998,0.99482,-0.06273,-0.55767,-0.39673,0.18869
-0.09787,0.98623,-0.13329,-0.21754,0.56934,0.80716
-0.10511,0.96872,-0.22477,0.50593,2.48552,0.65449
-0.10174,0.94184,-0.32028,-0.11752,2.06858,0.34894
-0.08716,0.92207,-0.37708,-1.08132,1.61933,0.47127
-0.02223,0.90489,-0.42507,-0.77775,1.62272,0.36553
0.04312,0.88532,-0.46297,-0.21496,1.497,0.19627
0.0686,0.86223,-0.50185,0.51464,0.57135,0.66103
0.05876,0.83438,-0.54805,0.30866,0.42299,0.70807
0.01369,0.80619,-0.59149,-0.04458,-0.17177,1.13061
-0.02721,0.79006,-0.61242,-0.59674,-1.407,1.21662
-0.04789,0.79465,-0.60518,-0.45591,-1.55516,1.18103
-0.05396,0.81743,-0.57349,-0.18057,-1.53552,1.04156
-0.05174,0.85304,-0.51927,0.26383,-1.79686,1.13247
-0.03613,0.89789,-0.43873,0.36923,-1.44254,1.0334
0.00688,0.92472,-0.38059,0.63788,0.44584,-1.65703
0.05787,0.91397,-0.40163,0.59873,1.19297,-1.87478
0.06334,0.90526,-0.4201,0.51579,-0.00394,-0.37611
0.06291,0.89697,-0.43759,-0.27277,-0.6161,3.16406
0.08408,0.88189,-0.46388,-1.96055,1.49573,-0.66389
0.05982,0.87787,-0.47513,-0.6017,-0.16627,1.33074
0.04131,0.88919,-0.45566,-0.72358,0.19633,1.60748
0.0106,0.91446,-0.40452,-0.64009,0.57548,1.38835
-0.0586,0.93294,-0.35522,-0.11868,1.73862,1.44722
-0.1295,0.94406,-0.30326,0.4174,2.24507,0.83112
-0.14903,0.9663,-0.20985,1.08291,1.25107,-0.40435
-0.12648,0.98086,-0.14803,0.59105,1.0863,-0.31524
-0.10204,0.99117,-0.08459,-0.4202,0.45725,-0.62609
-0.07679,0.99678,-0.02303,-0.77409,-0.16998,-0.67304
-0.0596,0.9981,0.01502,-0.70163,-0.55536,-0.58397
-0.05803,0.99764,0.03658,-0.20093,-0.7565,-0.47517
-0.06319,0.99655,0.05376,0.16178,-0.78895,-0.31891
-0.07036,0.99586,0.05743,0.16896,-0.96287,-0.24723
-0.0732,0.99611,0.04899,0.37127,-1.1131,-0.2982
-0.06218,0.99775,0.02504,-0.10928,-0.65058,-1.1789
-0.05689,0.99797,-0.02855,-0.5872,-0.91729,-0.76427
-0.0682,0.99279,-0.09851,-0.56298,-0.51827,0.01137
-0.09262,0.98124,-0.16905,-0.31682,0.40223,0.6782
-0.11027,0.96085,-0.25417,0.34929,2.53036,0.85873
-0.11755,0.92858,-0.35202,0.07014,2.62242,0.52861
-0.10188,0.90794,-0.40652,-1.00402,0.87574,0.53274
-0.04321,0.89425,-0.44546,-0.8628,1.39111,0.29498
0.00766,0.87638,-0.48156,0.20701,1.27706,0.10927
0.02791,0.85614,-0.51598,0.61656,0.84155,0.60471
0.01467,0.83308,-0.55296,0.38112,0.39825,0.83555
-0.01652,0.81156,-0.58403,-0.05519,-0.18772,1.14868
-0.04208,0.79988,-0.59868,-0.49207,-1.02455,1.22367
-0.04542,0.80569,-0.59059,-0.46732,-1.50965,1.12593
-0.03496,0.82792,-0.55975,-0.2313,-1.51032,0.89705
-0.02855,0.86278,-0.50476,0.07701,-1.44866,1.12648
-0.0287,0.90656,-0.42109,0.08182,-1.08943,0.87479
0.002,0.92904,-0.36997,0.79798,0.82913,-1.99061
0.05297,0.91426,-0.40164,0.80275,0.08954,-1.48648
0.07275,0.91453,-0.39791,0.64011,-0.64395,0.70631
0.09537,0.9103,-0.4028,-0.23313,1.3975,1.5172
0.11213,0.89159,-0.43874,-1.34273,0.67445,0.92273
0.0866,0.86669,-0.49126,-0.70978,-1.15098,1.19394
0.07054,0.86952,-0.48883,-0.79506,-0.56068,1.87123
0.04574,0.89831,-0.43696,-1.18122,1.56963,1.24993
-0.03233,0.91974,-0.39119,-0.71413,2.24124,1.19807
-0.11431,0.93661,-0.33118,1.57395,1.96445,-0.63156
-0.12657,0.95337,-0.27397,0.73518,0.80972,0.27287
-0.10517,0.97067,-0.21617,-0.04136,0.64191,0.0319
-0.08444,0.98644,-0.14068,-0.37173,0.34095,-0.41381
-0.06417,0.99525,-0.07311,-0.87874,0.0102,-0.69883
-0.04995,0.99802,-0.03798,-0.74472,-0.38145,-0.65941
-0.0491,0.99862,-0.01804,-0.23236,-0.7695,-0.49392
-0.05561,0.99845,-0.00062,0.15296,-0.86896,-0.52817
-0.0629,0.99798,0.00784,0.23195,-0.80244,-0.56188
-0.0698,0.99754,0.00464,0.30201,-0.96204,-0.16585
-0.07001,0.99754,-0.00253,0.40926,-1.04357,-0.03783
-0.06077,0.99796,-0.01911,-0.05829,-0.65856,-0.51624
-0.05599,0.9969,-0.05527,-0.61251,-0.75634,-0.46384
-0.06303,0.99239,-0.10577,-0.43312,0.0405,0.3415
-0.06474,0.9834,-0.16951,0.48545,2.02866,1.08556
-0.04003,0.96288,-0.26694,-0.01869,2.07408,1.22962
-0.02052,0.94571,-0.32436,-0.97105,0.62099,0.65244
-0.00627,0.93303,-0.35973,-1.24443,1.39564,0.14146
0.00554,0.91509,-0.40319,-0.53875,1.25185,0.23675
0.03898,0.8909,-0.45252,0.21322,1.09492,0.49482
0.08498,0.87833,-0.47043,0.60366,1.20835,0.63384
0.12905,0.86628,-0.4826,0.25228,0.72384,0.55746
0.14641,0.85219,-0.50232,-0.46437,0.05265,0.62769
0.15129,0.84548,-0.51212,-0.39368,-0.53559,0.80788
0.14866,0.84723,-0.51,-0.42541,-1.00502,0.901
0.14811,0.8588,-0.49044,-0.51752,-1.13478,0.77463
0.15074,0.87814,-0.45403,-0.48139,-1.21752,0.74313
0.14693,0.90123,-0.40767,-0.29432,-1.36378,0.68897
0.13996,0.92375,-0.35651,-0.28646,-1.28337,0.50942
0.14827,0.93733,-0.31532,0.01803,-0.70182,-0.39217
0.18023,0.93164,-0.31553,0.71888,0.36623,-0.68338
0.2432,0.91177,-0.33093,0.75174,0.30965,-1.4028
0.2677,0.90392,-0.33356,0.47307,-0.46686,-0.42073
0.2741,0.88955,-0.36546,-0.19884,-1.07379,2.64129
0.25888,0.88478,-0.38747,-1.18169,6.60019,-1.79595
0.24929,0.86932,-0.42676,-0.84356,1.08058,1.68155
0.2441,0.8308,-0.50018,-1.19975,-1.45859,1.73276
0.2867,0.81475,-0.50397,-0.86402,-0.87644,1.08783
0.29817,0.84451,-0.44485,-0.99851,0.40534,0.71794
0.23094,0.88512,-0.40401,-1.18863,2.7553,0.83023
0.18205,0.90215,-0.39111,1.16968,1.01055,0.32564
0.17211,0.91247,-0.37118,0.51156,0.59042,0.43811
0.18137,0.92232,-0.34121,-0.12764,0.25924,0.18458
0.18827,0.93409,-0.30336,-0.42484,0.07562,0.10528
0.18074,0.94383,-0.27661,-0.5087,0.01563,-0.00585
0.1656,0.9512,-0.26036,-0.45297,-0.15672,-0.10109
0.16401,0.95695,-0.23946,-0.20919,-0.42143,-0.00294
0.17197,0.9614,-0.21477,-0.10805,-0.65229,-0.07359
0.17961,0.96366,-0.19772,-0.10871,-0.75143,-0.1171
0.18709,0.96402,-0.18884,-0.06788,-0.81141,-0.17069
0.19915,0.96181,-0.18776,-0.17069,-0.9067,-0.19589
0.21279,0.95705,-0.19689,-0.42048,-0.94898,-0.12835
0.21809,0.95191,-0.21515,-0.50302,-0.83537,-0.03169
0.21651,0.94723,-0.23638,-0.40576,-0.56246,0.43358
0.21378,0.94151,-0.26049,-0.13161,0.17263,0.55121
0.21425,0.92895,-0.3019,0.43524,3.04366,0.44259
0.22812,0.91386,-0.33587,-0.98451,0.99411,0.71267
0.26646,0.90864,-0.32152,-1.75546,-0.23786,0.20543
0.29948,0.89814,-0.32193,-1.7601,1.09595,0.34855
0.29295,0.89302,-0.3416,-0.65817,1.15868,0.51523
0.29378,0.89201,-0.34352,-0.22561,1.05405,0.28986
0.30747,0.8933,-0.32784,-0.47132,0.87163,0.15705
0.31624,0.89583,-0.3122,-0.57256,0.66285,0.31021
0.316,0.90112,-0.29685,-0.55506,0.35655,0.39069
0.3155,0.91013,-0.26854,-0.53132,-0.00554,0.39118
0.31365,0.92136,-0.22958,-0.6099,-0.30187,0.40222
0.30568,0.93341,-0.18787,-0.57242,-0.49501,0.47396
0.2918,0.94518,-0.14656,-0.44219,-0.62847,0.51302
0.27456,0.95558,-0.10712,-0.29849,-0.71389,0.43615
0.25669,0.96394,-0.07014,-0.1014,-0.74858,0.32669
0.24536,0.96892,-0.03117,0.1672,-0.73896,0.19368
0.24382,0.96976,0.01067,0.41914,-0.69281,-0.05233
0.24947,0.9672,0.04769,0.52653,-0.64091,-0.38023
0.26252,0.96175,0.07814,0.42979,-0.61591,-0.43457
0.27919,0.95334,0.11481,0.23511,-0.6811,-0.22166
0.29022,0.94336,0.16072,-0.04365,-0.63021,-0.09756
0.28479,0.93676,0.20338,-0.49566,0.57592,-0.72395
0.25513,0.94805,0.18998,-2.69373,4.17291,-2.0943
0.23346,0.95704,0.1719,-0.85549,-0.69183,0.34636
0.20072,0.96281,0.18083,0.30597,-0.58262,0.88577
0.15163,0.9706,0.1869,0.44631,0.56903,1.0195
0.13311,0.96805,0.21246,0.66793,1.87537,-0.28654
0.1411,0.94229,0.30358,0.58885,0.91368,-0.27034
0.15197,0.90946,0.38702,0.34703,0.62285,-0.84176
0.17358,0.88884,0.42406,-0.40867,0.74968,-0.73162
0.1913,0.874,0.44668,-0.8498,0.71406,-0.52378
0.208,0.84699,0.48922,-1.1107,0.47801,-0.99354
0.21222,0.81891,0.53322,-0.91843,0.262,-1.17824
0.19143,0.80997,0.55434,-0.01132,-0.12132,-0.97237
0.15934,0.81169,0.56192,0.26936,-0.33704,-0.82816
0.13602,0.81458,0.56387,0.2514,-0.45626,-0.86897
0.13279,0.81535,0.56352,-0.11617,-0.44224,-1.04663
0.14636,0.81476,0.56101,-0.18401,-0.43245,-1.1558
0.16845,0.81865,0.54902,-0.19592,-0.43483,-1.28542
0.1822,0.83064,0.52615,-0.28869,-0.34823,-1.25698
0.18036,0.85007,0.49481,-0.5962,-0.30641,-0.74872
0.15845,0.87124,0.46456,-0.90128,0.72963,0.00674
0.14178,0.9026,0.40645,-0.557,1.59562,-0.04729
0.1225,0.93397,0.33569,-0.68845,2.27224,0.41565
0.08908,0.95088,0.29643,-0.41167,1.44046,-0.03282
0.06591,0.96389,0.25799,-0.02468,1.19297,-0.59514
0.05532,0.97778,0.20215,0.68102,1.61275,-0.61821
0.06076,0.9871,0.14806,0.7466,1.45931,-0.25427
0.08526,0.99314,0.07995,0.21531,0.5657,0.09833
0.10197,0.99476,0.00696,-0.04766,-0.19393,0.09498
0.10574,0.99315,-0.04952,-0.31455,-0.93775,0.08225
0.10125,0.99161,-0.08033,-0.37654,-1.4014,0.2551
0.09398,0.99156,-0.08926,-0.34416,-1.49888,0.46486
0.08353,0.9931,-0.08223,-0.21288,-1.64088,0.69166
0.07554,0.99544,-0.05816,-0.14399,-1.62445,0.57634
0.07488,0.99706,-0.01616,-0.15006,-1.53114,0.24627
0.08161,0.99594,0.03784,0.04618,-1.35358,-0.23245
0.09442,0.99137,0.09091,0.50615,-0.47476,-0.98756
0.11052,0.98677,0.11858,0.64157,0.07846,-1.33918
0.12725,0.98348,0.1287,0.4831,-0.54893,-0.54074
0.13461,0.98273,0.12694,-0.62276,-0.68832,1.19732
0.14321,0.9829,0.11571,-1.88703,3.71905,-1.05461
0.11889,0.98691,0.10887,-0.21261,-0.081,0.42573
0.09132,0.98776,0.12642,-0.60864,-0.41446,0.68422
0.03336,0.98302,0.1804,-0.59759,0.26864,0.34227
-0.05062,0.96687,0.25016,-0.49511,1.127,0.08545
-0.09554,0.94857,0.30178,0.65003,2.40334,0.6656
-0.07926,0.91899,0.3862,1.6374,1.73402,-1.14646
-0.0398,0.87708,0.47868,1.14919,1.2407,-0.76584
0.00019,0.84196,0.53952,-0.30063,0.76765,-1.37765
0.03483,0.81868,0.57319,-0.96183,0.43328,-1.544
0.05769,0.80348,0.59252,-1.64178,-0.28349,-1.59427
0.05798,0.79424,0.60481,-0.39242,-0.82636,-1.24474
0.00765,0.79022,0.61276,0.16624,-0.7506,-1.19959
-0.04814,0.79069,0.61031,0.69264,-0.77758,-0.54314
-0.08904,0.79911,0.59454,0.32742,-0.88213,-0.43934
-0.08574,0.8171,0.57006,0.25334,-0.88748,-0.59037
-0.0346,0.83365,0.55119,0.1472,-0.63306,-0.64975
0.02427,0.84814,0.5292,-0.6415,0.88022,-1.56567
0.02316,0.87218,0.48861,-0.90302,1.01444,-0.44741
0.01589,0.91014,0.41399,-1.08115,1.58364,0.42864
0.00734,0.94436,0.3288,-1.00242,2.59835,-0.21077
-0.02872,0.9652,0.25989,-0.39322,2.05634,-0.51138
-0.06131,0.97832,0.19777,0.17569,2.17187,-0.50925
-0.05458,0.99063,0.12512,1.13515,2.02047,-0.33163
-0.03734,0.99854,0.03884,0.39234,1.01155,-0.13069
-0.02851,0.99762,-0.06268,0.20522,0.31447,0.62957
-0.03529,0.98891,-0.14422,-0.50649,-0.90407,0.87539
-0.05661,0.97865,-0.19754,-0.49573,-1.77336,1.07001
-0.07883,0.97406,-0.2121,-0.09119,-2.09866,1.15535
-0.09784,0.97606,-0.19421,0.23239,-1.81308,0.94175
-0.11065,0.98196,-0.15329,0.19202,-1.72821,0.58861
-0.11385,0.98861,-0.09836,0.30819,-1.83903,0.21566
-0.10453,0.99387,-0.03576,0.55362,-1.2364,-0.43249
-0.08643,0.99624,0.00485,0.49923,-0.03047,-1.73043
-0.07534,0.99697,0.01908,0.34678,0.15789,-1.13311
-0.07271,0.99721,0.01653,0.19289,-0.52776,-0.15119
-0.07721,0.99672,-0.02424,-2.24359,1.37598,-0.02699
-0.08587,0.99611,-0.0193,0.58748,0.51838,1.5182
