gravity.x,gravity.y,gravity.z,userAcceleration.x,userAcceleration.y,userAcceleration.z
0.02592,0.82581,0.56335,0.2936,-2.19458,-0.50644
0.03077,0.85379,0.5197,-0.00243,-1.86853,-0.78776
0.02021,0.88895,0.45756,-0.13267,-1.48218,-0.96856
-0.00368,0.91668,0.3996,-0.0666,-0.51133,-0.26459
-0.03074,0.92624,0.37568,-0.11817,0.07002,0.20159
-0.04891,0.9161,0.39796,-0.07668,0.23582,0.57973
-0.08409,0.90657,0.41359,0.33532,-0.18849,-0.12544
-0.1298,0.91662,0.37809,1.64674,0.55327,-1.42129
-0.09208,0.92315,0.37324,2.13693,2.2685,0.74131
-0.08247,0.9381,0.33641,-0.0201,-0.48291,-0.79538
-0.07931,0.95719,0.27836,-0.11169,-0.69052,-1.50645
-0.06454,0.9761,0.20751,0.32255,-0.5745,-1.9111
0.00467,0.99175,0.12812,0.52464,1.73462,-1.70857
0.12428,0.99132,0.04279,0.45424,4.47783,-1.13672
0.14539,0.9855,-0.0875,-1.47234,1.11829,3.24229
0.14214,0.97923,-0.1446,0.09048,1.33056,1.56419
0.14485,0.97051,-0.19267,0.92238,0.43839,1.73798
0.16244,0.96417,-0.20973,0.09841,0.11267,0.63476
0.18117,0.95982,-0.21429,-0.76815,-0.5346,-0.00465
0.19961,0.95303,-0.22778,-0.84744,-1.47017,0.22805
0.21325,0.94824,-0.23529,-1.21444,-1.02194,0.89179
0.20898,0.94958,-0.23372,-1.06817,-0.42211,0.75145
0.18778,0.95817,-0.21595,-0.53945,-0.78097,0.4421
0.15765,0.96837,-0.19341,-0.38125,-0.80161,0.35939
0.12917,0.97969,-0.15336,0.20767,-0.7014,0.0844
0.11756,0.98872,-0.09279,0.32267,0.04351,0.00511
0.10363,0.99426,-0.02651,0.29133,0.29711,0.2444
0.0893,0.99456,0.05365,-0.02673,0.79832,0.41846
0.08286,0.98679,0.13922,0.39996,2.4158,0.75519
0.06352,0.97458,0.21484,0.86806,2.2939,0.65485
0.0267,0.96341,0.26668,0.22885,1.75004,-1.522
-0.00459,0.94334,0.3318,-0.77094,2.20179,-0.49595
-0.03275,0.91003,0.41323,-0.68208,1.6861,-0.44133
-0.03092,0.86965,0.4927,0.07455,0.53088,-0.69639
0.00333,0.83154,0.55545,0.58961,-0.20847,-0.9209
0.05305,0.80732,0.58771,0.93531,-0.96074,-0.62269
0.09425,0.80126,0.59084,0.72536,-1.38825,-0.46011
0.111,0.81123,0.57409,0.0636,-1.6727,-0.73546
0.10772,0.83268,0.54318,-0.21808,-1.38688,-0.81333
0.08111,0.86059,0.5028,-0.34458,-1.30225,-0.9633
0.03728,0.88795,0.45843,0.04103,-0.88984,-0.149
0.00474,0.9058,0.42367,0.02935,-0.75721,0.15774
-0.01463,0.91195,0.41004,0.02387,-0.58451,0.35363
-0.05099,0.91464,0.40103,-0.15938,-0.77054,-0.65089
-0.1071,0.93201,0.34624,0.39183,-0.9578,-1.41491
-0.09818,0.93438,0.34248,1.07845,-0.70341,-1.69705
-0.03002,0.93838,0.34429,-0.25002,1.28546,-1.39266
-0.03806,0.96585,0.25627,-0.60113,-0.59,-0.9219
-0.05807,0.98478,0.16378,-0.65772,-1.13226,-0.93981
-0.04043,0.99621,0.07704,0.17565,-0.8749,-1.86604
0.06946,0.99694,0.03579,0.38345,2.55895,-2.06635
0.13075,0.98746,-0.08842,-0.91662,1.39331,2.50401
0.118,0.98009,-0.15965,-0.76101,1.11755,2.55448
0.13213,0.96741,-0.21601,0.77538,1.15329,2.07834
0.15628,0.95721,-0.24354,0.18356,0.37222,0.66343
0.18365,0.95119,-0.24801,-0.57287,0.1136,0.07186
0.21377,0.94277,-0.25589,-1.04855,-1.40926,0.0726
0.22984,0.93584,-0.26718,-1.39961,-0.77974,1.14508
0.22582,0.93515,-0.27293,-1.392,-0.35225,0.69691
0.19898,0.94336,-0.26547,-0.66754,-0.75057,0.45848
0.15811,0.9558,-0.24786,-0.30078,-0.74885,0.51302
0.1127,0.97092,-0.21123,0.46826,-0.75062,0.60423
0.09645,0.9832,-0.15498,0.78948,-0.46184,0.68115
0.08676,0.99319,-0.0777,0.23497,0.26465,0.04938
0.07868,0.99683,0.01186,-0.41129,1.42755,-0.48747
0.08199,0.99031,0.11203,-0.17525,3.53747,0.44963
0.06611,0.97671,0.20409,0.78951,2.40225,1.39757
0.00088,0.96034,0.27884,0.76984,1.68812,-0.53036
-0.04705,0.93637,0.34784,0.3063,2.01861,-1.09315
-0.07989,0.90231,0.42361,-0.06264,1.67828,-0.9911
-0.09517,0.86321,0.49579,0.013,0.27448,-0.64406
-0.08591,0.82922,0.55227,0.47525,-0.59649,-0.79167
-0.05573,0.80721,0.58762,1.01882,-1.19196,-1.02622
-0.01421,0.80083,0.59872,0.43529,-2.42966,-0.46859
0.01252,0.81151,0.5842,0.2815,-2.53902,-0.47438
0.00883,0.84126,0.54055,0.0427,-2.34622,-0.67214
-0.01062,0.88198,0.47117,0.32332,-1.16478,-1.04167
-0.0349,0.91541,0.40101,0.3523,-0.83826,-0.82863
-0.06011,0.93614,0.34645,0.07792,-0.51825,0.02199
-0.08229,0.93874,0.33465,-0.06313,0.44241,1.07689
-0.10614,0.92875,0.35517,-0.20037,0.49773,1.04301
-0.15343,0.93149,0.32981,-0.13592,0.19088,0.50179
-0.15271,0.94071,0.30289,2.05958,3.73821,-0.16875
-0.13123,0.93906,0.31771,0.79095,1.2817,-0.75881
-0.12732,0.95443,0.2699,-0.00395,-0.54126,-0.48018
-0.1287,0.97654,0.17263,0.32002,-1.19908,-2.19899
-0.07756,0.9956,0.05254,0.69141,-0.47323,-1.75653
0.03885,0.9992,-0.00937,0.75953,1.18813,-1.85829
0.08933,0.98981,-0.11091,-1.44219,1.54367,3.67167
0.07651,0.97972,-0.18518,-1.12345,1.35481,3.14131
0.09015,0.96639,-0.24076,-0.09556,1.53967,2.4433
0.11632,0.95927,-0.25744,0.36473,-0.02492,0.22357
0.1415,0.95621,-0.25621,-0.19765,-0.40332,-0.19451
0.16655,0.9507,-0.26158,-0.78232,-1.25086,0.00634
0.18268,0.94603,-0.26768,-1.43033,-1.17076,0.89186
0.17918,0.94597,-0.27025,-1.40211,-0.22321,0.96811
0.15213,0.95411,-0.25794,-0.51109,-0.83556,0.30827
0.11175,0.96665,-0.23045,-0.19555,-0.71552,0.61787
0.0727,0.98047,-0.18272,0.17537,-0.68297,0.62183
0.06016,0.99082,-0.12102,0.56922,-0.39256,0.34921
0.05504,0.99775,-0.03834,0.01855,0.37422,0.06463
0.05374,0.99722,0.05159,-0.22476,0.76621,-0.13477
0.0531,0.98737,0.14924,0.35878,3.31368,0.98388
0.02689,0.97327,0.22809,0.97441,2.22476,0.96875
-0.03005,0.9579,0.28553,1.0002,1.87961,-0.09817
-0.07093,0.93199,0.35548,-0.02349,1.87572,-1.08626
-0.09986,0.89819,0.4281,-0.20173,1.62471,-0.50904
-0.10947,0.86081,0.497,-0.02055,0.10011,-0.55423
-0.09371,0.83038,0.54926,0.67231,-0.56591,-0.72719
-0.06428,0.81452,0.57656,0.94683,-1.269,-0.74998
-0.03064,0.81705,0.57574,0.57484,-2.14092,-0.61201
-0.0092,0.83549,0.54942,0.30227,-2.41208,-0.42538
-0.01318,0.86829,0.49588,-0.0775,-2.20428,-0.97588
-0.02594,0.90906,0.41584,0.14074,-1.70603,-1.0623
-0.04424,0.94389,0.32727,0.24024,-0.80053,-0.81226
-0.05857,0.96424,0.25846,0.05505,-0.22405,0.06625
-0.07302,0.96264,0.26073,-0.02059,0.87914,0.24891
-0.08563,0.94695,0.30975,-0.15372,0.915,1.26108
-0.12575,0.94259,0.30937,-0.19799,-0.28739,0.00633
-0.19004,0.95513,0.22716,0.15285,-1.03819,-1.0995
-0.18491,0.95523,0.23095,3.11814,2.10657,0.74224
-0.14293,0.96637,0.21377,0.7665,1.45731,-0.93005
-0.12157,0.98479,0.12408,-0.53117,-0.59179,-0.42177
-0.11858,0.99241,0.03243,-0.03221,-1.19095,-1.66963
-0.05793,0.99695,-0.0523,0.03441,1.67955,-2.26004
0.02661,0.99487,-0.09762,-0.39533,3.84965,-2.09187
0.02835,0.97788,-0.20723,-1.52658,1.6484,4.27739
0.02165,0.96425,-0.26411,1.05454,0.97911,1.58627
0.03814,0.95123,-0.30611,1.35096,0.47052,1.63912
0.07681,0.94609,-0.31465,1.33079,0.15097,1.15374
0.11171,0.94085,-0.31987,-0.57079,-1.28196,0.04357
0.1358,0.93459,-0.32877,-1.04394,-1.37136,0.26159
0.14571,0.93087,-0.33503,-1.52861,-1.14715,0.81381
0.12696,0.93781,-0.3231,-0.71509,-0.85166,0.61936
0.08153,0.95227,-0.29418,-0.47004,-0.94244,0.49008
0.03467,0.96704,-0.25225,-0.34973,-0.86842,0.55578
0.01603,0.98106,-0.19304,0.66745,-0.60633,0.83996
0.01833,0.99276,-0.11872,0.63199,-0.51128,0.64741
0.02739,0.99943,-0.01959,0.44932,-0.389,0.22027
0.04006,0.99542,0.08681,-0.18543,3.96358,-0.62718
0.03675,0.98335,0.17795,0.13761,3.03069,1.18414
-0.0007,0.96829,0.24981,0.99742,1.92224,0.15122
-0.06554,0.95008,0.30504,0.52414,1.65658,-0.37954
-0.1108,0.92673,0.35901,0.0867,1.55952,-0.70032
-0.13521,0.89794,0.41883,-0.05274,0.96482,-0.82067
-0.1415,0.86701,0.47778,0.05329,-0.56957,-0.68312
-0.12616,0.84375,0.52169,0.49833,-0.89127,-0.7414
-0.10177,0.8326,0.54443,0.82279,-1.70042,-0.51292
-0.06764,0.83857,0.54056,0.32175,-2.1889,-0.39996
-0.03644,0.86028,0.50852,0.03116,-2.0797,-0.58762
-0.01734,0.89467,0.44639,0.16032,-1.86714,-0.97534
-0.01674,0.92538,0.37867,0.06772,-1.30133,-0.84722
-0.03888,0.94264,0.33154,-0.00673,-0.44432,-0.05648
-0.07265,0.93785,0.33935,-0.01651,-0.03764,0.46016
-0.11416,0.9229,0.36773,0.20959,-0.31325,0.40702
-0.15132,0.92834,0.33953,0.92544,0.2137,-0.53845
-0.13264,0.9296,0.34387,0.86744,4.71679,-0.68756
-0.13497,0.93802,0.31922,0.1395,-0.62735,-0.74721
-0.14483,0.9509,0.2735,-0.00354,-1.2616,-1.49199
-0.14446,0.97147,0.18809,0.31562,-1.347,-1.80049
-0.07707,0.99412,0.07605,0.83403,0.59655,-1.20745
0.06271,0.99795,-0.01278,0.9846,5.39077,-1.8541
0.07817,0.98891,-0.12622,-1.82138,2.14353,3.30954
0.0683,0.97959,-0.18905,-0.40959,1.32751,2.08249
0.0783,0.96636,-0.24498,0.90677,0.43837,1.65192
0.10505,0.95969,-0.26068,0.76719,-0.14948,0.4267
0.13348,0.9543,-0.26736,-0.19777,-0.83605,0.02697
0.16138,0.94688,-0.27816,-0.76983,-1.29667,0.29425
0.18081,0.94156,-0.28419,-1.43163,-0.77759,1.36052
0.18227,0.94156,-0.28326,-0.8978,-0.65697,0.38316
0.16058,0.95026,-0.26685,-0.6089,-0.83076,0.21808
0.12326,0.96351,-0.23761,-0.40023,-0.9385,0.22981
0.09309,0.97686,-0.19256,0.32854,-0.94666,0.54428
0.08783,0.98686,-0.13558,0.49437,-0.85692,0.5916
0.08617,0.99441,-0.06098,0.37676,-0.75009,0.47215
0.0852,0.99588,0.03087,-0.49302,0.82097,-0.11153
0.08664,0.98874,0.12196,-0.49446,0.8281,-0.20262
0.0632,0.97693,0.20396,-0.20432,3.89865,1.26616
-0.01085,0.96507,0.26174,1.19269,1.86999,-0.24419
-0.08776,0.95029,0.29873,0.88928,1.91871,-0.90238
-0.13468,0.91959,0.36906,0.39657,2.19006,-1.02121
-0.15887,0.87942,0.44875,-0.30346,0.36776,-0.86906
-0.13489,0.83861,0.52776,-0.28512,-0.15173,-0.90978
-0.08885,0.81039,0.57911,0.17332,-0.43594,-0.81733
-0.04228,0.80155,0.59643,0.9404,-1.32929,-0.54414
-0.01169,0.81477,0.57966,0.81836,-1.67109,-0.46006
0.00145,0.84293,0.53801,0.59404,-1.95144,-0.42616
0.0049,0.87747,0.47959,-0.01472,-1.74642,-0.76855
0.00242,0.91227,0.40956,0.03108,-1.52139,-0.7883
-0.01344,0.93895,0.34377,0.09629,-0.98299,-0.63965
-0.03476,0.94979,0.31095,0.01596,-0.37305,-0.22639
-0.05125,0.94284,0.32927,0.04267,0.37924,0.02692
-0.0724,0.93064,0.3587,-0.02828,0.15483,0.97301
-0.11698,0.93493,0.33498,0.85655,0.6406,-0.86771
-0.10894,0.94004,0.32318,1.75801,2.35714,-0.7801
-0.12124,0.94624,0.29986,0.22126,-0.61871,-0.58946
-0.13716,0.96385,0.22842,0.12145,-1.33889,-1.5843
-0.1208,0.98459,0.12641,0.30454,-1.416,-2.09318
-0.03498,0.9986,0.03952,0.75507,1.44528,-1.80982
0.08821,0.99609,-0.00322,0.12761,4.47314,-1.13487
0.11174,0.98789,-0.10763,-1.76375,1.61056,3.20326
0.10836,0.97834,-0.17637,-0.30134,1.37467,1.20565
0.11772,0.96502,-0.23424,0.77825,0.53536,1.61931
0.14298,0.95675,-0.25334,0.50645,0.15623,0.97067
0.17458,0.95112,-0.25475,-0.61966,-0.35503,0.1711
0.2021,0.94407,-0.26056,-0.87402,-1.20838,0.15315
0.21656,0.93879,-0.26791,-0.97035,-1.50414,0.72519
0.2174,0.93699,-0.27348,-1.23487,-0.25353,0.725
0.19313,0.94537,-0.26262,-0.85662,-0.74557,0.57741
0.15001,0.96093,-0.23261,-0.46635,-0.833,0.63699
0.1118,0.97509,-0.19158,0.18843,-0.92603,0.3825
0.09814,0.98595,-0.13514,0.35634,-0.65244,-0.28585
0.09446,0.99383,-0.05814,-0.06852,0.38282,-0.13198
0.09391,0.99527,0.02469,-0.28915,1.6104,0.35547
0.08321,0.9905,0.10941,0.06275,2.24573,1.24505
0.05614,0.97949,0.19351,0.97564,2.40903,0.72615
0.01686,0.96552,0.25978,1.10388,2.10333,0.19541
-0.01049,0.94795,0.31824,-0.81857,2.21625,-0.17264
-0.04906,0.91674,0.39646,-0.78,2.24746,-0.25086
-0.06292,0.87925,0.47218,-0.22885,0.53185,-0.95733
-0.0297,0.84073,0.54063,0.91183,-0.43126,-1.06651
0.02114,0.81242,0.58268,0.95805,-0.86766,-0.93672
0.06588,0.8051,0.58946,0.85071,-1.2316,-0.62345
0.08797,0.81714,0.56968,0.36191,-2.11176,-0.60905
0.09576,0.84133,0.53197,0.0505,-1.81672,-0.64658
0.09152,0.87401,0.47721,-0.32913,-1.52879,-1.01981
0.07526,0.90662,0.41517,-0.06063,-1.18091,-0.78743
0.04638,0.92842,0.36861,-0.03269,-0.58726,-0.19502
0.01664,0.93086,0.36498,-0.07858,0.1118,0.29264
-0.01245,0.91416,0.40514,-0.06079,0.62447,1.44738
-0.06066,0.89624,0.43939,0.27108,2.64816,1.26565
-0.07702,0.90174,0.42535,1.11567,1.27256,-2.39038
-0.07699,0.90924,0.40908,1.22877,-1.49213,0.0306
-0.0819,0.93648,0.34102,0.22399,-1.66225,-1.30057
-0.07464,0.96715,0.24297,0.17138,-1.29052,-2.52166
0.01466,0.98993,0.14078,0.57721,0.42769,-1.65211
0.15239,0.98525,0.07775,1.03883,4.68221,-2.36242
0.18222,0.98259,-0.03608,-1.6384,1.35063,3.32957
0.17507,0.97846,-0.10941,-1.06381,1.63539,1.80952
0.16413,0.96966,-0.18116,-0.10456,0.85543,1.01507
0.17757,0.96217,-0.20662,0.68346,-0.11151,1.32183
0.2052,0.95432,-0.21718,0.0719,-0.129,1.05869
0.23461,0.9457,-0.22496,-0.86095,-0.67441,0.13942
0.25275,0.9384,-0.23562,-0.92049,-1.24317,0.58793
0.25887,0.93563,-0.23994,-1.31934,-0.30571,0.74085
0.24078,0.94282,-0.23048,-1.02454,-0.61269,0.6128
0.19915,0.95869,-0.20308,-0.51832,-0.84836,0.44852
0.15416,0.97386,-0.1668,-0.11984,-0.89281,0.39994
0.13361,0.98438,-0.11468,0.43334,-0.8989,0.11404
0.13093,0.99039,-0.04452,0.15118,-0.12314,-0.02225
0.13463,0.99037,0.03214,-0.3225,0.78104,0.20597
0.13783,0.98363,0.11609,-0.31428,2.03404,0.63218
0.12545,0.97208,0.1983,0.58737,3.2612,1.10857
0.07587,0.96309,0.25826,0.62349,2.06421,-0.17407
0.02699,0.9491,0.31382,-0.07936,1.71288,-1.64908
0.00321,0.92082,0.38997,-0.55256,1.57668,-0.31203
-0.01218,0.88968,0.45641,-0.19677,0.90063,-0.91939
0.00399,0.85526,0.51818,0.387,0.35159,-1.01012
0.03178,0.82901,0.55832,0.9733,-0.68161,-0.79846
0.0634,0.82202,0.56591,1.00003,-1.8723,-0.42112
0.08353,0.82948,0.55225,0.73264,-2.23388,-0.43393
0.08558,0.84967,0.52032,0.52865,-2.3183,-0.47549
0.07531,0.88117,0.46676,-0.12607,-1.47431,-1.16697
0.05511,0.91392,0.40212,0.0178,-1.20236,-0.92322
0.02996,0.9381,0.34506,0.05119,-0.68749,-0.3345
0.00957,0.94427,0.32903,-0.03113,-0.05024,0.34784
-0.00033,0.93078,0.36558,-0.08526,0.57672,1.16082
-0.04143,0.9109,0.41054,-0.07991,1.4345,1.78801
-0.05804,0.92433,0.37714,0.95212,2.00438,-2.74113
-0.0706,0.93514,0.34718,0.94522,-0.89888,-0.83006
-0.06273,0.95218,0.29902,0.60084,-1.4584,-0.12132
-0.04609,0.9738,0.22266,0.25088,-1.27535,-1.97978
0.02528,0.99196,0.12395,0.67337,0.22459,-1.91556
0.13693,0.98833,0.06677,1.07421,4.31018,-2.23812
0.18057,0.98082,-0.07341,-1.16299,2.9872,1.31721
0.16803,0.97471,-0.1473,-1.47995,1.7506,1.83135
0.16215,0.96474,-0.20734,0.00128,0.99111,1.6032
0.17682,0.95785,-0.22641,0.90483,0.17533,1.39134
0.2013,0.95318,-0.22565,0.01605,-0.18159,0.37743
0.22772,0.94596,-0.23088,-0.5232,-0.77796,0.08446
0.24293,0.93997,-0.23967,-1.07325,-1.08621,0.58762
0.24459,0.93863,-0.24322,-1.41152,-0.26265,0.78059
0.21962,0.94805,-0.23014,-0.95752,-0.71987,0.60098
0.17029,0.96439,-0.20236,-0.46831,-0.83527,0.4136
0.12505,0.97818,-0.16592,0.27093,-0.94505,0.44019
0.10853,0.98776,-0.11205,0.53358,-0.80488,0.59264
0.10484,0.9938,-0.03683,0.13712,-0.06436,0.15568
0.11317,0.9926,0.04405,-0.33093,1.00801,-0.07977
0.12738,0.98249,0.13595,-0.56938,3.69517,0.13052
0.10913,0.96862,0.22332,0.15566,2.83867,0.99473
0.04517,0.95749,0.2849,0.31738,1.75574,-0.55089
-0.0015,0.9387,0.34472,-0.00517,1.5834,-0.7512
-0.03059,0.91348,0.40573,-0.04168,1.54748,-0.91915
-0.04579,0.88744,0.45863,0.14945,0.65002,-1.11836
-0.03653,0.85997,0.50903,0.65666,-0.23207,-0.74861
-0.01914,0.84416,0.53575,1.33599,-1.26341,-0.77691
0.00148,0.84161,0.54008,0.94364,-2.04728,-0.66598
0.02156,0.85187,0.52331,0.33441,-2.33328,-0.2897
0.02863,0.8783,0.47725,-0.24341,-2.27046,-0.76053
0.02385,0.9148,0.40321,-0.01622,-1.7298,-0.94251
0.00503,0.94492,0.32725,0.38079,-0.90458,-0.72007
-0.01067,0.96081,0.27698,0.17271,-0.19383,0.00465
-0.03157,0.95732,0.28729,0.09364,0.56358,0.48483
-0.0543,0.94248,0.32981,-0.05843,0.71711,1.00762
-0.09051,0.93966,0.32992,0.46083,0.2506,-1.49064
-0.10702,0.95538,0.2753,1.04307,1.88169,-1.52132
-0.11699,0.95722,0.26463,1.09417,2.28315,-1.34808
-0.10925,0.96794,0.22617,0.2835,-0.96046,-1.12926
-0.09198,0.98213,0.16418,0.26623,-0.97465,-1.06727
-0.03887,0.99564,0.08476,0.74074,-0.10315,-1.82775
0.05377,0.99846,0.01383,0.31878,4.1214,-1.36616
0.08727,0.98884,-0.12074,0.28529,4.13102,-1.23159
0.0767,0.9778,-0.19498,-1.57228,1.44189,2.26337
0.08409,0.96445,-0.25054,0.70861,0.48242,1.39878
0.10926,0.95728,-0.26773,0.7541,0.17677,1.30435
0.13842,0.95447,-0.26425,0.44833,0.03828,0.72723
0.16344,0.95077,-0.26328,-0.60289,-0.90767,0.2257
0.18155,0.94756,-0.26302,-0.91429,-1.24939,0.49542
0.18508,0.94691,-0.26286,-1.16494,-0.48766,0.71461
0.16357,0.95277,-0.25587,-1.11964,-0.79503,0.45393
0.1204,0.96658,-0.22631,-0.55686,-0.88095,0.61855
0.07617,0.97881,-0.19008,-0.19133,-0.79622,0.66673
0.05153,0.98855,-0.1418,0.4101,-0.821,0.39078
0.04153,0.99643,-0.07348,0.38661,-0.53812,0.12194
0.04394,0.99898,0.01011,-0.04626,0.30806,0.11297
0.05457,0.9933,0.1019,-0.50574,2.22758,-0.09852
0.03925,0.98205,0.18448,-0.0985,3.9018,1.24806
-0.01191,0.9691,0.24639,0.75418,1.69333,-0.34293
-0.05962,0.95027,0.30565,0.48137,1.68434,-1.03272
-0.07941,0.91896,0.38626,-0.0077,1.6752,-0.77467
-0.08571,0.8858,0.45609,0.01744,0.98516,-0.84452
-0.07537,0.85414,0.51454,0.14753,0.55447,-0.75063
-0.05145,0.8327,0.55133,0.72155,-0.49561,-0.83559
-0.03168,0.82767,0.56031,1.17018,-1.82456,-0.60894
-0.0197,0.83737,0.54628,0.97281,-2.28821,-0.52101
-0.01935,0.86313,0.5046,0.14592,-2.34049,-0.59089
-0.02083,0.90111,0.43309,-0.05868,-1.90997,-0.97203
-0.02228,0.93283,0.35962,0.10752,-1.16722,-0.83418
-0.03086,0.95331,0.30042,0.08272,-0.55005,-0.45383
-0.04804,0.9599,0.27618,-0.04744,0.05256,0.20172
-0.05895,0.95289,0.29754,0.1313,0.61158,0.40685
-0.06825,0.94147,0.3301,0.16987,0.67163,1.13328
-0.08978,0.94241,0.32219,0.57305,1.57087,-0.98193
-0.09147,0.95316,0.28828,0.97292,1.20592,-1.71054
-0.10494,0.95887,0.26372,0.49309,-0.83996,-0.18746
-0.1055,0.9757,0.19206,0.27301,-1.20304,-1.55642
-0.07992,0.9909,0.1083,0.48436,-0.81133,-1.87324
0.00522,0.99901,0.04416,0.72432,1.64952,-1.8217
0.11455,0.99239,-0.04514,0.2583,4.77955,-0.91861
0.10845,0.98452,-0.1377,-1.97939,1.26016,3.18536
0.10218,0.97333,-0.20541,-1.39844,1.39382,1.43391
0.10727,0.96064,-0.25624,0.45906,0.49743,1.34334
0.12795,0.95373,-0.27205,0.00999,-0.15276,0.75016
0.15607,0.94975,-0.27131,-0.40993,-0.32998,0.40262
0.17577,0.94429,-0.27826,-0.74155,-0.52519,0.15114
0.18428,0.94099,-0.28387,-0.94583,-0.83124,0.79378
0.17792,0.94203,-0.28447,-1.06289,-0.40736,0.88995
0.14545,0.95278,-0.26655,-0.99377,-0.59496,0.78462
0.09541,0.96841,-0.23039,-0.27643,-0.81847,0.6718
0.05614,0.9815,-0.18305,0.10063,-0.8223,0.63459
0.04267,0.99148,-0.12309,0.45958,-0.82987,0.50411
0.04981,0.99785,-0.04264,-0.05657,0.68796,-0.01293
0.07182,0.99627,0.0477,-0.37097,1.56664,-0.23708
0.0716,0.98747,0.14059,-0.344,2.98073,-0.01907
0.03359,0.97687,0.21118,0.48931,1.92728,-0.05689
-0.01903,0.96266,0.27004,0.48573,1.82517,-0.65247
-0.04699,0.93692,0.34637,0.2533,1.75127,-0.85644
-0.05895,0.90875,0.41315,-0.02455,1.00104,-0.7767
-0.05785,0.8803,0.47088,0.07833,0.56381,-0.55282
-0.04624,0.85722,0.51287,0.8789,-0.62577,-0.63379
-0.03328,0.84532,0.53321,0.88275,-1.13397,-0.7143
-0.01638,0.84589,0.5331,0.67591,-1.44675,-0.69446
-0.00342,0.85781,0.51395,0.26294,-2.18061,-0.53117
-0.00339,0.87905,0.4767,0.29446,-2.19009,-0.82523
-0.01289,0.90912,0.41632,0.27901,-2.10712,-1.07045
-0.02892,0.93607,0.35062,0.31126,-0.79604,-0.8286
-0.04732,0.94693,0.31792,-0.07972,-0.06824,0.35899
-0.06503,0.93864,0.33871,-0.10054,0.3205,0.5577
-0.07842,0.9249,0.37201,-0.10723,0.38316,0.96049
-0.10679,0.93068,0.3499,0.41378,-0.78314,-1.18019
-0.12538,0.94453,0.30355,0.77473,-0.85606,-1.76436
-0.11623,0.95192,0.28342,0.40132,2.25787,-1.74874
-0.11594,0.96782,0.22334,-0.15611,-0.68931,-0.28883
-0.11398,0.98302,0.1438,-0.20683,-0.78075,-0.95763
-0.0878,0.99556,0.03376,0.55919,-0.32392,-1.59403
0.01355,0.99915,-0.03896,0.40057,3.23517,-2.1376
0.07944,0.98794,-0.13287,-0.78839,2.89083,0.68606
0.06746,0.97755,-0.19961,-0.90122,1.258,2.18443
0.07644,0.96559,-0.24856,0.60429,0.93817,1.67504
0.09967,0.95486,-0.27984,0.90289,0.09135,1.55152
0.13007,0.95283,-0.2742,-0.03536,-0.25722,0.20292
0.15911,0.95029,-0.26765,-0.56124,-1.05319,0.22129
0.18493,0.94564,-0.26752,-1.07419,-1.31789,0.43879
0.19814,0.94258,-0.26885,-1.47733,-0.43445,0.62193
0.18199,0.94789,-0.26151,-1.05061,-0.57713,0.59295
0.1372,0.96385,-0.22837,-0.83332,-0.73493,0.67323
0.09149,0.97674,-0.19395,-0.18489,-0.90459,0.51028
0.07343,0.98604,-0.14945,0.46277,-1.01812,0.38022
0.07293,0.99365,-0.0857,0.46877,-0.84782,0.33342
0.07872,0.99689,-0.00397,-0.17227,0.11933,-0.09347
0.09087,0.99252,0.08153,-0.60292,3.90981,0.32353
0.0769,0.98429,0.15892,-0.58895,3.91804,0.24614
0.02406,0.97294,0.2298,0.53758,1.97193,0.53697
-0.02785,0.95823,0.28463,0.35276,1.63033,-0.77312
-0.0615,0.9382,0.34058,0.14576,1.77971,-0.77213
-0.08977,0.91496,0.39342,0.06365,1.77178,-0.90494
-0.09903,0.88619,0.4526,0.20258,0.12197,-0.604
-0.08806,0.86311,0.49726,0.53962,-0.25372,-0.76997
-0.06911,0.85145,0.51985,1.10294,-0.90855,-0.77032
-0.04971,0.85431,0.51738,1.01803,-1.8854,-0.33946
-0.04228,0.8708,0.4898,0.58752,-2.41113,-0.17571
-0.04313,0.90127,0.4311,0.17997,-2.28567,-0.67207
-0.04971,0.93431,0.35297,0.12469,-1.90097,-0.91021
-0.05954,0.95626,0.28638,0.27512,-0.93348,-0.75088
-0.07161,0.96347,0.25806,0.02454,-0.26153,-0.09199
-0.082,0.95159,0.29623,-0.05987,0.56991,0.56493
-0.09942,0.9385,0.33065,-0.11485,0.64657,1.30063
-0.12052,0.94341,0.30894,0.80263,1.44381,-1.76154
-0.10622,0.95007,0.29339,1.11489,1.08779,-1.72284
-0.1032,0.95434,0.28031,0.6736,-0.32364,-1.05448
-0.09608,0.96951,0.22541,0.02008,-1.13566,-1.63196
-0.07549,0.98653,0.1451,0.12157,-1.05907,-1.68557
0.00625,0.9969,0.07839,0.31812,3.06494,-2.14513
0.10866,0.99406,-0.00524,0.14654,3.46427,-0.56929
0.10381,0.9869,-0.12352,-1.23611,1.54895,2.70985
0.09625,0.97752,-0.18759,0.11859,1.17092,1.02893
0.10253,0.9664,-0.23572,0.85742,0.33243,1.23607
0.12429,0.96063,-0.24848,0.31534,-0.17204,0.89697
0.15165,0.9556,-0.25262,-0.71388,-0.46726,0.19197
0.17483,0.94915,-0.26179,-0.80337,-1.00875,0.23379
0.18963,0.94453,-0.26813,-0.98306,-0.8571,0.93515
0.19042,0.94484,-0.26649,-1.22826,-0.4346,0.54201
0.16441,0.95314,-0.25393,-0.70042,-0.80338,0.23449
0.11786,0.96574,-0.23121,-0.38818,-0.8444,0.41816
0.07912,0.97722,-0.19691,0.14233,-0.81298,0.6085
0.06498,0.98694,-0.14742,0.42875,-0.83833,0.57493
0.06055,0.9956,-0.07152,0.08003,-0.25564,0.01744
0.06155,0.99801,0.01365,-0.3886,0.78019,-0.19991
0.06508,0.99305,0.09807,-0.23852,3.08725,0.18035
0.0454,0.9836,0.17452,0.45588,2.59783,0.92385
-0.00613,0.97206,0.23463,0.86165,2.03117,0.44631
-0.04766,0.9565,0.28779,0.33464,1.49764,-0.93252
-0.07849,0.9356,0.34421,-0.34641,1.45624,-0.62929
-0.10999,0.91133,0.3967,-0.35461,0.87018,-0.68686
-0.11509,0.88758,0.44605,-0.19465,0.45321,-0.5613
-0.10239,0.87104,0.48042,1.0054,-1.08761,-0.59201
-0.08232,0.86724,0.49103,1.06439,-1.61439,-0.38157
-0.06626,0.87727,0.4754,1.09406,-2.0382,-0.11723
-0.05267,0.89923,0.43428,0.11325,-2.04143,-0.70509
-0.04663,0.92601,0.37459,-0.00973,-1.8276,-0.7323
-0.05577,0.94834,0.3123,-0.15524,-1.44044,-0.73019
-0.07488,0.96127,0.26524,0.05166,-0.67994,-0.22434
-0.09363,0.96114,0.25971,0.0649,-0.07356,0.17643
-0.11113,0.951,0.28852,0.07213,0.20752,0.57964
-0.13805,0.94707,0.28983,0.10413,-0.08156,0.29321
-0.137,0.9586,0.24963,0.98578,0.35541,-0.96342
-0.098,0.96162,0.25626,1.03839,3.48921,-0.59281
-0.10302,0.97219,0.21029,-0.07206,-0.25425,-0.91119
-0.11019,0.98218,0.1522,-0.03756,-1.13819,-1.03338
-0.08825,0.99247,0.08487,0.33379,-1.20419,-1.63086
0.00606,0.99936,0.03513,0.48021,1.52917,-1.74225
0.08822,0.99339,-0.07339,0.41825,3.94358,-0.92581
0.07306,0.98301,-0.16837,-1.25451,1.13697,2.42175
0.07955,0.97074,-0.22656,0.5881,0.97653,1.50018
0.09496,0.95935,-0.26575,0.6723,0.32699,1.21189
0.12614,0.95395,-0.27213,-0.1997,-0.11799,0.37734
0.15506,0.94818,-0.27732,-0.75503,-0.68773,0.08193
0.17264,0.94126,-0.29021,-0.90866,-1.38114,0.63405
0.18252,0.93944,-0.29007,-1.13447,-0.42291,0.90284
0.17227,0.9434,-0.2834,-0.84483,-0.68304,0.44423
0.13338,0.95704,-0.25745,-0.53171,-0.76896,0.45741
0.08754,0.97139,-0.22075,-0.08787,-0.79399,0.63542
0.06161,0.98326,-0.17147,0.38225,-0.78964,0.53416
0.05153,0.99331,-0.10332,0.1926,-0.30366,-0.02267
0.04841,0.99861,-0.02052,-0.26755,0.40068,0.00796
0.05013,0.99651,0.06672,-0.38937,2.31604,0.00757
0.04526,0.98777,0.14918,0.10728,2.86442,1.17673
0.01438,0.97585,0.21794,0.74247,1.84625,0.42966
-0.03339,0.96223,0.27017,0.35544,1.55729,-0.58621
-0.06034,0.93991,0.33604,-0.10598,1.97869,-0.85547
-0.09588,0.91428,0.39356,-0.13169,1.29391,-0.6297
-0.1079,0.88739,0.4482,0.21026,0.14957,-0.76818
-0.08803,0.86448,0.49489,0.76765,-0.41744,-0.79425
-0.06256,0.85369,0.517,0.90166,-0.87742,-0.71969
-0.03657,0.85685,0.51426,0.65339,-2.12531,-0.33131
-0.01744,0.87317,0.4871,0.44065,-2.22619,-0.28654
-0.01272,0.90107,0.43347,0.20642,-2.2366,-0.33254
-0.01459,0.93267,0.36043,0.11858,-1.32335,-0.9074
-0.02724,0.95665,0.28996,0.13123,-1.34733,-0.83693
-0.04392,0.9678,0.24783,0.05872,-0.34798,-0.07661
-0.06174,0.96058,0.27106,-0.1407,0.81175,1.3748
-0.08341,0.94332,0.3212,-0.09611,1.1211,2.20532
-0.11155,0.94308,0.31329,-0.0051,2.25291,2.44513
-0.12434,0.95026,0.28556,0.85811,-0.96297,-1.02825
-0.14693,0.95574,0.25489,0.81687,-1.62564,0.12183
-0.15796,0.9713,0.17782,0.71377,-1.75375,0.13914
-0.13287,0.98707,0.08959,0.93454,-0.53584,-1.57014
-0.02395,0.99946,0.02244,1.06418,0.91032,-1.44164
0.10578,0.99367,-0.03765,1.05607,4.93385,-1.91448
0.10912,0.98061,-0.16275,-1.26963,1.8085,1.83716
0.109,0.96902,-0.22163,-1.35803,1.64655,1.89808
0.1165,0.95476,-0.2736,-0.09203,0.96818,1.28379
0.13613,0.94809,-0.28739,0.33108,0.09341,1.09197
0.15749,0.94537,-0.28543,-0.35481,-0.21716,0.36083
0.17637,0.93982,-0.29263,-0.74723,-0.97336,0.68836
0.19148,0.93619,-0.29476,-0.92547,-0.9158,0.65462
0.19245,0.93699,-0.29157,-1.11911,-0.60607,0.54021
0.16552,0.9486,-0.26973,-0.81551,-0.71725,0.84652
0.11689,0.96516,-0.23408,-0.37322,-0.75569,0.61088
0.07813,0.97816,-0.19258,0.00436,-0.75046,0.54608
0.06014,0.98955,-0.13103,0.34048,-0.39339,0.195
0.05719,0.99717,-0.04874,0.03497,0.44692,0.25051
0.0638,0.99708,0.04195,-0.27997,1.91921,-0.13365
0.06608,0.98854,0.13568,0.18893,3.47021,1.11372
0.03086,0.97771,0.20767,0.43313,2.04819,0.27659
-0.02196,0.96429,0.26391,-0.05322,1.54607,-0.61596
-0.05787,0.93956,0.33746,-0.00537,1.46611,-0.49871
-0.08271,0.91175,0.40232,0.00235,1.15638,-1.06846
-0.08043,0.8818,0.4647,0.26157,0.36665,-0.74557
-0.06569,0.85768,0.50997,0.86116,-0.61967,-0.73488
-0.04683,0.84875,0.52672,1.12751,-1.4651,-0.64748
-0.02397,0.85478,0.51843,0.72186,-2.09761,-0.43251
-0.00848,0.87245,0.48863,0.25921,-2.29224,-0.33751
-0.00654,0.90205,0.43158,-0.06562,-2.12118,-0.91298
-0.01732,0.93475,0.35487,0.14615,-1.47674,-0.99888
-0.03552,0.95721,0.2872,0.17152,-0.62713,-0.4382
-0.05426,0.96362,0.26168,-0.06135,0.03564,0.39895
-0.07035,0.95254,0.29615,-0.01411,0.73011,1.05794
-0.10129,0.94216,0.31949,0.2928,0.84324,0.90538
-0.10336,0.95171,0.28907,1.32132,2.58578,-1.43364
-0.10677,0.95721,0.26897,1.15218,2.42739,-0.75556
-0.11017,0.96911,0.22066,0.19702,-1.37298,-0.39613
-0.10111,0.98477,0.1414,0.11399,-1.24857,-1.75426
-0.04934,0.99788,0.04234,0.61599,-0.38172,-1.80897
0.06268,0.99792,-0.01499,0.63475,3.00942,-1.93499
0.1179,0.98448,-0.12995,-1.58832,1.73755,3.23829
0.10416,0.97144,-0.21321,-1.6032,1.36119,3.06885
0.10294,0.95707,-0.27095,-0.83388,1.54438,1.31
0.11968,0.94677,-0.29884,0.64841,-0.01435,1.10576
0.14894,0.94189,-0.3011,0.21269,-0.28991,0.59135
0.17694,0.93627,-0.30345,-0.23669,-0.48292,0.2814
0.19355,0.93053,-0.31088,-0.99179,-1.25861,0.57588
0.19845,0.92871,-0.31321,-1.31219,-0.41961,0.94028
0.17848,0.93733,-0.29924,-1.36827,-0.29662,0.98299
0.13737,0.95051,-0.27867,-0.43314,-0.82688,0.36515
0.08946,0.96521,-0.24567,-0.27426,-0.68963,0.60122
0.06109,0.98052,-0.18669,0.10414,-0.65079,0.77967
0.04988,0.99292,-0.10774,-0.02676,0.24418,0.04702
0.04653,0.99872,-0.0198,-0.22204,0.6082,-0.08925
0.04597,0.9962,0.07398,0.06445,3.25054,0.65345
0.03256,0.98769,0.15297,0.72285,2.45146,0.79177
-0.01893,0.97872,0.20433,0.74774,1.65155,-0.64859
-0.07341,0.96216,0.26238,0.2054,1.63606,-0.97711
-0.10454,0.934,0.34162,0.01371,1.44245,-0.57555
-0.12505,0.9031,0.4108,-0.00236,1.0589,-0.85648
-0.11706,0.87392,0.47176,0.31077,-0.5435,-0.55745
-0.09798,0.85673,0.50636,0.96239,-1.12011,-0.51428
-0.07155,0.8558,0.51233,0.85682,-1.85961,-0.48808
-0.04829,0.8699,0.49085,0.43487,-2.28889,-0.40038
-0.03573,0.89598,0.44264,0.1417,-2.23165,-0.72698
-0.03213,0.92446,0.37991,0.08364,-1.61185,-0.79616
-0.04987,0.94393,0.32636,0.13663,-0.69788,-0.47602
-0.07373,0.95035,0.30233,0.2095,-0.27354,0.03509
-0.0855,0.94629,0.31178,0.17476,0.15719,0.42584
-0.10031,0.93007,0.3534,0.10095,0.76809,2.12068
-0.12235,0.92663,0.35551,0.38825,3.77861,-2.40617
-0.1357,0.93438,0.3294,0.45164,-0.10048,-1.83774
-0.15496,0.94262,0.29571,0.83591,-1.67472,0.38182
-0.16233,0.9661,0.20074,0.29171,-1.66416,-2.13262
-0.13529,0.98819,0.07194,0.70744,-1.02522,-1.72913
-0.01745,0.99952,-0.02554,1.14491,1.54649,-1.83599
0.11389,0.99132,-0.06564,0.46576,5.99652,-2.07408
0.11537,0.9786,-0.17039,-1.92187,1.63609,4.05247
0.1079,0.96715,-0.23014,-0.58208,1.50384,1.36401
0.11293,0.95256,-0.2826,0.44139,0.37069,1.47564
0.13697,0.94276,-0.30403,0.82135,-0.09288,1.65854
0.17064,0.938,-0.30173,-0.34891,-0.47407,0.38382
0.19951,0.92976,-0.3094,-0.77169,-1.14284,0.04119
0.21531,0.92377,-0.31669,-0.95909,-1.45999,0.14216
0.21511,0.92494,-0.31339,-1.34345,-0.21605,1.00353
0.18841,0.93894,-0.2879,-0.87822,-0.66239,0.6543
0.14262,0.95471,-0.26113,-0.47872,-0.75898,0.31565
0.10378,0.97026,-0.21866,0.14129,-0.79936,0.56627
0.08897,0.98443,-0.15155,0.43378,-0.62749,0.42134
0.09103,0.99341,-0.06957,0.16313,0.30293,0.23726
0.09532,0.9953,0.01722,-0.21711,1.31745,0.04615
0.09487,0.98922,0.11154,-0.02457,3.0754,0.57048
0.06366,0.98106,0.18292,0.62027,2.70517,0.70165
0.00634,0.97265,0.23219,0.50643,1.64996,-0.59533
-0.03509,0.95251,0.30247,-0.01497,1.5414,-0.74807
-0.06373,0.92624,0.37149,-0.00283,1.3824,-0.74459
-0.07785,0.8984,0.43221,-0.02891,1.10244,-0.92142
-0.06631,0.87397,0.48143,0.59007,-0.64222,-0.6909
-0.04429,0.86145,0.5059,0.86683,-1.07682,-0.52182
-0.01683,0.86172,0.5071,0.62621,-2.19474,-0.56304
0.00472,0.87383,0.4862,0.30726,-2.4824,-0.45969
0.01134,0.89931,0.43715,0.00269,-2.08153,-0.84665
0.00179,0.92851,0.37129,0.12214,-1.10559,-0.76283
-0.02538,0.94764,0.31832,0.20099,-0.46746,-0.15878
-0.05324,0.95088,0.30494,0.20704,0.07338,0.38196
-0.07218,0.93922,0.33562,0.26742,0.73419,1.60997
-0.1002,0.91452,0.39193,0.10461,3.98093,0.91576
-0.12079,0.9208,0.37084,0.434,0.18615,-2.82553
-0.14351,0.92915,0.3407,1.15774,-1.57864,0.05813
-0.15754,0.9535,0.25691,0.39971,-1.79901,-1.86821
-0.14579,0.98002,0.13524,0.51431,-1.1445,-2.01403
-0.06466,0.9979,-0.00101,0.98331,0.70894,-1.49093
0.07283,0.99643,-0.04264,0.87053,5.11778,-2.45032
0.12239,0.98523,-0.11972,-1.36412,2.68449,2.06586
0.11573,0.97507,-0.18931,-1.11376,1.63818,1.74643
0.11054,0.96213,-0.24915,-0.06944,0.73149,1.22344
0.12624,0.95022,-0.28486,0.77905,-0.22248,1.41925
0.15273,0.94404,-0.29233,0.10563,-0.44532,0.58259
0.1858,0.93633,-0.29794,-0.62264,-0.89519,0.05326
0.20667,0.92775,-0.31076,-1.01459,-1.20275,0.37846
0.216,0.92254,-0.31977,-1.40915,-0.27385,1.05024
0.20298,0.92879,-0.31008,-0.78422,-0.72641,0.57693
0.16516,0.94403,-0.28553,-0.53974,-0.807,0.36613
0.1182,0.95973,-0.25485,-0.38947,-0.82745,0.43876
0.09302,0.97477,-0.2029,0.43936,-0.57046,0.67158
0.08532,0.98826,-0.12674,0.26479,-0.21317,0.28823
0.08587,0.99569,-0.03505,-0.27012,0.8199,-0.00713
0.08539,0.99444,0.06159,-0.57352,2.94173,-0.07494
0.06713,0.98725,0.14432,0.28492,3.1762,0.93781
0.01621,0.9789,0.20369,0.97232,1.77594,0.07891
-0.03782,0.96425,0.26226,0.58738,1.44287,-0.76839
-0.06674,0.93914,0.33699,0.1465,1.69233,-0.76104
-0.0935,0.91093,0.40181,0.04968,1.16376,-0.89223
-0.09626,0.88245,0.46044,0.14145,0.02948,-0.60837
-0.08015,0.86311,0.49861,0.7419,-0.65878,-0.7665
-0.05684,0.85588,0.51403,0.99308,-1.66879,-0.66881
-0.03165,0.86162,0.50656,0.60681,-2.29906,-0.49193
-0.01259,0.88379,0.4677,0.58775,-2.32123,-0.45306
0.00086,0.9186,0.39517,0.01517,-2.25587,-0.85667
-0.00692,0.94665,0.32218,0.12726,-1.21967,-0.7725
-0.02938,0.95969,0.2795,0.2192,-0.74077,-0.54482
-0.05515,0.95605,0.28794,0.1625,0.46788,0.45037
-0.07529,0.94312,0.32381,0.1973,0.51047,0.73959
-0.10177,0.93889,0.32882,0.33308,-0.16049,-0.32128
-0.10316,0.95201,0.28814,1.70095,2.85203,-0.12879
-0.09397,0.95723,0.27364,-0.06683,0.54891,-1.59063
-0.09761,0.9672,0.2345,-0.09044,-1.25852,-0.36347
-0.09327,0.98268,0.16011,0.14556,-1.19223,-1.40262
-0.06803,0.99511,0.07153,0.55509,-0.31233,-1.79938
0.03183,0.99923,0.0228,0.54814,3.33388,-2.11803
0.1063,0.99068,-0.08509,-0.45522,2.87887,0.68411
0.089,0.98184,-0.16754,-1.2589,1.25092,2.50892
0.0976,0.96906,-0.22669,-0.41531,1.34171,1.71165
0.11328,0.95802,-0.26336,0.86408,0.12349,1.31524
0.14703,0.95321,-0.26413,-0.08809,-0.36016,0.15237
0.1807,0.94648,-0.26743,-0.49862,-0.65203,0.05001
0.20718,0.93871,-0.27549,-0.90989,-1.25642,0.77938
0.22405,0.93436,-0.27707,-1.1798,-0.58159,0.78784
0.21798,0.93707,-0.27274,-1.18363,-0.4838,0.54038
0.18812,0.94647,-0.26229,-0.57571,-0.86192,0.36593
0.14483,0.95904,-0.24342,-0.25163,-0.70903,0.51606
0.11516,0.97157,-0.20685,0.34631,-0.73961,0.67522
0.10376,0.98313,-0.15062,0.29785,-0.61741,0.59786
0.09526,0.99299,-0.06992,-0.18356,0.09731,-0.15238
0.08503,0.99617,0.0203,-0.62745,1.87531,-0.35546
0.07196,0.99249,0.09887,-0.46516,3.32629,0.8182
0.03496,0.98458,0.17139,0.45582,2.00537,0.40472
-0.01403,0.97301,0.23031,0.79056,1.61512,0.05646
-0.05133,0.95607,0.28859,0.29979,1.53165,-0.8901
-0.0855,0.93364,0.34786,-0.24331,1.87363,-0.50066
-0.11898,0.9068,0.40442,-0.25138,1.42887,-0.74066
-0.12304,0.87922,0.46024,0.12113,-0.21305,-0.74753
-0.09635,0.85948,0.502,1.02127,-0.9493,-0.87948
-0.06203,0.85666,0.51212,1.29315,-1.34459,-0.61166
-0.03371,0.87002,0.49186,0.66854,-2.36482,-0.4367
-0.02067,0.89503,0.44552,0.11844,-2.03836,-0.65984
-0.02958,0.92375,0.38183,0.07345,-1.66008,-0.75612
-0.0569,0.94718,0.3156,0.27132,-1.044,-0.69642
-0.07938,0.95962,0.26984,0.32833,-0.62272,-0.29757
-0.09169,0.95774,0.27263,0.28082,-0.26059,-0.02127
-0.10642,0.94819,0.29934,0.02852,0.42269,0.77753
-0.12685,0.95308,0.27485,0.27227,0.03496,-0.25585
-0.10872,0.96122,0.25344,1.08458,2.99223,0.34822
-0.11494,0.96595,0.23178,0.30225,0.52228,-1.75334
-0.11679,0.9776,0.17509,0.16661,-1.15796,-1.089
-0.10919,0.98932,0.0965,0.39288,-1.20589,-1.23212
-0.05093,0.99855,0.01752,0.57075,-1.01443,-1.33028
0.06033,0.99747,-0.03763,0.3904,4.1505,-1.62163
0.08489,0.98203,-0.16852,-0.38781,2.7831,-0.24263
0.0817,0.96933,-0.23179,-1.61094,1.28389,4.23297
0.09675,0.95524,-0.27955,0.65864,0.55808,1.11024
0.12837,0.94813,-0.29079,0.67307,0.11495,1.01825
0.16236,0.94387,-0.28764,0.31699,-0.12205,0.74792
0.19851,0.93859,-0.28221,-0.75792,-0.91043,0.26533
0.22134,0.93342,-0.28236,-0.87582,-1.20172,0.46174
0.23123,0.93121,-0.28175,-1.06163,-1.25529,0.6058
0.21148,0.93751,-0.27631,-1.1069,-0.72204,0.63839
0.17162,0.94961,-0.26227,-0.5074,-0.83456,0.42956
0.1301,0.96288,-0.23651,-0.09079,-0.56557,0.54234
0.10302,0.97657,-0.18895,0.15856,-0.50693,0.17095
0.0866,0.98912,-0.1189,-0.1885,0.27341,0.1749
0.0742,0.99616,-0.04637,-0.41435,1.28893,0.15216
0.06535,0.99707,0.03977,-0.08414,2.82949,0.6932
0.05295,0.99182,0.11607,0.33911,3.31155,0.83513
0.00589,0.98578,0.1679,0.66524,1.4857,-0.1884
-0.03643,0.97357,0.22545,0.1106,1.7506,-1.4411
-0.06815,0.94917,0.30727,-0.04892,1.73512,-1.02208
-0.0964,0.92188,0.37527,-0.10453,0.70318,-0.56647
-0.09815,0.89432,0.43652,0.36776,-0.07208,-0.73302
-0.07566,0.8742,0.47963,1.04296,-0.86248,-0.70972
-0.04962,0.86809,0.49391,1.11798,-2.07071,-0.47417
-0.03258,0.87758,0.47831,0.61008,-2.60742,-0.41525
-0.02497,0.90053,0.43407,0.07607,-2.22038,-0.74396
-0.02639,0.92697,0.37418,0.01817,-1.69539,-0.89938
-0.04255,0.9479,0.31569,0.24028,-0.97447,-0.52333
-0.05786,0.95582,0.28819,0.15776,-0.309,0.2141
-0.06577,0.95486,0.28965,0.15493,0.07629,0.46554
-0.07761,0.94932,0.30457,0.04068,0.13364,0.70773
-0.10181,0.94906,0.29816,0.20134,-0.01495,0.26884
-0.09832,0.95492,0.2801,1.65099,2.82629,-0.72977
-0.10698,0.95962,0.26013,0.13873,1.05385,-1.49293
-0.12008,0.97215,0.20124,0.09023,-0.40262,-0.22378
-0.12691,0.98605,0.10765,0.26551,-1.5142,-1.71213
-0.08158,0.9966,0.01087,0.95397,1.0884,-1.81569
0.03996,0.99878,-0.02892,0.71021,3.10188,-2.19767
0.08957,0.98321,-0.15895,0.65265,4.84217,-1.79864
0.07202,0.96852,-0.23827,-0.75665,1.43059,1.9878
0.08509,0.95216,-0.29351,0.1988,1.26348,1.54815
0.11766,0.94072,-0.31811,0.53218,0.68455,1.469
0.15041,0.93662,-0.3164,-0.3621,-0.53142,0.10658
0.17698,0.93024,-0.32145,-0.6007,-0.83746,0.2469
0.19881,0.92469,-0.32469,-0.74569,-1.11315,0.54012
0.20446,0.9249,-0.32054,-1.31719,-0.62151,0.76574
0.18172,0.93472,-0.3054,-1.03789,-0.78338,0.6513
0.13751,0.94819,-0.28641,-0.67223,-0.92264,0.40288
0.09286,0.96466,-0.24659,0.25197,-0.81146,0.70086
0.07125,0.98046,-0.18337,0.35059,-0.69779,0.63503
0.06227,0.99291,-0.10121,0.21723,-0.39976,0.20865
0.05794,0.99825,-0.01168,-0.55081,2.22683,-0.0399
0.05014,0.99501,0.08622,-0.33676,3.1106,0.54933
0.02611,0.98733,0.15652,0.70085,3.04049,1.12869
-0.04226,0.9785,0.20186,1.2494,1.88405,-0.19343
-0.09773,0.95718,0.27248,0.3313,1.82738,-1.50234
-0.13485,0.92337,0.35943,-0.1536,0.95799,-0.87972
-0.14049,0.88534,0.4432,-0.17597,-0.01744,-0.61447
-0.1116,0.85593,0.50489,0.16632,-0.38677,-0.6574
-0.07364,0.84252,0.5336,1.15676,-1.33332,-0.64145
-0.04252,0.84761,0.5289,0.95678,-2.38426,-0.36838
-0.03098,0.86986,0.49231,0.63256,-2.59899,-0.39668
-0.03329,0.90387,0.42649,-0.00782,-2.07053,-1.06921
-0.04597,0.93266,0.3578,0.04451,-1.21905,-0.89301
-0.0697,0.94782,0.31108,0.11237,-0.80251,-0.56474
-0.08897,0.94913,0.30203,0.00667,0.03176,0.31526
-0.09506,0.9446,0.31414,0.09975,0.25331,0.50159
-0.10255,0.93439,0.34117,0.07759,0.37174,0.89697
-0.12055,0.92754,0.35372,0.37464,3.9909,-2.49998
-0.13151,0.93033,0.34232,0.92069,0.20665,-1.77253
-0.16007,0.93724,0.30977,1.03304,-1.99087,0.64607
-0.17691,0.96594,0.18881,0.53579,-2.06982,-2.49329
-0.12757,0.99079,0.04542,0.65838,-1.74838,-2.32629
0.01877,0.99947,-0.02638,1.17234,2.23457,-2.4735
0.13949,0.98899,-0.04943,0.24267,5.23929,-1.98457
0.14268,0.97469,-0.1721,-1.98979,1.59797,5.0937
0.13995,0.96259,-0.23199,-0.72159,1.74811,1.71223
0.156,0.94801,-0.27736,0.4388,0.38945,1.66965
0.1842,0.94127,-0.28298,0.30646,-0.18302,0.85539
0.21114,0.93505,-0.28478,-0.28324,-0.30134,0.39498
0.22798,0.92727,-0.29697,-0.89333,-1.02851,0.06223
0.23722,0.92263,-0.30412,-1.03317,-0.99721,0.96263
0.22777,0.92796,-0.29496,-1.41115,-0.41069,1.05637
0.19629,0.9413,-0.27463,-0.79665,-0.8058,0.49695
0.14972,0.95637,-0.25088,-0.45833,-0.69953,0.37957
0.11528,0.973,-0.19991,0.23759,-0.80906,0.36466
0.0981,0.98731,-0.12487,0.13458,-0.03284,-0.00796
0.08454,0.99529,-0.04737,-0.34451,1.03659,0.15352
0.07376,0.99634,0.04303,-0.27481,1.68315,0.33824
0.06699,0.98954,0.12772,0.00864,2.61665,0.66553
0.01305,0.98421,0.17649,0.60259,1.50316,-0.42095
-0.04513,0.97394,0.22224,0.3707,1.5309,-1.24824
-0.08637,0.94947,0.30171,0.058,1.74564,-1.94467
-0.1202,0.92096,0.37063,-0.23725,0.38904,-0.97711
-0.10948,0.89156,0.43945,-0.05109,-0.04096,-1.01501
-0.07599,0.86991,0.48731,0.29626,-0.3357,-0.92976
-0.04227,0.86333,0.50286,1.01314,-2.06998,-0.43973
-0.02027,0.87244,0.48828,0.86974,-2.56586,-0.31702
-0.01526,0.89888,0.43791,0.09456,-2.39075,-0.90583
-0.02646,0.93156,0.3626,-0.03608,-1.40933,-0.98784
-0.06031,0.95468,0.29143,0.17382,-0.66802,-0.42903
-0.09244,0.96079,0.26141,0.09799,0.01196,0.34341
-0.10787,0.95499,0.2763,0.21826,0.46432,0.54747
-0.11794,0.94484,0.30556,0.12162,0.36013,1.06514
-0.13983,0.93695,0.32025,0.55841,1.05469,-0.3094
-0.12951,0.9444,0.30221,1.55388,2.95531,-0.79542
-0.14592,0.9518,0.26977,0.37989,0.47638,-1.6746
-0.15429,0.96916,0.19214,0.17592,-1.27835,-1.17328
-0.13671,0.98704,0.08396,0.57996,-1.17651,-1.93575
-0.05615,0.99838,-0.00908,0.63232,-0.66738,-1.77684
0.06309,0.99741,-0.03453,0.6776,4.00081,-2.28975
0.09035,0.9828,-0.16106,-0.91922,2.24851,2.94373
0.08657,0.97075,-0.22394,-0.62008,1.71823,1.93401
0.09871,0.95507,-0.27945,0.30783,0.70657,1.69333
0.12888,0.946,-0.29742,0.35142,0.04139,0.60954
0.15566,0.94019,-0.30301,-0.49329,-0.52743,0.04787
0.18117,0.93154,-0.31528,-0.77514,-1.14813,0.50062
0.20348,0.925,-0.32088,-1.19676,-0.6718,1.10767
0.2087,0.92509,-0.31724,-1.45417,-0.41066,0.81451
0.18851,0.93434,-0.30245,-1.01358,-0.76878,0.40646
0.1448,0.94872,-0.28101,-0.54948,-0.73766,0.54888
0.10179,0.96441,-0.24404,-0.01834,-0.74903,0.53998
0.07658,0.97899,-0.18897,0.28403,-0.75052,0.37141
0.05979,0.99204,-0.11077,-0.00481,0.06348,-0.01423
0.04882,0.9985,-0.02463,-0.22126,0.503,0.16722
0.03796,0.99683,0.06979,-0.17137,3.20188,0.75631
0.0047,0.98966,0.14331,0.74258,2.92266,1.17389
-0.0601,0.97911,0.19419,1.09654,2.10452,0.55964
-0.10685,0.95856,0.26407,0.53085,1.75349,-1.94089
-0.13971,0.92641,0.34963,0.04625,1.59238,-0.66124
-0.1582,0.8891,0.42949,0.03622,0.77686,-0.96782
-0.14241,0.85596,0.49702,0.47116,-0.26618,-0.73728
-0.11467,0.84139,0.5281,1.37433,-1.40096,-0.59855
-0.08701,0.84535,0.52707,1.12396,-2.31799,-0.49279
-0.06668,0.86698,0.49386,0.42119,-2.64572,-0.45492
-0.05191,0.90419,0.42396,-0.15464,-2.58137,-1.02357
-0.05596,0.93666,0.34573,-0.15058,-2.61384,-0.94534
-0.07243,0.95782,0.27808,0.26858,-0.73045,-0.5398
-0.09014,0.96195,0.2579,0.19814,0.09165,0.25974
-0.09835,0.95128,0.2922,0.30287,1.02373,0.60559
-0.12219,0.92826,0.35127,0.50997,3.50889,3.20184
-0.15576,0.92463,0.34754,0.30711,0.08791,-3.07756
-0.2012,0.92163,0.33183,0.80181,-1.53523,-1.91995
-0.25631,0.94061,0.22261,1.04275,-2.59907,-0.99772
-0.26296,0.96282,0.06178,1.21389,-1.78695,-1.68263
-0.15042,0.98597,-0.07234,1.552,0.65798,-1.13397
0.01969,0.99764,-0.06567,1.62092,5.86632,-2.9039
0.06562,0.98993,-0.1254,-0.81182,2.88699,-0.29601
0.05457,0.97134,-0.23133,-2.18096,1.61696,5.43337
0.06597,0.95585,-0.28634,-0.36385,0.946,1.00992
0.08756,0.94465,-0.31616,0.34737,-0.10646,1.30377
0.12522,0.94053,-0.31578,0.09269,-0.2741,0.77867
0.15064,0.93439,-0.32282,-0.49601,-1.0781,0.04234
0.17223,0.92726,-0.33244,-0.89953,-0.9169,0.88748
0.18161,0.92615,-0.33055,-1.25094,-0.21899,0.98103
0.1688,0.93584,-0.30935,-0.92708,-0.80706,0.66058
0.13843,0.94842,-0.28519,-0.43009,-0.92976,0.36144
0.10284,0.96285,-0.24969,-0.26537,-0.82185,0.45537
0.08144,0.97659,-0.1991,0.03227,-0.77631,0.54572
0.06538,0.9899,-0.12575,-0.15599,-0.0866,-0.11824
0.05131,0.99779,-0.0421,-0.56277,0.87498,0.02049
0.03564,0.99843,0.04304,-0.45386,2.51419,0.58139
0.01558,0.99259,0.12047,0.46351,3.0281,0.7758
-0.02432,0.98404,0.17627,1.05868,1.60691,0.21802
-0.07148,0.97146,0.22614,0.58277,1.39322,-1.1022
-0.10165,0.94929,0.2975,-0.21447,1.36118,-0.47618
-0.1338,0.92006,0.36821,-0.25175,0.99585,-0.75049
-0.1347,0.89174,0.43203,-0.23073,0.45363,-0.68339
-0.10952,0.87053,0.47977,1.2579,-1.00274,-0.66103
-0.08243,0.86445,0.4959,1.2308,-0.99667,-0.67716
-0.06003,0.87509,0.48022,0.85887,-2.46458,-0.27079
-0.04271,0.89968,0.43444,0.03184,-2.1997,-0.68729
-0.03263,0.9285,0.36987,-0.08387,-1.921,-0.75639
-0.04782,0.95047,0.30709,0.0488,-1.04788,-0.67132
-0.07168,0.96036,0.26937,0.29363,-0.48737,-0.28313
-0.08682,0.95771,0.27429,0.34046,0.17511,0.10361
-0.09593,0.94807,0.30323,0.20326,0.47863,0.77056
-0.11567,0.94124,0.31729,0.48931,1.78854,-0.40757
-0.10988,0.94675,0.30262,0.99147,3.12736,-1.35503
-0.12598,0.94639,0.29744,0.86923,2.81463,-1.65048
-0.15064,0.96008,0.23568,0.29915,-1.77566,-1.17167
-0.15692,0.97981,0.12387,0.34846,-1.7694,-1.80086
-0.08771,0.99604,0.01429,0.54188,-1.47912,-1.64155
0.06099,0.99801,-0.01576,0.70514,4.83018,-2.44919
0.1192,0.98619,-0.11496,0.25289,4.05104,-0.88475
0.1068,0.9752,-0.19382,-1.0553,2.2329,1.91584
0.11335,0.96006,-0.2558,0.25307,0.93022,1.32552
0.13399,0.94935,-0.28421,0.56599,-0.02421,1.04317
0.16425,0.94411,-0.28579,-0.24197,-0.46413,0.3657
0.18993,0.93646,-0.29489,-0.61984,-1.11819,0.09072
0.21117,0.93042,-0.29955,-1.06255,-1.16535,1.12122
0.2211,0.93019,-0.29301,-1.47307,-0.41457,0.82717
0.20386,0.93866,-0.27814,-1.08215,-0.73678,0.38759
0.16161,0.95322,-0.25544,-0.54276,-0.79674,0.42454
0.11863,0.96796,-0.2213,-0.05658,-0.76041,0.4198
0.09277,0.98164,-0.16664,-0.04849,-0.20399,-0.51083
0.07291,0.99282,-0.09479,-0.30266,0.29804,-0.48604
0.04752,0.9987,-0.01831,-0.09017,1.27031,0.55552
0.03712,0.99695,0.06861,0.3749,2.55395,1.2258
0.0161,0.98934,0.14473,0.79102,2.47177,0.89055
-0.03893,0.98102,0.18992,0.72475,1.44682,-0.40798
-0.09195,0.9685,0.2314,0.17073,1.84345,-1.82428
-0.15375,0.94142,0.30012,-0.51502,1.66217,-0.17057
-0.19266,0.90908,0.36938,-0.25389,0.47121,-0.65412
-0.18298,0.87899,0.44033,0.07011,0.13825,-0.85401
-0.15504,0.85872,0.48843,0.96788,-0.76721,-0.94091
-0.1221,0.85609,0.50218,1.22715,-2.24187,-0.34466
-0.10249,0.87209,0.47849,0.68069,-2.56458,-0.37254
-0.09998,0.9004,0.42341,0.19985,-2.20396,-0.96523
-0.10662,0.9281,0.35673,0.04984,-1.44804,-1.16611
-0.12883,0.94844,0.28959,0.06352,-0.45948,-0.18444
-0.15576,0.95466,0.25368,-0.00873,-0.23014,0.38068
-0.17682,0.94792,0.26489,-0.05453,0.32031,0.75845
-0.21177,0.93542,0.28308,-0.22078,0.49445,1.1832
-0.24916,0.934,0.25603,0.07765,0.54254,1.00292
-0.24583,0.9315,0.26808,1.84805,4.26197,-0.60926
-0.2604,0.9296,0.26082,0.85311,-1.10434,0.24748
-0.27408,0.94588,0.17373,0.74094,-1.82125,-1.29473
-0.25167,0.96692,0.0414,0.8531,-1.53539,-1.9648
-0.12312,0.98959,-0.07453,1.2469,0.62144,-1.21649
0.00379,0.99129,-0.13161,1.44531,4.44125,-2.00291
-0.00657,0.9766,-0.21497,-1.29479,2.58195,0.29936
-0.00588,0.95968,-0.28101,-0.96478,1.55356,1.24471
0.01369,0.94026,-0.34019,-0.22873,1.31644,1.2252
0.04124,0.93052,-0.36391,0.18424,0.65987,1.5658
0.07695,0.92949,-0.36073,-0.48318,-0.30267,0.37596
0.10333,0.92602,-0.36305,-0.69593,-0.58364,0.32742
0.12382,0.92141,-0.36833,-0.77641,-0.99876,0.48584
0.135,0.9175,-0.37413,-1.09599,-0.61819,0.71448
0.12308,0.91983,-0.3725,-1.13089,-0.57421,0.64533
0.08797,0.93316,-0.34852,-0.93872,-0.7131,0.71815
0.0478,0.94703,-0.31757,0.01449,-0.70069,0.56997
0.02115,0.96152,-0.2739,0.34981,-0.76192,0.4759
0.00465,0.97812,-0.20798,0.48665,-0.53447,0.6771
-0.00421,0.99291,-0.11875,0.14315,0.23107,0.33794
-0.00776,0.9997,-0.02293,-0.08915,0.68654,0.11488
-0.01841,0.99741,0.06946,-0.05764,3.59202,0.45339
-0.05363,0.98926,0.13591,0.52231,2.00483,0.53131
-0.10841,0.97702,0.18348,0.63499,1.63845,-0.19853
-0.16047,0.95477,0.25032,0.10827,1.827,-0.7032
-0.20155,0.9203,0.33529,-0.1379,1.41213,-0.37058
-0.2229,0.88726,0.40381,-0.08012,0.96166,-0.52378
-0.21302,0.86367,0.45681,0.47679,-0.35489,-0.57488
-0.19372,0.85316,0.48434,0.95979,-1.08512,-0.40889
-0.17171,0.85946,0.4815,1.06763,-1.36355,-0.37611
-0.14929,0.87781,0.45513,0.61633,-2.1415,-0.2848
-0.12727,0.90555,0.40468,0.27139,-2.28457,-0.6154
-0.11031,0.93656,0.33268,0.14094,-1.73328,-0.86744
-0.11441,0.95816,0.26234,0.20143,-0.88218,-0.77334
-0.12692,0.96879,0.21291,0.29453,-0.66088,-0.58155
-0.1425,0.96025,0.24002,0.17403,0.06577,0.03226
-0.17027,0.92905,0.32844,0.24392,2.87959,3.52015
-0.20752,0.92766,0.31043,-0.11391,2.15331,-2.64008
-0.23916,0.93307,0.26865,1.16743,-1.08247,-1.35774
-0.26201,0.94398,0.20061,1.57072,-2.06831,0.1447
-0.24076,0.96662,0.0876,0.72135,-1.63956,-1.58066
-0.14233,0.98899,-0.04039,0.81163,-1.33358,-1.60273
0.02208,0.99744,-0.06791,1.03496,3.37778,-2.25643
0.09273,0.98905,-0.11476,-0.18365,4.09698,-0.90604
0.07812,0.97596,-0.20343,-1.44191,2.39809,2.14304
0.0842,0.96028,-0.26603,-0.79001,1.46654,1.22805
0.09845,0.9484,-0.3014,0.37138,0.28363,1.52856
0.13208,0.94293,-0.30567,0.54199,-0.0469,1.40928
0.16924,0.93585,-0.30911,-0.38869,-0.58361,0.15992
0.19562,0.92806,-0.3169,-0.64258,-1.18345,0.30654
0.21432,0.92162,-0.32354,-1.21986,-0.85528,0.85966
0.21214,0.9253,-0.31433,-1.46109,-0.34738,0.87729
0.18543,0.93834,-0.29176,-0.55929,-0.90088,0.33267
0.15013,0.95224,-0.26588,-0.41882,-0.80745,0.26488
0.12047,0.9674,-0.22274,-0.18996,-0.71549,0.32032
0.1025,0.98101,-0.16461,0.20738,-0.61834,0.51844
0.08975,0.99257,-0.08216,-0.01068,-0.34213,0.11468
0.0826,0.99652,0.01102,-0.2398,0.1113,-0.05098
0.07851,0.99229,0.09588,-0.62219,3.6363,0.57071
0.05626,0.98274,0.17622,-0.1664,3.1558,0.67299
0.00559,0.97145,0.23716,0.6557,1.63158,-0.08865
-0.03299,0.95427,0.29709,-0.03778,1.66955,-0.6971
-0.06571,0.93282,0.35429,-0.27189,1.73095,-0.64441
-0.08823,0.91041,0.40417,-0.23358,0.57601,-0.7398
-0.08343,0.88887,0.45048,0.61588,-0.14792,-0.72854
-0.0696,0.87554,0.4781,1.45506,-1.25295,-0.70366
-0.05604,0.87678,0.47761,1.1898,-2.34513,-0.2678
-0.04461,0.89342,0.44699,0.47047,-2.40833,-0.42924
-0.02948,0.92093,0.38859,0.19098,-2.26561,-0.55694
-0.0224,0.94635,0.32236,0.07217,-1.42189,-0.64224
-0.02543,0.9636,0.26614,0.29715,-0.807,-0.43116
-0.03254,0.96893,0.24515,0.26648,-0.11994,0.0056
-0.04575,0.96442,0.26036,0.18953,0.24891,0.2695
-0.06328,0.95764,0.28092,0.04224,0.15239,0.56422
-0.08552,0.95823,0.2729,-0.06609,-0.07331,0.81058
-0.0727,0.96262,0.26088,0.69059,4.22539,0.01816
-0.07864,0.95859,0.2737,0.47601,0.27592,-1.51671
-0.08367,0.97007,0.22793,0.28859,-1.46574,-0.04212
-0.10661,0.98255,0.15242,0.24237,-1.77768,-1.46795
-0.07158,0.99568,0.05901,0.93697,-0.80119,-1.60946
0.05587,0.99839,0.00945,0.97618,3.93819,-2.092
0.11035,0.99015,-0.08611,-0.37504,2.54656,-0.5408
0.08957,0.9807,-0.17376,-1.98781,1.14167,3.81707
0.10273,0.9671,-0.23273,-1.34873,1.18632,2.08527
0.11709,0.95678,-0.26621,0.53191,0.33369,0.98778
0.14356,0.94977,-0.27806,0.03791,-0.12626,0.75961
0.16908,0.94156,-0.29134,-0.38423,-0.31408,0.48223
0.18524,0.93431,-0.30453,-0.80191,-1.15294,0.5801
0.19118,0.93205,-0.30777,-1.12888,-0.67314,0.9543
0.1758,0.93788,-0.29913,-1.07628,-0.6034,0.46275
0.13623,0.95208,-0.27383,-0.82437,-0.78045,0.42408
0.0928,0.96695,-0.23745,0.02233,-0.6814,0.63967
0.06411,0.97971,-0.18986,0.30854,-0.72984,0.55421
0.04543,0.99093,-0.12647,0.37573,-0.70128,0.48154
0.03602,0.99852,-0.04062,-0.25727,0.34231,0.17235
0.03604,0.99825,0.04675,-0.51636,1.32262,-0.13352
0.03816,0.99076,0.13012,-0.52742,2.70646,-0.24414
0.01426,0.98034,0.19679,0.58125,1.89123,0.33275
-0.04035,0.96917,0.24305,0.45574,1.56728,-0.28762
-0.07681,0.94875,0.30655,0.06473,1.49861,-0.80176
-0.11805,0.92665,0.35689,-0.29877,1.175,-0.9146
-0.13623,0.90328,0.40683,-0.12858,0.69663,-0.94229
-0.13548,0.88467,0.44608,0.1146,0.20241,-0.85422
-0.12725,0.87785,0.46171,1.48079,-1.61767,-0.48407
-0.11499,0.88544,0.45029,1.38511,-1.80387,-0.17084
-0.10337,0.90507,0.4125,0.58187,-2.26604,-0.3818
-0.08368,0.93242,0.35153,0.08232,-1.90459,-0.87216
-0.07226,0.95639,0.28301,-0.01035,-1.55029,-0.73476
-0.07218,0.97171,0.22484,0.11095,-0.56005,-0.22893
-0.07994,0.9754,0.20542,0.08333,0.06511,0.26429
-0.09456,0.96651,0.23856,0.05313,0.28924,0.77517
-0.12405,0.9557,0.26691,-0.05232,0.03623,0.78541
-0.15279,0.96327,0.22081,0.72922,0.76703,-1.49121
-0.12552,0.96844,0.21532,1.26591,2.91738,-1.16248
-0.13211,0.97039,0.2022,0.09396,-0.64335,-0.03459
-0.13386,0.98157,0.13633,0.04001,-1.30453,-1.48333
-0.1105,0.99306,0.04021,0.14688,-1.48522,-1.65155
-0.0192,0.99917,-0.03572,0.69644,1.43041,-1.7243
0.0855,0.99298,-0.0817,0.29798,4.07701,-1.56167
0.07934,0.97499,-0.2076,-0.40616,2.89105,0.08896
0.07412,0.96094,-0.26663,-0.59116,1.43199,1.30383
0.0804,0.94659,-0.31226,0.60522,0.73217,1.43627
0.10369,0.93999,-0.32504,0.53396,0.08639,0.87334
0.13038,0.93572,-0.32776,-0.29314,-0.63076,0.35196
0.1517,0.92954,-0.33607,-0.72119,-1.00881,0.39911
0.16437,0.92477,-0.3432,-1.06008,-1.03835,0.7935
0.16403,0.92531,-0.34188,-1.2505,-0.44334,0.83119
0.14081,0.93612,-0.32225,-0.76787,-0.79072,0.60479
0.10114,0.95112,-0.29177,-0.36705,-0.81068,0.50294
0.06462,0.96614,-0.24977,0.14098,-0.66956,0.63707
0.04295,0.98065,-0.19099,0.41029,-0.69915,0.59166
0.03669,0.9934,-0.10864,0.23965,-0.30849,0.19207
0.03522,0.99913,-0.02228,-0.47349,1.71585,-0.17375
0.03052,0.9974,0.06529,-0.02576,3.36233,0.6908
0.00508,0.99101,0.13366,0.3922,2.97068,1.16756
-0.04196,0.98171,0.18566,0.60608,1.33332,-0.30047
-0.07662,0.96485,0.25138,0.11831,1.69221,-1.04059
-0.11479,0.94095,0.31848,-0.16211,1.47302,-0.62477
-0.13989,0.91339,0.38228,0.01043,0.61256,-0.7094
-0.14094,0.88928,0.4351,0.45007,-0.39697,-0.68928
-0.12583,0.87468,0.46807,1.11889,-1.04863,-0.73724
-0.1037,0.87528,0.47235,0.95322,-1.85665,-0.4645
-0.08156,0.88996,0.44866,0.39172,-2.47663,-0.40731
-0.0654,0.91639,0.39489,0.17034,-2.40725,-0.67242
-0.05631,0.94532,0.32124,-0.04392,-2.27262,-0.9366
-0.06228,0.96549,0.25287,0.14895,-0.69588,-0.30673
-0.07596,0.97252,0.22005,-0.00467,-0.35199,0.0452
-0.08793,0.96524,0.24611,-0.03657,-0.04079,0.37792
-0.11681,0.94897,0.29293,0.20803,1.23229,2.04928
-0.14606,0.94929,0.27841,0.47974,3.79666,-2.27925
-0.16782,0.95173,0.25699,0.76079,-0.66875,-1.13758
-0.20015,0.95556,0.21641,0.7717,-1.75308,-0.02951
-0.20263,0.97097,0.12711,0.51305,-1.76528,-2.05243
-0.15023,0.98854,0.01437,0.78785,-0.78427,-1.21684
-0.01082,0.99815,-0.05984,0.73669,2.90412,-1.37894
0.08835,0.99117,-0.09886,0.82819,5.12687,-2.11334
0.06932,0.97697,-0.20179,-1.85779,1.21886,3.65942
0.0661,0.96208,-0.26463,-0.29295,1.42815,1.12308
0.07051,0.94611,-0.31607,0.17614,0.97468,1.2146
0.09626,0.9359,-0.33884,0.59205,-0.15473,1.28402
0.13044,0.92854,-0.34754,-0.25184,-0.54694,0.40873
0.15567,0.92028,-0.35895,-0.45326,-0.76514,0.05336
0.16814,0.91325,-0.37107,-0.95334,-0.99733,0.99462
0.17117,0.91205,-0.37264,-1.22832,-0.33224,0.74732
0.14341,0.92612,-0.34891,-1.00739,-0.52013,0.80694
0.09694,0.94356,-0.31669,-0.48659,-0.84561,0.5879
0.05937,0.96049,-0.27191,0.2264,-1.00793,0.67243
0.03891,0.97797,-0.20507,0.37912,-0.9336,0.62345
0.03777,0.99293,-0.11253,0.04211,0.20219,0.09285
0.0507,0.99864,-0.01223,-0.26008,2.23508,-0.19874
0.05601,0.9955,0.07635,0.18693,3.71315,0.88781
0.04054,0.98838,0.14644,0.98221,1.99895,0.72246
-0.01646,0.98037,0.19644,0.9019,1.81962,-0.71932
-0.06259,0.9663,0.24969,0.49086,1.6938,-0.83023
-0.11405,0.94767,0.29815,-0.20447,1.41134,-0.74478
-0.15275,0.92415,0.35016,-0.30624,-0.00972,-0.60088
-0.15656,0.90529,0.39487,0.38645,-1.11307,-0.82891
-0.13691,0.89321,0.42827,0.933,-1.33102,-0.92139
-0.10297,0.89367,0.43674,0.56278,-2.44088,-0.40596
-0.0728,0.91008,0.40798,0.30027,-2.48012,-0.50423
-0.05815,0.93952,0.3375,0.01512,-2.44193,-0.81405
-0.0635,0.96392,0.25849,0.2167,-0.81707,-0.43097
-0.07613,0.97631,0.20251,0.18251,-0.48127,0.02662
-0.10402,0.97252,0.20828,-0.0517,-0.13023,0.56314
-0.14034,0.95836,0.24867,-0.22515,0.69238,2.02106
-0.19178,0.9439,0.26881,-0.12992,2.05677,1.54476
-0.19165,0.93891,0.28584,0.04709,4.41508,-2.99176
-0.18818,0.93487,0.30099,1.17402,-2.09898,0.50287
-0.15888,0.95544,0.24876,0.58667,-1.80057,-1.7615
-0.12336,0.98424,0.12664,0.20168,-1.39976,-2.02558
-0.00203,0.9999,0.01358,0.9165,3.84428,-2.18735
0.08995,0.9936,-0.06828,0.72401,5.65922,-1.96683
0.06872,0.98567,-0.15402,-0.61064,4.31276,-0.22838
0.04949,0.97136,-0.23239,0.15139,1.2567,1.25191
0.0454,0.95597,-0.28993,0.15548,1.27209,1.30945
0.07004,0.94909,-0.30712,0.82745,-0.2519,0.84629
0.09891,0.94267,-0.31872,-0.30309,-0.62935,0.58918
0.12488,0.93385,-0.33515,-0.5352,-0.93577,0.33016
0.14143,0.92792,-0.34491,-0.94142,-1.03415,1.05087
0.14213,0.9274,-0.34603,-1.00916,-0.30156,1.01595
0.11936,0.93771,-0.32627,-0.8195,-0.56063,0.86262
0.08881,0.9499,-0.29965,-0.303,-0.82544,0.39087
0.05956,0.96395,-0.25933,0.32123,-0.86249,0.51959
0.04202,0.97891,-0.19991,0.4485,-0.84913,0.51555
0.03234,0.99261,-0.11693,-0.06432,0.45931,0.13782
0.02229,0.99937,-0.02736,-0.448,2.02431,-0.0008
0.01011,0.99832,0.05696,-0.48442,2.81306,0.28808
-0.0169,0.99177,0.1269,0.82937,2.09808,0.64467
-0.06029,0.98152,0.18158,0.66051,1.33934,-0.43041
-0.0881,0.96767,0.23629,0.39833,1.35297,-0.86096
-0.12614,0.94676,0.29618,-0.35217,1.56511,-0.60876
-0.15768,0.92128,0.35548,-0.2836,0.4443,-0.56092
-0.16096,0.89999,0.4051,-0.1274,-0.05697,-0.54287
-0.14563,0.88566,0.4409,0.99719,-1.11503,-0.645
-0.11912,0.8848,0.45046,0.94035,-1.84388,-0.36486
-0.09216,0.89857,0.42902,0.57102,-2.49342,-0.25632
-0.06759,0.92367,0.37717,0.08489,-2.1991,-0.55694
-0.05367,0.9484,0.31248,-0.24883,-1.10775,-0.51205
-0.06382,0.96443,0.2565,-0.13756,-0.82676,-0.26206
-0.08609,0.96816,0.23503,-0.00759,-0.58207,-0.04543
-0.10561,0.96025,0.25839,0.18843,0.28516,0.92401
-0.13326,0.94369,0.30278,0.33033,0.52027,1.3625
-0.14791,0.94087,0.30475,0.5611,1.34499,1.64296
-0.14682,0.94561,0.29026,1.02211,-0.5908,-0.53785
-0.1644,0.95094,0.26206,1.03969,-0.59613,-0.50965
-0.16057,0.97191,0.17206,0.39393,-1.44197,-2.36992
-0.109,0.99222,0.06003,0.68865,-0.46996,-1.62493
0.01354,0.99962,-0.02379,0.76592,0.96379,-1.25896
0.1188,0.98965,-0.08042,0.4508,5.57985,-2.07523
0.11042,0.9753,-0.1913,-1.68354,1.3829,3.16434
0.1073,0.9605,-0.25675,-1.68043,1.3977,3.22979
0.11343,0.94608,-0.30341,0.15939,0.63932,1.30903
0.14197,0.93917,-0.31274,0.42081,-0.08443,1.19225
0.17114,0.9335,-0.31508,-0.3741,-0.20677,0.61875
0.19027,0.92622,-0.32544,-0.73703,-0.86367,-0.01793
0.1976,0.92117,-0.33526,-0.89053,-0.73242,0.8175
0.19163,0.92327,-0.33293,-1.14506,-0.48434,0.83837
0.16247,0.93678,-0.30992,-0.87059,-0.70951,0.74225
0.11805,0.95331,-0.27795,-0.33713,-0.70792,0.67084
0.08266,0.96911,-0.23237,0.4514,-0.8006,0.66581
0.07016,0.98251,-0.17247,0.4478,-0.71626,0.65392
0.06856,0.99356,-0.09015,-0.03299,-0.0531,0.05094
0.07186,0.99737,0.00874,-0.35218,0.5932,-0.16988
0.06975,0.99256,0.0998,-0.86176,4.06216,0.56385
0.04395,0.98332,0.17646,0.33051,2.15459,0.73969
-0.00995,0.97204,0.23461,0.79135,1.63549,-0.07567
-0.0545,0.95502,0.29148,0.15707,1.40294,-0.46462
-0.09511,0.93593,0.33909,-0.07147,1.59613,-0.90905
-0.12425,0.91494,0.38398,-0.04072,1.15481,-0.9192
-0.12493,0.89463,0.42897,0.42161,-0.49215,-0.64469
-0.11121,0.88135,0.45918,1.21045,-1.35123,-0.67397
-0.09321,0.87951,0.46665,0.9766,-1.91069,-0.41467
-0.07564,0.89155,0.44655,0.49134,-2.46624,-0.34262
-0.05705,0.91946,0.38901,0.13148,-2.34446,-0.7515
-0.04543,0.94859,0.31321,0.02213,-2.04658,-0.77606
-0.05389,0.96656,0.25069,0.1531,-0.63276,-0.3935
-0.07693,0.9696,0.23226,0.12842,0.0535,0.10696
-0.09914,0.95804,0.26895,0.24919,0.52352,0.536
-0.12883,0.93984,0.31638,0.40643,0.63402,1.67844
-0.14857,0.93986,0.30754,0.59688,2.37169,-1.00293
-0.15655,0.94725,0.27965,0.69932,2.32596,-1.84872
-0.17552,0.954,0.24305,0.63867,-1.17161,0.19389
-0.17395,0.97237,0.15564,0.29498,-1.34232,-1.73884
-0.12602,0.99055,0.05412,0.36461,-1.33367,-1.85208
-0.00238,0.99996,0.00805,0.74805,4.00124,-2.04845
0.09834,0.9933,-0.06074,-0.8029,2.94152,0.51522
0.08266,0.98358,-0.16044,-0.78722,2.95124,0.61492
0.08233,0.96954,-0.23068,-0.89081,1.3342,1.16557
0.09083,0.95537,-0.28111,0.70709,0.34432,1.62574
0.11475,0.94841,-0.29554,0.59294,0.07143,1.33082
0.14223,0.94365,-0.29881,0.04168,-0.09479,0.86566
0.16514,0.93743,-0.30652,-0.60735,-1.33634,0.35573
0.18071,0.93198,-0.31425,-0.68458,-1.31499,0.75876
0.1836,0.9316,-0.3137,-1.16173,-0.35857,0.88395
0.16572,0.93942,-0.30005,-0.97381,-0.65148,0.5999
0.13237,0.95181,-0.27663,-0.48391,-0.83792,0.38554
0.09964,0.9647,-0.24375,-0.15297,-0.79907,0.4121
0.07938,0.97728,-0.1965,0.35453,-0.91455,0.50644
0.06749,0.9898,-0.12543,0.01368,-0.41862,0.02934
0.05405,0.99757,-0.04387,-0.5246,0.69478,0.03469
0.03309,0.99871,0.03851,-0.7324,2.50152,0.15451
0.00344,0.99401,0.10922,0.14253,2.84146,0.87287
-0.03439,0.98497,0.16926,0.8174,1.85141,0.23856
-0.06843,0.97186,0.2254,0.17192,1.53065,-0.91965
-0.09802,0.95157,0.29139,0.01215,1.83608,-0.97272
-0.13891,0.92558,0.35213,-0.2652,1.09399,-0.47339
-0.15768,0.8998,0.4068,0.19659,0.19352,-0.65952
-0.14117,0.88163,0.45032,0.57754,-0.21272,-0.86505
-0.11469,0.87195,0.47596,1.24103,-1.7584,-0.41798
-0.092,0.87536,0.47462,0.89265,-2.42071,-0.30474
-0.07765,0.89402,0.44123,0.65092,-2.48239,-0.39701
-0.06733,0.92312,0.37856,0.00821,-2.03869,-0.89995
-0.07147,0.94931,0.30608,0.10622,-1.34238,-0.78275
-0.08566,0.96427,0.25066,0.22537,-0.60806,-0.28794
-0.10185,0.96532,0.24036,0.12598,0.02342,0.23987
-0.11311,0.9596,0.25761,0.18803,0.35612,0.55974
-0.12735,0.95245,0.27679,0.18973,0.36571,0.82625
-0.14376,0.95718,0.25127,0.51669,1.01566,-0.30878
-0.13733,0.96203,0.23585,0.79876,3.5969,-1.39419
-0.16179,0.96274,0.21667,0.50769,0.57753,-1.73171
-0.1817,0.97136,0.15308,0.49021,-1.52254,-0.58903
-0.17732,0.98244,0.05801,0.823,-1.56922,-1.68187
-0.09871,0.9947,-0.02847,0.94953,-1.03343,-1.54726
0.03013,0.99678,-0.07431,0.84243,4.37041,-2.15953
0.0477,0.98003,-0.19306,-0.87343,2.4393,0.4643
0.03308,0.96603,-0.25628,-1.97897,1.23947,4.31786
0.05101,0.95014,-0.30761,0.12256,1.24148,1.43002
0.07941,0.94119,-0.32841,0.13031,-0.0802,0.77731
0.10804,0.93752,-0.33072,0.10168,-0.07653,0.77962
0.12959,0.93238,-0.33744,-0.84379,-0.92832,0.20411
0.14236,0.92813,-0.34394,-0.90707,-0.83893,0.918
0.14109,0.92867,-0.34302,-0.9058,-0.83947,0.91709
0.11794,0.93744,-0.32755,-0.87836,-0.76142,0.70531
0.07957,0.94994,-0.30211,-0.34812,-0.71798,0.56089
0.03739,0.96339,-0.26547,-0.30595,-0.73143,0.52424
0.00847,0.97742,-0.2111,0.45417,-0.73264,0.67629
-0.006,0.99112,-0.13281,-0.07437,0.51392,0.15615
-0.01332,0.99888,-0.04531,-0.30223,1.12198,-0.07426
-0.02296,0.99864,0.04663,-0.37102,3.07518,0.47401
-0.04871,0.99132,0.12208,0.58344,1.68167,0.47712
-0.09159,0.97876,0.1834,0.63162,1.35996,-0.0646
-0.12671,0.96193,0.24212,0.25903,1.51582,-0.7458
-0.17021,0.93855,0.30025,-0.17117,1.41744,-0.86431
-0.19467,0.909,0.36853,-0.22412,0.90637,-0.99464
-0.18868,0.88338,0.42899,0.63192,-0.18712,-0.92582
-0.16055,0.8677,0.47044,0.96132,-0.60323,-0.8656
-0.13497,0.86739,0.47896,1.22388,-1.76073,-0.3037
-0.1189,0.88382,0.45245,0.56572,-2.52591,-0.34862
-0.11144,0.91411,0.38983,0.29492,-2.44069,-0.54845
-0.11415,0.94438,0.3084,0.07199,-1.96112,-0.6943
-0.12623,0.96442,0.23225,0.28883,-0.86083,-0.5774
-0.13662,0.97197,0.19133,0.31306,-0.18214,-0.04991
-0.14506,0.96823,0.20366,0.35063,0.25192,0.11943
-0.15912,0.95757,0.24029,0.48066,1.14062,1.56803
-0.16532,0.95309,0.25353,0.70644,3.55182,-0.32761
-0.16851,0.95712,0.23563,0.88536,3.2351,-1.30291
-0.1968,0.95528,0.22067,0.71458,-1.803,-0.16495
-0.20495,0.96838,0.14222,0.54559,-1.83622,-1.61468
-0.1591,0.98591,0.05156,0.567,-1.64257,-1.87826
-0.03534,0.99934,-0.00802,0.76503,2.05298,-1.91903
0.08713,0.99397,-0.0665,0.17588,5.06549,-1.05655
0.07933,0.9815,-0.17424,-1.20068,2.94996,1.10945
0.07233,0.96811,-0.23984,-0.806,1.35417,1.12667
0.08171,0.95239,-0.29371,0.4917,0.48576,1.13508
0.11238,0.94488,-0.30752,0.74533,0.04122,1.26046
0.14727,0.93958,-0.30902,-0.35569,-0.11352,0.55824
0.17542,0.93183,-0.31768,-0.896,-0.62148,-0.0259
0.19354,0.92596,-0.32425,-0.83499,-1.10476,0.36313
0.20193,0.92638,-0.31788,-1.45655,-0.24242,0.87873
0.18554,0.93697,-0.29607,-1.00338,-0.73218,0.4569
0.14852,0.95285,-0.26459,-0.47698,-0.92952,0.44186
0.11402,0.96828,-0.22233,-0.0754,-0.90361,0.65565
0.09493,0.98098,-0.16929,0.32039,-0.91304,0.553
0.08315,0.9922,-0.0928,0.02931,-0.42293,-0.07662
0.07926,0.99684,-0.00472,-0.51928,0.7975,0.01591
0.06985,0.99459,0.07689,-0.71799,2.88728,0.32117
0.04679,0.98702,0.1536,-0.65208,2.93365,0.63474
-0.00626,0.97821,0.20751,0.50405,1.78647,-0.07369
-0.04989,0.96417,0.26053,0.22747,1.43547,-0.71777
-0.08048,0.94175,0.32654,-0.04567,1.67352,-1.14441
-0.11029,0.91959,0.37708,-0.18847,0.98868,-0.72432
-0.11262,0.89939,0.42238,0.68805,-0.02871,-0.77779
-0.09748,0.88521,0.45486,1.01783,-0.41484,-0.7356
-0.07981,0.88185,0.46472,1.05862,-1.67988,-0.40614
-0.0633,0.89135,0.44887,0.49148,-2.198,-0.20063
-0.0489,0.91344,0.40402,0.35249,-2.11012,-0.32494
-0.03493,0.94015,0.33897,0.10942,-1.65081,-0.61071
-0.03138,0.96088,0.27518,0.15519,-0.66725,-0.25122
-0.04585,0.97027,0.23761,0.16966,-0.67665,-0.21365
-0.07093,0.96702,0.24462,0.43054,0.2767,0.22298
-0.09692,0.95682,0.27404,0.0566,-0.05196,0.95265
-0.12186,0.95267,0.27851,0.16898,-0.20433,0.43207
-0.11866,0.96895,0.21693,1.11294,1.8404,-1.38992
-0.10686,0.96923,0.22174,0.06423,-0.06889,-0.2617
-0.10729,0.97272,0.20565,0.13723,-0.94059,0.55557
-0.11431,0.98087,0.15757,0.20743,-1.33064,-0.60895
-0.09858,0.99247,0.07264,0.92288,0.59546,-1.79195
-0.00816,0.99996,0.00117,0.66215,2.76986,-2.14
0.07834,0.99196,-0.09939,0.40724,4.42177,-1.74429
0.06081,0.97818,-0.19865,-1.4432,1.01474,1.27167
0.05876,0.96392,-0.25962,-1.44114,1.029,1.33263
0.06882,0.95347,-0.29351,0.69262,0.15768,1.26306
0.10285,0.94905,-0.29786,0.09422,-0.1358,0.49289
0.12566,0.94623,-0.2981,-0.34284,-0.48947,0.36012
0.1462,0.94296,-0.29908,-0.78772,-1.23989,0.62245
0.15884,0.94258,-0.29379,-1.16042,-0.72432,0.71735
0.15318,0.94698,-0.28243,-1.06267,-0.63881,0.69947
0.12205,0.95872,-0.25681,-0.37198,-0.77809,0.53878
0.07906,0.97071,-0.22687,-0.11583,-0.68325,0.62325
0.04823,0.98226,-0.18118,0.15366,-0.73428,0.52234
0.03318,0.993,-0.11337,-0.18777,0.25728,0.07652
0.0258,0.99882,-0.04119,-0.42551,1.55458,0.09481
0.01627,0.99906,0.04,-0.41364,1.94213,0.3856
0.00279,0.99318,0.11649,0.2679,2.22857,0.54748
-0.0318,0.98451,0.17241,0.41208,1.56838,-0.15483
-0.08517,0.97456,0.20729,0.0928,1.63643,-0.87091
-0.14028,0.95668,0.25509,-0.37155,1.49247,-0.6031
-0.19263,0.93366,0.30195,-0.22517,0.41398,-0.77106
-0.214,0.91033,0.35424,0.07391,0.08365,-0.72795
-0.20354,0.89285,0.40173,1.23831,-0.87991,-0.64718
-0.18552,0.88499,0.42705,1.33252,-1.86091,-0.06975
-0.17423,0.89313,0.41467,1.1348,-2.21209,-0.08682
-0.16225,0.91447,0.3707,0.31652,-2.0996,-0.52982
-0.14706,0.93965,0.30889,0.20188,-1.67562,-0.69111
-0.13841,0.95992,0.24369,0.43546,-1.06429,-0.45953
-0.13725,0.97076,0.19691,0.40127,-0.46309,-0.02597
-0.145,0.96911,0.19947,0.35034,0.43979,0.41174
-0.16924,0.95399,0.2475,0.39347,0.7261,1.00093
-0.20288,0.93231,0.29938,-0.28069,4.3747,-1.22015
-0.227,0.93856,0.25992,0.19269,-1.10229,-2.58211
-0.25703,0.94112,0.2196,0.88163,-1.52687,-1.24633
-0.27816,0.95333,0.11743,0.85831,-1.5526,-1.46711
-0.23783,0.97099,-0.02457,1.30523,0.31094,-1.31623
-0.09828,0.98975,-0.10354,1.1754,2.36378,-1.5617
0.0323,0.99568,-0.08697,-0.6644,2.69487,-0.28909
0.02341,0.98197,-0.18755,-1.8747,0.95635,3.21771
0.01678,0.96511,-0.26128,-1.86807,0.97321,3.29144
0.027,0.94823,-0.31642,0.03715,0.8231,1.33217
0.03952,0.93975,-0.33956,0.16965,0.0102,1.10446
0.06639,0.93612,-0.34534,-0.22002,-0.34654,0.58088
0.08839,0.93024,-0.35613,-0.52482,-0.94079,0.20884
0.10338,0.92398,-0.3682,-0.59378,-1.13897,0.77216
0.10985,0.92155,-0.37239,-0.8116,-0.81698,0.89392
0.09853,0.92877,-0.35731,-0.80293,-0.72853,0.85374
0.06788,0.94214,-0.32827,-0.2728,-0.75478,0.50706
0.03134,0.95607,-0.29144,0.0391,-0.70793,0.45393
0.00429,0.97161,-0.23653,0.17668,0.10273,-0.08836
-0.01387,0.98681,-0.16125,-0.05717,1.0476,0.35957
-0.03217,0.99645,-0.07779,-0.03878,1.46269,0.45645
-0.04124,0.99913,0.00547,0.55446,2.54974,0.84428
-0.0469,0.99614,0.07415,0.68481,1.81021,0.14595
-0.06759,0.98876,0.13332,0.51429,1.41662,-0.44142
-0.09077,0.97819,0.1868,-0.21336,1.89299,-0.5941
-0.14,0.96062,0.24001,-0.42666,1.03902,-0.59558
-0.17876,0.93661,0.30132,-0.29512,0.57224,-0.55689
-0.18745,0.91426,0.35914,0.66824,-0.48448,-0.86662
-0.17055,0.8983,0.40491,1.20595,-1.46608,-0.44054
-0.1469,0.89549,0.42014,0.95609,-2.39253,-0.12715
-0.12791,0.90722,0.40072,0.50907,-2.44476,-0.37365
-0.11429,0.9302,0.34878,0.11777,-2.08204,-0.69416
-0.10772,0.9543,0.27873,0.05043,-1.79502,-0.64036
-0.11658,0.97003,0.21319,0.13921,-0.66914,-0.20061
-0.13139,0.97391,0.18502,0.14701,-0.27884,0.20524
-0.15021,0.96566,0.21197,0.22713,0.53521,0.64356
-0.18046,0.94184,0.28347,-0.02311,4.18056,1.79814
-0.21617,0.93608,0.27751,0.2972,0.30776,-2.93497
-0.24786,0.93707,0.24588,0.81244,-1.0518,-1.87953
-0.27708,0.94471,0.17533,0.96355,-2.08828,-0.78851
-0.2622,0.96331,0.05721,0.82722,-1.30984,-1.70209
-0.17293,0.98235,-0.07118,1.0927,0.47192,-1.33628
-0.01626,0.99352,-0.11246,0.95727,4.94066,-2.63355
0.04791,0.9886,-0.14269,-0.85696,2.86377,0.42478
0.01793,0.97242,-0.23252,-1.74721,1.21158,3.86394
0.01742,0.95752,-0.28783,-0.0234,1.02193,1.11862
0.02333,0.9422,-0.33423,0.49434,-0.24135,1.05015
0.04655,0.93654,-0.34744,0.22116,-0.38584,0.76616
0.0746,0.93255,-0.35325,-0.32837,-0.82674,0.35068
0.09623,0.92504,-0.36746,-0.75423,-1.10661,0.74267
0.10908,0.91901,-0.37884,-0.92439,-0.65226,1.07883
0.11202,0.91785,-0.38078,-1.01892,-0.54282,0.755
0.0925,0.92707,-0.36329,-0.44951,-0.83979,0.5913
0.0554,0.93983,-0.33711,-0.32006,-0.74968,0.5211
0.01956,0.95241,-0.30419,0.20534,-0.64482,0.59438
-0.00657,0.96872,-0.24806,0.29581,-0.50807,0.46691
-0.02299,0.98553,-0.16792,0.31223,-0.52488,0.38678
-0.03618,0.99608,-0.08064,-0.42942,2.10301,-0.03693
-0.05212,0.99861,0.00768,0.14796,2.86677,0.954
-0.06975,0.99478,0.07437,0.57073,2.5437,0.90277
-0.10332,0.98564,0.13353,0.83022,1.40616,-0.42762
-0.13553,0.97165,0.19366,0.06385,1.79658,-0.39026
-0.17887,0.95172,0.24944,-0.13655,1.67671,-0.89301
-0.21326,0.92362,0.31848,0.17386,0.17995,-0.53259
-0.21713,0.89928,0.37966,0.80491,-0.63539,-0.72436
-0.19528,0.88269,0.42746,0.98603,-1.0136,-0.68002
-0.16843,0.88046,0.44318,0.90581,-2.275,-0.24597
-0.14838,0.89428,0.42217,0.55271,-2.48226,-0.46047
-0.13641,0.92204,0.36224,0.33449,-2.39853,-0.69068
-0.12935,0.95009,0.28387,-0.01851,-1.28154,-0.59393
-0.13871,0.96651,0.21589,-0.01207,-0.50441,-0.04693
-0.1571,0.96965,0.18732,-0.04611,0.13208,0.42816
-0.17577,0.96164,0.21058,0.03586,0.33568,0.98346
-0.19705,0.95295,0.23033,0.27137,-0.1236,0.01737
-0.21978,0.9581,0.18363,0.72771,-0.389,-0.93995
-0.17629,0.96648,0.18664,1.58449,4.45564,0.51378
-0.16228,0.97479,0.15312,-0.16367,-0.06502,-1.11794
-0.18191,0.97986,0.08225,-0.13767,-0.91225,-0.50826
-0.17959,0.98371,0.00716,0.36123,-1.28654,-1.57007
-0.12382,0.9895,-0.07448,0.65278,1.27368,-1.49225
-0.00575,0.99339,-0.11458,0.29981,3.12473,-1.962
0.02417,0.97418,-0.22446,-1.74959,1.41834,3.03792
0.00446,0.96025,-0.27907,-0.78173,1.12805,1.35119
0.00921,0.94364,-0.33083,0.11312,1.13435,1.50344
0.02636,0.93329,-0.35814,0.50795,0.00869,1.2831
0.06125,0.93074,-0.3605,-0.02542,-0.3481,0.5142
0.08494,0.92894,-0.36035,-0.36526,-0.70605,0.27127
0.10256,0.92576,-0.36392,-0.91895,-0.77014,0.91876
0.1141,0.92454,-0.36359,-1.12861,-0.49977,0.83569
0.10742,0.9278,-0.35727,-1.04414,-0.64299,0.60912
0.07061,0.94141,-0.32978,-0.40967,-0.7203,0.66922
0.02548,0.95329,-0.30096,0.02317,-0.62335,0.78395
-0.0071,0.96614,-0.25789,0.05574,-0.6362,0.74088
-0.02631,0.98155,-0.18938,-0.00088,0.22948,0.11467
-0.02749,0.99457,-0.10032,-0.36489,2.43913,-0.13969
-0.0228,0.99971,-0.00755,-0.24472,3.95266,0.07617
-0.03408,0.99667,0.07406,0.59119,1.65897,0.53768
-0.07274,0.98875,0.13069,0.47624,1.20937,-0.33595
-0.11583,0.97644,0.18203,0.26594,1.33089,-0.46477
-0.15128,0.95752,0.24547,-0.24674,1.38156,-0.73154
-0.18702,0.93389,0.30472,-0.04992,0.69056,-0.6241
-0.20117,0.91033,0.36169,0.17491,0.11625,-0.577
-0.18992,0.8934,0.40712,0.99099,-0.63004,-0.7186
-0.17061,0.88607,0.43101,1.29973,-1.63576,-0.38154
-0.15507,0.89413,0.42008,1.01187,-2.45074,-0.09995
-0.14158,0.91679,0.3734,0.16426,-2.11502,-0.67908
-0.13039,0.94515,0.29946,-0.00108,-1.50521,-0.64321
-0.13079,0.96685,0.21928,0.04265,-1.23713,-0.49397
-0.13761,0.97871,0.15223,0.14082,-0.4306,0.05631
-0.14798,0.97981,0.13437,0.21057,0.30408,0.55158
-0.16238,0.97015,0.18011,0.2465,0.61743,1.19594
-0.18749,0.95332,0.23668,0.2434,5.10416,-1.23023
-0.20543,0.95568,0.21085,0.28517,1.46073,-2.3842
-0.23871,0.95139,0.19461,0.78569,-1.83128,-0.5816
-0.25439,0.95896,0.12514,0.76706,-1.59912,-1.85339
-0.22376,0.9745,0.01628,1.00284,-0.8336,-1.58473
-0.11242,0.99073,-0.07615,1.1954,0.74328,-1.44925
0.02824,0.9958,-0.08702,0.36244,4.01503,-0.69563
0.03712,0.98345,-0.17732,-1.79093,0.8632,3.49321
0.02348,0.96862,-0.24743,-0.71669,1.30236,0.9665
0.02316,0.94922,-0.31376,0.35195,0.59983,1.00345
0.0376,0.93924,-0.34118,0.60876,0.06231,1.40856
0.06628,0.93476,-0.34902,0.17304,-0.13403,1.21365
0.09231,0.93138,-0.35214,-0.81143,-0.81157,0.11575
0.10816,0.9264,-0.36066,-0.51249,-1.24041,0.73989
0.11844,0.92298,-0.36616,-0.6228,-0.99944,0.98678
0.11721,0.92481,-0.36192,-0.9266,-0.66645,0.65986
0.09096,0.93558,-0.34118,-0.57805,-0.84058,0.70476
0.04847,0.95036,-0.30736,-0.2356,-0.72228,0.73126
0.01656,0.96448,-0.26361,0.2547,-0.71238,0.44041
-0.00124,0.98071,-0.19546,0.14084,0.16331,0.11442
-0.01111,0.99259,-0.12099,0.03967,0.6918,0.26649
-0.02409,0.99905,-0.03629,0.07478,2.59843,0.58236
-0.03382,0.99856,0.04145,0.66022,2.09845,0.88528
-0.05939,0.99382,0.09377,0.94285,1.64267,0.49074
-0.08947,0.98572,0.14262,0.19129,1.14758,-0.56875
-0.11506,0.97313,0.19943,-0.35034,1.32742,-0.44911
-0.15636,0.95492,0.25232,-0.35501,0.93258,-0.68161
-0.17672,0.93335,0.31244,-0.00835,0.2639,-0.49931
-0.16675,0.91499,0.3674,0.98485,-1.04703,-0.56519
-0.14338,0.9043,0.40209,1.10396,-1.4955,-0.39566
-0.11775,0.90813,0.40178,1.01179,-2.36931,-0.09408
-0.09837,0.92523,0.36642,0.29001,-2.15391,-0.59659
-0.08603,0.94909,0.30302,0.27766,-2.17777,-0.53319
-0.0888,0.96922,0.22962,0.00631,-0.82862,-0.46277
-0.10312,0.98035,0.16811,0.09759,-0.35116,0.10722
-0.11955,0.98101,0.15272,0.1548,0.03192,0.37221
-0.13767,0.97203,0.19028,0.35097,1.32361,2.28742
-0.16095,0.95813,0.23678,0.51591,2.9144,1.00103
-0.16318,0.96067,0.22467,0.70102,1.50338,-1.79568
-0.18162,0.96077,0.2096,0.93514,-1.52807,0.42543
-0.19303,0.96937,0.15179,0.41892,-1.59332,-2.04577
-0.16858,0.98385,0.06,0.51119,-1.31267,-1.8398
-0.08473,0.99535,-0.04572,0.89112,2.15133,-1.73892
0.04123,0.99616,-0.07717,0.08254,4.18028,-0.64042
0.07111,0.98439,-0.16097,-1.14818,2.25316,1.10468
0.05749,0.97187,-0.22838,-0.25835,1.15684,0.63482
0.05829,0.95333,-0.29625,0.20077,0.78735,0.99952
0.06667,0.94129,-0.33095,0.43713,0.30426,1.44356
0.0936,0.93504,-0.34195,-0.33878,-0.05401,0.91617
0.12171,0.93044,-0.34564,-0.7949,-0.5405,0.34087
0.14279,0.92414,-0.35436,-0.66391,-0.9964,0.43151
0.16033,0.91887,-0.36051,-0.67387,-0.89563,0.87105
0.16882,0.91806,-0.35868,-0.97683,-0.54865,0.71659
0.15732,0.92545,-0.34466,-0.84306,-0.65427,0.73057
0.12327,0.94069,-0.31606,-0.44251,-0.72342,0.63367
0.08833,0.95616,-0.2792,0.10254,-0.73448,0.66844
0.06333,0.97229,-0.22504,0.27395,-0.8265,0.53334
0.05019,0.98792,-0.1466,-0.07858,0.1981,0.18255
0.04428,0.99694,-0.0644,-0.53635,2.07391,-0.12625
0.03209,0.99928,0.02006,-0.13014,3.13166,0.90438
0.00603,0.99553,0.0942,0.5216,1.80035,0.48913
-0.04227,0.98911,0.14096,0.3714,1.15951,-0.44052
-0.08525,0.97849,0.18782,0.02739,1.57299,-0.49485
-0.13325,0.96249,0.23631,-0.26351,1.40425,-0.55102
-0.17309,0.94242,0.28614,-0.09673,0.56156,-0.58556
-0.18449,0.92367,0.33582,0.10878,0.09502,-0.54148
-0.17363,0.91031,0.37573,1.04705,-1.09555,-0.40591
-0.1523,0.90877,0.38851,1.16423,-1.78108,-0.01061
-0.1318,0.92221,0.36351,0.8163,-2.24432,-0.15944
-0.10569,0.94473,0.31034,0.35387,-1.92378,-0.51378
-0.08562,0.9656,0.24553,0.14103,-1.43378,-0.47082
-0.08186,0.97893,0.18702,0.25736,-0.96198,-0.34545
-0.08769,0.98429,0.15321,0.27728,-0.38161,-0.07848
-0.10029,0.9802,0.17071,0.12539,0.18837,0.52182
-0.12202,0.97044,0.2082,-0.01194,0.36828,1.34745
-0.13498,0.9719,0.19283,0.51979,2.68913,-0.93131
-0.13212,0.97429,0.18245,0.26503,0.83354,-1.59206
-0.15152,0.97296,0.17432,0.30916,-1.17854,0.15725
-0.15133,0.98029,0.12694,0.31663,-1.43653,-1.38373
-0.11642,0.99216,0.04535,0.86484,0.17241,-1.49013
-0.01125,0.99981,-0.01549,0.76899,1.83338,-1.67137
0.10106,0.99319,-0.05788,0.8425,4.0362,-0.83253
0.10126,0.98078,-0.16677,-1.37532,0.86682,2.59151
0.10134,0.96824,-0.22855,-0.85592,1.2532,1.13125
0.10838,0.95181,-0.28689,0.39699,0.23387,1.20298
0.12669,0.94268,-0.3087,0.03992,-0.15946,1.15735
0.15212,0.93747,-0.31306,-0.45097,-0.23141,0.81224
0.17604,0.9323,-0.31594,-0.82478,-0.90712,0.44758
0.18917,0.92598,-0.32676,-0.68601,-1.11076,0.75673
0.19528,0.92396,-0.32886,-1.00965,-0.60988,0.85584
0.18563,0.92869,-0.32104,-0.82456,-0.71911,0.6257
0.1505,0.94407,-0.29337,-0.47023,-0.81556,0.63163
0.10707,0.96168,-0.2524,-0.2488,-0.81145,0.64929
0.08046,0.97667,-0.19906,0.24859,-0.7475,0.21195
0.07078,0.98935,-0.12719,-0.06777,0.1144,0.13175
0.06921,0.9961,-0.05455,-0.34741,0.82725,0.12767
0.06528,0.9974,0.03037,-0.36577,3.21262,1.1784
0.04553,0.99341,0.10513,0.35437,2.1589,0.46958
-0.00791,0.98904,0.1474,0.5387,1.62873,-0.00186
-0.05201,0.97909,0.19663,-0.01365,1.47008,-0.68434
-0.08752,0.96368,0.25228,-0.05601,1.10086,-0.49077
-0.11861,0.94658,0.29983,-0.02601,0.77897,-0.80504
-0.13001,0.9292,0.34595,0.53565,-0.07609,-0.58408
-0.12389,0.91756,0.37778,1.0031,-0.95745,-0.5676
-0.10693,0.91487,0.38931,1.1222,-1.35951,-0.37255
-0.09253,0.92281,0.37395,0.60493,-2.12806,-0.18642
-0.07883,0.94011,0.33161,0.20194,-1.84482,-0.71208
-0.06832,0.96122,0.26717,0.19143,-1.86593,-0.64763
-0.07047,0.97729,0.19983,0.04211,-1.02119,-0.4276
-0.08454,0.98508,0.14989,0.01003,-0.37227,0.14938
-0.10666,0.98014,0.16716,0.03268,0.46138,0.8004
-0.13706,0.96697,0.21488,-0.08299,0.34239,1.29384
-0.16782,0.96602,0.19656,0.65705,1.22364,-1.52145
-0.15987,0.97257,0.16891,0.55831,1.33631,-1.02992
-0.16979,0.97314,0.15546,0.24017,-0.67405,0.08816
-0.15598,0.98091,0.11611,0.24144,-0.98756,-1.44141
-0.12272,0.99108,0.05185,0.56631,-0.68946,-1.22795
-0.04372,0.99886,-0.01876,0.71968,1.47057,-1.36477
0.05331,0.99524,-0.08153,0.45606,3.79462,-1.1575
0.05852,0.97825,-0.199,-1.48947,1.20739,2.76516
0.05487,0.96445,-0.25847,-0.86339,1.07853,0.85332
0.06183,0.94867,-0.31014,0.31295,0.67581,1.12104
0.08165,0.94076,-0.32908,0.53442,0.22506,1.20411
0.11398,0.9365,-0.33163,-0.18535,0.05096,0.89352
0.14684,0.93211,-0.33106,-0.85953,-0.64912,0.49398
0.17676,0.9262,-0.33302,-0.80347,-0.95251,0.53955
0.19353,0.92116,-0.33764,-1.02754,-1.04447,0.45623
0.18617,0.9246,-0.33233,-0.93947,-0.78726,0.89773
0.15383,0.94103,-0.30131,-0.7507,-0.8673,0.7356
0.11434,0.95605,-0.26998,-0.11407,-0.75605,0.54619
0.08736,0.96998,-0.22693,0.20054,-0.71275,0.49479
0.0692,0.98458,-0.16066,0.1519,-0.4825,0.15694
0.06168,0.99486,-0.0803,-0.33394,1.02802,-0.00277
0.05609,0.99842,0.00059,-0.35028,2.8632,0.36252
0.04142,0.99588,0.08061,0.22204,2.49344,0.87986
0.00321,0.99089,0.13458,0.35674,1.36217,-0.26992
-0.0475,0.98433,0.16976,0.05165,1.39619,-0.14986
-0.09562,0.97134,0.2176,-0.18722,1.37916,-0.29386
-0.14322,0.95572,0.25706,-0.09615,0.70998,-0.68973
-0.16925,0.93934,0.29831,0.27702,0.01162,-0.77042
-0.16937,0.92505,0.33998,0.90117,-0.75702,-0.54689
-0.15534,0.91629,0.36916,1.27352,-1.47241,-0.11086
-0.13721,0.92046,0.36593,0.99617,-2.10363,-0.05725
-0.11461,0.93645,0.33152,0.74494,-2.19279,-0.18813
-0.0865,0.9574,0.27548,0.01266,-1.41256,-0.5529
-0.06488,0.97368,0.21847,0.01869,-1.14743,-0.37998
-0.06286,0.9835,0.16958,0.03402,-0.93983,-0.24501
-0.07149,0.98505,0.15672,-0.07497,0.01816,0.53637
-0.08839,0.97728,0.1926,-0.21572,0.40878,1.61198
-0.12272,0.96895,0.21461,0.18641,2.18325,-0.65398
-0.13073,0.97136,0.19838,0.46307,2.1907,-1.2102
-0.14362,0.9707,0.19261,0.50173,-0.90517,0.27178
-0.15131,0.97483,0.16373,0.40374,-1.46581,-1.35938
-0.13276,0.98705,0.08999,0.42847,-1.16974,-1.63577
-0.0714,0.99744,-0.00337,0.6563,0.48848,-1.57854
0.04652,0.998,-0.04268,0.49071,3.87535,-1.86361
0.09915,0.98614,-0.133,-0.78163,2.16276,1.22656
0.07832,0.97427,-0.2113,-0.83464,1.12366,2.01378
0.07843,0.95949,-0.2706,0.22844,0.94763,0.81432
0.08745,0.94677,-0.30979,0.54963,0.11782,1.11886
0.11473,0.93949,-0.32279,0.05248,-0.09788,0.95487
0.14686,0.93272,-0.32932,-0.81262,-0.26628,0.37809
0.17621,0.92326,-0.34136,-0.76843,-1.05438,0.36403
0.19186,0.91498,-0.35496,-0.85128,-1.1528,0.86732
0.19399,0.91343,-0.35779,-1.00358,-0.51973,0.66585
0.17169,0.92366,-0.34259,-0.7143,-0.79448,0.71292
0.12945,0.94202,-0.30957,-0.16201,-0.74805,0.75539
0.09495,0.9593,-0.26593,0.14236,-0.81798,0.55047
0.07697,0.9763,-0.20226,0.13906,-0.32974,-0.02245
0.06484,0.98948,-0.12928,-0.33761,1.3552,0.00665
0.04917,0.99746,-0.05144,-0.4732,2.00626,0.17567
0.03029,0.99913,0.02867,0.07028,2.74439,1.16647
0.00437,0.9953,0.09667,0.56844,1.34685,-0.02874
-0.03513,0.98813,0.14949,0.31534,1.23094,-0.70581
-0.07085,0.97704,0.20088,-0.26062,1.65418,-0.48412
-0.12137,0.96069,0.24968,-0.31381,1.22622,-0.61429
-0.15026,0.93943,0.30802,-0.16674,0.3079,-0.54513
-0.14685,0.92255,0.35682,0.77271,-0.52364,-0.78816
-0.12231,0.9099,0.39637,0.97359,-0.9648,-0.66473
-0.09714,0.90815,0.4072,0.92733,-1.72103,-0.12858
-0.0805,0.9203,0.38282,0.56865,-2.26497,-0.21564
-0.06855,0.94127,0.33061,0.13345,-2.07135,-0.58215
-0.05968,0.9649,0.25571,0.01772,-1.87927,-0.73981
-0.0596,0.98145,0.18218,0.04308,-0.53351,-0.05269
-0.06844,0.98853,0.13458,0.03093,-0.09788,0.33669
-0.08503,0.98358,0.15917,0.14872,0.9588,1.45126
-0.11083,0.96554,0.23545,0.37095,2.82792,2.20372
-0.12068,0.96059,0.2504,0.15695,3.33743,-1.37789
-0.12849,0.9656,0.22606,0.43122,-0.44927,-1.79391
-0.1433,0.97135,0.18953,0.60855,-1.40576,-0.35713
-0.1345,0.98394,0.11729,0.28077,-1.09538,-2.05355
-0.08331,0.9965,0.00685,0.34953,-0.69053,-1.77941
0.03494,0.99725,-0.06531,0.36117,3.83873,-1.46172
0.12109,0.98851,-0.09039,-0.58792,2.43773,0.56312
0.11677,0.97323,-0.19793,-0.84231,1.12641,2.47429
0.1132,0.96044,-0.25442,-0.23427,1.24824,0.65994
0.10804,0.94544,-0.30734,0.20762,0.28913,1.14983
0.12051,0.93544,-0.33231,0.23997,-0.05031,1.26566
0.1468,0.9275,-0.34378,-0.50283,-0.33027,0.53981
0.16652,0.9198,-0.3553,-0.79111,-0.86052,0.34941
0.17566,0.91003,-0.37548,-0.61869,-1.17848,1.03988
0.18072,0.90536,-0.38426,-1.09269,-0.41058,0.77973
0.1653,0.91073,-0.37847,-0.80643,-0.71328,0.76153
0.12357,0.92851,-0.35014,-0.48462,-0.79263,0.87481
0.08425,0.94582,-0.31355,0.18958,-0.82674,0.62647
0.06129,0.96366,-0.26,0.27156,-0.50377,0.26145
0.04937,0.98183,-0.18319,0.04005,0.50999,0.11751
0.03738,0.99401,-0.10269,-0.44911,2.11212,-0.06517
0.02227,0.99963,-0.01516,0.48723,2.35407,1.06667
0.00061,0.99832,0.05789,0.5089,2.35538,0.99363
-0.04003,0.99291,0.11189,0.70124,1.15234,-0.078
-0.07051,0.98364,0.16575,-0.03982,1.55004,-0.4278
-0.11158,0.97041,0.21409,0.00124,1.56326,-0.47614
-0.15666,0.95061,0.26792,-0.31895,0.6327,-0.49138
-0.17728,0.93161,0.31728,0.58826,-0.38824,-0.84633
-0.16586,0.91723,0.36217,0.89686,-0.78758,-0.77389
-0.14516,0.91063,0.38687,1.00774,-1.99825,-0.14613
-0.12556,0.9176,0.37713,0.70935,-2.38086,-0.07836
-0.10546,0.93814,0.32979,0.47499,-2.29319,-0.2607
-0.08458,0.96471,0.24935,0.16513,-1.95761,-0.52314
-0.07284,0.98231,0.17246,0.01689,-0.71802,-0.30188
-0.07686,0.98921,0.12464,-0.07148,-0.38983,-0.03939
-0.09535,0.98555,0.13998,-0.06913,0.32837,0.50382
-0.12316,0.97373,0.19148,0.33349,0.23333,1.04245
-0.14322,0.97015,0.19567,0.35354,0.23691,1.03826
-0.11979,0.97733,0.17455,0.38027,0.80899,-1.13939
-0.13679,0.97829,0.15561,0.04899,-0.94894,0.33322
-0.13639,0.98444,0.11075,0.21249,-1.01692,-0.89354
-0.10752,0.99353,0.03649,0.51394,-0.65988,-1.48384
-0.02903,0.99851,-0.04596,0.48202,1.80947,-1.46345
0.08557,0.99355,-0.0744,0.40275,3.47298,-1.7591
0.10305,0.97817,-0.18042,-1.36112,1.01745,1.96341
0.0909,0.96407,-0.24958,-0.77275,1.37705,0.78344
0.08545,0.94702,-0.30958,-0.17616,1.2179,0.87966
0.09399,0.93484,-0.34238,0.39943,0.1738,1.38309
0.11474,0.92776,-0.35509,-0.40742,-0.18681,0.78089
0.13546,0.92107,-0.36507,-0.73986,-0.31079,0.4116
0.14876,0.91465,-0.37587,-0.41406,-1.19621,0.7922
0.15806,0.90987,-0.3836,-0.75945,-0.50777,0.83385
0.15404,0.91125,-0.38194,-0.9664,-0.59885,0.72813
0.12925,0.92316,-0.36203,-0.62036,-0.84097,0.79018
0.08914,0.94043,-0.32809,-0.20367,-0.75248,0.70547
0.0557,0.95607,-0.28779,0.16889,-0.7875,0.54496
0.03615,0.9738,-0.2245,0.1853,-0.01149,-0.02114
0.02568,0.98912,-0.14482,-0.21555,1.07608,0.00561
0.01333,0.99829,-0.05675,-0.12388,2.65577,0.40826
-0.00159,0.99974,0.02243,0.57955,2.69171,1.30944
-0.03109,0.99635,0.07945,1.01728,1.52321,0.52219
-0.07718,0.98891,0.12681,0.47651,1.21345,-1.03797
-0.11645,0.97673,0.18005,-0.07788,1.68853,-0.60114
-0.17476,0.95606,0.23537,-0.40876,1.06485,-0.4626
-0.21408,0.93207,0.29223,-0.1019,0.09291,-0.53787
-0.21068,0.91445,0.34552,0.61818,-0.50489,-0.97642
-0.18511,0.90306,0.38756,1.07453,-1.47204,-0.44471
-0.15889,0.90565,0.39311,1.03929,-2.20167,-0.05584
-0.13893,0.92335,0.35792,0.67741,-2.48168,-0.24646
-0.12087,0.95042,0.28649,0.13343,-2.1397,-0.60487
-0.11005,0.97281,0.20378,-0.0148,-1.45161,-0.66284
-0.11074,0.98494,0.13275,0.02878,-0.66896,-0.25752
-0.1218,0.98651,0.10931,-0.05504,0.04048,0.41825
-0.14328,0.97645,0.16124,-0.01102,0.90183,1.50786
-0.17495,0.9603,0.21725,0.12796,3.15942,1.13775
-0.18231,0.963,0.19843,0.80365,-0.32334,-1.39814
-0.20714,0.96198,0.17797,0.90474,-1.17467,-0.56248
-0.22307,0.96621,0.12909,0.9265,-1.48116,-0.37741
-0.1962,0.97897,0.05575,0.81081,-0.90997,-1.67441
-0.109,0.99324,-0.03978,0.88272,0.0622,-1.24434
0.02612,0.99729,-0.06872,0.89731,3.33306,-1.93537
0.07911,0.98822,-0.131,-1.02049,1.63463,1.41277
0.06208,0.96804,-0.24296,-1.7004,0.81659,3.89836
0.06417,0.95291,-0.29636,-0.84913,1.40828,0.55121
0.06233,0.93646,-0.34519,0.20755,0.08768,1.48739
0.08278,0.92949,-0.35942,-0.22682,-0.00516,0.93097
0.10835,0.92584,-0.36203,-0.68586,-0.36984,0.36177
0.12477,0.91938,-0.37305,-0.595,-0.77494,0.60185
0.14033,0.91414,-0.38034,-0.64275,-0.97047,0.72658
0.14633,0.91229,-0.3825,-0.9788,-0.62553,0.54893
0.12906,0.91996,-0.37015,-0.74222,-0.82412,0.97122
0.09001,0.93826,-0.33401,-0.38392,-0.75331,0.80159
0.05236,0.95478,-0.29265,0.37341,-0.74201,0.55658
0.03256,0.9715,-0.23478,0.32607,-0.53223,0.27488
0.02537,0.98771,-0.1542,0.24324,-0.09797,0.04798
0.02211,0.99746,-0.06761,-0.30611,2.08053,-0.17349
0.01079,0.99967,0.02313,-0.11049,3.10813,1.11267
-0.01362,0.99579,0.09059,0.22437,2.59024,1.02376
-0.06258,0.98882,0.1353,0.23061,1.23815,-0.23707
-0.10673,0.97537,0.19299,-0.06379,1.56204,-0.62933
-0.15074,0.95581,0.25235,-0.20435,1.45347,-0.49923
-0.17533,0.93348,0.31283,-0.03509,0.31823,-0.60668
-0.17138,0.91553,0.36389,0.58788,-0.38765,-0.62653
-0.15197,0.9042,0.39914,1.01333,-0.72056,-0.64392
-0.13435,0.9043,0.40518,1.07768,-1.80182,-0.05391
-0.12552,0.91784,0.37655,0.74975,-2.24006,-0.08067
-0.118,0.9416,0.31535,0.27712,-2.02264,-0.33868
-0.1073,0.96595,0.2354,0.00705,-1.52281,-0.42834
-0.10052,0.98132,0.16398,0.0552,-1.0039,-0.35861
-0.10199,0.98806,0.1154,0.07731,-0.46409,-0.03811
-0.11549,0.9855,0.12428,0.11241,0.28663,0.4231
-0.13996,0.97504,0.17231,0.21323,0.36407,0.94985
-0.14933,0.97397,0.1705,0.90244,1.44887,-0.3453
-0.11432,0.9823,0.14832,0.75441,1.68586,-1.159
-0.12078,0.98471,0.12546,0.28742,-0.62117,-0.17358
-0.11677,0.99004,0.07855,0.24449,-0.97251,-1.33942
-0.0843,0.99621,0.02105,0.32058,-0.79638,-1.38853
-0.00817,0.99866,-0.05109,0.40355,3.00148,-1.61469
0.08648,0.99115,-0.10067,0.20538,3.73404,-0.93339
0.09096,0.97181,-0.21751,-1.52251,1.18443,2.66377
0.08617,0.9567,-0.27803,-0.32114,1.15997,0.41983
0.08849,0.93737,-0.33689,0.11877,0.90027,0.84164
0.10497,0.92675,-0.36071,0.17844,0.27598,1.4932
0.13745,0.9184,-0.37101,-0.79393,0.09064,0.56274
0.16838,0.9114,-0.37549,-0.98003,-0.37653,0.25162
0.19087,0.90409,-0.38234,-0.47513,-1.26121,0.57595
0.19807,0.89835,-0.39207,-1.02623,-0.47473,0.8903
0.19307,0.9015,-0.38733,-1.00865,-0.58918,0.7749
0.16524,0.91743,-0.36194,-0.63057,-0.79921,0.76995
0.12026,0.93906,-0.32201,-0.11422,-0.73299,0.73572
0.08511,0.95829,-0.27281,0.29392,-0.83628,0.65092
0.07015,0.97594,-0.20642,0.29872,-0.61063,0.35234
0.06788,0.98997,-0.12385,-0.2778,1.07479,-0.06249
0.06367,0.99735,-0.03499,-0.43005,2.12299,-0.11351
0.0531,0.99771,0.0418,-0.16357,3.29694,1.18876
0.02159,0.99408,0.10646,0.34456,1.56865,-0.06482
-0.02614,0.98643,0.16205,0.11149,1.25979,-0.32441
-0.06648,0.97227,0.22418,-0.05478,1.6695,-0.64691
-0.10795,0.95434,0.27852,-0.22044,0.71743,-0.72683
-0.12388,0.93475,0.333,0.04156,0.45634,-0.57947
-0.1186,0.91851,0.37718,1.02124,-0.77219,-0.67102
-0.10103,0.90923,0.40382,1.15245,-1.116,-0.64632
-0.08293,0.91257,0.4004,1.04179,-1.94433,-0.17744
-0.06799,0.92812,0.36601,0.18452,-2.25693,-0.65555
-0.05483,0.95183,0.30165,0.04026,-2.09662,-0.80951
-0.04698,0.9731,0.2255,0.0246,-1.70104,-0.76382
-0.04947,0.98575,0.16072,0.08238,-0.60314,-0.3079
-0.05859,0.98897,0.13599,-0.01486,-0.37453,0.11404
-0.07048,0.98088,0.18136,-0.06056,0.57826,0.74716
-0.09358,0.97242,0.21361,0.52639,0.3841,-0.58206
-0.10192,0.97896,0.17674,0.98916,2.02936,-0.59606
-0.08348,0.97666,0.19788,0.49534,1.12724,-1.29775
-0.09514,0.97938,0.17821,0.1524,-1.20109,-0.15462
-0.10164,0.98846,0.11227,0.03769,-1.40139,-1.70031
-0.08161,0.99645,0.02057,0.48185,-0.72318,-1.42225
0.01257,0.99865,-0.05034,0.40237,2.49986,-1.69349
0.11275,0.98832,-0.10249,-0.01636,3.69392,-0.77192
0.09871,0.97297,-0.20874,-1.65013,0.75777,3.46088
0.09591,0.96006,-0.26283,0.27237,0.96885,0.99637
0.103,0.94449,-0.31196,0.55322,0.46602,1.04521
0.12788,0.93504,-0.33066,0.64403,0.14562,1.18488
0.16314,0.92677,-0.33835,-0.30889,-0.32653,0.62784
0.19503,0.91781,-0.34581,-0.69258,-1.28512,0.20071
0.21368,0.90752,-0.36159,-0.5551,-1.33852,0.82836
0.22651,0.90119,-0.36953,-1.1333,-0.48592,0.66108
0.21998,0.9057,-0.36238,-0.78297,-0.8123,0.51033
0.18282,0.9211,-0.34371,-0.74581,-0.8277,0.49166
0.13859,0.93978,-0.31241,0.04583,-0.78505,0.73386
0.11399,0.95623,-0.26949,0.08422,-0.6151,0.21862
0.09841,0.97335,-0.2071,0.0998,-0.63223,0.15623
0.08186,0.98804,-0.13064,-0.51541,0.84564,0.00935
0.05678,0.99692,-0.05396,-0.35384,2.49615,0.66698
0.02566,0.9996,0.01143,-0.32271,2.49347,0.60159
-0.00746,0.99746,0.07069,0.74847,1.55457,0.53367
-0.02957,0.99212,0.12171,0.8918,1.44099,-0.85569
-0.055,0.98505,0.16324,0.61783,1.67326,-0.95155
-0.10883,0.97326,0.20226,-0.2101,1.67837,-0.23099
-0.17063,0.95358,0.24809,-0.32586,0.04009,-0.36462
-0.19229,0.93596,0.29492,-0.07147,-0.32412,-0.7114
-0.18532,0.92401,0.33444,0.75052,-0.90861,-0.65343
-0.16883,0.92073,0.35176,0.98173,-1.718,-0.07132
-0.15126,0.93015,0.33455,0.91481,-1.94977,-0.02668
-0.12785,0.9491,0.28782,0.35754,-1.94697,-0.54262
-0.09577,0.97084,0.21974,0.15032,-1.71092,-0.56401
-0.06583,0.9849,0.16005,0.03852,-1.26394,-0.46568
-0.05776,0.9896,0.1317,-0.18209,-0.07886,0.30861
-0.07224,0.98449,0.15986,-0.13193,0.27009,0.44895
-0.09861,0.97094,0.21802,0.10928,0.46956,1.46983
-0.13012,0.96264,0.23744,0.02647,2.42103,-1.37662
-0.13653,0.95914,0.24779,0.42001,1.58084,-1.7954
-0.16239,0.95578,0.24516,0.55547,-1.76182,0.48953
-0.18041,0.9637,0.19679,0.11254,-1.86093,-2.02866
-0.18423,0.97537,0.12122,0.3611,-1.21117,-1.47948
-0.12928,0.99143,0.01879,0.7032,0.56148,-0.9161
0.01622,0.99975,-0.01537,0.76767,4.42433,-1.51672
0.07417,0.99508,-0.06553,0.58336,3.80205,-0.6819
0.05513,0.98464,-0.16563,-1.00641,0.58761,2.33639
0.05441,0.97233,-0.22718,-0.17151,1.24108,0.39981
0.04798,0.95729,-0.28511,0.41427,0.40147,1.20938
0.06707,0.94829,-0.31022,0.38288,0.03593,1.57122
0.10167,0.94209,-0.31956,-0.5104,-0.17238,0.6514
0.13106,0.93767,-0.32185,-0.81965,-0.73166,0.28688
0.14906,0.93457,-0.32304,-0.62935,-1.18847,0.6843
0.1526,0.93644,-0.3159,-1.07527,-0.8666,0.43698
0.13164,0.94392,-0.30278,-0.93691,-0.77525,0.54686
0.09242,0.95747,-0.2733,-0.45276,-0.83458,0.67197
0.0544,0.97039,-0.23531,0.35183,-0.76257,0.54751
0.03213,0.98162,-0.18808,0.51174,-0.6565,0.43956
0.02331,0.99196,-0.12432,0.49575,-0.42803,0.17274
0.01445,0.99913,-0.03903,-0.1581,0.91492,-0.33391
0.00348,0.99912,0.04172,-0.32757,2.95184,0.15681
-0.0198,0.99471,0.10072,0.38749,1.47373,0.92525
-0.06615,0.9849,0.15998,0.8273,1.14378,0.70047
-0.10621,0.97107,0.21384,0.6417,0.77534,0.0858
-0.1269,0.95552,0.26619,0.7777,0.81836,-0.65866
-0.13796,0.9464,0.29203,0.47652,1.18612,-1.39746
-0.16364,0.92998,0.32915,-0.0924,0.89218,-0.18965
-0.19928,0.91253,0.35717,-0.02412,0.14267,0.01157
-0.21658,0.90468,0.36694,0.35014,-0.48068,-0.24932
-0.21943,0.90546,0.36328,0.74256,-1.17301,0.04389
-0.22011,0.91682,0.33313,0.8488,-1.69882,0.19187
-0.20985,0.9363,0.2816,0.72668,-1.71263,-0.28593
-0.18654,0.95588,0.22692,0.51892,-1.37803,-0.64918
-0.16429,0.97139,0.17149,0.25922,-0.86738,-0.71988
-0.15729,0.97832,0.13467,-0.39433,-0.21268,-0.18443
-0.18913,0.97061,0.14879,-1.12752,0.24756,0.74308
-0.23892,0.95593,0.17062,-0.85808,-0.24508,0.58779
-0.27299,0.94934,0.15562,0.08197,-0.64374,-0.63489
-0.23954,0.93873,0.2478,1.00016,3.43759,1.64348
-0.21944,0.94212,0.25347,0.86933,2.48235,-0.25611
-0.2613,0.93474,0.24077,0.5823,-0.59423,-1.41532
-0.3038,0.92643,0.22233,0.58914,-1.33141,-0.54492
-0.30305,0.9397,0.15848,0.76063,-1.06783,-0.47422
-0.23385,0.9656,0.11363,0.68742,0.52133,-0.04717
-0.16649,0.9786,0.12087,-0.28375,1.78867,-0.35212
-0.15182,0.98355,0.09777,-0.59816,0.98922,0.00154
-0.15242,0.98644,0.06071,-0.3905,-0.2105,0.30855
-0.1368,0.98989,0.03733,-0.14963,-0.09818,0.10165
-0.12109,0.99244,0.01994,-0.01333,0.13166,0.53463
-0.10894,0.994,0.00963,-0.37384,0.09463,0.66208
-0.10774,0.99415,0.0062,-0.48308,0.00105,0.67439
-0.11537,0.99327,0.00989,-0.19289,-0.42082,0.35321
-0.12969,0.99132,0.02132,0.19879,-0.70098,0.14439
-0.14364,0.98869,0.04308,0.47759,-0.98808,0.10818
-0.15629,0.98486,0.07486,0.62766,-1.01685,0.13785
-0.16645,0.97929,0.11519,0.41004,-0.78814,-0.09697
-0.16602,0.97264,0.16248,0.10059,-0.10487,0.55518
-0.16498,0.96743,0.19195,0.12119,1.32776,0.75727
-0.17794,0.96205,0.20685,0.47454,1.93006,-0.08342
-0.21297,0.9511,0.22371,0.57993,1.1322,0.08313
-0.25356,0.93815,0.23571,0.73873,0.64342,0.19556
-0.28018,0.92911,0.24131,0.69243,0.16668,0.22491
-0.29334,0.92346,0.24731,0.39936,0.1648,0.14849
-0.29884,0.92009,0.25323,0.38064,0.16646,0.22483
-0.29616,0.92152,0.25115,0.39711,-0.10299,-0.0324
-0.28212,0.92768,0.24454,0.24239,-0.2062,-0.17392
-0.26256,0.93815,0.22564,0.23058,-0.14746,-0.11825
-0.24167,0.95112,0.19221,0.46809,-0.24051,-0.10218
-0.21636,0.96486,0.14905,0.53369,-0.51592,-0.1356
-0.18427,0.97802,0.09747,0.46894,-0.63044,-0.27174
-0.14825,0.98796,0.04409,0.16116,-0.46049,-0.46554
-0.11153,0.99373,0.00742,-0.36852,0.02489,-0.35759
-0.08981,0.99588,-0.01193,-1.0436,0.14535,0.22546
-0.0887,0.99567,-0.0275,-1.17303,-0.39231,0.64572
-0.09987,0.9947,-0.02439,-0.69178,-0.69367,0.70441
-0.12055,0.99266,0.00874,-0.04245,-0.68805,0.32172
-0.13052,0.99071,0.03799,0.57481,-0.31583,0.36764
-0.13667,0.99,0.03463,0.23843,1.69194,-0.03566
-0.15624,0.98741,0.02448,-0.00085,1.16149,-0.93972
-0.17814,0.9838,0.01958,0.37184,0.17852,-0.4765
-0.19284,0.98121,-0.00452,0.62152,-0.25992,0.12729
-0.19009,0.98145,-0.02478,0.69175,-0.27207,-0.01647
-0.15726,0.98673,-0.04038,0.60068,0.18761,-0.35861
-0.11431,0.992,-0.05349,0.07797,1.23868,-0.49578
-0.09834,0.99222,-0.0763,-0.321,0.87448,-0.53288
-0.09115,0.98916,-0.11511,-0.62964,0.42175,-0.25164
-0.07277,0.98607,-0.14955,-0.58054,0.42105,-0.41899
-0.05062,0.98188,-0.18258,-0.6381,0.39478,-0.52137
-0.03597,0.97615,-0.21409,-0.69374,0.07523,0.16322
-0.02008,0.9721,-0.23368,-0.24315,0.176,0.43133
-0.00634,0.96797,-0.25096,-0.13703,0.21813,0.61272
0.01211,0.96596,-0.25839,-0.26438,0.26071,1.03166
0.03588,0.96654,-0.254,-0.47103,0.31037,1.06659
0.05253,0.9704,-0.23572,-0.67795,-0.33285,0.62524
0.05905,0.9761,-0.20914,-0.4805,-0.58981,0.54535
0.05616,0.98239,-0.1782,-0.30779,-0.73788,0.34389
0.04436,0.98836,-0.14547,-0.23473,-0.80904,0.25741
0.02744,0.99346,-0.11076,-0.01523,-0.83531,0.56312
0.01015,0.99758,-0.06869,0.16382,-0.72355,0.74026
-0.00377,0.99993,-0.01047,0.25687,-0.56492,0.57177
-0.01346,0.9988,0.04686,0.3961,0.74579,-0.15652
-0.01713,0.99429,0.10526,0.3036,1.46823,-0.49117
-0.01752,0.98385,0.1781,0.32367,1.73411,-0.05638
-0.03714,0.97178,0.23294,-0.03712,1.20051,0.4124
-0.06528,0.95778,0.27997,-0.26135,1.5016,0.03004
-0.09036,0.93373,0.34637,-0.38886,1.55686,-0.01216
-0.09601,0.9018,0.42134,-0.49276,1.0793,-0.20431
-0.09688,0.87313,0.47775,-0.02361,0.68177,-0.27786
-0.09207,0.84905,0.5202,0.20497,0.43493,-0.37215
-0.0705,0.82786,0.55647,0.6554,-0.14851,-0.58697
-0.03778,0.81239,0.58187,0.54907,-0.72133,-0.38866
-0.00866,0.80874,0.58808,0.4484,-0.8595,-0.21926
0.00999,0.81765,0.57562,0.32151,-1.47231,-0.3547
0.01985,0.83619,0.54806,0.22352,-1.42976,-0.37414
0.02265,0.85932,0.51092,0.00706,-1.27471,-0.38923
0.01454,0.88212,0.47079,-0.0768,-1.04,-0.53294
-0.00128,0.89829,0.43939,-0.06259,-0.7809,-0.43019
-0.02387,0.90429,0.42624,-0.18085,-0.4809,-0.24606
-0.0569,0.91118,0.40803,0.07382,-0.70098,-0.73923
-0.08434,0.92543,0.3694,1.47398,-0.73547,0.0716
-0.0632,0.92501,0.37464,1.07092,1.06497,1.72517
-0.05311,0.94686,0.3172,-0.54157,1.23417,-1.12271
-0.06332,0.95963,0.27402,-0.68414,-0.13154,-0.8707
-0.0683,0.96386,0.25749,-0.61552,-0.23891,-0.61514
-0.03565,0.97654,0.21233,-0.65289,0.13698,-0.56562
0.0161,0.98702,0.15972,-0.22452,1.68384,-0.64707
0.0644,0.99161,0.11204,-0.28147,1.70555,-0.76637
0.08849,0.99512,0.04353,-0.45217,0.40719,0.01178
0.09757,0.99471,-0.03201,0.13006,0.52865,0.87816
0.10719,0.99078,-0.08282,0.30563,0.81937,0.96991
0.11953,0.98681,-0.10909,0.02189,0.33182,1.33152
0.13679,0.98354,-0.11798,-0.49795,-0.09945,0.8965
0.152,0.98208,-0.11135,-0.63012,-0.39276,0.57531
0.15976,0.98171,-0.10347,-0.53505,-0.93012,0.3641
0.16263,0.98265,-0.08912,-0.54674,-1.0737,0.20733
0.15741,0.98507,-0.06961,-0.7155,-0.8847,0.20893
0.13464,0.98978,-0.0468,-0.76086,-0.70347,0.34412
0.09746,0.99516,-0.01186,-0.30791,-0.65784,0.57349
0.06004,0.99742,0.03924,0.02507,-0.7201,0.33466
0.04089,0.99344,0.10677,0.29012,-0.19322,-0.28777
0.03528,0.98536,0.16676,0.06511,1.1466,-0.43613
0.04221,0.96828,0.24625,-0.00668,1.57066,-0.43953
0.02905,0.94958,0.31214,0.33339,2.29096,0.67797
-0.01759,0.93633,0.35067,-0.05461,1.34149,-0.11034
-0.05708,0.91532,0.39863,-0.07376,1.26949,-0.33795
-0.07323,0.88363,0.4624,-0.22409,1.41149,-0.58397
-0.07596,0.85179,0.51834,-0.10835,1.213,-0.71261
-0.06412,0.82699,0.55854,0.30689,0.546,-0.53603
-0.04265,0.81075,0.58382,0.72905,-0.18252,-0.73655
-0.01665,0.80474,0.59338,0.74025,-0.57405,-0.7068
0.00125,0.81305,0.58217,0.62024,-1.3891,-0.33962
0.00494,0.83456,0.55088,0.30003,-1.8424,-0.35218
0.00543,0.86574,0.50045,0.16747,-1.78819,-0.41824
0.01066,0.89787,0.44011,0.03185,-1.67791,-0.51221
0.01425,0.92059,0.39025,-0.16978,-0.8944,-0.58706
0.0097,0.93149,0.36361,-0.18074,-0.34011,-0.28698
-0.01058,0.9194,0.39316,-0.21728,0.38492,0.54817
-0.0716,0.89374,0.44282,0.0691,0.95775,1.07787
-0.09161,0.89652,0.43341,0.97456,1.51467,-1.62873
-0.09723,0.90597,0.41201,0.95247,0.08537,-0.68495
-0.10433,0.91616,0.38698,0.53247,-0.78653,-0.15546
-0.1057,0.93533,0.3376,0.23515,-0.52703,-1.89629
-0.08566,0.96051,0.2647,0.36358,-0.07388,-1.57446
-0.01435,0.9786,0.20526,0.45051,1.86476,-1.53758
0.06119,0.98685,0.1496,-0.46266,3.20636,-0.1227
0.07946,0.99273,0.09029,-1.13878,0.75858,0.71389
0.0853,0.99619,0.01803,-0.73372,0.71531,-0.03657
0.09092,0.99501,-0.04094,-0.06569,0.659,0.60253
0.10508,0.99239,-0.06406,0.23072,0.64886,1.29053
0.1238,0.98934,-0.07665,-0.44365,0.2263,0.64682
0.13734,0.98724,-0.08056,-0.76156,-0.48416,0.05308
0.14724,0.98527,-0.08693,-0.77146,-0.48219,0.05945
0.15782,0.98325,-0.09108,-0.71981,-1.16377,0.29275
0.15545,0.98394,-0.08765,-0.72391,-0.80885,0.17023
0.13012,0.98894,-0.07112,-0.69859,-0.81384,0.1537
0.08521,0.99572,-0.03556,-0.52425,-0.9026,0.7314
0.0483,0.99881,0.00625,0.26186,-0.89993,0.52613
0.03839,0.997,0.0671,0.5477,-0.7375,0.4149
0.04595,0.988,0.14742,0.35844,-0.07513,-0.13869
0.05673,0.97188,0.2285,0.18488,2.50482,-0.53379
0.06279,0.94862,0.31009,-0.0123,2.95448,-0.49646
0.03718,0.9302,0.36514,-0.01606,1.98258,0.47022
-0.01611,0.91671,0.39921,-0.17723,1.35411,-0.06464
-0.0509,0.89495,0.44324,-0.07874,1.32905,-0.15398
-0.07171,0.87145,0.4852,-0.06848,1.44386,-0.64543
-0.06637,0.84695,0.5275,0.17176,0.60186,-0.78795
-0.0457,0.82678,0.56065,0.31024,0.2764,-0.77438
-0.02038,0.81317,0.58165,0.68677,-0.51303,-0.82106
0.01031,0.81226,0.58319,0.7264,-1.44655,-0.20821
0.03173,0.82696,0.56136,0.62748,-1.71871,-0.05829
0.04652,0.8521,0.52129,0.09752,-1.77231,-0.45954
0.0559,0.87992,0.47181,-0.10424,-1.5541,-0.61741
0.0538,0.9032,0.42581,-0.19683,-0.75341,-0.55335
0.03712,0.91867,0.39327,-0.10064,-0.45384,-0.23842
0.00999,0.91627,0.40042,-0.12534,-0.18246,-0.02485
-0.03056,0.90534,0.42356,-0.24605,-0.18473,0.25089
-0.0777,0.9078,0.41213,0.53149,-0.11098,-0.74383
-0.0538,0.90895,0.41339,1.51884,2.94992,0.13379
-0.05605,0.91379,0.40229,0.00545,0.50388,-0.77106
-0.06352,0.92478,0.37514,-0.1089,-0.76453,-1.27355
-0.06453,0.93783,0.34102,0.02989,-0.73054,-1.26416
-0.03795,0.95748,0.28598,0.40684,0.15573,-1.55668
0.05302,0.97393,0.22054,0.77002,3.50967,-1.25658
0.09885,0.98629,0.13211,-0.80443,1.34709,0.63193
0.10612,0.99247,0.0611,-0.99844,0.69381,1.13108
0.11056,0.99386,-0.00305,-0.10775,0.96149,0.32906
0.11829,0.99224,-0.03818,0.43406,0.52216,0.91597
0.13725,0.98926,-0.05021,0.06551,0.08305,1.03901
0.15929,0.9859,-0.05121,-0.70146,-0.18011,0.31975
0.17552,0.98319,-0.05015,-0.87087,-0.72741,0.0016
0.18564,0.9811,-0.0545,-0.47639,-1.26754,0.20972
0.18842,0.98054,-0.05501,-1.00639,-0.76523,0.35149
0.17185,0.98391,-0.04876,-0.81945,-0.81454,0.55135
0.13265,0.99089,-0.02319,-0.61994,-0.85199,0.53122
0.09019,0.99589,0.00744,-0.19122,-0.79847,0.40183
0.06545,0.99643,0.05329,0.18018,-0.50413,-0.178
0.06036,0.99096,0.11977,0.06974,-0.00478,-0.30155
0.06716,0.9793,0.19089,-0.49691,2.21344,-0.43543
0.07501,0.96178,0.26334,-0.03168,2.56116,0.70892
0.03685,0.94522,0.32432,0.36526,2.18132,0.61236
-0.02259,0.92979,0.36739,0.74995,1.37344,-0.00365
-0.057,0.91018,0.41025,0.13403,1.45958,-0.8244
-0.08003,0.89016,0.44854,-0.09261,1.77587,-0.83663
-0.10132,0.86636,0.48901,-0.29672,1.17338,-0.76066
-0.10121,0.84254,0.52902,0.09603,0.2594,-0.53114
-0.08229,0.82703,0.55609,0.42178,0.11225,-0.84417
-0.04582,0.81626,0.57585,0.77616,-0.86028,-0.85896
-0.01887,0.82115,0.57039,0.74607,-1.9931,-0.08303
-0.00605,0.84171,0.53989,0.63355,-2.11505,-0.2032
0.0054,0.871,0.49123,0.21166,-1.86452,-0.51197
0.01383,0.89996,0.43574,-0.07285,-1.15341,-0.70664
0.00935,0.92187,0.38737,-0.04486,-0.94499,-0.61749
-0.00501,0.93034,0.36666,0.07711,-0.52737,-0.38689
-0.02576,0.91666,0.39883,0.08689,0.38533,0.5924
-0.07007,0.88866,0.45317,0.23627,0.94269,1.52963
-0.08829,0.89454,0.43817,0.44481,1.85593,-1.51805
-0.09581,0.90837,0.40703,0.54251,1.06876,-1.90054
-0.10568,0.91943,0.37877,0.47367,-0.65252,-0.6052
-0.11094,0.93421,0.33903,0.21099,-0.90764,-1.61788
-0.09318,0.95659,0.27612,0.38366,-0.7764,-1.5074
-0.00042,0.97789,0.20909,0.6049,2.56775,-1.36395
0.08514,0.98723,0.13461,-0.25274,3.16543,-0.79509
0.09387,0.99465,0.04309,-1.36928,0.73895,1.86809
0.09595,0.99505,-0.02577,-0.59711,0.9497,0.4658
0.09915,0.99193,-0.07895,0.24738,0.73994,0.78892
0.11423,0.98858,-0.09821,0.36154,0.24411,1.29055
0.14036,0.98429,-0.10712,-0.40924,0.01753,0.65504
0.16316,0.9804,-0.11041,-0.86438,-0.5149,-0.08061
0.18098,0.97602,-0.12094,-0.65452,-1.22318,0.12031
0.19085,0.97261,-0.13265,-0.87881,-1.10707,0.55135
0.18524,0.97328,-0.13567,-0.89042,-0.71641,0.44538
0.15487,0.9807,-0.11927,-0.74989,-0.84077,0.56859
0.10732,0.99019,-0.0894,-0.59448,-0.87256,0.58086
0.07222,0.99644,-0.04338,0.25488,-0.78595,0.45657
0.0606,0.99781,0.02626,0.16901,-0.02255,-0.17622
0.05889,0.99321,0.1003,0.12509,0.50743,-0.13394
0.06109,0.98189,0.17932,-0.07516,1.72882,0.14952
0.05575,0.96522,0.25538,0.30501,2.29587,0.50844
0.01951,0.94747,0.31924,0.33348,1.89285,0.26835
-0.01504,0.92929,0.36904,-0.30676,1.85135,-0.92537
-0.04502,0.90599,0.42088,-0.44316,1.80504,-0.68536
-0.07101,0.88214,0.46559,-0.41716,1.82889,-0.73007
-0.07061,0.85607,0.51199,0.29722,0.31757,-0.82211
-0.04896,0.83266,0.55161,0.76096,-0.58083,-0.88518
-0.01719,0.8198,0.57237,0.85792,-1.1919,-0.70488
0.01329,0.82244,0.56869,0.87595,-1.93555,-0.31645
0.03055,0.83971,0.54216,0.32154,-2.11979,-0.59301
0.03825,0.86852,0.49417,0.11629,-2.08533,-0.74516
0.03901,0.90123,0.43158,-0.00222,-1.84411,-0.97541
0.03164,0.92709,0.37349,0.11013,-0.70652,-0.56032
0.02413,0.93743,0.34733,0.06359,-0.38242,-0.15179
0.01019,0.9241,0.382,-0.08781,0.83486,0.4547
-0.02364,0.89705,0.44129,-0.00346,2.7125,2.47491
-0.06433,0.89477,0.44185,-0.14392,2.93708,-1.33301
-0.08299,0.90127,0.42522,0.64673,-0.05021,-2.23335
-0.10611,0.9148,0.38969,0.65904,-1.60917,-0.33717
-0.11793,0.94144,0.31588,0.2751,-1.52847,-1.55175
-0.07331,0.97358,0.21623,0.53388,-0.92213,-1.65869
0.05425,0.98098,0.18636,0.70835,4.60983,-2.70609
0.16149,0.97993,0.1168,0.47381,4.70003,-1.25316
0.16595,0.98583,0.0241,-1.34543,1.13476,2.4735
0.16069,0.98646,-0.03276,-0.8737,1.38961,0.95781
0.158,0.98469,-0.07362,0.053,0.60845,0.88015
0.16903,0.98174,-0.08722,-0.24194,-0.45084,0.5979
0.18495,0.97843,-0.09194,-0.62926,-0.645,0.08209
0.19838,0.97454,-0.10445,-0.64754,-1.30105,-0.07911
0.20706,0.97097,-0.11973,-0.63824,-1.145,0.6815
0.20423,0.97131,-0.1218,-0.91154,-0.48456,0.76067
0.1813,0.97797,-0.10344,-0.66436,-0.76845,0.5186
0.14198,0.98727,-0.07165,-0.42305,-0.77531,0.52143
0.10854,0.99356,-0.03247,0.22909,-0.77087,0.43316
0.09596,0.99499,0.02775,0.28887,-0.62845,0.14114
0.09606,0.98949,0.10806,-0.02653,0.35327,-0.18077
0.10413,0.9761,0.19073,-0.53363,1.82365,-0.5066
0.11418,0.95625,0.26934,-0.35202,2.88175,0.63963
0.07329,0.93601,0.34423,0.4746,2.14532,0.51269
0.00989,0.91728,0.39811,0.72406,1.44532,-0.49517
-0.01914,0.89618,0.44327,0.16933,1.66016,-0.97768
-0.04756,0.87561,0.48066,-0.28409,1.556,-0.79853
-0.06518,0.8536,0.51682,-0.36315,0.48324,-0.64986
-0.06103,0.83504,0.54678,0.09225,-0.03696,-0.79336
-0.03678,0.82221,0.56799,0.78188,-0.63994,-0.92948
-0.00859,0.82098,0.57088,0.89396,-1.93658,-0.25522
0.01413,0.8354,0.54945,0.76302,-2.20601,-0.22671
0.03297,0.86255,0.50488,0.31525,-2.23702,-0.68086
0.04538,0.89389,0.44598,-0.08383,-1.2563,-0.82284
0.03842,0.9201,0.38977,-0.03178,-0.8858,-0.59832
0.01596,0.93017,0.36677,0.01157,-0.19668,-0.00751
-0.01046,0.91725,0.39816,0.0456,0.54046,0.73028
-0.04388,0.89365,0.44659,0.04135,0.50294,1.04841
-0.08948,0.89375,0.43953,0.28394,0.72757,-0.2607
-0.10012,0.9055,0.41234,0.28258,1.14857,-1.78034
-0.12518,0.9146,0.38448,0.06185,-0.2869,-0.75713
-0.13879,0.93025,0.33964,-0.10711,-0.99384,-0.77636
-0.12868,0.95575,0.26451,0.53315,-0.77165,-1.34125
-0.06132,0.98133,0.18229,0.67982,-0.06607,-1.1608
0.06718,0.98759,0.14191,0.9287,3.33261,-1.78937
0.10751,0.99299,0.049,-1.20135,1.31476,1.74416
0.10908,0.9939,-0.01623,-1.31193,0.95755,2.39935
0.11558,0.99121,-0.06438,-0.09076,1.09498,0.82727
0.12346,0.98803,-0.0925,0.36548,-0.01575,0.93593
0.1432,0.9843,-0.10318,0.14849,-0.2247,0.79158
0.16503,0.9808,-0.10391,-0.63428,-0.58626,0.07909
0.18279,0.97603,-0.11807,-0.8466,-1.25199,0.38291
0.18595,0.97432,-0.12691,-1.03345,-1.10851,0.48859
0.16803,0.97816,-0.1223,-0.97,-0.74867,0.55882
0.12545,0.9875,-0.09542,-0.72878,-0.84116,0.67529
0.08236,0.99463,-0.06258,-0.2347,-0.7287,0.56212
0.06131,0.99802,-0.01359,0.27333,-0.36371,-0.16762
0.0565,0.99675,0.05737,0.1328,0.17729,-0.2704
0.05762,0.98894,0.13664,-0.01426,0.66278,-0.17009
0.06681,0.97287,0.22146,-0.28563,2.77478,0.27593
0.04348,0.95442,0.29525,0.10625,2.83935,0.83532
-0.01729,0.93588,0.35188,0.88135,1.78565,0.5988
-0.05491,0.91281,0.40466,0.46093,1.91128,-1.1237
-0.0731,0.88866,0.45268,-0.11028,1.75948,-0.84523
-0.09356,0.85824,0.50463,-0.15762,1.09948,-0.59703
-0.09914,0.83014,0.54865,0.34618,-0.29087,-0.82546
-0.08265,0.80992,0.58068,0.59146,-0.64969,-0.93961
-0.0515,0.80046,0.59716,0.70108,-1.9,-0.29914
-0.02261,0.81004,0.58592,0.49149,-2.31273,-0.28792
-0.00178,0.83867,0.54462,0.12023,-2.158,-0.70938
0.01279,0.8792,0.47628,-0.05532,-1.67291,-0.84594
0.01405,0.91259,0.40862,-0.10336,-0.77693,-0.56636
-0.00499,0.93084,0.36537,-0.12695,-0.03449,-0.1013
-0.03621,0.92672,0.37399,0.02065,0.61976,0.35171
-0.06802,0.90285,0.42452,0.06592,0.48996,1.48273
-0.1112,0.89247,0.43717,0.62195,1.15796,-1.25409
-0.11428,0.89968,0.42132,1.39046,1.93315,-1.14457
-0.12034,0.90479,0.40848,0.35156,-0.70915,-0.35886
-0.1408,0.92075,0.36383,0.20031,-1.00884,-1.41082
-0.14768,0.94832,0.28084,0.48176,-0.9086,-1.95164
-0.10331,0.97526,0.19541,0.66231,0.87572,-1.37676
0.00907,0.98695,0.16075,0.63815,4.55474,-1.70648
0.07635,0.99527,0.06001,-1.30084,1.49144,1.4276
0.06875,0.99742,-0.02037,-1.16204,0.8326,1.34801
0.07077,0.99491,-0.07168,0.09852,0.98371,0.94476
0.07562,0.991,-0.11041,0.43697,0.20214,1.07488
0.09486,0.98834,-0.11905,-0.04146,-0.28227,0.72493
0.11518,0.98607,-0.11995,-0.6625,-1.10619,0.05059
0.13416,0.98255,-0.12876,-0.60309,-1.32261,0.18514
0.14892,0.97966,-0.1345,-1.06585,-0.67813,0.32997
0.15057,0.97919,-0.13604,-0.85451,-0.76428,0.48551
0.12509,0.98503,-0.11861,-0.73704,-0.8237,0.65197
0.08053,0.99318,-0.08424,-0.34747,-0.76187,0.49612
0.04607,0.9979,-0.04535,0.28319,-0.64563,0.1434
0.03496,0.99918,0.02027,0.2135,-0.21828,-0.19149
0.03896,0.99414,0.10083,-0.02526,0.86043,-0.33635
0.0435,0.98139,0.18703,-0.00055,2.48742,0.5343
0.03216,0.96525,0.25934,0.24071,2.51637,0.6243
-0.01423,0.94691,0.32116,0.58167,1.55988,0.24705
-0.04919,0.9244,0.37824,0.26969,1.6027,-1.31259
-0.05335,0.90098,0.43055,-0.11381,1.99191,-0.79909
-0.08246,0.87873,0.47013,-0.43042,1.53843,-0.68795
-0.09653,0.85498,0.50959,-0.00944,0.21977,-0.75966
-0.085,0.83334,0.54618,0.27824,-0.06997,-0.94149
-0.05723,0.81573,0.57559,0.86479,-0.83093,-0.79222
-0.03254,0.81314,0.58115,0.97189,-2.0576,-0.12638
-0.01903,0.83008,0.55731,0.55298,-2.20575,-0.47766
-0.00674,0.86041,0.50955,0.1094,-1.97532,-0.88757
0.00814,0.89467,0.44664,-0.06812,-1.67694,-0.8606
0.01007,0.92056,0.39045,-0.06498,-0.59908,-0.4635
-0.00247,0.9327,0.36063,-0.19585,0.08244,0.12954
-0.02444,0.92221,0.38591,-0.09817,0.34423,0.21094
-0.04836,0.89971,0.43379,0.0797,0.34851,0.93312
-0.09175,0.88367,0.45901,0.48262,1.70223,-1.62422
-0.09832,0.89198,0.44124,0.49059,1.31986,-1.78007
-0.12215,0.89764,0.42344,-0.04866,-0.93129,-0.02792
-0.15896,0.91065,0.38137,0.07361,-0.9444,-1.7127
-0.18542,0.93082,0.31494,0.47593,-0.64824,-1.61381
-0.15505,0.9639,0.21644,0.74451,0.98275,-0.95135
-0.03319,0.98533,0.16738,0.98494,3.79668,-1.3737
0.04215,0.99042,0.13145,-0.86212,1.41632,-0.14113
0.05303,0.99789,0.03727,-1.07812,0.66622,1.84368
0.06043,0.99795,-0.0211,0.16423,0.73672,0.78782
0.06139,0.99591,-0.06622,0.28714,0.37906,1.08522
0.07172,0.99349,-0.08851,0.21098,0.1427,1.1686
0.09041,0.99153,-0.09316,-0.59388,-0.43245,0.20337
0.10976,0.98885,-0.1006,-0.41043,-1.1035,0.43923
0.12948,0.98563,-0.10842,-0.33247,-1.18233,0.5621
0.13914,0.98459,-0.10587,-1.01425,-0.65512,0.3354
0.12842,0.98735,-0.09299,-0.68056,-0.83667,0.60927
0.09384,0.99397,-0.05668,-0.49707,-0.8431,0.54389
0.056,0.99832,-0.01442,0.10558,-0.83289,0.3399
0.03716,0.99855,0.03872,0.30497,-0.75676,0.07286
0.0368,0.99276,0.11426,0.05419,0.16202,-0.21297
0.04384,0.97851,0.20147,-0.38325,1.66943,-0.59128
0.05827,0.95634,0.28635,0.00075,2.34882,0.99297
0.03159,0.93588,0.35088,0.45155,2.01187,0.95006
-0.03955,0.9166,0.39782,0.77091,1.6095,-0.39976
-0.08105,0.89246,0.44378,-0.03866,1.90848,-0.5718
-0.10575,0.86453,0.49131,-0.01396,1.9364,-0.61933
-0.12072,0.83635,0.53473,-0.24802,0.72894,-0.71118
-0.10857,0.80975,0.57663,0.36675,-0.39981,-0.8895
-0.07428,0.79153,0.60659,0.69199,-0.82353,-0.89656
-0.03851,0.78715,0.61555,0.86886,-1.62095,-0.43385
-0.01785,0.80347,0.59507,0.5591,-2.06247,-0.40873
-0.00808,0.83629,0.54822,0.36225,-2.00061,-0.46305
0.00392,0.87548,0.48323,0.04674,-1.6469,-0.70022
0.01752,0.90805,0.41848,-0.0751,-0.7563,-0.63613
0.01715,0.93025,0.3665,-0.05945,-0.52441,-0.49993
-0.00274,0.93677,0.34992,-0.11107,0.09231,-0.12108
-0.03412,0.92297,0.38335,-0.13127,0.13172,0.78064
-0.07692,0.90704,0.41396,0.22852,0.35911,0.5034
-0.11249,0.91119,0.39633,0.77999,3.54318,-0.74975
-0.10266,0.91158,0.39809,0.58418,2.18875,-1.51636
-0.13195,0.91338,0.38511,0.14735,-0.88381,0.03524
-0.15618,0.92954,0.334,0.41987,-1.2777,-1.93409
-0.15552,0.95329,0.25892,0.6085,-1.00113,-1.5592
-0.08271,0.98014,0.1802,0.80795,3.08945,-1.68574
0.0331,0.98876,0.14575,-0.34473,2.5295,-0.95373
0.07204,0.9955,0.06142,-1.55452,0.56819,2.28912
0.07695,0.99699,-0.009,-1.19946,0.61261,1.73694
0.08286,0.99474,-0.0601,0.37256,0.73884,0.87399
0.09249,0.99184,-0.08772,0.36489,0.07585,1.15898
0.11055,0.98928,-0.09534,0.02586,-0.05552,0.95439
0.13043,0.98736,-0.08999,-0.81237,-0.60342,0.08697
0.14754,0.98451,-0.09468,-0.57793,-1.20569,0.34895
0.16168,0.98177,-0.09992,-0.62451,-1.19594,0.38459
0.16009,0.98208,-0.09939,-0.97341,-0.72041,0.33049
0.13285,0.98755,-0.08423,-0.75707,-0.82151,0.78638
0.08617,0.99522,-0.0458,-0.52138,-0.86729,0.67112
0.04878,0.99878,-0.00711,0.36957,-0.91956,0.19435
0.03759,0.99787,0.05314,0.32859,-0.39518,-0.11663
0.04486,0.99033,0.13128,0.22444,0.14809,-0.13042
0.05758,0.97577,0.21104,-0.18488,2.39517,-0.46869
0.06681,0.95498,0.28902,-0.0008,2.65247,0.96855
0.02005,0.93806,0.34588,0.2544,2.26684,0.83425
-0.04078,0.92287,0.38294,0.028,1.59666,-0.82921
-0.0753,0.9007,0.42784,-0.17539,1.65836,-0.46259
-0.10336,0.87676,0.46968,-0.23001,1.39476,-0.59633
-0.10084,0.85182,0.51403,-0.0602,0.31113,-0.69176
-0.07654,0.83217,0.54919,0.49831,-0.20481,-0.85144
-0.04346,0.81881,0.57241,0.90948,-0.90305,-0.66778
-0.01293,0.81931,0.57319,0.82049,-1.55239,-0.21055
0.00462,0.83569,0.54917,0.64041,-1.94765,-0.18358
0.01372,0.86273,0.50547,0.30144,-1.9663,-0.47092
0.02353,0.89425,0.44693,0.07062,-1.56623,-0.75946
0.02688,0.91853,0.39441,-0.04078,-0.83636,-0.6621
0.01586,0.93333,0.35865,-0.1274,-0.33972,-0.31174
-0.0082,0.92614,0.37708,-0.20976,0.3784,0.41486
-0.05237,0.90584,0.42036,0.29881,-0.17796,-0.22423
-0.10018,0.91088,0.4003,0.9567,0.07558,-0.87201
-0.06054,0.91325,0.40285,1.19232,3.25935,-0.25888
-0.06369,0.92553,0.37326,-0.16421,0.16256,-0.66108
-0.07082,0.93969,0.33459,-0.27062,-0.70822,-1.27845
-0.06499,0.95469,0.29041,-0.04521,-0.92585,-1.64051
-0.01608,0.97216,0.23375,0.16776,0.79806,-1.73909
0.0897,0.97947,0.18051,0.21323,3.56002,-1.38089
0.13416,0.9889,0.06371,-1.25238,1.15924,2.12419
0.13339,0.99102,0.00925,-0.12785,0.9313,0.62471
0.1317,0.99021,-0.04617,0.25498,0.70362,0.78202
0.14016,0.98732,-0.07443,0.44462,0.13174,0.91778
0.15924,0.9834,-0.08693,-0.4698,-0.47213,0.45065
0.17992,0.97922,-0.09358,-0.7525,-0.63962,0.10063
0.19636,0.97497,-0.10426,-0.72631,-1.0906,0.22696
0.20077,0.97328,-0.11141,-1.13703,-0.72322,0.52639
0.18657,0.97665,-0.10653,-0.82117,-0.76798,0.41514
0.14591,0.98606,-0.07988,-0.54421,-0.789,0.63936
0.09685,0.99442,-0.04172,-0.29567,-0.73051,0.52322
0.06704,0.99773,0.00543,0.29911,-0.66961,0.07072
0.06271,0.99505,0.07706,0.04816,0.4867,-0.21935
0.06993,0.98511,0.15703,-0.40737,2.63903,-0.74478
0.08362,0.96809,0.23621,-0.16075,2.56982,1.04242
0.05572,0.95196,0.30108,0.38171,1.7347,0.67446
-0.00216,0.935,0.35462,0.432,1.3076,-0.64394
-0.02748,0.91379,0.40525,0.12791,1.55635,-0.86558
-0.04551,0.89168,0.45036,-0.19825,1.69928,-0.86215
-0.0613,0.86942,0.49024,0.00228,0.68893,-0.79857
-0.05862,0.84694,0.52843,0.41702,-0.01979,-0.7712
-0.04362,0.83035,0.55553,0.84018,-1.29008,-0.63377
-0.01736,0.82455,0.56551,0.80357,-1.51086,-0.35494
0.00499,0.83537,0.54966,0.72282,-1.85725,-0.15327
0.01924,0.86265,0.50542,0.35424,-2.22056,-0.62265
0.03421,0.89761,0.43944,0.00087,-1.7592,-0.80019
0.04048,0.92481,0.37826,-0.0749,-1.32502,-0.70033
0.03164,0.93968,0.34058,-0.23558,-0.24702,-0.06816
0.00745,0.93293,0.35997,-0.18216,0.34806,0.51918
-0.02646,0.91157,0.41028,-0.09987,0.28514,0.8813
-0.07809,0.90141,0.42585,0.62004,1.06858,-0.7138
-0.07437,0.90761,0.41315,0.36246,0.36533,-1.35666
-0.08536,0.91155,0.40222,0.37344,0.3614,-1.34574
-0.10028,0.92647,0.36275,0.12394,-1.04293,-1.94305
-0.10592,0.94924,0.29618,0.63043,-0.49702,-1.45217
-0.06021,0.97656,0.20664,0.58471,-0.52435,-1.36263
0.05108,0.98463,0.16697,0.81547,3.92151,-1.61737
0.12388,0.98778,0.09451,-1.3791,0.74511,1.64812
0.13686,0.99058,0.00349,-1.42225,0.71049,1.81269
0.14314,0.98827,-0.05307,-0.42404,1.22137,0.42523
0.14454,0.98489,-0.09539,0.20147,0.48916,1.1384
0.15818,0.98099,-0.11241,0.14358,0.00452,1.0555
0.17805,0.97722,-0.1155,-0.48266,-0.37546,0.0646
0.19523,0.97328,-0.12085,-0.19605,-1.22655,0.42582
0.21019,0.96891,-0.13045,-0.28933,-1.18548,0.74316
0.21883,0.96714,-0.12945,-1.13216,-0.55609,0.51324
0.20894,0.97071,-0.1186,-0.85572,-0.84526,0.58523
0.17183,0.98131,-0.08651,-0.70891,-0.88714,0.57932
0.12511,0.991,-0.0476,-0.28115,-0.78709,0.52674
0.09969,0.99501,0.00221,-0.07924,-0.45815,-0.25774
0.09377,0.99299,0.07189,-0.3106,0.08677,-0.3474
0.10061,0.98463,0.14275,-0.78501,2.59716,0.02795
0.10401,0.97121,0.2143,-0.53894,2.7964,0.71605
0.07163,0.9555,0.28615,0.68164,1.70972,0.16972
0.03253,0.93899,0.34238,0.63659,1.33385,-0.8685
0.01756,0.91754,0.39724,0.06356,1.4468,-0.68909
0.00529,0.89919,0.43751,-0.11331,1.49462,-0.61333
-0.01309,0.88347,0.46829,0.38017,0.39637,-0.52438
-0.02172,0.86678,0.4982,0.67068,0.02262,-0.72206
-0.01959,0.85307,0.52142,0.84407,-0.42074,-0.91766
-0.00178,0.84647,0.53243,0.93534,-1.9381,-0.30013
0.01567,0.85542,0.51769,0.58742,-2.30912,-0.29406
0.03355,0.87817,0.47716,0.41631,-2.31806,-0.44637
0.05592,0.90642,0.41865,-0.06384,-1.73303,-0.96957
0.06793,0.92753,0.3675,-0.01736,-0.68113,-0.6461
0.06412,0.93971,0.33589,-0.08567,-0.39854,-0.28986
0.04315,0.93173,0.36056,-0.32848,0.58438,0.75149
0.00852,0.90975,0.41506,-0.35098,0.42386,1.13102
-0.04265,0.90826,0.41621,-0.11749,0.32556,0.33855
-0.05055,0.91522,0.39975,0.67687,2.83542,-1.35436
-0.06026,0.91767,0.39272,0.22031,-0.48565,-0.00506
-0.07682,0.93223,0.3536,0.04171,-1.06848,-0.02009
-0.08469,0.94968,0.30153,0.3289,-1.07508,-1.54046
-0.04388,0.97454,0.21986,0.89886,0.48709,-1.30497
0.06233,0.98213,0.17757,0.92285,2.18842,-1.52571
0.13845,0.98608,0.09204,-0.44935,1.60825,-0.51433
0.14977,0.98835,-0.02707,-1.56936,0.81892,3.31446
0.16003,0.98436,-0.07355,-1.06247,1.30912,1.66878
0.16241,0.98059,-0.1098,0.13698,0.34151,1.07615
0.17741,0.97667,-0.121,-0.10437,-0.21673,0.86206
0.19792,0.97313,-0.11765,-0.69156,-0.62694,-0.02984
0.21757,0.96832,-0.12253,-0.43173,-1.11494,0.16566
0.23446,0.96349,-0.12925,-0.77371,-0.9795,0.57551
0.236,0.96374,-0.12452,-1.24508,-0.66572,0.39684
0.21446,0.97109,-0.10477,-0.89633,-0.84477,0.5853
0.17313,0.98217,-0.07316,-0.45516,-0.76506,0.55622
0.13663,0.99009,-0.0322,0.20212,-0.82025,0.35158
0.12315,0.99203,0.02631,0.07267,-0.45259,-0.26206
0.12295,0.98738,0.09982,-0.21707,0.73107,-0.32948
0.12991,0.97674,0.17055,-0.39198,2.69608,0.05886
0.12106,0.96307,0.24046,-0.07312,2.78673,1.12518
0.07081,0.94707,0.31311,0.46702,1.57571,0.28504
0.03121,0.92889,0.36901,0.25927,1.203,-1.05404
0.01966,0.90823,0.418,-0.27618,1.7535,-0.94136
-0.00235,0.88756,0.46068,-0.56856,1.35469,-0.96622
-0.00011,0.86438,0.50282,-0.11617,0.5609,-0.81698
0.01418,0.84381,0.53643,0.67269,-0.05051,-0.933
0.03385,0.83251,0.55296,1.08279,-1.51522,-0.52195
0.05405,0.83718,0.54423,0.9056,-1.98272,-0.31385
0.06717,0.85562,0.51322,0.5443,-2.4839,-0.21263
0.07645,0.88665,0.45605,0.05181,-2.26245,-0.78634
0.0772,0.91757,0.38999,-0.18656,-1.6407,-0.90609
0.0687,0.93915,0.33656,0.05514,-0.86325,-0.62951
0.05244,0.94267,0.32956,0.04057,0.46108,0.36949
0.03685,0.9262,0.37521,0.13202,0.71713,0.58547
0.01302,0.90805,0.41865,0.19362,0.77952,1.3003
-0.01328,0.91263,0.40854,0.41069,3.44378,-1.5378
-0.03327,0.91865,0.39364,0.1758,1.91524,-2.5135
-0.06832,0.92673,0.36945,0.30927,-1.05485,-0.30009
-0.10723,0.94564,0.307,0.42398,-1.47802,-1.70692
-0.10033,0.9682,0.22917,0.66838,-1.18386,-1.49164
0.0032,0.98519,0.17141,1.00016,1.19781,-1.17826
0.11107,0.98489,0.1328,-0.32222,2.33839,-1.18215
0.14185,0.98966,0.02112,-1.05152,1.55629,-0.09129
0.14696,0.9884,-0.03825,-0.62968,1.56287,1.09984
0.1479,0.98582,-0.07915,-0.13561,1.30026,0.92911
0.15578,0.98255,-0.10154,0.06145,-0.17501,0.91955
0.1785,0.97891,-0.09928,-0.76902,-0.74319,-0.09202
0.19875,0.97438,-0.10522,-0.68298,-0.97886,0.01636
0.21428,0.96986,-0.11598,-0.6583,-1.18438,0.48651
0.21753,0.96917,-0.11563,-1.13269,-0.60945,0.43628
0.20031,0.97462,-0.09985,-0.83859,-0.83061,0.57899
0.16565,0.98398,-0.06582,-0.62938,-0.88007,0.54538
0.12933,0.9913,-0.02431,0.09292,-0.84878,0.3321
0.11058,0.99355,0.02491,0.28499,-0.8701,0.30496
0.10589,0.99017,0.09127,0.14676,-0.6386,0.01696
0.10952,0.97881,0.17295,-0.59089,1.19865,-0.33502
0.12219,0.96091,0.24842,-0.82446,3.17226,0.22842
0.09767,0.94227,0.32027,-0.53729,2.90697,0.9839
0.03233,0.92396,0.3811,0.46296,1.58481,-0.34059
-0.00846,0.90349,0.42851,-0.01409,1.70854,-0.83967
-0.0399,0.87914,0.47487,-0.10955,1.85278,-0.59931
-0.05489,0.85595,0.51412,-0.09938,0.93587,-0.96396
-0.04278,0.83218,0.55284,0.09259,0.66692,-0.91876
-0.01961,0.81545,0.57848,0.5819,-0.31989,-0.85326
0.00918,0.81319,0.58191,1.0346,-1.41222,-0.51886
0.03174,0.82803,0.55977,0.76598,-2.03964,-0.26876
0.04354,0.85537,0.51617,0.28193,-2.105,-0.4842
0.05484,0.88799,0.45657,-0.01893,-1.86147,-0.9357
0.05904,0.9153,0.3984,-0.06543,-1.09593,-0.7167
0.04903,0.93353,0.3551,0.03282,-0.5009,-0.36555
0.0274,0.9326,0.35986,0.03202,0.23742,0.11823
-0.00126,0.91552,0.40225,0.07341,0.51084,0.32321
-0.0482,0.90654,0.41935,-0.02908,-0.00788,0.72663
-0.07331,0.92731,0.36702,0.75232,0.24995,-1.33835
-0.05078,0.91794,0.39344,0.43979,4.01433,-1.16567
-0.06092,0.92615,0.37217,-0.24814,-0.45272,-0.4107
-0.07856,0.9402,0.33141,-0.13386,-1.33447,-1.29588
-0.08635,0.96063,0.26404,0.32294,-1.32719,-1.67916
-0.01794,0.97976,0.19934,0.67181,1.00418,-1.4374
0.09567,0.98749,0.12531,0.82647,4.20552,-1.67248
0.11381,0.9935,0.00161,-1.156,1.40238,0.68216
