gravity.x,gravity.y,gravity.z,userAcceleration.x,userAcceleration.y,userAcceleration.z
-0.14805,0.91698,0.37044,-0.03939,-0.88601,-0.26632
-0.1421,0.92506,0.35223,0.32669,-1.30445,-0.55573
-0.13908,0.92905,0.34281,0.55768,-1.67449,-0.36236
-0.13841,0.92915,0.34281,0.60274,-1.3757,-0.36008
-0.1506,0.92878,0.33865,0.4289,-0.89852,-0.22239
-0.16917,0.93077,0.32412,0.20931,-0.0939,-0.36449
-0.18173,0.92541,0.33253,-0.19925,0.11795,-0.3401
-0.19293,0.91368,0.35771,-0.36191,-0.94483,-0.30122
-0.21593,0.90804,0.35893,0.66196,-0.76334,-1.34978
-0.23282,0.90586,0.35385,0.67966,-0.30956,0.13274
-0.22267,0.90782,0.35537,0.56796,0.9354,0.55419
-0.21435,0.9079,0.36024,-0.54443,2.46842,-0.84823
-0.22539,0.92299,0.31191,-0.40973,0.0029,0.05733
-0.20933,0.94441,0.25352,-0.27671,0.37381,0.1419
-0.16912,0.96832,0.18372,-0.37748,0.99776,0.42654
-0.13069,0.987,0.09352,-0.45534,1.4709,0.73503
-0.1112,0.99376,-0.00874,-0.55097,1.42738,0.54021
-0.09988,0.99002,-0.09944,-0.33181,0.56815,0.38209
-0.08128,0.98367,-0.1606,0.04009,0.20086,0.35126
-0.05604,0.97936,-0.19417,0.18134,-0.64602,0.13877
-0.03102,0.97763,-0.20804,-0.02254,-0.86191,0.37862
-0.01792,0.97724,-0.21137,-0.12351,-0.81704,0.29817
-0.02361,0.977,-0.21195,-0.28874,-1.11803,0.08075
-0.04935,0.97583,-0.21288,-0.19204,-1.11447,0.04331
-0.07833,0.97525,-0.20678,0.19704,-0.89695,0.11131
-0.10176,0.97669,-0.18901,0.56621,-0.72184,0.17653
-0.11788,0.98036,-0.15808,0.59702,-0.65628,0.26915
-0.12325,0.98566,-0.11526,0.18611,-0.45513,-0.32271
-0.122,0.99057,-0.06238,-0.21552,1.22899,-0.17331
-0.13022,0.99145,0.00831,-0.46991,1.60465,-0.57511
-0.13502,0.98546,0.10311,-0.32433,1.64402,-0.60833
-0.14474,0.97293,0.18013,0.92907,1.51054,0.64713
-0.14659,0.96378,0.22278,0.42333,1.29818,0.52417
-0.13312,0.95516,0.26448,-0.41725,0.97009,0.36994
-0.12365,0.94521,0.30213,-0.81398,0.69633,0.27611
-0.12735,0.93589,0.32848,-0.59552,0.35452,0.14293
-0.12907,0.93339,0.33486,0.03018,-0.9199,-0.17827
-0.12276,0.93917,0.32077,0.24686,-1.1448,-0.53143
-0.11164,0.94622,0.30366,0.32478,-1.18602,-0.39729
-0.10096,0.9487,0.29963,0.44731,-1.74548,-0.25015
-0.09816,0.94615,0.30848,0.25833,-1.3313,-0.27977
-0.10947,0.9447,0.30913,0.3094,-1.12515,-0.28163
-0.13003,0.9451,0.29978,0.13274,-0.2109,-0.419
-0.14839,0.93535,0.32111,-0.37775,-0.27534,0.08371
-0.16849,0.92011,0.35356,0.3633,-0.5146,-1.58627
-0.19413,0.9037,0.38163,0.49833,-0.43203,-0.59313
-0.20293,0.89848,0.38929,0.23677,0.537,0.50786
-0.21294,0.89943,0.38168,-0.26085,1.42494,-0.57054
-0.19377,0.91577,0.35189,-0.30225,1.03127,-0.5702
-0.158,0.94051,0.3008,-0.01557,0.84904,0.42102
-0.1243,0.96626,0.22559,-0.29785,1.44272,0.4164
-0.09305,0.98657,0.13421,-1.26672,2.12761,0.9223
-0.08572,0.99558,0.03834,-0.50899,0.50208,0.56905
-0.07552,0.9962,-0.04345,-0.17436,-0.14448,-0.06817
-0.05158,0.99329,-0.10355,-0.13575,-0.50592,0.04488
-0.03291,0.98826,-0.14917,0.3904,-0.9022,0.15808
-0.02194,0.98433,-0.17495,0.41261,-0.58445,0.24001
-0.02011,0.98289,-0.18308,0.21113,-0.59475,0.28352
-0.02956,0.98239,-0.18448,-0.19386,-0.964,-0.09671
-0.04845,0.98202,-0.18247,-0.09734,-1.05021,-0.04586
-0.06793,0.98294,-0.17093,0.31816,-0.89458,0.06113
-0.08414,0.98564,-0.14642,0.41744,-0.75627,0.02168
-0.09533,0.98939,-0.10961,0.48059,-0.75158,0.12733
-0.0974,0.99343,-0.06008,-0.08024,-0.31615,-0.57684
-0.10124,0.99484,-0.00652,0.05928,1.15624,-0.11922
-0.11747,0.9902,0.07555,0.07721,1.54546,-0.51918
-0.12152,0.97966,0.15967,0.2528,1.14143,-0.1953
-0.12349,0.96728,0.22164,0.52446,1.30375,0.60583
-0.11758,0.95719,0.2645,-0.55077,1.43552,0.32313
-0.09497,0.94629,0.30904,-0.74483,1.11885,0.58114
-0.08684,0.93633,0.3402,-0.55077,1.01173,0.39245
-0.10122,0.92915,0.35559,-0.23092,-0.23624,0.32175
-0.1113,0.93056,0.34882,0.08578,-1.14928,-0.09181
-0.11055,0.93837,0.32747,0.09328,-1.2283,-0.45275
-0.10487,0.94485,0.31027,0.07601,-1.57478,-0.46928
-0.09813,0.94525,0.31126,0.16912,-1.49691,-0.29104
-0.10291,0.94122,0.32175,0.29358,-0.90983,-0.12007
-0.11691,0.93893,0.32363,0.3092,-0.59979,-0.02027
-0.13853,0.93589,0.32392,0.16352,-0.00704,-0.2196
-0.16445,0.92647,0.33854,0.16377,-0.68623,-0.44902
-0.18855,0.91548,0.35545,0.43757,-0.45112,-1.27696
-0.20693,0.90064,0.38212,0.25942,-0.01237,0.24275
-0.21009,0.89804,0.3865,0.10597,0.72485,0.22879
-0.22044,0.90202,0.37117,-0.08388,0.7902,-0.52433
-0.20001,0.9211,0.33403,-0.22838,0.48596,-0.16572
-0.15705,0.94763,0.2781,-0.17265,1.52114,0.25281
-0.11742,0.97228,0.20219,-0.49957,1.63723,0.47599
-0.0963,0.98892,0.11299,-0.79149,1.57657,0.86355
-0.08587,0.99595,0.02678,-0.33413,0.35937,0.52205
-0.06474,0.9968,-0.04682,-0.29829,0.07328,0.39439
-0.04026,0.99356,-0.10588,-0.29235,-0.26697,0.35565
-0.02128,0.98892,-0.14694,-0.01751,-0.94247,0.15427
-0.01108,0.98427,-0.17633,-0.03989,-0.752,0.22066
-0.01689,0.98214,-0.18741,-0.01437,-0.46499,-0.00283
-0.03819,0.98115,-0.18941,-0.06682,-1.01619,-0.11986
-0.06273,0.98152,-0.18078,0.13994,-1.04696,-0.09675
-0.08192,0.98432,-0.15623,0.51943,-0.84565,0.13946
-0.10014,0.98793,-0.11816,0.5096,-0.73223,0.04833
-0.11707,0.99108,-0.06359,0.18957,-0.61294,-0.53438
-0.12676,0.99192,0.00589,-0.06388,0.48726,-0.05126
-0.14173,0.98611,0.08662,-0.26442,1.86458,-0.50688
-0.15102,0.97203,0.17988,0.25948,1.54638,-0.1576
-0.15499,0.95277,0.26118,0.73603,1.13912,0.59241
-0.15377,0.93777,0.31136,-0.04746,1.26932,0.45648
-0.14097,0.92355,0.35662,-0.71101,1.27675,0.50801
-0.13389,0.90958,0.39336,-1.0972,1.08717,0.45433
-0.13541,0.90195,0.41007,-0.41355,0.088,0.44424
-0.1368,0.90304,0.4072,0.1448,-0.85051,-0.02985
-0.12861,0.91072,0.3925,0.08059,-1.13246,-0.37584
-0.11434,0.92141,0.37138,0.15543,-1.24679,-0.42515
-0.10619,0.9274,0.35869,0.29535,-1.69533,-0.35193
-0.1127,0.9267,0.35852,0.2707,-1.29404,-0.40199
-0.13624,0.92292,0.36008,0.27192,-0.80404,-0.25094
-0.16353,0.91764,0.36221,0.06183,-0.06603,-0.08894
-0.18622,0.90713,0.37741,-0.29663,0.1568,-0.29561
-0.20701,0.8885,0.40953,0.17509,0.15174,-1.07065
-0.22817,0.87612,0.42468,0.02023,0.13136,0.12413
-0.22728,0.88117,0.4146,0.50976,-0.50864,0.00361
-0.21965,0.88706,0.40605,0.33793,0.0326,-0.57511
-0.20193,0.89754,0.39197,-0.0268,0.99345,0.0492
-0.15816,0.92845,0.3361,0.03304,2.16602,0.66397
-0.11442,0.95801,0.26289,-1.18748,0.94295,0.77168
-0.09736,0.98159,0.16433,-1.15892,0.72094,0.68046
-0.08295,0.99414,0.06935,-0.72314,0.93624,0.25155
-0.06332,0.99789,-0.01404,-0.04396,0.38992,0.32213
-0.04704,0.99572,-0.07959,0.03327,0.07981,0.39814
-0.03327,0.99206,-0.12128,0.11416,-0.5809,0.10759
-0.02228,0.98886,-0.14718,0.26119,-0.61077,0.2341
-0.01742,0.98685,-0.16066,0.24375,-0.5252,0.11903
-0.02086,0.9862,-0.16421,-0.03817,-0.68281,0.02183
-0.03549,0.98608,-0.16243,-0.33768,-0.98942,-0.07974
-0.06389,0.98666,-0.14973,0.07898,-0.93101,0.01408
-0.09333,0.98821,-0.12138,0.28006,-0.90247,-0.00769
-0.11688,0.99,-0.079,0.41511,-0.44602,-0.21143
-0.13619,0.9905,-0.01919,0.40574,-0.11565,-0.21494
-0.15581,0.98581,0.06241,0.3533,0.90371,-0.20754
-0.1677,0.97391,0.15288,0.50692,1.70662,0.1544
-0.17212,0.95866,0.22659,0.28693,1.92627,0.2927
-0.16935,0.94381,0.28381,-0.44284,1.80874,0.32505
-0.16593,0.9265,0.33774,-0.97726,0.875,0.6798
-0.16921,0.9092,0.38043,-0.72944,0.34875,0.38002
-0.16554,0.89862,0.40629,-0.04014,-0.1609,0.23936
-0.15704,0.90004,0.40653,0.1212,-0.65146,-0.10209
-0.14469,0.9107,0.38689,0.24378,-1.15052,-0.4844
-0.13519,0.91935,0.36947,0.56041,-1.92781,-0.55497
-0.13419,0.92159,0.36423,0.61241,-1.75463,-0.5443
-0.15138,0.92104,0.35883,0.39381,-1.1899,-0.56058
-0.17977,0.92151,0.34422,0.30579,-0.63512,-0.08211
-0.20646,0.9199,0.33339,0.00079,0.12382,0.07551
-0.2215,0.91266,0.3435,-0.36392,-0.00532,-0.03102
-0.23112,0.90049,0.36837,0.19824,-0.30588,-1.32987
-0.24676,0.88973,0.38403,0.26333,-0.19936,-0.24046
-0.25129,0.88699,0.38742,0.36256,0.09395,0.15254
-0.25926,0.8925,0.36909,0.2816,0.18721,-0.45209
-0.24427,0.91147,0.33099,-0.13972,0.77741,-0.39616
-0.20856,0.9413,0.26545,-0.13518,0.63691,0.33816
-0.17806,0.9672,0.18116,-0.43513,1.44525,0.57757
-0.14932,0.98524,0.08366,-0.80956,1.48636,0.66363
-0.12894,0.99149,-0.01789,-0.45989,1.10092,0.38096
-0.10697,0.98857,-0.10622,-0.09558,0.35423,0.42238
-0.08028,0.98215,-0.17009,-0.09736,-0.05353,0.29295
-0.05753,0.9764,-0.20817,-0.03624,-0.54276,0.16577
-0.04668,0.97218,-0.22955,0.14933,-0.59818,0.22824
-0.04804,0.97218,-0.22925,0.07895,-0.78093,0.11147
-0.06507,0.97279,-0.22236,-0.07479,-0.94578,0.06543
-0.09783,0.97308,-0.20865,-0.13788,-0.99423,0.1151
-0.12934,0.97533,-0.17891,0.26683,-0.83153,0.25022
-0.15832,0.97779,-0.13735,0.41526,-0.74778,0.32565
-0.1788,0.98089,-0.07674,0.30367,-0.5178,-0.43636
-0.18828,0.98211,-0.00221,0.17975,1.41933,-0.23997
-0.20301,0.97491,0.09123,0.23316,1.66113,-0.18125
-0.20674,0.96101,0.18361,0.48786,1.36762,-0.2347
-0.20737,0.94492,0.25323,0.43916,1.24242,0.50893
-0.21465,0.92924,0.30073,-0.04623,1.36146,0.51615
-0.21735,0.91186,0.34822,-0.72911,1.12517,0.60504
-0.21822,0.89697,0.38447,-0.83925,0.21532,0.2911
-0.21304,0.89007,0.40298,0.01423,-0.36649,0.16013
-0.20288,0.89437,0.39868,0.18355,-0.56159,-0.2261
-0.18782,0.90725,0.37633,0.30897,-0.98664,-0.41305
-0.1793,0.91826,0.35304,0.58305,-1.65761,-0.39466
-0.17408,0.92211,0.34555,0.48847,-1.68723,-0.35811
-0.18057,0.92074,0.34587,0.37404,-1.18675,-0.48503
-0.2006,0.92009,0.33645,0.37087,-0.62333,-0.08906
-0.22581,0.91983,0.3208,-0.04906,0.26497,-0.34898
-0.24411,0.91106,0.33222,-0.15431,-0.03385,-0.25298
-0.26182,0.89865,0.35196,0.5679,-0.4621,-0.07447
-0.27886,0.88985,0.36112,0.603,-0.4951,-0.12738
-0.28519,0.89071,0.35398,0.38622,0.23778,0.03241
-0.29308,0.90151,0.31839,-0.23512,1.18638,-0.20702
-0.26482,0.92439,0.27455,-0.55156,0.52736,-0.09895
-0.2263,0.95109,0.21025,-0.41402,1.02179,0.42503
-0.19053,0.97376,0.12444,-0.78231,1.53996,0.75382
-0.16271,0.98623,0.02969,-0.72744,1.27029,0.52599
-0.14215,0.98789,-0.0622,-0.19757,0.61326,0.42298
-0.11765,0.98356,-0.13696,-0.1768,0.31996,0.42988
-0.09146,0.9778,-0.18854,0.25438,-0.48912,0.18976
-0.07223,0.97258,-0.22105,0.33272,-0.77333,0.17869
-0.05913,0.96929,-0.2387,0.14467,-0.58431,0.29529
-0.05843,0.96891,-0.24042,-0.08105,-0.68784,0.08673
-0.076,0.96915,-0.23444,-0.27044,-0.91634,-0.05416
-0.10397,0.97087,-0.21589,0.06549,-0.87382,0.12657
-0.13336,0.97458,-0.18004,0.35841,-0.78418,0.18604
-0.16124,0.97891,-0.12546,0.397,-0.53878,-0.21016
-0.1846,0.98161,-0.04866,0.56644,0.23824,0.079
-0.20253,0.97834,0.04269,0.36355,1.08791,-0.20256
-0.20677,0.96933,0.13286,0.20222,1.48287,0.21637
-0.20282,0.95557,0.21388,0.03565,1.84413,0.306
-0.19949,0.93761,0.28477,-0.61929,1.86334,0.33521
-0.19391,0.91742,0.34748,-1.06174,0.40543,0.5651
-0.18709,0.90084,0.39178,-0.99537,0.03708,0.41354
-0.16518,0.89344,0.4177,-0.20153,0.17206,0.23559
-0.14579,0.89588,0.41969,0.26544,-0.42286,-0.3063
-0.12629,0.9061,0.40378,0.25307,-0.70357,-0.48376
-0.11038,0.91249,0.39392,0.59976,-1.93169,-0.54083
-0.10034,0.91144,0.399,0.63167,-1.62218,-0.52987
-0.11271,0.90713,0.40547,0.49303,-1.39248,-0.62265
-0.14675,0.90862,0.391,0.32187,-0.42946,0.05671
-0.18697,0.90923,0.37193,-0.33172,0.41047,0.09477
-0.21011,0.89602,0.39115,-0.56934,-0.10635,0.29984
-0.22462,0.89062,0.3954,0.44185,-0.6191,-0.88951
-0.23441,0.88348,0.4056,0.45141,-0.19967,-0.41605
-0.24054,0.88944,0.38862,0.4191,0.92063,0.41439
-0.248,0.90659,0.34146,-0.42928,2.54207,0.29154
-0.22541,0.93003,0.29022,-0.62753,-0.75337,-0.3327
-0.18268,0.95932,0.21524,-0.66998,-0.24709,0.32463
-0.12609,0.98321,0.13188,-0.63847,2.71393,0.24904
-0.08417,0.99576,0.03706,-0.10545,1.23678,0.65531
-0.07168,0.99573,-0.05817,-0.12117,-0.05748,0.1853
-0.04789,0.99076,-0.12691,-0.49119,-0.24587,0.13864
-0.0257,0.98447,-0.17368,0.15756,-0.76546,0.08193
-0.01095,0.97946,-0.20136,0.17689,-0.43833,0.16397
-0.00626,0.9775,-0.21083,0.074,-0.56599,0.19065
-0.01899,0.97763,-0.20948,-0.21826,-0.94078,0.01896
-0.04871,0.97871,-0.19938,0.04006,-0.99037,0.12949
-0.0791,0.98118,-0.17616,0.24615,-0.93681,0.26184
-0.10496,0.98511,-0.13619,0.57626,-0.72664,0.24728
-0.12089,0.98954,-0.07866,0.45839,-0.62953,-0.20089
-0.11971,0.99275,-0.01055,-0.03946,0.05191,-0.17578
-0.11381,0.99142,0.06433,-0.358,1.58755,-0.36972
-0.10655,0.98034,0.16609,0.005,2.28044,-0.2502
-0.0997,0.96292,0.2507,0.77355,1.66268,0.58469
-0.10193,0.94908,0.29807,0.17219,1.08682,0.63172
-0.09227,0.93915,0.33087,-0.74253,0.74417,0.52243
-0.09008,0.92792,0.36172,-1.24807,0.36528,0.42792
-0.08949,0.92051,0.38033,-0.2999,0.12339,0.02775
-0.0853,0.91899,0.38495,0.13107,-0.69046,-0.3049
-0.07784,0.92415,0.37402,0.29049,-1.06584,-0.7351
-0.07419,0.9284,0.36411,0.47824,-1.53751,-0.5878
-0.07412,0.92837,0.36419,0.40257,-1.79998,-0.53023
-0.08119,0.93041,0.3574,0.13156,-1.33428,-0.41333
-0.10339,0.93585,0.3369,0.23033,-0.62307,0.27675
-0.13035,0.93563,0.32802,-0.36533,0.13692,-0.24015
-0.1392,0.92393,0.35634,-0.44946,-0.57026,-0.16979
-0.15498,0.91679,0.36808,0.58418,-0.28536,-1.66953
-0.17563,0.90655,0.38382,0.76288,0.3051,0.36368
-0.16795,0.90836,0.38297,0.51962,1.15009,1.19906
-0.17375,0.91236,0.37068,-0.66118,0.04406,-0.65832
-0.16633,0.93177,0.32271,-0.67797,-0.26243,-0.48026
-0.12263,0.95956,0.2534,-0.24634,1.71024,0.29198
-0.06981,0.98217,0.17457,-0.97041,2.05835,0.33617
-0.04964,0.99564,0.07895,-1.01139,1.46417,0.47537
-0.05589,0.99828,-0.01782,0.2619,-0.01096,0.2913
-0.04668,0.99501,-0.0882,0.41722,-0.2129,0.27628
-0.02352,0.99008,-0.13848,0.14804,-0.6931,0.07723
0.0031,0.98452,-0.17523,-0.0173,-0.87051,0.14297
0.01927,0.97848,-0.20542,-0.32498,-0.55638,0.14153
0.01583,0.97641,-0.21536,-0.21608,-0.82374,-0.06166
-0.00796,0.97585,-0.21831,0.04846,-0.97188,0.03405
-0.03415,0.9772,-0.20955,0.19457,-0.78129,-0.02083
-0.05288,0.98118,-0.1857,0.29371,-0.70935,0.17613
-0.06924,0.98661,-0.14765,0.42124,-0.76347,0.12032
-0.07999,0.9925,-0.09243,0.04894,0.0367,-0.11112
-0.09237,0.99531,-0.02874,0.01698,0.95585,-0.10169
-0.11283,0.99187,0.05883,-0.12017,2.03445,-0.57813
-0.11988,0.9825,0.14253,0.53399,1.4047,0.21818
-0.12445,0.9718,0.20027,0.25911,1.48337,0.6105
-0.12065,0.96229,0.24379,-0.69676,1.32781,0.28967
-0.1036,0.95272,0.28564,-1.02094,0.66329,0.39093
-0.08754,0.94619,0.31154,-0.21713,-0.10592,0.23518
-0.07507,0.94467,0.31932,0.16925,-0.42238,0.08066
-0.0666,0.94879,0.30882,0.33726,-0.98776,-0.3892
-0.05419,0.95693,0.28521,0.31499,-1.46146,-0.59472
-0.04343,0.96255,0.26762,0.23269,-1.84794,-0.46801
-0.04365,0.96253,0.26764,0.24502,-1.4072,-0.42224
-0.06134,0.96088,0.27009,0.19007,-1.1019,-0.18482
-0.08096,0.9601,0.26768,0.08451,-0.15294,-0.03452
-0.09468,0.95393,0.28469,-0.28389,0.32148,0.08632
-0.10227,0.94125,0.32185,-0.33032,-0.67477,0.02533
-0.11974,0.93522,0.33321,-0.14592,-1.69401,-0.62222
-0.14067,0.9334,0.33012,0.67915,-0.55532,-1.62659
-0.15004,0.92423,0.35113,1.02248,1.3558,0.1634
-0.12987,0.91668,0.37794,-0.31932,3.02023,0.27931
-0.1473,0.92848,0.34091,-0.64691,-0.41254,-0.67607
-0.13197,0.95366,0.27038,-0.45984,-0.25634,0.56453
-0.08473,0.97749,0.19323,-0.50664,1.49395,-0.02094
-0.03925,0.99456,0.09651,-0.83693,1.49003,0.73679
-0.04238,0.99903,-0.01233,-0.13282,0.65724,0.53113
-0.0314,0.99432,-0.10171,0.11017,-0.04818,0.46224
-0.00382,0.98633,-0.16473,-0.05999,-0.4605,0.19091
0.02271,0.97864,-0.20433,0.09945,-0.6624,0.33167
0.03867,0.97362,-0.22487,0.03954,-0.45746,0.26363
0.03916,0.97332,-0.22608,-0.15647,-0.86434,0.09603
0.01887,0.9751,-0.22095,-0.27113,-1.06105,-0.05087
-0.01616,0.97712,-0.21209,-0.00372,-1.05156,0.14818
-0.04768,0.98047,-0.19082,0.19647,-0.83789,0.05128
-0.07139,0.98557,-0.15348,0.13871,-0.76156,-0.24036
-0.08637,0.99138,-0.09851,0.08488,-0.11496,-0.22624
-0.10051,0.99439,-0.03299,0.43776,1.62326,0.16974
-0.12127,0.99067,0.06221,0.57021,1.77421,0.06865
-0.1221,0.98093,0.15123,0.37091,1.00119,-0.34975
-0.11966,0.96668,0.22631,-0.14299,1.92377,0.38635
-0.1254,0.95009,0.28566,-0.81384,2.0202,0.26406
-0.12112,0.93161,0.34268,-0.9182,0.71659,0.6775
-0.12065,0.91639,0.38168,-0.48169,0.29829,0.39223
-0.11817,0.90874,0.40028,0.17092,-0.27193,0.13293
-0.11232,0.91223,0.39397,0.11756,-0.82688,-0.33139
-0.10184,0.9219,0.37381,0.1655,-1.35676,-0.62336
-0.09256,0.92671,0.3642,0.39509,-1.83264,-0.60267
-0.09402,0.92588,0.36592,0.42336,-1.52174,-0.64006
-0.11267,0.92424,0.36482,0.47696,-1.00041,-0.1902
-0.13661,0.92532,0.35373,0.16067,-0.19995,0.05985
-0.16314,0.92053,0.35497,-0.47568,0.13112,-0.32239
-0.18014,0.90934,0.37504,-0.08104,-0.37073,-1.05877
-0.21063,0.89621,0.39043,0.55697,-0.01148,-0.64998
-0.22679,0.89153,0.3921,0.75211,-0.04764,0.51441
-0.21883,0.89594,0.38652,-0.28925,0.49227,0.40319
-0.22424,0.90864,0.35226,-0.5714,0.47648,-0.50842
-0.18416,0.93555,0.30139,-0.49673,0.43854,0.3157
-0.12987,0.96518,0.22708,-0.39647,1.9896,0.24892
-0.08678,0.98721,0.13373,-0.93049,2.01677,0.78517
-0.08389,0.9959,0.03391,-0.12973,0.71789,0.3728
-0.07679,0.99552,-0.05522,0.26979,-0.11931,0.32898
-0.04921,0.99102,-0.12433,-0.10959,-0.31292,0.21615
-0.0241,0.98423,-0.17526,-0.12725,-0.6502,0.2225
-0.00556,0.97792,-0.2089,0.08475,-0.47125,0.2785
-0.00171,0.97557,-0.21969,0.02558,-0.57592,0.20619
-0.01547,0.97574,-0.21836,-0.28148,-0.88468,-0.12029
-0.04115,0.97672,-0.21052,-0.01481,-1.01939,-0.06288
-0.06604,0.97976,-0.18895,0.22807,-0.85577,0.21623
-0.08876,0.98428,-0.15267,0.40806,-0.72015,0.30678
-0.10729,0.98908,-0.10108,0.14356,-0.61452,-0.50182
-0.11516,0.99273,-0.035,0.0375,0.35703,-0.13705
-0.12402,0.99164,0.0355,-0.12718,1.19378,-0.0738
-0.13284,0.98281,0.12817,0.20392,1.99238,-0.20358
-0.14123,0.96621,0.2156,0.51216,1.54615,0.39724
-0.15097,0.9518,0.26698,0.45963,1.23448,0.63554
-0.14502,0.94067,0.30678,-0.84882,0.83188,0.42746
-0.14538,0.9275,0.34438,-1.21427,0.46098,0.44657
-0.1426,0.91774,0.37071,-0.85195,0.37011,0.32067
-0.13769,0.91445,0.38056,0.28963,-0.51221,0.02379
-0.12737,0.91779,0.37608,0.22806,-0.8427,-0.21255
-0.11461,0.92389,0.36509,0.16134,-1.28522,-0.75629
-0.10114,0.92486,0.36662,0.30712,-1.6896,-0.53347
-0.09484,0.9203,0.37953,0.27582,-1.22975,-0.55228
-0.11359,0.92153,0.37131,0.43843,-0.59631,0.15872
-0.15205,0.92558,0.34666,-0.13165,0.23781,-0.08519
-0.1836,0.91319,0.36384,-0.36621,-0.6472,-0.44851
-0.20845,0.89977,0.38335,0.58354,-0.71697,-1.02582
-0.21399,0.8924,0.39728,0.46773,-0.40592,-0.16967
-0.20308,0.89537,0.39633,0.43098,0.30941,0.54343
-0.19769,0.9051,0.37644,-0.39311,1.37261,-0.58922
-0.16105,0.92929,0.33239,-0.30279,0.46378,-0.06504
-0.1256,0.9571,0.26114,-0.20028,0.4313,0.11517
-0.08427,0.98188,0.16972,-0.72646,1.83663,0.38715
-0.05473,0.99603,0.07018,-0.55321,1.49826,0.55401
-0.04177,0.99878,-0.02638,-0.01635,0.30742,0.43164
-0.01991,0.99471,-0.1008,-0.2126,0.15214,0.32173
0.00955,0.98851,-0.15085,-0.17441,-0.65942,0.0497
0.03366,0.98234,-0.18407,-0.12269,-0.84649,0.27345
0.04603,0.97812,-0.20287,-0.03023,-0.62874,0.35029
0.04269,0.9775,-0.20656,-0.16065,-0.83908,0.03364
0.02249,0.97802,-0.2073,-0.12499,-0.99245,-0.07283
-0.0058,0.97964,-0.20067,0.01343,-0.93852,0.01953
-0.03257,0.98317,-0.17978,0.33169,-0.8203,0.16222
-0.05754,0.98776,-0.14496,0.29003,-0.76663,-0.15896
-0.07712,0.99227,-0.09721,0.2317,-0.10372,-0.13987
-0.10171,0.99428,-0.03247,0.39882,1.47929,-0.17915
-0.12669,0.9906,0.05159,0.34937,1.25563,-0.24133
-0.13053,0.98326,0.12714,0.28694,1.21148,0.14732
-0.12949,0.97397,0.18607,-0.40345,2.05213,0.39141
-0.11857,0.96404,0.23784,-1.048,1.46902,0.36601
-0.10427,0.95324,0.28366,-0.81292,0.78863,0.3978
-0.10234,0.94252,0.3181,-0.34102,0.43561,0.1886
-0.10391,0.93638,0.33527,0.1143,-0.39927,0.16898
-0.10041,0.93825,0.33106,0.17299,-1.0179,-0.09462
-0.08939,0.94478,0.31529,0.11793,-1.22004,-0.5016
-0.08046,0.9482,0.3073,0.25357,-1.77532,-0.41532
-0.08588,0.94641,0.31133,0.5304,-1.82103,-0.51285
-0.1052,0.9448,0.3103,0.4681,-1.35581,-0.22763
-0.12827,0.94632,0.29668,0.08402,-0.37222,-0.0424
-0.15346,0.94153,0.29996,-0.343,0.22694,-0.02155
-0.16821,0.92839,0.33134,-0.23682,-0.30208,-0.2998
-0.1871,0.91594,0.35503,0.43095,-0.45236,-1.28211
-0.20025,0.90903,0.36545,0.34652,-0.48168,-0.06249
-0.20812,0.90824,0.36303,0.1462,0.67257,-0.42883
-0.20478,0.91929,0.33612,0.01265,1.40426,-0.47002
-0.15969,0.94539,0.28415,-0.04479,0.63329,-0.16897
-0.12,0.97188,0.20261,-0.53585,1.75482,0.48341
-0.0794,0.99082,0.1094,-0.89172,2.01225,0.52721
-0.0563,0.9984,0.006,-0.76146,1.44837,0.73689
-0.03826,0.9956,-0.08556,0.05362,0.21047,0.21441
-0.00845,0.98829,-0.15238,-0.1049,0.1315,0.08633
0.01674,0.98089,-0.19384,-0.19027,-0.56428,0.2062
0.02988,0.97589,-0.21621,-0.00385,-0.74734,0.42741
0.02913,0.97484,-0.22098,0.0242,-0.69959,0.35787
0.01673,0.97491,-0.22198,-0.28307,-0.87165,0.04638
-0.00562,0.97632,-0.21626,-0.26377,-0.89015,-0.09495
-0.03099,0.97938,-0.19963,-0.07369,-0.887,0.00907
-0.05452,0.98414,-0.16878,0.49503,-0.85991,0.24015
-0.0715,0.98973,-0.12378,0.17364,-0.70084,-0.21976
-0.08094,0.9946,-0.0649,0.00311,0.31544,-0.18446
-0.10045,0.99487,0.01217,-0.05675,1.77277,-0.30539
-0.1213,0.98692,0.10618,0.42275,1.62735,-0.15458
-0.12884,0.97465,0.18294,0.62516,1.69401,0.02087
-0.13137,0.96322,0.2344,0.23528,1.72896,0.38195
-0.12159,0.95018,0.287,-1.13395,1.05322,0.47944
-0.11678,0.93667,0.33016,-1.02497,0.51758,0.44352
-0.11818,0.92607,0.35837,-0.2564,0.09163,0.17522
-0.12198,0.92271,0.36568,0.20427,-0.60446,-0.08001
-0.12367,0.9291,0.34853,0.31206,-1.07671,-0.64199
-0.11408,0.938,0.32733,0.35901,-1.48092,-0.48173
-0.10249,0.94105,0.32236,0.33979,-1.78555,-0.34224
-0.10796,0.94024,0.32293,0.42328,-1.61151,-0.33964
-0.12477,0.94226,0.31077,0.35734,-1.02466,-0.06026
-0.14295,0.94336,0.29938,-0.25732,0.03256,-0.101
-0.16478,0.9363,0.31016,-0.52111,0.22017,-0.32249
-0.18122,0.92379,0.3373,-0.15599,-1.04409,-0.39693
-0.20116,0.91926,0.33836,0.72039,-0.60701,-1.69474
-0.20841,0.91255,0.35186,0.71033,0.0187,0.31197
-0.20725,0.91626,0.34279,0.27679,0.8954,1.06064
-0.22404,0.9177,0.32806,-0.28304,1.1005,-0.90966
-0.20157,0.93841,0.28062,-0.6113,0.29143,-0.2792
-0.15446,0.96208,0.22481,-0.23381,0.8873,0.11938
-0.10522,0.98355,0.14684,-0.58123,1.44846,0.48164
-0.08072,0.99532,0.05309,-0.55527,1.48489,0.74939
-0.06627,0.99702,-0.0394,-0.33987,0.6435,0.40329
-0.04376,0.99197,-0.11861,-0.35872,0.07574,0.27277
-0.01897,0.98421,-0.17599,-0.16835,-0.32491,0.23675
-0.00073,0.97639,-0.21602,0.23799,-0.79063,0.26147
0.00989,0.97089,-0.23932,0.08657,-0.43174,0.23701
0.00672,0.97001,-0.24298,0.06726,-0.6148,0.25592
-0.01189,0.9705,-0.2408,-0.17149,-0.97276,-0.05371
-0.04147,0.9718,-0.23212,0.07919,-0.9496,0.09479
-0.07104,0.97545,-0.20844,0.4098,-0.81865,0.2929
-0.09795,0.98081,-0.16859,0.56885,-0.73357,0.16218
-0.11549,0.98712,-0.11069,0.08485,-0.32989,-0.46106
-0.12347,0.99137,-0.04414,-0.04832,0.94955,-0.11375
-0.13205,0.99036,0.04185,-0.18809,1.6806,-0.05304
-0.1297,0.98242,0.13424,0.06951,2.21277,-0.30743
-0.1362,0.96954,0.20358,0.71136,1.47251,0.54498
-0.13981,0.95878,0.24738,0.02844,1.23655,0.20664
-0.13409,0.9482,0.28799,-1.05642,0.70404,0.46671
-0.13059,0.9396,0.31639,-0.84497,0.19785,0.48598
-0.1264,0.93799,0.32279,0.05267,-0.16154,0.21723
-0.12497,0.94356,0.30671,0.21356,-0.7773,-0.19546
-0.11891,0.95355,0.27676,0.18791,-1.22556,-0.54761
-0.1105,0.95999,0.2573,0.45237,-1.87933,-0.35544
-0.10229,0.96048,0.25887,0.55894,-1.768,-0.34029
-0.10814,0.95726,0.26825,0.38847,-1.36714,-0.36516
-0.12352,0.95614,0.26557,0.35929,-1.09173,-0.09412
-0.14909,0.95413,0.25962,-0.3955,0.33762,-0.08956
-0.18305,0.94264,0.27913,-0.44878,0.01102,-0.13428
-0.22602,0.92697,0.29939,0.31629,-0.43112,-1.3847
-0.25383,0.91638,0.30955,0.68808,-0.36187,0.17865
-0.24597,0.91568,0.31784,0.03449,0.33465,0.59523
-0.24527,0.92399,0.29338,-0.40419,0.9153,-0.6855
-0.20254,0.94699,0.24937,-0.38419,0.56113,-0.08816
-0.14719,0.97058,0.19056,-0.0303,1.00216,0.34549
-0.09374,0.98975,0.10768,-0.40241,1.19582,0.66677
-0.06207,0.998,0.012,-0.58579,1.55082,0.5687
-0.05172,0.99502,-0.08521,0.02825,0.47277,0.46689
-0.03144,0.98565,-0.16584,-0.30262,0.10354,0.28255
-0.01007,0.97562,-0.21924,-0.34549,-0.51935,0.14403
0.00039,0.96647,-0.25677,0.19067,-0.93187,0.29775
-8e-05,0.96055,-0.27812,0.30077,-0.55968,0.30857
-0.00834,0.95947,-0.28168,0.14477,-0.6295,0.19194
-0.03192,0.95868,-0.2827,-0.14543,-0.83483,0.03594
-0.06141,0.96097,-0.26974,0.11541,-0.84175,0.07626
-0.08646,0.96649,-0.24169,0.4188,-0.72786,0.29216
-0.10703,0.97472,-0.19611,0.27259,-0.55451,-0.36578
-0.11967,0.98378,-0.13365,0.24212,0.42353,-0.02233
-0.13606,0.98954,-0.048,-0.09742,1.8451,-0.35115
-0.14405,0.9888,0.03911,0.14038,1.14539,-0.24982
-0.14507,0.98296,0.11285,0.54315,1.27978,0.30623
-0.14175,0.97487,0.17186,-0.29535,1.60382,0.29538
-0.1292,0.96403,0.23228,-0.84588,1.21531,0.25796
-0.12469,0.95194,0.27976,-0.71816,0.60182,0.28484
-0.13254,0.9426,0.3065,-0.2355,0.18602,0.25537
-0.14458,0.93897,0.31213,0.22879,-0.55817,0.08913
-0.14531,0.94338,0.29819,0.26948,-1.09937,-0.39777
-0.13676,0.94893,0.2843,0.16073,-1.96253,-0.50233
-0.12949,0.95075,0.28161,0.32703,-2.0204,-0.33801
-0.13959,0.95018,0.2787,0.49834,-1.44621,0.00191
-0.15459,0.95044,0.26975,0.27466,-0.53651,0.30421
-0.17093,0.94814,0.26799,0.00519,-0.07767,0.05556
-0.18566,0.93811,0.29238,-0.28233,-0.24075,-0.23246
-0.2052,0.92682,0.31448,0.37201,-0.15829,-1.47883
-0.23422,0.91519,0.32797,0.5412,0.01753,-0.08896
-0.24046,0.91289,0.32986,0.02266,0.41664,0.51171
-0.24652,0.91615,0.31604,-0.19815,0.35391,-0.95459
-0.21521,0.93731,0.2741,-0.37576,0.31539,-0.58285
-0.1625,0.96307,0.21468,0.09683,1.40508,0.12666
-0.10939,0.98527,0.13141,-0.72368,1.76679,0.79454
-0.08316,0.99608,0.02996,-0.98121,1.55511,0.81585
-0.0721,0.99507,-0.06807,-0.11237,0.46748,0.56546
-0.04657,0.98774,-0.149,-0.2345,0.29612,0.49774
-0.01946,0.97839,-0.20583,-0.27713,-0.47104,0.24861
-0.00287,0.97025,-0.24207,0.15578,-0.83814,0.2342
0.00492,0.96533,-0.261,0.11247,-0.51124,0.33685
0.00025,0.96509,-0.26192,-0.01615,-0.76671,0.09496
-0.02135,0.966,-0.25766,-0.21106,-0.93827,-0.04378
-0.054,0.96838,-0.24355,0.13732,-0.95966,0.11713
-0.08467,0.97312,-0.21418,0.41891,-0.78495,0.18292
-0.11235,0.97924,-0.16871,0.43336,-0.64101,0.03378
-0.12996,0.98591,-0.10526,0.22804,0.00047,-0.24733
-0.14567,0.98885,-0.03086,-0.06211,1.48835,-0.15797
-0.1532,0.98655,0.0569,-0.14136,1.63686,-0.38386
-0.14982,0.97932,0.13595,0.45902,1.36039,0.45068
-0.1485,0.97042,0.19035,-0.08198,1.46943,0.48872
-0.13537,0.96116,0.24049,-0.72866,1.21724,0.38065
-0.12666,0.95111,0.28166,-0.73881,0.76259,0.49218
-0.12754,0.94432,0.30329,-0.31355,0.30203,0.31669
-0.13046,0.9429,0.30645,0.31152,-0.44343,0.0587
-0.13384,0.94834,0.28765,0.51055,-1.42276,-0.31929
-0.13113,0.95651,0.26054,0.43588,-1.43701,-0.6873
-0.1261,0.96031,0.24878,0.21494,-1.85033,-0.48584
-0.12865,0.9618,0.24163,0.25867,-1.59809,-0.24373
-0.13268,0.96375,0.23146,0.33907,-0.79645,0.16374
-0.1402,0.95961,0.24389,-0.11565,0.51465,0.43705
-0.16758,0.94841,0.26913,-0.26498,0.09496,-0.10173
-0.20733,0.9314,0.29916,0.42181,-0.51267,-1.07148
-0.24518,0.9161,0.31723,0.38288,-0.64372,0.02469
-0.24941,0.91492,0.31735,0.51566,-0.13219,0.30538
-0.25779,0.91832,0.30037,-0.26148,0.43264,-0.66469
-0.2276,0.93723,0.2642,0.04998,0.79723,-0.03583
-0.1803,0.96195,0.2053,0.2505,0.99621,0.07181
-0.14001,0.98287,0.11986,-0.13456,1.44201,0.36604
-0.11418,0.99324,0.02099,-0.88388,1.81252,0.81544
-0.10571,0.99151,-0.0757,-0.06012,0.28275,0.45777
-0.08527,0.98423,-0.155,-4e-05,0.21101,0.46628
-0.05364,0.97547,-0.21349,-0.19325,-0.44291,0.37653
-0.02696,0.96596,-0.25728,0.05476,-0.69672,0.47323
-0.00845,0.95856,-0.28475,0.06913,-0.47448,0.47745
-0.00645,0.95619,-0.29267,-0.11611,-0.6346,0.28475
-0.02321,0.95603,-0.29236,-0.33535,-0.93938,-0.05333
-0.05375,0.95728,-0.28413,0.05684,-0.97966,0.1452
-0.08262,0.96209,-0.25993,0.27256,-0.85338,0.29343
-0.1069,0.96985,-0.21902,0.27047,-0.62104,-0.16015
-0.12479,0.97931,-0.15928,0.28562,0.13305,-0.0103
-0.14448,0.98613,-0.08161,0.24325,1.7116,-0.19921
-0.1574,0.98745,0.01249,0.29008,1.33698,-0.36599
-0.15151,0.98369,0.09692,0.69388,1.37138,0.25764
-0.15161,0.97557,0.15898,0.50767,1.66016,0.31266
-0.14433,0.96634,0.21297,-0.8683,1.41338,0.42947
-0.14247,0.95469,0.26126,-0.98352,0.69973,0.37755
-0.14172,0.94603,0.29143,-0.52567,-0.00312,0.27529
-0.13737,0.94422,0.29929,0.08036,-0.53177,0.08884
-0.12891,0.9489,0.28803,0.23913,-1.17495,-0.19689
-0.11722,0.95623,0.2681,0.26882,-1.36259,-0.46704
-0.10799,0.95851,0.2638,0.3441,-1.95518,-0.3426
-0.11049,0.95515,0.27475,0.50702,-1.66418,-0.27566
-0.12233,0.95267,0.27829,0.22857,-0.8911,-0.08638
-0.13772,0.94915,0.28311,-0.24354,0.21513,0.12378
-0.16149,0.93889,0.30397,-0.361,0.01797,0.02348
-0.1877,0.92587,0.32791,0.25782,-0.53326,-1.58025
-0.21572,0.91409,0.34337,0.50027,-0.3767,0.35699
-0.21706,0.91451,0.34139,0.54538,0.1561,0.40513
-0.22598,0.91784,0.32633,-0.17115,0.69774,-0.45046
-0.20293,0.93907,0.27742,-0.50301,0.86046,-0.53154
-0.1543,0.96335,0.21945,-0.04675,0.9264,0.42002
-0.11043,0.98434,0.13739,-0.42294,0.96618,0.43631
-0.0818,0.99583,0.04042,-0.67462,1.49114,0.81916
-0.06507,0.99647,-0.05299,-0.26304,1.09487,0.4756
-0.0459,0.98989,-0.13417,-0.18797,0.07604,0.48113
-0.02007,0.98113,-0.19229,-0.5128,-0.28884,0.20284
-0.00187,0.97204,-0.2348,-0.14579,-0.85717,0.17775
0.00455,0.96511,-0.26179,0.18663,-0.61391,0.35681
-0.00128,0.96308,-0.26921,0.1746,-0.52164,0.23752
-0.02311,0.96259,-0.26996,-0.1134,-0.8971,0.00095
-0.05668,0.96375,-0.26069,-0.05171,-0.98349,0.06018
-0.0867,0.96795,-0.2357,0.30236,-0.90969,0.14447
-0.11308,0.97422,-0.19521,0.49414,-0.74317,0.25872
-0.13015,0.98193,-0.13741,0.42954,-0.70007,-0.13758
-0.13457,0.98857,-0.06801,0.25313,0.24186,-0.15701
-0.14537,0.98912,0.02234,0.1533,1.69519,-0.16153
-0.14287,0.98265,0.11831,0.26861,1.86585,-0.42551
-0.14651,0.97017,0.19316,0.64289,1.18918,0.67844
-0.15401,0.95852,0.23982,-0.08441,1.40336,0.47899
-0.15322,0.94512,0.28856,-1.02731,1.01505,0.46668
-0.14963,0.93315,0.32685,-0.99334,0.27624,0.29642
-0.14449,0.92732,0.34526,0.09517,-0.01251,0.3358
-0.13857,0.92972,0.3412,0.49922,-0.63651,-0.05799
-0.1261,0.93936,0.3189,0.22082,-1.02002,-0.58456
-0.11167,0.94779,0.29869,0.18819,-1.70463,-0.48364
-0.10203,0.95011,0.29474,0.33006,-1.69639,-0.36025
-0.11419,0.94818,0.29651,0.29383,-1.14305,-0.17632
-0.13847,0.94585,0.29359,0.23084,-0.85524,0.06673
-0.16618,0.93992,0.29822,-0.40145,0.0922,-0.15179
-0.19064,0.92808,0.31989,-0.11475,-0.30776,-0.70177
-0.22029,0.91778,0.33037,0.53085,-0.59953,-0.41089
-0.22736,0.91755,0.32621,0.86159,-0.33221,0.01906
-0.23207,0.92137,0.31179,0.20255,0.62575,-0.10895
-0.22932,0.93663,0.26483,-0.28718,1.10605,-0.6321
-0.18097,0.96052,0.21133,-0.66257,0.43623,0.05897
-0.12922,0.9831,0.12971,-0.78759,1.41011,0.63584
-0.08973,0.9953,0.03645,-0.91488,1.90956,0.84734
-0.06949,0.99566,-0.06181,-0.67896,1.63063,0.84604
-0.04206,0.98803,-0.1484,-0.29659,0.20075,0.44241
-0.00612,0.97723,-0.21211,-0.6276,-0.14834,0.43216
0.01137,0.96608,-0.25799,0.14943,-0.90312,0.18664
0.01456,0.95816,-0.28586,0.33192,-0.68405,0.2269
0.00724,0.95536,-0.29534,0.22739,-0.60466,0.36892
-0.01113,0.95601,-0.29311,-0.05009,-0.79851,0.11765
-0.03877,0.95842,-0.28271,-0.02988,-0.90222,0.07459
-0.06724,0.96377,-0.25813,0.25529,-0.85238,0.22805
-0.09326,0.97203,-0.21557,0.44227,-0.78587,0.32035
-0.11159,0.98186,-0.15329,0.31093,-0.62566,-0.22354
-0.11882,0.98985,-0.07801,-0.03749,0.33282,-0.16204
-0.13315,0.991,0.0135,-0.15909,1.80512,-0.14651
-0.13562,0.98405,0.11511,0.28427,1.92338,-0.42819
-0.13323,0.97144,0.19634,0.70231,1.20121,0.80448
-0.13557,0.95986,0.24554,0.1988,1.19449,0.61833
-0.12822,0.94762,0.29252,-0.91961,0.89015,0.50389
-0.12463,0.93633,0.32826,-1.28601,0.48002,0.27484
-0.1181,0.93051,0.3467,-0.41524,0.14978,0.15123
-0.11027,0.93147,0.34669,0.38334,-0.45647,-0.01628
-0.10013,0.93953,0.3275,0.41698,-0.88214,-0.44826
-0.09099,0.94715,0.30759,0.29575,-1.32234,-0.55291
-0.08847,0.9498,0.30009,0.32428,-1.96623,-0.37038
-0.10183,0.94982,0.29576,0.26084,-1.60183,-0.52044
-0.12563,0.9522,0.27843,0.4183,-1.10999,-0.00967
-0.14564,0.95175,0.2701,-0.25102,0.16301,-0.06008
-0.15589,0.94192,0.29745,-0.41176,0.11623,-0.09806
-0.17545,0.9303,0.3221,0.06232,-0.45969,-0.73963
-0.20145,0.9174,0.3432,0.40654,0.07639,0.25594
-0.19716,0.91563,0.35034,0.49949,0.40163,0.77817
-0.20117,0.92736,0.31546,-0.73314,0.21794,-0.62763
-0.18737,0.94691,0.26124,-0.67608,0.63672,-0.58076
-0.13012,0.97318,0.18971,-0.36982,1.22291,-0.04638
-0.08769,0.99138,0.09732,-0.31698,1.54649,0.59311
-0.07492,0.99716,-0.00785,-0.17492,1.27323,0.85894
-0.06448,0.99219,-0.10677,0.28061,0.33426,0.43282
-0.03527,0.98225,-0.18422,-0.43493,0.25644,0.29938
0.00177,0.97123,-0.23814,-0.68237,-0.37214,0.18986
0.02842,0.96123,-0.27428,0.00962,-0.67522,0.22658
0.03839,0.95712,-0.28712,0.12187,-0.52287,0.2355
0.0328,0.95886,-0.28199,-0.04468,-0.82568,0.22229
0.00959,0.9626,-0.27074,-0.18653,-1.01128,0.1321
-0.01863,0.96815,-0.24967,-0.01734,-0.9076,0.31769
-0.04074,0.97558,-0.21584,0.00534,-0.73739,0.16433
-0.06,0.98407,-0.16734,0.12986,-0.59862,0.04219
-0.07166,0.99227,-0.10128,0.0621,-0.12987,-0.21862
-0.0864,0.99598,-0.02373,0.29815,1.41919,-0.1524
-0.10198,0.99191,0.07549,0.32899,1.74254,-0.2284
-0.10639,0.98151,0.1591,0.62172,1.33293,0.49496
-0.11447,0.97021,0.21351,-0.05561,1.58702,0.62506
-0.11292,0.95779,0.26435,-0.96516,1.30641,0.45792
-0.11801,0.94445,0.30673,-1.32459,0.55509,0.39881
-0.12361,0.93643,0.32836,-0.42479,0.19853,0.28422
-0.12232,0.937,0.3272,0.32933,-0.35799,0.04586
-0.1097,0.94368,0.31215,0.24443,-0.92189,-0.39618
-0.09549,0.94987,0.29769,0.26522,-1.20344,-0.48794
-0.08941,0.95046,0.29772,0.34594,-1.82358,-0.35233
-0.0976,0.94735,0.30494,0.40489,-1.61857,-0.39671
-0.11689,0.94776,0.29678,0.40908,-1.17251,-0.23841
-0.13933,0.94849,0.28453,0.02319,-0.2045,0.07215
-0.16034,0.94201,0.29479,-0.51245,0.06893,-0.13181
-0.17399,0.93009,0.32351,-0.04198,-0.36775,-0.72117
-0.19191,0.91652,0.35094,0.6559,-0.14432,-0.88795
-0.19228,0.91708,0.34928,0.73891,0.05378,0.41278
-0.2,0.91642,0.34665,-0.09762,0.45255,0.08584
-0.19466,0.93218,0.30521,-0.55241,0.63348,-0.42928
-0.15328,0.95554,0.25188,-0.51458,0.32795,0.09531
-0.10519,0.97907,0.17424,-0.18966,1.07055,0.29667
-0.07502,0.99415,0.07766,-0.57416,1.51259,0.81107
-0.0646,0.99763,-0.02367,-0.34606,1.361,0.61167
-0.04929,0.99199,-0.11634,-0.23049,0.17098,0.45763
-0.02704,0.98158,-0.18914,-0.23667,-0.19701,0.39132
-0.00869,0.9707,-0.24012,0.03577,-0.75077,0.25618
0.00331,0.96086,-0.27703,0.10382,-0.53077,0.26744
0.00504,0.95678,-0.29075,-0.02378,-0.56596,0.15272
-0.01032,0.95602,-0.29312,-0.19378,-0.81164,-0.09203
-0.04152,0.95736,-0.28589,0.05207,-0.94374,0.02861
-0.07032,0.96339,-0.25873,0.2173,-0.89355,0.19757
-0.09599,0.97164,-0.21612,0.41061,-0.66957,0.30555
-0.11506,0.98096,-0.15646,0.15125,-0.2704,-0.34359
-0.1287,0.98832,-0.08159,0.15329,1.19806,-0.13228
-0.14959,0.98869,0.01033,0.10604,1.56941,-0.50823
-0.15508,0.98265,0.10169,0.42484,0.83528,-0.05541
-0.15164,0.97317,0.17303,0.48016,1.62525,0.78005
-0.15203,0.96251,0.22465,-0.04278,1.72237,0.57783
-0.14838,0.95026,0.27384,-1.04711,0.94619,0.37057
-0.14514,0.93944,0.31046,-0.83069,0.39859,0.24001
-0.13828,0.9362,0.32312,-0.11219,-0.09044,0.2614
-0.12951,0.9419,0.30991,0.04398,-0.88459,0.20575
-0.11139,0.95299,0.28179,-0.02589,-1.18866,-0.38575
-0.09152,0.95934,0.267,0.1663,-1.60076,-0.37986
-0.08407,0.95798,0.27425,0.68589,-1.97931,-0.36197
-0.09742,0.95341,0.28552,0.65091,-1.45948,-0.51593
-0.11696,0.95249,0.28123,0.11195,-0.38384,0.03984
-0.14545,0.9477,0.28409,-0.51873,0.32528,0.01405
-0.1748,0.93427,0.31077,-0.53829,-0.11613,-0.16053
-0.20831,0.91722,0.33957,0.29519,-0.38722,-1.2724
-0.21477,0.91227,0.34875,0.51265,-0.31173,0.02382
-0.20603,0.91258,0.35319,0.34781,-0.05113,0.56662
-0.20918,0.92123,0.32799,0.20575,0.88233,-0.39174
-0.1657,0.94497,0.28209,-0.12983,0.72208,-0.27292
-0.12114,0.97019,0.20989,-0.07257,1.03835,0.24554
-0.08357,0.98951,0.11787,-0.78188,1.55717,0.79691
-0.0641,0.99773,0.02085,-0.72602,1.40807,0.66919
-0.04675,0.99643,-0.07034,-0.33515,0.50954,0.64855
-0.01753,0.98925,-0.14519,-0.57954,0.29516,0.51799
0.00504,0.98029,-0.19749,-0.3472,-0.44099,0.26962
0.01673,0.97171,-0.23558,0.06753,-0.82683,0.2444
0.01834,0.96627,-0.25686,0.22999,-0.51085,0.25642
0.00938,0.96515,-0.26153,0.12951,-0.60469,0.18563
-0.00947,0.96581,-0.25906,-0.08577,-0.91323,0.03717
-0.03472,0.96886,-0.24515,0.01326,-0.96631,0.02432
-0.06136,0.97423,-0.21703,0.23754,-0.84755,0.19701
-0.08804,0.98104,-0.17265,0.27757,-0.74077,0.01573
-0.10862,0.98783,-0.11132,0.09275,-0.22298,-0.17253
-0.13176,0.99076,-0.03214,0.0057,1.65766,-0.3312
-0.14746,0.98717,0.06124,0.0781,1.5629,-0.42301
-0.14544,0.97964,0.13839,0.49672,1.01989,0.28573
-0.14271,0.9698,0.19781,-0.38076,1.77454,0.27494
-0.13957,0.95615,0.25749,-0.7464,1.69728,0.06973
-0.14466,0.94175,0.30362,-0.61134,0.37139,0.38901
-0.15134,0.93415,0.32321,-0.03516,-0.1146,0.34041
-0.14816,0.93519,0.32165,0.11207,-0.56311,0.15001
-0.13632,0.94222,0.306,0.04413,-1.04242,-0.31063
-0.12096,0.95063,0.28577,0.16472,-1.40722,-0.36792
-0.10967,0.95366,0.28019,0.46826,-1.8961,-0.21772
-0.11579,0.95257,0.28144,0.48753,-1.69918,-0.3838
-0.13371,0.95331,0.27077,0.28273,-1.11203,-0.18137
-0.14644,0.95539,0.25649,-0.18141,0.02134,0.06199
-0.16216,0.95177,0.26044,-0.55405,0.34893,-0.14502
-0.17859,0.94204,0.28403,-0.01791,-0.38085,-0.52394
-0.2037,0.93041,0.30468,0.78768,-0.04837,-1.24406
-0.20745,0.92408,0.321,0.48687,-0.10102,0.30394
-0.20531,0.92217,0.32778,0.16667,-0.38641,0.33296
-0.21525,0.92921,0.30037,0.19539,0.20177,-0.77269
-0.19198,0.9489,0.25045,-0.24326,1.14769,0.04232
-0.13161,0.97385,0.18516,-0.36383,1.85354,0.06507
-0.09504,0.99092,0.09508,-0.88799,1.60225,0.74372
-0.0785,0.99691,0.00052,-0.64547,1.09864,0.62575
-0.05538,0.99443,-0.08963,-0.24283,0.5355,0.59335
-0.02583,0.98552,-0.16754,-0.28933,0.41984,0.597
-0.00062,0.97418,-0.22575,-0.24826,-0.42632,0.39934
0.01657,0.96345,-0.26737,0.01786,-0.84867,0.33652
0.02556,0.95722,-0.28822,0.10979,-0.41496,0.22386
0.02168,0.95706,-0.28906,-0.05141,-0.51949,0.23972
0.00186,0.959,-0.28341,-0.18092,-0.82077,-0.01534
-0.02855,0.9627,-0.26904,0.13007,-0.96408,0.12012
-0.05778,0.96938,-0.23866,0.32897,-0.82076,0.22386
-0.08337,0.9782,-0.19018,0.3104,-0.73104,-0.07764
-0.10121,0.98701,-0.12474,0.21879,-0.0554,-0.1818
-0.12167,0.9915,-0.0461,0.00767,1.33925,-0.12382
-0.13313,0.98997,0.04735,-0.20351,1.53286,-0.61347
-0.12928,0.9832,0.12883,0.38271,1.25854,0.45733
-0.12306,0.97603,0.17953,0.49516,1.57061,0.63993
-0.11127,0.96878,0.22154,-0.502,1.32028,0.47363
-0.10859,0.95976,0.25898,-0.73171,0.83725,0.47516
-0.11264,0.9529,0.28159,-0.6749,0.24151,0.22138
-0.11674,0.95219,0.28232,0.09409,-0.44908,0.07666
-0.11528,0.95768,0.26373,0.31206,-1.03666,-0.14448
-0.10964,0.96312,0.24572,0.30654,-1.32263,-0.37634
-0.10322,0.9631,0.24856,0.2817,-1.97802,-0.35508
-0.10417,0.96115,0.25562,0.31674,-1.75667,-0.29167
-0.11056,0.96079,0.25427,-0.07068,-0.44717,0.15581
-0.1258,0.95815,0.25715,-0.28773,0.22032,-0.22997
-0.15223,0.94768,0.28059,-0.28446,-0.65469,-0.17537
-0.17756,0.94086,0.28853,-0.15928,-1.28461,-0.45089
-0.19257,0.94142,0.27685,0.78394,-0.68261,-1.935
-0.18593,0.93707,0.2955,1.36089,1.03824,0.53659
-0.15957,0.94103,0.29834,1.22468,2.92796,2.07912
-0.18357,0.9491,0.25595,-1.00823,-0.55725,-1.87906
-0.17616,0.96673,0.18547,-0.80885,0.08109,0.91239
-0.1198,0.98463,0.12707,-0.6299,1.26102,-0.20232
-0.06055,0.99735,0.04035,-0.77016,2.00447,0.95078
-0.05415,0.99676,-0.05942,-0.04626,0.78771,0.70026
-0.04476,0.98799,-0.14788,-0.03477,0.06082,0.25739
-0.01485,0.97636,-0.21564,-0.64213,-0.01715,0.22775
0.00856,0.96293,-0.2696,-0.04275,-0.59944,0.39279
0.01992,0.95235,-0.30435,0.54216,-0.46322,0.46168
0.02029,0.94836,-0.31655,0.2522,-0.27949,0.4019
0.00957,0.94864,-0.31622,-0.12146,-0.90715,0.20219
-0.01784,0.94941,-0.31353,-0.50623,-1.14857,-0.06512
-0.05302,0.9528,-0.29892,0.09799,-0.89668,0.20695
-0.08783,0.95986,-0.26638,0.35634,-0.86594,0.32212
-0.11454,0.96935,-0.21735,0.56852,-0.71453,0.43285
-0.1256,0.98042,-0.15166,0.26286,-0.59625,-0.38765
-0.12013,0.98923,-0.08366,0.04866,0.58074,0.04906
-0.12402,0.99225,0.00807,-0.56153,2.55902,-0.17007
-0.12609,0.98619,0.10741,0.03496,2.59041,-0.08743
-0.1412,0.97399,0.17722,1.00604,1.19021,0.82219
-0.14617,0.96403,0.22199,0.31022,0.98461,0.60482
-0.14744,0.95225,0.26734,-0.80958,0.64375,0.20357
-0.145,0.94193,0.30287,-1.34284,0.18944,0.64531
-0.14298,0.93706,0.31855,-0.3305,-0.03926,0.12573
-0.13864,0.93958,0.31299,0.26212,-0.90865,-0.16982
-0.1302,0.94695,0.29382,0.40339,-1.24038,-0.60277
-0.1157,0.95087,0.28715,0.50223,-1.91504,-0.47241
-0.10784,0.95142,0.28837,0.10386,-1.5292,-0.60655
-0.12636,0.95329,0.27433,0.18549,-1.22301,-0.04765
-0.15152,0.95618,0.2505,0.44536,-0.27639,0.09403
-0.16625,0.94877,0.26867,-0.33077,0.33882,-0.02029
-0.18132,0.93711,0.29823,-0.36235,-0.77744,-0.40045
-0.20058,0.93273,0.29962,0.59496,-0.65719,-1.57688
-0.20059,0.92852,0.31241,0.98425,0.05635,0.18467
-0.19516,0.92706,0.3201,0.6787,1.25644,1.51445
-0.20374,0.93944,0.27559,-0.50756,0.82233,-1.16165
-0.16979,0.95865,0.22836,-0.7093,0.24996,0.48543
-0.12079,0.97935,0.16214,-0.48838,0.2944,0.40762
-0.07738,0.99418,0.07495,-0.88064,0.84829,1.12544
-0.05213,0.99856,-0.01265,-0.80083,1.84815,0.56502
-0.03922,0.99399,-0.10224,-0.34111,0.14699,0.41801
-0.02065,0.98498,-0.17143,-0.20418,-0.36057,0.11314
-0.00899,0.9755,-0.21981,0.47133,-0.82763,0.00748
-0.00293,0.96737,-0.25335,0.69705,-0.90351,0.08245
0.00231,0.9631,-0.26914,0.28428,-0.44009,0.33065
0.00114,0.96283,-0.27009,-0.18818,-0.74492,0.10071
-0.01198,0.96476,-0.26287,-0.22137,-0.97945,-0.11213
-0.03345,0.96911,-0.24436,0.04564,-0.93421,0.20662
-0.0575,0.97569,-0.21147,0.283,-0.83986,0.45525
-0.07798,0.98377,-0.1616,0.2843,-0.76317,0.10153
-0.08663,0.9917,-0.09501,0.00658,-0.63272,-0.62663
-0.09345,0.99534,-0.02378,-0.39168,1.335,-0.10982
-0.09892,0.9922,0.07587,-0.46008,2.10793,-0.25046
-0.09984,0.98076,0.16773,0.34413,2.58847,-0.10781
-0.10792,0.96939,0.22055,0.84157,1.09279,0.76446
-0.10466,0.96104,0.25583,-0.34308,0.74958,0.40468
-0.10545,0.95229,0.28639,-1.29524,0.28799,0.41146
-0.10467,0.94734,0.30264,-0.83327,0.22361,0.28678
-0.10558,0.94962,0.29507,0.04035,-0.44584,0.10887
-0.10683,0.9576,0.26756,0.30612,-0.89008,-0.47824
-0.10455,0.96345,0.24665,0.40824,-1.60531,-0.33503
-0.09988,0.96431,0.24523,0.27305,-1.85109,-0.3131
-0.10171,0.96166,0.25469,0.12207,-1.25797,-0.40912
-0.11652,0.96051,0.25266,0.08863,-0.63793,0.00335
-0.13713,0.9591,0.24763,-0.05036,0.15143,-0.21698
-0.15225,0.95005,0.27246,-0.19799,-0.4859,0.1754
-0.17095,0.94228,0.28789,0.50774,-0.52338,-1.39096
-0.1836,0.93399,0.30651,0.47799,-0.18744,0.22774
-0.17821,0.9348,0.30722,0.43433,0.8991,0.98217
-0.1827,0.94365,0.27593,-0.29649,1.33018,-0.31429
-0.14736,0.96189,0.23035,-0.62782,0.03607,-0.32363
-0.09593,0.98246,0.15987,-0.4617,0.27761,0.14676
-0.04991,0.99623,0.07095,-0.44463,1.53726,0.80986
-0.02563,0.99932,-0.0266,-0.71891,1.62428,0.72613
-0.01163,0.99259,-0.12093,-0.36735,0.58598,0.55105
0.00948,0.98039,-0.19684,-0.36646,0.01691,0.33122
0.02512,0.9667,-0.25467,0.03156,-0.6241,0.36143
0.03521,0.95474,-0.29535,0.20556,-0.52704,0.11499
0.03511,0.94816,-0.31584,0.10426,-0.27131,0.33633
0.02092,0.94754,-0.31894,-0.03832,-0.67109,0.14619
-0.00605,0.94874,-0.31599,-0.23223,-1.01845,0.01914
-0.03751,0.95293,-0.30086,0.19647,-0.713,0.31114
-0.06901,0.96088,-0.26824,0.36072,-0.67685,0.38846
-0.09546,0.97157,-0.21668,0.33084,-0.68655,-0.24795
-0.10643,0.98306,-0.14923,0.14246,0.29473,0.05673
-0.11716,0.99075,-0.06849,-0.37202,1.8202,-0.43138
-0.11771,0.99247,0.03374,-0.37147,1.81847,-0.53361
-0.11548,0.98632,0.1176,0.76329,1.63678,0.81616
-0.11409,0.97951,0.16594,0.51863,1.47485,0.61127
-0.10882,0.97164,0.20995,-0.01715,1.36255,0.55737
-0.11139,0.96147,0.25135,-1.20947,0.42281,0.31759
-0.1119,0.95322,0.28079,-0.31248,-0.16425,-0.02
-0.10896,0.95046,0.29112,0.42229,-0.83977,-0.28879
-0.10601,0.9548,0.27771,0.45382,-0.93862,-0.60016
-0.10638,0.95918,0.26202,0.3993,-1.86024,-0.44959
-0.10981,0.95961,0.25901,0.52598,-1.99253,-0.51406
-0.11944,0.95861,0.25844,0.42402,-1.47554,-0.30982
-0.13891,0.95873,0.24809,0.25983,-0.43774,0.17234
-0.16316,0.95297,0.25538,-0.36607,0.12282,0.1279
-0.18049,0.9418,0.2836,-0.4318,-0.65469,-0.2681
-0.19968,0.93503,0.29299,0.6012,-0.62377,-1.54143
-0.21099,0.92711,0.30977,0.63047,-0.31814,0.48565
-0.21229,0.92795,0.30633,0.31548,1.53055,1.02216
-0.20533,0.94098,0.26908,-0.63711,1.15622,-0.42074
-0.16995,0.96225,0.21256,-0.5259,-0.28682,0.12405
-0.12049,0.98352,0.13483,-0.3782,0.33225,0.52307
-0.06652,0.99691,0.04174,-0.52181,2.1764,0.5369
-0.03649,0.99731,-0.06356,-0.52037,1.83727,0.66257
-0.02412,0.98649,-0.16206,-0.20597,0.00212,0.44765
-0.00179,0.97194,-0.23522,-0.40764,-0.01994,0.34801
0.0148,0.9583,-0.28538,0.24223,-0.71971,0.15661
0.02594,0.94864,-0.31531,0.40165,-0.56713,0.30792
0.03014,0.94466,-0.32665,0.09549,-0.37307,0.4208
0.02297,0.9451,-0.32598,-0.23792,-0.76092,0.17216
0.00198,0.94734,-0.32024,-0.4192,-0.98184,-0.02484
-0.02725,0.95257,-0.30309,0.03871,-0.88183,0.2534
-0.05904,0.9611,-0.2698,0.40608,-0.71599,0.46517
-0.08559,0.97209,-0.21841,0.26021,-0.67269,-0.15382
-0.10355,0.98312,-0.15081,0.2085,0.15793,0.02774
-0.12516,0.99034,-0.05965,0.012,1.76058,-0.3532
-0.13379,0.99013,0.04177,0.18962,1.76401,-0.20396
-0.14506,0.98282,0.11409,0.70163,1.52353,0.56637
-0.14997,0.9741,0.16925,-0.22932,1.61415,0.45841
-0.15068,0.96125,0.23085,-1.09491,1.27534,0.45529
-0.15661,0.94778,0.27783,-1.29906,0.5479,0.58858
-0.16123,0.94066,0.2986,-0.22467,0.06924,0.37372
-0.1547,0.94191,0.29811,0.23232,-0.93157,-0.40034
-0.1429,0.94887,0.28147,0.16063,-0.92654,-0.65646
-0.13025,0.95211,0.27663,0.52133,-2.28147,-0.36632
-0.13097,0.95245,0.27511,0.68294,-1.85958,-0.36191
-0.14762,0.95385,0.26149,0.69677,-1.6209,-0.37359
-0.15949,0.95712,0.24185,0.31327,-0.27773,-0.01214
-0.16612,0.95653,0.23969,-0.12616,0.61676,-0.22407
-0.16708,0.94835,0.26966,-0.43076,0.20824,-0.03951
-0.1748,0.93909,0.29589,0.31128,-0.53116,-0.8924
-0.20119,0.92655,0.31783,0.85503,-0.36869,-0.40689
-0.21209,0.92337,0.32,0.88218,0.22261,1.09307
-0.21924,0.91796,0.33057,0.26871,0.56867,1.65898
-0.22258,0.93381,0.28009,-0.83475,0.14793,-0.09015
-0.18866,0.95676,0.22139,-0.95755,0.02687,0.3854
-0.14043,0.97984,0.1421,-0.20596,1.81383,0.62473
-0.10564,0.99345,0.04354,-0.96549,1.58591,0.88
-0.09609,0.99341,-0.06246,-0.64625,0.97969,0.55673
-0.08197,0.98407,-0.15773,-0.13954,0.29644,0.38024
-0.06093,0.97146,-0.22925,0.17485,-0.05651,0.27803
-0.04223,0.95919,-0.27959,0.49523,-0.70049,0.18545
-0.02273,0.94948,-0.31301,0.26023,-0.53789,0.40572
-0.01258,0.94695,-0.32114,-0.02432,-0.42818,0.2231
-0.02281,0.94687,-0.32081,-0.2453,-0.83865,0.11905
-0.04733,0.94941,-0.31044,0.04663,-1.03124,0.107
-0.07242,0.95588,-0.28471,0.06404,-0.82306,0.22485
-0.09738,0.96497,-0.24361,0.28885,-0.66453,0.37981
-0.11541,0.9763,-0.1831,0.06892,-0.44923,-0.42623
-0.12793,0.98543,-0.11208,0.30496,0.85966,0.25429
-0.14238,0.98949,-0.02522,0.11403,1.5654,-0.48935
-0.14346,0.98705,0.07175,0.18845,1.13214,-0.1147
-0.14403,0.9778,0.15221,0.71365,1.59003,1.06039
-0.14362,0.96746,0.20829,-0.40351,1.71201,0.23803
-0.14979,0.95478,0.25684,-1.09228,0.95093,0.15721
-0.15434,0.94672,0.28265,-1.08803,-0.35448,0.2851
-0.13906,0.94822,0.28554,-0.03706,-0.12255,0.2744
-0.12011,0.9551,0.27083,0.25568,-0.51975,0.19978
-0.10535,0.96406,0.2439,0.22049,-0.91395,-0.24183
-0.09656,0.96919,0.22661,0.40441,-1.52053,-0.17839
-0.099,0.96776,0.23157,0.58683,-2.02073,-0.32076
-0.11675,0.96506,0.23456,0.42935,-1.42257,-0.77937
-0.14055,0.96542,0.21956,0.28485,-0.45222,-0.2
-0.16114,0.96136,0.22318,-0.10292,0.33937,0.30465
-0.17476,0.95068,0.25625,-0.56284,-0.11653,0.0536
-0.19953,0.93505,0.29304,0.28427,-0.29647,-1.48234
-0.21698,0.92302,0.31772,0.32994,-0.46602,0.20184
-0.21066,0.92015,0.33006,-0.07564,0.26146,0.17993
-0.21453,0.92851,0.30305,-0.23597,0.67267,-0.67214
-0.17738,0.94895,0.26082,-0.30761,0.43858,-0.17319
-0.13648,0.97213,0.19062,0.00851,0.99062,0.44119
-0.10012,0.98929,0.10624,-0.15116,1.32784,0.69097
-0.07496,0.99715,0.00825,-0.36071,1.43397,0.87879
-0.05578,0.99451,-0.08848,-0.10831,0.70223,0.81399
-0.02794,0.98463,-0.17238,-0.42235,0.22782,0.54978
0.00267,0.9728,-0.23162,-0.57696,-0.232,0.3384
0.02032,0.96067,-0.27693,0.06106,-0.89617,0.12619
0.02463,0.952,-0.30511,0.12918,-0.40201,0.33769
0.01693,0.94968,-0.31277,0.0892,-0.38019,0.32701
-0.00199,0.95003,-0.31215,-0.09611,-0.84528,0.14031
-0.0238,0.95414,-0.29842,0.03902,-0.82299,0.14266
-0.04251,0.96207,-0.26946,0.14724,-0.78859,0.19762
-0.06098,0.97238,-0.22528,0.29503,-0.78592,0.25508
-0.07198,0.98387,-0.16378,-0.0436,-0.26988,-0.27914
-0.08468,0.99234,-0.08995,0.00713,1.27428,-0.07249
-0.10325,0.99459,0.01131,0.04177,1.82084,-0.32912
-0.11088,0.98804,0.10712,0.61602,1.46763,0.32085
-0.11997,0.97734,0.17438,0.30663,1.39476,0.35858
-0.11805,0.9659,0.23045,-0.72204,1.25167,0.52841
-0.11541,0.95398,0.27677,-1.06289,0.51183,0.61074
-0.10974,0.94692,0.30215,-0.66898,0.25878,0.4264
-0.10336,0.94808,0.30077,0.04587,-0.32202,0.26558
-0.09352,0.95689,0.27497,0.18731,-0.64908,-0.41147
-0.08383,0.96521,0.24767,0.26445,-1.28293,-0.43257
-0.07335,0.96827,0.23887,0.40595,-2.02525,-0.22024
-0.07265,0.96629,0.24698,0.3813,-1.56604,-0.29846
-0.08778,0.96392,0.25129,0.24861,-1.04333,-0.31353
-0.11197,0.96241,0.24744,0.04459,-0.14993,0.16182
-0.14108,0.95638,0.25581,-0.24801,0.19716,-0.35116
-0.16181,0.94453,0.28579,-0.05656,-0.5442,-0.56066
-0.18819,0.9341,0.30337,0.58727,-0.47613,-1.26447
-0.19736,0.93033,0.30907,0.80163,-0.17394,0.16198
-0.19988,0.9327,0.30021,0.45394,0.52237,0.44664
-0.20102,0.94485,0.25857,-0.10035,0.81596,-0.43142
-0.16647,0.96482,0.20347,-0.39041,0.14391,0.32331
-0.1151,0.98397,0.1362,-0.39873,0.93821,0.35245
-0.0623,0.9969,0.04799,-1.31701,1.63835,1.3096
-0.03813,0.99809,-0.04857,-1.46087,1.54109,0.59891
-0.0223,0.98943,-0.14329,-0.96886,0.27353,0.51423
-0.00665,0.97481,-0.22293,-0.45537,0.05004,0.40902
0.00764,0.95811,-0.2863,0.05574,-0.50221,0.25996
0.01778,0.94334,-0.33135,0.33045,-0.65542,0.15525
0.0156,0.93577,-0.35226,0.1177,-0.39056,0.22644
0.0017,0.9349,-0.3549,0.17709,-0.76526,0.13735
-0.01758,0.93764,-0.34717,0.18151,-0.90141,0.08387
-0.03474,0.94505,-0.32509,0.27863,-0.83738,0.38
-0.05381,0.95555,-0.28988,0.34272,-0.76286,0.44272
-0.07368,0.96918,-0.2351,0.13674,-0.63878,0.06749
-0.08271,0.98301,-0.16386,-0.30431,0.05486,-0.1014
-0.0927,0.99195,-0.08627,-0.52186,1.5433,-0.2959
-0.10348,0.99443,0.02014,-0.57432,2.0543,-0.71693
-0.10996,0.98673,0.11947,0.88271,1.51666,0.70011
-0.1138,0.97769,0.17654,0.88893,1.28339,0.66611
-0.11262,0.96896,0.22006,-0.07369,1.00702,0.65308
-0.11834,0.95788,0.26163,-1.13292,0.26432,0.481
-0.1225,0.94953,0.28876,-0.85263,0.27692,0.42368
-0.12425,0.9483,0.29203,0.0074,-0.0621,0.21363
-0.11666,0.95433,0.27502,0.09426,-1.00175,-0.4068
-0.10342,0.96054,0.2582,0.03277,-1.62721,-0.76287
-0.08253,0.96042,0.26606,0.21184,-1.76313,-0.55279
-0.07752,0.95676,0.28034,0.39821,-1.5218,-0.28371
-0.09656,0.95831,0.26892,0.72632,-1.03248,0.18518
-0.12116,0.95804,0.25975,0.44383,0.21577,-0.15495
-0.1446,0.94362,0.29778,-0.52184,0.21744,-0.44688
-0.17755,0.92333,0.34048,0.29861,0.24529,-1.82878
-0.19183,0.91385,0.35786,-0.00195,0.68107,0.66256
-0.19848,0.91581,0.34913,0.21622,-1.38717,0.86988
-0.21584,0.9208,0.32485,0.31133,-0.46693,-0.55544
-0.19206,0.93941,0.28394,-0.35164,0.85025,-0.78033
-0.13214,0.96667,0.21926,-0.07134,2.00833,0.71173
-0.09958,0.98552,0.1372,-0.4581,1.1765,0.63296
-0.09737,0.99451,0.03827,-0.06011,0.653,1.02486
-0.08308,0.99507,-0.05415,-0.30915,0.85277,0.40793
-0.05217,0.98911,-0.13758,-0.61408,0.31066,0.15818
-0.01711,0.97791,-0.20832,-0.88957,-0.03392,0.29128
0.00854,0.96386,-0.26628,-0.4857,-0.50857,0.33885
0.01443,0.95157,-0.3071,0.14873,-0.41344,0.4933
0.0075,0.94541,-0.32578,0.03399,-0.34051,0.25544
-0.01048,0.94395,-0.32993,0.01876,-0.80051,0.26724
-0.03412,0.94718,-0.31889,-0.0232,-1.02971,0.04489
-0.05667,0.95415,-0.29391,0.11642,-0.94942,0.26625
-0.07762,0.96317,-0.25743,0.29194,-0.77634,0.25992
-0.09577,0.97421,-0.20428,0.27524,-0.77017,0.08952
-0.10489,0.98508,-0.13643,-0.05149,0.04052,-0.07337
-0.12477,0.99082,-0.05194,-0.02073,1.70472,-0.37737
-0.14615,0.98828,0.0441,0.0477,1.90564,-0.69313
-0.15486,0.97961,0.12799,0.55705,0.97239,0.32203
-0.15361,0.97154,0.18029,-0.11476,1.26855,0.82621
-0.14808,0.9623,0.22814,-0.6872,0.90715,0.60812
-0.15179,0.95077,0.27017,-0.99929,0.72411,0.5422
-0.15768,0.94213,0.29584,-0.10041,0.00757,0.21637
-0.15974,0.9413,0.29738,0.30505,-0.84357,0.05189
-0.15079,0.94959,0.27485,0.11844,-1.0609,-0.58042
-0.13351,0.9581,0.25341,0.29148,-1.44763,-0.25398
-0.12,0.96092,0.24947,0.42157,-1.42422,-0.26822
-0.12638,0.95878,0.25449,0.41674,-1.35897,-0.358
-0.14909,0.95952,0.23895,0.60774,-0.74777,-0.22955
-0.16884,0.95649,0.23795,-0.1499,-0.07349,-0.41288
-0.18368,0.94423,0.27329,-0.37035,-0.08209,-0.25956
-0.20574,0.9348,0.28949,0.51009,-0.30678,-1.71776
-0.22558,0.92181,0.31522,0.61223,0.49501,0.31861
-0.22632,0.92192,0.31437,0.00876,1.65503,1.49257
-0.24191,0.92877,0.28082,-0.49431,-0.01195,-0.98057
-0.22327,0.9461,0.23463,-0.57555,-0.19185,-0.16226
-0.1812,0.96537,0.18766,0.03169,0.28525,0.57546
-0.13117,0.98459,0.11568,0.06374,1.76503,0.83405
-0.09893,0.99481,0.02362,-0.42199,1.72417,0.93323
-0.07861,0.99445,-0.06994,-0.69968,0.48584,0.44165
-0.05046,0.9874,-0.14994,-0.7987,0.13175,0.33978
-0.02329,0.97653,-0.21412,-0.09022,-0.44021,0.36398
-0.00393,0.96335,-0.26819,0.16381,-0.83774,0.3816
0.0087,0.95158,-0.30728,0.02528,-0.42311,0.29844
0.00398,0.94599,-0.32418,-0.12521,-0.51344,0.15371
-0.01457,0.94505,-0.3266,0.01751,-0.86033,0.05661
-0.03887,0.94775,-0.31664,0.01096,-0.93349,-0.0252
-0.06609,0.95443,-0.29102,0.36426,-0.7302,0.4053
-0.0938,0.96437,-0.24734,0.37292,-0.63477,0.17741
-0.11644,0.97604,-0.18382,0.20825,-0.50976,-0.29772
-0.14402,0.984,-0.10489,0.1811,1.67561,-0.29646
-0.16793,0.98577,-0.00712,0.20848,1.56068,-0.52649
-0.17313,0.98166,0.07977,0.56465,1.07028,0.26698
-0.17229,0.97451,0.14364,0.24051,1.45372,0.44692
-0.16179,0.96596,0.20182,-0.71402,1.27837,0.52362
-0.15951,0.95457,0.25167,-0.8964,0.77819,0.65993
-0.16475,0.94568,0.28025,-0.59441,0.39442,0.488
-0.17074,0.94329,0.28469,0.0558,-0.22794,0.24663
-0.16367,0.94894,0.26966,0.15403,-0.98371,-0.03845
-0.14858,0.95673,0.25018,0.04057,-0.94261,-0.42831
-0.13395,0.96043,0.24418,0.15229,-1.59927,-0.2775
-0.12647,0.95946,0.25187,0.31466,-1.67484,-0.31072
-0.13441,0.95816,0.25269,0.44897,-1.32857,-0.29303
-0.14811,0.95855,0.24341,0.23505,-0.48511,0.01218
-0.16884,0.95342,0.24997,-0.24096,-0.27313,-0.15332
-0.18995,0.94356,0.27132,0.36219,-0.48967,-1.26799
-0.20828,0.93245,0.2952,0.61857,-0.18812,-1.19764
-0.20587,0.93145,0.30001,0.46215,0.52347,0.68543
-0.21033,0.9334,0.29074,-0.09312,0.64954,-0.46744
-0.20596,0.9456,0.25184,-0.37728,0.43705,-0.49501
-0.16311,0.96584,0.20135,-0.28153,0.91717,0.50037
-0.11446,0.98477,0.13088,-0.42814,1.37705,0.49151
-0.08046,0.99581,0.04337,-0.71286,1.56966,0.89523
-0.05479,0.99716,-0.05165,-0.45113,0.689,0.54521
-0.0179,0.99007,-0.13938,-0.5897,0.54893,0.58631
0.01189,0.97702,-0.21279,-0.54963,0.45773,0.55511
0.03146,0.96378,-0.26483,0.01985,-0.84076,0.2167
0.04465,0.95152,-0.30431,0.05556,-0.72554,0.40432
0.04488,0.94642,-0.3198,0.01808,-0.39582,0.21216
0.03234,0.94682,-0.32013,7e-05,-0.83282,0.16939
0.01409,0.94989,-0.31225,0.05572,-1.01473,-0.00118
-0.00433,0.95689,-0.29042,0.12524,-1.01615,0.07812
-0.02242,0.96659,-0.25534,0.22914,-0.81017,0.37179
-0.04002,0.97794,-0.20502,0.31367,-0.79953,0.45688
-0.04816,0.98884,-0.14096,-0.24949,-0.61572,-0.55707
-0.04889,0.99604,-0.07423,-0.47167,0.63908,-0.01502
-0.06371,0.99773,0.02182,-0.65008,2.39351,-0.59018
-0.08401,0.9882,0.12806,-0.25271,2.42011,-0.52274
-0.09671,0.97454,0.20228,0.99428,1.54371,0.87501
-0.10011,0.96379,0.24713,0.04563,1.01755,0.8395
-0.10883,0.95246,0.28456,-1.10476,0.4234,0.77376
-0.10794,0.94445,0.3104,-0.95253,0.40125,0.40358
-0.10095,0.94476,0.31183,-0.0072,-0.08878,0.22173
-0.09067,0.95209,0.29204,0.2703,-0.80505,-0.17743
-0.07518,0.9593,0.27219,0.32107,-1.38567,-0.42366
-0.06244,0.96264,0.26347,0.36217,-1.98155,-0.35569
-0.06834,0.96291,0.26102,0.27615,-1.71509,-0.37263
-0.09333,0.96372,0.25004,0.39385,-1.04795,-0.0218
-0.11722,0.96423,0.23771,0.15902,-0.09637,0.20817
-0.13494,0.95805,0.25283,-0.57997,0.15078,-0.2728
-0.14617,0.94777,0.28348,-0.05921,-0.15472,-0.85122
-0.17065,0.93517,0.31034,0.38511,0.03333,-0.23178
-0.17079,0.93921,0.29782,0.84595,-0.27968,0.30133
-0.17172,0.94157,0.28973,0.18374,-0.22824,0.2363
-0.17649,0.9522,0.24929,-0.09581,0.32671,-0.59059
-0.12633,0.97353,0.19046,-0.53268,1.21754,0.05685
-0.07675,0.99004,0.11795,-0.46714,1.48763,0.31059
-0.05636,0.99816,0.02193,-0.9415,1.03998,1.07574
-0.04761,0.99614,-0.07372,-0.46349,0.96489,0.78734
-0.02258,0.98645,-0.16245,-0.21648,0.50018,0.71909
0.01423,0.97138,-0.23708,-0.67649,0.37627,0.61125
0.03762,0.95564,-0.29213,-0.40147,-0.60157,0.30541
0.04185,0.94231,-0.33211,0.05359,-0.82573,0.21274
0.03042,0.93646,-0.34943,0.06258,-0.42218,0.28608
0.00541,0.93664,-0.35025,0.06683,-0.55987,0.34438
-0.02571,0.93911,-0.34265,-0.08446,-0.86132,0.06933
-0.05624,0.94586,-0.31965,0.06045,-0.89535,0.07548
-0.08451,0.95571,-0.28191,0.57141,-0.75438,0.42713
-0.10348,0.9688,-0.22521,0.26505,-0.30322,-0.11802
-0.11613,0.98092,-0.15588,0.12446,1.00234,-0.11189
-0.13531,0.98879,-0.06314,-0.05433,1.57745,-0.27876
-0.14968,0.98813,0.03435,0.3681,1.61718,0.16485
-0.16237,0.98061,0.10966,0.42147,1.7425,0.55547
-0.16374,0.97208,0.16805,0.0948,1.45694,0.46294
-0.16742,0.9599,0.22483,-0.93551,0.67009,0.6788
-0.17408,0.94897,0.26293,-0.69131,0.0945,0.54061
-0.17942,0.94519,0.27279,-0.22179,-0.02031,0.33519
-0.17475,0.94926,0.26146,0.2234,-0.91335,-0.11239
-0.16404,0.95712,0.23875,0.13749,-1.19618,-0.4723
-0.15475,0.96181,0.22576,0.28833,-2.02231,-0.32325
-0.15544,0.96303,0.21999,0.54998,-1.91617,-0.30404
-0.17184,0.96375,0.20407,0.709,-1.46329,-0.2736
-0.18054,0.96589,0.1856,0.43642,-0.37593,0.03287
-0.18524,0.96383,0.19161,-0.09908,0.38117,-0.08145
-0.1911,0.95537,0.22526,-0.13753,-0.00725,-0.14171
-0.208,0.94212,0.26291,0.5557,0.13731,-1.2954
-0.22203,0.9338,0.28056,0.80863,0.19845,0.21424
-0.22975,0.93124,0.28284,0.29914,0.02854,0.72552
-0.24552,0.93854,0.24261,-0.35789,0.43518,-0.61683
-0.2092,0.95793,0.19645,-0.87275,0.46074,-0.06873
-0.16014,0.97885,0.12729,-0.25921,1.19321,0.43361
-0.12087,0.99185,0.04027,-0.40449,1.45588,0.85591
-0.09583,0.9937,-0.05809,-0.62179,1.16371,0.78835
-0.06946,0.98609,-0.151,-0.49339,0.75715,0.58965
-0.04699,0.97198,-0.23031,-0.32883,0.25518,0.61266
-0.02957,0.95754,-0.28678,-0.01437,-0.55934,0.34656
-0.01654,0.94461,-0.32778,0.18384,-0.84726,0.30881
-0.01224,0.93718,-0.34862,0.17186,-0.465,0.21553
-0.02134,0.93604,-0.35123,-0.02176,-0.65267,0.14249
-0.04159,0.93732,-0.34597,-0.03559,-0.87836,0.0108
-0.06663,0.9434,-0.32487,0.25608,-0.90901,0.1661
-0.08919,0.95373,-0.28714,0.31691,-0.79152,0.36641
-0.10603,0.96682,-0.23241,0.02864,-0.71538,-0.42352
-0.12533,0.9784,-0.16434,0.19685,0.3167,0.09552
-0.15949,0.98444,-0.07371,0.20436,1.73346,-0.07941
-0.17474,0.98451,0.01379,0.51473,0.83623,-0.32949
-0.16812,0.98188,0.08742,0.55237,0.77829,0.24081
-0.15996,0.97599,0.14778,-0.15505,1.89058,0.63326
-0.14926,0.96726,0.20523,-0.96547,1.42822,0.41337
-0.14494,0.95903,0.24338,-0.81885,0.57305,0.56637
-0.14822,0.95447,0.25886,-0.3233,0.30534,0.34808
-0.14368,0.95765,0.24951,0.12651,-0.53007,0.37371
-0.12591,0.96564,0.22732,0.16128,-0.74069,-0.0842
-0.10874,0.97199,0.20832,-0.07842,-1.65696,-0.40824
-0.09861,0.97416,0.20315,0.34925,-2.17399,-0.02061
-0.11249,0.9727,0.20294,0.77074,-1.65076,-0.4346
-0.13312,0.97205,0.19335,0.59782,-0.96064,-0.13292
-0.14256,0.97295,0.18175,0.08608,0.14022,0.00883
-0.14598,0.9682,0.20312,-0.55545,0.53477,-0.13863
-0.15279,0.95532,0.25297,0.00829,0.19287,-0.98657
-0.18065,0.93877,0.29337,0.18523,-0.17383,0.21272
-0.19051,0.93924,0.28552,0.39842,-0.49911,0.15723
-0.19787,0.94046,0.27636,-0.08026,-0.18896,-0.59737
-0.18868,0.94929,0.25145,-0.38847,0.63193,-0.54286
-0.13847,0.96935,0.20291,-0.31322,0.82135,-0.52817
-0.10561,0.98599,0.12909,-0.18678,1.25182,0.61844
-0.08567,0.9957,0.03503,-0.37365,0.85383,0.98262
-0.06263,0.99613,-0.0616,-0.39658,1.10951,0.49472
-0.028,0.98769,-0.15386,-0.54205,0.80177,0.60082
0.00655,0.97203,-0.23474,-0.68897,0.22522,0.57423
0.03448,0.95557,-0.29273,-0.51619,-0.42414,0.38753
0.04811,0.94165,-0.33313,0.05442,-0.49725,0.58471
0.05049,0.93512,-0.35069,0.14163,-0.34813,0.29193
0.04177,0.93491,-0.35241,-0.00525,-0.7771,0.26835
0.02051,0.9376,-0.34709,-0.27509,-1.10254,-0.04832
-0.01189,0.94367,-0.33066,-0.09122,-1.03934,0.14431
-0.04784,0.95332,-0.29814,0.32978,-0.91036,0.20628
-0.07953,0.96539,-0.24836,0.3777,-0.76895,-0.22753
-0.10608,0.97705,-0.18469,0.57201,0.24233,0.07729
-0.14045,0.98555,-0.09467,0.56226,1.77073,0.11418
-0.15867,0.98731,-0.00567,0.28943,1.33045,-0.44697
-0.16363,0.98393,0.07139,0.20849,1.11057,0.47515
-0.16371,0.97743,0.13346,-0.3746,1.81152,0.58312
-0.16437,0.96699,0.19467,-1.10208,1.2304,0.73516
-0.1681,0.95525,0.24335,-0.79162,0.68838,0.73419
-0.17574,0.94668,0.27,-0.19758,0.25249,0.33948
-0.17794,0.94377,0.2786,0.11713,-0.52136,0.15959
-0.16885,0.94789,0.27017,0.26049,-1.30366,-0.21411
-0.15289,0.9535,0.25969,0.18483,-1.43216,-0.6271
-0.14165,0.95676,0.25404,0.44184,-1.722,-0.58795
-0.14394,0.95919,0.24334,0.6209,-1.59443,-0.50967
-0.14953,0.96438,0.21819,0.56371,-1.01078,0.10603
-0.15756,0.96285,0.21929,-0.18326,0.18294,0.12217
-0.17011,0.95196,0.25459,-0.62135,-0.0919,-0.03979
-0.19494,0.94621,0.25819,-0.02924,-1.34926,-0.87199
-0.21482,0.93742,0.27402,0.95636,-0.43955,-1.23859
-0.19731,0.94213,0.27101,1.38858,0.76872,0.38257
-0.19706,0.94431,0.26349,0.12515,2.26418,0.79901
-0.20727,0.96331,0.17044,-1.05794,-0.01683,1.30404
-0.17677,0.9782,0.10889,-0.5383,0.93981,-0.62633
-0.11718,0.99263,0.03058,-0.7071,1.44555,0.71421
-0.09535,0.99369,-0.05889,-0.09874,1.43889,0.69756
-0.08325,0.9853,-0.14917,0.61919,0.47077,0.7469
-0.04909,0.97317,-0.22478,-0.26964,0.26792,0.40045
-0.00774,0.95943,-0.28183,-0.87371,-0.36597,0.39488
0.01598,0.94683,-0.32133,-0.11701,-1.1229,0.29429
0.02328,0.93869,-0.34396,0.18497,-0.6109,0.36267
0.01686,0.93584,-0.35202,-0.11076,-0.57664,0.3889
-0.0011,0.93481,-0.35513,-0.25764,-0.90116,0.08243
-0.02361,0.93769,-0.34667,0.10765,-0.94857,0.00705
-0.04564,0.94521,-0.32326,0.29703,-0.75847,0.30666
-0.06466,0.95668,-0.28384,0.36713,-0.67022,0.26276
-0.07428,0.97121,-0.22634,0.00345,-0.26811,-0.41085
-0.09375,0.98303,-0.15764,0.18014,1.44986,0.07225
-0.12538,0.98997,-0.065,0.34924,1.65895,-0.26926
-0.13551,0.99046,0.02462,0.5861,0.69755,-0.0253
-0.13551,0.98643,0.09266,0.21271,1.55863,0.7986
-0.12995,0.97979,0.15201,-0.84768,1.80697,0.1997
-0.1293,0.96947,0.20831,-1.07781,0.8273,0.36414
-0.13267,0.96115,0.24201,-0.46719,0.19691,0.33314
-0.12883,0.95985,0.24916,0.14427,-0.06755,0.41117
-0.11269,0.96523,0.23585,0.22635,-0.79143,0.22261
-0.08925,0.97299,0.21285,-0.06761,-1.13979,-0.16428
-0.07151,0.97778,0.19701,-0.03885,-1.70738,-0.11517
-0.07541,0.97812,0.19387,0.31401,-2.03874,-0.27153
-0.09446,0.97708,0.19071,0.50672,-1.52455,-0.47203
-0.10408,0.97758,0.18299,0.20723,-0.63977,0.01537
-0.1086,0.97488,0.19445,-0.02233,0.27786,0.17721
-0.11313,0.96678,0.22917,-0.28676,0.06457,-0.10385
-0.12958,0.95545,0.26516,0.22279,-0.10692,-1.054
-0.15077,0.94167,0.30084,0.38098,0.02903,0.04586
-0.15237,0.93813,0.31094,0.30511,0.05591,1.04685
-0.16633,0.94048,0.29634,-0.49501,-0.24452,-0.73896
-0.15473,0.95269,0.2616,-0.52585,0.60037,-0.58611
-0.10985,0.97176,0.2088,0.07342,1.08753,0.23952
-0.07313,0.98873,0.13058,0.28164,1.27372,0.46952
-0.05291,0.99795,0.03576,-0.1809,1.05307,0.7208
-0.03925,0.99749,-0.05882,-0.22296,0.96431,0.67318
-0.01908,0.98955,-0.1429,-0.53691,0.45694,0.52634
0.00724,0.97803,-0.20831,-0.93839,0.20549,0.42019
0.02766,0.96625,-0.25611,-0.58714,-0.44839,0.28757
0.03559,0.95602,-0.29112,0.14946,-0.78915,0.44145
0.03639,0.95175,-0.30471,0.27722,-0.45768,0.35015
0.0251,0.95131,-0.30721,-0.1468,-0.86152,0.02099
-0.00113,0.95333,-0.30192,-0.02925,-1.00641,-0.05733
-0.03061,0.9591,-0.28138,0.24927,-0.95092,0.19191
-0.05483,0.96841,-0.24324,0.32839,-0.74099,0.25047
-0.07067,0.97969,-0.18761,0.02372,-0.46154,-0.19432
-0.0799,0.98946,-0.12071,0.0373,-0.07169,0.20633
-0.09253,0.99507,-0.03562,0.13292,1.84929,-0.23469
-0.09734,0.99424,0.04465,0.65615,1.36712,0.09274
-0.09481,0.98956,0.10851,0.73939,1.27729,0.26419
-0.09024,0.98381,0.15476,-0.53923,1.49711,0.49206
-0.0871,0.97682,0.19552,-1.0009,0.98055,0.48101
-0.09015,0.96961,0.22739,-0.98811,0.57873,0.36293
-0.0924,0.96588,0.24192,-0.20887,-0.05961,0.1858
-0.09131,0.96662,0.23937,0.16978,-0.49546,0.12118
-0.08497,0.97001,0.22771,-0.00491,-1.06164,-0.13895
-0.07118,0.97403,0.21492,0.07006,-1.32519,-0.39185
-0.06024,0.97489,0.21437,0.21023,-1.61023,-0.2366
-0.06263,0.97476,0.21426,0.59669,-1.59297,-0.27662
-0.07058,0.97785,0.197,0.61232,-1.06724,-0.27688
-0.07489,0.97668,0.20119,-0.01289,0.01833,0.00134
-0.08452,0.96697,0.24044,-0.47886,-0.18482,-0.13109
-0.10409,0.95791,0.26749,-0.276,-0.98619,-0.52123
-0.13019,0.94872,0.28805,0.42723,-0.5158,-1.78855
-0.13313,0.94142,0.30983,0.59637,1.28876,1.36319
-0.12761,0.93987,0.31677,-1.05507,1.22077,0.1269
-0.1335,0.95121,0.27813,-0.44733,0.06415,-0.61742
-0.10675,0.96729,0.23008,0.04006,0.65516,0.12299
-0.05617,0.98466,0.16516,0.01591,1.53831,0.63636
-0.01887,0.99654,0.08085,-0.10986,1.19425,0.75138
-0.00947,0.99986,-0.0135,-0.01298,0.63289,0.47496
0.00128,0.99591,-0.09032,-0.4604,0.22695,0.13799
0.02279,0.98915,-0.14509,-0.48858,-0.20175,0.09635
0.04465,0.98163,-0.18546,-0.21363,-0.72965,0.4168
0.06039,0.97601,-0.20915,-0.03803,-0.68838,0.52922
0.06994,0.9742,-0.21457,-0.18448,-0.55797,0.28071
0.06894,0.97475,-0.21235,-0.26679,-0.92889,0.04043
0.05703,0.97683,-0.20625,-0.17176,-1.12098,-0.10574
0.03887,0.98027,-0.19376,-0.04867,-1.02445,0.09614
0.01973,0.9854,-0.1691,0.18773,-0.90289,0.13892
0.00196,0.99116,-0.13264,0.14855,-0.83079,-0.25104
-0.00999,0.99636,-0.08455,-0.08929,-0.3798,0.13178
-0.01981,0.99925,-0.03296,-0.11748,1.11992,-0.03743
-0.03802,0.99848,0.03968,0.34411,2.67716,0.15173
-0.06716,0.9927,0.1001,0.84782,1.41721,0.36193
-0.0831,0.9857,0.14652,-0.08822,0.66115,0.4857
-0.08232,0.97993,0.1815,-1.02196,0.92425,0.36037
-0.08108,0.97359,0.2134,-1.31267,0.67066,0.33878
-0.07553,0.96939,0.23358,-0.79715,0.37068,0.25717
-0.06799,0.96877,0.23842,-0.0733,0.06298,0.00936
-0.0569,0.97073,0.23331,0.22466,-0.47958,0.01089
-0.04072,0.97433,0.22137,0.12805,-0.9851,-0.24753
-0.0191,0.97662,0.21411,0.04907,-1.17896,-0.31408
-9e-05,0.9761,0.21728,-0.00293,-1.2969,-0.38937
0.003,0.97407,0.22618,0.25757,-1.36856,-0.41453
-0.00579,0.97356,0.2283,0.60746,-0.4643,-0.14066
-0.02203,0.97197,0.23404,0.19385,-0.29645,0.15125
-0.03923,0.96228,0.26918,-0.00851,-0.3732,0.27924
-0.06614,0.94288,0.32646,-0.24756,0.42542,-0.58672
-0.09049,0.91675,0.38906,-0.65641,1.5822,-0.07543
-0.09619,0.90426,0.41599,-0.81353,1.0097,-0.40704
-0.08423,0.91066,0.40445,-0.19975,0.19801,-0.50448
-0.05355,0.92608,0.37348,0.39655,0.67618,0.36566
-0.02298,0.94491,0.32648,-0.11321,1.4924,0.43752
-0.00791,0.96518,0.26143,-0.62261,1.00337,0.63031
-0.00954,0.9828,0.18437,-0.62759,0.70009,0.43086
-0.01326,0.99368,0.11136,-0.67285,0.45609,0.3804
-0.00757,0.9986,0.05216,-0.48661,-0.10424,-0.15158
0.00605,0.99992,0.01055,-0.05293,-0.60226,-0.13385
0.01896,0.9995,-0.0248,0.20915,-0.85439,0.04018
0.03184,0.99808,-0.05301,0.28037,-0.97031,0.26589
0.04368,0.9967,-0.06836,-0.04574,-0.50285,-0.05527
0.04584,0.99612,-0.07506,-0.15584,-0.58916,-0.08483
0.03614,0.99679,-0.07139,0.15537,-0.98841,-0.16241
0.03015,0.99813,-0.05306,0.17341,-0.96706,-0.2614
0.03154,0.99918,-0.02514,0.10378,-0.84657,-0.28922
0.03665,0.99924,0.01257,-0.28271,0.44018,-0.46177
0.03347,0.99692,0.0708,-0.47941,2.34002,0.07614
0.01684,0.99203,0.12479,0.50645,1.35555,0.05359
-0.00834,0.98644,0.16387,0.11031,0.81311,-0.15192
-0.01663,0.97986,0.19894,-0.96404,1.13543,-0.11521
-0.01649,0.97103,0.23833,-0.87767,1.03701,0.09492
-0.01798,0.96212,0.27199,-0.00547,0.78998,0.02871
-0.02417,0.95501,0.29554,0.49716,0.34072,0.0376
-0.02972,0.95236,0.3035,0.37772,-0.1612,-0.01166
-0.03483,0.95447,0.29624,-0.10199,-0.69832,-0.11693
-0.03662,0.95918,0.28037,-0.30939,-1.23859,-0.14472
-0.03318,0.96385,0.26435,-0.24991,-1.16528,-0.31727
-0.03317,0.96586,0.2569,-0.08028,-1.18974,-0.38005
-0.03387,0.96557,0.2579,0.4616,-1.10178,-0.18207
-0.02867,0.96012,0.27807,0.23816,-0.72085,-0.09991
-0.0319,0.95119,0.30693,-0.03388,-0.54181,-0.08951
-0.04626,0.9418,0.33293,0.17057,-0.53351,-0.03459
-0.06295,0.9255,0.37344,-0.11335,-0.10149,-0.96658
-0.08519,0.89475,0.43835,-0.00258,2.13514,1.16027
-0.06874,0.86155,0.50297,-0.64987,1.86233,-1.66983
-0.04307,0.8644,0.50094,-0.4115,0.20205,0.1161
-0.03489,0.87212,0.48803,0.61839,-0.48581,-0.40024
-0.01126,0.88468,0.46604,0.29149,1.33947,0.31313
0.00087,0.90286,0.42991,-0.55252,1.75376,0.33702
-0.00179,0.92666,0.37587,-0.63855,0.32354,0.06281
-0.00512,0.94896,0.31532,-0.71104,0.35805,0.10559
0.00278,0.96532,0.261,-0.75906,0.43288,0.09011
0.01563,0.97701,0.21257,-0.26375,0.10635,0.10139
0.02535,0.98428,0.17472,0.03341,-0.30026,-0.20676
0.03721,0.98824,0.14825,0.03922,-0.51891,-0.07043
0.05138,0.99007,0.1308,0.01943,-0.9165,-0.1443
0.06711,0.98969,0.12649,-0.09452,-0.77707,-0.3668
0.0762,0.98871,0.12898,-0.09478,-0.75577,-0.42154
0.07141,0.9879,0.13763,0.10648,-0.98839,-0.247
0.06358,0.98532,0.15841,0.01609,-1.13384,-0.25727
0.05878,0.98052,0.18735,-0.18102,-0.95226,-0.68346
0.05568,0.97235,0.22674,-0.28296,-0.16809,-0.44473
0.05414,0.96063,0.27247,0.03116,1.24666,0.15687
0.04088,0.94499,0.32452,0.23329,1.92048,-0.02528
0.0153,0.93152,0.36334,0.30214,0.67186,-0.02008
-0.00219,0.92088,0.38982,-0.41978,0.74186,0.07324
-0.00679,0.9086,0.41759,-0.77174,1.23099,0.28593
-0.01807,0.89509,0.44549,-0.37985,1.05773,0.31284
-0.0325,0.88362,0.46705,-0.20096,0.69177,0.15035
-0.03983,0.87659,0.47956,-0.24752,0.29649,0.00659
-0.04096,0.87504,0.4823,-0.30554,-0.07326,-0.13963
-0.03182,0.87735,0.47878,-0.2747,-0.19622,-0.04426
-0.02131,0.88366,0.46762,-0.12592,-0.37203,0.06599
-0.01043,0.89084,0.45417,-0.18918,-0.58198,-0.21639
-0.00683,0.89184,0.45228,-0.13259,-0.81386,-0.56806
-0.00441,0.88908,0.45771,-0.10681,-0.96333,-0.68964
-0.00773,0.89057,0.45476,0.15086,-1.13131,-0.42748
-0.02127,0.89788,0.43971,0.24963,-1.19298,0.05016
-0.0388,0.90043,0.43324,0.12152,-1.16078,-0.2783
-0.05261,0.89757,0.43771,0.41206,-0.48756,-0.61909
-0.05459,0.88207,0.46792,-0.36709,-0.11558,-0.89602
-0.06119,0.87576,0.47883,-0.64582,3.09938,-0.25958
-0.02358,0.87936,0.47555,-0.74194,1.02414,-0.23689
-0.01427,0.89125,0.45327,0.14822,-0.50873,-0.50901
-0.00062,0.9059,0.42347,0.49853,0.31384,0.40128
0.0319,0.92304,0.38336,-0.25479,1.04898,0.63696
0.05913,0.94391,0.32484,-0.86371,1.17724,0.2808
0.08159,0.9649,0.24959,-0.78818,0.98522,0.09689
0.10283,0.98002,0.17022,-0.80812,0.43743,-0.04868
0.1229,0.98742,0.09942,-0.76923,0.34411,-0.02465
0.13409,0.98975,0.04899,-0.33682,0.24421,-0.10249
0.13787,0.99035,0.01346,0.12262,-0.25651,0.05034
0.14216,0.98983,-0.00475,0.09656,-0.65136,-0.03706
0.14655,0.98918,-0.00665,-0.1481,-0.94411,0.01053
0.14127,0.98996,0.00273,-0.18132,-0.97695,0.04548
0.12608,0.99172,0.02425,-0.12624,-1.08025,-0.02068
0.10958,0.99241,0.05572,-0.03635,-1.08257,0.07261
0.09549,0.99054,0.09852,-0.23989,-0.43382,-0.40897
0.08622,0.98455,0.15237,-0.3254,0.64515,-0.20694
0.07554,0.97236,0.22089,-0.22167,1.36204,-0.0591
0.05586,0.95405,0.29436,0.27809,1.45112,-0.02714
0.0402,0.93376,0.35561,-0.00266,1.15549,0.02174
0.03042,0.91081,0.41168,-0.22786,1.21053,0.199
0.01584,0.88774,0.46006,-0.72737,1.01862,0.33639
0.00687,0.86614,0.49974,-0.72369,0.49961,0.42722
0.0156,0.85235,0.52272,-0.58042,0.37482,0.36281
0.02669,0.84883,0.52798,-0.01264,-0.13453,0.13308
0.03716,0.85552,0.51642,-0.15161,-0.3469,-0.29098
0.04979,0.86917,0.49199,-0.26177,-0.50338,-0.36341
0.05892,0.8766,0.47758,0.11937,-1.47348,-0.59468
0.07116,0.87417,0.48035,0.17713,-1.41941,-0.52909
0.07075,0.8701,0.48775,0.16828,-1.25675,-0.51955
0.04886,0.87134,0.48821,0.2498,-0.7468,-0.25543
0.02045,0.87105,0.49075,-0.15531,-0.28583,0.03496
-0.00224,0.86102,0.50854,-0.41755,-0.42548,-0.11013
-0.02267,0.85881,0.51178,-0.0086,-0.33352,-1.22374
-0.03505,0.85173,0.52279,-0.1946,0.25774,-0.48883
-0.04404,0.85665,0.514,0.17576,2.69967,0.22182
-0.02655,0.86447,0.50196,-0.29155,0.00349,-0.32141
-0.01941,0.88798,0.45945,1e-05,-0.4853,-0.20829
-0.01021,0.91402,0.40552,0.06725,0.73577,0.31247
0.02202,0.94079,0.33825,-0.70998,1.73699,0.40525
0.04536,0.96555,0.25619,-0.99981,1.48365,0.35311
0.04797,0.98428,0.16996,-0.97307,0.49107,0.22974
0.05654,0.99406,0.09291,-0.71945,0.16745,-0.01605
0.0705,0.99704,0.03043,-0.22807,0.04166,0.13305
0.08393,0.99632,-0.01721,0.04469,-0.31259,0.16621
0.09625,0.99425,-0.04678,-0.0548,-0.50972,0.0677
0.10216,0.99297,-0.05965,-0.29113,-0.77242,-0.01406
0.0972,0.99337,-0.06127,-0.13696,-0.93023,-0.03636
0.0817,0.9951,-0.05563,-0.18735,-1.03883,-0.09921
0.05927,0.99747,-0.03908,0.0427,-0.92516,0.07519
0.03447,0.99937,-0.00794,0.267,-0.86799,0.13647
0.0114,0.99905,0.04181,0.08624,-0.68828,-0.40273
-0.00856,0.99395,0.1094,0.01291,0.30423,-0.14519
-0.03299,0.98024,0.19503,-0.34495,1.83486,-0.42875
-0.04835,0.95689,0.28637,-0.05489,1.71665,-0.30816
-0.0582,0.93322,0.35454,0.32072,1.40099,0.33317
-0.05749,0.9107,0.40904,-0.04151,1.33144,0.45724
-0.05299,0.8875,0.45774,-0.62418,1.03334,0.476
-0.05385,0.86553,0.49793,-0.76647,0.86382,0.29827
-0.05643,0.85442,0.5165,-0.17271,0.29941,0.17662
-0.05874,0.8575,0.5111,0.24592,-0.47712,-0.0683
-0.0565,0.86993,0.48991,0.1637,-0.83604,-0.44877
-0.05453,0.88024,0.47137,0.26712,-1.39437,-0.52063
-0.04827,0.88274,0.46737,0.27126,-1.61122,-0.42883
-0.05308,0.88264,0.46704,0.21495,-1.20074,-0.41775
-0.07926,0.88713,0.45464,0.25844,-0.96454,-0.36902
-0.10526,0.88706,0.44948,-0.27285,-0.22554,-0.16797
-0.11766,0.87577,0.46816,-0.22075,-0.51804,-0.59466
-0.14246,0.8631,0.48451,0.06878,-0.4957,-1.19798
-0.16829,0.85355,0.49307,0.55434,0.12599,-0.05879
-0.16388,0.85548,0.49121,-0.03003,0.91378,0.54566
-0.16207,0.86267,0.47909,-0.28677,0.74903,-0.47825
-0.15165,0.88673,0.43668,-0.33071,0.32623,0.07357
-0.13028,0.91585,0.37977,-0.35834,0.97557,0.07393
-0.09725,0.94655,0.30751,-0.69289,1.17225,0.26015
-0.07261,0.97328,0.21781,-0.67711,1.18906,0.33259
-0.05678,0.9906,0.12445,-0.31922,0.76204,0.24108
-0.03316,0.99877,0.03672,-0.16863,0.48239,0.30612
-0.01044,0.99937,-0.03381,-0.13749,-0.09928,0.1888
0.00661,0.99646,-0.08378,-0.04599,-0.64856,0.141
0.01518,0.99328,-0.11472,0.00232,-0.6336,0.06865
0.01191,0.99262,-0.1206,0.00942,-0.73344,0.06085
-0.007,0.99323,-0.11592,-0.12281,-0.86521,-0.10167
-0.03634,0.99458,-0.09733,-0.03558,-0.8898,-0.1601
-0.06725,0.99579,-0.0622,0.36232,-0.85184,-0.06147
-0.09707,0.99525,-0.00633,0.4045,-0.31909,-0.05092
-0.12513,0.98968,0.06982,0.40248,0.13105,-0.0043
-0.14584,0.97611,0.16101,0.11429,1.40966,-0.49794
-0.15358,0.95689,0.24649,0.42821,1.53076,-0.04096
-0.16515,0.93515,0.31338,0.41634,1.63736,0.06346
-0.16168,0.91291,0.37475,-0.71787,1.49802,0.26366
-0.15025,0.8891,0.43234,-0.87974,0.57288,0.3385
-0.1446,0.87069,0.47008,-0.88538,0.59128,0.30077
-0.13968,0.86377,0.48413,0.13303,-0.04124,0.22046
-0.13631,0.86938,0.47495,0.41755,-0.69831,-0.11897
-0.1285,0.88205,0.45328,0.23606,-0.65759,-0.46303
-0.12777,0.88982,0.43804,0.33031,-1.91717,-0.64922
-0.12645,0.88902,0.44004,0.67294,-1.98498,-0.54814
-0.13789,0.88519,0.44431,0.52128,-1.68521,-0.60031
-0.16429,0.88647,0.43262,0.30371,-0.74693,-0.08237
-0.19983,0.88442,0.42172,-0.26329,0.24097,-0.20755
-0.22895,0.87076,0.43514,-0.46596,0.39056,-0.3963
-0.25203,0.85435,0.45448,0.4496,-0.27899,-1.1591
-0.26104,0.84537,0.46604,0.5655,-0.27437,0.16159
-0.26516,0.84437,0.46552,0.42137,0.39334,-0.07222
-0.2631,0.86011,0.43702,-0.20454,1.05519,-0.58867
-0.22338,0.89238,0.3921,-0.52152,0.75288,-0.17667
-0.18693,0.92639,0.32688,-0.29084,1.05776,0.14535
-0.15824,0.95646,0.24521,-0.5202,1.35399,0.85123
-0.14536,0.9775,0.15282,-0.55133,1.00698,0.53893
-0.13047,0.98926,0.06584,-0.45458,0.98267,0.41855
-0.10427,0.99451,-0.00823,-0.37178,-0.2135,0.17246
-0.08328,0.99444,-0.06435,0.07251,-0.78901,0.13303
-0.07248,0.99152,-0.1078,0.18132,-0.82577,0.2566
-0.06983,0.98861,-0.13329,0.20122,-0.35534,0.09394
-0.07803,0.98704,-0.14019,-0.00748,-0.64799,-0.02278
-0.10077,0.98554,-0.13619,-0.04511,-0.78696,-0.13339
-0.12742,0.98525,-0.11414,0.27346,-0.99673,0.05712
-0.15214,0.98548,-0.07533,0.4697,-0.89681,0.22726
-0.17308,0.98471,-0.01958,0.59618,-0.71744,0.25873
-0.18361,0.98129,0.05785,0.37041,0.37638,-0.27451
-0.18965,0.97143,0.14262,-0.10826,1.86937,-0.45405
-0.19012,0.94953,0.24948,-0.22901,1.95959,-0.72231
-0.1811,0.92029,0.34678,0.62284,1.57158,0.63488
-0.18242,0.89408,0.40906,7e-05,1.41639,0.41683
-0.17253,0.87315,0.45588,-0.44468,1.15999,0.45402
-0.16871,0.85355,0.49293,-0.89004,0.25592,0.32423
-0.17055,0.84372,0.50896,-0.08681,0.08118,0.21716
-0.17319,0.85035,0.49689,0.39811,-0.13099,0.14118
-0.17323,0.86794,0.46547,0.36264,-0.97043,-0.4651
-0.17411,0.8823,0.43728,0.27546,-1.99493,-0.58026
-0.17526,0.88683,0.42755,0.27198,-2.20688,-0.51547
-0.18755,0.88506,0.42599,0.22881,-0.73425,-0.23294
-0.20818,0.88413,0.41828,0.09428,-0.27935,0.00802
-0.23349,0.88164,0.41009,-0.05566,0.17805,-0.00176
-0.25616,0.86866,0.42402,0.36552,-0.27438,-1.33852
-0.26964,0.85742,0.4383,0.76071,-0.13048,-1.50424
-0.26281,0.85329,0.45034,1.21865,0.26406,-0.13336
-0.2474,0.86041,0.4455,0.07957,0.70885,0.53596
-0.27777,0.87313,0.40059,-0.42915,0.7443,-0.47599
-0.25379,0.89836,0.3585,-0.78934,0.37242,-0.4259
-0.20779,0.93011,0.30282,-0.31077,0.28778,0.21108
-0.15824,0.96168,0.22388,-0.53521,1.35883,0.48185
-0.12905,0.98279,0.13215,-0.62721,1.73108,0.75913
-0.11466,0.99246,0.04312,-0.02096,0.30383,0.3629
-0.08702,0.99577,-0.02946,-0.22253,0.07519,0.39532
-0.05517,0.9951,-0.08204,-0.2929,-0.18325,0.39385
-0.03078,0.99243,-0.11889,0.16962,-0.52451,0.05463
-0.02125,0.99082,-0.13348,0.06371,-0.36174,0.24896
-0.03011,0.991,-0.13041,-0.12376,-0.82443,-0.15668
-0.05614,0.99082,-0.12297,-0.26675,-1.06566,-0.23923
-0.08874,0.99069,-0.10317,0.16775,-0.97282,-0.06928
-0.11827,0.99087,-0.06464,0.51741,-0.77079,0.14837
-0.14292,0.9897,-0.00771,0.58025,-0.60629,-0.06123
-0.1553,0.98555,0.06753,0.26118,0.91807,-0.09492
-0.16732,0.97407,0.15223,0.2732,0.92955,-0.17962
-0.17132,0.95214,0.25312,0.17148,1.21571,-0.21997
-0.16884,0.92405,0.34293,0.40462,1.21234,0.28342
-0.17719,0.90061,0.39684,0.30815,1.59377,0.52496
-0.17732,0.8785,0.44361,-0.91909,0.84685,0.40823
-0.17791,0.85663,0.48427,-0.97474,0.18419,0.31102
-0.17646,0.84477,0.50518,-0.57202,0.118,0.08733
-0.16889,0.84497,0.50743,0.12072,-1.00189,-0.23497
-0.15477,0.85866,0.4886,0.12294,-1.2686,-0.84439
-0.13677,0.87011,0.47347,0.2791,-1.695,-0.76699
-0.12964,0.87441,0.46754,0.61801,-1.63895,-0.63458
-0.15614,0.87606,0.45621,0.45727,-0.91588,-0.30356
-0.18526,0.87743,0.44247,0.23959,-0.42409,0.06026
-0.21635,0.87046,0.44211,-0.48317,0.36371,-0.47981
-0.24184,0.85497,0.45883,0.10088,-0.55812,-1.04607
-0.26396,0.84573,0.46373,0.56211,-0.41368,-1.88747
-0.26571,0.838,0.47659,1.05493,0.33333,0.36821
-0.27222,0.8383,0.47236,0.30065,1.01489,0.28057
-0.30017,0.85167,0.42959,0.11601,0.80065,-0.97654
-0.2726,0.88387,0.38006,-0.63888,0.24713,0.25118
-0.2248,0.9201,0.32074,-0.55283,1.41777,0.22397
-0.17064,0.95422,0.24562,-0.82265,2.11792,0.6689
-0.15056,0.97581,0.15845,-0.49624,0.98261,0.49794
-0.14185,0.9868,0.07807,-0.15045,-0.00854,0.10551
-0.10906,0.99397,0.01105,-0.18324,-0.01571,0.17253
-0.07677,0.99603,-0.04494,-0.2348,-0.91604,0.04994
-0.06033,0.99429,-0.088,0.207,-0.6746,-0.0809
-0.06029,0.99172,-0.1133,0.20696,-0.67204,-0.0556
-0.07615,0.98967,-0.12143,0.24318,-0.65257,0.02092
-0.0998,0.98832,-0.11514,0.30119,-0.85364,0.04078
-0.12146,0.98828,-0.09239,0.32285,-0.85361,0.01803
-0.13829,0.98884,-0.0554,0.54619,-0.58608,0.20562
-0.15135,0.98847,-0.00089,0.34868,-0.52511,-0.36886
-0.1545,0.98514,0.0749,0.05866,-0.18415,-0.92565
-0.16125,0.97307,0.16466,-0.42751,1.92251,-0.58447
-0.15576,0.94961,0.27197,-0.36638,2.16798,-0.90428
-0.14936,0.92218,0.35672,0.72329,1.81842,0.18809
-0.15043,0.90111,0.40664,0.25634,1.2085,0.49443
-0.1468,0.88157,0.44863,-0.78203,0.80759,0.34916
-0.14928,0.86547,0.47818,-1.19741,0.36903,0.30887
-0.15226,0.86175,0.48392,-0.18522,-0.00519,0.08295
-0.1468,0.8707,0.46937,0.25474,-0.5428,-0.32562
-0.13577,0.88422,0.44689,0.16523,-0.82422,-0.43424
-0.12964,0.89062,0.43585,0.24901,-2.0047,-0.55157
-0.12922,0.88882,0.43963,0.35151,-1.44562,-0.63557
-0.14881,0.88639,0.43835,0.43663,-1.15795,-0.5731
-0.17212,0.89012,0.42195,0.05619,0.28307,0.00486
-0.19926,0.88714,0.41624,-0.439,0.38134,-0.29831
-0.21451,0.86941,0.44507,-0.14088,-0.793,-0.73015
-0.22641,0.85536,0.46591,0.69972,-0.53617,-1.80859
-0.23363,0.84328,0.48402,0.94848,0.17161,0.43912
-0.21832,0.84599,0.48643,0.91099,0.36577,0.75516
-0.22991,0.84637,0.48039,-0.34863,0.69619,-1.04187
-0.24229,0.86831,0.43279,-0.60484,0.33543,-0.47125
-0.20046,0.90062,0.3856,-0.35691,0.29146,0.18731
-0.14919,0.93387,0.32499,-0.87388,1.20217,0.72409
-0.11514,0.96332,0.24236,-0.75446,1.33862,0.52203
-0.09912,0.98353,0.15111,-0.52863,1.10459,0.34483
-0.07279,0.99551,0.06035,-0.40624,0.05251,-0.04635
-0.04761,0.99868,-0.01878,-0.22057,-0.36405,0.1949
-0.03679,0.9957,-0.08488,0.08684,-0.55921,0.20115
-0.03362,0.99081,-0.13096,0.45484,0.06214,0.00294
-0.03568,0.98857,-0.14645,0.17127,-0.38028,0.18805
-0.04577,0.98821,-0.14604,-0.04095,-0.71928,0.07971
-0.06363,0.98909,-0.1328,-0.02304,-1.07585,-0.21833
-0.08639,0.99079,-0.10422,0.34835,-0.9001,0.05634
-0.11062,0.99223,-0.05675,0.4655,-0.77353,0.1125
-0.12856,0.99161,0.01302,0.12203,-0.2448,-0.55634
-0.13765,0.98572,0.09693,0.15396,1.10468,-0.20989
-0.14545,0.96947,0.19736,0.02164,1.56912,-0.41703
-0.13611,0.9454,0.2961,0.15921,1.1468,-0.04467
-0.12875,0.91933,0.37181,0.51959,1.38254,0.36323
-0.11849,0.89586,0.42822,-0.06614,1.62173,0.32411
-0.11559,0.87326,0.47332,-0.9688,0.8087,0.48315
-0.12427,0.85627,0.50133,-0.55161,0.2582,0.30696
-0.13139,0.85297,0.50513,-0.17182,0.04492,0.13494
-0.13152,0.86338,0.4871,0.13314,-0.62189,-0.44138
-0.12927,0.87849,0.45991,0.08357,-1.13982,-0.6328
-0.12873,0.8867,0.44404,0.13959,-1.72195,-0.60993
-0.12547,0.88603,0.44629,0.37303,-1.67124,-0.47467
-0.137,0.88302,0.44886,0.38641,-1.14999,-0.515
-0.15699,0.88448,0.43934,0.2525,-0.7251,-0.33256
-0.1822,0.88088,0.43684,-0.43583,0.44046,-0.3197
-0.19848,0.86641,0.45817,-0.45666,-0.3262,-0.41416
-0.21942,0.85864,0.46321,0.01782,-0.85573,-0.92047
-0.22418,0.84903,0.4784,1.37194,0.10136,0.12321
-0.19722,0.8535,0.4823,1.24622,1.27329,1.77978
-0.22273,0.85953,0.45998,0.3995,1.63925,0.50892
-0.21639,0.8891,0.4033,-0.53569,0.21187,0.22527
-0.1645,0.92301,0.3478,-0.73262,1.48071,0.3164
-0.10615,0.95421,0.27962,-0.95677,1.73896,0.36478
-0.07117,0.97868,0.1926,-0.85603,1.52614,0.8861
-0.05447,0.99294,0.10529,-0.14319,0.30203,0.58502
-0.02432,0.99926,0.02942,-0.51949,0.1344,0.20287
0.00233,0.9996,-0.02783,-0.15401,-1.01712,0.00214
0.01707,0.99711,-0.07386,0.15815,-0.79199,0.03593
0.01884,0.99437,-0.10422,0.19277,-0.35899,0.08286
0.00675,0.99363,-0.1124,0.11165,-0.70811,-0.05429
-0.01066,0.99397,-0.1091,0.086,-1.04653,-0.23816
-0.02667,0.99549,-0.09097,0.1456,-1.08352,-0.22252
-0.04263,0.99735,-0.05887,0.26771,-0.83269,0.02225
-0.0615,0.99805,-0.00964,0.09528,-0.44068,-0.40158
-0.0807,0.99503,0.05817,0.06462,0.01509,-0.31938
-0.10623,0.98328,0.14784,-0.01821,1.48231,-0.54873
-0.12086,0.96203,0.24468,0.38568,1.3312,-0.24959
-0.1247,0.93784,0.32385,0.75213,1.61231,0.08492
-0.13109,0.91418,0.3835,-0.54072,1.70602,0.31188
-0.1288,0.88809,0.44123,-1.13857,1.09401,0.55306
-0.13241,0.86477,0.48438,-1.15054,0.6437,0.36879
-0.1324,0.85516,0.50115,0.15679,-0.06424,-0.06391
-0.13492,0.86138,0.4897,0.25527,-0.49533,-0.3784
-0.13678,0.87567,0.4631,0.27731,-0.527,-0.54373
-0.13421,0.88311,0.44954,0.40006,-2.15671,-0.34461
-0.13269,0.88425,0.44774,0.44751,-1.8385,-0.50261
-0.15304,0.88339,0.44291,0.53774,-1.64903,-0.53888
-0.17739,0.88606,0.42825,0.15957,-0.49172,-0.19923
-0.20087,0.8852,0.41958,-0.42209,0.29762,-0.51362
-0.2184,0.87496,0.43212,-0.40457,0.30786,-0.52616
-0.2348,0.86777,0.43797,0.74069,-0.09645,-1.73462
-0.25625,0.85557,0.44979,0.91494,0.25788,0.46989
-0.24553,0.85876,0.44968,0.90422,0.25468,0.46999
-0.25946,0.8605,0.43841,-0.27118,0.60128,-0.97651
-0.25475,0.88529,0.38902,-0.85831,0.38357,-0.25322
-0.20697,0.92039,0.3317,-0.51549,0.74184,0.35003
-0.14587,0.95467,0.25945,-0.69634,1.72372,0.28245
-0.10606,0.97959,0.1707,-0.93334,1.6952,0.7168
-0.09795,0.99195,0.08013,-0.23978,0.98545,0.33422
-0.07739,0.99699,-0.00187,0.06256,0.09029,0.20573
-0.04625,0.99696,-0.06261,-0.37483,-0.46144,0.08086
-0.0255,0.99388,-0.10741,-0.16573,-0.82042,-0.05796
-0.0176,0.99109,-0.13198,0.25714,-0.43695,-0.0633
-0.02355,0.99007,-0.13851,0.25699,-0.69833,0.0681
-0.0432,0.98996,-0.13456,0.17576,-0.85708,0.01354
-0.06834,0.99098,-0.11523,0.18313,-0.91212,0.02455
-0.09125,0.99276,-0.07802,0.35183,-0.7113,0.23622
-0.11066,0.9936,-0.02234,0.28594,-0.6657,-0.03446
-0.12125,0.99118,0.05331,0.00116,0.62756,-0.07446
-0.13274,0.98115,0.1404,-0.36509,1.48458,-0.48021
-0.13521,0.96038,0.24368,-0.28799,1.60882,-0.63305
-0.13033,0.93249,0.33685,0.52242,1.76127,0.26659
-0.129,0.90755,0.39961,0.35658,1.6381,0.26757
-0.12245,0.88259,0.45389,-0.37119,1.19669,0.37495
-0.12783,0.86022,0.49361,-0.73403,0.09734,0.38292
-0.1307,0.85104,0.50855,-0.12499,-0.07347,0.11
-0.12662,0.85804,0.49771,0.07005,-0.31919,-0.08476
-0.11641,0.87196,0.4755,0.02279,-1.25237,-0.72349
-0.1058,0.87906,0.4648,0.3165,-2.06581,-0.48128
-0.10453,0.87789,0.46729,0.44131,-1.9784,-0.43683
-0.13223,0.87476,0.46614,0.509,-0.94651,-0.49376
-0.17106,0.87597,0.45099,0.09594,0.01594,-0.05071
-0.20911,0.87092,0.4447,-0.23605,0.23876,-0.17051
-0.23188,0.85525,0.46343,-0.03013,-0.4249,-1.24014
-0.24985,0.84098,0.4799,0.63802,-0.20301,-0.30286
-0.24383,0.83326,0.49619,0.82893,-0.09533,0.12355
-0.23981,0.83596,0.4936,0.14076,1.04405,-0.16608
-0.25146,0.85494,0.45368,-0.49071,0.53103,-0.37175
-0.221,0.88811,0.40297,-0.52607,0.25817,-0.06671
-0.17997,0.92443,0.33617,-0.42799,1.06827,-0.04421
-0.13054,0.95987,0.24819,-0.83504,1.93546,0.66075
-0.10258,0.98323,0.15075,-0.76908,1.83175,0.64266
-0.08493,0.9945,0.0612,-0.03192,0.04667,0.4063
-0.05234,0.99855,-0.01162,-0.41899,0.02073,0.25435
-0.02352,0.99752,-0.06614,-0.19462,-0.7381,0.04897
-0.00697,0.9946,-0.10352,-0.00721,-0.84672,0.02097
-0.00574,0.99237,-0.12312,0.15209,-0.62257,0.15368
-0.01588,0.99213,-0.12411,0.16223,-0.62234,0.15468
-0.03581,0.99241,-0.11755,-0.00796,-0.88206,-0.17443
-0.05972,0.99343,-0.09752,0.29391,-0.85093,0.13256
-0.08257,0.99462,-0.06237,0.31677,-0.85212,0.0974
-0.10303,0.99461,-0.01073,0.25525,-0.69963,-0.37021
-0.11562,0.99167,0.0566,0.05138,0.98614,-0.38578
-0.13465,0.98142,0.13663,0.07041,0.9964,-0.46581
-0.14993,0.96072,0.23347,0.25436,1.64255,-0.42288
-0.15202,0.9377,0.3124,1.02262,1.36098,0.37715
-0.15426,0.9192,0.36228,0.02064,1.62476,0.52096
-0.14824,0.90087,0.40796,-0.89489,1.34715,0.25647
-0.14502,0.88282,0.44673,-0.93808,0.27559,0.28006
-0.14166,0.87445,0.46394,-0.30926,0.12503,0.15276
-0.13503,0.87711,0.4609,0.45069,-0.35567,-0.17299
-0.12108,0.88745,0.4447,0.11083,-1.01737,-0.69914
-0.10917,0.89712,0.42806,0.13327,-1.47103,-0.69629
-0.10348,0.89729,0.42911,0.49996,-1.82213,-0.52355
-0.11972,0.89332,0.43316,0.55951,-1.45507,-0.45559
-0.15314,0.89913,0.40998,0.52211,-1.01701,-0.15361
-0.18344,0.902,0.39081,-0.66489,0.54614,-0.10711
-0.2033,0.88878,0.41074,-0.68456,-0.13413,-0.51377
-0.21802,0.87281,0.43662,-0.03831,-0.71098,-1.10726
-0.23408,0.86257,0.44851,1.1187,-0.00913,0.47438
-0.21502,0.86702,0.44946,1.09177,0.34764,1.28522
-0.20729,0.86425,0.45834,0.21638,0.71512,0.76936
-0.2341,0.88319,0.40638,-0.77638,0.59502,-0.37305
-0.18892,0.91677,0.35188,-0.54033,1.64134,0.19117
-0.13555,0.9492,0.28394,-0.80566,1.52082,-0.30223
-0.10645,0.9759,0.19043,-0.66759,1.16111,0.57936
-0.09977,0.99033,0.0963,0.18827,0.55374,0.14999
-0.07648,0.99701,0.00994,0.28413,0.18617,0.38614
-0.04618,0.99705,-0.06121,-0.22365,-0.12179,0.13328
-0.01879,0.99396,-0.10808,0.09978,-0.86298,-0.01254
-0.00031,0.99039,-0.13822,0.12043,-0.82229,0.04299
0.00474,0.98952,-0.14425,-0.03288,-0.73301,0.06435
-0.00772,0.99004,-0.14049,-0.1501,-0.98013,-0.13099
-0.0335,0.99122,-0.12784,-0.02108,-0.99931,-0.1473
-0.05939,0.99317,-0.10036,0.34772,-0.84498,0.20579
-0.08536,0.99466,-0.05785,0.38128,-0.78264,0.02203
-0.10417,0.99454,0.00442,0.19049,-0.68813,-0.50648
-0.11638,0.99011,0.07824,0.05326,0.99768,-0.19878
-0.12532,0.97613,0.17732,-0.12099,1.47399,-0.40579
-0.11861,0.95364,0.27656,-0.17425,1.34508,-0.44705
-0.1206,0.92831,0.35167,0.50859,2.02968,0.57489
-0.13258,0.90398,0.40648,-0.40337,1.80237,0.19607
-0.14637,0.8816,0.44871,-0.72314,1.0749,0.44562
-0.15365,0.87302,0.46283,-0.19077,0.23556,0.23564
-0.13987,0.87733,0.45902,0.0857,0.17458,0.07467
-0.11641,0.88958,0.44167,0.05237,-0.28004,-0.2869
-0.09798,0.89987,0.42497,0.20859,-1.9325,-0.36751
-0.08359,0.90222,0.42307,0.43944,-2.08992,-0.35199
-0.07985,0.89879,0.43103,0.43224,-1.60997,-0.61094
-0.10342,0.89417,0.4356,0.28006,-1.26813,-0.62464
-0.13793,0.89471,0.42479,0.16361,-0.59659,-0.20732
-0.17185,0.8921,0.41784,0.02511,-0.12262,-0.2801
-0.18946,0.88023,0.43506,-0.52379,-0.23299,-0.36927
-0.20062,0.8782,0.43416,0.77448,-0.3489,-1.50549
-0.20114,0.87105,0.44809,1.12766,-0.07163,0.54998
-0.18363,0.87616,0.44565,0.87377,1.30382,1.50115
-0.21718,0.88078,0.42075,-0.77026,0.47313,-0.90764
-0.19921,0.90991,0.36381,-0.95633,0.13469,0.11872
-0.14367,0.94021,0.30877,-0.60172,1.33521,0.24958
-0.07836,0.96867,0.23561,-0.61504,1.98958,0.73609
-0.05081,0.98781,0.14709,-0.36884,1.71437,0.72218
-0.04494,0.99766,0.05135,-0.01491,0.09075,0.39195
-0.0182,0.99942,-0.0284,-0.84546,-0.13744,0.12091
0.00713,0.99626,-0.08599,-0.66209,-0.56821,0.09115
0.02086,0.99194,-0.12491,0.38521,-0.93861,-0.0523
0.02819,0.98869,-0.14725,0.03916,-0.49882,0.19318
0.02407,0.98791,-0.15309,-0.07278,-0.65602,0.22536
0.00349,0.98884,-0.14891,-0.13252,-0.91279,-0.16992
-0.02501,0.99108,-0.13081,0.19091,-0.89869,0.13696
-0.05097,0.99414,-0.09521,0.28226,-0.85907,0.16322
-0.07134,0.99648,-0.04391,0.11528,-0.7538,-0.51671
-0.07672,0.99686,0.01926,-0.13324,0.39433,-0.15323
-0.08502,0.99147,0.09867,-0.18552,1.47226,-0.31159
-0.09597,0.97541,0.19837,0.48501,1.50666,-0.27622
-0.10048,0.95225,0.28826,0.76799,1.43155,0.48388
-0.11191,0.92975,0.35074,0.32481,1.70254,0.39085
-0.11639,0.90702,0.40466,-0.90047,1.29077,0.33676
-0.12567,0.88419,0.44988,-1.07247,0.45483,0.32504
-0.1304,0.86897,0.47734,-0.6423,0.32411,0.21394
-0.13045,0.86779,0.47949,0.19328,-0.43914,-0.01863
-0.1225,0.87842,0.4619,-0.02295,-0.80054,-0.65378
-0.10972,0.89081,0.44091,-0.05727,-1.0204,-0.73307
-0.10067,0.8967,0.431,0.35322,-2.07622,-0.61832
-0.10763,0.89916,0.42415,0.52761,-1.36613,-0.50216
-0.12953,0.90391,0.40761,0.54951,-1.37087,-0.48563
-0.14379,0.90613,0.39778,0.12277,0.21774,0.00445
-0.1551,0.89499,0.41823,-0.41584,-0.18535,-0.30173
-0.16592,0.88055,0.44393,-0.40502,-0.17091,-0.32743
-0.19157,0.87259,0.4493,0.54107,-0.56143,-0.21492
-0.19599,0.87662,0.43942,1.1473,0.29325,0.61929
-0.2038,0.87964,0.42973,0.75129,0.82338,0.61612
-0.20637,0.90343,0.37576,-0.75269,0.63261,-0.26703
-0.16853,0.93548,0.31056,-0.62569,0.55027,0.19784
-0.12113,0.96492,0.23286,-0.64087,1.0149,0.03064
-0.08058,0.98625,0.14418,-0.78597,1.80868,0.70466
-0.07229,0.99601,0.05216,-0.02073,0.27368,0.42344
-0.05454,0.9981,-0.02853,0.19568,-0.09131,0.44949
-0.02655,0.99573,-0.08833,-0.22867,-0.71579,-0.01686
-0.0029,0.99098,-0.13391,0.1553,-0.93269,0.05429
0.00859,0.98655,-0.16322,0.14064,-0.59111,0.0305
0.00636,0.9851,-0.17184,-0.00634,-0.75292,-0.00447
-0.01097,0.98537,-0.17001,-0.06136,-0.96896,-0.26392
-0.0371,0.98678,-0.15769,0.08092,-0.94513,-0.09136
-0.06312,0.98979,-0.12772,0.27864,-0.75261,0.22518
-0.08525,0.99341,-0.07647,0.07744,-0.12349,-0.35956
-0.10095,0.99487,-0.00514,-0.04316,1.01978,-0.11866
-0.1148,0.98968,0.08568,-0.21036,1.46154,-0.5565
-0.11731,0.97582,0.18439,0.1006,1.41693,-0.27443
-0.11671,0.95655,0.26715,0.47477,1.9362,0.2874
-0.12039,0.93685,0.32833,-0.42804,1.40521,0.25477
-0.11741,0.91552,0.38473,-0.86843,0.74235,0.29741
-0.12546,0.89514,0.42775,-0.86419,0.34516,0.19657
-0.12922,0.88449,0.44828,0.06286,-0.16415,-0.00725
-0.12679,0.88682,0.44435,0.23708,-0.72599,-0.3526
-0.11572,0.90087,0.41835,0.21655,-0.67466,-0.66091
-0.10676,0.91083,0.3987,0.34829,-1.92147,-0.25559
-0.10802,0.91185,0.39602,0.54349,-1.92787,-0.36561
-0.12216,0.90961,0.39707,0.53407,-1.73911,-0.42811
-0.14412,0.91162,0.38491,0.15874,-0.17907,-0.42408
-0.16621,0.90773,0.3852,-0.14924,0.37471,-0.29657
-0.17452,0.89066,0.4198,-0.2996,0.20441,-0.41108
-0.18571,0.88065,0.43581,0.52663,-0.75005,-1.22729
-0.20182,0.87074,0.44839,1.11768,-0.13327,0.00791
-0.20267,0.87145,0.44663,1.09981,0.32787,0.37838
-0.2073,0.86722,0.45269,-0.76301,1.11805,-1.66439
-0.23045,0.89112,0.39086,-1.08965,0.20944,0.2092
-0.20783,0.91863,0.33601,-0.92346,0.16276,0.41306
-0.16437,0.94919,0.26831,-0.48881,1.29177,0.70209
-0.12204,0.97497,0.18578,-0.26988,1.67015,0.47304
-0.10343,0.99042,0.09134,-0.07975,1.33331,0.42243
-0.07934,0.99683,0.00342,-0.17857,0.33393,0.25083
-0.05242,0.99627,-0.06837,-0.51424,-0.68165,0.10199
-0.03036,0.99202,-0.1223,-0.53631,-0.6774,0.15591
-0.01894,0.98723,-0.15815,0.29983,-0.52694,0.1263
-0.01895,0.9851,-0.17091,0.17155,-0.40903,0.23689
-0.0304,0.98491,-0.17032,0.03008,-0.88849,0.00985
-0.05314,0.98587,-0.15878,-0.01957,-0.99164,-0.02114
-0.08098,0.98789,-0.13232,0.19032,-0.99286,0.1058
-0.11092,0.9897,-0.09043,0.52088,-0.82844,0.2651
-0.13676,0.99016,-0.02938,0.27403,-0.6519,-0.41341
-0.15078,0.98737,0.04838,0.21645,0.56443,-0.1471
-0.16542,0.97605,0.14122,0.01291,1.2646,-0.31204
-0.16841,0.95638,0.23864,0.15712,2.02497,-0.25425
-0.17036,0.93397,0.31408,0.90903,1.71942,0.62785
-0.1738,0.91514,0.3637,0.64743,1.51271,0.43293
-0.17397,0.89571,0.40915,-0.88061,0.83031,0.42833
-0.18271,0.87789,0.4426,-0.75737,0.06103,0.3278
-0.18513,0.87129,0.45447,-0.07765,0.02342,0.05778
-0.17423,0.87596,0.44978,0.2386,-0.6572,-0.47908
-0.15385,0.8904,0.42835,0.22544,-1.30335,-0.52912
-0.13731,0.90168,0.41,0.22091,-1.82982,-0.54793
-0.13379,0.90723,0.39876,0.41457,-1.60629,-0.60767
-0.15166,0.90884,0.38857,0.49554,-1.0272,-0.25191
-0.17014,0.9105,0.37685,0.39959,-0.57906,-0.03673
-0.18706,0.90668,0.37804,-0.14317,0.29655,-0.29576
-0.20119,0.8925,0.40366,0.01334,0.14487,-1.01292
-0.23425,0.8749,0.42385,0.07206,-0.1811,-1.18671
-0.26009,0.87585,0.40647,1.04697,-0.43006,0.73269
-0.26296,0.87644,0.40333,0.24444,0.25459,-0.34543
-0.26664,0.88797,0.37468,-0.10581,0.70665,-0.51348
-0.20136,0.92336,0.32686,-0.51205,1.47354,0.44827
-0.15147,0.9552,0.25421,-0.60362,1.49034,0.21664
-0.11578,0.97962,0.16403,-0.88023,1.39045,0.85063
-0.10338,0.99245,0.06579,-0.36464,0.64114,0.45841
-0.09159,0.99535,-0.02962,-0.05036,0.39453,0.48186
-0.06955,0.9921,-0.10431,-0.17218,0.36236,0.51072
-0.04899,0.98707,-0.15257,0.28113,-0.88918,-0.06685
-0.03216,0.98194,-0.18641,0.24822,-0.86522,0.17894
-0.02374,0.9789,-0.20293,0.26753,-0.65813,0.25426
-0.03291,0.97848,-0.20367,-0.07459,-0.90082,-0.08439
-0.06039,0.97867,-0.1963,0.04016,-0.91544,-0.05574
-0.0914,0.98092,-0.17155,0.23101,-0.9015,0.09234
-0.11879,0.98456,-0.12849,0.40223,-0.64647,0.18994
-0.137,0.98845,-0.0647,0.06964,0.8006,-0.04269
-0.15062,0.98849,0.01379,-0.12217,1.5846,-0.39614
-0.16278,0.98001,0.1143,-0.14831,1.55615,-0.58997
-0.16341,0.96331,0.21286,0.56933,1.68105,0.22315
-0.1667,0.94322,0.28725,0.70553,1.80951,0.49396
-0.16502,0.9227,0.34836,-0.37754,1.36006,0.24165
-0.16348,0.90112,0.40154,-1.01736,0.15534,0.3623
-0.16611,0.88549,0.43391,-1.01472,0.17096,0.32993
-0.16656,0.87925,0.44627,0.09476,-0.11701,-0.07284
-0.1564,0.88364,0.44124,0.23375,-0.73973,-0.6677
-0.13866,0.89585,0.42214,0.216,-0.75194,-0.64859
-0.13045,0.90165,0.41228,0.37798,-2.01669,-0.41011
-0.13434,0.89934,0.41607,0.20049,-1.60658,-0.71625
-0.15983,0.89876,0.40823,0.22598,-1.60601,-0.70841
-0.18826,0.90255,0.3872,0.20111,-0.21937,-0.12972
-0.21029,0.89563,0.3919,-0.21888,0.23327,-0.03964
-0.22669,0.87761,0.42235,-0.37453,-0.01264,-0.26983
-0.24725,0.86092,0.44458,0.74497,-0.07295,-2.04718
-0.24666,0.85125,0.46314,0.72755,0.40566,0.47284
-0.24841,0.84859,0.46708,0.56319,0.56777,1.01201
-0.27826,0.8603,0.4271,-0.78517,0.36685,-0.05538
-0.2567,0.88851,0.3803,-0.3187,0.97161,-0.22312
-0.20594,0.92354,0.32347,-0.33168,1.42126,-0.01068
-0.16496,0.95585,0.24312,-0.67577,1.4825,0.63995
-0.15482,0.97678,0.14803,-0.21531,0.995,0.42994
-0.13836,0.98888,0.05436,-0.03565,0.60808,0.25217
-0.10987,0.99356,-0.02717,-0.32491,0.25403,0.35748
-0.08535,0.99227,-0.09,-0.00505,-0.6803,0.08544
-0.063,0.98887,-0.13471,0.01526,-0.8527,0.04409
-0.04796,0.98592,-0.16013,0.03,-0.54697,0.03448
-0.04847,0.98549,-0.1626,-0.00334,-0.83571,-0.00589
-0.0652,0.98539,-0.1573,-0.01786,-0.92872,-0.15036
-0.08927,0.98631,-0.13859,0.39846,-0.94815,0.10739
-0.11362,0.9882,-0.10267,0.59461,-0.79313,0.28099
-0.13557,0.9896,-0.04783,0.46592,-0.75008,-0.20023
-0.14918,0.98847,0.02546,0.36717,0.72633,0.10581
-0.16794,0.97935,0.11243,0.27592,1.37015,-0.1958
-0.17575,0.96312,0.20367,0.11952,1.04921,-0.82543
-0.16839,0.94292,0.28725,0.17631,1.56723,0.53694
-0.16542,0.92107,0.35247,-0.36296,1.78155,0.27198
-0.15761,0.89768,0.41146,-0.63701,1.54771,0.37094
-0.15902,0.87459,0.45801,-0.84805,0.53267,0.34482
-0.15831,0.85971,0.48559,-0.17832,0.24252,0.21632
-0.15421,0.86068,0.48519,0.14759,-0.02633,0.08724
-0.14258,0.87459,0.46338,0.10058,-0.65729,-0.36928
-0.13088,0.8887,0.43937,0.01258,-1.37134,-0.57957
-0.12392,0.89327,0.43207,0.17786,-1.94339,-0.40283
-0.12887,0.89067,0.43596,0.68528,-1.53755,-0.49629
-0.15632,0.89036,0.42754,0.53784,-1.21058,-0.40024
-0.18984,0.8948,0.40406,0.31847,-0.72007,-0.32018
-0.21057,0.88943,0.40564,-0.63071,0.24668,-0.14377
-0.22267,0.8735,0.43288,-0.03516,-0.12841,-1.13551
-0.2452,0.85488,0.45719,0.26484,-0.25161,-1.73464
-0.24363,0.85346,0.46066,0.76632,0.35937,0.84932
-0.23827,0.85491,0.46079,0.07702,0.56607,0.07363
-0.2556,0.86946,0.42269,-0.43848,0.64221,-0.5588
-0.23025,0.90026,0.36944,-0.44705,0.74401,0.10377
-0.19165,0.93288,0.30492,-0.50973,1.22276,0.03603
-0.1582,0.96191,0.22287,-0.66219,1.17543,0.3838
-0.14057,0.98089,0.13442,-0.12415,0.9703,0.35151
-0.11635,0.99206,0.04745,-0.15094,0.53296,0.35299
-0.08606,0.99589,-0.02792,-0.34068,0.3194,0.30588
-0.0611,0.99443,-0.08576,-0.21838,-0.53357,0.16597
-0.04227,0.99051,-0.13071,0.04996,-0.98248,0.12352
-0.03083,0.98672,-0.15939,0.07398,-0.82394,0.23933
-0.0329,0.98541,-0.1669,-0.03917,-0.80583,-0.04554
-0.04926,0.98511,-0.16467,0.04099,-0.93098,-0.20967
-0.07197,0.98628,-0.14848,0.2713,-0.93391,-0.11048
-0.0939,0.98897,-0.11448,0.25517,-0.7195,-0.1349
-0.11053,0.99186,-0.06295,0.24679,-0.0552,-0.17778
-0.12606,0.99198,0.00762,0.38308,0.50095,-0.01181
-0.14262,0.98509,0.09607,0.19024,1.32985,-0.12332
-0.14416,0.97364,0.17667,0.16851,0.78252,-0.21435
-0.14048,0.95736,0.25239,0.23897,1.29893,0.00738
-0.13806,0.93839,0.31675,-0.25395,1.89105,0.15749
-0.12862,0.91835,0.37423,-0.48307,0.95771,0.43291
-0.13296,0.89937,0.41644,-0.35216,0.64201,0.29067
-0.14242,0.88719,0.43882,-0.08975,-0.11232,0.09064
-0.13965,0.88709,0.43993,0.09529,-0.62645,-0.021
-0.12628,0.89597,0.42574,0.04213,-0.72855,-0.27945
-0.10965,0.9068,0.40701,-0.06381,-1.36255,-0.47917
-0.09992,0.91041,0.40141,0.43093,-1.99725,-0.29495
-0.10538,0.908,0.40546,0.74927,-1.8829,-0.37301
-0.12822,0.90835,0.39803,0.35756,-0.89291,-0.28315
-0.15299,0.90785,0.39033,-0.26188,-0.02551,-0.26127
-0.17686,0.89722,0.40457,-0.40479,0.04336,-0.18405
-0.19748,0.87789,0.43621,0.28246,-0.20874,-0.33956
-0.21936,0.85619,0.46773,0.39874,0.03616,-0.12949
-0.22022,0.85156,0.47572,0.55244,0.46495,0.27583
-0.22981,0.8557,0.46361,-0.06424,0.68448,-0.64694
-0.22334,0.87668,0.42605,-0.40987,0.45181,-0.49349
-0.19734,0.90767,0.37034,-0.27047,0.5132,-0.10571
-0.1628,0.93931,0.30193,-0.34735,1.19878,0.44739
-0.13486,0.96669,0.21745,-0.47223,1.0397,0.58178
-0.11473,0.98535,0.12606,-0.34358,1.06479,0.46409
-0.08948,0.99521,0.03907,-0.49806,0.53568,0.32
-0.06393,0.99734,-0.03456,-0.27662,-0.00834,0.24876
-0.04221,0.99484,-0.09215,-0.15002,-0.36805,0.25969
-0.02192,0.98998,-0.13938,-0.06354,-0.76078,0.31331
-0.01085,0.98595,-0.1666,0.04581,-0.39541,0.04836
-0.01176,0.98508,-0.17163,0.04873,-0.39843,0.10777
-0.02524,0.98595,-0.16504,-0.03705,-0.88448,-0.14868
-0.0464,0.98841,-0.14445,0.13737,-1.02702,0.0781
-0.06851,0.99181,-0.10764,0.29655,-1.04511,0.25611
-0.08486,0.99503,-0.05185,0.09869,-0.588,-0.40399
-0.09396,0.9954,0.01772,0.10208,0.59316,0.02525
-0.10867,0.98856,0.10443,0.03711,1.35726,-0.18669
-0.11348,0.97498,0.19104,0.14962,1.034,-0.40927
-0.11277,0.95678,0.268,0.52966,1.3875,0.25763
-0.11388,0.93865,0.32547,0.38561,1.69491,0.2761
-0.10724,0.92079,0.37499,-0.5975,1.16379,0.36986
-0.10957,0.90496,0.41109,-0.68926,0.03922,0.16641
-0.10984,0.89764,0.42679,-0.38314,-0.07189,0.13469
-0.10653,0.90046,0.42164,0.34643,-0.58402,-0.18097
-0.09413,0.90978,0.40424,0.10579,-0.83031,-0.38918
-0.08097,0.92009,0.3832,0.01395,-1.2675,-0.4339
-0.07402,0.92346,0.37644,0.28515,-1.9329,-0.36353
-0.07925,0.92098,0.38142,0.51895,-1.53411,-0.45024
-0.1003,0.91996,0.37893,0.39452,-1.19324,-0.29734
-0.12727,0.91997,0.37069,-0.07225,0.083,-0.37463
-0.1541,0.90863,0.38808,0.01977,0.40369,-0.35937
-0.18407,0.88071,0.43637,-0.01381,0.30596,-1.23175
-0.20809,0.86731,0.45213,0.36414,-0.13152,0.13434
-0.2146,0.86341,0.45654,-0.05057,-0.04137,-0.69702
-0.22306,0.87319,0.4333,0.06116,0.47226,-0.43086
-0.18942,0.89693,0.39949,-0.04105,1.11656,-0.14231
-0.15117,0.92792,0.34068,-0.12181,1.35813,0.40053
-0.12618,0.9567,0.26222,-0.35851,1.18566,0.56373
-0.10983,0.97871,0.17331,-0.51007,0.97108,0.51571
-0.09009,0.9923,0.08481,-0.71942,0.54861,0.36156
-0.06198,0.99805,0.00503,-0.81398,0.4825,0.46306
-0.04174,0.99732,-0.05979,-0.0703,-0.37692,0.16579
-0.02688,0.9936,-0.1096,0.19694,-0.82175,-0.00235
-0.01472,0.989,-0.14708,0.16114,-0.74704,0.03169
-0.0117,0.98633,-0.16432,0.10485,-0.64894,0.03982
-0.02051,0.98578,-0.1667,0.13964,-0.9084,-0.04056
-0.03598,0.98659,-0.15914,0.13692,-0.96558,-0.03945
-0.05192,0.98947,-0.13504,0.22464,-0.87725,0.16234
-0.07088,0.9928,-0.09638,0.30403,-0.831,0.16791
-0.0894,0.99518,-0.04,0.18384,-0.85298,-0.23784
-0.10576,0.994,0.02722,0.09546,0.55414,-0.05505
-0.12939,0.98513,0.11293,-0.04917,1.59169,-0.47167
-0.13891,0.96933,0.20267,0.02284,1.60918,-0.60068
-0.14105,0.95098,0.27515,0.63269,1.42413,0.59437
-0.14235,0.93513,0.3244,-0.34167,1.30689,0.41784
-0.13695,0.91753,0.37329,-0.68906,1.29487,0.30859
-0.13823,0.90072,0.41177,-0.95216,0.45164,0.19218
-0.13882,0.89228,0.42956,-0.25645,-0.09428,0.16148
-0.13461,0.89589,0.42335,0.15089,-0.27772,0.04203
-0.11631,0.90785,0.40278,0.27624,-0.65116,-0.389
-0.09506,0.91914,0.38224,0.27093,-1.46604,-0.52729
-0.07759,0.92275,0.37746,0.34004,-1.73031,-0.40421
-0.07521,0.9206,0.38316,0.37021,-1.52782,-0.44112
-0.09581,0.91933,0.3816,0.07831,-0.44472,-0.0395
-0.12643,0.91621,0.38018,0.10892,-0.4416,-0.03808
-0.1609,0.90406,0.39591,0.09297,-0.55927,-0.98675
-0.19368,0.89032,0.41204,0.88218,-0.01825,-0.22733
-0.19675,0.87225,0.44769,0.99956,0.22556,0.1375
-0.16958,0.87574,0.45197,-0.2104,1.21703,0.18259
-0.19372,0.88503,0.42328,-0.74616,0.16798,-0.45433
-0.18883,0.91005,0.36893,-0.8708,0.25169,0.45532
-0.15109,0.93738,0.31378,-0.71532,0.92332,-0.10636
-0.10749,0.9654,0.23753,-0.68378,0.94294,0.51157
-0.08673,0.9844,0.15298,-0.34216,0.98835,0.4103
-0.06439,0.99567,0.06688,-0.0885,0.75233,0.4259
-0.03436,0.99937,-0.00704,-0.19849,0.45549,0.41503
-0.01239,0.99763,-0.06752,-0.06137,0.042,0.41373
0.00624,0.99355,-0.11309,-0.15943,-1.09068,0.07729
0.01801,0.98836,-0.15098,-0.26857,-0.71523,0.03371
0.01291,0.98591,-0.1667,-0.30015,-0.55474,-0.10807
-0.00646,0.98522,-0.17112,0.03562,-0.85949,-0.10631
-0.02766,0.9865,-0.16132,0.32648,-0.80001,-0.04245
-0.04459,0.98998,-0.13389,0.45548,-0.76029,0.11265
-0.05879,0.99427,-0.08912,0.42964,-0.67277,-0.14446
-0.06318,0.99772,-0.023,0.19856,-0.03393,-0.20408
-0.066,0.99645,0.05189,0.19289,0.50855,-0.34287
-0.067,0.98665,0.14831,-0.09422,1.45459,-0.72075
-0.06466,0.96858,0.24009,0.54511,1.36428,0.31282
-0.07142,0.94767,0.3111,0.78776,1.62223,0.37366
-0.06957,0.92778,0.36654,-0.58527,1.37975,0.38142
-0.07673,0.90881,0.41004,-1.11449,0.62964,0.48279
-0.08792,0.89485,0.43757,-1.10506,0.25331,0.32505
-0.08599,0.8938,0.44009,0.04941,-0.40185,0.10714
-0.0709,0.90303,0.42363,-0.08317,-0.65757,-0.19188
-0.05355,0.91553,0.39862,-0.25065,-0.8615,-0.38728
-0.04119,0.9235,0.38133,0.13288,-1.641,-0.41516
-0.03784,0.92312,0.38259,0.57984,-1.91606,-0.29821
-0.05823,0.91913,0.38959,0.80342,-1.59161,-0.4734
-0.09188,0.91736,0.38725,0.20365,-0.402,-0.05163
-0.12657,0.91184,0.3905,-0.23732,0.17929,-0.02098
-0.15894,0.88953,0.4283,-0.10705,0.24205,-0.11916
-0.18203,0.86883,0.46038,-0.04668,-0.11067,-0.31599
-0.17556,0.86409,0.47169,0.2423,0.48955,0.1695
-0.17489,0.87101,0.45904,0.11751,0.43362,-0.20364
-0.15619,0.88951,0.42935,-0.40379,0.36348,-0.80311
-0.12196,0.92036,0.37152,-0.31463,0.92412,0.13441
-0.08953,0.95109,0.29561,-0.30073,1.26135,-0.00121
-0.0713,0.97633,0.20409,-0.33607,1.08946,0.50973
-0.06549,0.99209,0.10693,-0.1959,0.45003,0.24329
-0.04787,0.99869,0.01711,-0.19154,0.40962,0.18371
-0.02382,0.99815,-0.05568,-0.07976,-0.07211,0.3777
-0.00027,0.99365,-0.11237,-0.27601,-0.71941,0.0564
0.02216,0.98772,-0.15455,-0.3566,-0.82356,0.20463
0.03231,0.98397,-0.17532,-0.11872,-0.67458,0.18495
0.0281,0.98372,-0.1774,-0.17864,-0.84168,0.07782
0.01333,0.9853,-0.17025,-0.18461,-0.88944,-0.0319
-0.00675,0.98877,-0.14922,0.07519,-0.9612,0.08322
-0.02724,0.99313,-0.11368,0.23161,-0.80533,0.22342
-0.04462,0.99721,-0.05954,0.04887,-0.61712,-0.37541
-0.06189,0.99803,0.00912,0.05693,0.62737,0.00302
-0.08669,0.99125,0.09937,0.01644,1.57764,-0.55184
-0.1013,0.97675,0.18882,0.03104,1.59214,-0.64129
-0.1114,0.95806,0.26397,0.36544,1.2877,0.26159
-0.11243,0.94027,0.32126,-0.36046,1.26401,0.26193
-0.10602,0.92143,0.37376,-0.53379,1.09791,0.35528
-0.10892,0.9051,0.41097,-0.51756,0.3404,0.16195
-0.11208,0.89761,0.42625,0.22944,-0.12485,0.09667
-0.11075,0.9017,0.4179,0.50795,-0.32798,-0.09598
-0.09931,0.91354,0.39438,0.16352,-0.90302,-0.45
-0.09028,0.92294,0.37417,0.15965,-1.64345,-0.39733
-0.0896,0.92421,0.37118,0.23528,-1.95355,-0.30093
-0.10248,0.92139,0.37484,0.57133,-1.42824,-0.4242
-0.12804,0.92215,0.36498,0.25085,-0.41794,-0.2125
-0.15535,0.9184,0.36381,0.07225,0.04967,-0.25404
-0.18203,0.89547,0.40615,0.01415,0.38926,-1.0653
-0.213,0.86718,0.45009,-0.04126,-0.03205,-0.17109
-0.22302,0.86264,0.45395,0.35934,-0.20187,-0.23474
-0.23214,0.86835,0.43822,-0.00034,0.16079,-0.55311
-0.22511,0.88595,0.40544,-0.42679,0.5763,-0.8088
-0.18882,0.91322,0.36103,-0.4369,1.00067,-0.14713
-0.162,0.94159,0.29518,-0.17949,1.13582,0.58572
-0.14755,0.96653,0.20979,-0.31834,0.80959,0.60449
-0.13007,0.98418,0.1202,-0.28351,0.86127,0.50284
-0.09641,0.99473,0.03459,-0.82395,0.65156,0.19936
-0.0627,0.99733,-0.03722,-0.36638,0.31304,0.39142
-0.04321,0.99452,-0.09507,0.27717,-0.31869,0.3041
-0.02056,0.98961,-0.14222,-0.16994,-0.54446,0.23078
-0.00699,0.98523,-0.17101,-0.3328,-0.59415,0.03326
-0.01396,0.98411,-0.17696,-0.21311,-0.77573,-0.01914
-0.03245,0.98482,-0.17046,0.00271,-0.9435,-0.12138
-0.05498,0.98729,-0.14902,0.09218,-0.98185,0.06827
-0.07896,0.9907,-0.11073,0.22455,-0.97004,0.21571
-0.10356,0.99313,-0.05425,0.25343,-0.18157,-0.12525
-0.12877,0.99146,0.02012,0.3808,0.33125,0.06193
-0.15845,0.98101,0.11167,0.23603,1.26465,-0.31376
-0.17336,0.96368,0.20306,0.11562,1.03485,-0.29011
-0.17534,0.94459,0.27742,0.20832,1.42642,0.42254
-0.16797,0.92517,0.34031,-0.07904,1.70258,0.3652
-0.15335,0.90413,0.39875,-0.79734,1.02251,0.63789
-0.14563,0.88727,0.43761,-0.25133,0.18872,0.45184
-0.13967,0.88281,0.44844,0.05781,0.23273,0.20786
-0.13004,0.89243,0.43199,0.16085,-0.40914,-0.11818
-0.11921,0.90848,0.40053,0.12547,-1.12672,-0.4978
-0.11492,0.91876,0.37767,0.21497,-1.67,-0.50148
-0.10955,0.9205,0.37502,0.51996,-1.91615,-0.44792
-0.11945,0.91787,0.37844,0.34493,-1.12288,-0.54279
-0.14319,0.91668,0.37305,0.31194,-0.82009,-0.25508
-0.17228,0.91438,0.36631,-0.10065,0.35007,-0.36163
-0.19295,0.90101,0.38848,0.01918,0.54993,-0.69474
-0.21801,0.87663,0.4289,0.13787,0.22164,-1.12232
-0.22808,0.87445,0.4281,0.94138,-0.51333,-0.11645
-0.22478,0.87882,0.42085,0.32087,-0.29917,-0.499
-0.23372,0.89095,0.38929,0.11429,0.16734,-0.45336
-0.20954,0.91504,0.34462,-0.52824,1.43771,0.28489
-0.16571,0.94443,0.28384,-0.96045,1.1049,0.38162
-0.13312,0.97081,0.19943,-1.14345,0.78026,0.85471
-0.10629,0.98831,0.10913,-0.75815,0.80788,0.2988
-0.07153,0.99726,0.01807,-0.32078,0.61333,0.22906
-0.04427,0.99687,-0.06538,-0.07162,0.41144,0.34472
-0.02641,0.99099,-0.13118,0.12489,-0.34622,0.16237
-0.00959,0.98403,-0.17767,0.04699,-0.59239,0.22585
-0.00212,0.97858,-0.20582,0.08572,-0.62909,0.28296
-0.00965,0.97758,-0.21029,-0.04989,-0.6157,0.08494
-0.03195,0.97819,-0.20521,0.0251,-0.94771,-0.08107
-0.05996,0.98096,-0.18465,0.06667,-0.98386,-0.06424
-0.08725,0.9849,-0.14943,0.34216,-0.95309,0.23436
-0.11255,0.98867,-0.09921,0.25276,-0.61764,-0.15153
-0.13047,0.99099,-0.0299,0.06892,-0.2839,-0.42896
-0.14847,0.98745,0.05368,-0.07516,1.59208,-0.5652
-0.15797,0.97527,0.1545,0.21984,1.67616,-0.46529
-0.15596,0.95839,0.23904,0.75382,1.51329,-0.20996
-0.15831,0.94207,0.29566,0.15706,1.56864,0.43487
-0.15268,0.9257,0.34601,-0.61456,1.11693,0.35367
-0.15499,0.90966,0.38532,-1.03492,0.18589,0.3477
-0.15737,0.90057,0.40518,-0.40252,0.0667,0.10042
-0.15828,0.90137,0.40304,0.30491,-0.4639,-0.01453
-0.14922,0.91047,0.38567,0.30007,-0.73399,-0.10757
-0.13652,0.92064,0.36572,0.29143,-1.73543,-0.3328
-0.12692,0.92436,0.35974,0.56219,-1.78217,-0.45843
-0.13612,0.92059,0.36599,0.68738,-1.60951,-0.55236
-0.16154,0.91885,0.35999,0.25839,-0.29562,0.02676
-0.18847,0.91574,0.35478,-0.63723,0.24982,-0.27273
-0.21457,0.90034,0.37856,-0.70864,0.19112,-0.25516
-0.24285,0.87969,0.40882,0.4089,-0.11559,-1.24936
-0.25822,0.86248,0.43522,0.64541,-0.21928,0.28891
-0.23899,0.86395,0.44322,0.78035,0.06907,0.42676
-0.24192,0.86766,0.43428,0.15879,0.3919,-0.51264
-0.23208,0.88877,0.39522,-0.34488,0.97364,0.04956
-0.19327,0.91878,0.34417,-0.14464,1.35467,0.3966
-0.15674,0.94911,0.27311,-0.74237,0.99439,0.62745
-0.13769,0.97255,0.18751,-0.46077,1.07239,0.46041
-0.11535,0.98844,0.09823,-0.36754,0.96604,0.44538
-0.08088,0.99665,0.01101,-0.60597,0.59652,0.39377
-0.05292,0.99631,-0.0674,-0.32852,-0.13321,0.51471
-0.03704,0.99107,-0.128,-0.19058,-0.54365,0.37464
-0.02685,0.9843,-0.17442,0.08152,-0.64592,0.13839
-0.02715,0.98057,-0.19422,0.10059,-0.55806,-0.05004
-0.03739,0.97986,-0.1961,0.06525,-0.70256,0.04173
-0.05844,0.98046,-0.18778,0.06942,-0.98894,-0.11182
-0.08366,0.9828,-0.16455,0.36959,-0.91995,0.18338
-0.11001,0.98599,-0.12531,0.48196,-0.83221,0.15277
-0.13567,0.98841,-0.06792,0.67452,-0.64404,0.11587
-0.14908,0.9888,0.00588,0.27176,-0.19299,-0.54162
-0.15485,0.98484,0.07804,0.25391,0.31182,-0.28895
-0.15679,0.97281,0.17038,-0.35092,2.02994,-0.71797
-0.1418,0.95139,0.27336,-0.01949,1.66516,0.54036
-0.13206,0.92709,0.35077,0.72349,1.47948,0.69963
-0.1356,0.91107,0.38928,-0.27472,1.16399,0.57241
-0.1404,0.89583,0.42159,-1.17802,0.35043,0.4884
-0.14424,0.88737,0.43787,-1.02386,0.03835,0.37218
-0.14232,0.89183,0.42936,0.28211,-0.43503,0.08199
-0.13396,0.90492,0.40392,0.24259,-0.94985,-0.34892
-0.12051,0.91658,0.38122,0.26521,-1.14572,-0.53026
-0.11298,0.9208,0.37327,0.39586,-1.97903,-0.37005
-0.12906,0.92103,0.36745,0.37449,-1.33201,-0.47503
-0.16451,0.92075,0.35374,0.39599,-0.93927,-0.29253
-0.2002,0.91659,0.34605,-0.22719,0.28319,-0.17951
-0.22936,0.90281,0.36373,-0.20406,-0.88091,-0.53256
-0.24836,0.89202,0.3776,0.26123,-0.88816,-1.12171
-0.26087,0.88397,0.38797,0.93563,-0.35867,-0.94325
-0.24821,0.88553,0.39268,0.96514,1.95108,2.12378
-0.25037,0.88204,0.39911,0.9673,1.95457,2.11736
-0.27202,0.90241,0.33411,-0.90116,0.01144,0.57336
-0.248,0.92697,0.28142,-0.59334,0.57506,-0.02701
-0.19223,0.95765,0.2143,-0.81653,1.10825,0.51029
-0.14147,0.98096,0.13298,-0.9473,1.67805,0.70514
-0.12168,0.99171,0.04099,-0.07572,0.45,0.5491
-0.10387,0.99352,-0.04594,-0.11432,0.22287,0.29832
-0.07571,0.99056,-0.11422,-0.44904,-0.14089,0.13244
-0.05231,0.98484,-0.16533,0.26358,-0.85,0.16448
-0.03923,0.97901,-0.19996,0.45696,-0.6805,0.08358
-0.03442,0.97704,-0.2102,0.21425,-0.35357,0.20382
-0.04296,0.97715,-0.20814,-0.18068,-0.90284,-0.10596
-0.06753,0.97854,-0.19465,-0.18318,-0.94095,-0.10669
-0.09901,0.98105,-0.16649,0.28029,-0.9603,0.3046
-0.12718,0.98439,-0.12163,0.35754,-0.58897,-0.17961
-0.14709,0.98745,-0.05741,0.10871,-0.35102,-0.73216
-0.16325,0.9863,0.0231,0.31411,1.58003,-0.13817
-0.17284,0.97751,0.12077,0.41596,1.46184,-0.49142
-0.16294,0.96353,0.2122,0.38146,0.65332,-0.34304
-0.16278,0.94621,0.27957,0.25115,1.68054,0.59339
-0.16484,0.92964,0.3295,-0.776,1.46378,0.43352
-0.16487,0.91036,0.37951,-1.12227,0.91343,0.52777
-0.1671,0.89657,0.41014,-0.69837,-0.06098,0.24036
-0.16907,0.89304,0.41698,0.3295,-0.28122,0.15587
-0.15784,0.89941,0.40756,0.4701,-0.56204,0.20665
-0.13794,0.91171,0.38695,0.18005,-1.07734,-0.56493
-0.11939,0.9179,0.37839,0.1559,-1.57986,-0.64849
-0.11032,0.91446,0.38931,0.23344,-1.6606,-0.41705
-0.12332,0.90858,0.39905,0.32673,-0.84132,-0.13872
-0.15364,0.90785,0.3901,-0.08392,-0.02058,-0.28068
-0.19744,0.89939,0.38998,-0.24479,-0.01337,-0.40425
-0.23121,0.88929,0.39455,0.25471,-1.13104,-1.02729
-0.242,0.8844,0.39905,1.11987,-0.41661,-0.23769
-0.2226,0.88498,0.40894,1.20458,-0.21506,0.29577
-0.22073,0.89685,0.3833,-0.63663,2.10151,-0.13128
-0.22765,0.91786,0.32509,-0.88353,-0.04728,-0.20459
-0.19304,0.94257,0.27251,-0.855,-0.26591,0.04785
-0.13187,0.97042,0.20217,-0.94218,1.16555,0.68102
-0.08052,0.98964,0.11878,-0.63589,2.05501,0.65021
-0.05978,0.99788,0.02516,0.14965,0.62951,0.49366
-0.04091,0.99705,-0.06476,-0.08017,0.13983,0.33899
-0.01307,0.99073,-0.13516,-0.51238,-0.8622,-0.02376
0.00599,0.98207,-0.18837,-0.53144,-0.85355,0.02945
0.00759,0.9751,-0.22158,0.21084,-0.1621,-0.00122
-0.00776,0.97408,-0.22605,0.22204,-0.72496,0.13858
-0.03207,0.97567,-0.21686,0.24634,-0.72655,0.1294
-0.05937,0.97896,-0.19518,0.20508,-0.95792,0.08933
-0.08697,0.98367,-0.15751,0.40237,-0.88579,0.27837
-0.11298,0.9884,-0.10139,0.40151,-0.73923,0.13328
-0.1298,0.99123,-0.02434,0.14264,-0.09153,-0.20628
-0.14136,0.9878,0.06517,-0.24241,1.38729,-0.4487
-0.14553,0.97469,0.16963,-0.23824,1.4004,-0.55316
-0.1403,0.95426,0.26397,0.57466,1.78512,0.6427
-0.1375,0.93443,0.32848,0.15801,1.65932,0.46745
-0.12802,0.91614,0.37982,-0.28784,1.48373,0.39471
-0.13046,0.89831,0.41952,-1.02523,0.2776,0.41422
-0.13386,0.88979,0.43626,0.16169,-0.1447,0.00807
-0.13031,0.89385,0.42898,0.26184,-0.49057,0.02434
-0.12231,0.9076,0.40159,0.26633,-1.14297,-0.62526
-0.11508,0.91851,0.37823,0.4086,-2.18652,-0.33111
-0.10943,0.92241,0.37034,0.45716,-2.07329,-0.33569
-0.12245,0.92195,0.36742,0.28343,-1.11299,-0.36984
-0.15089,0.92281,0.35445,0.11424,-0.06285,-0.21059
-0.18302,0.91825,0.35112,-0.03472,0.24486,-0.44409
-0.19917,0.90193,0.38317,0.11496,-0.16439,-0.75468
-0.22092,0.88528,0.4092,0.6659,0.03347,-0.49041
-0.22641,0.88223,0.41278,0.71853,0.10144,0.2396
-0.22341,0.8876,0.40278,0.29755,0.11726,0.02895
-0.24042,0.89988,0.36386,-0.40251,0.27021,-0.69873
-0.20359,0.92683,0.31546,-0.65879,0.18792,-0.56583
-0.1439,0.95616,0.25498,-0.97946,1.68418,0.38366
-0.09358,0.98051,0.1727,-0.98929,1.27212,1.00124
-0.07032,0.99435,0.07942,-0.72279,0.98971,0.60508
-0.04292,0.99896,-0.01477,-0.30351,0.17751,0.1895
-0.01223,0.99513,-0.09768,-0.80719,-0.29469,0.08123
0.00589,0.98663,-0.16283,-0.59956,-0.64425,-0.01731
0.00688,0.97712,-0.21255,0.37127,-0.26932,0.18896
-0.00591,0.97208,-0.23454,0.2999,-0.13291,0.25676
-0.02686,0.97148,-0.23557,0.29457,-0.45752,0.29021
-0.05118,0.97432,-0.21922,0.15201,-0.95993,0.02517
-0.07335,0.98003,-0.18476,0.23869,-1.0469,0.07262
-0.09171,0.98618,-0.13792,0.23242,-0.99145,0.09713
-0.10814,0.99136,-0.07407,-0.06358,0.00839,-0.19109
-0.12993,0.99145,0.01105,-0.0925,1.25461,-0.30574
-0.14732,0.98224,0.1161,-0.11976,1.36252,-0.5009
-0.14699,0.9659,0.2131,0.97931,1.5065,0.16637
-0.14087,0.94987,0.27908,0.36085,1.74929,0.59128
-0.12723,0.93354,0.3351,-0.33611,1.72891,0.20428
-0.13298,0.91684,0.37641,-1.2017,0.18464,0.36541
-0.14601,0.90675,0.39556,0.20665,-0.1412,-0.11574
-0.15163,0.90596,0.39524,0.40677,-0.37323,-0.14868
-0.14626,0.91546,0.37485,0.36251,-0.80348,-0.51395
-0.14068,0.92599,0.35032,0.34475,-1.77325,-0.36192
-0.13643,0.92926,0.34327,0.31688,-1.96193,-0.4225
-0.14779,0.9265,0.34602,0.30667,-1.87682,-0.55203
-0.17461,0.92671,0.33272,0.11055,-0.30279,-0.01649
-0.20235,0.92381,0.32497,-0.33087,0.08295,-0.00469
-0.23174,0.91018,0.34328,-0.61848,0.07061,-0.19762
-0.26385,0.8954,0.35863,0.7538,-0.4152,-1.17448
-0.27369,0.88406,0.37883,0.68967,-0.25463,0.69503
-0.25711,0.88666,0.3843,0.87833,0.62023,1.13663
-0.26713,0.89301,0.36214,-0.47605,0.53074,-0.57197
-0.24558,0.92059,0.3036,-0.75969,0.20575,0.02696
-0.20186,0.95118,0.23342,-0.75818,0.79035,0.09042
-0.15096,0.9774,0.14794,-1.08299,1.58265,0.6709
-0.12841,0.99023,0.0542,-1.10554,1.56981,0.76465
-0.11968,0.9921,-0.03734,0.45854,0.2438,0.41228
-0.09753,0.98824,-0.11769,0.13779,-0.02358,0.22034
-0.06964,0.98092,-0.18145,-0.08199,-0.37988,0.21923
-0.04954,0.9721,-0.22922,0.11139,-0.86198,0.07314
-0.04299,0.96467,-0.25989,0.19784,-0.32203,0.20987
-0.05351,0.9618,-0.26844,0.14811,-0.41989,0.28916
-0.07737,0.96101,-0.26544,-0.02194,-0.94751,-0.11559
-0.10352,0.96365,-0.24626,0.14234,-0.8297,0.1001
-0.13099,0.96876,-0.21053,0.25033,-0.77514,0.21598
-0.15651,0.97523,-0.15624,0.38605,-0.66604,0.11474
-0.16744,0.98262,-0.08004,-0.01326,0.12762,-0.23145
-0.17383,0.98474,0.00683,0.0479,0.96637,-0.14581
-0.18281,0.9766,0.11317,0.27703,1.7685,-0.38426
-0.17461,0.96144,0.21244,0.85933,1.00832,0.43619
-0.17316,0.9454,0.27606,0.60872,1.19351,0.6725
-0.17288,0.92803,0.32992,-0.85448,1.26753,0.52543
-0.17376,0.91021,0.3759,-1.24179,0.56751,0.486
-0.17405,0.89775,0.40463,-1.00255,0.24387,0.28796
-0.16759,0.89673,0.4096,0.35393,-0.53047,0.04577
-0.15462,0.90927,0.38638,0.2,-0.67822,-0.43781
-0.13707,0.92522,0.35376,0.09204,-0.85491,-0.59131
-0.12049,0.93441,0.33515,0.35539,-2.05127,0.07148
-0.1304,0.93499,0.3298,0.76902,-1.78956,-0.50482
-0.16801,0.93481,0.31284,0.9906,-1.56943,-0.56011
-0.18731,0.9356,0.29924,0.23621,-0.04105,-0.08072
-0.19567,0.9257,0.32368,-0.64144,0.43908,-0.1879
-0.21384,0.90565,0.36612,-0.38601,0.4537,-0.35448
-0.24049,0.87952,0.41059,-0.05623,1.35951,0.00626
-0.2415,0.87975,0.40949,0.59621,-1.12408,0.21687
-0.24704,0.8828,0.39951,0.37343,-0.87934,0.07443
-0.24242,0.89787,0.36748,-0.25235,-0.23007,-0.46744
-0.19917,0.92726,0.31701,-0.42413,2.46353,0.05239
-0.1344,0.95911,0.24902,-0.48889,2.43168,0.12038
-0.10833,0.9825,0.15143,-0.86555,0.43089,0.91227
-0.08645,0.99447,0.05947,-0.01847,1.01391,0.31163
-0.04996,0.99834,-0.02843,0.14544,0.81212,0.48435
-0.01743,0.99427,-0.10539,-0.18326,-0.30662,0.35304
0.00628,0.98634,-0.16458,-0.39114,-1.12583,-0.10572
0.01026,0.978,-0.20831,-0.07456,-0.97666,-0.10193
-0.00117,0.97368,-0.22789,0.15692,-0.33089,-0.03266
-0.02082,0.97336,-0.22831,0.11492,-0.65627,-0.0484
-0.04256,0.9772,-0.20799,0.20872,-0.81249,0.02929
-0.06013,0.98378,-0.16895,0.39114,-0.96655,0.30671
-0.07396,0.99055,-0.11544,0.12412,-0.69815,-0.35229
-0.07873,0.99577,-0.04729,-0.13073,-0.27323,-0.2766
-0.08829,0.99548,0.03467,-0.40158,1.58876,-0.50298
-0.10279,0.98495,0.13886,0.20523,1.67775,-0.28732
-0.10894,0.96607,0.23413,0.82343,1.61808,0.12587
-0.10669,0.95078,0.29086,-0.07619,1.48476,0.54924
-0.0994,0.93741,0.33371,-0.94639,0.94127,0.53845
-0.10406,0.9243,0.36718,-1.30776,0.41942,0.41402
-0.10514,0.91748,0.38361,-0.15193,-0.13058,-0.00409
-0.09905,0.91947,0.38044,0.30477,-0.42886,-0.2885
-0.08884,0.92784,0.36221,0.24185,-0.67414,-0.35945
-0.08059,0.93548,0.34403,0.31147,-1.60386,-0.41273
-0.07713,0.93636,0.34243,0.60221,-1.8933,-0.39703
-0.09634,0.93338,0.34567,0.67206,-1.72583,-0.52868
-0.12966,0.93581,0.32775,0.50286,-0.69339,-0.23873
-0.15327,0.9359,0.31715,-0.40052,0.15871,-0.16642
-0.16652,0.92453,0.34275,-0.75761,0.28527,-0.26513
-0.18491,0.90861,0.37444,0.28055,-0.11235,-2.00565
-0.20205,0.89145,0.40556,0.57102,0.65671,0.71609
-0.19307,0.8939,0.40453,0.56837,0.35165,0.55846
-0.21131,0.8938,0.39552,-0.37632,0.15197,-1.24798
