gravity.x,gravity.y,gravity.z,userAcceleration.x,userAcceleration.y,userAcceleration.z
-0.16575,0.88742,0.43012,1.30064,3.59146,-1.63358
-0.19565,0.88894,0.41413,1.1125,-2.07554,0.35887
-0.23589,0.91333,0.33193,1.40457,-2.19833,-1.56704
-0.22495,0.95165,0.20916,0.84946,0.39136,-1.77055
-0.11002,0.9779,0.17777,-0.56332,2.87444,-1.206
-0.01724,0.99279,0.11862,-1.21965,3.53898,0.35608
0.03551,0.99917,0.01966,-0.51045,2.11563,0.9667
0.06175,0.99519,-0.07602,-0.03713,1.63298,0.62858
0.08794,0.98599,-0.14174,-0.03089,1.08446,1.13045
0.12226,0.97635,-0.1783,-0.09488,0.25401,0.70396
0.15809,0.96712,-0.19919,-0.266,-0.98046,0.29773
0.1901,0.95805,-0.2145,-0.54831,-1.42466,0.35673
0.21208,0.95484,-0.20807,-0.77734,-0.89684,0.78862
0.21098,0.9564,-0.20192,-0.98573,-0.39555,0.26288
0.19242,0.96088,-0.19922,-0.64963,-0.46399,0.10074
0.17111,0.97171,-0.16275,-0.3759,-0.83648,1.46059
0.15811,0.98201,-0.1032,0.3666,-1.37642,0.28904
0.14244,0.98871,-0.0464,-0.17862,-1.20006,-0.20788
0.11106,0.99341,0.02803,-0.69125,-0.74079,-0.11094
0.05949,0.99187,0.11248,-0.52699,0.36113,-0.69139
0.01503,0.9802,0.19742,-0.38429,1.60215,0.46875
-0.01147,0.96159,0.27425,0.39544,3.57075,0.67404
-0.03896,0.92898,0.36807,1.04765,3.18694,0.44776
-0.10868,0.87766,0.46679,0.1964,1.41105,0.56674
-0.17402,0.82992,0.53004,-0.21117,1.29837,0.12104
-0.19203,0.77147,0.60659,-0.47939,1.48719,-0.44727
-0.15064,0.71439,0.68334,-0.05232,-0.31873,-0.95032
-0.09782,0.67157,0.73445,-0.10514,-0.27591,-1.00143
-0.05785,0.66216,0.74712,0.76221,-1.58678,-0.74747
-0.042,0.67738,0.73443,0.28529,-0.72275,-1.13598
-0.04092,0.70439,0.70863,0.2842,-0.74975,-1.11018
-0.04714,0.73445,0.67702,0.8803,-1.35609,-1.5517
-0.06451,0.77402,0.62986,0.36194,-1.26367,-0.86003
-0.08494,0.82386,0.56039,0.38237,-1.31351,-0.79056
-0.09965,0.87163,0.47992,-0.23201,-0.85899,-0.54009
-0.1165,0.90139,0.41703,-0.52467,-0.14417,0.10252
-0.14749,0.90748,0.39333,-0.49368,-0.15027,0.12622
-0.18589,0.90955,0.37169,-0.02714,0.33505,-0.37157
-0.2219,0.91783,0.32914,0.55168,-0.3931,-1.05061
-0.21881,0.89788,0.38201,1.67326,1.61962,-0.02123
-0.24383,0.90519,0.34809,0.29298,0.71969,-1.58101
-0.26456,0.93073,0.25248,1.29296,-1.25299,0.79456
-0.22369,0.96308,0.14975,1.27532,-0.94381,-1.10675
-0.12346,0.98654,0.1072,0.48845,1.0981,-1.09766
-0.03826,0.99808,0.04859,-1.14057,3.86518,-0.66296
0.004,0.99858,-0.05302,-1.52699,2.83989,0.90876
0.04745,0.98815,-0.14599,0.02085,1.37752,0.45406
0.08663,0.973,-0.21392,-0.29192,1.516,1.07265
0.12991,0.9589,-0.25224,-0.00401,-0.00731,0.79394
0.17509,0.94699,-0.26937,-0.09181,-0.83927,0.35593
0.20755,0.93866,-0.27539,-0.55061,-1.09933,0.85923
0.22895,0.93928,-0.2556,-0.76684,-0.99571,0.92822
0.22659,0.94405,-0.23961,-1.19609,-0.59114,-0.33993
0.20159,0.95019,-0.23768,-0.77352,-0.72627,0.27403
0.17585,0.96396,-0.19965,-0.81222,-0.8121,1.44767
0.16618,0.9754,-0.14486,0.85846,-1.03965,-0.35376
0.16065,0.98295,-0.08943,0.2669,-1.05161,-0.03743
0.13618,0.99068,-0.00203,-0.55061,-0.19602,-0.30775
0.08747,0.993,0.07936,-0.64026,1.16319,0.65123
0.03528,0.98656,0.15952,0.04427,1.80741,0.18889
0.00479,0.96812,0.25045,0.40381,2.31937,0.03333
-0.01913,0.9363,0.35069,0.7985,3.49615,0.33596
-0.07998,0.89726,0.43419,0.01754,2.05877,0.23685
-0.12649,0.85145,0.50895,-0.51548,1.16941,-0.36484
-0.14012,0.79861,0.58532,-0.3854,1.13369,-0.76578
-0.10395,0.74609,0.65768,0.10043,0.17113,-0.81161
-0.05952,0.70665,0.70506,0.53033,-1.46373,-0.92002
-0.01966,0.6908,0.72277,0.20708,-1.55332,-0.85222
-0.00438,0.70022,0.71391,0.22263,-1.03835,-1.40729
-0.01047,0.72488,0.68879,0.53347,-1.24298,-1.67773
-0.04047,0.75544,0.65397,0.81592,-1.55619,-1.66016
-0.07582,0.7957,0.60092,0.36535,-1.06121,-0.86827
-0.0991,0.84255,0.52942,0.38863,-1.10805,-0.79677
-0.11132,0.88413,0.45379,-0.04624,-0.74353,0.03803
-0.1264,0.89716,0.42323,-0.50221,0.66284,0.70564
-0.13823,0.89445,0.42527,-0.21047,0.50438,0.08113
-0.1662,0.8931,0.41802,-0.14916,-0.3566,-0.44395
-0.21059,0.91709,0.33853,0.34351,-1.82036,-1.81426
-0.21468,0.93768,0.27324,1.86914,-1.47185,-2.06319
-0.21615,0.90903,0.35629,-0.64233,6.53132,5.80646
-0.26028,0.91919,0.29552,-0.20618,0.31536,-4.65079
-0.27848,0.94056,0.19439,1.33165,-2.39947,2.80437
-0.2604,0.96157,0.08705,1.51872,-2.38515,-1.66105
-0.16581,0.98401,0.0651,0.37316,0.05196,-2.02828
-0.07918,0.99685,-0.00378,-0.64912,6.29174,-0.25913
-0.05665,0.99379,-0.09573,-1.31875,2.91832,0.72233
-0.00948,0.9864,-0.16408,0.42939,0.85813,1.21795
0.05129,0.97731,-0.20551,0.98279,0.59319,1.03127
0.11821,0.96781,-0.22221,0.15533,0.20192,0.35586
0.16734,0.95763,-0.23441,-1.03244,-0.69739,0.33294
0.19373,0.95039,-0.24336,-1.45592,-1.20021,0.23611
0.19631,0.94654,-0.25599,-1.4881,-1.07463,-0.04066
0.17669,0.94837,-0.2634,-0.61239,-0.6818,0.65439
0.1559,0.95744,-0.24291,-0.39815,-0.66027,1.07627
0.14879,0.96966,-0.19394,0.64005,-1.00243,0.74141
0.14166,0.9805,-0.13621,0.30603,-1.02492,0.19197
0.12223,0.99022,-0.06732,-0.17847,-0.66934,0.58183
0.08734,0.99599,0.01927,-0.31268,-0.09508,-0.2946
0.03422,0.99324,0.11094,-0.25987,0.71903,-0.3565
-0.01715,0.97907,0.2028,-0.17714,1.26351,0.20647
-0.06261,0.95429,0.29226,0.53794,4.26664,0.61061
-0.1286,0.91613,0.3797,0.45848,3.19958,0.39458
-0.19532,0.86748,0.45752,0.29423,1.93072,0.20898
-0.23966,0.81653,0.52521,-0.23526,0.82246,-0.36149
-0.23527,0.76477,0.59981,-0.21627,0.77738,-0.76085
-0.19454,0.7219,0.66409,0.13336,-0.5181,-0.62463
-0.13932,0.69226,0.70808,0.34716,-1.08642,-0.8729
-0.08561,0.68786,0.72077,0.16192,-1.1065,-0.95103
-0.06175,0.70646,0.70505,0.30917,-0.9937,-1.04196
-0.05846,0.7323,0.67847,0.5934,-1.2516,-1.57005
-0.07114,0.76238,0.64321,0.56674,-1.3987,-1.05124
-0.09596,0.80401,0.58682,0.36889,-1.30854,-0.79132
-0.11199,0.85054,0.51384,0.24263,-1.20375,-0.5136
-0.11749,0.88506,0.45041,-0.94234,0.25242,0.72545
-0.13631,0.88968,0.43575,-0.98124,0.74099,0.50765
-0.15399,0.8851,0.43917,-0.25734,0.21657,-0.57719
-0.18382,0.88858,0.42028,0.70569,-0.39567,-1.81092
-0.18435,0.8548,0.4851,2.44371,1.38075,-1.41427
-0.22766,0.86406,0.44896,0.29374,-1.16483,-1.93657
-0.27307,0.90459,0.32734,1.15244,-2.27428,-0.22254
-0.25334,0.94455,0.20888,0.97409,-0.27404,-1.93762
-0.17096,0.97298,0.15515,-0.16673,2.56162,-0.63041
-0.08399,0.99108,0.10344,-0.94093,2.37725,-0.50239
-0.01068,0.99896,0.04432,-0.64485,1.66985,0.57739
0.02858,0.99865,-0.04344,-0.16597,1.71887,0.75296
0.05378,0.99268,-0.10817,-0.21164,1.57022,0.74435
0.07433,0.98553,-0.15233,-0.22665,1.07128,0.98157
0.1069,0.97739,-0.18242,-0.19325,-0.4945,0.72624
0.14343,0.96932,-0.19961,-0.29295,-1.24264,0.16244
0.1683,0.96435,-0.20421,-0.6087,-1.22698,0.34469
0.17445,0.9646,-0.19776,-0.89569,-0.94541,0.76601
0.16968,0.9658,-0.19604,-0.41459,-0.63585,0.01299
0.16173,0.97097,-0.17623,-0.35057,-0.67259,1.02475
0.15496,0.97963,-0.12772,0.14111,-1.10422,0.4478
0.14737,0.98622,-0.0752,0.08207,-1.07309,-0.09433
0.12984,0.99146,-0.0119,-0.28674,-0.98277,0.16278
0.09882,0.99313,0.06259,-0.30576,-0.64665,-0.00047
0.05099,0.98788,0.1466,-0.11968,0.0702,-0.81099
-0.00879,0.96705,0.25441,-0.24227,1.00221,-0.1328
-0.07426,0.93865,0.33677,-0.12657,2.87832,1.15936
-0.126,0.90694,0.40197,0.63443,5.48623,0.68801
-0.18192,0.85993,0.47689,0.6021,3.19216,0.47117
-0.2602,0.80571,0.53209,-0.29209,0.73217,0.07868
-0.26519,0.75592,0.59854,-0.34144,1.00554,-0.76869
-0.21232,0.71183,0.66948,-0.16108,0.64212,-0.87549
-0.14862,0.68105,0.71699,0.58121,-1.31589,-0.61749
-0.08387,0.67487,0.73315,0.13807,-1.11922,-0.71435
-0.0353,0.69459,0.71853,-0.13704,-1.10112,-0.76963
-0.023,0.73032,0.68272,0.2119,-0.95287,-0.85113
-0.03124,0.76699,0.64089,0.66566,-1.26344,-1.08877
-0.05021,0.80029,0.59751,0.73349,-1.42367,-1.13938
-0.07155,0.83626,0.54364,0.37264,-0.99271,-0.92977
-0.08318,0.8765,0.47416,0.18937,-0.93613,-0.65086
-0.0846,0.90881,0.40854,-0.02144,-0.55661,-0.22101
-0.09293,0.92634,0.36504,-0.46329,0.22187,0.28905
-0.10877,0.93345,0.34181,-0.14258,0.49132,0.11378
-0.12054,0.93356,0.33753,0.47524,-0.15338,-0.20537
-0.1511,0.92851,0.33917,0.68527,-0.39477,-0.1344
-0.20341,0.89675,0.39303,-1.429,3.55412,-1.37691
-0.26291,0.89435,0.36195,-1.3695,3.55652,-1.34584
-0.30021,0.90967,0.28701,1.78587,-3.34964,1.57566
-0.29086,0.9379,0.18905,0.74714,0.1049,-1.52633
-0.16841,0.96952,0.17795,0.62469,0.07328,-1.51523
-0.06283,0.99184,0.11092,-1.35937,4.8231,0.26179
-0.0206,0.99908,0.03762,-0.63131,1.1803,0.53595
0.00806,0.99893,-0.04549,-0.34572,1.23473,0.55859
0.03133,0.99286,-0.11506,-0.26728,1.27619,0.65979
0.05214,0.98609,-0.15782,0.44126,-0.24329,0.69919
0.08621,0.9789,-0.18526,0.38694,-0.8169,0.46941
0.12492,0.97191,-0.19948,0.0911,-1.33188,0.49086
0.16051,0.96765,-0.19467,-0.55599,-0.93856,0.69911
0.17826,0.96652,-0.18455,-1.1042,-0.66638,0.45779
0.17168,0.96829,-0.1815,-0.80161,-0.71991,-0.25533
0.15348,0.97595,-0.15479,-0.85866,-0.76486,0.80605
0.13423,0.98535,-0.10524,-0.0276,-0.92025,0.85147
0.11928,0.99162,-0.04956,0.30513,-1.18558,-0.07391
0.09768,0.99501,0.02007,-0.20088,-1.01426,0.04942
0.06517,0.99249,0.10356,-0.42567,-0.6387,-0.06828
0.02088,0.98008,0.1975,-0.35009,0.55727,-0.88181
-0.03616,0.95599,0.29115,-0.57578,1.91144,0.61876
-0.08402,0.93964,0.3317,0.29898,5.73927,0.86879
-0.10097,0.91249,0.39644,0.5019,1.85109,0.23793
-0.17006,0.87186,0.45929,0.61636,1.00468,0.50106
-0.2427,0.8341,0.49535,0.18773,1.01449,0.2102
-0.24594,0.79767,0.55066,-0.15379,0.85365,-0.6931
-0.20996,0.76744,0.60577,0.32045,-0.29866,-0.62002
-0.15913,0.74891,0.64328,0.41859,-0.88534,-0.54788
-0.10745,0.74814,0.65478,0.12024,-1.31415,-0.84002
-0.06903,0.76948,0.63494,0.04386,-1.28382,-0.84123
-0.05417,0.80392,0.59226,0.16565,-1.22198,-0.78114
-0.05539,0.8422,0.53631,0.5313,-1.66772,-0.84794
-0.0583,0.87921,0.47286,0.44621,-1.29884,-0.80748
-0.0576,0.91089,0.40861,0.31237,-0.91461,-0.56099
-0.05919,0.92983,0.36319,-0.03764,-0.41631,0.08895
-0.08856,0.93052,0.35537,-0.44043,0.92867,0.83968
-0.1283,0.92606,0.3549,0.20232,0.44812,0.83779
-0.17353,0.90369,0.39145,0.73819,2.78898,1.75123
-0.21018,0.89198,0.40025,-0.26005,3.90581,-2.8266
-0.2359,0.89607,0.37605,0.76734,-1.56637,-2.56578
-0.24354,0.91386,0.32488,1.91627,-2.50018,0.62825
-0.21974,0.94991,0.22222,1.02368,2.7525,-0.72144
-0.0988,0.98181,0.16213,0.90274,2.7206,-0.66135
-0.02267,0.99513,0.09596,-1.06707,2.77997,0.17749
0.03627,0.99933,0.0044,-0.62459,1.4138,0.12811
0.06267,0.99374,-0.09244,-0.95627,1.68489,0.40197
0.07948,0.97938,-0.18575,-1.05412,1.89013,1.08047
0.09321,0.96488,-0.24558,-0.38569,1.02758,1.3718
0.10918,0.95504,-0.27565,-0.15619,0.37628,0.81134
0.13159,0.94663,-0.29423,0.37571,-1.32806,1.09661
0.16978,0.94449,-0.28128,-0.30655,-1.00268,0.67029
0.19609,0.94912,-0.2464,-0.72659,-0.82573,0.28545
0.19027,0.95173,-0.24085,-0.79575,-0.55578,-0.17334
0.17308,0.95833,-0.22727,-0.61711,-0.53583,0.35761
0.15333,0.9726,-0.17476,-0.45699,-0.76064,1.75456
0.13878,0.98258,-0.12362,0.15405,-1.33875,-0.32796
0.11778,0.99141,-0.05685,-0.22566,-1.09204,0.39677
0.08252,0.99628,0.02481,-0.50545,-0.47199,-0.27414
0.03295,0.99286,0.11466,-0.18833,0.77107,-0.31026
-0.00909,0.97992,0.19918,-0.22436,2.20586,0.64164
-0.01729,0.95487,0.29651,0.59859,4.06173,0.47708
-0.07014,0.91037,0.40781,0.8966,2.95577,-0.0113
-0.15463,0.85937,0.48741,-0.0956,1.27753,0.07753
-0.20728,0.80392,0.55745,-0.32017,1.21395,-0.37234
-0.20336,0.74891,0.63069,-0.67033,0.30623,-0.74665
-0.16176,0.70399,0.69154,0.70841,-0.67378,-0.75947
-0.12031,0.6833,0.72016,0.82086,-1.36193,-0.88727
-0.08974,0.6903,0.71794,0.41996,-1.33187,-0.97511
-0.08031,0.71445,0.69506,0.37485,-1.07021,-1.22567
-0.0856,0.74563,0.66084,0.46985,-1.15615,-1.36205
-0.09472,0.78065,0.61775,0.84159,-1.60874,-1.14808
-0.10764,0.82302,0.55772,0.39953,-1.29979,-0.73701
-0.11272,0.86787,0.48383,0.25791,-1.11917,-0.46926
-0.11493,0.89924,0.42208,-0.53364,-0.14753,0.38111
-0.13521,0.90156,0.41097,-0.76249,0.7618,0.54875
-0.17497,0.89426,0.41193,-0.4208,0.46776,0.07879
-0.21426,0.89292,0.39596,2.10002,0.72239,-1.40712
-0.22998,0.86952,0.43707,-0.74527,2.94923,0.66424
-0.27178,0.88194,0.38512,0.14936,-0.14113,-2.28966
-0.27646,0.92612,0.25664,1.32469,-1.50768,-2.14682
-0.20239,0.96116,0.1876,0.65681,0.94251,-0.58601
-0.10737,0.98668,0.12218,0.12894,2.27832,-0.6709
-0.0287,0.99773,0.06093,-0.55344,2.64277,-0.38491
0.01638,0.99934,-0.03251,-0.42397,1.72604,1.01139
0.04492,0.99203,-0.11775,-0.15903,1.50633,0.71622
0.07043,0.98203,-0.17508,-0.20271,1.03416,1.18164
0.1056,0.9728,-0.20618,-0.24812,-0.55082,0.45119
0.14335,0.96364,-0.2255,-0.36915,-0.98073,0.40848
0.17764,0.95382,-0.24221,-0.55018,-1.1687,0.37934
0.20213,0.94945,-0.24019,-0.98163,-0.70059,0.80097
0.20196,0.94981,-0.23891,-0.98145,-0.70095,0.79969
0.18608,0.95503,-0.23084,-0.66963,-0.48137,0.25431
0.16403,0.96726,-0.19363,-0.46339,-0.90727,0.89232
0.14754,0.97963,-0.13624,-0.08861,-1.14418,1.05726
0.12831,0.98867,-0.07792,0.00411,-1.06501,-0.04892
0.09932,0.99505,-0.00244,-0.46538,-0.76621,-0.22235
0.04731,0.99513,0.08648,-0.44622,-0.3068,-0.62969
-0.00924,0.98533,0.17038,-0.37301,1.40821,0.60064
-0.04082,0.96811,0.24718,0.2718,3.36461,0.35766
-0.07267,0.93622,0.34382,0.81678,3.40245,0.36666
-0.15887,0.88948,0.42847,0.862,2.30239,0.64781
-0.23347,0.84142,0.48735,-0.50704,1.56831,-0.43388
-0.25588,0.77764,0.57428,-0.59069,1.3561,-0.86641
-0.21774,0.7232,0.65541,-0.64748,0.70824,-0.98138
-0.16366,0.68639,0.70857,0.75953,-1.19935,-0.95378
-0.11271,0.67787,0.72649,0.72837,-1.22326,-0.9267
-0.08235,0.6896,0.71949,0.54574,-1.26562,-0.95161
-0.0777,0.71453,0.69527,0.70016,-0.91723,-1.32895
-0.08271,0.74391,0.66313,0.89718,-1.42201,-1.42568
-0.09585,0.7816,0.61637,0.75495,-1.56035,-1.06115
-0.11171,0.82889,0.54814,0.14234,-1.22702,-0.74566
-0.10993,0.87906,0.46385,-0.2502,-0.9609,-0.38456
-0.0979,0.91785,0.38465,-0.64052,-0.32076,-0.16207
-0.10986,0.92474,0.36441,-0.69246,0.93189,0.93421
-0.13641,0.91864,0.37079,0.03336,1.01463,0.37608
-0.2083,0.9035,0.37456,0.84643,3.13802,-1.26555
-0.23613,0.88373,0.40405,0.27427,0.37567,-1.84822
-0.26668,0.89088,0.36771,1.15293,-1.80918,-0.85619
-0.28679,0.93338,0.21577,1.49005,-1.89406,-3.14801
-0.20898,0.96396,0.16461,1.03605,-0.09373,-1.97015
-0.1006,0.98762,0.12038,-0.43215,3.20739,-0.96146
-0.02782,0.99731,0.06777,-0.8976,2.25333,0.39416
0.01406,0.99965,-0.02257,-0.13195,1.4706,0.67882
0.04042,0.99405,-0.10114,-0.0307,1.61261,0.47314
0.06309,0.98521,-0.15931,-0.22792,1.22745,1.32099
0.09377,0.97726,-0.19017,-0.15574,0.08583,0.60468
0.12984,0.96857,-0.21217,-0.2162,-0.54743,0.56638
0.16323,0.96111,-0.22274,-0.44927,-1.4103,0.36926
0.18538,0.95873,-0.21559,-0.8582,-0.95456,0.67488
0.18538,0.95973,-0.21108,-1.11665,-0.73617,0.58125
0.16703,0.9652,-0.20121,-0.68071,-0.59659,0.36408
0.14464,0.9771,-0.15603,0.06988,-1.09873,0.98321
0.12826,0.98739,-0.09283,0.33852,-1.23934,0.27729
0.10737,0.9937,-0.03221,0.36123,-1.2198,-0.12551
0.07557,0.99606,0.04638,-0.41868,-0.43793,-0.29774
0.02395,0.99035,0.13649,-0.36706,-0.43222,-0.38784
-0.03149,0.97241,0.23112,-0.46479,1.15315,0.19179
-0.07932,0.95246,0.29414,-0.06637,3.90255,0.84563
-0.12014,0.91881,0.37598,0.56752,4.29791,0.26195
-0.19961,0.86679,0.45697,0.27587,1.68464,0.19828
-0.25608,0.81899,0.5135,-0.03236,0.76205,0.00324
-0.2643,0.76709,0.58457,-0.36635,1.0054,-0.68772
-0.2283,0.71872,0.65675,-0.40531,0.09961,-0.65991
-0.17113,0.6881,0.70515,0.42851,-1.08611,-0.8467
-0.11837,0.68235,0.72138,0.73165,-1.06177,-1.23554
-0.09712,0.70062,0.70689,0.40245,-1.03259,-1.00012
-0.1018,0.73239,0.67323,0.58433,-0.94362,-1.12208
-0.1134,0.77037,0.62743,1.04451,-1.4121,-1.2374
-0.12636,0.81544,0.56487,0.85402,-1.51674,-1.00062
-0.13421,0.86343,0.48629,0.45342,-1.36616,-0.71806
-0.12525,0.90502,0.4065,0.12037,-1.03799,-0.50221
-0.12212,0.92703,0.35455,-0.35275,-0.39443,-0.15785
-0.14309,0.92967,0.33946,-0.36351,0.63617,0.50158
-0.17747,0.92692,0.33062,-0.16828,0.40955,0.34749
-0.22901,0.91965,0.31906,0.94367,2.81162,-1.1614
-0.25318,0.90679,0.33709,0.01361,0.80499,-2.45728
-0.27625,0.90483,0.32398,1.65797,-2.20671,1.62998
-0.2938,0.93405,0.20303,1.74005,-1.8189,-1.35745
-0.2141,0.965,0.15146,0.74398,1.13934,-1.34573
-0.09706,0.98853,0.11568,-0.90822,3.56941,-0.50449
-0.02849,0.99789,0.05835,-1.19215,2.63738,0.25084
0.0142,0.99945,-0.02995,-0.36048,1.33136,0.54765
0.05038,0.99263,-0.11023,-0.07187,1.20519,0.46085
0.07756,0.98231,-0.17044,-0.28113,1.33709,1.16386
0.10977,0.97241,-0.20585,-0.29289,-0.11039,0.88073
0.14357,0.9644,-0.2221,-0.36073,-0.63183,0.88299
0.17089,0.95916,-0.22541,-0.78797,-1.18729,0.51186
0.18618,0.95794,-0.21837,-1.08539,-1.00451,0.70373
0.17944,0.9598,-0.21584,-0.70554,-0.57851,-0.04145
0.16049,0.96651,-0.20026,-0.62965,-0.70389,0.67647
0.13419,0.97937,-0.15108,-0.25951,-0.97974,0.98475
0.11366,0.98938,-0.09055,0.32566,-1.1765,0.0808
0.08814,0.99586,-0.0221,0.22422,-1.02098,-0.07728
0.04707,0.99664,0.06696,-0.22049,-0.32742,-0.48989
-0.01338,0.98483,0.17303,-0.20294,0.17087,-0.67277
-0.07666,0.96387,0.2551,-0.34562,2.16992,1.04641
-0.12156,0.93476,0.33382,0.70776,4.27207,0.23151
-0.18656,0.88545,0.42565,0.77276,4.32139,0.13969
-0.27346,0.83097,0.48446,-0.07757,1.23693,0.25583
-0.31966,0.77268,0.54844,-0.91489,0.91817,-0.48371
-0.30145,0.72111,0.6238,-0.8024,0.34843,-0.65078
-0.25625,0.68638,0.6806,0.36139,-0.86634,-0.81532
-0.20797,0.67857,0.70448,0.67918,-0.90026,-1.18345
-0.16456,0.68841,0.70641,0.63577,-0.9101,-1.18538
-0.1478,0.71028,0.68823,0.52147,-0.91859,-1.11714
-0.15047,0.74101,0.65442,0.90175,-1.35215,-1.26311
-0.15845,0.7791,0.60655,1.06073,-1.50601,-1.1528
-0.16752,0.82387,0.54146,0.48915,-1.29602,-0.84237
-0.17051,0.86893,0.46463,0.05582,-0.94887,-0.49086
-0.16071,0.90887,0.38487,-0.11718,-0.82354,-0.34062
-0.15881,0.92951,0.33285,-0.49385,-0.09502,-0.18541
-0.17835,0.92766,0.32807,-0.61979,0.99523,0.97154
-0.21952,0.92789,0.30139,-0.06007,0.19102,0.00685
-0.25459,0.92413,0.28489,0.95546,0.16548,-1.56398
-0.27562,0.90064,0.33597,-0.26788,0.50379,-1.98876
-0.30018,0.90815,0.29182,1.47711,-2.09641,1.32204
-0.29484,0.94171,0.16202,1.50923,-1.4969,-1.69144
-0.2019,0.97267,0.11465,0.24777,1.76238,-1.14895
-0.09047,0.99332,0.0716,-0.69948,3.35494,-0.73356
-0.02728,0.99954,0.01319,-1.06139,2.09436,0.70466
0.00788,0.99677,-0.07999,-0.20019,1.09116,0.45369
0.04086,0.98698,-0.15555,0.00791,1.22292,0.49993
0.06579,0.97559,-0.20951,-0.1314,1.00346,1.0702
0.09892,0.96655,-0.23662,-0.00393,-0.41463,0.79622
0.1375,0.95716,-0.25483,0.12591,-1.02818,0.71974
0.16779,0.95145,-0.25805,-0.59467,-1.13419,0.22624
0.1803,0.9496,-0.25644,-1.13123,-0.72915,0.73272
0.16714,0.95344,-0.25103,-0.88404,-0.42701,0.63868
0.14394,0.96161,-0.23364,-0.54811,-0.78769,0.45549
0.12176,0.97654,-0.17763,-0.12588,-0.99022,1.18906
0.10805,0.98764,-0.11359,0.23567,-1.15173,0.58661
0.08765,0.9951,-0.04574,-0.2208,-0.84657,-0.08911
0.04805,0.99794,0.04254,-0.48944,-0.07728,-0.71658
-0.00697,0.99002,0.14076,-0.57781,0.92381,-0.00525
-0.05509,0.97612,0.21014,-0.30983,3.27298,0.74056
-0.05605,0.95002,0.30712,0.68671,3.89983,-0.02663
-0.07315,0.90553,0.41792,0.95475,2.69455,-0.18753
-0.15015,0.86768,0.47391,0.5018,1.30441,0.57721
-0.21261,0.82854,0.51799,-0.47359,1.35661,-0.58609
-0.21708,0.78312,0.58275,-0.7295,0.88431,-0.86269
-0.18264,0.75118,0.63433,-0.0911,-0.88849,-0.74249
-0.13907,0.73723,0.66118,0.84581,-1.58754,-1.11868
-0.10112,0.74597,0.65826,0.71503,-1.49765,-1.11269
-0.08748,0.7703,0.63165,0.2374,-1.14748,-1.01371
-0.10012,0.80164,0.58936,1.0225,-1.77093,-1.1561
-0.11861,0.83918,0.53076,1.02869,-1.92614,-1.01395
-0.12825,0.88383,0.44988,0.48824,-1.38325,-0.80728
-0.11669,0.92143,0.37061,0.17,-0.78041,-0.37395
-0.10454,0.93727,0.33256,-0.27327,-0.15422,-0.06947
-0.12842,0.93334,0.33524,-1.00183,1.36526,1.31313
-0.1568,0.92857,0.33641,0.19182,-0.43635,0.06952
-0.20076,0.92625,0.31897,0.85697,-0.2552,-0.1823
-0.23401,0.90665,0.35103,1.68993,1.16043,-2.44869
-0.27057,0.90463,0.3293,0.9259,-1.81763,0.78438
-0.2986,0.92275,0.24366,1.39816,-2.10792,1.01743
-0.24798,0.95757,0.14684,1.60632,-1.91372,-1.49074
-0.13772,0.98593,0.09473,-0.69785,3.04012,-0.78666
-0.0598,0.99756,0.03589,-1.22876,2.78544,-0.17093
-0.00511,0.99921,-0.03946,-1.13669,2.01662,0.67508
0.0242,0.99227,-0.12173,-0.11269,1.19818,0.38844
0.04129,0.98264,-0.18086,-0.06686,1.0668,0.82562
0.0652,0.97337,-0.21976,-0.0582,0.14908,1.01206
0.09803,0.96536,-0.2418,0.22861,-0.91894,0.412
0.13147,0.95673,-0.25959,0.18341,-1.2981,0.23174
0.15593,0.95302,-0.2597,-0.92132,-0.89185,0.83065
0.15224,0.95413,-0.2578,-1.11074,-0.55854,0.52234
0.12575,0.96179,-0.24321,-0.77147,-0.63308,0.25841
0.09718,0.97562,-0.19677,0.07036,-1.03345,1.01577
0.0758,0.98839,-0.1317,0.21701,-1.0957,0.31714
0.05101,0.99644,-0.06711,0.13828,-0.88861,-0.07962
0.01755,0.9997,0.01705,-0.35087,-0.27468,-0.16811
-0.02778,0.99308,0.11406,-0.42182,0.5779,-0.45038
-0.06844,0.97706,0.20164,-0.47598,1.23398,-0.0325
-0.07925,0.95397,0.28925,0.74762,5.20617,0.37291
-0.08881,0.91064,0.40354,0.9737,1.91747,-0.03292
-0.14476,0.85778,0.49321,1.16736,1.50246,0.21554
-0.19836,0.81244,0.54826,-0.24377,1.28432,-0.48277
-0.20451,0.76748,0.60757,-0.69951,0.90128,-0.80678
-0.16112,0.73152,0.6625,-0.87984,0.10212,-0.80299
-0.10935,0.7103,0.69535,0.59904,-1.41729,-1.04143
-0.06774,0.71692,0.69386,0.5374,-1.48051,-1.10173
-0.05479,0.74609,0.66359,0.25035,-1.36511,-1.10272
-0.07401,0.78507,0.61496,0.57838,-1.55824,-1.08628
-0.10385,0.82943,0.54888,0.51599,-1.57325,-1.1534
-0.12291,0.8747,0.46883,0.54204,-1.49591,-1.01505
-0.12046,0.91081,0.39485,0.33799,-1.03389,-0.49176
-0.12075,0.9274,0.35403,-0.22033,-0.04819,0.21326
-0.14727,0.92899,0.33954,-0.64328,0.80575,0.93238
-0.18027,0.92932,0.32228,0.12681,0.12591,0.32798
-0.21426,0.93149,0.29396,0.41686,-0.97025,-0.73941
-0.2214,0.9309,0.29054,2.11136,0.25078,-1.75338
-0.25805,0.92195,0.28884,-1.81798,3.33524,0.44974
-0.29265,0.9209,0.25747,0.1926,-0.95942,1.19642
-0.29072,0.94722,0.1351,1.25739,-1.20177,-0.57013
-0.20186,0.97619,0.0794,1.2583,-0.10688,-0.97971
-0.08525,0.99589,0.03065,0.05841,2.05193,-0.63841
-0.00663,0.99939,-0.03443,-0.913,3.57169,0.11387
0.03228,0.99225,-0.11996,-0.96291,2.29046,0.47644
0.06071,0.98068,-0.18597,-0.02211,1.17881,1.19924
0.09078,0.96845,-0.23207,-0.0653,1.07461,1.34788
0.12452,0.95865,-0.25592,-0.23512,0.63979,0.99039
0.15669,0.94949,-0.27189,-0.36733,-1.23867,0.55948
0.18526,0.94511,-0.26916,-0.71946,-1.2142,0.6102
0.19228,0.94607,-0.26071,-1.17087,-0.53064,0.47899
0.17346,0.95172,-0.25325,-0.95739,-0.487,0.10463
0.14562,0.96468,-0.21952,-0.6894,-0.71994,0.74843
0.12146,0.97984,-0.1586,0.07567,-1.10751,0.51276
0.10304,0.99,-0.09631,0.21916,-0.97879,0.00622
0.07879,0.99668,-0.02065,-0.07038,-0.79724,-0.1429
0.03638,0.99659,0.0741,-0.40537,0.38662,-0.52432
-0.01617,0.98588,0.16666,-0.49576,1.68116,0.57298
-0.05392,0.96906,0.24085,0.48462,4.40685,0.59935
-0.06248,0.93569,0.34725,1.12812,1.76664,0.15818
-0.10964,0.88348,0.45546,1.12891,1.31972,0.32824
-0.17805,0.83694,0.51753,0.58528,1.06618,0.39648
-0.21529,0.79129,0.57228,-0.51719,1.17358,-0.62071
-0.18908,0.74919,0.6348,-0.60987,0.04577,-0.78609
-0.14332,0.71936,0.67969,-0.16894,-0.683,-0.79196
-0.09566,0.71159,0.69605,0.59374,-1.50037,-1.06667
-0.06662,0.72745,0.68292,0.14252,-1.29295,-1.20396
-0.06738,0.75939,0.64714,0.21698,-1.24985,-1.09928
-0.08913,0.79697,0.5974,0.73761,-1.68859,-1.0678
-0.11202,0.84298,0.52615,0.6164,-1.68907,-1.10177
-0.11757,0.88894,0.44268,0.57037,-1.45319,-0.87136
-0.11015,0.92056,0.37473,0.07892,-0.6337,-0.23107
-0.12881,0.92656,0.3534,-0.68492,1.0229,1.16112
-0.16044,0.92357,0.34826,-0.54029,1.31102,1.54085
-0.19018,0.92379,0.33233,0.12755,-0.69578,-0.24042
-0.21957,0.93348,0.28356,2.29556,2.07949,-1.11397
-0.24364,0.91394,0.32458,2.31963,2.09903,-1.155
-0.27705,0.91024,0.30774,0.14668,-0.82638,-1.86962
-0.29842,0.93196,0.20587,1.11273,-2.01438,0.47607
-0.25183,0.96183,0.10704,1.18998,-1.72906,-1.17146
-0.12924,0.98982,0.05967,-0.06737,1.65887,-1.73935
-0.04746,0.99887,-0.00053,-0.9846,4.74801,-0.30814
-0.02886,0.99577,-0.08723,-1.30592,3.44165,0.58876
-0.0151,0.98707,-0.15955,0.09835,0.86057,0.76368
0.00053,0.97757,-0.21062,0.64989,0.62899,1.10314
0.04064,0.96877,-0.24461,0.69976,0.32084,1.45208
0.09107,0.96037,-0.26343,0.30494,-0.78204,0.11533
0.13265,0.95253,-0.27403,-0.56875,-0.94238,0.47186
0.15424,0.94839,-0.27706,-1.2941,-0.6308,0.85355
0.1458,0.95469,-0.25946,-1.2337,-0.67597,0.5224
0.12169,0.9664,-0.22639,-0.64512,-0.84488,0.37114
0.09841,0.98163,-0.16345,-0.44572,-1.04605,1.05115
0.08073,0.99258,-0.0909,-0.00403,-1.06734,0.46923
0.05133,0.99859,-0.01378,-0.22027,-0.25011,-0.52399
0.00793,0.99641,0.08429,-0.16473,0.16222,-0.41301
-0.04114,0.98377,0.17463,-0.04335,2.14968,0.53625
-0.05735,0.96417,0.25901,0.35169,3.78629,0.56999
-0.07735,0.92467,0.37283,0.88358,3.56898,0.29837
-0.14583,0.872,0.46728,0.38538,1.3433,0.30892
-0.20736,0.8206,0.53256,-0.10403,1.29775,-0.01166
-0.21647,0.7661,0.60517,-0.58248,1.0792,-0.54592
-0.17829,0.72353,0.66687,-0.3703,-0.88062,-0.55073
-0.13425,0.70058,0.70083,0.5846,-1.39414,-0.83187
-0.08769,0.70251,0.70625,0.64748,-1.32228,-1.07588
-0.05717,0.72095,0.69062,0.2124,-0.90171,-1.19361
-0.05182,0.74874,0.66084,0.55028,-1.13678,-1.3349
-0.05973,0.78051,0.62228,0.88148,-1.63336,-1.20918
-0.07969,0.82242,0.56327,0.43526,-1.66975,-1.00131
-0.09506,0.87153,0.48104,0.11581,-1.22518,-0.68975
-0.0941,0.9143,0.39396,0.01966,-1.11838,-0.48507
-0.10429,0.93623,0.33555,-0.65418,0.28886,0.4958
-0.12893,0.93533,0.32945,-0.72154,1.08521,1.20027
-0.15072,0.93224,0.32894,0.25156,0.80633,0.14902
-0.1886,0.93227,0.30871,1.87237,2.44746,-0.68168
-0.21354,0.91185,0.35061,-0.38051,4.21272,1.77209
-0.26151,0.91501,0.3072,0.33025,-1.5201,-1.28476
-0.2882,0.93602,0.20203,1.40792,-1.72732,-0.6196
-0.22958,0.96521,0.12514,1.15649,-0.30458,-1.02181
-0.10546,0.99177,0.07261,0.3069,1.01113,-0.9107
-0.01943,0.99979,0.00621,-1.33256,3.92096,-0.37972
0.00874,0.9968,-0.07951,-0.837,2.01599,1.08373
0.02013,0.98726,-0.15784,0.03772,1.13039,0.739
0.02805,0.97695,-0.21163,0.41821,0.65049,1.30152
0.05607,0.96785,-0.24521,0.46265,0.02588,1.1918
0.09583,0.95866,-0.26792,0.4382,-0.92035,0.38712
0.13333,0.95219,-0.27489,-0.4374,-1.08814,0.59294
0.15631,0.94976,-0.27113,-1.19145,-0.67886,1.02773
0.14904,0.95498,-0.2565,-1.18159,-0.69188,0.26078
0.12468,0.96517,-0.23001,-0.65139,-0.86985,0.3114
0.10312,0.97936,-0.17385,-0.32866,-1.03644,1.2058
0.0859,0.98991,-0.11267,-0.06395,-1.04918,0.67422
0.06362,0.99716,-0.04024,-0.19513,-0.83891,-0.29788
0.0299,0.99834,0.04929,-0.28461,0.38303,-0.50734
-0.01056,0.98933,0.14532,-0.32759,0.98106,0.01839
-0.03893,0.97609,0.21384,-0.20959,1.99431,0.77853
-0.05705,0.94818,0.31256,0.69985,2.2795,-0.01175
-0.11358,0.89678,0.42764,0.95814,1.60343,0.48519
-0.1762,0.8509,0.49489,0.43681,1.41887,0.44856
-0.19181,0.80241,0.56511,-0.47576,0.96993,-0.84148
-0.17025,0.75654,0.63139,-0.70551,0.33164,-0.59486
-0.129,0.72437,0.67724,0.59006,-1.23276,-0.62676
-0.08539,0.71979,0.68892,0.53292,-1.43863,-1.03476
-0.05353,0.73771,0.67299,0.21944,-1.29035,-1.08522
-0.04614,0.76723,0.6397,0.32965,-1.27737,-1.28573
-0.05766,0.79841,0.59934,0.7045,-1.79811,-1.20534
-0.07778,0.83914,0.53832,0.58744,-1.88468,-1.16021
-0.08299,0.88262,0.4627,0.37216,-1.04548,-0.66195
-0.07949,0.91818,0.38811,-0.068,-0.41647,0.06919
-0.10919,0.92937,0.35263,-0.46408,0.3155,0.59359
-0.14363,0.92629,0.34836,0.0136,0.66615,0.49715
-0.16935,0.92115,0.35044,0.10226,-0.06563,-0.00701
-0.20226,0.92179,0.33074,0.83333,-0.42832,-1.69927
-0.23656,0.89621,0.3753,0.13618,-0.64491,-2.13326
-0.27159,0.89735,0.34785,1.01802,-1.89265,1.02465
-0.29487,0.92948,0.22162,1.24163,-2.04998,0.72664
-0.22537,0.96357,0.14399,0.833,0.57483,-0.85146
-0.1049,0.99171,0.07421,-0.39976,2.80611,-0.86994
-0.02867,0.99949,0.01371,-0.70855,3.41167,-0.93508
0.00725,0.99785,-0.06515,-0.64058,1.76648,1.15188
0.02799,0.98938,-0.14264,-0.0819,1.03389,0.76413
0.0501,0.97911,-0.19704,0.08666,0.75683,1.22
0.08028,0.97,-0.22945,-0.03339,0.10287,0.86718
0.11421,0.96033,-0.25441,-0.04504,-1.00041,0.39332
0.14844,0.95307,-0.26385,-0.25676,-1.22071,0.44708
0.1685,0.95051,-0.26101,-1.14564,-0.81206,0.94888
0.15898,0.95587,-0.24704,-1.04688,-0.66524,0.35796
0.13689,0.96637,-0.21767,-0.69047,-0.76684,0.17818
0.11365,0.98076,-0.15874,-0.16237,-0.90979,1.13716
0.09245,0.9912,-0.09477,0.03279,-1.08858,0.0267
0.06506,0.99762,-0.02267,-0.03206,-0.90161,-0.25698
0.03086,0.99722,0.06779,-0.22654,-0.22641,-0.14842
-0.01302,0.98609,0.16567,-0.28888,1.31409,0.3376
-0.05963,0.9659,0.25196,-0.05891,2.33847,0.83169
-0.09632,0.93533,0.3404,0.69743,4.86841,0.46888
-0.15537,0.88274,0.44342,0.57571,1.80039,0.308
-0.2274,0.82531,0.51686,0.64774,1.85783,0.23456
-0.24719,0.76563,0.59389,-0.57778,1.27632,-0.68996
-0.21162,0.71202,0.6695,-0.69992,-0.97772,-0.61837
-0.15514,0.67626,0.72014,0.0949,-1.41167,-0.54843
-0.09751,0.67181,0.73428,0.54684,-1.48144,-0.74656
-0.0563,0.68716,0.72431,0.10808,-0.68212,-1.17257
-0.05188,0.71622,0.69593,0.53261,-0.99366,-1.19459
-0.07573,0.75313,0.65349,0.84616,-1.34155,-1.17545
-0.10683,0.79905,0.59169,0.80728,-1.81447,-1.08595
-0.13089,0.85272,0.5057,0.51023,-1.61646,-0.95975
-0.13349,0.90019,0.41452,0.07895,-0.91902,-0.656
-0.1331,0.92868,0.34617,-0.52768,0.17207,0.08228
-0.1573,0.927,0.34047,-0.78456,1.03697,1.2404
-0.18548,0.92364,0.33538,0.17498,0.2092,0.15906
-0.22662,0.92879,0.29325,1.85904,0.80741,-2.36522
-0.23428,0.90743,0.34884,1.70557,4.11325,-0.86271
-0.27009,0.90953,0.31591,0.88052,-1.96823,0.52789
-0.28432,0.93743,0.20093,1.4198,-2.05288,-1.5744
-0.21826,0.96962,0.11038,1.14282,-1.2742,-1.70517
-0.08205,0.99537,0.05007,-0.86605,4.30937,-0.9652
-0.00555,0.99988,-0.01427,-1.32525,3.60686,0.48267
0.02057,0.99359,-0.11109,-1.01205,2.15217,1.39912
0.04193,0.98084,-0.19023,0.22891,0.991,0.67925
0.06475,0.96787,-0.24297,0.15761,0.62214,1.78328
0.10502,0.95602,-0.27384,0.00673,0.3223,1.27956
0.14074,0.9451,-0.2949,0.00748,-1.26711,0.34896
0.17415,0.93968,-0.2944,-0.873,-0.94169,0.89293
0.18725,0.94166,-0.27965,-1.1515,-0.81366,0.78263
0.16711,0.94866,-0.26853,-0.82353,-0.52174,0.1821
0.14226,0.96048,-0.23924,-0.44603,-0.84476,0.84492
0.1244,0.97626,-0.17729,0.06855,-1.16717,1.12858
0.10832,0.98665,-0.12159,0.09427,-0.98572,-0.29169
0.08665,0.99482,-0.05309,-0.28195,-0.87164,0.07046
0.05144,0.99809,0.03423,-0.38311,-0.57154,0.0661
0.00867,0.99148,0.12995,-0.46088,0.74407,-0.35878
-0.03008,0.9777,0.20781,0.25784,4.38407,0.75915
-0.04999,0.9536,0.29689,0.27776,4.40817,0.67008
-0.09044,0.9116,0.40098,0.88967,2.10033,0.33193
-0.16766,0.86483,0.47323,-0.04294,1.19134,-0.19226
-0.21082,0.81556,0.53889,0.00022,1.2406,-0.25791
-0.20824,0.76389,0.61082,-0.50176,-0.31305,-0.65507
-0.17538,0.72634,0.66458,0.55564,-1.30712,-0.73205
-0.12892,0.71467,0.68747,0.74437,-1.39559,-0.95891
-0.0872,0.72474,0.68348,0.15771,-1.03794,-1.16517
-0.07011,0.74837,0.65956,0.46777,-1.18393,-1.31817
-0.07612,0.78018,0.6209,0.81665,-1.42713,-1.30405
-0.09523,0.8231,0.55984,0.96719,-1.93637,-1.03685
-0.11138,0.87773,0.46601,0.4004,-1.31885,-0.78683
-0.10381,0.92433,0.3672,0.25023,-1.06129,-0.55066
-0.10696,0.94604,0.30587,-1.01096,0.91961,0.5154
-0.13879,0.9466,0.29097,-1.14019,1.66903,1.34196
-0.18375,0.94162,0.28209,-0.21769,0.54747,0.61951
-0.23407,0.93761,0.25709,2.20292,1.58604,-2.19764
-0.21963,0.92354,0.31438,1.90536,4.28407,-0.18471
-0.26652,0.92565,0.26857,-0.15417,-1.45419,-1.15736
-0.29558,0.93864,0.17772,1.85384,-1.59293,-1.17262
-0.22769,0.96828,0.10289,1.23883,0.6979,-0.88856
-0.09421,0.99497,0.03403,0.34712,1.68823,-0.98004
-0.01779,0.99972,-0.01547,-1.29349,3.30367,-0.04635
0.0247,0.99515,-0.0952,-0.75934,1.50888,0.83963
0.0474,0.98342,-0.17503,-0.43034,1.4752,0.67637
0.06743,0.9692,-0.23685,-0.09227,0.83828,1.60663
0.09964,0.95691,-0.27274,-0.12318,0.60296,1.54482
0.12833,0.94715,-0.29399,-0.10458,-0.41048,0.42404
0.15879,0.94048,-0.30047,-0.5823,-1.05317,0.77148
0.18064,0.94036,-0.28826,-0.86538,-0.86869,0.89983
0.1752,0.94524,-0.27535,-1.01635,-0.61219,0.62056
0.15385,0.95596,-0.24992,-0.63212,-0.59535,0.50659
0.12998,0.97198,-0.19584,-0.30748,-1.03454,1.18327
0.1107,0.98433,-0.13725,0.10811,-1.16,0.07397
0.08702,0.99372,-0.07035,-0.20517,-0.87795,-0.05812
0.05147,0.99855,0.01565,-0.33202,-0.14419,-0.39521
0.00455,0.99321,0.11619,-0.26801,0.35234,-0.53973
-0.03702,0.98125,0.18915,-0.18272,2.87186,0.40458
-0.0548,0.96017,0.27398,0.33486,4.652,0.34049
-0.09083,0.91918,0.38321,0.69924,2.78713,0.01427
-0.16636,0.87744,0.4499,0.60444,1.50561,0.68302
-0.22065,0.83964,0.49629,-0.2654,1.25479,-0.40715
-0.22319,0.7956,0.56321,-0.38998,0.75338,-0.72476
-0.18209,0.76121,0.62241,-0.07206,-0.98323,-0.83344
-0.12477,0.74344,0.65705,0.47951,-1.39704,-0.96513
-0.06764,0.74512,0.66349,0.23817,-1.28859,-1.11129
-0.03731,0.76388,0.64427,0.14381,-1.16032,-1.0462
-0.03883,0.79408,0.60656,0.62689,-1.56197,-1.09223
-0.05287,0.83324,0.55037,0.80123,-1.82111,-1.01773
-0.06255,0.87937,0.472,0.33322,-1.18136,-0.84497
-0.06055,0.92016,0.38682,-0.0285,-0.71397,-0.19424
-0.07434,0.9412,0.32957,-0.01471,-0.73501,-0.13699
-0.11117,0.93983,0.32304,0.09194,1.11013,0.6479
-0.14545,0.93541,0.32224,0.29478,0.35739,0.08632
-0.18745,0.93799,0.2916,0.24307,-1.32447,-1.09311
-0.20226,0.92984,0.30739,2.19606,-0.13906,-1.39458
-0.24036,0.92248,0.30207,-0.23373,0.11055,-3.03906
-0.25544,0.93662,0.23977,-0.21865,0.09642,-2.97677
-0.22709,0.96751,0.11109,1.27284,-1.20283,-1.29636
-0.12287,0.9911,0.0512,0.0935,1.41811,-1.57491
-0.01694,0.99985,0.00271,-0.01243,1.40936,-1.52642
0.03357,0.99724,-0.06619,-1.2684,3.63992,0.43211
0.0538,0.98578,-0.15919,-0.13003,1.03236,0.78231
0.07442,0.97308,-0.21811,0.15268,0.91024,1.00486
0.10448,0.96014,-0.25924,-0.0867,0.18019,1.02627
0.14643,0.94788,-0.283,-0.00927,-0.98538,0.38252
0.18738,0.93553,-0.29945,-0.38721,-1.37718,0.40282
0.22041,0.92785,-0.30086,-1.36228,-0.50808,0.73035
0.22164,0.92794,-0.29967,-1.12434,-0.42504,0.59413
0.20542,0.93551,-0.28742,-0.80223,-0.53696,0.43674
0.18266,0.95115,-0.2489,-0.08331,-1.015,1.17976
0.16743,0.96785,-0.18767,0.11635,-1.15126,0.5129
0.14605,0.98073,-0.12973,0.0729,-1.07729,-0.02581
0.11524,0.99205,-0.05054,-0.39864,-0.4212,-0.13096
0.0735,0.99631,0.04424,-0.46287,0.4304,-0.43662
0.02411,0.99093,0.13219,-0.46824,1.06141,0.01065
-0.01113,0.97609,0.21706,0.55532,4.5921,0.53276
-0.04125,0.94464,0.32549,0.72288,2.79878,0.38673
-0.11099,0.89688,0.42811,0.87282,2.18927,0.28622
-0.17678,0.85134,0.49392,-0.1402,1.26437,-0.32815
-0.19535,0.79843,0.5695,-0.46412,1.07812,-0.58824
-0.17401,0.75085,0.63713,-0.59572,0.40095,-0.51598
-0.12784,0.7221,0.67987,0.40001,-1.48193,-0.64059
-0.07828,0.71945,0.69011,0.08793,-1.04541,-1.26703
-0.03718,0.73182,0.68048,0.04683,-1.05778,-1.2574
-0.02028,0.75269,0.65805,0.44391,-0.90798,-1.46434
-0.02751,0.77886,0.62659,1.04743,-1.56005,-1.37499
-0.0543,0.82056,0.56897,1.08468,-1.85787,-1.083
-0.07601,0.87451,0.479,0.24536,-1.24255,-0.73245
-0.07639,0.92072,0.38267,0.1399,-1.07172,-0.56959
-0.08976,0.94111,0.32595,-0.59561,0.17458,0.21458
-0.12198,0.93554,0.33148,-0.50431,1.44453,1.36753
-0.13428,0.93013,0.34179,0.23273,0.21643,-0.05903
-0.17096,0.93505,0.31055,0.83037,-0.81182,-1.27467
-0.20528,0.91255,0.35372,1.37627,5.25033,0.63089
-0.24726,0.90938,0.33449,-0.44027,-0.31563,-3.61788
-0.28811,0.92231,0.25754,1.57096,-3.02639,2.25447
-0.28443,0.94907,0.13547,1.53946,-2.23701,-1.4381
-0.15951,0.9841,0.07814,0.121,0.87203,-1.25839
-0.02465,0.99969,0.00292,-0.96763,4.45701,-1.34791
-0.00459,0.99769,-0.06769,-1.8057,3.98397,1.55811
0.00899,0.9881,-0.15352,-0.03544,0.77589,1.00573
0.02357,0.97599,-0.21654,0.28714,0.61981,1.13792
0.05841,0.9654,-0.25415,0.59933,0.09988,1.1005
0.10529,0.95488,-0.2777,0.48196,-1.37857,0.26701
0.14362,0.94646,-0.28912,-0.32092,-1.23479,0.54319
0.16353,0.94398,-0.28664,-1.22688,-0.75776,0.92495
0.1501,0.95116,-0.26976,-0.96785,-0.62848,0.11315
0.1209,0.96413,-0.2363,-0.78417,-0.74562,0.33391
0.09677,0.97991,-0.17439,0.20122,-1.13711,0.73963
0.07436,0.9918,-0.10389,-0.0516,-0.99775,0.0713
0.04292,0.99888,-0.01999,-0.19048,-0.83166,0.0556
-0.00013,0.99702,0.07715,-0.37646,0.03704,-0.60597
-0.05146,0.97996,0.19244,-0.50497,1.06832,0.00309
-0.1061,0.95151,0.28872,0.15975,4.42724,1.2126
-0.14303,0.91119,0.38636,0.85469,4.49706,0.24874
-0.19045,0.84699,0.49631,0.87982,2.93191,0.12311
-0.24948,0.7765,0.57862,0.58877,1.207,0.01001
-0.24945,0.71405,0.65414,-0.57901,-0.00206,-0.52134
-0.20489,0.67149,0.71211,-0.07313,-0.68897,-0.4308
-0.15872,0.65887,0.73531,0.43665,-1.35924,-0.26903
-0.1067,0.673,0.7319,0.26374,-1.05255,-0.99421
-0.06882,0.70016,0.71066,-0.01655,-0.99165,-1.15452
-0.06244,0.733,0.67735,0.11548,-1.00917,-1.08958
-0.07378,0.7687,0.63534,0.81457,-1.62174,-1.22341
-0.09523,0.81471,0.57199,0.62384,-1.65991,-1.15114
-0.10905,0.86532,0.48921,0.52198,-1.3368,-0.96006
-0.11278,0.90676,0.40628,0.03492,-0.45124,-0.32565
-0.14737,0.9192,0.36517,-0.44331,1.00637,0.98913
-0.18281,0.91663,0.35549,-0.16727,1.49471,1.19639
-0.20655,0.90961,0.36046,0.19558,-0.47329,-0.16845
-0.25105,0.92024,0.30022,1.93701,0.63245,-1.96525
-0.27808,0.90628,0.31831,1.96403,0.64641,-1.98333
-0.30477,0.90473,0.29762,0.32886,-0.0532,-2.18868
-0.32764,0.92113,0.21016,1.58636,-1.50318,-1.02139
-0.28048,0.95421,0.10399,1.53921,-1.53625,-0.91522
-0.16589,0.98533,0.04013,0.26208,1.06791,-1.23894
-0.04893,0.99823,-0.03381,-1.06693,3.547,-1.04085
0.00909,0.99358,-0.11279,-1.39881,4.13574,-0.10364
0.04212,0.98026,-0.19316,-0.47045,1.36445,0.78038
0.07693,0.96509,-0.25037,0.29435,0.69774,1.56545
0.12156,0.95044,-0.28616,0.17382,0.13292,1.01068
0.16384,0.93708,-0.30827,0.01013,-0.89145,0.50004
0.20185,0.92896,-0.3103,-0.7455,-0.84669,0.65678
0.21542,0.92961,-0.29902,-1.33734,-0.89731,0.73122
0.19733,0.93863,-0.28291,-1.07622,-0.49431,0.46784
0.17652,0.95307,-0.24596,-0.47389,-0.75557,1.39958
0.16106,0.9704,-0.17993,0.08335,-0.95662,1.48022
0.14993,0.98178,-0.1167,0.24889,-1.15621,-0.30177
0.12295,0.9918,-0.03467,-0.37059,-0.96257,0.22658
0.06953,0.996,0.05607,-0.6655,-0.27415,-0.39661
0.00532,0.98756,0.15715,-0.74017,1.02273,-0.06627
-0.0692,0.9703,0.23181,-0.67775,3.97299,1.0013
-0.13052,0.94234,0.30816,-0.12001,5.48467,0.7465
-0.1744,0.89459,0.41145,0.6439,1.1833,0.0088
-0.24483,0.83669,0.4899,0.73411,0.78713,-0.02396
-0.27216,0.78231,0.56028,0.16331,0.8592,-0.47279
-0.24134,0.73842,0.62967,-0.23078,-0.22742,-0.62152
-0.19614,0.70677,0.67971,0.82313,-0.85614,-0.70528
-0.1441,0.70521,0.6942,0.86437,-1.27654,-0.8024
-0.10565,0.72334,0.68235,0.07279,-1.02017,-1.18052
-0.09822,0.75152,0.65236,0.44225,-0.97474,-1.28112
-0.11272,0.78348,0.6111,0.80372,-1.21914,-1.34033
-0.131,0.82435,0.55071,0.96988,-1.59646,-1.11871
-0.14006,0.86933,0.47397,0.50476,-1.02205,-0.72292
-0.13952,0.90759,0.396,0.27995,-0.86309,-0.41555
-0.1557,0.9202,0.35914,-0.82817,0.64264,1.07253
-0.18222,0.91251,0.36622,-0.90948,0.83026,1.22342
-0.23587,0.89888,0.36929,-0.48715,0.78559,0.94308
-0.24133,0.87399,0.42178,0.95954,-1.06239,-1.9828
-0.27609,0.87758,0.39195,1.94923,-2.74785,1.26434
-0.31051,0.91617,0.25339,2.19981,-3.08805,1.2427
-0.25616,0.95388,0.15654,0.62279,1.15147,-1.49492
-0.14999,0.98517,0.08328,-0.86615,3.52632,-1.12617
-0.06125,0.99693,0.04866,-1.32562,3.11539,-0.76482
0.00296,0.99978,-0.02077,-0.66799,1.59095,0.70126
0.02305,0.99386,-0.10825,-0.14362,1.42816,0.63118
0.03801,0.98318,-0.17864,-0.02184,1.25922,0.94721
0.0649,0.97218,-0.22506,0.48074,0.22602,1.08737
0.10732,0.9588,-0.26301,0.28678,-0.7226,0.76304
0.15252,0.94478,-0.29005,-0.14772,-1.41342,0.56722
0.18936,0.93391,-0.30323,-0.97268,-0.61897,0.82277
0.1977,0.93093,-0.30707,-1.53716,-0.47013,0.51284
0.17062,0.93679,-0.30546,-1.07211,-0.56346,0.23826
0.14197,0.9533,-0.26659,-0.56051,-0.80995,1.09997
0.12665,0.9716,-0.19989,0.35495,-1.06608,1.02462
0.10967,0.98565,-0.12829,-0.05869,-0.90586,-0.45103
0.07124,0.99687,-0.0342,-0.43984,-0.27183,-0.63511
0.0118,0.99791,0.06354,-0.61874,0.83164,-0.03235
-0.04594,0.98846,0.14433,-0.30707,2.7235,0.36638
-0.06073,0.96374,0.25984,0.75423,4.24494,0.35237
-0.0878,0.91874,0.38498,1.51485,1.7962,0.29268
-0.16248,0.8646,0.47546,1.38734,1.52052,0.24854
-0.22317,0.80802,0.54525,-0.52767,1.19035,-0.78114
-0.21741,0.75203,0.62224,-0.82153,0.56996,-0.67446
-0.17097,0.71373,0.67924,-0.44852,-0.80757,-0.62024
-0.11987,0.70155,0.70247,0.58648,-1.49467,-1.07026
-0.0782,0.71428,0.69548,0.11624,-1.15559,-1.22563
-0.06318,0.7436,0.66563,0.14053,-1.16203,-1.17536
-0.07593,0.78099,0.6199,0.80834,-1.72873,-1.32907
-0.10085,0.82561,0.55515,0.6546,-1.80253,-1.44698
-0.11375,0.87221,0.47572,0.62462,-1.4865,-1.23204
-0.11414,0.9123,0.39328,0.15093,-0.67105,-0.22305
-0.13916,0.93274,0.33261,-0.33113,0.65669,1.09305
-0.16991,0.93446,0.31291,-0.17123,1.34661,1.47877
-0.17993,0.93225,0.3139,0.62841,0.28383,0.31075
-0.21296,0.91864,0.33277,0.84446,2.07115,-1.02386
-0.25107,0.90189,0.35151,-0.01276,4.38644,-2.14144
-0.28774,0.89569,0.33903,1.77389,-2.46951,0.83568
-0.31624,0.91584,0.24743,2.1364,-2.51501,-0.6007
-0.26078,0.95336,0.15194,2.01661,-1.63467,-2.05736
-0.13995,0.98738,0.07414,-0.86351,3.17081,-1.0097
-0.05003,0.99871,0.00813,-1.50197,2.70827,-0.23102
0.02349,0.99799,-0.05877,-0.94912,1.48151,0.54093
0.04869,0.987,-0.15312,-0.33292,1.81234,0.61343
0.05842,0.97175,-0.22867,-0.05479,1.07841,1.41224
0.07692,0.95872,-0.27374,0.07601,0.60022,1.21104
0.10818,0.94783,-0.29984,0.13006,-0.9318,0.70506
0.14842,0.93967,-0.30819,-0.25524,-1.34263,0.8764
0.1871,0.93806,-0.29161,-1.06442,-0.81764,0.75126
0.18583,0.9423,-0.27846,-1.49735,-0.61209,0.21517
0.15745,0.95448,-0.25333,-0.86743,-0.62533,0.40083
0.12717,0.97255,-0.19484,-0.18549,-0.90093,1.26219
0.10347,0.98603,-0.13048,0.36905,-1.06437,-0.09434
0.07462,0.99582,-0.0526,0.01745,-0.84613,-0.10735
0.03297,0.99835,0.04687,-0.26616,-0.20444,-0.23983
-0.02707,0.98875,0.14706,-0.41186,0.87892,0.23775
-0.09427,0.96908,0.22804,-0.32825,2.31044,0.51543
-0.14367,0.9345,0.32569,0.20815,4.66199,0.50633
-0.19823,0.87688,0.43792,0.55287,2.62098,0.14589
-0.25358,0.81126,0.52682,-0.1225,1.13756,-0.46584
-0.26359,0.7442,0.61374,-0.37188,1.0008,-0.60418
-0.22704,0.69247,0.68478,-0.71855,-0.29241,-0.55529
-0.17113,0.66355,0.72829,0.90917,-1.0259,-0.91736
-0.1205,0.66704,0.73521,0.85854,-1.02939,-0.92428
-0.09243,0.69029,0.71759,0.3248,-1.05165,-1.19886
-0.08787,0.72587,0.68219,0.57678,-1.35842,-1.3804
-0.09606,0.76716,0.63421,0.58496,-1.39972,-1.33242
-0.11107,0.81705,0.56576,0.72685,-1.81602,-1.17162
-0.11808,0.8681,0.48213,0.23922,-0.88923,-0.70506
-0.12155,0.909,0.39868,0.03912,-0.68871,-0.34008
-0.14524,0.92636,0.34748,-0.42046,0.76013,1.25577
-0.16497,0.92974,0.32919,-0.1162,1.1134,0.50724
-0.18342,0.92897,0.3215,-0.14305,-0.08736,-0.32356
-0.22892,0.92617,0.29965,0.95976,1.67165,-2.81293
-0.26447,0.90015,0.34608,0.642,4.45773,-0.826
-0.29422,0.88928,0.35014,0.50337,-0.72535,-2.0947
-0.33228,0.90763,0.25649,2.07491,-1.81901,-1.58412
-0.29691,0.94362,0.14635,1.40877,0.01059,-1.39108
-0.17236,0.98139,0.08468,0.50153,1.32071,-1.27009
-0.06945,0.99741,0.01857,-1.05743,3.60409,-0.30196
-0.01278,0.9983,-0.0568,-1.08273,2.10624,1.07697
0.02359,0.98791,-0.15318,-0.7014,1.7105,0.86769
0.05637,0.97275,-0.22491,0.075,1.17812,1.12043
0.09036,0.95806,-0.27194,-0.09042,0.62193,0.94461
0.1335,0.94403,-0.30163,-0.19559,-0.06813,0.96323
0.16971,0.93397,-0.31446,-0.64045,-1.11752,0.57569
0.1894,0.9313,-0.31114,-1.07992,-0.88354,0.9013
0.18098,0.93723,-0.29807,-1.1394,-0.71776,0.61477
0.15812,0.95199,-0.26215,-0.65069,-0.74512,0.84719
0.13635,0.97059,-0.19839,-0.1567,-0.98524,1.06178
0.11362,0.98473,-0.13188,0.14335,-1.09455,0.27014
0.08363,0.99514,-0.052,-0.31569,-0.77161,0.10477
0.03589,0.9983,0.04598,-0.67001,0.47126,-0.2473
-0.0239,0.98953,0.14234,-0.61022,0.48003,-0.34367
-0.08325,0.97001,0.22837,-0.25902,2.77731,0.48217
-0.11665,0.93685,0.32969,0.53264,4.65349,0.2183
-0.16907,0.88092,0.44203,1.13033,2.78548,0.18169
-0.23715,0.82065,0.5199,0.39865,1.38257,-0.05145
-0.26226,0.76722,0.5853,-0.48821,1.11322,-0.58105
-0.24017,0.72431,0.64629,-0.48949,0.15403,-0.77355
-0.204,0.70204,0.68229,0.51982,-1.30078,-0.58706
-0.16097,0.70899,0.6866,0.78499,-1.67571,-0.87858
-0.11849,0.7328,0.67004,0.33962,-1.45112,-1.28497
-0.09128,0.76295,0.63998,0.27402,-1.42831,-1.28137
-0.07619,0.79971,0.59553,0.44295,-1.70538,-1.369
-0.0659,0.8427,0.53434,0.68939,-1.5542,-1.21987
-0.06433,0.88265,0.4656,0.33269,-0.84567,-0.64417
-0.08401,0.91282,0.39961,-0.20638,0.14896,0.56271
-0.12269,0.92237,0.3663,-0.29276,0.67971,1.01691
-0.15345,0.92355,0.35144,-0.258,0.80721,0.68469
-0.18046,0.92187,0.34291,-0.21786,-1.06222,-0.99279
-0.22137,0.93274,0.28459,0.17388,-1.43425,-2.2456
-0.23334,0.91457,0.33033,2.15216,0.91933,-1.12142
-0.26356,0.91164,0.31536,0.56997,-0.67439,-1.40502
-0.29803,0.93231,0.20486,1.37654,-1.61678,2.29984
-0.26307,0.96229,0.06928,1.20188,-0.82148,-1.25494
-0.14173,0.98964,0.02309,-0.5298,2.92167,-1.20389
-0.0379,0.99909,-0.01971,-1.19641,4.30475,-0.99199
0.00811,0.99545,-0.0949,-0.94622,1.52004,1.16587
0.03491,0.98395,-0.17498,-0.27368,0.95799,0.71305
0.0597,0.9723,-0.22598,0.24972,0.88917,1.04582
0.09374,0.96164,-0.25779,-0.06055,0.10383,1.1647
0.13477,0.95118,-0.27765,0.10098,-1.2927,0.35033
0.17399,0.94254,-0.2852,-0.65049,-1.30219,0.5982
0.19356,0.93837,-0.28633,-1.4655,-0.78489,0.39121
0.18147,0.94337,-0.27772,-0.87386,-0.67449,0.62399
0.16199,0.95356,-0.25394,-0.39217,-0.73404,0.70998
0.14708,0.96778,-0.20436,0.24104,-0.98814,0.83051
0.13373,0.97981,-0.14858,0.0244,-1.06757,0.02356
0.11017,0.99029,-0.08475,-0.4364,-0.82345,0.14104
0.0756,0.99712,-0.00594,-0.5548,0.04371,-0.74723
0.03111,0.99606,0.08299,-0.59766,0.46742,-0.91464
-0.0257,0.98847,0.14922,-0.73791,1.1197,-0.06413
-0.06727,0.97258,0.22263,0.6119,5.02144,0.55693
-0.08902,0.9433,0.31978,0.9197,2.60138,0.09117
-0.15278,0.9071,0.39219,1.14018,2.06145,0.52544
-0.22059,0.87052,0.43991,-0.05327,1.22533,-0.49324
-0.24046,0.82452,0.51218,-0.48223,0.51283,-0.54467
-0.2215,0.7857,0.57758,-0.50119,0.55165,-0.61007
-0.17324,0.76419,0.62128,0.71523,-1.63463,-1.03618
-0.12534,0.76416,0.63273,0.12378,-1.39016,-1.00614
-0.09916,0.78277,0.61435,0.0976,-1.40878,-0.98777
-0.09722,0.81246,0.57484,0.86658,-1.75028,-1.31313
-0.1028,0.84753,0.52069,0.86097,-1.89889,-1.17761
-0.10684,0.88716,0.44892,0.865,-1.93852,-1.10584
-0.09824,0.9217,0.37524,0.05158,-0.82314,-0.48005
-0.09333,0.94439,0.31528,-0.46887,0.32216,0.74731
-0.11464,0.94712,0.29967,-0.44755,0.31943,0.76292
-0.13426,0.94903,0.28515,0.14469,0.98959,0.53078
-0.17101,0.94993,0.26151,0.71607,-0.74604,-1.82427
-0.21205,0.9529,0.2168,1.79533,-0.29859,-3.41279
-0.25076,0.93226,0.26077,-0.14716,4.01119,3.10443
-0.2856,0.9305,0.22935,0.66107,-2.1759,1.45354
-0.27812,0.95609,0.09243,1.33294,-2.00041,-0.43375
-0.19003,0.98115,0.03492,1.01579,-0.27768,-0.9968
-0.06452,0.99787,-0.00924,-0.77657,3.9503,-0.93418
-0.00217,0.99785,-0.0655,-1.10342,4.19052,0.23902
0.01985,0.98587,-0.16631,-0.08334,1.46538,1.01015
0.03967,0.97093,-0.23605,0.49384,1.36869,1.15805
0.06951,0.95699,-0.28168,0.28328,1.00606,1.46928
0.11535,0.94712,-0.29941,-0.10643,-1.04274,0.26709
0.15828,0.93785,-0.30885,-0.57251,-1.05691,0.55236
0.19376,0.93479,-0.29768,-0.96775,-0.97302,0.80917
0.19418,0.9375,-0.28878,-1.40315,-0.61879,0.36291
0.17024,0.94675,-0.27327,-0.65018,-0.65145,0.44743
0.14119,0.96359,-0.22705,-0.36861,-0.8943,1.31186
0.12141,0.97937,-0.16151,0.12747,-1.20067,0.11206
0.10167,0.98994,-0.09834,-0.17649,-0.99698,-0.33932
0.07298,0.99723,-0.01443,-0.30413,-0.77179,-0.31837
0.02632,0.99587,0.0869,-0.48911,0.67306,-0.286
-0.03111,0.98578,0.16513,-0.29667,1.97637,0.7175
-0.06535,0.96554,0.2519,0.70483,4.6919,0.51577
-0.08295,0.93173,0.35353,0.94818,2.56204,0.22151
-0.15185,0.88079,0.44849,1.19825,1.13538,0.15501
-0.21392,0.82949,0.51592,0.5255,0.99114,0.10042
-0.21381,0.77411,0.59584,-0.57221,0.71032,-0.66681
-0.17739,0.73402,0.65555,-0.4156,-0.64649,-0.48393
-0.13485,0.71675,0.68416,0.21811,-1.01831,-0.48503
-0.09922,0.72828,0.67805,0.25127,-1.31247,-0.94981
-0.07643,0.75752,0.64831,0.02782,-1.17551,-1.10133
-0.07381,0.79397,0.60345,0.41594,-1.38186,-1.22558
-0.08198,0.83323,0.5468,0.66519,-1.76028,-1.25202
-0.09195,0.87835,0.46908,0.42247,-1.28665,-0.86408
-0.09288,0.91958,0.38175,0.4234,-1.32788,-0.77675
-0.09551,0.94785,0.30405,-0.19186,-0.55036,0.12185
-0.11967,0.95511,0.271,-0.20479,1.33036,0.96763
-0.14183,0.95644,0.25516,-0.18264,1.32903,0.98347
-0.17078,0.95231,0.25286,1.06258,0.45364,-1.04422
-0.20288,0.93936,0.27646,0.14074,3.85419,-0.16878
-0.23614,0.92793,0.2884,-0.60644,0.16904,-1.19161
-0.26929,0.93367,0.23608,1.58002,-2.35605,-0.25365
-0.26475,0.95993,0.09188,1.56149,-0.23571,-1.54931
-0.15941,0.98654,0.03628,0.68236,1.42166,-0.77
-0.03801,0.99882,-0.03027,-0.92456,3.33805,-0.78866
0.03655,0.99563,-0.08593,-0.82952,1.77969,0.6123
0.06925,0.98145,-0.17873,-0.40496,1.58338,0.81116
0.09601,0.96147,-0.25759,0.09675,1.28508,0.91019
0.12677,0.94469,-0.30247,-0.15297,0.59588,1.1667
0.16592,0.93081,-0.32568,-0.2084,-0.09134,0.7248
0.20745,0.91813,-0.33765,-0.27709,-1.11294,0.11379
0.24197,0.91278,-0.32905,-1.13176,-0.77954,1.14668
0.24101,0.91592,-0.32095,-1.33894,-0.40122,0.83411
0.22362,0.92441,-0.30897,-0.8668,-0.60056,0.10103
0.19632,0.94103,-0.27553,-0.72431,-0.6713,0.54405
0.17722,0.9594,-0.21943,0.07606,-0.99138,0.92745
0.15752,0.97528,-0.15498,-0.08158,-0.87055,0.03376
0.12507,0.98967,-0.07003,-0.53991,-0.37758,-0.6003
0.07147,0.99711,0.02549,-0.48783,0.04875,-0.64829
0.01156,0.99468,0.10237,-0.23999,1.56927,0.6079
-0.02158,0.98231,0.18598,0.24154,1.99311,0.2448
-0.02205,0.95743,0.2878,0.93062,3.79367,-0.06515
-0.07394,0.91466,0.39739,0.15745,1.21835,0.42918
-0.13783,0.87062,0.47225,-0.17711,1.01085,0.0156
-0.16188,0.82171,0.54642,-0.18956,1.08573,-0.7098
-0.13831,0.77939,0.61107,-0.26526,-0.05675,-0.61859
-0.10096,0.7489,0.65494,0.19807,-1.11198,-0.61577
-0.05935,0.73746,0.67276,0.15593,-1.55973,-0.82758
-0.03415,0.7515,0.65884,0.10195,-1.35233,-1.01004
-0.02596,0.78059,0.62449,0.26256,-1.29835,-1.23246
-0.0309,0.81214,0.58264,0.56913,-1.63666,-1.24646
-0.04736,0.85027,0.52421,0.27551,-1.54247,-1.07032
-0.05449,0.89232,0.44809,0.10748,-1.03418,-0.67949
-0.05713,0.92514,0.3753,-0.11299,-0.62053,0.13946
-0.08093,0.93218,0.35283,-0.605,0.8457,1.21439
-0.10847,0.9292,0.35329,0.19381,0.48631,0.31683
-0.1377,0.92401,0.3567,0.23801,-0.50679,-0.44897
-0.17534,0.91878,0.35368,2.01941,0.25455,-2.11522
-0.20158,0.90145,0.38308,-0.9524,3.67868,1.03428
-0.25527,0.90994,0.32688,0.56264,-1.59914,-0.76941
-0.27458,0.94116,0.19701,1.43521,-1.90737,-1.27635
-0.20677,0.97033,0.12527,0.97338,0.47727,-0.77278
-0.1002,0.99383,0.04754,-0.46373,2.95023,-0.73313
-0.02103,0.99948,-0.02442,-0.74393,2.95433,-0.35902
0.02291,0.99335,-0.11281,-0.51787,1.77751,0.99048
0.04641,0.97915,-0.19774,0.07408,1.3787,0.74037
0.07296,0.96344,-0.25779,0.19448,1.0211,1.36694
0.11574,0.94957,-0.2914,-0.13297,0.33212,1.09638
0.15434,0.9357,-0.31722,-0.21234,-0.24256,0.56364
0.18432,0.927,-0.32663,-0.60232,-1.2747,0.72229
0.19647,0.92495,-0.32537,-1.15359,-0.74493,0.7125
0.1836,0.93186,-0.31292,-0.84353,-0.51838,0.67306
0.16287,0.94611,-0.2799,-0.58757,-0.63561,0.43444
0.15044,0.96349,-0.22146,0.26939,-1.02184,0.81508
0.13875,0.97748,-0.159,0.21245,-1.07228,0.01534
0.11572,0.9899,-0.08191,-0.27669,-0.71722,-0.17396
0.07247,0.99728,0.01327,-0.48004,0.47448,-0.32143
0.02207,0.99465,0.10084,-0.48214,1.14446,0.37981
-0.01669,0.98359,0.17963,0.82311,3.82353,0.02284
-0.02124,0.96055,0.27727,0.89334,3.00603,0.15119
-0.07121,0.91633,0.39402,1.03774,2.18879,-0.00128
-0.1295,0.86673,0.48166,-0.08732,1.19512,-0.16921
-0.14862,0.81698,0.55717,-0.31999,1.02253,-0.68197
-0.12558,0.77438,0.62012,-0.71584,0.31051,-0.72078
-0.09044,0.74502,0.66087,0.65401,-1.45575,-0.84283
-0.06369,0.7395,0.67012,0.47998,-1.47876,-1.00484
-0.05034,0.75373,0.65524,0.13547,-1.21486,-1.16116
-0.05243,0.78016,0.62337,0.73593,-1.50648,-1.42392
-0.06986,0.81277,0.57837,0.78522,-1.7479,-1.28704
-0.09458,0.85722,0.50618,0.46339,-1.53301,-1.04872
-0.10704,0.90665,0.40806,0.23863,-1.01293,-0.32978
-0.10514,0.94424,0.31201,0.03054,-0.73978,0.00694
-0.11762,0.95533,0.2711,-0.57289,0.78896,1.025
-0.13954,0.95337,0.2676,0.16377,0.19991,0.00892
-0.16157,0.94859,0.27215,1.14844,1.31379,-0.1609
-0.19849,0.93035,0.30828,1.26169,4.00143,-0.96879
-0.23995,0.92129,0.30601,0.6585,-2.20652,-1.80122
-0.2743,0.92152,0.27486,1.5621,-2.75799,0.47572
-0.28613,0.94441,0.16191,1.55507,-0.68373,-1.5327
-0.19121,0.97459,0.11665,0.1808,2.65558,-0.55775
-0.06922,0.99666,0.04321,-0.73385,3.72961,-0.14502
-0.01148,0.99943,-0.03173,-0.48029,1.56063,0.63169
0.02729,0.99247,-0.11935,-0.34365,1.50368,0.49727
0.05292,0.9777,-0.20319,-0.51178,1.13657,1.00786
0.07908,0.96009,-0.26825,-0.19195,0.57732,0.97374
0.1066,0.94534,-0.30816,-0.08263,-0.54931,0.61701
0.13436,0.93312,-0.3335,-0.13983,-0.96718,0.93928
0.16478,0.92735,-0.33595,-0.78586,-0.77716,1.19784
0.18034,0.92922,-0.32253,-1.06921,-0.73676,0.30177
0.16721,0.93947,-0.29903,-0.64232,-0.79845,0.82621
0.14486,0.95578,-0.25593,-0.61997,-0.81476,0.78311
0.12626,0.97339,-0.1912,0.06014,-1.02918,0.34911
0.10432,0.98664,-0.12507,0.09754,-0.83212,-0.19245
0.07844,0.99585,-0.04595,-0.09799,-0.4872,-0.3519
0.04007,0.99793,0.05014,-0.25114,0.63219,-0.13948
-0.01554,0.99065,0.13553,-0.25273,1.68088,0.74755
-0.06356,0.97505,0.21267,0.49761,3.48943,0.5344
-0.09242,0.94935,0.30031,0.69586,2.49723,0.34523
-0.15355,0.90382,0.39939,0.49985,1.78119,0.36986
-0.21364,0.85532,0.47199,-0.11398,1.26176,-0.21067
-0.22986,0.80688,0.54415,-0.32997,0.76288,-0.54566
-0.20885,0.76486,0.6094,-0.25338,-0.64506,-0.44225
-0.17248,0.74246,0.64729,0.69945,-1.27546,-0.49477
-0.13312,0.74299,0.65592,0.54322,-1.23846,-0.89623
-0.1027,0.7587,0.64328,0.14423,-0.91364,-1.09365
-0.09018,0.78515,0.61269,0.29693,-1.08529,-1.10894
-0.08782,0.81442,0.57358,0.7508,-1.52594,-1.17844
-0.09163,0.84746,0.52287,0.29544,-1.39837,-0.81777
-0.08916,0.88692,0.45323,0.1835,-1.18552,-0.5621
-0.07817,0.91912,0.38612,-0.59918,-0.00157,0.64855
-0.09456,0.93165,0.35081,-0.38486,1.138,1.09763
-0.12708,0.93086,0.34254,0.20917,0.78431,0.56744
-0.16655,0.92201,0.3495,1.54161,2.0119,-1.85705
-0.19765,0.89732,0.39464,-0.64727,1.04343,-1.09738
-0.23612,0.89611,0.37578,1.12891,-2.48143,1.78111
-0.27401,0.91168,0.30617,1.36678,-2.24387,-2.63387
-0.25828,0.94917,0.17986,1.05944,-1.10465,-2.00199
-0.16167,0.97841,0.1287,-0.91214,3.43127,-0.95281
-0.06572,0.99615,0.05798,-0.79547,2.39075,-0.03523
-0.00426,0.99992,-0.01121,-0.30429,1.46216,0.90675
0.02641,0.99393,-0.1068,-0.1439,1.51384,0.76516
0.04875,0.97988,-0.19352,0.05878,1.11236,1.15544
0.07778,0.96635,-0.24519,0.03965,0.44184,0.81925
0.11507,0.95548,-0.27169,0.10513,-0.83925,0.36991
0.15293,0.94261,-0.29682,-0.41013,-1.50291,0.49175
0.18753,0.93438,-0.30291,-0.8907,-1.02496,0.91181
0.19623,0.93278,-0.30234,-0.96591,-0.41961,0.74389
0.18552,0.93881,-0.29021,-0.44489,-0.70875,0.81812
0.16477,0.95306,-0.25399,-0.22012,-0.79295,1.23898
0.15176,0.96951,-0.19237,-0.003,-0.98139,0.96457
0.13942,0.98193,-0.12796,-0.26737,-0.81762,-0.28272
0.11973,0.99149,-0.05099,-0.52869,-0.32569,-0.46718
0.08255,0.99559,0.04447,-0.59021,0.18973,-0.51966
0.03996,0.99165,0.12257,-0.43885,2.19667,0.52815
0.01224,0.98107,0.19327,0.33142,3.47178,0.21553
0.01864,0.95664,0.29068,0.54935,3.01018,-0.10414
-0.01525,0.9169,0.3988,1.07424,2.05827,0.02988
-0.07015,0.87589,0.47738,-0.02092,1.26032,-0.52287
-0.10053,0.83214,0.54537,-0.15897,1.07133,-0.66445
-0.10751,0.79265,0.60011,-0.61261,-0.32668,-0.40906
-0.0794,0.76795,0.63555,0.46232,-1.42768,-0.96244
-0.04832,0.76333,0.64419,0.43124,-1.42306,-0.97108
-0.03315,0.7775,0.628,0.35004,-1.10257,-1.21482
-0.02836,0.79982,0.59955,0.58439,-1.40654,-1.33901
-0.03678,0.82485,0.56414,0.59957,-1.76579,-1.06032
-0.05599,0.86384,0.50063,0.54748,-1.63882,-1.06455
-0.06212,0.90586,0.41897,0.47978,-1.24543,-0.64885
-0.06144,0.93742,0.34272,-0.03394,-0.61556,0.02497
-0.08591,0.94662,0.31067,-0.74361,0.8981,1.1123
-0.113,0.94251,0.31446,-0.24614,0.21404,0.28781
-0.13984,0.93938,0.31305,-0.28228,-0.4571,-0.10533
-0.18468,0.9438,0.27409,1.06168,0.27033,-3.70129
-0.23905,0.92537,0.29416,-0.65752,0.44044,-2.49805
-0.27723,0.91261,0.30044,0.71057,-1.17415,0.50797
-0.3006,0.9287,0.21714,1.94808,-2.30719,-0.55437
-0.2591,0.9574,0.12745,0.97073,1.16983,-0.75724
-0.13339,0.98755,0.08337,0.00537,2.2327,-0.39303
-0.04577,0.99882,0.01611,-0.98381,3.97057,-0.50955
0.00277,0.99865,-0.05189,-0.69413,1.73135,0.57907
0.02644,0.99092,-0.1318,-0.4831,1.27452,0.71363
0.04809,0.9795,-0.1956,-0.00507,0.74738,1.01632
0.07881,0.96901,-0.2341,0.07486,-0.26193,0.60218
0.11019,0.95863,-0.26244,0.00599,-0.73157,0.48481
0.14264,0.94954,-0.27931,-0.59496,-1.09591,0.69749
0.16559,0.9449,-0.28236,-0.82941,-1.0326,0.79934
0.16429,0.94705,-0.27585,-0.93911,-0.72585,0.4272
0.14325,0.95688,-0.25268,-0.24518,-0.83114,1.23324
0.12119,0.97186,-0.202,0.14708,-1.04353,0.46851
0.10765,0.98476,-0.13656,0.16062,-1.05643,0.40307
0.09111,0.99384,-0.06297,-0.15013,-0.61494,-0.15747
0.064,0.99759,0.02672,-0.29838,0.34978,-0.58121
0.01568,0.99233,0.12255,-0.4638,1.14342,-0.11763
-0.0375,0.98059,0.19241,0.26632,3.37069,0.4051
-0.06339,0.95777,0.28045,0.71865,2.51438,-0.09964
-0.10029,0.91647,0.38733,0.80956,1.72462,0.2643
-0.16032,0.87013,0.466,0.17518,1.4638,0.28321
-0.20668,0.82713,0.52262,-0.30066,1.47803,-0.60863
-0.21311,0.77989,0.58852,-0.34464,1.1733,-0.69478
-0.1876,0.74169,0.64396,0.15812,-1.01503,-0.65319
-0.1531,0.72396,0.67263,0.55526,-1.45556,-0.82061
-0.12663,0.73266,0.6687,0.35096,-1.39753,-0.87123
-0.1155,0.76093,0.63846,0.33549,-1.07033,-0.93682
-0.11779,0.79656,0.59297,0.78017,-1.51522,-1.09735
-0.12569,0.8338,0.53756,0.82787,-1.7049,-1.04586
-0.13551,0.87522,0.46435,0.50826,-1.33809,-0.78274
-0.13709,0.91219,0.38614,0.12746,-0.88227,-0.38228
-0.14385,0.93507,0.32393,-0.53263,0.16922,0.64401
-0.17167,0.9356,0.30851,-0.47331,0.80201,0.96228
-0.20585,0.93042,0.3032,-0.03021,-0.34114,-0.10148
-0.242,0.93919,0.24364,1.62317,-0.82667,-2.14892
-0.22472,0.92841,0.29588,0.28244,4.87264,2.33077
-0.25689,0.92553,0.27821,0.15206,-0.79911,-1.92682
-0.2778,0.93894,0.20302,1.09175,-1.65573,-0.5201
-0.23843,0.96697,0.09004,0.52134,1.12443,-1.11665
-0.13398,0.99033,0.03599,-0.96233,3.38129,-0.95016
-0.04136,0.99895,-0.01943,-1.05495,3.37266,-0.89474
0.00041,0.99597,-0.08969,-0.23111,1.34252,0.84628
0.01931,0.98522,-0.17021,0.26882,0.776,0.90374
0.03847,0.97305,-0.22737,0.43092,0.73458,1.29646
0.06827,0.96147,-0.26627,0.01625,-0.09076,0.83918
0.10802,0.95208,-0.28612,-0.08753,-0.98057,0.41315
0.14309,0.94438,-0.2961,-0.33979,-1.1345,0.62944
0.16856,0.94253,-0.28849,-1.32564,-0.8521,0.38892
0.16129,0.94771,-0.27538,-0.86976,-0.72793,0.36136
0.13344,0.95936,-0.24864,-0.84191,-0.73958,0.33463
0.10493,0.97427,-0.19948,0.05384,-1.03365,0.57167
0.08079,0.98701,-0.13882,-0.00318,-0.87324,0.06139
0.05181,0.99623,-0.06959,-0.09089,-0.75216,0.08855
0.01389,0.99976,0.01664,-0.19438,-0.07149,-0.17834
-0.03594,0.99332,0.10959,-0.08114,1.55261,0.51066
-0.08377,0.97905,0.18555,0.14378,2.3235,0.43336
-0.10075,0.95618,0.2749,0.56698,3.63655,0.08835
-0.15058,0.91523,0.37371,0.56153,1.47664,0.46361
-0.22773,0.86634,0.44451,0.25416,1.45061,0.30411
-0.26779,0.81909,0.50732,-0.36099,1.35425,-0.47944
-0.26381,0.77539,0.57373,-0.60283,-0.43619,-0.55272
-0.23344,0.74717,0.62228,-0.05553,-0.87377,-0.32772
-0.20203,0.74198,0.63924,0.59202,-1.30576,-0.86715
-0.17151,0.75781,0.62953,0.20613,-0.97674,-0.93871
-0.15485,0.78407,0.60103,0.27053,-0.97494,-0.91074
-0.15516,0.8145,0.55902,0.91824,-1.53225,-0.94573
-0.1641,0.84914,0.50201,1.01957,-1.81867,-0.90468
-0.17305,0.88804,0.42595,0.74429,-1.62796,-0.79593
-0.17044,0.92243,0.34651,-0.15622,-0.31624,-0.18039
-0.16155,0.94447,0.28613,-0.52017,0.31099,0.44016
-0.17426,0.94843,0.26477,-0.65626,0.76789,0.83426
-0.19979,0.94696,0.25167,0.1445,-0.14519,0.09317
-0.23776,0.9459,0.22077,1.64555,1.20159,-1.94517
-0.25491,0.92917,0.26769,-0.41463,2.7927,0.46384
-0.29714,0.92017,0.25491,0.81672,-1.92159,0.19888
-0.31863,0.92993,0.18355,1.70839,-2.13418,-0.65619
-0.27074,0.95922,0.08115,1.14248,0.54105,-0.95118
-0.16258,0.98657,0.01536,-0.57764,2.8481,-0.75464
-0.06542,0.99695,-0.04251,-1.08309,2.77222,-0.52469
0.00555,0.99461,-0.10349,-0.60103,1.47238,0.7182
0.04512,0.98089,-0.18922,-0.05873,1.6422,0.59033
0.07769,0.96358,-0.25587,0.00053,1.25193,1.19504
0.11383,0.94903,-0.2939,-0.4021,0.59471,1.07329
0.14769,0.93753,-0.31498,-0.38515,-0.64611,0.50413
0.17756,0.92739,-0.32925,-0.4926,-1.29324,0.61406
0.20124,0.92501,-0.32225,-0.99838,-0.94145,0.84177
0.19523,0.92686,-0.32063,-1.3371,-0.52466,0.28702
0.1618,0.93792,-0.30678,-0.60591,-0.69949,0.86199
0.12606,0.9571,-0.26088,-0.37795,-0.92259,1.17244
0.10495,0.97541,-0.19377,0.41918,-1.14145,0.46405
0.08297,0.98908,-0.12182,-0.1323,-0.36862,-0.72659
0.04359,0.99864,-0.02868,-0.12113,0.11977,-0.57424
-0.01378,0.99826,0.05718,-0.04283,1.82939,0.74617
-0.05998,0.98864,0.13778,0.67783,2.79154,0.12549
-0.06455,0.96995,0.23459,0.82421,2.67585,0.11882
-0.10592,0.93658,0.33404,0.64458,2.06609,0.53968
-0.17989,0.89616,0.40562,-0.36295,1.23853,-0.17103
-0.23197,0.84963,0.47361,-0.3961,1.17101,-0.566
-0.23129,0.80087,0.55236,-0.51079,0.4863,-0.57998
-0.19424,0.76588,0.61294,0.4004,-1.07539,-0.76746
-0.15646,0.75335,0.63872,0.57069,-1.42935,-0.81643
-0.13418,0.76547,0.62931,0.44266,-1.31362,-0.88586
-0.12953,0.79305,0.59521,0.6868,-1.24934,-1.28731
-0.13413,0.82209,0.55333,0.8919,-1.48455,-1.41013
-0.14916,0.85423,0.49803,0.84592,-2.05238,-1.31152
-0.16381,0.89216,0.42095,0.37103,-1.13937,-0.6742
-0.16251,0.92792,0.33548,0.19967,-0.93862,-0.38081
-0.16505,0.94978,0.26583,-0.4295,-0.14474,0.38586
-0.18205,0.95055,0.25162,-0.33653,1.0921,0.65161
-0.20585,0.94647,0.24864,0.02649,0.51801,0.21407
-0.24406,0.94556,0.21528,0.95397,-0.07032,-1.34118
-0.2549,0.93462,0.24802,-0.33878,1.34474,-0.35223
-0.29363,0.93119,0.21599,0.42773,-0.85829,-1.49101
-0.2989,0.94649,0.12167,1.45616,-0.33062,-0.74445
-0.21902,0.97421,0.05417,0.65378,1.06914,-0.67407
-0.11854,0.99287,-0.01236,-0.31652,2.14066,-0.53973
-0.03602,0.99656,-0.07465,-1.29531,2.65653,-0.14063
0.01341,0.98866,-0.14954,-0.96727,1.82138,0.98766
0.03316,0.97276,-0.2294,-0.05749,1.2942,0.62788
0.05389,0.95783,-0.28221,0.00385,0.36541,1.12494
0.08464,0.94587,-0.31331,-0.05297,-0.0734,0.93551
0.11736,0.93577,-0.33251,-0.06758,-0.59341,0.80315
0.15113,0.93108,-0.33203,-0.91761,-0.88268,0.68575
0.16133,0.93231,-0.32366,-1.25157,-0.85088,0.73074
0.14185,0.94199,-0.30418,-0.708,-0.65448,0.32089
0.11467,0.95793,-0.2631,-0.39342,-1.05618,1.08409
0.09004,0.97532,-0.20158,0.10767,-1.02302,0.55647
0.06396,0.98841,-0.13767,0.16585,-0.86377,0.0058
0.03199,0.99758,-0.0617,-0.01912,-0.43574,-0.23612
-0.01208,0.99942,0.03188,-0.04521,0.51053,-0.35797
-0.06754,0.99142,0.1119,-0.14734,1.72735,0.58624
-0.10053,0.97769,0.1844,0.29046,3.31252,0.6353
-0.12713,0.95485,0.2685,0.62139,2.05403,0.08114
-0.1895,0.91484,0.35659,0.59335,1.75226,0.5103
-0.24831,0.87475,0.41611,-0.07504,1.36156,-0.0861
-0.26937,0.83287,0.48349,-0.22426,0.89594,-0.57064
-0.26066,0.79771,0.54379,-0.43203,-0.30045,-0.27965
-0.23619,0.78163,0.57729,0.51086,-1.20683,-0.31389
-0.20242,0.78904,0.58002,0.38501,-1.27287,-0.94649
-0.17611,0.80919,0.56053,0.24816,-1.15924,-0.98176
-0.16641,0.8347,0.52495,0.7008,-1.5027,-1.07091
-0.16616,0.86338,0.47641,0.81981,-2.05635,-0.94705
-0.16827,0.89874,0.40489,0.82193,-2.09172,-0.87553
-0.161,0.9329,0.32214,0.45188,-1.09552,-0.64134
-0.1533,0.95317,0.26067,0.11861,-0.52048,-0.29111
-0.17159,0.95512,0.24144,-0.58548,0.94255,0.80705
-0.20572,0.94978,0.23576,-0.20757,0.95257,1.34423
-0.24335,0.94415,0.22215,1.0032,-0.1396,-1.04684
-0.26113,0.93558,0.23768,1.99655,1.58642,-1.24284
-0.29182,0.92488,0.2438,-0.91382,0.78702,-0.82791
-0.32123,0.92413,0.20685,1.27394,-1.68431,0.08847
-0.29809,0.95006,0.0923,1.53961,-1.44528,-1.36012
-0.20159,0.97908,0.02757,0.54633,1.43497,-0.64625
-0.11731,0.99192,-0.04828,-0.89665,2.2646,-0.9211
-0.04176,0.99456,-0.09537,-0.8198,1.96312,-0.42178
0.00174,0.98498,-0.17265,-0.36812,1.68108,0.8624
0.0178,0.96812,-0.24984,-0.02919,1.09868,1.00365
0.03459,0.95375,-0.2986,0.17705,0.83286,1.33774
0.06436,0.942,-0.32939,0.08479,-0.73884,0.583
0.09784,0.93236,-0.34804,0.03627,-1.08745,0.71806
0.13168,0.92771,-0.34929,-0.51554,-0.92895,0.83275
0.14966,0.92905,-0.33831,-1.28981,-0.83315,0.39988
0.131,0.93939,-0.31683,-1.18692,-0.81244,0.39817
0.09946,0.95463,-0.28068,-0.47713,-0.88113,0.89184
0.07534,0.97161,-0.22427,-0.16275,-0.90081,0.57785
0.04891,0.98534,-0.16343,-0.04967,-0.72275,0.11854
0.01855,0.99572,-0.09051,-0.13752,-0.3115,-0.2131
-0.02338,0.99972,-0.00015,-0.16351,0.72319,-0.191
-0.07966,0.99336,0.08297,-0.1241,1.9126,0.42602
-0.10704,0.98145,0.15903,0.69092,3.94204,0.43233
-0.11487,0.95947,0.25733,0.97099,2.22032,0.19647
-0.16442,0.92368,0.34609,1.2871,1.48411,0.52996
-0.23704,0.88467,0.40145,0.11631,1.32802,-0.34693
-0.27448,0.84196,0.4645,-0.4164,0.77417,-0.73298
-0.26944,0.80977,0.52121,-0.46771,-0.84372,-0.31327
-0.23377,0.79671,0.55731,0.57929,-1.52723,-0.51717
-0.1911,0.80336,0.564,0.4041,-1.35632,-0.93185
-0.15985,0.82406,0.54348,0.23373,-1.33001,-0.93532
-0.15229,0.85205,0.50082,0.59206,-1.7197,-0.86066
-0.15896,0.88749,0.43253,0.61148,-2.0491,-1.06034
-0.15542,0.92426,0.3487,0.41485,-0.98827,-0.7506
-0.14465,0.9498,0.27742,0.22124,-0.70154,-0.41754
-0.15294,0.95718,0.24579,-0.39653,0.27944,0.68582
-0.18129,0.95301,0.24269,-0.14833,0.42759,1.06184
-0.21492,0.95025,0.22545,0.12651,-0.13546,0.51052
-0.24106,0.95079,0.19463,1.60928,-0.02518,-2.34254
-0.26509,0.94669,0.18302,0.15848,4.03916,1.54281
-0.29034,0.93188,0.21749,-0.25995,1.19759,-0.68638
-0.31457,0.92959,0.19212,1.27953,-2.03715,0.03993
-0.29259,0.95491,0.05029,1.65068,-1.68982,-1.08102
-0.18378,0.98294,-0.00714,0.74583,0.81248,-1.05221
-0.07402,0.99504,-0.0665,-0.85843,3.84339,-0.59268
-0.02627,0.99194,-0.12392,-1.20066,1.98622,0.89749
-0.00286,0.97893,-0.20417,-0.80973,1.44688,0.97959
0.00803,0.9601,-0.27954,0.03964,0.88237,0.89406
0.03098,0.94211,-0.33387,0.35759,0.26025,1.41645
0.07053,0.93018,-0.36026,0.33644,-0.27138,0.98297
0.10601,0.91932,-0.37896,0.09116,-0.93089,0.65354
0.13861,0.91566,-0.37729,-0.94078,-0.72696,0.7224
0.14166,0.91901,-0.36791,-1.1987,-0.70023,0.66187
0.11454,0.93366,-0.33935,-1.02365,-0.75182,0.42602
0.0855,0.95353,-0.2889,-0.00216,-1.02083,1.13866
0.06612,0.973,-0.22112,0.25985,-0.81437,0.18564
0.04251,0.98837,-0.14602,-0.12878,-0.37449,-0.58866
-0.00268,0.99854,-0.05399,-0.28667,0.9731,0.06946
-0.07337,0.99688,0.02897,-0.05906,2.04828,0.87905
-0.1104,0.98838,0.10448,0.6616,3.17765,0.03397
-0.11482,0.97123,0.20865,0.74245,2.56854,-0.1523
-0.1584,0.93324,0.32244,0.98957,1.75876,0.5395
-0.21798,0.89145,0.39723,-0.14512,1.21385,-0.12674
-0.25002,0.8477,0.46786,-0.3585,0.91997,-0.35008
-0.24228,0.81099,0.53253,-0.40308,-0.11846,-0.558
-0.21017,0.78774,0.57904,0.49541,-1.15754,-0.55429
-0.17401,0.78402,0.59584,0.59915,-1.54112,-0.83291
-0.14878,0.80093,0.57997,0.25324,-1.38855,-0.93143
-0.13939,0.82903,0.54154,0.5546,-1.74807,-1.07722
-0.1391,0.86241,0.48673,0.48273,-1.88018,-1.12509
-0.13775,0.90101,0.41134,0.49555,-1.81463,-1.14347
-0.1283,0.93386,0.33383,0.30727,-0.96708,-0.47899
-0.13167,0.95263,0.27414,-0.24256,-0.17796,0.67744
-0.15808,0.95417,0.2541,-0.51835,0.60444,1.11813
-0.18951,0.95242,0.23868,-0.13886,-0.01152,0.53944
-0.21699,0.95071,0.22148,0.26642,-0.69507,-0.15798
-0.24018,0.94975,0.2007,0.90694,-0.45976,-1.87766
-0.26225,0.93827,0.22554,-0.66532,1.53104,-0.37781
-0.28691,0.93387,0.21347,0.93701,-1.88883,0.55224
-0.28708,0.95399,0.08652,1.33486,-1.80052,-1.07735
-0.19741,0.98019,0.01625,0.30735,1.72385,-1.09197
-0.06662,0.99693,-0.04112,-0.44942,4.21303,-0.55266
-0.01306,0.99532,-0.0957,-0.50298,4.21464,-0.49807
0.00848,0.9848,-0.17347,-0.21471,1.07004,0.89523
0.02235,0.96844,-0.24825,0.25336,0.74511,1.11
0.04721,0.95081,-0.30615,0.2285,0.76273,1.1679
0.08714,0.93688,-0.33862,0.14244,-0.47745,0.45379
0.12122,0.92486,-0.36047,-0.27787,-0.93859,0.56082
0.15166,0.91841,-0.36541,-0.30831,-0.93214,0.56576
0.16122,0.92112,-0.35433,-0.956,-0.79162,1.01087
0.14588,0.93418,-0.32562,-0.61583,-0.84539,0.34959
0.12058,0.95155,-0.28288,-0.54649,-0.93586,0.68785
0.10249,0.971,-0.21598,-0.22337,-0.96107,1.13506
0.08126,0.98572,-0.14745,-0.19796,-0.40763,-0.615
0.04377,0.99679,-0.06698,-0.20855,0.02491,-0.54056
-0.0114,0.99969,0.02194,-0.30193,1.39798,0.90421
-0.04455,0.99489,0.09065,0.43706,2.87027,0.28173
-0.06258,0.98035,0.18705,0.54877,2.36324,-0.08783
-0.11352,0.94805,0.29719,0.50411,1.92831,0.50182
-0.17335,0.90981,0.37709,0.0261,1.87242,0.39836
-0.20726,0.86723,0.45272,-0.15346,1.38341,-0.4711
-0.20578,0.82771,0.52206,-0.16609,-0.02658,-0.50602
-0.17779,0.80117,0.57142,0.57173,-1.21056,-0.51644
-0.14279,0.79402,0.59088,0.5529,-1.72485,-0.80214
-0.11588,0.80524,0.58152,0.11057,-1.29245,-0.9522
-0.10002,0.82915,0.55001,0.1608,-1.26654,-1.01184
-0.0906,0.85482,0.51096,0.47699,-1.80446,-1.08611
-0.09377,0.88558,0.45492,0.33509,-1.40522,-0.84609
-0.09368,0.91823,0.38481,0.31671,-1.0837,-0.51056
-0.09499,0.94238,0.32077,0.1578,-0.78442,-0.10681
-0.12319,0.94815,0.29296,-0.68561,1.14953,1.06542
-0.15325,0.94337,0.29422,-0.06969,0.30802,0.49992
-0.18396,0.94137,0.2828,0.18225,-0.30815,-0.00549
-0.19948,0.94473,0.26017,2.48845,0.76158,-1.33613
-0.21091,0.92375,0.3197,-1.13035,3.3053,0.63155
-0.23577,0.92573,0.29569,-0.03345,-0.32904,-2.38078
-0.24171,0.95522,0.17068,0.97129,-1.95757,-1.60948
-0.17304,0.98007,0.09756,0.27469,0.78768,-0.47163
-0.05702,0.99814,0.02147,-0.95859,3.5923,-1.17907
0.01021,0.99927,-0.03669,-1.09303,3.27456,0.06311
0.02438,0.99237,-0.12087,-0.23083,1.47539,1.11174
0.0283,0.97951,-0.19941,0.15259,1.03333,0.95275
0.03724,0.96659,-0.25363,0.74636,0.58996,1.53358
0.06946,0.95404,-0.29153,0.41144,-0.70533,0.60406
0.11768,0.94275,-0.31203,-0.00214,-0.97657,0.09165
0.15779,0.93577,-0.31534,-0.84608,-1.1171,0.31462
0.16958,0.93459,-0.31269,-1.12726,-0.70089,0.89129
0.162,0.9425,-0.29232,-0.69978,-0.7409,0.38114
0.14745,0.9568,-0.25057,-0.35738,-0.95769,0.80851
0.13371,0.97224,-0.19202,-0.05117,-0.99171,0.6893
0.1146,0.98546,-0.1254,-0.35827,-0.84485,0.01996
0.08288,0.99559,-0.04391,-0.48848,-0.49236,-0.1492
0.03895,0.99806,0.04847,-0.51084,1.04634,0.10309
-0.00683,0.99258,0.12143,-0.4027,1.64228,0.66277
-0.02517,0.98207,0.18683,0.28563,3.58472,0.55149
-0.05063,0.96221,0.26755,0.81389,1.94259,0.24608
-0.11558,0.92637,0.35844,1.00958,1.69817,0.4723
-0.16646,0.88686,0.43101,0.30121,1.27223,0.03221
-0.18544,0.84495,0.50166,-0.04072,0.55386,-0.60874
-0.17891,0.80823,0.56102,-0.29319,-0.02309,-0.30552
-0.14868,0.7857,0.60047,-0.23675,-1.06469,-0.47646
-0.11418,0.78455,0.60946,0.22246,-1.53038,-0.7435
-0.08744,0.80456,0.5874,0.10867,-1.37611,-0.89729
-0.07294,0.83321,0.54811,0.3169,-1.62379,-1.25707
-0.0701,0.86486,0.49708,0.35163,-1.71872,-1.26291
-0.07556,0.90077,0.42766,0.52777,-1.52892,-1.08739
-0.08355,0.93316,0.3496,0.4626,-0.94987,-0.20158
-0.09772,0.95468,0.28112,0.33047,-0.73834,0.34547
-0.13137,0.96032,0.24599,-0.23598,1.06433,1.394
-0.15579,0.95807,0.24049,-0.22795,0.0614,0.46074
-0.18456,0.95526,0.23112,-0.33131,-1.00998,-0.7768
-0.20533,0.95992,0.19078,1.30004,1.35291,-2.43986
-0.24411,0.94206,0.23005,-1.35127,2.66753,-0.41911
-0.25991,0.93509,0.24095,1.20664,-1.49254,1.51541
-0.27089,0.95577,0.11455,1.87022,-1.79613,-1.79337
-0.20603,0.97853,0.0053,1.41982,0.61264,-1.0484
-0.06954,0.99641,-0.04824,-0.07139,2.82376,-1.38053
-0.00635,0.99566,-0.0928,-0.89265,3.8629,0.31506
0.01463,0.98576,-0.16753,-0.38758,1.32912,0.89346
0.02755,0.96976,-0.24251,-0.10933,0.89911,1.17232
0.04783,0.95339,-0.29792,0.15984,0.66245,1.42321
0.08151,0.93879,-0.3347,0.12247,-0.0128,0.80246
0.11774,0.92649,-0.35743,-0.18735,-0.95569,0.65429
0.1567,0.91914,-0.36142,-0.53883,-1.10865,0.83485
0.1771,0.9189,-0.35251,-1.22273,-0.7839,0.74129
0.16256,0.92668,-0.33888,-0.51833,-0.74482,0.34066
0.14272,0.94155,-0.30515,-0.41318,-0.83647,0.97683
0.12531,0.96037,-0.24898,0.21139,-1.16616,0.14048
0.10388,0.97561,-0.19338,-0.06045,-0.88848,0.12437
0.07507,0.98978,-0.12123,-0.12238,-0.75482,0.27941
0.04143,0.99846,-0.03691,-0.10296,0.45035,-0.27311
-0.0043,0.99854,0.05391,-0.20956,1.84525,0.47818
-0.04553,0.99167,0.1205,-0.16832,1.85211,0.41159
-0.07002,0.9798,0.18728,0.03014,2.11089,0.00916
-0.12224,0.95388,0.27416,0.68627,1.09539,0.41053
-0.16787,0.92632,0.33728,0.73189,1.12295,0.34742
-0.18598,0.90525,0.38201,-0.11318,0.44147,-0.60265
-0.20131,0.88185,0.4264,-0.4484,-0.57626,0.10976
-0.20057,0.86591,0.45823,-0.44913,-0.56032,0.07794
-0.16818,0.8682,0.46685,0.87639,-1.24613,-0.80448
-0.13525,0.88509,0.44534,0.25253,-1.44955,-0.96849
-0.12102,0.90705,0.40325,0.25363,-1.58597,-0.88795
-0.11443,0.93254,0.34245,0.21965,-1.69133,-0.87047
-0.10411,0.95717,0.27015,0.581,-0.95964,-0.53481
-0.09009,0.97247,0.21492,0.55637,-0.76984,-0.21967
-0.10148,0.97333,0.20572,-0.0682,0.22981,1.07229
-0.14873,0.97149,0.18461,-0.22143,-0.04126,0.92387
-0.19252,0.96806,0.16062,-0.0725,-0.57475,0.85095
-0.20712,0.96961,0.13019,2.18719,0.73882,-3.03646
-0.19563,0.96034,0.19868,1.44649,4.13944,0.34829
-0.24757,0.95593,0.15783,-0.91625,-0.03257,-1.58324
-0.24782,0.96624,0.07048,1.51448,-0.93,-1.27286
-0.17534,0.98438,-0.0158,1.01906,0.63302,-0.824
-0.04567,0.99696,-0.06313,-0.32491,3.31737,-0.9718
0.00927,0.99323,-0.1158,-1.24334,2.90783,1.2736
0.03629,0.98154,-0.18776,-0.2281,1.2965,0.66705
0.05033,0.96733,-0.24847,0.31255,0.76929,1.33421
0.0819,0.95371,-0.28937,0.30448,0.36175,1.46002
0.12416,0.9421,-0.31151,0.40893,-0.36623,0.42801
0.15723,0.92809,-0.33753,-0.35731,-1.03095,0.28536
0.19649,0.9176,-0.34555,-1.22582,-1.17484,1.13304
0.19703,0.91765,-0.3451,-1.02361,-0.64279,0.24157
0.18458,0.92601,-0.32929,-0.53524,-0.69055,0.54638
0.16895,0.94068,-0.29423,-0.07178,-0.59307,0.61731
0.15063,0.95885,-0.24063,-0.26953,-0.8234,0.57449
0.12575,0.97696,-0.17242,-0.33222,-0.82984,0.4012
0.10088,0.99079,-0.09033,-0.06746,-0.36553,-0.11725
0.06538,0.99784,0.00628,-0.01327,0.43357,-0.1007
0.01929,0.99558,0.09195,-0.16515,1.51479,0.52129
-0.00345,0.98575,0.16815,0.38732,3.17539,0.29967
-0.01217,0.96839,0.24914,0.87585,2.07559,0.19016
-0.05269,0.93918,0.33935,0.8915,1.67369,0.41016
-0.09291,0.90823,0.40803,-0.12837,1.27776,0.16081
-0.11801,0.88077,0.45861,-0.66216,0.00383,0.03352
-0.12111,0.86405,0.48861,-0.5663,-0.71945,-0.08392
-0.09817,0.85891,0.50263,0.36502,-1.29987,-0.68148
-0.0731,0.86479,0.49678,0.1236,-1.24405,-1.10703
-0.05622,0.87696,0.47726,0.10916,-1.27618,-1.10779
-0.05808,0.89507,0.44212,0.52586,-1.8345,-0.94622
-0.07013,0.92281,0.37881,0.44762,-1.26914,-0.9294
-0.07795,0.9511,0.29888,0.45544,-1.29743,-0.84948
-0.08002,0.97023,0.22857,-0.11705,-0.32865,0.51101
-0.09799,0.97381,0.20517,-0.74788,0.94734,1.33467
-0.13094,0.96874,0.21072,-0.53521,0.63394,1.1532
-0.16362,0.96301,0.21408,0.02919,-1.00951,-1.12416
-0.19022,0.96598,0.17522,2.34867,0.13804,-2.41817
-0.18963,0.95263,0.23778,2.07885,3.12321,0.37849
-0.23077,0.94797,0.21932,0.30736,-1.67132,0.54348
-0.24431,0.96216,0.12064,1.11269,-1.66555,-1.63642
-0.19032,0.98169,-0.00797,1.23878,-0.71728,-1.4976
-0.06811,0.99576,-0.06178,0.1345,1.66339,-1.15567
0.02016,0.99361,-0.11104,-0.50044,3.37368,0.24919
0.05562,0.9795,-0.19358,-0.73074,2.77825,1.28994
0.0748,0.95669,-0.28132,-0.37122,1.50476,1.07181
0.09567,0.93819,-0.33264,-0.03149,0.76962,1.12172
0.12421,0.922,-0.36671,-0.09253,0.30221,0.92778
0.16023,0.90845,-0.38607,0.05113,-1.09012,0.56002
0.19979,0.9024,-0.38179,-0.94501,-0.98678,0.9948
0.21391,0.90403,-0.3701,-1.28866,-0.72989,0.82936
0.19368,0.91257,-0.36015,-1.08655,-0.57329,0.15783
0.16993,0.93001,-0.32589,-0.29082,-0.7881,1.54899
0.15418,0.95105,-0.26782,0.07095,-0.94869,1.328
0.13281,0.96798,-0.21303,-0.1221,-0.90477,-0.18211
0.1029,0.98405,-0.1451,-0.23713,-0.87365,0.15678
0.06961,0.99554,-0.0637,-0.35116,-0.11866,-0.09589
0.02961,0.99928,0.0236,-0.39278,0.85118,-0.30035
-0.01688,0.9946,0.10241,-0.3189,1.66475,0.31817
-0.04772,0.98131,0.1864,0.58245,4.27496,0.51478
-0.08379,0.95499,0.28455,0.56507,1.79362,0.27319
-0.13368,0.918,0.37337,0.91888,0.88083,-0.082
-0.15541,0.88587,0.43711,0.18152,0.94575,-0.76754
-0.17491,0.84397,0.50707,-0.51392,-0.28986,0.23557
-0.16902,0.81183,0.55889,-0.13904,-0.94158,-0.11837
-0.13143,0.80583,0.57737,0.60984,-1.10217,-0.54699
-0.10094,0.82109,0.5618,0.22865,-1.31833,-1.0081
-0.08821,0.843,0.53062,0.05514,-1.21368,-1.07954
-0.08721,0.86654,0.49142,0.21845,-1.39045,-1.14555
-0.08873,0.89813,0.43068,0.36552,-1.85015,-1.03553
-0.08096,0.9343,0.34718,0.41579,-1.26981,-0.7518
-0.06475,0.96028,0.27143,0.3355,-1.09438,-0.44523
-0.0744,0.96965,0.23289,-0.50184,0.56866,1.07159
-0.10918,0.96997,0.21735,-0.61715,1.09157,1.03134
-0.14022,0.96454,0.22363,-0.42964,0.51667,0.9739
-0.17506,0.95342,0.24565,1.41937,2.02911,-1.84943
-0.20611,0.93442,0.29048,0.33734,-1.65546,-1.69735
-0.23883,0.93238,0.27135,0.37005,-1.65342,-1.67823
-0.25193,0.95664,0.1462,1.22215,-1.44405,-2.48674
-0.19162,0.98033,0.04725,0.2134,2.68518,-0.78091
-0.05003,0.9983,-0.0298,0.0718,2.66721,-0.70385
0.00681,0.99731,-0.0729,-0.81632,3.1987,0.11485
0.04068,0.98737,-0.15312,-0.42244,1.37539,0.89517
0.05903,0.96998,-0.23592,-0.11861,1.29606,0.78805
0.07971,0.95149,-0.29717,0.0226,0.80243,1.19093
0.1123,0.93464,-0.3374,-0.09647,-0.02868,0.61226
0.14563,0.92133,-0.36047,-0.0842,-0.61699,0.40332
0.17343,0.91201,-0.3717,-0.18013,-1.17873,0.58555
0.18974,0.91056,-0.36726,-1.04541,-0.65081,0.70463
0.17732,0.91696,-0.35742,-1.04911,-0.64646,0.28802
0.15581,0.93157,-0.32847,-0.70662,-0.76467,0.75909
0.14352,0.95153,-0.27201,0.1728,-1.03744,0.75947
0.13137,0.96841,-0.21196,0.18624,-1.09635,0.03059
0.11018,0.98414,-0.13903,-0.23727,-0.71769,-0.30002
0.06759,0.9966,-0.047,-0.51868,0.78187,-0.16769
0.00738,0.99953,0.02962,-0.56649,1.52752,0.69381
-0.01562,0.99426,0.1058,0.94636,3.55517,0.1032
-0.01226,0.97745,0.2108,0.98203,2.63207,-0.06784
-0.04406,0.94776,0.31592,1.31373,1.75251,0.158
-0.09549,0.9187,0.38323,0.09224,1.03434,-0.09046
-0.12794,0.88743,0.44282,-0.09038,0.98719,-0.59581
-0.1345,0.85725,0.49701,-0.31478,-0.2336,-0.43282
-0.10821,0.8395,0.53247,0.32196,-1.42175,-0.57711
-0.07132,0.84083,0.53658,0.3091,-1.80754,-0.79863
-0.04435,0.85911,0.50987,0.05796,-1.63633,-0.91221
-0.0371,0.8848,0.46448,-0.00905,-1.69575,-1.23796
-0.03187,0.91426,0.40388,-0.00821,-1.53508,-1.30459
-0.02802,0.94217,0.33397,0.10355,-1.32138,-1.119
-0.03499,0.96198,0.27089,0.29277,-0.78737,0.17474
-0.05811,0.97007,0.23578,-0.17454,0.37701,1.31008
-0.10083,0.97032,0.21982,-0.28083,1.00088,1.54991
-0.1413,0.96523,0.21993,-0.10352,-0.26899,-0.33354
-0.16933,0.9646,0.20217,0.70444,-1.0051,-2.0167
-0.18633,0.95697,0.22245,1.83396,-0.0689,-2.60805
-0.21214,0.94759,0.23889,-0.33786,0.2559,-1.52938
-0.23564,0.95453,0.18262,0.84694,-2.3184,1.59443
-0.22408,0.97392,0.03564,1.27963,-2.0365,-0.30433
-0.12674,0.99177,-0.01804,0.37865,1.28164,-0.87803
-0.02425,0.99616,-0.08414,-0.61808,3.4508,-0.5056
0.01678,0.99073,-0.13484,-0.93879,2.77739,0.61685
0.02986,0.97597,-0.21584,-0.20328,1.65399,1.11065
0.04159,0.95818,-0.28314,0.17531,1.11439,1.19267
0.06824,0.94215,-0.32819,0.25285,0.41285,1.48292
0.11274,0.9292,-0.35195,0.26299,-0.51896,0.61854
0.1507,0.91936,-0.36341,-0.08068,-1.06766,0.60451
0.18275,0.91539,-0.3587,-0.85551,-0.87707,0.77559
0.19097,0.91858,-0.34603,-1.16936,-0.88965,0.26589
0.17628,0.93169,-0.3176,-0.47713,-0.83355,0.8337
0.16375,0.94779,-0.27364,-0.18946,-0.82453,0.94234
0.15235,0.96311,-0.22184,0.11812,-1.02428,0.3242
0.13585,0.9784,-0.15582,-0.29195,-0.66631,0.32954
0.11165,0.99083,-0.07608,-0.28752,-0.33991,-0.04333
0.06884,0.99757,0.0106,-0.19978,0.78348,-0.26448
0.02582,0.99667,0.0773,0.38455,2.9465,0.60365
0.02162,0.98916,0.14524,0.73688,3.52097,0.44471
-0.00501,0.97436,0.22494,0.96718,1.94019,-0.05247
-0.06688,0.95095,0.30201,0.27495,1.31006,0.44073
-0.11414,0.9261,0.3596,-0.13063,1.15016,0.0786
-0.13352,0.89824,0.41873,-0.25432,0.73515,-0.64523
-0.12605,0.87799,0.46179,-0.15065,-0.60671,-0.41304
-0.09643,0.86851,0.48619,0.28699,-1.09328,-0.52782
-0.06645,0.87205,0.48488,0.33258,-1.51348,-0.50224
-0.04766,0.88673,0.45982,0.26937,-1.5766,-0.42889
-0.04233,0.90606,0.42103,0.27073,-1.53513,-0.70326
-0.03835,0.92798,0.37066,0.26914,-1.50323,-1.2318
-0.03921,0.94672,0.31966,0.36873,-1.13777,-0.64742
-0.05216,0.95997,0.27521,0.11632,-0.67507,0.20918
-0.07617,0.96462,0.2524,-0.19929,0.24507,0.98944
-0.09921,0.9622,0.25364,-0.10672,0.0093,0.70431
-0.1174,0.95903,0.25785,0.02022,-0.75839,-0.30081
-0.13848,0.96318,0.23044,1.63388,0.50686,-2.6172
-0.16318,0.94303,0.28994,-0.80016,5.88642,2.18637
-0.1914,0.93968,0.28348,0.59522,-1.89418,-1.16028
-0.21082,0.95537,0.20693,1.44927,-2.63703,-0.05422
-0.19293,0.97634,0.09768,1.10942,-0.24387,-1.34039
-0.0923,0.99443,0.05084,-0.21139,2.2876,-0.81396
-0.01365,0.99985,-0.01063,-0.90106,2.17119,-0.05736
0.03932,0.99707,-0.06564,-0.8658,1.5882,0.50232
0.06201,0.98875,-0.1361,-0.41806,1.37645,0.69696
0.07134,0.97553,-0.20796,-0.18094,1.09541,0.91514
0.08557,0.96307,-0.25528,0.28079,0.40688,1.1582
0.11426,0.95274,-0.28148,0.20677,0.01442,0.8907
0.14763,0.94272,-0.29913,0.09877,-1.07531,0.73234
0.18592,0.9337,-0.30601,-0.51475,-0.93199,0.71946
0.22265,0.92632,-0.30391,-0.98711,-0.89496,0.45476
0.23077,0.92631,-0.2978,-1.20878,-0.77019,0.36809
0.21486,0.9352,-0.28149,-0.61531,-0.80657,0.72119
0.20117,0.94789,-0.24704,-0.60162,-0.81926,0.68674
0.18784,0.96135,-0.2013,0.09567,-0.95526,0.36037
0.17304,0.97464,-0.14192,-0.30595,-0.46083,-0.28845
0.14106,0.98752,-0.07008,-0.27397,-0.47371,-0.3603
0.08131,0.99664,-0.00989,-0.42627,1.3842,0.28607
0.04208,0.99829,0.04062,0.69808,3.36467,0.16781
0.04577,0.99373,0.10197,0.79804,2.34577,-0.13488
0.02707,0.98399,0.17613,1.0643,1.45135,0.26965
-0.01627,0.97033,0.24123,0.35873,1.41514,0.18915
-0.05397,0.95591,0.28865,-0.27031,1.0429,-0.44647
-0.07623,0.93909,0.33512,-0.13888,0.14818,-0.23645
-0.08517,0.92647,0.3666,0.26617,-0.92574,-0.30663
-0.07961,0.92312,0.37619,0.48777,-1.54178,-0.464
-0.06669,0.92858,0.36509,0.17039,-1.71373,-0.55308
-0.05421,0.93994,0.337,0.01442,-1.65472,-0.59381
-0.04265,0.95561,0.29151,0.0042,-1.46967,-0.73992
-0.02845,0.96946,0.2436,0.33493,-1.03072,-0.56421
-0.02635,0.97757,0.20897,0.30143,-0.79609,0.13564
-0.04656,0.97829,0.20196,-0.10841,0.11308,0.97
-0.09036,0.97515,0.20228,-0.2248,-0.11182,1.28623
-0.12743,0.96764,0.21778,0.29796,-1.13583,-1.12287
-0.14553,0.96719,0.20826,1.06849,-0.73214,-1.77197
-0.17042,0.95881,0.22722,1.03261,3.87204,0.52377
-0.20455,0.93622,0.28575,0.44501,-1.69936,-1.1734
-0.22935,0.9322,0.27999,1.26179,-2.47912,1.70791
-0.23447,0.95849,0.16221,1.09292,-0.42555,-1.33918
-0.1846,0.97898,0.08668,0.62809,0.98055,-0.81297
-0.09396,0.99536,0.02082,-0.48425,2.94184,-0.68201
-0.05004,0.99827,-0.03077,-0.75442,1.45993,0.35522
-0.02495,0.99642,-0.08073,-0.3344,0.79238,0.88267
-0.00948,0.98929,-0.14562,-0.03646,0.58363,0.9368
0.00141,0.979,-0.20387,0.41279,0.2932,1.08537
0.02304,0.97057,-0.23969,0.4864,0.14568,0.86402
0.05158,0.96262,-0.2659,0.09257,-0.6617,1.24951
0.08476,0.958,-0.27395,-0.67739,-0.94732,0.34405
0.10454,0.95915,-0.26288,-0.9064,-1.14828,0.36677
0.09826,0.96624,-0.23816,-0.66001,-1.1015,0.3233
0.07825,0.97628,-0.20185,-0.16667,-0.80946,0.37359
0.05979,0.98677,-0.15066,0.05258,-0.68648,0.57647
0.04483,0.99517,-0.08731,0.26199,-0.47669,-0.01147
0.03329,0.99927,-0.01852,0.26476,0.10888,-0.29312
0.00647,0.99821,0.05942,0.27892,1.09688,0.21531
-0.03413,0.99157,0.12496,0.79847,2.72237,0.643
-0.03726,0.98406,0.17388,0.54033,0.80967,0.05459
-0.05578,0.97165,0.22975,0.65941,0.48078,-0.1772
-0.09123,0.95402,0.28552,0.58197,0.44215,-0.02951
-0.11421,0.93745,0.32883,-0.0247,0.63011,-0.18619
-0.12459,0.9218,0.36709,-0.04715,0.29975,-0.20183
-0.12664,0.91,0.39479,0.01831,0.02476,-0.13881
-0.12636,0.90514,0.40589,0.54653,-1.09862,-0.44599
-0.11449,0.90987,0.39877,0.6232,-1.42376,-0.39231
-0.09667,0.92381,0.37045,0.33674,-1.8104,-0.16955
-0.08038,0.9477,0.30887,-0.3151,-1.38518,-0.65084
-0.05001,0.96701,0.24976,-0.44909,-0.60089,-0.57716
-0.03195,0.97301,0.22855,-0.70793,-0.33658,0.45543
-0.06119,0.97073,0.23222,-0.62488,-0.17313,1.08613
-0.11915,0.96187,0.24618,0.15739,-0.79317,0.17074
-0.18114,0.95672,0.22777,0.21938,-0.78801,0.18915
-0.21451,0.95584,0.2009,1.95777,0.43445,-1.51985
-0.18088,0.92409,0.33667,-1.0914,1.31566,-0.25038
-0.23862,0.91892,0.31408,-1.03366,1.32083,-0.22779
-0.24865,0.93239,0.26233,0.65764,-2.1257,-1.0127
-0.24589,0.94721,0.20574,0.1838,1.17018,-0.53591
-0.17965,0.96331,0.19937,-0.27775,2.40871,-0.16092
-0.13931,0.97579,0.16857,-0.14293,2.4461,-0.18594
-0.12921,0.98222,0.13621,0.27656,0.296,0.13423
-0.11033,0.98922,0.09628,0.48158,0.24891,0.08771
-0.08815,0.99427,0.06036,0.48564,0.29174,0.41765
-0.06406,0.9977,0.02215,0.41129,0.15133,0.73819
-0.03671,0.9992,-0.01579,0.27853,0.25339,0.83033
-0.01093,0.99866,-0.05052,-0.50671,-0.51065,0.14462
0.01039,0.99678,-0.07953,-0.61348,-0.81666,0.12416
0.02155,0.99505,-0.09696,-0.48305,-0.92294,0.21938
0.01628,0.99455,-0.10294,-0.40404,-0.8564,0.17627
0.00284,0.99574,-0.09218,-0.31426,-0.79946,0.35952
-0.00805,0.99774,-0.06664,-0.08341,-0.81731,0.26273
-0.0161,0.99949,-0.02738,0.24336,-0.2138,-0.11033
-0.02742,0.99933,0.02437,0.23808,0.12111,-0.13488
-0.04745,0.99606,0.07488,0.40753,1.50421,0.17216
-0.06804,0.99076,0.11728,0.78574,2.10047,0.269
-0.07555,0.98504,0.15485,0.51053,0.77872,0.09477
-0.09272,0.97753,0.18932,0.43374,0.60344,0.15713
-0.11655,0.96823,0.22123,0.30732,0.38129,0.11735
-0.13497,0.95997,0.24544,0.10586,0.27374,-0.19125
-0.14515,0.95258,0.26744,0.06478,0.10003,-0.46837
-0.14885,0.94389,0.2948,0.18729,-0.18988,-0.4756
-0.14755,0.93573,0.32037,0.26632,-0.55618,-0.42457
-0.14362,0.9302,0.33778,0.28588,-0.89871,-0.41856
-0.13595,0.92881,0.34472,0.22036,-0.9977,-0.26011
-0.12496,0.93319,0.33696,0.10395,-1.062,-0.14595
-0.10641,0.94282,0.31584,0.04205,-1.06755,-0.08757
-0.07979,0.95574,0.28319,-0.00027,-0.58684,-0.06347
-0.05232,0.96741,0.24776,-0.09642,-0.19014,0.45401
-0.03172,0.97398,0.22439,-0.11702,-0.19671,0.47738
-0.03134,0.97487,0.22055,-0.32096,0.85416,1.40944
-0.05875,0.97192,0.22784,-0.23022,0.08446,0.7113
-0.08974,0.96606,0.24223,0.425,0.35062,-0.11316
-0.10282,0.95556,0.27629,1.11027,2.8162,-0.26077
-0.12341,0.92706,0.35402,-0.41606,1.10181,-0.9181
-0.14717,0.91962,0.36418,0.46721,-2.02235,-1.03032
-0.15336,0.91059,0.38381,1.1646,-2.7591,1.19052
-0.18674,0.92829,0.32156,0.69245,0.87083,-2.00935
-0.18623,0.95002,0.25054,0.51971,2.36496,-1.10217
-0.14212,0.95739,0.2514,-0.37416,2.43969,-0.01483
-0.15139,0.96075,0.23244,0.28034,-0.32245,-0.33431
-0.14586,0.96583,0.21421,0.42305,-0.44937,-0.28277
-0.11963,0.97319,0.19644,0.42617,-0.13751,-0.10356
-0.10041,0.97966,0.1737,0.15493,0.23369,-0.1163
-0.08919,0.98402,0.15411,0.10346,0.29501,-0.13638
-0.07898,0.98695,0.14033,0.05933,0.28222,-0.05451
-0.06805,0.98904,0.13099,-0.03402,-0.13902,0.16797
-0.05734,0.99061,0.12406,0.02336,-0.21646,0.12826
-0.04635,0.99161,0.12062,0.14475,-0.30599,-0.0329
-0.0339,0.99204,0.12127,0.16156,-0.31546,-0.06281
-0.02254,0.99192,0.12478,0.23569,-0.30671,-0.16213
-0.01614,0.99185,0.12633,0.13865,-0.21068,-0.34053
-0.01637,0.99156,0.12862,-0.01891,-0.18647,-0.40978
-0.02045,0.99006,0.1391,-0.43983,-0.14677,-0.48893
-0.02456,0.98772,0.15428,-0.45065,-0.51169,-0.31239
-0.0221,0.98686,0.16003,-0.2373,-0.41942,-0.27681
-0.02169,0.98679,0.16054,0.06543,0.16375,-0.26866
-0.02467,0.98617,0.16386,0.3025,0.76526,0.0763
-0.03072,0.9852,0.16865,0.44735,0.53513,0.42216
-0.03955,0.98517,0.16692,0.60422,0.46163,0.45036
-0.04929,0.98606,0.15892,0.51462,0.65452,0.23646
-0.05362,0.98583,0.15895,0.31846,0.5677,0.08115
-0.05408,0.98367,0.17162,0.08441,0.22803,0.2015
-0.05382,0.98148,0.18382,-0.01036,-0.20005,-0.0786
-0.04773,0.98025,0.19187,0.04736,-0.5849,-0.33668
-0.03377,0.97906,0.20071,0.11862,-0.61372,-0.44965
-0.01315,0.97665,0.21442,0.14464,-0.37399,-0.28103
0.01601,0.97358,0.22778,0.05929,-0.18632,-0.09576
0.05092,0.9696,0.23932,-0.03647,0.05562,-0.04688
0.0818,0.96396,0.25313,-0.27359,0.31834,-0.00073
0.10234,0.95808,0.26757,-0.30316,0.26048,-0.02162
0.11708,0.9521,0.28248,-0.34958,0.13613,-0.07601
0.13214,0.94541,0.29787,0.07641,0.01449,0.07698
0.14784,0.93931,0.30956,-0.11711,0.07419,0.15618
0.15884,0.93493,0.31727,-0.20932,0.09142,0.07202
0.16649,0.93151,0.32337,-0.32695,0.00723,-0.06777
0.17285,0.92885,0.32767,-0.33389,-0.16426,-0.07674
0.17703,0.92764,0.32886,-0.33358,-0.35131,-0.07101
0.17915,0.92812,0.32633,-0.34434,-0.39925,-0.1066
0.18038,0.93045,0.31895,-0.26616,-0.31463,-0.06539
0.17829,0.93593,0.3037,-0.2065,-0.29197,-0.01875
0.17573,0.94395,0.27943,-0.09906,-0.18789,0.02717
0.17441,0.95287,0.24823,-0.46436,0.33604,0.17428
0.17062,0.96072,0.21887,-0.72982,0.54233,0.16506
0.1586,0.96709,0.19895,-1.002,0.25688,-0.21487
0.14189,0.97162,0.18924,-0.0427,-0.58066,0.03288
0.1365,0.96964,0.20288,0.32222,-0.72698,0.38846
0.13146,0.96713,0.21766,0.50125,-0.65291,0.75935
0.11842,0.97217,0.20213,-0.23702,0.25262,-0.33442
0.10489,0.97968,0.17094,-0.45484,0.54501,-0.60471
0.09902,0.9839,0.14876,-0.9841,0.86052,-0.4542
0.10258,0.98589,0.13227,-0.59393,0.52675,0.10751
0.11519,0.98713,0.11086,-0.37024,0.39345,0.07899
0.1354,0.98775,0.07752,0.08924,0.45086,-0.06229
0.16168,0.98627,0.03351,0.0831,0.69302,0.05421
0.18482,0.98261,-0.01778,-0.11352,1.44888,0.22451
0.19788,0.97781,-0.06869,-0.17953,0.9491,0.52246
0.20674,0.97275,-0.10489,-0.2101,0.38746,0.76299
0.22397,0.967,-0.12141,-0.19109,-0.00849,0.58521
0.24482,0.96162,-0.12385,-0.41025,-0.3121,0.74574
0.26372,0.95768,-0.11532,-0.61968,-0.63639,0.56428
0.27347,0.95733,-0.09346,-0.55109,-0.89695,0.17325
0.26958,0.96018,-0.07332,-0.37248,-0.74499,0.08167
0.25636,0.96494,-0.05631,-0.54565,-0.75705,0.28982
0.23619,0.97132,-0.0273,-0.56599,-0.80834,0.39359
0.21316,0.97691,0.014,-0.27986,-0.6686,0.43705
0.19521,0.97848,0.06688,-0.19256,-0.38068,0.20346
0.176,0.97439,0.13997,-0.10068,0.10646,-0.06769
0.14704,0.96619,0.21177,0.07386,1.26562,0.41158
0.11423,0.95647,0.26853,0.29347,1.44198,0.07297
0.06923,0.94421,0.32198,0.20697,1.80423,-0.24271
0.00771,0.92346,0.38361,-0.7736,1.91347,-0.05028
-0.04631,0.88906,0.45544,-0.58823,1.52479,0.29273
-0.07331,0.85125,0.5196,-0.41297,1.26728,0.18589
-0.07819,0.81511,0.57399,-0.14457,0.39303,-0.21892
-0.06066,0.78589,0.61538,-0.03473,-0.17639,-0.35616
-0.03648,0.77137,0.63534,0.02039,-0.63193,-0.28858
-0.011,0.77023,0.63767,0.33214,-1.08875,-0.68633
0.0136,0.77945,0.62631,0.36326,-1.02302,-0.74791
0.03034,0.79849,0.60124,0.34817,-1.08142,-0.75964
0.03694,0.82339,0.56626,0.21816,-1.36775,-0.59609
0.03659,0.8489,0.52728,-0.0139,-1.41179,-0.48311
0.03404,0.87286,0.48677,-0.08595,-1.28384,-0.47327
0.02667,0.89181,0.45162,-0.07225,-0.69581,-0.21232
0.01313,0.90122,0.43316,-0.39742,0.13582,0.30128
-0.01895,0.89565,0.44435,-0.36534,0.14138,0.29008
-0.05353,0.89026,0.4523,0.20007,0.67099,-0.56066
-0.06788,0.90093,0.42861,0.35753,0.1897,-1.21544
-0.06653,0.9118,0.4052,0.5311,-0.50049,0.22527
-0.07928,0.92832,0.36323,0.50315,-0.37312,-1.40146
-0.04734,0.94237,0.33119,0.62639,1.02482,-0.29365
-0.00375,0.95633,0.29224,-0.17464,1.6553,0.2765
0.04861,0.97017,0.23748,-0.67494,0.88516,-0.3779
0.13203,0.9753,0.17707,-0.52771,1.36314,-0.44353
0.20861,0.97251,0.10348,-0.55705,1.83717,-0.27876
0.23764,0.9713,0.01021,-0.603,1.78728,0.56505
0.25872,0.96393,-0.06252,-0.09813,0.60163,1.0507
0.28266,0.95378,-0.10198,-0.22432,0.44948,1.08922
0.30986,0.94314,-0.1203,-0.48823,-0.22656,0.52637
0.33916,0.93127,-0.13305,-0.6447,-0.9006,0.23016
0.35561,0.9254,-0.13108,-0.85089,-0.85896,0.30129
0.35065,0.92869,-0.12076,-1.23739,-0.70315,0.83738
0.32422,0.93953,-0.11023,-0.93727,-0.56838,0.00179
0.28228,0.95511,-0.08986,-0.72893,-0.71444,0.40848
0.24354,0.96943,-0.02976,-0.03142,-0.97421,1.14051
0.21859,0.97494,0.04137,-0.09989,-0.4903,-0.67797
0.18604,0.97588,0.11421,-0.30616,0.34668,-0.47894
0.14676,0.9676,0.20542,-0.39772,1.32611,0.90145
0.10755,0.95247,0.285,-0.15987,1.60096,0.42908
0.09395,0.9241,0.3704,0.55139,3.54683,0.14703
0.04917,0.87923,0.47385,0.12495,2.35731,0.35919
-0.02539,0.83262,0.55325,-0.10144,1.80442,0.25842
-0.07872,0.78807,0.61052,-0.43616,0.86422,-0.49263
-0.07616,0.74086,0.66732,-0.41481,0.03889,-0.56307
-0.04171,0.70006,0.71286,-0.07061,-0.28079,-0.62117
-0.00321,0.67937,0.73378,0.42214,-1.32408,-0.74976
0.02891,0.68307,0.72977,0.49485,-0.98308,-1.02654
0.05145,0.70154,0.71076,0.30242,-1.00502,-1.21643
0.07051,0.72667,0.68335,0.23521,-1.26013,-1.28398
0.0845,0.75571,0.64943,0.26064,-1.50128,-1.06334
0.0826,0.78973,0.60785,0.17852,-1.38823,-0.80189
0.06552,0.82684,0.5586,-0.06398,-0.8693,-0.47811
0.04061,0.86329,0.50306,-0.19268,-0.04421,0.22491
0.01399,0.88272,0.46968,-0.27899,0.41855,0.53741
-0.02559,0.87903,0.47607,-0.44183,0.72276,0.44518
-0.07815,0.88364,0.46159,0.70463,0.72978,-1.35995
-0.09516,0.88034,0.46469,-0.19264,1.54221,-1.14737
-0.12797,0.88917,0.4393,0.62581,-0.29999,-0.93725
-0.15881,0.91892,0.36104,0.91068,-1.34393,-1.66487
-0.11901,0.94555,0.30293,0.07668,1.90612,-0.01861
-0.05602,0.97071,0.23362,-0.64268,2.29206,-0.50164
0.02501,0.98701,0.15865,-0.89328,1.81583,-0.31792
0.1044,0.9906,0.08838,-0.53747,2.01258,0.18118
0.14413,0.98954,-0.00569,-0.43128,1.94913,0.24568
0.16542,0.98251,-0.08548,0.14196,0.87725,0.97051
0.18499,0.97241,-0.14209,-0.03063,0.04002,0.89453
0.21536,0.96144,-0.17104,-0.13789,-0.40201,0.8503
0.25422,0.94916,-0.18561,-0.28616,-1.07339,0.31719
0.2889,0.93946,-0.18425,-1.1731,-0.93456,0.4552
0.30109,0.93681,-0.17811,-1.50152,-0.72267,0.60111
0.28433,0.94324,-0.17162,-1.21626,-0.56422,0.47852
0.25235,0.957,-0.14306,-0.44991,-0.93365,1.07301
0.22247,0.97155,-0.08122,-0.06112,-1.08101,0.89564
0.19904,0.97982,-0.0181,-0.02819,-0.92979,-0.08542
0.1721,0.9837,0.05199,-0.54743,-0.24904,0.3421
0.13417,0.98015,0.14594,-0.59731,0.25218,-0.41191
0.09407,0.96757,0.2344,-0.49687,1.49436,-0.02834
0.06211,0.94493,0.32132,0.54213,5.48552,0.50445
0.01608,0.9053,0.42446,0.61144,3.74793,0.18652
-0.04309,0.84732,0.52933,0.01371,1.27138,-0.21136
-0.09381,0.78569,0.61146,-0.40321,1.2901,-0.35284
-0.10058,0.7294,0.67664,-0.78429,0.0765,-0.66726
-0.05872,0.68533,0.72586,0.29686,-0.86022,-0.81451
-0.01014,0.66073,0.75055,0.55128,-1.15043,-0.94952
0.04334,0.6595,0.75045,0.23886,-1.10815,-1.3265
0.07429,0.67482,0.73422,0.11156,-1.15293,-1.23901
0.07608,0.70288,0.70722,0.44473,-1.39447,-1.35058
0.06362,0.7378,0.672,0.71839,-1.68495,-1.23699
0.03673,0.78096,0.6235,0.20089,-1.17787,-0.92766
0.01301,0.82835,0.56005,0.05344,-0.9317,-0.68638
-0.0001,0.87392,0.48605,-0.15222,-0.73959,-0.35359
-0.02286,0.89465,0.44616,-0.78718,1.0544,1.26476
-0.05305,0.89084,0.4512,-0.16711,0.7487,0.07398
-0.10118,0.89659,0.43113,0.10713,0.00359,-0.72914
-0.10674,0.89823,0.42636,1.24076,3.08081,1.14325
-0.12851,0.88963,0.43821,-0.40901,-0.27621,-1.9028
-0.16845,0.90537,0.38977,0.64014,-1.2073,0.80773
-0.16257,0.94305,0.2902,0.5786,-0.88557,-0.46591
-0.07218,0.97149,0.2258,-0.59853,1.92652,-1.04674
0.03905,0.98844,0.14647,-1.1839,2.75587,-1.3313
0.1121,0.99122,0.07009,-0.92427,2.40742,0.81213
0.13565,0.99026,-0.03114,0.06798,1.20485,0.8191
0.15727,0.98175,-0.10691,0.36866,1.20203,0.72588
0.17779,0.97195,-0.15396,0.18952,0.39588,1.50524
0.22176,0.95979,-0.17211,0.19992,-0.85844,0.12818
0.26468,0.94645,-0.18486,-0.07799,-1.24005,-0.27068
0.29179,0.93932,-0.18039,-1.47662,-0.85193,0.89485
0.28654,0.94197,-0.17487,-1.40264,-0.50736,0.52671
0.26037,0.95208,-0.16049,-0.99741,-0.53508,0.22387
0.22799,0.96759,-0.10857,-0.4067,-1.10475,1.31957
0.2065,0.97739,-0.04533,-0.00992,-1.15296,0.01516
0.17985,0.9835,0.01924,-0.59064,-0.50122,-0.80133
0.13398,0.98515,0.10739,-0.78684,0.6289,-0.49458
0.07694,0.97907,0.18839,-0.8766,2.55207,0.84394
0.05647,0.96116,0.27013,0.57261,4.18744,0.12066
0.06665,0.91874,0.38919,0.82843,2.18273,-0.08379
0.02284,0.86043,0.50904,0.61297,1.81122,0.60883
-0.04668,0.81648,0.57547,-0.00013,1.70461,-0.15169
-0.07308,0.76589,0.6388,-0.51348,1.36871,-0.69906
-0.03744,0.71469,0.69843,-0.25605,-0.97543,-0.93731
0.02776,0.67647,0.73594,0.23142,-1.67229,-1.11108
0.09013,0.66658,0.73996,0.33836,-2.02978,-1.26825
0.13171,0.68267,0.71876,-0.03899,-1.00368,-1.19889
0.14131,0.71516,0.68452,0.20879,-1.16561,-1.39651
0.1421,0.74675,0.64974,0.61489,-1.53637,-1.57817
0.12606,0.78557,0.60579,0.0502,-1.37093,-1.0231
0.10618,0.83582,0.53863,-0.03856,-1.06493,-0.63835
0.08495,0.88686,0.45415,-0.26705,-0.51203,0.33069
0.03001,0.91097,0.41137,0.14732,2.03887,0.53513
-0.0207,0.90878,0.41674,0.28789,1.67082,-0.32565
-0.05869,0.90758,0.41575,0.37285,-1.06035,-0.83514
-0.07544,0.8992,0.43098,-0.05884,2.75608,1.89504
-0.11969,0.8869,0.44617,-1.60071,1.33079,0.81927
-0.15543,0.91343,0.37614,1.39293,-0.98222,0.2708
-0.1356,0.95842,0.25107,0.36412,0.04265,-0.91118
-0.0387,0.98376,0.17525,-0.37704,2.04776,-0.47221
0.06755,0.99308,0.09598,-1.10907,2.61145,-0.59228
0.14017,0.98955,0.03383,-0.61851,2.10855,1.32813
0.17284,0.98307,-0.06078,-0.26865,1.70062,1.00852
0.19362,0.97376,-0.11955,-0.06837,0.85503,1.15886
0.21921,0.96278,-0.1581,-0.18503,0.49617,1.15471
0.25798,0.94933,-0.17948,-0.07661,-0.8554,0.42876
0.29737,0.93612,-0.18774,-1.10266,-1.27497,0.46185
0.31658,0.93043,-0.18459,-1.72817,-0.63372,0.79567
0.30558,0.93439,-0.18312,-1.35869,-0.43271,0.64607
0.28824,0.94426,-0.15899,-0.16396,-0.94111,1.38295
0.27634,0.95604,-0.0981,0.07343,-1.21385,0.77948
0.26316,0.96372,-0.04452,-0.01125,-1.1719,-0.11997
0.2382,0.97105,0.01758,-0.69641,-0.77745,0.17703
0.20123,0.97459,0.09837,-0.62454,-0.04925,-0.69148
0.16059,0.96896,0.18796,-0.68706,1.20815,-0.63016
0.11598,0.95595,0.26963,-0.0202,3.62161,1.05616
0.10551,0.92402,0.36748,0.80638,4.60459,0.22943
0.07289,0.87797,0.47313,0.77834,2.26433,0.29715
-6e-05,0.82817,0.56047,0.56832,1.41518,-0.16767
-0.04194,0.77945,0.62506,-0.54724,1.26123,-1.0023
-0.02214,0.72831,0.68488,-1.01047,-0.05685,-0.65524
0.03757,0.68573,0.72689,0.04417,-1.32499,-1.00031
0.10882,0.66655,0.73747,0.26584,-1.62789,-1.25201
0.15812,0.67319,0.72236,-0.21533,-0.94478,-1.30299
0.17017,0.69744,0.69614,0.30329,-0.94673,-1.42924
0.15609,0.72934,0.6661,0.71988,-1.63527,-1.39875
0.12406,0.77357,0.62144,0.4423,-1.65816,-1.28521
0.09362,0.83053,0.54905,0.17144,-1.37497,-0.96249
0.0748,0.88372,0.46199,-0.22714,-0.86035,-0.39047
0.03756,0.91605,0.39928,-0.53231,0.10718,0.83404
-0.0024,0.9164,0.40024,0.20312,1.56431,0.7982
-0.02189,0.91073,0.41241,-0.16825,-0.71449,-1.19482
-0.07171,0.92474,0.37378,0.64274,-0.93644,-2.64668
-0.10698,0.9049,0.41196,-0.38211,4.63638,2.39613
-0.14725,0.90638,0.39596,1.41249,-1.86195,2.24701
-0.18261,0.9402,0.28751,1.44785,-1.89577,2.35546
-0.14149,0.97287,0.18301,1.26626,-1.08519,-1.32517
0.00093,0.99277,0.11998,-0.30536,2.25427,-1.25325
0.1118,0.99208,0.05724,-0.93992,4.74947,-0.39561
0.14931,0.98783,-0.04354,-1.20356,2.5371,1.30782
0.18437,0.9763,-0.11335,-0.34036,1.24532,0.9038
0.21802,0.96284,-0.1594,-0.30181,0.8453,1.04444
0.25883,0.94827,-0.1838,-0.17053,-0.39372,0.6406
0.29862,0.93389,-0.19666,-0.85771,-1.37289,0.59946
0.32595,0.92692,-0.18595,-1.26988,-1.1202,0.71572
0.31972,0.92937,-0.18453,-1.50657,-0.56134,0.15001
0.29343,0.93971,-0.17562,-0.76274,-0.62266,0.89482
0.27094,0.95424,-0.12657,-0.40126,-0.83293,1.32736
0.25881,0.96344,-0.06931,0.31007,-1.23265,0.07767
0.23822,0.97117,-0.00855,-0.48457,-0.81408,0.28742
0.20698,0.97593,0.06863,-0.67936,-0.68174,0.39324
0.16893,0.97359,0.15355,-0.53501,0.14852,-0.76045
0.12778,0.95824,0.25581,-0.56142,1.0006,-0.4983
0.08457,0.93055,0.35625,-0.12096,4.0772,1.27899
0.03566,0.89719,0.4402,0.49879,5.20239,0.40085
-0.01312,0.84349,0.53699,0.47042,3.3733,0.07951
-0.07714,0.77983,0.62122,0.16998,0.90726,-0.22101
-0.09449,0.72483,0.68241,-0.68712,0.88578,-0.97281
-0.05158,0.6787,0.73259,-0.51482,-0.73182,-0.53611
-0.00064,0.65194,0.75827,0.56653,-1.46741,-0.7547
0.05897,0.65685,0.75171,0.16766,-1.27628,-1.3905
0.10369,0.67735,0.72831,-0.20643,-0.8598,-1.41917
0.12248,0.70551,0.69803,0.30648,-1.12304,-1.53385
0.11713,0.7396,0.66277,0.72896,-1.72502,-1.40098
0.09497,0.78985,0.6059,0.42941,-1.71819,-1.12983
0.07957,0.84691,0.52575,0.12865,-1.0435,-0.78997
0.07511,0.89288,0.44399,-0.15574,-0.33659,-0.33009
0.04449,0.90746,0.41777,-0.68513,1.44868,1.28941
0.01318,0.90543,0.42429,0.08878,1.27342,0.54997
-0.03018,0.90206,0.43054,0.0629,-0.13055,-0.26326
-0.07473,0.90975,0.40836,-0.57305,3.05477,0.24415
-0.12526,0.9057,0.40498,-0.88301,0.49868,-1.40725
-0.17995,0.91612,0.35825,1.36888,-1.65594,1.63282
-0.18042,0.9566,0.22883,1.05825,0.15588,-0.90014
-0.0748,0.98317,0.16667,0.18109,1.41067,-0.39991
0.0512,0.99472,0.08896,-0.77758,2.85402,-1.17191
0.14944,0.98859,0.01888,-1.13124,2.73929,0.86722
0.19244,0.97841,-0.07539,-0.91421,2.2054,0.69103
0.22475,0.96502,-0.13497,-0.55492,1.13308,1.22413
0.25523,0.95161,-0.17117,-0.32436,-0.35209,0.49241
0.29163,0.93684,-0.1931,-0.23892,-1.06045,0.64627
0.32817,0.92538,-0.18969,-0.72795,-1.26816,0.56653
0.34326,0.92368,-0.17024,-1.5034,-0.5739,0.31462
0.32811,0.92848,-0.17396,-1.34211,-0.39914,-0.17593
0.30159,0.94006,-0.15911,-0.89519,-0.51109,0.75622
0.28024,0.95363,-0.10979,0.1773,-1.14568,-0.08842
0.26109,0.96342,-0.0604,0.12826,-1.08447,-0.30813
0.23179,0.97272,0.00882,-0.37978,-1.05741,0.27312
0.19081,0.97738,0.09118,-0.47081,0.07964,-0.78024
0.14393,0.9715,0.18833,-0.45279,0.55078,-0.84873
0.09223,0.95693,0.27529,-0.46704,2.12143,1.17309
0.04676,0.92496,0.37716,0.92412,4.69706,0.33838
-0.01329,0.87487,0.48417,0.99622,3.12412,0.16496
-0.09217,0.81454,0.57274,0.25497,0.91169,-0.18726
-0.12634,0.75061,0.64856,-0.37932,1.0367,-0.88595
-0.09988,0.69303,0.71395,-0.89553,-0.83727,-0.51257
-0.04149,0.65796,0.75191,0.68251,-1.27969,-1.06658
0.02024,0.65825,0.75252,0.75268,-1.31702,-1.13576
0.05413,0.67935,0.73181,0.04598,-1.11608,-1.32107
0.05303,0.71342,0.69873,0.60066,-1.34867,-1.628
0.04187,0.75382,0.65575,0.5616,-1.864,-1.66681
0.02678,0.80776,0.5889,0.26501,-1.50676,-1.21691
0.02494,0.86144,0.50724,0.00899,-0.82392,-0.45316
0.01595,0.89874,0.43819,-0.57955,0.39838,0.91783
-0.0213,0.90513,0.42459,-0.16073,1.76377,0.85924
-0.05718,0.90709,0.41703,0.0642,0.58064,-0.05389
-0.11322,0.90692,0.40581,0.78799,-0.50668,-1.87027
-0.13277,0.89583,0.42411,1.94011,3.19316,0.05824
-0.16531,0.89948,0.40447,0.24991,-2.04131,0.0496
-0.22516,0.90871,0.35149,1.1627,-1.80539,0.17433
-0.22054,0.94008,0.26002,1.48783,-1.62576,-1.27513
-0.12414,0.97475,0.1856,-0.03548,1.47436,-0.28943
-0.01694,0.9947,0.10136,-1.24563,2.75792,-1.13522
0.08939,0.99481,0.04861,-1.41449,2.64656,-0.53645
0.14589,0.98782,-0.05407,-0.41261,2.46601,0.68728
0.17489,0.97705,-0.1216,0.32053,0.84888,1.34629
0.21282,0.96314,-0.16453,0.23479,0.34137,0.93376
0.2569,0.94722,-0.19178,-0.04058,-1.00874,0.39551
0.29593,0.93505,-0.19522,-1.33063,-0.94466,0.63847
0.31875,0.93101,-0.1778,-1.71281,-0.86111,0.38968
0.30464,0.93733,-0.16913,-1.57408,-0.63498,0.22582
0.27467,0.95129,-0.13999,-0.59825,-0.64262,1.40291
0.24788,0.96584,-0.07555,-0.05497,-1.01053,0.79128
0.22765,0.97358,-0.01752,-0.11272,-0.98901,-0.11222
0.20026,0.97796,0.05907,-0.5559,-0.54647,0.07107
0.16286,0.97465,0.15342,-0.52409,-0.12113,-0.47619
0.11528,0.96078,0.25219,-0.34961,0.82204,-0.27607
0.06413,0.9382,0.34009,-0.08382,3.02408,0.78169
0.02156,0.89884,0.43774,0.60099,5.64424,0.41629
-0.03957,0.83996,0.5412,0.82047,2.52534,-0.04407
-0.10823,0.77721,0.61986,-0.34102,0.54132,-0.67246
-0.11554,0.7134,0.69116,-0.79981,0.57998,-0.85789
-0.06442,0.66499,0.74406,-1.01199,-0.65822,-0.66864
-0.00176,0.64221,0.76652,0.68966,-1.1183,-0.91409
0.05661,0.64863,0.75899,0.53066,-1.05177,-1.19892
0.09005,0.66744,0.73919,-0.10873,-0.9931,-1.41639
0.08863,0.6966,0.71196,0.44393,-1.51764,-1.5152
0.0636,0.73562,0.67439,0.76294,-1.82786,-1.50174
0.03181,0.78914,0.61338,0.56856,-1.39428,-1.18334
0.00933,0.84465,0.53523,0.40861,-1.06165,-0.85944
-0.00526,0.89033,0.45529,-0.40778,0.00083,0.24906
-0.03694,0.9019,0.43035,-0.5109,1.65544,1.44023
-0.05618,0.90051,0.43118,-0.24393,0.54155,0.04735
-0.09916,0.91309,0.39552,0.10963,-1.7121,-2.17083
-0.12749,0.93727,0.32444,0.28901,6.14793,4.75647
-0.14364,0.91063,0.38744,-1.97402,5.20608,-1.844
-0.17763,0.92338,0.34032,-0.341,-0.31189,-3.39334
-0.20726,0.95922,0.19216,1.30691,-2.0408,-1.85546
-0.14984,0.9818,0.11665,0.49771,-0.12348,-1.61981
-0.00177,0.99882,0.04856,-0.15151,1.17324,-1.62019
0.09539,0.99517,-0.0231,-1.32006,5.12411,1.2549
0.11795,0.98571,-0.12022,-0.67033,1.98832,1.07368
0.14616,0.97284,-0.17951,-0.03952,1.23456,1.13539
0.18346,0.95978,-0.2125,0.32932,-0.08104,1.23832
0.23833,0.94465,-0.22544,0.1866,-1.15039,0.20209
0.28647,0.93088,-0.22672,-0.42001,-1.21494,0.22151
0.30689,0.92521,-0.22315,-1.84218,-0.77635,0.23234
0.28541,0.93217,-0.22269,-1.19444,-0.56738,0.59153
0.25742,0.94681,-0.19308,-0.85492,-0.66378,0.68214
0.23913,0.96211,-0.13096,0.16736,-1.1478,0.52328
0.2211,0.97257,-0.07228,-0.30397,-0.8356,0.24533
0.19229,0.98134,0.00107,-0.50401,-0.693,0.50481
0.15265,0.98415,0.09024,-0.58565,-0.16626,-0.15985
0.10582,0.97621,0.18925,-0.5477,0.67284,-0.8982
0.05622,0.9531,0.29738,-0.31485,3.08143,0.87025
0.00902,0.91753,0.39755,0.74741,6.06216,0.7339
-0.03674,0.86438,0.5015,0.60152,2.1482,-0.08577
-0.09904,0.80217,0.58882,0.38438,0.99169,0.13947
-0.1272,0.75125,0.64764,-0.61362,0.84697,-0.76159
-0.08947,0.7145,0.69388,-1.022,-0.24212,-0.99115
-0.0426,0.69618,0.7166,0.51738,-1.09512,-0.60472
0.02084,0.70124,0.71261,0.92044,-1.40516,-1.23768
0.07412,0.72066,0.68931,0.0237,-1.61516,-1.35246
0.08923,0.74672,0.65912,-0.10909,-1.41074,-1.26365
0.07404,0.78166,0.61929,0.32543,-1.55477,-1.44113
0.05387,0.82988,0.55534,0.45003,-1.07225,-1.1661
0.04858,0.87583,0.48016,0.29113,-0.86363,-0.85287
0.03879,0.89738,0.43954,-0.16683,-0.02295,0.42882
0.00172,0.89804,0.43991,0.00174,1.39241,0.80686
-0.03725,0.89344,0.44763,-0.07193,0.56672,0.40141
-0.09178,0.89763,0.43107,0.68915,-1.17609,-1.74275
-0.07781,0.87953,0.46943,-0.55231,3.73274,2.31176
-0.13643,0.89331,0.42823,-0.2487,-1.02383,-1.63545
-0.17065,0.9178,0.35848,0.75882,-1.63498,-0.88796
-0.13791,0.95319,0.26908,0.82442,-1.43993,-1.07296
-0.01568,0.98018,0.19746,-0.75674,2.10777,-1.11461
0.11491,0.98756,0.1073,-1.33559,3.85341,-1.03278
0.16969,0.98535,0.01673,-1.45815,4.07165,0.56203
0.19136,0.97795,-0.08365,-0.00621,1.06286,0.7132
0.21127,0.96555,-0.15192,0.21377,0.73405,1.55722
0.24366,0.95136,-0.18853,0.68805,-0.71778,0.91429
0.28849,0.93338,-0.21347,0.32572,-1.59584,0.05634
0.32714,0.92139,-0.20981,-1.13281,-0.84992,0.52464
0.3404,0.91878,-0.19992,-1.48704,-0.44728,0.57334
0.32677,0.92455,-0.19601,-0.8581,-0.43616,0.3739
0.30779,0.93709,-0.16469,-0.18377,-0.97829,1.20838
0.2954,0.95,-0.10116,0.07966,-1.13767,0.52758
0.28269,0.95839,-0.03972,0.01434,-1.09866,-0.07826
0.26007,0.96484,0.03789,-0.85345,-0.61093,0.36172
0.22192,0.96668,0.12756,-0.92482,0.01904,-0.81432
0.18211,0.95739,0.22411,-0.96025,0.44512,-1.0729
0.14369,0.94267,0.30119,-0.58835,5.19985,1.2294
0.13822,0.90742,0.39684,0.27416,4.05291,-0.0717
0.10393,0.85876,0.50172,0.47459,2.62992,0.1297
0.0363,0.81928,0.57224,0.07866,1.09422,-0.27195
0.01902,0.78063,0.6247,-0.67054,1.06709,-0.96651
0.03444,0.7444,0.66684,-0.81776,0.64465,-0.69844
0.07786,0.71966,0.68994,0.67718,-1.27542,-1.05422
0.1375,0.7178,0.68253,0.57568,-1.85692,-1.35221
0.17652,0.72896,0.6614,-0.07656,-1.62381,-1.35818
0.18916,0.74788,0.6363,0.15587,-1.11811,-1.621
0.1809,0.7719,0.60945,0.70666,-1.53318,-1.36535
0.15766,0.81296,0.56056,0.33284,-1.23741,-1.02641
0.14464,0.86307,0.48392,0.27384,-1.09914,-0.67415
0.13614,0.89928,0.41563,-0.08872,-0.39141,-0.09199
0.08528,0.90832,0.40948,-0.7122,1.55541,1.14896
0.05307,0.90152,0.42946,-0.05232,1.00557,0.3097
0.00235,0.9106,0.41327,0.15777,-1.49976,-1.3024
-0.01844,0.90516,0.42466,2.3458,0.8498,-2.01685
-0.04982,0.90059,0.43179,-2.35283,3.59132,-1.16491
-0.0717,0.92492,0.37331,0.69933,-2.06848,1.96317
-0.06799,0.96724,0.24458,0.77007,-1.97845,-2.27261
0.04847,0.98269,0.17877,-0.15212,0.3464,-1.31636
0.18323,0.97796,0.10003,-1.01618,4.02335,-1.39945
0.19776,0.98023,0.00503,-0.91341,4.46813,1.81848
0.20944,0.97426,-0.08339,-0.0493,0.96729,1.23126
0.22988,0.96411,-0.13279,0.08374,0.70753,1.38355
0.2678,0.9503,-0.15878,0.1463,-0.39737,0.87173
0.31348,0.93273,-0.17817,-0.04858,-1.4847,-0.20521
0.34362,0.91997,-0.18862,-1.61055,-0.64638,0.79818
0.34124,0.92019,-0.19182,-1.58469,-0.42491,0.8868
0.32377,0.92915,-0.17849,-0.94404,-0.48428,0.50506
0.30654,0.94309,-0.12885,-0.13841,-1.00307,1.20116
0.29493,0.95328,-0.06532,0.06732,-1.18414,0.51834
0.27271,0.96209,0.00363,-0.28364,-0.85141,-0.202
0.23255,0.96845,0.0895,-0.73147,0.09281,-0.80636
0.18441,0.96535,0.18463,-1.03042,1.29703,0.47982
0.14403,0.95424,0.26207,0.48997,4.39627,0.31956
0.12652,0.92025,0.37031,0.67072,4.0375,0.16419
0.08131,0.86399,0.4969,0.7681,3.35628,0.21975
0.01804,0.81215,0.58316,-0.24941,1.15727,-0.06317
0.00462,0.75494,0.65577,-0.85867,0.85444,-0.65597
0.04405,0.69956,0.71321,-0.9991,0.48973,-0.58018
0.11115,0.66401,0.73941,0.51172,-1.44696,-0.95172
0.16554,0.6604,0.73243,0.26688,-1.42094,-1.11161
0.19172,0.67478,0.71267,-0.1679,-1.03979,-1.30155
0.19805,0.69944,0.68669,0.3146,-1.21686,-1.87365
0.18105,0.73081,0.65813,0.44098,-1.78995,-1.75011
0.15066,0.78093,0.60617,0.43974,-1.90253,-1.63585
0.13143,0.83708,0.53104,0.16774,-1.01648,-0.75333
0.10926,0.88433,0.45389,-0.37086,-0.34321,0.37851
0.06214,0.89949,0.43249,-0.74387,0.41992,1.00945
0.04295,0.89492,0.44414,0.01868,1.21403,-0.03031
0.00575,0.89951,0.43685,-0.07704,-0.79191,-1.15139
-0.02348,0.91396,0.40512,1.91739,0.19012,-1.89661
-0.04761,0.89941,0.43449,-1.79662,3.59273,0.47052
-0.07583,0.91974,0.38512,0.7077,-1.73638,1.85966
-0.09252,0.96417,0.24859,0.80441,-1.99051,-1.89564
-0.00291,0.98618,0.16561,-0.06662,-0.03504,-1.01165
0.12757,0.98945,0.06859,-1.12046,2.57985,-1.38976
0.21729,0.97592,-0.01877,-1.15782,4.76285,0.30275
0.23062,0.96412,-0.13144,-0.70567,2.45762,1.21546
0.2397,0.94915,-0.2041,0.19588,0.65084,1.5892
0.26824,0.93146,-0.24579,0.46807,-0.19944,1.04677
0.3122,0.91166,-0.26722,0.97021,-1.57473,0.31102
0.34962,0.90148,-0.25513,-1.06797,-0.69744,0.91543
0.35429,0.9033,-0.24191,-1.70459,-0.55454,0.32308
0.32609,0.91741,-0.22806,-1.44481,-0.47607,0.24546
0.30026,0.9381,-0.17265,-0.64039,-0.86602,1.41104
0.28417,0.95203,-0.11352,0.21811,-1.27249,-0.04994
0.25859,0.96489,-0.04604,-0.18504,-0.89598,0.0154
0.21977,0.97461,0.04271,-0.70351,-0.33943,0.05507
0.16662,0.9764,0.13734,-0.62294,0.0085,-0.58927
0.11162,0.96007,0.2565,-0.56163,0.81761,-0.68948
0.0536,0.92954,0.3648,-0.12583,5.86334,1.29583
0.00113,0.87857,0.4776,0.2602,6.18429,0.55988
-0.06429,0.80738,0.58651,0.332,2.48417,-0.19593
-0.12314,0.74164,0.65939,-0.09479,0.47697,-0.22932
-0.09636,0.69106,0.71634,-0.99355,-0.18162,-0.75956
-0.0529,0.66807,0.74221,0.50771,-0.9422,-0.66362
0.01361,0.67133,0.74103,0.59088,-0.85704,-0.97243
0.07424,0.68844,0.72148,0.20272,-1.21535,-1.29704
0.10285,0.71205,0.69455,0.20357,-1.29478,-1.45805
0.11127,0.74062,0.66264,0.25846,-1.43344,-1.78647
0.10212,0.77983,0.6176,0.77653,-1.84225,-1.6064
0.08615,0.82339,0.5609,0.36275,-0.82235,-1.03645
0.06525,0.86879,0.49086,0.20039,-0.13515,-0.19847
0.02615,0.89029,0.45464,-0.20126,1.485,1.54759
0.00518,0.896,0.44401,-0.56916,1.61097,0.51519
-0.04721,0.90303,0.42697,-0.60562,-0.51098,-0.77213
-0.10434,0.91761,0.38354,1.52588,0.77012,-2.73943
-0.13242,0.90285,0.40906,0.61264,-1.16141,1.01646
-0.17568,0.92294,0.34252,1.20683,-2.18559,1.87678
-0.17436,0.96272,0.20681,1.46898,-2.11027,-1.75182
-0.05696,0.9889,0.13719,-0.27813,1.30608,-0.79235
0.08981,0.99457,0.05249,-1.40985,3.272,-1.24138
0.17845,0.98389,-0.01052,-1.6989,4.14854,-0.63689
0.20197,0.97454,-0.09731,-0.65943,1.30683,1.15859
0.22173,0.96408,-0.1462,0.07772,0.62433,1.32056
0.25257,0.95075,-0.17969,0.04565,0.42689,1.33858
0.30134,0.93263,-0.19845,-0.11358,-1.56186,0.18873
0.33379,0.91812,-0.21363,-1.81039,-0.91603,0.70909
0.33174,0.91659,-0.22316,-1.80835,-0.9145,0.71861
0.30885,0.92513,-0.22079,-0.78448,-0.45813,0.56599
0.29115,0.93851,-0.18555,0.18988,-1.06947,0.7717
0.27953,0.95069,-0.1343,0.09009,-1.20318,0.26292
0.25448,0.96417,-0.07493,-0.47734,-0.92646,0.19874
0.21597,0.97639,-0.00245,-0.71704,-0.63795,0.40455
0.16808,0.98236,0.08188,-0.57848,-0.12415,-0.20855
0.11544,0.97527,0.18848,-0.59098,0.57625,-1.02638
0.04528,0.94983,0.30944,-0.69507,3.26814,0.80066
-0.01218,0.9115,0.41111,0.22294,6.89413,1.06561
-0.05673,0.85295,0.51889,0.53376,2.39772,-0.20119
-0.12488,0.78995,0.60031,0.674,0.80866,-0.36697
-0.14172,0.73232,0.66605,-0.45071,0.67953,-0.97409
-0.09988,0.69118,0.71574,-1.04172,-0.46882,-0.73464
-0.05357,0.6817,0.72966,1.0405,-1.28032,-0.76312
0.01721,0.69483,0.71897,0.85448,-1.30898,-1.71741
0.0621,0.71167,0.69976,-0.23971,-1.43225,-1.73432
0.06123,0.74014,0.66966,0.55175,-1.74622,-1.7338
0.03692,0.79331,0.6077,0.74165,-2.00147,-1.68219
0.01331,0.85714,0.51491,0.86258,-1.59582,-1.21863
0.0104,0.91025,0.41392,0.3222,-0.51578,-0.34527
-0.00324,0.93197,0.36251,-0.18836,0.16883,0.20679
-0.0363,0.93276,0.35866,-0.52733,2.19523,0.77505
-0.06049,0.93233,0.35651,-0.37405,0.8649,0.18792
-0.11466,0.9448,0.30693,0.97362,-1.6006,-2.94574
-0.10591,0.93154,0.34786,2.0398,4.13276,1.0135
-0.14773,0.92905,0.33918,-1.24221,4.77455,2.6349
-0.18602,0.9508,0.24772,0.83944,-2.32103,0.29217
-0.16444,0.98028,0.10955,0.95702,-1.34466,-1.48232
-0.03263,0.9983,0.04819,-0.72393,2.01293,-1.42687
0.10237,0.99465,-0.01378,-1.49109,4.5581,-0.45558
0.15124,0.98373,-0.0969,-0.48637,1.37012,0.95441
0.18189,0.96765,-0.17482,0.03407,0.94501,0.9846
0.21599,0.95089,-0.2217,0.03583,0.83781,1.30411
0.26133,0.9331,-0.24702,0.21329,-0.76356,0.67176
0.30204,0.9156,-0.2654,0.14836,-1.79845,0.43497
0.33636,0.9062,-0.25622,-0.85257,-1.29569,0.59159
0.33088,0.90549,-0.26571,-1.80219,-0.43053,0.47363
0.30091,0.91609,-0.265,-1.09138,-0.41803,0.69651
0.28084,0.93294,-0.22529,-0.67672,-0.62779,1.05185
0.2681,0.94684,-0.17779,0.2604,-1.13156,0.06824
0.24527,0.96241,-0.11664,-0.50697,-0.81322,0.45916
0.20973,0.97699,-0.03865,-0.68495,-0.41858,-0.01974
0.16234,0.9853,0.05307,-0.50119,0.27126,-0.86601
0.10466,0.98208,0.15671,-0.74172,1.69529,0.52714
0.04959,0.96469,0.25867,0.30713,5.86335,1.05818
0.00517,0.92739,0.37404,0.87094,3.80026,0.20561
-0.0727,0.87822,0.47268,0.94323,1.89518,0.1709
-0.14133,0.8282,0.54232,-0.10094,0.99195,-0.59926
-0.15285,0.77202,0.61693,-0.82722,0.74461,-0.89752
-0.11526,0.73193,0.67156,-0.45757,-0.89935,-0.6866
-0.06402,0.71691,0.69422,0.79074,-1.50865,-1.09046
-0.00898,0.72193,0.6919,0.44064,-1.56099,-1.68069
0.00884,0.73602,0.67689,0.20863,-1.32579,-1.60551
0.00068,0.76056,0.64926,0.85381,-1.7209,-1.87216
-0.0169,0.80401,0.59437,0.73196,-1.96551,-1.46073
-0.03211,0.8609,0.50774,0.36088,-1.47762,-1.03851
-0.03185,0.91298,0.40676,0.08135,-0.94255,-0.36284
-0.0514,0.938,0.34278,-0.70126,0.11844,0.8953
-0.07499,0.9389,0.33592,0.16108,1.68408,0.21306
-0.09084,0.93655,0.33855,0.30692,0.85876,-0.19959
-0.13606,0.93725,0.32098,1.06142,-0.17274,-0.85469
-0.16606,0.92359,0.34553,-1.77855,3.3652,-0.57162
-0.22312,0.92901,0.29522,-0.20286,-1.01928,-2.44996
-0.25829,0.94966,0.17724,1.729,-2.25176,0.76361
-0.17393,0.97976,0.09899,0.54778,0.43529,-1.59955
-0.01857,0.99956,0.02295,-0.82396,2.77458,-1.78769
0.09185,0.99496,-0.04011,-1.74169,4.34185,1.0121
0.13011,0.98258,-0.13271,-1.71159,2.91627,1.56156
0.16317,0.96647,-0.19824,-0.12492,0.82846,1.09995
0.19913,0.94974,-0.24152,-0.2265,0.6352,1.17434
0.24625,0.93334,-0.26122,-0.15354,-0.09825,0.89761
0.28458,0.91874,-0.27373,-0.74134,-1.08933,0.72055
0.3076,0.91166,-0.27248,-1.66316,-0.67233,0.47949
0.29148,0.91718,-0.27168,-1.30634,-0.57638,0.57619
0.26623,0.93183,-0.24659,-0.72247,-0.7094,0.76778
0.24708,0.94975,-0.19215,0.00125,-1.07119,0.71086
0.22825,0.9639,-0.13712,-0.09979,-1.06592,-0.00259
0.19851,0.9777,-0.06855,-0.57604,-0.75631,0.22266
0.15588,0.98762,0.01716,-0.35831,0.14224,-0.61226
0.10148,0.98807,0.11578,-0.34106,0.604,-0.43452
0.03715,0.97695,0.21018,-0.30929,1.29006,0.37071
-0.02,0.95033,0.31059,0.62684,5.81205,0.68212
-0.08051,0.90483,0.41808,0.83952,2.91113,0.30285
-0.15929,0.84874,0.50424,0.81911,1.85746,0.10382
-0.19149,0.78774,0.58547,-0.80437,0.91358,-1.05208
-0.1537,0.73367,0.66188,-1.05462,-0.68914,-0.83564
-0.09319,0.70068,0.70736,-0.29251,-1.01555,-0.83892
-0.03211,0.70044,0.71298,0.88935,-1.2149,-1.25111
0.00988,0.71502,0.69903,0.058,-1.08938,-1.54003
0.01303,0.73959,0.67292,0.35913,-1.31295,-1.64256
-0.00706,0.7741,0.63301,0.90808,-1.86893,-1.64816
-0.03185,0.82404,0.56562,0.32465,-1.46158,-1.24026
-0.04138,0.8805,0.47223,0.1434,-1.14696,-0.83314
-0.04243,0.92689,0.37291,-0.23179,-0.62839,-0.00605
-0.07341,0.94252,0.32598,-0.67804,1.04785,1.5049
-0.09204,0.94383,0.31735,0.32412,2.25162,0.5862
-0.12332,0.94342,0.30781,0.22841,-0.1892,-0.43322
-0.15918,0.94875,0.27299,3.0138,2.01005,-0.11874
-0.18225,0.93168,0.31425,-0.23072,5.51556,2.58053
-0.23683,0.93615,0.25986,0.02086,-1.55744,-1.61388
-0.24035,0.96124,0.13504,1.38855,-2.33798,-0.46942
-0.13443,0.98919,0.05856,0.65387,-0.86113,-1.42646
0.01903,0.99966,-0.01746,-0.84999,2.40161,-1.39062
0.10855,0.98991,-0.09103,-1.66672,4.28179,1.78564
0.14153,0.97082,-0.19356,-1.05018,2.53017,0.83481
0.16936,0.95186,-0.2555,0.09254,1.10861,1.30448
0.20894,0.93372,-0.29069,0.39725,-0.43731,1.03883
0.26075,0.91603,-0.30478,0.70993,-1.27509,0.80365
0.30403,0.90427,-0.29975,-0.84819,-0.94669,0.57329
0.31174,0.90364,-0.29367,-2.17877,-0.40439,0.48266
0.27613,0.91638,-0.28982,-1.63111,-0.43893,0.30035
0.24272,0.93786,-0.248,-0.28832,-1.02879,1.4238
0.22335,0.9569,-0.18561,0.19486,-1.2009,0.73532
0.19887,0.9729,-0.11797,-0.26049,-0.72352,0.33425
0.16208,0.98643,-0.02608,-0.57335,-0.15338,-0.30899
0.1085,0.99096,0.07882,-0.48522,0.264,-0.59469
0.05405,0.98291,0.17592,-0.35834,2.94342,0.68129
0.01012,0.95404,0.29949,0.57053,4.9193,0.30091
-0.05472,0.90365,0.42475,0.7373,2.89844,0.16241
-0.12672,0.84272,0.52322,0.14003,1.40811,0.06002
-0.16421,0.78012,0.60368,-0.68141,1.23525,-0.76106
-0.14361,0.72081,0.67808,-0.85813,-0.06343,-0.87342
-0.08846,0.68275,0.72526,0.37832,-1.41432,-0.68138
-0.02785,0.67524,0.73706,0.80178,-1.28554,-1.28225
0.01636,0.68366,0.72961,-0.09936,-1.02242,-1.56857
0.02802,0.70358,0.71005,0.26777,-1.14935,-1.69948
0.01295,0.7328,0.68031,0.88074,-1.63316,-2.00016
-0.01787,0.77994,0.62558,0.7367,-1.83454,-1.62769
-0.04148,0.84004,0.54093,0.33261,-1.27017,-0.98735
-0.04856,0.89801,0.43727,-0.08004,-0.70366,-0.17968
-0.06637,0.92485,0.37448,-0.98701,0.6665,0.93998
-0.07882,0.92193,0.37923,-0.27765,1.79634,0.61978
-0.10577,0.9207,0.37566,0.02578,0.0817,-0.28485
-0.15993,0.93789,0.30787,3.07953,0.66844,-0.67534
-0.1392,0.91178,0.38637,0.89951,5.32948,2.81427
-0.19636,0.92751,0.31806,-0.36244,-1.22615,-2.55878
-0.21675,0.95593,0.19801,1.28722,-2.18005,-1.6017
-0.14583,0.98134,0.12528,0.77075,-1.49571,-1.26667
0.01599,0.99788,0.06296,-0.71175,2.27879,-1.25107
0.12198,0.99249,-0.0086,-1.35747,5.53978,-0.06821
0.15223,0.98235,-0.10869,-1.08073,1.9342,1.11498
0.18756,0.96622,-0.17675,0.26791,0.85225,0.93621
0.22551,0.94976,-0.21702,0.29317,0.51757,1.38658
0.27402,0.9307,-0.24229,0.76352,-1.2307,0.38531
0.31303,0.91611,-0.25049,-0.95819,-0.95911,0.64486
0.32368,0.91381,-0.24531,-2.068,-0.61117,0.66556
0.29339,0.92765,-0.23107,-1.55463,-0.44736,0.49755
0.26195,0.94752,-0.18325,-0.65739,-0.76777,0.85721
0.24252,0.96252,-0.12133,0.12408,-1.22548,0.54601
0.21923,0.97394,-0.05802,-0.33161,-0.97356,-0.08857
0.1775,0.9837,0.02861,-0.71913,-0.6443,0.17421
0.1223,0.98478,0.12344,-0.6048,0.50274,-0.79999
0.0635,0.97147,0.22848,-0.62313,1.15051,-0.12397
0.01947,0.94324,0.33153,0.03887,5.16428,1.19889
-0.01697,0.89732,0.44103,0.7344,2.51377,0.23995
-0.09325,0.83618,0.54045,0.85808,1.74931,0.07158
-0.15262,0.78066,0.60602,-0.44592,0.95666,-0.91736
-0.1405,0.72603,0.67314,-0.84557,0.796,-0.95312
-0.09033,0.68997,0.71816,-0.85715,-0.90793,-0.66621
-0.02519,0.68529,0.72782,0.82662,-1.33385,-1.20507
0.03265,0.69776,0.71557,0.28359,-1.23791,-1.50735
0.0539,0.71667,0.69532,-0.26037,-1.00517,-1.59702
0.04376,0.74421,0.66649,0.83305,-1.94015,-1.60914
0.01718,0.79293,0.60905,0.85963,-1.98887,-1.5517
-0.00204,0.85295,0.52197,0.5172,-1.57869,-1.13398
-0.00657,0.90419,0.42706,-0.05704,-0.61537,-0.1958
-0.03243,0.92536,0.37767,-1.00622,1.16179,1.1681
-0.05648,0.92352,0.37935,-0.05445,1.73383,0.45507
-0.08807,0.91626,0.39078,0.61105,0.62599,-0.01071
-0.12386,0.89261,0.43347,2.03381,4.83586,-0.34131
-0.17647,0.89443,0.4109,-0.4036,-1.77514,-2.38746
-0.22312,0.915,0.33611,1.53652,-3.60595,1.66128
-0.22037,0.94985,0.22184,0.86711,-1.77919,-2.2865
-0.10066,0.98169,0.16172,-0.74316,2.7881,-0.78899
0.03371,0.99638,0.07794,-1.56413,3.21902,-0.74569
