gravity.x,gravity.y,gravity.z,userAcceleration.x,userAcceleration.y,userAcceleration.z
0.05989,0.97187,-0.22774,-0.68879,0.52764,0.27755
0.06225,0.97802,-0.19896,0.36117,-0.55754,0.0524
0.04934,0.98181,-0.18332,0.5164,-0.51129,0.10361
0.02444,0.98445,-0.17394,0.33059,-0.24725,0.16351
0.00045,0.98634,-0.16471,0.12417,0.06643,0.02283
-0.01346,0.98868,-0.14939,0.05114,0.08639,0.09292
-0.01777,0.99172,-0.12715,-0.03857,-0.08827,0.05442
-0.02228,0.99444,-0.10283,-0.04051,-0.18357,-0.03361
-0.02875,0.99622,-0.08184,-0.00271,-0.22077,-0.02212
-0.03462,0.99738,-0.06343,0.07156,-0.28862,0.16235
-0.03844,0.99816,-0.04667,-0.00445,-0.32607,0.15894
-0.0434,0.99866,-0.02789,-0.16269,-0.31296,0.01733
-0.05232,0.99858,-0.00907,-0.16763,-0.15103,-0.03987
-0.05868,0.99826,0.00301,0.00473,-0.01125,0.13227
-0.06008,0.99812,0.01137,0.10749,0.00806,0.0429
-0.05781,0.99802,0.02458,0.13052,0.04774,0.04262
-0.05517,0.99781,0.03632,0.10433,0.29676,-0.11849
-0.0564,0.99751,0.04204,0.1072,0.31548,-0.1182
-0.06127,0.99695,0.04816,0.11125,0.35078,-0.17183
-0.06578,0.99642,0.05288,0.11657,0.34798,-0.1523
-0.06821,0.99617,0.05456,0.01618,0.36743,-0.07764
-0.07002,0.99604,0.05462,-0.0889,0.38328,-0.0073
-0.06825,0.99634,0.05135,-0.29517,0.50539,0.0252
-0.05998,0.99721,0.04414,-0.28032,0.54375,0.06155
-0.0453,0.99855,0.02892,-0.26824,0.3275,0.04951
-0.02666,0.99964,0.00171,-0.21639,-0.0621,-0.16323
-0.00438,0.99936,-0.03514,0.02728,-0.06174,-0.01275
0.02842,0.99672,-0.07567,0.05626,-0.00726,-0.04939
0.07338,0.99065,-0.11498,-0.02418,0.1861,-0.06399
0.11953,0.98068,-0.15479,-0.15322,0.11064,-0.11942
0.14852,0.96939,-0.19551,-0.23396,-0.04196,0.01497
0.163,0.95985,-0.22829,-0.20849,-0.16918,0.27468
0.17157,0.95215,-0.25291,-0.05924,-0.21083,0.06054
0.1884,0.94257,-0.27579,-0.07822,-0.12483,0.00929
0.21608,0.92872,-0.30128,-0.18129,-0.05375,0.03437
0.24245,0.91135,-0.33265,0.04776,-0.25481,-0.00358
0.268,0.89366,-0.35991,0.0644,-0.3226,0.09045
0.28436,0.87974,-0.38104,-0.04246,-0.33621,0.20129
0.29002,0.87106,-0.39639,-0.1091,-0.15434,0.10524
0.29126,0.86631,-0.4058,-0.11903,-0.08468,0.02143
0.28614,0.86386,-0.41457,-0.0816,-0.03088,-0.05064
0.27418,0.86412,-0.42205,-0.05273,-0.09161,-0.03381
0.26043,0.86642,-0.42602,-0.01134,-0.07216,-0.00013
0.24918,0.8712,-0.42297,0.09859,-0.06383,-0.01207
0.23925,0.88302,-0.40376,0.19152,-0.04234,0.0418
0.21603,0.90284,-0.37175,0.15062,-0.0305,0.18117
0.18037,0.91999,-0.34797,-0.53427,1.0404,0.42292
0.13419,0.9387,-0.31753,-0.76131,1.09618,0.35156
0.10527,0.9538,-0.28139,-0.88036,0.95953,0.27033
0.0945,0.96467,-0.24589,0.07086,-0.34157,0.14321
0.07678,0.97229,-0.22079,0.07596,-0.4518,0.11982
0.05134,0.97743,-0.20491,0.03608,-0.03264,0.13511
0.0244,0.98074,-0.19375,0.03237,0.12953,0.10047
0.0031,0.98354,-0.18065,0.0704,0.04999,0.13267
-0.00943,0.987,-0.16037,0.07612,-0.06122,0.12951
-0.01599,0.99067,-0.1353,0.02154,-0.24859,0.00643
-0.02145,0.99374,-0.10962,0.03463,-0.41497,0.04356
-0.02438,0.99604,-0.08548,0.05471,-0.44228,0.0632
-0.02521,0.99763,-0.06387,0.13805,-0.36584,0.11724
-0.02736,0.99862,-0.04468,0.12259,-0.30047,0.05217
-0.03376,0.99911,-0.02515,0.0997,-0.27225,0.04601
-0.04178,0.9991,-0.00633,-0.02178,-0.17064,-0.00032
-0.04576,0.9989,0.00943,-0.09595,-0.09497,-0.1789
-0.04652,0.99863,0.02351,-0.09764,-0.05791,-0.12208
-0.04619,0.99839,0.03283,0.15511,0.04176,0.04612
-0.04587,0.99815,0.03981,0.13579,0.06568,-0.0392
-0.04375,0.99799,0.04576,0.14945,0.10795,-0.01306
-0.04067,0.99784,0.05145,0.05819,0.24711,-0.00736
-0.03983,0.99754,0.05761,-0.02255,0.51809,-0.16171
-0.04106,0.99711,0.06386,-0.02132,0.51852,-0.16795
-0.04368,0.99698,0.06412,-0.01288,0.42673,-0.02661
-0.04516,0.99715,0.06033,-0.23292,0.3992,0.17893
-0.04372,0.99765,0.05263,-0.31189,0.50932,0.14497
-0.03506,0.99853,0.04118,-0.36655,0.57305,0.10872
-0.02012,0.99952,0.02343,-0.35891,0.2022,-0.05611
-0.00404,0.99997,-0.00544,-0.31025,0.03191,-0.1905
0.01557,0.99895,-0.04298,-0.18874,0.00181,-0.00019
0.04501,0.99557,-0.08247,0.09008,0.16292,-0.04906
0.08549,0.98901,-0.12055,0.10373,0.26964,-0.04673
0.127,0.97939,-0.15704,0.02421,0.25946,-0.09659
0.15974,0.96764,-0.1953,-0.21493,-0.18293,0.0725
0.17762,0.95593,-0.23373,-0.25451,-0.21727,0.19506
0.18648,0.94522,-0.2679,-0.21565,-0.23191,0.26678
0.19453,0.9347,-0.29748,-0.04519,-0.13997,0.06307
0.21075,0.92015,-0.33,-0.03919,-0.07605,-0.0133
0.23438,0.90417,-0.35711,0.00328,-0.31373,0.03758
0.25406,0.88776,-0.38383,-0.00157,-0.27686,0.03028
0.27185,0.87062,-0.41001,-0.05398,-0.23549,0.11017
0.28961,0.8555,-0.42924,-0.1091,-0.09793,0.1112
0.29604,0.84692,-0.44167,-0.14561,-0.23737,0.14774
0.2898,0.84439,-0.45058,-0.03042,-0.25923,0.04771
0.28001,0.84524,-0.45515,-0.1119,-0.21619,-0.01966
0.26762,0.84996,-0.45381,-0.10007,-0.23802,-0.02262
0.25426,0.85762,-0.44703,-0.07285,-0.13305,-0.10663
0.2439,0.8679,-0.43274,0.13748,0.08376,-0.1527
0.23196,0.88372,-0.40647,0.27392,0.05871,-0.11596
0.20621,0.9054,-0.37112,0.13815,0.42023,0.08265
0.16261,0.92459,-0.3445,-0.2462,0.96382,0.40421
0.11586,0.94191,-0.31524,-0.97514,1.20564,0.1762
0.09271,0.95433,-0.28398,-1.10118,0.8781,0.11396
0.08628,0.96462,-0.24909,0.15375,-0.47264,0.18785
0.0732,0.97155,-0.22519,0.08186,-0.38283,0.13738
0.04947,0.97651,-0.20968,0.09761,-0.19476,0.16641
0.0226,0.97987,-0.19833,0.04373,0.12481,0.10278
0.00089,0.98338,-0.18154,0.02371,-0.01981,0.15186
-0.01146,0.98749,-0.15723,0.02121,-0.14279,0.14694
-0.01956,0.99134,-0.12981,-0.09074,-0.28297,0.01841
-0.02528,0.99428,-0.10367,-0.0302,-0.31655,-0.00186
-0.02711,0.99629,-0.0816,0.05329,-0.31637,0.02004
-0.02672,0.99764,-0.06314,0.21938,-0.32081,0.06313
-0.02676,0.99865,-0.04426,0.11871,-0.33116,0.07374
-0.03015,0.99927,-0.02331,-0.00821,-0.23131,0.01952
-0.03317,0.99944,-0.00359,-0.03807,-0.07991,0.11495
-0.03451,0.99936,0.00891,-0.05492,0.02146,0.02934
-0.03494,0.99915,0.02127,-0.13742,0.05962,0.01474
-0.03334,0.99899,0.02999,-0.01109,0.1115,0.14696
-0.03144,0.99881,0.03719,-0.00421,0.17341,0.04483
-0.03234,0.99846,0.04479,0.05015,0.30273,-0.07541
-0.03437,0.99812,0.05061,0.13922,0.34835,-0.06632
-0.03525,0.99778,0.05631,0.0966,0.2304,-0.12217
-0.03333,0.99749,0.06234,0.04787,0.17486,-0.07874
-0.03044,0.99735,0.06603,-0.05495,0.08722,0.04855
-0.02605,0.99749,0.06569,-0.19241,0.24274,0.10694
-0.01605,0.99811,0.05923,-0.18976,0.44537,0.04109
0.00267,0.9988,0.04868,-0.28404,0.57046,0.05577
0.02461,0.99917,0.03214,-0.44351,0.13213,-0.16455
0.04352,0.999,0.00907,-0.35762,0.0988,-0.10673
0.0629,0.99777,-0.02213,-0.14072,0.01516,-0.06881
0.08838,0.99453,-0.05558,0.08246,0.34052,-0.1943
0.11891,0.98892,-0.08882,0.1032,0.37749,-0.17076
0.14966,0.98127,-0.12122,0.00425,0.19926,-0.13148
0.17669,0.97222,-0.15347,-0.18399,-0.08688,-0.06125
0.19649,0.96263,-0.18635,-0.20742,-0.16397,0.0247
0.21128,0.95286,-0.21771,-0.1916,-0.19085,0.1147
0.22729,0.94179,-0.24771,-0.1398,-0.11136,0.14925
0.24548,0.927,-0.28355,-0.1437,-0.20749,0.01263
0.26017,0.91031,-0.32191,-0.09945,-0.38912,0.15135
0.2727,0.89382,-0.35597,-0.0426,-0.41973,0.17538
0.28676,0.87781,-0.38367,-0.10538,-0.32836,0.1318
0.30159,0.86157,-0.40833,-0.14259,-0.29205,0.12455
0.31281,0.84648,-0.43082,-0.14823,-0.3169,0.15455
0.31822,0.83528,-0.44838,-0.20671,-0.22399,0.12214
0.31753,0.82835,-0.46151,-0.26674,-0.17203,0.05963
0.31397,0.82556,-0.4689,-0.22388,-0.19502,0.0298
0.31063,0.82605,-0.47025,-0.22771,-0.17576,-0.07776
0.30855,0.82798,-0.46824,-0.07143,-0.09717,-0.15963
0.30745,0.83081,-0.46391,-0.02228,-0.00509,-0.24854
0.30911,0.83343,-0.45808,0.09529,0.10679,-0.32504
0.31598,0.83266,-0.45478,0.30115,0.42756,-0.45637
0.32293,0.83168,-0.45169,0.5044,0.3786,-0.03292
0.32379,0.83812,-0.43898,0.1722,1.23581,-0.42123
0.29869,0.85448,-0.42502,-0.19522,0.27638,0.11824
0.27187,0.87833,-0.3932,-0.37208,-0.27567,0.05693
0.25178,0.89981,-0.35627,-0.28707,-0.22881,0.10597
0.23143,0.91877,-0.31982,-0.23395,-0.11454,0.19838
0.21141,0.93504,-0.28459,-0.26171,0.06549,0.13322
0.19266,0.94878,-0.25039,-0.31428,0.15758,0.0613
0.17309,0.96122,-0.21468,-0.20996,0.02744,0.04396
0.15526,0.97152,-0.179,-0.09849,-0.05948,0.03786
0.13987,0.97956,-0.1445,-0.0488,-0.0229,0.04014
0.12551,0.98586,-0.11097,0.04893,-0.00765,0.04029
0.11244,0.99058,-0.07809,0.12537,-0.12992,0.01728
0.09941,0.99402,-0.04505,0.12718,-0.15408,-0.00858
0.08507,0.99628,-0.01352,0.10172,-0.21326,0.00781
0.07109,0.99737,0.01364,-0.05789,-0.26917,0.01013
0.05939,0.99754,0.03694,-0.12974,-0.2545,-0.01415
0.05017,0.99683,0.06163,-0.21621,-0.23529,0.00354
0.04471,0.99512,0.08783,-0.19861,-0.22623,0.07194
0.04328,0.99308,0.1091,-0.17907,-0.21853,0.0642
0.04331,0.99121,0.12496,-0.1141,-0.09894,-0.01313
0.04318,0.98921,0.13996,-0.0507,-0.10661,-0.02959
0.04215,0.98725,0.15344,-0.04153,-0.14155,-0.05079
0.03999,0.98576,0.1633,-0.06673,-0.1013,-0.09808
0.03859,0.98438,0.17173,0.00666,0.02304,-0.1937
0.03864,0.98274,0.18085,0.02119,0.07033,-0.26645
0.03962,0.98085,0.19063,-0.00111,0.05256,-0.31635
0.04081,0.97925,0.19844,-0.00857,-0.12426,-0.29685
0.04244,0.97802,0.20409,0.11602,0.04593,-0.20333
0.04347,0.97718,0.20788,0.16711,0.15685,-0.03057
0.04448,0.97629,0.21179,0.12452,0.14483,-0.03375
0.04577,0.97665,0.20988,-0.09499,-0.00263,-0.1033
0.05025,0.97741,0.20524,-0.15051,0.09357,0.16775
0.05947,0.97956,0.19214,-0.27047,0.23155,0.17078
0.07635,0.98293,0.16737,-0.3288,0.32185,0.21969
0.09669,0.98639,0.13292,-0.30115,0.13455,0.10269
0.11495,0.98952,0.08733,-0.35325,0.24017,-0.06801
0.1374,0.98944,0.04593,-0.38691,0.40864,-0.04093
0.1617,0.9866,0.02146,-0.4835,0.63801,-0.0494
0.18544,0.98265,-0.00109,-0.11377,0.3987,-0.06752
0.20354,0.97852,-0.03235,0.0532,0.16308,-0.03179
0.21593,0.97435,-0.0632,0.36315,-0.15877,-0.14023
0.21942,0.97126,-0.09221,0.29709,-0.20832,-0.12224
0.21379,0.96917,-0.12244,-0.08351,-0.23521,-0.13111
0.20766,0.96618,-0.15288,-0.25839,-0.17629,-0.05716
0.20304,0.9621,-0.18203,-0.31706,-0.1857,-0.05546
0.19844,0.95775,-0.20816,-0.33646,-0.20817,-0.02043
0.19338,0.95418,-0.22834,-0.38023,-0.30783,0.00372
0.18814,0.95213,-0.24091,-0.32484,-0.36308,-0.0253
0.17982,0.95287,-0.24433,-0.24905,-0.36749,-0.03259
0.16707,0.95688,-0.23759,0.00735,-0.27143,-0.15308
0.15271,0.96262,-0.22369,0.04291,-0.24284,-0.2197
0.13795,0.9688,-0.20589,0.08503,-0.20049,-0.27132
0.12305,0.97467,-0.18675,0.10237,-0.17037,-0.32104
0.10666,0.97971,-0.16962,0.10307,-0.11907,-0.28024
0.0891,0.9835,-0.15738,0.08355,0.10118,-0.21504
0.07648,0.98527,-0.15292,-0.08524,0.6105,-0.33475
0.07638,0.98491,-0.15528,-0.10813,0.57427,-0.38272
0.08532,0.98343,-0.15991,-0.13615,0.41139,-0.38042
0.09906,0.98113,-0.166,-0.37242,0.48322,-0.30365
0.11209,0.97903,-0.17006,-0.20811,0.47177,0.23262
0.11338,0.9802,-0.16227,-0.50062,-0.06414,0.20664
0.1086,0.98304,-0.14776,-0.36437,-0.27161,-0.00789
0.10568,0.9866,-0.12424,-0.17333,-0.24403,0.10736
0.10165,0.98846,-0.11225,-0.05684,0.01069,0.10672
0.09009,0.98939,-0.11389,-0.01065,0.09207,0.09555
0.07589,0.99088,-0.11128,0.07062,0.0718,0.22941
0.0664,0.99313,-0.09631,0.04959,0.04487,0.21737
0.06416,0.9958,-0.06521,-0.05395,-0.06678,0.12751
0.06586,0.99746,-0.02692,-0.05215,-0.12978,-0.13792
0.06576,0.99783,-0.0013,-0.05544,-0.19543,-0.11547
0.06386,0.99785,0.01432,-0.0171,-0.26759,0.02143
0.06219,0.99737,0.03698,-0.09404,-0.17091,0.0253
0.05837,0.99615,0.06533,-0.09696,-0.10644,-0.02505
0.05117,0.99505,0.08515,-0.01683,-0.017,-0.08684
0.04289,0.99409,0.09966,0.09102,-0.21632,-0.13459
0.03455,0.99239,0.11814,0.09491,-0.26302,-0.15868
0.02587,0.9899,0.1393,0.10227,-0.24355,-0.16708
0.01714,0.98726,0.15813,0.10338,-0.08636,-0.24035
0.00963,0.98455,0.17476,0.12124,0.00023,-0.27234
0.00196,0.98158,0.19097,0.05113,0.0937,-0.18049
-0.00775,0.97882,0.20452,0.03765,0.04938,-0.12297
-0.01898,0.9762,0.21602,0.13883,0.25011,-0.10862
-0.02971,0.97397,0.22466,0.15622,0.13818,-0.18996
-0.03892,0.97258,0.22926,0.26116,0.12935,-0.14524
-0.04454,0.97231,0.22937,0.50305,0.12089,0.00273
-0.04269,0.97338,0.22513,0.15056,0.36036,0.01585
-0.03094,0.97612,0.21498,-0.0919,0.40619,0.17488
-0.01303,0.98168,0.19002,-0.13442,0.46223,0.16406
0.00499,0.99005,0.14053,-0.46742,0.19609,-0.12346
0.02252,0.99608,0.08542,-0.55594,0.34622,-0.16356
0.04729,0.99772,0.04793,-0.45435,0.6386,-0.0524
0.07074,0.99718,0.02453,-0.23792,0.30164,-0.05809
0.0931,0.99565,-0.00116,0.08997,-0.02262,-0.06087
0.11512,0.99286,-0.03092,0.33851,-0.12433,-0.04397
0.13456,0.98886,-0.0635,0.40208,-0.1107,-0.00143
0.14914,0.98406,-0.09681,0.13159,-0.07524,-0.02214
0.15933,0.97882,-0.12851,-0.08241,-0.09103,0.03839
0.16823,0.97301,-0.15791,-0.17323,-0.13529,0.12037
0.17541,0.96699,-0.18479,-0.18272,-0.22915,0.21938
0.1797,0.96136,-0.20852,-0.19421,-0.36492,0.25781
0.18013,0.95694,-0.22762,-0.13027,-0.3862,0.20216
0.17392,0.95469,-0.24147,-0.08977,-0.32336,0.06381
0.1609,0.95524,-0.24824,-0.07675,-0.3239,0.07059
0.14093,0.95849,-0.24785,-0.01958,-0.23047,-0.0524
0.11869,0.96201,-0.24584,0.07497,-0.21527,-0.13376
0.09923,0.96536,-0.2413,0.11586,-0.1911,-0.15347
0.08247,0.96962,-0.23025,0.03517,0.37835,0.03234
0.0649,0.97151,-0.22791,-0.25536,0.48764,-0.22755
0.04818,0.97027,-0.23717,-0.23864,0.48889,-0.21829
0.04455,0.96804,-0.24679,-0.00116,-0.12917,-0.0761
0.04816,0.96634,-0.25269,-0.12146,-0.02939,0.16283
0.03925,0.96303,-0.26651,-0.19873,0.74547,0.31984
0.02447,0.96098,-0.27551,-0.02204,0.50454,0.28041
0.0152,0.96255,-0.27066,0.34416,0.08028,0.28791
0.00355,0.9621,-0.27265,0.25583,0.09713,0.26054
-0.01313,0.96239,-0.27133,0.36777,0.24743,0.48573
-0.03097,0.9642,-0.26334,0.00962,-0.19499,0.35132
-0.04187,0.96917,-0.24279,-0.0603,-0.26523,0.34608
-0.04944,0.97766,-0.20427,-0.15804,-0.22204,0.24413
-0.05995,0.98403,-0.16758,-0.02568,-0.03748,0.15983
-0.07245,0.98782,-0.13765,0.0401,-0.00984,0.10582
-0.08252,0.9902,-0.11263,0.1084,-0.09036,0.09027
-0.09185,0.99171,-0.08974,0.13468,-0.2162,0.04182
-0.10492,0.99219,-0.0674,0.15694,-0.20732,0.01767
-0.12029,0.99152,-0.04902,0.15715,-0.09653,0.12446
-0.13235,0.99063,-0.03338,0.10771,-0.11357,0.13284
-0.14121,0.98981,-0.01787,-0.00367,-0.11803,0.08552
-0.14783,0.989,-0.00049,-0.02656,-0.0952,0.00521
-0.15385,0.98792,0.01788,0.03574,-0.10166,0.00507
-0.16086,0.98636,0.03458,0.16738,-0.16536,0.08371
-0.16841,0.9844,0.05082,0.15082,0.00553,0.04904
-0.1758,0.98198,0.06922,0.05712,0.37117,-0.05729
-0.18363,0.97902,0.08819,0.24132,0.36236,0.03212
-0.19384,0.97533,0.10553,0.57745,0.22257,0.11357
-0.20292,0.97194,0.11894,0.73638,0.28431,0.09363
-0.20623,0.96991,0.12933,0.63784,0.30995,0.16847
-0.20554,0.96895,0.13738,0.28927,0.47263,0.25456
-0.19702,0.97069,0.13759,0.03131,0.45325,0.30064
-0.18,0.97539,0.12724,0.05807,0.33064,0.21085
-0.15537,0.98269,0.10081,0.08211,0.19645,0.0764
-0.12649,0.99013,0.06015,-0.11821,-0.04844,0.0047
-0.09905,0.99477,0.02452,-0.13664,-0.02079,0.19727
-0.0742,0.99723,0.00013,-0.09586,0.17984,0.18058
-0.04704,0.9985,-0.02766,0.0185,0.29755,0.02212
-0.02257,0.99811,-0.05705,0.08074,0.20496,0.09013
-0.00111,0.99636,-0.08514,0.04146,-0.02105,0.06463
0.02395,0.99334,-0.1126,0.0658,-0.05706,0.05227
0.05215,0.98865,-0.14084,0.16003,-0.13276,0.02485
0.07824,0.98284,-0.16702,0.12427,-0.0979,0.11461
0.1015,0.9761,-0.19214,0.06111,-0.14327,0.18022
0.11775,0.96878,-0.21814,-0.01789,-0.29581,0.20972
0.12648,0.96181,-0.24272,-0.06432,-0.23129,0.27008
0.13024,0.95621,-0.26208,-0.17414,-0.18428,0.26174
0.1296,0.95222,-0.27652,-0.20155,-0.19118,0.22835
0.125,0.95007,-0.28587,-0.21075,-0.28392,0.15547
0.11661,0.95002,-0.28959,-0.17722,-0.31415,0.14835
0.10282,0.9517,-0.28928,-0.00723,-0.28379,0.06876
0.08735,0.95461,-0.28472,0.07383,-0.25711,0.03455
0.07425,0.95925,-0.27259,0.10166,-0.10288,-0.13929
0.06443,0.96485,-0.25476,0.28141,0.20893,-0.22292
0.05833,0.96757,-0.24573,0.30904,0.53674,-0.12366
0.05469,0.96633,-0.25141,0.01103,0.6654,-0.30774
0.05601,0.96408,-0.2596,-0.10051,0.96275,-0.1199
0.06125,0.95994,-0.27339,-0.20435,1.46111,0.91823
0.07054,0.9564,-0.2834,-0.4338,-0.29475,-0.00109
0.09561,0.96105,-0.25929,-0.18121,-0.58469,0.03368
0.1121,0.96943,-0.21824,-0.0169,-0.699,0.13964
0.10729,0.97034,-0.21662,0.10376,-0.07864,0.39075
0.07548,0.97204,-0.22233,0.41488,0.05875,0.52708
0.0318,0.97648,-0.2132,0.24881,0.3788,0.53179
-0.00131,0.98308,-0.18313,0.00913,0.22273,0.35328
-0.01389,0.98985,-0.14137,-0.43654,-0.10397,-0.00858
-0.01534,0.99379,-0.11013,-0.23487,-0.42656,0.02118
-0.00958,0.99616,-0.08691,-0.15108,-0.49085,0.07166
-0.00198,0.9982,-0.05973,-0.03371,-0.52511,0.24258
-0.00479,0.9996,-0.02747,0.0792,-0.01361,0.16058
-0.01557,0.99987,0.00275,0.09629,0.13913,0.05282
-0.02073,0.9993,0.03066,0.00827,-0.24244,-0.02036
-0.02618,0.99815,0.05475,-0.01949,-0.25249,-0.05968
-0.03627,0.99652,0.07487,0.02835,-0.13562,-0.09605
-0.04899,0.99425,0.09509,0.06246,0.18106,-0.14079
-0.06184,0.99162,0.1133,-0.09525,-0.01988,-0.04508
-0.07398,0.98936,0.1252,0.13161,0.00918,-0.00365
-0.08454,0.98765,0.1318,0.36018,0.06537,-0.06571
-0.09194,0.98582,0.14033,0.57978,0.012,0.03599
-0.09567,0.98446,0.1472,0.60623,0.02773,-0.00747
-0.09277,0.98422,0.15058,0.5277,0.07095,0.01992
-0.08285,0.98508,0.15076,0.05236,0.48982,0.04344
-0.06447,0.98772,0.14222,-0.1858,0.3663,0.33053
-0.03752,0.99181,0.12196,-0.17499,0.34559,0.26467
-0.00976,0.99664,0.08116,-0.47022,0.54291,0.30069
0.01584,0.9991,0.03921,-0.46619,0.58971,0.21198
0.04589,0.99893,0.00371,-0.45505,0.60659,0.11932
0.07445,0.99692,-0.02413,-0.26067,0.38299,0.03136
0.10101,0.99361,-0.05026,-0.18896,0.33537,0.03482
0.12315,0.98902,-0.08156,-0.08672,0.19761,-0.00429
0.14182,0.9831,-0.11571,0.2404,-0.17489,-0.08589
0.1579,0.97638,-0.14742,0.26112,-0.30731,0.12318
0.16982,0.96928,-0.17788,0.2492,-0.30021,0.15363
0.17566,0.96193,-0.20931,-0.06212,-0.41303,0.19374
0.17843,0.95466,-0.23828,-0.19898,-0.4432,0.23815
0.17741,0.94834,-0.26298,-0.24713,-0.44825,0.23507
0.17334,0.94341,-0.2827,-0.28369,-0.4142,0.20983
0.16487,0.94058,-0.29685,-0.19861,-0.40179,0.17696
0.1506,0.9412,-0.30239,-0.16235,-0.44473,0.16694
0.13218,0.94552,-0.29751,-0.06813,-0.471,0.06019
0.11114,0.95216,-0.28466,0.0557,-0.35114,-0.05619
0.09313,0.95878,-0.26843,0.1349,-0.2114,-0.14177
0.08127,0.96326,-0.25595,0.08948,0.05214,-0.18185
0.07641,0.96571,-0.24808,0.03814,0.90123,-0.14001
0.07856,0.96479,-0.25099,-0.11585,1.12811,-0.12626
0.08876,0.95964,-0.26682,-0.12189,0.82956,-0.28579
0.09831,0.95378,-0.28396,-0.33575,0.69039,0.16789
0.10818,0.95046,-0.2914,-0.11638,0.99844,0.8366
0.11843,0.94658,-0.29991,-0.68865,0.48445,0.46437
0.13041,0.94706,-0.29334,-0.11651,-0.43483,0.29885
0.14053,0.95172,-0.27289,-0.03525,-0.38749,0.44173
0.13765,0.94991,-0.28055,0.00206,-0.03889,0.40263
0.1193,0.9521,-0.28154,0.3056,0.37937,0.47305
0.09557,0.95971,-0.26422,0.11546,0.37026,0.54552
0.08198,0.97033,-0.22743,-0.35148,-0.04788,0.23352
0.0827,0.97949,-0.1837,-0.49572,-0.14886,0.0465
0.08784,0.98375,-0.15653,-0.22081,-0.24933,0.08842
0.09513,0.98651,-0.13314,-0.06279,-0.29981,0.19472
0.09834,0.98974,-0.10363,0.03825,-0.27927,0.17295
0.09305,0.99298,-0.07289,0.07939,-0.16892,0.06589
0.08117,0.99533,-0.05215,0.19285,-0.0845,0.04882
0.0738,0.99669,-0.03387,0.2107,-0.04227,0.01121
0.07015,0.99743,-0.01382,0.06392,-0.11386,-0.10754
0.06958,0.99756,0.00466,0.08725,-0.17473,-0.1354
0.07036,0.9973,0.02035,0.17686,-0.17298,-0.1475
0.07069,0.99683,0.03622,0.10829,-0.08611,-0.10509
0.06852,0.99625,0.05269,-0.00656,0.1333,-0.08018
0.0635,0.99572,0.06705,-0.15756,0.25057,0.00071
0.0564,0.99508,0.08135,-0.28869,0.27387,0.01275
0.04646,0.9944,0.09488,-0.02833,0.22751,0.03415
0.0363,0.99351,0.10768,0.14129,0.25699,0.07298
0.02621,0.99269,0.11774,0.28388,0.33313,0.05447
0.02139,0.99218,0.12287,0.17216,0.25664,0.19476
0.02968,0.99148,0.12679,-0.13652,0.50732,0.2774
0.04476,0.99129,0.12375,-0.28831,0.62136,0.34262
0.06247,0.99239,0.10601,-0.27445,0.25492,0.23498
0.08073,0.99426,0.07005,-0.2301,0.16954,0.19199
0.10054,0.99455,0.02732,-0.20602,0.20006,0.15131
0.12525,0.99203,-0.01328,-0.06889,0.46821,-0.09375
0.14937,0.9877,-0.04598,-0.17688,0.37193,0.10442
0.16945,0.98266,-0.07522,-0.19163,0.26901,0.1169
0.19015,0.97546,-0.11093,-0.21512,0.11194,0.12451
0.21378,0.96525,-0.15025,-0.22837,-0.01348,0.12477
0.23769,0.9531,-0.18734,-0.25228,-0.00133,0.16186
0.25884,0.9394,-0.22474,-0.20879,-0.00834,0.15102
0.27523,0.92493,-0.26219,-0.18805,-0.06255,0.16609
0.29258,0.90848,-0.29842,-0.19021,-0.09192,0.16787
0.31186,0.89066,-0.33084,-0.16446,-0.18013,0.16687
0.32993,0.87219,-0.36114,-0.10679,-0.24807,0.19979
0.34253,0.85332,-0.39308,-0.10969,-0.23094,0.23441
0.34884,0.83573,-0.42409,-0.1458,-0.25362,0.2598
0.35149,0.82066,-0.45052,-0.19901,-0.35526,0.1896
0.35149,0.81096,-0.46776,-0.21253,-0.35081,0.22325
0.35035,0.80572,-0.47756,-0.18635,-0.24205,0.22838
0.34922,0.80216,-0.48433,-0.16613,-0.0723,0.01955
0.34904,0.79974,-0.48844,-0.12515,-0.088,0.02728
0.3454,0.79985,-0.49085,-1e-05,0.02597,0.01648
0.33989,0.80398,-0.48794,0.00949,0.12464,-0.00239
0.33564,0.80933,-0.48201,0.06306,0.21541,-0.03891
0.33342,0.81467,-0.47448,0.12601,0.29203,0.06619
0.33272,0.82572,-0.45549,0.07822,0.17811,0.0974
0.32438,0.84817,-0.41878,-0.0807,0.20814,0.20944
0.30022,0.86961,-0.39195,-0.41449,0.99576,0.02362
0.2614,0.8888,-0.37641,-0.60575,1.26366,0.30333
0.24093,0.90764,-0.34371,-0.0786,0.04854,0.2955
0.23551,0.91857,-0.3174,0.16747,-0.17335,0.08455
0.2157,0.9319,-0.2916,0.18993,-0.15153,0.40075
0.19061,0.94352,-0.27098,0.11223,-0.08321,0.25723
0.16221,0.95206,-0.25934,-0.0335,-0.08574,0.14377
0.13822,0.96015,-0.2429,-0.019,-0.00473,0.17957
0.12143,0.96813,-0.219,-0.08077,-0.00408,0.13787
0.10685,0.975,-0.19479,-0.04457,-0.11962,0.05073
0.09196,0.98023,-0.17513,-0.04227,-0.27334,0.06052
0.07664,0.98437,-0.15851,-0.04718,-0.30951,0.12614
0.06435,0.9881,-0.13962,-0.0765,-0.30213,0.10824
0.05353,0.99128,-0.1204,-0.01147,-0.1818,0.02936
0.04207,0.9936,-0.10472,0.07576,-0.10432,0.03917
0.03497,0.99516,-0.0917,0.10144,-0.12465,0.02458
0.03288,0.99638,-0.0783,0.09497,-0.14708,0.03565
0.03053,0.99745,-0.06436,0.06565,-0.13795,-0.00071
0.02649,0.99817,-0.05422,0.13144,-0.02944,0.04913
0.02139,0.99869,-0.04626,0.14525,0.04972,0.03198
0.0178,0.99915,-0.03708,0.12777,0.02838,0.10344
0.01696,0.99947,-0.02752,0.08663,0.09538,-0.00316
0.01596,0.99972,-0.01716,0.02236,0.35966,-0.02826
0.01311,0.99989,-0.0063,0.00265,0.338,-0.00715
0.00963,0.99993,0.00564,0.02444,0.34429,-0.07385
0.00481,0.99983,0.01729,-0.07308,0.29811,-0.02144
0.00189,0.99961,0.0274,-0.0968,0.28356,0.05677
-0.00118,0.99947,0.03236,-0.09096,0.36745,0.2499
-0.00076,0.99952,0.03051,-0.08259,0.49376,0.09465
0.00827,0.99971,0.02223,-0.22761,0.3999,0.08089
0.02033,0.99975,0.00865,-0.35628,0.08369,0.05667
0.03346,0.99926,-0.01844,-0.14748,-0.11561,0.00852
0.04723,0.99744,-0.05358,-0.05445,-0.07979,-0.04625
0.06698,0.9939,-0.08758,0.11623,0.16298,-0.14648
0.09647,0.9878,-0.12215,0.08299,0.30947,-0.09258
0.13202,0.97863,-0.15759,0.00972,0.20395,-0.02031
0.16487,0.96714,-0.19351,-0.13725,-0.07529,0.12767
0.18913,0.95504,-0.2283,-0.13716,-0.2714,0.15571
0.20448,0.94434,-0.25766,-0.14892,-0.26449,0.1711
0.21682,0.93474,-0.2815,-0.11892,-0.17192,0.12553
0.22975,0.92416,-0.30519,-0.11013,-0.13717,0.12417
0.24592,0.91117,-0.33059,-0.09191,-0.14626,0.13271
0.266,0.89487,-0.35839,-0.05162,-0.26038,0.0987
0.28463,0.87705,-0.38698,-0.09139,-0.29418,0.12491
0.29669,0.86164,-0.41174,-0.112,-0.22637,0.17775
0.30307,0.85038,-0.43011,-0.08676,-0.15973,0.1493
0.30605,0.84334,-0.44169,-0.07996,-0.15246,0.13662
0.30622,0.83955,-0.44875,-0.04818,-0.0562,0.06914
0.30369,0.83797,-0.45339,-0.03137,0.09085,0.00872
0.29774,0.83891,-0.45559,-0.04289,0.07896,0.01392
0.29018,0.84248,-0.45389,-0.06519,0.06571,0.00902
0.28268,0.84826,-0.4478,0.02871,0.05686,-0.04832
0.27837,0.85838,-0.4309,0.13634,0.03547,0.01742
0.26993,0.87682,-0.39789,0.07825,0.1835,0.17877
0.25124,0.89417,-0.37058,-0.09093,0.95946,-0.03913
0.22479,0.90765,-0.35445,-0.53012,1.13361,0.26554
0.20692,0.92168,-0.32813,-0.19351,0.01946,0.28882
0.19741,0.93415,-0.29728,-0.0131,-0.36778,0.10818
0.1766,0.94691,-0.26863,0.03592,-0.28927,0.23475
0.15281,0.95623,-0.24952,0.09357,-0.01871,0.20321
0.12701,0.96292,-0.23798,0.04227,0.13837,0.16791
0.10458,0.96884,-0.22449,0.0414,0.0628,0.17558
0.09249,0.97411,-0.20626,-0.02129,-0.13559,0.09198
0.0854,0.97873,-0.1865,-0.05714,-0.18211,0.02475
0.0763,0.98272,-0.16859,-0.02131,-0.24165,0.08369
0.06702,0.98619,-0.15142,0.05554,-0.30209,0.15678
0.06095,0.98942,-0.13158,0.08354,-0.20341,0.14936
0.05354,0.99215,-0.11293,0.00863,-0.11645,0.09131
0.04611,0.99407,-0.09844,0.01554,-0.12274,0.08911
0.041,0.99537,-0.08686,-0.02853,-0.16775,0.06776
0.03597,0.99654,-0.07484,-0.07182,-0.12415,0.02728
0.02949,0.99752,-0.06368,-0.056,-0.07815,-0.00562
0.02467,0.9982,-0.05445,0.03204,-0.05748,0.08972
0.02381,0.99859,-0.04734,0.00655,-0.00161,0.05933
0.0287,0.99884,-0.03846,0.01472,0.04062,0.07969
0.03229,0.99908,-0.02773,0.18095,0.1308,0.03992
0.02801,0.99935,-0.02208,0.06269,0.24166,0.01669
0.02429,0.9996,-0.01353,0.05577,0.30308,0.00442
0.02029,0.99977,-0.00451,0.02309,0.34987,-0.04857
0.01603,0.99985,0.00416,-0.01043,0.28436,-0.04884
0.01242,0.99986,0.01029,-0.00984,0.23487,-0.01255
0.00933,0.99985,0.01348,-0.0416,0.23754,0.26726
0.00823,0.99987,0.01278,-0.03924,0.31919,0.22839
0.01124,0.9999,0.00752,-0.12649,0.51657,0.13559
0.01984,0.99979,0.00124,-0.30673,0.0277,0.07644
0.03065,0.99945,-0.01177,-0.32776,-0.02689,-0.13967
0.04462,0.99834,-0.03605,-0.28559,0.03622,-0.11736
0.06397,0.99579,-0.06548,0.10461,0.19194,-0.09635
0.08954,0.99137,-0.09568,0.20517,0.29562,-0.14918
0.12032,0.98496,-0.12394,0.14608,0.1152,-0.00584
0.15467,0.97648,-0.15016,0.0287,-0.09458,0.01327
0.18536,0.96678,-0.17595,-0.08558,-0.21898,0.04608
0.20409,0.95771,-0.20279,-0.11582,-0.26906,0.16259
0.21405,0.94927,-0.23033,-0.12623,-0.24418,0.16496
0.22198,0.94033,-0.25786,-0.1619,-0.15757,0.11905
0.23133,0.929,-0.28883,-0.19236,-0.1357,0.11544
0.24214,0.9151,-0.3224,-0.20602,-0.19701,0.13756
0.25556,0.89938,-0.35468,-0.18021,-0.24674,0.16878
0.27143,0.88317,-0.38251,-0.11958,-0.25621,0.16823
0.28655,0.86834,-0.40479,-0.04623,-0.22667,0.09397
0.29795,0.85705,-0.42033,0.01643,-0.13395,0.06638
0.30331,0.84925,-0.43218,0.00672,0.00476,0.00914
0.30237,0.84515,-0.44077,-0.01018,0.09386,-0.00158
0.29709,0.84423,-0.44609,-0.0232,0.07479,-0.00894
0.28925,0.84601,-0.44788,-0.02217,0.05766,-0.04067
0.28309,0.85018,-0.44389,0.09088,0.0277,-0.07997
0.28153,0.85762,-0.43037,0.15914,-0.14776,-0.02947
0.28109,0.87269,-0.39924,0.10355,-0.17977,0.10792
0.27427,0.89194,-0.35945,0.06395,0.31333,0.087
0.25422,0.9049,-0.34135,-0.41125,1.30729,0.09047
0.22705,0.91836,-0.32412,-0.63758,0.6348,0.23278
0.22221,0.92922,-0.29524,-0.14343,-0.24808,0.21589
0.21366,0.94091,-0.2627,0.11165,-0.18741,0.2131
0.19633,0.95098,-0.2389,0.18259,-0.02811,0.18991
0.17165,0.95991,-0.22159,0.11902,0.13281,0.23458
0.14759,0.96689,-0.20814,0.00138,0.1667,0.18407
0.13378,0.9723,-0.19164,-0.0205,0.07293,0.13125
0.12635,0.9767,-0.17343,-0.09533,-0.07614,0.05715
0.11719,0.98057,-0.15725,-0.09827,-0.23124,0.12031
0.10508,0.98417,-0.14268,-0.07148,-0.24379,0.13238
0.09346,0.98763,-0.12586,-0.03633,-0.19673,0.14673
0.0823,0.99079,-0.10744,0.01189,-0.15777,0.12664
0.0723,0.99314,-0.09179,0.04098,-0.19967,0.12975
0.0658,0.99475,-0.07821,0.05996,-0.24579,0.08557
0.05951,0.99617,-0.06391,-0.01858,-0.25556,0.05675
0.05095,0.99744,-0.05011,-0.08963,-0.17259,0.02979
0.04332,0.99832,-0.03822,-0.04519,-0.11423,0.10825
0.03855,0.9988,-0.03006,0.05975,-0.0527,0.10138
0.03678,0.99905,-0.02312,0.09515,0.00889,0.02117
0.03481,0.99929,-0.01389,0.10265,0.16427,0.01843
0.03251,0.99945,-0.00495,0.12253,0.35205,-0.08492
0.02797,0.99959,0.00333,0.16797,0.4495,-0.09499
0.02027,0.99972,0.01156,0.11584,0.47066,-0.06319
0.01413,0.9997,0.01927,0.07173,0.30353,-0.06622
0.00978,0.99955,0.02805,-0.03635,0.19964,0.07695
0.00575,0.99935,0.03528,-0.11317,0.24975,0.21957
0.00453,0.99927,0.03773,-0.1689,0.33835,0.19842
0.00794,0.99933,0.03545,-0.24829,0.16966,0.14282
0.01514,0.99952,0.02671,-0.2759,0.02618,0.01982
0.02593,0.99963,0.00746,-0.26607,0.02605,-0.03006
0.04066,0.99892,-0.02217,-0.15097,0.11624,-0.02469
0.05963,0.99673,-0.05442,0.00743,0.16795,-0.04451
0.08519,0.99255,-0.087,0.04639,0.22068,-0.07933
0.11508,0.98589,-0.12152,-0.00721,0.0464,-0.0137
0.1444,0.97724,-0.15539,-0.14327,-0.24303,0.144
0.16728,0.96797,-0.1872,-0.17331,-0.30198,0.18455
0.18094,0.95927,-0.21692,-0.16948,-0.34656,0.20047
0.18903,0.95094,-0.24488,-0.13164,-0.28987,0.16947
0.19681,0.94175,-0.27269,-0.13677,-0.19019,0.16387
0.20805,0.9301,-0.30269,-0.15097,-0.12897,0.18701
0.22286,0.91532,-0.33542,-0.16696,-0.1535,0.13841
0.23885,0.89853,-0.36823,-0.14388,-0.21663,0.14336
0.25414,0.88221,-0.39637,-0.11837,-0.20894,0.14538
0.26689,0.86901,-0.41662,-0.04582,-0.09376,0.12039
0.2758,0.85915,-0.43102,-0.03279,-0.08897,0.09599
0.28051,0.85265,-0.44079,-0.03315,-0.04602,0.04696
0.28191,0.84892,-0.44706,-0.07515,0.04027,-0.00143
0.27909,0.84805,-0.45045,-0.06063,-0.00397,-0.00385
0.27485,0.85037,-0.44869,-0.05305,0.01853,-0.03103
0.27231,0.85567,-0.44008,0.04794,0.05353,-0.07292
0.27294,0.86298,-0.42516,0.10797,-0.02829,0.03942
0.27629,0.87401,-0.39971,0.06071,-0.058,0.10729
0.27451,0.88821,-0.36839,0.0796,0.42488,0.02389
0.2632,0.8969,-0.35538,-0.16948,1.2973,0.0334
0.24642,0.90925,-0.33547,-0.4005,0.52604,0.12061
0.24538,0.91877,-0.30925,-0.04529,-0.24336,0.07486
0.23588,0.93071,-0.27949,-0.01718,-0.18969,0.19159
0.21702,0.94271,-0.25335,0.10118,-0.00706,0.1998
0.19277,0.95378,-0.23049,-0.03261,0.08957,0.23087
0.17117,0.96299,-0.20817,-0.15259,0.0984,0.2116
0.15453,0.97036,-0.18575,-0.10035,0.06273,0.16509
0.14155,0.97592,-0.16592,-0.07991,-0.05189,0.08448
0.12796,0.98066,-0.14807,-0.06029,-0.21216,0.13923
0.11433,0.98495,-0.12959,-0.05514,-0.29202,0.15826
0.10246,0.98896,-0.107,-0.08208,-0.31959,0.15267
0.0915,0.9923,-0.08334,0.02795,-0.16973,0.0706
0.08131,0.99458,-0.06467,0.09447,-0.16238,0.02778
0.0766,0.99576,-0.05074,0.07719,-0.26294,0.06107
0.0745,0.99661,-0.03453,0.01725,-0.28394,0.03345
0.06743,0.99755,-0.01834,-0.02925,-0.2257,-0.00795
0.05786,0.9983,-0.00625,0.0248,-0.05271,0.01878
0.05145,0.99865,0.00547,0.07245,-0.04569,0.07734
0.04662,0.99878,0.01592,0.09411,-0.04529,0.00983
0.04272,0.99878,0.02458,0.09111,0.02878,-0.01083
0.04054,0.99867,0.03161,0.08162,0.05605,0.00991
0.04218,0.99845,0.03613,0.06545,0.05383,0.00956
0.04524,0.99821,0.03898,0.11458,0.12776,0.01666
0.04791,0.99795,0.04227,0.06214,0.20557,0.00981
0.04874,0.99764,0.04816,0.01657,0.27783,0.00122
0.0465,0.99742,0.05445,-0.02316,0.40008,-0.13849
0.04144,0.99732,0.06021,0.055,0.317,-0.02008
0.03653,0.99721,0.06503,0.05429,0.23413,0.04073
0.03238,0.99708,0.06903,-0.0979,0.33726,0.20731
0.02935,0.99713,0.06971,-0.1278,0.47918,0.18569
0.03257,0.99708,0.06901,-0.18188,0.53324,0.19253
0.04184,0.99694,0.06595,-0.4775,0.13382,0.02316
0.04966,0.99735,0.05297,-0.38481,0.06561,0.03938
0.06044,0.99781,0.02656,-0.27827,0.06588,0.05311
0.07458,0.9972,-0.00411,-0.0009,0.10984,-0.05574
0.09424,0.99501,-0.03252,0.12393,0.24436,-0.16831
0.11968,0.9908,-0.06305,0.03468,0.14775,-0.11625
0.15015,0.98388,-0.09711,-0.08014,-0.05901,0.03524
0.17869,0.97503,-0.13176,-0.18741,-0.24318,0.0752
0.20072,0.96543,-0.16628,-0.17199,-0.30722,0.08997
0.21645,0.95559,-0.19995,-0.14539,-0.22648,0.07059
0.22968,0.9446,-0.23443,-0.12621,-0.10044,0.14158
0.24371,0.93142,-0.27028,-0.11901,-0.07787,0.15692
0.26211,0.91513,-0.3063,-0.15133,-0.06755,0.15871
0.28305,0.89567,-0.343,-0.16078,-0.11664,0.14462
0.30593,0.87347,-0.37875,-0.15492,-0.14718,0.10987
0.32705,0.85109,-0.41069,-0.13055,-0.16632,0.16617
0.3445,0.83077,-0.43719,-0.09739,-0.0985,0.18527
0.35848,0.81384,-0.45733,-0.13622,-0.13464,0.16894
0.36805,0.80094,-0.47226,-0.14245,-0.09549,0.07576
0.37488,0.79141,-0.48283,-0.17188,-0.06921,0.06515
0.37911,0.78506,-0.48985,-0.18059,-0.06982,0.04977
0.37959,0.78277,-0.49313,-0.14296,-0.09673,0.06124
0.3774,0.78464,-0.49184,-0.11019,-0.13507,0.05101
0.37253,0.79034,-0.48639,-0.10079,-0.0825,0.03694
0.36542,0.79977,-0.47626,-0.04804,-0.15397,0.00327
0.35724,0.81129,-0.4628,0.13939,0.08843,-0.25721
0.3463,0.8233,-0.44972,0.12882,0.23127,-0.17099
0.33985,0.82858,-0.44491,0.33488,0.58495,-0.52834
0.34157,0.82568,-0.44896,0.19306,0.68889,-0.36561
0.35219,0.8301,-0.43231,0.15057,0.75648,0.06387
0.34846,0.84142,-0.41301,-0.27977,-0.28983,-0.11839
0.34061,0.85647,-0.38785,-0.23633,-0.38586,-0.01915
0.32551,0.87505,-0.35822,-0.01278,0.09672,0.11246
0.30542,0.89381,-0.32835,-0.08359,0.18913,0.15912
0.28639,0.91109,-0.29644,-0.1606,0.19807,0.12617
0.27332,0.92474,-0.26484,-0.31942,-0.00741,0.14921
0.25964,0.93617,-0.23696,-0.19024,-0.1016,0.14887
0.24306,0.94598,-0.21455,-0.16418,-0.12678,0.12241
0.22715,0.95456,-0.1929,-0.15832,-0.09967,0.18469
0.21712,0.96187,-0.16626,-0.23026,-0.12734,0.19006
0.2127,0.96776,-0.13483,-0.22941,-0.12493,0.13776
0.20954,0.97198,-0.10645,-0.19844,-0.10281,0.07529
0.2028,0.97551,-0.08508,-0.04802,-0.07435,-0.00809
0.1933,0.97891,-0.06598,-0.0102,-0.09086,0.08238
0.1855,0.98154,-0.04641,-0.02867,-0.13298,0.06609
0.17968,0.98336,-0.02651,-0.08605,-0.13978,0.03933
0.17331,0.98483,-0.00727,-0.1466,-0.16304,0.04833
0.16568,0.98611,0.01102,-0.16385,-0.15963,0.04737
0.15713,0.98714,0.02911,-0.18938,-0.09874,0.05083
0.15021,0.98754,0.04671,-0.15674,-0.05773,0.03626
0.14659,0.98716,0.06338,-0.13365,-0.0635,0.02033
0.14565,0.98607,0.08021,-0.04685,-0.04508,-0.01446
0.14575,0.98464,0.09603,0.05121,0.00971,-0.03209
0.14517,0.98332,0.1095,0.06522,0.00087,-0.04764
0.14464,0.98204,0.12106,0.02149,-0.03429,-0.06271
0.14483,0.98078,0.1307,-0.02883,-0.05745,-0.14585
0.14492,0.97914,0.14233,-0.05079,-0.06095,-0.15136
0.1453,0.97708,0.15552,-0.06067,-0.0273,-0.14327
0.14416,0.97516,0.16812,-0.00955,0.03181,-0.17044
0.14111,0.9734,0.18048,-0.06648,0.00709,-0.17546
0.13722,0.9717,0.19224,-0.14096,0.0527,-0.1647
0.13193,0.97026,0.20289,-0.24341,-0.00852,-0.13647
0.126,0.96924,0.21138,-0.0033,0.08642,-0.02975
0.11844,0.96869,0.21817,0.09257,-0.06929,-0.06032
0.11255,0.96801,0.22421,0.10201,0.02142,-0.02785
0.10968,0.96705,0.22971,0.02651,0.11956,0.01577
0.11326,0.9655,0.23445,-0.14975,0.22978,-0.02142
0.12144,0.96396,0.23668,-0.23904,0.31494,0.26745
0.13416,0.963,0.23368,-0.15706,0.24802,0.28507
0.15177,0.96384,0.219,-0.12931,0.18941,0.17347
0.16817,0.96651,0.19379,-0.46611,0.03004,0.14102
0.18349,0.96927,0.16379,-0.56109,0.0708,0.04326
0.19838,0.9713,0.13117,-0.61884,0.43291,-0.05182
0.21449,0.97102,0.10532,-0.55119,0.50787,-0.00895
0.23088,0.96947,0.08248,-0.04183,0.21804,0.06794
0.24669,0.9675,0.05541,0.07476,0.00375,-0.07416
0.2613,0.96476,0.03071,0.08474,0.03983,-0.0646
0.27342,0.96188,0.00386,0.01248,0.13602,-0.04916
0.27924,0.95988,-0.02522,-0.20461,0.00321,-0.03069
0.28445,0.9573,-0.05152,-0.26295,-0.06005,0.03167
0.28983,0.95404,-0.07615,-0.34113,-0.21635,0.09058
0.29321,0.95089,-0.09913,-0.31834,-0.24132,0.05689
0.29454,0.94836,-0.11765,-0.26195,-0.26948,0.03819
0.29366,0.947,-0.13016,-0.17319,-0.27845,0.04157
0.29098,0.94675,-0.13779,-0.04449,-0.24442,-0.0101
0.28608,0.94781,-0.14072,0.06225,-0.22743,-0.04502
0.27719,0.95048,-0.14048,0.09769,-0.24643,-0.06249
0.26342,0.95494,-0.1367,0.03742,-0.23736,-0.08199
0.24829,0.96034,-0.12683,0.01114,-0.23802,-0.15491
0.23373,0.96613,-0.1093,0.0241,-0.23235,-0.16856
0.21853,0.97162,-0.09044,-0.01176,0.08351,-0.16493
0.20477,0.97574,-0.07742,-0.03383,0.20258,-0.16093
0.19933,0.97763,-0.067,-0.07057,0.36983,-0.17579
0.20694,0.97663,-0.05791,-0.02735,0.37866,-0.42782
0.22197,0.97358,-0.05343,0.06807,-0.10978,-0.43988
0.23696,0.97031,-0.04838,0.06315,-0.07732,-0.43308
0.24244,0.96914,-0.04458,-0.0975,0.25138,0.07378
0.24057,0.97026,-0.0265,-0.36989,0.29702,-0.00985
0.23193,0.97271,-0.00553,-0.52224,0.1579,-0.10608
0.22445,0.97443,0.00936,-0.67605,-0.04795,-0.07427
0.21569,0.97639,0.01102,-0.28931,0.1494,0.07397
0.20732,0.97817,0.0138,-0.18251,0.14039,0.12495
0.20364,0.97865,0.02773,-0.14019,0.0584,0.09117
0.19948,0.97876,0.04713,-0.18366,-0.1069,0.04054
0.1906,0.97928,0.06827,-0.31991,-0.00898,0.00215
0.18058,0.97951,0.08908,-0.32182,0.0643,0.02307
0.17551,0.97851,0.10816,-0.03248,-0.08926,0.07687
0.17427,0.97597,0.13077,0.0087,-0.12505,0.02211
0.17353,0.97268,0.15413,-0.00076,-0.1051,-0.09519
0.1681,0.97039,0.17343,-0.09295,-0.03627,-0.06285
0.1562,0.97011,0.18568,-0.06703,-0.03407,-0.09684
0.1437,0.97012,0.19544,0.05682,0.01952,-0.25013
0.13348,0.96904,0.2077,0.08114,-0.09132,-0.25193
0.12568,0.96742,0.21973,0.07953,-0.11357,-0.26623
0.11743,0.96613,0.22976,0.12811,-0.08565,-0.28144
0.10856,0.96476,0.23967,0.14968,-0.0364,-0.30686
0.10089,0.96348,0.24802,0.14103,-0.04401,-0.30722
0.0934,0.96263,0.25416,-0.00419,-0.01869,-0.31531
0.08526,0.96148,0.26129,-0.04249,0.01879,-0.31585
0.07628,0.9599,0.26972,0.13068,0.14148,-0.17783
0.06793,0.95865,0.27633,0.22992,0.0441,-0.07984
0.06226,0.95887,0.27689,0.05885,-0.0279,-0.17142
0.05899,0.95903,0.27706,0.05461,0.06937,-0.10868
0.06159,0.95872,0.27756,-0.2651,0.33136,0.08606
0.07197,0.95925,0.27321,-0.37643,0.38656,0.16821
0.08984,0.96161,0.25926,-0.41656,0.34314,0.24427
0.11416,0.96604,0.23177,-0.52264,0.19708,0.22752
0.13693,0.97214,0.19022,-0.66621,0.31352,-0.0112
0.15645,0.97733,0.14257,-0.76657,0.53738,-0.3486
0.17363,0.97841,0.11206,-0.2812,0.732,-0.10843
0.18804,0.9788,0.08104,0.25113,0.40158,-0.0995
0.20255,0.97867,0.03407,0.68149,-0.02727,-0.20407
0.21808,0.97588,-0.00969,0.31033,0.08379,-0.20872
0.24922,0.9673,-0.04688,0.19489,0.00421,-0.14504
0.27807,0.95641,-0.0891,0.03608,-0.0234,-0.16403
0.29786,0.9447,-0.13712,-0.12719,-0.06819,-0.08507
0.31259,0.9312,-0.18745,-0.24149,-0.16835,-0.00414
0.32772,0.91594,-0.23163,-0.31047,-0.29264,-0.01009
0.34185,0.90112,-0.26665,-0.2439,-0.32098,0.0049
0.35005,0.88935,-0.29412,-0.10323,-0.29774,0.04265
0.35554,0.88074,-0.31286,-0.07191,-0.26813,0.03881
0.35922,0.87468,-0.3254,-0.05392,-0.21723,-0.03238
0.36088,0.87062,-0.33432,-0.12586,-0.19994,-0.07257
0.36075,0.86808,-0.34102,-0.13619,-0.21379,-0.06401
0.3593,0.86742,-0.3442,-0.15856,-0.18205,-0.10141
0.35686,0.86885,-0.34312,-0.08596,-0.13988,-0.15076
0.35349,0.87252,-0.33727,-0.03089,-0.03817,-0.20742
0.35009,0.8768,-0.32962,0.06993,0.09964,-0.24612
0.34793,0.87999,-0.32334,0.17285,0.12161,-0.29482
0.34447,0.8871,-0.30722,0.1117,-0.02303,-0.19193
0.33761,0.89943,-0.27755,-0.00867,0.38841,-0.19995
0.32257,0.91131,-0.25584,-0.14145,1.14005,-0.08765
0.30706,0.92455,-0.22564,-0.32393,1.14077,-0.01978
0.30028,0.9341,-0.19308,-0.03639,-0.16986,-0.02872
0.28287,0.94529,-0.1625,0.00468,-0.04107,0.05526
0.25641,0.95662,-0.1383,0.07234,0.0392,0.07723
0.22645,0.96659,-0.12003,-0.05776,0.09624,0.12271
0.19823,0.97476,-0.10263,-0.24191,0.1001,0.12193
0.17602,0.98089,-0.08283,-0.2059,0.04093,0.07109
0.15955,0.98521,-0.06242,-0.12377,-0.1179,-0.01085
0.14535,0.98844,-0.04292,-0.05366,-0.18591,-0.00672
0.13359,0.99075,-0.02373,0.03894,-0.24574,0.00387
0.12327,0.99236,-0.00367,0.12119,-0.21587,0.0321
0.11275,0.9935,0.01533,0.16441,-0.2086,-0.04511
0.10152,0.99433,0.03151,0.18628,-0.20259,-0.07752
0.09062,0.9948,0.04643,0.0812,-0.16858,-0.14017
0.08343,0.99454,0.06254,0.05057,-0.17978,-0.13431
0.0778,0.99391,0.07793,0.01066,-0.19598,-0.11033
0.07339,0.99322,0.09011,0.04062,-0.2047,-0.15514
0.06851,0.99244,0.10174,0.08828,-0.18092,-0.16125
0.06099,0.99182,0.11208,0.14722,-0.06607,-0.16073
0.05379,0.99106,0.122,0.15999,-0.00097,-0.19329
0.04968,0.98999,0.13206,0.18567,0.01779,-0.00848
0.04609,0.98949,0.13702,0.17959,0.05307,-0.0231
0.04137,0.98923,0.14035,0.12398,0.1066,-0.15493
0.03456,0.9885,0.14714,0.13597,0.10428,-0.15881
0.02991,0.98783,0.1526,0.14304,0.1631,-0.24719
0.02395,0.98678,0.16022,0.14559,0.33451,-0.14927
0.01927,0.98578,0.16691,0.02846,0.40993,-0.04999
0.01513,0.98513,0.17112,-0.03772,0.48095,0.03994
0.01126,0.98488,0.17284,-0.03224,0.68862,0.07958
0.01533,0.98516,0.17089,-0.17078,0.58305,0.0613
0.02702,0.9865,0.16149,-0.32695,0.16853,-0.10488
0.03626,0.98924,0.14166,-0.28423,-0.02429,-0.19962
0.04744,0.99298,0.10829,-0.04336,0.02228,-0.21219
0.062,0.9955,0.07159,0.06277,0.10214,-0.20117
0.08294,0.99595,0.0345,0.18101,0.23777,-0.2475
0.11102,0.99381,-0.00234,0.09089,0.14564,-0.18051
0.14449,0.98878,-0.03772,-0.03905,-0.0728,-0.08685
0.17736,0.98142,-0.07309,-0.1209,-0.23972,0.02986
0.20091,0.97378,-0.10669,-0.0522,-0.18328,0.00301
0.21176,0.96679,-0.14303,-0.06098,-0.15054,0.02604
0.22026,0.95948,-0.17572,-0.10016,-0.12192,-0.03051
0.2316,0.95035,-0.20779,-0.12082,-0.2103,0.00363
0.24698,0.93859,-0.24091,-0.1121,-0.25251,0.01671
0.26463,0.92544,-0.27114,-0.06801,-0.38896,-0.02748
0.28272,0.9135,-0.29254,0.02395,-0.30632,0.02184
0.29735,0.90331,-0.3092,0.04142,-0.28002,0.00336
0.30662,0.89687,-0.31874,0.01053,-0.21799,-0.05418
0.31138,0.89365,-0.32315,-0.01733,-0.16515,-0.14827
0.31111,0.89257,-0.32638,0.01905,-0.1616,-0.15173
0.30338,0.89441,-0.3286,0.09899,-0.11205,-0.14117
0.29315,0.89819,-0.32759,0.11157,0.042,-0.15815
0.28417,0.90186,-0.32541,0.12677,0.02215,-0.21197
0.28029,0.9064,-0.31603,0.10609,-0.28347,-0.08055
0.27473,0.91962,-0.28075,0.01541,-0.34776,-0.02434
0.2605,0.93454,-0.24243,-0.03739,0.89684,0.08908
0.23266,0.94582,-0.22647,-0.46208,1.57285,0.00401
0.20938,0.95689,-0.20126,-0.62117,0.5087,0.10563
0.20219,0.96537,-0.16482,0.1056,-0.35314,0.07795
0.17872,0.97392,-0.13977,0.17622,-0.23306,0.12972
0.14749,0.9812,-0.1244,0.15488,-0.13947,0.11885
0.11673,0.98689,-0.11138,-0.03157,0.02121,0.07944
0.09332,0.99091,-0.09686,-0.0532,0.07783,0.05
0.07711,0.99381,-0.07993,-0.02956,-0.05948,-0.01026
0.06276,0.99587,-0.06545,-0.0193,-0.081,-0.06863
0.04909,0.99736,-0.05342,0.09483,-0.21544,-0.0349
0.03841,0.99849,-0.03911,0.11051,-0.27753,0.0448
0.02954,0.99931,-0.02206,0.11429,-0.30173,0.03103
0.02122,0.99976,-0.00395,0.14612,-0.24065,-0.05582
0.01285,0.99984,0.01236,0.18709,-0.19719,-0.05182
0.00763,0.99956,0.02832,0.1759,-0.18668,-0.04894
0.00581,0.99898,0.04459,0.03727,-0.15061,-0.10251
0.00323,0.99817,0.06033,0.0087,-0.09175,-0.13765
-0.00011,0.99723,0.07424,0.02354,-0.05252,-0.09127
-0.00446,0.99644,0.08418,0.11308,0.07965,-0.13002
-0.01127,0.99536,0.09551,0.17045,0.20815,-0.09868
-0.01862,0.99402,0.10752,0.23462,0.22468,-0.13459
-0.02588,0.99274,0.1174,0.26407,0.29129,-0.20569
-0.03295,0.99138,0.12674,0.26167,0.2465,-0.20425
-0.03655,0.9903,0.13401,0.24636,0.16662,-0.19864
-0.03717,0.98952,0.13945,0.16445,0.09599,-0.0547
-0.0357,0.98937,0.1409,-0.01395,0.16805,0.07929
-0.03053,0.99006,0.13723,-0.06634,0.40575,0.06716
-0.01904,0.99137,0.12965,-0.03758,0.57864,0.03978
-0.00229,0.99346,0.11409,-0.28874,0.22442,-0.10181
0.01264,0.99584,0.09018,-0.36004,0.09321,-0.21954
0.02686,0.99786,0.05953,-0.21828,0.02031,-0.11864
0.04389,0.99875,0.02379,0.00888,0.03095,-0.09308
0.06828,0.99759,-0.01207,0.15406,0.17783,-0.13211
0.10119,0.9939,-0.04373,0.15334,0.15478,-0.06546
0.13646,0.98803,-0.07185,0.04814,-0.12922,-0.06309
0.16375,0.98156,-0.09853,-0.03648,-0.24252,-0.07343
0.18291,0.97541,-0.12296,-0.05616,-0.21265,-0.05237
0.1973,0.96894,-0.14909,-0.10163,-0.13646,-0.05265
0.21175,0.96147,-0.17527,-0.11606,-0.12552,-0.0183
0.22652,0.95275,-0.20239,-0.11687,-0.23309,0.0258
0.24289,0.94224,-0.2306,-0.05833,-0.31541,-0.00594
0.26088,0.93049,-0.25716,-0.05661,-0.29438,0.02178
0.27679,0.9193,-0.27978,-0.02513,-0.31409,0.01403
0.28916,0.91062,-0.2952,-0.0553,-0.20924,-0.01731
0.2985,0.90449,-0.30461,-0.08716,-0.22709,-0.05142
0.30435,0.90089,-0.30947,-0.11595,-0.14869,-0.10293
0.30594,0.9,-0.31048,-0.04924,-0.09244,-0.15326
0.3019,0.90165,-0.30964,0.00808,-0.04359,-0.20362
0.29159,0.90571,-0.30768,0.1715,0.16177,-0.21127
0.28149,0.91047,-0.30299,0.22341,-0.01504,-0.10574
0.27439,0.91876,-0.28388,0.24536,-0.17024,-0.06253
0.26592,0.93116,-0.24943,0.08038,0.1291,-0.11422
0.25269,0.94105,-0.22486,-0.16017,0.74958,0.05595
0.22717,0.95391,-0.19606,-0.17125,1.09553,0.08586
0.20756,0.96391,-0.16668,-0.24029,0.06094,0.01362
0.19463,0.97079,-0.1403,-0.0595,-0.32858,0.02067
0.16941,0.97851,-0.11753,0.02136,-0.27915,0.0702
0.14024,0.98491,-0.10135,-0.05194,-0.04361,0.07234
0.11334,0.9897,-0.08741,-0.10834,0.13602,0.06124
0.09114,0.99318,-0.07266,-0.09757,0.11476,0.05781
0.07534,0.99563,-0.05513,-0.04435,-0.01092,-0.02663
0.06055,0.99748,-0.03691,0.04757,-0.11403,-0.04149
0.04375,0.99886,-0.01875,0.0789,-0.16462,-0.012
0.02831,0.9996,-0.00091,0.09187,-0.214,-0.00536
0.01876,0.99968,0.01646,0.12815,-0.1746,-0.04849
0.01267,0.99934,0.03395,0.14153,-0.19474,-0.05063
0.00891,0.99866,0.05094,0.10822,-0.22803,-0.033
0.00551,0.99764,0.06837,0.00085,-0.20202,-0.07696
0.00092,0.99639,0.08489,-0.00966,-0.18027,-0.08948
-0.00386,0.99518,0.09799,0.01355,-0.15954,-0.09188
-0.00818,0.99403,0.10877,0.03385,-0.13032,-0.09904
-0.01209,0.99294,0.11797,0.06678,-0.07148,-0.1332
-0.01598,0.99173,0.12729,0.08835,-0.0586,-0.13271
-0.01818,0.99067,0.13501,0.1401,-0.01217,-0.16043
-0.02013,0.98986,0.14055,0.13382,0.00171,-0.14984
-0.02089,0.98929,0.14446,0.1885,0.06356,-0.0089
-0.02052,0.98886,0.14739,0.11607,0.2043,-0.2087
-0.02161,0.98756,0.15571,0.11868,0.23099,-0.25856
-0.02401,0.98638,0.16268,0.15171,0.32421,-0.26009
-0.0274,0.98549,0.16748,0.12095,0.3448,-0.10148
-0.02991,0.98523,0.16856,0.04828,0.32098,-0.04479
-0.0304,0.9855,0.16689,-0.03577,0.41144,0.06742
-0.02851,0.98602,0.16417,-0.11256,0.7185,0.08022
-0.02114,0.98692,0.15981,-0.26822,0.55294,-0.00509
-0.01358,0.98857,0.15008,-0.35245,-0.09191,-0.14415
-0.00953,0.99181,0.1273,-0.23679,-0.07966,-0.12193
-0.00225,0.99546,0.09514,-0.08781,-0.0624,-0.0943
0.01061,0.99803,0.06178,0.2121,0.17378,-0.24175
0.03591,0.99899,0.0269,0.24027,0.24694,-0.21491
0.07221,0.99735,-0.00887,0.18745,0.20062,-0.12791
0.11085,0.99304,-0.03984,-0.08704,-0.20962,-0.11728
0.14267,0.98749,-0.06704,-0.11815,-0.21013,-0.12284
0.16166,0.98248,-0.09273,-0.11805,-0.18732,-0.08481
0.17274,0.9777,-0.11937,-0.03622,-0.14471,0.02251
0.18414,0.97188,-0.14672,-0.03134,-0.17477,0.03489
0.19902,0.96402,-0.17621,-0.07043,-0.28208,0.0274
0.21512,0.95405,-0.20859,-0.02466,-0.30383,0.06104
0.23463,0.94145,-0.2421,-0.02314,-0.26454,-0.00507
0.25521,0.92852,-0.26966,-0.07143,-0.34926,0.05721
0.27064,0.91787,-0.29027,-0.06123,-0.38771,0.07473
0.27823,0.91083,-0.30493,-0.07771,-0.36284,-0.0095
0.2824,0.90708,-0.31216,-0.10766,-0.25311,-0.07621
0.28318,0.90522,-0.31682,-0.05608,-0.11233,-0.10993
0.27848,0.90573,-0.31952,0.01418,0.06307,-0.15553
0.27027,0.90912,-0.31694,0.06257,0.08061,-0.23766
0.26475,0.91419,-0.30686,0.16269,-0.01715,-0.22922
0.26186,0.922,-0.28519,0.25724,-0.19846,-0.12991
0.25167,0.93586,-0.24663,0.15114,-0.04631,0.0343
0.2291,0.9483,-0.21961,-0.10059,0.77042,-0.13366
0.19901,0.9602,-0.19598,-0.32797,1.71636,0.06978
0.19195,0.96754,-0.16437,0.01744,-0.08823,-0.02907
0.18302,0.97339,-0.13785,-0.00948,-0.32351,-0.01262
0.1596,0.97987,-0.11988,0.01195,-0.23361,0.02947
0.12785,0.98626,-0.10462,-0.01167,-0.1568,0.0618
0.09517,0.99165,-0.08694,-0.09378,0.07422,0.14334
0.06795,0.99555,-0.06529,-0.12291,0.10228,0.11024
0.04986,0.99799,-0.03906,-0.08567,0.02835,0.01473
0.0357,0.99923,-0.01622,0.00268,-0.09891,-0.04273
0.02005,0.99979,0.00027,0.07157,-0.2907,0.08869
0.00356,0.99984,0.01743,0.07556,-0.33495,0.09955
-0.00867,0.99928,0.03688,0.06627,-0.26978,0.01522
-0.01842,0.99833,0.05471,0.07033,-0.1971,-0.05837
-0.02513,0.9973,0.06895,0.08188,-0.15695,-0.02595
-0.02822,0.9962,0.08235,0.01209,-0.17459,-0.06708
-0.03083,0.99481,0.09695,-0.02755,-0.16995,-0.10978
-0.03393,0.99365,0.1072,0.00167,-0.1133,-0.09548
-0.03484,0.99287,0.11397,0.07987,-0.10235,-0.11124
-0.03485,0.99201,0.12117,0.16507,-0.11123,-0.0794
-0.03691,0.99121,0.12698,0.20401,-0.03809,-0.1177
-0.04024,0.99032,0.13283,0.13266,-0.01362,-0.21692
-0.041,0.98967,0.1373,0.18743,0.03773,0.06194
-0.03997,0.98929,0.14038,0.28583,0.07018,-0.04193
-0.04142,0.98856,0.14498,0.14596,0.11527,-0.28093
-0.04303,0.98756,0.15118,0.16748,0.14316,-0.23301
-0.04443,0.98613,0.1599,0.14338,0.19689,-0.27741
-0.04618,0.9846,0.16859,0.09622,0.30881,-0.18353
-0.0495,0.98371,0.17281,-0.00754,0.36468,-0.01216
-0.05376,0.98318,0.17453,-0.04437,0.38044,0.04149
-0.05758,0.98288,0.17497,-0.10758,0.56999,0.06342
-0.05707,0.98278,0.17572,-0.22299,0.40711,0.03055
-0.05428,0.98348,0.17265,-0.3255,0.2398,-0.02967
-0.05477,0.98595,0.15776,-0.25131,-0.07187,-0.04238
-0.05313,0.99,0.13068,-0.12993,3e-05,-0.00916
-0.04557,0.99393,0.1001,0.12394,0.13954,-0.09452
-0.02776,0.9972,0.06934,0.31842,0.16103,-0.22358
0.00483,0.99941,0.03376,0.31466,0.16682,-0.21979
0.04434,0.99899,-0.00619,0.16991,0.16026,-0.20668
0.07851,0.99591,-0.0446,-0.1038,-0.0764,-0.11589
0.09974,0.9917,-0.0811,-0.07003,-0.06929,-0.13126
0.10984,0.98702,-0.11711,-0.04439,-0.07491,-0.09029
0.11825,0.9815,-0.15054,-0.03476,-0.13659,0.02117
0.12788,0.97477,-0.18294,-0.02212,-0.1901,0.07726
0.14147,0.96619,-0.21553,-0.02832,-0.25135,0.05528
0.15984,0.9556,-0.24754,-0.04128,-0.24358,0.08223
0.18243,0.94237,-0.28045,-0.06164,-0.25635,0.05961
0.20353,0.92905,-0.30891,-0.09914,-0.36666,0.10496
0.2172,0.91872,-0.32981,-0.10523,-0.40825,0.12524
0.22756,0.91165,-0.34219,-0.11779,-0.32512,0.08494
0.23876,0.90568,-0.35032,-0.09032,-0.30781,-0.01195
0.24804,0.90054,-0.35707,-0.06682,-0.3105,-0.03317
0.25239,0.8976,-0.36139,-0.03958,-0.19947,-0.04387
0.25418,0.89753,-0.36031,0.00331,-0.06782,-0.11741
0.25643,0.89922,-0.35447,0.03329,-0.01177,-0.19863
0.25731,0.90196,-0.34678,0.19624,0.13869,-0.33506
0.25771,0.90578,-0.33637,0.31979,0.12394,-0.38594
0.25703,0.91366,-0.3149,0.31789,0.01083,-0.19731
0.24752,0.92453,-0.28979,0.30681,0.29416,-0.15514
0.22736,0.93587,-0.26917,0.23539,0.59743,-0.13626
0.20975,0.94815,-0.23877,-0.22553,0.90767,-0.07878
0.20168,0.95805,-0.20364,0.02205,-0.05718,-0.00805
0.17995,0.9679,-0.17546,0.03504,-0.16888,-0.03924
0.14451,0.97771,-0.15231,0.04972,-0.12456,0.00087
0.10724,0.98549,-0.13157,-0.09171,-0.01445,0.14567
0.07308,0.99133,-0.10922,-0.06051,-0.00024,0.15427
0.04621,0.99551,-0.08261,-0.0355,0.01792,0.11349
0.02634,0.99819,-0.05393,0.0598,-0.11877,0.02892
0.01021,0.99955,-0.02809,0.10493,-0.2064,0.02004
-0.00359,0.99998,-0.0044,0.13314,-0.38867,0.02811
-0.01462,0.99972,0.01851,0.12788,-0.37557,-0.01192
-0.02426,0.99893,0.03919,0.13056,-0.33551,-0.0522
-0.03111,0.99782,0.05814,0.06149,-0.24671,-0.04293
-0.03444,0.9965,0.07616,0.06003,-0.25646,-0.04235
-0.03814,0.995,0.0923,0.02757,-0.20097,-0.04339
-0.04261,0.99355,0.10509,0.0644,-0.12022,-0.05539
-0.04474,0.99221,0.11618,0.03968,-0.14818,-0.077
-0.0447,0.99084,0.1274,0.00956,-0.13308,-0.09008
-0.04572,0.98974,0.13534,0.079,-0.0093,-0.0783
-0.04891,0.98907,0.13907,0.083,-0.04594,-0.09833
-0.0501,0.98881,0.14045,0.11758,-0.01175,-0.12501
-0.04797,0.98881,0.14125,0.18845,0.0509,-0.06148
-0.04327,0.98886,0.14239,0.14167,0.08972,-0.16357
-0.03884,0.9884,0.14678,0.12288,0.13223,-0.12343
-0.03467,0.98805,0.15011,0.13455,0.15146,-0.09266
-0.03449,0.98754,0.1535,0.04609,0.21923,-0.10309
-0.03877,0.98686,0.15679,0.05012,0.24298,-0.05431
-0.04648,0.9857,0.16197,0.11604,0.17814,-0.1276
-0.05784,0.984,0.16846,0.16554,0.11123,-0.15381
-0.07157,0.98178,0.17599,0.21376,0.10773,-0.11433
-0.08414,0.97919,0.18463,-0.00611,0.10613,0.04003
-0.09761,0.97603,0.1945,0.03053,0.25266,0.01766
-0.11188,0.97273,0.20316,-0.15225,0.50802,-0.11264
-0.1232,0.97009,0.20915,-0.0307,0.67738,0.0136
-0.13625,0.96767,0.21223,-0.04036,0.3211,-0.0144
-0.14788,0.96601,0.21201,0.0674,0.24626,-0.0998
-0.15335,0.96655,0.20557,0.11837,0.3146,-0.1917
-0.14916,0.96945,0.19472,0.03521,0.16418,-0.21231
-0.1357,0.97409,0.18091,-0.07959,0.03092,-0.22527
-0.11662,0.9792,0.16602,-0.09822,0.02424,-0.18847
-0.0935,0.98404,0.15136,-0.10858,-0.01891,-0.1853
-0.06778,0.98833,0.13637,-0.16654,-0.00971,-0.1915
-0.04292,0.99183,0.12006,-0.20881,-0.00787,-0.12793
-0.02114,0.99471,0.10045,-0.22114,-0.12704,-0.04715
-0.00456,0.99684,0.07918,-0.24272,-0.32895,0.01586
0.0083,0.99823,0.05879,-0.23448,-0.3934,0.04115
0.01933,0.99908,0.03821,-0.19292,-0.36477,0.07098
0.03051,0.99941,0.01542,-0.09022,-0.30375,0.01125
0.04566,0.9989,-0.01,-0.06199,-0.21536,-0.02043
0.0655,0.99715,-0.03733,-0.05332,-0.11457,-0.02877
0.08702,0.99399,-0.06638,-0.07107,-0.09073,-0.00398
0.10467,0.98987,-0.09586,-0.06072,-0.08469,0.02805
0.11768,0.98542,-0.12287,-0.02637,-0.11955,-0.0083
0.12909,0.98091,-0.1454,-0.02316,-0.12532,0.02263
0.14149,0.97645,-0.16284,-0.00349,-0.0352,-0.03075
0.1484,0.97265,-0.17869,0.01101,-0.03177,-0.04955
0.14758,0.97013,-0.19251,-0.01457,-0.11181,-0.03635
0.14375,0.96924,-0.19976,0.0081,-0.23155,-0.0418
0.13564,0.97047,-0.19943,0.00468,-0.29196,-0.11421
0.1215,0.97371,-0.19268,0.08123,-0.28387,-0.12435
0.1008,0.97864,-0.17918,0.15651,-0.30368,-0.14248
0.07475,0.98472,-0.15727,0.21859,-0.32409,-0.20284
0.04511,0.99091,-0.12669,0.2932,-0.43308,-0.27832
0.01479,0.9956,-0.09254,0.31906,-0.39225,-0.26231
-0.01398,0.99765,-0.06701,0.202,0.04743,-0.15873
-0.032,0.99803,-0.0539,-0.16848,0.67691,-0.07569
-0.02538,0.99842,-0.05012,-0.28425,0.94633,-0.4578
-0.00606,0.99852,-0.05389,-0.17061,0.57704,-0.6193
0.01596,0.99848,-0.05266,-0.12701,0.14103,-0.63956
0.03606,0.99748,-0.06107,-0.24839,0.16425,-0.09471
0.05066,0.99647,-0.0668,-0.45964,0.43573,0.18073
0.04917,0.99716,-0.05703,-0.52649,0.19567,0.33912
0.04014,0.99831,-0.04181,-0.48925,0.06904,0.23155
0.02429,0.99922,-0.03085,-0.12029,-0.05962,0.1289
0.0096,0.99954,-0.02856,0.04936,-0.11639,0.11691
-0.00143,0.99964,-0.02672,-0.07008,-0.19286,0.3668
-0.00909,0.99991,-0.0093,-0.30983,-0.26679,0.59846
-0.0199,0.99946,0.02576,-0.39653,-0.27174,0.53012
-0.03261,0.9975,0.06252,-0.44731,0.1753,-0.16727
-0.04158,0.99615,0.07709,-0.05824,0.11882,0.09857
-0.04366,0.99577,0.08075,0.07062,0.01915,0.17084
-0.03837,0.99515,0.09056,0.18911,-0.10702,0.27687
-0.03578,0.9937,0.10611,0.15285,-0.04294,-0.08126
-0.03904,0.99214,0.11885,0.09829,0.00034,-0.12295
-0.0431,0.99141,0.12344,0.14772,-0.01608,0.05054
-0.04246,0.9909,0.12766,0.17523,-0.1152,0.06174
-0.03817,0.98976,0.13748,0.13712,-0.12056,-0.08463
-0.03462,0.98847,0.14736,0.15616,-0.10534,-0.11378
-0.03239,0.98759,0.15365,0.16485,-0.03388,-0.12263
-0.03086,0.98706,0.15733,0.22595,-0.06447,-0.19853
-0.03266,0.98651,0.16038,0.2936,-0.02209,-0.27598
-0.03876,0.98553,0.165,0.32267,0.08796,-0.2425
-0.04624,0.98455,0.16886,0.3209,0.07243,-0.25621
-0.05506,0.98332,0.17331,0.15956,0.01624,-0.28287
-0.06547,0.98162,0.17926,0.21815,-0.00691,-0.14669
-0.07711,0.97939,0.18668,0.26453,-0.08562,-0.06361
-0.0847,0.97643,0.1985,0.19869,-0.14223,-0.09276
-0.08861,0.97343,0.21112,0.00369,0.08391,-0.1713
-0.08965,0.97017,0.2252,-0.11775,0.15365,-0.15349
-0.08355,0.96842,0.23488,-0.04137,0.1427,0.07058
-0.0753,0.9687,0.23651,-0.21474,0.26131,0.30841
-0.06192,0.97157,0.22846,-0.10925,0.12286,0.50185
-0.0396,0.97748,0.20726,-0.21876,0.02229,0.29841
-0.01092,0.98522,0.1709,-0.36231,-0.00019,0.31061
0.02072,0.99202,0.1243,-0.58767,0.32895,0.00897
0.05553,0.99535,0.07867,-0.69308,0.74566,-0.04265
0.08878,0.99472,0.05129,-0.63567,0.96455,0.01891
0.11287,0.99357,0.00772,0.30926,0.46334,-0.06193
0.13784,0.98978,-0.03652,0.38225,0.25118,-0.23476
0.17014,0.98301,-0.06887,0.25515,0.22865,-0.20697
0.20351,0.97279,-0.11067,-0.04943,0.13719,0.13158
0.23222,0.95809,-0.1677,-0.09712,-0.05837,0.18198
0.25738,0.93928,-0.22693,-0.11901,-0.08511,0.15017
0.27853,0.91945,-0.27755,-0.20512,0.02088,0.12899
0.29333,0.8995,-0.32382,-0.18441,-0.22454,0.20818
0.30408,0.88128,-0.36176,-0.12171,-0.32134,0.18627
0.31354,0.86862,-0.38365,0.05193,-0.45558,0.13293
0.31944,0.85867,-0.40079,0.05193,-0.33734,0.0408
0.32361,0.8496,-0.41647,0.0114,-0.22737,0.01098
0.32622,0.84152,-0.43061,-0.02829,-0.11552,0.01899
0.32563,0.83594,-0.44177,-0.03565,-0.28673,0.05066
0.32168,0.83296,-0.45021,-0.0881,-0.34946,-0.0336
0.31447,0.83191,-0.4572,-0.09061,-0.30681,-0.05841
0.30788,0.8319,-0.46168,0.05998,-0.06849,-0.12965
0.30172,0.83341,-0.46302,0.06614,-0.07,-0.1283
0.29691,0.83571,-0.46198,0.10562,0.0169,-0.16996
0.30001,0.83402,-0.46304,0.19392,0.43605,-0.31129
0.31287,0.82859,-0.46428,0.1845,0.61126,-0.32735
0.31525,0.83531,-0.4504,0.0437,0.54051,-0.18027
0.3035,0.84744,-0.43558,-0.2779,0.19948,0.00287
0.2894,0.8623,-0.41555,-0.21314,-0.02421,0.05941
0.27125,0.88145,-0.3866,-0.13734,-0.02484,0.2549
0.24796,0.90351,-0.34955,-0.15189,0.12995,0.21669
0.22237,0.92418,-0.31055,-0.2434,0.38075,0.28795
0.1971,0.93988,-0.27886,-0.19193,0.31947,0.25823
0.17064,0.9507,-0.25894,-0.05595,0.11197,0.23352
0.14373,0.95978,-0.24116,-0.01421,-0.06624,0.17074
0.11987,0.9679,-0.22091,-0.01232,-0.09319,0.13603
0.10093,0.9748,-0.1989,-0.02134,-0.10132,0.14304
0.08751,0.98072,-0.17469,-0.02067,-0.16909,0.14046
0.07576,0.98569,-0.15059,-0.00509,-0.22125,0.1021
0.06381,0.98979,-0.12746,0.0162,-0.20445,0.0833
0.05506,0.99305,-0.10398,0.07834,-0.21102,0.0544
0.04871,0.99556,-0.0805,0.06577,-0.23453,0.02374
0.04313,0.99736,-0.05833,0.0127,-0.27922,0.06292
0.03903,0.99832,-0.04262,-0.06072,-0.24436,0.07219
0.03351,0.99896,-0.03069,-0.0894,-0.14262,-0.03477
0.02683,0.99944,-0.01963,-0.01551,-0.09237,0.15621
0.02139,0.99971,-0.01052,0.05038,0.00775,0.03727
0.01717,0.99985,-0.0008,0.04032,0.03361,0.03542
0.01378,0.99988,0.00696,0.09636,0.03546,0.06234
0.00975,0.99987,0.01258,0.02428,0.16416,-0.06352
0.00604,0.99986,0.01546,0.05497,0.30764,-0.06975
0.00283,0.99983,0.01816,0.10539,0.352,-0.0944
0.00235,0.99979,0.0203,0.11117,0.20931,0.00903
0.00532,0.99976,0.02111,0.07105,0.12961,0.0494
0.0114,0.99976,0.01842,-0.15857,0.25059,0.15029
0.02056,0.99972,0.01129,-0.18778,0.37362,0.07926
0.03306,0.99945,0.00261,-0.31244,0.3449,0.11321
0.04671,0.99884,-0.01153,-0.28089,0.03339,-0.03424
0.06265,0.99741,-0.03525,-0.12636,0.03624,-0.05635
0.08246,0.99437,-0.06648,-0.07409,0.00873,-0.02941
0.11031,0.989,-0.09855,0.01669,0.05428,-0.01098
0.14672,0.98039,-0.13151,0.0127,0.25099,-0.04702
0.18322,0.96882,-0.16676,-0.0416,0.29134,-0.05083
0.21314,0.95627,-0.20028,-0.25682,0.05292,0.03806
0.23741,0.94395,-0.22932,-0.30525,-0.0305,0.05205
0.25624,0.93197,-0.25645,-0.29347,-0.0752,0.07947
0.27387,0.91944,-0.28216,-0.20032,-0.03123,0.06126
0.29064,0.90519,-0.31008,-0.13729,-0.04106,0.10447
0.30189,0.8897,-0.34247,0.00397,-0.21671,0.10533
0.30774,0.87453,-0.37481,0.06581,-0.20711,0.08981
0.31212,0.86019,-0.40329,0.06348,-0.17228,0.09192
0.31504,0.84862,-0.42495,-0.02411,-0.16659,0.12967
0.31363,0.84079,-0.44125,-0.11293,-0.16461,0.1474
0.30815,0.83745,-0.45136,-0.14192,-0.10762,0.13287
0.29967,0.83798,-0.45604,-0.17112,-0.08765,0.06466
0.29002,0.84063,-0.45741,-0.25215,-0.06817,-0.00101
0.27927,0.84457,-0.45684,-0.16726,-0.03511,-0.0535
0.26769,0.85126,-0.45132,-0.1095,0.01499,-0.09138
0.25764,0.86116,-0.43819,-0.02309,0.07966,-0.1106
0.25151,0.87575,-0.41206,0.05325,0.29345,0.03982
0.243,0.89228,-0.38049,0.04737,0.5514,0.08515
0.22355,0.90923,-0.35117,-0.08117,0.91996,0.08813
0.20687,0.92343,-0.32324,-0.30252,0.23632,0.11098
0.19469,0.93535,-0.2953,-0.10466,0.03962,0.2004
0.1784,0.9455,-0.27238,0.03959,-0.20409,0.1631
0.15598,0.95478,-0.25309,0.02241,-0.29487,0.21672
0.13032,0.96325,-0.23488,0.0223,-0.15592,0.26177
0.10818,0.97004,-0.21752,0.00652,0.03889,0.16795
0.09292,0.97564,-0.1987,0.00199,0.06382,0.13413
0.08336,0.98041,-0.17842,-0.00873,-0.01874,0.11369
0.07592,0.98452,-0.15797,-0.03526,-0.12452,0.10402
0.06968,0.98802,-0.13767,0.04398,-0.20395,0.11054
0.0631,0.99097,-0.1183,0.07199,-0.17097,0.08681
0.05533,0.99324,-0.10204,0.1381,-0.10084,0.06112
0.0478,0.99508,-0.08678,0.07648,-0.14303,0.06485
0.04058,0.99678,-0.06912,0.03737,-0.16673,0.04578
0.03237,0.99804,-0.05344,-0.05602,-0.14991,0.06054
0.02475,0.99883,-0.04151,-0.0484,-0.1507,0.04861
0.01733,0.99939,-0.03023,-0.05388,-0.14694,0.01439
0.00999,0.99977,-0.01873,0.02332,-0.14082,0.09206
0.00417,0.99992,-0.01131,0.02194,-0.09114,-0.01322
0.00094,0.99999,-0.00397,0.04199,-0.10727,0.0767
0.00076,0.99999,0.0025,0.08009,0.07436,0.04056
0.00077,0.99994,0.01067,0.06311,0.15402,-0.05602
-0.00057,0.99979,0.02018,0.07911,0.18734,-0.01988
-0.00413,0.99958,0.02866,0.12948,0.31073,-0.1064
-0.0088,0.99933,0.03529,0.15997,0.34562,-0.07649
-0.01197,0.99912,0.04009,0.1572,0.37364,-0.08463
-0.01287,0.99896,0.04371,-0.03028,0.32897,0.00019
-0.01296,0.99899,0.0429,-0.09781,0.31932,0.10167
-0.01081,0.99922,0.03774,-0.11276,0.34471,0.15413
-0.00386,0.99952,0.03042,-0.18547,0.48046,0.06795
0.00758,0.99979,0.01868,-0.25143,0.22418,-0.04046
0.01796,0.99982,-0.00443,-0.26408,0.17014,-0.06512
0.02831,0.9989,-0.03742,-0.08003,-0.01084,0.07126
0.04643,0.99625,-0.07289,0.10167,0.00045,0.05915
0.07499,0.99155,-0.1058,0.11315,0.08412,-0.0478
0.11328,0.98362,-0.14022,0.03301,0.10164,-0.08227
0.15303,0.97247,-0.1757,-0.10364,-0.11821,0.08407
0.18492,0.95992,-0.21059,-0.10594,0.01078,-0.05433
0.19836,0.94816,-0.24827,-0.15875,-0.20236,0.17067
0.20706,0.93705,-0.28117,-0.14387,-0.18906,0.13188
0.21694,0.92497,-0.31204,-0.16052,-0.21418,0.19499
0.22583,0.91105,-0.34495,-0.13992,-0.27475,0.2037
0.23271,0.89627,-0.37754,-0.01448,-0.26836,0.09077
0.24265,0.8828,-0.40222,-0.00685,-0.22551,0.08443
0.25531,0.87082,-0.42011,-0.04025,-0.14276,0.12968
0.26732,0.86092,-0.43284,-0.05398,-0.16167,0.10026
0.27591,0.85415,-0.44079,-0.06773,-0.16913,0.08246
0.27886,0.85058,-0.44581,-0.08713,-0.13029,0.06662
0.27661,0.85007,-0.44817,-0.08512,-0.07222,0.02607
0.27086,0.85205,-0.44793,-0.04554,-0.00746,0.00356
0.26338,0.85666,-0.44357,0.02913,0.09887,-0.06733
0.2555,0.86357,-0.43471,0.05732,0.19321,-0.12445
0.25177,0.87283,-0.41806,0.04894,0.08128,0.05258
0.24775,0.8882,-0.38693,0.04092,0.39526,0.14128
0.23224,0.90346,-0.3603,-0.0967,1.0379,0.07951
0.20898,0.91908,-0.33408,-0.30095,0.39594,0.10502
0.19291,0.93219,-0.30628,-0.10416,0.05535,0.16313
0.16652,0.9439,-0.28517,-0.03732,0.03779,0.2349
0.14071,0.95529,-0.26001,-0.0532,-0.0894,0.2645
0.11793,0.96448,-0.23634,-0.0463,-0.1816,0.20038
0.0946,0.97178,-0.21608,0.01315,-0.15926,0.18628
0.07298,0.97771,-0.19687,0.09084,-0.07504,0.1234
0.05518,0.98235,-0.17874,0.12213,-0.00069,0.09428
0.04257,0.98615,-0.16031,0.03928,-0.1577,0.11745
0.03489,0.98936,-0.14123,0.01821,-0.22802,0.09736
0.03097,0.99216,-0.12101,0.00546,-0.2669,0.06806
0.02638,0.99444,-0.10189,0.07395,-0.17151,0.06902
0.01944,0.99607,-0.08638,0.08088,-0.17313,0.05351
0.01187,0.99736,-0.07153,0.07716,-0.16992,0.11205
0.00378,0.99847,-0.05509,-0.01936,-0.1436,0.07701
-0.0047,0.99916,-0.04065,-0.04588,-0.08676,0.00171
-0.01194,0.99955,-0.02744,-0.02335,-0.05962,0.11507
-0.01826,0.99974,-0.01331,-0.01766,-0.05298,0.12957
-0.02373,0.99971,-0.00321,-0.00996,-0.02331,0.12757
-0.02635,0.99964,0.00483,0.09184,0.11891,-0.07061
-0.02899,0.9995,0.01256,0.20727,0.22186,0.00937
-0.03323,0.99928,0.01791,0.26907,0.27298,0.03121
-0.03621,0.99906,0.02364,0.2857,0.27349,-0.09615
-0.03834,0.99879,0.0307,0.24889,0.23676,-0.06811
-0.03942,0.99854,0.0368,0.18412,0.21359,-0.06465
-0.03951,0.99832,0.04232,-0.23802,0.10793,0.16611
-0.03724,0.99833,0.04403,-0.31684,0.25956,0.22067
-0.03045,0.99874,0.03991,-0.31985,0.45361,0.14309
-0.01565,0.99936,0.03199,-0.31051,0.38714,0.03247
-0.00028,0.99987,0.0161,-0.32603,0.01028,-0.05338
0.01444,0.99983,-0.01069,-0.12357,-0.10318,-0.09319
0.03234,0.99843,-0.04556,0.06817,-0.09568,-0.09348
0.05732,0.9951,-0.08053,0.13451,0.13422,-0.10272
0.09455,0.98901,-0.11359,0.11967,0.26306,-0.06769
0.13693,0.97984,-0.14547,-0.064,0.05805,-0.10085
0.17276,0.9694,-0.1744,-0.09982,0.06849,-0.07192
0.19368,0.95909,-0.20647,-0.22458,-0.08653,0.13593
0.20862,0.94847,-0.23848,-0.19463,-0.16446,0.12791
0.22454,0.93785,-0.26458,-0.19546,-0.16994,0.07914
0.2405,0.92613,-0.29058,-0.16825,-0.17256,0.09034
0.25507,0.91167,-0.32217,-0.08619,-0.25196,0.10807
0.26661,0.89539,-0.35664,0.03542,-0.31644,0.09704
0.27753,0.8807,-0.38386,0.01982,-0.25706,0.11658
0.28622,0.86963,-0.40226,-0.01983,-0.13216,0.06278
0.29075,0.86216,-0.4149,-0.07147,-0.01656,0.03707
0.28834,0.85852,-0.42403,0.00338,0.02043,0.03875
0.2774,0.85897,-0.43037,-0.00541,-0.02226,0.01601
0.26082,0.8626,-0.43346,-0.06964,-0.04352,-0.02729
0.24623,0.86747,-0.43227,-0.07087,-0.07321,-0.0303
0.23764,0.87399,-0.42387,-0.01503,0.00133,-0.04691
0.23195,0.88532,-0.40299,0.05883,-0.01427,0.03329
0.22128,0.90365,-0.36667,0.08039,0.13415,0.13198
0.19685,0.92068,-0.33704,-0.17748,0.86413,0.18393
0.16541,0.93531,-0.31277,-0.56576,1.12146,0.19883
0.15271,0.94619,-0.28531,-0.5602,0.50939,0.26881
0.14379,0.95494,-0.25962,0.01879,-0.40438,0.16831
0.12293,0.96275,-0.24081,0.04239,-0.31543,0.25666
0.09634,0.96935,-0.22597,0.06504,-0.22065,0.24083
0.0726,0.97488,-0.21057,0.06442,0.15498,0.15755
0.05516,0.98,-0.19116,0.08186,0.14985,0.13814
0.04763,0.98452,-0.16864,0.04388,0.0215,0.14582
0.0436,0.98809,-0.14753,-0.03641,-0.2153,0.0955
0.04066,0.99091,-0.12823,-0.037,-0.26312,0.10542
0.03848,0.99315,-0.1103,-0.0304,-0.26469,0.134
0.0353,0.99513,-0.09199,-0.0558,-0.14044,0.09886
0.02923,0.99669,-0.07584,-0.04214,-0.12041,0.09718
0.02237,0.99778,-0.06273,-0.02235,-0.10814,0.10554
0.01651,0.99858,-0.05059,-0.0247,-0.08444,0.06849
0.01095,0.99917,-0.03925,-0.0523,-0.06533,0.07733
0.00504,0.99956,-0.02921,-0.04553,-0.04608,0.05987
-2e-05,0.99982,-0.01879,0.0014,0.02996,0.04082
-0.0045,0.99995,-0.00815,-0.00908,0.05151,-0.04212
-0.00863,0.99995,0.00441,0.12057,0.09176,0.17606
-0.01308,0.99984,0.01195,0.13884,0.18626,-0.02808
-0.01953,0.99957,0.02161,0.14172,0.2596,-0.11133
-0.02571,0.99903,0.03577,0.16592,0.21519,-0.07544
-0.02954,0.99844,0.04724,0.09141,0.16537,-0.07802
-0.03225,0.9978,0.05795,-0.05613,0.1759,0.04252
-0.03635,0.99739,0.06229,-0.04416,0.26347,0.30254
-0.03875,0.99758,0.05773,-0.04857,0.44781,0.14411
-0.03315,0.9981,0.05183,-0.15447,0.49413,0.11585
-0.01973,0.99892,0.04193,-0.30586,0.22029,-0.06892
-0.00865,0.9997,0.02259,-0.24019,0.04946,-0.06234
0.00262,0.99994,-0.01043,-0.12353,-0.02687,-0.049
0.0204,0.9986,-0.04875,0.04381,-0.04134,0.02801
0.04638,0.99541,-0.08369,0.1377,0.13205,-0.04447
0.08281,0.98963,-0.11734,0.03883,0.17434,-0.02346
0.12322,0.98091,-0.15044,-0.09453,0.08747,-0.01121
0.1574,0.97031,-0.1836,-0.19596,-0.04411,0.08862
0.18277,0.95914,-0.21598,-0.19554,-0.19135,0.13041
0.20131,0.94821,-0.24571,-0.15416,-0.181,0.0934
0.21492,0.93735,-0.27419,-0.17676,-0.13275,0.14087
0.23039,0.92486,-0.30258,-0.13049,-0.05865,0.11705
0.24299,0.91023,-0.33531,-0.11596,-0.23872,0.21178
0.25411,0.89341,-0.37046,-0.05787,-0.35273,0.18827
0.26607,0.87738,-0.39926,-0.09116,-0.31782,0.14777
0.27885,0.86468,-0.41781,-0.10812,-0.13499,0.09674
0.28921,0.85441,-0.43166,-0.06675,-0.09061,0.06144
0.2972,0.84729,-0.44018,-0.06333,-0.07852,0.05925
0.30198,0.84286,-0.4454,-0.13423,-0.1057,0.02522
0.30104,0.8415,-0.44862,-0.15132,-0.10186,0.03261
0.29533,0.84346,-0.44872,-0.06407,0.02376,-0.03921
0.28881,0.84773,-0.4449,0.00325,0.07103,-0.08122
0.28129,0.85368,-0.43831,0.20741,0.09377,-0.06359
0.27649,0.86066,-0.42756,0.2122,0.08679,-0.07433
0.27277,0.87216,-0.40612,0.2016,0.131,0.09378
0.26269,0.88384,-0.38706,0.00844,0.97174,0.04757
0.23963,0.89769,-0.36976,-0.13652,1.0142,-0.03999
0.22429,0.91079,-0.34664,-0.14096,0.04045,0.13089
0.21395,0.92245,-0.32141,0.07238,-0.00396,0.11204
0.19501,0.9336,-0.3006,0.10794,-0.05706,0.12283
0.17045,0.94489,-0.2795,-0.02347,0.00712,0.19649
0.14494,0.95533,-0.25755,-0.03179,0.08381,0.20548
0.11997,0.96395,-0.23751,-0.01081,0.06792,0.18278
0.0978,0.97107,-0.21782,0.01711,0.0384,0.14472
0.07925,0.97736,-0.19617,0.0577,-0.0325,0.12567
0.06436,0.98273,-0.17346,0.07259,-0.03788,0.10296
0.05194,0.98716,-0.15101,0.02878,-0.27528,0.15601
0.04007,0.99083,-0.12904,-0.01639,-0.30824,0.13203
0.02814,0.99361,-0.10932,-0.02626,-0.30517,0.10945
0.01742,0.99574,-0.09054,-0.04438,-0.31044,0.1021
0.00922,0.99744,-0.07094,-0.08696,-0.27278,0.06137
0.00182,0.99863,-0.05232,-0.07582,-0.24635,0.03587
-0.00615,0.9993,-0.03671,0.01095,-0.15105,0.06399
-0.01294,0.99963,-0.02378,-0.00023,-0.10649,0.03103
-0.01698,0.99979,-0.01136,-0.02101,-0.04538,0.08622
-0.02047,0.99979,-0.00154,0.02137,-0.04201,0.06317
-0.02345,0.99971,0.00467,0.10071,-0.03694,0.01129
-0.02457,0.99964,0.01018,0.15472,0.00175,0.04468
-0.02309,0.99964,0.01374,0.16032,0.0113,0.07102
-0.02094,0.99965,0.01603,0.15789,0.14523,0.00502
-0.0184,0.99963,0.01986,0.09448,0.17089,0.00902
-0.01565,0.99959,0.02392,0.06876,0.16872,0.0482
-0.015,0.99937,0.03212,0.01538,0.2611,-0.05959
-0.01776,0.99901,0.04067,0.06973,0.31814,0.02365
-0.02099,0.99868,0.04675,0.06007,0.27831,0.04637
-0.02264,0.9985,0.04977,-0.00727,0.22774,0.18665
-0.0224,0.9985,0.04986,-0.10684,0.42412,0.13204
-0.01847,0.99868,0.04788,-0.14617,0.6161,0.12179
-0.01092,0.99909,0.04123,-0.17696,0.55662,0.07859
-0.00211,0.99959,0.02838,-0.20982,0.10473,0.01126
0.00745,0.99996,0.00353,-0.13792,0.12854,-0.01089
0.02133,0.99929,-0.03116,-0.08867,0.15176,0.0037
0.04346,0.99664,-0.06946,0.06966,0.13801,-0.01132
0.07436,0.9916,-0.10585,0.02923,0.17036,-0.12607
0.11063,0.98338,-0.14392,-0.01937,0.16994,-0.01595
0.14487,0.97237,-0.18302,-0.13265,0.01232,0.09954
0.17259,0.9604,-0.21874,-0.20047,-0.18621,0.12978
0.19205,0.9485,-0.25194,-0.23377,-0.26519,0.16731
0.20243,0.9371,-0.28437,-0.17942,-0.26419,0.18901
0.20863,0.92539,-0.31641,-0.12671,-0.28639,0.20217
0.2166,0.91265,-0.34662,-0.07283,-0.26089,0.23077
0.22489,0.89735,-0.37971,-0.05722,-0.37537,0.21606
0.24042,0.88212,-0.40505,-0.08904,-0.37691,0.18714
0.25911,0.86786,-0.42389,-0.11728,-0.31141,0.20852
0.27567,0.85503,-0.43924,-0.11788,-0.18181,0.19058
0.28718,0.84486,-0.45137,-0.11001,-0.11835,0.12602
0.29273,0.8384,-0.45978,-0.13836,0.03962,-0.00346
0.29636,0.83531,-0.46305,-0.17388,0.04898,-0.01934
0.29976,0.83464,-0.46207,-0.11059,0.01701,-0.07565
0.30211,0.83667,-0.45686,0.12421,0.14423,-0.10165
0.29832,0.84209,-0.44933,0.128,0.13881,-0.10917
0.29177,0.84905,-0.44044,0.30752,0.22441,-0.13512
0.28679,0.85849,-0.42514,0.32718,-0.10423,0.1158
0.27644,0.87484,-0.39778,0.22608,0.01767,0.10568
0.25468,0.88852,-0.38165,-0.05737,0.90979,-0.00522
0.22661,0.90443,-0.36146,-0.67101,0.49372,0.14485
0.20847,0.91994,-0.33202,-0.36623,0.24995,0.18445
0.18865,0.9347,-0.30125,0.02196,-0.07851,0.1648
0.16539,0.94798,-0.272,0.0598,-0.02369,0.1785
0.13977,0.95946,-0.24475,0.05185,0.03038,0.18643
0.11345,0.96838,-0.22219,-0.0453,0.16431,0.18299
0.09195,0.97501,-0.20225,-0.06113,0.10303,0.17939
0.07775,0.98085,-0.17854,-0.05708,-0.0756,0.18317
0.06786,0.98616,-0.15126,-0.0684,-0.3017,0.16434
0.05905,0.99052,-0.12405,-0.05278,-0.45177,0.17004
0.05038,0.99381,-0.09897,-0.00363,-0.46166,0.15971
0.0403,0.99614,-0.07797,0.05263,-0.40484,0.08377
0.03104,0.99769,-0.06035,0.07341,-0.31541,0.02571
0.0252,0.99879,-0.04216,0.05312,-0.23834,0.05792
0.0198,0.9995,-0.02471,0.03885,-0.15251,0.01868
0.01349,0.99984,-0.01151,0.06461,-0.09249,0.05063
0.00916,0.99995,-0.00335,0.02841,0.01601,-0.01051
0.00766,0.99997,0.00236,0.00473,0.04306,-0.03932
0.008,0.99993,0.00876,0.02431,-0.00573,0.00326
0.00973,0.99985,0.01443,0.10782,-0.03551,0.00866
0.01277,0.99975,0.01826,0.10419,-0.05445,-0.00319
0.01609,0.99959,0.0235,0.11861,-0.06086,0.05397
0.01981,0.99948,0.02526,0.1756,0.02646,0.04594
0.02446,0.99929,0.0286,0.11838,0.06467,0.0092
0.03043,0.99889,0.0358,0.06331,0.18018,-0.09586
0.0334,0.99847,0.04403,0.05497,0.21732,-0.04553
0.03283,0.99824,0.04941,0.04374,0.21615,0.0285
0.03006,0.99807,0.05425,-0.01022,0.23958,-0.01619
0.02584,0.99805,0.0568,-0.11066,0.27343,0.07435
0.02281,0.99826,0.05426,-0.17996,0.37677,0.2166
0.02339,0.99844,0.05069,-0.09656,0.64565,0.18632
0.02492,0.99838,0.05119,-0.04646,0.602,0.18411
0.02581,0.9984,0.05034,-0.22787,0.35098,0.04388
0.02719,0.99865,0.0441,-0.17995,0.15119,-0.01392
0.03043,0.99911,0.02897,-0.14653,0.18645,-0.01687
0.04013,0.99917,0.00625,-0.09506,0.14316,-0.05279
0.05868,0.99805,-0.02113,-0.01732,0.06542,0.01777
0.08218,0.99518,-0.05344,-0.00909,0.04783,0.01636
0.10901,0.99039,-0.08513,-0.01306,0.04251,-0.0682
0.13856,0.98369,-0.11467,-0.11181,-0.05758,-0.03633
0.16675,0.97541,-0.14407,-0.13828,-0.22058,0.10963
0.1896,0.96615,-0.17491,-0.13461,-0.30131,0.17337
0.20359,0.95695,-0.20688,-0.10278,-0.51936,0.13936
0.21102,0.94775,-0.23927,-0.1221,-0.4911,0.16243
0.21802,0.93674,-0.27384,-0.133,-0.33288,0.15354
0.22343,0.92269,-0.31419,-0.16889,-0.06422,0.2608
0.23028,0.90575,-0.35578,-0.17132,-0.12198,0.28593
0.24592,0.88724,-0.39028,-0.15773,-0.12989,0.18287
0.26453,0.86859,-0.41902,-0.23238,-0.13687,0.10002
0.27941,0.85256,-0.44166,-0.20822,-0.03002,0.06289
0.29043,0.8401,-0.45813,-0.17269,0.03984,0.07733
0.30049,0.83135,-0.4675,-0.1123,0.00991,0.04949
0.30806,0.82522,-0.47341,-0.08266,-0.05683,0.0828
0.31012,0.82226,-0.4772,-0.0852,-0.13941,0.08116
0.30849,0.82297,-0.47703,-0.13333,-0.13892,0.01719
0.30503,0.82569,-0.47454,-0.08052,-0.16145,0.01087
0.29938,0.83061,-0.46953,-0.03874,-0.08072,-0.04976
0.29397,0.83756,-0.46051,0.00078,0.08309,-0.14921
0.29253,0.84434,-0.44889,0.11067,0.22255,-0.20391
0.29545,0.85064,-0.43489,0.13987,0.17272,-0.05793
0.29614,0.86026,-0.41502,0.09854,0.5762,-0.09163
0.28606,0.87253,-0.39605,-0.06789,0.89239,-0.09507
0.27057,0.88987,-0.3673,-0.31072,0.36212,0.10327
0.2543,0.90859,-0.33135,-0.05046,0.21474,0.02019
0.2362,0.92369,-0.30168,0.08663,0.15158,0.02913
0.2119,0.93829,-0.27334,0.10013,0.09672,0.07783
0.18427,0.95145,-0.24654,-0.02985,0.11972,0.17746
0.15789,0.96255,-0.22035,-0.10657,0.05768,0.22034
0.13572,0.9714,-0.19483,-0.06913,0.043,0.18929
0.11864,0.97875,-0.16723,-0.04137,-0.04041,0.15455
0.10446,0.98517,-0.13613,-0.0209,-0.22774,0.15499
0.0926,0.99024,-0.10413,-0.01917,-0.34025,0.13761
0.08291,0.99373,-0.07493,-0.02359,-0.37507,0.09681
0.07451,0.99594,-0.05057,-0.06048,-0.41763,0.05831
0.06835,0.99723,-0.02946,-0.06687,-0.42336,0.05653
0.06309,0.99797,-0.00877,-0.09167,-0.39055,0.09352
0.05579,0.99839,0.00987,-0.0744,-0.24603,0.01389
0.04727,0.99859,0.02418,-0.01428,-0.07087,-0.02482
0.04125,0.99852,0.03528,-0.02219,-0.05016,-0.02551
0.03841,0.99821,0.04589,0.0066,-0.07586,-0.00346
0.038,0.99781,0.05412,0.11781,-0.04107,-0.0259
0.03845,0.99744,0.06028,0.06067,-0.00965,-0.03298
0.04063,0.9971,0.06439,0.07123,0.00516,-0.02831
0.04401,0.99679,0.0668,0.07003,0.02355,0.01974
0.04942,0.99636,0.0694,0.05899,-0.04463,0.01129
0.05266,0.99581,0.0748,0.03384,0.07867,0.01839
0.05323,0.99509,0.0834,0.01429,0.14349,0.02034
0.05304,0.99446,0.09069,-0.09317,0.08239,0.00908
0.05022,0.99404,0.09677,-0.08835,0.04621,0.01667
0.04564,0.9937,0.10234,-0.06956,0.00609,0.03929
0.04049,0.9935,0.10633,-0.04229,0.07429,-0.02452
0.03484,0.99332,0.10996,-0.02918,0.07026,0.09106
0.02982,0.99301,0.11417,0.00566,0.05,0.03675
0.02269,0.99248,0.12025,0.16783,0.18305,-0.01233
0.01469,0.99213,0.12431,0.12576,0.20361,-0.0019
0.00606,0.99161,0.12908,0.05685,0.20348,0.04017
-0.00302,0.9907,0.136,-0.11608,0.31144,0.02074
-0.01199,0.9895,0.14405,-0.16563,0.47649,0.01631
-0.01746,0.98819,0.15223,-0.17683,0.60697,0.22203
-0.02427,0.98694,0.15926,-0.22398,0.32364,0.10019
-0.03134,0.9861,0.16319,-0.24624,0.32267,0.07244
-0.03367,0.98619,0.16218,-0.1862,0.26465,0.05355
-0.03118,0.98713,0.15687,-0.18847,0.21052,-0.13191
-0.02405,0.9886,0.14858,-0.17213,0.10783,-0.16032
-0.01122,0.99064,0.13601,-0.1557,0.00179,-0.1083
0.00625,0.99304,0.11757,-0.14753,-0.09406,-0.10479
0.0261,0.99491,0.09734,-0.23078,-0.1261,-0.09621
0.04665,0.996,0.07622,-0.28666,-0.16552,-0.09586
0.06524,0.99652,0.05174,-0.29939,-0.2912,-0.0685
0.08229,0.99631,0.02438,-0.28807,-0.41153,0.02587
0.09617,0.99536,-0.00111,-0.25032,-0.48149,0.11052
0.10738,0.99397,-0.02227,-0.17857,-0.4748,0.16848
0.11936,0.99198,-0.04166,-0.12954,-0.39809,0.158
0.13498,0.98897,-0.06102,-0.13944,-0.30021,0.06949
0.15531,0.98444,-0.08221,-0.16215,-0.12387,0.00262
0.1797,0.97791,-0.10673,-0.18483,0.04752,0.00407
0.20281,0.97015,-0.13297,-0.21035,0.11127,0.02974
0.21825,0.96282,-0.15918,-0.16666,0.07414,0.03269
0.22728,0.95641,-0.18335,-0.12514,0.11923,0.02066
0.23426,0.95049,-0.20417,-0.12868,0.15255,-0.03489
0.2413,0.94454,-0.22276,-0.1558,0.05096,-0.03998
0.24633,0.93898,-0.24006,-0.12283,-0.02614,0.03086
0.24732,0.93447,-0.2561,-0.13479,-0.19532,0.04452
0.244,0.93188,-0.26843,-0.18079,-0.26265,0.02039
0.23754,0.93168,-0.27484,-0.21071,-0.29957,0.02536
0.22913,0.93368,-0.27522,-0.18111,-0.32493,0.03015
0.21949,0.93771,-0.26928,-0.14532,-0.30919,0.00338
0.20736,0.94377,-0.25748,-0.1118,-0.30194,-0.02098
0.19105,0.95171,-0.24031,-0.06269,-0.3243,-0.07923
0.17123,0.96105,-0.21695,-0.02409,-0.33229,-0.19381
0.15021,0.97048,-0.18868,0.03486,-0.23998,-0.30855
0.12938,0.97807,-0.16323,0.06341,0.07716,-0.34232
0.1111,0.98245,-0.14984,0.07669,0.52009,-0.22957
0.1067,0.9838,-0.14403,-0.0818,0.66994,-0.22668
0.11761,0.98256,-0.14398,-0.2417,0.54575,-0.49897
0.13477,0.97964,-0.14878,-0.17954,0.64913,-0.29947
0.14894,0.97713,-0.15174,-0.35611,0.36055,-0.13506
0.1573,0.97585,-0.15159,-0.42326,0.29625,-0.10858
0.16293,0.9763,-0.14241,-0.21754,0.03676,0.03781
0.16337,0.97709,-0.13638,-0.1563,-0.02874,0.1047
0.16124,0.97736,-0.13702,-0.18393,-0.02678,0.09847
0.15944,0.97778,-0.13607,-0.20595,-0.1664,0.29319
0.16027,0.97873,-0.12807,-0.27392,-0.22003,0.34025
0.16143,0.98116,-0.10612,-0.35078,-0.1982,0.33377
0.16007,0.98438,-0.07324,-0.34583,0.03945,0.13148
0.15565,0.98697,-0.04069,-0.35798,0.1464,-0.02821
0.152,0.98824,-0.01688,-0.28154,0.04935,0.12117
0.15446,0.988,0.00195,-0.25608,-0.05439,0.23624
0.16178,0.98649,0.02576,-0.30727,-0.1285,0.26944
0.1666,0.98448,0.05518,-0.40222,-0.1365,0.1735
0.16483,0.98267,0.08477,-0.39362,-0.10732,0.10633
0.1538,0.98186,0.11085,-0.28906,0.06527,0.14029
0.14346,0.98042,0.13486,-0.06155,0.0584,0.18798
0.13686,0.97789,0.15813,0.02677,-0.00956,0.08514
0.13123,0.97511,0.17871,0.06919,-0.08457,-0.02417
0.1242,0.97322,0.19344,0.12963,-0.01359,-0.07096
0.1185,0.97168,0.20442,0.1155,0.01639,-0.09984
0.11618,0.97024,0.21245,0.11258,0.00529,-0.19323
0.11459,0.96924,0.21779,0.05722,0.00473,-0.23472
0.10889,0.969,0.22176,0.12993,0.11007,-0.25444
0.09744,0.96878,0.22796,0.02559,0.05397,-0.25451
0.08451,0.96903,0.23201,0.02674,-0.00152,-0.32123
0.07056,0.9693,0.23552,0.10769,-0.05974,-0.31513
0.05837,0.96911,0.23961,0.07128,-0.1029,-0.2675
0.04921,0.96845,0.24431,0.08207,-0.12419,-0.23683
0.0424,0.96746,0.24943,0.10766,-0.10977,-0.18049
0.03572,0.96605,0.25587,0.14089,-0.02922,-0.22267
0.02964,0.96471,0.26165,0.1352,0.05739,-0.24419
0.02547,0.96362,0.26606,0.05726,0.20666,-0.26725
0.02247,0.96353,0.26663,0.14889,0.23202,-0.18155
0.02362,0.96337,0.26714,-0.09071,0.34724,0.06862
0.03254,0.96391,0.26423,-0.22564,0.3534,0.18738
0.04757,0.96621,0.2533,-0.30793,0.34082,0.1916
0.0707,0.9686,0.23834,-0.3937,0.24122,0.17545
0.09547,0.9716,0.21652,-0.70346,0.27569,-0.06351
0.11724,0.97585,0.18431,-0.78176,0.61481,-0.04909
0.13867,0.97864,0.15177,-0.54478,0.77994,-0.04485
0.15956,0.98009,0.11815,-0.03553,0.37693,-0.14773
0.18482,0.97931,0.08243,0.06332,0.23563,-0.16039
0.20648,0.97753,0.04236,0.2161,0.07789,-0.22597
0.22953,0.9733,-0.00027,0.02635,-0.03925,-0.14895
0.25515,0.96585,-0.04514,-0.04586,-0.07374,-0.12106
0.2804,0.95559,-0.09071,-0.06534,-0.06768,-0.06522
0.30322,0.9429,-0.13781,-0.10898,-0.26393,0.0664
0.32226,0.92839,-0.18504,-0.12802,-0.24942,0.11363
0.33464,0.91403,-0.22926,-0.08066,-0.16675,-0.04895
0.33846,0.90308,-0.26435,-0.10851,-0.46929,0.01075
0.34063,0.896,-0.28486,-0.03456,-0.35805,-0.04637
0.34453,0.89035,-0.2976,-0.04131,-0.19663,-0.14295
0.3496,0.88502,-0.30744,-0.07924,-0.16671,-0.17408
0.35313,0.88008,-0.31743,-0.0877,-0.25419,-0.16451
0.35667,0.87514,-0.32697,-0.03209,-0.27645,-0.14349
0.3585,0.87118,-0.33544,-0.01724,-0.28739,-0.15554
0.35744,0.86887,-0.3425,0.02957,-0.19542,-0.21623
0.35587,0.86741,-0.34778,0.05754,-0.12721,-0.27077
0.3537,0.86669,-0.35176,0.09097,-0.1658,-0.27218
0.34784,0.8676,-0.35535,0.09001,-0.17403,-0.25177
0.33996,0.86963,-0.358,0.11663,-0.10568,-0.26498
0.33376,0.87149,-0.35933,0.05106,0.05025,-0.27432
0.33351,0.87065,-0.36158,-0.17265,0.40872,-0.32324
0.34197,0.8638,-0.37,-0.11648,0.87961,-0.41324
0.34431,0.86313,-0.36939,0.08509,0.79162,-0.28906
0.33876,0.87199,-0.35337,-0.08882,-0.07742,-0.09965
0.32363,0.88539,-0.33368,-0.14736,-0.16721,0.02361
0.30493,0.89989,-0.31179,-0.25007,0.03963,0.08158
0.28229,0.91517,-0.28771,-0.2825,0.23711,0.04562
0.25798,0.93112,-0.25779,-0.27517,0.28831,0.02742
0.23182,0.94627,-0.22547,-0.29987,0.19636,0.02842
0.20562,0.95921,-0.19399,-0.21588,0.05861,0.0593
0.17944,0.97024,-0.16258,-0.15219,-0.02786,0.07643
0.15166,0.97931,-0.13395,-0.08912,-0.0885,0.1061
0.12535,0.98599,-0.11005,0.00846,0.02176,0.09976
0.10463,0.99093,-0.08433,-0.07334,-0.05932,0.10924
0.08984,0.99438,-0.05605,-0.12959,-0.15754,0.10523
0.07898,0.99643,-0.02987,-0.19473,-0.22819,0.06072
0.069,0.99758,-0.00782,-0.19142,-0.29617,0.03319
0.05974,0.99814,0.01206,-0.15549,-0.31166,0.05172
0.05121,0.99811,0.03393,-0.13784,-0.28601,0.04743
0.04158,0.99753,0.0566,-0.05598,-0.1788,-0.02133
0.03307,0.99652,0.07646,0.08479,-0.06712,-0.08094
0.02752,0.99531,0.09271,0.16743,-0.08937,-0.07125
0.02387,0.994,0.10677,0.1853,-0.07941,-0.08653
0.01936,0.99247,0.12095,0.05539,-0.04148,-0.11922
0.01517,0.99125,0.13112,0.0278,-0.03231,-0.13712
0.01275,0.99034,0.13803,0.09391,-0.00464,-0.19026
0.0098,0.98944,0.1446,0.12448,-0.00635,-0.05967
0.00889,0.98874,0.14938,0.12538,-0.00565,-0.06445
0.00933,0.98782,0.15533,0.07496,0.1186,-0.27311
0.00846,0.98715,0.15959,0.05188,0.14814,-0.27016
0.00555,0.98698,0.16076,0.08168,0.10941,-0.19802
0.00215,0.98686,0.16154,0.02844,0.0994,-0.20921
-0.00168,0.98671,0.16245,-0.09691,0.17158,-0.06048
-0.00356,0.9868,0.1619,-0.28054,0.28571,0.0756
-0.00335,0.98686,0.16156,-0.28795,0.54714,0.04303
0.00038,0.98696,0.16094,0.05718,0.78898,0.08798
0.00697,0.98757,0.15703,-0.00506,0.40104,-0.10028
0.01242,0.98906,0.14696,0.03995,0.26431,-0.20937
0.01857,0.99206,0.12439,0.07004,0.25219,-0.21387
0.02958,0.99519,0.09335,0.11775,0.24483,-0.22067
0.0453,0.997,0.06273,0.11007,0.22714,-0.19565
0.06601,0.99728,0.03279,0.05604,0.11393,-0.20188
0.08895,0.99603,0.0015,-0.07028,0.02974,-0.11869
0.11171,0.99328,-0.03024,-0.13063,-0.0241,-0.10418
0.13108,0.98957,-0.05964,-0.15078,-0.22483,-0.06407
0.14844,0.98493,-0.0887,-0.06891,-0.35639,0.03634
0.16365,0.97925,-0.1195,-0.06765,-0.34261,-0.03181
0.17499,0.97262,-0.15291,-0.07961,-0.35665,0.10283
0.18563,0.96418,-0.18947,-0.06058,-0.3835,0.12337
0.19767,0.95402,-0.22532,-0.0773,-0.32084,0.00741
0.21531,0.94247,-0.25572,-0.09435,-0.22192,-0.01092
0.23494,0.93073,-0.28024,-0.04656,-0.22717,-0.02139
0.24979,0.92091,-0.29922,-0.04241,-0.21767,-0.01128
0.25792,0.9144,-0.31202,-0.03106,-0.21277,-0.01973
0.26145,0.91105,-0.31879,-0.03961,-0.08668,-0.08219
0.26455,0.90942,-0.3209,-0.12249,-0.13383,-0.1998
0.26489,0.90917,-0.32132,-0.03062,-0.12761,-0.08198
0.25967,0.91109,-0.32011,0.02341,-0.06386,-0.08588
0.25169,0.91494,-0.3155,0.16562,0.06943,-0.2722
0.24715,0.91906,-0.30697,0.25804,-0.01071,-0.22008
0.24658,0.92636,-0.28471,0.20401,-0.04536,-0.15033
0.24041,0.93644,-0.25552,0.11465,0.91015,-0.0201
0.21783,0.94614,-0.23951,-0.37821,0.945,0.06877
0.19304,0.95823,-0.21102,-0.59344,0.33437,0.0575
0.17357,0.96864,-0.17779,-0.22207,-0.01887,0.05001
0.14693,0.9777,-0.15003,0.08256,0.07055,0.03766
0.11878,0.98476,-0.12701,0.11065,0.02169,0.06826
0.09227,0.98998,-0.1069,0.0656,-0.00112,0.08909
0.06816,0.99386,-0.08715,0.04483,-0.04929,0.04278
0.05019,0.9964,-0.06824,0.04106,-0.06946,0.00377
0.03546,0.99822,-0.04783,0.04283,-0.15664,0.038
0.02173,0.99944,-0.02526,0.03099,-0.28263,0.05548
0.01028,0.99994,-0.00193,0.0164,-0.32306,0.03102
0.00051,0.99977,0.02111,0.01222,-0.25429,-0.00803
-0.00917,0.99914,0.04043,0.07795,-0.20617,-0.03379
-0.01649,0.9983,0.05576,0.05911,-0.23048,-0.04609
-0.02078,0.99718,0.07211,-0.01471,-0.27292,-0.04758
-0.02529,0.99572,0.08888,-0.02388,-0.22314,-0.08211
-0.03198,0.9944,0.10075,0.04059,-0.09964,-0.08894
-0.03731,0.99326,0.10969,0.07033,-0.0339,-0.05932
-0.04002,0.99225,0.11757,0.0846,-0.03405,-0.04362
-0.04283,0.99139,0.12368,0.11827,-0.00182,-0.10235
-0.04588,0.99059,0.12891,0.09106,0.0536,-0.20644
-0.04798,0.98966,0.13515,0.15657,0.11422,-0.00738
-0.04913,0.98927,0.13754,0.19424,0.19563,-0.09334
-0.05206,0.98843,0.14242,0.17645,0.20137,-0.11689
-0.05644,0.98693,0.15095,0.17914,0.2588,-0.17335
-0.06265,0.98504,0.16054,0.1909,0.2198,-0.215
-0.06925,0.98297,0.17022,0.19454,0.20076,-0.21459
-0.07489,0.98103,0.1788,0.17447,0.18288,-0.16311
-0.07967,0.97968,0.18403,-0.09101,0.18246,0.10333
-0.08245,0.97915,0.18563,-0.1898,0.43593,0.04734
-0.08018,0.97906,0.18712,-0.18842,0.58714,0.06639
-0.07182,0.98044,0.18324,-0.27597,0.224,-0.05918
-0.06457,0.98358,0.16852,-0.20839,-0.01414,-0.07199
-0.05208,0.98875,0.14018,-0.1054,-0.03517,-0.0668
-0.0341,0.9936,0.10765,0.16738,0.06905,-0.19025
-0.00875,0.99695,0.07751,0.26442,0.28889,-0.25561
0.0257,0.99864,0.0454,0.24009,0.33967,-0.23144
0.06158,0.99805,0.01019,0.02518,0.11818,-0.17119
0.08975,0.99562,-0.02618,-0.13609,-0.06015,-0.08038
0.11152,0.99197,-0.05967,-0.11268,-0.16618,-0.07531
0.12959,0.98764,-0.08815,-0.08998,-0.19858,-0.03667
0.14577,0.98282,-0.11321,0.01235,-0.13705,0.0156
0.16232,0.97681,-0.13962,-0.04834,-0.21202,0.01519
0.18227,0.96866,-0.16872,-0.09063,-0.23322,0.01248
0.19998,0.95855,-0.20293,-0.11274,-0.33387,0.02695
0.21294,0.94751,-0.23848,-0.1487,-0.45858,0.07072
0.22502,0.93727,-0.26624,-0.12335,-0.35973,0.06049
0.23679,0.9288,-0.28507,-0.06894,-0.18833,0.02138
0.24611,0.92235,-0.29781,-0.01895,-0.09203,-0.07245
0.2507,0.91845,-0.30591,-0.05483,-0.07176,-0.08212
0.25127,0.91664,-0.31085,-0.0771,-0.06918,-0.07195
0.24989,0.9168,-0.31148,-0.12622,-0.08274,-0.14938
0.24755,0.91881,-0.30742,-0.03019,-0.04268,-0.17305
0.2443,0.92239,-0.29919,0.03858,-0.03953,-0.18846
0.24097,0.92741,-0.28606,0.24343,-0.13068,-0.10684
0.23658,0.93652,-0.25875,0.20716,0.02454,-0.02752
0.22652,0.94483,-0.23658,0.06822,0.82828,-0.06201
0.20283,0.95598,-0.21205,-0.31502,0.9093,0.05996
0.18327,0.96612,-0.1817,-0.41782,0.20937,-0.05168
0.16737,0.97373,-0.15436,-0.03577,-0.01774,0.0479
0.14592,0.98043,-0.13215,0.10823,-0.12421,0.06563
0.12163,0.9862,-0.11228,0.11616,-0.13272,0.05036
0.0972,0.9909,-0.09303,0.0288,-0.01073,0.05601
0.07423,0.99452,-0.07363,-0.00206,0.02224,0.0544
0.05464,0.99701,-0.05457,0.038,0.02273,0.03211
0.03809,0.99871,-0.0334,0.08366,-0.09936,0.02376
0.02447,0.99964,-0.01081,0.07212,-0.24065,0.01763
0.01409,0.99984,0.01024,0.05268,-0.27305,-0.00885
0.00576,0.99957,0.02859,0.05343,-0.19369,-0.05955
-0.00173,0.99908,0.04287,0.08225,-0.17901,-0.05819
-0.00754,0.99829,0.05795,0.07857,-0.24223,-0.02368
-0.01291,0.99716,0.07419,0.06165,-0.27461,-0.04112
-0.02047,0.99602,0.08674,0.09702,-0.19282,-0.09242
-0.02835,0.99495,0.09622,0.11476,-0.06528,-0.06196
-0.03306,0.9938,0.10607,0.09961,-0.06892,-0.06883
-0.03499,0.99272,0.11522,0.07477,-0.06321,-0.11133
-0.03654,0.9916,0.12408,0.0429,-0.0624,-0.1275
-0.03933,0.99041,0.13244,0.04087,-0.00566,-0.10865
-0.04077,0.98955,0.13828,0.06227,0.03389,-0.07049
-0.04243,0.98916,0.14056,0.17187,0.1999,-0.11489
-0.04549,0.98845,0.14456,0.22405,0.16237,-0.12111
-0.04804,0.98723,0.1519,0.22277,0.15694,-0.15783
-0.05124,0.98557,0.16132,0.1859,0.2032,-0.1882
-0.05486,0.98349,0.17243,0.16947,0.25919,-0.2177
-0.05826,0.98145,0.18261,0.0598,0.2378,-0.04693
-0.06036,0.9803,0.18807,-0.03649,0.25261,0.04291
-0.05999,0.98007,0.18938,-0.14044,0.62128,0.04443
-0.05602,0.98049,0.18842,-0.11534,0.51393,0.00344
-0.04831,0.98237,0.18057,-0.1408,0.2925,0.00533
-0.03955,0.98593,0.16242,-0.13169,0.07439,-0.14046
-0.02818,0.99082,0.13216,-0.02314,0.14931,-0.16127
-0.01336,0.99505,0.09842,0.12199,0.09078,-0.12964
0.00835,0.99786,0.06478,0.14942,0.14189,-0.18089
0.03832,0.99882,0.02974,0.10615,0.15391,-0.17658
0.07021,0.99749,-0.00935,-0.05171,-0.01589,-0.04791
0.09926,0.99391,-0.04786,-0.14715,-0.14201,-0.09096
0.1237,0.98894,-0.08177,-0.15318,-0.25335,-0.03969
0.14097,0.98379,-0.11079,-0.13168,-0.28651,-0.0178
0.15541,0.97821,-0.13765,-0.10373,-0.28216,-0.02522
0.16988,0.97144,-0.16565,-0.02721,-0.12516,-0.02507
0.18683,0.96268,-0.19578,-0.02882,-0.23412,0.02371
0.2054,0.95186,-0.22753,-0.03624,-0.27528,0.04595
0.22336,0.94005,-0.2577,-0.06152,-0.31383,0.0655
0.24048,0.92881,-0.28191,-0.08862,-0.28973,0.053
0.25638,0.91917,-0.29898,-0.09935,-0.22998,-0.0143
0.26785,0.91206,-0.31047,-0.07756,-0.1656,-0.06006
0.27472,0.907,-0.31918,-0.0604,-0.12171,-0.07988
0.27923,0.90366,-0.32468,-0.07059,-0.1104,-0.08651
0.27943,0.90269,-0.32722,-0.00723,-0.05376,-0.09879
0.27493,0.90435,-0.32643,0.09018,0.0559,-0.13938
0.26841,0.90806,-0.32152,0.10696,0.08567,-0.1799
0.26197,0.91266,-0.31372,0.16419,0.02926,-0.18618
0.2582,0.91857,-0.29927,0.1737,-0.15389,-0.12307
0.25559,0.92869,-0.26872,0.10499,-0.14935,-0.06313
0.24436,0.9385,-0.24393,0.05772,0.85329,0.03136
0.21916,0.95079,-0.21902,-0.20233,0.93938,-0.09031
0.20422,0.96063,-0.18837,-0.46655,0.10074,-0.06536
0.19074,0.96847,-0.16025,-0.16143,-0.15147,0.12784
0.16713,0.97599,-0.13967,0.03096,-0.14834,0.04283
0.14015,0.98294,-0.11905,0.07451,-0.06256,0.06475
0.11435,0.98855,-0.09837,0.04147,0.04233,0.06106
0.09148,0.99267,-0.07889,0.01397,0.02637,0.05391
0.07305,0.99546,-0.06089,0.0442,-0.03199,0.02763
0.05791,0.99744,-0.04183,0.07427,-0.09507,-0.00394
0.04335,0.99884,-0.02071,0.05404,-0.19614,0.01716
0.02993,0.99955,0.00025,0.06198,-0.2084,-0.00505
0.01963,0.99963,0.01872,0.08473,-0.21916,-0.03974
0.01251,0.99933,0.03439,0.09202,-0.18312,-0.05743
0.00879,0.99873,0.04945,0.01246,-0.26036,-0.03274
0.00642,0.99777,0.0664,-0.04007,-0.25544,-0.03668
0.0009,0.99657,0.08276,0.01698,-0.19473,-0.02519
-0.00574,0.9956,0.09352,0.08806,-0.13522,-0.04341
-0.00994,0.99476,0.10168,0.0909,-0.0657,-0.09758
-0.01226,0.99382,0.11028,0.05809,-0.07571,-0.1034
-0.01438,0.99292,0.11785,0.0678,-0.0493,-0.15975
-0.01556,0.99228,0.12297,0.12101,-0.0288,-0.04315
-0.01502,0.99177,0.12709,0.22298,0.00125,0.03674
-0.0135,0.99146,0.12971,0.13032,0.07611,-0.1408
-0.0131,0.99103,0.13293,0.1343,0.07998,-0.0866
-0.01191,0.98992,0.14108,0.18547,0.12716,-0.14427
-0.01157,0.98796,0.15427,0.16293,0.23395,-0.22322
-0.0144,0.98572,0.16773,0.18613,0.36074,-0.18656
-0.01707,0.98349,0.18011,0.14337,0.37225,-0.10842
-0.01856,0.9815,0.19055,0.10744,0.31573,-0.07078
-0.01938,0.98067,0.1947,-0.08746,0.33882,0.11338
-0.01882,0.98101,0.19303,-0.09133,0.42884,0.04346
-0.01412,0.98197,0.18848,-0.07741,0.59946,0.03094
-0.0031,0.98318,0.18261,-0.2904,0.25782,-0.12402
0.0057,0.98535,0.1704,-0.27198,0.12419,-0.10731
0.0147,0.98956,0.14333,-0.03506,0.03444,-0.12115
0.02417,0.9938,0.10849,0.10769,0.10322,-0.14198
0.0386,0.99653,0.07369,0.19065,0.1682,-0.18308
0.0624,0.99737,0.0368,0.1534,0.12891,-0.17953
0.09323,0.99564,-0.00265,0.01665,-0.03652,-0.08596
0.12645,0.99108,-0.04197,-0.10861,-0.19323,-0.07082
0.15582,0.98462,-0.07897,-0.15979,-0.24889,-0.03793
0.17498,0.97791,-0.11433,-0.16821,-0.29413,0.02105
0.18566,0.97163,-0.14648,-0.10672,-0.31051,-0.01171
0.19018,0.9655,-0.17783,-0.07182,-0.29146,0.04273
0.19498,0.95759,-0.21211,-0.12539,-0.20933,0.02707
0.20249,0.94737,-0.24797,-0.03612,-0.1622,0.08411
0.21577,0.93554,-0.27966,-0.01101,-0.10245,0.08095
0.23384,0.92384,-0.30305,-0.0333,-0.23705,0.03921
0.25098,0.91298,-0.32166,-0.0375,-0.25299,0.02356
0.26266,0.9045,-0.336,-0.06112,-0.22232,-0.01868
0.27022,0.89927,-0.34394,-0.0927,-0.11097,-0.08364
0.27547,0.89592,-0.34849,-0.09714,-0.08221,-0.15372
0.27682,0.89459,-0.35083,-0.0339,-0.14825,-0.11681
0.27363,0.89572,-0.35043,0.00837,-0.13797,-0.08197
0.2664,0.89924,-0.34699,0.0654,-0.10439,-0.06874
0.25738,0.90477,-0.33931,0.07426,-0.04175,-0.08392
0.25014,0.91169,-0.32597,0.15493,0.04942,-0.16384
0.24589,0.91941,-0.30696,0.18399,0.04322,-0.15073
0.23726,0.93074,-0.27825,0.15547,0.18997,-0.10972
0.21462,0.94226,-0.25705,0.03822,0.80208,-0.00721
0.1864,0.95399,-0.23483,-0.3812,0.71164,-0.11501
0.16885,0.96343,-0.20806,-0.40107,0.39181,-0.02298
0.15244,0.97167,-0.18063,0.0701,0.00534,0.09432
0.13277,0.97854,-0.15759,0.16529,-0.16726,-0.03426
0.1119,0.98425,-0.13684,0.14764,-0.17958,0.01241
0.09174,0.98917,-0.11456,0.14538,-0.19483,0.06842
0.07261,0.99318,-0.09123,0.09035,-0.13392,0.0848
0.05506,0.99628,-0.06623,0.07316,-0.00167,0.05741
0.04026,0.99843,-0.03895,0.02161,-0.09563,0.04136
0.02962,0.9995,-0.01128,0.01352,-0.23353,0.02862
0.02183,0.99964,0.01518,-0.05659,-0.36645,0.0383
0.01391,0.99918,0.03803,-0.0557,-0.27994,0.02532
0.00568,0.99844,0.05549,-0.01347,-0.1977,0.01946
-0.00224,0.9976,0.06921,0.01928,-0.17701,-0.05212
-0.00898,0.99655,0.0825,0.05471,-0.16848,-0.06665
-0.01377,0.99551,0.09364,0.08597,-0.11392,-0.03914
-0.01782,0.99466,0.10166,0.05514,-0.0804,-0.05758
-0.02198,0.99377,0.10923,0.03514,-0.03826,-0.08087
-0.02588,0.99286,0.11642,0.1049,-0.03023,-0.11053
-0.02929,0.99206,0.12224,0.17164,-0.00175,-0.0958
-0.03107,0.99134,0.12757,0.15815,0.04746,-0.04929
-0.03059,0.99078,0.13197,0.14506,0.11146,-0.04913
-0.02828,0.99063,0.13357,0.15603,0.09439,0.0139
-0.02516,0.98986,0.1398,0.14117,0.11577,-0.05144
-0.02658,0.98833,0.14996,0.09372,0.20768,-0.20551
-0.03152,0.98665,0.15972,0.11705,0.25308,-0.21449
-0.03637,0.9851,0.16805,0.18613,0.27759,-0.21701
-0.03927,0.98351,0.17653,0.13246,0.23047,-0.14531
-0.0414,0.98228,0.18277,-0.05516,0.2367,0.01484
-0.04418,0.98196,0.18384,-0.09893,0.36433,0.0933
-0.04473,0.9826,0.18025,-0.02184,0.63662,0.04646
-0.04085,0.98309,0.1785,-0.16095,0.46905,-0.01465
-0.03476,0.98433,0.17283,-0.20449,0.33467,-0.01046
-0.02945,0.98764,0.15395,-0.15244,0.04622,-0.03908
-0.0212,0.99203,0.12418,-0.03781,0.09949,-0.04653
-0.00741,0.99577,0.09151,0.04435,0.08638,-0.07246
0.01347,0.99823,0.05785,0.11073,0.11388,-0.13253
0.03992,0.99894,0.02282,0.07398,0.09304,-0.19286
0.06809,0.99758,-0.01373,-0.00398,0.05007,-0.16931
0.09396,0.99425,-0.0514,-0.089,-0.07954,-0.05052
0.11657,0.98941,-0.08638,-0.05628,-0.22716,0.00949
0.13329,0.98389,-0.11914,0.03626,-0.3174,0.03
0.14645,0.97758,-0.15128,0.0416,-0.35748,0.09821
0.15803,0.97005,-0.18446,0.02772,-0.37349,0.14028
0.17123,0.9607,-0.21847,0.00208,-0.31426,0.10852
0.18555,0.94941,-0.25335,-0.1753,-0.30407,0.11688
0.19982,0.93677,-0.28727,-0.18596,-0.29601,0.12167
0.21541,0.92419,-0.31538,-0.15615,-0.21426,0.04924
0.232,0.91296,-0.33567,-0.07569,-0.14517,0.03007
0.24514,0.90372,-0.35098,-0.03689,-0.11107,0.02067
0.25457,0.8974,-0.36036,-0.06486,-0.02788,-0.0781
0.26199,0.89301,-0.36591,-0.10554,-0.05309,-0.09259
0.26746,0.89044,-0.36821,-0.09698,-0.10438,-0.07717
0.27061,0.89017,-0.36656,-0.04838,-0.12525,-0.07891
0.27052,0.89235,-0.3613,0.02779,-0.11085,-0.09784
0.26698,0.89704,-0.35218,0.111,-0.04405,-0.13848
0.26178,0.90312,-0.34034,0.21571,-0.03847,-0.2083
0.25959,0.91002,-0.32322,0.21511,-0.19604,-0.1646
0.25625,0.92096,-0.29354,0.13013,0.0099,-0.02866
0.24422,0.93138,-0.26998,0.02101,0.8487,-0.07705
0.21952,0.94156,-0.25547,-0.05281,1.28625,-0.14001
0.20351,0.95058,-0.23447,-0.26031,0.13073,0.0739
0.19346,0.95841,-0.20981,0.01965,-0.18589,-0.05217
0.17334,0.96657,-0.18892,0.15506,-0.06165,-0.02106
0.14822,0.97429,-0.16963,0.16841,0.07698,0.04855
0.1214,0.98124,-0.14974,0.02052,0.0909,0.07897
0.09758,0.987,-0.12768,-0.01786,0.04691,0.08736
0.0792,0.9916,-0.1022,-0.09946,0.03316,0.08124
0.06438,0.99511,-0.0748,0.02084,-0.10051,0.06922
0.05054,0.99746,-0.05021,0.08285,-0.18973,0.06499
0.03815,0.99889,-0.02739,0.1156,-0.36574,0.08237
0.02731,0.99962,-0.00391,0.0057,-0.33358,0.03952
0.0157,0.99972,0.01737,-0.07555,-0.31478,0.00436
0.00683,0.9993,0.03668,-0.07651,-0.29308,-0.04121
0.00161,0.99844,0.05581,-0.05526,-0.24834,-0.035
-0.00296,0.9973,0.07328,0.05309,-0.14437,-0.01226
-0.00815,0.99626,0.08591,0.11877,-0.07366,-0.0348
-0.01422,0.99536,0.09511,0.19552,0.02773,-0.10776
-0.01856,0.99425,0.10538,0.15947,0.00011,-0.07782
-0.02102,0.9936,0.11098,0.16996,-0.01212,-0.0588
-0.02343,0.99325,0.11358,0.15691,-0.05785,-0.13337
-0.02528,0.9928,0.11702,0.20797,0.01544,-0.12684
-0.02511,0.99243,0.12015,0.2315,0.0139,-0.08476
-0.02271,0.99218,0.12268,0.19078,-0.00489,-0.06099
-0.01846,0.99196,0.12513,0.09553,-0.05016,-0.01666
-0.01587,0.99115,0.13181,0.08027,-0.04241,-0.02503
-0.01398,0.99016,0.1392,0.05019,-0.02344,-0.06423
-0.01071,0.98909,0.14689,0.01019,0.05041,-0.00766
-0.00945,0.98851,0.15085,0.01782,0.10355,-0.05136
-0.00949,0.98789,0.15482,0.03053,0.1289,-0.0622
-0.01017,0.98704,0.16013,0.09211,0.09804,-0.16736
-0.01331,0.98608,0.16575,0.08613,0.10525,-0.11599
-0.01636,0.98535,0.16971,0.06914,0.11499,-0.05437
-0.01887,0.98491,0.17204,0.05082,0.51691,0.05022
-0.01865,0.98455,0.17411,0.07757,0.70859,0.04059
-0.01256,0.9838,0.17879,-0.3506,0.6925,-0.04753
-0.00731,0.98353,0.18059,-0.2809,0.40067,-0.02709
-0.0072,0.98482,0.1734,-0.15757,0.22932,0.03215
-0.00613,0.98769,0.15628,0.04233,0.16358,-0.10612
0.00164,0.99073,0.13578,0.05616,0.28208,-0.146
0.01554,0.99365,0.11145,0.0269,0.33416,-0.18373
0.03281,0.9962,0.0806,-0.03962,0.05601,-0.11763
0.05375,0.99753,0.04512,-0.11002,-0.0591,-0.08217
0.07842,0.99686,0.01064,-0.15038,-0.07965,-0.07996
0.10366,0.99438,-0.02135,-0.10528,-0.17639,-0.05813
0.12504,0.99079,-0.05195,-0.04159,-0.29834,-0.01752
0.14295,0.98626,-0.08274,-0.03287,-0.35215,0.03702
0.15844,0.98055,-0.11583,0.04272,-0.43808,0.08289
0.17386,0.97323,-0.1503,-0.03508,-0.40498,0.02913
0.19051,0.96366,-0.18723,-0.09078,-0.33998,0.04492
0.21076,0.95084,-0.22689,-0.19134,-0.05234,0.03785
0.23247,0.93575,-0.2652,-0.17467,-0.00906,0.03869
0.25844,0.91931,-0.29678,-0.11382,0.04603,0.02496
0.28169,0.90279,-0.325,0.00942,0.01024,-0.00799
0.29781,0.8866,-0.35389,0.04595,-0.03429,-0.05772
0.30993,0.87168,-0.37962,0.03414,0.0039,-0.07318
0.32201,0.85726,-0.40175,-0.01531,-0.05731,-0.01546
0.32957,0.84452,-0.42209,-0.07284,-0.09162,0.0188
0.33021,0.83532,-0.43955,-0.09448,-0.1764,0.00089
0.32821,0.82916,-0.4525,-0.10463,-0.20125,0.03075
0.3277,0.82448,-0.46134,-0.08521,-0.26726,0.07485
0.3263,0.82206,-0.46662,-0.14051,-0.32974,0.08427
0.32283,0.82235,-0.46852,-0.15007,-0.31512,0.03056
0.31938,0.82456,-0.46701,-0.06538,-0.21445,7e-05
0.31676,0.8282,-0.46232,-0.00397,-0.20412,-0.0216
0.3133,0.83366,-0.4548,0.06522,-0.23464,-0.0758
0.30903,0.84029,-0.44543,0.10624,-0.2437,-0.12368
0.30304,0.84829,-0.43425,0.08352,-0.17945,-0.1995
0.29431,0.85766,-0.42166,0.14152,-0.11332,-0.25464
0.28371,0.86743,-0.40874,0.24011,0.05019,-0.29638
0.27567,0.87515,-0.39764,0.35102,0.23108,-0.3502
0.27846,0.87528,-0.39541,0.29752,0.6822,-0.35208
0.28896,0.86874,-0.40223,0.31711,0.55977,-0.40969
0.29035,0.87283,-0.39224,0.04601,0.3752,-0.29981
0.2729,0.88307,-0.38172,-0.17438,-0.03772,-0.29557
0.25325,0.89474,-0.36783,-0.08007,0.06777,-0.06491
0.23396,0.90819,-0.34705,-0.03139,0.13851,-0.06909
0.21282,0.9246,-0.31593,0.00866,0.16484,-0.02646
0.1931,0.94011,-0.28088,-0.16263,0.05035,0.07305
0.17442,0.9534,-0.24619,-0.10604,-0.045,0.10324
0.15491,0.96491,-0.21202,-0.14174,-0.15128,0.16892
0.13387,0.97499,-0.17741,-0.1686,-0.07594,0.15707
0.11238,0.98348,-0.14188,-0.16178,-0.05118,0.13884
0.0933,0.9898,-0.10761,-0.14468,-0.07479,0.0936
0.07851,0.99397,-0.07645,-0.04946,-0.18297,0.0625
0.06765,0.99655,-0.04808,0.01969,-0.20097,0.0448
0.06071,0.99787,-0.02356,0.03886,-0.22802,-0.0063
0.05823,0.9983,-0.00197,-0.00071,-0.27929,-0.03081
0.05882,0.99808,0.01928,-0.06683,-0.2693,0.02396
0.05895,0.99745,0.04012,-0.09864,-0.15782,0.03408
0.05646,0.99658,0.06023,-0.09612,-0.05748,0.03802
0.05201,0.99555,0.07852,-0.1009,0.03687,0.01093
0.04877,0.99423,0.0955,-0.09477,-0.00789,0.01309
0.04823,0.99278,0.1098,-0.06923,-0.06775,0.00397
0.05048,0.9915,0.11989,-0.06067,-0.05751,0.0159
0.05233,0.99048,0.12731,-0.09018,-0.01173,0.0339
0.05188,0.98962,0.13397,-0.03076,0.00075,0.06276
0.05038,0.98874,0.14086,0.02003,0.02108,0.06373
0.04986,0.9878,0.14752,0.0849,0.05664,-0.00077
0.04769,0.98691,0.15406,0.00975,0.00192,-0.01221
0.04501,0.98616,0.15956,-0.03418,-0.03517,-0.01613
0.03994,0.98557,0.16446,-0.0421,0.07394,-0.05815
0.03281,0.98478,0.17063,-0.04271,0.04357,-0.06828
0.02517,0.984,0.17637,-0.00187,0.01042,-0.0593
0.01636,0.98326,0.18143,0.1114,0.04519,-0.06916
0.0074,0.98226,0.18737,0.14073,0.02452,-0.13744
-0.00053,0.98107,0.19361,0.14222,0.00638,-0.15203
-0.00795,0.97995,0.19908,0.15442,-0.03447,-0.20125
-0.0159,0.97885,0.20396,0.18413,-0.04389,-0.24718
-0.02456,0.9777,0.20854,0.17542,-0.03164,-0.26725
-0.03276,0.97668,0.21218,0.14073,-0.01023,-0.21271
-0.04117,0.97585,0.21452,0.21573,-0.14913,-0.14251
-0.04813,0.97508,0.21654,0.3884,-0.10231,-0.09046
-0.05343,0.97407,0.21981,0.27618,-0.12059,-0.07528
-0.05571,0.97276,0.22501,0.19234,-0.07166,-0.10035
-0.05606,0.97139,0.23074,0.00993,0.01921,-0.0901
-0.0541,0.97058,0.23459,-0.19058,0.14985,-0.1004
-0.04669,0.97124,0.23347,-0.12151,0.21741,0.24861
-0.03305,0.97308,0.22807,0.07065,0.13929,0.21936
-0.01303,0.97447,0.22413,-0.16935,0.2595,0.27997
0.00941,0.97606,0.21728,-0.40887,0.37271,0.32874
0.02716,0.9803,0.19559,-0.65108,0.45576,0.27212
0.03899,0.98684,0.15691,-0.6802,0.40041,-0.08599
0.04942,0.99187,0.11721,-0.26429,0.34403,-0.09445
0.05689,0.99447,0.08821,0.14947,0.21651,-0.01519
0.06245,0.99661,0.05354,0.55554,-0.11705,-0.18163
0.07006,0.99738,0.01804,0.57443,-0.23503,-0.07061
0.0764,0.99695,-0.01536,0.16749,-0.15159,-0.06321
0.08516,0.99514,-0.04937,-0.00246,-0.1199,-0.07551
0.09667,0.99215,-0.07923,-0.042,-0.18188,-0.04095
0.10691,0.98844,-0.10743,-0.09052,-0.15933,-0.0345
0.11562,0.98468,-0.13051,-0.11632,-0.10026,0.02957
0.12117,0.98162,-0.14743,-0.15525,-0.10898,0.05292
0.12437,0.97924,-0.16002,-0.16235,-0.13606,-0.0059
0.12599,0.97738,-0.16986,-0.12416,-0.12949,-0.02245
0.12456,0.976,-0.17859,-0.05177,-0.11686,-0.03386
0.11914,0.97556,-0.18462,0.0309,-0.12156,-0.05188
0.11373,0.97583,-0.18657,0.10309,-0.09243,-0.08636
0.10971,0.97626,-0.18673,0.1477,-0.09177,-0.12673
0.10596,0.97673,-0.18646,0.15638,-0.13122,-0.15385
0.10125,0.97737,-0.18571,0.15333,-0.17865,-0.17391
0.09488,0.97833,-0.18404,0.14633,-0.22064,-0.18614
0.08613,0.9798,-0.18047,0.15459,-0.24233,-0.14669
0.07558,0.98187,-0.1738,0.15799,-0.23175,-0.12395
0.06424,0.98447,-0.16334,0.14951,-0.19953,-0.12696
0.05362,0.98717,-0.15041,0.09735,-0.14335,-0.16272
0.04468,0.98944,-0.13788,0.04152,-0.06376,-0.21068
0.03833,0.99105,-0.12788,0.01756,0.02826,-0.22649
0.0365,0.99189,-0.12173,0.05474,0.08837,-0.21456
0.03924,0.99198,-0.12015,0.08377,0.10902,-0.22479
0.04607,0.99152,-0.12152,0.04587,0.1633,-0.32992
0.05482,0.99092,-0.12272,-0.01457,0.1013,-0.47913
0.06291,0.99051,-0.12219,-0.05513,0.04575,-0.51955
0.06845,0.98958,-0.12664,0.01957,0.79013,-0.08385
0.07374,0.9878,-0.13712,0.01429,0.79191,-0.07337
0.07398,0.98686,-0.14362,-0.4687,0.49236,0.25555
0.06865,0.98748,-0.14202,-0.44795,-0.26006,0.2048
0.06259,0.98823,-0.13955,-0.29608,-0.30417,0.13877
0.0566,0.98856,-0.13978,-0.09384,-0.22423,0.21868
0.05287,0.98927,-0.13616,-0.01503,-0.09675,0.38555
0.05412,0.99098,-0.1226,-0.0579,-0.09275,0.3888
0.05668,0.99291,-0.10443,-0.10361,0.05709,0.2648
0.05541,0.99464,-0.08732,-0.13194,0.15551,0.14818
0.05643,0.99575,-0.07278,-0.21498,0.08804,0.13397
0.0614,0.99661,-0.05473,-0.21819,-0.03071,0.27771
0.06897,0.99705,-0.03366,-0.16069,-0.1735,0.2755
0.07645,0.997,-0.01204,-0.10706,-0.1243,0.22297
0.07801,0.9969,0.01018,-0.13535,0.01783,0.18666
0.07487,0.99672,0.03047,-0.07406,0.06625,0.19696
0.07201,0.99625,0.04796,0.10249,0.09343,0.07767
0.06978,0.99551,0.06386,0.27451,0.03223,-0.1236
0.065,0.99455,0.08147,0.35602,-0.03795,-0.15774
0.05647,0.99336,0.10022,0.33584,-0.07461,-0.16879
0.04931,0.99151,0.12028,0.27954,-0.16708,-0.11808
0.03743,0.98911,0.14228,0.07084,-0.17608,-0.1664
0.02213,0.98608,0.16475,-0.03777,-0.15231,-0.18769
0.00557,0.98349,0.18084,-0.07321,-0.13535,-0.16985
-0.01112,0.98153,0.19099,-0.05501,-0.01882,0.01469
-0.02411,0.97925,0.20121,0.03778,0.06268,-0.05881
-0.03228,0.97781,0.20696,0.1531,0.10082,-0.10839
-0.03674,0.97696,0.21021,0.21948,0.09832,-0.11332
-0.04208,0.97606,0.21338,0.13678,0.07362,-0.11037
-0.04732,0.9751,0.21663,0.05835,0.18635,-0.01523
-0.05575,0.97392,0.21993,0.04023,0.24659,-0.01471
-0.06953,0.97215,0.22378,0.06237,0.22997,-0.02278
-0.08564,0.97073,0.22438,0.17039,0.3572,-0.06369
-0.09748,0.97039,0.22097,0.27519,0.3346,-0.07082
-0.10247,0.97071,0.21729,0.28353,0.29214,-0.04548
-0.10569,0.9707,0.21578,0.15523,0.30158,0.1197
-0.10356,0.97061,0.21723,-0.02614,0.24651,0.13518
-0.09808,0.97088,0.21853,-0.18139,0.21904,0.11153
-0.08907,0.97189,0.21792,-0.3937,0.31488,0.20646
-0.07869,0.97435,0.21083,-0.41466,0.1417,0.07206
-0.06485,0.97836,0.19645,-0.29899,0.27022,-0.01877
-0.04792,0.98282,0.17823,-0.22499,0.26653,-0.02007
-0.02635,0.98721,0.1572,-0.22395,0.19075,-8e-05
-0.0027,0.99104,0.13352,-0.18886,0.16222,-0.00863
0.01967,0.99408,0.10679,-0.12239,0.09222,-0.03812
0.0416,0.99604,0.0785,-0.13338,0.04111,-0.04685
0.06538,0.99666,0.04892,-0.20437,0.05707,-0.00519
0.09099,0.99572,0.01591,-0.20971,-0.01876,-0.01036
0.11443,0.99325,-0.01889,-0.21502,-0.15455,0.03552
0.13622,0.98918,-0.0544,-0.18555,-0.26015,0.14449
0.15692,0.98362,-0.0886,-0.22827,-0.32619,0.12017
0.17732,0.97676,-0.12033,-0.22816,-0.35349,0.16466
0.19879,0.96806,-0.15274,-0.14777,-0.31772,0.13262
0.22402,0.9568,-0.18532,-0.13043,-0.26098,0.10783
0.25199,0.94253,-0.21938,-0.10357,-0.1521,0.07641
0.28017,0.92589,-0.25343,-0.10338,-0.05086,0.07289
0.3081,0.90801,-0.28389,-0.08034,0.01707,0.10159
0.33081,0.89093,-0.31113,-0.04858,0.1669,0.01852
0.34352,0.87649,-0.33727,-0.10515,-0.03364,0.05364
0.35382,0.86414,-0.35787,-0.11339,-0.07196,0.01472
0.36283,0.85332,-0.37442,-0.10242,0.00352,0.03144
0.368,0.84504,-0.38792,-0.10598,-0.0887,0.05538
0.367,0.84032,-0.39895,-0.08218,-0.11312,0.07673
0.36302,0.83936,-0.40457,-0.08716,-0.18849,0.00549
0.3572,0.84154,-0.40524,-0.08892,-0.21988,0.01243
0.34829,0.8456,-0.40452,-0.05685,-0.24769,0.03593
0.3406,0.8509,-0.39994,-0.06806,-0.12991,-0.07336
0.33649,0.85601,-0.39244,-0.02218,0.13138,-0.17536
0.33712,0.85976,-0.38361,0.05042,0.23994,-0.18382
0.33681,0.86772,-0.36552,0.04104,0.24157,-0.00515
0.32611,0.88066,-0.34362,0.01281,0.49408,0.03788
0.3024,0.89466,-0.32884,-0.43522,0.99957,-0.04523
0.2803,0.91011,-0.30516,-0.52063,0.53554,0.01912
0.26083,0.9249,-0.27661,0.04867,0.00562,0.10178
0.23811,0.9368,-0.25631,0.1512,0.11614,0.04785
0.2115,0.94887,-0.23431,0.1001,0.07935,0.11248
0.18247,0.95967,-0.21384,0.01318,-0.00777,0.15691
0.15657,0.9686,-0.19313,-0.15033,-0.06154,0.15415
0.13213,0.97655,-0.16995,-0.14969,-0.09066,0.15695
0.10818,0.98352,-0.14483,-0.08882,-0.11115,0.17222
0.08947,0.98885,-0.11901,0.0057,-0.2685,0.17787
0.0753,0.99276,-0.09349,0.01127,-0.34193,0.16246
0.06521,0.99544,-0.06953,-0.01719,-0.39842,0.11125
0.05661,0.99721,-0.04859,-0.07243,-0.33316,0.04082
0.04932,0.99833,-0.02979,-0.06515,-0.24115,0.02012
0.04445,0.99896,-0.00975,-0.00861,-0.18304,0.00891
0.03896,0.99917,0.01102,0.04875,-0.15944,-0.03736
0.03001,0.99904,0.0316,0.15791,-0.1186,-0.07926
0.01801,0.99836,0.05415,0.30015,-0.06978,-0.06808
0.00468,0.99682,0.07941,0.26819,-0.23744,-0.08672
-0.01274,0.99481,0.10092,-0.10335,-0.35342,0.06037
-0.03168,0.99255,0.11756,-0.55575,0.32997,0.11743
-0.04831,0.99037,0.1297,-0.28389,0.50667,0.00908
-0.05009,0.99135,0.12128,0.4259,-0.06,0.07019
-0.03643,0.99233,0.11806,0.60592,-0.15229,0.03059
-0.03285,0.99081,0.13118,0.36946,-0.18144,-0.09886
-0.04119,0.98914,0.14104,-0.03976,0.17651,-0.03735
-0.04863,0.98871,0.14168,-0.11916,0.20821,0.02583
-0.05169,0.98758,0.14831,-0.10606,0.03245,0.03048
-0.0499,0.98607,0.15862,-0.01801,0.17808,0.12211
-0.04729,0.98581,0.16103,0.11028,0.22075,-0.05817
-0.04412,0.98602,0.16063,0.17232,0.1718,-0.04437
-0.04113,0.98645,0.15879,0.00363,0.24565,0.03614
-0.03783,0.98682,0.15729,-0.00812,0.34286,0.12994
-0.03395,0.98721,0.15571,-0.02154,0.43886,0.19906
-0.02625,0.98795,0.1525,-0.11026,0.47821,0.21748
-0.01572,0.98938,0.14448,-0.09904,0.38414,0.19131
0.00089,0.99132,0.1314,-0.11727,0.27647,0.2134
0.02254,0.99364,0.11023,-0.23691,0.12978,-0.04238
0.04642,0.9957,0.08007,-0.23659,0.14073,-0.0628
0.07316,0.99639,0.04286,-0.19459,0.14797,-0.07339
0.1009,0.99489,0.00285,0.01671,0.02994,-0.11001
0.12882,0.99102,-0.03567,0.04524,-0.00669,-0.08431
0.15843,0.98463,-0.07341,0.05222,-0.06054,-0.10025
0.19118,0.97512,-0.11212,-0.00159,-0.1214,-0.00322
0.22151,0.9631,-0.15284,-0.04936,-0.27052,0.1199
0.24061,0.95091,-0.19461,-0.09031,-0.38235,0.1982
0.24722,0.94075,-0.23211,-0.13238,-0.2789,0.16455
0.25226,0.93118,-0.26317,-0.11381,-0.22098,0.16129
0.26964,0.91758,-0.29213,-0.14565,0.02632,-0.09668
0.28909,0.90049,-0.32487,-0.17738,0.02905,0.03953
0.30333,0.88392,-0.3559,-0.17616,-0.2218,0.08936
0.31484,0.87082,-0.37756,-0.09146,-0.20483,0.14621
0.32501,0.86011,-0.39315,-0.06371,-0.12488,0.12783
0.33325,0.85193,-0.40391,-0.03625,-0.10726,0.02697
0.33754,0.84655,-0.41161,-0.08954,-0.03043,-0.02859
0.33755,0.84388,-0.41704,-0.06579,-0.06167,-0.01883
0.33553,0.84391,-0.4186,-0.08028,-0.07055,8e-05
0.33253,0.84628,-0.4162,-0.01033,-0.05337,-0.0367
0.32773,0.85168,-0.40894,0.07702,0.09264,-0.09981
0.32455,0.8586,-0.39681,0.17311,0.11123,-0.05865
0.32406,0.86824,-0.37569,0.17872,-0.07461,0.06463
0.31416,0.88308,-0.34852,0.14998,0.17868,0.02495
0.29187,0.89665,-0.3329,0.01699,1.18331,-0.01741
0.26823,0.91186,-0.31073,-0.4574,0.71427,0.15515
0.25491,0.92449,-0.28344,-0.24241,0.03064,0.25388
0.23521,0.93743,-0.25668,0.00978,-0.14666,0.12744
0.21199,0.94939,-0.23175,0.13033,-0.12095,0.13136
0.18754,0.95979,-0.20888,0.05558,-0.00909,0.19102
0.16119,0.96854,-0.18959,0.03243,0.02061,0.16908
0.1411,0.97502,-0.17153,0.01922,0.01961,0.13654
0.12819,0.98013,-0.15137,0.01193,-0.02764,0.10131
0.11662,0.98461,-0.13015,0.00966,-0.08467,0.09022
0.10545,0.98847,-0.10863,-0.0371,-0.24768,0.0682
0.09526,0.99163,-0.08706,0.00991,-0.24609,0.06719
0.08552,0.99399,-0.06821,0.09847,-0.18982,0.05805
0.07682,0.99568,-0.05199,0.15093,-0.17325,0.04679
0.07006,0.99691,-0.03537,0.07438,-0.21267,0.04233
0.06338,0.9978,-0.01914,0.0022,-0.23366,0.01717
0.05511,0.99846,-0.0045,-0.01369,-0.22468,0.01828
0.04651,0.99888,0.00831,-0.05191,-0.14205,-0.03445
0.04009,0.99899,0.02013,-0.06324,-0.0747,-0.03327
0.03625,0.9989,0.02959,-0.06064,-0.02852,0.09764
0.03383,0.99868,0.03842,0.1702,-0.01988,0.02809
0.03157,0.9984,0.04679,0.14987,0.04234,-0.07208
0.03061,0.99818,0.05176,0.14234,0.08301,-0.02474
0.03087,0.99805,0.05419,0.23392,0.16811,-0.08094
0.02941,0.99777,0.05991,0.20095,0.19247,-0.10832
0.02744,0.99735,0.06733,0.17252,0.35031,-0.12617
0.02468,0.99696,0.07379,0.10328,0.38941,-0.09953
0.02043,0.99664,0.0792,-0.0108,0.25905,0.03978
0.01598,0.99664,0.08032,-0.11629,0.22291,0.1688
0.01529,0.997,0.07574,-0.07925,0.4616,0.05408
0.02097,0.99717,0.0721,-0.11999,0.44396,0.02712
0.03003,0.99734,0.0664,-0.29155,0.19459,-0.02612
0.04054,0.99795,0.04933,-0.18758,0.00482,-0.04028
0.05621,0.99827,0.01717,0.0263,-0.03144,-0.04925
0.07794,0.99672,-0.02161,0.12865,-0.02214,-0.04364
0.10984,0.99229,-0.05729,0.12714,0.12688,-0.13597
0.14902,0.98481,-0.08905,0.12567,0.22751,-0.162
0.18584,0.97485,-0.12299,-0.03066,0.12192,-0.03843
0.2188,0.96307,-0.15692,-0.18207,-0.06535,0.002
0.24189,0.95193,-0.1879,-0.14033,-0.15071,0.12062
0.25458,0.94209,-0.2183,-0.12932,-0.17657,0.13589
0.26551,0.93199,-0.24678,-0.15809,-0.07696,0.13963
0.27651,0.919,-0.28103,-0.15415,-0.11204,0.14999
0.28494,0.90325,-0.32084,-0.15637,-0.32349,0.14848
0.29831,0.88648,-0.35379,-0.12113,-0.3416,0.15809
0.31754,0.87062,-0.37574,-0.13561,-0.2806,0.16018
0.33622,0.85671,-0.39114,-0.16126,-0.1581,0.08662
0.35045,0.84647,-0.40083,-0.10803,-0.06185,0.05108
0.35883,0.83986,-0.40727,-0.00407,-0.04361,-0.01179
0.36126,0.83602,-0.41297,-0.02308,-0.07777,-0.02959
0.35688,0.83549,-0.41784,-0.05909,-0.169,-0.00221
0.34855,0.83845,-0.41893,-0.05076,-0.17196,-0.00111
0.34065,0.84349,-0.4153,0.04803,0.08217,-0.11911
0.33724,0.85033,-0.40398,0.19634,0.08291,-0.06117
0.3301,0.86404,-0.38009,0.17202,-0.08023,0.03181
0.3099,0.88236,-0.35411,0.02048,0.42077,-0.04027
0.27145,0.90289,-0.33331,-0.22952,1.07163,0.19207
0.23404,0.92325,-0.30468,-0.60432,1.06033,0.10522
0.21652,0.93821,-0.26995,-0.03753,0.20376,0.13814
0.19881,0.94807,-0.24824,0.15191,-0.18698,0.0908
0.17245,0.95773,-0.23024,0.18462,-0.19901,0.17268
0.14489,0.96624,-0.21301,0.12269,-0.14311,0.19031
0.12007,0.97303,-0.19692,0.04475,-0.08229,0.15328
0.10056,0.97884,-0.17817,0.0469,-0.10024,0.16352
0.08568,0.98419,-0.15498,0.0484,-0.07298,0.13607
0.07355,0.9887,-0.13058,0.03186,-0.11648,0.11514
0.06608,0.99188,-0.10864,-0.01135,-0.27549,0.111
0.06227,0.99407,-0.08914,0.0132,-0.31906,0.11416
0.05887,0.9957,-0.07145,0.00176,-0.32512,0.09948
0.0515,0.99723,-0.05363,-0.05359,-0.29738,0.06001
0.04095,0.99853,-0.03526,-0.0087,-0.20581,0.07673
0.03291,0.99927,-0.01937,0.03623,-0.11484,0.07775
0.02869,0.99955,-0.00762,0.01984,-0.07032,0.02276
0.02427,0.9997,0.00224,0.01932,-0.05655,0.00941
0.01965,0.99972,0.01255,0.08431,-0.07419,-0.0587
0.01734,0.99957,0.02343,0.14918,-0.05653,0.05967
0.01975,0.99935,0.03004,0.2728,0.01853,0.11096
0.02334,0.99914,0.03411,0.20849,0.08715,-0.01767
0.02597,0.99879,0.04169,0.19786,0.14657,-0.07851
0.02665,0.99848,0.04806,0.17472,0.2172,-0.07175
0.02585,0.9981,0.05585,0.15215,0.20361,-0.08362
0.02354,0.99759,0.06527,0.10168,0.28191,-0.11248
0.01979,0.9971,0.07334,0.06632,0.25282,-0.01086
0.0173,0.99679,0.07806,-0.12318,0.23508,0.13975
0.0179,0.99675,0.07849,-0.22092,0.3665,0.16707
0.02238,0.99692,0.0751,-0.10608,0.61842,0.18711
0.0298,0.9972,0.06858,-0.20713,0.41339,0.07439
0.04003,0.99767,0.05519,-0.27851,0.12759,0.00094
0.05134,0.99833,0.02629,-0.18846,0.08781,-0.08705
0.06631,0.99773,-0.01147,0.06149,0.05423,0.08789
0.08991,0.99473,-0.04924,0.1696,0.0505,0.08207
0.12427,0.98865,-0.08439,0.13445,0.2005,-0.16947
0.16271,0.97913,-0.12171,0.02297,0.20086,-0.02877
0.19617,0.96712,-0.16185,-0.13838,-0.02551,0.09303
0.22143,0.9543,-0.20068,-0.27145,-0.28113,0.21742
0.23692,0.94227,-0.23662,-0.18894,-0.23071,0.12189
0.24376,0.93193,-0.26849,-0.10727,-0.25662,0.12379
0.25179,0.9207,-0.29818,-0.07781,-0.19206,0.15132
0.26418,0.90694,-0.32813,-0.03022,-0.14284,0.11611
0.2807,0.89021,-0.35879,-0.02319,-0.17207,0.12359
0.29931,0.87212,-0.38706,-0.0952,-0.38432,0.1255
0.31493,0.8566,-0.40871,-0.12032,-0.36896,0.1899
0.32596,0.84527,-0.42339,-0.13277,-0.26826,0.18093
0.33358,0.83857,-0.43073,-0.08696,-0.11605,0.04504
0.33832,0.83512,-0.4337,-0.10471,-0.06068,-0.00296
0.33941,0.83402,-0.43498,-0.12119,-0.02625,-0.03237
0.33654,0.83556,-0.43424,-0.02612,0.06406,-0.0392
0.33261,0.83966,-0.42934,0.03775,0.11151,-0.08295
0.32772,0.84589,-0.42079,0.08678,0.10812,-0.12621
0.32516,0.85464,-0.4048,0.18253,-0.03402,-0.03674
0.32099,0.86924,-0.37601,0.18967,-0.05465,0.0398
0.30316,0.8846,-0.35437,0.1415,0.68131,0.08979
0.27597,0.90041,-0.33629,-0.07689,1.24502,-0.00056
0.26395,0.91211,-0.31365,-0.19871,0.04839,0.11932
0.2503,0.92381,-0.28967,-0.14236,-0.10269,0.19633
0.22913,0.93664,-0.26495,-0.04906,-0.19801,0.19361
0.20519,0.94879,-0.24019,-0.02391,-0.08253,0.19817
0.18144,0.95915,-0.21701,-0.04043,-0.01239,0.2042
0.16035,0.9672,-0.19698,-0.04013,0.02578,0.19689
0.1444,0.97346,-0.17753,-0.02408,0.04687,0.1257
0.13297,0.97854,-0.15737,-0.00745,-0.0222,0.12267
0.12312,0.98268,-0.13845,-0.0296,-0.10668,0.13041
0.11322,0.98633,-0.11968,-0.00496,-0.27771,0.11298
0.10407,0.98942,-0.10104,0.05704,-0.19334,0.08508
0.0968,0.9918,-0.08344,0.10138,-0.12899,0.08951
0.09312,0.99355,-0.06458,0.06771,-0.0816,0.07898
0.08891,0.99505,-0.0443,0.01485,-0.15362,0.07781
0.08443,0.99608,-0.02632,-0.00096,-0.20731,0.0565
0.07907,0.99677,-0.01362,-0.02046,-0.18227,0.00743
0.07173,0.99741,-0.00363,-0.04735,-0.17879,-0.01346
0.06465,0.99788,0.00662,0.02947,-0.10088,-0.02564
0.05946,0.99808,0.01725,0.12354,-0.03409,0.01132
0.05617,0.99808,0.02584,0.14056,-0.02298,-0.02299
0.05318,0.99802,0.03343,0.13552,0.01991,0.06034
0.0507,0.99798,0.03819,0.17109,0.11164,-0.05675
0.04869,0.99777,0.04565,0.15173,0.14266,-0.0691
0.04832,0.99714,0.05799,0.19716,0.13109,-0.14003
0.04726,0.99629,0.0719,0.15981,0.21758,-0.18331
0.04614,0.99558,0.08177,0.0829,0.30247,-0.09224
0.04534,0.99523,0.08638,-0.03288,0.34881,-0.01973
0.04605,0.99525,0.08572,-0.09291,0.3135,0.13238
0.05018,0.99556,0.07956,-0.03861,0.44954,0.0786
0.05784,0.99588,0.06974,0.0633,0.52783,0.07442
0.07003,0.99604,0.05465,-0.17371,0.12957,0.02134
0.08306,0.99609,0.03009,-0.24249,0.06145,-0.09612
0.09655,0.99532,-0.0032,-0.07847,-0.02417,-0.03515
0.11352,0.99272,-0.04015,0.12832,0.02794,-0.02523
0.13999,0.98706,-0.07814,0.17365,0.19839,-0.07668
0.17357,0.97753,-0.11955,0.1116,0.23125,-0.06036
0.20534,0.96532,-0.16118,-0.12409,0.10473,0.05933
0.22954,0.95259,-0.1997,-0.18869,0.05289,0.13259
0.24658,0.94114,-0.23121,-0.23483,-0.02894,0.17208
0.25881,0.93088,-0.25784,-0.16709,-0.0769,0.09694
0.27009,0.91937,-0.28601,-0.19085,-0.09326,0.13275
0.28011,0.9065,-0.31588,-0.21306,-0.12759,0.16385
0.28696,0.89288,-0.347,-0.05727,-0.18604,0.18728
0.29611,0.87768,-0.37681,-0.03708,-0.16775,0.20429
0.30903,0.86243,-0.40089,-0.02575,-0.15789,0.20046
0.31908,0.85001,-0.41912,-0.12337,-0.23163,0.19149
0.3226,0.84213,-0.43215,-0.16992,-0.21523,0.18547
0.32123,0.83835,-0.44043,-0.18538,-0.18942,0.15832
0.31915,0.83693,-0.44461,-0.14857,-0.04221,0.01003
0.31554,0.8373,-0.4465,-0.10763,-0.02785,0.01596
0.30908,0.84082,-0.44439,-0.06205,-0.03755,-0.00722
0.30328,0.84704,-0.4365,0.15537,0.1232,-0.14959
0.30244,0.85408,-0.42316,0.22263,0.08598,-0.1219
0.30017,0.86779,-0.39601,0.1935,-0.1033,0.05473
0.28435,0.88633,-0.36545,0.11788,0.43047,0.08656
0.25086,0.90318,-0.34832,0.02489,0.92581,0.0785
0.21788,0.91929,-0.32776,-0.68196,0.62002,0.21919
0.20731,0.93238,-0.29612,-0.05358,-0.28415,0.17397
0.19083,0.94302,-0.27257,0.04744,-0.38006,0.09445
0.16956,0.95201,-0.2548,0.14644,-0.35794,0.21967
0.14683,0.95952,-0.24033,0.10164,-0.03638,0.19884
0.12445,0.96604,-0.22644,0.12645,0.13618,0.12881
0.1111,0.97169,-0.20849,0.11195,0.18531,0.13926
0.1063,0.97696,-0.18507,0.0205,-0.07803,0.09885
0.10361,0.9815,-0.161,-0.02566,-0.14972,0.05938
0.10073,0.98524,-0.13834,-0.0096,-0.26613,0.13745
0.0953,0.98863,-0.11627,0.02741,-0.2413,0.15411
0.08588,0.9917,-0.09567,0.02215,-0.18168,0.1222
0.07652,0.99406,-0.0773,-0.08513,-0.18228,0.10324
0.07106,0.9957,-0.0594,-0.09033,-0.20604,0.11587
0.0679,0.9967,-0.0443,-0.0994,-0.20218,0.09286
0.06405,0.99738,-0.03345,-0.08452,-0.16248,0.08089
0.06112,0.99784,-0.02399,-0.04151,-0.17426,0.09322
0.0595,0.99809,-0.01646,0.06505,-0.12318,0.04966
0.05756,0.99828,-0.01081,0.06393,-0.05838,-0.01237
0.05529,0.99846,-0.00244,0.06141,-0.06221,0.07539
0.05345,0.99856,0.00256,0.07775,0.12958,-0.02886
0.05071,0.99869,0.00559,0.12255,0.15246,-0.02404
0.04667,0.99884,0.01168,0.16507,0.18372,-0.03461
0.04203,0.99892,0.01928,0.16242,0.11954,-0.02143
0.03734,0.9988,0.03138,0.15991,0.10944,-0.01472
0.03043,0.99847,0.04601,0.0975,0.1659,-0.0356
0.02176,0.99787,0.06144,0.00574,0.19903,0.09308
0.01424,0.99716,0.07393,-0.07812,0.25016,0.16594
0.00987,0.9966,0.08177,-0.11515,0.52312,0.16913
0.00941,0.99598,0.08905,-0.1605,0.59342,0.22189
0.01371,0.99563,0.09231,-0.28148,0.30097,0.16668
0.0209,0.99609,0.08577,-0.20335,0.03017,0.10034
0.03041,0.99743,0.06486,-0.14609,0.0139,0.01424
0.04584,0.99841,0.03279,-0.02009,0.14271,-0.08044
0.06914,0.9976,0.00019,0.07416,0.16858,-0.12775
0.09624,0.99486,-0.03136,0.0788,0.20648,-0.16068
0.12735,0.98976,-0.06439,0.03844,0.15622,-0.09274
0.16059,0.982,-0.09938,-0.10893,-0.11883,0.05144
0.1913,0.97262,-0.13193,-0.14269,-0.16657,0.08373
0.21545,0.96299,-0.16193,-0.13738,-0.18443,0.08184
0.23073,0.95397,-0.19158,-0.01926,-0.21189,0.05968
0.24159,0.94504,-0.22028,-0.01948,-0.17205,0.08411
0.25407,0.93409,-0.25083,-0.01579,-0.12847,0.09794
0.2704,0.92001,-0.28364,-0.12456,-0.19121,0.16906
0.28684,0.9035,-0.31844,-0.12553,-0.10147,0.08964
0.30269,0.886,-0.35126,-0.16441,-0.18678,0.22446
0.31954,0.86829,-0.37942,-0.09967,-0.26406,0.16293
0.3324,0.85325,-0.40183,-0.12,-0.20288,0.13164
0.33909,0.84208,-0.41943,-0.12086,-0.14319,0.1231
0.34279,0.83367,-0.433,-0.06865,-0.0284,0.03557
0.34664,0.82693,-0.44274,-0.05931,-0.07837,0.03927
0.34818,0.82292,-0.44897,-0.06277,-0.10207,0.02609
0.34697,0.8221,-0.45139,-0.03445,-0.06884,-0.01463
0.34499,0.8239,-0.44962,-0.04113,-0.06803,-0.03665
0.34077,0.82805,-0.44519,0.0784,0.03426,-0.06267
0.33454,0.83436,-0.43808,0.16053,0.07605,-0.15246
0.33043,0.84125,-0.42791,0.21955,0.09233,-0.1435
0.32833,0.84944,-0.4131,0.23592,0.09757,-0.10625
0.32009,0.86171,-0.39369,0.04741,0.67492,-0.03388
0.30821,0.87272,-0.37862,0.13153,0.84851,-0.11963
0.29036,0.88737,-0.35813,-0.36867,0.3069,0.04801
0.27726,0.90139,-0.33259,-0.08349,0.08883,0.01899
0.26246,0.91417,-0.30886,0.00059,0.06886,-0.00452
0.24001,0.92826,-0.28412,0.00838,0.01775,0.16067
0.21613,0.94147,-0.25868,-0.05907,0.03248,0.19583
0.19396,0.95242,-0.23511,-0.06774,0.02793,0.18617
0.17354,0.96184,-0.21152,-0.07222,0.08096,0.18688
0.15429,0.97024,-0.1866,-0.04229,0.06154,0.16775
