gravity.x,gravity.y,gravity.z,userAcceleration.x,userAcceleration.y,userAcceleration.z
-0.10525,0.97541,0.19366,0.31974,-0.3321,0.13688
-0.12274,0.9701,0.2094,0.4108,-0.16104,0.16207
-0.1416,0.9678,0.20812,0.32209,-0.03788,0.06802
-0.15372,0.9658,0.20879,-0.07474,0.01805,-0.37929
-0.15561,0.96272,0.22124,-0.00342,-0.06885,-0.10497
-0.15942,0.95893,0.23462,-0.04561,-0.06322,-0.1078
-0.17085,0.9542,0.24558,-0.08614,0.04851,-0.10535
-0.18483,0.94867,0.25664,-0.11545,0.0573,-0.1347
-0.19317,0.94305,0.27082,0.01876,0.05317,0.0049
-0.2005,0.93784,0.28328,0.12559,0.06638,-0.0398
-0.2098,0.93233,0.29451,0.15233,0.04359,-0.19518
-0.21985,0.92662,0.30503,0.18028,-0.05275,-0.17564
-0.22966,0.92181,0.31229,0.34651,0.1027,-0.17246
-0.23927,0.91708,0.31892,0.40313,0.08341,-0.19105
-0.24621,0.91246,0.3268,0.4832,0.16167,-0.16721
-0.24847,0.90944,0.33344,0.63261,0.27529,-0.29746
-0.24769,0.908,0.33791,0.66508,0.33878,-0.3106
-0.24446,0.9095,0.33622,0.55354,0.28876,-0.22926
-0.23695,0.915,0.32653,0.41162,0.3035,-0.11647
-0.22437,0.92541,0.30542,0.2048,0.39805,0.04204
-0.20539,0.93945,0.2743,0.05441,0.5789,-0.04044
-0.18291,0.95498,0.23356,-0.14539,0.70467,-0.54871
-0.16518,0.97011,0.17774,-0.27334,0.57455,-0.35461
-0.15528,0.98219,0.10579,-0.70076,0.48961,-0.61481
-0.15615,0.98664,0.04638,-0.65963,0.34345,0.08029
-0.17632,0.9843,0.0074,-0.39002,-0.02448,0.18693
-0.20946,0.97751,-0.02425,-0.39388,-0.12171,0.07209
-0.2339,0.97013,-0.06434,-0.48073,-0.22538,0.19731
-0.2252,0.9664,-0.12392,-0.22193,-0.00768,0.08127
-0.19586,0.96266,-0.18689,0.03627,0.09336,0.04996
-0.16587,0.9558,-0.24277,0.02836,-0.06751,-0.10166
-0.1392,0.94788,-0.28662,0.0451,-0.14968,0.17325
-0.11525,0.94012,-0.32075,0.01925,-0.24374,0.22342
-0.09505,0.93405,-0.34425,0.01957,-0.34387,0.28713
-0.08047,0.92826,-0.36311,0.16155,-0.47531,0.30478
-0.0769,0.92079,-0.38241,0.13201,-0.52359,0.29389
-0.08712,0.9123,-0.40014,-0.04181,-0.65698,0.2404
-0.10537,0.90733,-0.40699,-0.04345,-0.65537,0.16572
-0.12662,0.90808,-0.3992,0.016,-0.52089,0.0614
-0.14897,0.91314,-0.37946,0.07525,-0.31676,-0.08965
-0.17434,0.9201,-0.35075,0.19066,-0.02221,-0.35931
-0.19611,0.92708,-0.31946,0.31303,0.08433,-0.50179
-0.20956,0.9307,-0.29979,0.4107,0.31736,-0.76819
-0.22046,0.92983,-0.29463,-0.08157,0.57536,-0.5984
-0.23042,0.92625,-0.29828,-0.21558,0.53722,-0.35033
-0.23428,0.92308,-0.30503,-0.18644,0.38903,-0.34936
-0.23217,0.92101,-0.3128,-0.0869,0.19595,-0.36504
-0.2265,0.91991,-0.32011,-0.4229,0.89757,-0.37629
-0.22257,0.9193,-0.32457,-0.43307,1.29048,0.07448
-0.21725,0.91651,-0.33589,-0.27654,0.70935,0.63469
-0.20337,0.91713,-0.34281,-0.07635,-0.45433,0.72292
-0.19179,0.9261,-0.32489,-0.24507,-0.64485,0.39272
-0.18234,0.93673,-0.29881,-0.07989,-0.59678,0.32206
-0.18348,0.94675,-0.26459,-0.03813,-0.58818,0.40374
-0.20203,0.95915,-0.19801,-0.17225,0.08224,0.80931
-0.22071,0.9671,-0.12648,-0.11042,0.21579,0.73909
-0.22982,0.9697,-0.08283,0.0367,0.26119,0.34602
-0.24396,0.96678,-0.0763,0.19552,0.32234,-0.32371
-0.25548,0.96443,-0.0678,0.27994,0.04091,-0.20889
-0.26224,0.96383,-0.04748,0.30546,-0.12326,-0.18593
-0.2735,0.96169,-0.0188,0.1544,-0.40027,0.09345
-0.29008,0.95699,0.0052,0.08029,-0.31465,0.24802
-0.30699,0.95146,0.02191,0.08084,-0.19945,0.25258
-0.32001,0.94653,0.04099,0.04915,-0.01093,0.18915
-0.33067,0.94163,0.06314,0.08641,-0.01034,0.08611
-0.33995,0.93685,0.08215,0.11875,0.00847,-0.08351
-0.34846,0.93234,0.0965,0.29264,0.01665,-0.29216
-0.35676,0.92766,0.11032,0.3177,-0.10963,-0.04364
-0.36496,0.92259,0.12503,0.26872,0.01648,0.02115
-0.37235,0.9171,0.14244,0.23989,0.02699,0.0098
-0.37776,0.91239,0.15764,0.30981,0.15593,-0.19539
-0.38217,0.90885,0.16714,0.32063,0.30968,-0.23859
-0.38552,0.90694,0.16981,0.32185,0.41241,-0.06744
-0.38675,0.90774,0.16257,0.40634,0.35513,-0.16787
-0.38586,0.91029,0.14992,0.45688,0.2776,-0.20087
-0.38083,0.91596,0.12643,0.31284,0.21316,0.01135
-0.36775,0.92555,0.09007,0.20141,0.44931,0.09395
-0.35473,0.93389,0.04491,0.08468,0.59533,-0.05648
-0.34348,0.93913,-0.00714,0.1328,0.52744,0.13451
-0.33288,0.94062,-0.06652,0.13205,0.30822,0.24004
-0.32267,0.93866,-0.1217,0.05912,0.34905,0.38931
-0.31751,0.93333,-0.16759,-0.06078,0.30378,0.47247
-0.31795,0.92495,-0.20829,-0.06917,0.1999,0.3404
-0.31899,0.91564,-0.24465,0.23353,0.17016,0.26576
-0.31614,0.9074,-0.2769,0.36927,0.21909,0.2276
-0.30983,0.8999,-0.30691,0.19615,0.04311,0.31194
-0.30501,0.89101,-0.33626,0.14429,0.00488,0.38346
-0.30374,0.88059,-0.36374,0.05117,-0.04327,0.46944
-0.30195,0.87163,-0.38611,-0.0895,-0.14766,0.4883
-0.30035,0.8667,-0.39827,-0.13025,-0.21709,0.50038
-0.3016,0.86419,-0.40275,-0.15623,-0.31184,0.48018
-0.30544,0.86242,-0.40366,-0.15713,-0.36025,0.29813
-0.31283,0.86132,-0.40033,-0.10195,-0.32928,0.20253
-0.32297,0.86231,-0.39002,-0.06164,-0.27899,0.20489
-0.33513,0.86531,-0.37274,-0.06444,-0.27149,0.19189
-0.35082,0.86843,-0.35037,-0.02702,-0.22757,0.10716
-0.36907,0.87139,-0.32322,0.06379,-0.13539,0.02952
-0.38973,0.8744,-0.28902,0.0642,0.03528,-0.10857
-0.41097,0.87696,-0.24907,0.00123,0.2569,-0.34999
-0.42899,0.87842,-0.2106,0.05483,0.58707,-0.59313
-0.43734,0.87941,-0.18808,0.14457,0.55515,-0.5179
-0.43632,0.87981,-0.18858,0.1026,0.51222,-0.44329
-0.42863,0.87856,-0.21073,-0.25992,0.60379,-0.13956
-0.41093,0.8777,-0.24654,-0.05166,0.34073,0.40452
-0.39302,0.88113,-0.26294,-0.15381,-0.04462,0.65674
-0.38552,0.88572,-0.2586,-0.32358,-0.42838,0.39674
-0.38075,0.89302,-0.23988,-0.07942,-0.47955,0.08346
-0.38699,0.89624,-0.21676,0.17409,-0.23663,0.06262
-0.40062,0.89697,-0.18695,0.30292,0.1877,0.34443
-0.4118,0.89941,-0.14654,0.40191,0.48973,0.48776
-0.41159,0.90522,-0.10564,0.57265,0.48885,0.34261
-0.40473,0.91147,-0.07362,0.4923,0.35121,-0.03859
-0.39571,0.91746,-0.041,0.34107,0.20065,-0.16182
-0.38642,0.92228,-0.00887,0.13306,-0.03453,-0.03929
-0.3792,0.92511,0.01928,-0.08323,-0.19391,0.02248
-0.37531,0.92586,0.04399,-0.22044,-0.16244,0.12457
-0.3773,0.92374,0.06602,-0.21834,-0.12039,0.13687
-0.38269,0.91989,0.08577,-0.0562,-0.06036,0.06387
-0.38843,0.91548,0.10495,0.2509,-0.07668,-0.06682
-0.39195,0.91179,0.1225,0.32374,-0.09505,-0.04885
-0.39358,0.90849,0.14053,0.3317,-0.08762,0.07759
-0.39491,0.90447,0.16117,0.18915,-0.06301,0.17602
-0.39553,0.90002,0.1831,0.09481,-0.03294,0.08547
-0.39672,0.8949,0.20439,0.06753,-0.03456,-0.00235
-0.399,0.88898,0.22476,0.09232,0.0466,-0.14048
-0.40285,0.88234,0.2433,0.09515,0.08466,-0.18132
-0.40873,0.87491,0.25976,0.10286,0.08981,-0.18985
-0.41563,0.86736,0.27375,0.17924,0.0886,-0.20194
-0.42202,0.86028,0.28603,0.24946,0.07644,-0.1608
-0.42642,0.85437,0.29703,0.41023,0.18381,-0.06928
-0.42775,0.85055,0.30595,0.58793,0.38969,-0.07502
-0.42709,0.84767,0.31473,0.63513,0.44945,-0.18953
-0.42453,0.84707,0.31977,0.51369,0.42141,-0.34999
-0.41992,0.84984,0.31849,0.39466,0.37452,-0.47496
-0.41551,0.85554,0.30889,0.36032,0.35587,-0.49387
-0.41095,0.86592,0.28514,0.01821,0.56087,0.13214
-0.40004,0.88249,0.24735,-0.12001,0.52808,0.30537
-0.38501,0.90131,0.19854,-0.24346,0.1741,-0.1077
-0.36781,0.91793,0.14873,-0.146,0.32506,-0.04462
-0.35114,0.93016,0.10721,-0.04315,0.42938,0.34666
-0.33759,0.93898,0.06587,-0.06631,0.40708,0.36777
-0.32038,0.94695,0.02522,-0.15116,0.3207,0.10385
-0.29661,0.95493,-0.0111,-0.05176,0.34917,0.05306
-0.27183,0.96111,-0.04879,-0.02176,0.30533,0.04719
-0.24702,0.96484,-0.08983,0.02584,-0.00193,0.04027
-0.22427,0.96482,-0.13723,-0.04894,-0.16649,0.05662
-0.20601,0.96128,-0.18305,-0.07317,-0.2199,0.21636
-0.19099,0.95684,-0.21903,-0.08568,-0.41484,0.29367
-0.17437,0.95294,-0.24801,-0.08498,-0.33668,0.30876
-0.15363,0.94834,-0.27757,-0.04928,-0.27085,0.33827
-0.13645,0.941,-0.30969,-0.06889,-0.18576,0.28677
-0.12671,0.93153,-0.34087,-0.14316,-0.24116,0.25008
-0.12325,0.92237,-0.36612,-0.11815,-0.33458,0.26882
-0.12577,0.91598,-0.38101,-0.06416,-0.46337,0.27503
-0.13278,0.91322,-0.38521,-0.04869,-0.54654,0.17588
-0.14311,0.91431,-0.3789,-0.02333,-0.57179,0.06325
-0.15741,0.9188,-0.36198,0.03644,-0.52167,-0.07508
-0.17553,0.92619,-0.3337,0.15124,-0.37034,-0.32061
-0.19475,0.93385,-0.30001,0.45724,-0.02142,-0.50973
-0.21138,0.93761,-0.27606,0.57946,0.35397,-0.60689
-0.21988,0.93636,-0.27365,0.43872,0.89576,-0.64038
-0.22137,0.93308,-0.28347,-0.02182,1.03715,-0.54818
-0.21505,0.93036,-0.29694,0.07609,0.26283,-0.35757
-0.20327,0.92997,-0.30632,0.1,-0.0128,-0.36415
-0.19248,0.93222,-0.30646,0.07997,-0.2574,-0.41843
-0.18889,0.93172,-0.3102,0.21112,-0.28538,-0.37451
-0.18194,0.93475,-0.3052,-0.19157,0.70487,0.02602
-0.19129,0.93741,-0.29097,-0.40655,1.26464,0.40138
-0.1964,0.93848,-0.28405,-1.12826,0.30481,0.69506
-0.17827,0.94389,-0.27803,-0.43941,-0.40469,0.22578
-0.16517,0.95063,-0.26273,-0.37631,-0.5186,0.25374
-0.15192,0.96216,-0.22621,-0.12065,-0.83775,0.43039
-0.14815,0.97673,-0.15508,-0.14245,-0.59184,0.68172
-0.1616,0.98375,-0.07819,-0.16134,-0.3275,0.45946
-0.18568,0.98236,-0.02222,-0.04763,-0.03937,0.10188
-0.20828,0.97805,0.00651,0.19963,0.3692,-0.06057
-0.22862,0.9725,0.04447,0.32858,0.33056,0.03924
-0.23889,0.96778,0.07958,0.45689,0.06556,0.272
-0.24294,0.96508,0.09794,0.39675,-0.22615,0.07569
-0.24452,0.96206,0.12107,0.09726,-0.36364,-0.07409
-0.24902,0.95609,0.15457,-0.09763,-0.35284,-0.00923
-0.25649,0.94946,0.18093,-0.12345,-0.15449,-0.20632
-0.26596,0.94269,0.20148,-0.08624,-0.08016,-0.33884
-0.2775,0.93441,0.22333,0.02416,-0.0367,-0.22927
-0.29022,0.92626,0.24043,0.16487,-0.02384,-0.12254
-0.30285,0.91839,0.25463,0.2193,0.00097,-0.13703
-0.31448,0.90959,0.27157,0.25103,0.02538,-0.09999
-0.32362,0.90123,0.28819,0.25301,0.11719,-0.14653
-0.33028,0.89434,0.30177,0.27997,0.15258,-0.15645
-0.33542,0.88958,0.31006,0.4848,0.43145,-0.11098
-0.33895,0.88578,0.31702,0.52261,0.44332,-0.11739
-0.33997,0.88328,0.32286,0.5421,0.41456,-0.18936
-0.33608,0.8847,0.32304,0.48878,0.37116,-0.37411
-0.32927,0.89086,0.31296,0.44539,0.40018,-0.31119
-0.3181,0.9033,0.28785,0.22908,0.49701,-0.06267
-0.29675,0.92211,0.24828,-0.23682,0.67916,-0.21784
-0.2725,0.94296,0.19122,-0.29913,0.58092,-0.23351
-0.25101,0.96099,0.11618,-0.34993,0.49998,-0.27676
-0.23369,0.97104,0.04971,-0.63504,0.56961,0.35507
-0.21609,0.97636,-0.0048,-0.67152,0.56189,0.45275
-0.19392,0.97962,-0.05232,-0.6263,0.45439,0.13951
-0.16759,0.98099,-0.09783,-0.17384,0.43205,0.24012
-0.13228,0.98041,-0.14593,-0.09068,0.37785,0.23883
-0.08279,0.97516,-0.20544,0.22372,0.29567,-0.0384
-0.03747,0.96248,-0.26877,-0.10752,0.06865,0.16507
-0.00658,0.94247,-0.33422,-0.25288,-0.08795,0.45954
0.00791,0.91783,-0.39691,-0.26288,-0.27595,0.63416
0.01065,0.89255,-0.45083,-0.13255,-0.47083,0.53316
0.0086,0.8689,-0.49491,-0.23536,-0.58413,0.46334
0.00557,0.84669,-0.53206,-0.34849,-0.56584,0.44726
-0.00277,0.82764,-0.56125,-0.47681,-0.58602,0.5329
-0.01363,0.81607,-0.57779,-0.38133,-0.69902,0.44683
-0.02269,0.81334,-0.58135,-0.15152,-0.6929,0.30245
-0.03008,0.81706,-0.57577,0.0024,-0.61166,0.19633
-0.03217,0.82456,-0.56485,0.04553,-0.2855,-0.3197
-0.03274,0.82973,-0.5572,0.11294,-0.11199,-0.52944
-0.03192,0.8263,-0.56233,0.24973,0.26541,-0.64463
-0.0277,0.81553,-0.57805,0.3937,0.53873,-0.53914
-0.02764,0.80544,-0.59203,0.42964,0.46316,-0.44218
-0.03301,0.80227,-0.59604,0.38255,0.25494,-0.36612
-0.0431,0.79986,-0.59863,0.17473,0.0409,-0.18454
-0.0547,0.79645,-0.60222,0.01374,0.03897,-0.40216
-0.0699,0.79232,-0.60608,-0.01557,0.07853,-0.52195
-0.0887,0.78915,-0.60776,-0.04181,-0.13313,-0.31246
-0.10604,0.79329,-0.59954,-0.34693,-0.10904,-0.20487
-0.12873,0.80126,-0.5843,-0.49317,0.2608,-0.20733
-0.14016,0.81543,-0.56163,-0.58371,0.50773,0.25042
-0.13357,0.83742,-0.52998,-0.64853,0.63885,0.66154
-0.11474,0.86801,-0.48311,-0.59204,0.0779,0.63192
-0.09652,0.89379,-0.43797,-0.53633,0.15259,0.41487
-0.08652,0.91601,-0.39171,-0.34287,0.17095,0.41906
-0.08072,0.9373,-0.33904,-0.15254,0.11053,0.42482
-0.07231,0.95751,-0.27917,-0.04686,0.07633,0.43352
-0.06778,0.97371,-0.21748,-0.02083,0.02246,0.32712
-0.06932,0.9844,-0.16173,-0.01389,0.00365,0.30394
-0.07455,0.98974,-0.12188,0.04114,-0.16682,0.19085
-0.0776,0.99212,-0.0984,0.02434,-0.23676,0.06811
-0.07682,0.99421,-0.07516,0.16572,-0.36216,0.03079
-0.07838,0.99562,-0.05098,0.18536,-0.42172,0.03161
-0.08215,0.99617,-0.02994,0.15536,-0.36769,0.017
-0.08639,0.99615,-0.01521,0.26,-0.11332,0.06132
-0.08798,0.9961,-0.00693,0.28454,-0.06928,0.08052
-0.08954,0.99596,-0.00671,0.21389,-0.12566,0.11034
-0.08156,0.99656,-0.01492,0.37728,-0.2578,-0.20945
-0.06972,0.99733,-0.02187,0.3136,-0.2588,-0.32237
-0.0586,0.998,-0.02362,0.11706,-0.20818,-0.14824
-0.05074,0.99839,-0.02551,-0.26378,0.01967,0.13124
-0.04942,0.99855,-0.02151,-0.31662,0.0152,0.17979
-0.05284,0.99853,-0.0118,-0.33591,0.04015,0.14871
-0.06064,0.99816,0.00111,-0.01518,0.24334,-0.07696
-0.07319,0.99726,0.01031,0.14885,0.44396,-0.26043
-0.08847,0.99584,0.0218,0.14773,0.58721,-0.07016
-0.10786,0.99331,0.0412,0.00959,0.62632,-0.06023
-0.13226,0.98887,0.06811,0.0321,0.69956,-0.20117
-0.16221,0.98115,0.10507,-0.04355,0.83335,-0.21237
-0.19646,0.96929,0.14792,-0.29481,0.71977,-0.13572
-0.23177,0.95522,0.18397,-0.45334,0.77606,-0.30381
-0.26219,0.94407,0.19998,-0.20039,0.76002,-0.23949
-0.28674,0.93704,0.19935,0.07586,0.63395,-0.37165
-0.30534,0.9349,0.1809,0.19766,0.21163,-0.47496
-0.31551,0.93844,0.14068,0.23816,0.09625,-0.44355
-0.31393,0.94582,0.0829,0.37974,-0.08591,-0.24218
-0.29891,0.95381,0.02986,0.32273,-0.09567,0.0868
-0.27117,0.96253,-0.00179,0.37698,-0.36352,0.23907
-0.2289,0.97257,-0.04133,0.27658,-0.16189,0.17944
-0.18407,0.9758,-0.11808,-0.1494,0.21651,-0.39514
-0.1454,0.968,-0.20454,-0.34807,0.2663,0.19929
-0.10727,0.95117,-0.28942,-0.11133,0.20856,0.46179
-0.06761,0.9272,-0.36841,0.10235,0.06796,0.11961
-0.03562,0.89768,-0.43921,0.01278,-0.10614,0.0793
-0.0122,0.86234,-0.50618,-0.16196,-0.11808,0.00867
0.00758,0.81754,-0.57581,-0.21586,-0.00889,-0.01723
0.0204,0.76307,-0.646,-0.1551,0.24095,-0.07324
0.01717,0.70201,-0.71196,-0.17252,0.12072,0.07203
0.00637,0.63739,-0.77051,-0.26684,-0.02257,0.16564
-0.01629,0.57228,-0.8199,-0.20414,-0.07434,0.13928
-0.0488,0.51225,-0.85745,-0.03111,-0.06668,0.10496
-0.0836,0.46873,-0.87938,0.06315,-0.05372,0.06291
-0.11899,0.44822,-0.88597,0.06432,-0.1635,0.05337
-0.15302,0.44609,-0.88181,0.09586,-0.38956,0.08822
-0.1816,0.45602,-0.87124,0.2156,-0.40104,0.083
-0.20113,0.47418,-0.85715,0.46472,-0.24369,0.16475
-0.21304,0.50069,-0.839,0.22932,-0.32927,0.48482
-0.22344,0.54032,-0.81125,0.07444,-0.44822,0.67046
-0.23013,0.59263,-0.7719,-0.14551,-0.60879,0.65033
-0.23547,0.63852,-0.7327,-0.65231,-0.55918,-0.07098
-0.22122,0.66872,-0.70984,0.20778,0.84082,0.20679
-0.18951,0.72989,-0.65677,0.02377,0.7229,0.46901
-0.17427,0.7826,-0.59764,-0.39986,0.40808,-0.04807
-0.16771,0.81776,-0.55058,-0.17652,0.11803,0.3289
-0.16008,0.85093,-0.5003,-0.13926,-0.04652,0.34144
-0.15295,0.88043,-0.44884,-0.01116,-0.21693,0.28168
-0.1476,0.90482,-0.39939,0.03074,-0.1859,0.288
-0.14814,0.92264,-0.35609,0.02108,-0.10274,0.24926
-0.15603,0.93404,-0.32128,-0.04196,0.18484,0.04713
-0.16492,0.9417,-0.29327,-0.03793,0.17389,0.03
-0.16827,0.9495,-0.26485,-0.03342,0.1189,0.01445
-0.16388,0.95852,-0.2332,0.0536,-0.06794,0.06359
-0.1561,0.96706,-0.20108,0.14217,-0.15721,0.05746
-0.14744,0.97385,-0.17288,0.15097,-0.20195,0.06918
-0.14055,0.9787,-0.14965,0.12646,-0.33247,0.06041
-0.1389,0.98141,-0.13243,0.15479,-0.35844,0.12075
-0.14119,0.98252,-0.1213,0.14678,-0.29582,0.03466
-0.14738,0.98236,-0.11508,0.10517,-0.19519,-0.03016
-0.15589,0.98076,-0.11752,0.02067,0.02267,-0.06153
-0.16465,0.97909,-0.11945,-0.03336,0.29518,-0.07852
-0.17279,0.97792,-0.11751,0.04068,0.35417,-0.00134
-0.17627,0.97816,-0.11014,0.06075,0.22954,-0.01737
-0.18018,0.97873,-0.09808,0.03736,0.17167,-0.08806
-0.19104,0.978,-0.08384,-0.04614,0.19939,-0.07679
-0.20734,0.97575,-0.07014,-0.09186,0.29448,-0.05951
-0.22668,0.97242,-0.05493,0.01986,0.3605,-0.00206
-0.24838,0.96804,-0.0346,0.1439,0.33023,-0.05078
-0.27374,0.96179,-0.00583,0.18074,0.35917,-0.10385
-0.30194,0.95265,0.03581,0.13925,0.45512,0.00732
-0.3305,0.94063,0.07732,-0.02053,0.56977,-0.04975
-0.35821,0.9268,0.11286,-0.21433,0.46447,-0.23928
-0.38488,0.91236,0.13955,-0.22596,0.46592,-0.35948
-0.40839,0.89995,0.15265,0.04675,0.46096,-0.44335
-0.42636,0.89194,0.15057,0.2042,0.26509,-0.34848
-0.43623,0.88944,0.13639,0.12968,0.21463,-0.34974
-0.43837,0.8916,0.11352,0.00598,0.10372,-0.38078
-0.4351,0.89683,0.07992,0.02073,-0.11341,-0.38815
-0.42343,0.9052,0.0363,0.11444,-0.12529,-0.22019
-0.40199,0.91556,-0.01248,0.22563,0.00955,0.10172
-0.37611,0.92491,-0.05553,-0.01508,0.08798,0.06528
-0.34703,0.93332,-0.09208,-0.19257,0.1483,0.0649
-0.31558,0.93924,-0.13508,-0.46227,0.18371,-0.00852
-0.28391,0.94077,-0.18532,-0.52619,0.1276,0.12565
-0.26117,0.93401,-0.24373,-0.36306,-0.13651,0.37732
-0.23515,0.92069,-0.3115,-0.21757,-0.04278,0.02518
-0.21242,0.90361,-0.37197,0.0044,0.01965,0.01778
-0.18766,0.88213,-0.43201,0.04441,0.11529,-0.13109
-0.16809,0.85173,-0.49629,-0.08245,0.0701,-0.0468
-0.15411,0.80903,-0.56721,-0.17013,-0.06449,0.2421
-0.14628,0.75804,-0.63559,-0.17179,-0.21875,0.32632
-0.14845,0.70306,-0.69546,-0.02188,-0.22344,0.42179
-0.15232,0.6444,-0.74937,0.06843,-0.21839,0.43868
-0.15442,0.58321,-0.79751,0.07483,-0.23133,0.37606
-0.15997,0.51658,-0.84117,-0.04592,-0.28249,0.40449
-0.16993,0.44791,-0.87778,-0.05857,-0.32635,0.54723
-0.17992,0.38621,-0.90469,-0.04528,-0.38551,0.55077
-0.1866,0.33815,-0.92241,0.0843,-0.51749,0.51736
-0.19127,0.30759,-0.9321,0.16507,-0.46682,0.36798
-0.19608,0.29317,-0.93574,0.21091,-0.43088,0.27457
-0.20111,0.28882,-0.93602,0.26403,-0.30884,0.01003
-0.20734,0.29068,-0.93409,0.24265,-0.1669,-0.0858
-0.21561,0.29578,-0.9306,0.23447,-0.22451,-0.0906
-0.22527,0.3059,-0.92503,0.21091,-0.08958,-0.24701
-0.23413,0.32156,-0.91749,0.18883,-0.12462,-0.25324
-0.24139,0.34276,-0.90788,0.20965,-0.12418,-0.32759
-0.24466,0.37071,-0.89595,0.26561,-0.1194,-0.29
-0.24922,0.40962,-0.87755,0.11982,-0.20282,-0.13867
-0.25922,0.45294,-0.85302,-0.32871,-0.23464,-0.44146
-0.26545,0.48288,-0.83448,-0.57957,0.15869,-1.35865
-0.2627,0.50306,-0.82336,0.1401,0.79313,-0.70585
-0.26396,0.55852,-0.78637,-0.12653,-0.19684,0.76611
-0.27026,0.61145,-0.7437,-0.41698,-0.51949,0.02771
-0.26163,0.65442,-0.70943,0.0325,-0.14735,0.49226
-0.24123,0.70749,-0.66428,-0.15275,-0.00226,0.16482
-0.22078,0.75959,-0.61179,-0.39072,0.23605,0.06246
-0.20914,0.80674,-0.55265,-0.45715,0.24323,0.06705
-0.20457,0.84683,-0.49095,-0.37113,0.10738,0.03714
-0.20276,0.87958,-0.43038,-0.21508,-0.00461,0.09085
-0.20334,0.90467,-0.37446,-0.07396,-0.05213,0.18831
-0.20585,0.92318,-0.32459,-0.06983,-0.03248,0.15662
-0.20932,0.93801,-0.27626,-0.06281,0.02665,0.11329
-0.21175,0.95078,-0.22624,-0.01916,-0.06769,-0.02612
-0.21437,0.96075,-0.17605,0.01888,-0.10544,-0.06405
-0.21998,0.96726,-0.12653,0.19398,-0.081,-0.03231
-0.23006,0.97003,-0.0782,0.21416,-0.08412,-0.01918
-0.24107,0.96996,-0.03261,0.19906,-0.00622,0.11571
-0.25128,0.96786,0.01041,0.23202,-0.01258,0.10694
-0.26311,0.96376,0.04407,0.24525,-0.05978,0.06436
-0.27684,0.95886,0.06282,0.29088,-0.12947,-0.04147
-0.28615,0.95565,0.06964,0.30806,-0.05825,-0.04834
-0.29058,0.95411,0.07237,0.30024,-0.0721,-0.0708
-0.29221,0.95326,0.07685,0.20116,-0.12904,-0.03555
-0.29181,0.95273,0.08453,0.11583,-0.16695,-0.07965
-0.2916,0.95181,0.09497,0.05497,-0.19081,-0.10491
-0.29255,0.95016,0.10771,-0.03594,-0.20515,-0.09658
-0.29772,0.94701,0.12054,-0.00096,-0.15763,-0.01919
-0.30791,0.94239,0.13072,0.01401,-0.09501,-0.00624
-0.31844,0.93724,0.14202,-0.03612,0.09793,-0.12944
-0.32878,0.93152,0.15549,0.07953,0.02771,-0.05464
-0.34197,0.92439,0.16902,0.07747,0.0537,-0.07938
-0.35665,0.91605,0.18347,0.15951,0.18022,-0.13597
-0.36973,0.90861,0.19426,0.2174,0.42879,-0.36186
-0.38287,0.90004,0.20819,0.23456,0.39826,-0.37196
-0.39674,0.8904,0.22313,0.19093,0.37016,-0.31464
-0.41424,0.87762,0.2412,0.03352,0.30113,-0.29276
-0.43734,0.86127,0.25874,-0.02304,0.40275,-0.13397
-0.46321,0.84164,0.27763,-0.15723,0.58061,0.02116
-0.47513,0.82957,0.29339,-0.23532,0.57458,0.081
-0.47906,0.82569,0.29791,0.03316,0.37732,-0.34034
-0.48519,0.82238,0.29712,0.10236,0.19596,-0.32245
-0.49411,0.82015,0.28846,-0.01816,0.13424,-0.02714
-0.49943,0.82283,0.27117,-0.16474,0.11408,0.0808
-0.49855,0.83031,0.24906,-0.10395,0.02662,0.03857
-0.49183,0.8408,0.22618,-0.01317,-0.1143,-0.02678
-0.48101,0.85261,0.20416,0.06712,-0.17182,-0.04077
-0.46952,0.86456,0.17913,0.05445,-0.12484,-0.06895
-0.45844,0.87693,0.14433,-0.03137,-0.07912,-0.12459
-0.44731,0.88914,0.09666,-0.20782,-0.1195,-0.26873
-0.43508,0.89943,0.04147,-0.31223,-0.15545,-0.2591
-0.42101,0.90702,-0.0087,-0.38411,-0.20578,-0.10844
-0.40757,0.91158,-0.05387,-0.25337,-0.32302,0.21416
-0.39543,0.91265,-0.10353,-0.19092,-0.30998,0.25606
-0.38293,0.90989,-0.1596,-0.11893,-0.25332,0.15532
-0.36931,0.90395,-0.21558,-0.09892,-0.14498,0.07001
-0.35599,0.8968,-0.26272,-0.08702,-0.04516,0.05974
-0.34362,0.88884,-0.30315,-0.07092,0.0186,0.10565
-0.33013,0.88123,-0.3383,-0.01542,0.0244,0.10818
-0.31588,0.87454,-0.36797,-0.03626,-0.00676,0.11226
-0.30325,0.86792,-0.39339,-0.10259,-0.11839,0.14814
-0.29625,0.85917,-0.41722,-0.09303,-0.2192,0.2461
-0.29589,0.84983,-0.43617,-0.00037,-0.29522,0.19961
-0.29916,0.84461,-0.444,0.09161,-0.33144,0.18703
-0.30346,0.84458,-0.44113,0.11624,-0.37257,0.14181
-0.30779,0.84836,-0.43076,0.11596,-0.34199,0.10345
-0.31377,0.85408,-0.41485,0.08896,-0.25299,0.07986
-0.32267,0.86125,-0.39261,0.10101,-0.21226,-0.00472
-0.33365,0.87005,-0.36291,0.19264,-0.20748,-0.06841
-0.34417,0.88037,-0.32634,0.37467,-0.11842,-0.29699
-0.35171,0.89157,-0.28532,0.42532,-0.06328,-0.3928
-0.35551,0.90175,-0.2459,0.44353,0.01886,-0.44766
-0.35439,0.91008,-0.21485,0.42046,0.35106,-0.37379
-0.34408,0.91832,-0.19569,0.43235,0.57888,-0.33936
-0.32608,0.92843,-0.178,0.30794,0.54328,-0.38822
-0.30364,0.94037,-0.15328,0.06074,0.4094,-0.36982
-0.28502,0.9494,-0.13195,-0.21451,0.4941,-0.03487
-0.28164,0.95186,-0.121,-0.38241,0.42067,0.22183
-0.28435,0.95149,-0.11748,-0.97877,0.10562,0.253
-0.28648,0.95173,-0.11016,-1.22997,-0.55739,-0.28896
-0.28155,0.95394,-0.1036,-1.0458,-0.76087,-0.20013
-0.28573,0.95366,-0.09427,-0.43529,-0.59209,0.25404
-0.3031,0.95054,-0.06782,-0.2265,-0.10815,0.48112
-0.32532,0.94538,-0.02068,-0.22421,0.07821,0.50928
-0.34649,0.93751,0.03202,-0.16429,0.21885,0.5224
-0.35354,0.93248,0.07403,0.28009,0.39433,0.29963
-0.34976,0.9322,0.09312,0.38017,0.41044,0.20243
-0.34483,0.93265,0.10607,0.17973,0.14454,-0.0572
-0.33622,0.93365,0.12347,-0.01401,-0.10437,0.00977
-0.3288,0.93344,0.1435,-0.09707,-0.25453,0.19569
-0.32734,0.93148,0.15871,-0.11683,-0.30438,0.17606
-0.32985,0.92914,0.16704,0.01201,-0.12883,-0.0008
-0.33453,0.92572,0.17644,0.16817,-0.02936,-0.09971
-0.34087,0.92134,0.18694,0.23615,0.00629,0.00373
-0.3476,0.91726,0.19441,0.25544,0.11203,-0.00362
-0.35487,0.91294,0.20153,0.30123,0.20585,-0.09898
-0.36012,0.90929,0.20858,0.29925,0.17771,-0.10694
-0.36461,0.90612,0.21448,0.27791,0.12189,-0.18381
-0.36699,0.90426,0.21825,0.24759,0.08585,-0.16631
-0.36784,0.90381,0.21866,0.24234,0.07206,-0.11437
-0.36758,0.90467,0.21553,0.18592,0.16764,-0.22225
-0.36577,0.9067,0.21003,0.17388,0.17689,-0.24522
-0.36243,0.90986,0.20199,0.09415,0.21813,-0.16607
-0.35578,0.91535,0.18856,-0.18449,0.38988,-0.09307
-0.34035,0.92522,0.16773,-0.2466,0.32718,-0.13077
-0.31808,0.93808,0.13723,-0.12659,0.15157,-0.20134
-0.29363,0.95262,0.07935,-0.14571,0.14415,-0.15353
-0.26755,0.96352,-0.00725,-0.32153,0.16984,-0.30623
-0.24525,0.96398,-0.10291,-0.83103,0.1188,-0.1581
-0.2324,0.95488,-0.18492,-0.74798,-0.15758,0.39959
-0.23357,0.93695,-0.25994,-0.6493,-0.15076,0.66865
-0.22618,0.91346,-0.33827,0.18359,0.88048,-0.48391
-0.19051,0.89533,-0.40259,0.36115,0.81655,-0.46223
-0.15467,0.87647,-0.45594,0.27046,0.55228,-0.21213
-0.14311,0.8452,-0.51494,0.01995,-0.05844,0.39633
-0.14264,0.80674,-0.57343,-0.07853,-0.1928,0.46082
-0.14198,0.77414,-0.61689,-0.03329,-0.25087,0.52924
-0.14351,0.75079,-0.64476,-0.00873,-0.45697,0.27037
-0.14768,0.73074,-0.66649,-0.07725,-0.45906,0.18507
-0.15211,0.71056,-0.68699,-0.10153,-0.40064,0.15858
-0.15974,0.69119,-0.70479,-0.02959,-0.25563,0.20711
-0.16894,0.67542,-0.71782,0.12252,-0.21252,0.22389
-0.17642,0.66601,-0.72478,0.20837,-0.1942,0.1898
-0.17611,0.66465,-0.7261,0.31002,-0.25562,-0.01367
-0.17198,0.66722,-0.72474,0.20465,-0.23512,-0.16054
-0.16735,0.66844,-0.7247,0.12821,-0.19221,-0.26481
-0.16608,0.66706,-0.72626,0.16788,-0.15992,-0.26796
-0.1701,0.66611,-0.7262,0.21473,-0.12048,-0.23885
-0.17756,0.66921,-0.72155,0.19093,-0.06071,-0.24094
-0.18588,0.67788,-0.71129,0.11713,-0.01095,-0.37687
-0.19055,0.68827,-0.69999,-0.00508,0.10772,-0.4779
-0.19381,0.69153,-0.69587,-0.22872,0.21727,-0.41592
-0.20381,0.6873,-0.6972,-0.61187,0.64212,-0.33985
-0.21753,0.69058,-0.68977,-0.43142,0.43741,-0.19872
-0.23252,0.70364,-0.67144,-0.35351,-0.15025,0.13865
-0.24661,0.72193,-0.64653,-0.28891,-0.32788,0.19005
-0.2505,0.7507,-0.61131,-0.30123,-0.24379,0.65563
-0.23991,0.78962,-0.56475,-0.44581,-0.10589,0.63845
-0.22779,0.82888,-0.51094,-0.58993,0.33811,0.54688
-0.22258,0.86819,-0.44352,-0.55014,0.67161,0.63688
-0.21821,0.9007,-0.37567,-0.33913,0.7406,0.29448
-0.21509,0.9228,-0.31966,-0.04692,0.40608,0.29452
-0.21097,0.93845,-0.27351,0.05997,-0.0994,0.25802
-0.20867,0.95067,-0.22954,0.0524,-0.16728,0.17583
-0.21484,0.95888,-0.18545,0.04454,-0.28656,0.15037
-0.22677,0.96325,-0.14395,0.05639,-0.34217,0.10668
-0.24129,0.96469,-0.1056,0.10404,-0.32004,0.08665
-0.25866,0.96334,-0.07121,0.16305,-0.24482,0.13043
-0.27779,0.95935,-0.04979,0.24708,-0.05986,0.31639
-0.29208,0.95529,-0.04607,0.39387,0.24023,0.14326
-0.29717,0.95339,-0.05236,0.49812,0.24472,-0.03854
-0.29089,0.95492,-0.0592,0.4157,0.15041,-0.09289
-0.2777,0.95875,-0.06057,0.17883,-0.04053,-0.07627
-0.26134,0.96354,-0.05729,-0.14793,-0.26764,-0.042
-0.24687,0.96733,-0.05768,-0.20644,-0.33637,-0.05441
-0.23636,0.9696,-0.06341,-0.10523,-0.4047,-0.03564
-0.22986,0.97044,-0.07354,0.12095,-0.2472,-0.07877
-0.22534,0.97086,-0.08152,0.14567,-0.19232,0.01253
-0.22259,0.97123,-0.08465,0.14016,-0.13514,0.12546
-0.22228,0.97123,-0.08549,-0.01696,0.06434,0.34968
-0.22598,0.97052,-0.08387,-0.11875,0.0795,0.31125
-0.2357,0.96855,-0.07975,-0.05567,0.16423,-0.08134
-0.25004,0.96508,-0.07811,-0.00257,0.45626,-0.15321
-0.26694,0.96119,-0.06974,-0.12994,0.65362,0.15569
-0.28459,0.95726,-0.05147,-0.19961,0.6992,0.14422
-0.30527,0.95181,-0.02938,-0.28526,0.73634,0.04507
-0.32864,0.94446,0.00024,-0.33026,0.72659,0.07349
-0.35141,0.93589,0.02502,-0.31503,0.77198,-0.02241
-0.36975,0.92831,0.03909,-0.22638,0.72965,-0.21133
-0.38439,0.92227,0.04071,-0.14135,0.46445,-0.24083
-0.39677,0.91748,0.02824,-0.11866,0.20564,-0.13229
-0.40642,0.91369,0.00137,-0.06186,0.0397,-0.08024
-0.41121,0.91077,-0.03753,0.16015,-0.0957,-0.19976
-0.40873,0.90909,-0.08062,0.23046,-0.11002,-0.10101
-0.39388,0.91112,-0.12128,0.19517,0.01351,0.09961
-0.37399,0.9147,-0.15317,0.09395,0.13004,0.07057
-0.34574,0.92191,-0.17476,0.0322,0.21142,0.05971
-0.30817,0.93052,-0.1979,-0.11439,0.21084,-0.01586
-0.26735,0.93389,-0.23741,-0.21412,0.04787,0.23119
-0.23232,0.92764,-0.29243,-0.27124,-0.03686,0.28566
-0.20113,0.91373,-0.35305,-0.2003,-0.09952,0.2423
-0.17237,0.89688,-0.40729,-0.11803,-0.19136,0.18439
-0.15282,0.8784,-0.45283,0.00518,-0.20645,0.16967
-0.13644,0.85672,-0.49741,0.04177,-0.21402,0.1182
-0.12061,0.83279,-0.54029,-0.05313,-0.16545,0.06921
-0.10703,0.80857,-0.57858,-0.06672,-0.14216,0.10884
-0.09779,0.78491,-0.61185,-0.15072,-0.23977,0.13999
-0.09512,0.76241,-0.64007,-0.14277,-0.28394,0.30407
-0.09753,0.74251,-0.6627,-0.15011,-0.30121,0.3607
-0.10314,0.72605,-0.67987,-0.11953,-0.3611,0.3627
-0.11197,0.71459,-0.69052,-0.03957,-0.35621,0.3055
-0.12249,0.71032,-0.69314,0.02172,-0.37849,0.28181
-0.13209,0.71305,-0.68856,0.09088,-0.31833,0.16865
-0.14058,0.71944,-0.68018,0.05346,-0.21254,0.07207
-0.14911,0.72637,-0.67093,0.07686,-0.17803,0.08405
-0.15804,0.73514,-0.65923,0.24785,0.031,-0.05709
-0.16623,0.74799,-0.64256,0.36649,0.08563,0.02433
-0.17139,0.76795,-0.61715,0.42257,0.06304,0.14363
-0.17442,0.79239,-0.58455,0.00951,-0.06187,0.25906
-0.17554,0.81518,-0.55196,-0.59987,0.3032,-0.20605
-0.18777,0.81992,-0.5408,-0.9007,0.63532,-0.83227
-0.21212,0.82179,-0.52884,-0.03014,0.49613,0.19305
-0.22927,0.83835,-0.49458,0.16616,0.19377,0.13914
-0.24343,0.85964,-0.44918,0.03912,-0.13511,0.19642
-0.25608,0.87799,-0.40442,-0.20416,-0.35739,0.52333
-0.26846,0.89098,-0.36617,-0.33176,-0.38175,0.47519
-0.28434,0.90228,-0.32411,-0.54154,-0.06266,0.25739
-0.30233,0.91482,-0.26777,-0.36162,0.14174,0.3565
-0.31478,0.92515,-0.21216,-0.03137,0.14545,0.41698
-0.32449,0.9296,-0.17481,0.11445,0.19305,0.30399
-0.33776,0.92887,-0.15206,0.19587,0.21928,0.01607
-0.35105,0.92637,-0.13637,0.19304,0.13516,0.02178
-0.36077,0.92452,-0.12294,0.20917,0.01869,0.05417
-0.36825,0.92318,-0.11015,0.19604,-0.08301,0.06485
-0.37448,0.92206,-0.09779,0.20162,-0.08639,0.04432
-0.37944,0.9211,-0.08714,0.26825,-0.01203,0.07383
-0.38151,0.92081,-0.08096,0.29582,0.07015,0.03015
-0.3778,0.92268,-0.077,0.31602,0.06986,-0.07093
-0.36634,0.92734,-0.07639,0.25454,-0.01463,-0.06087
-0.34918,0.93382,-0.07779,0.15883,-0.11622,-0.0536
-0.33114,0.94002,-0.08192,0.06656,-0.27827,-0.24074
-0.31574,0.94424,-0.09338,0.03844,-0.26793,-0.21425
-0.3014,0.94756,-0.10629,0.06112,-0.2509,0.02345
-0.28687,0.95124,-0.11335,0.01954,-0.30622,0.19565
-0.27501,0.95427,-0.11723,-0.00299,-0.37537,0.2386
-0.26799,0.95605,-0.11896,-0.00297,-0.30827,0.2468
-0.26572,0.9569,-0.11725,0.01446,-0.17951,0.19707
-0.26688,0.95671,-0.1161,-0.04944,0.049,0.07001
-0.27009,0.95572,-0.11685,-0.04569,0.23621,0.11713
-0.27506,0.95454,-0.11487,0.02346,0.1585,0.1052
-0.28249,0.9528,-0.11118,0.04845,0.19193,0.10432
-0.29293,0.95038,-0.10471,-0.00753,0.34616,0.16502
-0.30796,0.94676,-0.09383,-0.09803,0.46649,0.11749
-0.32619,0.94209,-0.07789,-0.13179,0.76384,0.09987
-0.34387,0.93762,-0.05122,-0.14656,0.81032,0.17995
-0.36223,0.9319,-0.01872,-0.25321,0.79762,0.02185
-0.38432,0.92306,0.01578,-0.38605,0.94217,-0.08548
-0.40863,0.91166,0.04348,-0.35524,1.09412,-0.27464
-0.43263,0.89968,0.05835,-0.1894,0.995,-0.41038
-0.45242,0.89,0.05674,-0.07522,0.64177,-0.47048
-0.46637,0.88386,0.03592,0.07375,0.11155,-0.38204
-0.47287,0.88113,0.00063,0.12798,0.01891,-0.41741
-0.47154,0.88081,-0.04272,0.40792,-0.00306,-0.24678
-0.4579,0.8844,-0.0903,0.47786,0.06066,0.11142
-0.43456,0.89043,-0.13524,0.28252,0.098,0.18734
-0.40582,0.89585,-0.18101,-0.06819,0.08354,-0.15822
-0.37883,0.89783,-0.22449,-0.27147,0.05733,0.12302
-0.35442,0.89398,-0.27419,-0.29588,0.06117,0.17272
-0.32588,0.88168,-0.34124,-0.52019,0.00934,0.36141
-0.29365,0.85821,-0.42101,-0.24648,0.13425,0.30152
-0.25823,0.83024,-0.49399,-0.09974,0.0882,0.45511
-0.21424,0.8081,-0.5487,-0.11851,0.05138,0.41859
-0.17441,0.78353,-0.59637,-0.09125,-0.26984,0.16598
-0.14619,0.74584,-0.64989,0.01597,-0.24642,0.12583
-0.12624,0.69771,-0.70517,0.04909,-0.17659,0.20077
-0.11082,0.639,-0.76118,-0.03095,-0.08016,0.53006
-0.10234,0.57541,-0.81144,-0.09639,-0.13411,0.74329
-0.09766,0.51578,-0.85114,-0.11195,-0.22401,0.79062
-0.0966,0.45967,-0.88282,-0.14103,-0.51617,0.66735
-0.09973,0.40669,-0.90811,-0.14782,-0.45199,0.6018
-0.1061,0.36134,-0.92638,-0.1459,-0.39404,0.52562
-0.11551,0.3284,-0.93745,0.10918,-0.30722,0.39236
-0.12287,0.31247,-0.94195,0.25811,-0.20758,0.19001
-0.12763,0.31223,-0.9414,0.26205,-0.13979,0.10442
-0.13401,0.31989,-0.93793,0.16323,-0.1059,0.03047
-0.14384,0.33195,-0.93226,0.16978,-0.15011,0.01846
-0.15527,0.35119,-0.92334,0.23269,-0.16349,-0.04091
-0.16478,0.37815,-0.91096,0.27261,-0.06528,-0.15482
-0.16995,0.41236,-0.89503,0.22744,0.15126,-0.24058
-0.17042,0.4453,-0.87901,0.02832,0.57021,-0.89751
-0.16979,0.45718,-0.87302,-0.37403,1.20037,-1.31486
-0.18195,0.45933,-0.86943,-0.072,0.59809,-0.51399
-0.20534,0.4876,-0.84858,-0.28671,-0.38968,0.24358
-0.23497,0.52644,-0.8171,-0.56934,-0.64475,0.03362
-0.24922,0.57299,-0.78075,0.01656,-0.17893,0.53416
-0.24247,0.63078,-0.73711,-0.13193,0.12014,0.28976
-0.23154,0.68124,-0.69449,-0.29834,0.52902,0.18391
-0.22446,0.72772,-0.64811,-0.37431,0.27486,0.15112
-0.21902,0.77152,-0.59732,-0.29272,0.12318,0.12979
-0.21478,0.81292,-0.54133,-0.12549,-0.0682,0.14536
-0.21352,0.84859,-0.48405,0.00452,-0.13521,0.11245
-0.21673,0.87677,-0.42931,0.07116,-0.13745,0.12884
-0.22213,0.90029,-0.37434,-0.05091,0.08846,0.14491
-0.23239,0.91806,-0.32117,-0.07387,0.11393,0.08699
-0.24175,0.93127,-0.27258,-0.12669,0.13203,0.08304
-0.24988,0.94159,-0.22576,-0.06218,0.02655,0.08213
-0.25936,0.94916,-0.17839,-0.01859,-0.02771,0.06929
-0.27007,0.95391,-0.13086,0.04717,-0.12546,0.18571
-0.28218,0.95562,-0.08459,0.03119,-0.13714,0.24621
-0.29583,0.95428,-0.04281,0.0286,-0.1212,0.21482
-0.30874,0.95098,-0.01798,0.03955,-0.0295,0.25917
-0.31793,0.94799,-0.0152,0.18415,0.08782,-0.06073
-0.32328,0.94609,-0.01994,0.25765,0.0775,-0.08199
-0.3231,0.94609,-0.02295,0.31625,-0.08252,-0.04744
-0.31705,0.94821,-0.01929,0.19936,-0.15289,0.04
-0.30829,0.95125,-0.0095,0.13414,-0.19949,0.06195
-0.29887,0.95429,-0.00152,-0.0918,-0.25964,0.09411
-0.28901,0.95732,0.00183,-0.10005,-0.29395,-0.064
-0.28239,0.9593,-0.00024,-0.0521,-0.33233,-0.14069
-0.27913,0.96024,-0.0061,0.14912,-0.22983,-0.11264
-0.27606,0.96107,-0.01146,0.15779,-0.1736,-0.02044
-0.27126,0.96236,-0.01689,0.17487,-0.21988,0.10853
-0.26606,0.96371,-0.02187,0.15517,-0.25898,0.10207
-0.26153,0.96484,-0.02612,0.07814,-0.20335,-0.05768
-0.25767,0.96578,-0.02963,0.07758,-0.07303,-0.06413
-0.25489,0.96646,-0.03143,0.05115,-0.05386,-0.02051
-0.25377,0.96677,-0.03105,0.01109,-0.06619,0.00058
-0.25501,0.96655,-0.02747,0.04696,-0.07365,0.02742
-0.25886,0.96574,-0.01844,0.02656,-0.0449,0.07852
-0.26441,0.96439,-0.00652,-0.03008,-0.00873,0.06892
-0.27138,0.96246,0.00539,-0.11718,0.12191,0.09039
-0.27922,0.9601,0.01559,-0.15512,0.37141,0.09233
-0.28784,0.95742,0.02229,-0.03078,0.46047,0.04284
-0.29604,0.95476,0.02818,-0.07337,0.47259,0.13399
-0.30693,0.95111,0.03425,-0.19092,0.54171,-0.00396
-0.32567,0.94442,0.04488,-0.25741,0.77545,0.05006
-0.35093,0.93432,0.06233,-0.32802,1.08408,0.12729
-0.37602,0.92311,0.08048,-0.26636,1.1693,0.03608
-0.39685,0.9125,0.09931,-0.13008,0.94921,-0.0883
-0.41638,0.90163,0.11705,-0.12609,0.65275,-0.14799
-0.43395,0.8916,0.12939,-0.19976,0.42269,-0.16023
-0.45124,0.88227,0.13413,-0.222,0.16989,-0.27424
-0.46723,0.87477,0.12835,-0.06132,0.0804,-0.30518
-0.47798,0.87091,0.11426,-0.02979,0.05854,-0.29824
-0.48031,0.87182,0.09609,0.08376,-0.01984,-0.28202
-0.47532,0.87683,0.0724,0.25416,-0.2106,-0.17977
-0.46385,0.8848,0.04439,0.3629,-0.34501,0.03878
-0.44735,0.89414,0.01988,0.32807,-0.35109,0.10273
-0.42754,0.90399,-0.00406,0.16754,-0.34579,0.03337
-0.40746,0.91281,-0.02742,-0.02669,-0.26423,-0.10367
-0.39021,0.91892,-0.05766,-0.32126,-0.34899,-0.17856
-0.375,0.92242,-0.09231,-0.34721,-0.34028,-0.00386
-0.36385,0.92293,-0.12577,-0.32579,-0.35135,0.15492
-0.35729,0.91945,-0.16419,-0.36377,-0.38404,0.25086
-0.35387,0.9115,-0.2096,-0.41082,-0.35856,0.27421
-0.352,0.89996,-0.25722,-0.27466,-0.20937,0.10846
-0.34818,0.88683,-0.30382,-0.16462,-0.09673,0.02388
-0.34075,0.87399,-0.34645,-0.07269,-0.02145,0.11169
-0.33149,0.86228,-0.38286,-0.10572,-0.06803,0.17531
-0.32413,0.85136,-0.41245,-0.07324,-0.16429,0.18574
-0.31843,0.84156,-0.43633,0.00458,-0.22806,0.17744
-0.31379,0.8334,-0.45495,0.00926,-0.26821,0.19517
-0.31143,0.82698,-0.46811,0.0083,-0.29705,0.30087
-0.30984,0.82204,-0.47776,-0.01156,-0.30666,0.28942
-0.30983,0.81961,-0.48192,0.00164,-0.33492,0.27776
-0.31278,0.82016,-0.47906,0.05515,-0.38693,0.24652
-0.31991,0.82345,-0.4686,0.10663,-0.43209,0.21189
-0.33109,0.82861,-0.45143,0.12883,-0.41561,0.14459
-0.34486,0.83537,-0.42806,0.15591,-0.35468,0.04043
-0.35882,0.84378,-0.39911,0.17271,-0.2238,-0.08476
-0.36977,0.85374,-0.3666,0.2269,0.00229,-0.2088
-0.37636,0.86337,-0.33607,0.29836,0.26753,-0.32967
-0.37872,0.87001,-0.31567,0.21301,0.4001,-0.49646
-0.37707,0.87504,-0.30351,-0.00764,0.31703,-0.5966
-0.3713,0.88027,-0.2954,-0.10162,0.11974,-0.42288
-0.36183,0.88398,-0.29608,-0.15233,0.05413,-0.20794
-0.34837,0.88534,-0.3079,-0.32759,0.25858,-0.33414
-0.3346,0.88361,-0.32752,-0.7244,0.55515,-0.5798
-0.3319,0.87843,-0.34381,-0.70329,0.34023,-0.29524
-0.33263,0.87527,-0.35109,-0.20239,-0.34435,0.38086
-0.32563,0.88495,-0.33291,-0.03751,-0.62015,0.63408
-0.31785,0.89707,-0.30698,-0.40413,-0.56505,0.18247
-0.32083,0.90427,-0.28171,-0.64916,-0.29445,0.20984
-0.32482,0.91368,-0.24429,-0.65359,-0.14633,0.43998
-0.32814,0.92264,-0.20262,-0.56396,-0.12265,0.42097
-0.33128,0.92805,-0.1702,-0.35568,-0.03035,0.08304
-0.33486,0.93249,-0.13539,-0.07984,0.17972,0.06043
-0.33593,0.9377,-0.08868,-0.02354,0.19186,0.29573
-0.3338,0.94177,-0.04068,0.00345,0.16302,0.28751
-0.33003,0.94396,0.0044,-0.01918,0.0077,0.15196
-0.32602,0.94412,0.04852,0.01009,-0.12953,0.07272
-0.32547,0.94169,0.08535,-0.04282,-0.14381,0.02742
-0.32833,0.93775,0.11327,-0.14267,-0.13199,0.03027
-0.33147,0.93372,0.13527,-0.12215,-0.12429,0.05484
-0.33297,0.93035,0.15356,0.05363,-0.04322,-0.02446
-0.33432,0.92665,0.17187,0.25803,0.05316,-0.00674
-0.34079,0.92086,0.18941,0.2911,0.07532,-0.04102
-0.34811,0.91455,0.20596,0.24083,0.04678,-0.11402
-0.35638,0.90814,0.21971,0.23808,0.03694,-0.11614
-0.36436,0.90205,0.23142,0.15416,-0.01702,-0.11234
-0.37294,0.89569,0.24222,0.28703,0.04317,-0.17518
-0.38327,0.8886,0.25199,0.23584,0.08369,-0.28317
-0.39143,0.88227,0.26148,0.23711,0.10183,-0.3075
-0.3972,0.87744,0.26895,0.32989,0.08399,-0.30562
-0.39994,0.87493,0.27301,0.38191,0.04798,-0.22017
-0.39921,0.8752,0.27322,0.4047,0.0504,-0.17489
-0.39438,0.87831,0.27025,0.27411,0.12338,-0.0434
-0.38272,0.8855,0.26345,-0.05014,0.32949,0.0535
-0.36104,0.89868,0.24906,-0.35446,0.53226,-0.04132
-0.33084,0.91609,0.22656,-0.34232,0.43053,-0.68618
-0.29956,0.93721,0.17858,-0.43284,0.38983,-0.35174
-0.27424,0.95568,0.10707,-0.73314,0.6236,-0.50815
-0.25861,0.96574,0.02163,-0.89501,0.64759,-0.51957
-0.24661,0.96673,-0.06788,-1.00124,0.17734,0.01594
-0.23379,0.96032,-0.1521,-0.55444,-0.04258,0.41397
-0.22976,0.9444,-0.23518,-0.34418,0.06954,0.3873
-0.21776,0.92366,-0.31533,0.0061,0.46738,-0.29079
-0.18951,0.90685,-0.37645,0.0581,0.35617,-0.2284
-0.15522,0.89139,-0.42583,0.08954,0.13543,0.11723
-0.1345,0.86931,-0.47561,0.03034,-0.06047,0.34996
-0.12632,0.83874,-0.52969,-0.02955,-0.27109,0.43279
-0.12726,0.8037,-0.58127,0.0004,-0.33687,0.44914
-0.13723,0.77307,-0.61929,0.05537,-0.54628,0.41925
-0.15,0.75027,-0.64389,0.01073,-0.79539,0.19078
-0.16418,0.73357,-0.65948,0.01892,-0.60358,-0.00845
-0.1737,0.72248,-0.66921,0.10746,-0.30012,0.00878
-0.17802,0.71789,-0.67301,0.15122,-0.07855,0.01548
-0.18118,0.71715,-0.67296,0.16838,-0.0282,-0.00017
-0.18264,0.71667,-0.67307,0.18732,-0.22812,0.08552
-0.18127,0.71457,-0.67567,0.14613,-0.37343,-0.04085
-0.17789,0.71021,-0.68115,0.11298,-0.40245,-0.14104
-0.17276,0.70481,-0.68803,0.08939,-0.393,-0.20175
-0.16814,0.69999,-0.69408,0.09495,-0.32314,-0.22232
-0.16437,0.69767,-0.69731,0.06659,-0.21247,-0.27465
-0.16426,0.69845,-0.69656,0.09392,-0.09437,-0.33044
-0.17082,0.70124,-0.69216,0.13833,-0.0297,-0.29778
-0.18597,0.70337,-0.68606,0.05957,-0.02084,-0.31259
-0.20501,0.70331,-0.68068,0.00456,0.02966,-0.38216
-0.22023,0.70135,-0.67794,-0.134,0.3194,-0.57494
-0.22601,0.69808,-0.67941,-0.54148,0.7183,-0.77412
-0.23572,0.69751,-0.67669,-0.31959,0.08571,-0.4858
-0.24552,0.70535,-0.66499,-0.14636,-0.31735,0.07
-0.25782,0.73063,-0.63223,-0.70373,-0.829,0.02133
-0.27762,0.74775,-0.60316,-0.4077,-0.19246,0.2789
-0.27609,0.77616,-0.56687,-0.307,0.16614,0.78045
-0.26545,0.82037,-0.50648,-0.48287,0.30325,0.56324
-0.2603,0.85889,-0.44108,-0.50193,0.40816,0.37587
-0.25442,0.88937,-0.37986,-0.31073,0.38221,0.24332
-0.24918,0.913,-0.32303,-0.05915,0.2867,0.04775
-0.25168,0.93054,-0.26601,0.11458,0.11155,0.15482
-0.25773,0.94387,-0.2066,0.15527,0.02136,0.15123
-0.26595,0.95228,-0.14977,0.13668,-0.15069,0.18074
-0.27285,0.95698,-0.09867,0.04571,-0.23813,0.10993
-0.2806,0.95841,-0.05208,0.02997,-0.27477,0.03302
-0.29131,0.95655,-0.01248,0.04081,-0.32138,-0.01955
-0.30295,0.95276,0.02172,0.05162,-0.23175,0.05805
-0.31632,0.94727,0.05121,0.1075,-0.12957,0.1927
-0.32818,0.94232,0.06577,0.14705,-0.05985,0.21098
-0.33243,0.94063,0.06858,0.33298,0.28897,-0.08004
-0.32739,0.94253,0.06678,0.35697,0.28986,-0.15754
-0.31506,0.94688,0.06448,0.24434,0.11152,-0.16138
-0.29924,0.95206,0.06354,0.11451,-0.05785,-0.0552
-0.28361,0.95702,0.06057,0.03724,-0.19878,-0.15896
-0.26965,0.96173,0.04855,0.00342,-0.23613,-0.29354
-0.25763,0.96564,0.03405,0.03126,-0.23936,-0.13232
-0.24614,0.96891,0.02484,0.02559,-0.29519,0.00604
-0.23679,0.97137,0.01907,0.0279,-0.28953,-0.01682
-0.23188,0.97263,0.01504,0.0512,-0.19651,0.01595
-0.23063,0.97288,0.01762,0.12874,-0.08445,0.09877
-0.23224,0.97241,0.02207,0.05789,0.07993,-0.08535
-0.23576,0.97142,0.02774,-0.02081,0.2005,-0.12392
-0.2418,0.96972,0.03417,-0.10262,0.13222,0.12292
-0.25222,0.96664,0.04454,-0.16291,0.13866,0.10276
-0.2685,0.96178,0.05372,-0.19705,0.18582,0.02067
-0.28976,0.95491,0.06467,-0.164,0.48901,-0.06644
-0.31395,0.94605,0.08022,-0.16878,0.63744,0.11607
-0.33877,0.93563,0.09915,-0.19146,0.68307,0.12212
-0.36343,0.92363,0.12172,-0.17299,0.82221,-0.02641
-0.3864,0.91062,0.14655,-0.1599,0.89822,-0.02603
-0.40502,0.89877,0.16782,-0.14043,0.88655,-0.10853
-0.42251,0.88842,0.17942,-0.14115,0.6688,-0.37996
-0.44139,0.8791,0.17986,-0.14573,0.43056,-0.40543
-0.45963,0.87268,0.16483,-0.03827,0.25889,-0.34627
-0.47409,0.86958,0.13806,0.04923,0.13431,-0.28435
-0.48297,0.86981,0.10084,0.17962,0.09366,-0.33379
-0.48404,0.87306,0.05888,0.29016,0.10824,-0.13883
-0.47651,0.87891,0.02137,0.25825,0.06665,0.00907
-0.46185,0.88686,-0.01349,0.42509,-0.02107,0.22072
-0.43722,0.89803,-0.04874,0.10516,0.30148,-0.3168
-0.4047,0.91031,-0.08688,0.04819,0.30146,-0.32245
-0.365,0.91976,-0.14431,-0.04418,0.16774,-0.03289
-0.32564,0.92091,-0.21418,-0.12655,0.00211,0.31951
-0.29387,0.91602,-0.27304,-0.14421,-0.03122,0.37431
-0.25504,0.90252,-0.34699,-0.14498,-0.1244,0.31707
-0.22536,0.88329,-0.41111,-0.05685,-0.22374,0.15467
-0.20353,0.85659,-0.47416,-0.01517,-0.26064,0.18318
-0.18835,0.82079,-0.53929,-0.00955,-0.24202,0.08688
-0.17784,0.77814,-0.60239,0.01155,-0.1153,0.20894
-0.1696,0.73159,-0.66031,-0.11429,-0.14475,0.35059
-0.15951,0.68319,-0.7126,-0.16748,-0.17802,0.46614
-0.14846,0.63377,-0.75914,-0.12462,-0.27578,0.49846
-0.13644,0.58896,-0.79656,-0.08083,-0.25758,0.49964
-0.12389,0.55025,-0.82576,0.00391,-0.29092,0.37311
-0.11338,0.51247,-0.85119,-0.10775,-0.26914,0.25812
-0.10631,0.47432,-0.87391,-0.12096,-0.26925,0.27807
-0.10393,0.43989,-0.89202,0.0685,-0.29521,0.26981
-0.1042,0.41797,-0.90247,0.16267,-0.30388,0.13489
-0.10801,0.41052,-0.90543,0.22396,-0.27616,-0.09024
-0.11545,0.41129,-0.90416,0.20969,-0.25502,-0.10022
-0.12635,0.41653,-0.9003,0.20031,-0.26358,-0.06592
-0.14028,0.42718,-0.89322,0.21499,-0.18954,-0.08325
-0.15563,0.44417,-0.88232,0.23226,0.00023,-0.17285
-0.16687,0.46969,-0.86692,0.29805,0.0539,-0.49249
-0.16715,0.49563,-0.8523,-0.03215,0.28041,-0.96171
-0.17714,0.51269,-0.8401,-0.25133,0.41573,-0.67856
-0.19617,0.54526,-0.81499,-0.29955,-0.07628,0.13658
-0.22224,0.57487,-0.78748,-0.30715,-0.15641,-0.17057
-0.23884,0.61046,-0.75518,0.01512,0.02626,0.24511
-0.24592,0.65049,-0.7186,-0.33969,0.21,0.02106
-0.25112,0.68727,-0.68162,-0.41595,0.20894,0.11547
-0.2509,0.72829,-0.63769,-0.29813,0.00755,0.03135
-0.24759,0.77213,-0.58525,-0.16443,-0.09337,0.02771
-0.2468,0.81432,-0.52534,-0.09573,-0.10522,0.04442
-0.25078,0.85051,-0.46231,-0.0613,-0.08495,0.06815
-0.25836,0.87843,-0.40202,-0.04187,-0.01638,0.09033
-0.27168,0.91116,-0.30981,-0.00844,0.07117,0.11314
-0.28245,0.92169,-0.26592,-0.06607,0.03756,0.07032
-0.28838,0.93065,-0.22521,-0.12967,-0.03031,0.04476
-0.29176,0.93838,-0.18528,-0.09634,-0.18909,-0.02525
-0.2957,0.94383,-0.14748,0.0218,-0.25114,-0.01189
-0.30249,0.94662,-0.11138,0.10993,-0.27093,0.00253
-0.31418,0.9463,-0.07623,0.16278,-0.22772,-0.01041
-0.3296,0.943,-0.04586,0.27798,-0.15481,0.08131
-0.34633,0.93768,-0.02861,0.37901,-0.03567,0.13168
-0.35926,0.93291,-0.02482,0.44404,0.03575,0.03596
-0.36581,0.93027,-0.02787,0.38461,0.07164,-0.14286
-0.36717,0.92967,-0.02986,0.30955,0.03175,-0.15496
-0.36584,0.93023,-0.0288,0.28975,-0.01336,-0.0942
-0.36107,0.93215,-0.0267,0.11159,-0.04775,-0.02023
-0.35255,0.9356,-0.01908,-0.0417,-0.0812,0.12082
-0.34895,0.9371,-0.00828,-0.04537,-0.1113,0.09686
-0.35498,0.93487,0.00343,-0.07543,-0.15374,-0.09778
-0.3675,0.92985,0.01829,0.00118,0.33084,-0.14819
-0.38377,0.92227,0.04626,0.01746,0.33841,-0.17616
-0.40129,0.91287,0.07509,-0.04937,0.60134,-0.23601
-0.41752,0.90212,0.10894,-0.10531,0.72554,-0.27733
-0.43499,0.88867,0.1451,-0.15263,0.66212,-0.35129
-0.45554,0.87171,0.18056,-0.27147,0.47485,-0.28156
-0.47689,0.85363,0.20951,-0.32782,0.5241,-0.40247
-0.4953,0.83938,0.22386,-0.24591,0.58333,-0.41805
-0.51249,0.8294,0.22236,0.03002,0.46918,-0.41058
-0.52802,0.82377,0.20637,0.08854,0.25467,-0.3334
-0.53816,0.82381,0.17811,0.13343,0.15017,-0.2983
-0.54196,0.82893,0.13838,0.27937,0.03134,-0.2885
-0.53719,0.83837,0.09249,0.35569,0.07424,-0.06903
-0.5239,0.8505,0.04671,0.27196,0.11901,0.11038
-0.50563,0.86273,0.00585,0.1277,0.0714,0.11494
-0.47945,0.87688,-0.03477,0.02528,0.1965,-0.08031
-0.44654,0.89117,-0.08012,-0.14867,0.20701,-0.171
-0.40816,0.90311,-0.13338,-0.28622,0.19505,0.03096
-0.36909,0.90812,-0.19769,-0.17231,0.16486,0.19537
-0.32665,0.90628,-0.26826,-0.09449,0.05575,0.26676
-0.28648,0.89674,-0.33732,-0.06132,-0.02581,0.14972
-0.25439,0.88167,-0.39743,0.01376,-0.23389,0.13533
-0.22218,0.86158,-0.45642,-0.00634,-0.22495,-0.00445
-0.19156,0.83467,-0.51636,-0.01909,-0.12619,0.02706
-0.16638,0.80145,-0.57445,-0.02568,-0.01364,0.15032
-0.15065,0.75913,-0.63327,-0.0588,-0.11011,0.31721
-0.14326,0.70771,-0.69183,-0.05558,-0.17701,0.43005
-0.13866,0.65319,-0.74439,-0.05348,-0.30434,0.51874
-0.13515,0.59889,-0.78934,-0.0876,-0.42836,0.42884
-0.13305,0.5486,-0.82543,-0.1357,-0.44358,0.40596
-0.13232,0.50508,-0.85287,-0.13847,-0.39364,0.33334
-0.13392,0.46917,-0.87289,0.0348,-0.35711,0.25854
-0.13607,0.44361,-0.88583,0.13002,-0.25642,0.17694
-0.13994,0.42728,-0.89323,0.19912,-0.2995,0.16573
-0.14496,0.41954,-0.89609,0.3252,-0.35134,0.12427
-0.1486,0.42165,-0.8945,0.36412,-0.33199,0.08977
-0.15223,0.43306,-0.88842,0.30589,-0.24229,-0.08491
-0.15941,0.44863,-0.87939,0.26159,-0.15754,-0.22817
-0.17124,0.46659,-0.86774,0.30973,-0.08425,-0.31693
-0.18442,0.48894,-0.8526,0.38612,0.00303,-0.34386
-0.19202,0.51939,-0.83268,0.50254,0.03399,-0.45961
-0.19543,0.54661,-0.81427,-0.33202,0.57688,-0.89098
-0.21053,0.55707,-0.80334,-0.40818,0.4191,-0.64692
-0.23653,0.5704,-0.78657,-0.29683,0.05379,-0.22783
-0.27032,0.592,-0.75925,-0.14719,-0.35524,-0.09185
-0.29173,0.62341,-0.72543,0.01851,-0.07213,0.27031
-0.30248,0.66781,-0.6801,-0.10516,-0.05529,0.24935
-0.30898,0.70686,-0.6363,-0.31593,0.10208,0.10261
-0.31149,0.74364,-0.59159,-0.31985,0.08292,0.10199
-0.31094,0.78227,-0.53979,-0.27581,0.01239,0.06527
-0.3099,0.82027,-0.48074,-0.11445,-0.06892,0.04821
-0.31043,0.85386,-0.41781,-0.0464,-0.11454,0.0554
-0.31239,0.88024,-0.35719,-0.02349,-0.13606,-0.00102
-0.31681,0.89827,-0.30454,0.06258,-0.1144,0.07299
-0.32225,0.90998,-0.26093,0.05333,-0.07472,0.03513
-0.32882,0.91784,-0.22238,0.04061,-0.0314,0.00222
-0.33517,0.92376,-0.18526,0.00216,-0.0471,-0.01343
-0.34027,0.92841,-0.14923,0.01911,-0.09334,-0.04419
-0.34772,0.93094,-0.11158,0.0774,-0.12024,-0.04666
-0.35946,0.93016,-0.07475,0.24859,-0.13269,-0.02564
-0.37441,0.92626,-0.04306,0.21222,-0.07119,0.05197
-0.38846,0.92124,-0.02024,0.20767,-0.06341,0.13931
-0.39982,0.91657,-0.00682,0.2185,0.00999,-0.01488
-0.40706,0.9134,-0.00088,0.29386,0.05643,-0.14187
-0.40949,0.91231,0.00443,0.35933,0.02374,-0.17967
-0.4071,0.91331,0.01197,0.31397,-0.03023,-0.18625
-0.40028,0.91623,0.01725,0.20209,-0.12682,-0.15565
-0.39054,0.92034,0.02138,0.11744,-0.20165,-0.12058
-0.37974,0.92473,0.02587,0.045,-0.2603,-0.17441
-0.36978,0.92874,0.02657,0.05333,-0.33098,-0.15225
-0.36297,0.93148,0.02464,0.09652,-0.37096,-0.14699
-0.36087,0.93236,0.02203,0.12982,-0.31116,-0.08772
-0.36201,0.932,0.01787,0.09803,-0.22294,-0.06137
-0.36447,0.93109,0.01557,0.06442,0.03416,0.01107
-0.3679,0.92972,0.01652,0.10339,0.06256,0.07655
-0.37329,0.92751,0.01931,0.03752,0.13863,-0.07786
-0.38245,0.92364,0.025,-0.08161,0.36925,-0.13067
-0.39483,0.91814,0.03356,-0.14258,0.46573,-0.10105
-0.40873,0.91148,0.04629,-0.12323,0.55456,-0.13592
-0.42422,0.90333,0.06348,-0.13805,0.69205,-0.12747
-0.44167,0.89293,0.08718,-0.13498,0.7756,-0.16518
-0.46285,0.8786,0.11761,-0.25035,0.89249,-0.12316
-0.48502,0.86154,0.15,-0.35362,0.92682,-0.10555
-0.50484,0.84502,0.17628,-0.3285,0.89022,-0.28451
-0.52466,0.82929,0.19239,-0.17723,0.67163,-0.54722
-0.54263,0.81694,0.19534,-0.08698,0.41017,-0.58679
-0.55776,0.8086,0.18727,-0.01636,0.18596,-0.46173
-0.56799,0.80558,0.16863,0.13412,-0.00708,-0.45432
-0.57013,0.81031,0.13548,0.20316,-0.02761,-0.46185
-0.56263,0.82164,0.09145,0.34681,0.0284,-0.30159
-0.54528,0.83692,0.04727,0.326,0.10751,0.09673
-0.5192,0.85463,0.00647,0.21088,0.11038,0.10703
-0.48619,0.87326,-0.03208,-0.04018,0.106,-0.09541
-0.45339,0.88802,-0.07651,-0.43029,-0.05277,-0.13893
-0.42279,0.89589,-0.13651,-0.58055,-0.16304,-0.05847
-0.39254,0.89552,-0.20963,-0.16195,-0.01949,0.13395
-0.3567,0.88677,-0.29394,0.17463,0.15331,0.19249
-0.31249,0.87574,-0.36801,0.16301,0.18409,0.2433
-0.27373,0.85845,-0.43375,-0.04985,-0.11363,0.15598
-0.24845,0.82402,-0.50918,-0.1593,-0.3475,0.15616
-0.22956,0.77959,-0.58271,-0.09869,-0.31897,0.12548
-0.21412,0.73089,-0.64803,0.01765,-0.20285,0.1699
-0.20135,0.67642,-0.70846,0.08232,-0.1084,0.21113
-0.1932,0.61818,-0.76192,-0.10292,-0.13822,0.36594
-0.1922,0.55716,-0.80785,-0.1199,-0.32401,0.58776
-0.19427,0.49926,-0.84439,0.05658,-0.45404,0.57022
-0.19558,0.45385,-0.86935,0.16517,-0.46534,0.40865
-0.19892,0.42062,-0.88516,0.15136,-0.47272,0.22212
-0.20537,0.39364,-0.89603,0.0989,-0.36819,0.21996
-0.21496,0.37414,-0.90211,0.38366,-0.32206,0.19635
-0.22469,0.3684,-0.9021,0.45049,-0.33946,0.1027
-0.23505,0.3768,-0.89598,0.41349,-0.30444,-0.12474
-0.24673,0.39013,-0.88709,0.28786,-0.26093,-0.20273
-0.26125,0.40201,-0.87758,0.23004,-0.17695,-0.18112
-0.27741,0.41403,-0.86696,0.30982,-0.14465,-0.23327
-0.29148,0.43153,-0.85371,0.46954,0.01824,-0.29639
-0.30127,0.45711,-0.83683,0.41632,0.00978,-0.23611
-0.31488,0.48716,-0.81457,0.09412,-0.15783,-0.28788
-0.32034,0.50295,-0.80276,-0.616,0.44116,-1.2632
-0.32976,0.50897,-0.79512,-0.33508,0.46801,-0.83266
-0.34476,0.54029,-0.76761,0.00487,0.32418,-0.07545
-0.3628,0.57729,-0.73151,-0.32287,-0.5929,0.15444
-0.36881,0.61819,-0.69413,0.02743,-0.38079,0.48707
-0.36356,0.66426,-0.65314,-0.03259,-0.17088,0.22963
-0.35248,0.70738,-0.61268,-0.25827,0.0806,0.01793
-0.34141,0.75117,-0.56497,-0.3799,0.15978,0.02063
-0.33482,0.79357,-0.50807,-0.37415,0.11858,-0.02361
-0.332,0.82961,-0.44891,-0.20318,-0.06179,-0.01436
-0.33155,0.85764,-0.3931,-0.11915,-0.1437,0.03749
-0.33274,0.87854,-0.3427,-0.05982,-0.12668,0.10204
-0.33824,0.89233,-0.29892,-0.03951,-0.10102,0.08495
-0.34552,0.90102,-0.26228,0.02846,-0.05241,0.06803
-0.35254,0.907,-0.23038,0.03424,0.03359,-0.04417
-0.35867,0.91204,-0.19884,0.08086,0.09429,-0.14236
-0.36069,0.91813,-0.16413,0.15743,0.04729,-0.08277
-0.35909,0.92475,-0.12603,0.20028,-0.03896,-0.03628
-0.35943,0.92922,-0.08586,0.19579,-0.07652,-0.00467
-0.36277,0.93067,-0.04744,0.18891,-0.18085,-0.07266
-0.37204,0.92798,-0.02103,0.11811,-0.22644,0.04227
-0.38502,0.92289,-0.00656,0.05352,-0.25232,-0.06051
-0.3976,0.91755,0.00395,0.11702,-0.16901,-0.08967
-0.41092,0.91155,0.01444,0.16803,0.06852,-0.13569
-0.42392,0.90532,0.02611,0.18001,0.13734,-0.09998
-0.43308,0.90071,0.03401,0.17771,0.16585,-0.09269
-0.43747,0.89835,0.03993,0.14655,0.13063,-0.18408
-0.43996,0.89656,0.05111,0.17316,0.00793,-0.15382
-0.44403,0.89351,0.0669,0.14075,-0.02792,-0.1284
-0.45086,0.88871,0.08313,0.06598,-0.09857,-0.00139
-0.45931,0.88336,0.09337,0.01854,-0.07298,0.00733
-0.47124,0.87613,0.10167,0.07118,-0.03036,-0.11722
-0.4866,0.86649,0.11143,0.23037,0.16993,-0.16761
-0.50117,0.85656,0.123,0.30923,0.25538,-0.15195
-0.51432,0.84695,0.13472,0.32467,0.20562,-0.29231
-0.52802,0.8361,0.14878,0.24165,0.28399,-0.37682
-0.54387,0.82231,0.16737,0.0646,0.28225,-0.01533
-0.5611,0.80616,0.18782,-0.24937,0.53437,0.04448
-0.57325,0.79207,0.20979,-0.42212,0.73188,-0.09559
-0.57864,0.78333,0.22709,-0.24614,0.61682,-0.34612
-0.58489,0.77568,0.23712,-0.03232,0.36449,-0.59489
-0.59635,0.76573,0.24088,0.12392,0.23961,-0.34933
-0.60928,0.7569,0.23639,0.15752,0.19015,-0.07958
-0.61759,0.75287,0.22753,0.07082,0.06769,-0.04678
-0.62126,0.75374,0.21427,0.02987,-0.03727,-0.20645
-0.62104,0.7587,0.19666,0.10461,-0.11227,-0.21755
-0.61667,0.76759,0.17474,0.11235,-0.14535,-0.08582
-0.60743,0.77996,0.15065,0.05335,-0.09911,0.01549
-0.59649,0.79293,0.12433,-0.1438,-0.1135,-0.06627
-0.58507,0.8057,0.09237,-0.19352,-0.16062,-0.13179
-0.57107,0.81953,0.04746,-0.19787,-0.22325,-0.13415
-0.55582,0.83129,-0.00516,-0.29177,-0.20813,-0.26654
-0.54239,0.83828,-0.05567,-0.28131,-0.23585,-0.13823
-0.53196,0.83968,-0.10936,-0.26662,-0.28816,-0.02524
-0.52651,0.83422,-0.16389,-0.19096,-0.30621,0.15212
-0.52604,0.82247,-0.21638,-0.11436,-0.27883,0.1332
-0.52735,0.80824,-0.26202,-0.08004,-0.19953,0.13902
-0.52668,0.79587,-0.29866,0.11024,0.07569,-0.002
-0.52124,0.78608,-0.33224,0.16994,0.21497,0.01472
-0.50941,0.78073,-0.36189,0.22129,0.21015,0.13629
-0.49232,0.77999,-0.38633,0.19533,0.11537,0.19684
-0.47646,0.7809,-0.40395,0.09382,-0.21419,0.18298
-0.46463,0.78058,-0.41811,0.05335,-0.27276,0.16608
-0.45689,0.77819,-0.4309,0.01684,-0.26795,0.15264
-0.45296,0.77555,-0.43972,0.00773,-0.28638,0.17986
-0.4531,0.77459,-0.44126,0.08414,-0.33283,0.09939
-0.45546,0.77635,-0.4357,0.12216,-0.29197,0.01702
-0.458,0.78035,-0.42578,0.24704,-0.06346,-0.05868
-0.4603,0.78573,-0.41322,0.31534,0.04711,-0.05637
-0.46215,0.79259,-0.39776,0.33824,0.06619,-0.07328
-0.46436,0.8001,-0.37976,0.3279,0.01256,-0.07889
-0.46874,0.80692,-0.35938,0.31063,-0.04183,-0.08431
-0.47479,0.81358,-0.33565,0.30355,-0.07486,-0.09579
-0.4812,0.8208,-0.30779,0.26027,-0.0479,-0.24558
-0.48775,0.82781,-0.27718,0.33304,0.13577,-0.36178
-0.49667,0.83121,-0.24982,0.37642,0.34881,-0.53924
-0.50267,0.83221,-0.23398,0.38929,0.4745,-0.62324
-0.50107,0.8336,-0.23246,0.46634,0.44986,-0.60784
-0.49349,0.83649,-0.23823,0.31516,0.24939,-0.55838
-0.48476,0.83986,-0.24423,-0.20195,0.40424,-0.43412
-0.48404,0.83853,-0.25013,-0.9716,0.8986,-0.14255
-0.48524,0.83464,-0.26061,-0.80142,0.08042,0.07597
-0.47404,0.83959,-0.26528,-0.1548,-0.31268,0.0886
-0.46292,0.85022,-0.25067,0.08626,-0.52064,0.2976
-0.45712,0.85828,-0.23323,-0.34517,-0.58197,-0.05906
-0.45866,0.86152,-0.21773,-0.39681,-0.34403,0.06356
-0.46787,0.86545,-0.17914,-0.30232,-0.16898,0.4172
-0.47921,0.86722,-0.13526,-0.37136,-0.04776,0.52646
-0.4871,0.86839,-0.09294,-0.2604,0.01539,0.40214
-0.49125,0.86875,-0.06273,0.15045,0.17011,0.10547
-0.49492,0.86815,-0.037,0.20627,0.20939,0.08937
-0.49409,0.86935,-0.01042,0.12869,0.13064,0.09229
-0.49031,0.87147,0.01185,0.06545,0.04908,0.0846
-0.48801,0.87225,0.03212,0.00768,-0.06498,0.14899
-0.48843,0.87108,0.05145,0.02765,-0.11698,0.16196
-0.49054,0.8689,0.06624,0.03453,-0.13989,0.15697
-0.49061,0.86807,0.07587,0.08439,-0.03172,0.18453
-0.48797,0.86891,0.0829,0.22985,-0.00531,0.0893
-0.48475,0.87018,0.08832,0.33237,0.01949,-0.06903
-0.48289,0.8704,0.096,0.32646,0.05217,-0.10353
-0.48345,0.86898,0.10562,0.29027,0.03753,0.01357
-0.48665,0.86598,0.11508,0.29702,0.04477,-0.01365
-0.49167,0.8617,0.12547,0.28946,0.16191,-0.15446
-0.49551,0.85771,0.13715,0.25838,0.20198,-0.17616
-0.49909,0.85339,0.15045,0.29259,0.23271,-0.07869
-0.50031,0.85099,0.15971,0.40778,0.31906,-0.10523
-0.50036,0.85047,0.16228,0.2557,0.20724,-0.10278
-0.49768,0.85245,0.16011,0.06143,0.14379,-0.08504
-0.49219,0.85738,0.15047,0.06416,0.1198,-0.10853
-0.4826,0.86643,0.12801,0.04416,0.20849,-0.17483
-0.46447,0.88085,0.09144,-0.27298,0.49058,-0.18603
-0.44181,0.89596,0.04534,-0.38498,0.45061,-0.28476
-0.41674,0.90891,-0.01429,-0.42649,0.21084,-0.12324
-0.38842,0.91618,-0.09867,-0.52788,0.0307,-0.18839
-0.36212,0.91331,-0.18638,-0.86118,0.17849,0.00457
-0.34998,0.90017,-0.25924,-0.97492,0.05001,0.71277
-0.34798,0.87554,-0.33517,-0.43137,0.42033,0.65953
-0.32971,0.85044,-0.40994,0.26182,1.10979,-0.23951
-0.28585,0.8358,-0.46874,0.20435,0.70442,-0.18352
-0.23851,0.81763,-0.52402,-0.15184,0.23605,0.08154
-0.20906,0.78176,-0.58749,-0.28389,0.05116,0.29437
-0.19481,0.73403,-0.65057,-0.13676,0.02974,0.58134
-0.18791,0.69037,-0.69863,-0.01845,-0.20311,0.54857
-0.1881,0.65349,-0.73319,0.02968,-0.34891,0.49421
-0.18897,0.62373,-0.75846,0.12282,-0.65733,0.32093
-0.19318,0.59786,-0.77798,0.0806,-0.46182,0.28864
-0.19934,0.57986,-0.78995,0.17402,-0.20965,0.31171
-0.20843,0.57005,-0.79473,0.22473,-0.16378,0.30627
-0.21908,0.56643,-0.79445,0.34373,-0.16018,0.14994
-0.2262,0.56627,-0.79258,0.36038,-0.21743,-0.03379
-0.2287,0.56463,-0.79302,0.23122,-0.18344,-0.06772
-0.2295,0.56218,-0.79453,0.15191,-0.07717,0.0393
-0.23162,0.56335,-0.79309,0.13568,-0.02371,0.06338
-0.23448,0.56979,-0.78763,0.10082,-0.04557,0.03525
-0.23632,0.58066,-0.77909,0.05486,-0.05646,-0.00287
-0.23964,0.59259,-0.76903,-0.06035,-0.05679,-0.1005
-0.24563,0.60054,-0.76093,-0.03536,0.03664,-0.28561
-0.248,0.60021,-0.76042,0.00194,0.18969,-0.41304
-0.24539,0.59105,-0.76841,-0.1335,0.7803,-0.41342
-0.25193,0.58186,-0.77329,-0.1995,0.54884,-0.15176
-0.26598,0.58058,-0.76954,-0.04475,-0.20915,0.14155
-0.29252,0.58445,-0.75687,-0.44146,-0.52608,-0.13565
-0.3263,0.58251,-0.74445,-0.37435,0.02375,-0.1213
-0.34303,0.60442,-0.71903,-0.26159,0.31794,0.61405
-0.34209,0.65054,-0.67807,-0.51316,0.28058,0.49267
-0.3331,0.69297,-0.6394,-0.52563,0.3789,0.21277
-0.32718,0.72636,-0.60444,-0.35486,0.32529,0.2534
-0.32612,0.75651,-0.56686,-0.16983,0.10085,0.33757
-0.32458,0.78712,-0.52449,-0.05465,0.00174,0.4104
-0.32304,0.81742,-0.47693,0.00938,-0.01603,0.49036
-0.32213,0.84434,-0.42817,-0.03081,0.01026,0.41964
-0.32853,0.86468,-0.37999,-0.04623,0.09664,0.32701
-0.3367,0.8802,-0.33449,0.04365,0.09255,0.28582
-0.34419,0.89152,-0.2945,0.08468,0.02993,0.21245
-0.35039,0.89952,-0.26094,0.15858,-0.05414,0.13849
-0.35517,0.90541,-0.23254,0.16012,-0.11269,0.13227
-0.36212,0.9093,-0.20504,0.09321,-0.12619,0.16413
-0.37318,0.90998,-0.18076,0.04118,-0.13175,0.17685
-0.38545,0.90813,-0.16348,0.0556,-0.0304,0.1768
-0.39716,0.90483,-0.15344,0.08838,-0.00409,0.16076
-0.4083,0.90097,-0.14681,0.17075,0.04483,0.06206
-0.419,0.89699,-0.14087,0.15629,0.02491,0.03791
-0.42839,0.89348,-0.1348,0.12855,0.01086,0.03895
-0.43683,0.89043,-0.12777,0.06344,0.0154,0.00553
-0.44506,0.88746,-0.1197,0.08538,0.02803,0.04915
-0.45438,0.88402,-0.10972,0.0947,0.03147,0.03916
-0.46437,0.88019,-0.09812,0.14427,0.13427,0.15796
-0.47392,0.87626,-0.08698,0.12735,0.19849,0.13265
-0.48267,0.87257,-0.07521,0.10233,0.22643,0.08515
-0.49018,0.86935,-0.06281,-0.01056,0.24446,0.07865
-0.49539,0.86713,-0.05168,-0.14998,0.25666,-0.00762
-0.49774,0.86609,-0.04641,-0.2779,0.3152,-0.04257
-0.49795,0.86586,-0.04828,-0.31488,0.39755,-0.03025
-0.49737,0.86575,-0.0557,-0.309,0.42292,-0.01921
-0.49382,0.86656,-0.07219,-0.1655,0.35965,0.04338
-0.48603,0.86837,-0.09856,-0.09098,0.23168,0.04685
-0.47328,0.87069,-0.13383,-0.07407,0.13387,0.02459
-0.45316,0.87368,-0.177,-0.08337,-0.08718,-0.20905
-0.4238,0.87673,-0.22745,-0.06888,-0.03004,-0.17037
-0.38659,0.87457,-0.29269,0.17748,0.37002,-0.12384
-0.34208,0.86852,-0.35868,-0.09299,0.45147,0.14194
-0.30377,0.85267,-0.42507,-0.56516,0.39854,0.45591
-0.28641,0.82316,-0.49028,-0.75613,-0.04831,1.07998
-0.26246,0.80242,-0.53594,-0.37357,0.00997,0.46801
-0.22286,0.7856,-0.5772,0.08671,-0.00625,-0.33158
-0.20255,0.74718,-0.633,-0.43837,-0.13705,-0.04301
-0.19672,0.70899,-0.67723,-0.22799,-0.1853,0.30504
-0.18507,0.68681,-0.70288,-0.12951,-0.25054,0.41769
-0.17725,0.67208,-0.71895,-0.01693,-0.02079,0.03095
-0.17607,0.6608,-0.72961,0.02657,0.19691,-0.07512
-0.187,0.65063,-0.73601,0.02339,0.06417,0.04839
-0.20643,0.64618,-0.73473,0.14839,-0.22277,0.21061
-0.22735,0.65141,-0.72386,0.27759,-0.41755,0.23949
-0.24383,0.66725,-0.70379,0.36192,-0.38908,0.14265
-0.25575,0.69693,-0.66999,0.24199,-0.41925,0.46232
-0.27527,0.73537,-0.61924,0.1641,-0.57134,0.54111
-0.29668,0.77384,-0.55961,-0.05589,-0.80037,0.21575
-0.30804,0.79264,-0.52615,-0.41953,-0.06237,0.08953
-0.31733,0.81795,-0.47985,-0.80703,0.67747,0.39028
-0.33001,0.85172,-0.40703,-0.75216,0.67238,0.32579
-0.32807,0.86789,-0.37301,0.04696,0.64972,0.08655
-0.32826,0.87685,-0.35126,0.38822,0.48141,0.20142
-0.32964,0.88329,-0.33337,0.27796,0.0066,0.19836
-0.32755,0.89101,-0.31436,-0.03102,-0.1909,0.28481
-0.32697,0.89621,-0.29984,-0.20564,-0.24029,0.17709
-0.33181,0.8988,-0.28645,-0.16385,-0.19643,0.14485
-0.34101,0.90079,-0.26887,-0.05712,-0.12321,0.16427
-0.34966,0.90415,-0.24548,-0.07567,-0.01549,0.17306
-0.36019,0.90692,-0.21853,-0.12834,0.05206,0.26737
-0.37506,0.90611,-0.19571,-0.06962,0.12856,0.30333
-0.39201,0.90043,-0.18858,-0.0133,0.27883,0.15759
-0.40802,0.89258,-0.19188,0.06331,0.30607,0.04578
-0.42064,0.88595,-0.19535,0.07695,0.17765,0.05849
-0.43121,0.88099,-0.19472,0.06449,0.11732,0.09131
-0.44155,0.87686,-0.19012,-0.02524,0.02905,0.27242
-0.45404,0.87274,-0.17939,-0.0659,-0.00141,0.21607
-0.46973,0.86746,-0.16388,0.01398,0.05807,-0.07532
-0.48484,0.86237,-0.14578,0.11994,0.1327,-0.22525
-0.49623,0.85931,-0.12386,0.32629,0.21721,-0.07909
-0.50503,0.85725,-0.10038,0.29533,0.17126,-0.05607
-0.51174,0.85529,-0.08125,0.16892,0.13998,-0.18714
-0.51509,0.85435,-0.06911,-0.01949,0.16747,-0.3029
-0.5148,0.85473,-0.06649,-0.17078,0.19042,-0.17622
-0.51109,0.8562,-0.0755,-0.24525,0.13379,-0.08635
-0.50489,0.85752,-0.0987,-0.28024,0.13291,0.00043
-0.49536,0.85809,-0.13526,-0.30393,0.09106,0.11929
-0.48069,0.85858,-0.17828,-0.28403,0.03028,0.14846
-0.45835,0.85983,-0.22494,-0.24355,-0.02289,0.18088
-0.42858,0.86206,-0.27051,-0.05465,0.0399,0.19405
-0.39416,0.86545,-0.30923,0.00146,0.25901,0.10597
-0.35118,0.87259,-0.33949,-0.10413,0.39834,0.14331
-0.30682,0.87628,-0.37147,-0.29807,0.1926,0.38315
-0.26929,0.86748,-0.41828,-0.48506,-0.04444,0.45635
-0.23805,0.84926,-0.47125,-0.38923,-0.11152,0.39354
-0.20988,0.82875,-0.51877,-0.12197,-0.0797,0.17786
-0.18483,0.80757,-0.56006,-0.04167,-0.06415,-0.00625
-0.16621,0.78336,-0.59893,-0.08718,-0.1664,0.07206
-0.15433,0.75641,-0.63563,-0.11087,-0.24115,0.26804
-0.14354,0.73385,-0.66397,-0.08464,-0.1842,0.35945
-0.13544,0.71868,-0.68202,0.07637,-0.04182,0.16484
-0.13228,0.70935,-0.69234,0.02934,-0.01005,0.12543
-0.13862,0.70256,-0.698,-0.04984,-0.06056,0.08395
-0.15354,0.69815,-0.69929,0.01414,-0.13637,0.16384
-0.1717,0.69873,-0.69448,0.08342,-0.14408,0.1751
-0.18973,0.70557,-0.68277,0.15238,-0.15312,0.12482
-0.20688,0.72137,-0.66092,0.20476,-0.10345,0.11414
-0.22424,0.74827,-0.62434,0.21246,-0.10514,0.39612
-0.23693,0.78081,-0.5781,-0.04356,-0.22591,0.2464
-0.24296,0.80811,-0.5366,-0.40194,0.25011,-0.30871
-0.25524,0.8256,-0.50322,-0.62987,0.64657,-0.46537
-0.27134,0.84972,-0.45206,-0.42083,0.47151,0.26427
-0.28062,0.86607,-0.41374,-0.11594,0.20041,-0.00809
-0.29059,0.87995,-0.37582,0.08646,0.01568,0.29795
-0.30133,0.89345,-0.33308,-0.00693,-0.14296,0.37324
-0.31066,0.90396,-0.29384,-0.13993,-0.21684,0.33908
-0.32095,0.91014,-0.262,-0.2029,-0.24658,0.23093
-0.33605,0.91318,-0.23057,-0.10576,-0.07996,0.09443
-0.35356,0.91332,-0.20208,0.08261,-0.121,0.12455
-0.37096,0.91078,-0.18128,0.14063,-0.10329,0.16228
-0.38891,0.90675,-0.16298,0.13152,-0.01597,0.28895
-0.40479,0.90242,-0.14758,0.14721,0.08478,0.24671
-0.41491,0.89946,-0.13719,0.15887,0.07962,0.17691
-0.4218,0.89701,-0.13214,0.137,0.0074,0.17726
-0.42746,0.89443,-0.13142,0.05798,-0.07554,0.15368
-0.43295,0.89146,-0.13358,-0.04799,-0.10533,0.09073
-0.43979,0.88759,-0.13701,-0.06248,-0.09559,0.09
-0.44831,0.88276,-0.14055,-0.04458,-0.08259,0.10037
-0.45811,0.8775,-0.14188,-0.01327,-0.06462,0.083
-0.46783,0.87245,-0.14128,-0.02631,0.01099,0.14929
-0.47655,0.86854,-0.13614,-0.02946,0.0712,0.21483
-0.48551,0.86495,-0.12701,0.04021,0.14267,0.03195
-0.49421,0.86168,-0.11519,0.08376,0.18568,-0.02513
-0.50217,0.85916,-0.09835,0.11528,0.22738,-0.09433
-0.50872,0.85714,-0.08071,0.13098,0.33212,-0.14657
-0.51552,0.85432,-0.06618,0.04873,0.40012,-0.2818
-0.51922,0.85276,-0.05673,-0.02938,0.38813,-0.30643
-0.51953,0.85261,-0.0561,-0.23331,0.29517,-0.05997
-0.51896,0.85264,-0.06077,-0.32455,0.27145,0.00707
-0.51665,0.85284,-0.07574,-0.28747,0.22745,0.09164
-0.51172,0.85297,-0.10289,-0.17291,0.11952,0.07433
-0.50091,0.85471,-0.1362,-0.17806,0.04079,-0.03786
-0.48724,0.85555,-0.17504,-0.22044,-0.01193,-0.07798
-0.46964,0.85529,-0.21893,-0.20588,-0.02943,-0.09394
-0.44573,0.85409,-0.26807,0.0703,-0.02737,0.25014
-0.41932,0.85165,-0.31442,0.10468,0.34494,0.39123
-0.38177,0.8527,-0.3566,-0.13882,0.44041,0.32855
-0.34358,0.8504,-0.39847,-0.24733,0.31385,0.4242
-0.31585,0.83605,-0.44861,-0.46029,-0.24523,0.54029
-0.294,0.8173,-0.49556,-0.45011,-0.27924,0.51891
-0.26606,0.79906,-0.53919,-0.13714,-0.13371,0.16855
-0.24143,0.77649,-0.58205,-0.01179,-0.02768,-0.12056
-0.22889,0.7472,-0.62394,-0.14566,-0.05226,0.10349
-0.22349,0.71446,-0.66302,-0.14916,-0.14592,0.39071
-0.21498,0.69115,-0.69,0.08296,-0.19904,0.24971
-0.20538,0.67782,-0.70596,0.07249,-0.0973,0.09033
-0.20238,0.66841,-0.71573,0.0483,-0.06739,0.09454
-0.20997,0.66063,-0.72076,0.00779,-0.03352,0.08738
-0.22495,0.65814,-0.71851,0.08495,-0.14488,0.12394
-0.24164,0.663,-0.70855,0.1857,-0.32483,0.12826
-0.25747,0.67541,-0.69104,0.33456,-0.19115,0.00253
-0.27055,0.69815,-0.66287,0.35627,-0.13635,0.29541
-0.28332,0.72718,-0.62526,0.13355,-0.22855,0.38192
-0.29207,0.75265,-0.5901,-0.31477,0.101,-0.17654
-0.30085,0.77209,-0.55979,-0.70124,0.86777,-0.11852
-0.30955,0.79923,-0.51518,-0.40972,0.46655,0.39113
-0.31477,0.81762,-0.48209,-0.12487,0.06543,-0.02719
-0.32366,0.83316,-0.44844,-0.0348,-0.00811,0.31599
-0.33096,0.85074,-0.4083,-0.08528,-0.04851,0.3714
-0.34021,0.86568,-0.36723,-0.08203,-0.08888,0.42718
-0.3499,0.87543,-0.33347,-0.09895,-0.00471,0.32781
-0.35712,0.88306,-0.3044,-0.11067,0.04859,0.20732
-0.36166,0.88965,-0.27881,-0.04815,0.00765,0.15054
-0.3678,0.89318,-0.25874,0.00013,0.01716,0.1558
-0.37819,0.89374,-0.24124,0.04149,0.03184,0.15329
-0.38783,0.89427,-0.22332,0.09485,0.02423,0.15687
-0.39521,0.89514,-0.20623,0.08607,-0.02837,0.09806
-0.40581,0.89353,-0.19215,0.03318,-0.02817,0.10995
-0.42043,0.8887,-0.18292,0.01761,-0.0097,0.19108
-0.43578,0.88179,-0.1804,0.0431,0.01241,0.21009
-0.4506,0.87409,-0.18146,0.07025,0.0879,0.11231
-0.46504,0.86647,-0.18157,0.07772,0.17061,0.10055
-0.47931,0.85944,-0.17786,0.1584,0.14453,0.03046
-0.49199,0.85398,-0.16931,0.1694,0.15423,0.00079
-0.50192,0.85094,-0.15485,0.1677,0.13431,0.01672
-0.50987,0.84992,-0.13288,0.20001,0.19102,0.10453
-0.52224,0.84594,-0.10794,0.156,0.2049,0.07749
-0.53534,0.84046,-0.08386,0.14037,0.28286,-0.11421
-0.54514,0.83585,-0.06465,0.1006,0.23902,-0.39354
-0.54992,0.83339,-0.0552,-0.03368,0.3276,-0.36042
-0.55116,0.83269,-0.05341,-0.22106,0.29104,-0.03712
-0.54732,0.83466,-0.06148,-0.22142,0.13173,0.15827
-0.54185,0.83656,-0.08102,-0.23459,-0.06268,0.04255
-0.53349,0.83942,-0.10375,-0.357,0.05043,-0.07258
-0.52299,0.84202,-0.13219,-0.40027,0.18808,-0.08168
-0.51016,0.84296,-0.17077,0.00773,-0.04239,0.00832
-0.48967,0.84279,-0.22344,0.2125,0.05459,0.23121
-0.45731,0.84552,-0.27563,-0.00855,0.26033,0.30027
-0.41023,0.85785,-0.30953,-0.282,0.3862,0.26633
-0.35406,0.87615,-0.3271,-0.37506,-0.09316,0.39839
-0.30022,0.88461,-0.35684,-0.44622,-0.40684,0.36544
-0.25127,0.88079,-0.40133,-0.2242,-0.33781,0.12066
-0.21141,0.87515,-0.43521,-0.00579,-0.14002,0.07146
-0.175,0.86968,-0.46154,-0.00278,-0.06252,0.05928
-0.13486,0.86151,-0.4895,-0.03952,0.16592,0.15183
-0.09357,0.84928,-0.51958,-0.1,0.10772,0.24761
-0.05783,0.8333,-0.54979,-0.08216,0.05094,0.28879
-0.02953,0.81742,-0.57528,0.04302,-0.12354,0.09355
-0.01371,0.80577,-0.59208,-0.01249,-0.11926,0.06295
-0.01172,0.80022,-0.59959,0.01453,-0.10059,0.16665
-0.02096,0.8001,-0.59949,0.0619,-0.08068,0.19521
-0.03675,0.80456,-0.59273,0.12257,-0.13733,0.1255
-0.05481,0.81127,-0.5821,0.2922,-0.04651,0.13455
-0.07422,0.82017,-0.56728,0.06372,-0.12198,0.41576
-0.10406,0.83559,-0.53941,-0.17547,-0.26034,0.3282
-0.14533,0.84985,-0.50658,-0.35782,-0.42946,-0.509
-0.18208,0.85193,-0.49098,-0.10732,0.47371,0.15157
-0.20845,0.87591,-0.43513,-0.2361,0.28454,0.75384
-0.22985,0.89792,-0.37538,-0.28117,0.229,0.09451
-0.2517,0.90033,-0.35505,-0.10293,0.22919,0.26184
-0.26564,0.90266,-0.33859,-0.00876,-0.08152,0.12367
-0.27473,0.90743,-0.31795,0.01415,-0.25428,0.15427
-0.29327,0.91118,-0.28939,-0.03397,-0.23763,0.08285
-0.32062,0.91369,-0.24977,0.02972,-0.15662,0.51282
-0.33997,0.91227,-0.22842,0.14417,-0.0775,0.3598
-0.35897,0.90751,-0.21811,0.12758,-0.06724,0.13402
-0.37657,0.90277,-0.20782,-0.024,0.05535,0.07634
-0.39637,0.89768,-0.1925,0.27996,0.27798,0.31544
-0.42664,0.88558,-0.18367,0.31023,0.29008,0.30661
-0.44616,0.87687,-0.17902,-0.24342,0.10008,0.28811
-0.45411,0.87203,-0.18262,-0.27373,-0.00856,0.09349
-0.45475,0.87288,-0.1769,-0.04029,-0.01976,0.11798
-0.46401,0.87001,-0.1667,0.15485,-0.01843,0.17973
-0.47897,0.86295,-0.16095,-0.11844,0.00578,0.13556
-0.48868,0.8589,-0.15325,-0.00981,0.08907,0.12296
-0.50034,0.85371,-0.14437,0.14867,0.11863,0.18033
-0.51132,0.84836,-0.13726,0.10589,0.1252,0.14175
-0.51774,0.84623,-0.12582,0.04944,0.14243,-0.12044
-0.52506,0.84426,-0.10737,0.15958,0.07248,-0.24505
-0.53401,0.84093,-0.0876,0.07862,0.18396,-0.39429
-0.54089,0.8382,-0.06974,-0.01443,0.18454,-0.38748
-0.54284,0.83755,-0.06203,-0.09423,0.22747,-0.33296
-0.54025,0.83879,-0.06756,-0.41148,0.23949,-0.0613
-0.53594,0.84037,-0.08094,-0.27155,0.1244,0.00953
-0.53184,0.83991,-0.10816,-0.05839,0.11492,-0.01251
-0.52415,0.83823,-0.15043,0.00983,0.07424,-0.01169
-0.50843,0.83758,-0.19988,-0.04119,0.01416,-0.13
-0.48435,0.84086,-0.24156,-0.00687,0.16147,0.23039
-0.45498,0.8469,-0.27525,-0.08532,0.27787,0.36198
-0.41756,0.85872,-0.29707,-0.18402,0.29918,0.33827
-0.3704,0.87502,-0.31168,-0.27183,0.02336,0.27808
-0.32379,0.88348,-0.33855,-0.27562,-0.15948,0.36944
-0.28664,0.88082,-0.37683,-0.09455,-0.53897,0.10898
-0.25797,0.87862,-0.40184,-0.24311,-0.07371,0.0076
-0.22572,0.87771,-0.4227,-0.25028,0.26966,-0.01587
-0.18534,0.87446,-0.4483,-0.18912,0.02361,0.20069
-0.15318,0.86192,-0.48335,0.15682,-0.32713,0.17846
-0.13576,0.84789,-0.5125,-0.24664,0.03936,0.17797
-0.1242,0.83799,-0.53136,-0.11103,0.00666,0.24897
-0.11505,0.8291,-0.54714,-0.04604,-0.05296,0.1238
-0.10834,0.8245,-0.55539,-0.18955,0.01836,0.13799
-0.10927,0.82191,-0.55905,-0.15236,0.02984,0.1631
-0.11752,0.81925,-0.56127,-0.00831,-0.08043,0.06742
-0.13043,0.81935,-0.55826,0.1068,-0.10489,0.11361
-0.14591,0.82001,-0.55344,0.15082,-0.25571,0.0767
-0.16374,0.82441,-0.54179,0.16322,-0.2716,0.21688
-0.18984,0.83852,-0.51072,0.16341,-0.42768,0.19108
-0.21785,0.85806,-0.46505,0.12679,-0.5717,0.29521
-0.22412,0.87079,-0.4376,-0.0856,0.23204,-0.13901
-0.23243,0.88469,-0.40412,-0.56636,0.88944,0.29898
-0.25269,0.90204,-0.34997,-0.42918,0.53789,-0.11831
-0.27191,0.90547,-0.32586,-0.26603,0.67454,-0.30415
-0.28786,0.91038,-0.29724,-0.12202,0.11022,0.26353
-0.29492,0.91775,-0.26599,-0.10977,-0.02148,0.22372
-0.30033,0.92424,-0.23575,0.12993,-0.18347,0.4126
-0.31106,0.92536,-0.21668,0.31515,-0.25309,0.4089
-0.32337,0.92264,-0.21018,-0.09506,-0.22722,0.1393
-0.3333,0.92216,-0.19629,-0.12874,-0.20126,0.06523
-0.34609,0.92176,-0.17488,-0.07662,-0.12065,0.08075
-0.36049,0.91995,-0.15406,-0.06992,-0.045,0.13332
-0.3744,0.91684,-0.13865,-0.02419,-0.04468,0.13619
-0.38589,0.91419,-0.12389,0.06343,-0.02893,0.2242
-0.3992,0.90952,-0.11579,0.07084,0.0146,0.3236
-0.41526,0.90157,-0.12137,-0.03477,0.07587,0.18999
-0.43099,0.89276,-0.13121,-0.0069,0.10275,-0.00925
-0.44607,0.88467,-0.13559,0.14479,0.15996,0.03278
-0.4621,0.87654,-0.13473,0.2543,0.14977,0.25073
-0.47813,0.86819,-0.13278,-0.10852,0.26929,0.11523
-0.48821,0.86448,-0.11969,-0.16975,0.0962,-0.1162
-0.49242,0.86393,-0.10558,0.02565,0.1012,0.05115
-0.49917,0.86192,-0.08907,0.01205,0.11835,0.02451
-0.50672,0.85938,-0.06855,0.00208,0.21162,-0.19055
-0.51529,0.85571,-0.04735,-0.07448,0.13733,-0.41043
-0.52137,0.85305,-0.02189,-0.10888,0.18693,-0.47278
-0.52429,0.85154,0.00102,-0.08519,0.36035,-0.19667
-0.52679,0.84993,0.01082,-0.22317,0.36586,-0.14736
-0.52447,0.85134,0.01283,-0.19464,0.20326,-0.23436
-0.51616,0.85645,0.00808,-0.00737,0.2089,0.1719
-0.50678,0.86167,-0.0264,-0.23857,0.10663,-0.16018
-0.49256,0.86695,-0.07608,-0.29694,-0.07482,-0.2966
-0.47717,0.8699,-0.12481,-0.18945,-0.14191,0.016
-0.46242,0.86975,-0.17234,-0.24234,-0.11523,0.43958
-0.44796,0.86807,-0.21397,-0.10125,-0.12297,0.41049
-0.42841,0.86727,-0.25359,-0.08113,-0.01667,0.05278
-0.40337,0.86722,-0.29193,-0.16147,-0.09322,0.00801
-0.37369,0.87106,-0.31875,-0.14506,-0.04515,0.1237
-0.33568,0.88047,-0.33479,-0.15794,0.14115,0.10904
-0.28889,0.89091,-0.35046,-0.20578,-0.102,0.32289
-0.24435,0.89187,-0.38061,0.04777,-0.19393,0.07854
-0.21457,0.88824,-0.40619,0.0489,-0.10411,0.34364
-0.18086,0.88262,-0.43391,-0.00827,0.24393,0.18028
-0.1439,0.87245,-0.46704,-0.06502,0.16161,0.20335
-0.10697,0.86015,-0.4987,-0.067,0.00042,0.52511
-0.07857,0.84188,-0.53392,-0.28478,-0.04924,0.3152
-0.06242,0.82095,-0.56757,-0.25665,-0.22179,0.37077
-0.05316,0.80246,-0.59433,-0.25221,-0.31456,0.1743
-0.05291,0.7908,-0.60979,-0.23126,-0.35771,0.26637
-0.05961,0.78512,-0.61647,-0.13149,-0.29861,0.1981
-0.07298,0.78716,-0.61241,-0.06555,-0.27651,0.17546
-0.0916,0.7949,-0.59978,0.13692,-0.25398,0.1919
-0.11229,0.80635,-0.58068,0.17964,-0.1637,0.06894
-0.13172,0.81872,-0.55888,0.22985,-0.12679,0.00049
-0.14724,0.82792,-0.54118,0.2633,-0.00872,-0.06063
-0.15898,0.83471,-0.52725,0.51045,0.35038,-0.07276
-0.16666,0.84672,-0.50525,0.5738,0.31755,0.01853
-0.17755,0.86344,-0.47217,0.40004,0.16792,0.07305
-0.1866,0.87449,-0.44772,0.06334,-0.10445,-0.1112
-0.1764,0.87741,-0.44613,0.0198,0.45433,-0.39004
-0.16886,0.88036,-0.44324,-0.0869,0.86166,0.34636
-0.16282,0.88831,-0.42941,-0.55541,0.22434,-0.32251
-0.15568,0.89166,-0.42509,-0.37898,0.16534,0.07377
-0.15258,0.89781,-0.41311,-0.53231,-0.12252,0.23243
-0.15125,0.90496,-0.39772,-0.74101,-0.17516,0.25442
-0.15025,0.91507,-0.37427,-0.74135,-0.18962,0.38507
-0.14918,0.92558,-0.34793,-0.57413,-0.15284,0.17969
-0.15221,0.93548,-0.31892,-0.40321,-0.07771,0.03085
-0.15842,0.94591,-0.28311,-0.23368,-0.10057,0.17043
-0.16246,0.95603,-0.24416,-0.08111,-0.1157,0.20421
-0.16986,0.9645,-0.20223,-0.01206,-0.08645,0.26302
-0.18084,0.9711,-0.15574,-0.03137,-0.07306,0.28952
-0.19614,0.97464,-0.10773,-0.06274,-0.06551,0.21318
-0.21624,0.97446,-0.06052,0.07197,-0.0732,0.20934
-0.23177,0.97254,-0.02111,0.11681,-0.00959,0.26618
-0.24479,0.96952,0.01013,0.02086,0.15043,0.01066
-0.24942,0.96751,0.04145,-0.06464,0.12859,0.03376
-0.24353,0.96754,0.06749,0.02422,-0.16907,0.04659
-0.24329,0.96618,0.08547,0.03462,-0.23918,0.05775
-0.25134,0.96327,0.09454,-0.03771,-0.24632,-0.05073
-0.25947,0.9601,0.10432,-0.09164,-0.25243,-0.22528
-0.2666,0.95568,0.12492,-0.00739,-0.23147,0.08995
-0.27642,0.95034,0.143,-0.06394,-0.208,0.16096
-0.28579,0.94567,0.15505,0.12615,-0.03605,-0.11235
-0.297,0.93961,0.17005,0.16927,0.08279,-0.14901
-0.3028,0.93478,0.18576,0.24695,0.08454,-0.1879
-0.30401,0.93184,0.19813,0.26551,0.16095,-0.3195
-0.30278,0.92993,0.20872,0.20698,0.19871,-0.20217
-0.29745,0.93025,0.21483,0.13792,0.10202,-0.18071
-0.28978,0.93239,0.21603,0.06901,0.10116,-0.11711
-0.28239,0.93539,0.21286,-0.0109,0.16717,-0.12575
-0.27274,0.93952,0.20715,-0.06985,0.21435,-0.06814
-0.25677,0.9467,0.19451,-0.23051,0.44729,-0.02131
-0.23444,0.9567,0.1725,-0.23588,0.23682,-0.34073
-0.2129,0.9674,0.13718,-0.46262,0.19833,-0.37464
-0.20522,0.97474,0.08811,-0.5868,0.23243,-0.16413
-0.21283,0.97673,0.02663,-1.02202,0.04178,-0.28173
-0.22092,0.97449,-0.03961,-1.0648,-0.20546,-0.23694
-0.22461,0.96957,-0.0974,-0.60482,-0.12675,0.13565
-0.23855,0.95818,-0.15809,-0.38727,-0.03804,0.419
-0.24959,0.94159,-0.2261,-0.17423,0.07073,0.17889
-0.24841,0.92617,-0.28375,-0.05498,0.06393,-0.31107
-0.23737,0.91752,-0.31908,-0.00713,0.02166,-0.17158
-0.21772,0.91403,-0.34226,-0.09341,-0.20174,0.13279
-0.19299,0.91338,-0.35847,-0.03717,-0.29273,0.29189
-0.17105,0.9117,-0.37357,-0.01073,-0.30321,0.33661
-0.15488,0.90898,-0.38699,-0.06346,-0.35026,0.09021
-0.14325,0.90647,-0.39722,-0.05101,-0.40286,0.07319
-0.14137,0.90525,-0.40066,0.00351,-0.4698,0.06372
-0.15102,0.90687,-0.39343,-0.06639,-0.58196,0.00771
-0.16495,0.91241,-0.37457,-0.17048,-0.4746,-0.05156
-0.18211,0.9218,-0.34223,-0.01924,-0.34732,-0.2916
-0.20294,0.93288,-0.29756,0.14441,-0.21909,-0.50206
-0.21996,0.94294,-0.24995,0.30852,-0.04828,-0.62895
-0.22942,0.94905,-0.21601,0.4719,0.3665,-0.54008
-0.23642,0.95066,-0.20087,0.05229,0.36811,-0.43506
-0.22832,0.95365,-0.19602,0.02609,0.24946,-0.31302
-0.21436,0.95842,-0.18835,-0.01457,0.07002,-0.21773
-0.19973,0.9655,-0.16706,-0.19052,-0.30417,-0.00991
-0.20484,0.97008,-0.13034,-1.04432,0.71309,-0.15015
-0.21966,0.97075,-0.09692,-1.05465,0.1685,-0.06356
-0.21339,0.97349,-0.08232,-0.73291,-0.19033,-0.08481
-0.21891,0.97364,-0.06407,-0.49453,-0.42461,-0.32206
-0.24236,0.96876,-0.05265,-0.40779,-0.33317,0.09745
-0.26735,0.9636,-0.00152,-0.18565,-0.31132,0.80531
-0.28564,0.95559,0.07258,-0.34777,0.07364,0.75141
-0.29883,0.9453,0.13079,-0.16797,0.0409,0.21288
-0.30217,0.93915,0.16336,0.09837,0.07768,-0.35934
-0.3058,0.93286,0.19042,0.14618,-0.0352,-0.30655
-0.30868,0.92385,0.2263,-0.04528,-0.17201,0.03213
-0.31344,0.91518,0.25337,-0.22666,-0.30579,0.04689
-0.32051,0.90628,0.27556,-0.24065,-0.26272,0.15753
-0.32709,0.8988,0.29182,-0.07269,-0.02791,-0.16676
-0.33476,0.891,0.30668,0.07036,0.07745,-0.26307
-0.34252,0.88332,0.32004,0.01162,0.01433,-0.2066
-0.34856,0.87656,0.33188,0.0557,0.07644,-0.19283
-0.35649,0.86811,0.3454,0.19641,0.13491,-0.13621
-0.36389,0.8598,0.35823,0.24522,0.1458,-0.23397
-0.36816,0.85259,0.37087,0.2691,0.15884,-0.47292
-0.36906,0.847,0.3826,0.25919,0.20407,-0.55311
-0.36701,0.84381,0.39151,0.12717,0.31471,-0.47321
-0.36321,0.84227,0.39831,-0.0079,0.26188,-0.44567
-0.36106,0.84189,0.40106,-0.0864,0.33093,-0.44304
-0.36012,0.84433,0.39676,-0.07622,0.29831,-0.33826
-0.35942,0.85162,0.38152,-0.26575,0.34637,-0.10401
-0.35567,0.86423,0.35581,-0.4645,0.42883,-0.10143
-0.35163,0.87771,0.32555,-0.38012,0.22206,-0.44307
-0.35297,0.89223,0.28167,-0.31058,0.10255,-0.42759
-0.35345,0.90985,0.21736,-0.48951,0.25804,-0.44042
-0.34721,0.92734,0.13963,-0.49575,0.24056,-0.36268
-0.33672,0.93919,0.06735,-0.91936,0.19537,-0.09458
-0.32222,0.94663,0.00837,-0.59924,-0.08184,0.2976
-0.29994,0.95288,-0.04534,-0.34586,0.09796,0.37267
-0.25832,0.96065,-0.10209,-0.02191,0.42686,0.46646
-0.19363,0.96572,-0.1729,0.1683,0.52121,-0.04354
-0.12989,0.95952,-0.24988,0.28884,0.17475,-0.07382
-0.08697,0.93783,-0.33601,0.00779,-0.02275,0.05852
-0.05946,0.90476,-0.42174,-0.15013,-0.13021,0.26736
-0.03462,0.87257,-0.48725,-0.16679,-0.73268,0.30009
-0.00828,0.84967,-0.52725,-0.21357,-0.8396,0.28157
0.00198,0.83086,-0.55648,-0.42739,-0.41132,0.18569
-0.00156,0.81384,-0.58108,-0.35004,-0.31998,0.18655
-0.01013,0.8012,-0.59831,-0.21825,-0.27827,0.16069
-0.02058,0.79632,-0.60452,0.13488,-0.27559,-0.05687
-0.03259,0.80052,-0.59842,0.13159,-0.28387,-0.23635
-0.04556,0.80867,-0.5865,0.24328,-0.17775,-0.33176
-0.05824,0.81678,-0.57401,0.30011,-0.08475,-0.27304
-0.07101,0.82727,-0.5573,0.32601,0.01607,0.06258
-0.08346,0.84359,-0.53046,-0.00373,-0.00683,-0.09563
-0.09301,0.86091,-0.50019,-0.51588,0.36946,-0.85357
-0.10227,0.8671,-0.48753,-0.62197,0.54195,-1.00132
-0.11275,0.88061,-0.46024,-0.33028,0.0873,0.53998
-0.12903,0.90084,-0.41455,-0.48423,-0.00426,-0.01238
-0.15458,0.9142,-0.37463,-0.32532,-0.11703,0.10874
-0.18154,0.92984,-0.32006,-0.35049,-0.19466,0.26673
-0.20677,0.94418,-0.25646,-0.31621,-0.22967,0.18578
-0.22964,0.95169,-0.20383,-0.37151,0.22722,0.12722
-0.24962,0.95517,-0.15917,-0.30655,0.2288,-0.04006
-0.26208,0.95705,-0.124,-0.08904,0.05894,-0.06469
-0.27514,0.95672,-0.0948,-0.03988,-0.0434,-0.08419
-0.29218,0.95409,-0.06595,0.00415,-0.16176,-0.10385
-0.31336,0.94911,-0.03141,0.03032,-0.09244,-0.01681
-0.33886,0.94081,0.00696,0.05515,-0.07712,-0.045
-0.36338,0.93055,0.04519,0.08379,-0.02723,5e-05
-0.38379,0.92034,0.07543,0.16348,0.04741,0.06316
-0.4007,0.91192,0.08853,0.29082,0.06437,0.06247
-0.41619,0.905,0.08816,0.16475,0.06356,-0.09096
-0.42863,0.89933,0.08649,0.1242,0.01458,-0.20894
-0.43851,0.89417,0.09042,0.18028,-0.0636,-0.24283
-0.44837,0.88838,0.09868,0.21885,-0.11736,-0.21404
-0.4599,0.88108,0.11039,0.2735,-0.06874,-0.13959
-0.47243,0.87276,0.12288,0.24457,0.03181,-0.11301
-0.48538,0.8637,0.13577,0.187,0.1347,-0.11773
-0.4954,0.85587,0.14856,0.16006,0.19896,-0.2337
-0.50317,0.84895,0.16155,0.14345,0.22324,-0.35725
-0.50944,0.84287,0.1733,-0.23265,0.44512,-0.33343
-0.51166,0.83983,0.18135,-0.33584,0.39574,-0.211
-0.51123,0.83985,0.18249,-0.27019,0.21084,-0.26002
-0.51171,0.84113,0.17509,-0.34057,0.24594,-0.27726
-0.51296,0.84389,0.15725,-0.18959,0.23411,-0.26317
-0.51241,0.84921,0.12758,-0.01725,0.09454,-0.21845
-0.50695,0.85761,0.08662,0.00617,0.00965,-0.25877
-0.49327,0.86895,0.04009,-0.05513,0.08333,-0.27206
-0.4694,0.88298,-0.00336,-0.02188,0.20204,-0.25002
-0.43621,0.89884,-0.04253,0.08337,0.38655,-0.13257
-0.38799,0.91874,-0.07329,-0.22035,0.43068,0.15847
-0.33121,0.93748,-0.10692,-0.4836,0.22624,0.23996
-0.27719,0.94686,-0.16314,-0.64593,-0.03753,0.33939
-0.2355,0.94589,-0.22323,-0.121,-0.37535,-0.05104
-0.19191,0.94345,-0.2703,0.04648,-0.40801,-0.22416
-0.15815,0.93616,-0.314,-0.10266,-0.25479,-0.10927
-0.13823,0.92326,-0.35845,-0.04167,-0.16313,0.14755
-0.12467,0.91001,-0.3954,0.16728,-0.16982,0.09753
-0.11104,0.90032,-0.42081,0.12028,-0.16148,-0.11965
-0.10087,0.89305,-0.43851,0.04468,-0.15228,-0.13779
-0.09882,0.8863,-0.45245,0.0131,-0.21912,0.01785
-0.10571,0.88071,-0.46171,0.09728,-0.31983,0.03738
-0.11994,0.87961,-0.46033,0.07845,-0.39236,-0.09765
-0.14051,0.88112,-0.45153,0.11962,-0.35439,-0.18147
-0.16273,0.88303,-0.44021,0.25624,-0.23326,0.00892
-0.183,0.88817,-0.4215,0.26314,-0.23836,0.23655
-0.20451,0.89866,-0.38805,0.12408,-0.30434,0.06553
-0.22231,0.91014,-0.34961,-0.0552,0.20319,-0.57437
-0.23586,0.91896,-0.31604,-0.16598,0.55959,-0.39421
-0.25427,0.92799,-0.27237,-0.19945,0.10166,0.18291
-0.27592,0.93252,-0.23297,-0.19034,-0.00993,-0.29811
-0.30421,0.93016,-0.20558,-0.04488,-0.01486,0.16528
-0.33113,0.92933,-0.1634,0.00168,-0.20875,0.19993
-0.35345,0.92796,-0.11819,-0.08483,-0.14231,0.21408
-0.37808,0.92278,-0.07442,-0.11552,-0.0574,0.15449
-0.40241,0.91474,-0.03624,-0.02639,0.15284,0.09738
-0.42305,0.90609,-0.00541,0.07777,0.17477,0.02387
-0.43903,0.89829,0.01837,0.09201,0.07079,-0.08194
-0.44955,0.89247,0.03747,0.1318,-0.00538,-0.08948
-0.45929,0.88668,0.05345,0.13487,-0.06656,-0.07758
-0.47146,0.87923,0.06843,0.10051,-0.11312,-0.07388
-0.48784,0.8692,0.08068,0.03476,-0.09881,-0.03825
-0.50636,0.85759,0.09025,0.01225,-0.08777,-0.03437
-0.52165,0.84785,0.09503,0.13924,0.07148,0.05028
-0.53153,0.8421,0.09138,0.14911,0.07723,0.05393
-0.53812,0.838,0.09047,0.15382,0.13614,-0.13634
-0.54205,0.8345,0.09896,0.15014,0.00746,-0.18278
-0.54446,0.83166,0.10915,0.21272,-0.02512,-0.11004
-0.5503,0.82738,0.11228,0.1468,0.06543,-0.07189
-0.55739,0.8225,0.11317,0.11209,0.13846,-0.09932
-0.56415,0.81737,0.1168,0.10088,0.17041,-0.23741
-0.57003,0.81162,0.12779,0.14135,0.25329,-0.35582
-0.57568,0.80493,0.14383,0.15909,0.28333,-0.40853
-0.57964,0.79889,0.16057,0.14742,0.24984,-0.29906
-0.58126,0.7949,0.17397,0.04902,0.32944,-0.32062
-0.58033,0.79339,0.1837,-0.13499,0.41951,-0.19531
-0.57829,0.79413,0.18693,-0.18737,0.35712,-0.03511
-0.57727,0.79683,0.17836,-0.26098,0.3419,-0.1774
-0.57583,0.80206,0.15845,-0.18482,0.27457,-0.265
-0.57399,0.80873,0.12841,-0.11337,0.14731,-0.29978
-0.56969,0.81691,0.09007,-0.05363,-0.02522,-0.3363
-0.56228,0.82567,0.04586,-0.00928,-0.0632,-0.26126
-0.55059,0.83475,-0.00692,0.02447,-0.04517,-0.1317
-0.53023,0.84568,-0.06065,-0.07356,0.12908,-0.09096
-0.49693,0.86172,-0.10248,-0.08916,0.28226,0.02088
-0.44746,0.88464,-0.13108,-0.14506,0.19447,0.07388
-0.39223,0.90715,-0.15239,-0.35794,-0.16204,0.20677
-0.33465,0.92398,-0.18512,-0.14782,-0.27965,0.21919
-0.28403,0.93279,-0.22189,0.01879,-0.46419,-0.05719
-0.24554,0.93665,-0.24979,0.25226,-0.33185,-0.07626
-0.21571,0.93617,-0.27759,0.18382,0.01512,-0.16052
-0.18761,0.93276,-0.30782,0.13461,-0.02375,-0.13993
-0.16154,0.92621,-0.34066,0.12669,-0.25932,-0.00433
-0.14081,0.91727,-0.37254,-0.06863,-0.25823,0.06286
-0.12543,0.90887,-0.39777,-0.05516,-0.30627,-0.01509
-0.11944,0.90115,-0.41674,0.00611,-0.28426,-0.05332
-0.12061,0.89626,-0.42682,0.07273,-0.28046,-0.03378
-0.12699,0.89533,-0.42693,0.10532,-0.15253,-0.05316
-0.13671,0.89724,-0.41984,0.13288,-0.14723,-0.05507
-0.14778,0.90029,-0.40944,0.15814,-0.18751,-0.16759
-0.15822,0.90434,-0.39641,0.29236,-0.10707,-0.19577
-0.16719,0.91116,-0.37661,0.29263,-0.09512,0.10576
-0.18352,0.92072,-0.34437,0.0815,-0.26681,0.14755
-0.20171,0.9262,-0.31855,-0.04728,-0.08626,-0.27143
-0.2216,0.92546,-0.30728,-0.21514,0.64614,-0.44624
-0.23988,0.93318,-0.26764,-0.05313,0.23726,0.46016
-0.25148,0.94087,-0.227,-0.1983,0.185,-0.44703
-0.26757,0.94223,-0.20152,-0.09586,0.13987,-0.0423
-0.28387,0.94355,-0.17066,-0.04785,-0.17498,-0.00035
-0.29898,0.94447,-0.13633,-0.05022,-0.31462,0.06992
-0.31382,0.94415,-0.10045,-0.05624,-0.3333,0.10312
-0.32846,0.94232,-0.06449,-0.11501,-0.21206,0.18952
-0.34531,0.93804,-0.02902,-0.09794,-0.16312,0.13473
-0.36474,0.9311,0.00469,-0.04542,-0.11571,0.05038
-0.38563,0.92207,0.03288,0.09722,0.13331,-0.00475
-0.40795,0.91129,0.05586,0.13917,0.17226,-0.00797
-0.42978,0.89971,0.07625,0.18994,0.16671,-0.02149
-0.4492,0.88836,0.095,0.14607,0.10427,-0.07042
-0.46697,0.87729,0.11093,0.09757,0.08427,-0.03947
-0.48166,0.86748,0.12447,0.03485,-0.00961,-0.01244
-0.49306,0.85945,0.13508,0.03755,0.02716,-0.01417
-0.50084,0.85394,0.14123,0.1661,-0.00447,-0.02257
-0.50489,0.85151,0.14145,0.25651,-0.02093,0.00531
-0.51191,0.84804,0.13705,0.20633,0.06117,-0.04466
-0.51725,0.84549,0.13267,0.11886,-0.02936,-0.17553
-0.5223,0.84217,0.13398,0.08866,-0.00671,-0.17502
-0.52831,0.83745,0.13991,0.05718,0.06261,-0.17496
-0.53485,0.83223,0.14603,0.0238,0.11865,-0.10832
-0.5402,0.82792,0.15079,0.15603,0.15804,-0.02982
-0.54717,0.82227,0.15645,0.14989,0.18327,-0.05796
-0.55444,0.8158,0.1645,0.14548,0.23628,-0.12748
-0.56063,0.80924,0.17555,0.14495,0.31208,-0.19437
-0.56382,0.80451,0.18675,0.11658,0.36168,-0.20033
-0.56482,0.80193,0.19464,-0.00219,0.41938,-0.18825
-0.56485,0.79993,0.20264,-0.25417,0.48752,-0.17282
-0.56559,0.79716,0.21127,-0.30251,0.48094,-0.17843
-0.5651,0.79736,0.21185,-0.18456,0.33712,-0.20669
-0.56433,0.80135,0.19842,-0.12932,0.25375,-0.32805
-0.56443,0.80727,0.17243,-0.15653,0.09428,-0.49888
-0.56355,0.8142,0.13961,-0.0362,0.01353,-0.48026
-0.56115,0.82187,0.09823,0.03529,-0.0215,-0.31147
-0.55535,0.83004,0.05118,0.0828,0.02459,-0.17337
-0.54046,0.84128,0.01222,0.07212,0.12239,-0.0173
-0.51447,0.85744,-0.01055,-0.00971,0.09513,0.09312
-0.47984,0.87689,-0.0286,-0.13715,0.02074,0.0845
-0.43979,0.8964,-0.05534,-0.06658,-0.21579,0.0673
-0.40384,0.9102,-0.09188,0.02906,-0.35283,0.02453
-0.37465,0.91858,-0.12588,0.08396,-0.19405,0.01986
-0.34756,0.92438,-0.1572,0.07571,-0.00039,-0.03315
-0.31688,0.93,-0.18622,0.05829,-0.04631,-0.11182
-0.2882,0.93357,-0.21306,0.04439,-0.11246,0.01973
-0.26297,0.93437,-0.2404,0.02886,-0.08655,0.1481
-0.23909,0.93298,-0.26905,-0.10498,-0.06117,0.11511
-0.21794,0.93075,-0.2936,-0.01787,-0.19328,-0.08512
-0.20113,0.92855,-0.31199,-0.00042,-0.24154,-0.13899
-0.19078,0.92662,-0.324,0.02311,-0.17041,-0.15744
-0.18589,0.92541,-0.33023,0.17628,-0.18178,0.00058
-0.184,0.92511,-0.33214,0.18884,-0.2374,-0.00808
-0.18631,0.92549,-0.32979,0.16879,-0.25822,-0.00868
-0.19323,0.92605,-0.32419,0.28341,-0.23913,-0.13452
-0.20278,0.9272,-0.31493,0.35598,-0.18419,-0.11256
-0.21734,0.92991,-0.29671,0.35596,-0.2024,-0.10492
-0.23667,0.93216,-0.274,0.29595,-0.21724,-0.05877
-0.25569,0.93148,-0.25877,0.01711,0.21933,-0.16326
-0.27282,0.9344,-0.22906,-0.20421,0.41771,-0.29302
-0.28905,0.93822,-0.19027,-0.3065,0.18416,-0.39074
-0.30752,0.93749,-0.16294,-0.20017,0.23006,-0.525
-0.32791,0.93701,-0.12038,0.01564,0.17253,0.06949
-0.35016,0.93313,-0.08157,-0.03572,-0.03409,0.13835
-0.3754,0.92544,-0.05139,-0.04459,-0.06255,0.11528
-0.39858,0.91685,-0.02284,-0.01719,-0.14788,0.10506
-0.41738,0.90872,0.00475,0.01359,-0.15142,0.03182
-0.43618,0.89941,0.02832,0.02308,-0.16798,-0.07524
-0.45667,0.88825,0.04964,0.06173,-0.19815,-0.05334
-0.47914,0.87494,0.07006,0.12993,-0.17871,-0.04712
-0.50256,0.86016,0.08692,0.08705,-0.02334,-0.04546
-0.52102,0.84772,0.09956,0.10382,0.22873,0.26071
-0.53306,0.84023,0.09931,0.15619,0.13357,0.14907
-0.54094,0.83576,0.09429,0.24312,-0.19532,-0.10599
-0.54829,0.83062,0.09719,0.1132,0.14318,-0.19665
-0.55334,0.8264,0.10427,0.13014,0.03906,-0.06827
-0.55606,0.82373,0.11074,0.1565,0.05638,-0.13848
-0.55724,0.82146,0.12118,0.36635,0.11908,-0.14191
-0.55688,0.82,0.13225,0.17626,0.1237,-0.0633
-0.55461,0.82036,0.13933,0.04016,0.04286,0.01625
-0.55187,0.82242,0.13812,0.00092,-0.06106,-0.02943
-0.55189,0.8223,0.13873,0.07947,-0.05446,-0.22885
-0.55491,0.81892,0.14642,0.07662,0.00936,-0.10448
-0.55929,0.81471,0.15313,0.11077,0.06852,-0.04559
-0.56523,0.80942,0.15923,0.12675,0.10055,-0.06826
-0.57249,0.80272,0.16703,0.18288,0.13062,-0.08289
-0.5797,0.79562,0.17587,0.18703,0.18749,-0.07487
-0.58592,0.78852,0.18689,0.19052,0.25768,-0.1167
-0.59079,0.78147,0.20067,0.13594,0.34308,-0.15255
-0.59565,0.77456,0.21274,0.00323,0.35209,-0.09849
-0.60078,0.76721,0.22461,-0.09659,0.38086,0.03907
-0.60401,0.76212,0.23312,-0.14713,0.42207,0.02878
-0.60584,0.75971,0.23621,-0.30028,0.44327,-0.15116
-0.6059,0.76035,0.234,-0.31537,0.43666,-0.25199
-0.60142,0.76688,0.224,-0.25636,0.37391,-0.23963
-0.58723,0.78425,0.20028,-0.28456,0.29282,-0.33657
-0.55689,0.8143,0.16368,0.23992,0.32147,-0.38196
-0.52866,0.84123,0.11338,0.39748,0.19124,-0.37775
-0.50762,0.85934,0.06213,0.33866,0.08971,-0.40963
-0.48753,0.87305,0.00987,0.15695,-0.11922,-0.34456
-0.47057,0.88129,-0.04358,0.05127,-0.03183,-0.23016
-0.45208,0.88728,-0.09139,0.06599,0.0377,-0.02333
-0.42679,0.89591,-0.1233,0.09572,0.18973,0.12751
-0.39281,0.90992,-0.13321,0.11121,0.05749,0.23674
-0.34908,0.92822,-0.12865,0.1315,-0.08008,0.32909
-0.30497,0.94119,-0.14542,0.03268,-0.26938,0.21683
-0.26698,0.94774,-0.17469,0.04736,-0.08194,-0.09689
-0.22613,0.95149,-0.20864,0.01658,-0.07782,-0.13758
-0.18485,0.95184,-0.24459,0.02575,-0.1472,-0.02679
-0.14612,0.95057,-0.27397,-0.04199,-0.12866,0.07837
-0.11356,0.94737,-0.29933,-0.12634,-0.08811,0.13695
-0.08596,0.94156,-0.32569,-0.08041,-0.12059,0.09187
-0.06331,0.93416,-0.35118,-0.06025,-0.20859,-0.08873
-0.04829,0.92618,-0.37398,0.01232,-0.1691,-0.08024
-0.0388,0.92013,-0.38968,0.06323,-0.17126,-0.09924
-0.03532,0.91872,-0.39332,0.09291,-0.18052,-0.12619
-0.04022,0.92273,-0.38334,0.16356,-0.17189,-0.11449
-0.05127,0.92985,-0.36434,0.21693,-0.12853,-0.1251
-0.06441,0.9377,-0.34142,0.23941,-0.10808,-0.09747
-0.08151,0.94591,-0.31402,0.16902,-0.26833,0.0476
-0.10133,0.95452,-0.28038,-0.03906,-0.12786,-0.11077
-0.11603,0.96011,-0.25443,-0.20216,0.31704,-0.51498
-0.13401,0.96816,-0.21144,-0.20288,0.27682,0.70682
-0.1515,0.97493,-0.16299,-0.32683,0.29991,-0.35644
-0.16783,0.97593,-0.13927,-0.26502,0.28411,-0.50277
-0.18681,0.97613,-0.11075,-0.05432,0.04387,-0.01794
-0.20274,0.97545,-0.08599,-0.00419,-0.00077,0.00067
-0.21553,0.97458,-0.06115,0.09805,-0.05168,0.00486
-0.22579,0.97346,-0.03738,0.08964,-0.13619,-0.06494
-0.23517,0.97182,-0.01626,0.03418,-0.24311,-0.01182
-0.24604,0.96926,0.00215,-0.01141,-0.11387,-0.10782
-0.25947,0.96543,0.02509,0.04212,-0.08544,-0.03449
-0.27425,0.96042,0.04876,0.07202,-0.07653,-0.0586
-0.28859,0.95485,0.07056,0.08875,-0.04753,0.01966
-0.30071,0.9496,0.08855,0.10116,0.07651,0.01928
-0.31195,0.94468,0.1013,0.13435,0.03612,-0.02379
-0.32048,0.94119,0.10706,0.11659,0.00269,-0.0825
-0.32643,0.93881,0.10992,0.08432,0.04119,-0.14675
-0.33242,0.93618,0.1143,0.12317,-0.03252,-0.09392
-0.3383,0.93361,0.11804,0.11094,0.00148,-0.08059
-0.34531,0.9305,0.12223,0.15178,-0.00876,-0.09884
-0.35503,0.92611,0.12757,0.04936,0.02331,-0.1349
-0.36198,0.92214,0.13645,0.05061,0.05729,-0.13435
-0.3677,0.91837,0.14628,0.09499,0.02768,-0.09946
-0.37389,0.91396,0.15775,0.12515,0.13285,-0.15023
-0.38146,0.908,0.17326,0.25873,0.17833,-0.09057
-0.39349,0.90011,0.187,0.18442,0.15304,-0.09467
-0.40712,0.8907,0.20226,0.01926,0.43735,-0.21764
-0.41293,0.88518,0.21437,-0.09833,0.47621,-0.03394
-0.40935,0.88552,0.21976,-0.1273,0.44798,-0.01488
-0.40404,0.8874,0.22195,-0.27224,0.3987,-0.30456
-0.4002,0.8899,0.21889,-0.20708,0.35943,-0.33225
-0.4014,0.89311,0.20305,-0.11828,0.27495,-0.26482
-0.40154,0.89897,0.17495,-0.0342,0.06585,-0.38104
-0.39972,0.90655,0.1356,0.01831,0.00872,-0.35572
-0.39339,0.91526,0.08681,-0.01128,-0.09857,-0.28522
-0.37858,0.92493,0.03432,0.05483,-0.11497,-0.18079
-0.35932,0.93302,-0.01912,-0.00997,-0.06748,-0.14226
-0.33754,0.93919,-0.06323,-0.02376,0.01794,0.06684
-0.31209,0.94498,-0.09809,-0.05456,0.03169,0.11872
-0.28515,0.94943,-0.13141,-0.17476,-0.00358,0.17533
-0.25688,0.95272,-0.16232,-0.007,-0.03725,0.27328
-0.22723,0.95422,-0.19451,-0.0001,-0.0455,0.21671
-0.19701,0.95306,-0.22994,0.00946,-0.02479,-0.07499
-0.16693,0.94788,-0.27138,-0.05775,-0.17298,-0.19482
-0.13748,0.93915,-0.31481,-0.08607,-0.23681,-0.09524
-0.11029,0.93024,-0.35,-0.0821,-0.25227,-0.01859
-0.08739,0.92279,-0.37527,-0.12841,-0.20315,0.03632
-0.06891,0.91616,-0.39485,-0.05608,-0.20551,0.02231
-0.05558,0.9114,-0.40776,0.02242,-0.26464,-0.02463
-0.04966,0.90889,-0.41406,-0.11126,-0.26137,-0.04967
-0.04945,0.90939,-0.413,0.04912,-0.22283,-0.02502
-0.05515,0.91329,-0.40355,0.13851,-0.1753,-0.07034
-0.0651,0.91945,-0.38778,0.15901,-0.21251,-0.18127
-0.07527,0.92573,-0.37061,0.27114,-0.13998,-0.21414
-0.08452,0.93344,-0.34865,0.25548,-0.13847,0.02514
-0.09819,0.94276,-0.31867,0.10273,-0.1042,-0.17841
-0.11152,0.95021,-0.29098,0.0443,0.14826,-0.45841
-0.12465,0.95693,-0.26222,-0.15541,0.29292,0.01495
-0.14183,0.9653,-0.21926,-0.29799,0.23653,0.04442
-0.15988,0.9685,-0.19091,-0.27961,0.14204,-0.41712
-0.18002,0.96986,-0.1642,-0.17526,0.08457,-0.21751
-0.19945,0.97118,-0.13051,0.00564,-0.0002,0.06517
-0.21488,0.97184,-0.09672,-0.02792,-0.1735,0.15487
-0.22445,0.97206,-0.06871,-0.02026,-0.19342,0.08424
-0.23168,0.97177,-0.04449,-0.00758,-0.20168,0.04947
-0.24119,0.97017,-0.02438,0.0022,-0.16811,-0.08902
-0.25449,0.96707,-0.0039,0.01551,-0.165,-0.10951
-0.27071,0.96246,0.01988,0.10957,-0.04438,-0.09216
-0.28786,0.9567,0.04306,0.13135,0.02587,-0.09571
-0.30268,0.95102,0.06286,0.12395,0.07027,-0.07141
-0.31566,0.94557,0.07912,0.09312,0.15807,0.04708
-0.32865,0.94016,0.0899,0.0907,0.17074,0.01351
-0.34082,0.93514,0.09674,0.11433,0.20176,-0.05094
-0.35163,0.93041,0.1034,0.10937,0.21745,-0.05862
-0.36157,0.92562,0.11182,0.10481,0.21136,-0.02418
-0.37134,0.92084,0.11902,0.07582,0.20769,-0.07863
-0.38172,0.91578,0.12503,0.07275,0.24154,-0.26416
-0.39217,0.90923,0.13966,0.11028,0.26362,-0.24083
-0.40032,0.90222,0.16043,0.12881,0.28828,-0.16603
-0.40382,0.89635,0.18301,0.18546,0.20291,-0.39794
-0.40532,0.89099,0.20456,0.14052,0.18197,-0.47786
-0.40729,0.88668,0.21889,0.13937,0.14134,-0.53471
-0.40861,0.88384,0.22774,0.02789,0.23904,-0.2572
-0.40551,0.88456,0.23046,-0.06292,0.21248,-0.20907
-0.40093,0.88828,0.22407,-0.26298,0.15194,-0.35191
-0.39812,0.89377,0.20659,-0.25711,0.14278,-0.34546
-0.39435,0.90156,0.17799,-0.23724,0.11178,-0.26437
-0.3869,0.91126,0.14113,-0.22743,0.04567,-0.27986
-0.37637,0.92127,0.09804,-0.02962,0.05169,-0.06542
-0.36088,0.93105,0.05395,0.02964,0.06744,0.00935
-0.34127,0.93989,0.01206,-0.01343,0.03155,0.10952
-0.31837,0.94742,-0.03213,-0.03088,-0.0805,0.12603
-0.29326,0.95235,-0.08386,-0.22387,-0.22522,0.02064
-0.27154,0.95268,-0.13661,-0.23803,-0.24991,-0.06256
-0.25316,0.94975,-0.18408,0.04582,-0.18698,0.07669
-0.23078,0.94346,-0.23796,0.17305,-0.07943,0.042
-0.20608,0.93258,-0.29636,-0.00176,-0.15037,0.07078
-0.1831,0.92009,-0.34628,-0.05363,-0.21452,0.10841
-0.16163,0.90494,-0.39366,-0.05825,-0.23809,-0.00115
-0.14294,0.8862,-0.44071,-0.03989,-0.16714,-0.07715
-0.12745,0.86581,-0.48387,0.0288,-0.13136,0.16298
-0.11486,0.8451,-0.52212,-0.02235,-0.20755,0.10798
-0.1051,0.82719,-0.55201,-0.02584,-0.25808,0.14769
-0.09894,0.81234,-0.57473,-0.0034,-0.34663,0.14427
-0.09639,0.80317,-0.58791,-0.00432,-0.33231,0.10852
-0.09768,0.80255,-0.58854,-0.00303,-0.33169,0.10915
-0.10097,0.80845,-0.57984,0.15871,-0.21565,-0.0477
-0.10606,0.81775,-0.56572,0.17445,-0.20433,-0.06227
-0.1136,0.82972,-0.54651,0.22946,-0.21779,-0.13427
-0.12203,0.84321,-0.52356,0.26065,-0.22565,-0.19676
-0.13019,0.85543,-0.50128,0.38511,-0.12924,-0.43303
-0.13804,0.86676,-0.47924,0.46687,-0.05815,-0.45361
-0.14276,0.87749,-0.45786,0.50084,0.08673,-0.37987
-0.14641,0.88946,-0.43293,0.29662,0.17071,-0.20292
-0.14767,0.89995,-0.41024,-0.0039,0.33411,-0.36898
-0.14749,0.90618,-0.39633,-0.11554,0.54334,-0.56464
-0.14021,0.91618,-0.37544,-0.05109,0.5156,0.176
-0.14078,0.93014,-0.33914,-0.45583,0.00534,-0.3006
-0.14585,0.9383,-0.31357,-0.25463,-0.07636,-0.18395
-0.14934,0.94841,-0.27966,-0.18675,-0.07631,0.18102
-0.15184,0.95835,-0.24189,-0.31654,-0.15777,0.13649
-0.15582,0.96516,-0.21021,-0.31513,-0.24362,-0.00595
-0.16236,0.97027,-0.1795,-0.27259,-0.24503,-0.01832
-0.17084,0.97454,-0.1452,-0.20962,-0.20084,-0.09328
-0.17924,0.97808,-0.10597,-0.1091,-0.12997,-0.08202
-0.18696,0.98019,-0.06541,0.00806,-0.02395,0.04952
-0.19364,0.98079,-0.02345,0.00947,0.04908,0.10253
-0.2005,0.97955,0.0168,0.02995,-0.0029,0.01628
-0.20572,0.97709,0.05452,0.04167,8e-05,-0.02547
-0.21222,0.97323,0.0883,0.05563,-0.042,-0.00145
-0.22155,0.9677,0.12029,0.08949,-0.06646,0.01255
-0.23376,0.96024,0.15263,0.22952,-0.12371,0.08695
-0.25202,0.95028,0.1829,0.27849,-0.06475,0.14048
-0.27626,0.93861,0.20664,0.12142,-0.02199,0.13183
-0.29916,0.92788,0.22258,-0.11516,-0.05077,-0.04965
-0.31069,0.92124,0.23408,-0.01637,-0.07566,-0.21576
-0.32044,0.91508,0.24484,-0.01731,-0.06585,-0.18119
-0.33354,0.90774,0.25449,0.01799,-0.00219,-0.08665
-0.34641,0.90045,0.26306,0.07758,0.07323,-0.01522
-0.35714,0.89416,0.27005,0.12922,0.11353,-0.0231
-0.36575,0.88854,0.27699,0.17269,0.11538,-0.05335
-0.37322,0.88339,0.28344,0.18962,0.13373,-0.11913
-0.3799,0.87833,0.29019,0.21599,0.13746,-0.16838
-0.38667,0.87308,0.29702,0.21415,0.1252,-0.21961
-0.39312,0.86747,0.30489,0.31208,0.11944,-0.22427
-0.39994,0.86118,0.31372,0.41862,0.1246,-0.18057
-0.40767,0.85393,0.32345,0.43451,0.12082,-0.11521
-0.41196,0.84902,0.33082,0.30123,0.18544,-0.33633
-0.41155,0.84601,0.33896,0.35923,0.14505,-0.43883
-0.41421,0.84304,0.34308,0.30525,0.17447,-0.23751
-0.4181,0.84243,0.33987,0.2826,0.23381,-0.22129
-0.42025,0.84444,0.33214,0.25628,0.29239,-0.21367
-0.41674,0.85076,0.3202,0.02124,0.45656,-0.06534
-0.40432,0.86185,0.30617,-0.1602,0.39471,-0.14687
-0.39005,0.87592,0.28396,-0.1718,0.26297,-0.21026
-0.38343,0.89135,0.24184,-0.07765,0.19011,-0.16742
-0.38204,0.90605,0.18197,-0.20679,0.19281,-0.07787
-0.37836,0.9203,0.0995,-0.45138,0.15734,-0.13877
-0.37061,0.92873,0.00991,-0.72155,-0.04345,-0.14085
-0.36543,0.92975,-0.04505,-0.61609,-0.10297,0.25927
-0.36369,0.928,-0.08088,-0.43884,-0.00602,0.53075
-0.35626,0.92524,-0.13042,0.21975,0.17896,0.17853
-0.33672,0.92214,-0.19045,0.26923,0.26247,0.07769
-0.31456,0.91753,-0.2433,0.16872,0.0824,-0.20555
-0.29576,0.914,-0.27771,0.20465,-0.01421,0.07012
-0.27732,0.91116,-0.30476,0.22603,-0.07022,0.14706
-0.26056,0.90929,-0.32449,0.22248,-0.11738,0.18458
-0.2459,0.90928,-0.33577,0.17946,-0.20542,0.23844
-0.23332,0.91098,-0.34011,0.04913,-0.3232,0.23718
-0.22445,0.91312,-0.34036,-0.12673,-0.46094,0.21938
-0.22307,0.91577,-0.33408,-0.13041,-0.50048,0.19951
-0.22756,0.91921,-0.32136,-0.01731,-0.4858,0.11599
-0.23501,0.9245,-0.30012,0.08747,-0.23265,-0.15143
-0.24524,0.93135,-0.26915,0.21921,-0.14542,-0.2851
-0.25448,0.93702,-0.23925,0.50073,0.03598,-0.54855
-0.25652,0.93991,-0.2253,0.7053,0.3054,-0.4386
-0.24709,0.94154,-0.22901,0.67013,0.36873,-0.37791
-0.22856,0.94435,-0.23659,0.23332,0.32525,-0.36632
-0.21211,0.9477,-0.2385,-0.36576,1.042,0.00992
-0.19921,0.95017,-0.23976,0.03954,0.25411,0.3027
-0.1801,0.95576,-0.23257,-0.27435,0.24061,0.22603
-0.15661,0.9615,-0.22582,-0.56826,0.02384,-0.54083
-0.13999,0.96212,-0.23394,-0.42999,-0.15098,0.05257
-0.13048,0.96621,-0.22228,-0.25771,-0.23758,0.55277
-0.11909,0.97417,-0.19186,-0.06295,-0.2354,0.73697
-0.1095,0.98006,-0.16582,-0.19168,-0.16495,0.4895
-0.10737,0.98317,-0.14779,-0.16179,-0.21775,0.18313
-0.11431,0.98525,-0.12733,-0.09897,-0.04183,-0.01749
-0.12774,0.98659,-0.10163,-0.03787,0.09576,0.01587
-0.14369,0.98683,-0.07429,0.07495,0.12477,0.19032
-0.15902,0.98598,-0.05057,0.18252,0.12494,0.19769
-0.17202,0.98464,-0.03008,0.21099,0.11241,0.13307
-0.18258,0.98313,-0.01099,0.12168,0.05105,0.05381
-0.18949,0.98186,0.0067,0.11091,-0.04254,0.06132
-0.19378,0.98079,0.02234,0.04169,-0.07977,0.02355
-0.19475,0.98013,0.03765,0.06851,-0.13035,0.01205
-0.19314,0.97982,0.05148,0.03306,-0.16145,0.04034
-0.19158,0.97947,0.0627,0.13747,-0.10525,0.00317
-0.19468,0.97808,0.07393,0.2801,-0.00286,-0.07904
-0.20045,0.9758,0.08736,0.26661,0.01236,-0.11779
-0.20558,0.97335,0.10159,0.36785,0.03484,-0.2931
-0.2098,0.97116,0.11324,0.33666,0.06253,-0.29245
-0.21457,0.96945,0.11889,0.32334,0.04978,-0.26606
-0.2209,0.9682,0.11742,0.23222,0.25879,0.04618
-0.22607,0.96806,0.10839,0.17569,0.32491,0.1747
-0.2245,0.97015,0.0917,0.15615,0.36353,0.23
-0.21269,0.97437,0.0732,-0.18407,0.42309,-0.19739
-0.19673,0.97932,0.0473,-0.25275,0.37322,-0.24942
-0.18588,0.98257,0.00064,-0.27649,0.36162,-0.17689
-0.17334,0.98254,-0.06754,-0.18939,0.34515,-0.23003
-0.15597,0.97721,-0.14396,-0.24719,0.30258,-0.18515
-0.13374,0.96634,-0.21976,-0.39091,0.20402,-0.09204
-0.10733,0.95001,-0.2932,-0.55034,0.17345,0.10634
-0.08964,0.92932,-0.35824,-0.32488,0.17222,0.4654
-0.07293,0.90739,-0.41392,-0.00264,0.24313,0.52172
-0.04454,0.8887,-0.45633,0.22953,0.1917,0.51315
-0.00473,0.8731,-0.48752,0.36949,0.04626,0.33812
0.0344,0.85685,-0.51442,0.18258,0.00523,0.18569
0.06762,0.83625,-0.54416,0.00365,-0.06808,0.12996
0.09201,0.81256,-0.57558,-0.00137,-0.13268,0.15913
0.10749,0.79151,-0.60163,-0.11111,-0.10648,0.20278
0.11567,0.77429,-0.62218,-0.36184,-0.2375,0.30304
0.11598,0.75948,-0.64011,-0.33264,-0.27498,0.29299
0.11396,0.75001,-0.65154,-0.27164,-0.30974,0.25538
0.1137,0.74981,-0.65181,0.06674,-0.2347,0.17459
0.11352,0.75523,-0.64555,0.12646,-0.19735,0.09564
0.11283,0.76343,-0.63596,0.23272,-0.20128,-0.08717
0.11373,0.77165,-0.6258,0.29788,-0.12936,-0.13537
0.11484,0.78143,-0.61333,0.32969,-0.10118,-0.01524
0.11358,0.79015,-0.6023,0.35985,-0.00124,0.02775
0.11369,0.79925,-0.59014,0.18871,0.07364,-0.03718
0.1178,0.80802,-0.57726,-0.15558,0.39927,-0.43867
0.11988,0.81126,-0.57226,-0.18567,0.57389,-0.50006
0.11776,0.82537,-0.55217,-0.14068,0.56869,0.48823
0.11678,0.8469,-0.51877,-0.37845,0.41253,0.02919
0.10717,0.86651,-0.48752,-0.32273,0.29941,0.30234
0.09281,0.88814,-0.45011,-0.33601,0.26953,0.42254
0.07724,0.90759,-0.41269,-0.29538,0.14955,0.37988
0.0617,0.92432,-0.37661,-0.20084,0.09405,0.22261
0.05006,0.93902,-0.34019,-0.09665,0.07723,0.31302
0.04326,0.95191,-0.3033,-0.16938,0.02801,0.21216
0.03412,0.96237,-0.26958,-0.20833,-0.00934,0.15026
0.01946,0.97062,-0.23981,-0.10963,0.00159,0.16808
-0.00067,0.97723,-0.21218,0.01061,-0.02694,0.20817
-0.0244,0.98223,-0.1861,0.16809,-0.03373,0.22226
-0.04562,0.98592,-0.16088,0.24224,-0.0409,0.24544
-0.06042,0.9886,-0.13794,0.24716,-0.06849,0.23494
-0.06918,0.99074,-0.11685,0.26543,-0.12912,0.22057
-0.07485,0.99235,-0.09816,0.07305,-0.22093,0.0975
-0.07851,0.99354,-0.08193,0.04201,-0.22987,0.06527
-0.08213,0.99411,-0.0707,0.02571,-0.25542,0.03641
-0.08753,0.99412,-0.06379,-0.03537,-0.24152,0.02155
-0.09475,0.99379,-0.05832,-0.03954,-0.19406,0.0865
-0.10244,0.9933,-0.05356,-0.03375,-0.15263,0.12947
-0.11103,0.99264,-0.04829,-0.03306,-0.02147,0.12327
-0.12108,0.99175,-0.04201,-0.02644,0.02294,0.09841
-0.13104,0.99074,-0.03551,0.05346,0.14547,0.13535
-0.14012,0.98975,-0.02762,0.1078,0.19793,0.10248
-0.14907,0.98867,-0.01785,0.13934,0.22212,0.05951
-0.15787,0.98743,-0.00732,0.228,0.24848,-0.00862
-0.16516,0.98626,0.00348,0.23782,0.2651,-0.05029
-0.17016,0.98529,0.01555,0.16201,0.32927,-0.13115
-0.1728,0.98468,0.02319,0.06934,0.38411,-0.00761
-0.17187,0.9848,0.02524,-0.19501,0.52604,-0.04121
-0.16985,0.98523,0.02157,-0.24238,0.5669,-0.05829
-0.16734,0.98587,0.008,-0.25251,0.51999,-0.06115
-0.16321,0.98644,-0.01705,-0.20524,0.3437,-0.0321
-0.15647,0.98638,-0.05063,-0.19802,0.26266,-0.00299
-0.14536,0.98528,-0.08997,-0.21591,0.17843,0.01652
-0.12926,0.98233,-0.13537,-0.14543,-0.04434,0.02073
-0.1058,0.97665,-0.18698,-0.03224,-0.11287,-0.00413
-0.07489,0.96776,-0.24046,-0.02316,-0.02386,0.02634
-0.03856,0.95645,-0.28933,0.02949,0.07205,0.17144
0.00116,0.94405,-0.32979,-0.05804,0.10833,0.34414
0.03699,0.92978,-0.36626,-0.22666,-0.01529,0.55814
0.06801,0.91551,-0.39649,-0.19406,-0.03961,0.54446
0.09947,0.89907,-0.42636,-0.14394,-0.03391,0.24617
0.1297,0.87644,-0.46371,-0.15172,-0.00445,-0.15088
0.15421,0.85101,-0.502,-0.20661,0.02733,-0.01288
0.1718,0.83013,-0.53045,-0.25793,0.00439,0.15591
0.18345,0.81358,-0.55176,-0.16523,-0.00765,0.31731
0.1916,0.80232,-0.56531,-0.01007,0.02814,0.20898
0.19525,0.79691,-0.57168,-0.02323,-0.00068,0.13584
0.19107,0.79781,-0.57183,-0.08243,-0.11553,0.13478
0.17935,0.80381,-0.5672,-0.07848,-0.16139,0.13111
0.16183,0.81372,-0.55827,-0.08042,-0.26912,0.10159
0.14528,0.8239,-0.54779,0.13594,-0.27462,-0.02627
0.13679,0.83431,-0.53405,0.16448,-0.21024,0.27381
0.12648,0.85364,-0.50527,-0.02733,-0.17864,0.65766
0.11327,0.87728,-0.46643,-0.35374,-0.07152,-0.14258
0.09693,0.8933,-0.43889,-0.34224,-0.02182,-0.41755
0.08045,0.9168,-0.39116,-0.2476,0.28286,0.5703
0.06844,0.93289,-0.35361,-0.10738,0.31777,-0.02428
0.05624,0.94366,-0.32611,0.09223,0.29922,0.15853
0.04634,0.95279,-0.30006,0.1093,0.24911,0.14868
0.0383,0.96068,-0.275,0.03094,0.10261,0.26749
0.03129,0.96685,-0.25344,-0.06683,-0.00029,0.22216
0.02393,0.97149,-0.23585,-0.0647,-0.04906,0.19795
0.01517,0.97498,-0.22176,-0.05156,-0.07078,0.13584
0.00448,0.97796,-0.20873,-0.02113,-0.06459,0.13772
-0.0074,0.98076,-0.19507,-0.0277,-0.02872,0.14905
-0.02022,0.98316,-0.18161,-0.02548,-0.02569,0.14451
-0.03331,0.98503,-0.16911,-0.01808,-0.02767,0.15613
-0.04646,0.98639,-0.1577,-0.01814,-0.01668,0.14525
-0.06035,0.98715,-0.14794,-0.02772,-0.03211,0.12467
-0.07405,0.98746,-0.1394,-0.01337,-0.01826,0.13287
-0.0823,0.99062,-0.10908,0.03112,-0.01729,0.1276
-0.0935,0.99054,-0.10048,-0.03933,0.00092,0.09208
-0.10394,0.99035,-0.09167,-0.01872,0.00182,0.04052
-0.11534,0.98995,-0.08181,0.00797,0.01988,0.01589
-0.12638,0.9896,-0.06868,0.10366,0.01275,0.04574
-0.12216,0.99152,-0.04429,0.07628,0.07649,0.079
-0.13087,0.99103,-0.027,0.07236,0.1126,0.00766
-0.14029,0.99008,-0.00839,0.06923,0.1392,-0.04248
-0.14954,0.98871,0.00934,0.07545,0.16104,-0.30487
-0.15771,0.98721,0.02352,0.07261,0.2783,-0.29505
-0.16394,0.98598,0.03125,-0.00909,0.35559,-0.05059
-0.16687,0.98554,0.02929,-0.15389,0.42243,0.05665
-0.16656,0.98583,0.01981,-0.19332,0.43354,0.11274
-0.16413,0.98643,0.00324,-0.22994,0.36575,0.02192
-0.16088,0.98672,-0.02221,-0.22385,0.21669,-0.05645
-0.15398,0.98624,-0.06018,-0.11381,0.03175,-0.02272
-0.13997,0.9839,-0.11115,-0.03202,-0.01843,0.06463
-0.11263,0.97934,-0.16795,0.05096,0.04962,0.16956
-0.07507,0.97318,-0.21745,0.00497,0.05186,0.28598
-0.03261,0.96631,-0.25529,-0.05868,0.09121,0.18274
0.0068,0.95704,-0.28989,-0.29807,0.08099,0.10756
0.03755,0.94481,-0.32545,-0.39742,0.06602,0.08863
0.06254,0.92931,-0.36396,-0.31118,0.04028,0.06109
0.08884,0.91012,-0.4047,-0.08252,0.00048,0.2129
0.11262,0.89243,-0.4369,-0.20181,-0.04592,0.09301
0.13025,0.87792,-0.46074,-0.05539,-0.00808,0.12996
0.14601,0.86502,-0.48003,0.08707,-0.06663,0.18923
0.16455,0.8532,-0.49496,0.07553,-0.06717,0.18412
0.17909,0.84459,-0.50458,0.01402,-0.15182,0.15665
0.18501,0.84063,-0.50904,-0.02148,-0.00592,0.23629
0.18259,0.84358,-0.505,-0.13279,-0.17528,0.19502
0.17439,0.85098,-0.49541,-0.0911,-0.33766,0.22307
0.16367,0.85927,-0.48463,0.01507,-0.36034,0.00928
0.15437,0.86573,-0.47612,0.12728,-0.33632,0.0048
0.14774,0.87197,-0.46674,0.18576,-0.29802,0.08507
0.13849,0.88439,-0.44574,-0.13371,-0.16506,0.28987
0.13028,0.89879,-0.41857,-0.1255,-0.17946,0.2627
0.12658,0.91,-0.39481,-0.23947,0.20693,0.10213
0.1247,0.92681,-0.35423,-0.01519,0.34916,0.10617
0.12701,0.93839,-0.32138,0.01598,0.33593,-0.09108
0.12719,0.94702,-0.29491,0.06548,0.46593,0.05969
0.12335,0.95349,-0.27504,0.13039,0.39528,0.11613
0.11726,0.95792,-0.26201,0.12307,0.31154,0.13946
0.11375,0.96052,-0.25392,0.02001,0.0764,0.21346
0.11595,0.96225,-0.24622,-0.09911,0.02488,0.2321
0.12052,0.96488,-0.23341,-0.09583,-0.00906,0.23945
0.12174,0.96889,-0.21548,-0.12305,-0.07984,0.29603
0.11803,0.97303,-0.19818,-0.10121,-0.09713,0.26332
0.11025,0.97664,-0.18443,-0.07363,-0.04601,0.18499
0.09848,0.9796,-0.17515,-0.14562,0.00253,0.20211
0.08384,0.98222,-0.16798,-0.12305,0.08844,0.13792
0.06647,0.98501,-0.1592,0.01235,0.04627,0.16487
0.05064,0.98756,-0.14885,0.13003,0.01073,0.17911
0.03581,0.98994,-0.13691,0.09101,-0.01015,0.17896
0.02132,0.99219,-0.12287,-0.04477,-0.11942,0.19662
0.01155,0.99412,-0.10767,-0.00666,-0.03234,0.06536
0.00478,0.99603,-0.08889,0.01051,-0.04353,0.17805
0.00357,0.99752,-0.07028,0.02957,-0.03115,0.14444
0.00128,0.99858,-0.05328,0.0289,-0.00696,0.10494
-0.003,0.99925,-0.03859,0.1997,0.12995,0.01902
-0.00647,0.99969,-0.0239,0.25742,0.15088,-0.02729
-0.00754,0.99991,-0.01061,0.29341,0.18621,-0.05842
-0.00441,0.99999,7e-05,0.15702,0.1844,0.10287
0.00411,0.99996,0.00781,0.0302,0.19036,0.18856
0.01679,0.9998,0.01095,-0.24616,0.23899,0.36681
0.02779,0.99953,0.01304,-0.24868,0.35196,0.28461
0.03589,0.99924,0.01516,-0.23677,0.37458,0.12708
0.04112,0.99904,0.01499,0.05587,0.50811,0.0068
0.04964,0.99875,0.00664,0.20069,0.58667,0.05023
0.07074,0.99747,-0.0074,0.29927,0.54457,-0.02301
0.10339,0.99433,-0.02468,-0.02493,0.12192,-0.11275
0.13976,0.98889,-0.05056,-0.17193,-0.01685,0.05125
0.16652,0.98298,-0.07767,-0.52447,-0.37429,0.17748
0.18308,0.97702,-0.10912,-0.29788,-0.63762,0.09525
0.19755,0.96968,-0.14388,-0.15984,-0.59735,0.0353
0.215,0.95928,-0.18319,-0.11063,-0.49727,0.09544
0.23863,0.94462,-0.22526,-0.17694,-0.27417,0.09851
0.27157,0.92615,-0.2617,-0.20489,-0.00852,0.06973
0.30375,0.90968,-0.28324,-0.15583,0.36086,0.1177
0.32553,0.89758,-0.29731,-0.01827,0.40798,0.21207
0.3405,0.8857,-0.31559,0.20921,0.1926,0.22203
0.35773,0.87078,-0.33729,0.06117,0.15789,0.12834
0.37722,0.8529,-0.36093,-0.11811,0.04797,0.1595
0.3944,0.83397,-0.38593,-0.12747,0.16191,0.06265
0.40681,0.81726,-0.40815,-0.14241,0.16638,0.05407
0.41903,0.8023,-0.42513,-0.16029,-0.06832,0.07646
0.42845,0.79044,-0.43776,0.01521,-0.05347,0.04992
