gravity.x,gravity.y,gravity.z,userAcceleration.x,userAcceleration.y,userAcceleration.z
0.14338,0.98509,-0.09502,-0.09581,-0.02495,0.11709
0.1399,0.98683,-0.08115,-0.06733,0.01283,0.04351
0.14151,0.98771,-0.06626,0.00194,-0.04365,0.0677
0.14612,0.98787,-0.05244,0.07305,-0.09355,0.10042
0.14843,0.98806,-0.04117,0.07382,-0.11543,0.05767
0.14609,0.98879,-0.03084,0.02356,-0.03739,0.06183
0.13873,0.99015,-0.01898,0.03182,0.01484,0.04538
0.12987,0.99151,-0.0062,0.12491,0.08253,-0.07835
0.12432,0.99223,0.0038,0.15672,0.24652,-0.1881
0.12072,0.99263,0.0106,0.1186,0.24738,-0.23669
0.1166,0.99307,0.01466,-0.03849,0.06157,-0.10821
0.10852,0.99394,0.01755,-0.11153,0.06092,-0.14224
0.09664,0.99517,0.01729,-0.08245,0.1503,0.14807
0.08407,0.9964,0.01041,-0.06168,0.37078,0.23021
0.07932,0.99684,0.00237,-0.1406,0.30791,-0.02383
0.07987,0.99676,-0.00909,-0.16917,0.26343,-0.04519
0.08212,0.99619,-0.0292,-0.10874,0.08053,-0.00466
0.08461,0.99472,-0.05792,-0.01677,0.10134,0.058
0.09007,0.99149,-0.09395,0.03309,0.1883,0.11685
0.09691,0.9867,-0.13052,-0.01913,0.21432,0.03817
0.10279,0.98153,-0.16134,-0.08215,0.05053,0.06591
0.10464,0.97707,-0.18542,-0.08638,-0.0156,0.10811
0.10591,0.9728,-0.20599,-0.16089,0.01333,0.0974
0.11263,0.96687,-0.22909,-0.21143,-0.00629,0.04226
0.12388,0.95954,-0.25284,-0.18847,-0.03698,0.02147
0.13398,0.95231,-0.27412,-0.03573,-0.05739,0.01043
0.14464,0.94676,-0.28763,0.02742,-0.14793,0.15895
0.15517,0.94269,-0.29538,0.0231,-0.16695,0.16934
0.16499,0.93931,-0.30079,-0.0835,-0.14042,0.0789
0.17001,0.93681,-0.30574,-0.20872,0.04941,0.02286
0.17593,0.9351,-0.30762,-0.1717,-0.04892,0.0648
0.17989,0.93359,-0.30991,-0.04213,-0.39886,0.05186
0.1783,0.93352,-0.31103,-0.11004,-0.08852,-0.04757
0.17236,0.93464,-0.31101,-0.10409,-0.08964,-0.04758
0.1634,0.93657,-0.31007,0.09507,-0.04097,-0.03794
0.15314,0.94008,-0.30462,0.08389,-0.06185,-0.11788
0.14766,0.94444,-0.29363,0.08937,-0.06621,-0.12887
0.14711,0.94799,-0.28225,0.04991,-0.08324,-0.23388
0.14547,0.95027,-0.27534,0.05053,0.0256,-0.11079
0.13761,0.95143,-0.27539,-0.04814,0.1086,-0.04859
0.12623,0.95382,-0.27257,-0.11903,0.16099,0.10379
0.12299,0.95814,-0.25854,0.07708,0.26282,0.14156
0.12883,0.96268,-0.23798,0.06057,0.0677,0.15714
0.13216,0.9658,-0.22308,-0.04311,-0.09679,0.16645
0.13117,0.96826,-0.21274,0.01093,0.12007,0.11795
0.13034,0.97105,-0.20018,-0.02694,0.08834,0.07798
0.13081,0.97435,-0.1831,-0.08285,-0.1799,0.03283
0.13498,0.9768,-0.16625,0.04483,-0.27511,0.10133
0.1397,0.97874,-0.15018,0.02824,-0.21914,0.10236
0.14497,0.98019,-0.13496,-0.007,-0.08004,0.03671
0.15024,0.98121,-0.121,-0.07583,0.01403,-0.04625
0.15445,0.98241,-0.10488,-0.10407,-0.13258,0.02709
0.15818,0.98326,-0.09037,-0.07667,-0.18498,0.05796
0.16047,0.98408,-0.07637,0.04576,-0.20335,0.09327
0.16092,0.98513,-0.06014,0.04893,-0.0884,0.13658
0.15915,0.98626,-0.04424,-0.01205,0.01844,0.06847
0.15775,0.98702,-0.02985,-0.03565,0.0488,0.0294
0.15569,0.98764,-0.01787,0.00116,0.086,-0.02459
0.15002,0.98862,-0.01042,0.21449,0.20638,-0.08231
0.14327,0.98966,-0.00575,0.32177,0.26908,-0.09256
0.13799,0.99043,-0.0017,0.24979,0.28119,-0.02192
0.13572,0.99072,0.00617,0.09545,0.27379,-0.18035
0.13133,0.99122,0.01527,0.10193,0.29865,-0.22045
0.1231,0.99218,0.0202,0.10766,0.26763,-0.21887
0.11346,0.99332,0.02083,-0.09499,-0.07441,0.00356
0.1041,0.99436,0.02016,-0.13653,-0.06609,0.22976
0.09317,0.9955,0.01737,-0.12776,0.02196,0.34152
0.08525,0.99629,0.01171,-0.15927,0.21859,0.21049
0.08353,0.9965,0.00048,-0.17872,0.25699,-0.0252
0.08592,0.9961,-0.02007,-0.20734,0.26054,0.00927
0.09024,0.99478,-0.04765,-0.20717,0.01198,0.10971
0.09426,0.99223,-0.08117,-0.09567,0.1241,0.06684
0.09797,0.98852,-0.11497,-0.03108,0.20748,0.01823
0.1029,0.9842,-0.14409,0.03148,0.29418,-0.05725
0.10865,0.9795,-0.16964,-0.04547,0.09533,-0.05956
0.1152,0.97391,-0.19553,-0.04606,0.03647,-0.00585
0.12234,0.96776,-0.22017,-0.14956,-0.01584,0.08443
0.12861,0.9614,-0.24322,-0.14016,-0.17219,0.06478
0.1343,0.95527,-0.26347,-0.14585,-0.16606,0.08504
0.13998,0.94939,-0.28117,-0.0781,-0.19707,0.10013
0.14465,0.94425,-0.29573,-0.0708,-0.19172,0.14582
0.1496,0.93945,-0.3083,-0.10627,-0.18576,0.18432
0.15348,0.93496,-0.31983,-0.1137,-0.08042,0.06069
0.15615,0.93247,-0.32574,-0.11545,-0.07372,0.00802
0.1568,0.93145,-0.32834,-0.10752,-0.09681,0.00523
0.15517,0.93146,-0.32908,-0.1091,-0.26903,0.04464
0.15155,0.93334,-0.32543,-0.06807,-0.21441,-0.01171
0.14671,0.93621,-0.31935,-0.06956,-0.05512,-0.09233
0.14152,0.93969,-0.31138,0.05559,0.09535,-0.18339
0.13816,0.94332,-0.30177,0.09657,0.07731,-0.22999
0.13629,0.94662,-0.29212,0.08284,-0.07635,-0.17891
0.13372,0.95025,-0.28131,0.12272,-0.30325,-0.107
0.12788,0.95401,-0.27114,-0.00924,-0.17405,0.06283
0.11779,0.957,-0.26508,-0.23223,0.00798,0.25842
0.10572,0.96068,-0.25674,-0.37934,0.36231,0.37314
0.10788,0.96357,-0.24471,0.05896,0.29877,0.19805
0.12141,0.96673,-0.22514,0.20097,-0.03179,0.1075
0.12992,0.96985,-0.20617,0.10454,-0.08553,0.14959
0.13534,0.97188,-0.19271,-0.06704,-0.07718,0.07462
0.13782,0.97415,-0.17896,-0.1783,-0.18131,0.07457
0.13709,0.97671,-0.16503,-0.12737,-0.08815,0.01778
0.13307,0.97922,-0.15299,-0.02519,0.11695,-0.10244
0.13345,0.98113,-0.1399,0.10012,0.11769,-0.05892
0.14245,0.98175,-0.126,0.17035,-0.07835,0.0601
0.15552,0.98149,-0.1117,0.0023,-0.19997,0.15447
0.16317,0.98177,-0.0974,-0.16185,-0.13595,0.14636
0.162,0.98336,-0.08223,-0.12678,0.03419,0.0681
0.15698,0.98519,-0.06888,0.00736,0.10598,0.07251
0.15491,0.98613,-0.05945,0.06914,0.08985,0.05567
0.15545,0.98657,-0.05007,0.08705,-0.13196,0.03368
0.15545,0.98705,-0.03954,0.05089,-0.09711,0.00693
0.15324,0.98772,-0.03043,0.05428,-0.04414,-0.00903
0.14959,0.98851,-0.02143,0.15581,0.08678,-0.02812
0.14684,0.9891,-0.01038,0.14052,0.12009,-0.02754
0.14483,0.98945,0.00085,0.08717,0.13388,-0.0566
0.14139,0.9899,0.00933,0.08818,0.14065,-0.22418
0.13426,0.99083,0.01485,0.15294,0.14131,-0.21396
0.12678,0.99176,0.01822,0.14931,0.08487,-0.22706
0.12045,0.9925,0.02091,-0.06668,-0.00629,0.04691
0.11305,0.99338,0.02035,-0.0444,0.0892,0.14832
0.104,0.99444,0.01638,-0.03755,0.22692,0.25602
0.09797,0.99511,0.01183,-0.20655,0.36736,0.14786
0.09505,0.99546,0.00499,-0.22077,0.22581,0.04578
0.09315,0.99562,-0.00811,-0.14912,0.18113,0.01014
0.09254,0.99533,-0.02751,-0.12859,0.14652,-0.04575
0.09464,0.99398,-0.05511,-0.05649,0.16367,0.05599
0.09919,0.9912,-0.08759,-0.0283,0.20644,0.07237
0.10448,0.98764,-0.11681,0.03561,0.1819,-0.0344
0.1099,0.98351,-0.14358,-0.03736,0.15726,-0.06978
0.11515,0.97872,-0.16984,-0.05622,0.13435,-0.02241
0.12112,0.9732,-0.19547,-0.18967,-0.04012,0.10688
0.12893,0.96676,-0.22076,-0.15772,-0.06463,0.0605
0.13745,0.95981,-0.24466,-0.13751,-0.05861,0.03162
0.14532,0.95229,-0.26835,-0.08771,-0.02592,0.03283
0.15189,0.94578,-0.28709,-0.09642,-0.22828,0.10742
0.15618,0.94076,-0.30096,-0.10071,-0.22326,0.12129
0.15934,0.93602,-0.3138,-0.13638,-0.26028,0.08562
0.16132,0.93225,-0.32387,-0.1039,-0.20358,0.08328
0.16274,0.9295,-0.33096,-0.07755,-0.19851,0.06032
0.16336,0.92755,-0.3361,-0.085,-0.21432,-0.00539
0.16227,0.9275,-0.33677,-0.07862,-0.2337,0.03199
0.15782,0.93032,-0.33105,-0.06738,-0.15118,-0.02195
0.15071,0.93444,-0.32264,0.00371,0.00425,-0.06401
0.1428,0.93896,-0.31299,0.02476,0.0751,-0.12126
0.13813,0.94369,-0.30061,0.05218,-0.04824,-0.17421
0.13818,0.94747,-0.28845,0.03262,-0.15815,-0.27497
0.13868,0.95066,-0.27751,0.068,-0.36272,-0.14252
0.13427,0.95481,-0.26516,0.02872,-0.44783,0.00895
0.12555,0.9574,-0.26005,-0.21923,-0.16658,0.17518
0.11535,0.9566,-0.26759,-0.356,0.97774,0.26179
0.1184,0.95724,-0.26394,-0.22488,1.22178,0.12765
0.13119,0.96235,-0.23805,-0.01147,-0.30396,0.0404
0.13819,0.96555,-0.22047,-0.02773,-0.23003,0.19279
0.14352,0.96763,-0.20757,-0.01886,-0.18625,0.21912
0.14801,0.97018,-0.19193,-0.20665,-0.07788,0.15802
0.14962,0.97296,-0.17597,-0.17392,0.09145,0.015
0.14762,0.97611,-0.15939,-0.13419,0.17342,-0.06707
0.15003,0.97833,-0.14271,0.07002,0.16677,-0.07545
0.16355,0.97844,-0.12611,0.11558,0.07666,-0.0372
0.18222,0.97705,-0.11028,0.05201,-0.1078,0.03032
0.19691,0.97611,-0.09187,-0.0763,-0.08093,0.08183
0.20084,0.97693,-0.07255,-0.12729,0.06993,0.01411
0.19862,0.97839,-0.05745,-0.10054,0.13485,-0.03578
0.19888,0.97901,-0.0446,-0.00762,0.07927,0.03701
0.20347,0.9785,-0.03379,0.03112,-0.07998,-0.00382
0.21003,0.97744,-0.02223,0.02488,-0.12841,-0.01235
0.21679,0.97615,-0.01098,-0.05673,-0.29773,0.0086
0.22274,0.97487,-0.00084,-0.02368,-0.25379,-0.0246
0.22665,0.97393,0.00954,0.00701,-0.21573,-0.02157
0.22744,0.97366,0.01611,0.03961,-0.12007,-0.02734
0.22737,0.97361,0.01979,0.01041,-0.06479,-0.0291
0.2265,0.9737,0.02452,0.03046,-0.07546,-0.04775
0.22395,0.97415,0.02946,0.01383,-0.18654,-0.06166
0.22033,0.97485,0.03336,-0.03024,-0.14633,-0.09574
0.21542,0.97584,0.03643,0.01603,-0.06405,-0.08444
0.20985,0.9769,0.04034,0.06371,0.03433,-0.17162
0.20381,0.9779,0.04656,0.06917,-0.01742,-0.16253
0.19565,0.97919,0.05381,0.14275,0.08735,-0.20453
0.18535,0.98072,0.06183,0.22063,0.47114,-0.29942
0.17275,0.9825,0.06956,0.16534,0.54353,-0.17923
0.15602,0.98462,0.07861,0.11067,0.47334,-0.14154
0.13477,0.98691,0.08856,0.10857,0.36731,-0.03061
0.11308,0.9888,0.09736,0.24393,0.33848,-0.03072
0.09427,0.99037,0.10139,0.17371,0.36039,-0.05054
0.07912,0.99185,0.09985,-0.16844,0.35361,0.0405
0.06898,0.99313,0.09444,-0.21492,0.24029,0.11035
0.06594,0.99404,0.08684,-0.14005,0.15301,0.03615
0.06968,0.99461,0.07671,-0.13703,-0.17665,-0.09203
0.0804,0.99483,0.06203,-0.09627,-0.19696,-0.13712
0.09478,0.99448,0.045,-0.08013,0.06422,-0.16505
0.10986,0.9936,0.02632,-0.10506,0.22073,-0.14692
0.12559,0.99207,0.00504,-0.17635,0.07188,-0.10038
0.13617,0.99056,-0.01589,-0.19107,-0.12953,-0.00961
0.14005,0.98958,-0.03345,-0.19048,-0.1523,0.00603
0.1435,0.98833,-0.05104,-0.15899,-0.02283,0.00795
0.1506,0.9861,-0.07018,-0.16725,0.05234,-0.0353
0.15984,0.98307,-0.08961,-0.21486,0.02481,-0.00515
0.16676,0.98022,-0.10658,-0.29376,-0.10618,0.04546
0.16715,0.97853,-0.12053,-0.26146,-0.17173,0.10631
0.16224,0.97771,-0.13327,-0.19173,-0.24037,0.11653
0.15474,0.97737,-0.14419,-0.1655,-0.37023,0.10775
0.14766,0.97724,-0.15231,-0.17628,-0.43451,0.10568
0.14201,0.97704,-0.15884,-0.1674,-0.48323,-0.04436
0.13699,0.97663,-0.16562,-0.14013,-0.41715,-0.08398
0.13151,0.97635,-0.17159,-0.08332,-0.32681,-0.10591
0.12472,0.97688,-0.17364,0.05495,-0.2951,-0.15862
0.11769,0.97807,-0.1718,0.0608,-0.2776,-0.25154
0.11256,0.97937,-0.16778,0.0544,-0.25777,-0.25838
0.10922,0.9805,-0.16339,0.03555,-0.26866,-0.4061
0.10675,0.98104,-0.16175,0.08485,-0.21962,-0.38278
0.10669,0.98104,-0.16179,0.12712,-0.19593,-0.34838
0.10726,0.98104,-0.16139,0.11092,0.28283,-0.28107
0.10855,0.98068,-0.1627,-0.10298,0.58455,-0.41967
0.11314,0.9804,-0.16126,-0.08328,0.52275,-0.46199
0.11878,0.98025,-0.15808,-0.06627,0.07312,-0.47064
0.12281,0.97952,-0.15953,-0.14338,0.27965,-0.16225
0.12228,0.979,-0.16312,-0.07179,0.42205,-0.17759
0.12025,0.98059,-0.15485,-0.34657,-0.16737,0.14482
0.11892,0.98226,-0.14496,-0.34768,-0.33534,0.19955
0.11583,0.98376,-0.13709,-0.37689,-0.27165,0.27808
0.10999,0.98371,-0.14216,-0.49398,0.61179,0.25848
0.10958,0.98375,-0.14224,-0.199,0.45842,0.04345
0.11461,0.98406,-0.13594,0.16359,-0.23614,0.27172
0.12218,0.98384,-0.13088,0.12956,-0.23366,0.30521
0.12805,0.98497,-0.11588,0.00593,-0.1314,0.13921
0.12968,0.98698,-0.09511,-0.0714,-0.06625,-0.01059
0.12704,0.98887,-0.07737,-0.18649,-0.02934,0.10749
0.12892,0.98959,-0.06395,-0.12292,-0.08132,0.0596
0.13777,0.9894,-0.04586,-0.13177,-0.08113,0.04151
0.14676,0.98882,-0.02614,-0.08736,-0.2178,-0.00618
0.14881,0.98881,-0.01062,0.0854,-0.02998,-0.07426
0.1486,0.98889,0.00317,0.13143,-0.02638,-0.13207
0.1494,0.9886,0.01861,0.16678,-0.08287,-0.15964
0.14902,0.98817,0.03608,0.17152,-0.19475,-0.07023
0.14464,0.98796,0.05484,0.1618,-0.13652,-0.11105
0.13605,0.988,0.07301,0.13595,-0.06024,-0.13835
0.12549,0.98815,0.08834,-0.00658,0.091,-0.20517
0.11332,0.98837,0.10133,0.00559,0.09077,-0.21817
0.09818,0.98896,0.11096,0.09064,0.15421,-0.17817
0.08269,0.9897,0.11682,0.11883,0.1122,-0.2317
0.07159,0.9898,0.12314,0.05035,0.09302,-0.2189
0.06372,0.98972,0.12799,0.07143,0.19219,-0.08252
0.05796,0.98985,0.12974,0.26082,0.27228,-0.08553
0.0552,0.99003,0.12953,0.30792,0.42067,-0.0688
0.05628,0.99081,0.12299,0.02903,0.20751,-0.064
0.06016,0.99174,0.1133,-0.17816,0.08381,0.11136
0.06648,0.99305,0.09713,-0.18188,0.06819,0.16199
0.07779,0.99449,0.07025,0.06865,0.19692,0.17087
0.0902,0.99523,0.03716,-0.02303,0.27145,0.0819
0.10065,0.99491,0.00334,-0.10826,0.34633,0.04703
0.10868,0.99369,-0.02782,-0.09377,0.34123,0.06136
0.11448,0.99187,-0.0555,-0.08166,0.09813,0.00539
0.11706,0.99,-0.07866,-0.07023,0.06366,0.03969
0.11626,0.98811,-0.10062,-0.06023,-0.04472,0.02733
0.11472,0.98565,-0.12382,-0.04024,-0.04812,0.00108
0.1133,0.98236,-0.14878,-0.01655,-0.07666,0.03333
0.11365,0.97847,-0.17227,-0.01616,-0.15569,0.02641
0.11507,0.97495,-0.19032,-0.00549,-0.21192,0.07518
0.11493,0.97237,-0.20316,-0.02826,-0.27158,0.08547
0.11006,0.97106,-0.21194,-0.14057,-0.4884,0.12033
0.10275,0.97067,-0.21736,-0.14518,-0.5034,0.13055
0.09528,0.97108,-0.2189,-0.13782,-0.49699,0.10461
0.08953,0.9721,-0.21678,-0.07457,-0.33932,-0.07478
0.08413,0.97328,-0.21365,0.03825,-0.17215,-0.24097
0.07659,0.97413,-0.21262,0.04579,-0.17299,-0.242
0.0659,0.97516,-0.21147,0.17732,0.01756,-0.08069
0.05467,0.97669,-0.20757,0.14106,0.12782,-0.08159
0.04724,0.97745,-0.20583,0.05905,0.22637,-0.09849
0.04847,0.9765,-0.21001,-0.08833,0.33352,-0.24336
0.05243,0.97436,-0.2188,-0.13501,0.40563,-0.17688
0.0563,0.9709,-0.23276,-0.1805,0.54231,-0.07293
0.05585,0.96897,-0.24076,-0.09028,0.52364,0.04745
0.05563,0.97046,-0.23476,-0.11057,-0.04925,-0.00687
0.06029,0.96963,-0.23701,-0.05217,-0.24563,0.03952
0.06149,0.96754,-0.24511,0.17863,0.07166,0.25204
0.0587,0.96851,-0.24196,0.34619,0.14893,0.26331
0.05162,0.97251,-0.22707,0.3266,0.14909,0.24409
0.04518,0.97618,-0.2122,0.03249,0.0078,0.24873
0.04417,0.97836,-0.20211,-0.13093,-0.07823,0.21855
0.04368,0.98037,-0.19228,-0.10941,-0.09951,0.23259
0.0416,0.98297,-0.179,0.00256,-0.11583,0.20039
0.04056,0.9851,-0.16711,0.10953,0.08054,0.20532
0.04149,0.98691,-0.15585,0.07534,0.07803,0.12672
0.043,0.98918,-0.14023,0.064,-0.12033,0.04329
0.04324,0.99131,-0.12418,0.06145,-0.23045,0.01691
0.0427,0.99292,-0.11084,0.06799,-0.21902,0.05102
0.04102,0.99447,-0.09667,0.06007,-0.19099,0.05111
0.03794,0.99601,-0.0807,0.06866,-0.1835,0.04766
0.03381,0.99744,-0.06293,0.06819,-0.20626,0.03676
0.02927,0.99861,-0.04385,0.08219,-0.31652,0.03606
0.02397,0.99944,-0.02323,0.09833,-0.3142,0.02578
0.01576,0.99987,-0.00219,0.11481,-0.10447,0.05893
0.00553,0.99987,0.01472,0.03916,0.21204,-0.02331
-0.00443,0.99964,0.02632,0.06324,0.18272,-0.1107
-0.01512,0.99932,0.03343,0.15157,0.21975,-0.13744
-0.02445,0.99898,0.03779,0.39202,0.21202,-0.11869
-0.03094,0.99864,0.04183,0.47761,0.13522,-0.07869
-0.03625,0.9983,0.04549,0.51079,0.15149,-0.05689
-0.0378,0.99817,0.04709,0.32273,0.35682,0.07233
-0.03431,0.99844,0.04396,0.15847,0.24274,0.09568
-0.02851,0.99903,0.03359,-0.00243,0.14586,0.25175
-0.01975,0.9997,0.01431,0.21102,0.05467,0.25937
-0.00941,0.99982,-0.01664,0.22566,0.17328,0.33027
0.00027,0.99867,-0.05146,0.07813,0.25115,0.30386
0.00918,0.9967,-0.08059,-0.08235,0.24388,0.07312
0.0164,0.99442,-0.10417,-0.05952,0.22968,0.03706
0.02072,0.99148,-0.12857,-0.06384,0.23262,0.06146
0.02335,0.98803,-0.15248,0.07766,0.01032,0.00421
0.02421,0.98415,-0.17565,0.08081,-0.10017,0.05749
0.02413,0.98018,-0.19661,0.0809,-0.0962,0.07845
0.02526,0.97649,-0.21408,0.07754,-0.1696,0.10088
0.0281,0.97277,-0.23004,0.11384,-0.08816,0.11115
0.02884,0.96934,-0.24403,0.1131,-0.08472,0.12514
0.02526,0.96696,-0.25365,0.02124,-0.22736,0.19838
0.01874,0.96552,-0.25964,-0.14258,-0.29709,0.23884
0.01175,0.96425,-0.26472,-0.13559,-0.29583,0.24392
0.0053,0.96334,-0.26822,-0.14956,-0.29456,0.12642
-0.00112,0.96341,-0.26801,-0.06843,-0.27092,0.06619
-0.00836,0.96454,-0.26379,0.00055,-0.24597,-0.00783
-0.01504,0.96605,-0.2579,0.10829,-0.14798,-0.16939
-0.01868,0.96724,-0.25318,0.12625,-0.08227,-0.15023
-0.02129,0.96813,-0.24955,0.14101,0.08795,-0.11452
-0.02718,0.96887,-0.24607,0.10686,0.25161,-0.18386
-0.03074,0.96944,-0.24339,0.10433,0.32242,-0.16611
-0.02627,0.96983,-0.24235,0.12118,0.14429,-0.34299
-0.01529,0.96832,-0.24922,0.04403,0.3715,-0.11827
-0.00445,0.96508,-0.26191,0.20092,0.58233,0.03547
0.00089,0.96543,-0.26065,0.04228,0.37414,0.16382
0.00451,0.96767,-0.25217,-0.2665,-0.17684,0.21135
0.00606,0.96846,-0.24909,0.00775,0.00374,0.31338
0.0036,0.96965,-0.24448,0.25162,-0.01515,0.36287
0.004,0.97168,-0.23627,0.34168,-0.01846,0.43568
0.00822,0.97521,-0.2211,0.10117,0.01868,0.24113
0.01133,0.97916,-0.20274,-0.03371,0.03965,0.09716
0.01241,0.98255,-0.18555,-0.05955,-0.04768,0.15666
0.01512,0.98533,-0.16999,0.02036,-0.18432,0.20269
0.02289,0.9875,-0.15594,0.0357,-0.19395,0.22441
0.03052,0.98976,-0.13945,-0.00479,-0.05174,0.16432
0.03549,0.99242,-0.11761,-0.00012,-0.09162,0.02648
0.03844,0.99455,-0.09691,0.05763,-0.14141,-0.01836
0.04014,0.99597,-0.08018,0.18444,-0.23175,0.05569
0.04063,0.99731,-0.06101,0.16065,-0.2526,0.07345
0.03844,0.99861,-0.03589,0.07316,-0.24588,0.1179
0.03314,0.99941,-0.00889,0.0161,-0.10482,0.01602
0.02729,0.99953,0.01393,0.06895,-0.03937,-0.0467
0.02162,0.99929,0.03074,0.06607,0.02238,-0.11213
0.01406,0.99889,0.04486,0.02349,0.11515,-0.11154
0.00407,0.99836,0.05705,0.02072,0.19552,-0.06482
-0.00704,0.99776,0.0665,0.0394,0.25098,-0.06641
-0.01549,0.99749,0.06909,0.38272,0.26191,-0.11423
-0.01835,0.99752,0.06784,0.46828,0.0971,-0.1134
-0.01479,0.99766,0.06674,0.40664,0.0803,-0.08891
-0.00454,0.998,0.06301,0.24627,0.13304,0.11612
0.00931,0.99859,0.05216,0.00981,-0.01346,0.11631
0.02453,0.99916,0.03279,-0.00541,-0.01402,0.13568
0.04083,0.99916,0.00346,0.04592,0.3586,0.40134
0.0569,0.99791,-0.03052,-0.19512,0.50265,0.21459
0.07244,0.9954,-0.06264,-0.21067,0.50516,0.24671
0.08548,0.99205,-0.09232,-0.32271,0.48091,0.07881
0.09431,0.98803,-0.12203,-0.25245,0.20458,0.09565
0.09903,0.98424,-0.14652,-0.25718,0.20838,0.12014
0.10201,0.98082,-0.1661,0.09977,-0.065,0.05079
0.10442,0.97726,-0.18455,0.11369,-0.08802,0.03878
0.10534,0.9735,-0.20295,0.07282,-0.07794,0.04331
0.10735,0.9694,-0.22077,0.03481,-0.0836,0.04508
0.1095,0.96558,-0.23593,0.00496,-0.33136,0.13779
0.1075,0.9633,-0.24597,-0.02959,-0.45423,0.16696
0.10078,0.96303,-0.24985,-0.07335,-0.67054,0.1772
0.09382,0.96389,-0.24923,-0.17469,-0.63041,0.13988
0.08812,0.96521,-0.24617,-0.17824,-0.50522,0.08844
0.0859,0.96645,-0.24204,-0.06877,-0.32356,-0.1009
0.08504,0.9671,-0.23974,-0.04746,-0.28092,-0.13861
0.08274,0.96801,-0.23687,0.03645,-0.21529,-0.15725
0.0758,0.96936,-0.23364,0.09565,0.21438,-0.24982
0.06518,0.97072,-0.23118,0.11748,0.49154,-0.10268
0.05929,0.97088,-0.23212,0.05834,0.53318,-0.07104
0.06359,0.97069,-0.23176,-0.02921,0.2129,-0.44997
0.07407,0.97052,-0.22937,-0.11055,0.32439,-0.09038
0.08446,0.96732,-0.23905,-0.10582,0.45751,-0.09994
0.0887,0.96585,-0.24345,-0.35866,0.06258,0.3521
0.08538,0.9672,-0.23925,-0.45727,0.09221,0.3628
0.07723,0.96771,-0.23995,-0.46807,0.23261,0.37968
0.06831,0.96748,-0.24356,-0.03535,0.14286,0.22186
0.06882,0.96752,-0.24323,0.1244,-0.14544,0.37603
0.07959,0.96815,-0.2374,0.19223,-0.17736,0.44196
0.09292,0.9698,-0.2255,0.04172,-0.11763,0.22031
0.09945,0.97237,-0.21121,-0.18124,0.06027,0.10064
0.10209,0.97549,-0.19495,-0.24868,0.05667,0.17304
0.1106,0.97761,-0.179,-0.15485,-0.08927,0.18013
0.1275,0.97779,-0.16632,-0.0517,-0.16471,0.21135
0.14598,0.97801,-0.14897,-0.02848,-0.19288,0.21838
0.15877,0.97915,-0.12674,-0.00696,-0.18693,0.06845
0.16475,0.98036,-0.10836,0.06504,-0.08824,-0.02175
0.168,0.98144,-0.09249,0.08953,-0.07946,-0.01737
0.17006,0.98263,-0.07426,0.06868,-0.22689,0.0292
0.1676,0.98438,-0.05394,0.03783,-0.3015,0.03237
0.15852,0.98685,-0.03175,0.05248,-0.28979,0.01179
0.14498,0.98937,-0.01141,0.04595,0.00128,-0.06601
0.12979,0.99153,0.00509,-0.04227,0.10022,-0.14173
0.11399,0.9933,0.01878,-0.10595,0.12259,-0.11541
0.09874,0.99471,0.02829,0.05744,0.09362,-0.19182
0.08601,0.99563,0.03638,0.3249,0.11601,-0.22097
0.07793,0.99599,0.04392,0.35411,0.17555,-0.1805
0.07389,0.99605,0.04912,0.199,0.15855,-0.0033
0.07144,0.99604,0.05291,0.16381,0.18115,-0.02093
0.07181,0.99608,0.05162,0.08737,0.36261,-0.11346
0.07646,0.9962,0.04154,-0.03624,0.15907,0.24396
0.08639,0.99603,0.02154,-0.27214,-0.11822,0.30407
0.10195,0.99474,-0.00966,-0.2602,-0.00794,0.3461
0.11864,0.99148,-0.05376,-0.06858,0.50164,0.40537
0.13337,0.98609,-0.09917,-0.09245,0.87924,-0.02644
0.14596,0.98082,-0.12914,-0.00613,0.87916,-0.00944
0.15409,0.97483,-0.16112,-0.05783,0.5165,-0.05612
0.15739,0.96806,-0.19514,0.00831,0.24977,0.08916
0.15496,0.96088,-0.22956,0.01073,0.25696,0.12359
0.15558,0.95178,-0.26438,-0.12169,-0.0911,0.00735
0.16393,0.94082,-0.29661,-0.11377,-0.10379,0.04578
0.17541,0.9307,-0.32098,-0.05917,-0.02894,0.09424
0.18304,0.92308,-0.33825,-0.10989,-0.28426,0.21392
0.18364,0.91999,-0.34626,-0.09221,-0.29511,0.25466
0.18214,0.92034,-0.34613,-0.13923,-0.34667,0.22841
0.17891,0.92036,-0.34774,-0.24493,-0.43121,0.11667
0.17286,0.91953,-0.35297,-0.30311,-0.34313,0.08467
0.16794,0.91789,-0.35956,-0.22369,-0.24558,0.04471
0.16491,0.91651,-0.36444,0.07734,0.00982,-0.12004
0.1627,0.91607,-0.36653,0.14814,0.09487,-0.21918
0.1586,0.91584,-0.36891,0.15792,0.11155,-0.24198
0.15577,0.9149,-0.37242,0.17879,0.05834,-0.30362
0.15778,0.91292,-0.37642,0.23938,-0.06775,-0.35434
0.16443,0.9118,-0.37627,0.2312,-0.19475,-0.31039
0.17131,0.91341,-0.36923,-0.09106,0.13821,0.0746
0.17041,0.9141,-0.36794,-0.21713,0.32742,0.23336
0.16769,0.91457,-0.36803,-0.27624,0.70755,0.43168
0.16744,0.92002,-0.3543,-0.29122,0.32133,0.59383
0.17002,0.92702,-0.33425,-0.24052,-0.00162,0.38287
0.17362,0.93238,-0.31705,-0.13114,0.01256,0.39107
0.17058,0.93733,-0.30383,0.05554,0.02017,0.40736
0.16348,0.94154,-0.29457,-0.16183,-0.03485,0.21524
0.15957,0.94538,-0.28423,-0.20568,-0.05139,0.12142
0.1616,0.94929,-0.26968,0.03285,-0.06055,0.08006
0.16626,0.95348,-0.25145,0.1686,-0.10798,0.04296
0.17252,0.95719,-0.23245,0.23763,-0.12436,0.02272
0.18223,0.95916,-0.21635,0.13352,-0.19559,0.06373
0.19223,0.96044,-0.20151,0.02432,-0.21882,0.11984
0.19649,0.96294,-0.18476,-0.05176,-0.12623,0.15891
0.1925,0.9671,-0.16632,-0.09152,0.00101,0.14453
0.18398,0.97165,-0.14852,-0.12004,0.0691,0.17844
0.17827,0.97475,-0.13444,-0.1028,0.08622,0.19723
0.17579,0.97632,-0.12608,0.01083,0.13029,0.11636
0.17249,0.97785,-0.11857,0.10859,0.17057,0.18464
0.16956,0.97965,-0.10737,0.13423,0.14312,0.16786
0.16811,0.98125,-0.09423,0.07006,0.08088,0.05076
0.16443,0.98303,-0.08136,0.03928,0.16875,-0.00511
0.15762,0.98503,-0.06973,0.08223,0.25163,-0.10889
0.15115,0.98667,-0.06025,0.19708,0.15677,-0.21419
0.14421,0.98806,-0.05426,0.0575,0.03463,-0.16292
0.13653,0.98932,-0.05099,0.06517,0.03337,-0.16619
0.12734,0.99067,-0.04848,-0.12164,0.13448,0.41726
0.11473,0.99225,-0.04765,-0.18396,0.3742,0.24687
0.1043,0.99324,-0.05103,-0.17353,0.37322,0.25025
0.1003,0.9933,-0.05739,-0.1914,0.21169,0.05043
0.09984,0.99248,-0.07082,-0.13581,0.11778,-0.01518
0.10132,0.99068,-0.09104,-0.07506,0.06802,0.11885
0.1038,0.98785,-0.11563,0.04389,0.14084,0.10878
0.10869,0.98384,-0.14225,0.11288,0.17447,0.03738
0.11428,0.9792,-0.16762,0.06197,0.12593,0.03629
0.11675,0.97472,-0.1905,-0.03074,0.04088,-0.00567
0.11972,0.96918,-0.21531,-0.21064,-0.01138,0.05233
0.12475,0.96194,-0.24313,-0.25066,-0.05663,0.06368
0.13237,0.95363,-0.27032,-0.18459,-0.1515,0.15754
0.14125,0.9458,-0.29244,-0.12234,-0.13835,0.09795
0.15242,0.93889,-0.30864,-0.0847,-0.16287,0.08478
0.16104,0.93286,-0.32225,-0.0225,-0.26876,0.12616
0.16463,0.92815,-0.33382,-0.10118,-0.10445,0.08065
0.16593,0.92372,-0.34526,-0.11208,-0.00635,0.06277
0.16725,0.92027,-0.35374,-0.13765,0.08994,0.07434
0.16878,0.91936,-0.35539,-0.1348,0.01932,0.00239
0.17021,0.91986,-0.35338,-0.11412,-0.03429,-0.02457
0.16987,0.92174,-0.34863,0.03329,-0.11102,-0.03299
0.16574,0.92536,-0.34093,-0.00244,0.02779,-0.17231
0.15954,0.9299,-0.33142,0.08278,0.00998,-0.23496
0.1554,0.93389,-0.32203,0.14422,-0.09384,-0.26113
0.15167,0.93748,-0.31326,0.1762,-0.1992,-0.16114
0.14809,0.94091,-0.30454,0.14764,-0.20904,0.0489
0.14273,0.9446,-0.29558,-0.12723,-0.04726,0.14938
0.13285,0.94895,-0.28608,-0.27714,0.12844,0.3068
0.12034,0.95276,-0.27885,-0.18037,0.43067,0.24687
0.11759,0.95691,-0.26551,0.09771,0.16708,0.18719
0.12435,0.96037,-0.24944,0.08887,-0.13043,0.20635
0.1293,0.96325,-0.23542,0.05853,-0.1378,0.21203
0.13107,0.96603,-0.22273,0.02662,-0.07943,0.16641
0.13121,0.96878,-0.21037,-0.01368,-0.0856,0.1643
0.12838,0.97201,-0.19673,-0.06507,-0.10702,0.16344
0.12582,0.97514,-0.18241,-0.01193,0.0958,0.05189
0.12823,0.97735,-0.16836,0.02466,0.05013,0.04507
0.13442,0.97851,-0.15635,0.07008,0.00351,0.06853
0.1398,0.97942,-0.14557,-0.01695,-0.12598,0.18491
0.14106,0.98094,-0.13367,-0.02742,-0.06001,0.16125
0.13684,0.98312,-0.12144,-0.01993,0.03405,0.12515
0.13005,0.98533,-0.11048,-0.01742,0.06234,0.06771
0.12722,0.98681,-0.1001,0.03718,-0.10224,0.06058
0.12683,0.98791,-0.08909,0.0388,-0.11781,0.0182
0.12546,0.98925,-0.07519,0.07698,0.00055,-0.05362
0.12129,0.99069,-0.06181,0.25853,0.20351,-0.05931
0.1157,0.99204,-0.04971,0.26375,0.22963,-0.06297
0.11113,0.99307,-0.03821,0.15471,0.20937,-0.10078
0.10805,0.99378,-0.02691,0.03764,0.07664,-0.17388
0.10511,0.9943,-0.01785,-0.00688,0.00401,-0.15956
0.09914,0.99499,-0.0126,-0.10974,-0.12675,0.00447
0.09152,0.99574,-0.0111,-0.03845,-0.0502,0.22606
0.0816,0.99658,-0.01287,-0.02736,0.09225,0.30382
0.07245,0.9972,-0.01865,-0.22315,0.37716,0.15744
0.06832,0.99718,-0.03089,-0.13213,0.2006,0.08208
0.06783,0.9965,-0.0488,-0.09801,0.07514,0.0126
0.07036,0.99508,-0.06974,-0.0851,0.0461,-0.02836
0.07621,0.99244,-0.09617,0.03139,0.20496,-0.07398
0.08379,0.98864,-0.12481,0.04478,0.26344,-0.03334
0.08837,0.98441,-0.15206,-0.02356,0.09327,0.0272
0.08907,0.98023,-0.17665,-0.13155,0.03033,0.06964
0.08943,0.97568,-0.20012,-0.21763,0.00308,0.10467
0.09312,0.97016,-0.22386,-0.15808,-0.06165,0.08628
0.10087,0.96344,-0.24823,-0.10575,-0.02003,0.07844
0.11265,0.95584,-0.27144,-0.09295,-0.02264,0.07765
0.12602,0.94868,-0.29006,-0.08475,-0.11159,0.08249
0.13709,0.94333,-0.3022,-0.05555,-0.22532,0.11656
0.14511,0.93862,-0.31296,-0.0543,-0.24137,0.11755
0.15026,0.93432,-0.32323,-0.14262,-0.0708,0.00559
0.15233,0.93096,-0.33182,-0.16379,-0.02197,-0.02265
0.15374,0.92859,-0.33775,-0.13389,-0.03228,-0.02559
0.15407,0.92771,-0.34003,0.03024,-0.15595,0.0332
0.15329,0.92924,-0.33617,0.09361,-0.16316,0.03252
0.14855,0.93322,-0.32716,0.08226,-0.14535,-0.04178
0.14041,0.93763,-0.31801,-0.06885,0.08384,-0.22179
0.13613,0.94035,-0.3118,-0.00098,0.01075,-0.20252
0.1385,0.94157,-0.30702,0.05104,-0.08554,-0.19869
0.14015,0.9433,-0.30089,0.08384,-0.26093,0.07127
0.13615,0.94579,-0.29486,-0.16729,-0.01831,0.11483
0.12642,0.94937,-0.28759,-0.15757,-0.0219,0.10755
0.11285,0.95357,-0.27921,-0.137,0.33907,0.32772
0.10746,0.95665,-0.27069,0.05038,0.21447,0.23932
0.11247,0.95951,-0.25825,0.05429,0.03517,0.23111
0.12065,0.96236,-0.24352,0.02529,-0.04139,0.17872
0.12686,0.96466,-0.23092,0.00955,-0.0649,0.09939
0.12846,0.96727,-0.21881,-0.02104,-0.10053,0.09156
0.1248,0.97054,-0.20607,-0.01484,0.094,0.10855
0.11986,0.97353,-0.19458,-0.02068,0.16454,-0.00736
0.11938,0.97593,-0.18252,0.01018,0.10319,-0.01835
0.12669,0.97734,-0.16957,0.08954,-0.10912,0.03335
0.13688,0.97798,-0.15756,0.01786,-0.1984,0.07303
0.14456,0.97877,-0.14526,0.01018,-0.1992,0.06073
0.14638,0.98026,-0.13292,0.07007,-0.04805,0.12092
0.14397,0.9822,-0.12062,0.02383,0.02337,0.13632
0.14205,0.98379,-0.10946,-0.01274,0.00752,0.09179
0.14291,0.98471,-0.09964,0.01348,-0.03022,0.04585
0.1448,0.98531,-0.09052,0.04376,0.02702,0.01072
0.14501,0.98592,-0.08329,0.06422,0.04465,-0.02659
0.14302,0.98673,-0.07687,0.10768,0.03587,0.01746
0.13878,0.98797,-0.06817,0.11393,0.04464,-0.02211
0.13443,0.98926,-0.05729,0.08792,0.04377,-0.07592
0.12909,0.99052,-0.0469,0.12515,0.13662,-0.08043
0.12213,0.99174,-0.03919,0.11177,0.23246,-0.16154
0.11438,0.99283,-0.0346,0.10205,0.18182,-0.16358
0.1073,0.99372,-0.03154,0.05617,0.04865,0.03469
0.10156,0.99442,-0.02839,0.01488,0.06074,0.19337
0.09442,0.9952,-0.02546,-0.00182,0.15563,0.20833
0.08606,0.996,-0.024,-0.13666,0.23362,0.19995
0.0797,0.99645,-0.02719,-0.21139,0.21226,0.02969
0.07571,0.99643,-0.03735,-0.15449,0.22176,0.0446
0.07403,0.99586,-0.05264,-0.08098,0.07254,0.01356
0.0746,0.99451,-0.07337,-0.05828,-0.01511,0.00505
0.07661,0.9921,-0.09928,-0.01983,-0.0245,0.01224
0.07879,0.98928,-0.12292,0.09053,0.00811,-0.06201
0.07989,0.98635,-0.14399,0.06974,0.07812,0.00139
0.08021,0.98273,-0.16676,0.0158,0.06644,0.0313
0.08187,0.978,-0.19184,-0.18986,-0.04861,0.05591
0.08527,0.97225,-0.21784,-0.18306,-0.05114,0.07787
0.08993,0.96628,-0.24129,-0.12838,-0.08413,0.10164
0.09792,0.95972,-0.26333,0.05258,0.19052,-0.01775
0.11174,0.95177,-0.28573,-0.01764,0.13302,0.01852
0.12763,0.94327,-0.30652,-0.1372,-0.03923,0.0243
0.13749,0.93639,-0.32291,-0.11242,-0.15248,0.08995
0.14051,0.93202,-0.33405,-0.08099,-0.10042,0.06684
0.14283,0.92889,-0.34171,-0.07654,-0.04428,0.05293
0.14694,0.92571,-0.34853,-0.05221,-0.06369,0.00277
0.14952,0.92381,-0.35244,0.0166,-0.11598,0.04072
0.14797,0.92379,-0.35316,0.01691,-0.13651,0.04876
0.14274,0.92603,-0.34941,-0.10334,-0.04809,-0.04106
0.13517,0.93044,-0.3406,-0.09148,-0.01687,-0.07639
0.12793,0.93436,-0.33256,-0.04534,-0.00605,-0.13724
0.12506,0.93717,-0.32569,0.10773,-0.14067,-0.17539
0.12616,0.93901,-0.3199,0.1752,-0.32907,-0.0802
0.12637,0.94101,-0.3139,0.14057,-0.3677,0.09329
0.12289,0.94371,-0.30709,-0.23525,0.02269,0.15011
0.11338,0.94687,-0.30097,-0.28364,0.19046,0.24404
0.10601,0.94925,-0.2961,-0.2575,0.42587,0.31791
0.10971,0.9518,-0.28642,0.10181,0.06445,0.15823
0.11713,0.95478,-0.27328,0.06807,-0.0851,0.19549
0.12134,0.95768,-0.26102,0.06385,-0.088,0.18323
0.12444,0.96001,-0.25077,0.03481,-0.13822,0.12926
0.12774,0.96265,-0.23874,0.02282,-0.13519,0.15316
0.12854,0.96617,-0.22358,0.02201,-0.13872,0.13801
0.12774,0.96984,-0.20758,-0.06185,0.08705,-0.02249
0.12945,0.97229,-0.19467,-0.05328,-0.06881,0.00261
0.13545,0.97324,-0.18561,-0.07302,-0.14437,0.03664
0.14163,0.9741,-0.17624,-0.11839,-0.18724,0.11528
0.14478,0.97577,-0.16407,-0.06268,-0.15072,0.1128
0.14608,0.9781,-0.14822,0.0222,-0.10007,0.10503
0.14762,0.98011,-0.13262,0.11107,-0.02245,0.14222
0.14938,0.98163,-0.11868,-0.03265,0.06926,0.06311
0.14924,0.98308,-0.10616,-0.05971,0.09063,0.01662
0.14691,0.98438,-0.09703,0.05315,0.10403,0.0482
0.14377,0.98551,-0.09002,0.14886,0.11773,0.04296
0.14118,0.98665,-0.08114,0.15419,0.03813,-0.00205
0.13956,0.9877,-0.07043,0.13295,0.07219,-0.02085
0.13663,0.9888,-0.05998,0.09903,0.12185,-0.07097
0.13306,0.98974,-0.05194,0.09543,0.13956,-0.10582
0.12794,0.99067,-0.04683,0.11672,0.1561,-0.10659
0.1211,0.99167,-0.04384,0.05693,0.12189,-0.04463
0.11344,0.99267,-0.04174,-0.05931,0.0155,0.12291
0.10655,0.99344,-0.04146,-0.06997,0.0285,0.25706
0.0995,0.99413,-0.0425,-0.13008,0.13203,0.18257
0.09493,0.99458,-0.04227,-0.13463,0.15524,0.15245
0.09297,0.99472,-0.04345,-0.25929,0.20464,-0.05947
0.09243,0.99436,-0.05191,-0.17363,0.17345,0.03369
0.09134,0.99339,-0.06951,-0.0838,0.10425,0.03417
0.09115,0.99148,-0.093,0.00098,-0.00491,0.04943
0.09333,0.98891,-0.11549,0.03669,-0.00548,-0.03839
0.09789,0.98597,-0.13523,0.01927,0.03756,-0.09813
0.10343,0.98216,-0.15705,-0.04224,0.15638,-0.06585
0.10881,0.97719,-0.18237,-0.07791,0.12028,-0.02562
0.11424,0.97128,-0.20871,-0.10029,0.06561,0.01219
0.11792,0.96472,-0.2354,-0.10948,-0.10432,0.03223
0.12041,0.95772,-0.2613,-0.06646,-0.05829,0.06359
0.12512,0.95057,-0.28419,-0.06566,-0.03881,0.0865
0.13148,0.94313,-0.3053,-0.1207,0.04727,0.01621
0.1351,0.93628,-0.32422,-0.16918,-0.06081,0.09377
0.1356,0.93156,-0.33735,-0.16967,-0.05609,0.1069
0.13514,0.9281,-0.34694,-0.13007,-0.11805,0.04818
0.13638,0.92513,-0.35429,-0.12454,-0.03744,0.00439
0.13829,0.92347,-0.35789,-0.12645,-0.03577,0.00798
0.13837,0.9229,-0.35931,-0.029,-0.08512,-0.00225
0.13601,0.9238,-0.35791,-0.05311,-0.13477,0.05574
0.13275,0.92688,-0.3511,-0.04984,-0.13785,0.04893
0.13029,0.93159,-0.33936,-0.07165,-0.08584,-0.18072
0.12891,0.93639,-0.32644,-0.00939,-0.11986,-0.23631
0.12953,0.9404,-0.31443,-0.01,-0.12387,-0.24831
0.13116,0.94343,-0.30453,0.18685,-0.31596,-0.12475
0.13303,0.94544,-0.29738,0.00796,-0.12644,0.09142
0.13202,0.94712,-0.29245,-0.14905,-0.00798,0.09329
0.12386,0.94935,-0.28879,-0.40496,0.34574,0.228
0.11887,0.95159,-0.28345,-0.32978,0.65354,0.18265
0.12847,0.95554,-0.26542,0.15316,0.19792,0.16289
0.14014,0.95853,-0.24813,-0.09,-0.12528,0.25314
0.14859,0.96151,-0.23113,-0.08362,-0.1811,0.23032
0.15367,0.96455,-0.21455,-0.10992,-0.1776,0.19041
0.15453,0.96754,-0.19996,-0.1715,-0.06002,0.16031
0.15177,0.97063,-0.18666,-0.11324,0.21196,-0.03652
0.15513,0.97298,-0.17101,-0.07289,0.21417,-0.08758
0.16915,0.97314,-0.15613,0.19726,-0.06996,0.0332
0.18887,0.97131,-0.1445,0.13925,-0.1309,0.02172
0.20588,0.96974,-0.13124,-0.05488,-0.10267,0.04875
0.2138,0.97003,-0.11546,-0.09602,-0.00633,0.03753
0.21261,0.97178,-0.10216,-0.07235,0.02833,0.03124
0.20988,0.97349,-0.09092,-0.00742,0.05576,0.0717
0.20908,0.97472,-0.07873,0.0103,-0.01832,0.03429
0.21054,0.97523,-0.06777,0.05224,-0.09318,-0.03096
0.21197,0.97549,-0.05905,0.03486,-0.09779,-0.01794
0.21136,0.9761,-0.05053,0.02382,0.02497,0.03241
0.20852,0.9771,-0.04243,0.01487,0.0446,0.00471
0.20544,0.97804,-0.03494,0.01419,0.00574,-0.03593
0.20259,0.97888,-0.02723,0.06105,-0.09508,-0.02328
0.19868,0.97987,-0.01949,0.02123,-0.071,-0.04433
0.19271,0.98119,-0.01158,0.0318,0.00426,-0.07358
0.18469,0.98279,-0.00412,0.11141,0.18153,-0.12285
0.17622,0.98435,0.0031,0.17449,0.15073,-0.17348
0.16836,0.98568,0.00972,0.1818,0.15574,-0.19909
0.16067,0.98687,0.01616,0.13392,0.1606,-0.16786
0.15269,0.98801,0.02272,0.07681,0.15873,-0.04869
0.14588,0.9889,0.02818,0.08362,0.15784,-0.05415
0.13875,0.98976,0.03354,-0.37613,0.41176,0.19328
0.1312,0.9907,0.03607,-0.27866,0.27345,0.18781
0.12408,0.99167,0.03463,-0.27154,0.27248,0.18924
0.11784,0.99268,0.02642,-0.00061,-0.00563,-0.01876
0.11744,0.99299,0.01341,0.02096,-0.07148,-0.04647
0.12274,0.99244,-0.0013,0.01566,-0.07093,-0.03175
0.13045,0.99128,-0.01838,-0.13354,0.04117,-0.10408
0.13697,0.98984,-0.03813,-0.12957,0.09341,-0.112
0.14172,0.9881,-0.05977,-0.10703,0.12373,-0.11278
0.14488,0.98596,-0.083,-0.09143,0.03641,0.027
0.14703,0.98365,-0.10399,-0.24281,-0.22585,0.05274
0.14944,0.98108,-0.12304,-0.26291,-0.1916,0.03977
0.15265,0.97795,-0.14255,-0.23077,-0.06718,0.00703
0.15593,0.97437,-0.16215,-0.1428,0.09201,0.01832
0.15962,0.97057,-0.18033,-0.14517,0.03001,0.05392
0.16184,0.96742,-0.1947,-0.15488,-0.20729,0.11886
0.16028,0.96562,-0.20467,-0.15841,-0.2996,0.11442
0.15529,0.96502,-0.21125,-0.15472,-0.28719,0.074
0.14925,0.96496,-0.21581,-0.17671,-0.18977,0.03717
0.14529,0.96524,-0.21725,-0.18966,-0.20815,-0.0295
0.14313,0.96604,-0.21515,-0.17785,-0.23531,-0.06122
0.14134,0.96746,-0.20988,-0.086,-0.26595,-0.09995
0.13909,0.96937,-0.20243,-0.02851,-0.25301,-0.11287
0.13638,0.97157,-0.19352,-0.01086,-0.25223,-0.13302
0.13401,0.97374,-0.18405,0.01585,-0.26903,-0.12227
0.13378,0.97549,-0.1747,-0.03055,-0.22517,-0.1467
0.13579,0.97654,-0.16712,-0.14436,-0.09519,-0.24666
0.14207,0.97625,-0.16354,-0.10068,0.07529,-0.21227
0.15277,0.97469,-0.16325,-0.04042,0.11557,-0.16541
0.16654,0.97294,-0.16018,-0.16587,0.16825,-0.13469
0.18038,0.97133,-0.15488,-0.09141,0.37258,-0.17477
0.19022,0.97018,-0.15024,-0.32173,0.47379,0.1194
0.1924,0.96902,-0.15483,-0.4744,0.53746,0.10052
0.18932,0.96965,-0.15475,-0.31537,0.03991,0.25405
0.18797,0.97155,-0.14407,-0.21211,-0.18447,0.22329
0.19463,0.9713,-0.13676,-0.17722,-0.16206,0.21738
0.20591,0.96994,-0.1297,-0.17567,-0.07274,0.25396
0.21464,0.96976,-0.11617,-0.25764,0.12115,0.1652
0.2187,0.97111,-0.0955,-0.32261,0.1632,0.09349
0.22607,0.97105,-0.07715,-0.22879,0.01197,0.1444
0.23633,0.96939,-0.06655,-0.18598,-0.0414,0.17973
0.24544,0.9679,-0.05404,-0.10773,-0.08135,0.13887
0.25312,0.96677,-0.03589,0.00886,0.04011,0.06912
0.25997,0.96545,-0.01782,-0.00126,0.04312,0.03188
0.26593,0.96399,-0.00281,-0.00267,-0.00311,0.00577
0.26957,0.9629,0.01244,0.006,-0.04517,0.00407
0.27048,0.96235,0.02677,0.00726,0.05492,-0.04647
0.26881,0.96239,0.03918,0.00893,0.05488,-0.05887
0.26535,0.96292,0.04862,-0.00844,0.02696,-0.14623
0.25936,0.96413,0.0564,0.00053,-0.08246,-0.19337
0.25081,0.96586,0.06483,0.00908,-0.08419,-0.20181
0.24088,0.96779,0.07317,0.02167,-0.03557,-0.21424
0.22958,0.96991,0.08098,0.05727,-0.00037,-0.23977
0.21748,0.97208,0.08806,0.05808,0.03588,-0.24746
0.20638,0.97389,0.09458,0.03484,0.03838,-0.1825
0.19768,0.97508,0.10072,0.09065,0.01308,-0.05467
0.19183,0.97577,0.10519,0.1016,0.0523,-0.0157
0.19078,0.97594,0.10556,0.02014,0.20717,0.04595
0.19369,0.97611,0.09844,-0.33077,0.18829,0.10368
0.1999,0.97603,0.08611,-0.42689,0.20623,0.18945
0.20856,0.97582,0.06545,-0.59449,0.32805,0.27668
0.21577,0.97587,0.03339,-0.43234,0.2985,0.05598
0.21841,0.97585,0.00505,-0.37044,0.31483,0.01655
0.21669,0.97614,-0.01432,-0.14725,0.32164,-0.01119
0.21256,0.97667,-0.0305,-0.07349,0.13517,-0.04138
0.20902,0.97677,-0.04728,-0.0374,0.1077,-0.03468
0.20581,0.97662,-0.0621,-0.05382,0.12798,-0.01495
0.20094,0.9767,-0.0753,-0.1447,0.14137,-0.02511
0.19468,0.97679,-0.08937,-0.21508,0.09554,-0.02695
0.18893,0.9767,-0.10179,-0.10908,-0.23291,0.01616
0.18412,0.97679,-0.10948,-0.07575,-0.33889,-0.01838
0.17771,0.97757,-0.11298,-0.06856,-0.4063,-0.06064
0.16938,0.97896,-0.11382,-0.11623,-0.31508,-0.13193
0.15974,0.98052,-0.11426,-0.11239,-0.28695,-0.14804
0.15043,0.9819,-0.11509,-0.08832,-0.34346,-0.17062
0.14279,0.98298,-0.11561,-0.03909,-0.33575,-0.23263
0.13769,0.98393,-0.11368,-0.01831,-0.31901,-0.28825
0.13469,0.98479,-0.10975,0.0273,-0.26439,-0.38175
0.1333,0.98548,-0.10519,0.0656,-0.23389,-0.4356
0.13291,0.98605,-0.10018,0.06286,-0.17723,-0.38222
0.13191,0.98655,-0.09652,0.06682,-0.11512,-0.35695
0.13165,0.98689,-0.09337,-0.08096,0.19506,-0.34598
0.13678,0.98633,-0.09189,-0.17092,0.30291,-0.40517
0.14764,0.98466,-0.09301,-0.20657,0.24961,-0.39747
0.15909,0.98262,-0.0956,-0.30791,0.22464,-0.08604
0.16445,0.98136,-0.09947,-0.50434,0.45334,0.40085
0.15876,0.98065,-0.11455,-0.58616,0.80652,0.49464
0.14484,0.98319,-0.11122,-0.23024,-0.13478,0.20036
0.13557,0.98548,-0.1022,-0.12032,-0.30593,0.27579
0.14138,0.98445,-0.1043,-0.04982,-0.20818,0.25488
0.15252,0.983,-0.10225,0.09079,0.13997,0.14424
0.15616,0.98376,-0.08851,-0.09531,0.34461,-0.01249
0.15288,0.98584,-0.06894,-0.1188,0.18875,0.0057
0.15553,0.98615,-0.05762,0.04012,0.03315,0.06736
0.1649,0.98497,-0.05134,0.04155,-0.25284,0.06936
0.1746,0.98398,-0.03613,-0.00439,-0.26036,-0.01683
0.1796,0.9836,-0.01675,0.01347,-0.13371,-0.1488
0.18047,0.98357,-0.00392,0.13,0.03504,-0.08754
0.18242,0.98321,0.00383,0.12805,0.0354,-0.09529
0.18667,0.98235,0.01166,0.08179,-0.09608,-0.09395
0.1893,0.9817,0.0209,0.07052,-0.04542,-0.13705
0.18861,0.9816,0.02969,0.06562,0.00375,-0.1554
0.18535,0.98198,0.03678,0.10089,0.10473,-0.19582
0.18011,0.98273,0.04251,0.11615,0.10529,-0.1797
0.17427,0.98354,0.0478,0.122,0.10448,-0.18499
0.16767,0.98438,0.05372,0.09606,0.0695,-0.28547
0.15896,0.98548,0.05968,0.17818,0.19004,-0.27509
0.14911,0.98669,0.06492,0.18176,0.19772,-0.23512
0.14004,0.98768,0.06984,0.03777,0.21705,-0.25103
0.13027,0.98873,0.0738,-0.03032,0.16467,-0.14254
0.11909,0.98991,0.07681,0.01316,0.14634,-0.03853
0.10828,0.99102,0.07848,0.01806,0.34881,0.22298
0.10112,0.99179,0.0783,-0.18463,0.35328,0.16541
0.09638,0.99254,0.07467,-0.28246,0.29619,0.10667
0.09139,0.99378,0.06355,-0.10088,0.21203,-0.04153
0.08525,0.99525,0.04687,-0.03221,0.24759,-0.02642
0.08078,0.99642,0.02477,-0.00201,0.24158,-0.01003
0.08254,0.99658,-0.00293,0.10339,0.09833,-0.12425
0.08879,0.99551,-0.03275,0.0962,0.05884,-0.08917
0.09387,0.99366,-0.06185,0.05965,0.04629,-0.0617
0.09671,0.99122,-0.09013,-0.09884,0.00812,-0.1256
0.09926,0.98767,-0.12106,-0.20146,0.0669,-0.04668
0.1032,0.98284,-0.15287,-0.22127,0.03766,0.05567
0.10988,0.97753,-0.1799,-0.16846,-0.10842,0.00519
0.11825,0.97278,-0.1993,-0.0055,-0.15863,-0.01915
0.12805,0.96896,-0.21146,0.01758,-0.17639,-0.01173
0.13583,0.96594,-0.22024,0.02194,-0.24495,-0.03202
0.13928,0.96348,-0.2287,-0.00949,-0.10238,-0.06608
0.13817,0.96126,-0.23849,-0.14908,0.09149,-0.09456
0.13276,0.96012,-0.24604,-0.18186,0.11313,-0.11054
0.12772,0.96133,-0.24398,-0.08689,-0.03918,-0.10797
0.1266,0.9635,-0.2359,-0.01296,-0.1128,-0.15355
0.12603,0.965,-0.22999,0.02824,-0.05379,-0.28704
0.12492,0.96609,-0.22599,0.03743,-0.30816,-0.23173
0.12306,0.96768,-0.22011,0.08338,-0.47468,-0.20604
0.12026,0.97096,-0.20682,0.0411,-0.59811,0.13366
0.11469,0.97334,-0.19862,-0.31469,-0.26227,0.15617
0.10711,0.97355,-0.20178,-0.43766,0.09543,0.32647
0.10026,0.97373,-0.20445,0.03472,0.82496,0.39492
0.10168,0.97597,-0.19272,0.19723,0.4449,0.17055
0.1099,0.97854,-0.17429,0.03573,-0.28151,0.03613
0.11625,0.98013,-0.1607,0.06043,-0.15019,0.13272
0.12154,0.98132,-0.1491,0.0628,-0.14691,0.13006
0.12535,0.98299,-0.13422,-0.02854,-0.13694,0.07286
0.1228,0.98537,-0.11814,-0.01886,0.10404,0.01522
0.11687,0.98778,-0.10307,0.01095,0.20419,-0.02021
0.11488,0.98945,-0.08826,0.04211,0.1132,0.03796
0.1158,0.99042,-0.07516,0.04031,-0.10413,0.0693
0.11554,0.99145,-0.06067,-0.08556,-0.12817,0.0498
0.1131,0.9926,-0.04413,-0.0707,-0.11824,-0.0163
0.10818,0.99371,-0.02894,0.02931,-0.05819,-0.03054
0.10371,0.99449,-0.01541,0.10581,-0.05009,0.07748
0.10153,0.99483,-0.00214,0.09523,-0.08745,0.04002
0.09945,0.99498,0.01122,0.08843,-0.06819,-0.02431
0.09541,0.99516,0.02344,0.15327,0.14693,-0.09044
0.09012,0.99538,0.03308,0.13454,0.22039,-0.11901
0.08604,0.99536,0.04294,0.12818,0.21888,-0.12879
0.08303,0.99517,0.05229,0.09258,0.06145,-0.16953
0.07925,0.99509,0.0592,0.05637,0.0617,-0.25043
0.0723,0.99536,0.0634,0.02945,-0.00258,-0.17878
0.06379,0.99582,0.06541,0.03869,0.03662,-0.01026
0.05552,0.99639,0.06423,0.12809,0.19157,0.18954
0.04773,0.99699,0.06111,-0.16267,0.22733,-0.00971
0.04154,0.99746,0.05787,-0.23699,0.25126,-0.01824
0.03676,0.9982,0.04726,-0.24604,0.22995,0.02162
0.03388,0.99892,0.03174,-0.066,-0.00722,-0.05235
0.03276,0.99939,0.0116,0.0579,0.01264,-0.09157
0.0359,0.99923,-0.01549,0.12844,0.05573,-0.08999
0.04418,0.99803,-0.04439,0.10823,0.08694,-0.063
0.0514,0.99605,-0.07235,0.03693,0.07142,-0.0684
0.05346,0.9938,-0.09746,-0.0221,0.069,-0.03388
0.05428,0.9912,-0.12074,-0.13948,-0.04402,-0.03626
0.05803,0.98769,-0.14528,-0.09792,-0.09898,-0.04122
0.06706,0.98291,-0.17145,-0.06115,-0.08648,-0.01798
0.08048,0.97711,-0.19692,0.02646,-0.11815,-0.04251
0.09354,0.97125,-0.2189,0.00619,-0.26019,0.07246
0.10122,0.96569,-0.23916,-0.00149,-0.25463,0.09272
0.10156,0.9594,-0.2631,-0.06293,-0.22476,0.01291
0.09886,0.95346,-0.28486,-0.12357,-0.08177,-0.0752
0.09932,0.94907,-0.299,-0.12679,-0.09825,-0.05595
0.10326,0.94621,-0.30662,-0.16862,-0.14418,-0.04289
0.10483,0.94412,-0.31247,0.03546,-0.07666,0.00171
0.1015,0.94434,-0.31292,0.03879,-0.07688,0.00216
0.09571,0.94723,-0.30593,0.02056,0.10575,-0.16649
0.0906,0.95103,-0.29551,0.02125,0.13634,-0.30395
0.08718,0.95415,-0.28635,0.06836,0.06715,-0.33677
0.08546,0.95701,-0.27716,0.17501,-0.13022,-0.12868
0.08446,0.95985,-0.26747,0.1941,-0.0724,-0.16963
0.08037,0.96239,-0.25952,0.03767,0.07762,-0.08167
0.07063,0.9665,-0.24674,-0.08227,0.02364,0.05711
0.05943,0.97256,-0.22494,-0.08551,-0.19256,0.11053
0.05302,0.97807,-0.20141,-0.08926,-0.25593,0.18472
0.05113,0.98166,-0.18367,-0.09416,-0.13359,0.34761
0.05016,0.98364,-0.17302,-0.02917,0.61228,0.08501
0.0522,0.98556,-0.16107,-0.03121,0.61036,0.07305
0.05932,0.98827,-0.1407,0.1955,-0.24537,-0.04905
0.06615,0.98996,-0.12487,0.17834,-0.29958,0.10795
0.07121,0.99132,-0.11051,0.10118,-0.25706,0.08103
0.07331,0.99266,-0.09614,-0.0052,-0.07138,-0.03432
0.07126,0.99394,-0.08363,0.04442,0.13139,-0.07553
0.07104,0.99515,-0.06805,0.06268,0.07161,-0.03368
0.07729,0.99554,-0.05411,0.09551,-0.18458,0.04567
0.0846,0.99549,-0.04278,0.06736,-0.21786,0.03675
0.08765,0.99561,-0.03262,0.06134,-0.18464,-0.00379
0.08507,0.99613,-0.02198,0.04696,-0.09833,-0.01788
0.08078,0.99668,-0.01023,0.00512,-0.0996,0.00854
0.07785,0.99696,0.00062,0.02852,-0.09767,0.01083
0.07611,0.99704,0.01078,0.11768,-0.05752,-0.07331
0.07562,0.9969,0.02175,0.14222,-0.01107,-0.13755
0.07393,0.99674,0.03219,0.18782,0.07737,-0.13461
0.06987,0.9966,0.04355,0.21611,0.20143,-0.09967
0.06397,0.9964,0.05563,0.20145,0.21054,-0.12834
0.0561,0.99621,0.06637,0.17847,0.21462,-0.15978
0.0482,0.99601,0.07504,0.09094,0.14815,-0.24222
0.04132,0.99582,0.08137,0.0744,0.05857,-0.1122
0.03489,0.99566,0.08624,0.04197,0.02785,-0.03046
0.02782,0.99557,0.0898,0.1099,0.1912,0.22565
0.02185,0.99584,0.08839,-0.09304,0.32244,0.04431
0.02213,0.99621,0.08407,-0.13799,0.32546,0.03893
0.02315,0.99704,0.07331,-0.38924,0.26067,-0.05197
0.0237,0.9983,0.05311,-0.16972,0.09545,-0.05647
0.02294,0.99934,0.02793,-0.08277,0.02159,-0.01842
0.02443,0.9997,-0.00072,0.07671,0.08766,-0.08627
0.03009,0.99913,-0.02863,0.10317,0.24232,-0.2057
0.0395,0.99754,-0.05792,0.05623,0.31733,-0.14281
0.05066,0.99459,-0.09068,0.00261,0.15133,-0.03983
0.06192,0.99029,-0.12443,-0.08873,0.04796,0.01252
0.07245,0.98491,-0.15717,-0.17782,-0.04915,0.0171
0.08407,0.97959,-0.18256,-0.19239,-0.1843,0.03787
0.09803,0.97448,-0.20191,-0.17354,-0.16552,0.02021
0.11023,0.9695,-0.2189,-0.14805,-0.18498,0.01947
0.11902,0.96404,-0.23761,-0.09203,-0.1675,0.0728
0.12663,0.95824,-0.25641,-0.0865,-0.1131,0.03049
0.13613,0.95324,-0.26981,-0.04641,-0.1458,0.02044
0.14707,0.94998,-0.2755,-0.00346,-0.18843,-0.0239
0.15664,0.94804,-0.27691,-0.02339,-0.22627,-0.07099
0.16004,0.94783,-0.27568,-0.02338,-0.22128,-0.0741
0.15554,0.94964,-0.27201,0.0244,-0.09704,-0.13333
0.14803,0.9526,-0.26575,0.00889,-0.0388,-0.16532
0.14068,0.95581,-0.25814,0.00302,-0.03157,-0.16804
0.13522,0.95929,-0.24794,0.02958,-0.16194,-0.26843
0.13137,0.96316,-0.23463,0.0773,-0.19217,-0.18435
0.12613,0.96646,-0.22369,0.10808,-0.07706,0.00661
0.11198,0.96894,-0.22047,-0.11232,0.18636,0.02609
0.09474,0.97066,-0.22101,-0.16455,0.4532,0.12738
0.09009,0.97492,-0.20347,-0.1599,0.44894,0.10985
0.09728,0.97807,-0.18416,0.12275,-0.25158,0.0486
0.10278,0.97968,-0.17221,-0.01559,-0.18783,0.17317
0.10351,0.981,-0.16409,-0.01632,-0.18914,0.16506
0.10102,0.98267,-0.15538,-0.04831,0.06803,-0.00334
0.09616,0.98505,-0.1429,0.00174,0.01769,-0.01063
0.09426,0.9869,-0.13088,0.06022,0.03708,-0.04026
0.09779,0.98801,-0.11943,0.14246,0.04948,-0.09934
0.10513,0.98855,-0.10824,0.11589,-0.14783,-0.03667
0.11274,0.98885,-0.09725,0.10828,-0.14814,-0.04767
0.11841,0.98947,-0.08317,0.01415,-0.19516,0.03909
0.12138,0.99028,-0.06788,0.00945,-0.03831,0.02047
0.12135,0.99116,-0.05363,0.02103,0.01377,-0.00299
0.12118,0.99177,-0.04131,0.00339,-0.00868,0.02249
0.12106,0.99215,-0.03116,0.01586,-0.08572,0.00503
0.11944,0.99259,-0.02247,0.01341,-0.0932,-0.00078
0.11614,0.99311,-0.01512,0.1206,0.00585,-0.02435
0.1133,0.99353,-0.00776,0.19208,0.05678,-0.09468
0.11099,0.99382,0.00154,0.16345,0.08081,-0.11399
0.10859,0.99403,0.01074,0.14219,0.11978,-0.13441
0.10415,0.99437,0.01953,0.16224,0.15375,-0.13285
0.09804,0.9948,0.02767,0.14845,0.15897,-0.17713
0.09036,0.99526,0.03582,0.09008,0.12971,-0.16241
0.08177,0.99573,0.04269,-0.00832,0.12666,-0.16634
0.07327,0.99614,0.0483,-0.07222,0.12083,-0.10227
0.06545,0.99653,0.05133,0.07208,0.08083,0.16623
0.05858,0.99696,0.0513,-0.0329,0.1836,0.11072
0.05527,0.99727,0.04884,-0.06453,0.21707,0.02465
0.05292,0.99769,0.04249,-0.20889,0.15966,-0.04959
0.04986,0.9983,0.03022,-0.13839,0.07102,0.03771
0.04716,0.99882,0.01105,-0.0862,0.08241,0.01431
0.04656,0.99883,-0.01273,0.02523,0.08183,-0.0019
0.04963,0.99813,-0.03559,0.06915,0.09663,-0.10921
0.05484,0.99679,-0.05825,-0.01743,0.12351,-0.17437
0.05842,0.99477,-0.08379,-0.0431,0.09585,-0.09751
0.06032,0.99194,-0.1114,-0.07008,0.00826,-0.04151
0.06124,0.98817,-0.14058,-0.05938,-0.06665,-0.02601
0.06366,0.98366,-0.16838,-0.0158,-0.07799,0.00942
0.07173,0.9789,-0.19133,0.01331,-0.07182,-0.01349
0.0837,0.97326,-0.21389,0.0032,0.00754,-0.01533
0.09562,0.96703,-0.23603,-0.06956,0.00337,0.00455
0.10401,0.96211,-0.25205,-0.14577,-0.22279,0.02013
0.10864,0.95873,-0.26274,-0.12557,-0.30742,0.01407
0.11171,0.95586,-0.27176,-0.01922,-0.20299,-0.0286
0.1155,0.95252,-0.28169,0.00932,-0.02084,-0.11229
0.11749,0.94932,-0.29152,-0.02696,0.06322,-0.12448
0.11752,0.94711,-0.29862,-0.05967,0.01313,-0.12247
0.11609,0.94679,-0.30017,-0.02314,-0.05702,-0.08333
0.1122,0.94855,-0.29608,-0.0058,-0.02326,-0.17359
0.107,0.95178,-0.28751,0.02377,-0.04004,-0.20289
0.10321,0.95502,-0.278,0.12079,-0.15068,-0.24363
0.10214,0.95845,-0.26635,0.10907,-0.17741,-0.2492
0.10136,0.96066,-0.25857,0.05756,-0.18785,-0.10294
0.09754,0.96183,-0.25568,-0.13099,-0.17887,0.00338
0.08757,0.96587,-0.24377,-0.18364,-0.15769,0.13831
0.07539,0.96965,-0.2326,-0.19318,0.08793,0.22379
0.07376,0.97275,-0.21979,0.04817,0.26017,0.12212
0.08067,0.97555,-0.20441,0.07279,0.21231,0.11482
0.08518,0.97829,-0.18889,0.04681,-0.00196,0.08104
0.08838,0.98052,-0.17538,0.04572,-0.09767,0.05196
0.09056,0.98276,-0.16116,0.02344,-0.20421,0.05934
0.09104,0.98507,-0.14611,0.04943,-0.15823,0.10469
0.0905,0.98724,-0.13104,0.05098,-0.02496,0.0453
0.09148,0.98908,-0.11554,0.01585,0.14643,-0.08589
0.09677,0.99023,-0.10036,0.03954,-0.00392,-0.01678
0.10322,0.99085,-0.08688,-0.01721,-0.13322,0.04519
0.10578,0.99159,-0.0745,-0.03982,-0.12236,0.08038
0.10422,0.99266,-0.06125,0.02937,-0.02347,0.07012
0.10095,0.99372,-0.0482,0.07699,0.03121,0.05307
0.09851,0.99443,-0.03747,0.07839,0.05246,0.04872
0.09784,0.9948,-0.02819,0.03937,-0.09813,-0.00903
0.09795,0.99502,-0.01843,0.05149,-0.08601,-0.02406
0.09585,0.99535,-0.00904,0.06918,-0.08689,-0.03155
0.09121,0.99583,-0.00077,0.14054,0.0048,-0.05032
0.08544,0.9963,0.00881,0.14516,0.0943,-0.08329
0.0786,0.9967,0.02027,0.12238,0.14452,-0.09638
0.07115,0.99694,0.03221,0.17445,0.17838,-0.11762
0.06365,0.99702,0.04358,0.12704,0.17814,-0.16497
0.05583,0.99704,0.0528,0.0696,0.18348,-0.17122
0.04588,0.99719,0.05917,0.04224,0.05591,-0.09624
0.03256,0.99772,0.05901,0.13325,0.13478,0.1777
0.02092,0.99815,0.05708,0.14489,0.13436,0.17963
0.01585,0.9982,0.05774,-0.18066,0.37397,0.03921
0.01196,0.99841,0.05511,-0.3285,0.24975,-0.03457
0.00517,0.999,0.04435,-0.13319,0.06007,-0.0723
-0.00218,0.99967,0.02558,0.06379,0.04313,-0.09449
-0.00454,0.99998,0.00329,0.2243,0.03528,-0.15031
0.00202,0.99976,-0.02183,0.21774,0.03551,-0.12519
0.01267,0.99871,-0.04915,0.08425,0.08492,-0.09191
0.02091,0.99677,-0.07745,-0.05244,-0.00039,-0.11843
0.02568,0.99343,-0.11149,-0.07054,0.04392,-0.042
0.03197,0.98884,-0.14552,-0.12134,0.09745,0.07861
0.04644,0.98389,-0.17264,-0.17044,-0.13733,-0.08619
0.06482,0.97841,-0.19622,-0.18883,-0.13186,-0.06262
0.07894,0.97349,-0.21466,-0.02157,-0.15213,0.0581
0.08683,0.9691,-0.23087,-0.02499,-0.23834,0.02693
0.09047,0.96467,-0.24745,-0.00089,-0.24735,-0.00501
0.09293,0.96022,-0.26333,0.05078,-0.16163,-0.03116
0.09888,0.95605,-0.27603,0.05807,-0.17492,-0.01225
0.10693,0.95241,-0.28545,0.00897,-0.19905,-0.05606
0.11226,0.94905,-0.29444,-0.06651,-0.23236,0.019
0.11272,0.94704,-0.30068,-0.10841,-0.20609,0.00629
0.11142,0.94687,-0.3017,-0.06803,-0.17813,-7e-05
0.11161,0.94811,-0.2977,-0.01762,-0.19674,-0.0746
0.11013,0.9502,-0.29152,-0.04682,-0.03756,-0.20806
0.10793,0.95188,-0.28682,-0.00144,0.00615,-0.22811
0.1073,0.95317,-0.28277,0.18098,-0.08438,-0.27969
0.10814,0.9565,-0.27095,0.2095,-0.1965,-0.11265
0.10536,0.96155,-0.25359,0.16925,-0.20417,-0.08485
0.1008,0.96456,-0.24385,-0.29834,0.22277,-0.07583
0.10228,0.96615,-0.23685,-0.15374,0.4752,0.01408
0.10997,0.96823,-0.22456,0.05908,0.61064,0.12014
0.10823,0.97285,-0.20456,-0.12401,-0.01835,0.18941
0.10194,0.97789,-0.18257,-0.23724,-0.1377,0.27484
0.09909,0.98068,-0.16866,-0.25557,-0.06424,0.24941
0.10006,0.98249,-0.15716,-0.24967,-0.02611,0.04653
0.10464,0.98411,-0.14346,-0.03266,-0.11965,0.00419
0.10875,0.98549,-0.13035,0.00301,-0.08494,-0.02139
0.11202,0.98667,-0.11799,0.10445,0.14743,-0.0521
0.11838,0.9877,-0.10214,0.12014,0.06713,-0.00694
0.12681,0.9883,-0.08473,0.08184,-0.03961,0.02229
0.13362,0.98877,-0.06697,-0.04052,-0.2042,0.02649
0.13585,0.98949,-0.04945,-0.06187,-0.11611,-0.04965
0.13427,0.99029,-0.03597,-0.04383,-0.05967,-0.07511
0.13398,0.99057,-0.02841,0.09644,0.05825,0.0078
0.13904,0.9901,-0.01936,0.10593,-0.04661,0.02021
0.14589,0.98929,-0.00477,0.04822,-0.14923,0.00027
0.14908,0.98877,0.01063,-0.04677,-0.20477,-0.02432
0.14827,0.9887,0.02218,-0.04748,-0.12177,-0.02991
0.14524,0.98893,0.03033,-0.04006,-0.0612,-0.03194
0.14371,0.98883,0.03955,-0.01955,-0.07658,-0.0729
0.14345,0.98833,0.0512,0.0106,-0.1503,-0.07537
0.14066,0.98807,0.0627,0.06122,-0.114,-0.07698
0.13324,0.98838,0.07308,0.06855,-0.05108,-0.1667
0.12148,0.98918,0.08217,0.0542,-0.05013,-0.2217
0.10779,0.99028,0.08793,0.08415,-0.02777,-0.25719
0.09575,0.99097,0.09379,0.22253,-0.07603,-0.25874
0.08703,0.99101,0.10157,0.25937,-0.11642,-0.28571
0.0785,0.99106,0.10785,0.24648,-0.08063,-0.26959
0.06899,0.99111,0.1137,0.19435,0.10721,-0.18673
0.06256,0.99099,0.11837,0.2501,0.11577,-0.15017
0.05983,0.99069,0.12228,0.20042,0.14173,-0.16139
0.06144,0.99041,0.12369,0.07698,0.31138,-0.06225
0.06757,0.99027,0.12164,-0.04731,0.13086,0.14203
0.07475,0.99038,0.1164,-0.13897,0.11644,0.21388
0.08199,0.99101,0.10569,-0.33892,0.17195,0.33825
0.0929,0.99206,0.08479,-0.64423,0.30012,0.18183
0.1041,0.99308,0.0544,-0.59069,0.31735,0.13497
0.11053,0.99362,0.02235,-0.25885,0.27304,0.03267
0.11438,0.99342,-0.00595,0.03652,0.143,0.03661
0.11467,0.99303,-0.02735,0.12694,0.09734,0.06171
0.11406,0.99248,-0.04434,0.0111,0.05014,-0.01292
0.11264,0.99175,-0.0612,-0.06055,0.0164,-0.02608
0.10962,0.99072,-0.08033,-0.08391,0.03316,-0.00722
0.10625,0.98913,-0.10162,-0.08517,0.09495,0.03821
0.10501,0.98691,-0.12236,-0.09358,0.01977,0.0684
0.10565,0.9846,-0.13927,-0.16363,-0.2183,0.0371
0.10753,0.98259,-0.15149,-0.07043,-0.34657,0.01323
0.10716,0.98124,-0.16026,-0.08204,-0.33714,-0.02379
0.10113,0.98083,-0.16657,-0.11015,-0.30267,-0.07409
0.09275,0.98075,-0.1718,-0.08848,-0.26084,-0.09524
0.08552,0.98065,-0.17607,-0.03319,-0.28937,-0.10391
0.08077,0.98046,-0.17935,0.01556,-0.29009,-0.11955
0.07851,0.98056,-0.17982,0.11846,-0.22142,-0.19164
0.07717,0.9815,-0.1752,0.1108,-0.14459,-0.24635
0.07513,0.9829,-0.16812,0.096,-0.13324,-0.29744
0.07231,0.98442,-0.16026,-0.07937,-0.18987,-0.29981
0.07074,0.98573,-0.15273,-0.1129,-0.06439,-0.18113
0.07195,0.98641,-0.14768,-0.14548,0.19819,-0.13809
0.07745,0.98638,-0.14512,-0.12302,0.41196,-0.31787
0.08518,0.98635,-0.14087,-0.1733,0.36461,-0.38098
0.09372,0.98591,-0.13853,-0.14697,0.37809,-0.37331
0.0989,0.98539,-0.13864,-0.02673,0.10244,-0.1927
0.09884,0.98514,-0.14047,-0.21275,0.15768,0.09065
0.09502,0.98504,-0.14377,-0.28535,0.62145,0.27501
0.08555,0.98694,-0.13648,-0.30172,0.30801,0.29641
0.0778,0.98864,-0.12862,-0.18313,-0.47059,0.35374
0.07899,0.98867,-0.12763,-0.18432,-0.47062,0.35276
0.08757,0.98857,-0.12269,-0.07977,-0.32802,0.41597
0.09313,0.99033,-0.10278,-0.22435,0.21656,0.19767
0.09439,0.99239,-0.07909,-0.25967,0.3885,0.15766
0.10496,0.99199,-0.07026,-0.11256,0.26721,0.16953
0.12035,0.99054,-0.06592,-0.05426,-0.16701,0.22326
0.13326,0.9895,-0.05589,-0.05199,-0.20042,0.18027
0.14124,0.98902,-0.0435,0.0788,-0.04247,0.12982
0.14694,0.98866,-0.03094,0.08947,0.02423,0.08852
0.15324,0.98803,-0.01747,0.02782,0.07967,0.01826
0.1593,0.98721,-0.00606,0.00684,-0.02739,-0.00664
0.16253,0.98669,0.00418,0.08913,-0.12327,-0.00335
0.16331,0.98648,0.01344,0.10101,-0.08539,-0.04112
0.16344,0.98631,0.02186,0.12356,-0.05259,-0.10062
0.16225,0.98632,0.02909,0.14347,-0.06212,-0.14281
0.15933,0.98653,0.03687,0.16529,-0.0575,-0.1057
0.15435,0.98703,0.04397,0.14769,-0.02295,-0.16575
0.14759,0.98775,0.05058,0.18586,0.00752,-0.19476
0.13803,0.98879,0.0569,0.13773,0.00787,-0.22408
0.12802,0.98982,0.0621,0.08544,0.084,-0.20416
0.11737,0.99092,0.06556,0.07941,0.02602,-0.17779
0.1069,0.9918,0.06998,0.04163,0.00049,-0.17013
0.09741,0.99242,0.07488,0.01282,0.07925,-0.03429
0.09033,0.99284,0.07814,0.16312,0.12577,-0.03701
0.08791,0.99292,0.07979,0.13969,0.21023,-0.04909
0.08944,0.99302,0.07681,0.02728,0.34383,0.20137
0.09286,0.99338,0.06764,-0.14899,0.15498,0.24847
0.09683,0.99404,0.04996,-0.24375,0.06583,0.30011
0.10277,0.99446,0.02175,-0.34863,0.03291,0.27412
0.11022,0.99374,-0.01816,-0.39475,0.24785,0.02906
0.11701,0.9917,-0.05313,-0.32418,0.35114,-0.02495
0.12359,0.9892,-0.07876,0.06972,0.4788,-0.06687
0.12947,0.98621,-0.10308,0.16112,0.33981,-0.1134
0.13303,0.98237,-0.1313,0.15695,0.33512,-0.03457
0.13708,0.97745,-0.16061,-0.12564,0.12149,-0.01679
0.14184,0.97177,-0.18851,-0.13316,0.14349,-0.0296
0.14551,0.96515,-0.21752,-0.11234,0.08043,-0.00745
0.14796,0.95819,-0.24489,-0.09225,-0.0605,0.01639
0.15039,0.95221,-0.26586,-0.04497,-0.12175,0.11828
0.15373,0.94744,-0.28057,-0.06119,-0.11837,0.16046
0.15599,0.94394,-0.29093,-0.16384,-0.2513,0.0991
0.15495,0.94082,-0.30141,-0.16307,-0.34344,0.07929
0.15498,0.93741,-0.31184,-0.20634,-0.06137,-0.01154
0.1581,0.93417,-0.31987,-0.07479,-0.16982,0.14073
0.16098,0.93036,-0.32941,-0.04512,-0.20716,0.0826
0.16154,0.92711,-0.33819,-0.02547,-0.17554,-0.08963
0.16123,0.92589,-0.34165,-0.02352,-0.07662,-0.18243
0.15803,0.92656,-0.34134,0.083,-0.18208,-0.23522
0.15166,0.9284,-0.33922,0.04962,-0.18121,-0.29177
0.14666,0.9296,-0.33814,0.05527,-0.14867,-0.26134
0.14642,0.92895,-0.34,0.04562,-0.09294,-0.30256
0.15164,0.92709,-0.3428,0.03933,-0.05042,-0.33742
0.16033,0.92476,-0.34513,0.12447,-0.07004,-0.30828
0.16733,0.92444,-0.34265,0.19102,-0.00908,0.13467
0.16234,0.9259,-0.3411,0.04861,0.30132,0.22015
0.14711,0.92306,-0.35541,-0.67923,0.68006,0.16923
0.13942,0.92885,-0.34323,-0.68872,0.25756,0.19687
0.14414,0.93306,-0.32956,-0.29695,-0.17409,0.22345
0.14836,0.93569,-0.32011,0.04876,-0.10573,0.44291
0.14409,0.93809,-0.315,-0.0313,0.24643,0.39741
0.13699,0.94101,-0.30939,-0.12361,0.31019,0.32345
0.13102,0.94509,-0.29938,-0.23202,0.09969,0.15589
0.13267,0.94894,-0.28619,-0.09027,-0.01744,0.19023
0.13939,0.95138,-0.27467,-0.00752,-0.13821,0.22899
0.14965,0.95329,-0.26238,-0.01787,-0.10988,0.08528
0.16008,0.95506,-0.24948,0.05521,-0.0599,0.03955
0.16911,0.95674,-0.23676,0.12239,-0.00489,0.00932
0.17685,0.95883,-0.22217,0.09464,-0.07701,-0.01256
0.18536,0.96094,-0.2055,0.07198,-0.08863,0.00667
0.19077,0.96335,-0.1886,0.06679,-0.07457,0.02807
0.19099,0.96634,-0.17234,-0.06453,-0.03591,0.09144
0.19001,0.96934,-0.15581,-0.13362,-0.09225,0.14545
0.18968,0.9716,-0.14148,-0.12418,-0.14971,0.15785
0.18965,0.9735,-0.12778,0.00412,-0.07268,0.09679
0.18778,0.97575,-0.11247,0.02804,0.04503,0.1028
0.18319,0.97803,-0.09949,0.03364,0.09562,0.075
0.17628,0.98043,-0.08761,0.05253,0.11417,-0.10364
0.16802,0.98297,-0.0744,0.09461,0.09036,-0.16226
0.15784,0.98552,-0.06191,0.14475,0.08586,-0.16821
0.14747,0.98772,-0.05153,0.25015,0.19451,-0.10418
0.13718,0.98965,-0.04218,0.11777,0.28104,-0.10067
0.12503,0.9916,-0.03322,0.02222,0.27903,-0.06044
0.11131,0.9934,-0.02757,-0.12254,0.25701,0.31144
0.09732,0.99495,-0.02453,-0.27089,0.30861,0.22341
0.08604,0.99598,-0.02478,-0.25961,0.30757,0.22366
0.07824,0.99649,-0.0299,-0.08995,0.11939,-0.02013
0.07165,0.99654,-0.0422,-0.01471,0.06355,-0.00803
0.06976,0.99569,-0.06114,0.0041,0.07186,-0.01011
0.07266,0.99368,-0.08551,0.03669,0.0589,0.01729
0.07766,0.99052,-0.11333,0.13432,0.06664,0.00282
0.08222,0.98662,-0.14076,0.06338,0.0783,-0.04849
0.08401,0.98199,-0.16924,-0.10398,0.01214,-0.03173
0.0839,0.97625,-0.19973,-0.16654,-0.0212,0.07794
0.08572,0.96959,-0.22925,-0.14256,-0.12791,0.10307
0.09213,0.9626,-0.25477,-0.08736,-0.03183,0.098
0.10286,0.95591,-0.27504,-0.03861,-0.07925,0.03978
0.11416,0.94948,-0.29232,-0.08397,-0.05632,0.04916
0.12205,0.94333,-0.30859,-0.09291,-0.05792,0.07304
0.12458,0.93863,-0.32165,-0.1021,-0.11398,0.09647
0.12578,0.93486,-0.33197,-0.1133,-0.10317,0.08426
0.13067,0.93155,-0.33932,-0.12251,-0.01399,0.01266
0.13902,0.92919,-0.34245,-0.09334,-0.09928,-0.03721
0.14364,0.92809,-0.34354,-0.06194,-0.12592,-0.04501
0.14667,0.92933,-0.33887,0.03119,-0.11837,0.02351
0.1486,0.93189,-0.33091,0.08556,-0.12335,-0.04644
0.14424,0.93409,-0.3266,-0.00115,-0.02709,-0.14036
0.13867,0.9366,-0.3218,0.08475,-0.07129,-0.20104
0.137,0.939,-0.31544,0.10134,-0.11809,-0.19477
0.13832,0.94057,-0.31015,0.13523,-0.19365,-0.14805
0.13605,0.94228,-0.30594,-0.01905,-0.05744,0.06258
0.12553,0.94466,-0.30307,-0.28307,0.11004,0.11529
0.11106,0.94752,-0.29978,-0.35341,0.14772,0.2348
0.10499,0.95065,-0.29197,-0.06864,0.42353,0.1439
0.11256,0.95442,-0.27643,0.0371,-0.17805,0.22429
0.11925,0.95773,-0.2618,-0.01328,-0.22469,0.30038
0.12367,0.95937,-0.25362,0.02906,0.01906,0.23845
0.12804,0.96118,-0.24443,-0.03001,0.07635,0.15903
0.12792,0.96458,-0.23069,-0.01045,-0.00743,0.16387
0.12724,0.96786,-0.21691,0.00853,-0.00036,0.07867
0.1305,0.97022,-0.20406,-0.01656,0.01618,-0.02982
0.13732,0.97172,-0.19208,-0.01099,0.00679,-0.04028
0.14391,0.97279,-0.18157,-0.0253,-0.0885,0.03353
0.14597,0.97433,-0.17136,-0.053,-0.12707,0.07397
0.14416,0.97684,-0.15814,-0.04391,-0.10754,0.07994
0.14094,0.9796,-0.14321,0.02745,-0.06429,0.0651
0.13912,0.98177,-0.12948,0.05735,-0.05324,0.10314
0.14002,0.98332,-0.11603,0.03768,-0.08344,0.10787
0.14257,0.98454,-0.10178,-0.01736,-0.094,0.09613
0.14452,0.98555,-0.08837,0.0247,-0.00956,0.07666
0.14455,0.98658,-0.07587,0.10504,0.09168,0.10583
0.14348,0.9876,-0.06377,0.10159,0.17003,0.06706
0.14141,0.98853,-0.05306,0.05653,0.21914,-0.07406
0.13637,0.98974,-0.04256,0.0991,0.27488,-0.08564
0.12867,0.99116,-0.03233,0.22621,0.24468,-0.14504
0.11913,0.99261,-0.02283,0.22041,0.2173,-0.15284
0.10951,0.99388,-0.01456,-0.00314,0.17908,-0.17321
0.10117,0.99485,-0.00642,-0.09033,0.04669,-0.0203
0.09197,0.99576,-0.00137,0.08332,0.08003,0.24824
0.08009,0.99679,0.00048,0.0593,0.17779,0.31804
0.07243,0.99737,0.00051,-0.06744,0.23209,0.06869
0.06902,0.9976,-0.00482,-0.29611,0.18428,-0.00846
0.06718,0.99753,-0.02055,-0.20225,0.12707,0.03813
0.06647,0.99692,-0.04167,-0.04701,0.00668,0.03779
0.06754,0.99562,-0.06469,0.07566,0.01456,0.03096
0.07215,0.99347,-0.08842,0.10281,0.05252,-0.02338
0.0791,0.99031,-0.11413,-0.06878,0.09572,-0.08198
0.08165,0.98626,-0.14358,-0.08444,0.03591,0.00837
0.07953,0.98138,-0.17482,-0.08576,-0.04959,0.08077
0.07917,0.97556,-0.20499,-0.11454,-0.09792,0.10863
0.08482,0.96884,-0.2327,-0.10452,-0.06204,0.07491
0.09377,0.96147,-0.25844,-0.07973,-0.08991,0.05779
0.10172,0.95427,-0.2811,-0.0227,-0.03188,0.05606
0.10549,0.94894,-0.29729,-0.06185,-0.05827,0.07225
0.10312,0.94515,-0.30993,-0.16931,-0.0823,0.10506
0.09691,0.94245,-0.32,-0.15378,0.0525,0.07119
0.09422,0.94024,-0.32721,-0.12385,0.05577,0.00812
0.09458,0.93905,-0.33052,-0.06008,-0.0145,0.00391
0.09565,0.93956,-0.32875,0.06405,-0.09755,-0.02128
0.0943,0.94165,-0.3231,0.10701,-0.10714,-0.03245
0.08856,0.94432,-0.31689,0.07581,-0.071,-0.08118
0.08392,0.94729,-0.3092,-0.00668,0.01486,-0.17769
0.08403,0.94904,-0.30374,0.07296,-0.08582,-0.19985
0.08591,0.94994,-0.30038,0.13118,-0.16987,-0.16082
0.08493,0.95124,-0.29654,0.14189,-0.27555,0.05205
0.07884,0.95377,-0.29001,-0.10653,-0.12957,0.14799
0.07107,0.95759,-0.27922,-0.18796,-0.02563,0.25761
0.06492,0.96024,-0.27153,-0.10884,0.48352,0.33267
0.06825,0.96311,-0.26032,-0.00357,-0.06543,0.12314
0.0765,0.96701,-0.24296,-0.01182,-0.06934,0.10578
0.08431,0.9692,-0.23139,0.06427,-0.06799,0.06446
0.09098,0.97066,-0.22258,0.02882,-0.24295,0.10435
0.09598,0.97273,-0.21113,0.02382,-0.24503,0.0929
0.0983,0.97506,-0.19899,0.0857,0.09167,0.01618
0.10096,0.97745,-0.18549,0.09208,0.24149,-0.05911
0.10758,0.97939,-0.17094,0.08546,0.23954,-0.07365
0.11792,0.98041,-0.15779,0.02838,-0.12286,0.04652
0.12561,0.98115,-0.14683,-0.10111,-0.25062,0.07751
0.12753,0.98282,-0.13344,-0.11087,-0.22013,0.12567
0.12644,0.98509,-0.11665,0.0194,0.01917,0.12257
0.12526,0.98714,-0.09932,0.00272,0.09915,0.13513
0.12709,0.98823,-0.0851,-0.04555,0.08145,0.10493
0.131,0.9886,-0.07416,-0.03216,-0.04125,0.07945
0.13226,0.98917,-0.06364,-0.01044,-0.04297,0.06494
0.12874,0.99025,-0.05321,0.06561,0.00261,0.058
0.12221,0.99155,-0.04356,0.175,0.14282,-0.0111
0.11622,0.9927,-0.03232,0.16397,0.14827,-0.07014
0.11177,0.99349,-0.02195,0.1568,0.16804,-0.07695
0.10735,0.99413,-0.01308,0.10661,0.17753,-0.11579
0.10137,0.99483,-0.00518,0.04629,0.17892,-0.14977
0.09313,0.99565,0.00184,0.04431,0.16606,-0.136
0.08369,0.99646,0.00703,0.08693,0.08856,0.2528
0.07391,0.99722,0.00901,0.059,0.11104,0.28878
0.06612,0.99778,0.00819,-0.10791,0.19412,0.08413
0.06296,0.99799,0.00694,-0.26526,0.19381,0.02211
0.0597,0.99821,-0.00099,-0.27162,0.12418,0.04874
0.0571,0.9982,-0.0182,-0.12779,0.09409,0.08913
0.05481,0.9976,-0.04228,-0.0015,0.0109,0.10568
0.05501,0.99618,-0.06772,0.0642,0.0235,0.00271
0.05917,0.99393,-0.0927,0.00693,0.14894,-0.07372
0.06603,0.99066,-0.11928,-0.05227,0.23111,-0.04692
0.07172,0.9861,-0.14985,-0.07401,0.205,0.01154
0.07536,0.98037,-0.18217,-0.12144,0.16167,0.05168
0.07861,0.97425,-0.21129,-0.14712,-0.08371,0.0868
0.08477,0.96772,-0.23733,-0.07277,-0.11376,0.08458
0.09468,0.96003,-0.2634,0.01081,-0.06753,0.04492
0.10799,0.95163,-0.28765,-0.03683,-0.06991,0.07003
0.12016,0.94407,-0.30708,-0.12282,-0.08739,0.04879
0.12631,0.93814,-0.32238,-0.10387,-0.13411,0.10534
0.13019,0.93327,-0.33474,-0.1073,-0.10615,0.05822
0.13662,0.92884,-0.34436,-0.13953,-0.08804,0.02801
0.1433,0.92518,-0.35142,-0.16071,-0.06711,0.01144
0.14591,0.92366,-0.35435,-0.06374,-0.13778,0.01689
0.1457,0.92498,-0.35098,0.01574,-0.15993,-0.02272
0.14373,0.92872,-0.34178,0.06719,-0.17051,-0.04575
0.1384,0.93302,-0.33215,0.03015,0.01913,-0.14261
0.13284,0.93713,-0.3227,0.09266,0.03568,-0.16883
0.12867,0.93931,-0.31803,0.07215,-0.07565,-0.17068
0.12758,0.9403,-0.31552,0.05838,-0.2716,-0.19387
0.12707,0.94227,-0.30979,0.09222,-0.40059,-0.02816
0.12423,0.94594,-0.2996,0.00585,-0.17127,0.07458
0.11355,0.94848,-0.29577,-0.20718,-0.00889,0.30926
0.09855,0.95078,-0.29377,-0.26467,0.68202,0.32731
0.09214,0.95328,-0.28768,-0.1821,0.83822,0.17273
0.10209,0.95829,-0.26695,0.09715,-0.12155,0.12282
0.11418,0.9615,-0.24993,0.0626,-0.147,0.15869
0.12165,0.9633,-0.23927,-0.00375,-0.1224,0.19246
0.12442,0.9658,-0.22748,-0.15266,-0.23867,0.24164
0.12048,0.96922,-0.2147,-0.14325,0.01954,0.09733
0.11151,0.97343,-0.19997,-0.08161,0.15591,0.01225
0.11131,0.97684,-0.18271,0.05348,0.17471,-0.04796
0.12037,0.9782,-0.16924,0.15856,-0.12269,0.00061
0.13078,0.97859,-0.15894,0.09859,-0.1773,0.03954
0.13613,0.97959,-0.14787,-0.0155,-0.17937,0.11561
0.13423,0.98209,-0.13221,-0.05647,-0.0486,0.07342
0.12968,0.98478,-0.11571,-0.02522,-0.00201,0.07087
0.1292,0.98641,-0.10143,0.02704,-0.06045,0.11227
0.13231,0.98725,-0.0885,0.0074,-0.12903,0.15176
0.13495,0.98779,-0.07786,0.01991,-0.13366,0.07821
0.13438,0.98858,-0.06814,0.05009,0.17049,0.05596
0.13122,0.98963,-0.05832,0.04691,0.26288,0.02403
0.12906,0.99041,-0.04915,0.13241,0.13683,-0.09681
0.12755,0.99103,-0.03994,0.17541,0.06363,-0.05227
0.12505,0.99167,-0.03078,0.10611,0.1163,-0.04696
0.11983,0.99259,-0.02008,0.04124,0.13011,-0.05109
0.11065,0.9938,-0.01013,-0.01463,0.14389,-0.15317
0.10019,0.99496,-0.00291,-0.09946,0.0571,-0.15459
0.09161,0.99579,0.00052,-0.08559,-0.03548,0.13905
0.08477,0.9964,-0.00032,0.05931,0.07311,0.29428
0.07823,0.99692,-0.0046,-0.00792,0.15798,0.13206
0.07423,0.99718,-0.01115,-0.03292,0.215,0.03285
0.07168,0.99715,-0.02348,-0.21372,0.23634,0.07069
0.07109,0.99657,-0.04229,-0.11481,0.16822,0.03678
0.0715,0.99549,-0.06233,-0.12209,0.13734,0.09285
0.0722,0.99382,-0.08433,-0.00202,0.12798,0.02957
0.07409,0.9916,-0.10597,0.02937,0.11101,-0.03502
0.07648,0.98848,-0.13057,-0.00273,0.13188,-0.03047
0.07561,0.98426,-0.15971,-0.11593,0.09025,-0.00142
0.0715,0.97927,-0.18951,-0.12747,0.00454,0.06333
0.06885,0.9741,-0.21536,-0.12482,0.00971,0.08918
0.07355,0.96827,-0.23884,-0.02126,-0.11429,0.05749
0.08668,0.96075,-0.2635,0.01215,-0.06462,0.05336
0.10416,0.95184,-0.28836,-0.0053,0.00226,0.01408
0.11607,0.94408,-0.30861,-0.08639,-0.07271,0.06367
0.1183,0.9389,-0.3232,-0.12451,-0.13669,0.10323
0.1172,0.93438,-0.33644,-0.09077,-0.06805,0.07406
0.11914,0.93041,-0.3466,-0.08037,0.00758,0.03857
0.12262,0.92759,-0.35289,-0.08693,-0.05808,0.03638
0.12411,0.92642,-0.35543,-0.11532,-0.06372,0.05233
0.12374,0.92735,-0.35314,-0.08742,-0.06236,0.00907
0.12103,0.93007,-0.34688,0.03921,-0.0719,-0.03999
0.11438,0.93376,-0.33912,0.0203,-0.04595,-0.10479
0.10674,0.93826,-0.32904,0.03625,-0.04954,-0.13832
0.10115,0.94155,-0.32131,0.05405,-0.06272,-0.19891
0.10149,0.94274,-0.31771,0.06286,-0.1222,-0.23084
0.10537,0.94319,-0.31509,0.10152,-0.28583,-0.1572
0.10301,0.94472,-0.31127,-0.03279,-0.08447,0.17805
0.09306,0.94833,-0.30333,-0.13274,0.01522,0.28432
0.0786,0.95188,-0.29622,-0.15858,0.20646,0.36845
0.07272,0.95393,-0.29106,-0.15794,0.24161,0.08673
0.07846,0.95747,-0.27766,-0.05358,0.07436,0.11914
0.08704,0.96028,-0.2651,0.06897,0.0101,0.23179
0.093,0.96219,-0.25602,0.07193,-0.03047,0.20483
0.09669,0.96474,-0.2448,0.0254,-0.18019,0.23037
0.09931,0.96757,-0.23226,0.00889,-0.07688,0.19428
0.10128,0.9703,-0.21967,0.00303,0.04453,0.12938
0.10347,0.97295,-0.20655,0.00553,0.1496,0.02044
0.1079,0.97488,-0.19486,-0.03629,0.00239,0.05413
0.11287,0.97603,-0.18604,-0.11173,-0.16973,0.1024
0.11626,0.97726,-0.1773,-0.12714,-0.19963,0.1105
0.1172,0.97927,-0.16518,0.01827,-0.07047,0.08345
0.11764,0.98161,-0.15033,0.1248,0.03943,0.072
0.12157,0.98339,-0.13476,0.10699,0.00648,0.06849
0.1286,0.98447,-0.11944,1e-05,-0.11974,0.0746
0.13457,0.98531,-0.10514,-0.01734,-0.13776,0.04906
0.13573,0.98649,-0.09171,0.00714,-0.09618,0.04673
0.13362,0.98783,-0.07959,0.15157,0.07971,0.09414
0.13179,0.98881,-0.0698,0.12509,0.06029,0.00707
0.13086,0.98954,-0.06063,0.11952,0.05071,-0.04304
0.12925,0.99027,-0.05156,0.12866,0.10379,-0.09868
0.1278,0.99082,-0.0439,0.13647,0.08765,-0.13197
0.12676,0.99123,-0.03714,0.1375,0.08724,-0.13873
0.1248,0.99173,-0.02973,0.09964,0.17631,-0.11404
0.12122,0.99237,-0.02248,0.00331,0.14492,-0.0639
0.11521,0.99321,-0.01597,-0.01542,0.12572,0.01598
0.10623,0.99427,-0.01177,0.01648,0.18368,0.16858
0.09577,0.99535,-0.00984,-0.02758,0.25878,0.2983
0.08671,0.99616,-0.01163,-0.13488,0.27035,0.17299
0.08033,0.99661,-0.01735,-0.2668,0.21327,0.0853
0.07427,0.9968,-0.02941,-0.19695,0.15797,0.06943
0.06941,0.99631,-0.05031,-0.19209,0.15845,0.09033
0.06709,0.99481,-0.0765,0.01621,0.07587,0.05111
0.06775,0.99231,-0.1036,0.09598,0.11438,-0.04174
0.07003,0.98909,-0.12958,0.10767,0.16356,-0.02548
0.07206,0.98513,-0.15594,0.05799,0.05253,0.02079
0.07161,0.98077,-0.18152,-0.10528,-0.02589,-0.007
0.06966,0.97618,-0.20547,-0.1476,-0.05941,0.0277
0.06966,0.97062,-0.23029,-0.09589,0.00052,0.05863
0.07595,0.964,-0.25482,-0.01049,0.00384,0.05849
0.08994,0.957,-0.27579,-0.04571,-0.01307,0.05806
0.10442,0.95079,-0.29169,-0.08269,-0.12462,0.05155
0.11386,0.94564,-0.30464,-0.05667,-0.23317,0.12596
0.11736,0.94088,-0.31776,-0.03839,-0.19446,0.12799
0.12025,0.93609,-0.33057,-0.12744,-0.13746,0.05164
0.12445,0.93175,-0.34109,-0.10172,-0.09309,-4e-05
0.13073,0.92858,-0.34732,-0.11786,-0.03006,-0.0025
0.13968,0.92724,-0.34745,-0.02157,-0.0281,0.01484
0.14597,0.92641,-0.34707,0.03504,-0.03847,-0.00788
0.14384,0.92694,-0.34653,0.05329,-0.03925,0.00481
0.13632,0.92992,-0.34155,0.03954,0.04383,-0.11277
0.12991,0.9339,-0.3331,0.07353,0.02492,-0.15474
0.12848,0.93663,-0.32589,0.07895,0.01661,-0.18611
0.1331,0.93758,-0.32128,0.12041,-0.1671,-0.21711
0.13796,0.93885,-0.31548,0.14347,-0.35003,0.02863
0.13514,0.94291,-0.30438,0.1143,-0.33709,0.07327
0.11988,0.94802,-0.29476,-0.26247,-0.16665,0.33063
0.09618,0.95225,-0.28977,-0.31302,0.37813,0.48842
0.08289,0.95326,-0.29055,-0.30778,0.84128,0.36473
0.094,0.9574,-0.27304,0.06302,-0.06363,0.11203
0.1085,0.96144,-0.25269,0.07616,-0.15856,0.19542
0.11904,0.96288,-0.24227,0.10028,-0.05655,0.16123
0.12563,0.96508,-0.22986,-0.00622,-0.12786,0.21148
0.12712,0.9683,-0.21499,-0.05718,-0.02865,0.1879
0.12252,0.97194,-0.20079,-0.13691,0.1134,0.04419
0.12029,0.9752,-0.18578,-0.06037,0.11414,0.02214
0.12639,0.97702,-0.17162,0.08407,-0.01126,0.0636
0.136,0.97763,-0.16042,0.06397,-0.16452,0.09397
0.14255,0.97829,-0.15037,-0.01551,-0.19299,0.11812
0.14377,0.98022,-0.13595,-0.079,-0.11459,0.13173
0.14119,0.98264,-0.12028,-0.04881,-0.01154,0.11874
0.14038,0.98418,-0.10809,-0.03914,-0.03493,0.11368
0.14287,0.98493,-0.0974,0.00059,-0.12269,0.13057
0.14576,0.98545,-0.08738,0.03919,-0.14718,0.07957
0.14608,0.98622,-0.07766,0.06874,0.00525,0.0557
0.14361,0.98722,-0.06909,0.09674,0.08148,0.02968
0.14087,0.98817,-0.0606,0.13276,0.04812,-0.03373
0.13822,0.98912,-0.05027,0.06144,0.05672,-0.02723
0.13463,0.99008,-0.04003,0.0558,0.09186,-0.12263
0.12901,0.99115,-0.03113,0.11807,0.1933,-0.09064
0.12301,0.99215,-0.02259,0.15081,0.24929,-0.05999
0.11708,0.993,-0.01502,0.04538,0.23817,-0.1063
0.11013,0.99387,-0.00877,0.00063,0.16312,-0.07203
0.10311,0.99465,-0.00599,-0.00726,0.11197,0.06555
0.0978,0.99518,-0.00616,-0.09474,0.15391,0.11817
0.09465,0.99548,-0.00674,-0.13687,0.23498,0.08758
0.09201,0.99569,-0.01114,-0.20469,0.24065,0.06655
0.08724,0.9959,-0.02399,-0.18877,0.05888,0.11408
0.08455,0.99542,-0.0446,-0.13032,0.02132,0.13893
0.08482,0.99418,-0.06644,-0.0113,-0.04499,0.072
0.08967,0.9919,-0.08991,0.01019,0.04881,-0.02183
0.09793,0.98835,-0.11651,-0.0279,0.10917,-0.03349
0.10472,0.98382,-0.14532,-0.15813,0.17522,-0.05489
0.10742,0.97842,-0.1765,-0.14704,0.24028,-0.03478
0.10848,0.97179,-0.20942,-0.15588,0.24213,0.02721
0.11028,0.96448,-0.24002,-0.02636,0.09587,-0.0181
0.11576,0.95659,-0.26744,0.04873,-0.01622,-0.02169
0.12633,0.94823,-0.29138,-0.02274,-0.07369,0.00042
0.13548,0.93983,-0.31364,-0.17136,-0.0897,0.04364
0.13594,0.93282,-0.3337,-0.23294,-0.13671,0.19203
0.13226,0.92819,-0.3478,-0.21432,-0.18523,0.27764
0.1302,0.92447,-0.35833,-0.20376,-0.14529,0.16334
0.1315,0.92119,-0.36622,-0.17311,-0.16925,0.09787
0.13273,0.91901,-0.37121,-0.14507,-0.23388,0.0984
0.13314,0.91822,-0.37302,-0.08121,-0.30404,0.08434
0.1301,0.91964,-0.37059,-0.03516,-0.27259,-0.00034
0.1231,0.92263,-0.36552,-0.0551,-0.17337,-0.09165
0.11601,0.92686,-0.35704,-0.0415,-0.02369,-0.13039
0.10916,0.93054,-0.34952,0.06222,0.04532,-0.10906
0.10334,0.93335,-0.34376,0.12051,0.0614,-0.16445
0.1014,0.93525,-0.33915,0.03757,-0.00089,-0.36295
0.10287,0.93749,-0.33245,0.08585,-0.46758,0.08936
0.10276,0.94112,-0.32208,0.08596,-0.47121,0.079
0.09713,0.9448,-0.3129,-0.27975,-0.005,0.29576
0.08199,0.94594,-0.31381,-0.3119,1.02533,0.25032
0.06759,0.94368,-0.32387,-0.29749,1.02759,0.26038
0.0751,0.95038,-0.30188,-0.12997,0.16938,0.17799
0.09345,0.95672,-0.2756,0.13466,-0.48537,0.11526
0.11017,0.95965,-0.25869,-0.0499,-0.26799,0.23712
0.12197,0.96213,-0.24378,-0.11903,-0.1105,0.28428
0.12949,0.96496,-0.22823,-0.19441,-0.05013,0.13821
0.12599,0.96945,-0.21043,-0.21762,0.07744,0.02338
0.12043,0.97411,-0.19134,-0.1049,0.22313,-0.02554
0.12845,0.9762,-0.17472,0.02169,0.17529,-0.00917
0.14948,0.97574,-0.15996,0.0853,-0.07753,-0.01152
0.17056,0.97473,-0.14423,0.06025,-0.18399,0.03562
0.18334,0.97494,-0.126,0.12401,-0.07002,0.06118
0.18777,0.97625,-0.10802,0.11007,-0.03308,0.06241
0.18882,0.97772,-0.09166,0.01056,-0.00117,0.06055
0.19026,0.97875,-0.07641,-0.07063,-0.05727,0.06878
0.19238,0.97921,-0.06426,-0.08502,-0.08285,0.04954
0.19515,0.97924,-0.0547,-0.06171,-0.11061,0.03468
0.19893,0.97898,-0.04504,-0.01072,-0.09932,0.04165
0.20371,0.97841,-0.03471,0.00073,-0.12217,0.01599
0.20799,0.97781,-0.02488,-0.00293,-0.11909,-0.03175
0.21003,0.97753,-0.01794,0.03281,-0.05973,-0.03931
0.21003,0.9776,-0.01303,0.05872,-0.11582,-0.05018
0.21026,0.97761,-0.00773,0.08831,-0.16604,-0.00984
0.21008,0.97768,-0.00075,0.07811,-0.15635,-0.00772
0.20894,0.97789,0.00796,-0.04727,0.01924,-0.06421
0.20622,0.97836,0.01682,-0.0812,0.13183,-0.08364
0.20069,0.97933,0.02523,-0.05105,0.17737,-0.13449
0.1942,0.98034,0.03496,-0.00481,0.1974,-0.21121
0.18787,0.98113,0.0457,-0.00269,0.27949,-0.2733
0.1805,0.98197,0.05604,0.0585,0.34002,-0.26936
0.17085,0.98303,0.0667,0.12479,0.40207,-0.13595
0.15811,0.98434,0.07786,0.00607,0.6308,0.00132
0.14372,0.98576,0.0872,-0.07021,0.65762,0.03339
0.13031,0.98715,0.09249,-0.12683,0.60648,0.07771
0.11554,0.98883,0.09408,-0.16931,0.27653,0.11091
0.10231,0.99033,0.09371,-0.03987,0.19124,0.06474
0.09455,0.99164,0.08777,-0.03306,0.16765,0.06752
0.094,0.99255,0.0774,0.09544,-0.13829,0.0121
0.09786,0.99295,0.06674,0.01365,-0.2517,0.01009
0.10396,0.99312,0.05387,-0.06518,-0.20128,0.04731
0.1093,0.99332,0.03698,-0.20239,0.00389,-0.05453
0.11245,0.99354,0.01517,-0.23285,0.1152,-0.01356
0.11368,0.99341,-0.01418,-0.21977,0.07662,0.02484
0.11679,0.99227,-0.04183,-0.15868,-0.2678,0.04827
0.12316,0.99026,-0.06486,-0.15513,-0.20814,0.03776
0.12983,0.98771,-0.08695,-0.1618,-0.20559,0.05985
0.13563,0.98469,-0.1095,-0.09821,0.0021,-0.00198
0.14118,0.98105,-0.13266,-0.14644,0.03407,0.05643
0.14705,0.97697,-0.15457,-0.15232,0.03815,0.07834
0.15068,0.97329,-0.17322,-0.24365,-0.23667,0.09169
0.14978,0.97062,-0.1883,-0.19142,-0.27557,0.14484
0.14643,0.96868,-0.20053,-0.17571,-0.25956,0.15005
0.1421,0.96711,-0.21096,-0.14748,-0.22871,0.08387
0.13727,0.9662,-0.21819,-0.13848,-0.2279,0.03207
0.13267,0.96625,-0.22082,-0.14624,-0.27104,0.01728
0.12829,0.96685,-0.22076,-0.1381,-0.27274,-0.04012
0.12343,0.96814,-0.21788,-0.0878,-0.24789,-0.10901
0.11826,0.97011,-0.2119,-0.06569,-0.22894,-0.16163
0.11306,0.97234,-0.20437,-0.0267,-0.1558,-0.15174
0.10833,0.97423,-0.19782,0.05746,-0.12045,-0.24905
0.10498,0.97539,-0.19386,0.02743,-0.07783,-0.22091
0.10674,0.9756,-0.19187,-0.06139,0.06791,-0.24494
0.1153,0.97475,-0.19118,-0.28404,0.19065,-0.25496
0.12724,0.973,-0.19257,-0.25456,0.19986,-0.25522
0.13757,0.97185,-0.19123,-0.24894,0.31179,-0.23582
0.14607,0.97132,-0.1876,-0.21841,0.28825,-0.23052
0.15147,0.97144,-0.18264,-0.33933,0.15075,-0.00514
0.15415,0.97062,-0.18474,-0.49889,0.30444,0.09459
0.15478,0.96966,-0.18922,-0.4112,0.32005,0.16183
0.15437,0.97091,-0.18299,-0.15446,-0.20166,0.20021
0.15909,0.97152,-0.17561,-0.10888,-0.24229,0.23431
0.17047,0.97035,-0.1713,-0.00867,-0.1581,0.23407
0.18151,0.96953,-0.16446,-0.09407,0.18849,0.21405
0.18624,0.97068,-0.15196,-0.25192,0.35801,0.14235
0.19051,0.97205,-0.13715,-0.33337,0.12649,0.2131
0.20365,0.97126,-0.1232,-0.28058,0.01244,0.22064
0.21719,0.97046,-0.10502,-0.20072,-0.14189,0.21173
0.22774,0.97034,-0.08103,-0.16196,-0.03194,0.18768
0.23655,0.96977,-0.05985,-0.12273,0.01505,0.16114
0.2431,0.96905,-0.04279,-0.03756,0.04591,0.13367
0.24777,0.96854,-0.02294,-0.04224,0.04643,0.11382
0.25101,0.96798,-0.00226,-0.02249,-0.11782,-0.01166
0.25212,0.96759,0.01393,0.04466,-0.11131,-0.05661
0.25011,0.96783,0.02734,0.10907,-0.01849,-0.08334
0.24642,0.96839,0.03854,0.09109,0.04095,-0.09326
0.24116,0.96938,0.04614,0.04101,0.00849,-0.16365
0.23327,0.97099,0.05243,-0.02083,-0.05608,-0.24965
0.2219,0.97324,0.05969,-0.00947,-0.05832,-0.25691
0.20791,0.97578,0.068,0.05537,0.03017,-0.22491
0.19386,0.978,0.07693,0.14148,0.10241,-0.18901
0.1831,0.97923,0.08701,0.15224,0.10118,-0.19909
0.17502,0.97984,0.09635,-0.03258,0.07212,-0.02848
0.16663,0.98046,0.10447,0.03684,0.06309,-0.12261
0.15925,0.9809,0.11162,-0.05645,0.16151,-0.15523
0.15565,0.98091,0.11648,-0.12051,0.29919,0.02958
0.15518,0.98082,0.11787,-0.09351,0.08245,0.09809
0.15546,0.98122,0.11415,-0.09467,0.04379,0.1142
0.15863,0.98175,0.1049,-0.19812,0.02253,0.21563
0.16673,0.98191,0.08964,-0.31883,0.10761,0.17272
0.17828,0.98191,0.06366,-0.45608,0.2011,0.14592
0.18828,0.98158,0.03241,-0.52573,0.41042,-0.03792
0.19409,0.98095,0.00714,-0.20619,0.4048,0.03508
0.19343,0.98102,-0.01344,-0.08039,0.26643,-0.00226
0.19106,0.98113,-0.02946,-0.0138,0.00503,-0.01513
0.18849,0.98113,-0.04298,-0.00972,-0.02257,-0.04915
0.18331,0.98138,-0.05732,-0.04894,0.04003,-0.05973
0.17824,0.98109,-0.07538,-0.11187,0.11269,-0.02838
0.17327,0.98031,-0.09466,-0.20118,-0.16127,-0.02817
0.16877,0.97959,-0.10916,-0.15348,-0.28235,0.00572
0.16307,0.97964,-0.1171,-0.12317,-0.39788,-0.01573
0.15405,0.98071,-0.12027,-0.14354,-0.34697,-0.05462
0.14343,0.98211,-0.12201,-0.15629,-0.25622,-0.09945
0.13358,0.98314,-0.12483,-0.10057,-0.18547,-0.19977
0.1249,0.98383,-0.12835,-0.08704,-0.19487,-0.189
0.11866,0.98422,-0.13121,-0.05116,-0.23374,-0.22565
0.11517,0.9847,-0.13075,0.04275,-0.20798,-0.32538
0.11389,0.9853,-0.12729,0.04248,-0.17691,-0.37021
0.11407,0.98575,-0.12357,-0.0059,-0.08217,-0.38981
0.11379,0.98603,-0.12164,-0.02735,-0.00676,-0.41733
0.11114,0.98645,-0.12062,-0.01171,-0.0015,-0.37566
0.10995,0.98658,-0.12068,0.0169,0.01341,-0.32144
0.11474,0.98577,-0.1228,-0.05977,0.22149,-0.3362
0.12559,0.98412,-0.12537,-0.23578,0.39556,-0.29397
0.13524,0.98247,-0.12831,-0.1232,0.30676,-0.19942
0.13936,0.9819,-0.12827,-0.50828,0.35737,0.23514
0.13825,0.98121,-0.13458,-0.4674,0.45397,0.26878
0.13134,0.98276,-0.1301,-0.32099,0.2296,0.25662
0.12621,0.98411,-0.1249,-0.08454,-0.25678,0.20317
0.13039,0.9836,-0.12462,0.03474,-0.06619,0.16575
0.13747,0.98331,-0.11914,0.09532,0.02941,0.13722
0.1398,0.98431,-0.1076,-0.12827,0.35863,-0.09237
0.14238,0.9854,-0.09334,-0.13904,0.13455,-0.03251
0.14956,0.98516,-0.08414,-0.11742,0.04444,-0.02137
0.15905,0.98449,-0.07402,0.03934,-0.16292,0.08969
0.16642,0.98432,-0.05836,0.02368,-0.12937,0.02917
0.1696,0.98461,-0.04203,0.00134,-0.0801,-0.04882
0.17183,0.98472,-0.02828,-0.02527,0.04661,-0.03131
0.17552,0.98432,-0.01739,0.03154,-0.00362,-0.02598
0.17978,0.98368,-0.00648,0.05244,-0.09928,0.00998
0.18086,0.9835,0.00345,-0.00672,-0.05816,0.01904
0.17848,0.98383,0.01468,-0.02016,0.0159,-0.01537
0.17425,0.98436,0.02584,-0.01592,0.01537,-0.02652
0.16876,0.98505,0.0345,0.10303,0.18499,-0.14218
0.16358,0.98558,0.04321,0.14445,0.21285,-0.21862
0.157,0.98622,0.05205,0.15835,0.21138,-0.24048
0.14973,0.98681,0.06139,0.09107,0.15517,-0.14526
0.14279,0.98711,0.07216,-0.06576,0.21487,-0.13626
0.13255,0.98773,0.08249,-0.13287,0.30885,-0.18769
0.1183,0.98887,0.09014,-0.07875,0.28302,-0.19931
0.1036,0.99019,0.09373,0.05069,0.14772,0.0401
0.08964,0.99163,0.09285,0.08664,0.17785,0.2003
0.08119,0.99261,0.09015,-0.09081,0.28889,0.04553
0.07568,0.99378,0.08161,-0.18458,0.14826,-0.02252
0.0696,0.99533,0.06688,-0.06419,0.09058,-0.03833
0.06578,0.99661,0.04923,0.0421,0.08453,-0.10803
0.06676,0.99743,0.02571,0.06235,0.11789,-0.07429
0.07102,0.99746,-0.00355,0.12742,0.13208,-0.0542
0.07432,0.99674,-0.03133,0.11518,0.03833,-0.04187
0.07272,0.99557,-0.05954,-0.04842,-0.07084,-0.03856
0.07132,0.99328,-0.09112,-0.09831,-0.09437,-0.06301
0.07383,0.98909,-0.12745,-0.18203,0.03388,-0.02294
0.07957,0.98372,-0.1611,-0.17488,-0.00072,-0.0003
0.08605,0.97839,-0.18799,-0.10819,-0.08009,0.01406
0.09559,0.97298,-0.21018,0.00762,-0.08088,-0.06787
0.10502,0.96819,-0.22709,-0.04052,-0.21902,-0.01534
0.10759,0.96426,-0.24211,-0.06424,-0.28523,0.02726
0.10369,0.96113,-0.25587,-0.08791,-0.20506,0.07832
0.09775,0.95874,-0.26692,-0.10177,-0.12038,0.05115
0.09832,0.95756,-0.27092,-0.15624,0.01926,-0.02712
0.10332,0.95815,-0.26697,-0.02287,-0.16384,-0.04623
0.10388,0.95933,-0.26245,-0.0013,-0.22229,-0.07529
0.09932,0.96007,-0.26152,0.04548,-0.26142,-0.07655
0.09324,0.96076,-0.26124,0.0121,-0.07433,-0.21018
0.08905,0.96157,-0.25973,0.07458,-0.08804,-0.22357
0.08534,0.96174,-0.26033,0.10317,-0.1027,-0.24179
0.08224,0.96191,-0.26068,0.09859,-0.12923,-0.26573
0.0834,0.96229,-0.2589,0.07127,-0.13917,-0.2118
0.08534,0.96393,-0.25211,0.04742,-0.12744,-0.18565
0.08147,0.96613,-0.24484,-0.0311,0.05145,0.13688
0.0706,0.96873,-0.23784,-0.07741,0.32932,0.13866
0.06366,0.97223,-0.22517,-0.10019,0.29074,0.18915
0.06997,0.9763,-0.20478,-0.04335,-0.01019,0.18054
0.08025,0.97929,-0.18585,0.01214,-0.16975,0.14308
0.08559,0.98143,-0.17163,0.04399,-0.12512,0.1539
0.08443,0.9833,-0.16118,0.03117,-0.01748,0.11225
0.07954,0.98536,-0.15078,0.00883,0.01803,0.07316
0.0746,0.9874,-0.13954,-0.09428,0.02428,-0.0164
0.07732,0.98891,-0.12679,-0.0503,0.02347,-0.10777
0.08724,0.98974,-0.1131,0.08025,-0.10948,-0.10217
0.09863,0.99011,-0.09979,0.14406,-0.19819,-0.01162
0.10535,0.99063,-0.08689,0.17218,-0.10254,0.04854
0.10309,0.99203,-0.07241,0.06843,0.01384,-0.01196
0.09523,0.99378,-0.05765,-0.03085,0.02169,-0.03783
0.09101,0.99484,-0.04474,-0.03522,-0.03763,-0.03495
0.09318,0.99515,-0.03136,0.08378,-0.20971,-0.01318
0.09662,0.99517,-0.01698,0.1139,-0.21743,-0.00672
0.09833,0.99514,-0.00387,0.16982,-0.01086,-0.03423
0.09748,0.9952,0.00785,0.0884,0.05125,-0.06567
0.09681,0.9951,0.01994,0.06725,0.02841,-0.05543
0.0954,0.99499,0.02978,0.08724,0.08188,-0.18753
0.089,0.99531,0.03768,0.15344,0.15047,-0.22993
0.08063,0.99567,0.04608,0.29268,0.21178,-0.16841
0.07504,0.99573,0.05378,0.26972,0.27796,-0.22582
0.07084,0.99576,0.05863,0.08909,0.27704,-0.23589
0.06424,0.99603,0.06157,0.01996,0.16558,-0.14957
0.05568,0.99643,0.06345,-0.0213,0.14652,0.10029
0.04499,0.9969,0.06445,0.034,0.20932,0.20162
0.03637,0.99734,0.06317,0.02726,0.22022,0.02255
0.03116,0.99786,0.05739,-0.16939,0.14453,0.0171
0.03085,0.99859,0.0431,-0.2644,0.10628,0.04929
0.03365,0.99918,0.02243,-0.16158,0.00075,0.01776
0.03615,0.99934,0.00069,-0.0696,0.01193,0.02053
0.03986,0.99896,-0.02189,0.00741,0.09961,-0.01472
0.04414,0.99801,-0.04485,0.04403,0.1937,-0.06271
0.0479,0.99646,-0.06901,-0.05219,-0.00388,-0.02972
0.05045,0.99416,-0.09535,-0.09084,-0.05263,0.0057
0.0527,0.99105,-0.12266,-0.12014,-0.02715,0.03045
0.05715,0.98742,-0.14742,-0.10578,-0.00315,0.05863
0.06653,0.98342,-0.16868,-0.05838,0.00556,-0.00961
0.07984,0.97847,-0.19032,-0.05269,-0.03297,-0.0479
0.09196,0.973,-0.21167,-0.01504,-0.11647,-0.03333
0.10092,0.96825,-0.22869,-0.06709,-0.17066,0.03623
0.10533,0.96452,-0.24206,-0.08218,-0.1869,0.05276
0.10599,0.96185,-0.2522,-0.07089,-0.10505,-0.0233
0.10725,0.95995,-0.25883,-0.06933,-0.05835,-0.0931
0.10822,0.9586,-0.26337,-0.07975,-0.07446,-0.08707
0.10581,0.95831,-0.2654,-0.00137,-0.12245,-0.06537
0.10108,0.95925,-0.26383,0.03729,-0.20297,-0.06585
0.09133,0.9613,-0.25992,0.04703,-0.20501,-0.06976
0.08079,0.96342,-0.25553,-0.02662,0.00547,-0.20263
0.07211,0.96505,-0.25194,0.08386,-0.06879,-0.20713
0.06823,0.96637,-0.24792,0.08775,-0.07012,-0.21116
0.06796,0.96792,-0.24188,0.09708,-0.31176,-0.10574
0.06743,0.96993,-0.23382,0.05664,-0.26863,-0.04398
0.06403,0.97161,-0.22775,-0.20498,0.01132,0.05064
0.06224,0.97273,-0.22341,-0.17389,0.43968,0.16298
0.06321,0.97517,-0.21223,0.054,-0.08496,0.1002
0.06976,0.97874,-0.19288,-0.01948,-0.27793,0.06936
0.0774,0.98095,-0.17813,0.00892,-0.2556,0.12216
0.08321,0.98228,-0.1679,0.00587,-0.01054,0.11055
0.08635,0.98377,-0.15724,-0.00169,0.05299,0.10321
0.08552,0.98562,-0.14568,-0.05812,-0.02025,0.07363
0.08555,0.98746,-0.13261,-0.05285,-0.01705,-0.01068
0.08966,0.98873,-0.11982,0.02365,0.03064,-0.06482
0.09639,0.98947,-0.10796,0.01947,-0.0645,-0.05435
0.10235,0.98983,-0.09872,-0.0387,-0.15889,-0.02611
0.10465,0.99046,-0.08956,-0.04399,-0.15813,-0.00358
0.10507,0.99154,-0.07621,0.02278,-0.07125,-0.0472
0.10631,0.99247,-0.06079,0.12415,0.01778,-0.03219
0.10974,0.99286,-0.0466,0.13228,-0.03817,-0.00524
0.11414,0.99292,-0.0328,0.10931,-0.07953,0.00079
0.11641,0.99301,-0.0191,0.0468,-0.01685,0.00364
0.11463,0.99338,-0.00699,0.06306,0.03096,0.00803
0.11028,0.99389,0.00222,0.06755,0.07245,-0.03106
0.10563,0.99435,0.01056,0.15044,0.1273,-0.12086
0.10027,0.99478,0.01859,0.16201,0.13712,-0.145
0.09417,0.99518,0.02733,0.20777,0.21359,-0.17096
0.08813,0.99542,0.03698,0.16477,0.21819,-0.12078
0.0822,0.99551,0.04687,0.08489,0.21352,-0.12846
0.07497,0.99559,0.05638,-0.09143,0.07717,-0.14942
0.06433,0.9959,0.06348,-0.07963,0.08762,-0.07812
0.05142,0.99646,0.06638,0.12295,0.15791,0.1562
0.04008,0.99704,0.06553,0.01714,0.18428,0.06318
0.03291,0.99752,0.06221,-0.0412,0.16267,0.00499
0.0285,0.99815,0.05355,-0.24392,0.10336,-0.00036
0.0249,0.99895,0.03835,-0.08281,0.02031,-0.06366
0.0229,0.9995,0.02181,-0.01507,0.0213,-0.02091
0.02385,0.99971,0.00191,0.09425,0.12013,-0.07213
0.02868,0.99935,-0.02178,0.08024,0.09861,-0.12776
0.03537,0.99826,-0.04713,0.03213,0.06084,-0.11802
0.03801,0.99656,-0.07362,-0.01382,0.04601,-0.08304
0.03738,0.99428,-0.10003,-0.09231,-0.01068,-0.04159
0.03731,0.99125,-0.12656,-0.05134,0.01577,0.03035
0.04386,0.98753,-0.15118,-0.03729,0.01311,0.05629
0.05959,0.98319,-0.17256,0.04202,0.01962,-0.03536
0.07919,0.97846,-0.19062,-0.03816,0.00607,-0.05473
0.09598,0.97383,-0.206,-0.10932,-0.13339,-0.01608
0.10277,0.97004,-0.22011,-0.14558,-0.17836,0.06088
0.10314,0.96671,-0.23416,-0.11855,-0.00551,-0.00269
0.10737,0.96359,-0.24487,-0.11634,0.0494,-0.03833
0.1166,0.96094,-0.25097,-0.01603,-0.11796,-0.08434
0.1246,0.95906,-0.2543,0.04445,-0.10577,-0.09889
0.12713,0.9585,-0.25518,0.03972,-0.12408,-0.07337
0.12286,0.95962,-0.25304,0.02291,-0.09557,-0.09199
0.11339,0.9628,-0.24524,0.09575,-0.08869,-0.14291
0.10202,0.96662,-0.235,0.13428,-0.14193,-0.18623
0.09345,0.96912,-0.22818,0.05554,-0.11007,-0.26941
0.09111,0.96998,-0.22546,0.06432,-0.24828,-0.19136
0.09143,0.97076,-0.22192,0.02266,-0.24194,-0.09915
0.08615,0.97249,-0.21641,-0.11182,-0.14163,0.10157
0.07118,0.97589,-0.2063,-0.1109,0.10826,0.24818
0.0537,0.9787,-0.19812,-0.09341,0.58233,0.29725
0.04968,0.98036,-0.19084,-0.12156,0.39256,0.07662
0.057,0.98337,-0.17244,0.0355,-0.16984,0.10814
0.06556,0.9855,-0.15646,0.04871,-0.14253,0.09437
0.07046,0.98682,-0.14562,0.03484,-0.19541,0.10058
0.0708,0.98835,-0.13467,-0.00443,-0.13197,0.00497
0.06896,0.98996,-0.12337,0.01234,-0.03821,-0.06503
0.06938,0.99157,-0.10939,0.10272,0.07136,-0.12906
0.07811,0.9925,-0.094,0.22659,-0.09643,-0.05851
0.09294,0.99241,-0.08052,0.16148,-0.16732,-0.04866
0.10534,0.99207,-0.06849,-0.00398,-0.22217,0.00148
0.10873,0.99254,-0.05514,-0.1079,-0.15007,0.01581
0.10323,0.99383,-0.04044,-0.0283,0.00449,0.05327
0.09603,0.99502,-0.02664,0.01669,0.08349,0.03477
0.09394,0.99548,-0.01375,0.04095,0.05199,0.02796
0.09728,0.99525,-0.00256,0.10426,-0.0783,0.01956
0.10033,0.99493,0.00695,0.04501,-0.01592,-0.01666
0.09939,0.99491,0.0162,0.03861,0.06745,-0.03481
0.09325,0.99535,0.0238,0.10699,0.19054,-0.0527
0.08713,0.9957,0.03138,0.20521,0.07492,-0.13369
0.08372,0.99565,0.04067,0.14226,0.12445,-0.13236
0.0802,0.99553,0.04982,0.1296,0.1172,-0.12368
0.07453,0.99544,0.05954,0.07713,0.15486,-0.13472
0.06557,0.99549,0.06856,0.06657,0.13135,-0.16754
0.0549,0.99562,0.07558,-0.0032,0.09181,-0.0644
0.04486,0.99573,0.0806,0.08765,0.10301,0.05507
0.03653,0.99591,0.0826,-0.00038,0.20537,0.15677
0.03055,0.99623,0.08115,-0.15187,0.22122,-0.01926
0.02845,0.99661,0.07715,-0.2263,0.17209,-0.08535
0.02523,0.99751,0.0658,-0.18794,0.07016,-0.0535
0.02242,0.99865,0.04677,-0.05052,0.05376,-0.05165
0.02103,0.9995,0.02338,0.0672,0.03234,-0.08682
0.02158,0.99976,0.00044,0.14977,0.11706,-0.07127
0.0241,0.99945,-0.0226,0.13245,0.15581,-0.10425
0.02686,0.99856,-0.04635,-0.04627,0.04737,-0.02298
0.02775,0.99711,-0.07064,-0.1681,-0.02604,-0.01569
0.02597,0.99519,-0.09439,-0.20676,0.04839,0.00029
0.02479,0.99281,-0.11712,-0.1584,0.05038,-0.03153
0.02753,0.98932,-0.14311,-0.0336,0.09323,0.00351
0.03697,0.98452,-0.17134,0.05234,0.00486,-0.00322
0.05384,0.97911,-0.19607,0.11816,-0.06001,-0.08524
0.07111,0.97383,-0.21587,0.05201,-0.14552,-0.04667
0.08234,0.9693,-0.23166,-0.00013,-0.20088,0.00139
0.08703,0.96538,-0.24589,-0.03076,-0.15883,-0.01517
0.08963,0.96178,-0.25873,-0.00497,-0.02037,-0.04541
0.09402,0.9586,-0.26878,-0.07823,-0.04373,-0.05883
0.09722,0.95718,-0.27269,-0.04688,-0.14024,-0.07172
0.0953,0.95848,-0.26875,0.05291,-0.15848,0.02838
0.08992,0.96145,-0.25985,0.05829,-0.16145,0.01948
0.08338,0.96442,-0.25088,-0.11662,0.02746,-0.26397
0.07657,0.96763,-0.24045,-0.00508,0.11862,-0.14634
0.06959,0.97063,-0.23028,0.0019,0.11563,-0.15652
0.06592,0.97243,-0.22369,0.0943,-0.23477,-0.24974
0.06633,0.97414,-0.21596,0.15778,-0.40084,-0.08664
0.06552,0.9762,-0.20672,0.10005,-0.29871,-0.00738
0.0609,0.97838,-0.19766,-0.25512,0.00678,0.17633
0.05152,0.97978,-0.19332,-0.32922,0.46695,0.11962
0.04811,0.97924,-0.19692,-0.17485,0.58258,-0.07975
0.06075,0.98067,-0.18598,0.3206,-0.06853,0.08907
0.07324,0.98255,-0.17098,0.11312,-0.1727,0.1712
0.0795,0.98388,-0.16021,0.08574,-0.12671,0.1426
0.0844,0.98499,-0.15057,-0.1027,-0.01452,0.15232
0.08346,0.98698,-0.13752,-0.2044,-0.07317,0.11362
0.07848,0.98933,-0.12274,-0.14119,0.01213,0.05426
0.07639,0.99096,-0.11024,0.02416,0.09812,-0.05126
0.08065,0.99162,-0.10095,0.17303,0.02215,-0.01515
0.08947,0.99163,-0.09305,0.14297,-0.01882,0.00369
0.09725,0.99171,-0.084,-0.02184,-0.07717,0.07802
0.10057,0.99245,-0.07019,-0.01145,-0.04086,0.07074
0.09979,0.99354,-0.05401,0.01663,0.01873,0.05435
0.09726,0.99441,-0.04102,0.0453,0.0419,-0.00399
0.09675,0.99483,-0.03072,0.05997,0.01693,-0.01005
0.09832,0.99492,-0.02165,0.06655,-0.08374,-0.00162
0.09932,0.99494,-0.01497,0.15628,-0.05807,-0.05547
0.09768,0.99518,-0.00851,0.20045,-0.01993,-0.03519
0.0962,0.99536,0.00223,0.2125,-0.02049,-0.0345
0.09586,0.99529,0.01469,0.08503,0.01021,-0.14193
0.0931,0.99529,0.02689,0.10939,0.04249,-0.13782
0.08647,0.99545,0.03985,0.15064,0.01362,-0.11073
0.07914,0.99541,0.05383,0.13708,0.06958,-0.08847
0.07015,0.99521,0.0681,0.01801,0.10311,-0.14011
0.05865,0.99491,0.08189,-0.10445,0.1468,-0.18037
0.04352,0.99483,0.09171,-0.02008,0.13601,-0.05677
0.02775,0.99517,0.09413,0.11207,0.15931,0.14045
0.01633,0.99547,0.09367,-0.081,0.30454,-0.01741
0.01389,0.99561,0.09252,-0.2253,0.32815,-0.0004
0.01266,0.99616,0.08661,-0.22855,0.17016,-0.02829
0.00999,0.99717,0.07444,-0.02737,0.17231,0.03657
0.00815,0.99833,0.05711,-0.00431,0.10846,0.03984
0.01081,0.9992,0.03841,-0.02603,-0.00988,0.07382
0.01834,0.9997,0.01621,-0.00846,0.04318,-0.0266
0.02676,0.99958,-0.01053,-0.07864,0.10288,-0.08178
0.03259,0.99864,-0.04077,-0.14888,0.23518,-0.00928
0.036,0.9969,-0.06987,-0.10332,0.15945,0.03276
0.03975,0.99465,-0.09537,-0.06918,-0.08245,-0.01424
0.04517,0.99206,-0.11738,0.04919,-0.17249,-0.07172
0.0519,0.98929,-0.13639,0.04246,-0.16973,-0.05271
0.05842,0.9864,-0.15364,0.24297,-0.00843,-0.12874
0.06254,0.98354,-0.1695,0.03373,-0.05088,-0.13357
0.06712,0.98071,-0.18356,-0.06771,-0.11511,-0.04367
0.07193,0.97716,-0.19995,-0.19171,-0.25243,0.10381
0.0756,0.97334,-0.21653,-0.19109,-0.17383,0.11576
0.07682,0.97031,-0.22934,-0.21781,-0.11557,0.11696
0.07738,0.96797,-0.23884,-0.21227,-0.01596,-0.04109
0.07852,0.96609,-0.24596,-0.08939,-0.08314,-0.003
0.0814,0.96499,-0.24934,-0.02265,-0.10387,0.0123
0.08578,0.96506,-0.24758,0.03766,-0.13213,-0.00391
0.08815,0.9663,-0.24187,0.06039,-0.17296,-0.07819
0.08326,0.96833,-0.23539,0.04195,-0.11519,-0.11962
0.07482,0.97041,-0.22957,0.05126,-0.09918,-0.1955
0.06996,0.97234,-0.22286,0.10142,-0.1526,-0.29332
0.06876,0.97335,-0.21876,0.10873,-0.20828,-0.22872
0.06752,0.97405,-0.21603,-0.03038,0.02583,-0.02957
0.06438,0.97545,-0.2106,-0.1165,0.10172,0.06523
0.05696,0.97758,-0.20271,-0.15193,0.21204,0.16365
0.04821,0.97984,-0.19388,-0.16176,0.4964,0.11303
0.04913,0.98169,-0.18405,0.13379,0.02181,0.08802
0.05882,0.98417,-0.16717,0.17684,-0.0465,0.0677
0.06892,0.98578,-0.15322,0.06907,-0.07268,0.0002
0.0767,0.98686,-0.1422,-0.0451,-0.17192,0.08356
0.07976,0.98815,-0.13108,-0.08529,-0.22158,0.11666
0.07709,0.98979,-0.1199,-0.11766,-0.07401,0.0674
0.07079,0.9917,-0.10726,-0.03856,0.13026,-0.04616
0.07154,0.99306,-0.09333,0.02592,0.15843,-0.08203
0.08176,0.99335,-0.08106,0.14889,-0.08399,-0.03567
0.09527,0.99294,-0.07059,0.0806,-0.1726,0.02744
0.10415,0.99271,-0.06057,0.02115,-0.195,0.05146
0.10494,0.9933,-0.04832,-0.02486,-0.11394,0.02614
0.1013,0.99422,-0.03552,0.01092,0.09109,0.02662
0.09961,0.99471,-0.02487,0.02747,0.0022,0.07182
0.10227,0.99464,-0.01526,0.06984,-0.12769,0.01822
0.10591,0.99436,-0.00523,0.03179,-0.1511,0.01098
0.10731,0.99421,0.00497,0.06253,-0.0709,-0.0319
0.10643,0.99422,0.01404,0.1091,-0.01794,-0.07697
0.10447,0.99427,0.02257,0.14698,0.03535,-0.04773
0.10288,0.9942,0.03125,0.14776,0.04035,-0.08984
0.10233,0.99389,0.0414,0.06424,0.04687,-0.09462
0.1008,0.9935,0.05287,0.05424,0.0972,-0.12183
0.09775,0.99308,0.065,0.06466,0.14162,-0.17593
0.09211,0.99283,0.07612,0.0558,0.15962,-0.19703
0.08437,0.99277,0.08533,-0.00261,0.15496,-0.09561
0.07527,0.99295,0.09154,-0.05307,0.1694,0.03222
0.06578,0.9933,0.09496,-0.02623,0.25285,0.16189
0.05809,0.99376,0.09518,-0.10327,0.42979,-0.07713
0.0519,0.9943,0.09305,-0.21649,0.35894,-0.01939
0.04435,0.9955,0.08372,-0.11328,0.19701,-0.07966
0.03796,0.99696,0.06798,0.09524,0.1174,-0.06413
0.03332,0.9983,0.04788,0.14326,0.09584,-0.10577
0.03275,0.99912,0.02625,0.0918,0.05713,-0.00252
0.03501,0.99938,0.00375,0.08879,0.08595,-0.09019
0.03735,0.99911,-0.01969,0.07,0.14459,-0.05941
0.03931,0.99812,-0.0469,-0.04357,0.25375,-0.09081
0.04231,0.99615,-0.07673,-0.15154,0.0255,0.09646
0.04589,0.99333,-0.10578,-0.14019,-0.06883,0.09197
0.05145,0.99003,-0.13111,-0.1075,-0.21682,0.0662
0.06128,0.98633,-0.15296,-0.04244,-0.13655,-0.04009
0.077,0.98178,-0.17372,-0.00501,-0.01739,-0.09793
0.09464,0.97632,-0.19454,0.04954,-0.0458,-0.10732
0.10709,0.97157,-0.21113,0.03445,-0.12896,-0.04331
0.11449,0.96798,-0.22338,0.07318,-0.30758,0.04485
0.1206,0.96458,-0.23459,-0.04434,-0.1408,-0.01989
0.12648,0.96148,-0.24403,-0.1048,-0.13163,-0.01779
0.1286,0.95934,-0.25123,-0.14546,-0.17394,-0.0053
0.12702,0.95831,-0.25592,-0.05328,-0.17946,0.01101
0.1229,0.95861,-0.25681,0.00146,-0.24441,0.00898
0.11571,0.96011,-0.25455,-0.02759,-0.17946,-0.01892
0.10697,0.96166,-0.2525,-0.02487,-0.06178,-0.08317
0.09817,0.96344,-0.24927,-0.0128,-0.1089,-0.0817
0.09262,0.96552,-0.24329,-0.00312,-0.11251,-0.14386
0.09299,0.96699,-0.23724,0.07185,-0.23386,-0.21399
0.09664,0.96774,-0.23266,0.1005,-0.1674,-0.07784
0.09663,0.96898,-0.22746,0.09207,-0.1499,-0.04689
0.09196,0.97162,-0.21794,-0.12969,0.31137,0.06901
0.087,0.97435,-0.20753,-0.14831,0.42016,0.05886
0.09078,0.97646,-0.19563,-0.13698,0.42777,0.0937
0.10193,0.97836,-0.18008,0.06221,0.13152,0.08343
0.11084,0.9805,-0.16224,0.02652,0.06036,0.06348
0.11838,0.98208,-0.14666,0.00688,-0.01311,0.05459
0.12187,0.98364,-0.13267,-0.10277,-0.16029,0.16207
0.11972,0.98554,-0.11988,-0.13712,-0.09214,0.12103
0.11205,0.98783,-0.10785,-0.11667,0.08984,0.00033
0.10719,0.9897,-0.09484,-0.01222,0.18442,-0.07971
0.11292,0.99034,-0.08048,0.11977,0.0523,-0.07556
0.12573,0.9898,-0.067,0.08017,-0.1282,-0.03702
0.13873,0.98874,-0.05613,-0.02731,-0.15338,0.02484
0.14707,0.98809,-0.04519,-0.05001,0.03983,0.01531
0.14971,0.9882,-0.03225,-0.01153,0.08768,0.03684
0.15075,0.98838,-0.01924,0.05169,0.00664,0.09239
0.15362,0.9881,-0.00734,0.05886,-0.17095,0.00478
0.15701,0.98759,0.00363,0.01511,-0.20452,-0.03288
0.15943,0.98709,0.0153,-0.0657,-0.167,-0.00322
0.15918,0.98689,0.02651,0.0264,-0.05362,-0.00756
0.15587,0.98714,0.03544,0.08708,-0.01508,-0.03431
0.15428,0.98703,0.04422,0.12022,-0.08464,-0.07916
0.15575,0.9863,0.05426,0.11026,-0.22797,-0.09214
0.15663,0.98557,0.06412,0.107,-0.24135,-0.08371
0.15425,0.98536,0.07261,0.1121,-0.12548,-0.09675
0.14933,0.98554,0.08004,0.06463,0.0359,-0.09081
0.14428,0.98566,0.08744,0.0017,0.01342,-0.11156
0.13899,0.98562,0.09611,0.00098,0.08525,-0.21364
0.13128,0.98575,0.1052,0.0534,0.15647,-0.26591
0.12066,0.98615,0.11374,0.11563,0.21494,-0.31952
0.10944,0.98647,0.12204,0.15286,0.31806,-0.24843
0.09747,0.98687,0.12876,0.12212,0.33039,-0.2104
0.08318,0.98717,0.13625,0.06149,0.33441,-0.20311
0.0674,0.98717,0.14476,0.02724,0.35628,-0.01469
0.05059,0.98736,0.15016,0.0698,0.39847,0.00544
0.03874,0.98724,0.15444,0.0093,0.30932,-0.04069
0.0278,0.98703,0.15812,-0.00052,0.17045,-0.05233
0.0158,0.9871,0.15932,0.0936,0.14065,-0.03325
0.00548,0.98742,0.15798,0.12246,0.1621,-0.01874
0.00318,0.98818,0.15327,0.1004,-0.0324,0.03818
0.00789,0.98906,0.14729,-0.06316,-0.12164,0.04654
0.01647,0.99034,0.13765,-0.15288,-0.08904,0.06918
0.02542,0.99207,0.12305,-0.3614,0.0879,0.0015
0.03289,0.99408,0.10348,-0.40166,0.14179,-0.01959
0.03915,0.99597,0.08062,-0.38438,0.09771,-0.03666
0.04498,0.99733,0.05743,-0.16589,-0.03423,0.04303
0.05243,0.99797,0.03609,-0.03793,-0.12988,0.05775
0.06256,0.99791,0.01626,0.014,-0.11957,0.03167
0.07339,0.9973,-0.00354,-0.01819,-0.07136,0.02206
0.08082,0.99644,-0.0239,-0.10475,0.03209,0.02814
0.08582,0.99532,-0.0443,-0.1109,0.06957,0.04598
0.08963,0.99398,-0.06307,-0.10181,-0.06534,0.05051
0.0913,0.99261,-0.07995,-0.11086,-0.18093,0.08937
0.0886,0.99143,-0.09597,-0.12098,-0.1702,0.09254
0.08308,0.99031,-0.11128,-0.08833,-0.17915,0.07874
0.07636,0.98932,-0.12413,-0.07268,-0.18303,0.04032
0.06839,0.98854,-0.1346,-0.13189,-0.27853,0.00028
0.06005,0.98801,-0.14221,-0.10025,-0.33132,0.03551
0.05123,0.98762,-0.14823,-0.08783,-0.27754,-0.01072
0.04264,0.98749,-0.15178,-0.07875,-0.26398,-0.03401
0.03549,0.98787,-0.15118,-0.0303,-0.23654,-0.1398
0.02983,0.98848,-0.14835,0.02662,-0.21442,-0.16986
0.0261,0.98901,-0.14553,0.06022,-0.21409,-0.17548
0.02463,0.98951,-0.14236,0.11763,-0.27376,-0.24321
0.02373,0.99024,-0.13732,0.05351,-0.19642,-0.29548
0.02285,0.99103,-0.13164,0.00997,-0.1283,-0.27062
0.02339,0.99164,-0.12692,-0.01618,0.06244,-0.25799
0.02777,0.99175,-0.12514,0.03409,0.21433,-0.15746
0.03756,0.99135,-0.12577,0.0491,0.18721,-0.20959
0.04855,0.99087,-0.12577,-0.05945,0.2438,-0.39452
0.0587,0.98995,-0.12866,-0.11006,0.42222,-0.40782
0.06552,0.98903,-0.13238,-0.0802,0.14879,-0.25215
0.06778,0.98903,-0.13124,-0.27777,-0.10147,0.01847
0.06915,0.98913,-0.12976,-0.34825,0.25663,0.27036
0.07081,0.98844,-0.13407,-0.38995,0.57058,0.2662
0.07007,0.98818,-0.13633,-0.22002,-0.02843,0.13656
0.07209,0.98896,-0.12948,-0.15736,-0.41617,0.20472
0.07917,0.98877,-0.12674,-0.12353,-0.35291,0.2665
0.09148,0.98765,-0.12718,0.03809,-0.0673,0.22726
0.10188,0.98786,-0.11723,0.01004,0.09435,0.1636
0.10821,0.98916,-0.09919,-0.10702,0.25534,0.02612
0.11533,0.98937,-0.08853,-0.06814,-0.15685,0.25209
0.12813,0.98829,-0.08283,-0.02615,-0.19461,0.22823
0.14357,0.98719,-0.06957,-0.01596,-0.18938,0.17917
0.15651,0.98627,-0.05271,-0.02981,0.04423,0.07294
0.16458,0.98556,-0.0398,-0.00468,0.11623,0.05185
0.1718,0.9847,-0.02916,0.09726,-0.00774,0.07753
0.179,0.98369,-0.01767,0.13467,-0.09244,0.03406
0.18346,0.98301,-0.00491,0.11798,-0.07133,0.00778
0.18465,0.98277,0.00771,0.07992,-0.05498,-0.02256
0.18325,0.9829,0.01789,0.03565,-0.05772,-0.08007
0.18,0.98329,0.02732,0.05857,0.00233,-0.08598
0.17603,0.98371,0.03653,0.1071,-0.01947,-0.12605
0.16997,0.98443,0.04478,0.13951,-0.0178,-0.17763
0.16046,0.98565,0.05248,0.08657,-0.04445,-0.17716
0.14896,0.98707,0.0591,-0.01977,-0.03122,-0.20346
0.13705,0.98841,0.06526,-0.03089,0.03314,-0.16223
0.12455,0.98972,0.07025,-0.03191,-0.00352,-0.18568
0.11364,0.99062,0.07591,-0.10355,-0.0567,-0.22621
0.10427,0.99114,0.0823,0.01684,-0.00246,-0.12901
0.09643,0.9914,0.08842,0.17755,-0.027,-0.15943
0.09029,0.99141,0.09463,0.09747,0.15256,-0.14605
0.08741,0.99113,0.10007,-0.02302,0.39733,-0.00936
0.08864,0.99068,0.10343,0.03834,0.12244,0.16281
0.0908,0.99058,0.10249,0.01163,0.09963,0.17873
0.0959,0.99072,0.09627,-0.00439,0.11917,0.27699
0.10517,0.99095,0.08339,-0.30449,0.26312,0.19218
0.11616,0.99157,0.0573,-0.37678,0.36196,0.09868
0.12453,0.99193,0.02368,-0.3387,0.43959,-0.01915
0.12885,0.99165,-0.00543,-0.01209,0.2273,0.03483
0.12857,0.99121,-0.0313,0.03733,0.12745,0.03408
0.12723,0.9905,-0.05216,0.02964,-0.01368,0.02023
0.12551,0.98961,-0.07011,-0.04284,0.02244,0.00105
0.12174,0.98849,-0.08985,-0.05591,0.09893,0.04549
0.1166,0.98683,-0.11209,-0.04665,0.09418,0.06827
0.11205,0.98459,-0.13427,-0.13695,-0.19722,0.02312
0.11012,0.98226,-0.15177,-0.11855,-0.26877,0.05096
0.10878,0.98033,-0.16469,-0.09334,-0.21713,0.01947
0.1059,0.97862,-0.17632,-0.08028,-0.19742,-9e-05
0.1013,0.97721,-0.18655,-0.08928,-0.20806,0.01292
0.09418,0.97637,-0.19452,-0.03407,-0.22827,-0.07197
0.08619,0.97592,-0.20037,-0.01545,-0.20261,-0.0799
0.08031,0.97568,-0.20395,0.02583,-0.20467,-0.12747
0.07635,0.97555,-0.20607,0.05456,-0.23753,-0.18814
0.07273,0.97572,-0.2066,0.06774,-0.24923,-0.18787
0.06932,0.97637,-0.20467,0.06636,-0.22532,-0.20249
0.06574,0.97768,-0.19954,0.08256,-0.17508,-0.22891
0.06075,0.97937,-0.19274,0.03173,-0.05613,-0.15859
0.05604,0.98088,-0.18637,-0.02099,0.11305,-0.20582
0.0555,0.98176,-0.18183,-0.08581,0.18015,-0.20833
0.05828,0.98165,-0.18154,-0.11011,0.19037,-0.20671
0.06211,0.98101,-0.18374,-0.0851,0.14375,-0.36596
0.06681,0.98059,-0.18432,-0.10589,0.18165,-0.25607
0.0725,0.97875,-0.19182,-0.13991,0.43345,-0.3275
0.07508,0.97625,-0.2032,-0.08899,0.1672,-0.1152
0.07215,0.97629,-0.20409,-0.26711,-0.1492,0.04331
0.07136,0.977,-0.20095,-0.3621,0.07357,0.30843
0.07242,0.97614,-0.2047,-0.40404,0.48265,0.27028
0.07074,0.97525,-0.20945,-0.17063,0.21461,0.27484
0.06643,0.97637,-0.20563,0.03148,-0.18748,0.34314
0.06829,0.97628,-0.20543,0.08317,-0.17244,0.33431
0.07834,0.97554,-0.20536,0.0606,0.01416,0.30912
0.08827,0.97627,-0.19773,-0.10721,0.20724,0.06681
0.09391,0.97845,-0.18386,-0.12478,0.15575,0.04426
0.09697,0.98019,-0.17269,-0.0645,0.05903,0.11585
0.10243,0.98057,-0.16728,0.04658,-0.12007,0.21709
0.11089,0.98107,-0.15874,0.02334,-0.1504,0.17713
0.11928,0.98231,-0.14435,-0.00214,-0.01064,0.01558
0.12697,0.9834,-0.1296,0.07011,0.07576,0.0013
0.13485,0.98388,-0.11747,0.09774,0.05171,0.00271
0.14259,0.98403,-0.1065,0.07535,-0.09934,0.04485
0.14908,0.9842,-0.09552,0.00494,-0.17353,0.01224
0.15336,0.98462,-0.08364,0.01493,-0.12661,0.03138
0.15422,0.98539,-0.07232,0.023,0.0182,0.00956
0.15382,0.9861,-0.0628,0.03314,-0.03445,-0.02934
0.15505,0.98644,-0.0537,0.07819,-0.07612,-0.05281
0.15567,0.98682,-0.04424,0.12663,-0.06195,-0.02997
0.1545,0.98741,-0.03378,0.12501,0.13666,-0.09218
0.15069,0.9883,-0.02361,0.11276,0.22841,-0.10518
0.14418,0.98943,-0.01554,0.09579,0.26207,-0.13405
0.1372,0.9905,-0.00913,-0.01741,0.139,-0.18397
0.13055,0.99143,-0.00396,-0.05057,0.1397,-0.23032
0.12255,0.99246,0.00225,0.11111,0.16459,-0.11413
0.11255,0.9936,0.00882,0.1509,0.18358,-0.07278
0.10277,0.9946,0.01417,0.1945,0.25555,-0.03554
0.0934,0.99548,0.01732,0.00368,0.53512,0.05222
0.08814,0.99595,0.01769,-0.09118,0.54623,0.15002
0.08565,0.99623,0.01334,-0.213,0.36003,0.17004
0.08146,0.99666,0.00558,-0.01757,-0.01689,-0.02288
0.0757,0.99711,-0.00677,0.04056,-0.01781,0.04852
0.07115,0.99722,-0.02195,0.04833,0.03291,0.08468
0.06942,0.99672,-0.04145,0.02174,0.05123,0.11942
0.07128,0.99543,-0.06359,-0.10757,0.07432,0.12648
0.07523,0.99351,-0.08528,-0.17819,0.10399,0.08182
0.07844,0.99111,-0.10747,-0.21941,0.09958,0.07436
0.07912,0.98816,-0.13142,-0.31165,0.05934,0.00617
0.07913,0.9843,-0.15777,-0.26514,0.12247,0.06698
0.08057,0.97934,-0.18549,-0.10378,0.06038,0.0754
0.0855,0.97346,-0.21229,-0.0251,-0.05488,0.04333
0.09296,0.96661,-0.23877,-0.02291,-0.11413,0.10341
0.10034,0.95952,-0.26315,-0.078,-0.15277,0.12933
0.10509,0.95278,-0.28489,-0.11359,-0.12852,0.13434
0.10935,0.94648,-0.30366,-0.09377,-0.10257,0.12926
0.11384,0.941,-0.31867,-0.10896,-0.08589,0.15587
0.11904,0.93609,-0.331,-0.1667,-0.10275,0.12928
0.12305,0.93192,-0.34114,-0.164,-0.12432,0.13138
0.12355,0.92925,-0.34818,-0.15143,-0.13841,0.12345
0.12272,0.92784,-0.3522,-0.07821,-0.15299,0.09335
0.12134,0.92794,-0.35243,-0.02957,-0.20235,0.05096
0.11753,0.92848,-0.3523,-0.03552,-0.19259,0.03742
0.11075,0.92903,-0.35305,-0.05119,-0.05453,-0.10046
0.10367,0.93053,-0.35124,-0.04412,-0.05603,-0.10227
0.09902,0.93195,-0.34881,0.00752,-0.03444,-0.18971
0.09725,0.93298,-0.34653,0.1274,0.04297,-0.22003
0.09711,0.93393,-0.34402,0.12097,0.04981,-0.23596
0.09446,0.9359,-0.33936,0.08946,-0.06458,-0.13792
0.08978,0.93909,-0.33174,-0.09736,0.23039,-0.04224
0.08339,0.94126,-0.32722,-0.14846,0.26623,0.00388
0.08082,0.94417,-0.31938,-0.11989,0.33845,0.10045
0.08087,0.94957,-0.30296,-0.08042,-0.05008,0.24401
0.08314,0.95536,-0.2835,-0.09431,-0.21043,0.25251
0.08464,0.96025,-0.266,0.00717,-0.16133,0.26899
0.08433,0.96408,-0.25186,-0.02664,0.10054,0.17998
0.08251,0.96756,-0.23878,-0.04356,0.11217,0.14212
0.08165,0.97078,-0.22567,-0.04666,-0.01265,0.11266
0.08297,0.97386,-0.21146,0.04269,-0.16128,0.06365
0.08715,0.97652,-0.19699,0.05282,-0.09513,0.00335
0.0944,0.97857,-0.18303,0.04611,-0.03074,-0.02109
0.10295,0.98,-0.17029,0.04457,-0.07815,-0.01369
0.10932,0.9814,-0.15778,0.04049,-0.12511,0.01989
0.11113,0.98318,-0.14496,0.06794,-0.12185,0.09523
0.10989,0.98529,-0.13087,0.06581,-0.03111,0.1068
0.10809,0.98738,-0.11578,0.04328,-0.02406,0.09299
0.10856,0.98898,-0.10066,0.02062,-0.03512,0.06768
0.11017,0.99007,-0.08728,-0.01115,-0.07764,0.02103
0.11137,0.9909,-0.0756,-0.01942,-0.03783,0.01719
0.11059,0.99172,-0.06528,0.1157,0.03402,0.03271
0.11002,0.99243,-0.05451,0.14181,0.03444,0.01088
0.10974,0.99301,-0.04331,0.1327,0.02963,-0.01631
0.10754,0.9937,-0.03135,0.09194,0.17758,-0.08184
0.10283,0.99448,-0.02059,0.07906,0.24613,-0.14672
0.09585,0.99532,-0.0121,0.11057,0.22886,-0.13945
0.0889,0.99602,-0.00588,0.07597,0.18982,-0.13617
0.08199,0.99663,-0.00057,-0.04496,0.18245,-0.0771
0.07265,0.99735,0.00256,-0.04807,0.18357,0.05695
0.0608,0.99815,0.00074,0.05685,0.35941,0.31083
0.05272,0.9986,-0.00259,-0.05522,0.32766,0.15592
0.05021,0.99873,-0.00448,-0.32867,0.16126,0.03771
0.0469,0.99882,-0.01211,-0.2781,0.06467,0.0215
0.04156,0.9987,-0.02954,-0.10317,0.20112,-0.02216
0.03671,0.99794,-0.0526,0.08672,0.20245,-0.05035
0.03687,0.99634,-0.07712,0.27532,0.06056,-0.06903
0.04256,0.99398,-0.10092,0.2273,0.01366,-0.09728
0.04655,0.9908,-0.12706,0.03984,-0.02815,-0.02416
0.04873,0.98668,-0.15521,-0.08703,-0.10193,0.04357
0.05135,0.98206,-0.18141,-0.13762,-0.12676,0.06007
0.05457,0.97757,-0.20344,-0.18085,-0.1547,0.11997
0.06047,0.97298,-0.22281,-0.13543,-0.20763,0.12697
0.06932,0.96754,-0.24303,-0.03766,-0.12423,0.08426
0.0807,0.96073,-0.2655,-0.00412,-0.02793,0.06802
0.09165,0.95397,-0.28554,-0.05321,-0.04728,0.07038
0.09926,0.94874,-0.30006,-0.11876,-0.17512,0.14161
0.10339,0.94418,-0.31278,-0.1148,-0.14564,0.15785
0.10747,0.94009,-0.32353,-0.07102,-0.05815,0.11275
0.11128,0.9371,-0.33084,-0.10181,-0.01214,0.02577
0.11483,0.93557,-0.33395,-0.08268,-0.00854,0.00231
0.11661,0.93554,-0.33343,-0.0243,-0.03488,0.02186
0.11337,0.93667,-0.33136,0.0253,-0.07554,0.01354
0.10456,0.93985,-0.32518,-0.00205,0.00811,-0.04117
0.09457,0.94422,-0.31546,-0.00805,0.05859,-0.12616
0.08819,0.9476,-0.30703,0.12962,-0.01933,-0.23849
0.08646,0.9495,-0.30162,0.19024,-0.1702,-0.23976
0.08467,0.95114,-0.29693,0.1607,-0.2007,0.09623
0.08055,0.95411,-0.2884,0.05327,-0.0592,0.04928
0.07241,0.95774,-0.27836,-0.26307,0.28344,0.23727
0.06245,0.96079,-0.27016,-0.28015,0.49858,0.19028
0.06427,0.96341,-0.26021,0.06117,0.20824,0.14624
0.07494,0.96739,-0.24197,0.0678,-0.03422,0.1071
0.08459,0.97057,-0.22549,0.07323,-0.14867,0.14332
0.09261,0.97265,-0.21304,0.0408,-0.20475,0.16737
0.09604,0.97507,-0.20002,-0.01645,-0.23192,0.19782
0.09354,0.97835,-0.1846,-0.13553,-0.07453,0.04843
0.08776,0.98194,-0.1676,-0.08288,0.09846,-0.09064
0.08712,0.98471,-0.15083,0.08669,0.061,-0.04108
0.09495,0.98607,-0.13654,0.12828,-0.1448,0.04892
0.10548,0.98663,-0.12421,0.05013,-0.25122,0.11451
0.1127,0.98754,-0.10987,-0.04493,-0.22936,0.15836
0.11517,0.98923,-0.09037,-0.03209,-0.08714,0.1074
0.1149,0.99083,-0.07113,-0.03981,0.00794,0.07901
0.11468,0.99176,-0.05715,-0.01008,0.02979,0.10659
0.11496,0.99223,-0.04758,0.02058,0.01323,0.07986
0.11353,0.99266,-0.04167,0.06948,-0.01553,0.02737
0.10882,0.99346,-0.03454,0.10957,-0.01598,0.02669
0.10288,0.99449,-0.01997,0.18648,0.0973,0.01479
0.09913,0.99505,-0.00612,0.15644,0.12175,0.0014
0.09798,0.99517,0.00555,0.09382,0.08314,0.01136
0.09782,0.99506,0.01667,-0.06528,0.10461,0.05484
0.0962,0.99498,0.02741,-0.10689,0.14709,-0.02179
0.08945,0.99522,0.0392,-0.09977,0.16829,-0.12349
0.07768,0.99573,0.04987,-0.01305,0.14197,-0.13672
0.06647,0.99616,0.05701,0.01933,0.10206,0.0583
0.05758,0.99657,0.05938,0.065,0.10919,0.08127
0.0505,0.99684,0.06134,0.06738,0.19788,0.15388
0.04527,0.99698,0.06314,-0.16198,0.33963,0.02605
0.04118,0.99749,0.05767,-0.23443,0.31733,0.00176
0.03804,0.99842,0.04135,-0.151,0.16007,0.04685
0.03493,0.99921,0.019,-0.02872,0.0439,0.02865
0.03445,0.99939,-0.00541,0.02662,0.00096,0.00206
0.03877,0.99872,-0.03239,0.09336,-0.00893,0.03154
0.04553,0.99708,-0.06124,-0.00636,0.22218,-0.07174
0.05,0.99475,-0.08933,-0.05302,0.36042,-0.07082
0.05366,0.9912,-0.12097,-0.07733,0.33199,-0.09624
0.05856,0.98593,-0.15654,-0.07016,0.00164,-0.06464
0.0648,0.97909,-0.19282,-0.08102,-0.12963,0.03308
0.07015,0.97276,-0.22095,-0.04719,-0.2353,0.11603
0.07609,0.9677,-0.24036,-0.03358,-0.15999,0.07669
0.0829,0.96315,-0.25586,-0.12864,-0.03052,0.06364
0.08775,0.95885,-0.27002,-0.174,-0.08228,0.07829
0.08977,0.95485,-0.28321,-0.16139,-0.09843,0.10514
0.09163,0.95172,-0.29297,-0.13222,-0.11009,0.10026
0.09298,0.9499,-0.29839,-0.03843,-0.15361,0.08153
0.09336,0.94944,-0.29974,-0.01234,-0.14927,0.09303
0.0932,0.94997,-0.2981,-0.00305,-0.17133,0.07424
0.09027,0.9511,-0.29541,-0.09459,-0.12144,-0.10673
0.08718,0.9528,-0.2908,-0.02059,-0.10901,-0.14049
0.08328,0.9545,-0.28634,0.02056,-0.11457,-0.12977
0.0792,0.95582,-0.28307,0.14278,-0.19606,-0.14283
0.07819,0.95685,-0.27986,0.14815,-0.27996,-0.17212
0.07854,0.95792,-0.27606,0.11822,-0.1796,-0.04646
0.07878,0.9597,-0.26974,-0.00549,0.09474,-0.01327
0.07423,0.96171,-0.26383,-0.11807,0.19163,0.22025
0.0646,0.96383,-0.25855,-0.15734,0.56732,0.15807
0.05918,0.96629,-0.25055,-0.17573,0.15224,0.1512
0.06757,0.97024,-0.23254,0.02829,-0.18636,0.16493
0.07778,0.97246,-0.21969,0.10017,-0.1148,0.20515
0.08128,0.97372,-0.21273,0.07326,0.01709,0.14444
0.08018,0.97512,-0.20666,0.01862,0.12798,0.09497
0.07598,0.97723,-0.1981,-0.10628,-0.04304,0.13377
0.07405,0.97979,-0.18582,-0.0231,-0.13514,0.11116
0.08094,0.9818,-0.17181,0.09398,-0.10752,0.02479
0.0928,0.98321,-0.15711,0.06437,-0.10813,0.02504
0.10551,0.98393,-0.14403,-0.00295,-0.10188,0.06815
0.11192,0.98477,-0.133,-0.064,0.01068,0.11076
0.10998,0.98663,-0.12025,-0.05507,0.07445,0.09184
0.10429,0.98898,-0.1051,0.01935,0.05314,0.10035
0.10318,0.99059,-0.08991,0.06935,-0.13489,0.05782
0.1076,0.99124,-0.07655,0.07299,-0.19716,0.04502
0.11204,0.99162,-0.0643,0.05889,-0.20047,0.04043
0.11451,0.992,-0.05317,0.12261,-0.08866,0.02979
0.11513,0.99241,-0.04307,0.17118,-0.02363,0.01493
0.11533,0.99285,-0.03087,0.11463,0.06196,-0.00505
0.1153,0.99318,-0.0175,0.08514,0.06568,-0.03451
0.11256,0.99363,-0.00486,0.06912,0.06455,-0.04513
0.10847,0.99407,0.00695,0.04093,0.10315,-0.09691
0.10319,0.99451,0.01721,0.08077,0.21127,-0.16883
0.096,0.99503,0.02621,0.1096,0.23264,-0.18691
0.08824,0.99552,0.03388,0.08939,0.2443,-0.11756
0.07983,0.99605,0.03892,-0.06177,0.29279,0.03829
0.0691,0.99681,0.03993,-0.04851,0.34229,0.09404
0.05755,0.99761,0.03809,0.0093,0.2833,0.1368
0.04845,0.99825,0.03392,-0.09433,0.20625,0.10637
0.04353,0.99874,0.02482,-0.17526,0.172,0.09803
0.04251,0.99905,0.00909,-0.20544,0.14288,0.08811
0.04296,0.999,-0.01255,-0.10537,0.14734,0.00415
0.04242,0.99841,-0.03701,-0.01544,0.10373,-0.01271
0.04339,0.99713,-0.06193,0.14617,0.09123,-0.01763
0.04665,0.99499,-0.08842,0.17213,0.11413,-0.00826
0.04962,0.992,-0.11606,0.07939,0.10721,0.00478
0.04903,0.98826,-0.1447,-0.1485,-0.10099,0.08478
0.0489,0.98352,-0.17407,-0.16665,-0.11674,0.09853
0.05282,0.9778,-0.20279,-0.16533,-0.08516,0.1086
0.06167,0.9711,-0.23057,-0.09652,-0.01128,0.06736
0.07464,0.96351,-0.25705,-0.03091,-0.05029,0.0211
0.08901,0.95584,-0.28008,-0.05682,-0.1454,0.06508
0.09887,0.95015,-0.2957,-0.05427,-0.14676,0.11102
0.10297,0.94588,-0.30776,-0.0897,-0.13388,0.11769
0.10504,0.94242,-0.31749,-0.11466,-0.14802,0.12354
0.10769,0.93999,-0.32377,-0.12338,-0.1378,0.08248
0.11048,0.93854,-0.32699,-0.11317,-0.16471,0.04518
0.11092,0.93847,-0.32705,-0.0932,-0.1804,0.04483
0.10708,0.9398,-0.32453,0.031,-0.1285,-0.03206
0.09928,0.9426,-0.31881,0.01607,-0.05732,-0.08213
0.08884,0.94589,-0.31208,0.00826,-0.02231,-0.12183
0.07889,0.94823,-0.30761,0.12313,0.02203,-0.20883
0.07455,0.94912,-0.30596,0.11612,-0.19805,-0.19167
0.07379,0.95032,-0.30241,0.11037,-0.14809,-0.10963
0.07228,0.9521,-0.29712,-0.06716,0.1083,0.07523
0.0662,0.95407,-0.29217,-0.12605,0.35228,0.12829
0.0636,0.9565,-0.28471,-0.12344,0.34985,0.12083
0.06492,0.95953,-0.274,-0.03689,-0.20812,0.10884
0.07287,0.96327,-0.25846,0.07618,-0.21649,0.22193
0.07735,0.96576,-0.24762,0.0717,-0.21898,0.21109
0.07891,0.96727,-0.24116,-0.02761,0.17445,0.15791
0.08193,0.96877,-0.23401,-0.09897,0.08614,0.146
0.08766,0.97078,-0.22338,-0.1047,0.08414,0.13536
0.0966,0.97331,-0.20817,0.01613,-0.07043,0.2281
0.10695,0.97539,-0.19282,0.01609,0.00427,0.10676
0.11639,0.97672,-0.18018,-0.04182,0.00359,0.03923
0.12258,0.97769,-0.17056,-0.08707,-0.03862,0.01861
0.12494,0.97885,-0.16198,-0.03867,-0.07928,0.09835
0.12418,0.98031,-0.15351,0.00263,-0.03376,0.11951
0.12214,0.98225,-0.14235,0.05737,0.03576,0.11325
0.12281,0.98394,-0.12954,0.01904,-0.1289,0.07994
0.12828,0.98513,-0.11429,-0.00565,-0.17043,0.06953
0.13391,0.98613,-0.09803,-0.02899,-0.08519,0.11599
0.13621,0.98723,-0.0826,-0.02467,-0.05368,0.13547
0.13611,0.98824,-0.06965,0.02426,-0.00754,0.08598
0.13555,0.98899,-0.05927,0.06494,-0.02354,0.04428
0.13642,0.98946,-0.04856,0.09293,-0.05745,0.02974
0.13673,0.98987,-0.03826,0.08025,-0.01881,0.02967
0.13412,0.99055,-0.02874,0.10619,0.0664,-0.02278
0.12868,0.9915,-0.01918,0.1,0.10337,-0.06852
0.12343,0.99231,-0.0094,0.05751,0.1149,-0.14932
0.11604,0.99324,-0.00014,0.03956,0.21661,-0.14845
0.10665,0.99426,0.00839,0.08826,0.27559,-0.1252
0.09741,0.9951,0.01657,0.04627,0.28334,-0.01284
0.08929,0.99574,0.02303,0.0453,0.27022,0.10236
0.08098,0.99634,0.02714,0.02635,0.38574,0.17942
0.0729,0.99692,0.02882,-0.08878,0.41931,0.08367
0.06771,0.99731,0.02787,-0.24849,0.3104,0.02758
0.06183,0.99791,0.01873,-0.17888,0.13518,0.00797
0.05543,0.99846,0.00132,-0.05833,0.09091,0.06444
0.0508,0.99846,-0.02221,0.02105,0.02908,0.02523
0.05007,0.99754,-0.04903,0.12385,0.00507,0.01785
0.05383,0.99547,-0.07835,0.15545,0.05418,0.00885
0.06025,0.99237,-0.10755,0.04566,0.14917,-0.05105
0.06546,0.98841,-0.13695,-0.10065,0.08981,-0.00623
0.06862,0.98355,-0.16706,-0.13346,-0.04665,0.00673
0.07158,0.97781,-0.1969,-0.09604,-0.10476,0.04921
0.07697,0.97101,-0.22628,0.0274,-0.08617,0.06844
0.08839,0.96346,-0.25283,0.02159,-0.12812,0.06983
0.1051,0.95606,-0.27367,-0.0068,-0.24273,0.05435
0.11877,0.94932,-0.29099,-0.06703,-0.24989,0.07837
0.12332,0.94294,-0.30929,-0.08505,-0.18397,0.09133
0.12189,0.93778,-0.32512,-0.15393,-0.07418,0.13727
0.12325,0.93385,-0.33577,-0.14868,-0.10268,0.08406
0.12899,0.93138,-0.34042,-0.15093,-0.14648,0.07385
0.13391,0.93011,-0.34201,-0.04613,-0.18412,0.04214
0.13428,0.92966,-0.34306,0.01269,-0.15494,0.09594
0.12925,0.93074,-0.34207,-0.00761,-0.06121,0.02513
0.12045,0.9334,-0.33803,0.00629,0.02309,-0.05462
0.11103,0.93692,-0.33143,0.00709,0.05255,-0.0658
0.10285,0.94054,-0.32373,0.03115,-0.01182,-0.12389
0.09873,0.94369,-0.31574,-0.00889,-0.08111,-0.15826
0.0994,0.94601,-0.30851,0.11765,-0.08212,-0.00963
0.10201,0.94805,-0.30133,0.14271,-0.00575,-0.05246
0.09912,0.95047,-0.29458,0.07209,0.11436,-0.05132
0.08922,0.95443,-0.28478,-0.06981,0.41086,0.11574
0.08199,0.95815,-0.27429,0.00997,0.41278,0.10597
0.0824,0.96289,-0.25701,-0.04526,-0.1756,0.15616
0.08466,0.96782,-0.23697,-0.0962,-0.13947,0.12865
0.0852,0.97135,-0.22187,-0.07262,-0.08946,0.09629
0.08247,0.974,-0.21102,-0.07971,0.01848,0.13041
0.0777,0.97653,-0.20086,-0.11689,-0.03058,0.16437
0.07306,0.97855,-0.19264,-0.11552,-0.03848,0.1365
0.07261,0.98035,-0.18342,0.02098,0.07797,0.05247
0.07923,0.98232,-0.16958,0.08957,0.10499,0.04709
0.0908,0.98418,-0.15211,0.1617,-0.01907,0.05308
0.10305,0.98532,-0.13608,-0.00137,-0.21062,0.08559
0.11094,0.98614,-0.12333,-0.03375,-0.19453,0.08526
0.11263,0.98722,-0.11274,0.01313,-0.07192,0.05494
0.10866,0.98869,-0.10339,0.00827,-0.00408,0.06828
0.10538,0.99,-0.09376,-0.03562,-0.02153,0.09746
0.10747,0.99083,-0.0819,-0.04185,-0.11629,0.15357
0.1132,0.99105,-0.07079,0.01078,-0.17336,0.13567
0.11769,0.99103,-0.06335,0.04918,-0.08719,0.12324
0.11925,0.9912,-0.05738,0.03247,-0.01406,0.07431
0.11865,0.99165,-0.05043,0.00243,0.06284,0.01938
0.11585,0.99241,-0.04124,0.05725,0.08672,-0.00102
0.11231,0.99315,-0.03218,0.19154,0.12614,-0.068
0.10948,0.99371,-0.02329,0.23695,0.1183,-0.10744
0.1068,0.99421,-0.01183,0.21727,0.16196,-0.10891
0.10284,0.9947,-0.00036,0.16275,0.23422,-0.00321
0.09588,0.99533,0.01132,-0.01741,0.22545,-0.0599
0.0851,0.99615,0.02113,-0.17244,0.1876,-0.11567
0.07158,0.99709,0.02608,-0.12415,0.16496,0.01381
0.05878,0.99785,0.02877,0.05844,0.16726,0.20922
0.04695,0.99844,0.03024,-0.11134,0.18094,0.16177
0.041,0.99872,0.0295,-0.25635,0.19784,0.06709
0.03752,0.99906,0.02157,-0.1033,0.21156,0.06158
0.03265,0.99942,0.00934,-0.03555,0.15236,0.03698
