gravity.x,gravity.y,gravity.z,userAcceleration.x,userAcceleration.y,userAcceleration.z
0.25476,0.8585,-0.44506,-0.09435,0.02816,-0.27495
0.23697,0.88589,-0.3988,0.06843,1.18209,0.06871
0.23685,0.90748,-0.34696,0.24395,0.60481,-0.12046
0.24632,0.91824,-0.3101,0.01859,-0.0464,-0.23257
0.24966,0.92646,-0.28168,-0.28463,-0.16568,-0.01665
0.23896,0.93706,-0.25459,-0.22116,0.04982,0.16299
0.21305,0.95068,-0.22543,-0.25614,0.18368,0.17661
0.18027,0.96424,-0.19428,-0.31679,0.41839,0.1844
0.15464,0.97444,-0.16293,-0.37465,0.43167,0.22685
0.13904,0.98167,-0.1303,-0.22827,0.15857,0.18139
0.12615,0.98746,-0.0949,-0.14079,-0.0855,0.10975
0.11267,0.99172,-0.06167,-0.08536,-0.12965,0.1096
0.10174,0.99428,-0.03232,-0.01468,-0.14687,0.0797
0.09293,0.99564,-0.0077,-0.00014,-0.20125,0.01985
0.08433,0.99637,0.01117,-0.08194,-0.23612,0.00859
0.0754,0.99683,0.02547,-0.13459,-0.2892,0.01536
0.06746,0.99694,0.03945,-0.169,-0.27198,0.05378
0.0608,0.9967,0.05378,-0.15316,-0.22903,0.11388
0.0554,0.99619,0.06736,-0.09677,-0.1853,0.07041
0.05178,0.99535,0.08118,-0.14507,-0.08526,0.02779
0.04691,0.99461,0.09244,-0.06711,0.10236,0.12463
0.04019,0.99403,0.10137,-0.00532,0.17972,0.13409
0.03159,0.99329,0.11123,0.02266,0.28193,0.03021
0.01988,0.99252,0.1204,0.10842,0.20447,-0.07197
0.00606,0.99156,0.12947,0.09767,0.1626,-0.09161
-0.00601,0.99036,0.13834,0.33718,0.25185,-0.08897
-0.01963,0.98891,0.1472,0.28879,0.26156,-0.13226
-0.032,0.98744,0.15472,0.17844,0.24056,-0.14045
-0.04247,0.98645,0.15845,-0.11048,0.12161,-0.00632
-0.04938,0.98659,0.15554,-0.18355,0.16989,-0.01423
-0.05093,0.98796,0.14605,-0.24174,0.28197,-0.01033
-0.04895,0.9903,0.13,-0.15169,0.37722,0.01143
-0.04432,0.99343,0.10548,-0.14808,0.35131,-0.00512
-0.03479,0.99681,0.07184,-0.18778,0.25437,-0.09722
-0.01861,0.99925,0.03376,-0.11793,0.2859,-0.21823
0.00434,0.99999,-0.00161,0.18055,0.15289,-0.3246
0.03751,0.99881,-0.03124,0.33421,-0.0066,-0.32459
0.07929,0.99516,-0.05805,0.18185,0.03327,-0.22169
0.12082,0.98917,-0.08335,-0.14885,0.34142,-0.15865
0.15606,0.98198,-0.10654,-0.46179,0.18661,0.02463
0.17714,0.975,-0.13415,-0.57583,-0.08804,0.00076
0.18535,0.96918,-0.16229,-0.51652,-0.20413,0.14832
0.19182,0.96386,-0.18484,-0.38581,-0.17852,-0.01911
0.20513,0.95729,-0.20378,-0.38732,-0.19448,-0.02197
0.22067,0.94946,-0.22323,-0.2541,-0.25346,0.06445
0.23757,0.94073,-0.24205,-0.18018,-0.2667,0.04387
0.25373,0.9322,-0.25811,-0.19685,-0.257,0.10113
0.26639,0.92407,-0.2741,-0.15969,-0.26698,0.14786
0.27644,0.91652,-0.28908,-0.17798,-0.27844,0.15362
0.2847,0.91014,-0.30099,-0.19342,-0.30479,0.12812
0.29086,0.90566,-0.30851,-0.15183,-0.32573,0.1108
0.29532,0.9037,-0.31002,-0.15698,-0.25152,0.10007
0.29913,0.90452,-0.3039,-0.11659,-0.35089,0.04304
0.29999,0.90856,-0.29071,-0.12633,-0.32664,0.00374
0.29861,0.91529,-0.27034,-0.12773,-0.33084,-0.00626
0.2942,0.92427,-0.24325,-0.15462,-0.29611,-0.06519
0.28554,0.93484,-0.21107,-0.05644,-0.31428,-0.25836
0.27098,0.94618,-0.17694,0.02574,-0.34482,-0.34561
0.24771,0.95778,-0.14596,0.20083,-0.36062,-0.46269
0.21566,0.96928,-0.11827,0.41251,-0.18714,-0.48775
0.17936,0.9794,-0.09275,0.51923,0.02585,-0.48377
0.14731,0.98597,-0.07851,0.88765,0.8783,-0.01851
0.14192,0.98747,-0.06891,0.59868,0.78981,-0.2233
0.16769,0.98415,-0.05774,0.38292,0.37708,-0.34556
0.19953,0.97896,-0.04263,-0.07323,0.09237,-0.17349
0.22099,0.97523,-0.00925,-0.96462,0.70662,0.05663
0.21514,0.97634,0.02168,-1.18041,0.67007,-0.18501
0.19833,0.97954,0.03409,-0.39464,-0.20285,-0.01859
0.19085,0.98048,0.04723,-0.35378,-0.21324,0.12672
0.17447,0.98246,0.06577,-0.32007,-0.22213,0.22837
0.15074,0.98549,0.07804,-0.22479,-0.06563,0.27217
0.12078,0.98967,0.07717,-0.17414,0.10408,0.11666
0.09325,0.99289,0.074,-0.12839,0.13663,0.05975
0.07532,0.99323,0.08843,-0.14049,-0.08136,0.1379
0.06212,0.9912,0.1169,-0.14026,-0.09749,0.10058
0.05016,0.98828,0.14416,-0.14616,-0.0605,0.07096
0.04002,0.98587,0.16265,-0.0555,-0.01251,-0.0955
0.03013,0.98452,0.17266,-0.03776,-0.02857,-0.16008
0.01879,0.98353,0.17977,0.00329,-0.06098,-0.10692
0.0065,0.98249,0.18618,0.07819,0.03727,0.03844
-0.00736,0.98099,0.19392,0.07959,0.02724,-0.01371
-0.02135,0.97871,0.20411,0.0752,0.00763,-0.08526
-0.03455,0.97594,0.21529,0.04004,-0.07173,-0.19904
-0.04758,0.97287,0.2264,0.10109,-0.06137,-0.18168
-0.05993,0.96934,0.23828,0.16947,-0.01872,-0.12517
-0.0736,0.96535,0.25037,0.16337,0.03761,-0.14481
-0.08881,0.96123,0.26103,0.18879,0.09164,-0.2205
-0.10505,0.95679,0.27112,0.18827,0.09492,-0.22875
-0.12039,0.95277,0.27881,0.18135,0.16911,-0.09939
-0.12963,0.9521,0.27694,0.12124,0.14264,-0.04648
-0.13532,0.95338,0.26971,-0.06365,0.07373,-0.22908
-0.14118,0.95256,0.26961,-0.04846,0.11453,-0.25188
-0.14542,0.95306,0.26554,0.09228,0.23775,-0.30198
-0.14821,0.95577,0.25403,0.16816,0.31652,-0.23982
-0.14554,0.96055,0.23699,0.17091,0.26792,-0.08596
-0.13581,0.96795,0.21122,0.18083,0.20764,-0.1302
-0.11686,0.97747,0.17576,0.12635,0.1217,-0.04654
-0.08708,0.98745,0.13174,-0.02947,-0.04076,-0.12619
-0.04896,0.99527,0.08383,-0.24029,0.50077,-0.1013
-0.0083,0.99915,0.04041,-0.34098,0.64185,-0.06301
0.03148,0.9995,-0.00288,-0.333,0.55691,-0.1218
0.06724,0.99691,-0.04056,-0.04536,0.09602,-0.09434
0.09639,0.99304,-0.06759,0.07046,0.01596,-0.07883
0.12087,0.98859,-0.08987,0.12766,0.03476,-0.03043
0.14707,0.9825,-0.11424,0.10657,0.10877,0.00306
0.17789,0.97379,-0.14171,0.01138,0.111,0.0436
0.20956,0.9633,-0.16772,-0.19351,-0.02504,0.11162
0.23881,0.95191,-0.1919,-0.42494,-0.26685,0.1088
0.26201,0.94058,-0.21601,-0.44835,-0.29405,0.13035
0.27774,0.93039,-0.23922,-0.42583,-0.28693,0.14379
0.28857,0.92186,-0.25866,-0.33595,-0.34039,0.14464
0.29597,0.91601,-0.27079,-0.32559,-0.32357,0.16333
0.3003,0.91338,-0.27487,-0.27596,-0.31507,0.13241
0.30205,0.91361,-0.27218,-0.23824,-0.32501,0.10965
0.29999,0.91669,-0.26397,-0.20026,-0.31092,0.0622
0.29212,0.92312,-0.25004,-0.14953,-0.3452,-0.10932
0.27556,0.93364,-0.22884,-0.062,-0.26253,-0.20344
0.24843,0.9476,-0.20085,0.02196,-0.18833,-0.25583
0.21538,0.96114,-0.17267,0.36578,0.30024,-0.42404
0.18746,0.9692,-0.15972,0.69334,0.83839,-0.36371
0.18046,0.9692,-0.16756,0.76954,0.88148,-0.27288
0.19843,0.96382,-0.17798,0.37397,0.04352,-0.36591
0.22224,0.9576,-0.18332,0.14387,-0.1745,-0.12186
0.23708,0.95442,-0.18132,0.05797,-0.07429,0.13576
0.24354,0.95341,-0.17804,-0.40972,0.75822,0.30939
0.24934,0.95355,-0.16902,-0.32006,0.33592,-0.04927
0.25525,0.95173,-0.17043,-0.2617,-0.1765,0.05219
0.25134,0.95205,-0.17443,-0.60275,-0.07378,0.25827
0.2321,0.95726,-0.17255,-0.44979,-0.29911,0.46451
0.19995,0.9675,-0.15481,-0.32911,-0.23636,0.51157
0.16278,0.97782,-0.1318,-0.23666,0.42868,0.36544
0.13366,0.98354,-0.12154,-0.092,0.20821,0.10143
0.11122,0.98731,-0.1133,0.00237,-0.05442,0.08842
0.09199,0.99068,-0.10041,-0.26528,-0.04752,0.09571
0.07318,0.99354,-0.08676,-0.29372,-0.10225,0.12189
0.054,0.996,-0.07109,-0.17169,-0.08641,0.16068
0.0371,0.99784,-0.05419,-0.04926,-0.03924,0.14782
0.02272,0.99902,-0.03787,0.08813,-0.11319,0.12788
0.00874,0.99969,-0.02318,0.11963,-0.1618,0.0668
-0.00513,0.99993,-0.01065,0.09324,-0.09749,0.01941
-0.01858,0.99982,-8e-05,0.10154,-0.06019,-0.08634
-0.03303,0.99941,0.00909,0.15066,-0.04624,-0.11332
-0.04979,0.9986,0.0176,0.13942,-0.03063,-0.01171
-0.06808,0.99737,0.02472,0.15998,-0.00302,0.06009
-0.08681,0.99559,0.03549,0.1241,-0.05568,0.08436
-0.10572,0.99306,0.05151,0.08098,-0.07649,0.03561
-0.12478,0.98984,0.06819,0.05958,0.1061,-0.10025
-0.14294,0.98647,0.08025,0.06233,0.19096,-0.16084
-0.15792,0.98383,0.08443,0.08288,0.24865,-0.24389
-0.16716,0.98252,0.08189,0.22052,0.04801,-0.08876
-0.17242,0.98218,0.07469,0.27344,0.06994,0.02776
-0.17403,0.98284,0.06119,0.29215,0.2126,0.10434
-0.17183,0.98421,0.04232,0.17084,0.37661,0.11413
-0.16287,0.9865,0.017,0.18391,0.26214,0.21807
-0.1439,0.9894,-0.01964,0.223,0.08379,0.32094
-0.11658,0.99102,-0.06543,0.12767,-0.00213,-0.08522
-0.08218,0.99084,-0.10712,0.06335,0.03749,0.10655
-0.04036,0.98861,-0.14498,-0.15274,0.52284,0.04324
0.00505,0.98288,-0.18415,-0.28193,0.70785,0.10958
0.04559,0.97477,-0.21849,-0.02969,0.32603,0.22577
0.07718,0.96709,-0.24245,0.13231,0.09132,0.26107
0.10385,0.96091,-0.25663,0.20998,0.07429,0.26767
0.13393,0.95408,-0.26794,0.15859,0.0926,0.21538
0.16837,0.94569,-0.27806,0.01942,0.05195,0.2411
0.20326,0.93642,-0.286,-0.01547,0.06121,0.24905
0.23397,0.92682,-0.29369,-0.13097,-0.0199,0.25696
0.25337,0.91722,-0.30741,-0.22705,-0.10182,0.32429
0.26024,0.90821,-0.32776,-0.28004,-0.12623,0.35381
0.25969,0.90044,-0.34894,-0.278,-0.15672,0.33792
0.25518,0.89455,-0.36697,-0.4381,-0.13357,0.32831
0.25159,0.89088,-0.3782,-0.4973,-0.15928,0.36565
0.25094,0.8891,-0.38279,-0.5218,-0.19412,0.36535
0.25177,0.89007,-0.37999,-0.45092,-0.26011,0.16299
0.24985,0.89568,-0.36788,-0.37824,-0.27948,0.11083
0.24163,0.90659,-0.34597,-0.32209,-0.29493,0.10148
0.22527,0.92088,-0.31818,-0.02396,-0.16331,-0.11392
0.20029,0.93429,-0.29493,0.31911,0.04041,-0.43906
0.17044,0.9436,-0.28384,0.51973,0.20696,-0.47672
0.15605,0.94565,-0.2853,0.96685,0.84436,0.15804
0.17496,0.94087,-0.29008,0.57117,-0.17223,-0.12734
0.20556,0.93344,-0.29401,0.54056,-0.16479,-0.12341
0.23347,0.92834,-0.28927,0.25551,-0.35021,0.35685
0.24732,0.9296,-0.27325,-0.02533,-0.06208,0.5193
0.248,0.9382,-0.24142,-0.2103,0.2683,0.06748
0.23533,0.94832,-0.21286,-0.31512,1.55679,-0.42737
0.21705,0.94739,-0.23525,-0.32608,0.65073,-0.04335
0.22066,0.94086,-0.25709,-0.51417,-0.28351,0.06722
0.21085,0.94455,-0.25171,-0.62348,-0.36486,0.54875
0.18323,0.95506,-0.23297,-0.51962,-0.34422,0.87694
0.14072,0.96754,-0.20989,-0.31327,0.24246,0.54047
0.09987,0.97617,-0.19264,-0.07127,0.67281,0.13125
0.07311,0.98239,-0.17193,-0.03355,-0.14027,0.26335
0.0553,0.98823,-0.14264,-0.17358,-0.17948,0.25362
0.04041,0.99244,-0.11588,-0.32023,-0.16924,0.28782
0.02302,0.99546,-0.09231,-0.22376,-0.09411,0.23545
0.00347,0.99757,-0.06958,-0.12072,-0.02538,0.19042
-0.01574,0.99875,-0.04749,0.03006,-0.03009,0.14692
-0.033,0.99908,-0.02721,0.10802,-0.14091,0.07474
-0.04732,0.99882,-0.01097,0.12056,-0.12972,0.01408
-0.05966,0.99821,0.00195,0.15128,-0.08887,-0.11117
-0.07353,0.99718,0.01464,0.08231,-0.10984,0.03484
-0.0906,0.99561,0.02358,0.15337,-0.05724,0.0012
-0.11068,0.99334,0.03212,0.12022,-0.08396,0.04038
-0.13279,0.98996,0.04831,0.10135,-0.07035,0.015
-0.15579,0.98548,0.06744,0.12631,0.07271,-0.1185
-0.17715,0.98075,0.08214,0.2069,0.23136,-0.11307
-0.19369,0.97723,0.08658,0.21107,0.28285,-0.09972
-0.20209,0.97576,0.0839,0.30743,0.08144,0.03035
-0.20493,0.97567,0.07792,0.25327,0.24123,0.02781
-0.20472,0.97642,0.06852,0.21234,0.31151,0.02747
-0.1988,0.97868,0.05151,0.25771,0.29057,0.10977
-0.18345,0.98276,0.02282,0.24263,0.06936,0.26248
-0.1564,0.9875,-0.0194,0.22551,-0.10827,-0.13906
-0.11864,0.99086,-0.06409,0.04218,0.12536,0.03709
-0.0706,0.99225,-0.10223,-0.23069,0.57295,0.02902
-0.01576,0.98982,-0.14141,-0.57007,1.05786,0.00974
0.03412,0.98302,-0.18028,-0.50166,0.65145,0.14197
0.07416,0.97509,-0.20902,0.00246,0.2838,0.05726
0.10666,0.96855,-0.22477,0.12027,0.21368,0.08448
0.13505,0.96211,-0.23685,0.15614,0.11803,0.09898
0.16577,0.95262,-0.25503,0.15085,-0.02478,0.11776
0.19828,0.93986,-0.27812,-0.03648,-0.05201,0.20566
0.22778,0.92626,-0.30026,-0.1574,-0.07648,0.25718
0.25038,0.91336,-0.32106,-0.41221,-0.27519,0.31903
0.2648,0.90149,-0.34235,-0.48614,-0.37601,0.27213
0.27062,0.89187,-0.36239,-0.48069,-0.41528,0.30727
0.27071,0.8851,-0.37858,-0.43344,-0.39327,0.31949
0.26842,0.88124,-0.38906,-0.38474,-0.35066,0.29049
0.26639,0.88037,-0.39241,-0.31821,-0.33235,0.27852
0.26432,0.88261,-0.38876,-0.25362,-0.31204,0.20756
0.26132,0.88847,-0.37727,-0.22195,-0.24556,0.12865
0.25365,0.89898,-0.35706,-0.193,-0.24813,0.05572
0.23783,0.91335,-0.33049,-0.10731,-0.15122,-0.13422
0.21165,0.92899,-0.3036,0.32863,0.18685,-0.52292
0.1791,0.9413,-0.28613,0.55529,0.41743,-0.49112
0.16121,0.94371,-0.28881,0.88965,0.98367,-0.05765
0.17872,0.93603,-0.30316,0.57576,0.22698,-0.48462
0.20404,0.92483,-0.32102,0.40758,-0.24671,-0.43269
0.22392,0.91779,-0.32791,0.19181,-0.38614,0.01704
0.23447,0.91889,-0.31727,-0.29746,0.26762,0.53016
0.23562,0.92388,-0.30155,-0.47791,0.43379,0.49093
0.23409,0.92866,-0.28773,-0.76636,1.07424,-0.24116
0.23952,0.925,-0.29497,-0.0224,-0.2324,0.13045
0.25403,0.92136,-0.29422,-0.27253,-0.36046,0.14571
0.25376,0.92528,-0.28189,-0.45608,-0.21077,0.43834
0.23578,0.93553,-0.26304,-0.47421,-0.06277,0.43966
0.20076,0.95135,-0.2337,-0.39123,0.14587,0.39337
0.16837,0.96338,-0.20869,0.01903,0.50397,0.31929
0.15032,0.97119,-0.18492,0.12414,0.30838,0.17164
0.13577,0.97886,-0.15296,-0.03863,-0.0232,0.10862
0.11595,0.98526,-0.12572,-0.19473,-0.06911,0.12653
0.09208,0.99021,-0.10483,-0.20852,-0.12576,0.12102
0.06905,0.99404,-0.08428,-0.10888,-0.23884,0.2056
0.04507,0.99695,-0.06375,-0.03943,-0.21809,0.1423
0.02306,0.99881,-0.04298,0.033,-0.15921,0.14317
0.00134,0.99974,-0.02264,0.15773,-0.10269,0.13089
-0.01882,0.99981,-0.00353,0.23168,-0.09663,0.07241
-0.03714,0.99921,0.01362,0.22121,-0.09255,-0.03866
-0.05504,0.99808,0.02841,0.16733,-0.11934,-0.05341
-0.07503,0.99631,0.04149,0.09795,-0.04244,-0.08932
-0.09825,0.99378,0.05238,0.06571,0.00776,-0.12342
-0.12277,0.9902,0.06659,0.16668,0.00451,-0.07051
-0.14635,0.98556,0.08506,0.28324,0.27226,-0.04281
-0.16865,0.98068,0.0991,0.30554,0.27715,-0.05685
-0.18508,0.97729,0.10316,0.26548,0.19468,-0.04362
-0.1911,0.97635,0.10106,0.20288,0.26782,-0.06491
-0.1922,0.97676,0.09485,0.19308,0.52407,-0.0727
-0.18813,0.97914,0.07673,0.30134,0.51256,0.01093
-0.17024,0.98454,0.04106,0.27571,0.21095,0.21751
-0.13523,0.99077,-0.009,0.26401,0.09622,-0.08273
-0.08614,0.99448,-0.05985,-0.00854,0.29472,0.1303
-0.02962,0.99378,-0.10735,-0.4837,0.88225,-0.11099
0.02174,0.98676,-0.16072,-0.80353,0.76353,0.28436
0.05895,0.97596,-0.20979,-0.58705,0.43879,0.41045
0.09312,0.96514,-0.24459,0.07848,0.24667,0.13618
0.13057,0.9541,-0.2695,0.37478,0.29889,0.11335
0.17255,0.93941,-0.29619,0.34762,0.23715,0.13495
0.21717,0.91973,-0.32701,0.15105,0.09541,0.21935
0.25739,0.89681,-0.35983,-0.16022,0.10528,0.26458
0.28972,0.87242,-0.39364,-0.40273,-0.00201,0.29526
0.31292,0.84768,-0.42839,-0.51553,-0.14907,0.32915
0.32619,0.82368,-0.46384,-0.54505,-0.24862,0.35448
0.32882,0.80006,-0.50178,-0.53048,-0.27636,0.44876
0.32403,0.77682,-0.53995,-0.47727,-0.27272,0.38664
0.31556,0.75594,-0.57356,-0.27173,-0.24456,0.24022
0.31349,0.73778,-0.59783,-0.175,-0.20944,0.18412
0.31871,0.7238,-0.612,-0.01437,-0.21258,0.09584
0.32156,0.71195,-0.62428,0.20077,-0.22187,-0.05542
0.31531,0.70248,-0.63804,0.22839,-0.18238,-0.0828
0.30326,0.69791,-0.64881,0.35374,-0.19921,-0.03303
0.2929,0.70189,-0.64928,0.4038,-0.17967,0.0232
0.29127,0.7131,-0.63768,0.39162,-0.20578,-0.083
0.29619,0.72904,-0.61707,0.13822,-0.05939,-0.10441
0.30777,0.74333,-0.59391,-0.10085,0.09548,-0.29433
0.31662,0.75301,-0.57683,-0.27249,0.76942,-0.2171
0.32657,0.76739,-0.55178,-0.16909,0.82685,0.37783
0.33411,0.7865,-0.51941,-0.27792,0.43331,0.45705
0.33946,0.80584,-0.48516,-0.36153,0.03537,0.35484
0.33898,0.82643,-0.44956,-0.53291,0.17292,0.36173
0.32444,0.85038,-0.41423,-0.57687,0.24162,0.26991
0.29681,0.87525,-0.38189,-0.54568,0.33073,0.24603
0.26724,0.89658,-0.35315,-0.26586,0.5812,0.29541
0.24061,0.91454,-0.32514,-0.17803,0.46413,0.28209
0.21722,0.92945,-0.29822,-0.16146,0.07255,0.27625
0.19637,0.94233,-0.271,-0.16528,-0.20302,0.27001
0.17393,0.95506,-0.24002,-0.12787,-0.30551,0.32536
0.15075,0.96645,-0.20793,-0.05222,-0.2749,0.33199
0.12904,0.97537,-0.17885,0.04593,-0.17111,0.28099
0.10887,0.98243,-0.15156,0.08409,-0.12399,0.20383
0.09038,0.98811,-0.12435,0.12146,-0.0933,0.13484
0.07256,0.99241,-0.0993,-0.03703,-0.02839,0.12182
0.05695,0.99532,-0.07798,-0.1206,0.09487,0.05942
0.04596,0.99722,-0.05863,-0.12256,0.03241,0.05947
0.03824,0.99834,-0.04295,-0.08249,0.02403,0.02182
0.02838,0.99906,-0.0325,0.02835,0.14524,-0.04735
0.01677,0.9995,-0.02676,0.17233,0.25043,-0.09452
0.00566,0.99972,-0.02263,0.33829,0.24423,-0.06117
-0.00564,0.99978,-0.01991,0.38423,0.24808,-0.03142
-0.0161,0.99971,-0.01747,0.32464,0.24043,-0.01929
-0.0244,0.99957,-0.01573,0.24878,0.22864,0.00658
-0.03021,0.99942,-0.01566,-0.00103,0.30938,-0.02616
-0.03237,0.99934,-0.01633,-0.04281,0.30596,0.08409
-0.02749,0.99931,-0.02477,-0.16807,0.161,0.20716
-0.01492,0.9989,-0.0445,-0.28603,0.19175,-0.0505
0.00067,0.99779,-0.06646,-0.31594,0.23349,-0.07468
0.01464,0.99586,-0.08971,-0.27468,0.27851,0.02442
0.02909,0.99215,-0.12158,-0.0969,0.21328,-0.02806
0.04813,0.98554,-0.16243,-0.07021,0.19564,-0.01363
0.07737,0.97626,-0.2023,0.02986,0.10016,0.04852
0.11552,0.96442,-0.23779,0.02816,0.23137,0.01587
0.16086,0.948,-0.27463,-0.02795,0.24765,0.01341
0.20791,0.93094,-0.30019,-0.21417,0.16665,0.14758
0.24771,0.91586,-0.31597,-0.50056,-0.05999,0.06277
0.26953,0.89833,-0.34693,-0.46421,-0.08857,-0.00747
0.27549,0.87918,-0.38876,-0.11239,0.17262,0.01075
0.28843,0.85628,-0.42848,-0.21462,0.17523,0.10281
0.30868,0.82685,-0.47014,-0.32979,0.1045,0.21469
0.31324,0.79822,-0.51451,-0.26114,-0.1613,0.31837
0.31103,0.77455,-0.55075,-0.12415,-0.15578,0.14473
0.31352,0.75195,-0.57988,-0.05763,-0.17874,0.19939
0.30576,0.72943,-0.61191,-0.01136,-0.16814,0.22519
0.28973,0.71156,-0.64011,-0.02871,-0.2853,0.17134
0.26662,0.70151,-0.66091,-0.02913,-0.38335,0.11296
0.24307,0.70161,-0.66981,-0.07052,-0.45302,0.06267
0.22613,0.714,-0.66262,-0.05924,-0.42431,0.25938
0.22682,0.73794,-0.63561,-0.00373,-0.41976,0.35362
0.2404,0.77534,-0.58399,-0.22549,-0.378,0.40072
0.24232,0.81448,-0.52716,-0.40778,0.19203,-0.52251
0.22218,0.84562,-0.48535,-0.34998,1.08889,-0.15022
0.20753,0.873,-0.44136,0.22182,1.61806,0.34656
0.21957,0.88541,-0.40967,0.05336,-0.086,-0.13115
0.22262,0.89357,-0.38982,-0.07042,-0.57967,0.03223
0.21,0.90748,-0.36383,-0.19804,-0.44815,0.19299
0.18539,0.92217,-0.33945,-0.19382,-0.09034,0.30904
0.15345,0.93638,-0.31566,-0.10695,0.17673,0.28941
0.12651,0.949,-0.28878,-0.04222,0.37877,0.30257
0.11115,0.95996,-0.25714,-0.02339,0.18125,0.24553
0.10363,0.96961,-0.22162,-0.03294,-0.05175,0.1028
0.09704,0.97756,-0.18697,-0.07282,-0.17255,0.13311
0.08896,0.98386,-0.15522,-0.05145,-0.27784,0.14629
0.07895,0.9887,-0.12739,-0.02196,-0.28742,0.07998
0.06546,0.99235,-0.10463,-0.03615,-0.20935,-0.04772
0.04794,0.99513,-0.08609,0.11855,-0.07113,-0.05532
0.02861,0.99707,-0.07088,0.19896,-0.07159,-0.04885
0.01251,0.9983,-0.0568,0.24757,0.02515,-0.00505
0.00229,0.99903,-0.04398,0.32145,0.18507,0.03976
-0.00354,0.9994,-0.03438,0.32421,0.16747,0.00189
-0.00812,0.99964,-0.02536,0.24114,0.1639,0.05351
-0.01432,0.99976,-0.01645,0.07093,0.18071,0.13867
-0.02341,0.9997,-0.00705,-0.03316,0.22844,0.1181
-0.03392,0.99941,0.00294,-0.15924,0.25977,0.10782
-0.04686,0.99883,0.01159,-0.02253,0.44389,0.04647
-0.06,0.99804,0.01729,0.06333,0.4451,0.03967
-0.06853,0.99747,0.01881,0.17947,0.30667,-0.00936
-0.07297,0.99722,0.01463,0.20499,0.19414,0.1243
-0.07278,0.99734,0.00114,0.1992,0.10508,0.212
-0.06422,0.99765,-0.02342,-0.02951,0.08715,0.06467
-0.04578,0.9977,-0.04992,-0.36749,0.22337,-0.19829
-0.02191,0.99684,-0.0763,-0.43651,0.3478,-0.26064
0.00043,0.99456,-0.10414,-0.26114,0.31527,-0.32899
0.02271,0.99039,-0.13638,-0.05286,0.27023,-0.21802
0.05348,0.98295,-0.17589,0.21568,0.13298,-0.13286
0.08938,0.97097,-0.22185,0.16471,0.16688,0.09877
0.12799,0.95488,-0.268,0.05122,0.14637,0.26571
0.16288,0.93811,-0.30562,-0.13847,0.13144,0.37661
0.18653,0.92249,-0.33795,-0.58171,-0.0582,0.22824
0.1945,0.90678,-0.37406,-0.56814,-0.1598,0.28554
0.19502,0.89111,-0.40974,-0.47016,-0.14674,0.30044
0.20549,0.87247,-0.44335,-0.14152,-0.04859,0.08716
0.22801,0.8481,-0.47826,-0.26164,-0.16028,0.25746
0.24052,0.82252,-0.51536,-0.25474,-0.16768,0.35347
0.24575,0.79862,-0.54937,-0.08648,-0.24875,0.20892
0.2504,0.77624,-0.57858,-0.10184,-0.16236,0.13827
0.25092,0.75659,-0.60383,-0.06236,-0.12649,0.17378
0.24663,0.74138,-0.62412,-0.02539,-0.07235,0.19623
0.2396,0.73302,-0.6366,-0.11208,-0.19974,0.07183
0.23137,0.73358,-0.639,-0.12097,-0.29724,0.02737
0.22675,0.74362,-0.62897,0.01454,-0.29865,-0.0144
0.22933,0.76223,-0.60531,0.03274,-0.36497,0.21823
0.23918,0.7918,-0.56199,-0.05824,-0.47344,0.44754
0.24392,0.83186,-0.4985,-0.27966,-0.40982,-0.16454
0.22836,0.86189,-0.45276,-0.19393,1.01413,0.41869
0.20183,0.89347,-0.40122,-0.02843,1.51988,0.42406
0.18666,0.91421,-0.35967,0.25723,0.87979,-0.15292
0.18518,0.92414,-0.33416,-0.23413,-0.49082,0.1694
0.17314,0.9348,-0.3101,-0.22047,-0.47963,0.29922
0.14802,0.94713,-0.28465,-0.07579,0.03827,0.25845
0.11795,0.95985,-0.25449,-0.05386,0.24566,0.264
0.09496,0.97148,-0.21724,0.01074,0.27397,0.267
0.0816,0.98023,-0.18023,0.05377,0.0682,0.18805
0.07141,0.98633,-0.14846,-0.08899,-0.15175,0.03652
0.05959,0.99069,-0.12239,-0.10203,-0.177,0.01311
0.04496,0.994,-0.09968,-0.07118,-0.18638,0.08254
0.02703,0.99628,-0.08177,0.05701,-0.18665,0.09564
0.00893,0.99757,-0.069,0.09762,-0.20663,0.04437
-0.00778,0.99828,-0.05805,0.14682,-0.15283,-0.02344
-0.02368,0.99859,-0.0474,0.10298,0.00379,0.10887
-0.0359,0.99862,-0.03818,0.09717,0.04545,0.10567
-0.04481,0.99855,-0.02956,0.08874,0.14813,0.08346
-0.05206,0.99844,-0.02017,0.12726,0.22608,0.18411
-0.05539,0.99839,-0.01199,0.13058,0.22613,0.17593
-0.0566,0.99839,-0.00291,0.16756,0.35096,0.05234
-0.05973,0.99818,0.00686,0.14631,0.36592,-0.04725
-0.06321,0.9979,0.01359,0.16396,0.35413,-0.08747
-0.0656,0.99772,0.01544,0.18633,0.27997,-0.1275
-0.06534,0.99778,0.01266,-0.00807,0.14677,0.02899
-0.05853,0.99828,0.00131,-0.10636,0.12669,0.08775
-0.04242,0.99886,-0.02163,-0.26402,0.26481,0.01565
-0.02019,0.99858,-0.04914,-0.33775,0.41073,-0.21256
0.00024,0.9968,-0.07992,-0.35394,0.44113,-0.26933
0.01898,0.99318,-0.11501,-0.22447,0.35942,-0.2554
0.04383,0.98709,-0.15405,0.20511,0.16022,-0.07332
0.07325,0.97778,-0.19641,0.18156,0.09281,-0.06734
0.09963,0.96505,-0.24236,0.07659,0.0004,-0.00047
0.12182,0.94886,-0.29124,0.05894,-0.01113,0.10125
0.13853,0.93152,-0.33626,-0.0526,-0.06235,0.30623
0.1537,0.91661,-0.36905,-0.22234,-0.21913,0.38112
0.17161,0.90353,-0.39266,-0.29039,-0.24618,0.32723
0.19241,0.89043,-0.41244,-0.38462,-0.24717,0.08299
0.21133,0.87541,-0.43473,-0.59643,-0.21329,-0.02973
0.21823,0.85614,-0.4684,-0.47349,-0.08391,0.30371
0.21468,0.83559,-0.50566,-0.12819,0.02477,0.35016
0.2202,0.81458,-0.53663,-0.03439,-0.01659,0.25373
0.22818,0.79251,-0.56556,-0.14601,-0.00296,0.12241
0.22996,0.77342,-0.59071,-0.07185,-0.10612,0.15951
0.22856,0.75816,-0.61069,-0.009,-0.12859,0.13414
0.22406,0.74816,-0.62454,-0.01099,-0.19425,0.07254
0.21683,0.74573,-0.62997,0.0292,-0.30858,-0.03739
0.20967,0.75207,-0.62484,0.10488,-0.30774,-0.08021
0.20505,0.7662,-0.609,0.06158,-0.38914,0.05319
0.20859,0.78863,-0.5784,-0.03308,-0.50117,0.36041
0.21528,0.82025,-0.52995,-0.29017,-0.24613,-0.41887
0.20353,0.85025,-0.48544,-0.19454,0.80153,0.58752
0.18366,0.88289,-0.43217,-0.05451,0.84933,0.37025
0.1722,0.90688,-0.38459,0.1272,0.96293,-0.27945
0.16971,0.92407,-0.34246,-0.22567,-0.07556,0.21471
0.15726,0.93831,-0.30795,-0.22792,-0.14084,0.33677
0.1349,0.95099,-0.27824,-0.19784,-0.07254,0.25915
0.10889,0.96323,-0.24561,-0.08591,0.05349,0.28654
0.08799,0.97454,-0.20623,-0.00309,0.12228,0.26345
0.07553,0.98284,-0.16825,0.06099,0.11019,0.16621
0.0682,0.98855,-0.13456,-0.04864,-0.21974,0.17579
0.06196,0.99282,-0.10231,-0.0732,-0.21537,0.1686
0.05309,0.99576,-0.07512,-0.09478,-0.18597,0.07935
0.03959,0.99777,-0.05373,-0.06605,-0.10499,0.01612
0.02492,0.99901,-0.03671,-0.0088,-0.1266,-0.04876
0.01184,0.99962,-0.0246,0.16298,-0.09694,-0.01625
-0.00016,0.99989,-0.01427,0.13105,-0.09134,0.04886
-0.01109,0.99991,-0.00673,0.00305,-0.02326,0.08097
-0.02105,0.99977,0.00077,-0.01878,0.13405,0.089
-0.02961,0.9995,0.01081,0.03558,0.18553,0.08688
-0.03667,0.99911,0.02084,0.145,0.16229,0.03048
-0.04262,0.99862,0.03045,0.11698,0.18863,0.0725
-0.04812,0.99809,0.03861,0.08634,0.29553,0.02528
-0.05511,0.99748,0.04453,0.0859,0.32085,0.00982
-0.06283,0.99693,0.04673,0.13966,0.35055,-0.00527
-0.06713,0.99668,0.04599,0.17075,0.22242,-0.09314
-0.06933,0.9967,0.04206,0.15651,0.17844,-0.11907
-0.06833,0.9971,0.03335,-0.0464,0.13185,0.07023
-0.05999,0.9981,0.01404,-0.14727,0.17959,0.12855
-0.04188,0.99897,-0.01694,-0.30023,0.37644,0.0898
-0.01742,0.99848,-0.05224,-0.49269,0.49182,-0.30548
0.00261,0.99653,-0.08315,-0.47392,0.50759,-0.29611
0.01839,0.99325,-0.11451,-0.19305,0.35804,-0.2302
0.04249,0.98666,-0.15713,0.30413,0.08109,-0.06437
0.07606,0.97683,-0.20001,0.27152,0.12365,0.03198
0.11682,0.96311,-0.24241,0.22141,0.1462,0.11429
0.1574,0.94553,-0.28493,-0.19994,-0.12057,0.29509
0.18303,0.92723,-0.3267,-0.47431,-0.19452,0.25872
0.19063,0.90973,-0.36884,-0.49154,-0.18671,0.23781
0.1911,0.89245,-0.40866,-0.34952,-0.17917,0.17558
0.19913,0.87291,-0.44538,-0.23291,-0.14103,0.11207
0.21366,0.84947,-0.48244,-0.27883,-0.16696,0.20159
0.22767,0.82441,-0.51818,-0.184,-0.1792,0.39646
0.23459,0.79961,-0.5528,-0.05495,-0.19582,0.30062
0.23963,0.77741,-0.58156,-0.02134,-0.18107,0.22325
0.23841,0.75831,-0.60673,-0.06447,-0.18342,0.21574
0.23267,0.74283,-0.62775,-0.06993,-0.21985,0.2021
0.22664,0.73474,-0.63936,-0.12547,-0.30226,0.12816
0.22182,0.73707,-0.63838,-0.02231,-0.3646,0.03181
0.21975,0.74914,-0.62489,0.00962,-0.31099,-0.03861
0.22289,0.76973,-0.59819,0.05657,-0.27916,0.04204
0.23142,0.79807,-0.55634,0.03776,-0.28875,0.32748
0.23778,0.83178,-0.50159,-0.12467,-0.09872,-0.44509
0.22868,0.85331,-0.46858,0.10856,1.48345,-0.12262
0.23377,0.87731,-0.41914,0.2276,1.21437,0.81709
0.23627,0.89111,-0.38742,-0.08566,0.13484,-0.44797
0.22774,0.89911,-0.37379,-0.32579,-0.65053,0.00163
0.21041,0.91417,-0.34645,-0.42917,-0.46678,0.36007
0.18298,0.92969,-0.31967,-0.24464,0.20526,0.2002
0.1507,0.94495,-0.29043,-0.16636,0.39502,0.19079
0.12603,0.95858,-0.25542,0.01216,0.56694,0.22838
0.11399,0.96907,-0.21886,0.03072,0.06619,0.15429
0.10767,0.97744,-0.18168,-0.02304,-0.0261,0.10116
0.09644,0.98409,-0.14921,-0.07071,-0.16161,0.06407
0.0807,0.98924,-0.12199,-0.0984,-0.17784,0.22875
0.06602,0.99326,-0.0952,-0.07821,-0.13276,0.16656
0.05308,0.99609,-0.07062,-0.06256,-0.12533,0.10642
0.04181,0.9978,-0.05137,0.04551,-0.12364,0.0737
0.03402,0.9987,-0.03789,-0.02114,-0.11309,0.09938
0.02936,0.99905,-0.03216,-0.09915,0.01791,0.05837
0.02528,0.99925,-0.0292,-0.01263,0.06795,-0.03664
0.0233,0.99931,-0.02874,0.00805,0.03633,0.00143
0.02396,0.99939,-0.02525,0.0214,0.0293,0.01559
0.01892,0.99968,-0.01668,-0.04806,0.06555,0.19654
0.01143,0.99988,-0.00965,-0.00992,0.12516,0.12888
0.00016,1.0,-0.00061,0.08961,0.27396,0.02095
-0.01401,0.99986,0.00856,0.22366,0.31352,-0.06191
-0.02931,0.99946,0.01435,0.2632,0.27098,-0.08889
-0.04335,0.99892,0.01665,0.13052,0.17908,-0.02691
-0.05219,0.99853,0.01454,0.10414,0.18856,0.08386
-0.05229,0.99862,0.00361,-0.0643,0.18104,0.07304
-0.04273,0.99895,-0.01606,-0.26659,0.34699,-0.17507
-0.02678,0.9989,-0.0385,-0.33446,0.33787,-0.28465
-0.00741,0.99797,-0.06325,-0.25329,0.26332,-0.39321
0.02142,0.9954,-0.0933,0.20659,0.05524,-0.22282
0.06276,0.98978,-0.12802,0.1243,-0.00365,-0.19239
0.10766,0.9811,-0.16079,-0.00909,0.0343,-0.14703
0.15195,0.97026,-0.18842,-0.2394,0.33362,-0.24346
0.18523,0.9583,-0.21757,-0.65761,0.15284,0.04997
0.19274,0.94695,-0.25714,-0.70767,-0.06326,0.37974
0.18757,0.93919,-0.28765,-0.17499,-0.15401,0.41595
0.19605,0.93264,-0.30288,-0.09488,-0.00753,-0.03799
0.21644,0.92335,-0.31715,-0.36213,-0.09592,-0.05668
0.23419,0.91067,-0.34035,-0.29981,-0.16972,0.16953
0.2482,0.89869,-0.36158,-0.2619,-0.2297,0.26353
0.25936,0.8886,-0.37832,-0.24013,-0.30553,0.22296
0.26636,0.88,-0.39326,-0.19911,-0.31632,0.16185
0.27223,0.87335,-0.40392,-0.19377,-0.31407,0.16904
0.27834,0.86902,-0.40905,-0.19231,-0.34003,0.19114
0.28317,0.86735,-0.4093,-0.20541,-0.31002,0.18881
0.28734,0.86859,-0.4037,-0.16239,-0.39446,0.18489
0.28928,0.87326,-0.39208,-0.19144,-0.38296,0.14393
0.28958,0.88134,-0.37333,-0.13254,-0.39617,0.12108
0.28735,0.89214,-0.3486,-0.09744,-0.39476,0.02012
0.28111,0.90543,-0.31806,-0.08557,-0.36016,-0.14401
0.26793,0.92047,-0.2845,0.0304,-0.30837,-0.25348
0.24607,0.93603,-0.25159,0.22646,-0.02712,-0.34262
0.21846,0.95055,-0.22076,0.30273,0.05101,-0.41052
0.19411,0.96162,-0.19391,0.53587,0.38906,-0.45108
0.18483,0.96675,-0.17669,0.88795,0.47032,-0.24094
0.2026,0.96538,-0.16427,0.66113,0.20561,-0.2495
0.23172,0.96125,-0.14931,0.29533,0.07749,-0.2
0.25406,0.95862,-0.12843,-0.68805,0.28445,0.00639
0.26303,0.9587,-0.10815,-0.97672,0.48194,-0.06346
0.26434,0.9593,-0.09932,-1.1295,1.00684,-0.38444
0.27249,0.95586,-0.1099,-0.25126,-0.06033,0.16136
0.28054,0.95419,-0.10401,-0.37719,-0.09711,0.17309
0.27576,0.95704,-0.0896,-0.59116,-0.08047,0.339
0.25339,0.96458,-0.07333,-0.73218,-0.00243,0.28853
0.22657,0.97277,-0.0488,-0.59445,0.17564,0.19585
0.21181,0.97707,-0.02137,-0.29077,0.30704,0.18641
0.20916,0.97773,0.01689,-0.15352,-0.06452,0.18822
0.20447,0.97708,0.05911,-0.21771,-0.14588,0.17487
0.19023,0.97745,0.09166,-0.35684,-0.0793,0.07769
0.17425,0.97779,0.11645,-0.35848,-0.06479,0.08909
0.15747,0.97768,0.13907,-0.30258,-0.09261,0.09172
0.13807,0.9773,0.16068,-0.16384,-0.10588,0.09516
0.12049,0.97615,0.18055,-0.04085,-0.01149,0.06855
0.10822,0.97382,0.19988,0.01939,0.03798,0.03014
0.0993,0.97099,0.2175,0.11501,0.08184,-0.09363
0.09041,0.96874,0.23099,0.0777,0.11764,-0.11209
0.08151,0.96661,0.24292,0.06262,0.1323,-0.07676
0.07072,0.96414,0.25578,0.05642,-0.00882,-0.06348
0.05811,0.96175,0.26766,0.0648,-0.04414,-0.16925
0.0446,0.95978,0.27718,0.06486,-0.04963,-0.20112
0.03117,0.95803,0.28496,0.10761,-0.01545,-0.16815
0.01887,0.95607,0.29252,0.1496,0.02457,-0.11607
0.00697,0.95318,0.30229,0.16583,0.0475,-0.11019
-0.0063,0.94957,0.31348,0.19372,0.10497,-0.19622
-0.0204,0.94635,0.32248,0.20009,0.17662,-0.20121
-0.03317,0.94455,0.32667,0.18827,0.1452,-0.17683
-0.04303,0.94305,0.32984,-0.01796,0.18804,-0.33224
-0.05135,0.94184,0.33211,-0.01292,0.16493,-0.40401
-0.05939,0.9417,0.33116,0.02198,0.17409,-0.48944
-0.06669,0.94275,0.32676,0.22361,0.19458,-0.32222
-0.07026,0.94671,0.31431,0.25843,0.18677,-0.26644
-0.0678,0.95383,0.29256,0.19802,0.07603,-0.19764
-0.05559,0.96401,0.25995,0.05588,0.02542,0.05685
-0.02885,0.97651,0.2135,-0.21616,0.22721,-0.16179
0.01278,0.98647,0.16338,-0.68156,0.52621,-0.23484
0.05553,0.99218,0.11174,-0.79885,0.78913,-0.02404
0.08682,0.99444,0.05953,-0.7475,0.50181,0.00475
0.10993,0.99382,0.01527,-0.33996,0.19348,-0.10898
0.13027,0.99137,-0.01415,0.19662,-0.02264,-0.13861
0.14941,0.98804,-0.03809,0.26103,-0.00893,-0.06846
0.17023,0.98286,-0.07068,0.2202,-0.05079,-0.05591
0.19298,0.97525,-0.1079,-0.14885,-0.01889,-0.0587
0.21865,0.96602,-0.13778,-0.3079,-0.10187,-0.02188
0.24587,0.9558,-0.16119,-0.39479,-0.1359,-0.00908
0.26887,0.94545,-0.18391,-0.48757,-0.20853,-0.01975
0.28226,0.93693,-0.20613,-0.34065,-0.33286,0.00942
0.28387,0.93142,-0.22773,-0.31998,-0.34807,0.13143
0.28025,0.92782,-0.24617,-0.17796,-0.33427,0.15137
0.27499,0.92694,-0.25526,-0.12232,-0.21442,-0.00229
0.26995,0.92839,-0.25538,-0.08884,-0.23642,-0.07193
0.26524,0.93228,-0.24597,-0.01222,-0.3059,-0.15286
0.25622,0.93946,-0.22751,0.00755,-0.39311,-0.32462
0.23988,0.94915,-0.20388,0.013,-0.41448,-0.41326
0.21718,0.95939,-0.17997,0.15577,-0.3249,-0.29254
0.19698,0.96755,-0.15824,0.48056,0.05225,-0.13182
0.18711,0.97247,-0.13884,0.537,0.11604,-0.12924
0.1898,0.97486,-0.11672,0.3546,0.1898,-0.41212
0.2015,0.97529,-0.09059,0.17977,1.08669,0.15878
0.21873,0.97374,-0.06305,-0.06419,0.8687,0.31828
0.23588,0.97063,-0.04728,-0.4737,0.00561,-0.34539
0.23197,0.97183,-0.04168,-0.79457,-0.11074,0.01792
0.20501,0.97816,-0.03423,-0.58529,-0.1542,0.16843
0.17151,0.98506,-0.01519,-0.1302,0.2637,0.37217
0.14336,0.98963,0.00856,-0.08549,0.34596,0.27411
0.12757,0.9913,0.03239,-0.03678,0.32653,0.10825
0.11655,0.99135,0.06024,-0.0615,0.02829,-0.0083
0.10527,0.99096,0.08306,-0.17239,0.00252,0.02667
0.08829,0.99077,0.10282,-0.25934,-0.01315,0.03997
0.06843,0.99033,0.12067,-0.26859,-0.01946,0.05438
0.04842,0.9897,0.13472,-0.17447,-0.02484,-0.03163
0.02926,0.98875,0.14668,-0.03049,-0.04519,-0.08844
0.01115,0.98726,0.15867,0.10934,0.02249,-0.05439
-0.00585,0.98549,0.16962,0.19079,0.02321,0.03216
-0.02045,0.9838,0.17809,0.19374,0.05925,-0.03701
-0.0321,0.98205,0.18583,0.17324,0.08991,-0.1296
-0.04372,0.98008,0.19371,0.16505,0.10447,-0.14021
-0.05668,0.97807,0.2004,0.21139,0.07103,-0.15946
-0.07186,0.97568,0.20708,0.30211,0.08211,-0.21026
-0.08736,0.97284,0.21434,0.46395,0.1743,-0.29324
-0.10261,0.96967,0.22181,0.47789,0.26438,-0.31472
-0.11557,0.9668,0.22788,0.40275,0.29415,-0.33744
-0.1242,0.96468,0.23231,0.46531,0.36401,-0.29946
-0.12835,0.96375,0.23388,0.24466,0.28167,-0.25965
-0.12527,0.96573,0.22732,0.09054,0.25678,0.02871
-0.11245,0.97169,0.20777,-0.19973,0.13499,-0.07577
-0.08946,0.97925,0.18182,-0.38488,0.27134,-0.2019
-0.06171,0.98712,0.1476,-0.38593,0.49264,-0.20318
-0.03406,0.99406,0.10338,-0.26336,0.50991,-0.23958
-0.00627,0.99845,0.05516,-0.1854,0.43815,-0.25203
0.02571,0.99961,0.0106,-0.02468,0.18198,-0.20386
0.06066,0.99752,-0.03574,-0.06058,0.14642,-0.20987
0.09543,0.9915,-0.08846,-0.07218,0.12455,-0.24984
0.125,0.98239,-0.13887,-0.16965,0.01522,0.02261
0.14553,0.97234,-0.18268,-0.26068,-0.05287,0.25837
0.16166,0.96204,-0.21985,-0.26989,-0.09812,0.25077
0.17896,0.95149,-0.25029,-0.25029,-0.13772,0.14192
0.20114,0.93898,-0.27902,-0.23522,-0.08905,-0.05607
0.22659,0.92238,-0.31284,-0.26898,-0.09241,-0.05676
0.24738,0.90399,-0.34871,-0.2678,-0.25176,0.13534
0.26062,0.88606,-0.38336,-0.12361,-0.24626,0.09176
0.26925,0.86898,-0.41519,-0.15106,-0.12709,0.10835
0.27369,0.85167,-0.44693,-0.10725,-0.13286,0.04004
0.27452,0.83691,-0.47351,-0.16711,-0.17177,0.09958
0.27011,0.82673,-0.49352,-0.19876,-0.22225,0.13396
0.26139,0.82131,-0.50707,-0.20034,-0.33599,0.03596
0.24737,0.82189,-0.51314,-0.09898,-0.31763,-0.0773
0.23249,0.82921,-0.50829,-0.00909,-0.21438,-0.16784
0.22066,0.84261,-0.49124,-0.01992,-0.30164,-0.10947
0.21249,0.86375,-0.45693,-0.18301,-0.39308,0.36301
0.20083,0.89103,-0.4071,-0.29339,-0.38294,-0.17913
0.17642,0.91267,-0.36866,-0.52841,0.73816,-0.1533
0.14585,0.93575,-0.3211,0.25931,1.10115,-0.30717
0.13741,0.95264,-0.27127,0.41346,0.91281,-0.51604
0.14079,0.96112,-0.23756,0.09218,-0.07785,0.19285
0.1328,0.96782,-0.21375,-0.07137,-0.31544,0.17504
0.11367,0.97512,-0.19031,-0.04235,-0.26064,0.14175
0.09088,0.98306,-0.15915,-0.08049,-0.0206,0.04992
0.07066,0.98994,-0.12259,-0.13296,0.22629,0.16944
0.05945,0.99472,-0.08362,-0.06867,0.15837,0.13827
0.05361,0.99755,-0.04486,-0.0158,-0.01162,0.02239
0.04797,0.99881,-0.00848,0.01904,-0.11693,0.00789
0.03502,0.99913,0.02245,0.03825,-0.14963,0.02465
0.01641,0.99872,0.04772,0.06163,-0.19962,0.03204
-0.00279,0.99751,0.07039,0.09334,-0.29721,-0.03772
-0.01952,0.99586,0.08873,0.12749,-0.31053,-0.09401
-0.03554,0.99403,0.10311,0.17885,-0.27194,-0.1014
-0.05072,0.99188,0.11663,0.23941,-0.21142,-0.10958
-0.06478,0.98944,0.12967,0.27781,0.11644,-0.1553
-0.07557,0.98702,0.14172,0.35505,0.31108,-0.17371
-0.08622,0.98465,0.15175,0.27523,0.29279,-0.24445
-0.09668,0.9824,0.15979,0.26575,0.27537,-0.22182
-0.1061,0.98066,0.16444,0.25606,0.2699,-0.10149
-0.11455,0.9793,0.16686,0.22254,0.32041,-0.12128
-0.12215,0.97822,0.1678,0.19835,0.35515,-0.11609
-0.12587,0.978,0.16634,0.24861,0.49132,-0.26803
-0.12732,0.97815,0.16432,0.30455,0.37751,-0.33803
-0.12792,0.97858,0.16128,0.30719,0.31788,-0.33208
-0.12649,0.98023,0.15214,0.20011,0.12921,-0.03701
-0.11846,0.98432,0.13066,0.01346,0.0919,-0.02526
-0.10172,0.98954,0.10226,-0.19336,0.12945,-0.14934
-0.07902,0.99401,0.07545,-0.27288,0.3,-0.29941
-0.05763,0.99705,0.05072,-0.29546,0.4452,-0.36206
-0.04064,0.99891,0.02277,-0.06501,0.2576,-0.29563
-0.02204,0.99965,-0.01456,0.24299,0.10605,-0.20532
0.00376,0.99821,-0.05957,0.29855,0.03578,-0.18601
0.03415,0.99337,-0.10976,0.25421,0.17667,-0.04119
0.07111,0.98491,-0.15776,0.12329,0.14798,0.11273
0.1052,0.97477,-0.19686,-0.24071,-0.0678,0.01187
0.12947,0.96378,-0.23314,-0.35205,-0.13302,-0.07768
0.14433,0.95218,-0.2693,-0.37524,-0.20293,0.03047
0.15327,0.9402,-0.30417,-0.05456,-0.19141,0.10503
0.1646,0.9261,-0.33947,-0.01722,-0.15869,0.11773
0.17911,0.90983,-0.37432,-0.01261,-0.21658,0.12683
0.19333,0.89196,-0.4087,-0.12363,-0.26557,0.07363
0.20414,0.87368,-0.44159,-0.17608,-0.24943,0.10648
0.21136,0.85702,-0.46994,-0.14944,-0.26406,0.12623
0.21411,0.84289,-0.49366,-0.0715,-0.26302,0.10021
0.21404,0.83278,-0.51055,-0.06911,-0.23875,0.10222
0.21111,0.82778,-0.51983,-0.0586,-0.23982,0.07178
0.20443,0.82774,-0.52254,0.02619,-0.26547,-0.00032
0.19779,0.83311,-0.51654,0.09953,-0.23414,-0.03124
0.195,0.84442,-0.49893,0.16179,-0.21896,-0.099
0.19545,0.86194,-0.46782,0.11042,-0.31462,0.13798
0.19657,0.88483,-0.42241,-0.00017,-0.50696,-0.00769
0.18654,0.9056,-0.38089,-0.25152,0.26003,-0.76237
0.16148,0.92711,-0.33822,0.23132,0.77947,0.51016
0.15061,0.9459,-0.28736,0.2734,0.72415,-0.1589
0.1548,0.95632,-0.24795,0.25246,0.48618,-0.34629
0.15122,0.96434,-0.21721,-0.16667,-0.34092,0.14648
0.13169,0.9723,-0.19309,-0.17501,-0.2752,0.23415
0.10445,0.98016,-0.16841,-0.28608,0.13205,0.09364
0.07511,0.98757,-0.13805,-0.32857,0.22016,0.06516
0.05193,0.99355,-0.10075,-0.23282,0.30511,0.08154
0.03598,0.99722,-0.06516,0.09521,-0.00902,0.02806
0.02427,0.99916,-0.03302,0.11644,-0.12643,-0.035
0.0109,0.99993,-0.00374,0.06903,-0.23872,-0.04046
-0.00648,0.99977,0.02045,0.09724,-0.23797,-0.02608
-0.0252,0.99888,0.03985,0.14133,-0.25674,-0.06397
-0.0428,0.99751,0.05598,0.20375,-0.23765,-0.07797
-0.05975,0.99573,0.07026,0.22037,-0.13546,-0.11453
-0.07495,0.99375,0.08274,0.19298,-0.03694,-0.1201
-0.08979,0.99151,0.09404,0.17483,0.04176,-0.11412
-0.10339,0.98917,0.10416,0.08476,0.20329,-0.12556
-0.11528,0.98698,0.11215,0.09874,0.18703,-0.12102
-0.12601,0.98486,0.11898,0.12123,0.25398,-0.12754
-0.13574,0.98286,0.12466,0.26926,0.36475,-0.11797
-0.14496,0.98111,0.12808,0.32276,0.36099,-0.13698
-0.15192,0.97981,0.1299,0.41622,0.32951,-0.15792
-0.15551,0.9792,0.13031,0.4153,0.24495,-0.17679
-0.15685,0.97917,0.12889,0.24918,0.27268,-0.24819
-0.15526,0.97993,0.125,0.15279,0.26117,-0.09619
-0.147,0.98296,0.11036,-0.03822,0.30469,0.00062
-0.1293,0.9883,0.08085,-0.19339,0.29751,-0.09396
-0.10675,0.99327,0.04478,-0.34979,0.30229,-0.25139
-0.08756,0.99605,0.0147,-0.23284,0.3622,-0.47999
-0.07204,0.99729,-0.01449,0.0625,0.19047,-0.3091
-0.04872,0.99714,-0.05767,0.17668,0.09681,-0.18596
-0.01488,0.99426,-0.10589,0.19854,-0.00259,-0.09674
0.02369,0.98805,-0.15226,0.19118,-0.0096,0.01132
0.06183,0.97811,-0.19866,0.1878,0.02045,0.14618
0.09443,0.96733,-0.23528,-0.10995,-0.15597,0.34018
0.11976,0.9577,-0.26166,-0.32332,-0.17991,0.13315
0.13819,0.94669,-0.291,-0.37633,-0.18085,0.02123
0.14863,0.93333,-0.32681,-0.19328,-0.04093,-0.08608
0.15981,0.91663,-0.36639,-0.15409,0.00539,-0.0189
0.17617,0.896,-0.4076,-0.117,-0.07671,0.21255
0.18611,0.87402,-0.44884,-0.13644,-0.23026,0.2747
0.1897,0.85469,-0.48323,-0.05321,-0.22795,0.10065
0.19316,0.83917,-0.50841,-0.04022,-0.22424,0.01422
0.19517,0.8259,-0.52895,-0.00018,-0.2524,0.06397
0.1908,0.81646,-0.54497,-0.00731,-0.32966,0.11508
0.18332,0.81331,-0.55219,-0.03824,-0.36877,0.09332
0.17631,0.81748,-0.54831,-0.05763,-0.44429,0.00772
0.1715,0.82938,-0.53171,0.02393,-0.3958,0.00774
0.17111,0.84828,-0.50114,0.02612,-0.40889,0.03881
0.17185,0.87306,-0.45633,-0.01035,-0.43827,0.23431
0.16738,0.89959,-0.4034,-0.2331,0.63787,-1.06281
0.14661,0.91699,-0.37098,-0.09335,1.4328,-0.19168
0.14255,0.93475,-0.32544,0.54422,1.50194,0.59366
0.14858,0.9437,-0.29556,0.02345,-0.29959,-0.31502
0.1441,0.95031,-0.27595,-0.07189,-0.68833,0.0946
0.12745,0.96066,-0.24677,-0.20011,-0.39868,0.18501
0.10155,0.9705,-0.21866,-0.09065,-0.18408,0.14348
0.06909,0.97978,-0.18777,-0.04483,0.37658,0.1205
0.04319,0.98689,-0.1555,0.11662,0.39579,0.11502
0.02885,0.99193,-0.12343,0.13634,0.22741,0.07358
0.02098,0.99558,-0.09156,-0.03671,-0.19881,-0.00637
0.01073,0.99807,-0.06119,-0.07226,-0.28597,0.00985
-0.00456,0.99942,-0.03372,-0.04755,-0.28828,-0.01426
-0.02163,0.99973,-0.00798,0.05975,-0.13167,0.00468
-0.03818,0.99916,0.01462,0.13827,-0.05403,-0.06907
-0.05383,0.99802,0.03255,0.17033,-0.02606,-0.12174
-0.06841,0.99654,0.04716,0.22759,0.07089,-0.14519
-0.08163,0.99482,0.06055,0.20747,0.09916,-0.0797
-0.09298,0.99295,0.07347,0.15226,0.15411,-0.05994
-0.1032,0.99101,0.08507,0.17025,0.18957,-0.05147
-0.11276,0.98896,0.09611,0.18002,0.26907,-0.0673
-0.12194,0.98693,0.10535,0.19752,0.27209,-0.1297
-0.12943,0.98506,0.11358,0.27798,0.25325,-0.10705
-0.13569,0.98345,0.12,0.23567,0.15801,-0.16945
-0.14077,0.98224,0.12405,0.24043,0.19509,-0.20212
-0.14387,0.98157,0.12576,0.22291,0.1329,-0.23492
-0.14417,0.98184,0.12331,0.12833,0.19598,-0.1657
-0.14097,0.9837,0.11157,-0.00294,0.22109,-0.02276
-0.13196,0.98756,0.08543,0.01179,0.37756,-0.02046
-0.11915,0.99147,0.05278,-0.00552,0.45947,-0.32898
-0.1061,0.99413,0.02081,0.06096,0.32868,-0.38727
-0.0917,0.9957,-0.01294,0.06985,0.25313,-0.21081
-0.06607,0.99607,-0.05895,0.0987,-0.00774,-0.168
-0.02948,0.99374,-0.10776,0.0348,0.07572,-0.26105
0.01123,0.98871,-0.14939,0.04893,0.12674,-0.17393
0.05474,0.98191,-0.18122,0.11259,0.00028,0.11315
0.09403,0.97433,-0.20452,-0.2762,-0.30147,0.13391
0.12324,0.96549,-0.22944,-0.42338,-0.34603,0.00716
0.13952,0.95577,-0.2589,-0.49384,-0.25786,0.01702
0.15134,0.94465,-0.29107,-0.162,0.02712,-0.00219
0.1724,0.92871,-0.32829,-0.12972,0.04393,0.05415
0.19579,0.90944,-0.36686,-0.15812,-0.1333,0.18081
0.21318,0.89111,-0.40059,-0.07739,-0.32838,0.13161
0.22777,0.87494,-0.42732,-0.07677,-0.32297,0.08982
0.24066,0.85996,-0.45006,-0.13897,-0.21791,0.03929
0.24757,0.84799,-0.46863,-0.01118,-0.19444,0.15275
0.24795,0.84011,-0.48243,0.03931,-0.21413,0.08495
0.24474,0.83879,-0.48634,0.10107,-0.29381,0.00588
0.24119,0.84483,-0.47759,0.18827,-0.32917,0.0172
0.23816,0.85821,-0.45471,0.17886,-0.39497,0.12387
0.23366,0.8804,-0.41266,-0.23493,-0.61176,-1.33996
0.221,0.9009,-0.37354,-0.27403,0.27911,-0.30037
0.19393,0.92143,-0.33667,0.05847,1.1478,0.63605
0.18383,0.93961,-0.28868,0.40531,1.13762,-0.31195
0.18158,0.9449,-0.27237,0.14685,0.14053,-0.22202
0.16848,0.95114,-0.25873,-0.06421,-0.69591,-0.11441
0.14629,0.95993,-0.23903,-0.23666,-0.27928,0.21206
0.117,0.96947,-0.21549,-0.23241,-0.1476,0.21353
0.08694,0.97833,-0.18788,-0.13746,0.34001,0.16442
0.06918,0.98561,-0.15421,0.04748,0.27188,0.12032
0.0606,0.99115,-0.11807,0.09255,-0.00882,0.01641
0.05284,0.99506,-0.08398,-0.03929,-0.12334,-0.00734
0.04084,0.99768,-0.05441,-0.1031,-0.19337,0.0274
0.02459,0.99928,-0.02886,-0.08407,-0.21411,0.03629
0.00766,0.99996,-0.00468,0.01667,-0.21269,-0.00565
-0.01058,0.99979,0.01713,0.11666,-0.13564,-0.02445
-0.02877,0.99894,0.03575,0.0908,-0.1466,-0.09788
-0.04528,0.99763,0.05169,0.1249,-0.06993,-0.07424
-0.0623,0.99588,0.06588,0.15798,0.0501,-0.08707
-0.07735,0.9939,0.07859,0.20531,0.15918,-0.07562
-0.08995,0.99182,0.09051,0.18371,0.23078,-0.09375
-0.10226,0.98965,0.10064,0.16648,0.23281,-0.13526
-0.11368,0.98752,0.10895,0.19333,0.27604,-0.1003
-0.1241,0.98537,0.11679,0.24045,0.27696,-0.08702
-0.13538,0.98305,0.1236,0.25292,0.25894,-0.1539
-0.14456,0.9812,0.12786,0.23132,0.1874,-0.29576
-0.14949,0.98041,0.1282,0.23426,0.2333,-0.27972
-0.15182,0.98097,0.121,0.14032,0.13684,-0.04005
-0.14723,0.984,0.1003,-0.0015,0.30647,-0.20345
-0.1332,0.98835,0.07357,-0.11795,0.35154,-0.28594
-0.11343,0.99238,0.04806,-0.31029,0.47535,-0.41483
-0.0926,0.99547,0.02143,-0.25079,0.44865,-0.38445
-0.07091,0.99735,-0.0157,-0.16,0.35798,-0.30962
-0.04516,0.99681,-0.06571,0.15342,0.2144,-0.27374
-0.01582,0.99362,-0.1116,0.30446,0.14645,-0.04053
0.01489,0.9886,-0.14984,0.28928,0.09917,0.13144
0.037,0.98145,-0.18809,-0.06141,-0.15621,0.17271
0.04367,0.97267,-0.22802,-0.41452,-0.28043,0.2109
0.04007,0.96295,-0.26668,-0.41633,-0.24769,0.18337
0.04232,0.95153,-0.30461,-0.3093,-0.12577,-0.04321
0.05728,0.9381,-0.34158,-0.23619,-0.16215,0.03009
0.08042,0.92233,-0.37794,-0.21257,-0.21606,0.13008
0.10348,0.9056,-0.41131,-0.06904,-0.29007,0.22834
0.1221,0.88979,-0.43973,0.07075,-0.24331,0.09201
0.1365,0.87282,-0.46857,0.08853,-0.22076,0.0461
0.14477,0.8547,-0.49853,0.04475,-0.21027,0.11694
0.14518,0.83779,-0.52633,0.03295,-0.21257,0.11098
0.13968,0.82413,-0.5489,0.02496,-0.23644,0.09893
0.13077,0.81593,-0.56317,-0.04173,-0.36544,0.03682
0.12061,0.815,-0.56677,-0.03657,-0.37673,0.0284
0.11162,0.82166,-0.55893,0.03642,-0.34756,0.01387
0.10646,0.83544,-0.53917,0.12817,-0.24105,-0.05212
0.10784,0.85399,-0.50899,0.10212,-0.2191,-0.04873
0.11298,0.87338,-0.47376,0.05695,-0.25133,0.00206
0.11185,0.89086,-0.44029,-0.39641,0.39117,-0.87944
0.10455,0.90525,-0.41182,0.29446,0.78833,0.57936
0.11103,0.92277,-0.36899,0.74024,0.38445,0.51868
0.12877,0.93361,-0.33435,-0.18252,0.1467,-0.75629
0.12996,0.94012,-0.31509,-0.31386,-0.59675,0.14228
0.11964,0.9512,-0.28444,-0.26945,-0.20546,0.09808
0.10723,0.9619,-0.25147,-0.09147,0.20764,0.00794
0.09009,0.97195,-0.21726,-0.07425,0.35885,0.09228
0.07414,0.97994,-0.185,0.00983,0.40495,0.00999
0.06659,0.98635,-0.15057,-0.01735,0.01952,0.08453
0.0628,0.99144,-0.11449,-0.01356,0.01444,0.04845
0.05603,0.99523,-0.07981,-0.00374,-0.15279,0.07901
0.04398,0.998,-0.04529,0.0634,-0.19534,0.09943
0.02715,0.99957,-0.01041,0.13884,-0.14642,0.05629
0.00871,0.99968,0.02375,0.17905,-0.09443,-0.0109
-0.01006,0.99857,0.05249,0.17502,-0.08452,-0.04253
-0.02736,0.99676,0.07561,0.12822,-0.10815,-0.06243
-0.04318,0.99445,0.09594,0.10313,-0.19739,-0.06043
-0.05895,0.99188,0.11269,0.07481,-0.17056,-0.08962
-0.07361,0.98943,0.1249,0.10538,-0.08887,-0.06716
-0.08714,0.98707,0.13449,0.13555,-0.04709,-0.05215
-0.0983,0.98476,0.14348,0.17247,0.02744,-0.05731
-0.10855,0.98219,0.15332,0.19608,0.0735,-0.05564
-0.11982,0.97949,0.16199,0.24122,0.05929,-0.0866
-0.13159,0.9768,0.16895,0.29862,0.04221,-0.09366
-0.14313,0.97406,0.17525,0.34871,0.02392,-0.07469
-0.15531,0.97104,0.18154,0.34469,0.00552,-0.09787
-0.16773,0.96758,0.1888,0.29297,0.00558,-0.20573
-0.17918,0.96346,0.19908,0.29257,0.06274,-0.28218
-0.1876,0.95942,0.21052,0.32302,0.07881,-0.26324
-0.19371,0.95707,0.21559,0.34799,0.11173,-0.23349
-0.19516,0.95857,0.20747,0.37293,0.1815,-0.05664
-0.19832,0.9608,0.19374,0.33562,0.05817,-0.00966
-0.18782,0.96671,0.17374,0.21669,-0.06128,-0.0786
-0.16845,0.97373,0.15321,0.02062,0.40792,-0.1267
-0.14393,0.98135,0.12742,-0.17423,0.55181,-0.27191
-0.10763,0.98905,0.10096,-0.21118,0.318,-0.25396
-0.07215,0.99519,0.06619,-0.27482,0.21402,-0.25821
-0.0403,0.99906,0.01584,-0.51265,0.47019,-0.23261
-0.01237,0.9989,-0.04522,-0.59917,0.37395,-0.20918
0.00821,0.99477,-0.10182,-0.61204,0.20937,0.03848
0.02508,0.98883,-0.14689,-0.10248,0.02972,0.26021
0.04466,0.98149,-0.18625,0.08113,0.04148,-0.00777
0.06653,0.97211,-0.22486,0.03045,0.10174,-0.05996
0.08857,0.96109,-0.26164,-0.05305,0.02403,0.0057
0.10945,0.94982,-0.29303,-0.13854,-0.0537,0.15869
0.12759,0.93847,-0.32092,-0.23498,-0.20472,0.22307
0.14198,0.92722,-0.34656,-0.27771,-0.31931,0.22484
0.15274,0.91753,-0.36717,-0.25274,-0.37936,0.203
0.16001,0.91048,-0.38133,-0.23024,-0.3639,0.17688
0.16315,0.90665,-0.38907,-0.21322,-0.30853,0.16193
0.16325,0.90617,-0.39014,-0.19769,-0.24087,0.1584
0.16194,0.90893,-0.38421,-0.1141,-0.22485,0.08706
0.15963,0.91491,-0.37074,0.00106,-0.28508,-0.01656
0.15647,0.92423,-0.34831,0.2274,-0.28789,-0.09903
0.15012,0.93589,-0.31872,0.25673,-0.26848,-0.14403
0.14008,0.94813,-0.28535,0.26663,-0.24687,-0.19388
0.12813,0.95907,-0.25252,0.35031,0.01505,-0.39912
0.12011,0.96639,-0.22728,0.57613,0.23521,-0.47247
0.12423,0.96957,-0.21097,0.74341,0.30714,-0.44076
0.14037,0.9693,-0.20189,0.51074,-0.08888,-0.20851
0.15905,0.96935,-0.18726,-0.28266,-0.01763,0.0741
0.1677,0.97225,-0.1631,-0.59554,0.31609,-0.00787
0.16334,0.97729,-0.135,-0.96369,1.02765,0.05622
0.16331,0.979,-0.12205,-0.16929,-0.05611,0.21059
0.17625,0.97773,-0.11392,-0.42934,-0.15349,0.05089
0.17374,0.9801,-0.09598,-0.67359,-0.05028,0.1171
0.15408,0.98438,-0.08514,-0.48783,-0.14431,0.32191
0.12741,0.98937,-0.07005,-0.35201,-0.14178,0.31826
0.11108,0.99277,-0.04555,-0.11922,0.3098,0.24358
0.1073,0.99415,-0.01218,0.03955,-0.04309,0.2409
0.10493,0.99408,0.02819,-0.00013,-0.06692,0.20982
0.09611,0.99342,0.06222,-0.0463,-0.00737,0.09981
0.08059,0.99312,0.08496,-0.02019,-0.06496,0.03347
0.0627,0.99269,0.10313,0.0174,-0.0876,0.03147
0.0422,0.99181,0.12054,0.02848,-0.09401,0.02475
0.02091,0.99038,0.13678,0.08813,-0.01443,0.03867
0.00429,0.98863,0.15028,0.16379,0.03384,0.06085
-0.00583,0.98679,0.1619,0.26971,0.10417,0.02172
-0.01224,0.98489,0.17274,0.27976,0.01226,-0.22861
-0.01893,0.9832,0.18156,0.24546,-0.04267,-0.23507
-0.02686,0.98175,0.18825,0.30905,-0.04437,-0.04253
-0.03618,0.98014,0.19496,0.32479,-0.04121,-0.06499
-0.04846,0.97793,0.20325,0.33256,-0.03576,-0.12392
-0.06348,0.97524,0.21184,0.33133,0.20785,-0.12498
-0.0776,0.97364,0.21446,0.37614,0.2734,-0.05069
-0.08767,0.97325,0.21236,0.21819,0.18483,-0.08812
-0.09438,0.97253,0.21278,0.04404,0.24581,-0.21701
-0.0997,0.97205,0.21252,0.01356,0.28664,-0.33876
-0.10385,0.97369,0.20283,0.09456,0.3067,-0.34579
-0.10223,0.97858,0.17867,0.11322,0.29765,-0.174
-0.08875,0.98614,0.1402,-0.12438,0.32174,-0.04164
-0.05962,0.99438,0.08752,-0.35012,0.13761,-0.28054
-0.01702,0.99946,0.02788,-0.5207,0.14177,-0.12047
0.0269,0.99885,-0.03976,-0.63519,0.73054,-0.04786
0.06341,0.99126,-0.11567,-0.62604,0.90527,0.04846
0.09423,0.97863,-0.18276,-0.11219,0.53661,0.09182
0.12501,0.96381,-0.23546,0.05422,0.18779,0.11669
0.15454,0.94662,-0.28288,0.19025,0.12682,0.12843
0.18228,0.92445,-0.33491,0.09348,0.14772,0.13859
0.20976,0.89707,-0.38893,-0.11429,0.05221,0.18855
0.23642,0.86725,-0.43815,-0.23917,0.05577,0.13934
0.25875,0.83459,-0.48631,-0.41824,-0.13794,0.17949
0.27171,0.80003,-0.53491,-0.2796,-0.23213,0.26684
0.27359,0.76802,-0.57904,-0.22301,-0.2168,0.29498
0.27308,0.74096,-0.61351,-0.07174,-0.17235,0.24233
0.2748,0.72089,-0.63624,-0.00345,-0.30207,0.12098
0.27663,0.70824,-0.64952,0.00476,-0.36967,0.1127
0.27736,0.70434,-0.65343,0.09583,-0.40794,0.10224
0.28293,0.70875,-0.64624,0.06505,-0.41221,0.14836
0.29675,0.71947,-0.62793,0.05125,-0.47123,0.11067
0.31889,0.73488,-0.59855,0.01447,-0.50208,-0.05433
0.33831,0.75626,-0.56002,0.10439,-0.43378,-0.10003
0.34621,0.78136,-0.51924,0.00976,-0.36194,-0.11342
0.34425,0.80421,-0.4845,-0.30661,0.06816,-0.7303
0.33376,0.82658,-0.45318,0.09584,0.97246,0.9181
0.32933,0.85792,-0.39436,0.04119,1.05956,0.23866
0.32885,0.87743,-0.34926,-0.03374,0.90701,-0.15535
0.32048,0.89069,-0.32242,-0.38057,-0.21311,0.18517
0.30407,0.90387,-0.30093,-0.35189,-0.15224,0.17905
0.27997,0.91923,-0.27682,-0.2834,0.11492,0.24966
0.24959,0.93399,-0.25567,-0.24164,0.38315,0.21966
0.2228,0.94614,-0.23491,-0.2066,0.34203,0.25134
0.20432,0.95655,-0.20799,-0.12207,0.11385,0.237
0.18915,0.96625,-0.17488,0.01036,-0.10236,0.15118
0.17317,0.97443,-0.14317,0.06356,-0.13421,0.10489
0.15552,0.98117,-0.11455,0.0603,-0.19813,0.10248
0.13767,0.98668,-0.08666,-0.0461,-0.11861,0.02435
0.12114,0.99071,-0.0618,-0.06328,-0.07892,-0.03494
0.10446,0.99368,-0.04117,-0.07739,-0.04142,-0.03279
0.08665,0.99596,-0.02352,-0.12828,0.03238,-0.06501
0.0687,0.99761,-0.00681,-0.12081,0.03051,-0.05003
0.0505,0.99868,0.00924,-0.05653,0.07,0.00573
0.03158,0.99926,0.02187,0.15171,0.32628,-0.10326
0.0154,0.9994,0.03086,0.37784,0.35962,-0.15618
0.00414,0.99925,0.03853,0.56996,0.23696,-0.10442
-0.00511,0.99905,0.04329,0.53677,0.19611,-0.1463
-0.01097,0.99899,0.04369,0.38935,0.20597,-0.19182
-0.01229,0.99916,0.03913,0.16036,0.11261,-0.18717
-0.00894,0.99954,0.02883,-0.15452,0.16034,-0.04868
-0.00077,0.99995,0.00948,-0.29106,0.27902,0.09684
0.01398,0.99967,-0.02144,-0.366,0.37077,0.03611
0.03133,0.99773,-0.05966,-0.55945,0.33154,-0.14142
0.04772,0.99431,-0.09522,-0.56378,0.35867,-0.07003
0.06418,0.98942,-0.13007,-0.2321,0.15887,-0.02572
0.08565,0.9814,-0.1718,-0.18397,0.14767,-0.06264
0.11407,0.96912,-0.21863,-0.16579,0.19745,-0.10531
0.14404,0.95344,-0.26497,-0.03524,0.19975,-0.00906
0.17301,0.93737,-0.30234,0.03634,0.12278,0.28153
0.19929,0.92197,-0.33205,-0.0155,0.06433,0.38886
0.22067,0.90694,-0.35884,-0.17246,-0.07828,0.26883
0.23892,0.89219,-0.38328,-0.27149,-0.15159,0.04504
0.25099,0.87541,-0.41312,-0.28568,-0.20521,0.0215
0.25344,0.85525,-0.45202,-0.27003,-0.17032,0.26365
0.25398,0.83406,-0.48973,-0.07622,-0.15101,0.31131
0.26024,0.81366,-0.51984,-0.03981,-0.1436,0.31197
0.26751,0.79405,-0.54583,-0.18812,-0.24449,0.19887
0.27023,0.77609,-0.56978,-0.1835,-0.2542,0.19715
0.26991,0.76189,-0.58879,-0.18318,-0.23999,0.21616
0.26777,0.75236,-0.60187,-0.06985,-0.21422,0.17133
0.26336,0.74794,-0.60929,-0.07312,-0.26465,0.15911
0.25595,0.74872,-0.61147,-0.06248,-0.29452,0.12275
0.24788,0.75552,-0.60642,0.0108,-0.22897,0.04394
0.24341,0.76852,-0.59172,0.04434,-0.25207,-0.00566
0.24567,0.78773,-0.56491,0.05989,-0.24966,-0.00558
0.2506,0.81209,-0.52698,-0.02498,-0.35058,0.17558
0.24665,0.83713,-0.48824,-0.43118,0.58847,-0.44604
0.22827,0.86312,-0.45047,-0.22546,1.01996,0.30771
0.22822,0.88625,-0.40308,0.37315,1.3737,0.10509
0.23789,0.8972,-0.37206,0.148,0.57769,-0.24934
0.23333,0.90661,-0.35157,-0.17678,-0.43471,0.28524
0.2142,0.91876,-0.33165,-0.17946,-0.39189,0.13043
0.19168,0.93201,-0.3076,-0.17717,0.02478,0.27722
0.1666,0.94639,-0.27674,-0.15859,0.18303,0.21511
0.14729,0.95824,-0.24513,0.02959,0.45009,0.14655
0.13616,0.9672,-0.21445,0.06419,0.17614,0.13785
0.12896,0.9743,-0.18469,0.01935,0.04105,0.10631
0.11953,0.98047,-0.15614,-0.13477,-0.16991,0.13414
0.10663,0.98592,-0.12882,-0.16788,-0.20979,0.0972
0.09159,0.99053,-0.10225,-0.18667,-0.23948,0.04693
0.07597,0.99417,-0.07645,-0.0477,-0.17055,-0.02227
0.06091,0.9967,-0.05362,0.11535,-0.13273,-0.04042
0.04657,0.99831,-0.03473,0.21321,-0.05893,-0.05205
0.03295,0.99927,-0.01906,0.16942,-0.03301,-0.05208
0.0214,0.99975,-0.00636,0.14616,0.04911,-0.01911
0.01064,0.99993,0.00524,0.14903,0.06829,0.02491
-0.00014,0.99986,0.01688,0.15036,0.09452,-0.04317
-0.01015,0.99958,0.02695,0.09835,0.20819,-0.00697
-0.01895,0.99916,0.03636,0.10067,0.25582,0.00232
-0.02876,0.99858,0.04477,0.13985,0.35625,-0.04538
-0.037,0.99803,0.05071,0.22216,0.33118,-0.10655
-0.04391,0.99766,0.05233,0.25584,0.28608,-0.12761
-0.04912,0.9976,0.04872,0.1853,0.19469,-0.11729
-0.05017,0.99796,0.03932,0.06202,0.11016,0.108
-0.04452,0.99883,0.01902,-0.03568,0.07904,0.15314
-0.03111,0.99948,-0.00792,-0.40519,0.30783,-0.10842
-0.01242,0.99931,-0.03494,-0.48328,0.50544,-0.31632
0.00356,0.99821,-0.05967,-0.35628,0.44237,-0.30941
0.01882,0.99585,-0.08899,-0.06132,0.21391,-0.25431
0.04238,0.99054,-0.13048,0.19166,0.09483,-0.18367
0.07422,0.98153,-0.17629,0.27273,0.10523,-0.09042
0.11022,0.96885,-0.22175,0.24028,0.11606,0.08819
0.14954,0.95354,-0.26153,0.03707,0.08208,0.30191
0.18254,0.93877,-0.29221,-0.30204,-0.03981,0.37473
0.20263,0.92541,-0.32026,-0.54422,-0.09521,0.16393
0.21295,0.91051,-0.35442,-0.59497,-0.18319,-0.05053
0.21658,0.89334,-0.39375,-0.38954,-0.09037,0.00394
0.22693,0.8719,-0.43392,-0.14617,0.012,0.16909
0.24669,0.84679,-0.47127,-0.09586,-0.11208,0.2301
0.26221,0.82143,-0.50645,-0.07857,-0.17591,0.23002
0.26871,0.79829,-0.53901,-0.02477,-0.25295,0.18293
0.27041,0.77831,-0.56666,0.02348,-0.25494,0.14344
0.26735,0.76074,-0.59144,0.0245,-0.23232,0.16403
0.25804,0.74854,-0.61082,0.01,-0.33751,0.16623
0.24629,0.74535,-0.6195,-0.00927,-0.44125,0.03984
0.23667,0.75253,-0.61456,0.00952,-0.38568,0.02287
0.23452,0.76906,-0.5946,-0.04571,-0.32639,0.04804
0.24221,0.7931,-0.55886,-0.00144,-0.3064,0.37203
0.25387,0.82506,-0.50479,-0.03607,-0.34182,0.41115
0.25128,0.85519,-0.45332,-0.20401,0.01364,-0.58481
0.22566,0.88351,-0.41047,-0.05555,1.42386,0.6874
0.21387,0.90781,-0.36076,0.07417,1.33968,0.27351
0.2193,0.91823,-0.32978,0.2739,0.4241,-0.20434
0.21345,0.92725,-0.30764,-0.22721,-0.60161,0.17118
0.19341,0.93864,-0.28558,-0.22356,-0.21598,0.22166
0.1657,0.95127,-0.26006,-0.16553,0.13691,0.22835
0.13565,0.96379,-0.2296,-0.16404,0.25587,0.20752
0.11584,0.97364,-0.19648,0.04772,0.18916,0.19671
0.10585,0.98076,-0.16402,0.02021,-0.02721,0.05652
0.09697,0.98611,-0.13483,-0.07466,-0.14012,0.00959
0.08418,0.99012,-0.11216,-0.08574,-0.17815,0.0241
0.06849,0.99361,-0.0897,-0.10203,-0.16694,0.08138
0.05275,0.99631,-0.0677,0.00768,-0.0672,-0.00354
0.03756,0.99801,-0.05055,0.04472,-0.06372,-0.04413
0.02262,0.99902,-0.03791,0.05853,-0.0332,-0.03454
0.00765,0.9996,-0.02701,0.02114,0.04388,-0.00973
-0.00735,0.99984,-0.01627,0.00431,0.06179,0.04073
-0.02245,0.99974,-0.00432,0.11903,0.15965,0.05401
-0.03724,0.99927,0.00825,0.22421,0.25386,-0.01922
-0.04837,0.99866,0.01837,0.25046,0.2924,-0.04065
-0.05686,0.99804,0.02619,0.24779,0.26046,0.02637
-0.06375,0.99746,0.03165,0.23685,0.211,0.00717
-0.06868,0.99707,0.03354,0.18863,0.17784,-0.04911
-0.07095,0.99701,0.03051,0.14761,0.04532,-0.17582
-0.0688,0.99741,0.02109,0.05201,0.0829,-0.056
-0.05942,0.99823,0.00077,-0.02927,0.06959,0.02167
-0.04296,0.99862,-0.03023,-0.23949,0.45742,-0.14346
-0.02351,0.99766,-0.06416,-0.32123,0.4393,-0.28102
-0.00416,0.99513,-0.09844,-0.30101,0.34388,-0.33775
0.01904,0.99103,-0.13227,-0.1446,0.25023,-0.17622
0.05127,0.98459,-0.16719,0.02016,0.0865,-0.04217
0.0897,0.97477,-0.20439,0.05096,0.13636,-0.02902
0.13146,0.9611,-0.24291,0.13546,0.25837,0.04283
0.16962,0.94691,-0.27309,-0.15062,0.02226,0.38987
0.19679,0.93438,-0.29701,-0.32121,-0.05268,0.39152
0.21092,0.92113,-0.32717,-0.49036,-0.16273,0.05643
0.21738,0.90639,-0.36222,-0.36721,-0.04529,0.07198
0.22621,0.88953,-0.39694,-0.26592,0.00249,0.06721
0.24409,0.86791,-0.43261,-0.1448,-0.0159,0.12994
0.25983,0.84501,-0.46739,-0.20331,-0.18907,0.30547
0.26939,0.82413,-0.49823,-0.11857,-0.16466,0.24781
0.27765,0.80518,-0.52401,-0.02986,-0.16232,0.11215
0.28099,0.78781,-0.54808,-0.0271,-0.18694,0.13617
0.27731,0.77363,-0.56973,-0.01841,-0.20054,0.17583
0.26928,0.76605,-0.58365,-0.0137,-0.34951,0.20069
0.25956,0.76636,-0.58763,-0.00483,-0.44793,0.04634
0.25077,0.77529,-0.57969,0.02338,-0.37441,0.02541
0.24959,0.79092,-0.5587,0.06045,-0.36766,0.23458
0.25639,0.81444,-0.52053,0.02698,-0.44067,0.33847
0.2617,0.84624,-0.4641,-0.25092,-0.4811,-0.26194
0.24843,0.87089,-0.42406,-0.23246,1.10237,-0.1887
0.23436,0.89595,-0.37729,0.14415,1.67685,0.53395
0.24428,0.91228,-0.32875,0.34022,0.50247,-0.1813
0.24835,0.91719,-0.31159,-0.14546,-0.73004,0.01073
0.23919,0.92561,-0.29332,-0.25373,-0.8245,0.05377
0.21684,0.93723,-0.27308,-0.36871,-0.35067,0.25413
0.18418,0.95015,-0.25157,-0.2074,0.40837,0.14222
0.15331,0.96179,-0.22683,-0.11017,0.45186,0.13757
0.13697,0.97027,-0.19955,-0.0127,0.3449,0.15788
0.12974,0.97665,-0.17125,0.01781,-0.02197,0.04736
0.12321,0.98171,-0.14512,-0.06379,-0.12145,-0.01002
0.1125,0.98605,-0.12263,-0.07809,-0.16853,0.02299
0.09962,0.98992,-0.10067,-0.01036,-0.11093,0.10301
0.08614,0.99308,-0.07977,0.01783,0.00342,-0.02809
0.07142,0.99554,-0.06163,0.00896,0.03289,0.05034
0.05569,0.99739,-0.04596,0.04382,0.07726,0.08752
0.03977,0.99877,-0.02948,0.00835,0.23881,0.06019
0.02495,0.99962,-0.01134,0.01953,0.3469,0.02643
0.01247,0.99991,0.00463,0.13165,0.33452,0.00979
0.00243,0.99985,0.01721,0.21819,0.24896,-0.02502
-0.00594,0.99964,0.0261,0.16744,0.20055,-0.02391
-0.01277,0.99938,0.03282,0.12591,0.09863,-0.09906
-0.01902,0.99913,0.03704,0.05108,-0.08539,-0.1805
-0.02464,0.99899,0.03757,-0.0494,-0.16227,-0.16274
-0.02998,0.9991,0.03012,-0.05195,-0.08363,0.03247
-0.03137,0.99945,0.01051,-0.11029,0.25343,-0.09555
-0.02596,0.99955,-0.01526,-0.10841,0.38177,-0.11451
-0.01531,0.99894,-0.04346,-0.10395,0.42811,-0.27386
0.00101,0.99732,-0.07311,-0.16965,0.34211,-0.30952
0.02608,0.99403,-0.10597,-0.15555,0.29897,-0.19065
0.06218,0.98739,-0.1456,-0.08395,0.27065,-0.11304
0.10319,0.97704,-0.18641,-0.01069,0.26588,-0.00914
0.14457,0.964,-0.22318,-0.00238,0.26013,0.12325
0.1806,0.94944,-0.25679,-0.23663,0.07863,0.27724
0.20403,0.93497,-0.29018,-0.55693,-0.2097,-0.00885
0.21615,0.91969,-0.32778,-0.55009,-0.20853,-0.03223
0.22327,0.90311,-0.36679,-0.37699,-0.14641,0.10157
0.23811,0.88258,-0.40541,-0.01186,-0.07004,0.20854
0.2578,0.85762,-0.44499,-0.04268,-0.09499,0.22519
0.27144,0.83175,-0.48427,-0.15439,-0.15478,0.23277
0.27559,0.80704,-0.52224,-0.0162,-0.22756,0.21259
0.27515,0.7833,-0.55743,-0.02236,-0.2,0.16316
0.26669,0.76229,-0.58974,0.01546,-0.20666,0.18153
0.25331,0.74714,-0.6145,-0.02353,-0.19705,0.18796
0.2398,0.73967,-0.62879,-0.1549,-0.37177,0.11267
0.22647,0.74073,-0.63249,-0.10277,-0.43512,0.08668
0.21654,0.75002,-0.62497,0.01347,-0.45229,0.04155
0.21324,0.76709,-0.60506,0.06269,-0.44524,0.04514
0.21995,0.78837,-0.57454,-0.13711,-0.35697,-0.39041
0.2341,0.80641,-0.54304,-0.30426,0.21115,-0.90168
0.23102,0.8251,-0.51559,-0.37206,0.87335,-0.44431
0.22052,0.85368,-0.4718,0.21396,0.4032,0.53011
0.22627,0.87043,-0.43722,0.25906,0.56465,-0.31934
0.2324,0.88415,-0.4053,-0.11088,0.08019,0.09497
0.22081,0.89877,-0.37875,-0.12535,-0.17648,0.2066
0.20206,0.91401,-0.3518,-0.10175,-0.05593,0.16569
0.18318,0.9288,-0.32214,-0.10298,0.07311,0.21737
0.16242,0.94173,-0.29457,-0.21712,0.28591,0.17961
0.14216,0.95307,-0.26728,-0.12885,0.39908,0.19757
0.12661,0.9631,-0.23752,0.01267,0.26467,0.12585
0.11515,0.97159,-0.20676,-0.014,0.01788,0.12793
0.10493,0.97885,-0.17565,-0.07345,-0.10946,0.14174
0.09402,0.98505,-0.14434,-0.0374,-0.14746,0.13044
0.08092,0.99035,-0.11247,0.02208,-0.1772,0.07184
0.0664,0.99446,-0.08151,0.04841,-0.14001,-0.01531
0.05086,0.99715,-0.05564,0.02955,-0.12168,-0.03637
0.03577,0.99877,-0.03444,0.05949,-0.08527,0.00759
0.02202,0.99961,-0.01704,0.12131,0.0628,-0.03196
0.01006,0.99994,-0.00361,0.08891,0.04722,-0.04411
-0.00063,0.99997,0.00753,0.00731,0.09044,0.06001
-0.01085,0.9998,0.01642,0.02054,0.10908,0.00613
-0.01971,0.99953,0.02357,0.07518,0.09969,0.00818
-0.02691,0.99919,0.02981,0.13447,0.14766,0.0223
-0.03529,0.99873,0.03598,0.15452,0.34362,-0.0068
-0.04461,0.99819,0.04036,0.2033,0.33108,-0.03414
-0.05306,0.99772,0.04179,0.2595,0.20674,-0.08701
-0.05975,0.99741,0.04011,0.25224,0.23688,-0.17831
-0.06308,0.99738,0.03529,0.22229,0.23804,-0.12199
-0.06127,0.9979,0.02103,0.05702,0.12051,0.08255
-0.05084,0.99869,-0.00577,-0.25392,0.21875,-0.04063
-0.03301,0.99873,-0.03794,-0.38186,0.24554,-0.13953
-0.01396,0.99761,-0.06761,-0.46796,0.50773,-0.37084
0.00221,0.99571,-0.09253,-0.09471,0.30387,-0.25496
0.02224,0.99195,-0.12461,-0.01594,0.2215,-0.17431
0.05089,0.98491,-0.16544,0.09522,0.12601,-0.06735
0.08523,0.97463,-0.20697,0.05211,0.08645,0.02081
0.1198,0.96106,-0.24902,0.02238,0.05359,0.12453
0.15481,0.94525,-0.2873,-0.11407,-0.06161,0.41316
0.1867,0.9294,-0.31836,-0.23957,-0.13732,0.24649
0.21087,0.91304,-0.34912,-0.34902,-0.18617,0.01709
0.22279,0.89488,-0.38671,-0.50268,-0.19125,-0.1072
0.22632,0.87268,-0.43268,-0.41835,-0.17816,0.10189
0.23374,0.84692,-0.47758,-0.21086,-0.07446,0.35273
0.2415,0.81919,-0.5202,-0.09318,-0.20272,0.21824
0.24283,0.7928,-0.55902,-0.03009,-0.25195,0.21721
0.24061,0.76857,-0.59279,-0.02263,-0.23137,0.20289
0.23768,0.74628,-0.62175,-0.02885,-0.22345,0.1442
0.23158,0.72865,-0.64454,-0.06755,-0.2488,0.1455
0.22223,0.71959,-0.65788,-0.08122,-0.2825,0.14051
0.21301,0.72013,-0.66033,-0.03189,-0.38327,0.05973
0.20788,0.72989,-0.65119,0.03738,-0.34874,-0.02412
0.2093,0.74736,-0.63059,0.03942,-0.36073,-0.03896
0.21919,0.7735,-0.59468,-0.04866,-0.4227,0.29532
0.23205,0.80463,-0.54655,-0.27456,-0.18064,-0.64295
0.2309,0.83256,-0.50352,-0.07837,1.34002,0.62886
0.22508,0.86206,-0.45408,0.25748,1.50459,-0.01064
0.22911,0.87716,-0.42201,0.06465,0.47384,-0.07938
0.22245,0.88982,-0.39842,-0.10884,-0.42012,0.21548
0.20355,0.9043,-0.37524,-0.17443,-0.37531,0.1748
0.17889,0.91933,-0.35048,-0.22118,-0.03842,0.26783
0.14754,0.93538,-0.3214,-0.28624,0.32724,0.28042
0.11852,0.94969,-0.28991,-0.15032,0.44475,0.24724
0.10133,0.96127,-0.25629,0.03798,0.16063,0.1685
0.09133,0.9708,-0.2218,0.0495,-0.10527,0.08612
0.08152,0.97875,-0.18817,-0.01724,-0.21594,0.1027
0.06973,0.985,-0.15785,0.01439,-0.28613,0.09174
0.057,0.98998,-0.12915,0.06635,-0.28579,0.06702
0.04479,0.99376,-0.10216,0.1522,-0.21709,0.03374
0.03285,0.9963,-0.07941,0.14731,-0.06348,-0.03658
0.02204,0.9979,-0.06088,0.11091,-0.02169,-0.05409
0.01133,0.99892,-0.04494,-0.00977,0.07313,-0.03375
-0.00119,0.99944,-0.03326,-0.08194,0.09215,-0.02532
-0.01314,0.99964,-0.02334,-0.01577,0.14089,0.01379
-0.02569,0.99956,-0.01441,0.10202,0.23669,-0.00442
-0.03841,0.99923,-0.00805,0.30396,0.30346,-0.00298
-0.04898,0.9988,-0.0019,0.37747,0.28915,0.03686
-0.0572,0.99835,0.00343,0.35936,0.30116,0.08759
-0.06247,0.99802,0.0072,0.18967,0.18506,-0.02303
-0.06539,0.99781,0.00999,0.0985,0.12246,-0.09616
-0.06727,0.99768,0.0104,-0.10264,0.19818,-0.06341
-0.06396,0.99795,0.00099,-0.26046,0.10656,0.0701
-0.05312,0.99834,-0.02237,-0.35969,0.3374,-0.16812
-0.03944,0.99785,-0.05233,-0.50135,0.47148,-0.43137
-0.0267,0.9964,-0.08048,-0.41401,0.45134,-0.41012
-0.0131,0.99362,-0.11202,0.0118,0.2629,-0.12643
0.00933,0.98786,-0.15505,0.14866,0.12603,-0.04075
0.04171,0.97774,-0.20564,0.15689,0.07312,0.00798
0.07713,0.96428,-0.25338,0.07691,0.11251,0.07502
0.11361,0.94864,-0.29523,-0.10346,0.18206,0.30326
0.14766,0.9334,-0.32703,-0.26576,-0.00941,0.35024
0.17355,0.9206,-0.34981,-0.35883,-0.11852,0.25121
0.18542,0.90728,-0.37743,-0.46384,-0.29689,-0.04797
0.1849,0.89142,-0.41373,-0.27867,-0.2209,0.06556
0.1866,0.87235,-0.45186,-0.17561,-0.14678,0.09872
0.19903,0.84944,-0.4887,-0.14094,-0.22618,0.37521
0.20632,0.82643,-0.52387,-0.19265,-0.30398,0.4054
0.21102,0.80755,-0.55075,-0.1676,-0.30964,0.36345
0.21895,0.79263,-0.56903,-0.09329,-0.20982,0.15138
0.2292,0.77991,-0.58241,-0.11317,-0.11956,0.11709
0.23674,0.77129,-0.59081,-0.12552,-0.11169,0.13434
0.23978,0.76889,-0.59271,-0.11187,-0.19022,0.10069
0.24089,0.77363,-0.58606,0.11941,-0.2703,0.08467
0.24178,0.78591,-0.56911,0.11853,-0.28258,0.06772
0.24607,0.80452,-0.54055,0.09035,-0.24167,0.11704
0.2564,0.82781,-0.49899,-0.01478,-0.37055,0.13531
0.25827,0.84781,-0.46316,-0.46893,0.52602,-0.8852
0.23861,0.87241,-0.42657,0.0011,0.96684,0.70488
0.2315,0.89638,-0.37804,0.2916,0.4115,0.18445
0.23612,0.91187,-0.33578,0.13698,0.32851,-0.33257
0.23104,0.92466,-0.30269,-0.24706,-0.20747,0.06714
0.20684,0.93836,-0.27693,-0.20661,0.04362,0.25091
0.17809,0.95299,-0.24513,-0.06607,0.10804,0.21121
0.15521,0.96594,-0.20704,0.0722,0.32279,0.08227
0.13939,0.97536,-0.17097,0.00886,0.27691,0.04505
0.12976,0.98139,-0.14155,-0.02185,0.14847,0.05109
0.12018,0.98613,-0.11446,-0.06582,-0.07396,0.09262
0.10692,0.99024,-0.08936,-0.09964,-0.18775,0.05995
0.09092,0.99366,-0.0661,-0.09664,-0.14702,0.00768
0.07525,0.99617,-0.04455,0.01494,-0.10917,0.01217
0.06198,0.99768,-0.02791,0.1188,-0.17855,-0.00479
0.04986,0.99863,-0.01572,0.1107,-0.19336,-0.0366
0.0391,0.99921,-0.00634,0.03922,-0.18175,-0.06346
0.02936,0.99956,0.00436,-0.05112,-0.10059,0.02225
0.02079,0.99965,0.01632,-0.02622,-0.04491,0.01851
0.01239,0.99952,0.02827,0.0472,0.11596,0.04714
0.00459,0.99917,0.04041,0.03728,0.18973,0.02795
-0.00343,0.99867,0.05133,-0.0379,0.22252,-0.08384
-0.01501,0.99807,0.06026,0.0778,0.37138,-0.10359
-0.03041,0.99724,0.06773,0.19515,0.41792,-0.13984
-0.04777,0.99595,0.07617,0.32954,0.28736,-0.26514
-0.06509,0.99442,0.08295,0.24069,0.2015,-0.29581
-0.08037,0.99316,0.08463,0.22415,0.24083,-0.0957
-0.08868,0.99299,0.07809,-0.1014,0.30826,-0.00706
-0.08649,0.99407,0.06589,-0.1408,0.3023,-0.08224
-0.07902,0.99568,0.0487,-0.24523,0.09162,-0.26452
-0.06598,0.99752,0.02416,-0.24534,0.12554,-0.21519
-0.04344,0.99899,-0.01136,-0.18964,0.10604,-0.19414
-0.01072,0.99845,-0.05453,-0.15789,0.09945,-0.23605
0.02824,0.99505,-0.09526,0.04798,0.1199,-0.22067
0.06855,0.98939,-0.12807,0.1654,0.07251,0.06406
0.10838,0.98193,-0.1551,0.00806,0.15851,0.15475
0.14215,0.97333,-0.18004,-0.20617,0.13128,0.14171
0.15706,0.9655,-0.20771,-0.69305,-0.33535,0.31375
0.15745,0.95886,-0.23619,-0.44755,-0.30483,0.26272
0.16195,0.95007,-0.26672,-0.30729,-0.22593,0.15691
0.17301,0.93765,-0.30147,-0.40015,-0.13239,0.05263
0.18359,0.9233,-0.33735,-0.37779,-0.17002,0.30585
0.1923,0.90907,-0.36961,-0.30956,-0.17776,0.35396
0.201,0.89658,-0.39465,-0.21645,-0.27878,0.22039
0.20517,0.88672,-0.41428,-0.18704,-0.28696,0.21553
0.20814,0.87894,-0.42911,-0.15531,-0.2665,0.23368
0.21009,0.87361,-0.43894,-0.14803,-0.30176,0.23519
0.20983,0.87212,-0.44201,-0.21049,-0.29889,0.20543
0.20648,0.87535,-0.43717,-0.16261,-0.35993,0.17901
0.20175,0.88379,-0.42215,-0.03474,-0.38144,0.04446
0.19566,0.8968,-0.39681,0.07529,-0.4321,-0.11337
0.18447,0.91379,-0.36188,0.10294,-0.38971,-0.25136
0.17083,0.93181,-0.32023,0.13222,-0.21396,-0.30628
0.15919,0.94672,-0.27995,0.19956,0.15983,-0.37583
0.15072,0.95614,-0.25114,0.27636,0.26714,-0.45249
0.14833,0.96098,-0.2335,0.56221,0.27287,-0.36928
0.15763,0.96302,-0.2185,0.41935,0.20701,-0.06198
0.17695,0.96478,-0.19464,0.15665,0.236,-0.02402
0.19346,0.96696,-0.16602,-0.56975,0.23042,-0.02732
0.20078,0.96918,-0.14276,-0.89608,0.84088,-0.22749
0.2115,0.9677,-0.13717,-0.60744,0.57406,0.0068
0.22528,0.96635,-0.12416,-0.40432,-0.05663,0.2153
0.22545,0.96942,-0.09688,-0.63583,-0.02706,0.28553
0.20773,0.97522,-0.07612,-0.62429,-0.07285,0.26424
0.1871,0.98086,-0.05381,-0.36068,0.05821,0.20173
0.17369,0.98443,-0.0268,-0.01239,0.21982,0.17863
0.16995,0.98541,0.00932,0.01967,0.10993,0.15916
0.16725,0.98467,0.04945,-0.14259,-0.08674,0.18622
0.15847,0.98399,0.08147,-0.27069,-0.01628,0.02806
0.14619,0.98351,0.10644,-0.26318,-0.0059,-0.01798
0.13124,0.98291,0.12904,-0.1561,-0.09162,-0.05458
0.11121,0.98234,0.15045,-0.06607,-0.03408,-0.01256
0.09211,0.98136,0.16865,0.01111,-0.01619,0.01549
0.07827,0.9799,0.18349,0.24861,0.06902,-0.0107
0.06957,0.9779,0.19714,0.28656,0.07386,-0.07626
0.06299,0.976,0.20846,0.28975,0.07169,-0.11689
0.05654,0.97483,0.21565,0.21964,0.0523,-0.16029
0.04886,0.97365,0.22273,0.19989,0.00929,-0.08304
0.03927,0.97193,0.23196,0.19623,-0.01166,-0.04722
0.02797,0.96957,0.24321,0.04314,-0.00689,-0.22146
0.0158,0.96698,0.25437,0.02724,-0.00862,-0.29431
0.00373,0.96594,0.25874,0.08175,0.07036,-0.18657
-0.00483,0.96666,0.25601,0.13439,0.1349,0.00122
-0.00951,0.96744,0.25291,0.1036,0.09921,-0.0149
-0.01064,0.96851,0.24874,0.11326,0.1882,-0.17138
-0.00884,0.97055,0.24074,0.13828,0.23577,-0.32836
-0.00298,0.97401,0.22648,0.18535,0.23304,-0.32664
0.00829,0.97919,0.20274,0.12747,0.31597,-0.24125
0.0285,0.98545,0.16757,-0.13064,0.38061,-0.43522
0.05779,0.99083,0.12213,-0.38723,0.03574,-0.30878
0.09188,0.99403,0.05877,-0.68601,0.3248,-0.33318
0.11879,0.9927,-0.02062,-0.78087,0.45192,0.11898
0.12939,0.98701,-0.09515,-0.79147,0.45761,0.19351
0.12927,0.9805,-0.14798,-0.22447,0.15442,0.44963
0.13182,0.97335,-0.18764,0.33648,0.17114,-0.02736
0.14278,0.96392,-0.22464,0.28844,0.0396,-0.19552
0.15971,0.9507,-0.26582,0.09848,-0.12161,-0.0184
0.1768,0.93551,-0.30586,-0.16302,-0.16101,0.10287
0.19235,0.92171,-0.33681,-0.39838,-0.17422,0.20412
0.20625,0.91095,-0.35725,-0.36231,-0.35827,0.18817
0.21674,0.90362,-0.36944,-0.26386,-0.42846,0.16762
0.22414,0.89852,-0.37738,-0.16599,-0.41842,0.12967
0.22831,0.89626,-0.38024,-0.16926,-0.39758,0.1398
0.22938,0.89747,-0.37672,-0.19333,-0.33172,0.16717
0.22686,0.90203,-0.36724,-0.16882,-0.38122,-0.02103
0.22074,0.91047,-0.34973,-0.13384,-0.40864,-0.13867
0.21107,0.92332,-0.32081,0.06183,-0.43281,-0.29783
0.19645,0.93845,-0.28408,0.17251,-0.23959,-0.4708
0.18152,0.95318,-0.24186,0.16708,-0.09896,-0.61039
0.17139,0.96381,-0.20418,0.33603,0.23584,-0.77702
0.16937,0.96791,-0.18563,0.54111,0.20618,-0.41125
0.17647,0.96743,-0.18148,0.5029,-0.00716,-0.29599
0.18441,0.9672,-0.17465,0.17132,0.09789,-0.22028
0.18744,0.96892,-0.16144,-0.45201,0.64311,-0.02309
0.19145,0.97013,-0.14898,-0.59336,0.78801,-0.17774
0.2025,0.96898,-0.14163,-0.39328,0.00053,0.15144
0.20713,0.97065,-0.1222,-0.55386,-0.21595,0.24233
0.19275,0.97626,-0.09874,-0.57201,-0.14438,0.33277
0.16546,0.98363,-0.07128,-0.51093,0.21369,0.32285
0.14037,0.98911,-0.04419,-0.41846,0.33596,0.19748
0.12946,0.9914,-0.01908,0.04356,0.08882,0.09753
0.12223,0.99245,0.00971,-0.21404,-0.06408,0.09125
0.11246,0.99295,0.03735,-0.24448,-0.05891,0.06536
0.09543,0.9936,0.06046,-0.23677,-0.06902,0.09125
0.07411,0.99403,0.08009,-0.02951,-0.01952,0.15276
0.05406,0.99355,0.09961,0.09258,-0.00816,0.05777
0.03615,0.99227,0.11867,0.14067,-0.00219,0.00021
0.01944,0.99069,0.13475,0.18576,-0.00335,-0.04437
0.00487,0.98902,0.1477,0.18855,0.02949,-0.04746
-0.00725,0.98721,0.15922,0.26166,0.11856,-0.05155
-0.01712,0.98534,0.16974,0.2118,0.1321,-0.05057
-0.02539,0.98371,0.17793,0.15077,0.13349,-0.06829
-0.03487,0.9825,0.18295,0.14278,0.13942,-0.07833
-0.04766,0.98143,0.18577,0.25466,0.26372,-0.0723
-0.06157,0.98029,0.18773,0.43965,0.54765,-0.07247
-0.07501,0.97926,0.18818,0.52017,0.6207,-0.10716
-0.08437,0.97881,0.18655,0.48862,0.3133,-0.3919
-0.08728,0.97941,0.18202,0.44131,0.25477,-0.38399
-0.08442,0.98151,0.17173,0.08532,0.33028,-0.19206
-0.07391,0.9858,0.15079,-0.24117,0.12221,-0.01323
-0.05412,0.99136,0.11944,-0.47129,0.16938,-0.20076
-0.02871,0.99596,0.08504,-0.34867,0.37068,-0.28401
-0.0053,0.99891,0.04619,-0.30178,0.5562,-0.1762
0.01736,0.99985,9e-05,-0.25702,0.35962,-0.13477
0.04533,0.99761,-0.05207,-0.06402,0.16462,-0.26863
0.07795,0.99173,-0.10194,0.08045,0.21726,-0.28017
0.114,0.98356,-0.14005,0.23316,0.05795,0.09075
0.14933,0.97384,-0.17124,0.05668,-0.00251,0.19054
0.18137,0.96305,-0.19907,-0.19339,-0.02299,0.2105
0.20949,0.9517,-0.22444,-0.36414,-0.10905,0.08342
0.23226,0.93968,-0.25109,-0.37588,-0.15272,0.04496
0.2526,0.92635,-0.27941,-0.3552,-0.25368,-0.07478
0.27612,0.90972,-0.31011,-0.22732,-0.18456,-0.02846
0.2945,0.89046,-0.34691,-0.25268,-0.12651,0.14978
0.30257,0.8716,-0.38569,-0.06775,-0.07203,0.40911
0.30665,0.85346,-0.42138,0.04664,-0.13385,0.06582
0.3041,0.83602,-0.45671,-0.04984,-0.18537,0.02173
0.29003,0.81914,-0.49487,-0.18055,-0.23198,0.16716
0.26922,0.80436,-0.52964,-0.17439,-0.3659,0.14789
0.24685,0.7942,-0.55525,-0.14294,-0.39253,0.12538
0.22244,0.78923,-0.57239,-0.14133,-0.35942,0.06329
0.19809,0.78992,-0.58034,-0.04074,-0.31494,-0.04004
0.17883,0.79825,-0.57516,-0.03799,-0.28321,-0.08862
0.16528,0.81365,-0.55736,0.00917,-0.26321,-0.08395
0.15949,0.83469,-0.52711,0.11397,-0.24017,-0.01577
0.156,0.86161,-0.483,0.12084,-0.24599,0.12373
0.1483,0.88622,-0.43889,-0.29387,0.40358,-0.56678
0.13033,0.90988,-0.39387,-0.09456,0.97382,0.28541
0.13341,0.92835,-0.34693,0.44943,1.46583,0.07106
0.14307,0.93733,-0.31771,-0.03005,-0.43898,0.23255
0.13972,0.94539,-0.29446,-0.05491,-0.51891,0.03836
0.12288,0.95527,-0.26897,-0.1897,-0.4095,0.09274
0.09634,0.966,-0.23992,-0.19791,0.00161,0.27015
0.06724,0.97579,-0.20812,-0.22601,0.211,0.17733
0.04776,0.98336,-0.17526,-0.10345,0.19109,0.16915
0.0384,0.98926,-0.141,-0.02327,-0.183,0.08514
0.03468,0.99392,-0.10448,-0.02457,-0.21996,0.03987
0.03034,0.99706,-0.07025,-0.03617,-0.26945,-0.00908
0.02418,0.9989,-0.04011,-0.0009,-0.25445,-0.04811
0.01468,0.99982,-0.01195,0.04875,-0.24739,-0.06357
0.00256,0.99992,0.01198,0.24587,-0.09668,-0.11683
-0.01238,0.99947,0.02983,0.29061,0.03982,-0.19555
-0.02828,0.99861,0.0444,0.2026,0.13342,-0.17076
-0.04176,0.99754,0.05633,0.16516,0.16874,-0.07433
-0.05248,0.99655,0.06418,0.17998,0.14599,-0.05893
-0.06255,0.99546,0.07162,0.22354,0.08132,0.00139
-0.07158,0.99423,0.0799,0.18138,0.2701,0.01023
-0.08034,0.99304,0.08614,0.12469,0.32389,-0.06663
-0.08764,0.9921,0.08973,0.21751,0.35759,-0.11886
-0.09475,0.99134,0.09089,0.29873,0.33393,-0.13554
-0.10005,0.99095,0.08941,0.31109,0.20273,-0.1785
-0.10315,0.99095,0.08591,0.21971,0.17179,-0.11868
-0.10327,0.9916,0.07784,0.05176,0.18934,0.03279
-0.09544,0.99366,0.05933,-0.15468,0.26034,-0.01384
-0.08035,0.99618,0.03406,-0.46138,0.30895,-0.32757
-0.0597,0.99819,0.00718,-0.46433,0.41702,-0.41943
-0.04368,0.99889,-0.01721,-0.38117,0.43983,-0.34595
-0.03134,0.99853,-0.04403,0.09732,0.08926,-0.28048
-0.01245,0.99659,-0.08153,0.17153,0.06747,-0.26004
0.01676,0.99207,-0.12456,0.22864,0.05676,-0.15573
0.05257,0.98418,-0.16917,0.14523,-0.0076,0.17685
0.09161,0.97262,-0.21356,0.02475,0.01494,0.29933
0.12733,0.96012,-0.2489,-0.22484,-0.08091,0.2689
0.15332,0.94944,-0.27396,-0.42044,-0.18722,-0.11695
0.1703,0.93757,-0.30323,-0.42227,-0.1987,-0.15745
0.17744,0.92294,-0.34161,-0.21333,-0.14422,-0.03375
0.18625,0.90501,-0.38245,0.03602,-0.01905,0.1453
0.20062,0.88359,-0.4231,0.02165,0.00236,0.18595
0.21112,0.86078,-0.46313,-0.15519,-0.12484,0.16627
0.21109,0.83938,-0.50087,-0.12436,-0.22343,0.09009
0.20973,0.8202,-0.53225,-0.04041,-0.21592,0.08849
0.20813,0.80271,-0.55887,-0.0062,-0.2593,0.11645
0.2018,0.7887,-0.58071,-0.01457,-0.3545,0.10354
0.1903,0.7802,-0.59588,0.00666,-0.37892,0.10047
0.17719,0.77889,-0.6016,0.08111,-0.45391,-0.0098
0.16779,0.78656,-0.59428,0.04176,-0.39973,-0.03051
0.1664,0.8018,-0.57396,0.12211,-0.27412,0.08532
0.17247,0.82274,-0.54161,-0.05673,-0.37255,-0.17021
0.17855,0.85033,-0.49503,-0.06281,-0.40013,-0.21679
0.17275,0.86805,-0.46545,0.17884,1.5819,0.47796
0.17026,0.88967,-0.42366,0.33018,0.77553,0.50411
0.17735,0.90566,-0.38511,0.05865,-0.01458,-0.17345
0.17711,0.91439,-0.36402,-0.20115,-0.60185,0.23141
0.16738,0.92874,-0.3308,-0.15619,-0.33305,0.22069
0.14645,0.94267,-0.29987,-0.13029,0.0599,0.2671
0.1211,0.95537,-0.26944,-0.07078,0.39032,0.18446
0.09868,0.96593,-0.23925,0.01782,0.45062,0.19054
0.0844,0.97449,-0.20792,0.01693,0.06568,0.13155
0.07751,0.98103,-0.17764,-0.08264,-0.15663,0.0155
0.07145,0.98647,-0.14749,-0.13616,-0.22917,0.0302
0.06236,0.9909,-0.11923,-0.08424,-0.26736,0.05249
0.05059,0.99453,-0.09135,0.02408,-0.22173,0.02696
0.03764,0.99723,-0.06407,0.18005,-0.11285,-0.06888
0.02449,0.99899,-0.03747,0.25186,-0.08642,-0.05963
0.01226,0.99983,-0.01354,0.28691,-0.05223,-0.0684
0.00011,0.99998,0.00576,0.18577,-0.00712,-0.13422
-0.01083,0.99969,0.02205,0.09869,0.03502,-0.07796
-0.02168,0.99909,0.03646,0.06296,0.07172,-0.06567
-0.03454,0.99812,0.05054,0.10323,0.12644,-0.04546
-0.04703,0.99685,0.06372,0.13929,0.13825,-0.02699
-0.05939,0.99535,0.07581,0.12924,0.20233,-0.04139
-0.0719,0.99366,0.08631,0.2018,0.2224,-0.05009
-0.08588,0.9918,0.09453,0.24873,0.35068,-0.08441
-0.09813,0.99005,0.10079,0.29677,0.3391,-0.12723
-0.10545,0.98885,0.10505,0.2181,0.26317,-0.06545
-0.10829,0.98868,0.10376,0.09764,0.12112,0.16962
-0.10367,0.99057,0.0895,0.09302,0.11923,0.18388
-0.08917,0.9938,0.0663,-0.33815,0.19826,-0.14751
-0.06933,0.99662,0.04391,-0.37939,0.33837,-0.38631
-0.05165,0.99843,0.02123,-0.39707,0.33656,-0.36362
-0.03974,0.99918,-0.00752,-0.05381,0.30402,-0.31665
-0.02624,0.9985,-0.04784,0.29311,0.15158,-0.2994
-0.00297,0.99547,-0.09499,0.34469,0.0946,-0.2348
0.0306,0.98898,-0.14485,0.26766,0.04253,-0.13725
0.07323,0.9785,-0.19276,-0.02227,0.0612,0.11038
0.12003,0.9655,-0.23107,-0.14676,0.05994,0.24006
0.15603,0.95385,-0.25655,-0.33265,-0.07072,0.15903
0.17525,0.94277,-0.28366,-0.36438,-0.2174,0.04274
0.1788,0.93101,-0.31817,-0.26568,-0.18475,0.11099
0.18343,0.91766,-0.35249,0.05508,-0.01103,0.05962
0.19991,0.89925,-0.38907,-0.01961,-0.03061,0.08046
0.21584,0.87695,-0.42939,-0.1296,-0.08469,0.12882
0.22392,0.85485,-0.46806,-0.12414,-0.26667,0.19623
0.22613,0.83518,-0.50133,-0.09562,-0.24593,0.1574
0.2259,0.8174,-0.52992,-0.03996,-0.15972,0.07522
0.22454,0.80194,-0.55359,0.01372,-0.25239,0.105
0.21667,0.79012,-0.57338,0.03003,-0.29207,0.09016
0.20265,0.78366,-0.5872,0.01624,-0.35215,0.00122
0.18677,0.78431,-0.59159,0.08161,-0.36342,-0.06156
0.17736,0.79314,-0.58264,0.13185,-0.33215,-0.09027
0.17791,0.80868,-0.56069,0.10236,-0.36235,-0.04911
0.18727,0.83094,-0.52389,-0.12845,-0.62503,-0.06686
0.19154,0.85635,-0.47954,-0.3264,-0.31499,-0.83428
0.17783,0.87887,-0.44268,0.48511,1.3514,0.79433
0.17653,0.90056,-0.39727,0.33548,0.83961,-0.42974
0.18146,0.91299,-0.36539,-0.0692,-0.20063,0.18185
0.17442,0.92466,-0.33849,-0.19791,-0.45334,0.15473
0.15397,0.93721,-0.31293,-0.16898,-0.16635,0.23788
0.12799,0.95044,-0.28334,-0.16524,0.18151,0.24884
0.10133,0.96315,-0.24911,-0.01463,0.3894,0.16363
0.08013,0.97339,-0.21467,0.1367,0.3186,0.13969
0.06717,0.9812,-0.18091,0.13669,-0.02951,0.09277
0.05799,0.98735,-0.14756,0.03411,-0.1751,0.03547
0.04643,0.99212,-0.11629,-0.07836,-0.23997,0.0107
0.03245,0.99565,-0.08732,0.00489,-0.22882,0.04591
0.01725,0.99816,-0.05808,0.0812,-0.20766,0.01233
0.00198,0.99951,-0.03102,0.18784,-0.12097,-0.07868
-0.01298,0.99987,-0.00828,0.19504,-0.03068,-0.0853
-0.02778,0.99956,0.01014,0.1971,-0.02873,-0.04037
-0.04155,0.9988,0.02577,0.11992,0.03711,-0.03766
-0.05506,0.99772,0.03882,0.12157,0.15188,-0.03667
-0.06711,0.99638,0.05207,0.1534,0.19107,-0.02176
-0.0781,0.99497,0.06265,0.20095,0.24525,-0.06932
-0.08786,0.99352,0.07196,0.25285,0.26566,-0.03438
-0.09569,0.9921,0.08105,0.27052,0.26767,-0.05561
-0.10252,0.99084,0.08777,0.26995,0.21843,-0.14287
-0.10889,0.9898,0.09182,0.21721,0.18505,-0.22983
-0.11232,0.98934,0.09266,0.17523,0.19354,-0.21338
-0.11361,0.98971,0.08693,0.11706,0.14281,-0.00851
-0.10963,0.99167,0.06757,-0.07685,0.33406,-0.01786
-0.09528,0.99478,0.03634,-0.20508,0.3277,-0.12305
-0.07412,0.99724,0.00146,-0.38552,0.41482,-0.39192
-0.0536,0.99809,-0.03041,-0.05845,0.40417,-0.30962
-0.03367,0.99725,-0.06595,0.04504,0.2553,-0.21359
-0.0063,0.99356,-0.11305,0.24341,0.05063,-0.16848
0.03023,0.98633,-0.16196,0.20688,0.09646,-0.11765
0.07123,0.97597,-0.20592,0.15489,0.10705,-0.02855
0.11447,0.96347,-0.24211,-0.09703,-0.0825,0.26671
0.14997,0.9513,-0.26932,-0.27431,-0.1588,0.235
0.17004,0.93947,-0.29745,-0.37964,-0.29558,0.00164
0.17892,0.92625,-0.33173,-0.23353,-0.17864,0.06607
0.18783,0.91002,-0.36956,-0.10673,-0.06429,0.12029
0.20253,0.88938,-0.40986,-0.12411,-0.02373,0.20218
0.2158,0.86719,-0.44878,-0.21272,-0.12898,0.30301
0.22473,0.84567,-0.48407,-0.0436,-0.19505,0.12044
0.23472,0.82583,-0.51275,-0.00925,-0.19184,0.06117
0.2437,0.80804,-0.53636,0.02387,-0.2058,0.10581
0.24617,0.79384,-0.55607,0.00016,-0.27698,0.19328
0.24208,0.78554,-0.56949,-0.06424,-0.31374,0.12125
0.23384,0.78432,-0.57459,0.05838,-0.32686,0.04972
0.22575,0.79094,-0.56872,0.11788,-0.2923,-0.01011
0.22271,0.80534,-0.54938,0.08777,-0.28538,0.05455
0.22465,0.82684,-0.51562,-0.08744,-0.38987,0.31002
0.22376,0.85511,-0.46767,-0.26724,-0.18325,-1.03268
0.2072,0.87106,-0.44532,0.11992,1.18294,0.48002
0.20261,0.89358,-0.40058,0.55789,0.89425,0.84159
0.20882,0.91012,-0.35788,0.18178,0.14944,-0.37998
0.20727,0.91893,-0.33555,-0.15165,-0.53276,0.05929
0.1937,0.93062,-0.31051,-0.16845,-0.37393,0.2203
0.16885,0.94288,-0.28715,-0.06182,-0.0061,0.20135
0.14214,0.95436,-0.26264,-0.04171,0.32466,0.18446
0.11971,0.96492,-0.23364,-0.02701,0.39421,0.18168
0.10425,0.97362,-0.20295,0.02307,0.04365,0.09088
0.09513,0.98017,-0.1738,-0.01539,-0.13689,-0.02117
0.08603,0.98555,-0.14586,-0.12816,-0.19951,-0.04454
0.07393,0.99012,-0.11912,-0.11361,-0.13816,0.06709
0.061,0.9939,-0.09178,-0.07638,-0.12308,0.05066
0.0483,0.99677,-0.06413,0.07809,-0.06786,0.03585
0.03465,0.9986,-0.0398,0.25226,-0.11527,-0.00909
0.0199,0.99957,-0.02116,0.30463,-0.10376,-0.04489
0.00455,0.99997,-0.00472,0.23689,0.00088,0.01917
-0.00933,0.99991,0.00923,0.16658,0.08165,0.04613
-0.02212,0.99952,0.02161,0.13745,0.11465,0.01944
-0.03537,0.99883,0.03286,0.08839,0.18586,-0.00528
-0.0475,0.99793,0.04315,0.18254,0.19887,0.02719
-0.05857,0.99683,0.05376,0.18717,0.18661,-0.06087
-0.06831,0.99565,0.06332,0.15412,0.25461,-0.08766
-0.07735,0.99443,0.07147,0.15932,0.12739,-0.11568
-0.0856,0.99332,0.07727,0.16636,0.1305,-0.16155
-0.0941,0.99237,0.07958,0.17993,0.11961,0.00741
-0.09901,0.99239,0.07315,0.12533,0.13702,0.03099
-0.09857,0.99352,0.05655,0.00636,0.25068,-0.01112
-0.08995,0.99543,0.03209,-0.24352,0.27527,-0.27957
-0.07391,0.99726,-3e-05,-0.29116,0.46571,-0.49861
-0.05521,0.99792,-0.03314,-0.18637,0.47399,-0.51145
-0.03256,0.99718,-0.06761,0.26573,0.31949,-0.35823
0.00023,0.99346,-0.11412,0.35789,0.22523,-0.24413
0.04396,0.98578,-0.16217,0.28627,0.23395,-0.0994
0.09416,0.97497,-0.2014,0.02634,0.23981,0.3012
0.14048,0.96199,-0.23416,-0.45015,0.00302,0.18488
0.16878,0.94894,-0.2665,-0.57274,-0.0796,-0.0179
0.17793,0.93678,-0.3013,-0.47564,-0.21528,0.08925
0.1825,0.9242,-0.33548,-0.03455,-0.09394,0.0873
0.20298,0.90614,-0.37108,0.02984,-0.04311,0.02637
0.22788,0.88218,-0.41209,-0.23531,-0.26117,0.26774
0.2417,0.85797,-0.45328,-0.06338,-0.35108,0.2589
0.24951,0.83641,-0.48802,-0.03943,-0.35951,0.144
0.25179,0.81619,-0.52003,-0.06832,-0.32107,0.13321
0.24782,0.7984,-0.54876,0.01014,-0.29716,0.17739
0.24067,0.78654,-0.56871,-0.01472,-0.38138,0.12695
0.23087,0.78295,-0.57765,-0.03973,-0.42855,-0.0128
0.22177,0.78745,-0.5751,-0.01468,-0.41173,-0.03841
0.21706,0.79966,-0.55984,0.06086,-0.39991,0.10818
0.22103,0.81936,-0.52895,0.15581,-0.46798,0.27721
0.22829,0.84806,-0.4782,0.04951,-0.50484,0.43415
0.22416,0.881,-0.41663,-0.30351,-0.2533,-0.66557
0.19932,0.9012,-0.38485,-0.10044,1.70215,-0.08131
0.18186,0.92066,-0.3454,0.47231,1.69973,0.3925
0.1904,0.93117,-0.31092,0.13922,-0.05467,-0.24547
0.1925,0.9375,-0.28987,-0.05119,-0.71247,-0.00366
0.18138,0.94744,-0.26353,-0.15423,-0.14282,0.24189
0.15921,0.95808,-0.2382,-0.05785,0.02023,0.248
0.13,0.96945,-0.20797,0.07851,0.37954,0.13047
0.10753,0.97814,-0.17796,0.17723,0.34376,0.16534
0.09656,0.98419,-0.14845,0.10241,-0.02475,0.14857
0.09161,0.9888,-0.11781,0.02141,-0.18527,0.02861
0.085,0.99253,-0.08744,-0.12107,-0.27053,0.01339
0.07538,0.99537,-0.05953,-0.12117,-0.28274,0.02057
0.06426,0.99735,-0.0339,-0.09904,-0.23444,0.0343
0.0527,0.99856,-0.00929,0.08031,-0.05113,-0.07062
0.03981,0.99912,0.01325,0.11036,-0.04587,-0.11881
0.02641,0.99916,0.03109,0.12483,0.01426,-0.10007
0.0147,0.99889,0.04461,0.04498,-0.02735,-0.0616
0.00397,0.99835,0.05721,0.01445,0.00182,-0.03184
-0.00733,0.9975,0.07028,0.10203,0.14452,0.01576
-0.01954,0.99629,0.08377,0.21202,0.35025,-0.07871
-0.02994,0.99494,0.0959,0.25263,0.35131,-0.06461
-0.03777,0.99367,0.10573,0.27372,0.30879,-0.0818
-0.04615,0.99242,0.11388,0.19477,0.28868,-0.18814
-0.05361,0.9913,0.1202,0.12756,0.26009,-0.24839
-0.05789,0.99078,0.1225,0.09342,0.29086,-0.2206
-0.06038,0.99154,0.1149,-0.00432,0.21366,0.00347
-0.05573,0.99405,0.09354,-0.0563,0.28396,-0.03296
-0.04068,0.99704,0.06515,-0.19435,0.38098,-0.34912
-0.02312,0.99915,0.03397,-0.23711,0.38901,-0.39722
-0.00678,0.99997,0.00055,-0.11181,0.31637,-0.39611
0.01204,0.99925,-0.03664,0.25617,0.13853,-0.2053
0.03865,0.99593,-0.08135,0.27282,0.06353,-0.17335
0.07067,0.98888,-0.13082,0.13816,0.16247,-0.09963
0.10583,0.97796,-0.17997,-0.06884,0.16602,0.11325
0.13912,0.96481,-0.22313,-0.23772,0.1171,0.25055
0.16249,0.95143,-0.26148,-0.51692,-0.08165,0.18697
0.17342,0.93824,-0.29939,-0.38264,-0.13852,0.03373
0.18183,0.92394,-0.33655,-0.17846,-0.07587,-0.03755
0.19576,0.90478,-0.37822,-0.02389,-0.14452,0.19528
0.20968,0.88149,-0.42309,-0.00571,-0.16049,0.15038
0.22264,0.85544,-0.46759,-0.10698,-0.27737,0.24066
0.22647,0.83005,-0.50963,-0.09337,-0.28353,0.18961
0.22407,0.80706,-0.5463,-0.06088,-0.30108,0.14365
0.21785,0.78617,-0.57834,-0.03456,-0.29703,0.15871
0.20891,0.76986,-0.60304,-0.09305,-0.3047,0.16367
0.19728,0.76043,-0.61873,-0.10172,-0.38344,0.10394
0.18463,0.76011,-0.62301,0.00766,-0.39366,0.00054
0.17794,0.76996,-0.61278,0.05607,-0.38574,-0.04394
0.181,0.78967,-0.58622,-0.02682,-0.37976,-0.02334
0.19037,0.81674,-0.5447,-0.12867,-0.47764,0.57552
0.19536,0.8504,-0.48852,-0.18739,-0.53553,0.25897
0.18914,0.87907,-0.43756,-0.28932,0.88164,-1.27189
0.17254,0.89778,-0.40523,0.81865,1.30845,0.74682
0.1825,0.91266,-0.3657,0.27414,0.52774,-0.37797
0.18634,0.91837,-0.34909,-0.26238,-0.79636,-0.01634
0.1835,0.92836,-0.32322,-0.32592,-0.43752,0.14666
0.17316,0.94029,-0.29304,-0.24257,-0.23855,0.26054
0.15408,0.95392,-0.25747,-0.03964,0.23422,0.13236
0.13367,0.96583,-0.22202,0.39388,0.5773,0.14652
0.12117,0.97461,-0.18828,0.43137,0.38989,0.08443
0.11413,0.98137,-0.15454,0.20641,0.03117,-0.06105
0.10555,0.98685,-0.12245,-0.03466,-0.19523,-0.00962
0.09242,0.99124,-0.09434,-0.07248,-0.22351,0.01447
0.07734,0.9948,-0.06625,-0.02982,-0.25907,0.04626
0.06219,0.99735,-0.03775,0.04421,-0.16953,-0.00545
0.04777,0.99878,-0.01248,0.07209,-0.12459,-0.04118
0.03444,0.99937,0.00812,0.10582,-0.07956,-0.08324
0.02183,0.99947,0.02422,0.01181,0.03305,-0.15992
0.01073,0.99922,0.03808,0.03721,0.06895,-0.1451
0.00056,0.99867,0.05146,0.20776,0.04059,0.01867
-0.00959,0.9979,0.06402,0.24933,0.1074,-0.06965
-0.02095,0.99681,0.07697,0.25772,0.17374,-0.12414
-0.03278,0.9955,0.08886,0.30555,0.29136,-0.10352
-0.04661,0.9939,0.09994,0.36306,0.29922,-0.11687
-0.06178,0.99199,0.11016,0.44976,0.37778,-0.22892
-0.07636,0.98989,0.11954,0.34316,0.12054,-0.33393
-0.09045,0.98773,0.12726,0.29334,-0.02356,-0.32607
-0.10451,0.98565,0.13253,0.18917,-0.07595,-0.05345
-0.11443,0.98458,0.13227,-0.03407,0.00802,0.14072
-0.1165,0.98559,0.12264,-0.21098,0.45621,-0.03275
-0.11046,0.98812,0.1068,-0.30978,0.54879,-0.2549
-0.09674,0.99176,0.08396,-0.09952,0.25827,-0.23436
-0.07626,0.99579,0.05091,-0.00743,0.08503,-0.11657
-0.04606,0.99891,0.00668,0.0084,-0.06337,-0.06684
-0.00657,0.99924,-0.03836,-0.17134,0.17614,-0.15863
0.03392,0.99631,-0.07875,-0.27873,0.31322,-0.12573
0.06783,0.99114,-0.11417,-0.38424,0.33717,-0.11237
0.08943,0.98502,-0.14745,-0.49025,-0.05553,0.03908
0.09796,0.97904,-0.17857,-0.38046,-0.17975,0.37034
0.10141,0.97323,-0.20626,-0.24382,-0.20565,0.32766
0.10867,0.96652,-0.23246,0.04511,-0.18136,-0.00768
0.12282,0.95765,-0.26041,-0.1928,-0.21984,0.079
0.13648,0.94679,-0.29149,-0.21269,-0.21114,0.19074
0.145,0.93563,-0.32181,-0.23705,-0.23953,0.22356
0.14982,0.92509,-0.34895,-0.26058,-0.2535,0.18684
0.15237,0.91501,-0.37354,-0.26313,-0.24343,0.21143
0.15399,0.9063,-0.39359,-0.18532,-0.21379,0.23595
0.15547,0.89939,-0.40857,-0.16079,-0.2699,0.25137
0.15434,0.89479,-0.41896,-0.15967,-0.2653,0.26177
0.15161,0.89326,-0.4232,-0.17717,-0.33244,0.22225
0.14667,0.89536,-0.42049,-0.14866,-0.35413,0.17621
0.13964,0.90154,-0.40955,-0.11338,-0.31064,0.10016
0.13175,0.91163,-0.38932,-0.08503,-0.2772,-0.03698
0.12336,0.92506,-0.35922,0.00576,-0.25909,-0.15703
0.11181,0.94065,-0.32041,0.06734,-0.22369,-0.24307
0.09662,0.95577,-0.27777,0.21632,-0.06307,-0.44554
0.08093,0.96823,-0.23662,0.48718,0.3734,-0.61992
0.06955,0.9758,-0.20729,0.67761,0.56465,-0.57327
0.07936,0.97674,-0.19918,0.99576,0.38428,-0.36023
0.10872,0.97482,-0.1947,0.34201,0.32889,-0.34204
0.13506,0.9728,-0.18821,-0.01397,0.27714,-0.25936
0.14972,0.97028,-0.1901,-0.60995,0.27348,-0.03224
0.16548,0.96583,-0.19947,-0.47955,-0.20428,0.02612
0.17873,0.96509,-0.19143,-0.26864,-0.36213,0.2492
0.1854,0.96878,-0.16458,-0.34249,-0.05888,0.57283
0.18009,0.97409,-0.13676,-0.43077,0.06608,0.55717
0.16509,0.97991,-0.11184,-0.38851,0.21552,0.21521
0.15136,0.98434,-0.0904,0.06551,0.08213,0.16641
0.1468,0.9869,-0.06693,0.07007,0.07957,0.14295
0.14849,0.9883,-0.03467,-0.11454,-0.08654,0.24002
0.14715,0.98911,0.0006,-0.21699,-0.08045,0.16104
0.14006,0.98965,0.03104,-0.17676,-0.01414,0.17539
0.12871,0.99005,0.05693,-0.0814,-0.02073,0.08922
0.11413,0.99013,0.08131,-0.00384,-0.03145,0.04061
0.09772,0.98967,0.10491,0.005,-0.0392,0.05175
0.0812,0.9888,0.12517,0.04512,0.00176,0.09358
0.06663,0.98767,0.14162,0.21082,0.05923,0.09725
0.05639,0.98639,0.15447,0.25268,0.04329,0.03161
0.0477,0.98527,0.16418,0.27803,0.01077,-0.04586
0.03965,0.98428,0.17211,0.31292,-0.04144,-0.11306
0.03307,0.98297,0.18077,0.32509,0.0029,-0.06396
0.02552,0.98139,0.19031,0.30285,-0.02585,-0.06505
0.01598,0.97971,0.19977,0.21786,-0.08451,-0.18172
0.0045,0.97783,0.20936,0.19672,-0.06227,-0.11861
-0.00699,0.9765,0.21538,0.23258,0.04611,-0.06375
-0.01635,0.97577,0.21819,0.21053,0.17922,-0.02418
-0.02268,0.97545,0.21907,0.12898,0.17206,-0.15826
-0.02433,0.97634,0.21484,0.15563,0.20412,-0.28097
-0.02184,0.97841,0.2055,0.24429,0.17901,-0.22943
-0.01491,0.98187,0.18895,0.27269,0.19463,-0.23138
-0.00158,0.98667,0.16271,0.13531,0.36314,-0.29735
0.02204,0.99199,0.12433,-0.09898,0.21151,-0.36248
0.05486,0.99598,0.07074,-0.49299,0.20055,-0.19881
0.09073,0.99587,0.00148,-0.65985,0.50185,-0.23052
0.12076,0.98947,-0.07983,-0.88525,0.96174,-0.10426
0.13499,0.97851,-0.15585,-0.3714,0.26169,0.5764
0.14331,0.9672,-0.20972,0.02297,0.13105,0.36785
0.15584,0.95626,-0.24755,0.41254,0.07241,-0.06058
0.17745,0.94341,-0.28016,0.22483,0.04303,-0.09088
0.20258,0.92692,-0.31587,0.09737,0.02245,-0.00185
0.22631,0.9082,-0.35208,-0.17155,-0.09162,0.20422
0.24423,0.89074,-0.38332,-0.42347,-0.21195,0.29987
0.25642,0.87768,-0.40488,-0.41621,-0.28019,0.32134
0.26558,0.86829,-0.41898,-0.33958,-0.34369,0.32297
0.27264,0.86119,-0.42898,-0.28527,-0.33736,0.27888
0.27706,0.85801,-0.43249,-0.2965,-0.34723,0.27608
0.27905,0.85943,-0.42838,-0.26019,-0.27463,0.21952
0.2783,0.86515,-0.41721,-0.22126,-0.29707,0.16113
0.2749,0.87488,-0.39876,0.02719,-0.40091,-0.0316
0.26732,0.88943,-0.37076,0.19967,-0.45423,-0.1231
0.25251,0.90806,-0.33415,0.2444,-0.36691,-0.16252
0.23279,0.92732,-0.29307,0.35139,0.01186,-0.46226
0.21299,0.94139,-0.26157,0.73058,0.44197,-0.56562
0.2059,0.94699,-0.24661,0.97835,0.50045,-0.39501
0.22356,0.94522,-0.23783,0.47158,0.14598,-0.19074
0.2498,0.94132,-0.22695,-0.14695,0.2595,0.05262
0.26082,0.94077,-0.21663,-0.6453,0.27118,0.1695
0.25941,0.94251,-0.21066,-0.72949,0.68727,-0.27252
0.25924,0.94201,-0.21308,-0.31298,0.10538,0.28543
0.27029,0.9419,-0.19941,-0.40476,-0.01342,0.29691
0.26797,0.94792,-0.17215,-0.69256,0.07494,0.40537
0.24837,0.95727,-0.14816,-0.41117,0.18817,0.26463
0.22557,0.96583,-0.12765,-0.2157,0.18607,0.21721
0.20914,0.97194,-0.10766,-0.06724,0.25421,0.20847
0.20106,0.97631,-0.07997,-0.06589,-0.02984,0.2001
0.19495,0.97954,-0.04991,-0.2383,-0.09594,0.15744
0.18363,0.98266,-0.02546,-0.26249,-0.09411,0.14718
0.16805,0.98575,-0.00646,-0.12586,-0.10312,0.16857
0.15115,0.98845,0.01091,0.01479,-0.07463,0.14622
0.1354,0.99035,0.02961,0.13913,-0.04552,0.06805
0.12164,0.99145,0.0473,0.23287,-0.01572,-0.00857
0.10965,0.992,0.06246,0.23453,-0.00929,-0.00695
0.10097,0.99206,0.07491,0.31616,0.1167,0.02787
0.09469,0.99175,0.08643,0.19947,0.09428,0.02985
0.08921,0.99133,0.09647,0.14696,0.06635,-0.00585
0.0829,0.99102,0.10489,0.15048,0.04452,0.00566
0.07546,0.99082,0.11219,0.11904,0.11917,-0.01212
0.06513,0.99081,0.1185,0.02776,0.17346,-0.08855
0.05278,0.99089,0.12387,0.1334,0.2648,-0.14339
0.04042,0.9908,0.12913,0.24608,0.43206,-0.18907
0.02895,0.99088,0.13162,0.36643,0.30396,-0.24989
0.01878,0.99141,0.12945,0.46767,0.40778,-0.26165
0.0111,0.9926,0.12091,0.24711,0.39732,-0.13209
0.00891,0.99451,0.10422,0.00669,0.22068,-0.04447
0.0124,0.99653,0.08228,-0.12138,0.2241,-0.04526
0.02237,0.99828,0.05424,-0.31206,0.18875,-0.0406
0.03926,0.99905,0.01866,-0.33784,0.20932,0.05826
0.0619,0.99782,-0.02285,-0.34669,0.26765,0.10606
0.0885,0.99379,-0.06742,-0.34131,0.38249,0.07339
0.11547,0.98728,-0.10931,-0.30894,0.19754,-0.0826
0.14148,0.97854,-0.14982,0.02564,0.12232,-0.22665
0.17086,0.96649,-0.19158,0.27706,0.13196,-0.17622
0.20689,0.95079,-0.23061,0.28781,0.12019,-0.05085
0.24111,0.93469,-0.26119,0.00106,-0.01214,0.19842
0.27092,0.91789,-0.28996,-0.32814,-0.06128,0.18795
0.29286,0.90068,-0.32094,-0.53808,-0.07016,0.13111
0.30662,0.88433,-0.35204,-0.54058,-0.04559,0.11015
0.3143,0.8683,-0.38376,-0.39576,-0.10568,0.20148
0.31871,0.84997,-0.4195,-0.22414,-0.08536,0.15639
0.32498,0.82816,-0.45665,-0.19873,-0.04502,0.18387
0.33342,0.80505,-0.49064,-0.17941,-0.14223,0.24943
0.34053,0.78253,-0.52123,-0.16209,-0.1705,0.20528
0.34563,0.76035,-0.54992,-0.19231,-0.1422,0.18804
0.34732,0.74008,-0.57589,-0.24614,-0.15486,0.15678
0.34343,0.72407,-0.59814,-0.24984,-0.21675,0.20945
0.33282,0.7129,-0.61725,-0.16937,-0.19037,0.23689
0.31968,0.70674,-0.63113,-0.06828,-0.18759,0.15236
0.30958,0.70722,-0.63561,-0.0111,-0.17879,0.15404
0.30528,0.71474,-0.62924,0.00116,-0.19908,0.13431
0.3061,0.72879,-0.6125,0.05136,-0.19731,0.07005
0.31205,0.74825,-0.58544,0.07575,-0.18377,0.04429
0.31913,0.77288,-0.54846,0.0506,-0.19152,0.081
0.32098,0.80144,-0.50464,-0.25282,-0.20682,-0.24067
0.30577,0.82799,-0.47005,-0.0734,0.88274,-0.39351
0.2926,0.85377,-0.43065,0.8584,1.50173,0.55625
0.31294,0.86772,-0.38616,0.17261,0.50816,-0.44677
0.32227,0.87584,-0.35923,-0.30576,-0.2615,0.25837
0.31622,0.88655,-0.33767,-0.42796,-0.33679,0.10151
0.29787,0.90195,-0.31265,-0.29783,-0.09932,0.20909
0.27174,0.91966,-0.28352,-0.17775,0.28821,0.11711
0.24479,0.93544,-0.25499,-0.1242,0.30979,0.11834
0.22531,0.94761,-0.22643,-0.09848,0.24841,0.19793
0.21404,0.95669,-0.19731,-0.12434,-0.00552,0.09732
0.20532,0.96408,-0.16852,-0.19,-0.0915,0.06813
0.19512,0.97044,-0.142,-0.23244,-0.22812,0.11722
0.18383,0.97623,-0.11477,-0.11436,-0.27669,0.11947
0.17149,0.9815,-0.08509,-0.0379,-0.23666,0.06539
0.15879,0.98577,-0.05508,0.12609,-0.15737,-0.02934
0.14598,0.98885,-0.02919,0.23697,-0.07829,-0.09616
0.13141,0.99127,-0.01019,0.19554,-0.11192,-0.13541
0.11761,0.99305,0.00454,0.06939,-0.14542,-0.1478
0.10438,0.99438,0.0176,0.03572,-0.04008,-0.04156
0.09129,0.99536,0.0302,0.11096,0.08749,-0.08638
0.07956,0.99598,0.04122,0.13424,0.22256,-0.10077
0.07053,0.99625,0.04999,0.14053,0.20174,-0.09128
0.06221,0.99644,0.05679,0.12631,0.11253,-0.00999
0.05158,0.99675,0.06192,0.11422,0.18416,-0.02162
0.03926,0.99701,0.06646,0.14246,0.17311,-0.02283
0.02719,0.99719,0.06975,0.16379,0.17798,-0.00873
0.01893,0.99715,0.07306,0.14152,0.27435,-0.05586
0.01583,0.99696,0.07627,0.04891,0.36255,0.08229
0.01713,0.9972,0.07274,-0.08598,0.43548,0.16515
0.02719,0.99792,0.05838,-0.34326,0.4254,-0.05554
0.04437,0.99801,0.04476,-0.47452,0.42951,-0.13361
0.06159,0.99751,0.03415,-0.38714,0.40695,-0.11362
0.07415,0.99711,0.01617,-0.21246,0.26593,-0.12825
0.08507,0.99628,-0.01391,-0.08928,0.23891,-0.20095
0.09844,0.99392,-0.04925,-0.00785,0.21894,-0.24887
0.11543,0.98958,-0.08601,0.29639,0.17094,-0.24237
0.13767,0.98232,-0.12682,0.38251,0.07688,-0.06771
0.1703,0.97078,-0.16908,0.34092,0.05039,0.09877
0.2131,0.95503,-0.20615,0.04787,0.01816,0.21193
0.25133,0.93832,-0.23744,-0.19654,-0.11601,0.13493
0.27435,0.92365,-0.26757,-0.33824,-0.16643,0.08636
0.28476,0.90907,-0.30415,-0.51976,-0.19084,-0.05507
0.28795,0.89225,-0.34779,-0.31191,-0.06509,0.14114
0.28351,0.87173,-0.39964,-0.15678,0.00045,0.27375
0.28241,0.849,-0.44658,-0.17293,0.06071,0.09993
0.28722,0.82272,-0.49055,-0.29441,-0.09289,0.24647
0.28563,0.79623,-0.53331,-0.29282,-0.0664,0.28923
0.28273,0.77355,-0.56717,-0.08852,-0.15856,0.22238
0.28021,0.75303,-0.59534,-0.09747,-0.18343,0.15422
0.2736,0.73467,-0.62081,-0.09086,-0.16507,0.17969
0.26218,0.72167,-0.64066,-0.11808,-0.27963,0.14206
0.24882,0.7168,-0.65137,-0.0749,-0.36791,0.10021
0.23763,0.72136,-0.65051,-0.02471,-0.38417,0.06307
0.23342,0.73577,-0.63573,-0.03058,-0.3688,-0.00428
0.23898,0.7575,-0.60752,0.03731,-0.36393,0.34947
0.25196,0.78592,-0.56466,-0.0126,-0.39283,0.40239
0.25843,0.81691,-0.51562,-0.27819,-0.1617,-0.6628
0.24665,0.84465,-0.47511,0.27578,1.36319,0.81637
0.24335,0.87279,-0.42311,0.35838,1.22737,0.10848
0.25733,0.88997,-0.37646,0.2281,0.6033,-0.25275
0.26366,0.90165,-0.34279,-0.14584,-0.39122,0.24437
0.25482,0.91562,-0.31096,-0.11615,-0.31713,0.22603
0.23646,0.93112,-0.27766,-0.04075,-0.00484,0.21276
0.21034,0.94649,-0.24477,-0.12472,0.34029,0.21031
0.18696,0.95936,-0.21133,0.00816,0.25934,0.21977
0.17107,0.96882,-0.1792,-0.04996,-0.0879,0.04703
0.15887,0.97611,-0.14818,-0.03776,-0.0952,0.01601
0.1451,0.98226,-0.11876,-0.09727,-0.24688,0.03653
0.12858,0.98751,-0.09106,-0.05428,-0.17087,0.04631
0.11035,0.99171,-0.06582,0.00925,-0.18501,0.0131
0.09305,0.99467,-0.04427,0.09682,-0.12279,-0.01945
0.0761,0.99677,-0.02554,0.18673,-0.02034,-0.03342
0.05957,0.99817,-0.01018,0.13572,-0.01628,-0.03361
0.04495,0.99898,0.00382,0.07011,-0.00054,-0.02998
0.03131,0.99939,0.01542,-0.01866,0.15656,-0.00483
0.01678,0.99954,0.02499,0.08346,0.18396,0.01161
0.0037,0.99942,0.03366,0.14035,0.2185,-0.00387
-0.00705,0.99909,0.0419,0.23558,0.22637,0.02236
-0.01692,0.99859,0.05018,0.18863,0.29714,-0.06739
-0.02547,0.99799,0.05802,0.1991,0.30049,-0.12693
-0.03249,0.99748,0.06311,0.19979,0.20135,-0.21565
-0.03694,0.99729,0.06362,0.09764,0.20697,-0.09975
-0.03675,0.99776,0.05586,0.03742,0.17979,0.02303
-0.02746,0.99904,0.0341,-0.24965,0.25589,0.0671
-0.00984,0.99995,0.00186,-0.45526,0.38166,-0.18067
0.00916,0.99942,-0.03276,-0.43451,0.58226,-0.29329
0.02349,0.99751,-0.06643,-0.18664,0.28836,-0.20893
0.03878,0.99357,-0.10636,0.0684,0.15749,-0.17416
0.06313,0.986,-0.15432,0.24096,0.15566,-0.17464
0.09626,0.97455,-0.20243,0.21086,0.21753,-0.08126
0.13541,0.95917,-0.2483,0.08753,0.19182,0.17253
0.17866,0.94057,-0.28879,-0.11067,0.05648,0.40508
0.21243,0.92384,-0.31842,-0.40361,-0.11402,0.24707
0.23008,0.90985,-0.34529,-0.56834,-0.26984,-0.14601
0.23034,0.89615,-0.37929,-0.44256,-0.17845,0.0508
0.22986,0.88153,-0.4124,-0.0013,-0.01009,0.09205
0.24215,0.8606,-0.44803,-0.02967,-0.10503,0.29945
0.24946,0.83833,-0.48474,-0.12449,-0.18803,0.39025
0.24788,0.8182,-0.51875,-0.10664,-0.24088,0.27898
0.24732,0.80036,-0.54613,-0.13857,-0.13126,0.15749
0.24591,0.78433,-0.56952,-0.11555,-0.12138,0.19285
0.24238,0.77239,-0.58708,-0.06374,-0.17936,0.27137
0.23908,0.76794,-0.59423,-0.06837,-0.36748,0.19926
0.23736,0.77201,-0.58963,-0.04136,-0.38176,0.13479
0.23947,0.78324,-0.57375,0.009,-0.30407,0.07517
0.24647,0.80072,-0.54598,-0.03872,-0.50554,0.40405
0.25462,0.82692,-0.50137,-0.13923,-0.60245,0.17157
0.25136,0.8512,-0.46072,0.13021,0.65003,0.94862
0.24322,0.87708,-0.41421,0.42667,1.03019,0.95303
0.24351,0.89631,-0.37058,0.23781,0.68125,-0.21425
0.23937,0.90615,-0.34871,-0.24188,-0.32576,0.33519
0.2269,0.9163,-0.33002,-0.23739,-0.37177,0.26473
0.20848,0.92902,-0.30571,-0.17376,0.11177,0.23309
0.18629,0.94258,-0.2772,-0.18182,0.25572,0.26917
0.16325,0.95518,-0.24693,-0.01677,0.19263,0.22259
0.1481,0.96508,-0.21606,0.02265,-0.01128,0.16872
0.13896,0.97269,-0.18591,-0.13327,-0.14649,0.07664
0.12973,0.97914,-0.15638,-0.14015,-0.15152,0.05343
0.11826,0.98484,-0.12686,-0.14562,-0.15611,0.04382
0.10328,0.98969,-0.09923,-0.01921,-0.02709,0.02835
0.08715,0.99332,-0.07565,0.13427,-0.02995,0.02589
0.07134,0.99589,-0.05571,0.18917,-0.02253,0.01607
0.05575,0.99769,-0.03876,0.0518,-0.00915,-0.02818
0.04128,0.9989,-0.02196,-0.03923,0.11273,0.02667
0.02837,0.99958,-0.00515,0.00655,0.14535,0.11109
0.01475,0.99985,0.00924,0.21362,0.29521,0.00134
0.00246,0.99974,0.02273,0.2248,0.38079,-0.03616
-0.00482,0.99947,0.03223,0.22157,0.38495,-0.03925
-0.0106,0.99922,0.03788,0.20901,0.24414,-0.1098
-0.0159,0.9991,0.03923,0.16198,0.12157,-0.19834
-0.01962,0.9992,0.03491,0.12166,0.10466,-0.22371
-0.01994,0.99958,0.02111,-0.03087,0.05076,0.01886
-0.01292,0.99989,-0.00657,-0.17133,0.44276,-0.12329
0.00187,0.99909,-0.04253,-0.18612,0.44357,-0.08732
0.02148,0.9964,-0.082,-0.33592,0.42389,-0.34903
0.04567,0.99165,-0.12057,-0.28017,0.35526,-0.28322
0.07707,0.98408,-0.16011,-0.0792,0.15834,-0.11746
0.115,0.97171,-0.20629,0.03255,0.08324,-0.14941
0.155,0.95447,-0.25487,0.16715,0.2383,0.01978
0.19604,0.93561,-0.29359,0.11687,0.16005,0.39197
0.22825,0.91838,-0.32325,-0.36231,-0.07316,0.45563
0.24422,0.90155,-0.35716,-0.73993,-0.15653,-0.02503
0.24727,0.8838,-0.39717,-0.72094,-0.10884,0.07284
0.24992,0.86446,-0.43616,-0.31494,-0.00204,0.14908
0.26986,0.84041,-0.46998,-0.14679,-0.08849,0.23001
0.2947,0.81334,-0.50163,-0.23022,-0.17212,0.36404
0.3092,0.78803,-0.53235,-0.09846,-0.23258,0.28926
0.32015,0.76472,-0.5592,-0.04655,-0.20498,0.14848
0.32554,0.74258,-0.58532,-0.04551,-0.17219,0.17889
0.32138,0.72535,-0.60875,-0.01737,-0.18276,0.22241
0.31153,0.7152,-0.62565,-0.10022,-0.33865,0.15585
0.29871,0.71391,-0.63333,-0.05541,-0.36189,0.13117
0.28831,0.72221,-0.62872,-0.04493,-0.36663,0.10502
0.2867,0.74003,-0.60841,-0.04839,-0.37713,0.13116
0.29646,0.76602,-0.57037,-0.04106,-0.46772,0.50023
0.30972,0.79959,-0.51451,-0.28868,0.5281,-0.68654
0.30602,0.83166,-0.46335,-0.05856,1.45438,-0.14769
0.29004,0.85864,-0.42263,0.47964,2.15279,0.24162
0.29499,0.87348,-0.38731,0.00173,0.28026,-0.2932
0.29596,0.88046,-0.3704,-0.33046,-0.6927,0.15909
0.28638,0.8923,-0.34898,-0.33515,-0.69372,0.07596
0.26565,0.90699,-0.32681,-0.33614,-0.07219,0.31221
0.2368,0.9241,-0.29994,-0.22029,0.33077,0.24031
0.20913,0.94041,-0.26813,-0.03763,0.47899,0.17451
0.19225,0.95231,-0.23693,0.16058,0.22743,0.21527
0.18629,0.961,-0.20439,0.01175,-0.05768,0.09022
0.18167,0.96832,-0.17134,-0.04971,-0.14001,0.07261
0.1744,0.97457,-0.14071,-0.14113,-0.28933,0.10615
0.1645,0.98003,-0.11171,-0.11926,-0.30329,0.10608
0.15215,0.98479,-0.08386,-0.07294,-0.2987,0.05107
0.13786,0.98879,-0.05735,0.06443,-0.18616,-0.06396
0.12235,0.9919,-0.03408,0.16402,-0.00122,-0.0917
0.10553,0.9943,-0.01516,0.16022,0.05267,-0.13248
0.08997,0.99594,0.00017,0.11688,0.03651,-0.05907
0.07715,0.99692,0.01386,0.10236,0.03974,-0.02668
0.06538,0.99752,0.02609,0.12406,0.1032,-0.02577
0.05292,0.99788,0.03782,0.14215,0.19485,0.01281
0.0406,0.99795,0.04941,0.10778,0.20665,0.05382
0.02979,0.99776,0.05993,0.08221,0.27428,0.01464
0.01946,0.99747,0.06831,0.14354,0.40366,-0.05297
0.01028,0.99721,0.07394,0.19512,0.40089,-0.1299
0.0045,0.99715,0.0753,0.17358,0.33931,-0.1988
0.00161,0.99751,0.07052,0.13719,0.25588,0.00559
0.00544,0.99858,0.05294,-0.10161,0.24127,0.09709
0.01891,0.99955,0.02339,-0.23307,0.28477,0.0103
0.03909,0.99918,-0.01047,-0.41292,0.39398,-0.26235
0.05791,0.99735,-0.04396,-0.16184,0.35499,-0.38408
0.07393,0.99412,-0.07913,0.01355,0.24937,-0.32116
0.09556,0.98773,-0.12352,0.28642,0.11061,-0.16403
0.12937,0.97639,-0.17299,0.30709,0.16362,0.02695
0.17178,0.9606,-0.21847,0.18289,0.20186,0.12408
0.21678,0.94142,-0.25832,-0.12386,0.15912,0.27208
0.24656,0.92252,-0.29692,-0.67452,-0.07996,0.12947
0.25575,0.9061,-0.33702,-0.58839,-0.04687,0.1268
0.25755,0.89092,-0.37407,-0.32878,0.01379,0.08363
0.26962,0.87074,-0.41124,-0.12595,-0.03457,0.05274
0.28761,0.84386,-0.45298,-0.2066,-0.11009,0.27112
0.29939,0.8148,-0.49645,-0.14943,-0.23225,0.32491
0.30591,0.7869,-0.53592,-0.13248,-0.22243,0.27091
0.30816,0.75996,-0.57227,-0.1661,-0.25789,0.2035
0.30574,0.7347,-0.6056,-0.11273,-0.26523,0.2585
0.29757,0.71348,-0.63435,-0.03293,-0.30025,0.2583
0.28487,0.70026,-0.65459,-0.01778,-0.35782,0.13049
0.2741,0.69757,-0.66202,-0.07197,-0.38542,0.0491
0.27019,0.70627,-0.65436,-0.04924,-0.4285,0.08989
0.27441,0.72558,-0.63106,0.00225,-0.43041,0.18156
0.28816,0.75348,-0.59096,0.07404,-0.4518,0.571
0.3038,0.78941,-0.53343,0.00249,-0.48712,0.28904
0.30573,0.82683,-0.47211,-0.2392,-0.28453,-0.83401
0.28007,0.85931,-0.42796,0.16035,2.17389,0.56189
0.26922,0.88411,-0.38192,0.50629,1.10414,-0.3181
0.2784,0.89336,-0.35269,0.09872,0.23919,0.03476
0.2761,0.90412,-0.32608,-0.19321,-0.67593,0.10661
0.25579,0.91901,-0.29998,-0.28774,-0.17771,0.2665
0.22885,0.93523,-0.27013,-0.25332,0.05134,0.30628
0.2011,0.95056,-0.23662,0.06002,0.46027,0.22063
0.18343,0.96144,-0.20492,0.12767,0.16944,0.16427
0.17659,0.96876,-0.1741,0.0698,0.01828,0.07436
0.17177,0.97437,-0.14522,-0.0867,-0.18453,-0.04356
0.16235,0.97936,-0.12036,-0.09362,-0.24384,0.04918
0.14924,0.98423,-0.09495,-0.04466,-0.23312,0.07007
0.1339,0.98853,-0.06979,0.09221,-0.09968,0.04018
0.11614,0.99202,-0.04913,0.01881,-0.04762,-0.07557
0.0986,0.99461,-0.03212,-0.01916,-0.02468,-0.09921
0.08195,0.99651,-0.01611,-0.07342,0.0511,-0.03669
0.06605,0.99782,-0.00091,0.00159,0.14159,0.0326
0.05196,0.99856,0.01291,0.10275,0.18837,0.0356
0.04037,0.99885,0.02584,0.17277,0.22056,0.01545
0.03069,0.99886,0.03649,0.23897,0.22207,-0.02091
0.02169,0.99881,0.04374,0.24049,0.24577,-0.0855
0.01457,0.99877,0.04749,0.12731,0.14361,-0.1655
0.01022,0.99884,0.04697,0.05004,0.08313,-0.17424
0.00888,0.99924,0.03786,-0.10344,0.08918,-0.03359
0.01591,0.99972,0.01737,-0.23271,0.33895,-0.04746
0.03171,0.99943,-0.01126,-0.3084,0.55032,-0.29533
0.05001,0.99775,-0.04477,-0.32717,0.56329,-0.35729
0.06871,0.99455,-0.07846,-0.11819,0.49653,-0.33713
0.093,0.98825,-0.12126,0.13118,0.27609,-0.08085
0.12983,0.97634,-0.17296,0.05378,0.24135,-0.02418
0.17347,0.95927,-0.22293,-0.12019,0.24472,0.0011
0.21307,0.93893,-0.2702,-0.21198,0.06471,0.18517
0.24326,0.9186,-0.31145,-0.35985,-0.04381,0.14975
0.25811,0.89977,-0.35185,-0.59664,-0.19713,-0.05156
0.2549,0.88114,-0.39828,-0.34633,-0.16962,0.23433
0.25268,0.86082,-0.44175,-0.13586,-0.06924,0.19847
0.26318,0.83404,-0.48488,-0.06592,-0.07711,0.20557
0.27296,0.80448,-0.52755,-0.14915,-0.24974,0.3953
0.27692,0.77837,-0.56343,-0.08966,-0.25658,0.37934
0.27816,0.75359,-0.5956,-0.07601,-0.25534,0.27205
0.27319,0.73007,-0.62639,-0.07332,-0.2278,0.27007
0.26383,0.7118,-0.65095,-0.10544,-0.27236,0.27668
0.25383,0.70197,-0.66544,-0.22659,-0.37304,0.14
0.24393,0.7018,-0.66931,-0.21669,-0.37287,0.14388
0.23694,0.71115,-0.66191,-0.08805,-0.36366,0.04474
0.23714,0.72997,-0.64102,-0.05006,-0.36299,0.0457
0.24714,0.75711,-0.60474,0.00162,-0.34107,0.28559
0.26495,0.78787,-0.55594,-0.27439,-0.14123,-0.84866
0.26789,0.81486,-0.51404,0.63076,1.19401,0.86223
0.2647,0.84551,-0.46374,0.81127,0.96751,0.2658
0.28022,0.86563,-0.41493,0.54902,0.94355,-0.50158
0.28613,0.87719,-0.38557,-0.24518,-0.31208,0.35565
0.27793,0.8905,-0.36024,-0.30755,-0.34307,0.30624
0.26655,0.90591,-0.32906,-0.30354,-0.10006,0.26462
0.25214,0.92261,-0.29191,-0.28667,0.19448,0.25112
0.2319,0.93866,-0.25524,-0.05934,0.44478,0.17699
0.21511,0.95127,-0.22092,0.16361,0.34034,0.2097
0.20531,0.9605,-0.18787,0.0308,0.07278,0.0446
0.1987,0.96775,-0.15487,-0.07424,-0.10799,0.04743
0.19051,0.97353,-0.12626,-0.05935,-0.22582,0.06652
0.17936,0.97902,-0.09673,-0.00834,-0.22017,0.05954
0.1654,0.98389,-0.06785,0.105,-0.14109,-0.0144
0.1509,0.98761,-0.04299,0.11256,-0.06525,-0.10483
0.13678,0.99036,-0.02173,-0.01634,-0.07541,-0.07304
0.12307,0.99239,-0.00395,-0.11121,-0.03844,-0.04915
0.10945,0.9939,0.01377,-0.18077,0.05794,-0.06584
0.09542,0.99494,0.03149,-0.11028,0.10754,0.00961
0.08152,0.99559,0.04645,0.05122,0.07131,0.02885
0.06873,0.99587,0.05924,0.19668,0.15307,-0.01087
0.0572,0.99591,0.06991,0.13934,0.29803,-0.03688
0.04569,0.99595,0.07736,0.25506,0.26888,-0.07762
0.03038,0.99607,0.08321,0.37926,0.29695,-0.12994
0.01451,0.99615,0.08645,0.54221,0.2569,-0.24751
0.00283,0.99628,0.08614,0.3065,0.1705,-0.24059
-0.00276,0.99671,0.08103,0.21556,0.15271,-0.12307
-0.00097,0.99782,0.06602,-0.11233,0.25594,0.01371
0.00787,0.99908,0.04213,-0.41786,0.25077,-0.15876
0.02156,0.99965,0.01533,-0.46441,0.21135,-0.27894
0.03619,0.99928,-0.01127,-0.24662,0.14112,-0.42689
0.05327,0.99764,-0.04335,0.09061,0.09593,-0.26221
0.07727,0.99323,-0.08675,0.11423,0.06555,-0.13624
0.10892,0.98469,-0.13607,0.04405,0.01228,0.02323
0.14544,0.9731,-0.17866,-0.12486,0.18374,0.19243
0.1859,0.96045,-0.2073,-0.18405,0.19442,0.21107
0.22079,0.94932,-0.22369,-0.49883,-0.14458,-0.02529
0.23994,0.93976,-0.24347,-0.5914,-0.22542,-0.00035
0.24449,0.93141,-0.26961,-0.49854,-0.25501,0.22272
0.24855,0.92206,-0.2967,-0.16678,-0.08369,0.06997
0.25887,0.90856,-0.32789,-0.31799,-0.11292,0.12252
0.26551,0.89422,-0.36039,-0.36454,-0.12556,0.21616
0.27071,0.88073,-0.38863,-0.18775,-0.18531,0.28107
0.27737,0.86873,-0.41034,-0.2752,-0.18816,0.18481
0.28423,0.85819,-0.42746,-0.28073,-0.18088,0.18515
0.28926,0.84974,-0.44076,-0.25373,-0.14769,0.23821
0.29395,0.8437,-0.44917,-0.20157,-0.24707,0.26358
0.29598,0.84105,-0.45281,-0.23292,-0.24718,0.25693
0.29583,0.84248,-0.45025,-0.27248,-0.31751,0.23537
0.29397,0.84857,-0.4399,-0.22554,-0.37386,0.1897
0.29084,0.85922,-0.4209,-0.16573,-0.3497,0.0993
0.28754,0.87363,-0.39255,-0.06911,-0.33147,0.01932
0.28308,0.8904,-0.35646,-0.02853,-0.25499,-0.09313
0.2751,0.90854,-0.31444,0.02814,-0.10544,-0.23731
0.26405,0.92608,-0.26954,0.19278,0.09502,-0.46201
0.24941,0.94039,-0.23122,0.34263,0.37596,-0.66427
0.23366,0.9489,-0.2121,0.7158,0.57586,-0.48165
0.23277,0.95008,-0.20775,0.38851,0.08275,-0.20378
0.24385,0.94847,-0.20234,0.05457,-0.06076,-0.12713
0.25883,0.94737,-0.1884,-0.15194,-0.09702,-0.15193
0.27113,0.94872,-0.16253,-0.46831,0.33683,-0.11508
0.28049,0.95224,-0.12071,-0.85628,1.17147,-0.04626
0.29031,0.95268,-0.09013,-0.63014,0.62093,-0.24035
0.29418,0.95236,-0.08048,-0.24571,-0.16389,0.39406
0.29108,0.95537,-0.05049,-0.38089,-0.36142,0.55934
0.28603,0.95819,-0.00817,-0.53589,-0.39997,0.4171
0.27199,0.96197,0.02514,-0.73191,-0.28407,0.08919
0.25025,0.96751,0.03598,-0.52055,0.18031,0.10025
0.23107,0.97188,0.0453,-0.40697,0.3618,0.17704
0.21935,0.97318,0.06939,-0.07498,0.25384,0.25537
0.2148,0.97158,0.09943,0.19817,-0.11543,0.13782
0.21294,0.96869,0.12763,0.2288,-0.1147,0.10906
0.21277,0.96547,0.1503,0.16449,-0.04457,-0.04358
0.21011,0.96323,0.16743,-0.03194,0.02607,-0.16557
0.2023,0.96219,0.18241,-0.05862,0.02793,-0.13315
0.19154,0.96177,0.19573,-0.00206,0.04331,-0.02939
0.18123,0.96135,0.20727,0.1339,0.07487,0.0324
0.17273,0.96069,0.21736,0.15459,0.02067,-0.00063
0.1651,0.95933,0.22899,0.11377,-0.03487,-0.05687
0.15539,0.95778,0.24187,0.04034,-0.00135,-0.19192
0.14268,0.95666,0.25384,0.07671,0.0005,-0.25093
0.12898,0.95613,0.26301,0.21515,-0.03722,-0.17266
0.11641,0.95596,0.26942,0.25222,-0.07236,-0.1206
0.10558,0.95544,0.27567,0.26681,-0.06928,-0.08137
0.09683,0.9544,0.28238,0.18094,0.1076,-0.0302
0.08925,0.9533,0.28854,0.09413,0.12679,-0.13752
0.08205,0.95224,0.29411,-0.05632,0.25253,-0.34251
0.07473,0.95309,0.2933,0.05528,0.18822,-0.44069
0.06884,0.95615,0.28466,0.24366,0.12397,-0.32973
0.06719,0.96057,0.26978,0.28904,0.11545,-0.26653
0.07238,0.96609,0.24785,0.04171,0.40385,-0.25652
0.08916,0.97196,0.2176,-0.10253,0.27232,-0.33802
0.11934,0.97631,0.18046,-0.34142,0.03568,-0.38126
0.15936,0.97822,0.13301,-0.51205,0.20586,-0.34862
0.1974,0.97759,0.07314,-0.61339,0.71661,-0.2123
0.22137,0.97519,0.00267,-0.5568,0.74555,0.03192
0.23009,0.97138,-0.05894,-0.23842,0.3643,0.29823
0.23771,0.96539,-0.10733,0.13738,0.07175,0.17487
0.24858,0.95734,-0.14735,0.201,-0.00603,-0.03766
0.26449,0.94758,-0.17928,0.05224,0.0605,-0.12878
0.28606,0.93547,-0.20749,-0.16103,0.13665,-0.07359
0.30936,0.92168,-0.2341,-0.35834,-0.08632,0.02298
0.3265,0.90932,-0.25795,-0.37182,-0.22848,0.14872
0.33688,0.89975,-0.2774,-0.2966,-0.32036,0.16803
0.34469,0.8926,-0.29058,-0.19594,-0.32483,0.17666
0.35261,0.88787,-0.29556,-0.21593,-0.2861,0.15758
0.35891,0.88604,-0.29344,-0.2774,-0.27987,0.12526
0.36145,0.8874,-0.28612,-0.30257,-0.30664,0.07444
0.35913,0.89259,-0.27259,-0.22326,-0.40291,0.02517
0.35179,0.90194,-0.25049,-0.06938,-0.43553,-0.09854
0.33766,0.91507,-0.22054,-0.04028,-0.38435,-0.23727
0.31778,0.92972,-0.18608,0.01074,-0.23914,-0.2328
0.29463,0.9429,-0.15535,0.24252,0.14016,-0.26575
0.27692,0.9515,-0.134,0.40522,0.22814,-0.245
0.27311,0.95469,-0.11822,0.59623,0.11794,-0.32619
0.28226,0.9541,-0.10013,0.39116,0.69852,0.03584
0.29714,0.95203,-0.07309,0.18406,0.68401,0.27864
0.3125,0.94873,-0.04745,-0.45309,0.39108,-0.14246
0.32114,0.94644,-0.03341,-0.80166,0.04736,-0.16093
0.31466,0.94886,-0.02541,-0.65279,0.06438,0.00232
0.29412,0.95567,-0.0136,-0.28686,0.05862,0.26088
0.26663,0.9638,0.00032,-0.11701,0.17591,0.19445
0.24633,0.96907,0.01506,-0.04094,0.16551,0.11432
0.2334,0.97179,0.03402,0.04544,0.08753,0.01281
0.22326,0.97319,0.05534,-0.05768,-0.00096,0.03647
0.20984,0.9748,0.07575,-0.16169,-0.01613,0.04644
0.19375,0.97648,0.09461,-0.12119,-0.01812,0.06532
0.17688,0.97795,0.11098,-0.03258,0.01292,0.03921
0.15963,0.97912,0.12588,0.08413,0.01327,-0.0336
0.14343,0.97977,0.13959,0.13389,-0.01086,-0.06292
0.12809,0.98012,0.15151,0.17943,0.01312,-0.00127
0.11387,0.98015,0.16228,0.18179,0.05133,-0.02121
0.10105,0.98007,0.17103,0.17605,0.14974,-0.06517
0.09017,0.98004,0.17719,0.15493,0.21927,-0.17609
0.07979,0.98014,0.18155,0.17836,0.24363,-0.20226
0.06833,0.98034,0.18512,0.39437,0.27368,-0.29341
0.05584,0.98061,0.18783,0.4163,0.28364,-0.31323
0.04299,0.98111,0.18863,0.41778,0.29328,-0.31738
0.03071,0.98174,0.18774,0.24918,0.26533,-0.23068
0.02042,0.98302,0.18236,0.226,0.24394,-0.1097
0.01442,0.98557,0.16864,0.00583,0.19126,-0.00521
0.01962,0.98875,0.14829,-0.386,0.17379,-0.09132
0.03493,0.9918,0.12292,-0.43907,0.30536,-0.11425
0.05572,0.99419,0.09211,-0.49043,0.45416,-0.11759
0.07646,0.99553,0.05545,-0.46126,0.43973,-0.13115
0.097,0.99516,0.01558,-0.16767,0.20201,-0.29907
0.12478,0.9918,-0.02766,0.19232,0.1547,-0.39945
0.16115,0.9844,-0.07061,0.34386,0.24582,-0.12684
0.20031,0.97398,-0.10599,0.1784,0.19055,0.18774
0.23764,0.96172,-0.13643,-0.13841,0.0341,0.15421
0.26557,0.94871,-0.17155,-0.44245,-0.09862,-0.07331
0.28692,0.93461,-0.21021,-0.46236,-0.092,-0.28317
0.30162,0.91867,-0.2551,-0.51428,-0.078,0.06276
0.31014,0.9018,-0.30095,-0.13408,-0.0879,0.27794
0.3235,0.88251,-0.34136,0.20535,-0.00433,0.11313
0.34184,0.85904,-0.38103,0.01971,-0.0887,0.07026
0.35211,0.83398,-0.42484,-0.15647,-0.22677,0.1316
0.35271,0.81034,-0.46791,-0.20678,-0.35452,0.16998
0.34424,0.7908,-0.5061,-0.24092,-0.39628,0.20032
0.32918,0.7769,-0.53672,-0.14026,-0.36215,0.25261
0.31003,0.76883,-0.55927,-0.09132,-0.34784,0.22273
0.29263,0.76769,-0.57011,0.00515,-0.39437,0.11158
0.28178,0.77417,-0.5668,-0.00808,-0.38617,0.00254
0.27729,0.78688,-0.55129,-0.0394,-0.51954,0.14832
0.27739,0.80653,-0.52207,-0.02916,-0.59044,0.23054
0.28329,0.83356,-0.47426,-0.04522,-0.64849,0.32361
0.2828,0.85946,-0.42586,0.13948,1.13668,-0.63947
0.27012,0.88256,-0.38486,0.50861,1.70817,0.06061
0.27359,0.89786,-0.34495,0.71423,1.08429,-0.08394
0.27493,0.90541,-0.32349,-0.20988,-0.44632,0.3162
0.26342,0.91597,-0.30267,-0.21614,-0.5446,0.24787
0.24292,0.92895,-0.27936,-0.27188,-0.29036,0.06911
0.21722,0.94358,-0.24995,-0.28791,0.21307,0.20718
0.18806,0.95746,-0.21886,-0.08914,0.31521,0.12943
0.16392,0.96819,-0.18906,0.17933,0.40776,0.14757
0.14874,0.97616,-0.15806,0.06352,0.06134,0.11968
0.13867,0.98214,-0.12714,-0.01965,-0.07591,0.05493
0.12702,0.98707,-0.09773,-0.14916,-0.23012,0.06009
0.11446,0.99091,-0.07067,-0.10447,-0.30604,0.03588
0.1019,0.99386,-0.04315,-0.05274,-0.29678,0.01019
0.08821,0.99599,-0.01487,0.02414,-0.22199,-0.09928
0.07324,0.99726,0.01073,0.24011,-0.04665,-0.13595
0.05712,0.99786,0.03189,0.33166,0.02265,-0.15666
0.0409,0.99799,0.04835,0.35507,0.01627,-0.16029
0.02749,0.99771,0.06173,0.10895,0.01697,-0.09824
0.01443,0.99713,0.07426,0.05515,0.06004,-0.07903
-0.00056,0.99628,0.08622,0.12049,0.15642,-0.0706
-0.01434,0.99523,0.0965,0.17799,0.21162,-0.0797
-0.02567,0.99403,0.10605,0.18786,0.2499,-0.08734
-0.036,0.99283,0.114,0.26839,0.35419,-0.12802
-0.04531,0.99179,0.11959,0.29498,0.32627,-0.21957
-0.05245,0.99114,0.12203,0.31426,0.29405,-0.23978
-0.05603,0.99124,0.11956,0.20346,0.25567,-0.2002
-0.05331,0.99267,0.10848,0.17823,0.26582,-0.0713
-0.04128,0.99572,0.08262,0.04806,0.24918,0.07222
-0.02022,0.99868,0.04729,-0.29624,0.29679,-0.21275
0.00201,0.99993,0.0115,-0.41478,0.43398,-0.32244
0.01785,0.99956,-0.02366,-0.3749,0.4848,-0.37715
0.03246,0.99727,-0.06638,0.23231,0.04462,-0.15307
0.05531,0.99172,-0.1159,0.24996,0.00799,-0.10926
0.08512,0.98271,-0.1644,0.23191,0.0272,-0.08072
0.11766,0.97022,-0.21175,0.21057,0.10153,0.05925
0.15237,0.95585,-0.25128,0.02198,0.09498,0.31796
0.18255,0.943,-0.27824,-0.21601,-0.08486,0.40041
0.20482,0.93194,-0.29923,-0.30671,-0.17263,0.17447
0.22263,0.92005,-0.32242,-0.34113,-0.16533,-0.0834
0.23726,0.90532,-0.35227,-0.28244,-0.1486,-0.0702
0.25264,0.8869,-0.38676,-0.08351,-0.11857,0.13766
0.26956,0.86608,-0.42099,-0.04137,-0.15554,0.2867
0.28424,0.84453,-0.45385,-0.18138,-0.1555,0.15578
0.29167,0.82411,-0.48557,-0.23098,-0.19407,0.14379
0.29587,0.80631,-0.51217,-0.17362,-0.21439,0.15399
0.29786,0.7913,-0.53397,-0.09806,-0.21741,0.16128
0.29542,0.78036,-0.55115,-0.08026,-0.25225,0.11328
0.28686,0.77554,-0.56236,-0.00214,-0.29631,0.15962
0.27713,0.77794,-0.56392,0.00885,-0.3257,0.08452
0.26889,0.78865,-0.55292,0.07147,-0.38411,0.02099
0.26579,0.80677,-0.52772,0.07868,-0.36596,0.081
0.27058,0.83019,-0.48742,0.08121,-0.3828,0.28895
0.27387,0.85821,-0.43412,-0.20777,-0.49963,-0.32054
0.25103,0.8872,-0.38712,-0.16584,1.13921,0.90839
0.22796,0.91565,-0.33108,0.03896,1.44977,-0.0217
0.22639,0.92827,-0.29505,0.66662,1.53007,-0.42965
0.22784,0.93455,-0.27333,-0.0739,-0.56301,0.08382
0.21506,0.94305,-0.25377,-0.11423,-0.57686,0.06686
0.19226,0.95377,-0.23098,-0.22687,-0.23403,0.10241
0.1635,0.96539,-0.20318,-0.22733,0.08203,0.24282
0.13774,0.97575,-0.17009,-0.06038,0.13237,0.15476
0.1225,0.98277,-0.1384,0.1733,0.14382,0.11209
0.11592,0.98751,-0.10671,0.01613,-0.1106,0.07014
0.11069,0.99097,-0.07566,-0.01369,-0.15253,0.01699
0.10144,0.99368,-0.04805,-0.00712,-0.20511,-0.0159
0.0885,0.9958,-0.02328,0.04664,-0.20627,-0.01757
0.07421,0.99724,-0.00123,0.23011,-0.17159,-0.07595
0.05902,0.99811,0.01702,0.21396,-0.06469,-0.13078
0.04376,0.9986,0.02981,0.19194,-0.01193,-0.18565
0.02954,0.99873,0.04069,0.18312,-0.01466,-0.1654
0.01608,0.99848,0.05261,0.18579,0.13172,-0.09891
0.00393,0.99785,0.06533,0.20518,0.14864,-0.01256
-0.00617,0.99696,0.07765,0.24835,0.16219,0.00415
-0.01549,0.99585,0.08968,0.30352,0.36791,-0.07761
-0.02278,0.99475,0.09971,0.35106,0.39914,-0.14256
