gravity.x,gravity.y,gravity.z,userAcceleration.x,userAcceleration.y,userAcceleration.z
0.12541,0.9877,-0.09343,0.15515,0.48559,-0.04611
0.05104,0.99645,-0.06691,-0.51692,0.51313,0.38792
-0.02842,0.99906,-0.03266,-0.53695,0.32198,0.1602
-0.08224,0.9966,0.00552,-0.10637,0.29787,-0.07733
-0.12128,0.99163,0.04434,0.2496,-0.17701,-0.20254
-0.15668,0.98448,0.07908,0.30935,-0.34167,-0.17046
-0.18731,0.97665,0.10516,0.27747,-0.55927,-0.14934
-0.21433,0.96867,0.12545,0.27199,-0.63568,-0.22201
-0.23355,0.9619,0.14217,0.26852,-0.7509,-0.34291
-0.24483,0.95733,0.15355,0.27115,-0.88633,-0.39649
-0.24716,0.95573,0.15967,0.27852,-0.89486,-0.41686
-0.24016,0.95774,0.15828,0.38123,-0.86354,-0.37668
-0.2232,0.96381,0.14576,0.54746,-0.71717,-0.23873
-0.19667,0.97314,0.1197,0.49988,-0.50938,-0.06051
-0.16402,0.98309,0.08146,0.39181,-0.3721,0.07796
-0.13476,0.98916,0.05824,0.12901,0.98744,1.25888
-0.13537,0.98411,0.11493,-0.45112,2.44502,1.854
-0.16686,0.97335,0.1573,-0.80786,1.64164,1.42009
-0.19238,0.96913,0.15422,0.17058,-0.41302,0.57123
-0.21709,0.96716,0.13215,0.5683,-0.25406,0.53864
-0.21697,0.96975,0.11184,0.5215,0.13013,-0.13819
-0.1913,0.97707,0.09346,0.17594,0.63189,-1.53406
-0.17623,0.98065,0.08523,0.32226,0.3302,-0.73173
-0.17555,0.97915,0.10222,0.32667,-0.21057,0.5118
-0.15936,0.98173,0.10394,0.33264,-0.62088,-0.85099
-0.12814,0.98974,0.06315,0.0106,-0.36065,-1.0122
-0.09554,0.99535,0.01262,-0.17542,0.24135,-0.22167
-0.06756,0.99734,-0.02751,0.01362,0.64057,0.19014
-0.03408,0.99842,-0.04473,0.01507,0.39466,0.1533
-0.00675,0.99827,-0.05836,0.01456,0.23906,0.1558
0.01634,0.99753,-0.06832,0.13704,-0.09291,0.39253
0.03825,0.99547,-0.08698,0.09924,-0.29858,0.48741
0.05783,0.99145,-0.11693,0.09061,-0.3994,0.53729
0.07621,0.98563,-0.15074,0.1557,-0.59642,0.36421
0.09646,0.97835,-0.18312,0.13869,-0.41542,0.09751
0.12259,0.97036,-0.20826,0.11607,-0.22971,-0.05085
0.14969,0.96292,-0.22447,0.19242,0.24901,-0.01533
0.17486,0.95491,-0.23994,0.11821,0.35442,0.20158
0.19733,0.94536,-0.25954,-0.06452,0.41847,0.2402
0.22129,0.9335,-0.28215,-0.66007,0.19113,0.41858
0.2464,0.92126,-0.30094,-0.84056,0.15482,0.54554
0.2597,0.91429,-0.31087,-0.66872,0.40964,0.62983
0.2544,0.9151,-0.31285,-0.62894,0.76386,0.69693
0.24205,0.92157,-0.3035,-0.87945,0.55354,0.86721
0.2272,0.9353,-0.27128,-0.87547,0.48198,0.73048
0.21173,0.95299,-0.21674,-0.6022,0.42562,0.67304
0.19204,0.97019,-0.14779,-0.27563,0.45482,0.06662
0.15264,0.98302,-0.10183,-0.01557,0.57952,-1.2625
0.10203,0.99255,-0.0666,0.03336,0.7815,-0.95386
0.04268,0.99885,-0.02175,-0.37042,0.86725,-0.53805
-0.03242,0.99902,0.03,-0.43824,0.70204,-0.16608
-0.104,0.99194,0.07234,-0.23459,0.63603,-0.32921
-0.17116,0.97852,0.11489,0.18835,0.66433,-0.53344
-0.2301,0.96016,0.15859,0.55099,0.58629,-0.49412
-0.27565,0.93913,0.20505,0.53654,0.21324,-0.47144
-0.30727,0.91511,0.26108,0.29425,-0.0269,-0.52704
-0.33033,0.89098,0.31149,0.45599,-0.275,-0.44098
-0.34742,0.86964,0.35075,0.65626,-0.43994,-0.50247
-0.3567,0.85169,0.3839,0.75975,-0.64411,-0.59091
-0.35559,0.83708,0.41575,0.76857,-0.67575,-0.6194
-0.34475,0.82609,0.44578,0.7456,-0.67477,-0.6446
-0.33098,0.82075,0.46564,0.74054,-0.58391,-0.52717
-0.31997,0.82428,0.4671,0.77659,-0.54243,-0.33326
-0.31601,0.83863,0.44367,0.54752,-0.38245,-0.27506
-0.32045,0.86271,0.39121,0.3824,-0.27858,-0.19431
-0.31547,0.89097,0.32657,0.29972,0.42298,0.72257
-0.30416,0.89198,0.33446,-0.73826,2.39046,1.96411
-0.32386,0.88388,0.33744,-0.97991,1.23852,0.67765
-0.35348,0.88284,0.30927,-0.95161,0.42527,0.43789
-0.379,0.8856,0.26847,-0.37315,-0.46982,-1.92583
-0.3807,0.89678,0.22551,0.4506,0.61976,-2.06913
-0.36509,0.90744,0.20802,0.65653,1.26198,-1.66526
-0.34494,0.90093,0.26332,1.26812,0.06637,0.40689
-0.30905,0.90494,0.29252,1.51231,-0.89418,-0.05203
-0.29168,0.92266,0.25224,1.21769,-1.05019,-0.34862
-0.26179,0.94749,0.18366,1.25949,-0.45184,-0.30592
-0.22673,0.96767,0.11049,1.11734,-0.0728,-0.49191
-0.19918,0.97863,0.05104,0.766,0.08507,-0.6246
-0.17846,0.98393,-0.00618,-0.53977,0.47142,0.07519
-0.15497,0.98635,-0.05567,-1.03974,0.296,-0.17652
-0.12624,0.98862,-0.08176,-0.6876,0.00141,-0.29429
-0.10081,0.98921,-0.10631,-0.06301,-0.52476,-0.3995
-0.08326,0.98764,-0.1328,0.28902,-0.52354,-0.17787
-0.07161,0.9845,-0.16012,0.33512,-0.36365,0.10345
-0.06237,0.97973,-0.19037,0.47143,0.35081,0.16742
-0.05956,0.97196,-0.22748,0.28095,0.44958,0.3152
-0.04797,0.9645,-0.25969,-0.08875,0.10972,0.61856
-0.02116,0.95929,-0.28162,-0.06286,0.27653,0.96874
0.00657,0.95602,-0.29323,0.06035,0.21381,0.74092
0.03148,0.95608,-0.29142,-0.23403,0.38307,0.56349
0.05225,0.95893,-0.2788,-0.4829,0.56756,0.37717
0.06273,0.96374,-0.25938,-0.73483,0.46833,0.56693
0.05432,0.97286,-0.22491,-0.94176,0.39516,0.48556
0.03045,0.98391,-0.17605,-0.77653,0.15493,0.44404
-0.00416,0.99458,-0.10385,-0.20094,0.25874,0.06676
-0.05407,0.99764,-0.04236,0.25708,0.99426,-0.89941
-0.11628,0.99321,0.0038,0.78413,1.30744,-0.75652
-0.17894,0.98208,0.05908,0.72447,1.28734,-0.56465
-0.2461,0.96075,0.12806,0.18846,1.02361,-0.05559
-0.3076,0.93249,0.18934,0.47114,0.64791,-0.17284
-0.36013,0.90295,0.23447,0.87696,0.43649,-0.25083
-0.39897,0.87571,0.27194,0.95877,0.21001,-0.25757
-0.42477,0.85105,0.30867,0.72971,-0.16722,-0.53911
-0.44367,0.82689,0.34556,0.37284,-0.53682,-0.53557
-0.46074,0.80527,0.37319,0.42742,-0.62251,-0.52177
-0.4721,0.78881,0.39357,0.53686,-0.77307,-0.56442
-0.47464,0.7777,0.41219,0.59079,-0.92561,-0.62009
-0.46605,0.77216,0.43193,0.5569,-0.99169,-0.71897
-0.4469,0.77338,0.44962,0.75997,-0.9027,-0.73551
-0.42545,0.78419,0.45171,0.85611,-0.68655,-0.53392
-0.39941,0.80671,0.43554,0.76962,-0.5644,-0.3962
-0.36805,0.83542,0.40819,0.29564,-0.03195,0.10282
-0.34187,0.85783,0.38372,0.16414,0.37289,0.50077
-0.35972,0.84066,0.40484,-0.62283,3.10681,2.15226
-0.39423,0.82929,0.39606,0.07805,0.86149,0.36496
-0.4228,0.82219,0.38111,0.5476,-0.22273,0.13911
-0.44886,0.81826,0.35914,0.64358,-0.3781,0.05106
-0.45222,0.83496,0.31359,0.50752,0.49704,-2.34543
-0.44711,0.85478,0.26353,0.53689,1.46256,-1.82472
-0.45691,0.85211,0.25524,0.24629,1.19889,-1.27402
-0.44698,0.84629,0.28983,1.13563,-0.24171,0.39398
-0.42091,0.86559,0.27126,1.11577,-0.08662,-1.11999
-0.39718,0.89015,0.22334,0.87193,-0.28128,-0.83092
-0.37308,0.91265,0.16696,0.81249,-0.01991,-0.26002
-0.36762,0.92264,0.11662,0.19859,0.34125,-0.1701
-0.3778,0.92248,0.07939,-0.17249,0.34886,-0.05498
-0.38102,0.92289,0.05569,-0.19744,0.16562,0.30484
-0.38446,0.92195,0.04681,0.25943,-0.23105,-0.0235
-0.38681,0.92067,0.05232,0.39524,-0.40316,-0.09812
-0.38955,0.91903,0.06032,0.42123,-0.62659,-0.07451
-0.39058,0.91754,0.07461,-0.0784,-0.36751,-0.0408
-0.39225,0.91607,0.08341,-0.25115,-0.2651,0.10944
-0.39322,0.91621,0.07704,-0.3828,0.06404,0.32112
-0.38789,0.91897,0.07092,0.08321,0.16506,-0.06035
-0.37653,0.92416,0.0644,0.3636,-0.21849,-0.44796
-0.36091,0.93154,0.04455,0.2118,-0.42623,-0.45294
-0.33295,0.94293,-0.00521,0.41339,-0.02083,-0.14501
-0.28573,0.95514,-0.07797,0.8818,1.028,-0.13305
-0.23849,0.9601,-0.14606,0.44648,2.79616,-0.02204
-0.21268,0.95543,-0.20475,-0.49244,1.45363,0.46166
-0.19358,0.94938,-0.24738,-0.90142,1.40216,0.79461
-0.18302,0.94699,-0.26403,-0.02154,1.6732,0.90437
-0.17855,0.95186,-0.24917,0.70001,0.8876,0.75555
-0.17954,0.96144,-0.20834,0.54826,0.38733,0.6132
-0.19149,0.96847,-0.15935,0.03672,0.29096,0.50594
-0.22227,0.96905,-0.10743,-0.19519,0.2582,-0.08914
-0.2774,0.9593,-0.05281,-0.17736,0.498,-0.14968
-0.34512,0.93852,0.00807,0.46,1.01379,-0.31314
-0.40672,0.91062,0.07311,0.72063,1.0861,-0.42131
-0.46056,0.87303,0.16031,1.24268,1.00786,-0.4901
-0.51638,0.81615,0.25931,1.07258,0.70986,-0.20338
-0.58179,0.7382,0.34145,0.75798,0.36805,-0.44251
-0.64303,0.65279,0.40046,0.76423,0.29607,-0.51345
-0.69667,0.56341,0.44409,0.48099,0.15836,-0.54538
-0.73878,0.46865,0.48433,0.58655,0.08848,-0.74866
-0.75685,0.3732,0.53657,0.61714,0.03405,-0.84711
-0.7555,0.28546,0.58969,0.74242,-0.13075,-0.79841
-0.74086,0.20883,0.63837,0.84414,-0.09632,-0.92836
-0.71463,0.14216,0.6849,0.83211,-0.08837,-0.94325
-0.68065,0.09292,0.72669,0.79343,-0.35627,-0.86936
-0.64449,0.06762,0.76161,0.80206,-0.68963,-0.79799
-0.61422,0.06132,0.78675,0.88348,-0.88846,-0.43924
-0.60053,0.0662,0.79686,0.65634,-0.52799,0.75525
-0.60239,0.07966,0.79421,0.19195,0.02387,0.32767
-0.62106,0.10113,0.77721,-0.16652,0.13842,-0.13114
-0.63875,0.12684,0.75889,-0.55715,-0.01225,-0.22482
-0.64789,0.17054,0.7424,-0.39432,-0.10195,0.27993
-0.65119,0.23606,0.72126,-0.17328,-0.24113,0.32973
-0.65098,0.32384,0.68655,1.16507,-0.45514,-0.49273
-0.61939,0.41152,0.66858,2.16825,-0.8482,0.99959
-0.61827,0.49454,0.61088,1.10338,0.09692,1.24435
-0.66538,0.5558,0.49836,0.82507,2.7373,-0.76643
-0.65705,0.60502,0.44971,0.35415,2.80975,0.37565
-0.65883,0.64384,0.38913,0.14801,0.24745,-0.49723
-0.65564,0.66825,0.35154,0.12538,-0.46014,-0.27503
-0.6407,0.69447,0.32742,0.09777,-0.62389,-0.0806
-0.61369,0.72905,0.3031,0.16672,-0.69627,0.0477
-0.5753,0.77291,0.26766,0.61308,-0.22205,-0.06844
-0.53246,0.81619,0.2243,0.71706,-0.11012,-0.0554
-0.48318,0.8557,0.18526,0.87864,0.32727,-0.06723
-0.43655,0.886,0.15631,0.81296,0.84636,0.09285
-0.41061,0.90212,0.13261,0.57627,0.53541,0.06543
-0.39458,0.91145,0.11644,0.13777,-0.16428,0.01005
-0.37694,0.9203,0.10469,-0.19615,-0.62337,0.23572
-0.35639,0.92965,0.09353,-0.17325,-0.62691,0.19701
-0.34046,0.93647,0.08427,-0.09887,-0.47531,0.18238
-0.33263,0.93948,0.08203,-0.11232,-0.32657,0.1255
-0.33126,0.94022,0.07908,0.04999,-0.23044,-0.09486
-0.33296,0.93956,0.0798,0.01616,-0.18387,-0.16268
-0.33033,0.94066,0.07768,-0.0088,-0.01813,-0.15747
-0.31608,0.94687,0.05947,0.12465,0.13251,-0.22179
-0.2885,0.95726,0.02031,0.47579,0.38551,0.10809
-0.24978,0.96782,-0.03048,0.67711,0.73808,0.13441
-0.21437,0.97261,-0.0899,-0.42546,1.97144,0.0335
-0.20011,0.96919,-0.14361,-0.91153,1.93831,0.31712
-0.18515,0.96327,-0.19448,-0.61866,0.94313,0.5133
-0.17669,0.95567,-0.23553,-0.03664,1.22389,0.55221
-0.16695,0.95314,-0.2523,0.95558,1.25258,0.64287
-0.16303,0.95781,-0.23669,0.44373,0.13825,0.72899
-0.17367,0.96493,-0.19684,-0.18799,0.52804,0.94692
-0.20254,0.96766,-0.15037,-0.1906,0.51604,0.8744
-0.24634,0.96551,-0.08434,0.00227,0.32986,0.21384
-0.29878,0.95429,-0.00743,0.33427,0.68328,0.25714
-0.35211,0.93427,0.05612,0.58659,0.86718,0.11163
-0.40986,0.90394,0.12209,1.21388,0.85249,-0.70242
-0.47063,0.85758,0.2075,1.35018,0.65232,-1.17285
-0.53581,0.7923,0.29183,1.01125,0.36136,-1.06097
-0.61366,0.70509,0.35534,0.24345,0.1944,0.22152
-0.67811,0.61761,0.39839,0.38678,0.24918,0.04991
-0.72192,0.53809,0.43508,0.46548,0.22906,-0.30192
-0.74727,0.45414,0.48512,0.54773,-0.37661,-0.72247
-0.7543,0.36894,0.54307,0.51113,-0.36595,-0.57555
-0.741,0.29346,0.60399,0.45394,-0.23898,-0.69121
-0.71137,0.24117,0.66014,0.7513,-0.2439,-0.50188
-0.67848,0.20583,0.7052,1.07405,-0.55284,-0.84312
-0.62968,0.1815,0.75535,0.90802,-0.68085,-0.91312
-0.59875,0.1736,0.7819,0.69302,-0.84702,-0.20399
-0.59867,0.19054,0.77801,0.53859,-0.60806,-0.11257
-0.61437,0.22489,0.75629,0.64863,-0.30109,0.00907
-0.62905,0.26215,0.73183,0.3884,0.17297,0.44719
-0.64899,0.30815,0.6956,-0.775,0.19242,-0.42902
-0.67393,0.37657,0.63561,-0.60927,0.00861,-0.77647
-0.68206,0.45486,0.57263,0.15878,-0.27445,-0.47083
-0.65331,0.52008,0.55019,0.65906,0.23022,1.03747
-0.64417,0.58881,0.4882,-0.39881,0.90519,-1.02418
-0.63437,0.63965,0.43408,0.63695,1.02917,-0.13794
-0.618,0.67748,0.39886,0.59841,0.96252,0.20418
-0.61219,0.70479,0.35847,0.53507,0.36864,0.0491
-0.60398,0.73296,0.31302,0.58643,0.0486,0.05998
-0.58607,0.76804,0.25813,0.60103,-0.139,0.05895
-0.55743,0.80688,0.19551,0.55706,-0.10595,0.10637
-0.52245,0.84316,0.12702,0.45899,0.09579,-0.02934
-0.48717,0.87084,0.06566,0.39354,0.46362,-0.01098
-0.45183,0.89177,0.0242,0.33586,0.66159,0.05121
-0.41858,0.90818,-0.00174,0.09868,0.59577,0.16852
-0.39286,0.91953,-0.01161,0.09578,-0.02313,0.23271
-0.36943,0.92921,-0.0098,0.08757,-0.13387,0.23661
-0.34819,0.93742,-0.00261,0.09303,-0.27684,0.24032
-0.33066,0.94375,0.00219,0.19134,-0.44849,0.34539
-0.31704,0.94834,0.01157,0.21974,-0.3408,0.33623
-0.30904,0.95093,0.01508,0.34396,-0.23355,0.30273
-0.30679,0.9517,0.01231,0.37302,-0.20043,0.12659
-0.30572,0.95203,0.01303,0.18672,-0.27799,-0.18118
-0.30275,0.95293,0.01619,0.15796,-0.35315,-0.05036
-0.29525,0.95528,0.01615,0.16075,-0.34661,0.04611
-0.28576,0.95821,0.01315,0.22539,-0.1428,-0.24482
-0.27751,0.9607,0.00712,-0.02572,-0.13082,0.04556
-0.26355,0.96462,-0.00695,0.09516,0.3012,-0.19604
-0.23972,0.96969,-0.0473,0.16915,0.48647,-0.40255
-0.1988,0.97559,-0.09325,-0.23453,0.93081,-0.0215
-0.15868,0.97663,-0.14496,-0.23306,1.11884,0.06482
-0.13137,0.97086,-0.20041,-0.18292,1.25498,0.25618
-0.1159,0.96177,-0.24811,-0.02233,0.9424,0.67153
-0.10899,0.95196,-0.28617,0.2312,0.90044,0.80726
-0.10362,0.94488,-0.31059,0.72324,0.59128,1.01112
-0.10013,0.94388,-0.31474,0.51375,0.17564,1.10571
-0.1015,0.94659,-0.30605,0.37009,0.10067,1.03707
-0.10271,0.9536,-0.28301,0.01298,0.27984,0.54334
-0.11619,0.96184,-0.24771,-0.09877,0.26641,0.19511
-0.15017,0.96504,-0.2148,-0.14958,0.24447,0.22708
-0.20213,0.96123,-0.18756,0.1362,0.35383,0.65267
-0.24771,0.95342,-0.17213,1.53665,0.31045,-0.93634
-0.27989,0.94544,-0.16674,1.68702,0.13825,-1.0371
-0.31333,0.93929,-0.13986,1.25213,-0.32251,-0.29733
-0.35126,0.93268,-0.08205,0.22905,0.07761,0.93871
-0.38858,0.92123,-0.01827,0.24806,0.09547,0.93595
-0.41643,0.90916,0.00428,0.42345,-0.05427,0.5902
-0.44053,0.89771,-0.00675,0.83799,-0.43733,-0.49074
-0.46151,0.88712,-0.00449,0.87536,-0.51505,-0.25935
-0.4829,0.87552,0.0166,0.64064,-0.49617,0.0052
-0.50308,0.86294,0.04747,0.40954,-0.46189,0.04304
-0.51693,0.85235,0.07924,0.36444,-0.62307,0.03963
-0.52502,0.84462,0.1047,0.43555,-0.72393,-0.00875
-0.53028,0.83905,0.12163,0.51174,-0.88182,-0.0817
-0.53154,0.83785,0.12439,0.43155,-0.73502,-0.1496
-0.52723,0.84224,0.1125,0.47535,-0.74101,-0.15399
-0.51622,0.85137,0.09316,0.54439,-0.63006,-0.18756
-0.50162,0.862,0.07301,0.45937,-0.41658,-0.16483
-0.48571,0.87234,0.05565,0.28198,-0.22891,0.06025
-0.47147,0.88114,0.03616,0.21457,-0.10244,0.59053
-0.46431,0.88559,0.01199,0.05516,0.52653,1.69591
-0.47665,0.87889,-0.01898,-0.58562,1.16507,1.45177
-0.49716,0.86286,-0.09109,-0.36978,0.95267,1.04687
-0.49549,0.85497,-0.15337,0.28385,0.27809,0.41338
-0.4859,0.85095,-0.19949,0.75225,0.26389,-0.07109
-0.45766,0.85533,-0.24281,0.87229,0.81181,-0.3274
-0.42707,0.86841,-0.25193,0.81403,1.4788,-0.15766
-0.42378,0.87545,-0.23239,0.69725,0.60301,0.17255
-0.42482,0.87246,-0.24154,0.90221,-0.23431,0.06779
-0.40693,0.87113,-0.27487,1.10811,-0.56792,-0.10062
-0.36367,0.86794,-0.33826,1.07943,-0.48415,-0.12314
-0.2928,0.86351,-0.41063,0.72264,0.00406,-0.44243
-0.23374,0.85368,-0.4654,0.19114,0.76911,-0.58201
-0.20096,0.84127,-0.50188,-0.38881,1.04012,-0.00435
-0.16802,0.83255,-0.52785,-0.83712,-0.13245,0.16416
-0.12128,0.82519,-0.55169,-0.54899,-0.46151,-0.15467
-0.08177,0.81933,-0.56746,-0.0206,-0.6467,-0.41021
-0.05537,0.81451,-0.57751,-0.31097,-0.30012,0.17846
-0.03167,0.81298,-0.58144,-0.47918,0.03462,0.48921
0.00328,0.80771,-0.58957,-0.41446,0.63553,0.66312
0.04775,0.80055,-0.59736,-0.34582,0.14543,0.52671
0.08714,0.79684,-0.59788,-0.37764,0.02399,0.549
0.12649,0.7958,-0.5922,-0.49685,0.08426,0.66127
0.16892,0.79755,-0.57912,-0.50368,0.12156,0.54978
0.20839,0.79838,-0.56494,-0.54539,0.18208,0.48567
0.23804,0.79827,-0.55326,-0.77559,0.57071,0.49845
0.25306,0.79912,-0.54531,-0.8995,0.54354,0.71247
0.26338,0.80363,-0.53368,-0.81309,0.58105,0.88097
0.27364,0.81456,-0.51149,-0.38146,0.68158,1.15719
0.26959,0.83531,-0.47915,-0.30425,0.45649,1.17865
0.25249,0.86672,-0.43016,-0.22797,0.36167,1.00513
0.23569,0.90315,-0.35885,-0.04913,0.29886,0.75951
0.22217,0.93716,-0.26902,0.63797,0.88753,0.46894
0.19256,0.96375,-0.18466,0.60138,1.09557,-0.172
0.13646,0.98315,-0.12159,0.68103,1.15857,-0.27016
0.06379,0.99565,-0.06784,-0.15085,1.52432,-0.27945
-0.03401,0.99932,-0.01408,-0.52046,1.26778,-0.20069
-0.12584,0.99112,0.04291,-0.2749,0.49769,-0.11262
-0.19809,0.97382,0.11151,0.13774,0.48774,0.01832
-0.25302,0.9478,0.19406,-0.08501,-0.07869,0.07474
-0.28551,0.91989,0.26886,0.16526,-0.41859,-0.0041
-0.31599,0.88905,0.33126,0.34636,-0.49948,-0.49111
-0.33596,0.85623,0.39242,0.43364,-0.62068,-0.59431
-0.35072,0.82227,0.44818,0.33172,-0.65557,-0.60814
-0.34918,0.79384,0.49789,0.32542,-0.6568,-0.52554
-0.32754,0.77721,0.53728,0.24287,-1.00497,-0.60651
-0.3115,0.76551,0.56299,0.197,-1.08366,-0.38855
-0.30777,0.76142,0.57054,0.09781,-1.02435,-0.14001
-0.31199,0.76626,0.5617,-0.39211,-0.86194,0.12039
-0.31372,0.77469,0.54903,-0.7373,-0.72825,0.27792
-0.29915,0.78486,0.54269,-0.72496,-0.55764,0.36327
-0.2714,0.80185,0.53234,-0.75666,-0.33827,0.26806
-0.25325,0.8251,0.50506,-0.4232,-0.20159,-0.26835
-0.23388,0.85699,0.45921,0.24014,-0.25831,-0.09608
-0.18974,0.87951,0.43642,1.94825,1.51385,1.01435
-0.15054,0.90281,0.40282,-0.19531,2.16773,-0.03389
-0.17173,0.92571,0.33701,0.26157,0.46992,-0.48879
-0.1841,0.93938,0.28925,0.61768,-0.28445,-0.22857
-0.17009,0.95277,0.25159,0.37918,-0.41241,-0.44039
-0.1422,0.96664,0.21303,-0.32591,0.02875,-0.36781
-0.09989,0.97983,0.17308,-0.43966,0.33591,-0.27634
-0.05207,0.98877,0.14009,-0.49844,0.80466,-0.21599
-0.01844,0.99315,0.11535,-0.23744,0.06509,0.02767
0.01015,0.99534,0.09595,-0.17179,-0.20217,0.10177
0.03317,0.99659,0.07552,-0.16972,-0.42564,0.05293
0.04888,0.99701,0.05991,-0.53998,-0.44519,0.19691
0.06973,0.99646,0.04701,-0.67499,-0.4805,0.26183
0.09803,0.99442,0.0389,-0.75675,-0.34112,0.1042
0.12259,0.99176,0.03731,-0.72232,-0.13783,0.19353
0.13537,0.98987,0.04271,-0.69433,-0.02759,0.38043
0.1326,0.98962,0.05538,-0.13277,-0.01555,0.14582
0.12308,0.98991,0.0702,-0.01426,-0.2548,-0.44499
0.12536,0.98878,0.08125,-0.15502,-0.29606,-0.19884
0.13661,0.98689,0.08595,-0.14715,0.08286,-0.1766
0.15344,0.98476,0.08192,0.15998,0.31909,0.03573
0.17717,0.98137,0.07424,0.51156,0.63566,-0.09237
0.20881,0.97603,0.06133,0.34393,0.74545,-0.0631
0.24189,0.96942,0.04138,-0.71224,1.0249,-0.21897
0.27386,0.96173,0.00835,-1.29288,1.08746,0.06155
0.3067,0.95122,-0.03344,-1.44432,1.14659,0.18854
0.32945,0.9408,-0.07972,-0.68908,1.03368,0.33282
0.33537,0.93404,-0.12288,-0.47593,0.78029,0.74496
0.33377,0.93114,-0.14689,-0.67578,0.28865,0.8236
0.32487,0.93564,-0.13797,-0.94088,0.5543,0.64442
0.29157,0.95279,-0.08476,-0.63845,0.7103,0.46987
0.23793,0.97128,-0.00191,-0.26795,0.44942,0.82991
0.18589,0.9801,0.06968,0.52497,0.422,0.09272
0.15772,0.98133,0.11004,1.20805,0.56659,-1.11279
0.1234,0.97902,0.16217,0.6385,0.47972,-0.91993
0.06661,0.96547,0.25187,-0.55472,0.38263,0.25716
-0.02199,0.94273,0.33284,0.08856,0.27414,0.10595
-0.10782,0.90799,0.40488,0.93251,0.4814,-0.0925
-0.18072,0.86011,0.47703,0.29806,0.05901,-0.90241
-0.23507,0.80503,0.54468,-0.49973,-0.0346,-0.72375
-0.27583,0.73678,0.61731,-0.3013,-0.26107,-0.65692
-0.28555,0.65952,0.69533,0.18155,-0.4526,-0.63808
-0.27063,0.58385,0.76543,0.38431,-0.34222,-0.60686
-0.24958,0.51795,0.81819,0.42301,-0.24316,-0.56808
-0.24576,0.46711,0.84936,0.36069,-0.31417,-0.74392
-0.24677,0.42595,0.87044,0.23591,-0.58064,-1.10756
-0.21944,0.4019,0.889,-0.14622,-1.05714,-0.65492
-0.17445,0.39916,0.90013,-0.46658,-1.33281,-0.11415
-0.15064,0.40959,0.89975,-0.18626,-0.92112,0.20667
-0.15707,0.43918,0.88456,-0.36539,-0.73374,-0.10899
-0.18028,0.49349,0.85086,-0.42913,-0.54731,-0.70479
-0.19436,0.55866,0.80631,-0.1854,-0.72115,-0.395
-0.18443,0.61427,0.76724,0.05482,0.53135,0.29526
-0.17966,0.67752,0.71322,-0.55295,1.20227,-0.86616
-0.19823,0.72454,0.66011,0.20967,1.40508,0.0647
-0.17724,0.76396,0.62044,0.00127,1.02939,-0.4464
-0.16697,0.79068,0.58903,-0.20429,-0.27308,-0.34733
-0.14958,0.81645,0.5577,-0.16816,-0.41344,-0.25595
-0.12882,0.84418,0.52035,0.12773,-0.11341,-0.25956
-0.1007,0.872,0.47904,0.26661,0.11268,-0.11434
-0.06719,0.89996,0.43076,0.2039,0.2274,-0.18017
-0.03776,0.92347,0.38181,0.0406,0.57076,-0.37907
-0.01384,0.93908,0.34343,-0.16953,0.51844,-0.36966
0.00696,0.94819,0.31764,-0.47111,0.13284,-0.23225
0.0266,0.95298,0.30188,-0.65826,-0.20868,-0.06969
0.04779,0.95571,0.29042,-0.62586,-0.36458,-0.01101
0.06972,0.95806,0.27797,-0.38073,-0.34143,-0.04956
0.08725,0.95835,0.27195,-0.2496,-0.32338,-0.03846
0.10097,0.95771,0.26944,0.1439,-0.34315,-0.09995
0.10973,0.95854,0.26297,0.19735,-0.34999,-0.08792
0.11034,0.95975,0.25828,0.13194,-0.25514,-0.05305
0.10831,0.96116,0.25384,0.02452,-0.13298,-0.08937
0.10929,0.96289,0.24677,-0.16526,-0.02371,-0.18038
0.116,0.96643,0.22925,-0.62244,0.21229,-0.31424
0.1354,0.97107,0.19671,-0.88454,0.76166,-0.56373
0.17033,0.9744,0.14676,-1.06271,1.23308,-0.24254
0.20871,0.97434,0.08433,-1.05569,1.09929,-0.04488
0.23534,0.97175,0.01809,-0.7992,0.64534,0.32479
0.24863,0.9677,-0.0416,-0.77927,1.0257,0.39528
0.2559,0.96261,-0.08887,-0.59698,1.41297,0.55933
0.26882,0.95557,-0.12087,-0.19583,0.6001,0.66663
0.28255,0.95251,-0.1135,-0.17049,0.19705,0.75141
0.28591,0.95669,-0.05474,-0.16692,0.60666,0.89939
0.25946,0.96515,0.03415,-0.14739,0.50269,0.7936
0.2083,0.96917,0.13163,-0.1643,0.36219,0.389
0.15345,0.96437,0.21552,0.27845,0.70542,0.0348
0.1023,0.9539,0.28214,0.55823,0.90747,-0.24867
0.03288,0.9335,0.35706,0.60361,0.65417,-1.01213
-0.03778,0.90108,0.432,0.36854,0.20442,-1.35568
-0.11211,0.85928,0.49906,-0.32862,-0.10116,-0.77686
-0.2065,0.79707,0.56748,-0.49835,0.08785,-0.22841
-0.27321,0.72777,0.62906,-0.36174,0.1955,-0.27249
-0.31434,0.65937,0.68295,-0.15834,0.21349,-0.6029
-0.33323,0.58355,0.74056,0.14626,-0.32455,-0.86504
-0.33374,0.50899,0.79344,0.34121,-0.3165,-0.73248
-0.33251,0.44496,0.83153,0.46598,-0.21004,-0.8827
-0.32167,0.39414,0.86092,0.37793,-0.18814,-0.87041
-0.30616,0.35432,0.88359,0.39226,-0.34504,-0.83517
-0.27626,0.32728,0.90364,0.28479,-0.97195,-0.65886
-0.25192,0.31944,0.91351,0.12305,-1.03251,-0.57883
-0.23765,0.32614,0.91496,0.1031,-0.65545,-0.27663
-0.23261,0.33978,0.91128,-0.2786,-0.48788,-0.06065
-0.24454,0.36378,0.89881,-0.8772,-0.42135,0.05834
-0.27,0.4054,0.87336,-1.08942,-0.51999,-0.09717
-0.27954,0.47402,0.83496,-0.60843,-0.94478,-0.53199
-0.26732,0.55116,0.79042,-0.58648,-0.42752,0.37477
-0.25508,0.59495,0.76221,-0.39501,0.46969,0.87905
-0.26199,0.65848,0.70553,0.00866,1.68523,-1.27671
-0.25737,0.7073,0.6584,0.55395,1.3571,-0.42291
-0.24116,0.74096,0.62676,0.50045,0.21348,0.08967
-0.24452,0.77859,0.57793,-0.11544,-0.71342,-0.32821
-0.25415,0.81381,0.5226,-0.03546,-0.80248,-0.20368
-0.25098,0.8476,0.46753,0.12706,-0.50939,-0.27375
-0.22801,0.88205,0.41231,0.19471,0.07728,-0.24807
-0.18783,0.91454,0.35823,0.1992,0.67371,-0.14586
-0.14871,0.93935,0.30906,0.19544,1.14517,-0.02148
-0.12324,0.95526,0.26886,0.06056,0.49914,-0.10574
-0.10269,0.96609,0.2369,-0.06445,-0.14753,-0.09893
-0.07204,0.9754,0.20832,-0.11479,-0.28707,-0.12171
-0.0262,0.98366,0.17811,-0.19734,-0.1949,-0.30848
0.02439,0.98845,0.14958,-0.28332,0.07596,-0.41281
0.07172,0.98904,0.12904,-0.40955,0.16167,-0.30516
0.11029,0.98695,0.11731,-0.6201,0.03562,-0.20793
0.13897,0.9839,0.11235,-0.60077,-0.03795,-0.10877
0.15609,0.98141,0.11163,-0.42028,-0.11266,0.02566
0.1603,0.98122,0.10727,-0.25148,-0.24436,0.17798
0.15915,0.9827,0.09478,-0.01368,-0.36334,0.13655
0.16205,0.98357,0.07955,0.1151,-0.4078,-0.12912
0.17606,0.98207,0.06737,0.15525,-0.32716,-0.46608
0.20027,0.97791,0.05982,0.03905,-0.15794,-0.24022
0.22625,0.97254,0.05453,-0.12231,0.24397,0.01858
0.24832,0.96755,0.04684,-0.35621,0.48082,-0.1235
0.26823,0.96278,0.03316,-0.64902,0.26808,-0.13684
0.28541,0.9583,0.01455,-0.8628,-0.0052,-0.05941
0.30594,0.95204,-0.00337,-0.72423,0.12146,0.00095
0.33048,0.94357,-0.02159,-0.56601,0.27378,0.26447
0.35474,0.93409,-0.04038,-0.48943,0.49534,0.15455
0.36936,0.92801,-0.0486,-0.45513,0.981,-0.01487
0.36448,0.93025,-0.04222,-0.12866,0.87923,0.28718
0.34216,0.93945,-0.01919,0.06812,0.29497,0.15277
0.30945,0.95066,0.02202,-0.26808,0.20614,0.09079
0.26668,0.96119,0.07068,-0.21894,0.20562,0.16346
0.20961,0.97015,0.12195,0.26349,0.55249,0.36678
0.14766,0.97535,0.16395,0.7489,0.78804,0.22729
0.10021,0.97611,0.19278,0.9827,0.65034,-0.29141
0.0638,0.97528,0.21156,1.10915,0.07114,-0.92822
0.01628,0.97005,0.24236,0.31518,-0.07895,-0.36856
-0.04118,0.95322,0.29946,0.04669,0.00544,-0.0573
-0.02752,0.90561,0.42321,0.21652,-0.06402,0.0839
-0.07337,0.87913,0.47091,0.56252,-0.10398,-0.32213
-0.11836,0.85346,0.50754,0.4976,-0.245,-0.70375
-0.1528,0.82389,0.54576,0.19238,-0.30837,-0.50333
-0.18183,0.79443,0.5795,-0.00138,-0.26547,-0.47868
-0.21132,0.76656,0.60641,-0.08438,-0.21878,-0.81874
-0.23239,0.7402,0.63096,-0.11306,-0.23296,-0.73499
-0.24577,0.71918,0.64991,-0.08332,-0.26001,-0.53519
-0.26217,0.70493,0.65905,-0.07455,-0.2589,-0.55756
-0.27947,0.69666,0.66073,-0.03645,-0.35386,-0.6166
-0.28917,0.6958,0.65746,0.06903,-0.39579,-0.56282
-0.28942,0.70126,0.65152,0.16308,-0.44436,-0.57112
-0.27834,0.71175,0.64493,0.16979,-0.44028,-0.47962
-0.25677,0.72549,0.63854,-0.0413,-0.35268,-0.33459
-0.23294,0.74031,0.63062,-0.34072,-0.25438,-0.12632
-0.21793,0.75454,0.61902,-0.62413,-0.15108,0.36543
-0.22126,0.76517,0.60461,-0.89222,0.2064,0.84607
-0.25414,0.77696,0.57598,-0.40858,0.50201,0.85981
-0.30592,0.79545,0.52313,0.05253,0.75768,0.62404
-0.35277,0.8021,0.48187,0.11882,0.79669,0.5416
-0.3717,0.79172,0.48479,0.26458,0.24354,-0.1209
-0.3637,0.79211,0.49019,0.42826,0.17466,-0.55944
-0.34703,0.80917,0.47414,0.54129,0.5154,-1.25754
-0.3484,0.83031,0.43496,0.65968,1.35359,-0.61272
-0.38733,0.8288,0.40382,0.43902,1.40042,-0.55537
-0.41689,0.82342,0.38493,1.27181,0.20628,-0.51398
-0.40697,0.83345,0.37381,1.27781,-0.13692,-0.63173
-0.39822,0.85152,0.34108,1.22125,-0.12764,-0.55426
-0.40426,0.86942,0.28403,0.90083,-0.02421,-0.67646
-0.41241,0.88711,0.20727,0.65748,0.39432,-1.01866
-0.41365,0.90145,0.12761,0.36197,0.63377,-1.33295
-0.41254,0.90842,0.06772,-0.12384,0.32528,-1.13747
-0.41619,0.9089,0.02645,-0.77586,-0.20907,-0.4192
-0.42254,0.90631,-0.00725,-1.00058,-0.25786,-0.93593
-0.4204,0.90705,-0.0227,-0.73557,-0.13952,-0.47587
-0.41505,0.90878,-0.04308,-0.63764,0.00498,0.00377
-0.41059,0.90879,-0.07425,-0.31573,0.05268,0.19223
-0.40981,0.90663,-0.10043,0.13931,-0.11029,0.434
-0.41469,0.90295,-0.11281,0.27861,-0.18699,0.46184
-0.41606,0.9008,-0.12433,0.46986,-0.30728,0.13613
-0.4081,0.90207,-0.14043,0.47404,-0.3866,-0.03977
-0.39009,0.90744,-0.15617,0.47171,-0.36946,-0.0611
-0.36313,0.91563,-0.17248,0.33082,0.38597,0.12776
-0.33541,0.92515,-0.17779,0.19619,0.99394,0.23267
-0.31639,0.9313,-0.18051,-0.06346,0.9204,0.08626
-0.29993,0.93594,-0.18454,0.0897,0.18485,0.22139
-0.28086,0.9399,-0.19416,0.15326,0.2404,0.33283
-0.25661,0.94368,-0.20885,0.06306,0.36684,0.37436
-0.22699,0.94764,-0.22462,-0.20642,0.66293,0.45856
-0.19547,0.95165,-0.23696,-0.2875,0.55853,0.64032
-0.16603,0.95511,-0.24536,-0.3633,0.70624,0.54803
-0.14634,0.95982,-0.23944,-0.1444,0.7819,0.36124
-0.14266,0.96593,-0.21595,0.1877,0.66571,0.41991
-0.16347,0.97011,-0.17932,0.24358,0.90521,0.09483
-0.21368,0.9671,-0.13803,0.15512,0.85834,-0.197
-0.28158,0.95539,-0.08918,0.17968,0.8094,-0.15974
-0.35663,0.93368,-0.03233,0.50333,0.93086,-0.1257
-0.42832,0.90329,0.02488,0.93322,1.19864,-0.2636
-0.48757,0.86813,0.09283,1.20843,1.3864,-0.63711
-0.54053,0.81944,0.19067,1.21083,1.0922,-0.32647
-0.60211,0.74525,0.28647,0.97074,0.66674,-0.2426
-0.66251,0.65677,0.3602,0.92183,0.289,-0.24257
-0.71531,0.56879,0.40597,0.68348,0.0089,-0.39552
-0.76055,0.48162,0.43544,0.70002,-0.01424,-0.54994
-0.7939,0.39287,0.46408,0.60648,-0.23122,-0.83717
-0.81269,0.30582,0.496,0.65248,-0.0794,-0.65946
-0.81812,0.23017,0.52698,0.78115,0.06947,-0.77463
-0.81371,0.1598,0.55888,1.00635,0.25537,-0.8852
-0.7925,0.09415,0.60257,1.12328,0.17058,-0.7731
-0.76268,0.04374,0.64529,1.08,-0.13765,-0.7829
-0.73133,0.01498,0.68186,0.76541,-0.60983,-0.46578
-0.70569,0.0029,0.70852,0.43781,-1.08477,0.0645
-0.69522,0.00796,0.71875,0.20195,-0.82085,0.66322
-0.69738,0.03336,0.71592,-0.09276,-0.20581,0.47866
-0.70606,0.07337,0.70434,-0.51652,0.1979,-0.48547
-0.72435,0.11626,0.67956,-0.5802,0.27019,-0.40226
-0.74054,0.1573,0.65334,-0.51486,0.80967,0.77366
-0.75041,0.19286,0.63221,0.18194,1.22946,1.01977
-0.73065,0.25435,0.63361,-0.04963,1.32419,0.03366
-0.72484,0.3258,0.60701,0.09636,0.76427,-1.12239
-0.72697,0.37734,0.5737,1.8363,0.03084,-0.00126
-0.72183,0.431,0.54148,0.73173,0.20059,0.09504
-0.732,0.48362,0.47988,0.52413,0.4569,-0.32279
-0.7455,0.52747,0.40744,0.62982,0.55839,-0.35806
-0.7463,0.57064,0.34264,0.68733,0.89439,-0.19729
-0.73129,0.61728,0.29014,0.22572,1.07806,-0.17824
-0.7178,0.65418,0.23837,0.08772,0.68826,-0.21734
-0.70707,0.67893,0.19774,0.1966,0.13686,-0.10431
-0.6909,0.70266,0.17008,0.51142,-0.15967,0.0899
-0.66893,0.73112,0.13415,0.59541,-0.16217,0.00699
-0.64106,0.75987,0.10793,0.46381,0.04363,0.12141
-0.61909,0.7793,0.09705,0.07206,0.21499,0.01014
-0.6072,0.7881,0.101,-0.22163,0.17994,0.13208
-0.59986,0.79198,0.11374,-0.02923,0.03059,0.079
-0.59616,0.79334,0.12329,0.1182,-0.17159,0.05419
-0.59614,0.79217,0.1307,0.35899,-0.3913,0.12142
-0.59562,0.79236,0.13189,0.4976,-0.46292,0.36335
-0.59409,0.79498,0.12271,0.99325,-0.42053,-0.66179
-0.59033,0.80146,0.09579,0.75862,-0.38798,-0.50067
-0.57848,0.81201,0.07746,0.59797,-0.22676,0.15203
-0.55034,0.83408,0.03805,0.49588,0.82767,-0.34533
-0.51844,0.85507,0.00865,0.11926,1.2949,0.16126
-0.49394,0.86945,-0.00894,-0.09279,1.35649,-0.20883
-0.46854,0.88301,-0.02763,-0.32214,0.70452,0.11334
-0.43464,0.89884,-0.05633,0.06489,0.84887,0.06587
-0.39437,0.91384,-0.09673,0.24348,0.98403,0.08411
-0.35467,0.92456,-0.13925,0.14331,1.06994,0.40294
-0.32731,0.9276,-0.1801,0.08484,0.95972,0.59142
-0.3129,0.9263,-0.20992,0.12921,0.66747,0.8608
-0.30393,0.92837,-0.2139,-0.05862,0.51378,0.95818
-0.3111,0.93078,-0.19198,-0.31965,0.62317,0.61384
-0.34218,0.92677,-0.15493,-0.1846,0.47205,0.65551
-0.38305,0.9176,-0.10624,0.15087,0.22831,0.72822
-0.42636,0.90289,-0.05491,0.90895,0.24065,0.71147
-0.46637,0.88458,-0.00353,1.53419,0.75032,-0.02622
-0.5096,0.8586,0.05581,1.5772,0.79929,-0.50964
-0.56831,0.81273,0.12842,0.81759,0.51558,-0.94458
-0.63719,0.74182,0.20901,0.54367,0.41728,-0.85391
-0.71392,0.65018,0.25996,-0.22675,0.2552,0.06448
-0.78868,0.5531,0.26845,-0.05465,0.22287,0.15253
-0.83112,0.47341,0.29176,0.45345,0.42031,-0.17993
-0.85893,0.38778,0.33447,0.50576,0.20872,-0.61372
-0.8651,0.30031,0.40176,0.63666,-0.06369,-0.58313
-0.85163,0.21878,0.4763,0.72143,-0.02368,-0.65883
-0.82722,0.14698,0.54231,0.85434,-0.01631,-0.65404
-0.79741,0.09337,0.59617,0.82958,-0.02668,-0.64055
-0.76738,0.06054,0.63833,1.09698,-0.1818,-0.72554
-0.73859,0.0448,0.67266,1.29395,-0.89802,-0.24429
-0.7199,0.04418,0.69267,1.12775,-0.96555,0.07138
-0.71941,0.05914,0.69206,0.86819,-0.68328,0.38288
-0.73922,0.07964,0.66874,0.0064,-0.31356,-0.10591
-0.76348,0.10457,0.63731,-0.21216,-0.13016,0.12572
-0.78709,0.14172,0.60034,-0.27723,-0.15216,0.22557
-0.79991,0.20599,0.56366,-0.16536,-0.33386,0.11688
-0.80151,0.28129,0.52769,0.18368,-0.21654,0.74741
-0.77595,0.34709,0.52672,0.22709,0.1398,0.91207
-0.75794,0.41896,0.49999,0.65681,1.72543,-0.40395
-0.73864,0.48628,0.46685,1.2278,2.16356,0.02939
-0.72374,0.53877,0.43119,0.95212,1.39704,0.01243
-0.72394,0.56975,0.38896,0.41487,-0.32895,-0.08751
-0.72553,0.59538,0.34515,0.31504,-0.50155,-0.03969
-0.7217,0.62455,0.29846,0.31428,-0.38111,-0.00945
-0.70741,0.66338,0.24393,0.49427,0.06533,-0.14151
-0.67684,0.71217,0.1863,0.49085,0.28931,-0.12332
-0.63689,0.75934,0.13333,0.4949,1.44172,-0.08284
-0.59939,0.79413,0.10043,0.4432,1.05998,-0.12259
-0.567,0.81934,0.08482,0.51912,0.16356,0.02909
-0.53646,0.84027,0.07846,0.57877,-0.25302,0.1331
-0.50513,0.86043,0.0671,0.60904,-0.27834,0.05163
-0.47404,0.87924,0.04714,0.49081,-0.20954,-0.04325
-0.4413,0.89697,0.02647,0.31659,-0.13324,-0.09667
-0.41177,0.91117,0.01491,0.14387,-0.18471,0.14671
-0.39358,0.91927,0.00533,-0.07662,-0.16099,0.20369
-0.388,0.92166,-0.00204,-0.11197,-0.07698,0.18365
-0.39276,0.91963,-0.0039,0.06667,-0.2086,0.36698
-0.40328,0.91507,-0.00104,0.40099,-0.45627,0.36009
-0.41126,0.9115,0.00586,0.69211,-0.49594,0.05997
-0.41517,0.90971,0.00729,0.61518,-0.46967,-0.41201
-0.41412,0.91022,0.00333,0.51049,-0.25743,-0.27964
-0.40671,0.91338,-0.01789,0.54795,0.22637,0.10822
-0.38876,0.91933,-0.06082,0.70535,0.72552,-0.06618
-0.36085,0.92667,-0.10522,0.64504,1.26519,-0.18827
-0.33117,0.93169,-0.14924,0.06458,1.1574,0.0899
-0.29365,0.93658,-0.19129,-0.55353,1.06167,-0.05011
-0.25566,0.93819,-0.23332,-0.94077,1.4911,0.21426
-0.22699,0.93328,-0.27832,-0.96679,1.47176,0.35532
-0.20946,0.92657,-0.31241,-0.07856,0.98049,0.64921
-0.1993,0.92238,-0.3309,0.1862,0.54867,0.78282
-0.19162,0.9246,-0.32924,-0.20959,0.39138,0.94562
-0.19317,0.93202,-0.30662,-0.58884,0.67428,0.58574
-0.21279,0.93975,-0.26756,-0.58123,0.62228,0.56645
-0.24665,0.94556,-0.21232,-0.21076,0.19778,0.49989
-0.29068,0.94437,-0.15389,0.26235,0.41097,0.76318
-0.34498,0.93366,-0.09623,0.84527,0.73356,0.04764
-0.40492,0.9135,-0.03952,1.0488,0.76096,-0.36627
-0.47132,0.88163,0.02418,1.00523,0.79282,-0.87877
-0.54781,0.83038,0.10184,0.93777,0.78591,-1.07988
-0.62144,0.7605,0.18829,0.6859,0.5442,-0.81906
-0.68834,0.67405,0.26806,0.35522,0.29121,0.84256
-0.74693,0.58263,0.32038,0.78806,0.45225,0.51841
-0.78936,0.49773,0.35942,1.1601,0.50082,-0.25816
-0.82004,0.40478,0.4046,0.74496,-0.21142,-0.56517
-0.83728,0.3155,0.44656,0.65459,-0.27516,-0.54176
-0.84588,0.23686,0.4779,0.5998,-0.17444,-0.60282
-0.84447,0.17484,0.50627,0.58162,-0.09058,-0.63938
-0.82623,0.12859,0.54846,0.50619,-0.12577,-0.71159
-0.78663,0.09564,0.60997,0.57318,-0.33003,-0.82763
-0.72784,0.08115,0.68093,0.78265,-0.68613,-0.40006
-0.6818,0.08446,0.72665,0.66454,-0.61441,0.01533
-0.67382,0.09689,0.73251,0.24118,-0.25733,0.36575
-0.69837,0.11509,0.70643,0.24614,-0.03492,0.229
-0.72739,0.14473,0.67079,0.11998,-0.06823,0.03249
-0.75902,0.18739,0.62352,0.18453,-0.10018,0.11396
-0.7772,0.2422,0.58077,-0.30788,0.49705,0.7718
-0.7807,0.30136,0.54744,-1.32873,0.70372,-0.09675
-0.79805,0.36554,0.47906,-0.07698,1.68474,-0.45363
-0.77148,0.43414,0.46512,0.60257,1.89337,-0.07916
-0.73607,0.49416,0.46261,0.61694,0.75588,-0.51874
-0.71095,0.53091,0.46118,0.82652,-0.11795,0.36166
-0.69964,0.56246,0.44062,0.97713,-0.26515,0.11198
-0.69416,0.59433,0.4061,0.94398,-0.1913,0.02646
-0.68992,0.63126,0.3543,0.80781,-0.07248,-0.06991
-0.67958,0.67512,0.28704,0.70079,0.15821,-0.13521
-0.66068,0.72154,0.20708,0.63277,0.46567,-0.21555
-0.63859,0.75846,0.13013,0.5778,0.57944,-0.24373
-0.62211,0.77873,0.08097,0.12992,0.61807,-0.34294
-0.6103,0.79007,0.05763,-0.18877,-0.07366,0.2996
-0.59892,0.79967,0.04277,-0.14207,-0.19373,0.2985
-0.57425,0.81849,0.01748,0.03449,-0.22769,0.2854
-0.54422,0.83894,0.00325,0.5076,-0.14108,0.12307
-0.51602,0.85655,0.00658,0.53891,-0.10748,0.15109
-0.49312,0.86981,0.01623,0.43296,-0.1076,0.1339
-0.47412,0.8801,0.02544,0.1864,0.0969,0.41926
-0.46221,0.88635,0.02737,0.22856,0.07198,0.48884
-0.45985,0.88756,0.02778,0.30057,-0.09188,0.74636
-0.46637,0.88415,0.02797,0.52028,-0.22954,-0.36136
-0.47399,0.88006,0.02885,0.56257,-0.34247,-0.49949
-0.47059,0.88135,0.04196,0.49851,-0.2916,-0.43016
-0.46089,0.88648,0.04166,0.36467,-0.32726,-0.08576
-0.44419,0.89578,0.01675,0.39914,-0.12577,-0.21053
-0.41502,0.90943,-0.02635,0.06581,0.93957,0.1179
-0.38074,0.92225,-0.06703,-0.16087,1.68888,-0.10698
-0.36077,0.92673,-0.10494,-0.60329,2.00441,-0.27215
-0.33465,0.9327,-0.13449,-0.2221,0.81309,0.18863
-0.30932,0.93583,-0.16897,0.41753,1.23008,0.48813
-0.28178,0.93879,-0.19818,0.77277,1.5715,0.46767
-0.26679,0.94111,-0.20767,0.63801,0.78482,0.83769
-0.26266,0.94201,-0.20888,0.3026,0.35916,0.98218
-0.26253,0.94242,-0.2072,-0.19018,-0.04556,0.8569
-0.27564,0.94033,-0.19951,-0.17836,0.08166,0.44952
-0.29907,0.93363,-0.19721,-0.08898,0.10304,0.22511
-0.33552,0.92599,-0.17309,-0.1115,0.11795,0.07636
-0.38733,0.91442,-0.11756,0.05409,0.52909,0.72025
-0.43999,0.89605,-0.05928,0.48799,0.70541,0.61646
-0.47908,0.8777,-0.01158,1.61076,0.59423,-0.8681
-0.5176,0.8541,0.05111,1.78049,0.474,-1.1568
-0.56147,0.81494,0.14361,0.79368,0.17648,0.00707
-0.61711,0.75622,0.2175,0.13862,0.22651,0.94015
-0.67675,0.69861,0.23229,0.65933,0.27899,0.20455
-0.72492,0.64976,0.22869,0.81795,0.168,-0.1993
-0.7666,0.59787,0.23426,0.53714,-0.14786,-0.28315
-0.79444,0.54838,0.26106,0.34409,-0.35564,-0.22861
-0.8123,0.49816,0.30332,0.81346,-0.67522,-0.82344
-0.83106,0.43096,0.35158,0.69033,-0.38352,-0.30193
-0.84146,0.38431,0.3798,0.69612,-0.12004,-0.20145
-0.83505,0.36754,0.40939,0.66686,-0.20695,-0.25341
-0.82261,0.37051,0.43131,0.63411,-0.1358,-0.33779
-0.80883,0.38593,0.44368,0.78875,-0.46827,-0.4608
-0.79127,0.40959,0.45402,0.71412,-0.67112,-0.36897
-0.77278,0.43585,0.46135,0.51091,-0.73904,-0.37752
-0.75123,0.46302,0.47039,0.3294,-0.51151,-0.22665
-0.72836,0.49003,0.47891,0.10339,-0.29342,0.09372
-0.72332,0.51427,0.46079,-0.05415,0.09324,0.49175
-0.74581,0.52508,0.40996,0.01064,0.6031,0.88245
-0.75952,0.5367,0.36753,0.74436,0.70269,0.70657
-0.73587,0.56412,0.37451,0.93297,1.52201,1.28813
-0.71954,0.59814,0.35282,0.30578,1.55934,0.06389
-0.72832,0.62567,0.27945,0.85771,-0.01834,-0.35448
-0.72759,0.64809,0.22492,1.22329,-0.28217,0.39291
-0.7175,0.67156,0.18493,1.05702,-0.20458,-0.00805
-0.70883,0.69686,0.10927,0.97618,0.31243,-0.24628
-0.69814,0.71535,0.02953,0.69547,0.98558,-0.29992
-0.68166,0.72998,-0.04957,0.28904,1.48559,-0.18807
-0.66134,0.74168,-0.11194,0.08001,0.83464,-0.13981
-0.63686,0.75283,-0.16627,0.05549,0.39814,-0.08574
-0.59938,0.76826,-0.22476,0.22394,-0.23768,0.09768
-0.54648,0.78413,-0.29411,0.21582,-0.23463,0.16002
-0.49041,0.79266,-0.3622,0.21127,0.00307,-0.02202
-0.44212,0.79167,-0.42165,0.14682,0.01709,0.0324
-0.40434,0.78438,-0.47039,0.06399,0.02199,0.10775
-0.37044,0.77855,-0.50658,-0.00531,0.10943,0.10384
-0.3412,0.7744,-0.5328,-0.00012,0.26553,-0.01117
-0.31804,0.7685,-0.55521,-0.03415,0.12318,0.45663
-0.28532,0.7626,-0.58054,0.05005,-0.02847,0.67556
-0.24195,0.75703,-0.60694,0.21109,0.09463,0.54401
-0.1898,0.77289,-0.60549,0.18246,0.21617,0.41515
-0.14976,0.84246,-0.51752,-0.00145,0.11538,0.27532
-0.11474,0.84378,-0.52427,-0.22567,0.01977,0.35136
-0.08423,0.84784,-0.52353,-0.43132,-0.01195,0.51576
-0.05306,0.85098,-0.52251,-0.47795,0.0561,0.57035
-0.02825,0.85072,-0.52486,-0.32339,0.12023,0.32863
-0.00981,0.84696,-0.53157,-0.31879,0.25589,0.28796
0.00838,0.8451,-0.53455,-0.42206,0.26686,0.51766
0.02974,0.84493,-0.53404,-0.40134,0.29442,0.59851
0.04697,0.8454,-0.53207,-0.14403,0.28359,0.55113
0.05879,0.84807,-0.52661,-0.12663,0.30709,0.5464
0.06409,0.85448,-0.51551,-0.26041,0.71496,0.80251
0.0588,0.86831,-0.49252,-0.13207,0.76781,0.79103
0.03942,0.8883,-0.45758,0.03251,0.48104,0.83654
0.01596,0.91251,-0.40875,0.38013,0.27547,0.84244
-0.01384,0.93858,-0.34479,0.9889,0.89794,-0.05491
-0.05724,0.9558,-0.28839,1.03231,0.88072,-0.11131
-0.098,0.96402,-0.2471,0.97323,0.91096,0.07826
-0.15529,0.96817,-0.19629,0.12599,0.97005,0.35757
-0.2318,0.96295,-0.13783,-0.18103,0.55487,0.26358
-0.28406,0.95411,-0.09482,0.36389,0.4466,-0.17365
-0.32093,0.94556,-0.054,0.74842,-0.01647,-0.20105
-0.35417,0.93507,-0.01436,0.56456,-0.48216,-0.11037
-0.37849,0.92541,0.01895,0.24361,-0.68681,-0.06166
-0.39878,0.91607,0.04233,0.0855,-0.87431,-0.03067
-0.4123,0.90944,0.05407,0.05722,-0.81701,-0.11357
-0.41764,0.90695,0.05489,0.23067,-0.7435,-0.08765
-0.41723,0.90755,0.04772,0.35926,-0.87923,-0.26486
-0.40362,0.91395,0.0422,0.41958,-0.93904,-0.22386
-0.37582,0.92614,0.03214,0.46533,-1.10752,-0.27324
-0.33833,0.94087,0.01735,0.34181,-1.0092,-0.20345
-0.30667,0.95181,-0.00169,-0.00567,-0.57651,0.24801
-0.29684,0.95416,-0.03832,-0.78639,1.6635,1.76457
-0.31714,0.94315,-0.09943,-1.22219,2.52198,0.9746
-0.34736,0.92036,-0.17965,-0.87873,1.66158,1.13183
-0.34825,0.91083,-0.22159,0.17017,0.54766,-0.18759
-0.34163,0.91456,-0.21651,1.00346,0.41978,-0.95983
-0.30855,0.93188,-0.19078,1.57061,0.27268,-0.20747
-0.27687,0.9476,-0.15936,1.48609,-0.35033,0.63415
-0.25191,0.95536,-0.15437,1.38736,-0.41151,0.55431
-0.21255,0.95791,-0.19295,0.69927,-0.26832,-0.76248
-0.15488,0.95804,-0.24117,0.3884,0.05195,-0.9501
-0.09389,0.95388,-0.28511,0.13703,0.24982,-1.03639
-0.05964,0.94583,-0.31914,-1.20874,0.83734,0.00746
-0.04105,0.94083,-0.33637,-1.28909,0.54495,-0.05591
-0.01298,0.94229,-0.33454,-1.00767,-0.05164,0.04065
0.01563,0.94339,-0.33132,-0.48429,-0.34521,0.16413
0.03905,0.94307,-0.33029,-0.23192,-0.50604,0.07301
0.05944,0.94063,-0.3342,-0.21895,-0.34302,0.34851
0.0798,0.93707,-0.3399,-0.18883,-0.06491,0.47737
0.10012,0.93338,-0.34465,-0.22195,0.08748,0.44195
0.12734,0.93059,-0.3432,-0.47354,0.02938,0.35581
0.15862,0.92669,-0.34071,-0.54549,-0.02916,0.2371
0.18707,0.92094,-0.34187,-0.58346,-0.04149,0.1623
0.21136,0.91478,-0.34425,-0.5553,0.13848,0.45776
0.23182,0.90917,-0.34593,-0.45979,0.30853,0.54875
0.24651,0.90502,-0.34665,-0.08775,0.51552,0.68326
0.26222,0.90258,-0.34146,-0.27139,0.47181,0.47988
0.27996,0.90143,-0.33023,-0.52389,0.47653,0.26544
0.29555,0.90151,-0.31611,-0.67794,0.70356,0.30431
0.30149,0.90448,-0.30168,-0.762,1.09884,0.39725
0.29081,0.91391,-0.28321,-0.53487,1.11973,0.42169
0.26788,0.93049,-0.24987,-0.24178,0.63836,0.44329
0.23144,0.95207,-0.19999,-0.13465,0.90991,0.34389
0.1825,0.97369,-0.13644,-0.06759,1.14414,0.17106
0.12075,0.99049,-0.06595,0.00057,1.11373,0.00031
0.04677,0.99889,-0.00519,0.07285,0.93185,-0.20233
-0.03248,0.99835,0.0474,0.23713,0.78728,-0.47901
-0.11369,0.98722,0.11166,0.24403,0.84896,-0.78454
-0.19332,0.96053,0.20001,0.04789,0.66386,-0.44493
-0.26899,0.91336,0.30565,0.21043,0.46071,-0.24646
-0.32401,0.85162,0.41203,0.5273,0.04856,-0.48456
-0.36269,0.78541,0.50159,0.34358,-0.2552,-0.41525
-0.40343,0.71169,0.5751,0.58817,-0.46366,-0.63197
-0.43079,0.6368,0.63945,0.73564,-0.52247,-0.88089
-0.4458,0.56627,0.69325,0.58844,-0.4502,-0.87785
-0.45766,0.50127,0.73436,0.50627,-0.4038,-0.88394
-0.46146,0.44767,0.76593,0.55556,-0.58943,-0.93744
-0.45567,0.40788,0.7912,0.65853,-0.99398,-0.90576
-0.43566,0.38348,0.81434,0.60618,-1.16026,-0.62821
-0.40681,0.37215,0.83427,0.41665,-0.90453,-0.48285
-0.3903,0.36942,0.84332,0.20121,-0.82337,-0.35881
-0.40828,0.37525,0.83216,-0.02341,-0.63087,0.01102
-0.43666,0.38711,0.81208,-0.10253,-0.46784,-0.11807
-0.45102,0.40943,0.79306,-0.71431,-0.3216,0.0258
-0.4601,0.44801,0.76655,-1.19526,-0.34257,0.06677
-0.46153,0.5065,0.72832,-0.91066,-0.61518,1.1752
-0.4545,0.5445,0.70495,-0.39516,1.33189,0.93105
-0.43408,0.59431,0.67703,-0.55881,1.0122,-0.79949
-0.41274,0.65537,0.63256,0.65561,0.35608,-0.22323
-0.38648,0.70284,0.5972,0.82323,-0.18754,-0.0432
-0.36323,0.74537,0.55901,0.45654,-0.18012,0.00425
-0.347,0.78796,0.50864,0.01176,-0.07876,-0.15641
-0.3392,0.82357,0.45462,0.04733,0.00147,-0.06285
-0.32262,0.85749,0.40079,0.38634,0.06596,-0.16407
-0.29818,0.8869,0.35283,0.1456,0.25183,-0.15677
-0.27177,0.91189,0.30755,-0.20456,0.43222,-0.15251
-0.24615,0.93261,0.26389,-0.26008,0.26547,-0.11782
-0.22559,0.94826,0.22341,-0.26398,0.05195,-0.0721
-0.20128,0.96024,0.19346,-0.15619,-0.35189,-0.10396
-0.16722,0.97057,0.17327,-0.19502,-0.28388,-0.05345
-0.12476,0.9797,0.15691,-0.1775,-0.05279,0.03781
-0.08105,0.98651,0.14225,-0.1451,-0.0077,0.00514
-0.04078,0.98969,0.13729,-0.15076,-0.03339,0.10091
-0.01236,0.98982,0.14176,-0.21635,-0.09992,0.25991
0.00176,0.9889,0.14858,-0.42025,-0.17982,0.11323
0.00446,0.98788,0.15514,-0.49419,-0.28723,-0.08234
-0.00236,0.9873,0.15883,-0.39881,-0.47934,0.01735
-0.01114,0.98733,0.15829,-0.23646,-0.65367,-0.25947
-0.01065,0.9887,0.14953,-0.1933,-0.80199,-0.52991
0.00131,0.99143,0.13067,-0.44235,-0.71893,-0.05921
0.02509,0.99505,0.09611,-0.4108,0.04228,-0.19917
0.06323,0.99706,0.04328,0.03048,1.67808,-0.23746
0.09649,0.99526,-0.01224,0.12737,2.70311,-0.24757
0.12537,0.99,-0.06473,-0.49961,0.76342,0.26622
0.15646,0.97982,-0.12441,-0.66151,0.99905,0.54002
0.19281,0.96454,-0.18027,-1.0105,0.86722,0.4734
0.22662,0.94913,-0.21862,-1.00107,0.53874,0.76891
0.25587,0.93533,-0.24429,-0.61236,0.14746,1.23923
0.26718,0.93463,-0.23468,-0.47028,0.5926,0.88763
0.24283,0.95651,-0.1616,-0.5822,0.51764,0.70061
0.19072,0.97961,-0.06312,-0.65249,0.05303,0.08206
0.14649,0.98911,0.01422,0.0316,0.39222,0.87424
0.10967,0.99185,0.06478,0.70003,0.75546,-0.28835
0.07817,0.99044,0.11365,1.2393,0.84426,-1.02958
0.02792,0.98203,0.18667,-0.19682,0.42348,-0.14538
-0.05779,0.96231,0.26576,-1.10381,0.29342,0.27906
-0.16823,0.9248,0.34122,-0.27464,0.47519,0.08206
-0.24181,0.87746,0.41423,0.44762,0.49539,-0.54283
-0.29502,0.82092,0.48892,0.11157,0.16377,-0.67012
-0.33369,0.75341,0.56659,0.00497,-0.25249,-0.47496
-0.36579,0.67821,0.63736,0.39258,-0.36909,-0.68786
-0.38906,0.60313,0.69632,0.66964,-0.08647,-0.87842
-0.40466,0.53714,0.74008,0.63219,-0.12455,-0.89641
-0.4177,0.48252,0.76987,0.51183,-0.37083,-0.77947
-0.43234,0.43938,0.78741,0.50502,-0.70751,-0.81943
-0.43047,0.40824,0.80501,0.29527,-1.02893,-0.92807
-0.39247,0.40192,0.8273,-0.04213,-1.31982,-0.61655
-0.34332,0.42596,0.83707,-0.42037,-1.3149,-0.04966
-0.32137,0.46615,0.82427,-0.84443,-0.84356,0.72417
-0.35387,0.51888,0.77816,-0.45339,-1.15491,-0.1905
-0.38163,0.58275,0.71747,0.61637,0.41731,0.2318
-0.36966,0.63082,0.68221,-0.08343,0.60499,1.23254
-0.39242,0.6822,0.61694,-0.72076,1.29615,-1.46496
-0.38874,0.72193,0.57245,0.44064,0.96602,0.15526
-0.35125,0.7647,0.54023,0.18528,0.0236,-0.59463
-0.32134,0.79392,0.51617,0.06416,-0.37906,-0.25732
-0.30427,0.82251,0.48051,0.23933,-0.35813,-0.21386
-0.28195,0.85366,0.43792,0.40248,-0.02908,-0.17069
-0.25175,0.88563,0.39022,0.34946,0.07572,-0.03218
-0.21863,0.91545,0.33787,0.17452,0.59458,-0.1327
-0.19401,0.93826,0.2864,0.05827,0.57338,-0.25309
-0.17806,0.95352,0.24307,-0.21894,0.18651,-0.29179
-0.16237,0.96319,0.21426,-0.30185,-0.13525,-0.11125
-0.13644,0.97171,0.19277,-0.33574,-0.24364,0.01348
-0.0989,0.97998,0.1728,-0.3111,-0.25287,-0.04372
-0.05931,0.98593,0.1563,-0.23512,-0.20559,-0.01966
-0.02785,0.9884,0.14932,-0.22732,-0.15203,0.04432
-0.00707,0.98836,0.15197,-0.23886,-0.14322,0.16271
0.00558,0.98756,0.15713,-0.28555,-0.17244,-0.03531
0.0113,0.98655,0.16304,-0.22678,-0.36377,-0.01032
0.01052,0.98558,0.1689,-0.13352,-0.5457,-0.01572
0.00564,0.98558,0.16912,-0.17744,-0.49405,0.08267
-0.00232,0.98669,0.1626,-0.25052,-0.39561,-0.04208
-0.0076,0.98798,0.1544,-0.572,-0.23693,-0.13528
-0.00795,0.98961,0.14358,-0.75183,-0.02696,-0.0689
-0.00304,0.99229,0.12392,-0.40243,0.44718,-0.47878
0.01727,0.99567,0.09129,-0.05618,1.14043,0.10038
0.05427,0.99764,0.04202,0.15006,1.4157,0.06093
0.09524,0.99541,-0.00984,0.18105,1.43134,-0.03159
0.12963,0.98951,-0.06383,-0.48777,1.47125,0.49724
0.15998,0.97979,-0.12009,-0.57648,1.47669,0.59737
0.19261,0.96845,-0.15812,-0.45961,0.90746,0.59991
0.22589,0.95865,-0.1731,-0.55549,0.12439,0.89311
0.249,0.95503,-0.16099,-0.8268,0.18941,0.78227
0.24526,0.96137,-0.12496,-1.24407,0.48536,0.31419
0.20748,0.97603,-0.06567,-1.10981,0.19548,0.21347
0.14781,0.98891,0.01414,-0.93729,0.07563,0.16868
0.08297,0.99197,0.09542,-0.23779,0.24764,0.49107
0.0211,0.98819,0.1518,0.45633,0.65947,-0.22201
-0.03963,0.97926,0.19867,0.73722,0.72305,-0.91316
-0.10546,0.95806,0.26647,0.27709,0.27006,-0.85077
-0.17531,0.92387,0.3402,-0.01274,0.00278,-0.41584
-0.25404,0.87825,0.40514,0.00989,0.07555,-0.11139
-0.3238,0.82142,0.4695,-0.29274,0.10122,-0.12434
-0.3875,0.76159,0.51945,-0.14953,-0.05994,-0.44723
-0.43851,0.69867,0.5653,0.26022,-0.22916,-0.74182
-0.46531,0.63111,0.62064,0.47594,-0.39118,-0.74194
-0.47875,0.56427,0.6726,0.47363,-0.29019,-0.6195
-0.48638,0.50772,0.7111,0.44597,-0.19045,-0.72314
-0.48753,0.46484,0.73908,0.53981,-0.30798,-0.71074
-0.48291,0.43242,0.76145,0.66022,-0.5589,-0.79296
-0.4701,0.40803,0.78264,0.59907,-0.87998,-0.66493
-0.45119,0.39761,0.79896,0.34163,-1.01547,-0.29763
-0.43957,0.40873,0.79982,0.10537,-0.98075,-0.06624
-0.43591,0.43521,0.78777,-0.42184,-0.76638,0.00235
-0.45084,0.47043,0.75858,-1.17531,-0.47087,-0.19493
-0.47898,0.53251,0.69786,-1.01832,-0.74729,-0.79054
-0.47686,0.60636,0.63634,-0.30074,-1.00272,1.16549
-0.44795,0.63283,0.63156,-0.67293,1.21085,1.96771
-0.45709,0.69705,0.55244,-0.10165,1.71029,-1.67376
-0.42809,0.73942,0.51961,1.07137,1.14296,-0.23245
-0.39012,0.76956,0.50556,1.08435,-0.10812,0.50363
-0.37143,0.80361,0.46502,0.20323,-0.64093,-0.13402
-0.36355,0.8344,0.41425,0.23965,-0.44201,-0.14539
-0.35113,0.8657,0.35675,0.3455,-0.19417,-0.12962
-0.32115,0.89879,0.29841,0.20349,0.56529,-0.25812
-0.2796,0.92939,0.24094,0.04884,0.72651,-0.23787
-0.24338,0.95048,0.19325,-0.03457,0.74558,-0.15111
-0.21362,0.96393,0.15878,-0.0294,-0.04901,-0.0881
-0.1864,0.97324,0.13439,-0.05397,-0.28009,-0.05463
-0.15752,0.98082,0.11476,-0.10047,-0.46332,-0.02833
-0.11939,0.98801,0.09792,-0.17654,-0.04337,-0.10432
-0.079,0.99335,0.08381,-0.284,0.07033,-0.06944
-0.04689,0.99626,0.07256,-0.62321,0.00206,0.0335
-0.02056,0.99765,0.06534,-0.70495,-0.22,-0.02841
-0.00122,0.99803,0.06276,-0.61557,-0.4671,-0.15866
0.00633,0.998,0.06297,-0.47888,-0.70564,-0.08362
0.0034,0.99785,0.06547,-0.34175,-0.73776,0.11025
-0.00565,0.99776,0.06659,-0.21187,-0.61912,0.19716
-0.01849,0.99783,0.06321,-0.17444,-0.50792,0.07945
-0.03141,0.99779,0.05848,-0.11807,-0.39092,-0.14785
-0.039,0.99797,0.05031,-0.00402,-0.38512,-0.60481
-0.03866,0.99845,0.03994,-0.26719,-0.09725,0.15775
-0.02662,0.99935,0.02433,0.06135,0.72155,-0.2097
0.00072,1.0,0.00152,0.31696,1.59838,-0.11832
0.04065,0.99896,-0.02082,0.3806,1.57255,-0.10626
0.07607,0.99601,-0.04675,-0.44088,0.86555,-0.04657
0.10941,0.99063,-0.08178,-0.54019,0.79454,0.22744
0.15048,0.98028,-0.1281,-0.49945,1.0185,0.33684
0.19041,0.96601,-0.17486,-0.75979,1.08957,0.20443
0.22031,0.95192,-0.21288,-0.64532,0.61591,0.57344
0.2456,0.93855,-0.2425,-0.38243,0.41195,0.8757
0.25988,0.93144,-0.25474,-0.63646,0.13262,0.97642
0.26126,0.93512,-0.23937,-0.68252,0.02387,0.68308
0.25038,0.94712,-0.20069,-0.72155,0.035,0.26255
0.21386,0.96552,-0.14847,-0.69405,-0.06481,0.085
0.16243,0.98222,-0.0941,-0.48141,-0.12611,0.168
0.10791,0.99305,-0.04688,-0.25722,-0.12196,0.23107
0.05998,0.9981,-0.01379,0.56329,0.24602,0.46332
0.02405,0.9997,0.00519,1.29474,0.36705,-0.74151
-0.00911,0.99959,0.02715,1.18803,0.25055,-0.59278
-0.06044,0.99512,0.07802,0.69531,0.06189,-0.26471
-0.12324,0.9828,0.13755,-0.32214,0.08216,0.42696
-0.18007,0.96695,0.18054,-0.04633,0.04456,0.08518
-0.22044,0.9524,0.21055,0.2382,-0.00224,-0.19112
-0.25684,0.93452,0.24637,0.24875,-0.22923,-0.21703
-0.28624,0.9143,0.28657,0.11484,-0.25684,-0.09422
-0.30494,0.89396,0.32841,0.18499,-0.38137,-0.17315
-0.31292,0.87553,0.36814,0.36195,-0.54281,-0.39068
-0.31576,0.85992,0.40103,0.4024,-0.62857,-0.50475
-0.31483,0.84865,0.42506,0.34643,-0.80861,-0.58322
-0.3123,0.84396,0.43612,0.30847,-0.88015,-0.48304
-0.31121,0.84551,0.43388,0.30566,-0.88938,-0.42381
-0.31201,0.85263,0.41914,0.34506,-0.86453,-0.42018
-0.30778,0.86556,0.39507,0.4432,-0.84249,-0.40024
-0.28982,0.88489,0.36466,0.44348,-0.81246,-0.36827
-0.2564,0.90732,0.3332,0.14356,-0.36428,0.39658
-0.22954,0.92591,0.29999,-1.28986,0.5398,1.23676
-0.27501,0.93466,0.22535,-2.34383,1.14781,0.48063
-0.35865,0.92475,0.12731,-1.6996,0.55307,-0.25188
-0.39456,0.91618,0.07027,-0.83334,0.10408,0.04555
-0.40693,0.91161,0.05812,-0.35232,0.45077,-0.00812
-0.37649,0.9215,0.0954,0.9157,1.68998,-0.52522
-0.28568,0.94622,0.15182,1.27216,1.96134,0.0199
-0.19615,0.95884,0.20529,1.7802,0.51273,-0.28702
-0.16327,0.96266,0.21594,2.06462,-1.15094,0.25638
-0.18104,0.96993,0.16267,1.27008,-1.02019,-0.54525
-0.17522,0.98071,0.08665,0.63277,-0.03051,-1.47859
-0.1486,0.9886,0.02431,-0.01173,0.84304,-2.11715
-0.14824,0.9885,-0.02983,-1.04136,1.44177,-0.17032
-0.17122,0.98272,-0.07028,-1.1091,0.45333,-0.6352
-0.18352,0.97818,-0.09742,-0.67309,-0.5594,-0.60691
-0.18089,0.97676,-0.11494,-0.39905,-0.99718,-0.12912
-0.17025,0.97675,-0.1303,-0.11103,-0.95362,-0.03551
-0.15822,0.97618,-0.14844,0.32956,-0.26834,0.15074
-0.15304,0.97314,-0.17198,0.43267,0.26325,-0.019
-0.14929,0.96965,-0.19365,0.19786,0.29976,-0.07447
-0.12897,0.96888,-0.21129,-0.22221,0.02815,0.27398
-0.10225,0.96901,-0.22485,-0.21009,-0.1738,0.30308
-0.0764,0.97115,-0.22592,-0.29842,-0.20752,0.26894
-0.05304,0.97319,-0.22381,-0.41848,-0.12392,-0.00684
-0.03326,0.97343,-0.22657,-0.44288,0.19939,-0.22578
-0.02281,0.97267,-0.23107,-0.73813,0.48049,0.09057
-0.01766,0.97284,-0.23079,-0.87522,0.41297,0.32071
-0.01407,0.97417,-0.22538,-0.23001,0.41353,0.8476
-0.01923,0.97784,-0.20847,-0.15428,0.61709,0.8126
-0.03568,0.98451,-0.17164,-0.11125,0.8559,0.79617
-0.06726,0.99129,-0.1132,0.23706,0.55756,0.72272
-0.10736,0.9933,-0.04277,0.72528,0.33664,0.61843
-0.15899,0.98688,0.02812,1.04022,0.48576,0.43207
-0.21827,0.97175,0.08981,1.08043,0.9631,-0.64105
-0.28394,0.94871,0.13902,0.92896,1.2215,-0.34567
-0.36619,0.91233,0.18318,-0.20467,1.82796,-0.51365
-0.47552,0.84969,0.22782,-0.60748,1.34112,-0.54446
-0.56223,0.78004,0.27465,0.33768,1.24639,-0.32504
-0.60783,0.71498,0.34548,0.79758,0.16236,-0.14007
-0.62956,0.65437,0.41888,0.59732,-0.22331,-0.36475
-0.64421,0.59603,0.47931,0.54114,-0.37279,-0.46912
-0.65808,0.54124,0.52345,0.6714,-0.46867,-0.71215
-0.66364,0.49243,0.56311,0.60061,-0.30693,-0.88481
-0.65408,0.45012,0.60792,0.54959,-0.28972,-0.98301
-0.62614,0.41688,0.6589,0.61182,-0.64708,-0.90321
-0.59914,0.39031,0.69906,0.76165,-1.06704,-0.39413
-0.59813,0.37225,0.70969,0.65348,-1.156,-0.23273
-0.62001,0.36149,0.69635,-0.38048,-0.54137,0.24427
-0.64437,0.36139,0.67394,-0.5827,-0.33722,0.32231
-0.63147,0.37262,0.68001,-0.62873,-0.04074,0.21074
-0.59493,0.39431,0.70041,-0.26599,0.18966,0.29463
-0.56817,0.43347,0.69949,-0.13291,0.23323,0.04166
-0.55883,0.48766,0.67075,0.66887,-0.03716,-0.00189
-0.53641,0.52164,0.66345,1.23814,1.20432,0.74321
-0.53293,0.55199,0.64132,0.58177,1.57995,0.25213
-0.55129,0.59225,0.58764,0.83222,0.91979,-0.38489
-0.57697,0.63379,0.51519,0.79479,-0.09745,-0.55411
-0.59669,0.67034,0.44114,0.48139,-0.13438,-0.939
-0.60023,0.69616,0.39381,0.04448,0.1594,-0.49453
-0.59741,0.72457,0.34366,-0.43103,0.89358,-0.34073
-0.57854,0.75695,0.30384,-0.30404,1.37905,-0.3507
-0.54134,0.78905,0.29043,0.06801,0.53367,-0.31785
-0.50486,0.81602,0.28146,0.47839,-0.0602,-0.07924
-0.4807,0.8366,0.26273,0.73026,-0.31604,0.0885
-0.46544,0.85484,0.22937,0.70104,-0.40753,0.0417
-0.45016,0.87158,0.19416,0.3755,-0.27594,-0.11947
-0.43159,0.88581,0.1705,0.07025,-0.08578,-0.00295
-0.41327,0.89749,0.15405,-0.1727,-0.01334,0.0055
-0.39611,0.90644,0.14648,-0.2277,-0.06065,-0.09059
-0.38397,0.91167,0.14639,-0.25923,-0.20271,-0.03331
-0.38159,0.91222,0.14911,-0.34706,-0.35487,0.02688
-0.38964,0.90854,0.1508,-0.38538,-0.4107,-0.11021
-0.40368,0.90297,0.1473,-0.2692,-0.3713,-0.07142
-0.41528,0.89867,0.1412,-0.04389,-0.22868,-0.02127
-0.41985,0.89815,0.13058,0.10069,-0.14943,-0.12983
-0.41855,0.90095,0.11452,0.15532,-0.03603,0.03833
-0.41335,0.90576,0.09344,0.45553,0.26716,-0.42251
-0.39874,0.91528,0.0571,0.73517,0.8771,0.03668
-0.36159,0.93225,0.01254,1.1141,1.76271,-0.01039
-0.31359,0.94911,-0.02906,0.22963,1.62146,-0.17848
-0.27277,0.96025,-0.05927,-0.67592,1.32657,0.05193
-0.23314,0.96827,-0.08999,-0.82626,1.16945,0.34898
-0.1972,0.97358,-0.11514,-0.11761,1.32197,0.59755
-0.17184,0.97709,-0.12558,0.03408,0.36564,1.24266
-0.15259,0.98109,-0.11905,-0.16449,0.15767,1.0696
-0.1526,0.98296,-0.10251,-0.27988,0.14283,0.26172
-0.18272,0.98099,-0.06535,-0.35767,-0.03382,-0.15551
-0.25025,0.96818,-0.00279,-0.51167,-0.31475,0.27768
-0.31012,0.94819,0.06908,-0.06296,0.25175,0.55911
-0.37286,0.91875,0.12992,0.84101,1.3202,-0.4087
-0.42456,0.88407,0.19538,1.29419,1.54948,-0.94305
-0.46398,0.83499,0.29584,0.956,0.81301,-0.6357
-0.52055,0.75915,0.39078,0.1223,0.20075,0.12406
-0.60371,0.6726,0.42796,0.71989,0.22685,-0.19817
-0.67159,0.59536,0.44104,0.89267,0.29777,-0.39389
-0.7184,0.51477,0.46789,0.39422,0.19331,-0.58495
-0.75627,0.42421,0.4981,0.25786,-0.06663,-0.51296
-0.77759,0.33435,0.53251,0.57196,-0.15459,-0.66691
-0.77839,0.25217,0.57491,0.69778,0.08469,-0.66817
-0.76367,0.1804,0.61989,0.69234,0.14265,-0.74199
-0.74257,0.12348,0.65829,0.76433,0.00233,-0.65787
-0.72485,0.08078,0.68415,0.89246,-0.26376,-0.75631
-0.70418,0.05039,0.70823,0.80276,-0.56075,-0.62079
-0.68041,0.03391,0.73204,0.38918,-0.65859,-0.12534
-0.65919,0.03359,0.75123,-0.15204,-0.44726,0.11492
-0.64773,0.0505,0.76019,-0.25022,-0.40105,0.04651
-0.65677,0.08267,0.74955,-0.42627,-0.37938,0.13561
-0.69203,0.13627,0.70889,-0.3629,-0.38581,-0.02606
-0.7073,0.20503,0.67652,-0.43111,-0.21045,1.02927
-0.69869,0.25657,0.66783,-0.35254,1.12693,0.60448
-0.69165,0.33382,0.64046,0.73036,0.912,-0.93352
-0.667,0.40523,0.62522,1.36216,0.87353,-0.11217
-0.65565,0.46035,0.59849,0.98289,0.39112,0.05452
-0.6542,0.50674,0.56146,0.5255,-0.05148,-0.22785
-0.66602,0.55162,0.50212,0.44922,0.11944,-0.20995
-0.67182,0.5983,0.43669,0.43072,0.31758,-0.255
-0.66207,0.64905,0.37471,0.20995,0.47966,-0.25764
-0.64535,0.69516,0.31666,0.07323,0.6124,-0.28243
-0.62479,0.72989,0.27729,-0.00825,0.49909,-0.26431
-0.60106,0.75816,0.25282,0.08585,0.12389,-0.17113
-0.57284,0.78636,0.23128,0.23511,-0.13451,-0.13057
-0.5399,0.81771,0.19962,0.40532,-0.19354,-0.13751
-0.49965,0.85101,0.16163,0.52912,-0.13972,-0.1578
-0.45367,0.88197,0.12768,0.52583,0.02618,-0.13209
-0.41345,0.90446,0.1049,0.46932,0.09436,-0.00517
-0.38647,0.9179,0.09007,0.08392,-0.17147,-0.02537
-0.36661,0.92666,0.08302,-0.11131,-0.20277,-0.00247
-0.35333,0.93234,0.07684,-0.44713,-0.19366,-0.02193
-0.34818,0.93493,0.06843,-0.46444,-0.29336,0.13851
-0.35316,0.93383,0.05696,-0.13329,-0.45469,0.18653
-0.36556,0.92939,0.05101,0.07256,-0.48528,0.21144
-0.37671,0.92501,0.04945,0.33985,-0.35816,0.07195
-0.37933,0.92403,0.04778,0.45321,0.03342,-0.21938
-0.36963,0.92836,0.03899,0.66884,0.47196,0.24612
-0.3462,0.9379,0.022,1.12446,0.92864,-0.26278
-0.31666,0.9485,-0.00875,0.62152,1.10645,-0.18279
-0.28571,0.95739,-0.04224,0.59056,1.09756,-0.1493
-0.25158,0.96459,-0.07922,-0.79222,1.21261,-0.28354
-0.21168,0.96847,-0.13137,-1.15508,1.08742,-0.0205
-0.17452,0.96807,-0.17994,-0.96141,1.13926,0.23804
-0.14985,0.96649,-0.20843,0.15103,1.21938,0.69139
-0.13282,0.96731,-0.21604,0.18478,0.18648,1.1596
-0.12081,0.97226,-0.20027,-0.25696,0.27226,0.85893
-0.13583,0.97661,-0.16666,-0.39843,0.48742,1.14077
-0.17716,0.97812,-0.10908,-0.39215,0.12824,0.54597
-0.23797,0.97042,-0.04063,-0.37266,-0.1502,0.4488
-0.30019,0.95382,0.01009,0.20785,0.33968,0.41237
-0.36043,0.93126,0.05329,1.42711,0.98092,-1.34663
-0.41394,0.90204,0.12242,1.36747,0.76697,-1.73619
-0.47112,0.85223,0.22748,0.07337,0.69568,-0.3126
-0.56663,0.76553,0.3048,-0.70519,0.33852,0.44874
-0.66254,0.66798,0.3389,0.48707,0.81251,0.24113
-0.71671,0.58408,0.38103,0.74682,0.86086,-0.59213
-0.75345,0.48867,0.43991,0.38455,0.27099,-0.71208
-0.76667,0.38701,0.51229,0.64747,-0.27657,-0.4978
-0.76474,0.2888,0.576,0.96957,-0.17294,-0.60813
-0.75323,0.20296,0.62566,0.96311,0.20424,-0.63896
-0.7345,0.13688,0.66466,0.69872,0.11437,-0.6758
-0.71759,0.08686,0.69103,0.49342,-0.05255,-0.87063
-0.69951,0.05237,0.7127,0.55493,-0.48247,-1.02338
-0.66248,0.04563,0.74769,0.37565,-1.07751,-0.3429
-0.63331,0.07259,0.77048,0.03738,-1.07386,0.22764
-0.63187,0.11862,0.76594,-0.31132,-0.64016,0.48389
-0.6607,0.18158,0.72835,0.08659,-0.60417,-0.3464
-0.68736,0.25621,0.67963,0.54908,-0.37495,0.0825
-0.68226,0.32466,0.65507,0.90168,0.96759,0.21769
-0.68931,0.39945,0.6044,0.57997,1.39192,-0.86318
-0.68911,0.46017,0.5598,0.11558,1.5461,-0.35901
-0.68245,0.50818,0.52537,0.19956,0.49173,-0.1643
-0.67472,0.54762,0.49484,0.29569,-0.34631,-0.21602
-0.67331,0.58086,0.45744,0.30211,0.05502,-0.15307
-0.66744,0.61975,0.41284,0.42897,0.33636,-0.25467
-0.65194,0.67009,0.35489,0.38088,0.40193,-0.274
-0.62979,0.71909,0.29371,0.33777,0.66862,-0.22644
-0.6077,0.75747,0.2386,0.35226,0.68119,-0.22478
-0.58123,0.78957,0.19684,0.3384,0.36619,-0.14748
-0.54992,0.81849,0.16633,0.40862,0.09469,-0.05804
-0.51598,0.84444,0.14381,0.37131,-0.07685,0.03252
-0.47978,0.86725,0.13298,0.26968,-0.19104,0.10041
-0.44582,0.88622,0.12595,0.0611,-0.17708,0.04751
-0.41376,0.90204,0.12303,0.05539,-0.16415,0.06821
-0.38345,0.9154,0.12248,0.05457,-0.18303,0.03528
-0.35738,0.92541,0.12607,0.03708,-0.21321,-0.08312
-0.34359,0.93045,0.1273,-0.02433,-0.32605,0.00494
-0.34642,0.9301,0.12213,-0.05135,-0.37184,0.09531
-0.36122,0.92542,0.11453,0.0963,-0.23438,0.36808
-0.37902,0.91869,0.11117,0.36084,-0.12053,-0.00133
-0.38547,0.91537,0.11624,0.41752,-0.13587,-0.45024
-0.384,0.91542,0.12064,0.13133,-0.095,0.34895
-0.37194,0.92251,0.10314,0.11996,0.1948,0.09644
-0.342,0.93693,0.07212,0.39719,0.96035,-0.09283
-0.30681,0.951,0.03838,0.06183,1.57265,-0.45924
-0.27652,0.96101,-0.00145,-0.24079,1.70033,-0.40572
-0.24295,0.96883,-0.04834,-0.64894,0.99221,0.08985
-0.20707,0.97323,-0.09969,-0.40945,0.9139,0.21402
-0.18074,0.97328,-0.14164,-0.2799,1.22007,0.73374
-0.16177,0.97342,-0.1621,-0.08077,1.19697,0.95655
-0.1478,0.97592,-0.1604,0.32088,0.29295,1.3274
-0.14316,0.98091,-0.1316,0.14218,0.46875,1.11162
-0.16096,0.98361,-0.08132,-0.12164,0.0095,-0.02749
-0.20406,0.97855,-0.02842,-0.33476,-0.3434,-0.44577
-0.26644,0.96366,0.01908,-0.5006,-0.22437,0.88038
-0.34293,0.93789,0.05264,0.51012,0.87712,-0.10996
-0.40476,0.90812,0.10719,1.25037,0.99679,-1.25179
-0.4491,0.8719,0.19518,0.87032,1.11427,-0.56911
-0.52032,0.80318,0.29011,-0.12533,0.45332,0.44696
-0.58946,0.72795,0.35019,0.65562,0.58733,0.16183
-0.6777,0.61541,0.40249,-0.07833,1.00568,0.73896
-0.75078,0.52492,0.40098,0.6303,-0.21065,-0.16656
-0.80003,0.44201,0.40569,-0.37047,0.43837,-0.65028
-0.82867,0.34799,0.43841,0.01832,0.38434,-0.63711
-0.83,0.25673,0.49517,0.70404,0.29495,-0.53936
-0.81101,0.17324,0.55879,0.89396,0.35377,-0.69531
-0.77894,0.0999,0.61909,1.23844,-0.05738,-0.89267
-0.74708,0.03716,0.6637,1.47084,-0.12394,-1.02867
-0.72207,-0.01138,0.69173,1.21293,-0.04685,-0.93365
-0.69873,-0.043,0.71409,0.96147,-0.76134,-0.50109
-0.67664,-0.05329,0.73438,0.91995,-0.91902,-0.27782
-0.67238,-0.03649,0.7393,0.81673,-0.90897,-0.15193
-0.68387,-0.00554,0.72959,-0.69258,-0.24219,-0.00768
-0.71667,0.02936,0.69679,-0.9015,-0.19374,-0.2314
-0.74388,0.08848,0.66243,-0.67621,-0.25333,-0.22509
-0.76246,0.15791,0.62747,-0.52328,-0.2832,1.57629
-0.76202,0.18955,0.61919,-0.715,0.68812,1.59937
-0.7618,0.2267,0.60685,0.08672,1.85383,-0.67407
-0.77636,0.29795,0.55542,1.20864,0.542,-0.31519
-0.77472,0.35842,0.52091,1.30928,-0.21093,-0.16998
-0.76929,0.40667,0.49276,0.6342,-0.57177,0.35439
-0.77005,0.44747,0.45475,0.29871,-0.01679,-0.11117
-0.77974,0.48625,0.39443,0.48796,0.15503,0.0089
-0.7839,0.52505,0.33139,0.59158,0.57444,-0.22764
-0.77757,0.56681,0.27223,0.42924,0.94974,-0.24397
-0.76699,0.60649,0.20952,0.32721,0.99976,-0.11118
-0.75318,0.64039,0.15042,0.08658,0.36016,-0.27135
-0.73439,0.67012,0.10776,0.18538,0.0268,-0.15784
-0.71577,0.69533,0.06467,0.25329,-0.04571,-0.07626
-0.68943,0.72404,0.02107,0.3979,0.12444,0.02985
-0.63327,0.77359,-0.02303,0.45965,0.22467,0.08908
-0.58256,0.80833,-0.08503,0.49968,0.29788,-0.00976
-0.53518,0.8312,-0.15066,0.47129,0.32052,-0.21148
-0.49606,0.84543,-0.19793,0.32132,0.17441,-0.30352
-0.46435,0.85624,-0.22633,0.06153,-0.06172,-0.1082
-0.45459,0.85745,-0.24109,-0.15475,-0.1,0.02712
-0.43071,0.86401,-0.26072,-0.05342,0.00459,0.01072
-0.39906,0.87153,-0.28495,0.11251,-0.01528,0.1636
-0.36594,0.87716,-0.31091,0.2978,-0.13498,0.35398
-0.33413,0.88049,-0.3363,0.47691,-0.11153,0.16679
-0.30641,0.88003,-0.36286,0.47614,-0.04623,0.07593
-0.27703,0.87855,-0.38911,0.04455,-0.08543,0.08147
-0.24158,0.87718,-0.41497,-0.23712,-0.02984,0.21134
-0.20291,0.87519,-0.43917,-0.30202,0.01022,0.25724
-0.16458,0.87331,-0.45853,-0.18012,0.07571,0.4023
-0.12676,0.87048,-0.4756,-0.02447,0.08857,0.5718
-0.08879,0.86669,-0.49088,-0.05483,0.12983,0.72859
-0.0548,0.86525,-0.49833,-0.23585,0.22848,0.6482
-0.02398,0.86684,-0.49801,-0.3763,0.27108,0.44262
0.00339,0.87094,-0.49138,-0.44968,0.26315,0.39647
0.02257,0.8757,-0.48232,-0.52251,0.37227,0.61059
0.03012,0.88166,-0.47093,-0.48274,0.66072,0.824
0.01909,0.89429,-0.44708,-0.11583,0.58557,0.68524
-0.00643,0.91178,-0.41064,0.19899,0.39396,0.62034
-0.03474,0.93039,-0.36492,0.54714,0.68309,0.75559
-0.06473,0.94809,-0.31135,0.73578,0.98262,0.49618
-0.09611,0.9603,-0.2619,0.96751,1.05695,0.06796
-0.13072,0.96765,-0.21581,0.63115,0.54774,0.2289
-0.1832,0.96838,-0.16936,0.68363,0.547,0.18246
-0.24923,0.95985,-0.12875,-0.27202,0.56548,0.29574
-0.30578,0.94791,-0.08928,0.31863,0.27289,0.07964
-0.34436,0.93766,-0.04704,0.81146,0.01229,-0.11796
-0.37648,0.92637,-0.00959,0.60782,-0.44426,-0.09511
-0.39969,0.91635,0.02327,0.3191,-0.58196,-0.05245
-0.41654,0.90793,0.04647,0.21797,-0.67874,-0.10855
-0.43253,0.89953,0.06145,0.16199,-0.67212,-0.19695
-0.44488,0.89248,0.0746,0.09017,-0.5953,-0.2733
-0.44859,0.88961,0.08581,0.17353,-0.69378,-0.15074
-0.44531,0.89105,0.08791,0.44725,-0.81341,-0.13687
-0.43712,0.89548,0.0839,0.47465,-0.82549,-0.18293
-0.42139,0.90383,0.07436,0.42711,-0.87128,-0.18723
-0.40103,0.91433,0.05625,-0.05188,-0.6757,0.25971
-0.38145,0.92376,0.03409,-0.43793,-0.15479,1.1216
-0.37893,0.92542,0.00326,-1.31279,0.91011,1.48088
-0.4029,0.91285,-0.06607,-1.15145,1.10269,0.91466
-0.40519,0.90175,-0.15055,-0.53664,0.50523,0.7741
-0.39993,0.89756,-0.18557,-0.04524,0.45823,0.47199
-0.39988,0.89873,-0.17994,0.76039,0.43496,-0.35134
-0.38194,0.91129,-0.15386,1.10697,1.56152,-0.00618
-0.35939,0.92433,-0.12828,0.95397,1.50518,0.15907
-0.35195,0.92706,-0.12921,1.10043,-0.28491,0.50519
-0.34055,0.92868,-0.14693,1.36227,-0.54774,0.34175
-0.30316,0.93283,-0.19473,1.25971,-0.56513,-0.1718
-0.24198,0.93887,-0.24487,0.62173,0.06603,-0.79953
-0.18587,0.94237,-0.27818,0.06674,0.49117,-1.10768
-0.16158,0.93735,-0.30864,-0.31676,0.78494,-0.65689
-0.13508,0.93392,-0.33098,-1.20722,0.45703,0.29714
-0.09822,0.93655,-0.33649,-0.76566,-0.31887,0.04125
-0.06686,0.94027,-0.3338,-0.06472,-0.39265,-0.05333
-0.04282,0.94195,-0.333,0.0378,-0.48445,-0.11367
-0.01984,0.94258,-0.33339,-0.18295,-0.33189,0.23115
0.00232,0.94131,-0.33753,-0.25007,0.07315,0.22243
0.02047,0.9399,-0.34085,-0.45993,0.23044,0.19108
0.0445,0.94051,-0.33685,-0.67753,0.11302,0.35842
0.07229,0.94119,-0.33005,-0.65758,-0.04669,0.27283
0.09675,0.94111,-0.32395,-0.60752,-0.11717,0.18961
0.1167,0.94086,-0.31806,-0.58329,-0.21564,0.24958
0.13258,0.94065,-0.31239,-0.51981,-0.14161,0.33264
0.14576,0.93916,-0.31101,-0.40513,0.07458,0.40041
0.15596,0.93713,-0.3122,-0.20472,0.12408,0.39997
0.1675,0.93482,-0.31314,0.0042,0.13858,0.36536
0.18592,0.93215,-0.31069,0.08379,0.50808,0.37774
0.20707,0.93032,-0.3027,-0.45113,0.62237,0.39891
0.22626,0.92848,-0.29451,-0.64412,0.53682,0.41627
0.24458,0.92743,-0.28293,-0.79756,0.5112,0.38808
0.25732,0.92819,-0.26879,-0.9665,0.70427,0.36364
0.25877,0.93267,-0.25134,-0.96795,0.6998,0.34619
0.24609,0.94234,-0.22682,-0.5758,0.58898,0.54339
0.21791,0.95706,-0.19119,-0.30778,0.58898,0.27511
0.175,0.97367,-0.14607,-0.24998,0.69129,0.24623
0.11684,0.98856,-0.09539,-0.14727,0.83224,0.23516
0.04639,0.99792,-0.04472,0.06559,0.9561,-0.18851
-0.02195,0.99974,0.00596,0.24801,0.88127,-0.28781
-0.08599,0.99409,0.06629,0.62687,0.69241,-0.37714
-0.15003,0.97799,0.14503,0.48022,0.53486,-0.19718
-0.22328,0.94425,0.24193,0.15396,0.51468,0.27777
-0.29863,0.89723,0.32528,0.22473,0.37934,0.16935
-0.36071,0.84998,0.38396,0.32593,0.13224,-0.28854
-0.42044,0.79831,0.43119,0.31184,-0.00757,-0.48628
-0.47726,0.7392,0.47519,0.17993,-0.06753,-0.53041
-0.51969,0.67618,0.52221,0.17127,-0.21088,-0.66096
-0.54165,0.61488,0.57317,0.34981,-0.3748,-0.76318
-0.54711,0.55906,0.62299,0.37291,-0.55308,-0.77919
-0.54342,0.50919,0.66739,0.43945,-0.51403,-0.67005
-0.53284,0.46503,0.70698,0.6738,-0.43598,-0.64889
-0.52109,0.429,0.73785,0.72593,-0.51178,-0.61018
-0.51207,0.40406,0.75797,0.51991,-0.61001,-0.53126
-0.50508,0.39184,0.76899,0.35446,-0.66279,-0.43782
-0.50831,0.39079,0.7674,-0.02137,-0.62904,-0.01914
-0.52746,0.39659,0.75134,-0.05381,-0.56721,0.01182
-0.5455,0.40687,0.73272,-0.11066,-0.44049,-0.19274
-0.5515,0.42297,0.71899,-0.40149,-0.31712,-0.12983
-0.54289,0.44908,0.70964,-0.5623,-0.40608,-0.00411
-0.54019,0.46681,0.7002,-1.55244,0.13587,1.52297
-0.52828,0.50535,0.68231,-0.12121,0.08118,0.85541
-0.50562,0.56448,0.65247,0.54572,-0.30879,-0.18146
-0.4773,0.62053,0.6222,0.36767,-0.09266,-0.04461
-0.45855,0.67473,0.57833,0.58206,-0.02533,-0.36773
-0.42996,0.72241,0.54153,0.26887,0.165,-0.18491
-0.41191,0.7645,0.49586,-0.10809,0.32991,0.02871
-0.40449,0.80056,0.44214,0.01144,0.54325,-0.15848
-0.39132,0.8323,0.39261,-0.08919,0.45839,-0.22883
-0.36902,0.86243,0.34646,-0.34761,0.27796,-0.20377
-0.34313,0.89028,0.29942,-0.45662,0.08423,-0.16583
-0.31121,0.91504,0.25661,-0.37847,-0.15268,-0.1775
-0.27441,0.93595,0.22069,-0.1348,-0.36615,-0.07491
-0.22794,0.95405,0.19451,0.12394,-0.20449,0.02599
-0.1758,0.96857,0.17595,0.35715,-0.08424,0.12286
-0.13528,0.97804,0.15854,0.27555,-0.12801,0.13931
-0.10446,0.98333,0.14882,0.0966,-0.21134,0.11444
-0.07586,0.9866,0.14443,-0.30494,-0.28522,-0.04871
-0.04969,0.98822,0.14474,-0.33111,-0.28684,-0.04902
-0.03172,0.98846,0.14811,-0.41931,-0.44688,0.00281
-0.02913,0.98832,0.14956,-0.3878,-0.41917,0.23165
-0.04002,0.98779,0.15057,-0.31093,-0.30296,0.16636
-0.0568,0.98617,0.15572,-0.45016,-0.21999,-0.04544
-0.07059,0.98408,0.1631,-0.36673,-0.19358,-0.06562
-0.07862,0.98231,0.16997,-0.35874,-0.19348,0.07791
-0.08076,0.9829,0.16551,-0.45459,-0.22827,-0.2978
-0.0664,0.98639,0.15046,-0.37577,-0.15304,-0.08617
-0.02663,0.9921,0.12258,-0.26904,0.26164,-0.13932
0.02666,0.99612,0.08385,-0.11893,1.14234,-0.00632
0.07316,0.99648,0.04091,-0.08383,1.73142,-0.00543
0.11624,0.99319,-0.00782,-0.61676,1.24912,0.02556
0.16048,0.98481,-0.06622,-1.02053,0.97981,0.19299
0.20682,0.97023,-0.12603,-1.12169,1.05565,0.33105
0.24096,0.95597,-0.16749,-0.70329,0.7849,0.46987
0.25913,0.9477,-0.18634,-0.32981,0.31488,0.94528
0.25876,0.94997,-0.17492,-0.45174,0.25195,0.94702
0.23127,0.9633,-0.13623,-0.78169,0.43037,0.37398
0.17801,0.98195,-0.06395,-0.51344,0.01694,-0.03738
0.11259,0.99353,0.01494,-0.21731,-0.13188,0.1771
0.0408,0.99688,0.06751,0.14945,0.17893,0.12461
-0.03754,0.99398,0.10297,0.57868,0.73222,-0.11696
-0.11469,0.98197,0.1503,0.84365,0.83224,-0.43396
